Timestamp,Orientation X,Orientation Y,Orientation Z,Orientation W,Accelerometer X,Accelerometer Y,Accelerometer Z,Gyroscope X,Gyroscope Y,Gyroscope Z,EMG1,EMG2,EMG3,EMG4,EMG5,EMG6,EMG7,EMG8,Roll,Yaw
1503610334409,-0.544,-0.390,+0.361,+0.649,+0.848,-0.078,-0.387,-16.062,+12.625,-10.688,16, -13, -14, -3, -7, -5, -1, 2,-1.4659590212385363,1.1173160701373404
1503610334431,-0.544,-0.390,+0.366,+0.646,+0.838,-0.032,-0.418,-5.312,+27.688,-16.000,-3, 2, 8, 5, 4, 0, 2, -2,-1.4660259924368924,1.1257833430772428
1503610334454,-0.546,-0.391,+0.369,+0.643,+0.944,-0.025,-0.381,+2.500,+16.312,-17.188,-23, -5, 11, 9, 7, 4, 1, -13,-1.4721925259283999,1.133064651905443
1503610334469,-0.547,-0.391,+0.371,+0.641,+1.008,-0.052,-0.380,+4.688,+9.250,-10.250,11, 18, 0, -5, -4, -2, -3, 4,-1.474442086948101,1.1365529038118873
1503610334491,-0.547,-0.392,+0.370,+0.640,+0.954,-0.114,-0.402,+3.625,+3.688,-2.625,12, 5, -11, -7, -4, -4, -6, 2,-1.475899234666994,1.1362370712504304
1503610334514,-0.547,-0.393,+0.370,+0.639,+0.911,-0.105,-0.403,+3.938,+6.250,-1.375,1, 6, -3, 0, 0, -2, 0, -3,-1.477437526243378,1.1378187574384762
1503610334529,-0.548,-0.395,+0.371,+0.637,+0.918,-0.073,-0.417,+9.500,+14.000,-4.438,-22, -12, -6, -1, 0, -1, -4, -8,-1.4829096095306533,1.1432142950580977
1503610334551,-0.549,-0.397,+0.371,+0.636,+0.960,-0.105,-0.401,+15.062,+9.750,-2.562,-9, -7, -6, -6, -7, -1, -6, -3,-1.4884171310479493,1.1470433016516908
1503610334574,-0.549,-0.400,+0.370,+0.634,+1.020,-0.141,-0.348,+14.375,+5.188,+2.000,-3, 2, 0, -6, -2, 4, 8, 5,-1.493142580197679,1.1502903778345712
1503610334589,-0.549,-0.402,+0.369,+0.633,+0.935,-0.125,-0.299,+13.125,-0.312,-0.500,4, 32, 31, 18, 12, 1, 1, 0,-1.4963257960850849,1.1519563663942847
1503610334611,-0.551,-0.403,+0.368,+0.632,+0.863,-0.093,-0.344,+13.750,+1.000,-3.750,-35, -19, -2, 7, 9, -1, -1, -15,-1.5024487013025147,1.1523705821705446
1503610334633,-0.551,-0.406,+0.368,+0.629,+0.902,-0.083,-0.339,+15.375,+14.125,-5.188,-8, -3, -13, -8, -3, -6, -6, 0,-1.5072452720144294,1.1572807169969261
1503610334649,-0.553,-0.409,+0.368,+0.625,+0.940,-0.076,-0.375,+22.125,+16.000,-9.438,18, -9, -11, -5, -9, -1, -1, 5,-1.516610370363521,1.1625931683625805
1503610334671,-0.556,-0.411,+0.366,+0.623,+0.994,-0.123,-0.348,+26.688,-6.562,-11.500,30, 14, 9, 2, 2, 2, 4, 10,-1.5266575783866165,1.1631956191865966
1503610334694,-0.558,-0.412,+0.362,+0.623,+0.978,-0.177,-0.339,+15.500,-20.500,+1.312,13, 22, -1, -2, -4, 0, -4, 1,-1.5327855843060665,1.158450622522841
1503610334709,-0.557,-0.412,+0.360,+0.625,+0.898,-0.149,-0.289,-0.938,-11.438,+13.938,-17, 0, 0, 5, 12, -2, -4, -4,-1.5305175865559242,1.1550310254046672
1503610334731,-0.556,-0.412,+0.360,+0.626,+0.870,-0.091,-0.318,-7.312,+4.562,+7.438,9, -9, -1, 1, 3, 1, -1, 2,-1.5282735842520294,1.1549887469303186
1503610334754,-0.555,-0.412,+0.362,+0.625,+0.891,-0.047,-0.337,-8.375,+8.062,-1.625,13, -2, -3, -8, -14, -8, -20, -3,-1.5260074526541252,1.1580374492991439
1503610334769,-0.556,-0.410,+0.364,+0.625,+0.916,-0.038,-0.324,-8.250,-0.938,-9.938,14, 14, 7, -3, 0, 2, -1, -2,-1.5250015759580935,1.1581274547742542
1503610334791,-0.559,-0.407,+0.366,+0.623,+0.911,-0.045,-0.327,-5.812,-6.938,-25.438,-18, -16, -5, -14, -19, 0, 6, -1,-1.5268400162776448,1.1563605201865843
1503610334818,-0.564,-0.403,+0.368,+0.620,+0.926,-0.048,-0.352,-4.875,-14.750,-36.875,-9, -5, -1, -5, -4, 0, -1, -3,-1.5316684630425124,1.15304166384617
1503610334829,-0.569,-0.396,+0.367,+0.620,+0.974,-0.037,-0.386,-10.562,-36.875,-27.750,-3, -2, -1, 13, 16, 0, 7, 1,-1.5318228330342878,1.1393340271283703
1503610334851,-0.571,-0.389,+0.364,+0.624,+1.008,-0.016,-0.411,-20.688,-49.812,-0.250,-11, -1, 3, 7, 3, 2, -11, -16,-1.5253606571971992,1.122298815469772
1503610334877,-0.572,-0.383,+0.361,+0.630,+0.912,-0.027,-0.428,-22.500,-42.938,+14.688,4, 2, 1, 1, 1, 1, 2, 10,-1.5184458976402602,1.1076200430793948
1503610334889,-0.572,-0.378,+0.358,+0.634,+0.864,-0.058,-0.442,-17.938,-36.625,+9.312,15, 1, -8, -5, -3, 1, 6, 16,-1.510760761818743,1.093955158483572
1503610334911,-0.573,-0.373,+0.355,+0.638,+0.927,-0.073,-0.407,-16.875,-36.688,+7.625,32, 22, 3, 3, 0, 2, -1, 13,-1.5055422791085236,1.0807284141069433
1503610334935,-0.571,-0.370,+0.353,+0.643,+0.952,-0.061,-0.408,-22.312,-29.188,+22.812,-12, -1, -3, -5, -3, -1, -14, -28,-1.4964823368560523,1.0724242220493685
1503610334950,-0.567,-0.369,+0.352,+0.647,+0.861,-0.040,-0.479,-15.688,-6.250,+28.500,27, -11, -6, 0, 0, 5, 0, 10,-1.4857456137089164,1.0686506517039875
1503610334971,-0.565,-0.369,+0.350,+0.649,+0.880,-0.067,-0.499,-2.875,-1.438,+20.438,-8, 0, -1, -1, 0, -1, -4, -10,-1.481060459285347,1.0648921870209582
1503610334995,-0.564,-0.370,+0.348,+0.651,+0.991,-0.138,-0.429,-0.312,-7.188,+14.250,-29, -18, 1, 3, 0, -1, -8, -27,-1.4802964347056629,1.0633420610335946
1503610335011,-0.562,-0.370,+0.346,+0.653,+0.982,-0.157,-0.403,-3.688,-15.125,+16.375,12, 4, -8, -12, -11, -4, 7, 35,-1.4756192551954959,1.0595848561159018
1503610335031,-0.561,-0.370,+0.342,+0.657,+0.896,-0.116,-0.473,-0.625,-20.938,+20.250,5, 0, -6, -1, 0, 1, 5, 10,-1.4733932747848384,1.0531722570982458
1503610335065,-0.561,-0.369,+0.337,+0.659,+0.862,-0.110,-0.494,+6.875,-22.000,+20.500,-18, -5, -4, -2, 2, -2, 0, 2,-1.471703267098809,1.042780420659624
1503610335069,-0.560,-0.371,+0.333,+0.662,+0.876,-0.131,-0.452,+10.688,-14.312,+21.500,-33, -21, -3, 2, 0, -4, -10, -28,-1.4724645759205863,1.0397941150555097
1503610335091,-0.559,-0.373,+0.329,+0.663,+0.875,-0.144,-0.429,+13.000,-10.062,+23.312,3, -11, -18, -13, -11, -4, -5, -1,-1.4730213916916104,1.036171176181407
1503610335114,-0.557,-0.375,+0.325,+0.665,+0.886,-0.146,-0.472,+13.562,-7.625,+23.688,10, 9, -2, -4, -5, -4, -4, -9,-1.4713328261876708,1.0325422627238827
1503610335129,-0.556,-0.378,+0.321,+0.667,+0.866,-0.149,-0.500,+17.500,-5.312,+24.438,9, 9, -4, 5, 3, 1, 2, -17,-1.4736206870790078,1.0312264587238094
1503610335151,-0.555,-0.382,+0.316,+0.668,+0.888,-0.185,-0.494,+22.500,-5.625,+27.250,32, 23, 15, 3, 1, 0, 0, 15,-1.4773651817836846,1.0297493402004694
1503610335179,-0.553,-0.386,+0.311,+0.670,+0.897,-0.189,-0.463,+24.125,-4.750,+29.750,-1, -2, 2, -9, -13, -1, 6, 9,-1.478925518773884,1.0283117101298296
1503610335191,-0.551,-0.390,+0.307,+0.671,+0.882,-0.195,-0.434,+23.062,-5.562,+27.188,5, 7, 16, 13, 7, 3, 0, 7,-1.4805347255800254,1.0284245628542157
1503610335218,-0.550,-0.394,+0.303,+0.672,+0.861,-0.207,-0.445,+21.375,-2.125,+25.188,-8, -10, 2, 9, 6, 2, -1, -7,-1.4845779722501247,1.0290389236048099
1503610335236,-0.548,-0.398,+0.299,+0.672,+0.869,-0.206,-0.503,+25.812,+2.000,+25.438,16, 2, 4, 1, 2, -3, 0, 6,-1.4862547125590848,1.0290166075679552
1503610335256,-0.547,-0.403,+0.294,+0.673,+0.868,-0.218,-0.484,+29.438,-0.812,+26.688,-15, -9, -10, -4, -5, -3, -1, 6,-1.4920834702189438,1.030072430720738
1503610335272,-0.545,-0.408,+0.289,+0.673,+0.868,-0.225,-0.480,+31.438,+0.438,+28.375,-7, -3, -6, 2, 15, 3, -1, 9,-1.4956108461514126,1.0305518237881939
1503610335298,-0.543,-0.414,+0.284,+0.673,+0.853,-0.238,-0.465,+34.750,+4.750,+29.562,-4, -33, -23, -8, -4, 1, -2, -19,-1.5010258022050984,1.0332321260166724
1503610335312,-0.542,-0.419,+0.279,+0.673,+0.844,-0.253,-0.457,+36.062,+2.312,+26.500,-11, 7, -4, -6, -2, 3, 0, -3,-1.5071971385945815,1.034500651499486
1503610335332,-0.541,-0.425,+0.274,+0.672,+0.831,-0.267,-0.444,+35.250,+3.875,+26.312,0, -4, -4, 3, 2, -1, -2, -18,-1.5152412835008642,1.0377483682715565
1503610335356,-0.539,-0.431,+0.269,+0.672,+0.830,-0.269,-0.437,+36.250,+6.125,+27.625,2, 12, 12, 6, 2, 4, 3, 3,-1.5212329592259364,1.0410682130724072
1503610335370,-0.537,-0.438,+0.265,+0.671,+0.843,-0.296,-0.452,+40.000,+8.875,+25.750,2, -8, -8, -9, -9, -2, -2, -4,-1.529285499943694,1.048154663182301
1503610335392,-0.536,-0.444,+0.260,+0.669,+0.847,-0.311,-0.428,+39.625,+10.000,+23.062,-13, -12, -11, 3, 8, 2, 3, 3,-1.537965908196326,1.0518719394838312
1503610335414,-0.534,-0.450,+0.256,+0.668,+0.831,-0.299,-0.403,+38.875,+5.688,+22.375,-8, 0, -5, -7, -3, -1, -3, 0,-1.5446448708947909,1.0572934235340261
1503610335430,-0.534,-0.456,+0.252,+0.666,+0.824,-0.287,-0.406,+39.750,+5.062,+18.875,-9, 5, 2, -2, -5, -3, 4, 3,-1.5561168756779502,1.063623516297872
1503610340627,-0.595,-0.347,+0.343,+0.639,+0.869,-0.027,-0.483,+3.000,-3.812,-2.750,5, 24, 3, 1, 0, 0, -1, 3,-1.5196297502326035,1.0191269253777113
1503610340641,-0.596,-0.347,+0.342,+0.638,+0.863,-0.046,-0.475,+4.312,-4.875,-4.562,1, -9, -9, -5, 0, -2, -11, -10,-1.5219798091378458,1.0172941422845223
1503610340657,-0.597,-0.347,+0.341,+0.638,+0.884,-0.042,-0.465,+0.938,-3.375,-1.875,-12, -33, -8, -4, -3, 0, 1, 4,-1.5243925707273993,1.0158253286427996
1503610340678,-0.597,-0.347,+0.341,+0.638,+0.875,-0.028,-0.473,-2.062,-1.438,+0.562,-13, 4, -3, -6, -6, -3, 2, -6,-1.5243925707273993,1.0158253286427996
1503610340695,-0.597,-0.346,+0.341,+0.638,+0.874,-0.024,-0.501,-2.625,-4.125,+0.125,1, 5, -5, -4, -9, -1, -1, 1,-1.522974846815423,1.0140166668780095
1503610340716,-0.598,-0.345,+0.341,+0.639,+0.866,-0.012,-0.490,-1.250,-6.625,-1.938,6, -4, 8, 3, -3, -1, -3, -10,-1.5240665787106682,1.0129375020622942
1503610340738,-0.598,-0.344,+0.340,+0.639,+0.857,-0.023,-0.468,-3.500,-8.562,-1.375,9, 7, -2, -5, 4, 2, 3, 12,-1.5226251104768502,1.009301024217576
1503610340756,-0.598,-0.343,+0.340,+0.640,+0.864,-0.012,-0.469,-7.062,-4.438,+1.625,0, 14, 7, -2, -6, -4, -7, -15,-1.5212774235626467,1.007862791315612
1503610340776,-0.597,-0.342,+0.341,+0.640,+0.861,+0.003,-0.485,-7.062,+1.375,+5.312,9, -1, -4, 1, 2, 0, 1, 12,-1.5174543696696403,1.0075355568951383
1503610340799,-0.596,-0.342,+0.341,+0.641,+0.871,-0.010,-0.504,-5.500,+1.750,+8.938,1, 18, -5, -7, -4, -1, 1, 5,-1.5150643610422339,1.0075344881283244
1503610340814,-0.595,-0.343,+0.341,+0.642,+0.880,-0.034,-0.489,-5.000,-1.312,+10.062,2, 2, 2, 1, 3, 2, 0, 2,-1.5140863204792079,1.009328153127544
1503610340836,-0.594,-0.342,+0.341,+0.644,+0.880,-0.039,-0.485,-5.750,-2.625,+7.375,5, -4, -13, -12, -8, -4, -2, -3,-1.5103681018509099,1.0078965929249166
1503610340859,-0.593,-0.342,+0.340,+0.645,+0.863,-0.036,-0.484,-6.375,-4.375,+6.812,0, 6, 2, 0, 7, -3, -2, -4,-1.507949763511001,1.0060541468442983
1503610340882,-0.592,-0.341,+0.340,+0.646,+0.853,-0.017,-0.484,-7.125,-4.562,+9.000,15, 26, 43, 15, 0, 4, 4, 6,-1.5041678340866285,1.0042628576148167
1503610340897,-0.591,-0.341,+0.340,+0.647,+0.863,-0.021,-0.479,-5.375,-0.062,+9.625,-6, -11, -30, -13, -7, -5, -6, -16,-1.501797413929197,1.0042617832468237
1503610340918,-0.589,-0.342,+0.340,+0.648,+0.877,-0.038,-0.482,-4.125,+2.250,+8.750,-5, -10, -10, 4, 3, 1, -2, -5,-1.4983960244436973,1.005681202556046
1503610340935,-0.588,-0.342,+0.341,+0.649,+0.854,-0.042,-0.499,-3.688,+5.562,+6.500,-7, -8, 2, 1, -2, -2, -2, 0,-1.4960872681860142,1.0075259378635784
1503610340958,-0.588,-0.343,+0.341,+0.649,+0.853,-0.035,-0.488,-2.250,+4.000,+4.750,-1, -4, -11, -11, -6, -1, 0, -2,-1.497504586345746,1.0093132366350146
1503610340978,-0.587,-0.343,+0.341,+0.649,+0.860,-0.028,-0.479,-1.562,+2.875,+2.000,-27, -22, -6, -4, -10, -8, -8, -13,-1.4950627068290234,1.008947561458392
1503610340996,-0.587,-0.343,+0.341,+0.649,+0.869,-0.031,-0.479,-2.188,-1.438,+1.000,6, -1, 1, -9, -12, 2, 8, 14,-1.4950627068290234,1.008947561458392
1503610341016,-0.587,-0.342,+0.341,+0.649,+0.868,-0.029,-0.478,-3.312,-4.875,+1.125,-16, -8, -11, -3, 0, 0, 2, 7,-1.493642389671154,1.0071601974177637
1503610341038,-0.587,-0.341,+0.341,+0.650,+0.859,-0.033,-0.484,-4.375,-3.562,+1.688,37, 15, 7, 0, -1, 0, 2, 23,-1.4923166994700454,1.0057410805701206
1503610341055,-0.587,-0.341,+0.341,+0.651,+0.856,-0.035,-0.500,-5.750,-0.562,+2.688,-19, 7, 11, 6, 2, 2, -2, -11,-1.492408748615876,1.0061064556941328
1503610341076,-0.586,-0.340,+0.341,+0.651,+0.864,-0.027,-0.485,-4.812,-2.125,+1.062,-6, -2, 2, -11, -2, -3, -6, -16,-1.4885499193265819,1.0039608173751962
1503610341098,-0.587,-0.340,+0.342,+0.651,+0.875,-0.035,-0.485,-4.062,-4.188,-1.562,-11, -14, -1, 5, -4, -4, 0, -1,-1.4910507902573327,1.0061783641207573
1503610341115,-0.587,-0.339,+0.341,+0.652,+0.892,-0.051,-0.485,-4.625,-7.438,+1.500,-13, -29, -7, -1, -2, -2, -5, -4,-1.4896820385755132,1.002915664934132
1503610341137,-0.586,-0.338,+0.340,+0.653,+0.884,-0.049,-0.483,-5.250,-7.625,+6.250,-8, 5, 7, -2, 0, 0, -2, -19,-1.4858687220797007,0.9992913910559483
1503610341160,-0.585,-0.338,+0.340,+0.654,+0.867,-0.044,-0.484,-4.875,-7.000,+7.438,-8, -2, 5, -2, 7, 1, -4, -8,-1.4835208579257195,0.9992935569907518
1503610341174,-0.585,-0.337,+0.339,+0.655,+0.868,-0.053,-0.484,-3.500,-6.188,+6.438,-7, 2, -6, -5, -4, -3, 3, 7,-1.4821582635756387,0.9960386070573355
1503610341197,-0.584,-0.338,+0.338,+0.656,+0.885,-0.074,-0.500,-2.125,-5.000,+7.375,-11, -4, 10, 9, 2, 1, 3, 4,-1.4811604572450114,0.9959590426905977
1503610341218,-0.583,-0.338,+0.336,+0.658,+0.888,-0.090,-0.506,-0.125,-4.875,+11.062,-6, 7, -6, -6, -3, -1, -2, -24,-1.4788027731662992,0.9926281640324843
1503610341235,-0.582,-0.339,+0.334,+0.659,+0.888,-0.112,-0.492,+2.688,-5.438,+13.875,0, 11, 6, 3, 1, -3, -3, -18,-1.4777518361135866,0.9907073758504433
1503610341256,-0.580,-0.342,+0.332,+0.660,+0.897,-0.132,-0.495,+6.625,-1.312,+14.062,16, -6, -12, -2, -3, 0, 2, 13,-1.4771123424061032,0.9919833487840682
1503610341278,-0.579,-0.345,+0.330,+0.661,+0.895,-0.144,-0.484,+10.875,+0.562,+14.188,-10, -5, -15, -9, -5, -1, -1, -6,-1.4789554292015021,0.9936648856020281
1503610341299,-0.577,-0.349,+0.327,+0.662,+0.906,-0.165,-0.494,+16.062,+3.125,+19.562,-2, 20, 21, 6, 3, -2, -7, -11,-1.4797960387921547,0.9949774260702485
1503610341317,-0.574,-0.354,+0.324,+0.663,+0.897,-0.166,-0.502,+20.688,+5.125,+26.500,-5, -3, 7, 5, 4, 0, 5, 5,-1.479766881445979,0.9977872467614018
1503610341338,-0.572,-0.360,+0.320,+0.664,+0.879,-0.151,-0.521,+27.062,+7.688,+30.438,0, -8, -12, -9, -5, -3, 1, 11,-1.4837134856666276,1.0011034232090936
1503610341355,-0.570,-0.367,+0.316,+0.664,+0.871,-0.163,-0.491,+34.125,+12.000,+29.750,2, -3, 1, -2, 4, 1, 3, 8,-1.4892487097185443,1.0060915867439235
1503610341377,-0.567,-0.375,+0.311,+0.664,+0.888,-0.184,-0.481,+37.375,+12.438,+29.938,14, 6, 4, 4, 2, -1, -3, 1,-1.4941167071197052,1.0109997041766954
1503610341400,-0.565,-0.382,+0.307,+0.664,+0.875,-0.180,-0.480,+37.312,+13.000,+33.312,8, 0, 14, 8, 1, 0, 2, 3,-1.5001411995733944,1.0164434692203164
1503610341414,-0.562,-0.389,+0.302,+0.664,+0.835,-0.165,-0.483,+38.125,+13.250,+34.562,-3, -9, -10, -5, -6, -4, -8, -17,-1.5039739873538522,1.0199394851327728
1503610341437,-0.560,-0.397,+0.298,+0.664,+0.835,-0.154,-0.492,+39.500,+15.062,+33.188,-5, -4, 3, 0, 0, 0, 2, 3,-1.5121241037892148,1.0278053026829057
1503610341458,-0.558,-0.404,+0.293,+0.663,+0.847,-0.158,-0.487,+41.375,+14.062,+30.312,4, 3, 11, 3, 1, 0, -2, 0,-1.5187878805336046,1.031919301259009
1503610341474,-0.557,-0.410,+0.289,+0.662,+0.848,-0.175,-0.469,+40.688,+8.250,+27.000,-3, -17, -20, -10, -5, -4, -2, 2,-1.5263880761027717,1.0364145710169705
1503610341497,-0.556,-0.416,+0.284,+0.662,+0.854,-0.183,-0.442,+37.750,+3.875,+24.812,7, 0, -2, 0, 1, -1, -3, -5,-1.534186993484331,1.0397128568055003
1503610341518,-0.555,-0.421,+0.280,+0.661,+0.818,-0.194,-0.442,+34.562,+5.000,+23.812,16, 27, 2, -2, -2, -2, -2, -7,-1.5404096931632156,1.0425492068779898
1503610341535,-0.553,-0.426,+0.276,+0.660,+0.814,-0.197,-0.464,+31.812,+11.312,+22.250,-12, -12, -3, 1, -1, -2, -3, -2,-1.5444531487652382,1.0451051357563563
1503610341556,-0.552,-0.431,+0.273,+0.659,+0.818,-0.206,-0.464,+31.750,+12.062,+18.688,4, -6, 4, 3, -1, 0, 1, 20,-1.5509933777483822,1.049926543810685
1503610341578,-0.552,-0.436,+0.271,+0.657,+0.848,-0.215,-0.445,+32.000,+9.500,+14.375,-7, 2, 8, 3, -2, 1, -2, -6,-1.5599818904537261,1.0567148023208348
1503610341596,-0.552,-0.440,+0.268,+0.656,+0.862,-0.250,-0.437,+29.875,+5.250,+11.250,8, 9, 9, 6, 3, 1, -2, -8,-1.5672632437022669,1.060106714294025
1503610341616,-0.551,-0.444,+0.265,+0.655,+0.861,-0.261,-0.448,+25.375,+6.000,+14.500,-12, 18, 4, 1, 0, 0, 4, 4,-1.5723363462642732,1.0631587701882153
1503610341640,-0.550,-0.447,+0.263,+0.654,+0.866,-0.247,-0.445,+22.125,+8.000,+15.500,-7, -19, -22, -12, -6, -3, -2, 4,-1.5756343126874612,1.065744697983138
1503610341654,-0.550,-0.451,+0.260,+0.653,+0.874,-0.247,-0.451,+25.125,+8.625,+13.812,0, 25, 19, 0, -1, -2, 1, -1,-1.5831820832765333,1.0694380918190436
1503610341677,-0.550,-0.455,+0.258,+0.652,+0.896,-0.266,-0.436,+27.875,+4.188,+12.375,0, -11, -15, -5, -2, 0, 1, -5,-1.5908045809968254,1.0748505292020125
1503610341699,-0.550,-0.458,+0.254,+0.650,+0.886,-0.281,-0.422,+28.625,-0.750,+12.875,5, 6, 3, 0, 2, 2, 3, 6,-1.5966731407588224,1.0746610016409333
1503610341714,-0.550,-0.462,+0.250,+0.649,+0.865,-0.293,-0.408,+27.625,-1.500,+14.000,7, -13, -3, -5, -3, 1, 1, 2,-1.604531010458595,1.0771016294513112
1503610341737,-0.550,-0.466,+0.247,+0.648,+0.838,-0.292,-0.416,+28.125,+4.250,+13.438,-2, 4, -5, 4, 0, -1, -2, -5,-1.6124602543690598,1.0812533386363152
1503610341761,-0.549,-0.470,+0.245,+0.646,+0.845,-0.305,-0.437,+31.250,+11.438,+12.875,5, 4, 6, 1, 0, 0, 3, 4,-1.6182294531055428,1.0863753259144782
1503610341775,-0.549,-0.475,+0.242,+0.644,+0.860,-0.323,-0.408,+34.062,+11.875,+9.312,-2, -3, -18, -3, 4, -2, -1, -1,-1.628417963070332,1.0928520894066054
1503610341798,-0.549,-0.480,+0.239,+0.641,+0.883,-0.338,-0.386,+35.312,+4.438,+7.562,-2, 4, 4, 4, 1, -1, -2, -3,-1.63884161243753,1.0992715826185957
1503610341819,-0.550,-0.484,+0.235,+0.639,+0.875,-0.349,-0.382,+34.125,-0.688,+7.312,8, 17, 8, 5, 5, 1, 1, 2,-1.649645389725268,1.1026694719501071
1503610341835,-0.551,-0.488,+0.231,+0.637,+0.834,-0.349,-0.364,+32.625,-2.312,+7.750,-3, -10, -5, 0, 1, -2, 0, -2,-1.6605772830955599,1.106230947417548
1503610341857,-0.551,-0.491,+0.227,+0.635,+0.819,-0.342,-0.386,+33.000,-0.250,+6.625,-3, -3, -10, -13, -7, -4, -5, -8,-1.6673474105955504,1.1070580508910381
1503610341879,-0.552,-0.495,+0.224,+0.632,+0.821,-0.352,-0.393,+35.375,+4.125,+4.875,2, 3, 10, 6, 2, -2, -1, 0,-1.6785441309345044,1.112185338439529
1503610341895,-0.553,-0.500,+0.221,+0.629,+0.850,-0.373,-0.357,+34.062,+5.250,+3.625,3, 6, -2, -3, -2, -3, 1, 8,-1.691963962340096,1.1199278069808947
1503610341917,-0.553,-0.504,+0.218,+0.627,+0.848,-0.377,-0.327,+29.938,+0.750,+5.938,3, 1, -4, -3, 1, -2, 2, 3,-1.7010761320656718,1.1250995630821912
1503610341940,-0.553,-0.507,+0.215,+0.625,+0.827,-0.370,-0.344,+26.562,+1.562,+7.375,-6, 13, 4, -5, 0, 0, 2, 3,-1.7081871584878356,1.127895717616144
1503610341954,-0.554,-0.510,+0.212,+0.623,+0.833,-0.363,-0.357,+27.750,+5.375,+6.188,-2, 8, 1, -2, -3, -1, -3, -5,-1.7175855441696908,1.1312646132414148
1503610341977,-0.554,-0.514,+0.209,+0.621,+0.847,-0.386,-0.353,+29.562,+2.438,+5.375,1, -2, 0, 2, 3, -2, -2, 1,-1.7270282832061352,1.13680963485553
1503610345358,-0.619,-0.467,+0.360,+0.519,+0.965,-0.046,-0.280,-15.438,-8.812,-3.812,-15, -19, -9, -5, -9, -4, 15, 16,-1.7748118738808871,1.2610574727708814
1503610345381,-0.619,-0.464,+0.361,+0.520,+0.935,-0.039,-0.259,-15.062,-11.812,-9.438,5, -18, 0, 2, 2, 1, -1, 11,-1.7693315994432823,1.256509582108838
1503610345403,-0.620,-0.461,+0.362,+0.521,+0.930,-0.012,-0.265,-15.062,-11.562,-8.750,-8, -5, -5, 2, 2, 2, 3, -1,-1.7661117233260706,1.2522849816557784
1503610345418,-0.620,-0.459,+0.364,+0.521,+0.947,-0.007,-0.289,-13.062,+0.688,-6.438,2, 5, -3, -2, -3, -3, -8, -14,-1.7624207277926376,1.2514231100447237
1503610345441,-0.620,-0.459,+0.366,+0.520,+0.946,-0.018,-0.319,-5.750,+15.312,-7.125,-10, 3, 3, -3, -3, 0, 5, 1,-1.7623071097111465,1.2546220745288457
1503610345464,-0.620,-0.460,+0.368,+0.518,+0.941,-0.021,-0.291,+1.625,+15.188,-9.750,-12, 9, 2, 3, 2, -3, 0, 10,-1.764094899914109,1.259736004765356
1503610345479,-0.621,-0.460,+0.369,+0.515,+0.961,+0.000,-0.254,+4.625,+8.125,-17.938,18, 3, 1, -1, -3, 2, 7, 32,-1.7668755891970522,1.261061727720403
1503610345501,-0.623,-0.460,+0.370,+0.513,+0.999,+0.001,-0.231,+5.062,+2.125,-15.375,-21, -1, -2, -1, 1, 3, 5, 9,-1.7716626290555588,1.2628934450861793
1503610345523,-0.623,-0.462,+0.370,+0.512,+0.989,-0.034,-0.277,+5.000,+6.938,-1.875,1, -6, -2, 0, -1, -2, -11, -6,-1.7752274128749657,1.2669375229012458
1503610345539,-0.622,-0.464,+0.369,+0.511,+0.961,-0.064,-0.287,+8.375,+13.000,+5.000,-19, -12, 0, 1, 0, -1, -1, -15,-1.7767656734987438,1.269003325891854
1503610345564,-0.621,-0.467,+0.368,+0.510,+0.981,-0.067,-0.240,+11.562,+10.812,+2.938,12, -10, 3, 3, 3, 2, -3, -8,-1.7800049209348991,1.2732416436411655
1503610345577,-0.622,-0.469,+0.368,+0.508,+1.019,-0.065,-0.180,+11.000,+0.812,-4.562,22, 57, 42, 8, 1, -1, -5, -10,-1.786096890929233,1.2773925817757676
1503610345599,-0.624,-0.468,+0.366,+0.508,+1.007,-0.040,-0.194,+6.938,-13.500,-8.938,-9, 11, -10, 0, 2, 2, 4, -12,-1.7892570893317181,1.2723826697631717
1503610345620,-0.626,-0.465,+0.365,+0.508,+0.947,-0.025,-0.216,+0.500,-24.500,-10.375,9, -49, -34, -13, -6, -3, -2, 26,-1.7889101030365337,1.264777854969539
1503610345643,-0.629,-0.462,+0.365,+0.508,+0.941,-0.010,-0.217,-6.812,-24.562,-11.125,6, 13, 12, 9, 3, 0, -4, -10,-1.7906451157687857,1.2591789477523103
1503610345659,-0.630,-0.459,+0.365,+0.509,+0.957,+0.021,-0.243,-9.062,-15.375,-6.500,-15, -8, -23, -9, -2, 1, 4, 16,-1.7876902718046102,1.2532666031551163
1503610345681,-0.631,-0.456,+0.365,+0.510,+0.938,+0.045,-0.285,-8.062,-14.688,-2.875,16, 18, -1, 0, -1, 1, 9, 28,-1.784770362430556,1.2473811076948496
1503610345703,-0.633,-0.453,+0.365,+0.511,+0.944,+0.061,-0.292,-9.875,-19.000,-1.125,-13, -5, 2, -2, -2, -2, 0, -19,-1.7841446466255753,1.241815404101157
1503610345719,-0.634,-0.449,+0.365,+0.513,+0.945,+0.051,-0.260,-12.375,-20.375,+0.500,-16, 17, 5, -2, -4, -4, -7, -13,-1.7794334066253912,1.2341117853256958
1503610345740,-0.634,-0.446,+0.364,+0.516,+0.970,+0.055,-0.279,-14.562,-20.812,+4.438,16, -4, -3, -3, -3, 0, 9, 10,-1.774027840468716,1.2267911148251662
1503610345765,-0.634,-0.443,+0.364,+0.518,+0.963,+0.038,-0.308,-14.625,-15.062,+6.875,13, 10, 9, 0, -2, -3, -10, -10,-1.7687263404084022,1.2209739562052282
1503610345779,-0.635,-0.440,+0.363,+0.521,+0.937,+0.036,-0.335,-12.750,-16.750,+4.688,-2, -2, 0, -3, -3, -5, -9, -15,-1.7656699277618932,1.2140202340331538
1503610345803,-0.636,-0.438,+0.363,+0.523,+0.949,+0.027,-0.319,-9.750,-19.188,+3.312,10, -25, -10, -1, 3, 1, -3, -1,-1.7643077040995607,1.2106588845236927
1503610345826,-0.636,-0.435,+0.362,+0.524,+0.962,+0.019,-0.293,-9.562,-18.188,+1.250,-14, 8, 2, -1, -3, -3, -6, -4,-1.759505178013417,1.2029382699080398
1503610345839,-0.636,-0.433,+0.362,+0.526,+0.955,+0.013,-0.290,-11.438,-15.062,+1.688,25, -3, -15, -6, -5, -5, -6, 6,-1.7558879001649261,1.1993036709855922
1503610345862,-0.636,-0.431,+0.362,+0.528,+0.943,+0.018,-0.321,-12.562,-9.875,+3.875,-33, -21, 3, 4, 3, 6, 29, 9,-1.7522895288800735,1.195685696994731
1503610345883,-0.636,-0.429,+0.362,+0.530,+0.956,+0.021,-0.333,-11.375,-9.312,+4.188,-6, -9, -3, 1, 0, 0, -6, 3,-1.7487101633668451,1.1920843673455477
1503610345899,-0.636,-0.428,+0.362,+0.531,+0.944,+0.014,-0.332,-8.625,-8.312,+4.688,8, 2, -3, -10, -1, -1, 0, 3,-1.7469276378806344,1.1902899496825317
1503610345921,-0.636,-0.426,+0.361,+0.533,+0.924,+0.002,-0.316,-8.812,-10.688,+3.688,-14, -16, -3, 1, 1, 0, -1, 4,-1.7435232061902861,1.1849739220506272
1503610345937,-0.635,-0.425,+0.361,+0.535,+0.935,+0.004,-0.319,-10.625,-9.938,+5.375,-9, -23, -9, 1, 1, -4, -5, 4,-1.7392150607484975,1.183142328866703
1503610345960,-0.634,-0.424,+0.361,+0.537,+0.934,+0.007,-0.318,-10.438,-7.438,+9.688,4, 28, 14, -1, -4, -1, -3, -6,-1.7349163683927213,1.181316011077329
1503610345980,-0.633,-0.423,+0.360,+0.539,+0.943,+0.006,-0.352,-8.250,-5.562,+10.375,10, -3, -1, -3, -3, 0, 4, 5,-1.7307618851406592,1.1777505660684358
1503610346004,-0.633,-0.422,+0.360,+0.540,+0.928,+0.007,-0.330,-8.250,-5.688,+9.250,-4, -11, -3, -1, -2, -3, -5, -13,-1.72900643681684,1.1759802836041038
1503610346019,-0.632,-0.421,+0.359,+0.542,+0.925,+0.006,-0.333,-7.188,-7.062,+9.812,5, 12, -8, -4, -8, -4, -2, 2,-1.7248577231722872,1.1724212115067598
1503610346040,-0.631,-0.422,+0.359,+0.544,+0.938,-0.014,-0.329,-5.375,-0.625,+9.375,4, 10, 16, 10, 6, 5, 1, 7,-1.7236979182625478,1.1746937296142708
1503610346064,-0.629,-0.422,+0.358,+0.545,+0.969,-0.025,-0.342,-5.312,-0.938,+11.438,4, -2, -11, -9, -4, -6, -10, -6,-1.7189789624123386,1.1725744511539904
1503610346079,-0.628,-0.422,+0.357,+0.547,+0.969,-0.008,-0.356,-3.750,-2.938,+15.062,7, -2, 1, -6, -3, 0, -3, -4,-1.7164043692232367,1.1710591855033388
1503610346102,-0.627,-0.422,+0.356,+0.549,+0.964,-0.017,-0.334,-1.312,-8.875,+13.625,-12, -9, 0, 1, -2, 3, 14, 4,-1.7138359475095963,1.1695447520198539
1503610346123,-0.627,-0.423,+0.354,+0.551,+0.953,-0.015,-0.340,-1.062,-7.188,+12.438,11, 17, 4, -1, 3, 1, -4, -2,-1.7152896066646204,1.168671525905967
1503610346139,-0.626,-0.423,+0.352,+0.553,+0.933,-0.008,-0.367,-0.125,-8.438,+17.438,-17, -19, -6, 0, -3, -3, -10, -12,-1.7128520207527886,1.165429973230285
1503610346163,-0.624,-0.423,+0.349,+0.556,+0.935,-0.032,-0.357,+1.125,-6.812,+22.875,-12, -26, -23, -7, -1, -5, -6, -3,-1.708037722690864,1.160409538530041
1503610346183,-0.623,-0.425,+0.347,+0.558,+0.936,-0.047,-0.368,+3.875,-2.875,+22.688,-1, 9, -1, 1, -3, -5, -2, -14,-1.7087802783061141,1.161290710640047
1503610346200,-0.621,-0.427,+0.344,+0.560,+0.961,-0.053,-0.352,+5.625,-0.438,+25.812,-9, 6, 10, 3, 1, 2, 5, 5,-1.707351988222826,1.160139157415754
1503610346221,-0.618,-0.429,+0.342,+0.563,+0.975,-0.053,-0.358,+6.312,-0.688,+27.250,-7, -18, 10, 14, 4, 4, 0, 0,-1.7033705029695758,1.1606526076294768
1503610346243,-0.617,-0.431,+0.338,+0.565,+0.967,-0.059,-0.348,+8.688,-7.500,+27.188,21, 33, 14, 3, 1, 0, 0, 25,-1.7044322422314442,1.158197487923267
1503610346261,-0.616,-0.433,+0.334,+0.568,+0.946,-0.070,-0.348,+10.875,-12.125,+29.875,4, -32, -17, -8, -5, -6, 1, 18,-1.7053547318161029,1.1560666427665305
1503610346280,-0.614,-0.435,+0.329,+0.570,+0.909,-0.089,-0.365,+13.312,-6.562,+31.000,-6, -10, -3, -2, -3, -3, -6, -13,-1.704294216342,1.1516894493738832
1503610346303,-0.612,-0.439,+0.325,+0.573,+0.914,-0.106,-0.373,+15.250,-0.062,+34.188,14, 21, 0, -2, 4, 6, 6, 2,-1.706303869855784,1.1535281960266908
1503610346319,-0.609,-0.442,+0.320,+0.575,+0.933,-0.103,-0.373,+15.438,+3.125,+38.125,-8, -8, -2, -3, -2, -1, -7, 3,-1.7047392790747884,1.151055490912099
1503610346340,-0.606,-0.446,+0.316,+0.578,+0.945,-0.106,-0.370,+18.438,+0.938,+40.625,3, 0, 0, 0, -4, -3, -6, -7,-1.7046640611184707,1.1527039312282283
1503610349462,-0.519,-0.377,+0.397,+0.656,+0.940,-0.088,-0.344,-4.000,-2.000,-4.938,-6, -14, 1, 3, 0, 0, -1, -1,-1.3921381250450104,1.1570608450561501
1503610349490,-0.519,-0.376,+0.398,+0.657,+0.940,-0.081,-0.354,-7.688,-2.812,-2.938,6, -7, -8, -1, -1, -1, 1, 3,-1.3908296526266566,1.1575693591640024
1503610349505,-0.519,-0.374,+0.398,+0.657,+0.919,-0.061,-0.361,-9.312,-3.188,-0.812,-23, -1, 23, 5, -1, -2, -1, -7,-1.3875812648897659,1.1539756457825008
1503610349523,-0.520,-0.372,+0.398,+0.658,+0.888,-0.032,-0.378,-6.438,-8.250,-3.625,6, -5, -11, -5, -2, 0, -1, 5,-1.3868271928039622,1.1510219341493995
1503610349543,-0.520,-0.371,+0.398,+0.658,+0.903,-0.022,-0.366,-7.312,-5.125,-0.562,4, 0, -3, 6, 1, -1, -2, 5,-1.38521541635061,1.1492355229072437
1503610349566,-0.518,-0.369,+0.400,+0.659,+0.926,-0.006,-0.347,-15.938,+1.062,+7.062,7, -1, -17, -5, -3, -1, 2, 13,-1.377883234241687,1.1493970095040413
1503610349588,-0.517,-0.368,+0.401,+0.661,+0.941,-0.024,-0.347,-15.500,+2.688,+9.000,-10, -6, 7, 4, 0, 1, 1, -4,-1.3745289944957395,1.1499855748205923
1503610349610,-0.516,-0.367,+0.402,+0.662,+0.913,-0.042,-0.378,-10.125,-3.625,+1.812,6, 10, -6, -2, -3, -2, -2, -6,-1.3709843625444826,1.150256510129451
1503610349625,-0.517,-0.365,+0.402,+0.662,+0.898,-0.057,-0.387,-8.000,-6.812,-4.000,-7, 4, 17, -2, 0, -2, -4, 7,-1.3700813403366188,1.147032331306906
1503610349640,-0.517,-0.363,+0.402,+0.663,+0.917,-0.064,-0.354,-8.312,-6.562,-5.500,-3, -12, -9, -8, 0, -1, 0, -2,-1.3671074881049314,1.1438517157104349
1503610349671,-0.517,-0.362,+0.402,+0.663,+0.943,-0.063,-0.369,-9.375,-5.500,-1.688,-2, -10, -11, -3, -4, -2, 0, -4,-1.365520913903714,1.1420995644504661
1503610349688,-0.517,-0.361,+0.402,+0.664,+0.929,-0.073,-0.365,-7.688,-5.500,+3.188,-8, 3, 8, 3, 0, -2, -3, -6,-1.3641494863371646,1.1406860238766114
1503610349700,-0.516,-0.360,+0.401,+0.665,+0.913,-0.098,-0.373,-7.250,-4.062,+3.438,-3, 28, 10, 3, 1, -1, -3, -9,-1.3603312306481856,1.1369546217739999
1503610349725,-0.516,-0.360,+0.401,+0.666,+0.924,-0.093,-0.377,-6.000,-1.438,+0.188,6, -11, -9, -3, -2, 0, 2, 6,-1.3605472607512588,1.137292437988891
1503610349745,-0.515,-0.360,+0.402,+0.667,+0.930,-0.104,-0.371,-5.625,+1.500,+3.875,-11, 31, 22, 5, 0, 1, 0, -4,-1.3586156840613663,1.1393476040080874
1503610349762,-0.513,-0.360,+0.402,+0.668,+0.920,-0.073,-0.372,-7.750,-0.625,+4.938,-3, -15, -15, -4, -2, -3, 1, -2,-1.354241873048767,1.1390811036821271
1503610349783,-0.512,-0.359,+0.402,+0.668,+0.916,-0.049,-0.359,-8.188,-0.688,+6.500,1, -4, 2, 1, 0, -1, 0, -2,-1.350363056825562,1.1370392117503352
1503610349806,-0.511,-0.359,+0.402,+0.669,+0.915,-0.065,-0.377,-6.062,+0.938,+8.375,18, -1, -7, -2, 1, -1, 0, 5,-1.348291547572346,1.1370754613211465
1503610349822,-0.510,-0.360,+0.402,+0.670,+0.920,-0.083,-0.375,-5.438,+1.938,+8.938,-18, -13, -8, -4, -1, -2, 1, 7,-1.3478084954616194,1.1388495513098922
1503610349843,-0.508,-0.360,+0.402,+0.671,+0.930,-0.089,-0.360,-4.062,+3.875,+5.875,18, 3, -8, -10, -5, -3, -1, 11,-1.3434554955444296,1.1385824739851815
1503610349865,-0.508,-0.360,+0.403,+0.671,+0.926,-0.086,-0.365,-4.000,+2.812,+2.688,-9, 6, 4, 4, -1, 0, -1, -12,-1.3436181769750397,1.140611701836089
1503610349880,-0.508,-0.360,+0.403,+0.671,+0.916,-0.063,-0.368,-3.438,-0.812,-0.312,10, -6, -5, 1, 0, -2, -2, 1,-1.3436181769750397,1.140611701836089
1503610349903,-0.509,-0.359,+0.403,+0.671,+0.909,-0.058,-0.375,-0.562,-3.750,-4.500,-6, -16, -5, -2, -3, -1, 0, -5,-1.3443210516963235,1.1391772807104872
1503610349928,-0.509,-0.359,+0.402,+0.671,+0.916,-0.070,-0.373,+0.062,-5.812,-3.938,-5, 1, 1, -4, -2, -4, -1, -2,-1.3441593787268937,1.1371479434430476
1503610349940,-0.510,-0.358,+0.401,+0.671,+0.924,-0.074,-0.378,-1.500,-7.250,-1.375,-5, 6, 3, 3, 2, 2, 1, -1,-1.344709638510134,1.1336883144746117
1503610349963,-0.511,-0.357,+0.400,+0.672,+0.912,-0.074,-0.370,-3.125,-9.812,-1.750,-5, -2, -8, -8, -1, -1, -3, -2,-1.345498051787954,1.1305748197813925
1503610349989,-0.511,-0.355,+0.400,+0.672,+0.905,-0.065,-0.377,-4.688,-8.500,-3.562,5, 7, -5, -4, -2, 0, 1, -1,-1.342354141068271,1.1271167199435035
1503610350000,-0.512,-0.354,+0.400,+0.673,+0.916,-0.063,-0.388,-5.000,-7.562,-5.375,4, 0, -2, -2, -2, -3, -3, 1,-1.3433227924403872,1.1260424695680633
1503610350025,-0.513,-0.352,+0.400,+0.673,+0.932,-0.046,-0.379,-6.188,-8.375,-2.562,-3, 1, 3, 1, -1, 0, 2, 11,-1.342509816002441,1.1229086565590958
1503610350046,-0.513,-0.351,+0.399,+0.674,+0.947,-0.047,-0.384,-5.750,-13.125,-0.062,0, -8, -3, 4, -1, -3, -2, -9,-1.341029381265552,1.1195121042636824
1503610350063,-0.514,-0.349,+0.397,+0.675,+0.935,-0.063,-0.388,-5.375,-16.125,-1.312,-9, -9, 1, 2, 0, 0, 1, -1,-1.3401604470236859,1.1126906080649603
1503610350083,-0.515,-0.347,+0.396,+0.677,+0.904,-0.061,-0.397,-6.000,-17.500,-1.375,3, 2, 2, -1, -1, 0, -2, -4,-1.3397109344635931,1.108265731506729
1503610350106,-0.515,-0.345,+0.395,+0.678,+0.894,-0.053,-0.411,-7.062,-14.062,+0.312,-18, -8, -8, -4, -2, 2, 2, -1,-1.336725941916915,1.1031923616356387
1503610350130,-0.516,-0.343,+0.394,+0.679,+0.913,-0.044,-0.395,-7.500,-11.250,+1.000,-6, -6, -5, -9, -4, -5, -2, -5,-1.336082015763966,1.0984439598948912
1503610350143,-0.515,-0.342,+0.394,+0.680,+0.935,-0.037,-0.396,-7.000,-10.625,+4.062,3, 4, -2, -1, -1, -1, -4, -1,-1.3324777421079683,1.096798697564843
1503610350166,-0.515,-0.341,+0.392,+0.682,+0.926,-0.047,-0.423,-6.562,-10.875,+7.000,4, 5, 8, 2, 3, -2, 4, 10,-1.3311263885800741,1.091781276232359
1503610350182,-0.514,-0.340,+0.391,+0.683,+0.899,-0.048,-0.438,-4.375,-7.375,+6.750,4, -6, -2, 4, -2, 0, -3, -20,-1.3273671135546956,1.0881176164622552
1503610350207,-0.514,-0.340,+0.391,+0.684,+0.883,-0.062,-0.428,-1.375,-1.312,+8.250,-4, -9, 11, 8, 3, 1, 1, 3,-1.3276152896402251,1.0884812064835263
1503610350227,-0.513,-0.341,+0.390,+0.685,+0.895,-0.071,-0.429,-1.375,+2.562,+7.250,4, -2, -12, -5, -2, -1, -3, -3,-1.3268841653796752,1.0881912433073944
1503610350241,-0.511,-0.342,+0.391,+0.685,+0.896,-0.076,-0.417,-2.188,+6.250,+8.500,0, 1, 3, -3, 0, -2, -1, 2,-1.3239201899335293,1.0912689249291705
1503610350263,-0.508,-0.344,+0.391,+0.685,+0.894,-0.084,-0.416,-0.625,+16.312,+16.562,0, -9, -8, -4, -4, -1, -3, -12,-1.3200150547722609,1.0937028690760366
1503610350286,-0.506,-0.348,+0.392,+0.686,+0.917,-0.072,-0.456,+4.062,+17.562,+18.812,1, 9, 9, 7, 4, 3, 2, 2,-1.3219732265392399,1.102249327998418
1503610350301,-0.504,-0.351,+0.391,+0.686,+0.953,-0.083,-0.433,+9.125,+11.688,+16.500,-2, 10, 11, 4, 0, 0, 0, 0,-1.3218526731040725,1.1047200262569101
1503610350324,-0.503,-0.354,+0.389,+0.686,+0.965,-0.118,-0.391,+12.438,-0.062,+14.625,-20, 26, 12, 2, 1, 0, -3, -3,-1.3239002204295787,1.105522768697157
1503610350345,-0.502,-0.356,+0.386,+0.687,+0.956,-0.121,-0.386,+12.438,-9.938,+16.312,-2, -13, -12, -4, -2, -3, 0, 3,-1.3244764758376788,1.1029744918207751
1503610350361,-0.502,-0.358,+0.382,+0.688,+0.930,-0.106,-0.430,+15.188,-9.000,+18.438,-1, -14, -10, -8, -2, -1, 1, 8,-1.327186562811026,1.0987850957716652
1503610350383,-0.501,-0.361,+0.378,+0.690,+0.908,-0.096,-0.442,+19.250,-10.750,+21.562,4, -9, -15, -16, -5, -2, -2, -6,-1.329449801734991,1.0964218177058138
1503610350405,-0.500,-0.364,+0.373,+0.691,+0.915,-0.116,-0.417,+23.375,-9.688,+26.562,7, 12, 21, 8, 1, 2, -1, -3,-1.3313282531858108,1.0917987197028163
1503610354125,-0.490,-0.341,+0.410,+0.690,+0.907,-0.046,-0.402,-3.250,-1.812,-0.562,-2, 1, 4, 4, 2, -1, 0, 1,-1.2788673595491578,1.123956042146275
1503610354149,-0.491,-0.340,+0.410,+0.690,+0.905,-0.049,-0.394,-0.688,-4.188,-2.375,-3, -21, -16, -12, -6, -2, 3, 8,-1.2796043131749368,1.1225957945817735
1503610354163,-0.492,-0.340,+0.409,+0.690,+0.924,-0.057,-0.392,+0.062,-6.375,-3.312,-2, 1, -1, -1, -2, -1, -6, 4,-1.2816916078628218,1.1208133216478642
1503610354186,-0.492,-0.339,+0.408,+0.690,+0.916,-0.057,-0.387,-0.562,-8.375,-1.375,0, 31, 10, 5, 1, 3, 2, -5,-1.2799590870071869,1.1170817591635456
1503610354208,-0.493,-0.338,+0.408,+0.690,+0.895,-0.061,-0.395,-2.000,-4.750,-1.500,6, 3, -6, -4, 1, -2, -1, -13,-1.2807125763482607,1.1157268508746903
1503610354223,-0.493,-0.337,+0.408,+0.690,+0.894,-0.057,-0.389,-2.812,-2.312,-4.312,3, -10, -10, -4, -4, 0, 1, 14,-1.2791816620231926,1.1140768560344245
1503610354245,-0.494,-0.337,+0.408,+0.690,+0.914,-0.046,-0.387,-3.688,-2.875,-3.812,1, -14, -10, -5, -1, -2, -1, -9,-1.2814731971055262,1.1143746380517379
1503610354270,-0.494,-0.336,+0.408,+0.690,+0.915,-0.039,-0.395,-4.000,-4.688,-1.188,-3, 4, 22, 10, 3, 0, 0, 10,-1.2799469793441167,1.112727480478073
1503610354286,-0.494,-0.335,+0.408,+0.691,+0.904,-0.045,-0.398,-3.438,-4.562,+0.375,-3, 3, -3, -4, -4, -3, 1, -7,-1.2787086268959154,1.1114456163954765
1503610354306,-0.494,-0.334,+0.407,+0.691,+0.904,-0.059,-0.400,-3.750,-2.312,-0.875,-4, -1, 7, 8, 1, 0, -5, 0,-1.2769953832412089,1.1077252643861029
1503610354328,-0.495,-0.334,+0.407,+0.691,+0.913,-0.049,-0.395,-3.938,-3.625,-1.500,1, -3, 11, 4, 3, 1, 5, 9,-1.279293275891786,1.1080242212986813
1503610354343,-0.495,-0.333,+0.407,+0.692,+0.916,-0.047,-0.391,-4.750,-5.562,-0.750,-1, -4, -12, -7, -5, -2, 0, 4,-1.278064443653977,1.1067501223045497
1503610354366,-0.495,-0.332,+0.407,+0.692,+0.903,-0.048,-0.405,-4.500,-4.125,+0.000,1, 7, 11, -1, -2, -3, -1, -16,-1.2765534527648459,1.1051148435540499
1503610354389,-0.495,-0.331,+0.407,+0.692,+0.908,-0.051,-0.404,-4.375,-1.625,-0.375,2, -2, -10, -4, -2, -2, -3, -7,-1.275045105394083,1.1034822013966445
1503610354410,-0.495,-0.331,+0.407,+0.693,+0.925,-0.055,-0.405,-4.188,-0.812,+1.000,3, 4, -1, 2, 2, 1, 4, 5,-1.275334000743038,1.1038493751283505
1503610354425,-0.494,-0.331,+0.407,+0.693,+0.927,-0.049,-0.403,-3.062,-1.562,+1.125,-7, -4, -5, -2, -1, -1, -1, 0,-1.273033614461713,1.1035508051522407
1503610354448,-0.495,-0.330,+0.407,+0.693,+0.903,-0.051,-0.392,-2.812,-3.875,-1.625,-9, -13, -12, -8, -2, -1, 3, 4,-1.273829843122013,1.102220663430059
1503610354464,-0.495,-0.330,+0.407,+0.693,+0.908,-0.053,-0.394,-3.250,-2.188,-2.562,-3, -23, -7, 2, 0, -1, -2, 2,-1.273829843122013,1.102220663430059
1503610354486,-0.495,-0.329,+0.407,+0.693,+0.907,-0.055,-0.407,-3.375,-0.188,-1.062,0, 13, 16, 1, -2, -1, -3, 3,-1.272328336121877,1.1005945901117484
1503610354508,-0.495,-0.329,+0.407,+0.693,+0.915,-0.057,-0.412,-3.812,-1.562,-0.375,5, 9, -1, -1, -2, 0, -1, -1,-1.272328336121877,1.1005945901117484
1503610354523,-0.495,-0.328,+0.407,+0.694,+0.902,-0.044,-0.415,-3.375,-2.062,-0.562,-1, -2, 0, 0, 0, 1, 0, -5,-1.2711224413766218,1.0993416598421084
1503610354545,-0.495,-0.328,+0.407,+0.694,+0.915,-0.041,-0.392,-1.750,-1.000,-0.188,5, 6, -2, -1, 0, -1, 1, -1,-1.2711224413766218,1.0993416598421084
1503610354568,-0.495,-0.328,+0.408,+0.694,+0.916,-0.049,-0.404,-3.500,-0.188,-1.188,7, 16, 18, 10, 3, 1, -1, -2,-1.2713162568729195,1.1014261864002848
1503610354584,-0.495,-0.327,+0.408,+0.694,+0.916,-0.037,-0.401,-2.562,-4.375,-0.625,-3, -12, -2, -4, -5, -4, -3, -2,-1.2698220164506446,1.0998080839037474
1503610354605,-0.496,-0.327,+0.407,+0.694,+0.903,-0.037,-0.409,-0.688,-4.750,+0.500,-4, -2, 0, 1, -1, 0, 2, -1,-1.2719348315238694,1.0980204684533463
1503610354629,-0.496,-0.327,+0.407,+0.694,+0.898,-0.055,-0.400,-1.062,-0.875,+0.875,12, 21, 11, 5, 0, 1, -2, 2,-1.2719348315238694,1.0980204684533463
1503610354650,-0.495,-0.327,+0.407,+0.694,+0.908,-0.052,-0.402,-1.625,+2.875,+1.000,0, -2, -5, 0, 4, -1, -2, 7,-1.2696277811444465,1.0977221520600693
1503610354665,-0.495,-0.327,+0.408,+0.694,+0.917,-0.038,-0.411,-2.562,+1.188,+1.125,0, 2, 6, 4, 1, -2, -3, -2,-1.2698220164506446,1.0998080839037474
1503610354688,-0.495,-0.327,+0.407,+0.694,+0.906,-0.031,-0.413,-1.875,-4.000,+0.188,1, 4, -11, -6, -5, -3, -2, -4,-1.2696277811444465,1.0977221520600693
1503610354710,-0.495,-0.326,+0.407,+0.695,+0.909,-0.044,-0.396,-2.562,-6.938,+1.000,-4, -2, -1, 1, -1, 1, -5, -17,-1.2684312409938345,1.096477810889472
1503610354726,-0.495,-0.326,+0.406,+0.696,+0.909,-0.047,-0.407,-4.000,-6.125,+2.812,-3, -8, 4, 1, -2, 1, 0, 4,-1.2685319865750901,1.0947655330304646
1503610354748,-0.495,-0.325,+0.405,+0.697,+0.908,-0.038,-0.422,-4.375,-7.812,+4.688,-1, 1, 2, -4, -2, -2, 1, -4,-1.2671470960172948,1.0914425935972536
1503610354770,-0.495,-0.324,+0.404,+0.698,+0.898,-0.044,-0.420,-3.500,-5.812,+4.438,1, 0, -11, -10, -4, 0, 5, 5,-1.265767058087959,1.0881245818130205
1503610354786,-0.494,-0.324,+0.404,+0.698,+0.886,-0.047,-0.419,-2.875,-2.750,+3.562,-4, -1, 0, 0, -1, -1, 0, 0,-1.263456932997213,1.0878232965041692
1503610354808,-0.494,-0.324,+0.404,+0.698,+0.899,-0.042,-0.420,-2.125,-1.562,+2.438,-6, -20, -17, -9, -3, -2, -3, -2,-1.263456932997213,1.0878232965041692
1503610354830,-0.494,-0.323,+0.404,+0.699,+0.911,-0.040,-0.414,-2.562,-3.062,+1.062,-6, -6, 1, 2, -2, -3, -9, -1,-1.2622765495752999,1.0865921403259433
1503610354845,-0.494,-0.323,+0.403,+0.699,+0.912,-0.046,-0.423,-1.875,-3.438,+2.188,2, 5, 2, 1, 1, -1, 3, 2,-1.2620800265428964,1.0845092338824018
1503610354868,-0.494,-0.323,+0.403,+0.700,+0.905,-0.051,-0.423,-1.562,-4.375,+4.000,-1, -7, -10, -3, -2, -2, -2, 0,-1.2623804931517226,1.0848863102953996
1503610354883,-0.494,-0.323,+0.402,+0.700,+0.896,-0.051,-0.422,-1.500,-3.375,+4.188,-1, -11, -10, -1, -1, -1, 1, 2,-1.2621840983290094,1.082805660768287
1503610354905,-0.493,-0.323,+0.401,+0.701,+0.889,-0.056,-0.434,+0.000,-1.312,+3.625,-7, -6, -4, -2, 0, -2, -1, 1,-1.2599771037315493,1.0808001040694515
1503610354928,-0.493,-0.324,+0.401,+0.701,+0.896,-0.057,-0.421,+0.562,-0.625,+3.688,17, 12, 7, -1, -2, 1, 3, 12,-1.2614567140371429,1.0824084739303892
1503610354943,-0.493,-0.324,+0.400,+0.701,+0.913,-0.062,-0.427,+1.500,-1.375,+5.062,-7, -21, -2, 6, 1, 0, 2, 1,-1.261259010084649,1.0803315833807272
1503610354965,-0.492,-0.325,+0.399,+0.702,+0.914,-0.066,-0.422,+1.625,-2.625,+6.812,5, -1, -1, 1, -3, -4, -9, 2,-1.2605356869582374,1.079939852745699
1503610354990,-0.492,-0.325,+0.398,+0.703,+0.897,-0.058,-0.420,+1.312,-5.125,+7.688,0, 0, 7, 10, 4, 2, -2, -8,-1.2606378561264255,1.0782441061994523
1503610355003,-0.491,-0.326,+0.397,+0.704,+0.887,-0.053,-0.433,+1.688,-5.750,+8.062,9, 11, 2, 2, -3, 0, 4, 1,-1.2599186496558141,1.0778571284349885
1503610355026,-0.491,-0.326,+0.396,+0.704,+0.872,-0.056,-0.428,+2.750,-2.750,+6.688,-1, 7, 5, 0, 1, 1, 3, 0,-1.259718684719366,1.0757883323189454
1503610355048,-0.491,-0.327,+0.395,+0.704,+0.879,-0.068,-0.423,+2.500,+0.938,+5.438,7, 24, -3, -7, -1, -1, -4, -5,-1.2610079516476307,1.0753418374993644
1503610355063,-0.490,-0.328,+0.395,+0.704,+0.892,-0.066,-0.417,+0.500,+2.250,+4.125,-10, -11, -14, -9, -1, -2, -3, -7,-1.2601959338161302,1.0766534396837224
1503610355085,-0.490,-0.328,+0.395,+0.704,+0.907,-0.067,-0.405,-1.688,-0.188,+1.500,-10, -2, 5, -5, -3, -2, 0, -1,-1.2601959338161302,1.0766534396837224
1503610355108,-0.490,-0.327,+0.396,+0.705,+0.901,-0.057,-0.406,-4.500,-2.562,-0.062,-1, -2, -1, -1, -1, -1, 0, 1,-1.2592045245047045,1.077473329896308
1503610355124,-0.490,-0.326,+0.396,+0.705,+0.876,-0.056,-0.417,-5.438,-0.812,-2.125,-6, -27, -18, -6, -6, -5, -4, -4,-1.2577150089859435,1.0758550011182255
1503610355145,-0.491,-0.325,+0.397,+0.704,+0.858,-0.053,-0.426,-4.500,+1.375,-6.062,-4, 7, 8, 2, 1, 1, -2, -10,-1.2584326946656266,1.0762416668463943
1503610355168,-0.491,-0.325,+0.398,+0.703,+0.879,-0.057,-0.408,-4.562,+4.125,-9.812,-3, -14, -21, -7, -3, -3, -2, 0,-1.25833039591481,1.0779359513276237
1503610355183,-0.492,-0.324,+0.400,+0.702,+0.915,-0.055,-0.418,-4.188,+4.500,-11.438,-5, 6, 0, 3, 2, 0, -1, -1,-1.2592513104148109,1.0804033216735107
1503610355205,-0.493,-0.323,+0.401,+0.701,+0.924,-0.048,-0.426,-4.250,-0.500,-10.500,1, -3, 4, -4, -1, 2, 4, 12,-1.2599771037315493,1.0808001040694515
1503610355228,-0.495,-0.321,+0.401,+0.701,+0.910,-0.038,-0.444,-3.188,-7.375,-8.000,-1, 9, 10, 0, 4, 3, 4, 5,-1.261656228593763,1.078200125565376
1503610355244,-0.496,-0.320,+0.400,+0.701,+0.904,-0.052,-0.442,-1.000,-8.500,-4.500,-2, 2, -4, -6, -6, -1, -2, 5,-1.262311841189388,1.0748255945396497
1503610355266,-0.496,-0.320,+0.399,+0.702,+0.894,-0.063,-0.441,+0.438,-6.125,-1.250,-2, -1, 5, 3, -2, 0, 0, 3,-1.2624188353160317,1.073130655317686
1503610355288,-0.497,-0.320,+0.398,+0.702,+0.914,-0.071,-0.445,+2.312,-3.500,+1.000,15, 33, 23, 7, 5, 5, 3, 3,-1.2645451823451015,1.0713633151795192
1503610355310,-0.497,-0.321,+0.397,+0.702,+0.942,-0.080,-0.439,+5.062,-2.250,+2.750,5, 2, -5, -3, -1, 0, 1, 5,-1.2658155465937135,1.0708959534595
1503610355326,-0.497,-0.323,+0.395,+0.702,+0.953,-0.091,-0.438,+8.312,-3.375,+5.312,4, 12, 16, 9, 2, 1, 2, 6,-1.2683659835251915,1.069981723771681
1503610355348,-0.496,-0.325,+0.393,+0.702,+0.944,-0.098,-0.443,+11.000,-4.562,+10.125,-5, -5, -6, -3, -2, -2, -2, 2,-1.2686104379107495,1.0687813449943744
1503610355370,-0.496,-0.328,+0.391,+0.703,+0.921,-0.094,-0.438,+13.312,-3.688,+11.875,0, 0, 14, 7, 1, -1, 0, 0,-1.2729670319131852,1.069926659131049
1503610355385,-0.496,-0.330,+0.388,+0.703,+0.904,-0.085,-0.438,+16.375,-4.000,+12.000,-3, -12, -9, 0, -3, -4, -2, 0,-1.2753691787542825,1.067053247661624
1503610355408,-0.496,-0.333,+0.385,+0.703,+0.911,-0.092,-0.449,+20.062,-1.688,+12.375,5, 6, 10, 7, 2, -1, -1, -1,-1.2792873990367104,1.0658708937257113
1503610355430,-0.495,-0.338,+0.382,+0.703,+0.909,-0.113,-0.451,+23.750,+0.312,+15.688,-12, -15, 3, 0, -1, 0, -3, 0,-1.2839595768812546,1.0677572597068696
1503610355445,-0.494,-0.343,+0.379,+0.703,+0.921,-0.129,-0.442,+25.688,+0.500,+22.438,12, 11, -14, -3, -1, -1, 4, 12,-1.2887242774221166,1.0697576009268965
1503610355468,-0.493,-0.347,+0.375,+0.704,+0.903,-0.126,-0.434,+26.312,-1.438,+24.500,0, -1, -8, -5, 0, -1, -3, -6,-1.2921092278381519,1.068523369447617
1503610355497,-0.492,-0.352,+0.371,+0.704,+0.894,-0.125,-0.439,+29.062,-1.062,+24.062,2, 7, 6, -2, 0, 1, 2, -4,-1.2968484395944424,1.0687442484373089
1503610355505,-0.492,-0.358,+0.366,+0.704,+0.877,-0.143,-0.449,+33.562,-0.875,+24.000,-3, -2, -8, -7, 1, 0, -4, -10,-1.3053768023706476,1.069210566934075
1503610355528,-0.491,-0.364,+0.361,+0.704,+0.896,-0.163,-0.435,+35.625,-1.562,+25.000,0, -1, -14, -5, -6, -2, 0, 0,-1.3117506354776554,1.069540848224978
1503610355550,-0.490,-0.370,+0.356,+0.704,+0.896,-0.182,-0.433,+36.125,-1.375,+28.188,-3, -7, 14, 9, 0, -1, -1, -9,-1.3182699678854708,1.0700783103365934
1503610355565,-0.489,-0.376,+0.351,+0.704,+0.886,-0.189,-0.439,+36.562,-0.312,+30.188,-3, -7, -2, 3, -1, -2, 2, 7,-1.3249384044878993,1.0708247256621477
1503610355588,-0.488,-0.383,+0.346,+0.704,+0.883,-0.190,-0.428,+37.938,+1.625,+29.125,-8, -5, 9, 4, 0, 0, -2, -4,-1.3334443562092795,1.0736303308749777
1503610358709,-0.649,-0.370,+0.309,+0.588,+0.865,-0.036,-0.500,-9.438,-11.750,+10.688,-13, -18, 0, 2, 0, -2, 0, -5,-1.687417544233646,1.0054404363677873
1503610358731,-0.648,-0.369,+0.308,+0.591,+0.853,-0.031,-0.500,-13.125,-6.938,+14.375,5, 9, -4, -4, -2, 1, -1, 2,-1.6832135162774349,1.002417932247749
1503610358753,-0.647,-0.368,+0.308,+0.593,+0.847,-0.021,-0.492,-11.500,-4.062,+10.375,-11, 10, 6, 2, 5, 10, 20, -4,-1.6790860679072324,1.0007442872513812
1503610358769,-0.645,-0.368,+0.309,+0.594,+0.852,-0.034,-0.493,-9.312,+0.375,+8.688,6, 2, -1, 0, 2, -4, 2, 9,-1.6739805943933115,1.001963370237848
1503610358791,-0.644,-0.368,+0.309,+0.595,+0.868,-0.055,-0.488,-7.688,+0.812,+7.812,-8, 2, 7, 5, 1, -3, 2, 1,-1.6714029995246624,1.001899749082628
1503610358817,-0.643,-0.367,+0.310,+0.596,+0.875,-0.048,-0.482,-10.438,-0.312,+5.500,5, -1, 0, 0, -1, 2, -5, 3,-1.6673526671459065,1.0015897733949726
1503610358835,-0.642,-0.366,+0.311,+0.598,+0.876,-0.023,-0.501,-11.938,+0.188,+4.000,-28, 5, -2, 0, 1, 3, 1, -16,-1.6631909542954906,1.0016263981315692
1503610358857,-0.642,-0.365,+0.311,+0.599,+0.844,-0.013,-0.504,-8.875,-6.188,+4.375,33, 13, -3, -3, 5, 8, 18, 20,-1.6616745264621238,1.0000376318497222
1503610358874,-0.642,-0.363,+0.310,+0.600,+0.841,-0.022,-0.506,-7.188,-8.438,+4.312,-1, 12, -5, 2, 4, 3, 5, -9,-1.6588348942179585,0.9948387718778884
1503610358889,-0.641,-0.362,+0.310,+0.601,+0.846,-0.044,-0.504,-6.625,-6.062,+4.750,-11, -6, 3, -2, -6, -1, -2, 4,-1.6548756005500664,0.9928646412432387
1503610358911,-0.641,-0.362,+0.310,+0.602,+0.862,-0.051,-0.512,-6.562,-2.125,+4.438,2, -2, -12, -9, -5, -6, -9, -3,-1.6547679084306735,0.9932035269454494
1503610358933,-0.640,-0.362,+0.310,+0.602,+0.847,-0.039,-0.501,-4.250,+1.188,+0.375,16, 19, 6, 4, -1, 2, -1, 12,-1.6523117775872804,0.9928077613857774
1503610358951,-0.641,-0.361,+0.310,+0.602,+0.840,-0.023,-0.500,-3.688,-1.562,-2.688,5, -2, 5, 3, 2, 1, -3, -10,-1.6533775978726213,0.9912905327334868
1503610358972,-0.641,-0.361,+0.311,+0.602,+0.842,-0.027,-0.509,-2.375,+2.812,-5.562,-14, -3, 7, 2, 1, -1, -2, -5,-1.653318024544675,0.992989924974536
1503610358994,-0.642,-0.361,+0.312,+0.600,+0.841,-0.024,-0.511,+0.938,+8.438,-8.750,-7, -22, -4, 3, 5, 2, 7, -4,-1.6559300868813893,0.9944048304829369
1503610359009,-0.643,-0.362,+0.313,+0.598,+0.870,-0.016,-0.493,+1.688,+4.750,-10.250,-10, 0, -3, -3, -4, -2, -4, -7,-1.6599351608753565,0.997732721508436
1503610359031,-0.644,-0.362,+0.314,+0.597,+0.863,-0.018,-0.488,+3.312,+6.938,-10.188,23, 15, -4, -5, -1, 0, 0, 8,-1.662441503823395,0.9994869670807994
1503610359053,-0.644,-0.364,+0.315,+0.594,+0.842,-0.029,-0.522,+8.125,+13.250,-9.062,3, 8, 7, 1, 0, -1, -8, -16,-1.665508843652884,1.004007705510235
1503610359069,-0.645,-0.366,+0.315,+0.592,+0.847,-0.030,-0.500,+12.812,+13.500,-10.812,20, 15, 10, 5, 7, 3, -2, 2,-1.6709987075807946,1.0075725830479954
1503610359091,-0.646,-0.369,+0.315,+0.589,+0.906,-0.038,-0.472,+14.000,+11.875,-11.750,-18, -19, -6, -4, -3, -7, -5, -19,-1.678041565111906,1.0127555198765243
1503610359113,-0.648,-0.370,+0.315,+0.587,+0.928,-0.049,-0.475,+13.562,+2.062,-6.938,-5, 7, 17, 6, 3, 1, -6, -6,-1.6846130790722365,1.0148100640121014
1503610359129,-0.649,-0.371,+0.312,+0.586,+0.879,-0.046,-0.473,+9.938,-9.000,-2.812,-6, -12, -6, -2, 2, 1, -1, 1,-1.6888619399309766,1.0117589511891065
1503610359152,-0.650,-0.370,+0.311,+0.586,+0.827,-0.018,-0.464,+6.125,-6.375,-5.125,3, 1, 8, 6, 2, 2, 3, -9,-1.689993886363909,1.008526577605054
1503610359173,-0.651,-0.371,+0.312,+0.584,+0.822,-0.014,-0.479,+6.938,+7.375,-7.688,-11, 4, -10, -3, -4, -4, -7, -23,-1.6940592203990432,1.0118841739018594
1503610359189,-0.652,-0.373,+0.312,+0.582,+0.883,-0.019,-0.476,+5.938,+9.188,-8.562,13, -9, -7, -4, -2, -3, -3, 1,-1.6996226907376866,1.015522787086647
1503610359211,-0.652,-0.373,+0.313,+0.581,+0.914,-0.005,-0.489,+1.125,+0.875,-0.375,-8, -2, -10, -4, -4, -4, -1, 5,-1.6996944192818677,1.0168691848513158
1503610359233,-0.652,-0.372,+0.312,+0.582,+0.869,+0.008,-0.469,-1.062,-11.375,+2.812,3, 3, -15, -1, -3, 0, 0, -3,-1.6982240239208484,1.013568133521424
1503610359249,-0.654,-0.370,+0.311,+0.583,+0.842,+0.007,-0.465,-2.875,-15.625,-0.438,22, 5, 16, 5, 4, 4, 6, 28,-1.7002501116794426,1.009109640566468
1503610359271,-0.654,-0.368,+0.311,+0.583,+0.845,-0.001,-0.476,-5.062,-8.562,-2.062,8, -5, -1, -1, -1, -2, -2, 4,-1.6974819318184118,1.005216442335981
1503610359294,-0.654,-0.367,+0.311,+0.584,+0.859,+0.007,-0.501,-7.688,-4.312,+2.625,-8, 40, 18, 3, 4, 2, 5, 5,-1.6959369844502332,1.003607472643777
1503610359309,-0.654,-0.365,+0.311,+0.585,+0.863,+0.014,-0.515,-9.812,-6.438,+5.188,6, -13, -12, -8, -6, -3, -2, 0,-1.6930229210517975,1.000065733152742
1503610359331,-0.654,-0.363,+0.311,+0.587,+0.855,+0.016,-0.509,-9.625,-11.375,+5.250,-2, 54, 40, 9, 1, -1, 1, 7,-1.6899674388244417,0.9968745731694655
1503610359354,-0.654,-0.361,+0.310,+0.589,+0.849,-0.006,-0.504,-8.688,-15.562,+6.500,2, -14, -22, -4, 0, -2, -1, -4,-1.6870176011644549,0.9920164585135698
1503610359367,-0.653,-0.359,+0.309,+0.591,+0.842,-0.021,-0.503,-11.688,-14.375,+10.562,-11, -8, -9, -3, -2, -2, -1, -6,-1.6816205468645171,0.9867761390813926
1503610359390,-0.651,-0.357,+0.308,+0.594,+0.845,-0.016,-0.502,-14.188,-8.500,+14.875,8, -1, 0, -1, 0, 1, 2, 1,-1.6736237550886754,0.9814931057568418
1503610359412,-0.649,-0.356,+0.309,+0.597,+0.869,-0.020,-0.504,-14.812,-4.250,+14.750,3, -17, -9, -4, -3, -3, 9, 9,-1.6668638052482483,0.981509123675493
1503610359428,-0.647,-0.356,+0.309,+0.600,+0.889,-0.030,-0.517,-13.188,-3.312,+16.312,24, 12, 2, 0, 2, -5, -26, -3,-1.6615631709187402,0.9817481058485635
1503610359450,-0.645,-0.355,+0.308,+0.603,+0.873,-0.038,-0.518,-11.562,-7.438,+19.938,-7, -12, 0, 3, 3, 1, 5, 5,-1.6549879871875213,0.9783910904551127
1503610359473,-0.643,-0.354,+0.307,+0.606,+0.856,-0.039,-0.496,-12.688,-9.000,+19.750,-24, -7, 4, -2, -1, 3, -1, -7,-1.6484288723761777,0.9750369029830972
1503610359488,-0.640,-0.354,+0.308,+0.608,+0.839,-0.043,-0.498,-13.500,+2.062,+16.500,-13, -16, -23, -17, -5, -1, 5, 16,-1.6407729403980773,0.976235646536261
1503610359510,-0.637,-0.355,+0.309,+0.610,+0.856,-0.055,-0.503,-14.062,+9.875,+14.250,-13, -38, -16, -5, -5, -1, 4, 0,-1.634519353399773,0.9793331739867356
1503610359533,-0.634,-0.356,+0.311,+0.612,+0.892,-0.062,-0.498,-13.375,+9.375,+14.312,-11, 7, 8, 6, 0, 1, 4, 0,-1.6282637994534865,0.9841500449439066
1503610359547,-0.632,-0.356,+0.311,+0.614,+0.908,-0.077,-0.492,-11.562,+1.938,+15.188,31, 33, 1, -5, -4, -3, -4, -14,-1.6231979658274944,0.9840502997652272
1503610359570,-0.629,-0.356,+0.311,+0.616,+0.889,-0.080,-0.476,-12.938,-2.500,+14.750,-10, -24, -13, -3, -6, -5, -5, -13,-1.6156836547667568,0.9835555649902388
1503610359593,-0.627,-0.357,+0.312,+0.618,+0.848,-0.073,-0.506,-10.312,+2.875,+12.625,6, 24, 19, 10, 6, 4, -4, -1,-1.6120221787318374,0.987064464714981
1503610359607,-0.625,-0.358,+0.312,+0.619,+0.834,-0.085,-0.508,-4.500,+11.375,+10.375,-7, -4, -8, 1, 4, 0, -4, -7,-1.6084642071598654,0.9885059845093678
1503610359630,-0.623,-0.361,+0.313,+0.619,+0.879,-0.105,-0.485,-2.375,+17.938,+9.750,12, 8, 21, 4, -2, 0, -1, -2,-1.6077808382165049,0.9951140788450998
1503610359653,-0.620,-0.365,+0.315,+0.619,+0.907,-0.105,-0.482,-0.562,+20.438,+12.000,21, -28, -12, -4, -3, -5, 1, 7,-1.6061196196880343,1.0049807425970936
1503610359669,-0.617,-0.368,+0.315,+0.620,+0.897,-0.106,-0.484,+1.188,+18.562,+13.500,-37, 8, 2, 0, -2, 0, 0, -1,-1.6031106371360087,1.0098534266206616
1503610359690,-0.615,-0.371,+0.315,+0.620,+0.875,-0.100,-0.496,+4.312,+17.062,+13.062,9, -7, -8, -3, -4, 1, -1, -13,-1.6026344500986096,1.0148021478063245
1503610359712,-0.613,-0.375,+0.315,+0.620,+0.869,-0.111,-0.484,+9.812,+18.062,+13.062,2, 16, -5, -4, -1, -1, 0, -4,-1.6036919100652616,1.0216976985465098
1503610359728,-0.611,-0.379,+0.315,+0.619,+0.884,-0.124,-0.472,+12.125,+19.438,+12.438,2, -11, -4, -2, -1, 2, 5, 24,-1.6048711642391116,1.0283080814812597
1503610359750,-0.609,-0.384,+0.314,+0.618,+0.887,-0.106,-0.473,+14.312,+21.000,+10.625,10, 17, 4, 3, 3, 1, -11, -8,-1.6076795681440252,1.035196557975902
1503610359773,-0.608,-0.388,+0.314,+0.617,+0.889,-0.114,-0.468,+17.312,+17.875,+10.500,-6, -7, -3, 0, -2, -4, -6, 0,-1.6114365157589547,1.0423130078982288
1503610359790,-0.606,-0.393,+0.312,+0.617,+0.892,-0.113,-0.454,+15.688,+14.875,+13.938,4, -3, -12, -10, -6, -4, 8, 13,-1.614442736814365,1.04795686930498
1503610359818,-0.605,-0.397,+0.311,+0.617,+0.887,-0.098,-0.449,+16.125,+15.375,+16.375,-1, -7, 6, 8, 6, 1, 1, 1,-1.6183375379481404,1.0537958556747062
1503610359833,-0.603,-0.401,+0.310,+0.616,+0.868,-0.099,-0.463,+20.562,+16.000,+14.562,-7, -1, 16, 5, 2, -4, -9, -18,-1.6199943275960007,1.0589866450190555
1503610359847,-0.603,-0.406,+0.308,+0.615,+0.883,-0.123,-0.461,+24.250,+14.250,+11.938,3, 8, -12, -6, -1, -2, 0, 4,-1.6280947034347244,1.065359385421448
1503610359870,-0.602,-0.410,+0.305,+0.614,+0.901,-0.135,-0.452,+25.062,+10.125,+14.312,5, 1, 1, 5, 3, -3, 4, 18,-1.6323827006102696,1.0677311770895304
1503610359894,-0.601,-0.415,+0.302,+0.613,+0.887,-0.134,-0.438,+24.562,+10.250,+15.500,13, 6, 15, 7, 4, -2, -18, -14,-1.6383923720583597,1.0722504918713631
1503610359908,-0.600,-0.419,+0.300,+0.612,+0.887,-0.130,-0.430,+24.250,+11.875,+14.875,-9, -16, -13, -2, -8, -4, -1, 2,-1.6428180194012567,1.0764839363852907
1503610359930,-0.599,-0.424,+0.298,+0.611,+0.882,-0.124,-0.453,+26.500,+16.250,+17.312,-42, -19, 1, 2, -1, 2, 9, -4,-1.648990796041861,1.0828804244161965
1503610359953,-0.598,-0.429,+0.295,+0.610,+0.883,-0.132,-0.448,+31.188,+14.125,+18.625,18, 2, -8, -6, -7, -3, 0, 0,-1.655353097348143,1.0877522479858233
1503610359968,-0.597,-0.435,+0.291,+0.608,+0.899,-0.155,-0.417,+33.812,+13.312,+18.062,9, -11, -12, -6, -2, 1, 2, 10,-1.6637418748477264,1.092991168667978
1503610359991,-0.595,-0.441,+0.288,+0.607,+0.903,-0.171,-0.415,+33.250,+13.375,+21.312,-2, 12, 16, 10, 8, 2, 3, 2,-1.6698335694334054,1.099911814316958
1503610360012,-0.594,-0.446,+0.284,+0.606,+0.893,-0.176,-0.400,+31.188,+12.938,+22.625,-37, -6, -3, -7, 4, -5, -9, -9,-1.6767462710144367,1.1036511934894022
1503610360030,-0.593,-0.451,+0.281,+0.605,+0.889,-0.160,-0.415,+31.562,+13.750,+20.938,20, 4, -1, -8, -4, 2, 11, 23,-1.6837032827886118,1.1091367539911725
1503610360050,-0.591,-0.457,+0.277,+0.604,+0.887,-0.167,-0.416,+33.688,+10.938,+23.625,21, 7, 1, 5, 0, -2, -6, 9,-1.6904365350880257,1.114999186145204
1503610363531,-0.619,-0.414,+0.344,+0.572,+0.921,-0.045,-0.383,-5.562,-5.625,+9.562,-2, 6, -1, 5, 5, 3, 1, -7,-1.680243929890431,1.1362518053275397
1503610363555,-0.619,-0.414,+0.343,+0.573,+0.901,-0.055,-0.379,-3.000,-2.938,+5.562,0, -4, 5, 2, 1, -1, 2, 1,-1.680199116898058,1.1348113429871978
1503610363575,-0.619,-0.413,+0.342,+0.574,+0.923,-0.071,-0.353,-3.875,-7.500,+4.062,-13, -10, -1, 0, 0, -1, -4, -3,-1.6785831453139684,1.1313481819251014
1503610363591,-0.618,-0.413,+0.342,+0.575,+0.932,-0.074,-0.359,-6.438,-6.500,+4.375,8, 3, 0, -1, -1, 0, 0, -2,-1.6761108823041957,1.1312876896937973
1503610363619,-0.617,-0.413,+0.342,+0.576,+0.892,-0.064,-0.371,-6.562,+1.000,+2.438,-8, -20, -16, -5, -5, -4, -6, -8,-1.6736421607323662,1.1312271818929296
1503610363636,-0.617,-0.413,+0.344,+0.575,+0.876,-0.061,-0.377,-5.438,+9.438,-0.062,-3, -1, -9, -6, -4, -4, -2, -1,-1.6735992025911888,1.1344016581650003
1503610363659,-0.616,-0.414,+0.346,+0.574,+0.904,-0.052,-0.375,-2.562,+17.562,-7.812,12, 29, 15, 7, 0, -2, -5, -3,-1.6727944615254502,1.1392589806197253
1503610363673,-0.616,-0.416,+0.348,+0.571,+0.951,-0.051,-0.380,+1.125,+19.125,-13.562,-2, 0, -4, -2, 1, -1, 2, 5,-1.676168097011382,1.1459222862423704
1503610363695,-0.617,-0.416,+0.350,+0.569,+0.989,-0.033,-0.368,+0.375,+11.312,-14.500,-4, -25, -15, -8, -2, -3, -4, -5,-1.678586940526925,1.1491761954051318
1503610363711,-0.618,-0.416,+0.352,+0.566,+0.945,-0.009,-0.339,+0.188,+6.438,-13.312,-1, 8, 2, -3, -6, -2, -3, -15,-1.681143879235769,1.1521491505065469
1503610363733,-0.620,-0.416,+0.354,+0.564,+0.869,+0.014,-0.370,+4.125,+7.812,-16.562,-15, -1, 10, 2, 0, 3, 3, 2,-1.6859038968700955,1.1557502537614601
1503610363756,-0.621,-0.417,+0.355,+0.560,+0.855,+0.021,-0.398,+9.438,+18.375,-18.500,-2, -4, 4, 2, 0, -1, 4, -11,-1.690294048487191,1.1587209104935408
1503610363771,-0.621,-0.421,+0.358,+0.556,+0.888,-0.008,-0.379,+13.625,+33.812,-13.438,11, 13, -1, 2, 3, -6, -20, 14,-1.6969033142975685,1.1709743540389284
1503610363795,-0.620,-0.426,+0.361,+0.551,+0.946,-0.023,-0.330,+13.125,+41.312,-7.812,4, 5, 3, 4, 3, 1, 3, -1,-1.7029945527698438,1.1847344946258562
1503610363818,-0.618,-0.431,+0.364,+0.547,+1.002,-0.028,-0.322,+11.438,+40.000,-6.250,2, 3, 3, 14, 15, 7, 7, 20,-1.706709921319491,1.1985463652699484
1503610363837,-0.617,-0.436,+0.365,+0.544,+1.019,-0.017,-0.310,+11.688,+29.500,-2.812,3, -7, -1, -4, -4, 2, 5, 4,-1.7128934209515971,1.2095164201431012
1503610363854,-0.617,-0.438,+0.365,+0.542,+0.999,-0.012,-0.319,+13.188,+12.812,+0.188,0, -4, 3, 0, -1, -1, 0, 4,-1.7164999928953892,1.2131452510535732
1503610363875,-0.619,-0.440,+0.363,+0.541,+0.954,-0.031,-0.310,+17.312,-2.188,-2.625,-17, -10, -2, 0, -1, -1, -1, 1,-1.7247664187976575,1.2141738399663928
1503610363898,-0.621,-0.440,+0.361,+0.539,+0.928,-0.049,-0.286,+17.562,-5.750,-5.938,-3, -5, -6, 3, 4, -2, 1, -6,-1.7299880169262185,1.2108139372220492
1503610363917,-0.622,-0.442,+0.360,+0.537,+0.932,-0.041,-0.289,+14.812,+4.062,-5.250,7, 1, 1, -12, -14, 9, 5, 5,-1.7360614112944404,1.2130661472681392
1503610363935,-0.621,-0.445,+0.360,+0.535,+0.939,-0.029,-0.288,+13.188,+13.938,-0.062,3, 2, -2, -6, -4, -2, -1, -2,-1.7390918442070704,1.2185463076134635
1503610363957,-0.621,-0.448,+0.359,+0.533,+0.958,-0.027,-0.281,+11.562,+12.062,+0.938,-6, 1, 5, 4, 2, -7, -9, -17,-1.7445857015509878,1.2226504551470068
1503610363974,-0.622,-0.449,+0.360,+0.532,+0.961,-0.027,-0.233,+8.938,+5.000,-4.250,0, 1, 1, -3, 1, 1, -1, -3,-1.7485491868479675,1.226535562061995
1503610363996,-0.622,-0.451,+0.360,+0.530,+0.973,-0.027,-0.266,+8.250,+5.875,-5.312,1, 1, -2, -1, 2, -1, 8, 3,-1.7522760260303507,1.230277794797641
1503610364011,-0.623,-0.451,+0.359,+0.529,+0.950,-0.011,-0.298,+5.875,+2.125,-2.625,-6, -2, -2, -1, -1, -3, -6, -2,-1.754921894972636,1.228629340697652
1503610364033,-0.624,-0.451,+0.359,+0.528,+0.965,-0.000,-0.278,+5.062,-8.250,-3.688,6, -1, -6, -2, 1, 3, 7, 16,-1.7574082147291015,1.2286910845348107
1503610364056,-0.626,-0.450,+0.358,+0.528,+0.966,-0.013,-0.274,+5.250,-10.938,-5.938,-6, 4, -3, -4, -4, -5, -3, 18,-1.760455360801021,1.2254751707448035
1503610364071,-0.627,-0.449,+0.357,+0.527,+0.938,-0.028,-0.268,+2.125,-8.875,-7.562,27, 8, -1, 1, 1, 0, -7, 12,-1.7614927238136624,1.2217172933503813
1503610364095,-0.629,-0.447,+0.357,+0.526,+0.931,-0.007,-0.280,-2.250,-7.750,-9.312,14, 4, -7, -2, -5, 0, 1, 3,-1.763017289095658,1.2178570302207734
1503610364115,-0.630,-0.446,+0.358,+0.526,+0.943,+0.017,-0.304,-2.312,-1.750,-9.062,-13, -15, -3, 1, 3, 1, -2, -19,-1.7635005305164357,1.217760120459869
1503610364131,-0.631,-0.445,+0.359,+0.525,+0.969,+0.023,-0.291,-2.875,-7.250,-7.125,3, 7, -13, 0, -1, -2, -3, -6,-1.76423319706404,1.2174212547893857
1503610364156,-0.631,-0.443,+0.358,+0.526,+0.999,+0.014,-0.297,-5.375,-11.188,+0.625,-23, 30, 20, 0, 0, -2, 1, -14,-1.760947941126805,1.211750916392546
1503610364176,-0.632,-0.441,+0.358,+0.527,+0.979,+0.015,-0.321,-4.812,-14.312,+2.188,-14, -21, -2, 2, 3, 2, 3, 2,-1.7597886967211798,1.2081142618414145
1503610364198,-0.634,-0.438,+0.356,+0.528,+0.961,+0.016,-0.329,-3.125,-22.938,-2.625,17, 0, 7, 5, 3, 3, 1, 7,-1.7596807856294987,1.1992896100888346
1503610364214,-0.637,-0.435,+0.355,+0.529,+0.929,+0.015,-0.313,-3.500,-25.750,-5.500,20, 24, 5, 1, -3, -3, 2, 8,-1.7617546311277095,1.1925282948372364
1503610364236,-0.639,-0.431,+0.353,+0.531,+0.931,+0.030,-0.324,-5.500,-27.875,-3.062,34, 3, -4, -3, 0, 0, 0, 3,-1.7599446493370634,1.1819568092423958
1503610364258,-0.640,-0.428,+0.352,+0.533,+0.916,+0.024,-0.349,-6.875,-23.750,+1.562,-9, -27, -9, -2, -4, -3, -3, 13,-1.7572755224660186,1.1748881832730544
1503610364274,-0.641,-0.425,+0.350,+0.535,+0.895,+0.007,-0.354,-7.312,-21.562,+6.062,-6, 4, 7, 1, -1, -6, -11, -31,-1.7547982075165456,1.1661408633223818
1503610364297,-0.641,-0.423,+0.348,+0.538,+0.910,-0.007,-0.338,-9.625,-17.500,+8.562,-5, -14, -5, -4, -1, -1, 1, -2,-1.7513268285485681,1.159427489347497
1503610364318,-0.640,-0.421,+0.348,+0.540,+0.911,-0.002,-0.335,-14.625,-8.750,+11.375,-14, -8, 6, 4, 3, 4, 4, -1,-1.7454653958615236,1.155526571929633
1503610364334,-0.638,-0.420,+0.349,+0.543,+0.932,-0.001,-0.331,-17.250,-4.000,+13.562,-29, -19, -6, 1, 0, -1, -3, -1,-1.738460182063677,1.1553493848384806
1503610364356,-0.636,-0.419,+0.350,+0.546,+0.953,+0.008,-0.349,-18.500,-4.125,+13.875,-7, -38, -25, -4, -1, 0, -1, 4,-1.731488312442301,1.1551876974238844
1503610364378,-0.634,-0.418,+0.350,+0.549,+0.957,+0.010,-0.361,-19.125,-7.375,+16.438,-1, -8, 1, -1, -2, -1, 4, 18,-1.7246778513143837,1.153315871584557
1503610364394,-0.632,-0.416,+0.350,+0.553,+0.931,+0.007,-0.365,-18.250,-12.250,+17.688,6, 3, 0, -4, -5, -2, 0, 13,-1.7161595837794115,1.1496998594450705
1503610364416,-0.630,-0.414,+0.350,+0.556,+0.910,-0.008,-0.360,-17.688,-10.062,+13.562,-20, 23, 16, -2, -1, -2, -6, -22,-1.7078532073003074,1.1458171383403435
1503610364438,-0.629,-0.412,+0.350,+0.559,+0.909,-0.027,-0.359,-19.125,-2.938,+11.625,1, -7, -2, -5, 2, 1, -4, -14,-1.7019145760926635,1.1422941538698834
1503610364458,-0.626,-0.411,+0.352,+0.561,+0.921,-0.030,-0.356,-23.000,+1.250,+12.312,5, 10, -3, -1, -4, -5, -3, -12,-1.6927971057106672,1.1433184167049046
1503610364476,-0.623,-0.410,+0.354,+0.564,+0.921,-0.011,-0.359,-23.375,+3.438,+12.312,-7, -21, -14, -5, 0, -3, -3, -17,-1.6835638970983346,1.144666609202653
1503610364498,-0.621,-0.410,+0.355,+0.566,+0.932,-0.007,-0.380,-18.625,+5.500,+13.188,-14, -26, -9, 1, 2, -2, -4, -6,-1.6785008708691418,1.1463334524964586
1503610364516,-0.618,-0.410,+0.356,+0.568,+0.933,-0.039,-0.403,-11.562,+6.312,+16.125,-6, 0, -3, 0, -1, -1, -4, -2,-1.6711136023450472,1.147669729045288
1503610364536,-0.616,-0.411,+0.355,+0.571,+0.931,-0.065,-0.366,-6.938,+0.438,+14.875,34, 5, 4, 3, 3, 5, 3, 6,-1.6677044712753166,1.148111057243628
1503610364558,-0.614,-0.411,+0.355,+0.572,+0.938,-0.079,-0.342,-8.062,-0.188,+11.438,-8, -3, -8, 1, 0, 1, -6, -1,-1.6629023081317604,1.1477274974073344
1503610364580,-0.612,-0.412,+0.354,+0.574,+0.938,-0.071,-0.363,-8.562,+1.000,+11.000,0, -4, -3, -1, -3, 0, 3, 2,-1.6596480551530781,1.1478748285288065
1503610364596,-0.610,-0.413,+0.353,+0.576,+0.930,-0.063,-0.411,-2.688,+4.062,+18.438,8, 5, -3, -7, -3, -3, 4, 5,-1.6564138965494615,1.1480229592157025
1503610364618,-0.608,-0.415,+0.351,+0.578,+0.927,-0.090,-0.384,+2.188,+2.500,+22.438,25, 8, -2, 4, -1, -5, -4, -1,-1.654866314856534,1.1484268171579632
1503610364634,-0.606,-0.417,+0.349,+0.580,+0.952,-0.094,-0.351,+2.312,-1.812,+19.250,-12, -15, -11, -4, -4, -1, 0, -1,-1.6533525736344659,1.1488470519031642
1503610364658,-0.605,-0.418,+0.347,+0.582,+0.943,-0.083,-0.362,+4.438,-4.875,+20.062,-17, 3, -2, -4, -2, 0, -2, -12,-1.652577726763628,1.147600191692566
1503610364685,-0.603,-0.420,+0.343,+0.585,+0.928,-0.080,-0.385,+7.438,-5.062,+26.438,-1, 5, 5, -1, 0, -1, 0, 4,-1.6511538958709615,1.1448519022903867
1503610364695,-0.601,-0.423,+0.339,+0.587,+0.935,-0.102,-0.381,+11.688,-3.938,+27.812,-14, -1, 5, 2, 0, -1, -2, -12,-1.6514979279873447,1.1439078683949595
1503610370823,-0.502,-0.362,+0.412,+0.668,+0.967,-0.077,-0.340,-9.312,-5.438,+4.938,-6, -9, 0, 1, -1, -1, -1, -2,-1.3339308863847554,1.1596710454980832
1503610370843,-0.502,-0.360,+0.411,+0.670,+0.925,-0.066,-0.332,-9.375,-12.562,+3.375,-4, -31, -16, -5, 0, -2, -2, -1,-1.3310307030629034,1.154821966233552
1503610370858,-0.503,-0.358,+0.410,+0.672,+0.922,-0.050,-0.344,-9.312,-17.875,+0.625,0, -15, -16, -5, -4, -1, -3, -5,-1.3304279076266325,1.1502836316530718
1503610370880,-0.503,-0.356,+0.409,+0.673,+0.907,-0.062,-0.383,-6.562,-16.125,+0.250,5, -5, -4, -2, -4, -4, 1, 3,-1.3273263556197894,1.1451330821692565
1503610370903,-0.504,-0.354,+0.407,+0.674,+0.900,-0.069,-0.375,-5.875,-14.500,-0.125,-4, 5, 8, 1, 0, 0, -2, -4,-1.3263537173660471,1.1382413472329023
1503610370917,-0.504,-0.352,+0.407,+0.675,+0.932,-0.061,-0.371,-7.188,-11.125,-0.312,5, -9, -4, 0, 3, 1, 0, -2,-1.3234557268325147,1.1351656386609223
1503610370940,-0.504,-0.351,+0.406,+0.677,+0.933,-0.051,-0.368,-8.688,-11.562,+0.875,7, -8, -13, -5, -2, -2, 0, 1,-1.3222125765445958,1.132101067960258
1503610370962,-0.504,-0.348,+0.405,+0.678,+0.910,-0.040,-0.398,-10.188,-12.625,+2.500,19, 3, 6, 0, -1, 0, -1, 2,-1.3176115241216848,1.1253018764890639
1503610370977,-0.504,-0.347,+0.405,+0.680,+0.902,-0.037,-0.403,-8.438,-9.562,+2.500,-3, 5, 7, 4, 0, 1, -1, -1,-1.3165664721137544,1.1243097237248922
1503610371001,-0.504,-0.345,+0.404,+0.681,+0.906,-0.049,-0.394,-6.750,-7.250,+1.500,-3, -13, -9, -4, -2, -1, 0, 0,-1.3135541069189793,1.119234882142141
1503610371022,-0.504,-0.345,+0.404,+0.681,+0.934,-0.066,-0.380,-6.438,-4.062,+2.312,6, 15, 15, 3, 3, 1, -1, 2,-1.3135541069189793,1.119234882142141
1503610371039,-0.503,-0.344,+0.404,+0.682,+0.919,-0.068,-0.386,-6.562,-2.000,+2.188,6, 0, -14, -5, -3, -3, -3, 0,-1.3099696598784614,1.1176039970675054
1503610371059,-0.503,-0.343,+0.405,+0.682,+0.899,-0.057,-0.378,-6.312,+1.312,-2.500,-4, 6, 4, 2, 1, 0, 0, -3,-1.3086079877324834,1.1179808417638477
1503610371082,-0.503,-0.343,+0.406,+0.681,+0.897,-0.042,-0.386,-6.438,+5.500,-5.000,-11, 10, 13, 4, 2, 0, -1, -5,-1.3085248559231366,1.1196845343024455
1503610371097,-0.503,-0.343,+0.408,+0.680,+0.913,-0.051,-0.404,-4.562,+10.188,-6.062,18, 7, -4, 0, -1, -2, -1, 3,-1.3086199336976532,1.1234535931979117
1503610371119,-0.503,-0.343,+0.410,+0.679,+0.911,-0.051,-0.398,-1.750,+12.125,-4.750,-13, -3, -4, 1, -2, -1, -2, -2,-1.308714944147625,1.127231333285698
1503610371143,-0.503,-0.344,+0.411,+0.678,+0.933,-0.043,-0.381,+0.812,+8.438,-4.250,-3, -1, 0, -3, -3, -3, -1, -1,-1.3101741953789523,1.1306221047082567
1503610371157,-0.503,-0.345,+0.412,+0.677,+0.928,-0.046,-0.362,+0.938,+6.500,-4.250,6, -1, -7, -1, -2, -2, 0, 0,-1.3116379617174818,1.1340176940290259
1503610371179,-0.503,-0.345,+0.412,+0.676,+0.944,-0.057,-0.359,+0.375,+3.625,-1.125,4, -9, -5, -1, -1, -1, 1, 2,-1.311379567849021,1.133668399526802
1503610371205,-0.503,-0.346,+0.412,+0.677,+0.962,-0.068,-0.358,-1.750,-1.000,+3.188,-3, 0, 11, 5, -1, -1, -1, -2,-1.3131863139465259,1.135697186972041
1503610371217,-0.502,-0.345,+0.412,+0.677,+0.940,-0.062,-0.362,-3.750,-4.500,+5.438,0, -29, -13, -4, -3, -1, 0, -6,-1.3093432800455373,1.1337252378537177
1503610371240,-0.502,-0.345,+0.410,+0.679,+0.883,-0.057,-0.375,-3.938,-8.438,+5.938,6, 17, 23, 10, 3, 4, -1, -3,-1.3095058508715658,1.130289022002321
1503610371262,-0.502,-0.344,+0.410,+0.680,+0.870,-0.044,-0.384,-4.750,-6.500,+1.688,-9, -17, -19, -4, 0, -1, -1, -1,-1.3082209253208783,1.1289626572785856
1503610371279,-0.502,-0.343,+0.410,+0.680,+0.896,-0.035,-0.388,-4.000,-0.625,-2.938,24, 32, 4, 1, 1, 0, 0, 1,-1.3066790271322328,1.1272889226386895
1503610371299,-0.502,-0.343,+0.411,+0.679,+0.918,-0.056,-0.394,-3.062,+2.688,-2.812,-9, 2, 2, 7, 0, -1, -1, -4,-1.3065958696715063,1.1290057308441896
1503610371323,-0.502,-0.343,+0.411,+0.679,+0.925,-0.064,-0.377,-3.500,+5.188,-1.375,-2, 12, 5, -2, 0, 0, -5, -20,-1.3065958696715063,1.1290057308441896
1503610371341,-0.502,-0.343,+0.412,+0.678,+0.935,-0.026,-0.369,-2.000,+2.875,-5.562,-9, -1, 2, 0, 1, -2, -3, -12,-1.3065126610551765,1.13072519949055
1503610371360,-0.503,-0.342,+0.413,+0.678,+0.919,-0.033,-0.381,-1.188,+2.625,-3.688,0, 26, 5, -1, -2, 0, 1, 14,-1.3074490161531642,1.1314205817324887
1503610371382,-0.503,-0.343,+0.413,+0.677,+0.907,-0.034,-0.388,+1.188,+3.062,-4.375,-20, -35, -16, -6, -4, -2, -3, 2,-1.3087268805927035,1.1327389412402087
1503610371397,-0.504,-0.343,+0.414,+0.676,+0.906,-0.036,-0.374,+3.000,+5.188,-5.438,-1, -5, 8, 7, 4, 1, 1, 8,-1.3109418137257007,1.1347530034601385
1503610371419,-0.504,-0.344,+0.414,+0.675,+0.940,-0.048,-0.373,+2.625,+4.688,-1.562,0, -3, -2, -3, -2, 0, 1, -15,-1.312225460162036,1.1360764120879538
1503610371442,-0.504,-0.344,+0.414,+0.675,+0.946,-0.060,-0.363,+0.438,+1.312,+1.688,5, 1, 6, 0, -3, 0, 4, -1,-1.312225460162036,1.1360764120879538
1503610371457,-0.504,-0.345,+0.414,+0.676,+0.944,-0.062,-0.357,-2.188,-3.062,+2.688,-3, -4, -3, 1, 1, 1, -3, -2,-1.3140273900943118,1.1381002675668077
1503610371481,-0.503,-0.345,+0.413,+0.676,+0.938,-0.062,-0.369,-2.438,-3.062,+4.812,11, -1, -7, -6, -4, -3, -3, -7,-1.3115568504676751,1.1357388040389444
1503610371504,-0.503,-0.344,+0.413,+0.677,+0.919,-0.050,-0.367,-3.688,-4.375,+3.125,-5, 19, 18, 5, 2, 0, 1, 4,-1.31026964118122,1.1344118137863801
1503610371517,-0.503,-0.344,+0.413,+0.677,+0.916,-0.032,-0.368,-3.438,-5.062,+2.062,-3, -23, -16, -5, -5, -1, 2, 7,-1.31026964118122,1.1344118137863801
1503610371540,-0.502,-0.344,+0.412,+0.678,+0.941,-0.051,-0.380,-1.812,-5.250,+6.438,-28, -9, -2, -1, 3, 0, -1, -6,-1.3080566204011843,1.1323985548284439
1503610371562,-0.501,-0.344,+0.411,+0.679,+0.947,-0.068,-0.383,-2.438,-4.688,+7.500,15, 6, 5, 5, 6, 2, 1, -3,-1.3058442880555767,1.1303855891890333
1503610371577,-0.501,-0.344,+0.410,+0.680,+0.937,-0.046,-0.393,-2.125,-7.062,+7.312,-4, 1, 0, 1, 1, -1, 0, -2,-1.3059266569771835,1.1286679629919214
1503610371599,-0.501,-0.343,+0.408,+0.682,+0.922,-0.034,-0.396,+1.000,-10.500,+9.000,8, 9, 2, 0, -1, 0, 2, 0,-1.3045491968841032,1.1235662429467292
1503610371622,-0.501,-0.344,+0.405,+0.683,+0.918,-0.053,-0.389,+5.062,-12.562,+9.625,8, 7, 11, 5, 1, 2, 1, 1,-1.305812796273148,1.1194119317588946
1503610371640,-0.501,-0.344,+0.402,+0.685,+0.914,-0.074,-0.409,+7.500,-11.312,+12.625,-6, 6, -20, -11, -6, -4, -3, -3,-1.3057970476404963,1.1139563954081253
1503610371659,-0.500,-0.346,+0.399,+0.686,+0.909,-0.080,-0.410,+7.750,-9.562,+16.125,-3, 3, 2, -1, -2, 0, -1, -13,-1.3063107686161401,1.1112294085683256
1503610371682,-0.499,-0.347,+0.397,+0.688,+0.907,-0.078,-0.402,+8.438,-7.500,+17.688,-12, -13, -7, 0, 0, 0, -2, 0,-1.305727164340043,1.1092347397467859
1503610371697,-0.498,-0.349,+0.394,+0.689,+0.913,-0.071,-0.404,+11.125,-6.875,+17.875,-7, -6, -2, 1, 0, -1, 4, 18,-1.3062596457558653,1.1065577878306068
1503610379629,-0.469,-0.346,+0.402,+0.706,+0.880,-0.109,-0.439,+7.562,+23.250,+8.562,8, 2, -4, -5, -3, -1, 1, 0,-1.2421945720042369,1.1150037880719814
1503610379647,-0.469,-0.349,+0.402,+0.705,+0.888,-0.106,-0.396,+14.250,+15.250,+2.375,3, -2, 1, 2, -2, 1, 1, 9,-1.2466454974526167,1.1196627276792157
1503610379670,-0.471,-0.351,+0.402,+0.702,+0.928,-0.114,-0.359,+15.938,+3.000,-10.438,-1, 6, 9, 5, 2, 1, -3, -9,-1.2534210111675297,1.1225810230154263
1503610379685,-0.474,-0.352,+0.401,+0.701,+0.941,-0.128,-0.361,+14.500,-2.000,-12.000,-12, 3, 26, 9, 2, 0, -1, -2,-1.2612396226543714,1.1227693958215792
1503610379707,-0.474,-0.353,+0.401,+0.700,+0.897,-0.137,-0.377,+9.312,+0.875,-3.750,2, 7, -6, 0, -1, -2, -1, -3,-1.2625465761070833,1.1241121752856302
1503610379730,-0.475,-0.355,+0.401,+0.699,+0.891,-0.116,-0.380,+6.812,+8.125,-0.188,4, -7, -3, 0, 0, -2, -3, -4,-1.2677074216145165,1.1274659514152967
1503610379745,-0.474,-0.357,+0.402,+0.697,+0.919,-0.117,-0.364,+8.188,+13.938,-0.938,0, 4, 0, 0, -2, 2, 0, 5,-1.2683272414735223,1.1319397443157504
1503610379767,-0.474,-0.359,+0.403,+0.696,+0.943,-0.125,-0.371,+7.062,+12.062,+0.062,1, 13, 2, -6, -2, -1, -2, 0,-1.2714928448980651,1.1370798314715311
1503610379783,-0.474,-0.361,+0.403,+0.695,+0.948,-0.117,-0.353,+5.000,+3.812,+1.625,-13, -19, -22, -12, -8, -6, -5, -14,-1.2744610367056823,1.1401727145693372
1503610379805,-0.474,-0.362,+0.403,+0.694,+0.918,-0.102,-0.362,+6.562,+3.375,+2.312,14, 16, 8, 5, 2, 1, -1, 4,-1.2758126056180121,1.141556238191982
1503610379829,-0.474,-0.364,+0.402,+0.693,+0.925,-0.112,-0.369,+10.312,+7.438,+3.375,6, 32, 1, -7, 0, -1, 1, 3,-1.2785957987486885,1.1426183934935248
1503610379843,-0.475,-0.366,+0.402,+0.692,+0.945,-0.124,-0.366,+11.938,+5.812,+1.688,-1, -20, -5, 1, -2, 0, -1, -4,-1.2838390971878113,1.1460588739792739
1503610379866,-0.475,-0.368,+0.401,+0.692,+0.952,-0.122,-0.352,+10.375,-0.688,+3.062,1, 7, 3, -2, -6, 0, 0, 4,-1.2869257850141542,1.1474945989599652
1503610379887,-0.476,-0.369,+0.400,+0.691,+0.901,-0.116,-0.350,+8.375,-1.562,+0.750,0, -5, 3, -4, -1, -2, 3, 6,-1.2903335959568325,1.1471714888388644
1503610379903,-0.477,-0.370,+0.399,+0.690,+0.877,-0.109,-0.345,+10.812,-0.312,-6.250,0, 18, 10, 6, 1, -1, 2, 1,-1.2937501097357664,1.1468587931942889
1503610379925,-0.480,-0.371,+0.399,+0.688,+0.903,-0.116,-0.370,+14.750,+1.438,-12.750,-8, -23, -12, 2, 8, 0, -6, -7,-1.3015846813046505,1.1488769367089646
1503610379947,-0.483,-0.371,+0.398,+0.685,+0.918,-0.138,-0.356,+14.750,-2.562,-17.188,2, 2, 5, 5, -1, 1, 0, 3,-1.3073348225525312,1.146774912617329
1503610379970,-0.487,-0.370,+0.397,+0.684,+0.917,-0.134,-0.334,+8.188,-13.312,-18.625,6, -1, -2, 3, 3, -2, -2, -2,-1.3142214616130108,1.143883504038319
1503610379985,-0.491,-0.368,+0.397,+0.683,+0.889,-0.118,-0.326,+3.062,-18.188,-24.625,-4, -3, 2, 3, 2, -1, 1, -4,-1.3197029421266142,1.1412642932749448
1503610380008,-0.495,-0.365,+0.396,+0.682,+0.903,-0.113,-0.344,+1.625,-15.062,-26.375,5, 9, -5, -9, -6, -1, 0, -3,-1.323442371223073,1.1348791727204475
1503610380033,-0.497,-0.363,+0.396,+0.681,+0.883,-0.134,-0.379,-4.312,-11.688,-15.750,3, -2, 9, -2, -3, -1, 1, -1,-1.3245089107409436,1.1316645586805714
1503610380045,-0.497,-0.361,+0.396,+0.682,+0.910,-0.130,-0.338,-15.000,-9.375,-7.312,4, -10, -14, -3, 1, 4, 1, 1,-1.3215402878005826,1.1285181247083298
1503610380068,-0.497,-0.357,+0.398,+0.683,+0.922,-0.078,-0.341,-22.062,-5.375,-9.500,-4, 4, 3, 3, 0, 0, 4, 5,-1.3157623898830326,1.125992095947451
1503610380090,-0.499,-0.353,+0.400,+0.683,+0.900,-0.002,-0.377,-18.250,-11.562,-13.875,-19, -14, -2, -4, -5, -2, -2, -7,-1.3143586951566861,1.1238110746839274
1503610380106,-0.502,-0.349,+0.400,+0.683,+0.901,-0.017,-0.426,-9.375,-15.562,-20.750,9, 1, 6, 10, 13, 4, 5, 6,-1.3149652883277654,1.1179106823920437
1503610380128,-0.505,-0.345,+0.401,+0.682,+0.918,-0.067,-0.421,-7.812,-9.875,-19.688,1, -7, -8, -8, -6, -7, -6, -2,-1.3155869525965431,1.1137451434124337
1503610380149,-0.506,-0.342,+0.401,+0.683,+0.956,-0.087,-0.375,-14.938,-11.875,-13.375,12, 7, 4, -5, -5, 0, -5, 0,-1.3135439889744334,1.109357287769217
1503610380167,-0.506,-0.338,+0.403,+0.683,+0.959,-0.043,-0.373,-19.938,-13.312,-12.688,-6, 0, -2, 1, -2, -2, -3, 0,-1.307798915576001,1.1067750287476703
1503610380188,-0.509,-0.334,+0.404,+0.683,+0.907,+0.015,-0.430,-17.625,-12.000,-19.438,5, -4, -5, 0, -3, -2, 2, -4,-1.308890075144419,1.1031043536466971
1503610380210,-0.512,-0.329,+0.405,+0.682,+0.880,+0.020,-0.445,-9.875,-9.250,-22.125,-9, -1, 1, -4, -8, -4, -11, -1,-1.3083229899128088,1.097471744902947
1503610380225,-0.514,-0.326,+0.405,+0.682,+0.911,-0.020,-0.428,-7.500,-12.812,-16.438,2, -2, -3, -2, -6, 1, 8, 9,-1.3085685201658865,1.0931652552035878
1503610380248,-0.515,-0.323,+0.405,+0.683,+0.956,-0.011,-0.406,-13.000,-12.750,-10.500,-7, -1, -4, -7, 0, -4, -5, 2,-1.3067855239100936,1.088957615683651
1503610380270,-0.516,-0.321,+0.406,+0.683,+0.912,+0.004,-0.441,-12.125,-6.750,-7.375,0, 1, -3, 1, -1, -2, 3, -2,-1.3063906901186253,1.0880882610935303
1503610380286,-0.516,-0.319,+0.405,+0.684,+0.901,-0.010,-0.451,-8.812,-8.875,-2.125,5, 1, 0, -1, 1, -2, 2, 11,-1.303597524557499,1.0831668184590255
1503610380308,-0.516,-0.317,+0.404,+0.686,+0.932,-0.023,-0.421,-9.000,-16.375,+0.812,-12, 11, 0, -2, 0, -7, -14, -30,-1.301094249076994,1.078639641651957
1503610380330,-0.516,-0.314,+0.403,+0.688,+0.920,-0.034,-0.393,-10.250,-20.438,+3.688,-2, 18, 24, 4, 4, 0, -1, 7,-1.297183070114184,1.072532089629251
1503610380351,-0.515,-0.313,+0.401,+0.690,+0.891,-0.028,-0.420,-11.000,-17.812,+9.688,11, 6, 17, 11, 7, 4, 2, 5,-1.2936187523088263,1.067263882650757
1503610380368,-0.514,-0.311,+0.399,+0.693,+0.879,-0.025,-0.451,-8.438,-12.250,+12.562,6, -15, -27, -12, -5, 3, 7, 10,-1.2889257282715136,1.0608038824015085
1503610380390,-0.512,-0.311,+0.398,+0.694,+0.905,-0.034,-0.438,-6.312,-7.812,+10.625,-12, -6, -10, -10, -3, -4, -5, -1,-1.2843194843028078,1.0585154699381725
1503610380405,-0.511,-0.311,+0.398,+0.696,+0.913,-0.036,-0.437,-6.375,-6.875,+8.062,3, -14, -1, 3, 1, 3, 12, 18,-1.2825424701764032,1.0589909335755527
1503610380428,-0.510,-0.310,+0.397,+0.697,+0.895,-0.022,-0.441,-6.750,-5.688,+6.438,13, 13, 3, 4, 2, -1, 0, 13,-1.2788833139772657,1.0554227567393806
1503610380456,-0.510,-0.310,+0.397,+0.698,+0.892,-0.022,-0.458,-3.875,-2.250,+5.812,18, -9, -4, -7, -4, -3, -1, 21,-1.2791767563173948,1.0558140378292535
1503610380467,-0.509,-0.311,+0.396,+0.698,+0.902,-0.036,-0.473,+0.125,+0.812,+8.375,-15, 5, -2, 6, 0, -4, -13, -51,-1.278061780813523,1.0550226671544973
1503610380488,-0.508,-0.312,+0.395,+0.699,+0.915,-0.059,-0.448,+2.312,+0.250,+11.312,-6, -6, -4, -3, -1, 0, 8, -11,-1.2772456501965657,1.0546255823675648
1503610380517,-0.507,-0.313,+0.394,+0.700,+0.908,-0.061,-0.455,+3.438,-0.875,+9.625,-26, -31, -15, -10, -6, -3, -2, -19,-1.276434898386963,1.0542314896724685
1503610380525,-0.506,-0.315,+0.393,+0.700,+0.901,-0.064,-0.438,+5.750,-3.438,+7.875,-21, -12, -6, 4, -1, 1, 3, -5,-1.2767686575316617,1.0550469969879996
1503610380548,-0.505,-0.317,+0.391,+0.701,+0.908,-0.065,-0.458,+7.250,-0.312,+11.375,-14, -11, 9, 3, -1, 0, -1, -6,-1.2772286498893595,1.0542072447660844
1503610380570,-0.504,-0.320,+0.389,+0.702,+0.891,-0.073,-0.486,+11.875,+2.188,+16.250,-6, 2, 9, 4, 6, 2, -2, -13,-1.2791523307675916,1.0549985024843724
1503610380585,-0.503,-0.323,+0.386,+0.702,+0.896,-0.084,-0.477,+17.188,+2.688,+19.812,4, 0, -7, -3, -3, 0, 3, 14,-1.280632698136903,1.0534008630575924
1503610380608,-0.502,-0.328,+0.383,+0.703,+0.912,-0.092,-0.458,+22.438,-0.562,+21.062,11, 26, 13, 2, 1, -3, -2, -3,-1.2853837845354057,1.0555133926440905
1503610385595,-0.659,-0.374,+0.313,+0.573,+0.880,-0.025,-0.467,-12.312,-10.875,+15.562,4, 0, -7, -7, -6, -2, 0, 6,-1.719600567329638,1.0189454799536948
1503610385610,-0.656,-0.373,+0.313,+0.576,+0.856,-0.021,-0.467,-14.250,-3.938,+16.375,14, 2, -9, -3, 1, 1, 0, -9,-1.7103290853259372,1.0167923415725657
1503610385632,-0.654,-0.374,+0.315,+0.578,+0.873,-0.005,-0.472,-14.625,+6.250,+16.375,9, -9, 3, 3, 0, 0, 0, 2,-1.7062842598813701,1.0219762102943155
1503610385655,-0.651,-0.375,+0.316,+0.580,+0.905,-0.007,-0.470,-14.312,+10.125,+19.000,3, -11, -16, -5, -3, -3, -4, -8,-1.6999436684130145,1.0251017708599475
1503610385671,-0.647,-0.375,+0.317,+0.583,+0.927,-0.023,-0.474,-14.625,+5.812,+21.750,7, -6, -2, 3, 0, -1, -1, 2,-1.6896387478384338,1.0262167016067438
1503610385693,-0.644,-0.375,+0.317,+0.586,+0.882,-0.013,-0.472,-14.625,+1.188,+22.812,-4, 2, -10, -13, -5, -1, 1, 1,-1.6818936486814282,1.0260362637053821
1503610385715,-0.641,-0.375,+0.317,+0.589,+0.859,-0.020,-0.476,-13.562,-0.375,+21.938,19, 21, 1, 3, 0, 1, 1, 4,-1.6741804613388702,1.0258557182739416
1503610385730,-0.639,-0.375,+0.318,+0.592,+0.837,-0.033,-0.471,-13.188,+5.375,+20.062,3, -1, -11, -2, 0, -2, 0, -12,-1.6688572028321416,1.0277647572102928
1503610385752,-0.635,-0.376,+0.319,+0.594,+0.844,-0.037,-0.480,-13.188,+12.812,+17.500,-3, 1, 0, -1, -3, -3, -1, 1,-1.6602730273065285,1.030522096541791
1503610385775,-0.633,-0.377,+0.321,+0.596,+0.875,-0.039,-0.459,-12.375,+13.438,+14.312,11, 23, 13, 6, 6, 1, -1, -4,-1.6565164945487458,1.0357712548149698
1503610385790,-0.630,-0.378,+0.322,+0.597,+0.900,-0.054,-0.465,-11.562,+9.188,+9.562,0, -16, -17, -6, -7, -4, 0, 5,-1.650542321953235,1.0386048805734691
1503610385812,-0.629,-0.377,+0.323,+0.598,+0.887,-0.051,-0.450,-10.250,-0.312,+3.875,2, -2, -7, -1, 0, 2, 0, 2,-1.6465079538704372,1.0383266985496427
1503610385834,-0.629,-0.377,+0.323,+0.598,+0.837,-0.039,-0.466,-8.688,+0.625,+0.812,7, -2, -6, -1, 0, -2, -2, 0,-1.6465079538704372,1.0383266985496427
1503610385850,-0.629,-0.376,+0.325,+0.598,+0.810,-0.023,-0.475,-4.625,+9.250,-3.562,-7, -2, 1, -2, -1, 0, 1, 2,-1.6449404753251389,1.039839116543935
1503610385874,-0.629,-0.378,+0.327,+0.596,+0.837,-0.026,-0.458,+0.125,+17.750,-11.625,23, -1, -8, -2, -2, -4, -4, -5,-1.6479264075891478,1.0465146593364314
1503610385894,-0.629,-0.379,+0.330,+0.593,+0.891,-0.030,-0.440,+1.500,+20.000,-13.812,15, -6, -14, -9, -5, -1, -2, 0,-1.6495023120735537,1.0526707158527595
1503610385910,-0.630,-0.380,+0.331,+0.591,+0.908,-0.027,-0.458,+0.688,+11.812,-9.562,17, 4, -5, -4, -2, -2, 0, 2,-1.6535205195855902,1.0560705512507411
1503610385932,-0.631,-0.380,+0.332,+0.590,+0.896,-0.027,-0.470,+0.188,+0.125,-7.500,-5, 14, 20, 9, 2, 3, 4, 1,-1.655976413679498,1.0578538617504376
1503610385955,-0.632,-0.379,+0.331,+0.589,+0.877,-0.033,-0.460,+1.812,-5.312,-8.500,-5, 1, 1, -1, -3, -1, 0, 2,-1.657109890363229,1.0542223156554602
1503610385972,-0.633,-0.378,+0.331,+0.588,+0.865,-0.035,-0.451,+2.812,-4.750,-9.000,14, 6, -10, -6, -5, -3, -2, 0,-1.6581884301605465,1.0523263085379049
1503610385992,-0.634,-0.379,+0.331,+0.587,+0.867,-0.027,-0.452,+2.938,+2.188,-8.500,6, -9, -9, -8, -5, -4, -2, -2,-1.6621736995418355,1.0543171885815383
1503610386008,-0.635,-0.379,+0.331,+0.586,+0.866,-0.024,-0.453,+3.562,+7.125,-7.688,-3, -40, -25, -9, -4, 0, 1, 2,-1.6647110849609164,1.0543646131605338
1503610386030,-0.636,-0.380,+0.332,+0.584,+0.902,-0.021,-0.441,+3.500,+6.062,-7.375,10, 30, 5, 4, 3, 1, 0, 0,-1.6687486718955689,1.0577635521612674
1503610386051,-0.637,-0.380,+0.332,+0.583,+0.932,-0.019,-0.437,+4.250,-1.500,-5.938,-12, 0, 2, 2, 2, 0, 2, 0,-1.671292561900673,1.057810673820678
1503610386075,-0.638,-0.380,+0.330,+0.583,+0.909,-0.035,-0.450,+6.188,-9.188,-5.188,-16, -9, 3, -2, -4, 0, -1, 3,-1.6738651760139043,1.0547316222333396
1503610386089,-0.640,-0.379,+0.329,+0.582,+0.883,-0.039,-0.444,+6.062,-13.250,-7.625,-13, 5, 8, 6, -1, -1, -1, 0,-1.6774776690295148,1.0514829975138769
1503610386113,-0.642,-0.378,+0.327,+0.581,+0.878,-0.042,-0.447,+6.188,-10.750,-9.500,-5, -4, -10, -5, -4, -4, -1, -3,-1.6811936309005688,1.0465236737518657
1503610386134,-0.643,-0.378,+0.326,+0.580,+0.903,-0.035,-0.439,+5.000,-5.125,-6.625,1, -5, 7, 1, -1, -1, -2, -6,-1.6838483623195857,1.0448623383547835
1503610386149,-0.644,-0.378,+0.326,+0.580,+0.899,-0.018,-0.456,+2.188,-5.562,-2.750,-9, -2, -2, -5, -1, -2, -1, -3,-1.6862746905941117,1.0452418758444444
1503610386174,-0.645,-0.378,+0.326,+0.580,+0.893,+0.000,-0.445,+1.250,-4.625,-2.812,9, 8, 7, 2, 1, -2, 0, -3,-1.6886979652226382,1.0456209172301882
1503610386194,-0.645,-0.377,+0.325,+0.579,+0.889,+0.001,-0.441,+1.188,-4.000,-4.375,6, -3, -5, -5, -4, -4, -3, 2,-1.6875141012704227,1.0416310957451018
1503610386210,-0.646,-0.377,+0.325,+0.579,+0.907,-0.004,-0.438,+0.812,-3.625,-2.875,-2, -3, 9, 7, 3, 0, -2, -7,-1.689943175902343,1.0420117189014002
1503610386231,-0.646,-0.376,+0.325,+0.579,+0.904,-0.005,-0.439,-1.625,-5.438,-1.438,0, -13, -7, -3, -2, -1, -3, -5,-1.6885242430188494,1.0400589507985394
1503610386254,-0.646,-0.376,+0.325,+0.579,+0.892,+0.010,-0.468,-4.000,-3.625,+0.562,-7, -29, -26, -10, -2, 0, 2, 2,-1.6885242430188494,1.0400589507985394
1503610386269,-0.646,-0.375,+0.326,+0.579,+0.872,+0.021,-0.469,-4.625,-1.688,+0.625,-11, -5, -11, -3, -1, 0, 2, 4,-1.6870198550943516,1.0398185524301038
1503610386291,-0.646,-0.375,+0.326,+0.579,+0.888,+0.014,-0.447,-3.500,+0.438,+0.250,6, 4, 0, -4, -3, -1, -5, -4,-1.6870198550943516,1.0398185524301038
1503610386316,-0.646,-0.375,+0.327,+0.580,+0.901,-0.014,-0.456,-4.688,+2.062,+2.875,-17, -18, -10, -5, -6, -5, -2, -12,-1.686783376984306,1.0418611643580622
1503610386328,-0.644,-0.375,+0.327,+0.581,+0.907,-0.015,-0.457,-9.875,-1.312,+11.625,21, -11, 2, 4, 1, 3, 0, 1,-1.6817760956781,1.0414341837913377
1503610386351,-0.642,-0.374,+0.327,+0.584,+0.904,-0.004,-0.463,-12.125,-2.000,+17.250,-8, -14, 8, -4, 1, -1, -3, -6,-1.6750773303930562,1.039725894516059
1503610386376,-0.640,-0.374,+0.326,+0.587,+0.892,-0.021,-0.459,-10.438,-2.812,+17.625,-20, -17, -5, 0, -1, 1, 2, -6,-1.669899067308782,1.0382410859653277
1503610386389,-0.637,-0.374,+0.326,+0.589,+0.896,-0.041,-0.451,-9.750,-2.375,+19.312,3, -14, -6, 2, 1, 1, 2, 2,-1.6623590177747873,1.0377633889860838
1503610386412,-0.634,-0.375,+0.326,+0.593,+0.899,-0.048,-0.439,-12.250,+0.938,+22.938,16, 12, 7, 5, 1, -2, 1, 9,-1.6560567608088874,1.0398833843785669
1503610386434,-0.630,-0.376,+0.327,+0.595,+0.890,-0.047,-0.431,-15.000,+7.312,+23.188,13, 3, 4, 4, 1, -1, -2, 1,-1.6475353440560145,1.042689453904939
1503610386451,-0.627,-0.377,+0.328,+0.598,+0.903,-0.039,-0.434,-15.125,+11.375,+21.875,-4, -18, -14, -9, -3, -1, 2, 17,-1.6413925283967252,1.046210196951368
1503610386471,-0.623,-0.378,+0.329,+0.601,+0.924,-0.050,-0.445,-14.250,+8.750,+24.312,-3, 18, 23, 12, 6, 2, 2, 3,-1.6328934771228807,1.0493580467073254
1503610386494,-0.619,-0.379,+0.329,+0.604,+0.916,-0.061,-0.449,-13.312,+4.688,+23.875,-10, -2, -11, -8, -6, -1, -2, -4,-1.6245027013447502,1.0507663893553953
1503610386510,-0.616,-0.380,+0.329,+0.607,+0.903,-0.074,-0.446,-11.625,+2.938,+21.812,-1, 2, -2, 1, 1, 0, 0, -4,-1.618574070265022,1.0525491379423155
1503610386531,-0.613,-0.381,+0.329,+0.609,+0.903,-0.084,-0.441,-9.312,+6.312,+21.750,6, -7, -22, -9, -6, -2, -3, -1,-1.6127436874514192,1.05400371074668
1503610386554,-0.609,-0.383,+0.329,+0.611,+0.897,-0.083,-0.457,-7.750,+9.938,+21.875,12, 5, -3, 0, -4, -1, 0, -4,-1.6060553246918217,1.0570166381372756
1503610386569,-0.606,-0.385,+0.329,+0.613,+0.905,-0.082,-0.451,-5.375,+12.125,+20.938,-7, -13, -2, -5, -2, -2, -5, -4,-1.6018236387858533,1.0604107761240165
1503610386591,-0.603,-0.388,+0.330,+0.615,+0.916,-0.095,-0.439,-3.375,+13.188,+21.375,5, 13, 10, -2, 0, -2, 2, 5,-1.5991579832547833,1.067508120834747
1503610386615,-0.599,-0.390,+0.329,+0.616,+0.907,-0.104,-0.433,-1.562,+13.062,+24.000,-5, 5, 14, 3, -2, 2, 0, -5,-1.5927134512217622,1.0684665940081948
1503610391736,-0.639,-0.461,+0.343,+0.512,+0.930,-0.019,-0.294,-1.938,-5.875,-2.188,17, -8, -6, -1, -1, 0, 3, 14,-1.8148424031870418,1.2241871716187012
1503610391752,-0.639,-0.460,+0.342,+0.512,+0.939,-0.014,-0.312,-1.062,-5.688,+0.438,24, 10, -2, -2, -2, -1, -3, -13,-1.8134405449519704,1.2203795377404503
1503610391774,-0.640,-0.459,+0.342,+0.512,+0.939,-0.021,-0.290,-2.188,-6.312,-0.312,-6, 10, -1, -3, -4, -3, -1, 8,-1.814058551913247,1.2185279429432112
1503610391796,-0.641,-0.458,+0.342,+0.513,+0.948,-0.021,-0.287,-3.312,-7.625,-0.688,-16, 17, 7, 0, 1, -4, -9, -33,-1.8143742778269025,1.2169169941231435
1503610391819,-0.641,-0.458,+0.342,+0.513,+0.930,-0.028,-0.292,-3.438,-4.062,+1.250,1, -35, -12, -1, -2, -1, 0, 18,-1.8143742778269025,1.2169169941231435
1503610391841,-0.640,-0.457,+0.342,+0.514,+0.922,-0.028,-0.303,-5.750,-2.625,+2.438,1, -48, -29, -6, -4, -4, -6, -12,-1.8102114664917817,1.214674697287039
1503610391856,-0.640,-0.457,+0.342,+0.515,+0.946,-0.012,-0.301,-6.812,-0.250,+4.312,7, -1, -11, -6, -6, -4, -4, -5,-1.8099080090707091,1.2149131986254789
1503610391881,-0.639,-0.456,+0.342,+0.516,+0.966,-0.018,-0.301,-5.500,-4.688,+5.688,4, 21, 5, 3, 1, 1, 2, 3,-1.8057469671151825,1.2126741812736868
1503610391894,-0.639,-0.455,+0.341,+0.518,+0.964,-0.029,-0.294,-6.688,-11.188,+5.062,10, 5, 2, 2, 4, 3, 5, 34,-1.8037496896679241,1.2093546368678552
1503610391917,-0.639,-0.454,+0.340,+0.519,+0.938,-0.044,-0.299,-6.875,-10.938,+4.750,-30, 3, 17, 4, 1, -1, 2, -10,-1.802050415824675,1.2057984968835462
1503610391938,-0.639,-0.452,+0.340,+0.521,+0.927,-0.027,-0.316,-7.375,-7.062,+5.875,7, -10, -10, -4, -3, -6, -8, -16,-1.7982446674838268,1.2019829579309889
1503610391955,-0.639,-0.452,+0.340,+0.522,+0.933,-0.013,-0.313,-5.375,-1.562,+5.188,8, 12, 1, -4, -5, -4, -5, -19,-1.797956537423317,1.2022281639256207
1503610391976,-0.638,-0.452,+0.340,+0.522,+0.957,-0.023,-0.297,-4.750,+0.062,+3.812,11, -4, -7, 2, 7, 2, -12, 12,-1.7957000663351905,1.2019021160066399
1503610391998,-0.637,-0.452,+0.341,+0.523,+0.971,-0.040,-0.296,-5.438,+0.250,+4.062,24, 7, -5, -4, -3, -8, -11, -5,-1.792958978074551,1.2034701623041777
1503610392017,-0.637,-0.452,+0.341,+0.524,+0.972,-0.038,-0.321,-7.375,-0.938,+3.750,-15, -2, 9, 5, 4, -1, -6, 3,-1.7926783674923998,1.2037151257417849
1503610392036,-0.636,-0.451,+0.341,+0.525,+0.971,-0.032,-0.319,-7.375,-3.938,+3.062,6, -5, 1, -4, -2, -2, -2, -1,-1.7885295535422283,1.201491213868497
1503610392059,-0.637,-0.450,+0.341,+0.526,+0.948,-0.018,-0.327,-5.938,-7.812,+2.812,-6, 2, 1, 0, -1, -3, -3, -8,-1.7889010157119272,1.1999226421192462
1503610392074,-0.637,-0.449,+0.340,+0.527,+0.928,-0.027,-0.303,-4.938,-8.625,+4.125,-2, 0, 3, -1, 0, 1, -8, 2,-1.7872119000516025,1.1963796445485961
1503610392096,-0.636,-0.448,+0.340,+0.528,+0.929,-0.036,-0.313,-6.062,-3.438,+4.750,-4, -4, -6, -1, -1, 0, 2, -1,-1.7830668225109878,1.1941625790717816
1503610392119,-0.635,-0.449,+0.341,+0.529,+0.931,-0.044,-0.321,-5.812,+5.250,+5.625,5, -3, -2, -4, -4, -1, 3, 9,-1.7819583672901997,1.1978751871296327
1503610392134,-0.634,-0.449,+0.341,+0.529,+0.958,-0.039,-0.312,-6.688,+3.875,+6.375,8, 3, 10, 17, 9, 3, 2, -6,-1.7796955550840838,1.1975476471842377
1503610392157,-0.633,-0.449,+0.341,+0.530,+0.951,-0.034,-0.325,-5.125,+0.375,+5.188,3, 5, -1, 0, -3, -1, -2, -2,-1.7771694220075733,1.197468780686793
1503610392178,-0.633,-0.448,+0.341,+0.531,+0.948,-0.040,-0.312,-3.688,-5.375,+3.812,-5, -1, -3, 0, 0, 2, -1, 1,-1.775291170010021,1.195583089381276
1503610392196,-0.633,-0.448,+0.340,+0.532,+0.930,-0.044,-0.310,-4.812,-4.312,+3.438,-7, -9, -1, 2, 1, -1, -3, -11,-1.775215954278353,1.194174360895036
1503610392224,-0.633,-0.448,+0.341,+0.533,+0.923,-0.043,-0.314,-4.375,-0.375,+3.000,2, -16, -18, -4, -2, 0, 1, 3,-1.774777538980574,1.1960829227622685
1503610392232,-0.632,-0.447,+0.341,+0.533,+0.935,-0.048,-0.320,-4.938,+0.625,+1.938,-8, 17, 11, 2, 1, 1, 4, -6,-1.7708953174546165,1.1936233884280905
1503610392258,-0.632,-0.447,+0.341,+0.533,+0.938,-0.044,-0.341,-4.375,+1.562,+1.250,1, -9, -9, -4, -2, -4, -4, -2,-1.7708953174546165,1.1936233884280905
1503610392276,-0.632,-0.447,+0.341,+0.534,+0.951,-0.045,-0.332,-5.312,-1.938,+1.688,-2, -13, -5, -3, -1, -3, -5, -12,-1.7706440083711366,1.193874728496672
1503610392292,-0.632,-0.446,+0.341,+0.535,+0.951,-0.030,-0.321,-5.562,-4.938,+2.062,6, -14, -8, -1, 0, 1, -3, 14,-1.7687779137138073,1.1919988885760775
1503610392322,-0.632,-0.445,+0.341,+0.535,+0.934,-0.032,-0.312,-5.062,-5.562,+1.188,-18, 1, 2, -4, -1, -2, -1, -8,-1.7671631345545942,1.189873556143298
1503610392336,-0.632,-0.444,+0.341,+0.536,+0.930,-0.038,-0.345,-5.812,-3.188,+2.125,-4, 5, -1, 1, -4, -2, -4, -21,-1.765304176502794,1.188004896601995
1503610392355,-0.631,-0.444,+0.341,+0.537,+0.924,-0.041,-0.323,-5.312,-1.250,+1.875,-1, 1, 8, 2, 1, -2, 4, 12,-1.7627861985173876,1.1879278673338538
1503610392374,-0.631,-0.444,+0.342,+0.537,+0.941,-0.035,-0.304,-4.625,+1.875,+1.375,6, 8, 9, 8, 4, 1, 0, -1,-1.762616710531797,1.1895972421761465
1503610392396,-0.630,-0.444,+0.343,+0.537,+0.963,-0.041,-0.304,-6.062,+4.750,-0.375,1, 13, 3, -2, 5, 2, 2, 2,-1.76017414279797,1.1909393955918524
1503610392411,-0.629,-0.444,+0.344,+0.537,+0.952,-0.043,-0.329,-6.500,+4.062,+0.312,-2, -8, -11, -7, -7, -2, -1, 10,-1.7577322948614091,1.192286171756463
1503610392433,-0.630,-0.443,+0.344,+0.537,+0.954,-0.037,-0.324,-4.938,-2.562,-1.562,-13, -16, -2, -2, -4, 0, 4, -12,-1.7583923017353704,1.1904985060678022
1503610392456,-0.630,-0.442,+0.344,+0.537,+0.966,-0.040,-0.317,-4.625,-7.000,-4.312,7, -5, -8, 1, -1, 0, 1, 12,-1.756778316387895,1.1883840848651979
1503610392471,-0.631,-0.441,+0.344,+0.538,+0.964,-0.044,-0.312,-4.750,-8.125,-2.312,5, -2, 0, 1, -1, 0, -1, -13,-1.7572166831301144,1.1868604862741317
1503610392494,-0.631,-0.440,+0.344,+0.539,+0.943,-0.044,-0.316,-6.062,-7.562,+2.188,24, 14, 7, 0, -1, 0, 1, 32,-1.7553786837381373,1.185010977479488
1503610392522,-0.631,-0.439,+0.344,+0.540,+0.937,-0.037,-0.329,-7.312,-6.125,+3.062,-11, 9, -1, -6, -3, -3, -3, -7,-1.7535455023332522,1.183165658454075
1503610392538,-0.630,-0.438,+0.344,+0.541,+0.954,-0.042,-0.337,-6.500,-5.938,+2.938,15, 8, -1, 2, 1, 1, -1, 1,-1.749428482677011,1.1809915924614809
1503610392553,-0.630,-0.437,+0.343,+0.542,+0.957,-0.050,-0.335,-7.312,-6.875,+4.750,-18, 1, 11, 2, -1, -1, -6, -24,-1.7477571344277063,1.1774680416173382
1503610392576,-0.630,-0.436,+0.342,+0.544,+0.958,-0.049,-0.339,-7.938,-10.875,+8.688,-9, 15, 12, 1, 2, -1, 0, 4,-1.7458670351066485,1.1742126295549453
1503610392598,-0.629,-0.435,+0.341,+0.547,+0.944,-0.047,-0.346,-7.062,-13.062,+11.812,-5, -20, -13, -3, -1, -1, -2, -13,-1.7414719621259527,1.1708902055102306
1503610392613,-0.628,-0.434,+0.340,+0.549,+0.930,-0.053,-0.355,-6.812,-10.750,+11.750,9, -9, -11, -4, 1, 0, 4, 13,-1.7372977734015829,1.1673056802813204
1503610392636,-0.628,-0.433,+0.338,+0.551,+0.927,-0.055,-0.353,-6.438,-7.562,+12.625,6, -3, -9, -1, -4, -1, -1, -1,-1.7355682131109298,1.1623845053894661
1503610392660,-0.626,-0.434,+0.337,+0.554,+0.946,-0.068,-0.346,-4.812,-4.125,+18.938,12, 18, 13, 1, 0, -2, -4, -5,-1.732104443668297,1.1629123584821892
1503610392674,-0.623,-0.435,+0.335,+0.557,+0.959,-0.079,-0.365,-3.125,-1.625,+25.062,6, -5, -10, -3, -4, -2, -1, 14,-1.7265141140206075,1.161416370269703
1503610392696,-0.621,-0.436,+0.333,+0.560,+0.959,-0.083,-0.365,-2.125,-4.062,+26.562,-18, -4, 4, 0, 1, -1, -2, -4,-1.723245191702965,1.1602703960286451
1503610392720,-0.619,-0.437,+0.330,+0.563,+0.955,-0.083,-0.359,+1.375,-9.375,+27.312,-9, -2, -3, -6, 0, 2, 1, -1,-1.720130772629975,1.1574613433793308
1503610392734,-0.617,-0.438,+0.326,+0.567,+0.939,-0.097,-0.363,+4.438,-10.688,+29.750,-19, -13, -9, 3, 0, 1, -4, -11,-1.7169831405450402,1.1532719321656655
1503610392756,-0.615,-0.439,+0.322,+0.570,+0.934,-0.107,-0.368,+5.062,-7.625,+32.250,3, -10, -3, -3, -3, -3, -3, -19,-1.7140347564922425,1.1488435405322492
1503610392778,-0.613,-0.441,+0.318,+0.573,+0.928,-0.113,-0.369,+6.750,-4.875,+34.438,-18, -5, 5, 9, 0, -1, 4, 10,-1.7127682961086657,1.1465671656007268
1503610392796,-0.610,-0.444,+0.314,+0.576,+0.918,-0.112,-0.347,+7.188,-3.938,+34.812,14, 5, -4, -4, -3, 0, -1, 1,-1.7109459994025045,1.1461006906510198
1503610392816,-0.608,-0.446,+0.311,+0.579,+0.914,-0.121,-0.358,+7.875,-2.375,+33.750,-9, -2, 1, -2, -2, -3, -2, -3,-1.7096457954891016,1.1455374915312169
1503610392838,-0.604,-0.449,+0.307,+0.582,+0.911,-0.143,-0.365,+8.375,+2.875,+35.188,5, 18, 5, -1, 0, -2, -3, -9,-1.7056912329624183,1.1447886696838745
1503610392855,-0.601,-0.453,+0.304,+0.584,+0.938,-0.147,-0.367,+8.312,+5.875,+36.062,15, -3, -13, 0, 2, 2, -2, -8,-1.7058612326711586,1.1479979605572688
1503610392876,-0.598,-0.456,+0.301,+0.587,+0.940,-0.144,-0.357,+9.250,+3.938,+34.812,21, 4, -13, -16, -5, -1, 3, 14,-1.7042245494405308,1.1493418503563708
1503610392898,-0.595,-0.458,+0.298,+0.589,+0.945,-0.149,-0.348,+10.375,-1.938,+34.125,-18, -22, -12, -10, -7, -6, -6, -15,-1.7010545675197444,1.1482810083919937
1503610392913,-0.593,-0.461,+0.294,+0.592,+0.937,-0.172,-0.347,+10.875,-5.188,+33.188,-1, -5, 22, 10, 1, 1, 1, 15,-1.701916632377053,1.148493535237961
1503610392936,-0.591,-0.463,+0.290,+0.594,+0.917,-0.185,-0.349,+10.125,-3.000,+31.562,-2, 9, 4, 1, 3, 0, 2, 2,-1.7012015607008109,1.1463039757888758
1503610392960,-0.588,-0.466,+0.287,+0.596,+0.900,-0.181,-0.349,+10.500,+1.875,+31.812,14, -5, -2, 2, -1, -1, 0, 10,-1.6999805449051575,1.147572496494286
1503610392973,-0.585,-0.469,+0.284,+0.598,+0.903,-0.186,-0.360,+11.875,+5.250,+31.938,21, 4, 6, 4, 0, 1, -2, 0,-1.698834582522473,1.1488894535245762
1503610392997,-0.582,-0.472,+0.281,+0.599,+0.920,-0.208,-0.358,+13.062,+8.125,+30.812,-3, 5, 2, 2, 2, 0, 0, -3,-1.6979159769293144,1.1500191951224146
1503610393019,-0.579,-0.476,+0.278,+0.600,+0.924,-0.225,-0.357,+13.000,+9.000,+30.375,-4, 3, 1, 0, -1, -3, -1, -12,-1.6989485757112404,1.1534859333582799
1503610397061,-0.509,-0.379,+0.389,+0.668,+0.900,-0.121,-0.357,+0.000,-8.062,+5.312,-16, -7, -10, -9, -4, 1, 0, 5,-1.3738162346300373,1.1455670317327333
1503610397076,-0.510,-0.378,+0.388,+0.668,+0.891,-0.131,-0.348,-0.188,-11.688,-3.062,0, 4, 1, 0, -2, 0, -3, -6,-1.374294308891557,1.1420917153667849
1503610397098,-0.511,-0.377,+0.388,+0.668,+0.879,-0.117,-0.324,-4.250,-5.938,-10.812,5, 13, -9, 1, 1, -2, -1, -9,-1.3749290492568902,1.1405992134712204
1503610397121,-0.513,-0.376,+0.390,+0.666,+0.855,-0.108,-0.328,-5.688,+4.875,-17.750,4, -35, -11, -4, 1, 0, 0, -2,-1.3777457293439968,1.1427342576194834
1503610397136,-0.513,-0.376,+0.394,+0.664,+0.857,-0.084,-0.349,-8.062,+22.312,-17.250,4, 13, 19, 5, 4, 1, 4, 10,-1.377929874510814,1.1500280026777474
1503610397160,-0.512,-0.377,+0.400,+0.660,+0.900,-0.050,-0.361,-9.625,+39.250,-15.125,-3, -1, 3, 1, 0, 0, 1, 2,-1.37737227080289,1.1622067430162684
1503610397185,-0.511,-0.378,+0.406,+0.657,+0.938,-0.016,-0.380,-6.125,+37.562,-13.750,-8, -3, 9, 2, 1, 2, -3, -9,-1.3770278591482332,1.1747922821629586
1503610397197,-0.511,-0.379,+0.410,+0.654,+0.963,-0.028,-0.374,+0.250,+24.562,-13.438,2, -5, -16, -3, -1, -2, 1, 1,-1.3786673984958242,1.1837078122623064
1503610397219,-0.513,-0.379,+0.411,+0.651,+0.984,-0.066,-0.346,+4.125,+11.562,-13.375,-13, 8, 3, -1, -2, -1, -4, -10,-1.3827566715393358,1.185368236870758
1503610397241,-0.513,-0.380,+0.412,+0.650,+0.985,-0.083,-0.331,+3.562,+5.812,-6.875,2, 8, 7, 4, 5, 1, 2, 8,-1.3843561627174585,1.1888748977412795
1503610397263,-0.513,-0.381,+0.412,+0.650,+0.964,-0.084,-0.329,+1.688,+4.438,+1.062,14, 7, -1, -3, -4, -3, -2, 3,-1.3860081074986792,1.1906737267974967
1503610397278,-0.513,-0.382,+0.412,+0.649,+0.933,-0.072,-0.334,+2.688,+6.625,+3.250,1, 5, 7, 3, 4, 0, -2, -4,-1.3874748940783093,1.1921697181126054
1503610397301,-0.512,-0.384,+0.412,+0.648,+0.931,-0.091,-0.324,+7.562,+11.188,+0.625,3, 1, -10, -4, -7, -1, -1, 4,-1.3883520996958498,1.195196898135621
1503610397318,-0.512,-0.387,+0.413,+0.646,+0.968,-0.128,-0.313,+9.875,+14.500,+1.125,-4, 10, 8, 7, 2, -1, 0, -1,-1.3931337269319162,1.2020530434751164
1503610397338,-0.510,-0.390,+0.413,+0.646,+1.003,-0.126,-0.291,+6.438,+12.875,+5.875,-9, -11, -9, -6, -6, -2, 0, -3,-1.3936817938098838,1.2069631959117735
1503610397361,-0.509,-0.392,+0.413,+0.646,+1.016,-0.106,-0.276,+2.750,+5.750,+10.625,-15, -9, 10, 8, 4, 2, 0, -10,-1.3948218022928225,1.2103445512548392
1503610397376,-0.508,-0.393,+0.412,+0.646,+0.998,-0.100,-0.277,+3.375,-3.875,+9.188,2, -7, -4, -4, -1, -1, 0, 9,-1.394142838789309,1.2098939132093638
1503610397398,-0.509,-0.394,+0.410,+0.647,+0.968,-0.106,-0.277,+4.688,-13.375,+4.125,10, -16, 1, 0, -1, -2, 0, -7,-1.3979816611198748,1.2082986855367668
1503610397421,-0.510,-0.393,+0.408,+0.648,+0.947,-0.096,-0.280,+1.375,-16.812,+2.500,0, -6, -13, -6, -6, -1, -4, -3,-1.3984269340283833,1.203037167294105
1503610397435,-0.510,-0.392,+0.406,+0.649,+0.926,-0.081,-0.295,-2.688,-11.438,+6.000,10, -3, 6, -1, 1, 3, 4, 2,-1.3966379139500478,1.1975015765920705
1503610397458,-0.509,-0.392,+0.405,+0.651,+0.910,-0.067,-0.322,-3.438,-7.812,+9.500,12, 47, 6, 2, 0, 1, -1, 6,-1.3946139683396002,1.195815278852293
1503610397481,-0.508,-0.391,+0.404,+0.652,+0.920,-0.065,-0.330,-2.375,-5.438,+10.250,-20, -14, 9, 1, 0, -1, -2, -22,-1.3907188694879358,1.1919915999531314
1503610397496,-0.508,-0.391,+0.402,+0.653,+0.930,-0.075,-0.339,-0.500,-7.000,+10.125,-10, 3, 1, -2, -1, -3, -3, 1,-1.390620117245072,1.1883072870583506
1503610397519,-0.508,-0.391,+0.401,+0.655,+0.943,-0.080,-0.333,-0.812,-10.062,+8.312,-8, 3, -10, -4, -2, -2, -3, 2,-1.3908452169392926,1.1869216054920029
1503610397541,-0.508,-0.390,+0.399,+0.656,+0.943,-0.076,-0.336,-1.500,-11.875,+9.000,2, -11, -5, 0, 0, 0, 3, 7,-1.3890569569052031,1.1814110257774832
1503610397556,-0.508,-0.389,+0.397,+0.658,+0.940,-0.076,-0.345,-0.938,-12.750,+11.438,25, 7, -4, -4, -1, 0, -1, 0,-1.3874569028370756,1.176214139946647
1503610397578,-0.508,-0.389,+0.395,+0.660,+0.927,-0.078,-0.354,+0.125,-14.188,+12.812,-28, -22, 1, 2, 2, 0, 0, -10,-1.3875441623260232,1.172866124716274
1503610397601,-0.508,-0.388,+0.392,+0.662,+0.924,-0.097,-0.341,+1.188,-19.250,+10.125,10, 27, 3, 0, 1, 0, -1, -6,-1.3858074073419244,1.1657142471643427
1503610397623,-0.509,-0.387,+0.389,+0.663,+0.936,-0.109,-0.334,-0.688,-19.250,+6.500,17, -2, -2, -1, -3, 1, 0, 4,-1.3861450200533594,1.158578489867694
1503610397638,-0.509,-0.386,+0.387,+0.665,+0.920,-0.112,-0.349,-0.750,-15.500,+5.750,-1, 0, -1, 2, 0, -1, 1, 9,-1.3845615521900474,1.1534312024570104
1503610397662,-0.510,-0.385,+0.385,+0.666,+0.895,-0.122,-0.354,-0.188,-13.125,+2.938,9, 7, -8, -5, -3, 0, 0, 3,-1.385059201221459,1.148295110034084
1503610397683,-0.510,-0.384,+0.384,+0.667,+0.882,-0.118,-0.336,-3.062,-11.625,-2.812,-10, -21, -5, -1, -2, 0, 2, 4,-1.3834400491241488,1.144814480265498
1503610397698,-0.511,-0.383,+0.385,+0.667,+0.866,-0.108,-0.352,-5.562,-3.750,-7.062,-17, 10, 7, 2, -1, -2, 3, 0,-1.38419189384923,1.1452672807071471
1503610397722,-0.512,-0.382,+0.387,+0.665,+0.848,-0.112,-0.344,-6.938,+9.438,-12.750,2, -30, -17, -13, -4, -2, -2, 6,-1.3847103211970255,1.1470533013992177
1503610397744,-0.512,-0.382,+0.392,+0.662,+0.847,-0.104,-0.318,-9.312,+22.688,-20.938,-14, 12, 23, 10, 3, 0, 0, -7,-1.3848494741672954,1.1559704943737246
1503610397758,-0.512,-0.382,+0.398,+0.659,+0.884,-0.091,-0.304,-12.875,+33.312,-25.625,-9, -5, -5, -4, -2, -3, -3, -7,-1.3851301293910807,1.1669314177605683
1503610397781,-0.511,-0.383,+0.406,+0.654,+0.948,-0.072,-0.314,-15.312,+45.125,-23.500,-8, -2, -4, -2, -3, -1, -7, -19,-1.3847131373833927,1.1828730157322733
1503610397803,-0.509,-0.383,+0.414,+0.650,+0.971,-0.014,-0.362,-15.688,+49.812,-20.188,15, -25, -20, -8, -4, -3, -4, 3,-1.3805867573901862,1.1971894495624302
1503610397824,-0.509,-0.383,+0.420,+0.647,+0.982,+0.019,-0.359,-9.625,+30.188,-16.938,17, 7, -2, 0, -3, -1, -2, -2,-1.380878786947251,1.2084548034392388
1503610397841,-0.510,-0.382,+0.422,+0.645,+1.034,-0.026,-0.333,-1.750,+4.500,-14.375,9, 5, -2, -1, 1, 0, 2, -10,-1.381367601774439,1.2104060732069999
1503610397863,-0.511,-0.381,+0.420,+0.646,+1.061,-0.092,-0.308,-2.625,-16.500,-1.500,2, 5, 9, 2, -2, 0, -1, 4,-1.381864815776773,1.2051113403325868
1503610397878,-0.511,-0.379,+0.417,+0.649,+1.001,-0.116,-0.336,-6.000,-28.312,+11.875,-2, 29, 29, 8, 4, 0, -1, -9,-1.3787049102353115,1.1963402397188831
1503610397900,-0.511,-0.376,+0.413,+0.653,+0.929,-0.103,-0.322,-8.312,-33.125,+11.312,4, -1, -3, 1, 2, -1, -1, 2,-1.3739734635679224,1.1840987643363428
1503610397916,-0.511,-0.374,+0.410,+0.656,+0.925,-0.087,-0.303,-8.688,-23.000,+7.438,1, 9, -4, -5, -2, -3, 0, 9,-1.370859642821752,1.1754006715780203
1503610402747,-0.519,-0.324,+0.410,+0.676,+0.927,+0.001,-0.390,-9.562,-6.938,+7.250,-10, -5, -5, -2, -1, -1, 2, 5,-1.316611939834753,1.0995143493679438
1503610402761,-0.518,-0.323,+0.410,+0.677,+0.925,+0.005,-0.395,-8.938,-8.188,+9.438,-9, -16, 2, -1, -1, -2, -1, -1,-1.313063786975118,1.0979682346885828
1503610402783,-0.517,-0.323,+0.409,+0.679,+0.929,-0.005,-0.403,-9.375,-7.375,+9.812,-8, -1, -2, 0, 0, -1, 1, 0,-1.3110791553444798,1.096343927298686
1503610402806,-0.515,-0.322,+0.409,+0.681,+0.916,-0.015,-0.414,-9.188,-3.188,+9.938,-4, 0, 4, -2, -2, -1, -4, -6,-1.3054632544189182,1.0948827588842747
1503610402823,-0.514,-0.322,+0.409,+0.682,+0.924,-0.018,-0.425,-7.812,-1.188,+12.688,19, 14, 6, 4, 2, 1, 2, 4,-1.3033897572304944,1.094962478813148
1503610402843,-0.512,-0.322,+0.409,+0.684,+0.919,-0.003,-0.432,-5.500,+0.062,+15.750,-15, -11, -10, -3, 1, 1, -8, -25,-1.2992538746072813,1.0951218447092368
1503610402865,-0.510,-0.323,+0.408,+0.685,+0.919,-0.008,-0.428,-2.625,-0.688,+16.500,10, 5, -3, -3, -11, -5, 0, 8,-1.2961434524632287,1.0944403317864675
1503610402880,-0.508,-0.324,+0.407,+0.687,+0.916,-0.019,-0.417,-1.750,-2.250,+18.250,5, 0, 2, -2, 1, 1, -1, -2,-1.2933230484929328,1.0941334397292422
1503610402903,-0.505,-0.326,+0.405,+0.689,+0.921,-0.026,-0.388,-1.500,-1.938,+24.250,-5, 2, 8, -3, 3, 0, -5, -16,-1.2894880628781857,1.09307416799267
1503610402926,-0.502,-0.328,+0.404,+0.691,+0.922,-0.027,-0.427,-1.062,+0.500,+30.062,1, -12, -17, -8, -10, -4, -2, -5,-1.2858707626477777,1.0940947693148841
1503610402940,-0.498,-0.330,+0.402,+0.694,+0.915,-0.042,-0.421,+0.875,+0.250,+32.812,-7, -4, 8, 7, -1, 0, 2, 4,-1.2800793622053326,1.093115708156015
1503610402964,-0.494,-0.333,+0.399,+0.697,+0.923,-0.072,-0.432,+4.125,+0.500,+34.875,-2, -3, -5, -5, -2, -5, -3, -2,-1.2756532183973062,1.0917121436107537
1503610402985,-0.490,-0.336,+0.397,+0.699,+0.912,-0.083,-0.416,+5.000,+0.438,+36.125,-4, -3, 2, -1, 2, 0, -2, -8,-1.2711986084203488,1.0920239173684994
1503610403000,-0.486,-0.339,+0.394,+0.702,+0.888,-0.079,-0.420,+4.938,+1.125,+36.438,-9, -8, -10, -2, 2, 1, 2, -4,-1.26689973521768,1.0906616232292208
1503610403025,-0.483,-0.343,+0.393,+0.704,+0.878,-0.087,-0.398,+4.875,+3.875,+33.812,-3, 1, 5, 2, 0, -1, -2, 3,-1.266612464567812,1.0950486489931388
1503610403045,-0.479,-0.346,+0.391,+0.706,+0.878,-0.100,-0.401,+4.500,+6.188,+30.188,0, -13, -8, -2, 1, 2, 4, 8,-1.2623664544290671,1.095424292107689
1503610403061,-0.476,-0.348,+0.390,+0.707,+0.877,-0.112,-0.398,+4.000,+4.000,+25.188,-1, 2, 1, -4, -2, 0, 1, 4,-1.2587913270262296,1.0961411159119336
1503610403083,-0.474,-0.350,+0.388,+0.708,+0.859,-0.117,-0.401,+1.500,+0.000,+17.562,-1, -2, 2, 0, -2, 0, -1, -5,-1.2572906398141963,1.0951402422370522
1503610403106,-0.473,-0.350,+0.388,+0.709,+0.849,-0.106,-0.397,-1.500,-0.500,+10.688,23, -2, -7, 1, 0, -2, -2, 1,-1.2553267874216438,1.0951753493377934
1503610403120,-0.472,-0.351,+0.388,+0.710,+0.827,-0.106,-0.395,-2.500,+5.625,+6.625,11, -10, -9, 2, 1, -1, -2, 1,-1.2549534590096802,1.0969033428618782
1503610403143,-0.472,-0.351,+0.389,+0.709,+0.826,-0.116,-0.393,-2.375,+11.562,-4.062,-5, 9, 16, 9, 2, 2, 0, -2,-1.2548776404275377,1.098593536165309
1503610403173,-0.473,-0.351,+0.392,+0.707,+0.859,-0.117,-0.384,-2.500,+13.438,-15.312,4, 28, 35, 4, 4, 4, 2, -1,-1.2571987822478627,1.1043518916464508
1503610403181,-0.475,-0.350,+0.395,+0.705,+0.882,-0.121,-0.377,-3.938,+8.062,-22.812,4, 12, -13, -1, -3, -6, -6, -2,-1.2601829411795435,1.1087464840605434
1503610403203,-0.478,-0.348,+0.397,+0.702,+0.901,-0.133,-0.376,-5.188,+4.188,-28.312,-8, -9, -6, -6, -3, -1, -1, -4,-1.263346619562007,1.1093658115453948
1503610403226,-0.480,-0.346,+0.400,+0.700,+0.897,-0.110,-0.396,-5.812,+5.125,-29.312,-9, -4, -5, -2, -3, -2, 0, 1,-1.2647766288481177,1.112103533401015
1503610403240,-0.483,-0.344,+0.402,+0.697,+0.892,-0.079,-0.409,-4.688,+6.750,-28.000,-9, -1, 12, 10, 4, 1, -1, -4,-1.2679947827712201,1.1127437965104172
1503610403271,-0.486,-0.342,+0.405,+0.695,+0.909,-0.070,-0.405,-2.000,+6.375,-27.188,-11, -50, -55, -30, -12, -6, -5, -5,-1.2717368406133513,1.1158214455113884
1503610403285,-0.489,-0.342,+0.407,+0.692,+0.927,-0.087,-0.403,+1.312,+6.875,-26.500,2, -3, -3, 4, 1, -2, -1, -2,-1.2781097835243056,1.1197992444015525
1503610403301,-0.491,-0.341,+0.408,+0.690,+0.938,-0.104,-0.399,+1.625,+7.125,-22.125,-6, -21, -6, -3, -2, -1, 1, 2,-1.2807556763448824,1.120097740083269
1503610403331,-0.493,-0.341,+0.410,+0.688,+0.932,-0.091,-0.393,-0.312,+4.312,-15.625,-11, 8, 7, 0, -4, -2, -1, -1,-1.285149576400336,1.1241317757592033
1503610403353,-0.494,-0.340,+0.411,+0.687,+0.955,-0.067,-0.388,-1.000,+3.250,-13.750,4, 7, 1, 1, 0, 1, 1, 3,-1.2858076387092559,1.1244919966266018
1503610403361,-0.496,-0.340,+0.411,+0.685,+0.962,-0.048,-0.388,+2.000,-0.500,-13.625,1, 9, 4, 0, -3, -2, -5, -9,-1.2898302041434653,1.1243691883111275
1503610403383,-0.498,-0.340,+0.411,+0.684,+0.939,-0.068,-0.369,+4.062,-3.062,-11.062,-2, 1, -1, -5, 0, -1, -1, 0,-1.29413940344445,1.1246017788578957
1503610403405,-0.499,-0.339,+0.411,+0.683,+0.917,-0.075,-0.372,+2.000,-2.750,-9.250,31, 38, -5, -5, -1, 1, 3, 8,-1.2946286823135857,1.122881719750366
1503610403421,-0.500,-0.339,+0.412,+0.682,+0.920,-0.047,-0.379,-0.062,+6.438,-9.250,-11, -6, 8, 11, 6, 1, -2, -3,-1.2968387920267535,1.1248965152916344
1503610403443,-0.501,-0.339,+0.414,+0.680,+0.929,-0.017,-0.374,+0.375,+8.000,-9.688,4, 14, 15, 10, 6, 3, 4, 5,-1.2989625514083665,1.1286367915822606
1503610403466,-0.502,-0.339,+0.415,+0.679,+0.953,-0.009,-0.373,+2.062,+1.625,-9.000,-12, -19, -5, -4, -7, -4, 0, -2,-1.3011743232756547,1.1306539422472257
1503610403481,-0.503,-0.339,+0.415,+0.678,+0.948,-0.035,-0.373,+2.562,-4.750,-9.062,2, -1, -3, 2, 3, 0, -3, -3,-1.3032075197175104,1.1305891161368353
1503610403503,-0.505,-0.338,+0.414,+0.678,+0.925,-0.049,-0.382,+0.750,-9.688,-6.938,-8, -6, -5, -4, -3, -1, 1, 0,-1.3061106882791471,1.127431955935524
1503610403529,-0.506,-0.337,+0.413,+0.678,+0.905,-0.036,-0.400,-1.250,-8.000,-4.875,1, 4, 8, 3, 3, 0, -3, -4,-1.3067216206705694,1.1239896604966158
1503610403541,-0.507,-0.336,+0.413,+0.678,+0.909,-0.019,-0.390,-1.562,-5.062,-5.000,-5, -5, -3, 2, 0, 2, 4, 5,-1.3075168097856833,1.1226281139783285
1503610403563,-0.508,-0.335,+0.412,+0.678,+0.919,-0.017,-0.375,-0.688,-5.500,-2.125,5, 23, 27, 3, 0, 1, 4, 1,-1.3081451993664706,1.1191922189315455
1503610403585,-0.508,-0.335,+0.412,+0.679,+0.939,-0.038,-0.379,+0.125,-5.500,+2.250,-15, -27, -22, -8, -3, -3, -7, -15,-1.308408959658366,1.1195518398950453
1503610403601,-0.507,-0.335,+0.411,+0.679,+0.928,-0.046,-0.396,-1.438,-2.375,+3.000,1, -14, -2, 4, 4, 4, 5, 6,-1.3059191789466924,1.117183467045561
1503610403623,-0.507,-0.335,+0.411,+0.680,+0.930,-0.026,-0.396,-0.812,-2.812,+4.438,-16, -7, 4, 0, -1, -1, -4, 1,-1.3061847183987754,1.1175438318687196
1503610403645,-0.507,-0.335,+0.410,+0.680,+0.942,-0.024,-0.397,+0.625,-5.125,+8.125,-4, 15, 2, -3, -4, -4, -4, -10,-1.3060093216462894,1.1154701830587943
1503610403662,-0.506,-0.336,+0.408,+0.681,+0.930,-0.029,-0.398,+2.375,-5.125,+9.188,-7, -2, -7, -4, -4, -3, -5, -33,-1.3051195094390227,1.1130463462328137
1503610403683,-0.506,-0.337,+0.406,+0.683,+0.924,-0.046,-0.405,+3.250,-7.938,+12.500,2, 3, 3, 0, 2, 1, 2, -17,-1.3068109360996432,1.1112928535354318
1503610403705,-0.505,-0.337,+0.404,+0.684,+0.926,-0.051,-0.390,+2.312,-10.562,+14.812,-5, 8, -5, 2, 4, -1, -4, -8,-1.304410392983069,1.1072302402390102
1503610403722,-0.503,-0.338,+0.402,+0.686,+0.931,-0.052,-0.389,+3.188,-9.875,+17.312,-6, -8, 6, 4, 1, 1, 5, 21,-1.3014828555340299,1.104891891083318
1503610403743,-0.502,-0.339,+0.399,+0.688,+0.917,-0.063,-0.406,+3.812,-9.062,+18.875,-11, -10, -13, -6, -4, -3, -5, -16,-1.3006904265331207,1.1008130488681411
1503610403769,-0.501,-0.340,+0.397,+0.690,+0.906,-0.070,-0.411,+3.562,-7.312,+17.875,0, 10, -3, -4, -1, -2, -1, -9,-1.3000821180666917,1.0987998207962246
1503610403781,-0.499,-0.342,+0.395,+0.691,+0.915,-0.063,-0.422,+4.875,-3.250,+17.812,0, 17, 16, 6, 1, 1, -1, 1,-1.2984383798169843,1.0977980290726326
1503610403805,-0.498,-0.344,+0.393,+0.692,+0.914,-0.061,-0.417,+6.562,-0.188,+17.688,-1, -1, 1, 2, 0, -2, -1, -6,-1.2991143756027757,1.0971270645540063
1503610403825,-0.496,-0.346,+0.391,+0.693,+0.913,-0.073,-0.410,+7.312,-1.750,+19.688,15, 10, -4, 1, -2, -1, 0, 3,-1.2975087280925297,1.0961592010126315
1503610403841,-0.495,-0.348,+0.389,+0.694,+0.918,-0.094,-0.396,+8.875,-2.875,+19.688,-10, -5, 14, 4, 3, 3, 2, -4,-1.2982166826638728,1.0955272210500497
1503610403863,-0.493,-0.351,+0.387,+0.696,+0.919,-0.116,-0.412,+9.750,-2.812,+19.500,-20, -6, -9, -3, -2, -1, -3, -28,-1.2984851246359024,1.096657296513381
1503610403885,-0.492,-0.353,+0.384,+0.697,+0.912,-0.104,-0.420,+10.500,-4.250,+20.625,9, 2, 7, 9, 7, 2, 2, 3,-1.299040570954261,1.0940518413719236
1503610403901,-0.491,-0.355,+0.381,+0.698,+0.896,-0.103,-0.425,+11.875,-3.750,+21.812,-8, -2, -1, -1, -3, -1, -3, -1,-1.2996091868792456,1.0914779552570546
1503610403923,-0.489,-0.358,+0.379,+0.699,+0.890,-0.124,-0.416,+14.125,-1.250,+20.938,-2, -4, -8, -6, -2, -3, -1, -4,-1.299697723178015,1.0923441891024133
1503610403945,-0.488,-0.362,+0.376,+0.700,+0.901,-0.151,-0.409,+14.375,+1.500,+22.312,10, 2, -2, -4, -4, -1, -4, -8,-1.3035179410215734,1.09332849183758
1503610403963,-0.485,-0.365,+0.373,+0.701,+0.912,-0.156,-0.415,+13.812,+0.062,+25.875,-3, -1, -7, -4, -3, 0, -1, -3,-1.3012311266015149,1.0919467733747878
1503610403983,-0.483,-0.369,+0.370,+0.702,+0.913,-0.153,-0.417,+14.438,-0.625,+25.125,-2, -3, 7, 7, 4, 2, 3, 7,-1.302897176039613,1.0927228534723077
1503610404006,-0.482,-0.372,+0.367,+0.703,+0.887,-0.162,-0.416,+16.312,-1.438,+23.188,-5, -1, 3, -5, -1, 0, 1, 4,-1.3052382489540473,1.092126294495858
1503610404021,-0.480,-0.376,+0.364,+0.704,+0.886,-0.176,-0.407,+18.375,-1.562,+24.625,-5, -3, -9, -3, -2, -1, 0, -1,-1.3070210456979314,1.0930354315657331
1503610404043,-0.479,-0.380,+0.360,+0.705,+0.883,-0.200,-0.408,+18.438,-2.000,+25.188,2, 0, 10, 3, 1, -1, -5, -5,-1.310927988342993,1.0924090688725332
1503610404068,-0.477,-0.383,+0.357,+0.706,+0.888,-0.205,-0.406,+17.375,-1.438,+25.688,-13, -4, -5, 0, 0, 0, 1, -8,-1.311146137520844,1.0916377134652768
1503610404081,-0.475,-0.387,+0.353,+0.707,+0.886,-0.210,-0.405,+18.375,-1.000,+25.625,5, 1, 7, 2, 3, 2, 3, 4,-1.3129169471741238,1.0908120430788493
1503610404104,-0.473,-0.391,+0.350,+0.708,+0.873,-0.218,-0.396,+19.125,-1.562,+24.875,6, -8, 8, 9, 0, -2, -2, 1,-1.3149611446291636,1.0920183026044648
1503610404125,-0.472,-0.395,+0.347,+0.708,+0.878,-0.218,-0.406,+20.188,-0.625,+22.438,-4, 8, 0, -2, -3, -3, 4, 3,-1.3190770104347544,1.0933455610167688
1503610404141,-0.471,-0.399,+0.344,+0.708,+0.860,-0.222,-0.394,+20.438,+2.750,+19.812,3, -24, -12, -2, 1, 2, 7, 28,-1.3232660345710783,1.0947624981817952
1503610404163,-0.470,-0.403,+0.341,+0.708,+0.871,-0.240,-0.391,+20.312,+2.562,+17.312,-5, -2, 2, -4, -2, -2, -4, 3,-1.327529367528885,1.0962699666308033
1503610404185,-0.469,-0.406,+0.339,+0.707,+0.890,-0.251,-0.397,+18.438,+0.812,+15.938,1, 7, -10, -4, -4, -2, -3, -3,-1.330036865757519,1.0975240276092793
1503610404202,-0.468,-0.409,+0.337,+0.707,+0.885,-0.244,-0.384,+16.375,-1.812,+14.812,-3, 13, 2, -4, -2, -3, -5, -9,-1.3328222173793693,1.0991479019546286
1503610404223,-0.468,-0.411,+0.334,+0.707,+0.866,-0.236,-0.402,+16.938,-2.562,+11.875,-9, -1, 1, 6, 4, 0, -5, -18,-1.3358593737429458,1.097339418823665
1503610404245,-0.469,-0.413,+0.332,+0.707,+0.858,-0.247,-0.380,+17.688,-5.438,+7.562,3, -1, -7, -5, -1, 0, -1, -3,-1.3413481027163647,1.0978622329435839
1503610404268,-0.470,-0.416,+0.330,+0.706,+0.859,-0.261,-0.377,+17.250,-2.188,+4.875,2, 0, 0, -4, -3, -3, -5, -14,-1.348474703473329,1.1000905192526056
1503610404284,-0.470,-0.418,+0.328,+0.705,+0.856,-0.278,-0.375,+16.250,+0.750,+3.938,-2, -1, -4, -5, -1, 0, -1, 3,-1.3515678124708612,1.099988223937882
1503610404306,-0.471,-0.420,+0.327,+0.704,+0.865,-0.267,-0.378,+13.375,+3.688,+1.062,4, -3, -6, -4, -3, -3, 1, 5,-1.3571042444783925,1.1021950282411017
1503610404328,-0.472,-0.421,+0.327,+0.702,+0.879,-0.256,-0.366,+12.000,+0.562,-3.562,3, -6, -6, -2, -4, -3, 0, 1,-1.360778279358185,1.1039837523557223
1503610404343,-0.474,-0.422,+0.327,+0.700,+0.888,-0.260,-0.376,+11.375,-0.250,-7.625,-11, -9, -5, -3, -1, 0, -4, -9,-1.3666941661107181,1.1061737385393786
1503610404368,-0.475,-0.423,+0.326,+0.699,+0.905,-0.274,-0.375,+9.750,-2.625,-9.250,5, 6, 0, 2, -1, 0, 0, 4,-1.3704123023434205,1.1064111152019902
1503610404381,-0.477,-0.424,+0.326,+0.697,+0.892,-0.281,-0.378,+8.250,-0.625,-10.312,-3, -12, 8, 7, 0, 1, 5, 3,-1.3763515056748148,1.1086157850655736
1503610404404,-0.479,-0.424,+0.327,+0.695,+0.901,-0.271,-0.393,+9.438,+2.000,-11.438,-1, 17, -2, -1, -3, -1, -1, 5,-1.3806040951756502,1.110659820973915
1503610404425,-0.481,-0.426,+0.327,+0.693,+0.912,-0.269,-0.392,+11.875,+3.125,-9.688,2, -7, -10, -7, -3, -2, 1, 3,-1.3884261345106579,1.1148972834363338
1503610404441,-0.482,-0.427,+0.326,+0.692,+0.920,-0.280,-0.375,+13.562,+2.125,-5.125,-3, 2, 9, 1, 3, 0, -1, -11,-1.392185634830404,1.1151693462596155
1503610404463,-0.483,-0.429,+0.326,+0.690,+0.915,-0.297,-0.376,+13.812,+2.312,-1.000,-14, -7, -8, -6, -4, -3, -7, -21,-1.397810509134216,1.1190487833279483
1503610404485,-0.483,-0.432,+0.324,+0.689,+0.900,-0.296,-0.377,+14.438,+4.375,+2.562,11, 28, 12, 0, -1, 0, -1, 6,-1.4029846388993685,1.1212237304613932
1503610404502,-0.483,-0.435,+0.323,+0.688,+0.889,-0.294,-0.365,+15.875,+7.000,+5.375,-14, 5, 20, 11, 3, 3, 1, 8,-1.4083559746619931,1.1252934235087286
1503610404524,-0.482,-0.438,+0.322,+0.687,+0.890,-0.302,-0.358,+17.688,+8.000,+9.062,2, -1, 10, 3, 2, -2, -3, -7,-1.4115530032159307,1.1290190493193757
1503610404545,-0.481,-0.442,+0.320,+0.686,+0.891,-0.315,-0.352,+19.562,+6.062,+12.062,15, -4, -12, -7, -3, 2, 3, 7,-1.4165911004336875,1.1330693231960018
1503610404570,-0.480,-0.446,+0.318,+0.685,+0.875,-0.325,-0.357,+19.375,+5.312,+13.812,-6, -14, -16, -4, -2, -1, -3, -1,-1.4217197742626084,1.137211665117158
1503610404583,-0.479,-0.449,+0.316,+0.685,+0.863,-0.319,-0.362,+18.625,+6.438,+14.438,-3, -3, -14, -5, -2, -3, -6, -13,-1.4251162639293216,1.1395834936954827
1503610404606,-0.478,-0.453,+0.314,+0.684,+0.862,-0.311,-0.347,+18.812,+9.250,+13.938,-19, 5, 3, -1, 0, -2, -2, 8,-1.4304049423151974,1.1438902497896022
1503610404628,-0.477,-0.457,+0.313,+0.683,+0.852,-0.300,-0.340,+19.750,+10.812,+14.062,-1, -2, -12, -8, -1, -2, 0, 2,-1.4359170553424758,1.1500893035032087
1503610404644,-0.475,-0.460,+0.311,+0.682,+0.856,-0.293,-0.324,+17.812,+7.375,+15.875,-4, -6, 7, 12, 2, 0, -1, -10,-1.4371782796937076,1.1519897219744701
1503610404665,-0.474,-0.463,+0.310,+0.682,+0.846,-0.285,-0.311,+12.500,+7.688,+17.875,10, 4, 8, 9, 3, 0, -3, -8,-1.440949914881169,1.1564004432727355
1503610404688,-0.471,-0.465,+0.309,+0.682,+0.834,-0.266,-0.315,+4.000,+8.312,+17.875,3, -10, -8, -6, -4, -1, 0, 5,-1.4383580742523776,1.157844886634943
1503610404704,-0.469,-0.466,+0.310,+0.683,+0.843,-0.247,-0.333,-3.562,+10.375,+15.938,3, -5, -8, -5, -2, 1, 0, 9,-1.4363186449615306,1.1613259071376394
1503610404725,-0.467,-0.465,+0.312,+0.684,+0.856,-0.241,-0.357,-10.062,+12.125,+9.312,3, 14, -3, -5, 0, 1, 2, 7,-1.4303179196222326,1.1621746033739724
1503610404748,-0.467,-0.464,+0.314,+0.684,+0.875,-0.216,-0.350,-13.562,+5.250,+0.312,20, 2, 10, 2, -3, -1, 3, 12,-1.4285438151574656,1.1635672996299313
1503610404766,-0.469,-0.460,+0.316,+0.684,+0.894,-0.221,-0.335,-12.000,-3.875,-12.750,-8, -1, -3, 0, 1, 0, -2, 2,-1.4250220952186452,1.1591737389612289
1503610404785,-0.472,-0.457,+0.318,+0.683,+0.894,-0.263,-0.312,-11.938,-9.562,-22.562,-4, 15, 10, -1, 1, -1, -8, -38,-1.4256479113066454,1.1571570443025685
1503610404808,-0.475,-0.453,+0.321,+0.682,+0.887,-0.271,-0.310,-14.562,-10.250,-27.000,-7, -10, -5, 3, 2, 2, 0, -4,-1.42448788723159,1.154848049994645
1503610404823,-0.479,-0.449,+0.324,+0.682,+0.870,-0.278,-0.323,-17.500,-7.562,-30.125,5, -9, 10, 6, 1, 0, 3, 0,-1.4257718705867772,1.1532848471050214
1503610404846,-0.482,-0.445,+0.327,+0.681,+0.874,-0.271,-0.358,-17.000,-4.875,-31.062,-11, -5, -10, -3, -1, 0, 0, -12,-1.4248236291393201,1.1511496615510468
1503610404870,-0.485,-0.441,+0.330,+0.679,+0.904,-0.304,-0.349,-15.438,-2.000,-30.062,-11, -3, 24, 15, 4, 0, -5, -20,-1.4238280310145475,1.148817629610322
1503610404883,-0.487,-0.438,+0.333,+0.679,+0.910,-0.324,-0.359,-16.812,-0.500,-25.562,-6, -7, -12, -3, -1, -2, -3, 4,-1.4229163854094138,1.1488300660046626
1503610404906,-0.488,-0.435,+0.335,+0.678,+0.917,-0.309,-0.362,-17.625,-1.125,-22.375,5, 8, 13, 7, 5, 4, 5, 14,-1.4195624074289135,1.1464001069764798
1503610404928,-0.489,-0.433,+0.337,+0.678,+0.911,-0.303,-0.368,-15.500,+1.250,-17.125,-2, -8, -8, -6, -3, -2, -2, -6,-1.4182817209482705,1.1463536244145955
1503610408372,-0.647,-0.400,+0.315,+0.568,+0.909,-0.056,-0.440,+0.750,+4.500,-11.000,2, 4, -3, -2, -1, -1, 0, 1,-1.7287592785055204,1.0679022517247654
