Timestamp,Orientation X,Orientation Y,Orientation Z,Orientation W,Accelerometer X,Accelerometer Y,Accelerometer Z,Gyroscope X,Gyroscope Y,Gyroscope Z,EMG1,EMG2,EMG3,EMG4,EMG5,EMG6,EMG7,EMG8,Roll,Yaw
1503610324180,-0.467,-0.141,+0.256,+0.835,+0.587,+0.019,-0.794,-1.375,+0.688,+2.875,-2, -1, 0, -1, 0, 0, 0, -2,-1.019395182849157,0.5933576262019623
1503610324202,-0.467,-0.141,+0.256,+0.835,+0.592,-0.000,-0.791,-0.250,-0.562,+1.375,-1, 1, -1, -1, -1, -2, 0, 1,-1.019395182849157,0.5933576262019623
1503610324234,-0.467,-0.141,+0.256,+0.835,+0.580,+0.000,-0.804,-0.562,-0.812,+0.688,0, 0, 0, -1, -2, 0, -1, 1,-1.019395182849157,0.5933576262019623
1503610324241,-0.467,-0.141,+0.256,+0.835,+0.571,+0.007,-0.803,-1.000,-0.562,+0.562,-4, -1, -2, -3, 0, 0, -2, -4,-1.019395182849157,0.5933576262019623
1503610324262,-0.467,-0.141,+0.256,+0.835,+0.576,+0.006,-0.796,-1.250,+0.375,+0.625,2, -1, -2, 0, -1, -1, 1, 2,-1.019395182849157,0.5933576262019623
1503610324284,-0.467,-0.141,+0.256,+0.835,+0.584,+0.010,-0.792,-1.375,+0.250,+0.812,-1, 1, 0, -2, -2, -1, 1, -1,-1.019395182849157,0.5933576262019623
1503610324300,-0.467,-0.141,+0.256,+0.835,+0.590,+0.008,-0.796,-1.062,-0.125,+0.688,-7, -5, 1, -1, 0, 0, -1, -3,-1.019395182849157,0.5933576262019623
1503610324322,-0.467,-0.141,+0.256,+0.835,+0.580,+0.009,-0.790,-1.375,-0.625,+0.500,-1, -1, -1, -1, -1, -1, -2, 2,-1.019395182849157,0.5933576262019623
1503610324344,-0.467,-0.141,+0.256,+0.835,+0.578,+0.004,-0.802,-1.250,-0.312,+0.375,3, 0, 0, 0, -1, -2, 2, 1,-1.019395182849157,0.5933576262019623
1503610324366,-0.467,-0.141,+0.256,+0.835,+0.583,+0.003,-0.796,-2.000,-0.062,+0.312,1, -3, -1, 0, 0, -1, -2, -2,-1.019395182849157,0.5933576262019623
1503610324383,-0.467,-0.141,+0.256,+0.835,+0.588,+0.005,-0.799,-2.438,+0.312,+0.000,3, 0, -1, -2, 0, -1, -1, 0,-1.019395182849157,0.5933576262019623
1503610324404,-0.467,-0.140,+0.256,+0.835,+0.581,+0.012,-0.799,-2.250,-0.812,-1.500,1, 0, 0, 2, 1, -1, 0, 1,-1.0186483981005552,0.5922691035139518
1503610324420,-0.467,-0.140,+0.256,+0.834,+0.570,+0.014,-0.788,-1.750,-0.125,-1.062,-2, -4, -2, -1, -3, 0, -2, -2,-1.0181582072435758,0.5918442145123919
1503610324443,-0.467,-0.140,+0.256,+0.834,+0.587,+0.011,-0.802,-1.875,+0.750,-0.125,2, -2, -3, -2, -1, -1, -4, -4,-1.0181582072435758,0.5918442145123919
1503610324464,-0.467,-0.140,+0.256,+0.834,+0.591,+0.011,-0.791,-1.812,+0.250,-0.312,4, 1, 0, 1, 0, 1, 1, 2,-1.0181582072435758,0.5918442145123919
1503610324482,-0.467,-0.140,+0.256,+0.834,+0.574,+0.013,-0.793,-1.250,-0.812,-0.438,-6, 0, -2, -2, -1, 0, 1, 1,-1.0181582072435758,0.5918442145123919
1503610324502,-0.467,-0.140,+0.256,+0.834,+0.579,+0.006,-0.795,-1.000,-1.125,-0.375,7, 3, 0, 0, -1, -1, 0, 1,-1.0181582072435758,0.5918442145123919
1503610324524,-0.467,-0.140,+0.256,+0.834,+0.583,+0.012,-0.795,-2.125,+0.125,+0.125,-1, 2, -1, 1, 2, 1, 0, -2,-1.0181582072435758,0.5918442145123919
1503610324547,-0.468,-0.140,+0.256,+0.834,+0.584,+0.021,-0.802,-2.250,-0.250,-0.188,-7, -2, 0, 0, -2, -2, -1, -3,-1.020625817524186,0.5920766057716885
1503610324562,-0.468,-0.140,+0.256,+0.834,+0.583,+0.021,-0.788,-1.000,-0.938,+0.312,-3, 0, -2, -2, -1, 0, -1, -2,-1.020625817524186,0.5920766057716885
1503610324584,-0.468,-0.140,+0.256,+0.834,+0.570,+0.012,-0.801,-0.625,-0.875,+0.500,6, 4, -3, -4, -1, -1, -1, 3,-1.020625817524186,0.5920766057716885
1503610324606,-0.468,-0.140,+0.256,+0.834,+0.576,+0.010,-0.792,-1.000,+0.188,+0.312,-4, 0, 4, -3, -1, -2, -2, -4,-1.020625817524186,0.5920766057716885
1503610324622,-0.468,-0.140,+0.256,+0.834,+0.595,+0.015,-0.792,-1.438,+0.312,-0.750,-4, -3, -3, -1, -3, 0, -1, -4,-1.020625817524186,0.5920766057716885
1503610324646,-0.468,-0.140,+0.256,+0.834,+0.581,+0.016,-0.806,-0.938,-2.312,-0.438,-3, -6, -3, 0, -1, -1, 1, -2,-1.020625817524186,0.5920766057716885
1503610324666,-0.468,-0.140,+0.256,+0.834,+0.567,+0.005,-0.801,-0.688,+0.250,+0.062,3, -1, 1, 0, 1, 3, 0, 2,-1.020625817524186,0.5920766057716885
1503610324684,-0.468,-0.140,+0.256,+0.834,+0.575,+0.012,-0.797,-1.500,+0.688,+0.188,-4, -4, 0, -1, 0, -1, -1, 0,-1.020625817524186,0.5920766057716885
1503610324704,-0.468,-0.140,+0.256,+0.834,+0.589,+0.006,-0.797,-1.812,+0.688,-0.500,3, 1, 0, 0, -1, -1, 0, 0,-1.020625817524186,0.5920766057716885
1503610324726,-0.468,-0.139,+0.256,+0.834,+0.591,+0.012,-0.792,-2.188,-0.125,+0.188,-1, 1, -1, -1, 0, -2, 0, 2,-1.0198822462252806,0.5909883797416917
1503610324742,-0.468,-0.139,+0.256,+0.834,+0.583,+0.014,-0.795,-2.188,-1.062,+0.000,-3, -2, -2, -2, -1, -2, -2, -2,-1.0198822462252806,0.5909883797416917
1503610324764,-0.468,-0.139,+0.256,+0.834,+0.576,+0.020,-0.795,-1.812,-1.500,+0.438,-3, -2, -1, 0, 0, -1, 0, -1,-1.0198822462252806,0.5909883797416917
1503610324788,-0.468,-0.139,+0.255,+0.835,+0.571,+0.020,-0.797,-1.438,-1.250,+0.875,-4, 0, -1, -1, -1, 0, -2, -2,-1.0202265967788884,0.5894574678614677
1503610324802,-0.468,-0.139,+0.255,+0.835,+0.571,+0.013,-0.799,-0.875,-1.438,+0.750,0, 1, -2, -1, 0, 0, -1, -1,-1.0202265967788884,0.5894574678614677
1503610324824,-0.468,-0.139,+0.255,+0.835,+0.576,+0.009,-0.798,-1.062,-0.688,+0.312,-2, -2, -1, 0, 1, -2, 0, -1,-1.0202265967788884,0.5894574678614677
1503610324848,-0.468,-0.139,+0.255,+0.835,+0.577,+0.012,-0.795,-1.500,-0.688,+0.000,-2, -3, 1, 1, -1, -1, -2, -7,-1.0202265967788884,0.5894574678614677
1503610324862,-0.468,-0.139,+0.255,+0.835,+0.580,+0.021,-0.798,-1.438,-0.375,+0.500,2, -1, -3, -2, -2, 0, 0, 3,-1.0202265967788884,0.5894574678614677
1503610324884,-0.468,-0.139,+0.255,+0.835,+0.573,+0.016,-0.794,-1.312,-0.812,+0.750,0, 0, -1, -2, -2, -1, -1, -1,-1.0202265967788884,0.5894574678614677
1503610324906,-0.468,-0.139,+0.255,+0.835,+0.580,+0.016,-0.800,-0.812,-0.062,+0.562,0, -1, -1, -2, -2, -1, 0, 1,-1.0202265967788884,0.5894574678614677
1503610324922,-0.468,-0.139,+0.255,+0.835,+0.577,+0.010,-0.800,-0.688,-0.562,+0.188,-3, -1, 1, -1, 1, -2, -1, 1,-1.0202265967788884,0.5894574678614677
1503610324944,-0.468,-0.139,+0.255,+0.835,+0.575,+0.013,-0.792,-1.250,+0.188,+0.062,1, -1, -2, -1, 0, 0, -1, 1,-1.0202265967788884,0.5894574678614677
1503610324966,-0.468,-0.139,+0.255,+0.835,+0.586,+0.020,-0.791,-2.062,+0.375,+1.250,-2, -1, 0, 0, 0, 0, 0, -2,-1.0202265967788884,0.5894574678614677
1503610324990,-0.468,-0.139,+0.255,+0.835,+0.594,+0.018,-0.789,-1.562,-1.125,+1.375,3, 0, -1, -2, -2, 1, 0, 3,-1.0202265967788884,0.5894574678614677
1503610325005,-0.468,-0.138,+0.255,+0.835,+0.576,+0.013,-0.801,-1.125,-1.875,+1.250,-1, -2, -1, -2, -1, 0, 0, 0,-1.0194877319294795,0.5883714719258053
1503610325026,-0.468,-0.138,+0.255,+0.835,+0.572,+0.010,-0.796,-1.062,-1.438,+1.188,-1, -1, -1, 1, 0, 0, 0, 0,-1.0194877319294795,0.5883714719258053
1503610325042,-0.468,-0.138,+0.255,+0.835,+0.583,+0.013,-0.792,-1.500,-1.125,+0.938,-1, -1, -1, -3, -1, 0, 0, -1,-1.0194877319294795,0.5883714719258053
1503610325064,-0.468,-0.138,+0.254,+0.835,+0.580,+0.015,-0.798,-1.250,-1.562,+0.812,2, -1, -1, -2, 0, -2, 0, 0,-1.019343145483643,0.5864171770545037
1503610325087,-0.468,-0.138,+0.254,+0.835,+0.570,+0.018,-0.796,-1.000,-1.625,+0.500,-2, 0, -2, 0, -1, 0, 0, -1,-1.019343145483643,0.5864171770545037
1503610325102,-0.468,-0.138,+0.254,+0.835,+0.572,+0.017,-0.797,-0.125,-1.562,+0.375,-1, -1, 1, -2, -2, -1, 0, -3,-1.019343145483643,0.5864171770545037
1503610325125,-0.468,-0.138,+0.253,+0.835,+0.571,+0.014,-0.799,+0.438,-0.875,+0.188,-1, -1, -1, -2, 0, 1, 0, 1,-1.0191984910330782,0.5844647915217905
1503610325150,-0.468,-0.138,+0.253,+0.835,+0.581,+0.014,-0.797,+0.000,-1.000,+0.500,-1, -2, -2, -1, -2, 0, -2, 2,-1.0191984910330782,0.5844647915217905
1503610325163,-0.468,-0.138,+0.253,+0.835,+0.581,+0.009,-0.802,-0.125,-1.000,+0.812,0, -1, -1, -1, 0, -2, -1, 1,-1.0191984910330782,0.5844647915217905
1503610325185,-0.468,-0.138,+0.253,+0.835,+0.581,+0.011,-0.796,-0.375,-1.750,+0.562,-1, -2, -1, -1, 0, 0, -2, -4,-1.0191984910330782,0.5844647915217905
1503610325206,-0.468,-0.138,+0.253,+0.835,+0.570,+0.014,-0.794,-0.500,-1.688,+0.562,0, -1, -1, -1, -1, -1, 1, 3,-1.0191984910330782,0.5844647915217905
1503610325223,-0.468,-0.138,+0.252,+0.835,+0.573,+0.010,-0.808,-0.062,-1.438,+0.812,1, 0, 0, -2, -2, -1, 0, 1,-1.0190537685358538,0.582514311127359
1503610325244,-0.468,-0.138,+0.252,+0.835,+0.577,+0.009,-0.805,-0.125,-1.188,+0.562,-1, 0, 0, -2, 0, -1, -2, 0,-1.0190537685358538,0.582514311127359
1503610325266,-0.468,-0.138,+0.252,+0.835,+0.569,+0.011,-0.808,-0.500,-0.812,+0.000,-1, 0, -2, 1, 1, 0, -1, 2,-1.0190537685358538,0.582514311127359
1503610325283,-0.468,-0.138,+0.252,+0.835,+0.572,+0.010,-0.799,-0.938,+0.000,-0.188,1, 0, -2, -1, -1, -1, -1, 0,-1.0190537685358538,0.582514311127359
1503610325305,-0.468,-0.138,+0.252,+0.835,+0.578,+0.014,-0.801,-0.938,-0.125,+0.250,-1, -3, 0, 1, -1, -2, 0, -5,-1.0190537685358538,0.582514311127359
1503610325326,-0.468,-0.138,+0.252,+0.835,+0.573,+0.011,-0.805,-0.812,-0.375,+0.188,1, 0, 0, -1, -1, 0, -1, 4,-1.0190537685358538,0.582514311127359
1503610325342,-0.468,-0.138,+0.252,+0.835,+0.566,+0.009,-0.806,-1.125,-1.062,+0.188,-2, -1, -1, -1, 0, 0, 0, -2,-1.0190537685358538,0.582514311127359
1503610325364,-0.468,-0.138,+0.252,+0.835,+0.564,+0.019,-0.797,-0.750,+0.625,-0.062,-1, -1, 1, -1, -2, 1, -2, -2,-1.0190537685358538,0.582514311127359
1503610325387,-0.468,-0.138,+0.252,+0.835,+0.577,+0.016,-0.809,-0.438,+0.438,+0.688,0, -2, -1, -3, -3, 0, -1, -4,-1.0190537685358538,0.582514311127359
1503610325402,-0.468,-0.138,+0.252,+0.835,+0.580,+0.017,-0.804,+0.062,-0.188,+0.312,-1, 0, 1, 0, 0, -2, 0, 2,-1.0190537685358538,0.582514311127359
1503610325426,-0.468,-0.139,+0.252,+0.835,+0.574,+0.012,-0.802,+0.875,+0.000,+0.562,-1, 1, 1, -1, -1, -2, 0, 0,-1.0197900748182906,0.5836008919179393
1503610325446,-0.469,-0.139,+0.251,+0.835,+0.564,+0.012,-0.807,+1.250,-0.188,+0.125,1, -3, -3, -3, 0, 0, 0, 3,-1.0221160562629874,0.5818848025570976
1503610325463,-0.469,-0.139,+0.251,+0.835,+0.580,-0.001,-0.797,+0.500,+0.000,+0.312,0, 0, 0, 0, 0, 0, -3, -8,-1.0221160562629874,0.5818848025570976
1503610325487,-0.469,-0.139,+0.251,+0.835,+0.583,-0.005,-0.800,-1.438,-0.250,+1.438,1, 1, -1, -1, -2, -2, 0, 0,-1.0221160562629874,0.5818848025570976
1503610325506,-0.469,-0.139,+0.251,+0.835,+0.579,+0.010,-0.803,-2.875,-0.562,+1.125,-1, -1, -2, -4, -2, -1, -1, -1,-1.0221160562629874,0.5818848025570976
1503610325523,-0.469,-0.139,+0.251,+0.835,+0.565,+0.022,-0.800,-1.500,-1.000,+0.688,-2, 1, -1, -3, -2, -1, 0, 0,-1.0221160562629874,0.5818848025570976
1503610325544,-0.469,-0.139,+0.251,+0.835,+0.560,+0.008,-0.803,-0.125,-0.750,+0.500,0, -3, 0, -1, 1, 2, 0, 2,-1.0221160562629874,0.5818848025570976
1503610325566,-0.469,-0.139,+0.251,+0.835,+0.565,+0.006,-0.797,-0.688,+0.500,+0.625,-1, 2, 2, 0, 0, -2, -3, -5,-1.0221160562629874,0.5818848025570976
1503610325585,-0.469,-0.139,+0.251,+0.835,+0.571,+0.013,-0.802,-0.750,+0.750,+0.375,-1, -3, -2, -1, -3, -2, -1, 1,-1.0221160562629874,0.5818848025570976
1503610325605,-0.469,-0.139,+0.251,+0.835,+0.576,+0.012,-0.796,-0.125,+0.750,+0.062,0, -1, -2, -3, 1, -3, 0, 0,-1.0221160562629874,0.5818848025570976
1503610325627,-0.469,-0.139,+0.251,+0.835,+0.578,+0.009,-0.795,+0.250,-0.188,+0.375,-1, -1, -2, 0, -1, 0, 0, 1,-1.0221160562629874,0.5818848025570976
1503610325643,-0.469,-0.139,+0.251,+0.835,+0.575,+0.000,-0.804,-0.312,-0.062,+0.562,-1, 1, 3, 1, 0, 0, -1, 1,-1.0221160562629874,0.5818848025570976
1503610325665,-0.469,-0.139,+0.251,+0.835,+0.581,+0.001,-0.792,-1.688,+0.562,+0.625,-1, -1, -3, -3, -2, -2, -2, -1,-1.0221160562629874,0.5818848025570976
1503610325690,-0.468,-0.139,+0.251,+0.835,+0.585,+0.004,-0.792,-2.250,-0.375,+1.188,0, 2, -3, 1, 0, 0, 0, 2,-1.0196444295384965,0.5816524979251482
1503610325703,-0.468,-0.139,+0.251,+0.835,+0.571,+0.008,-0.800,-2.000,-0.562,+0.562,-1, -1, 0, -2, 0, 0, -2, -1,-1.0196444295384965,0.5816524979251482
1503610325725,-0.468,-0.139,+0.251,+0.836,+0.564,+0.008,-0.805,-2.312,-0.438,+0.500,-1, -1, -1, -1, -1, -1, 0, 0,-1.0201345286827594,0.5820719316278425
1503610325746,-0.468,-0.139,+0.251,+0.836,+0.568,+0.011,-0.803,-1.812,+0.562,+0.500,-3, -3, -3, -2, -1, -2, -2, -3,-1.0201345286827594,0.5820719316278425
1503610325764,-0.468,-0.139,+0.251,+0.835,+0.569,+0.012,-0.800,-1.312,+1.125,-0.062,-3, -1, -1, 1, -1, 0, 0, -3,-1.0196444295384965,0.5816524979251482
1503610325787,-0.468,-0.139,+0.251,+0.835,+0.577,+0.009,-0.799,-0.875,+0.562,+0.188,-1, 0, -2, -3, -2, -1, 0, -3,-1.0196444295384965,0.5816524979251482
1503610325806,-0.468,-0.139,+0.251,+0.835,+0.583,+0.007,-0.795,-1.125,-0.375,+0.750,0, -1, 1, -1, 0, 0, 1, -2,-1.0196444295384965,0.5816524979251482
1503610325823,-0.468,-0.139,+0.251,+0.835,+0.573,+0.009,-0.801,-0.938,-0.875,+0.312,1, -1, -1, -1, -2, 0, 0, 1,-1.0196444295384965,0.5816524979251482
1503610325844,-0.468,-0.139,+0.251,+0.835,+0.566,+0.004,-0.805,-0.812,-0.812,+0.625,-1, 0, 1, 1, 0, -1, -1, -1,-1.0196444295384965,0.5816524979251482
1503610325866,-0.468,-0.139,+0.251,+0.836,+0.568,+0.005,-0.801,-1.125,+0.562,+0.062,-2, -2, -3, 0, 0, -2, 0, 1,-1.0201345286827594,0.5820719316278425
1503610325883,-0.468,-0.139,+0.251,+0.836,+0.578,+0.013,-0.798,-1.750,+0.062,+0.188,-1, -2, -2, -1, 0, 0, 1, -1,-1.0201345286827594,0.5820719316278425
1503610325905,-0.468,-0.139,+0.251,+0.836,+0.581,+0.003,-0.802,-0.750,+0.562,+0.125,-2, 0, 2, -2, -1, -1, -1, -1,-1.0201345286827594,0.5820719316278425
1503610325927,-0.468,-0.139,+0.251,+0.836,+0.574,+0.011,-0.805,-1.000,-0.438,+0.125,0, -2, -3, -3, -2, -1, -2, 1,-1.0201345286827594,0.5820719316278425
1503610325943,-0.468,-0.139,+0.251,+0.836,+0.571,+0.009,-0.803,-0.812,+0.375,+0.312,2, 0, 0, -1, 1, -1, -1, 1,-1.0201345286827594,0.5820719316278425
1503610325965,-0.468,-0.139,+0.251,+0.836,+0.577,+0.008,-0.803,-1.250,+0.062,+0.438,-1, -1, -2, 0, -1, 0, -1, 0,-1.0201345286827594,0.5820719316278425
1503610325988,-0.468,-0.139,+0.251,+0.836,+0.575,+0.021,-0.794,-1.062,-0.375,+1.000,-1, -2, 0, 0, -1, 0, -2, -1,-1.0201345286827594,0.5820719316278425
1503610326002,-0.468,-0.139,+0.251,+0.836,+0.568,+0.014,-0.801,+0.250,-0.125,+0.875,1, 1, -2, 0, 0, -2, 0, 0,-1.0201345286827594,0.5820719316278425
1503610326026,-0.468,-0.140,+0.251,+0.836,+0.573,+0.010,-0.799,+0.625,-0.500,+1.250,-1, 1, 1, 0, 0, -1, -1, 1,-1.0208725332597108,0.5831604668833228
1503610326047,-0.468,-0.140,+0.251,+0.836,+0.579,+0.012,-0.801,+0.938,+0.062,+0.875,-3, -3, -2, 0, -3, -1, 0, -3,-1.0208725332597108,0.5831604668833228
1503610326064,-0.468,-0.140,+0.251,+0.836,+0.584,+0.000,-0.801,+0.688,-0.125,+1.500,-1, -2, 0, 0, -1, -1, -1, 0,-1.0208725332597108,0.5831604668833228
1503610326089,-0.468,-0.140,+0.251,+0.836,+0.587,+0.008,-0.795,-0.562,-1.688,+2.438,1, -1, 0, 0, 0, 1, -2, 1,-1.0208725332597108,0.5831604668833228
1503610326107,-0.468,-0.140,+0.250,+0.836,+0.590,+0.000,-0.799,-0.875,-2.625,+2.188,2, 2, 0, 1, -1, 0, 2, 0,-1.0207262004227855,0.5812130432565351
1503610326124,-0.468,-0.140,+0.250,+0.836,+0.574,+0.002,-0.795,-1.375,-2.562,+1.188,-5, -3, 0, -1, -2, -2, -1, -4,-1.0207262004227855,0.5812130432565351
1503610326145,-0.468,-0.140,+0.250,+0.836,+0.546,+0.012,-0.809,-0.625,-0.688,+1.062,-8, -6, -4, -2, -3, -2, -3, -3,-1.0207262004227855,0.5812130432565351
1503610326167,-0.468,-0.141,+0.250,+0.836,+0.565,+0.004,-0.799,+0.562,-0.188,+1.062,-17, -11, -4, -4, -1, -2, -1, -5,-1.0214665668407377,0.5823038567522402
1503610326184,-0.468,-0.141,+0.250,+0.836,+0.582,-0.003,-0.791,-1.562,+0.188,+0.812,10, 3, 2, 1, 0, 2, -1, -1,-1.0214665668407377,0.5823038567522402
1503610326205,-0.468,-0.141,+0.250,+0.836,+0.591,+0.001,-0.805,-1.438,-0.375,-1.250,2, -3, -1, 0, -2, -2, -1, -1,-1.0214665668407377,0.5823038567522402
1503610326231,-0.468,-0.140,+0.250,+0.836,+0.550,+0.019,-0.824,-0.750,-0.312,-2.125,-7, 1, 4, 0, -2, -1, -3, -10,-1.0207262004227855,0.5812130432565351
1503610326242,-0.469,-0.140,+0.250,+0.836,+0.528,+0.005,-0.791,+0.438,+2.750,-1.000,-20, -11, -2, 0, 0, 1, 0, -4,-1.0231966659217766,0.5814470297459147
1503610326265,-0.468,-0.141,+0.250,+0.836,+0.595,-0.009,-0.783,-1.875,+5.625,+2.125,15, 11, 3, 1, 0, -1, -1, 0,-1.0214665668407377,0.5823038567522402
1503610326292,-0.468,-0.141,+0.251,+0.835,+0.617,-0.004,-0.800,-3.188,+2.688,+1.562,7, -1, -4, -3, -5, -3, 1, 1,-1.02112496123756,0.5838323087220467
1503610326306,-0.468,-0.141,+0.251,+0.835,+0.576,+0.020,-0.813,-2.125,-0.375,-0.688,-4, -1, -6, -3, 0, -2, -3, -2,-1.02112496123756,0.5838323087220467
1503610326327,-0.468,-0.141,+0.251,+0.835,+0.527,+0.015,-0.785,+0.938,-0.062,-0.875,12, -2, -4, -1, -8, -4, 1, 8,-1.02112496123756,0.5838323087220467
1503610326347,-0.469,-0.141,+0.251,+0.835,+0.525,+0.005,-0.811,+2.562,+4.188,-1.312,-6, 6, 2, -1, 7, 4, 0, -1,-1.0235952556891263,0.5840675945532665
1503610326365,-0.468,-0.143,+0.252,+0.835,+0.586,-0.005,-0.788,+0.000,+8.625,+0.938,-4, 2, 5, 0, -1, 0, 0, -1,-1.0227673781824604,0.5879682131533729
1503610326385,-0.468,-0.143,+0.253,+0.835,+0.655,+0.003,-0.789,-3.000,+4.938,+3.812,-5, -10, -18, 1, 9, 8, 1, 3,-1.022916335722411,0.5899177596323331
1503610326407,-0.468,-0.143,+0.253,+0.835,+0.618,+0.015,-0.803,-1.438,-7.375,+0.688,-21, -7, 2, -1, -6, -4, -2, 3,-1.022916335722411,0.5899177596323331
1503610326424,-0.468,-0.142,+0.251,+0.835,+0.547,+0.010,-0.809,+0.125,-8.562,-0.438,22, 7, 1, 2, 3, 1, -8, -8,-1.0218700464213504,0.5849253692775309
1503610326445,-0.468,-0.142,+0.250,+0.835,+0.518,+0.004,-0.801,-0.062,-1.062,+0.188,8, 5, 4, 0, -2, -2, -8, -9,-1.021721785452792,0.5829793992733463
1503610326467,-0.469,-0.142,+0.250,+0.835,+0.528,-0.003,-0.816,+0.750,+0.062,-2.750,0, -1, 2, -1, 0, -3, 1, 1,-1.024192081014419,0.5832164966104962
1503610326483,-0.469,-0.142,+0.251,+0.835,+0.540,-0.004,-0.823,-0.250,+11.188,-3.375,-2, -10, 0, -2, -4, -4, 1, 0,-1.0243396764999886,0.5851621417355269
1503610326505,-0.470,-0.143,+0.253,+0.834,+0.568,-0.009,-0.811,-1.312,+12.688,-4.812,5, 3, -7, -1, 0, -2, 0, -4,-1.0273673195326851,0.5899725962849
1503610326528,-0.470,-0.144,+0.255,+0.833,+0.553,-0.016,-0.789,-4.188,+15.562,-7.438,-1, -4, -4, 0, 2, 3, -1, -3,-1.027931903985949,0.5945513779506625
1503610326543,-0.471,-0.144,+0.258,+0.831,+0.557,-0.018,-0.770,-7.938,+19.125,-11.062,-2, 1, 1, 1, 2, 0, -1, -3,-1.029877346971443,0.599799826488825
1503610326566,-0.473,-0.144,+0.262,+0.829,+0.568,-0.051,-0.788,-11.938,+24.438,-20.625,-14, -5, 6, 1, 1, -2, -5, -3,-1.0344442565857466,0.6072459338066302
1503610326587,-0.474,-0.143,+0.268,+0.826,+0.595,-0.031,-0.818,-21.312,+31.500,-21.688,7, 10, 10, 3, 1, 1, 0, 0,-1.0355825800419867,0.6168575115242205
1503610326603,-0.475,-0.141,+0.276,+0.823,+0.592,+0.068,-0.794,-25.625,+37.188,-20.562,5, -4, -15, -3, -2, -1, 0, -1,-1.0362314910169659,0.6293567336669821
1503610326626,-0.475,-0.141,+0.284,+0.821,+0.588,+0.163,-0.735,-15.375,+46.000,-9.250,-4, -20, -12, -4, 2, 3, 2, 3,-1.0364129760425074,0.6443685091639122
1503610326647,-0.474,-0.145,+0.292,+0.818,+0.686,+0.122,-0.713,-0.375,+44.688,-1.000,1, 13, 8, 3, 3, 2, -2, -2,-1.0368028789838202,0.6632018590534772
1503610326664,-0.473,-0.149,+0.297,+0.816,+0.786,+0.025,-0.728,+4.062,+33.812,+5.250,-2, -4, 2, -1, -3, -2, 0, -2,-1.0373491830443575,0.6765491675149063
1503610326685,-0.472,-0.151,+0.300,+0.815,+0.762,-0.008,-0.691,-0.875,+14.125,-1.188,-4, 1, 0, -1, 0, -1, -2, -11,-1.036509297118323,0.6841383586070804
1503610326707,-0.473,-0.151,+0.301,+0.814,+0.682,+0.039,-0.708,-6.188,-0.188,-6.438,-10, 1, 4, 10, 11, 0, -1, 0,-1.0386398925699296,0.6859302006849329
1503610326729,-0.474,-0.149,+0.301,+0.814,+0.669,+0.087,-0.726,-6.250,-2.312,-7.188,-1, 0, -4, -7, -5, -2, 1, 5,-1.039453772527743,0.6839348492740097
1503610326745,-0.474,-0.148,+0.301,+0.814,+0.686,+0.080,-0.723,-1.875,-5.688,-1.812,2, 1, 2, 1, -1, -3, -5, -5,-1.0386357436027627,0.6828235918761754
1503610326767,-0.474,-0.148,+0.300,+0.814,+0.667,+0.052,-0.728,-0.688,-9.312,+0.938,-1, -13, -2, -3, -5, -3, -3, -2,-1.0384853510357117,0.6807998670195702
1503610326782,-0.475,-0.147,+0.298,+0.815,+0.622,+0.037,-0.737,-1.375,-11.750,+0.250,2, -7, -12, -3, -2, -4, -1, -3,-1.0403193301041,0.6763437719878392
1503610326805,-0.475,-0.146,+0.297,+0.815,+0.637,+0.043,-0.748,-3.438,-7.125,+0.938,-4, 1, 2, 0, 0, 1, 0, 0,-1.0393633589424307,0.6732165507770761
1503610326828,-0.474,-0.145,+0.296,+0.816,+0.667,+0.063,-0.761,-3.438,-7.812,+3.062,-12, -17, -9, -3, -3, 1, 1, -4,-1.0364277580779846,0.670329894547135
1503610326842,-0.474,-0.144,+0.295,+0.817,+0.648,+0.066,-0.751,-1.375,-9.750,+3.500,16, 4, -3, -2, -2, 0, 1, 5,-1.035964496108253,0.667674446835748
1503610326865,-0.474,-0.144,+0.293,+0.818,+0.624,+0.064,-0.758,+1.188,-10.562,+3.312,3, 6, 10, -4, -8, -4, -1, 3,-1.0361542361360079,0.6641092141616959
1503610326888,-0.474,-0.144,+0.292,+0.818,+0.629,+0.056,-0.742,+2.438,-9.125,+6.000,7, -4, -2, 1, -1, -1, -5, -6,-1.0360073512573216,0.6620979837403953
1503610326903,-0.474,-0.144,+0.290,+0.819,+0.631,+0.049,-0.746,+3.062,-7.250,+6.500,5, 4, -4, -3, -1, -3, 0, -1,-1.0361970638375984,0.6585410843163167
1503610326928,-0.473,-0.144,+0.289,+0.820,+0.655,+0.054,-0.760,+2.875,-8.875,+7.250,2, -1, -5, -2, -1, -2, -2, 4,-1.0340669454481122,0.6567652268953885
1503610326948,-0.473,-0.144,+0.286,+0.821,+0.642,+0.067,-0.768,+4.500,-11.688,+8.000,0, 2, 3, 0, 1, 1, 1, 0,-1.0341088925547228,0.6512123941483303
1503610326962,-0.472,-0.145,+0.284,+0.822,+0.611,+0.056,-0.765,+7.812,-11.812,+9.562,-5, -8, -3, -2, 1, 0, -1, 1,-1.0326198284246468,0.6485412031338619
1503610326985,-0.471,-0.146,+0.281,+0.823,+0.606,+0.041,-0.776,+10.375,-8.375,+11.688,0, 9, 7, 1, -3, -1, 1, 0,-1.0309815300977718,0.6438800635402703
1503610327008,-0.471,-0.148,+0.279,+0.824,+0.610,+0.030,-0.762,+12.375,-6.500,+11.250,-1, -5, -2, 0, -1, -2, 0, 1,-1.0327477427212968,0.6425614459244846
1503610327023,-0.470,-0.150,+0.277,+0.825,+0.627,+0.012,-0.763,+12.562,-7.625,+11.125,-1, 6, 3, 2, -2, -1, -1, 1,-1.032057036169729,0.6410160719573373
1503610327045,-0.469,-0.151,+0.274,+0.826,+0.615,+0.004,-0.773,+10.750,-7.062,+11.438,2, 7, 1, 1, 0, 0, -1, -2,-1.03041592715491,0.6363822040937258
1503610327067,-0.468,-0.153,+0.272,+0.827,+0.601,-0.011,-0.785,+8.688,-5.438,+10.562,-1, -4, -4, -5, -3, -4, -1, 0,-1.0297324421378522,0.6348499737817939
1503610327082,-0.468,-0.154,+0.271,+0.827,+0.559,-0.058,-0.760,+4.812,+1.688,+6.000,-4, 0, 2, 2, 0, 6, -2, -4,-1.0303802563147866,0.6339919633913441
1503610327105,-0.467,-0.155,+0.272,+0.827,+0.609,-0.051,-0.722,-4.938,+3.688,+0.938,0, -4, -2, -2, 0, -1, 0, -2,-1.0288940646023246,0.6368382767966959
1503610327129,-0.467,-0.154,+0.272,+0.827,+0.646,+0.012,-0.766,-7.250,-5.688,-3.062,1, 0, -7, -3, -2, -3, -3, 2,-1.0280839181939998,0.6357197997531554
1503610327142,-0.468,-0.153,+0.273,+0.827,+0.641,+0.040,-0.781,-6.625,+1.000,-1.750,-1, -1, -1, 0, 0, -2, 3, -1,-1.0298899793237835,0.6368278035277496
1503610327165,-0.468,-0.151,+0.272,+0.827,+0.655,+0.034,-0.765,-2.625,-10.812,+1.188,0, -10, 8, 4, -2, -2, -2, -2,-1.028129539080697,0.632621415058888
1503610327188,-0.468,-0.151,+0.270,+0.828,+0.606,+0.008,-0.762,-0.938,-9.250,+1.125,-3, 3, -2, -3, 0, 4, 1, -3,-1.0283009660061957,0.629107411952051
1503610327203,-0.468,-0.150,+0.269,+0.828,+0.579,-0.004,-0.786,-1.875,-8.250,+0.250,-3, -11, -6, -1, -1, 0, 0, -2,-1.0273514794396148,0.6260227579973491
1503610327225,-0.468,-0.149,+0.268,+0.829,+0.569,+0.014,-0.787,-3.000,-4.375,-0.812,0, 2, -1, -1, -1, 0, -2, 0,-1.0268914015974187,0.6233771021434177
1503610327248,-0.468,-0.149,+0.268,+0.828,+0.584,+0.026,-0.798,-1.938,+3.438,-0.125,1, 2, 2, -1, -1, -1, 6, 1,-1.0264067151883955,0.622941801928448
1503610327263,-0.468,-0.149,+0.269,+0.828,+0.614,+0.021,-0.774,+0.250,+5.375,+1.125,4, 1, -3, -1, -1, 1, 2, -1,-1.0265611120070002,0.6249136846262775
1503610327284,-0.468,-0.150,+0.270,+0.828,+0.631,+0.006,-0.762,+0.312,+2.625,+1.750,5, -14, 1, 1, 1, -1, 1, 1,-1.0275066065714935,0.6279963665780492
1503610327306,-0.468,-0.151,+0.270,+0.828,+0.643,-0.004,-0.767,-1.000,+1.312,+1.812,-25, -8, -3, -4, -2, -2, -4, -4,-1.0283009660061957,0.629107411952051
1503610327331,-0.468,-0.150,+0.270,+0.828,+0.632,+0.009,-0.771,-1.500,-3.312,+0.188,-8, -18, -8, -2, -2, 0, -1, -1,-1.0275066065714935,0.6279963665780492
1503610327344,-0.468,-0.150,+0.269,+0.828,+0.589,+0.011,-0.771,-0.562,-3.938,-0.812,2, 4, -1, 0, 0, -3, -1, -1,-1.0273514794396148,0.6260227579973491
1503610327366,-0.468,-0.150,+0.269,+0.828,+0.595,+0.006,-0.771,-1.375,-1.625,-0.062,6, 5, 0, -2, -1, -2, -1, 0,-1.0273514794396148,0.6260227579973491
1503610327389,-0.468,-0.150,+0.269,+0.828,+0.621,+0.014,-0.778,-2.750,-2.000,+0.938,5, 2, 0, -1, -1, -1, 0, -1,-1.0273514794396148,0.6260227579973491
1503610327404,-0.468,-0.149,+0.269,+0.829,+0.615,+0.012,-0.774,-3.375,-1.312,+0.812,10, 10, 3, 0, 3, 0, 0, 1,-1.0270455512819194,0.6253499466431542
1503610327426,-0.468,-0.149,+0.269,+0.829,+0.615,+0.025,-0.768,-2.562,-1.250,+1.125,29, 0, -3, 0, -1, -1, 0, 5,-1.0270455512819194,0.6253499466431542
1503610327449,-0.468,-0.148,+0.268,+0.829,+0.614,+0.010,-0.774,-1.750,-4.875,+1.062,0, 11, 3, 0, -1, 0, -2, 0,-1.0261057346100382,0.6222703691293442
1503610327466,-0.468,-0.148,+0.267,+0.829,+0.626,+0.003,-0.773,-3.000,-7.688,+1.562,-10, -2, 0, 0, -3, -1, -1, -2,-1.025952319533414,0.6202992455094045
1503610327487,-0.468,-0.147,+0.266,+0.830,+0.582,+0.010,-0.790,-3.188,-7.938,-0.375,-1, 2, -7, 0, 0, 0, -2, -4,-1.0255037783301686,0.6176588946946738
1503610327509,-0.469,-0.146,+0.265,+0.830,+0.531,+0.025,-0.799,+0.000,-3.312,-2.875,-4, 3, -7, -3, -6, -9, -2, 2,-1.0270383260695581,0.6148263366212338
1503610327525,-0.469,-0.146,+0.265,+0.830,+0.547,+0.018,-0.795,+1.875,+5.625,-0.562,4, -19, -18, -5, 3, 4, -1, -3,-1.0270383260695581,0.6148263366212338
1503610327546,-0.469,-0.148,+0.266,+0.829,+0.612,+0.005,-0.761,+1.188,+9.750,+1.500,-15, -9, 10, 3, 3, -2, 0, -6,-1.0282610591642671,0.6185712770914735
1503610327571,-0.468,-0.149,+0.268,+0.829,+0.653,-0.004,-0.763,-1.875,+6.250,+1.812,6, -5, -7, -3, -4, 1, 3, 2,-1.0268914015974187,0.6233771021434177
1503610327584,-0.468,-0.149,+0.268,+0.829,+0.667,+0.018,-0.790,-3.188,+0.375,+1.000,10, 19, -1, 2, 2, 3, -1, 0,-1.0268914015974187,0.6233771021434177
1503610327608,-0.468,-0.148,+0.268,+0.829,+0.619,+0.023,-0.762,-2.000,-6.938,-0.375,-3, -6, 1, -1, 1, 0, 2, 1,-1.0261057346100382,0.6222703691293442
1503610327629,-0.468,-0.147,+0.267,+0.829,+0.584,+0.013,-0.771,-1.000,-6.938,+0.750,-20, -15, -6, -3, -3, 0, -4, -9,-1.0251706527244686,0.6191944704443727
1503610327644,-0.468,-0.147,+0.266,+0.830,+0.589,+0.003,-0.777,-1.812,-5.062,+0.562,6, -2, -1, -1, -1, -3, -1, 1,-1.0255037783301686,0.6176588946946738
1503610327667,-0.468,-0.146,+0.265,+0.830,+0.603,+0.008,-0.787,-2.000,-3.812,+0.000,6, 5, 2, 0, 1, -1, -3, 1,-1.0245751260440097,0.6145877823028297
1503610327689,-0.468,-0.146,+0.265,+0.830,+0.614,+0.018,-0.786,-2.688,-1.688,-0.125,-3, -10, 6, 1, 3, 0, -2, -6,-1.0245751260440097,0.6145877823028297
1503610327704,-0.468,-0.146,+0.265,+0.830,+0.612,+0.023,-0.777,-2.438,-4.000,+2.438,-2, 4, 5, 1, 3, 2, 2, 4,-1.0245751260440097,0.6145877823028297
1503610327727,-0.468,-0.145,+0.264,+0.830,+0.589,+0.026,-0.788,-0.875,-4.000,+1.000,1, -7, -4, 2, 1, 1, -1, 0,-1.0236512316552209,0.6115203395140458
1503610327749,-0.468,-0.145,+0.264,+0.831,+0.558,+0.019,-0.779,+0.438,-0.250,+0.938,-5, -12, -8, -2, 2, 3, -1, -5,-1.0241381243966354,0.6119526373961799
1503610327766,-0.468,-0.146,+0.264,+0.831,+0.579,+0.015,-0.780,+0.062,+5.062,+3.250,1, 1, 3, -2, -3, -4, -1, 4,-1.024909566923125,0.6130530107259365
1503610327786,-0.467,-0.147,+0.265,+0.831,+0.632,+0.005,-0.775,-0.375,+4.750,+3.375,-1, 7, 4, 1, 1, -1, 1, -3,-1.0233764134572243,0.6158831116404831
1503610327809,-0.467,-0.147,+0.265,+0.831,+0.655,-0.004,-0.768,-1.688,-1.312,+2.000,-10, -12, 2, 0, 2, 2, -1, -2,-1.0233764134572243,0.6158831116404831
1503610327835,-0.467,-0.147,+0.265,+0.831,+0.612,+0.013,-0.782,-1.250,-5.375,-0.438,-7, -4, 5, 2, 2, -5, -3, -6,-1.0233764134572243,0.6158831116404831
1503610327854,-0.468,-0.146,+0.264,+0.831,+0.558,+0.013,-0.774,-0.188,-2.188,-1.062,5, 8, 4, -1, -2, 0, 1, 6,-1.024909566923125,0.6130530107259365
1503610327869,-0.467,-0.147,+0.265,+0.831,+0.595,+0.011,-0.789,-0.812,+3.562,+2.312,-1, -7, -11, -3, -3, 0, -1, -1,-1.0233764134572243,0.6158831116404831
1503610327884,-0.467,-0.147,+0.265,+0.831,+0.618,+0.010,-0.784,-1.562,+2.000,+1.750,-1, -5, 0, 2, 1, 3, 1, 2,-1.0233764134572243,0.6158831116404831
1503610327906,-0.467,-0.147,+0.265,+0.831,+0.604,+0.016,-0.762,-1.250,-1.062,+0.438,-8, -20, -4, -1, -1, -1, 1, 2,-1.0233764134572243,0.6158831116404831
1503610327929,-0.467,-0.147,+0.265,+0.831,+0.583,+0.008,-0.795,-0.312,+1.688,+0.312,0, 30, 23, 3, -2, 1, -2, -1,-1.0233764134572243,0.6158831116404831
1503610327944,-0.467,-0.147,+0.265,+0.831,+0.592,+0.004,-0.786,+0.000,+2.562,-0.125,10, 3, -10, -6, -6, -9, -7, -4,-1.0233764134572243,0.6158831116404831
1503610327968,-0.467,-0.148,+0.266,+0.830,+0.612,+0.001,-0.767,-1.125,+2.875,+0.312,10, -8, -6, 2, 10, 14, 10, 7,-1.0238240615828327,0.6185223912588717
1503610327989,-0.467,-0.148,+0.266,+0.830,+0.627,+0.010,-0.793,-2.312,+0.875,-0.375,-13, -15, 19, 6, 3, 6, -1, -5,-1.0238240615828327,0.6185223912588717
1503610328004,-0.468,-0.147,+0.266,+0.830,+0.596,+0.018,-0.784,-1.062,-1.312,-2.375,2, 10, 8, 5, 6, 1, -1, -2,-1.0255037783301686,0.6176588946946738
1503610328026,-0.468,-0.147,+0.266,+0.830,+0.596,+0.012,-0.778,-0.562,+0.750,-1.375,-52, -42, -23, -7, -6, -8, -4, -11,-1.0255037783301686,0.6176588946946738
1503610328049,-0.468,-0.147,+0.266,+0.830,+0.614,+0.004,-0.761,-2.000,-0.312,-0.188,-21, -4, 1, 2, 5, 2, -1, -1,-1.0255037783301686,0.6176588946946738
1503610328064,-0.468,-0.147,+0.266,+0.830,+0.636,+0.010,-0.782,-3.750,-2.750,+0.000,12, 14, 6, 1, 0, 3, 3, 2,-1.0255037783301686,0.6176588946946738
1503610328086,-0.468,-0.146,+0.265,+0.830,+0.624,+0.018,-0.787,-3.562,-8.250,-1.000,9, 17, 2, -2, -2, 0, 2, 4,-1.0245751260440097,0.6145877823028297
1503610328109,-0.469,-0.145,+0.264,+0.831,+0.583,+0.013,-0.797,-1.938,-9.750,-1.500,-9, 3, 6, 7, 7, 3, 0, 1,-1.0266015675362266,0.6121899621913494
1503610328124,-0.469,-0.144,+0.263,+0.831,+0.562,+0.026,-0.793,-1.750,-6.000,-1.000,-5, -2, 1, 2, 3, 4, 1, -2,-1.0256847591344158,0.6091244448132466
1503610328146,-0.469,-0.144,+0.262,+0.831,+0.569,+0.019,-0.786,-1.188,-1.625,+0.000,-8, -14, -1, 3, 3, 2, 0, -2,-1.0255354171170747,0.6071605233929408
1503610328169,-0.469,-0.144,+0.262,+0.831,+0.585,+0.016,-0.793,-0.562,+0.875,+0.062,4, -10, -4, 0, -1, -1, 2, 6,-1.0255354171170747,0.6071605233929408
1503610328184,-0.469,-0.144,+0.263,+0.831,+0.609,+0.010,-0.780,-0.750,+2.375,+0.688,3, -4, -2, -4, -4, -1, -2, -3,-1.0256847591344158,0.6091244448132466
1503610328207,-0.469,-0.144,+0.263,+0.831,+0.615,+0.009,-0.777,-1.250,+0.500,+0.875,4, 12, -3, -4, -2, -1, 0, 1,-1.0256847591344158,0.6091244448132466
1503610328229,-0.469,-0.144,+0.263,+0.831,+0.620,+0.014,-0.777,-1.750,-2.250,+1.062,-1, -4, 0, 0, -1, -1, -2, -3,-1.0256847591344158,0.6091244448132466
1503610328245,-0.469,-0.144,+0.262,+0.831,+0.603,+0.010,-0.776,-1.750,-3.750,+1.000,-3, -4, 10, -1, -3, 0, -4, -2,-1.0255354171170747,0.6071605233929408
1503610328266,-0.469,-0.143,+0.262,+0.831,+0.586,+0.007,-0.781,-3.500,-4.750,-0.500,2, 3, -4, -1, -1, -1, -1, 0,-1.024772717489624,0.6060625706976865
1503610328289,-0.469,-0.142,+0.261,+0.832,+0.582,+0.019,-0.777,-3.750,-8.188,-1.812,-1, -2, -2, -1, 0, -3, -2, -3,-1.0243531851847352,0.6034342562863505
1503610328304,-0.470,-0.141,+0.260,+0.832,+0.564,+0.029,-0.796,-1.250,-4.750,-1.750,0, -4, -2, 0, -1, -1, 1, -1,-1.0259206487589425,0.6006116503922746
1503610328326,-0.469,-0.142,+0.261,+0.832,+0.598,+0.044,-0.827,-1.625,+9.688,+4.875,-2, -1, -1, -2, 0, -1, 0, -1,-1.0243531851847352,0.6034342562863505
1503610328349,-0.468,-0.142,+0.261,+0.832,+0.604,+0.015,-0.768,+1.812,-0.062,+7.062,0, 2, -3, -1, -1, -2, -2, 0,-1.0218867473781925,0.6032003862779542
1503610328364,-0.469,-0.143,+0.260,+0.832,+0.584,-0.027,-0.762,+2.125,-5.250,-2.812,3, 13, 3, 0, 1, -1, -1, -1,-1.0249627607360876,0.602568646801708
1503610328386,-0.469,-0.142,+0.260,+0.832,+0.572,-0.006,-0.797,-4.875,+0.188,-0.375,-3, -3, -2, -1, 1, 0, -1, 1,-1.024205596255649,0.6014727498339784
1503610328409,-0.469,-0.142,+0.261,+0.832,+0.601,+0.049,-0.806,-4.750,+0.188,-0.750,-2, 2, 3, -2, -1, -1, -1, -3,-1.0243531851847352,0.6034342562863505
1503610328424,-0.469,-0.142,+0.262,+0.832,+0.626,+0.043,-0.784,-1.312,+2.562,+2.500,1, -2, 0, -2, -2, 0, 0, 1,-1.0245007025217816,0.6053977002707243
1503610328448,-0.468,-0.142,+0.261,+0.832,+0.610,+0.009,-0.785,+1.375,-5.812,+2.188,-2, -3, -3, 0, 1, 0, -1, -1,-1.0218867473781925,0.6032003862779542
1503610328472,-0.469,-0.142,+0.260,+0.832,+0.563,-0.008,-0.783,-0.625,-4.375,-1.188,-7, -4, -1, 0, 0, -1, -1, 0,-1.024205596255649,0.6014727498339784
1503610328484,-0.469,-0.141,+0.260,+0.832,+0.557,+0.011,-0.795,-3.500,+0.875,-0.375,0, -4, -2, -1, -3, 1, 1, -3,-1.0234516239890294,0.6003789796181795
1503610328507,-0.469,-0.141,+0.260,+0.832,+0.606,+0.038,-0.800,-3.000,+2.500,+0.875,3, -1, -3, -2, -2, -1, -1, 0,-1.0234516239890294,0.6003789796181795
1503610328529,-0.469,-0.141,+0.261,+0.832,+0.622,+0.025,-0.778,-0.375,-1.125,+1.500,0, -7, -4, 1, 0, 0, 1, -1,-1.0235983773654849,0.6023407038658463
1503610328544,-0.469,-0.141,+0.260,+0.832,+0.587,+0.001,-0.781,+0.750,-2.312,+0.250,4, 9, 0, 0, -1, -2, -1, 1,-1.0234516239890294,0.6003789796181795
1503610328566,-0.469,-0.141,+0.260,+0.832,+0.576,+0.014,-0.797,-1.188,-1.250,+0.188,-2, 0, -1, -1, 0, 0, -1, -1,-1.0234516239890294,0.6003789796181795
1503610328589,-0.469,-0.141,+0.260,+0.832,+0.584,+0.017,-0.786,-1.688,+0.875,+0.875,0, 2, -1, 0, -2, 0, -1, -2,-1.0234516239890294,0.6003789796181795
1503610328606,-0.469,-0.141,+0.260,+0.832,+0.595,+0.017,-0.791,-1.188,-0.125,+0.250,-2, 5, 1, 0, 1, 1, 0, 0,-1.0234516239890294,0.6003789796181795
1503610328626,-0.469,-0.141,+0.260,+0.832,+0.597,+0.019,-0.785,-1.688,-0.938,+0.438,1, -1, -1, 0, -2, -1, 0, -2,-1.0234516239890294,0.6003789796181795
1503610328649,-0.469,-0.141,+0.260,+0.832,+0.591,+0.022,-0.789,-0.750,-1.438,+0.438,-4, -8, -2, 0, -1, 0, -2, -9,-1.0234516239890294,0.6003789796181795
1503610328664,-0.469,-0.141,+0.260,+0.832,+0.582,+0.014,-0.798,-0.688,-0.438,+0.812,1, 1, 1, -2, -1, -2, 1, 3,-1.0234516239890294,0.6003789796181795
1503610328686,-0.469,-0.141,+0.260,+0.832,+0.593,+0.011,-0.793,-1.000,+0.250,+0.250,1, 2, 1, 0, -1, -2, 0, 1,-1.0234516239890294,0.6003789796181795
1503610328711,-0.469,-0.141,+0.260,+0.832,+0.592,+0.017,-0.790,-1.750,+0.312,+0.500,-2, -5, 0, -1, -2, -2, -1, -2,-1.0234516239890294,0.6003789796181795
1503610328724,-0.469,-0.141,+0.260,+0.832,+0.593,+0.024,-0.786,-1.625,-0.625,+0.625,1, 4, 0, -2, -2, -1, -1, 2,-1.0234516239890294,0.6003789796181795
1503610328749,-0.469,-0.141,+0.260,+0.832,+0.583,+0.015,-0.787,-0.500,+0.125,+0.750,-2, -1, -1, 1, 1, 0, -1, 0,-1.0234516239890294,0.6003789796181795
1503610328769,-0.469,-0.141,+0.260,+0.832,+0.587,+0.017,-0.787,-0.562,-0.125,+1.062,-1, -3, -2, 1, 0, 0, -1, 1,-1.0234516239890294,0.6003789796181795
1503610328784,-0.469,-0.141,+0.260,+0.832,+0.584,+0.013,-0.792,-1.062,+0.938,+1.125,0, 7, 2, -2, 1, -4, -2, 0,-1.0234516239890294,0.6003789796181795
1503610328807,-0.469,-0.141,+0.260,+0.832,+0.599,+0.019,-0.787,-1.625,+0.500,+1.375,0, 3, -1, -2, -2, 0, 0, 2,-1.0234516239890294,0.6003789796181795
1503610328829,-0.469,-0.141,+0.260,+0.832,+0.594,+0.013,-0.785,-1.250,-1.188,+0.312,-2, -2, 2, 0, 0, 1, -1, -4,-1.0234516239890294,0.6003789796181795
1503610328844,-0.469,-0.141,+0.260,+0.832,+0.592,+0.013,-0.789,-1.062,-0.812,+0.750,-1, -3, -3, -1, -1, 0, 0, 1,-1.0234516239890294,0.6003789796181795
1503610328866,-0.469,-0.141,+0.260,+0.832,+0.583,+0.014,-0.794,-0.875,-0.750,+0.875,-2, -3, 3, 1, 0, -1, -1, 0,-1.0234516239890294,0.6003789796181795
1503610328889,-0.469,-0.141,+0.260,+0.832,+0.582,+0.015,-0.784,-0.875,+0.625,+0.750,2, 3, -4, -2, 2, 0, -1, 1,-1.0234516239890294,0.6003789796181795
1503610328904,-0.469,-0.141,+0.260,+0.832,+0.598,+0.006,-0.796,-0.625,+0.562,+1.062,-3, -6, 3, 1, -1, 0, -2, -3,-1.0234516239890294,0.6003789796181795
1503610328926,-0.469,-0.141,+0.260,+0.832,+0.588,+0.010,-0.791,-1.188,+0.250,+0.250,3, -7, -10, -3, 0, -1, -2, -2,-1.0234516239890294,0.6003789796181795
1503610328949,-0.469,-0.141,+0.260,+0.832,+0.599,+0.018,-0.782,-1.500,+0.438,+0.125,-3, -4, -1, -2, -1, -1, -1, -1,-1.0234516239890294,0.6003789796181795
1503610328965,-0.469,-0.141,+0.260,+0.832,+0.598,+0.014,-0.786,-1.438,-1.250,+0.125,0, 7, -2, -1, -1, -1, 2, 1,-1.0234516239890294,0.6003789796181795
1503610328986,-0.469,-0.141,+0.260,+0.832,+0.584,+0.013,-0.787,-1.500,-0.750,-0.375,2, 2, 1, 0, -2, 0, -2, 1,-1.0234516239890294,0.6003789796181795
1503610329009,-0.469,-0.141,+0.260,+0.832,+0.591,+0.017,-0.792,-1.750,-0.938,-0.500,-1, -2, 2, -4, -5, -2, -1, -2,-1.0234516239890294,0.6003789796181795
1503610329024,-0.469,-0.141,+0.260,+0.832,+0.583,+0.012,-0.794,-1.938,-0.375,-0.125,1, 0, -1, -1, 1, 0, 0, 2,-1.0234516239890294,0.6003789796181795
1503610329047,-0.469,-0.141,+0.260,+0.832,+0.593,+0.022,-0.775,-1.750,+0.875,+0.250,-2, 0, 0, -1, -2, -2, -1, -2,-1.0234516239890294,0.6003789796181795
1503610329069,-0.469,-0.141,+0.260,+0.832,+0.602,+0.015,-0.794,-1.500,-0.375,+0.062,-3, -5, -2, 0, 0, 0, 0, -1,-1.0234516239890294,0.6003789796181795
1503610329085,-0.469,-0.141,+0.260,+0.832,+0.599,+0.016,-0.787,-2.125,-1.062,+0.125,6, 10, -7, -1, -2, -1, 1, 2,-1.0234516239890294,0.6003789796181795
1503610329108,-0.469,-0.141,+0.260,+0.832,+0.591,+0.021,-0.786,-1.750,-1.500,+0.250,-2, 0, 1, 1, 0, 0, -1, -3,-1.0234516239890294,0.6003789796181795
1503610329129,-0.469,-0.141,+0.259,+0.833,+0.593,+0.021,-0.795,-1.562,-1.250,+0.188,-2, -2, -1, -1, -1, -1, -1, -1,-1.0237928987330882,0.5988471330526407
1503610329144,-0.469,-0.141,+0.259,+0.833,+0.586,+0.021,-0.788,-1.250,-1.438,+0.938,-5, -4, 1, -2, 1, -2, -1, -2,-1.0237928987330882,0.5988471330526407
1503610329166,-0.469,-0.141,+0.259,+0.833,+0.576,+0.016,-0.791,-0.938,-0.938,+0.062,-3, -7, 0, -2, -3, 1, -1, 0,-1.0237928987330882,0.5988471330526407
1503610329189,-0.469,-0.141,+0.259,+0.833,+0.587,+0.017,-0.787,-1.500,+0.188,+0.250,-2, -3, 2, 1, 0, -1, -1, 1,-1.0237928987330882,0.5988471330526407
1503610329204,-0.469,-0.141,+0.259,+0.833,+0.585,+0.023,-0.790,-1.375,+0.625,+0.750,0, 3, 1, 0, 0, -1, -1, -1,-1.0237928987330882,0.5988471330526407
1503610329226,-0.469,-0.141,+0.259,+0.833,+0.596,+0.015,-0.783,-0.938,+0.812,+0.938,-4, -7, -2, -2, -2, -2, -1, -5,-1.0237928987330882,0.5988471330526407
1503610329249,-0.469,-0.141,+0.259,+0.833,+0.606,+0.013,-0.784,-1.125,-0.312,+1.688,0, 0, -4, -2, -2, -1, -2, 0,-1.0237928987330882,0.5988471330526407
1503610329264,-0.469,-0.141,+0.259,+0.833,+0.601,+0.017,-0.788,-0.812,-2.188,+1.062,0, 0, 0, 2, 0, 0, 1, 0,-1.0237928987330882,0.5988471330526407
1503610329286,-0.469,-0.141,+0.259,+0.833,+0.584,+0.016,-0.788,-1.062,-1.562,+0.438,1, 2, 0, 0, -1, 0, -1, 0,-1.0237928987330882,0.5988471330526407
1503610329310,-0.469,-0.140,+0.259,+0.833,+0.582,+0.015,-0.790,-1.625,-2.188,+0.500,-2, 1, 1, 0, -1, 0, -2, -3,-1.0230436296729748,0.5977556129376439
1503610329324,-0.469,-0.140,+0.258,+0.833,+0.576,+0.019,-0.790,-1.438,-1.250,+0.562,0, 1, -1, 2, 1, 0, 1, 0,-1.0228978094420884,0.5957965007251464
1503610329347,-0.469,-0.140,+0.258,+0.833,+0.583,+0.021,-0.792,-1.625,+0.562,+0.562,1, 1, 0, -3, -2, 0, -1, -2,-1.0228978094420884,0.5957965007251464
1503610329369,-0.469,-0.140,+0.258,+0.833,+0.583,+0.023,-0.792,-0.875,-0.875,+1.062,-1, -2, -1, -1, -1, -1, -2, 1,-1.0228978094420884,0.5957965007251464
1503610329384,-0.469,-0.140,+0.258,+0.833,+0.596,+0.017,-0.793,-0.438,+0.375,+0.875,-1, 2, 0, -1, -1, -1, -2, -2,-1.0228978094420884,0.5957965007251464
1503610329406,-0.469,-0.140,+0.259,+0.833,+0.590,+0.016,-0.789,-0.688,-0.938,+0.812,-2, -6, -3, -1, 2, -1, -1, 0,-1.0230436296729748,0.5977556129376439
1503610329429,-0.469,-0.140,+0.259,+0.833,+0.590,+0.014,-0.789,-0.500,-0.250,+0.750,-2, -1, -1, 0, 0, -1, 1, 0,-1.0230436296729748,0.5977556129376439
1503610329445,-0.469,-0.140,+0.259,+0.833,+0.593,+0.013,-0.781,-1.250,-0.562,+1.312,5, 4, 1, -2, -2, 0, 1, 2,-1.0230436296729748,0.5977556129376439
1503610329466,-0.469,-0.140,+0.259,+0.833,+0.604,+0.015,-0.790,-1.750,-0.625,+1.438,-4, -3, -2, -3, 0, 0, -2, -5,-1.0230436296729748,0.5977556129376439
1503610329489,-0.469,-0.140,+0.258,+0.833,+0.601,+0.019,-0.793,-1.688,-3.188,+0.938,-1, 0, -1, 0, -1, 0, -1, -2,-1.0228978094420884,0.5957965007251464
1503610329504,-0.469,-0.140,+0.258,+0.833,+0.583,+0.018,-0.792,-1.688,-3.438,+0.750,-1, -2, -3, 0, -2, -4, 4, -1,-1.0228978094420884,0.5957965007251464
1503610329526,-0.469,-0.140,+0.258,+0.833,+0.577,+0.022,-0.792,-1.000,-0.938,+0.938,-2, -3, -2, -1, 1, -1, -3, -6,-1.0228978094420884,0.5957965007251464
1503610329549,-0.469,-0.139,+0.258,+0.833,+0.572,+0.021,-0.794,-0.500,-1.500,+1.000,1, -2, -1, -1, -2, -1, -1, 4,-1.0221525721977816,0.5947068755042634
1503610329564,-0.469,-0.140,+0.258,+0.833,+0.577,+0.008,-0.792,-0.938,+1.188,-0.125,1, 2, 2, 2, -1, 1, -1, 0,-1.0228978094420884,0.5957965007251464
1503610329587,-0.469,-0.140,+0.258,+0.833,+0.587,+0.016,-0.799,-1.188,+2.062,-0.250,-1, -3, -8, -4, -1, -1, -1, 1,-1.0228978094420884,0.5957965007251464
1503610329609,-0.469,-0.140,+0.258,+0.833,+0.590,+0.021,-0.791,-0.812,+2.625,-0.062,-10, -10, -2, 0, 0, 0, -3, -6,-1.0228978094420884,0.5957965007251464
1503610329625,-0.469,-0.140,+0.259,+0.833,+0.590,+0.015,-0.783,+0.250,+2.750,-0.875,4, 2, 4, 1, 1, 0, 1, 4,-1.0230436296729748,0.5977556129376439
1503610329647,-0.469,-0.141,+0.259,+0.832,+0.612,+0.006,-0.772,-0.438,+0.250,-1.625,-3, -1, -2, -1, -3, -1, -1, -3,-1.0233047999040434,0.5984191939798259
1503610329669,-0.470,-0.141,+0.259,+0.832,+0.603,+0.017,-0.792,-0.812,-2.188,-2.062,-2, -5, -2, -2, 0, 1, 1, 5,-1.0257744851851744,0.598652195655612
1503610329685,-0.470,-0.140,+0.258,+0.832,+0.579,+0.023,-0.797,-0.375,-2.625,-3.688,2, -10, 3, -2, -1, -2, -1, -1,-1.02487985001461,0.5956011301992704
1503610329707,-0.471,-0.140,+0.258,+0.832,+0.538,+0.024,-0.799,+2.438,+1.562,-5.562,-5, 2, -1, -2, -3, -1, -3, -2,-1.0273521107914376,0.5958329200154714
1503610329728,-0.472,-0.141,+0.259,+0.831,+0.524,+0.041,-0.826,+4.188,+9.500,-4.062,-1, 4, -2, -4, -4, -4, -2, -4,-1.0302320958204638,0.5986901959966542
1503610329746,-0.472,-0.143,+0.261,+0.830,+0.547,+0.035,-0.817,+6.375,+22.500,+1.688,13, 36, 17, 4, -2, -3, 1, 6,-1.031547721920094,0.6043769026505595
1503610329767,-0.471,-0.148,+0.265,+0.828,+0.630,+0.008,-0.792,+9.062,+34.062,+4.875,7, -4, -1, -2, 0, 0, -2, 2,-1.0325550133872612,0.6166550012650786
1503610329789,-0.469,-0.152,+0.269,+0.827,+0.692,+0.020,-0.770,+7.188,+30.000,+7.000,-19, -13, -13, -2, 3, 11, -5, -21,-1.0309182461025028,0.6280581866999574
1503610329805,-0.468,-0.156,+0.272,+0.826,+0.662,+0.021,-0.765,+11.062,+28.375,+7.688,8, -23, 4, -1, -13, -18, -3, 6,-1.0316804636215016,0.6377726215144977
1503610329829,-0.467,-0.161,+0.275,+0.825,+0.659,+0.007,-0.779,+16.375,+30.625,+7.750,-5, 6, 13, 3, 1, -1, 6, -2,-1.0333606432765432,0.6486554590235145
1503610329852,-0.466,-0.167,+0.278,+0.823,+0.679,+0.000,-0.803,+19.125,+35.938,+7.750,-5, 1, -3, 1, -2, -1, 1, 6,-1.035542867676924,0.66029840013429
1503610329871,-0.465,-0.176,+0.281,+0.821,+0.595,+0.021,-0.749,+33.312,+42.625,+15.812,3, -19, -14, -1, 9, 15, -2, -1,-1.0405559155491229,0.6755073898458206
1503610329887,-0.463,-0.185,+0.286,+0.818,+0.650,-0.022,-0.772,+31.500,+58.938,+12.750,9, 24, -4, -3, -6, -9, 1, 7,-1.0433899311888597,0.6941547127633186
1503610329909,-0.458,-0.196,+0.292,+0.816,+0.676,-0.016,-0.735,+31.938,+68.688,+29.250,-10, 11, 35, 11, 3, 11, 3, -3,-1.0419835156492907,0.7169607161222588
1503610329931,-0.453,-0.208,+0.298,+0.814,+0.729,-0.033,-0.746,+34.000,+70.375,+35.875,-5, -19, -16, -5, -3, 1, 2, 4,-1.042254016894876,0.7412452924908597
1503610329949,-0.449,-0.218,+0.302,+0.812,+0.691,+0.025,-0.765,+38.062,+61.000,+29.750,34, 33, -4, -9, -10, 1, 4, 12,-1.0430784632468517,0.7596137493216147
1503610329968,-0.446,-0.229,+0.305,+0.809,+0.694,+0.074,-0.677,+52.750,+50.188,+31.875,-13, -3, 27, 4, 1, -10, -8, -9,-1.0471942241720924,0.7773589628505578
1503610329991,-0.442,-0.244,+0.306,+0.807,+0.729,-0.069,-0.633,+61.438,+54.125,+39.000,0, 16, -2, -5, -22, -25, -3, 0,-1.0540832649241905,0.796745731801664
1503610330007,-0.440,-0.257,+0.305,+0.805,+0.763,-0.143,-0.709,+65.188,+38.312,+30.688,-24, -11, -9, 8, 24, 12, -2, -5,-1.0636518952030913,0.8106654318148134
1503610330029,-0.437,-0.271,+0.303,+0.802,+0.711,-0.208,-0.701,+65.625,+44.750,+37.125,11, -5, 50, 23, 9, 2, -2, -3,-1.072102878184476,0.8237069783322613
1503610330052,-0.435,-0.281,+0.297,+0.802,+0.781,-0.157,-0.693,+61.938,-0.938,+40.188,26, -9, -24, -6, 6, 3, -4, -2,-1.07860935197129,0.8251876699249979
1503610330067,-0.433,-0.292,+0.290,+0.802,+0.910,-0.183,-0.541,+63.938,-15.750,+37.625,-5, -10, -22, -6, -4, 0, -2, -5,-1.0864870135721527,0.8265261475118252
1503610330089,-0.432,-0.301,+0.281,+0.803,+0.866,-0.346,-0.549,+52.250,-24.812,+38.125,9, -1, 11, -4, -10, -9, 0, 6,-1.0941876455993398,0.8221641592329979
1503610330111,-0.430,-0.305,+0.272,+0.805,+0.701,-0.421,-0.654,+31.000,-30.688,+25.438,5, 15, 14, 17, 3, -25, -19, -9,-1.0932274940532711,0.8104536347659096
1503610330127,-0.433,-0.308,+0.267,+0.804,+0.579,-0.481,-0.544,+14.875,-18.562,-12.750,25, -32, -43, -7, 31, 46, 35, 16,-1.1025807992176875,0.8061979743786393
1503610330151,-0.436,-0.307,+0.269,+0.802,+0.588,-0.648,-0.518,-22.312,+5.000,-45.250,38, 33, 1, -3, 10, 7, -21, -69,-1.1080235839107504,0.8091132983720304
1503610330171,-0.437,-0.301,+0.280,+0.800,+0.600,-0.791,-0.427,-78.875,+37.062,-74.562,-31, -8, 60, 14, -39, -15, 4, 14,-1.1044051899368732,0.8211247081452483
1503610330187,-0.441,-0.284,+0.303,+0.796,+0.497,-0.651,-0.290,-134.812,+62.312,-99.562,33, 35, 12, 34, 56, 24, 29, 54,-1.0956500876247877,0.8413897931509401
1503610330209,-0.451,-0.259,+0.330,+0.788,+0.297,-0.433,-1.510,-155.312,+73.875,-160.188,-35, -19, -10, -43, -109, -103, -18, 8,-1.0907917859496907,0.860633846265017
1503610330231,-0.466,-0.234,+0.367,+0.771,+0.187,-0.051,+0.588,-161.000,+105.500,-221.812,105, 70, 61, 22, 47, 52, -3, -11,-1.0973029679409818,0.900811104481421
1503610330247,-0.449,-0.206,+0.386,+0.779,+1.587,+0.836,-0.812,-223.812,+12.500,+22.562,127, 11, -48, 30, 79, 80, 85, 107,-1.0331376655927078,0.9054019931605685
1503610330269,-0.423,-0.183,+0.386,+0.799,+1.189,+1.189,+0.212,-174.312,-90.312,+138.812,-104, 14, 37, 35, 83, 67, 30, 25,-0.9575266016689803,0.8822142623755433
1503610330293,-0.436,-0.168,+0.380,+0.798,+0.446,+0.774,-0.896,+5.562,-45.938,-51.500,-84, -24, -22, -34, -49, 11, -61, -53,-0.9708387524856,0.8550601022792669
1503610330307,-0.451,-0.165,+0.373,+0.794,+0.673,+0.216,-0.878,+47.562,-27.562,-74.500,38, 44, 23, -21, -73, -18, 11, -16,-1.0001233597773,0.8377923625025415
1503610330328,-0.453,-0.172,+0.371,+0.792,+0.634,-0.165,-0.800,+30.750,+25.500,-6.500,86, 66, 54, 68, 127, 110, 45, 63,-1.0103452006674731,0.8406601192407077
1503610330351,-0.450,-0.182,+0.372,+0.791,+0.728,-0.495,-0.663,+9.375,+41.812,+5.562,-18, -16, 22, -26, -29, -37, -95, -26,-1.0128894168704168,0.8529322956860473
1503610330367,-0.448,-0.185,+0.377,+0.789,+0.872,-0.254,-0.597,-19.500,+31.562,-13.500,-61, 3, -27, -11, -50, -47, 35, -19,-1.0112454274876912,0.8657485057822967
1503610330389,-0.447,-0.181,+0.382,+0.789,+0.877,+0.153,-0.593,-28.500,+9.812,-5.438,32, 17, -4, 37, 90, 87, 107, 49,-1.0057631850150341,0.8718623570815156
1503610330411,-0.447,-0.177,+0.383,+0.789,+0.858,+0.239,-0.592,-10.875,-10.750,+0.375,-2, -26, -5, -29, -45, -49, -38, -30,-1.001890462917769,0.8695513048852256
1503610330427,-0.449,-0.176,+0.381,+0.789,+0.825,+0.117,-0.574,+1.812,-14.500,-8.375,-4, 29, 15, -7, -24, -20, 14, 20,-1.005229955203568,0.8645082191139565
1503610330449,-0.450,-0.175,+0.381,+0.788,+0.816,+0.029,-0.573,-0.938,-8.125,-8.750,31, 20, 7, -13, -27, -39, -15, 4,-1.0061125836838662,0.8631204407337989
1503610330471,-0.450,-0.176,+0.382,+0.788,+0.817,+0.058,-0.584,-3.938,+4.625,-0.438,20, 67, 24, 1, 13, -6, -26, -32,-1.0073041995135275,0.8664299251805833
1503610330488,-0.449,-0.177,+0.384,+0.787,+0.843,+0.105,-0.598,-0.062,+14.438,-0.688,52, -3, 12, 18, 31, 12, -10, 13,-1.0058424406521256,0.8712110095990517
1503610330509,-0.450,-0.179,+0.387,+0.785,+0.843,+0.141,-0.595,+6.750,+15.875,-2.250,39, 8, 5, 6, 13, -5, -9, 6,-1.0098482001945053,0.879287430034473
1503610330525,-0.449,-0.181,+0.387,+0.784,+0.875,+0.131,-0.577,+10.938,+6.938,+8.812,5, 9, 20, 15, 8, 1, 0, -14,-1.0090535655038002,0.8808238775360151
1503610330548,-0.448,-0.184,+0.387,+0.785,+0.854,+0.141,-0.563,+13.688,+1.375,+20.062,-5, 28, 10, 6, -14, -21, -18, -22,-1.0102693250954258,0.8844915519112281
1503610330570,-0.447,-0.187,+0.384,+0.786,+0.824,+0.147,-0.584,+22.438,-5.438,+20.750,-49, -24, -8, -12, -7, -6, -9, -3,-1.010917962372864,0.8815997999544423
1503610330591,-0.447,-0.192,+0.381,+0.786,+0.794,+0.111,-0.584,+30.812,-5.875,+20.125,-15, -14, -3, 4, 8, -11, -26, 5,-1.0155611806836538,0.8808252711199925
1503610330607,-0.447,-0.198,+0.378,+0.786,+0.767,+0.070,-0.592,+34.688,+2.250,+20.625,12, -10, -13, -3, -7, -6, 5, 6,-1.0213249163540403,0.8813351505685667
1503610330629,-0.446,-0.205,+0.376,+0.786,+0.782,+0.057,-0.595,+36.312,+11.688,+22.062,41, 7, 5, -1, -6, 3, 13, 22,-1.0261279727955677,0.8850815920986859
1503610330654,-0.445,-0.212,+0.375,+0.785,+0.804,+0.075,-0.594,+38.500,+18.312,+24.500,1, -8, -8, -8, -9, 0, 9, 12,-1.0308296228194058,0.8906529427062752
1503610330667,-0.444,-0.220,+0.373,+0.784,+0.815,+0.081,-0.600,+43.250,+17.812,+24.875,-16, 3, 4, -17, -15, -16, 6, -8,-1.0366042439182914,0.895459529816719
1503610330690,-0.445,-0.228,+0.371,+0.783,+0.809,+0.065,-0.584,+49.000,+11.062,+23.625,-20, -17, -9, 3, 1, -4, -11, -11,-1.0472234375328873,0.9010336879425255
1503610330711,-0.445,-0.237,+0.367,+0.782,+0.798,+0.009,-0.576,+50.562,+5.500,+22.750,3, -7, -8, -2, 4, 1, -5, 4,-1.0564252424367382,0.9035972963586946
1503610330728,-0.445,-0.245,+0.362,+0.782,+0.791,-0.051,-0.567,+49.125,+0.938,+22.688,2, 0, -4, -2, -2, -3, -21, -8,-1.0648359829929932,0.9034954846375743
1503610330749,-0.445,-0.253,+0.358,+0.781,+0.782,-0.085,-0.564,+46.812,+1.812,+22.625,2, 0, -2, 1, 6, 16, 30, 5,-1.0732245053856273,0.9053267142893986
1503610330771,-0.445,-0.260,+0.354,+0.781,+0.771,-0.097,-0.556,+44.125,+2.500,+21.812,7, 15, 8, -5, -9, -5, -20, -15,-1.0809635758185305,0.9064889509586509
1503610330788,-0.444,-0.268,+0.350,+0.780,+0.767,-0.121,-0.563,+40.812,+3.250,+21.875,-36, -27, -12, -5, -7, -14, 7, -15,-1.0873902930661403,0.9084933794425283
1503610330809,-0.443,-0.274,+0.346,+0.780,+0.782,-0.151,-0.552,+37.125,+3.188,+19.812,-25, -10, 12, 2, 1, -1, -1, -3,-1.0918204004764447,0.9083324688596717
1503610330831,-0.443,-0.281,+0.344,+0.779,+0.792,-0.143,-0.534,+33.062,+8.375,+15.188,7, 0, 6, 4, 3, -3, 0, -1,-1.1000939621986776,0.9138030012088519
1503610330847,-0.443,-0.286,+0.343,+0.777,+0.786,-0.087,-0.531,+30.312,+12.750,+9.625,5, 5, -2, 1, -2, 3, 0, 4,-1.1057019096007765,0.9181651460292024
1503610330869,-0.443,-0.291,+0.343,+0.775,+0.777,-0.056,-0.521,+30.750,+18.438,+6.750,16, -15, -1, 3, 0, -12, -2, 10,-1.111670348069452,0.9246794879648607
1503610330891,-0.444,-0.297,+0.344,+0.772,+0.791,-0.072,-0.526,+31.938,+22.875,+3.000,-1, -3, -5, -7, 0, 1, -1, 2,-1.1212950063328488,0.9347797681876244
1503610330907,-0.445,-0.303,+0.346,+0.768,+0.822,-0.099,-0.524,+32.125,+26.750,-0.625,4, 5, -5, -1, -1, -1, -2, -1,-1.1309496462787685,0.9466587842458386
1503610330930,-0.446,-0.309,+0.348,+0.765,+0.824,-0.133,-0.481,+29.875,+31.250,-2.250,-2, 4, -1, 0, 1, 3, 2, 13,-1.1411468559549256,0.9590889949310772
1503610330951,-0.446,-0.315,+0.350,+0.761,+0.820,-0.125,-0.491,+26.500,+31.062,-1.250,-6, -1, -5, -6, -9, -4, -6, -3,-1.1488419502836063,0.9708954850397071
1503610330967,-0.447,-0.320,+0.353,+0.757,+0.815,-0.076,-0.476,+24.938,+32.188,-0.688,2, 6, 2, 3, 2, 0, 0, -10,-1.1577720084513357,0.9836655321852361
1503610330992,-0.447,-0.326,+0.357,+0.753,+0.812,-0.045,-0.450,+27.625,+38.125,-2.625,7, -3, 4, 5, 5, 1, -1, 15,-1.1663079988240532,0.9998292093202013
1503610331011,-0.448,-0.332,+0.361,+0.748,+0.834,-0.072,-0.447,+30.562,+45.062,-4.562,4, -4, -5, -1, 0, 2, -1, -14,-1.1769288844558419,1.0161088671384244
1503610331027,-0.447,-0.339,+0.366,+0.742,+0.849,-0.122,-0.466,+28.125,+51.000,-3.812,-3, -3, -1, 2, 3, 1, -2, -3,-1.184683202056216,1.0351521496498426
1503610331049,-0.447,-0.345,+0.371,+0.738,+0.850,-0.093,-0.436,+23.375,+50.062,-2.500,3, -4, -5, -1, -4, -7, -10, 3,-1.1940354016472499,1.0538454880885775
1503610331071,-0.447,-0.350,+0.375,+0.733,+0.863,-0.060,-0.410,+26.000,+41.375,-5.188,-4, -2, -2, -3, -3, 1, 3, -4,-1.2013643088045782,1.0685830054973866
1503610331090,-0.449,-0.356,+0.379,+0.727,+0.877,-0.105,-0.416,+32.000,+42.562,-11.000,7, 5, -4, -1, -1, -4, -4, -1,-1.2145785753569827,1.0854604624241473
1503610331109,-0.449,-0.363,+0.383,+0.721,+0.896,-0.179,-0.402,+29.812,+49.438,-13.125,-11, -1, 4, -1, 1, 3, 14, -18,-1.22516973642038,1.1035535406945378
1503610331132,-0.449,-0.369,+0.388,+0.716,+0.923,-0.217,-0.402,+18.938,+47.188,-11.250,1, 0, -4, -6, -1, -6, -6, -1,-1.2348725055135663,1.122506425730461
1503610331147,-0.449,-0.372,+0.391,+0.712,+0.936,-0.194,-0.396,+13.125,+33.250,-7.125,18, 5, -1, -4, -3, 2, 9, 10,-1.2394635373266045,1.132562157202833
1503610331170,-0.450,-0.375,+0.393,+0.709,+0.958,-0.202,-0.379,+14.312,+20.938,-12.250,-18, 1, 1, -2, -2, -1, -30, -4,-1.246346810343285,1.1412675085006465
1503610331191,-0.451,-0.378,+0.395,+0.706,+0.947,-0.251,-0.360,+12.188,+15.875,-14.750,-29, -10, 0, 2, 3, 4, 8, -4,-1.253266414151419,1.150008939973192
1503610331207,-0.451,-0.380,+0.395,+0.705,+0.983,-0.277,-0.354,+5.750,+6.250,-4.125,4, -1, 0, 2, 2, 1, 3, 8,-1.2564076703866256,1.1532414840864367
1503610331229,-0.450,-0.381,+0.394,+0.705,+0.973,-0.306,-0.358,+1.312,+2.125,+4.125,-3, -8, -9, -7, 0, -2, 2, -5,-1.2557021290872388,1.1526655653462132
1503610331251,-0.448,-0.383,+0.393,+0.706,+0.944,-0.319,-0.373,-1.562,+2.062,+4.000,15, 8, -4, -4, -7, 0, 2, 7,-1.254831823725622,1.1538972456838588
1503610331267,-0.447,-0.383,+0.392,+0.707,+0.920,-0.288,-0.396,-6.625,-1.688,+8.375,6, 19, 26, 6, 0, 0, 12, 4,-1.2526920261737848,1.1518597055128803
1503610331291,-0.445,-0.383,+0.390,+0.709,+0.922,-0.257,-0.378,-8.438,-8.625,+12.250,7, -10, -10, 2, -4, -5, -4, 14,-1.248411542517831,1.1477828627966014
1503610331311,-0.444,-0.383,+0.388,+0.711,+0.925,-0.273,-0.346,-2.375,-8.562,+6.000,-7, -5, -2, 0, -2, -2, -3, -6,-1.2463105349809982,1.1440274235720795
1503610331327,-0.444,-0.384,+0.387,+0.711,+0.900,-0.312,-0.360,+2.625,-4.562,+0.938,-1, 0, -2, -2, -1, 9, 4, 4,-1.2477979399610293,1.1437868225568948
1503610331349,-0.444,-0.385,+0.385,+0.712,+0.875,-0.308,-0.376,-0.312,-6.375,+2.562,0, 6, 2, -3, -4, 1, 0, 9,-1.2493274810962474,1.1418436143411794
1503610331371,-0.443,-0.385,+0.383,+0.713,+0.869,-0.299,-0.380,-0.625,-7.500,+3.812,4, 2, -3, -3, 3, -1, -2, -1,-1.2469337939250504,1.1377720681374206
1503610331387,-0.443,-0.385,+0.381,+0.714,+0.867,-0.301,-0.375,+1.438,-8.188,+1.000,-1, 3, -1, -2, -2, 4, 6, 25,-1.246720732738326,1.1340347226879282
1503610331409,-0.444,-0.386,+0.379,+0.714,+0.874,-0.288,-0.386,+2.625,-5.375,-1.500,-16, -2, 1, 1, 2, -1, -2, -23,-1.2501508388030302,1.1321255859926513
1503610331431,-0.444,-0.386,+0.378,+0.715,+0.837,-0.247,-0.391,+3.750,-3.938,+0.125,-9, -5, 3, 2, 1, -1, -6, -6,-1.2501882796668253,1.1304296015310416
1503610331447,-0.445,-0.386,+0.375,+0.716,+0.865,-0.248,-0.375,+3.062,-13.812,+4.125,11, -3, -7, -1, -2, -5, -2, 5,-1.2519185735165508,1.1250326484516016
1503610331470,-0.445,-0.386,+0.372,+0.717,+0.887,-0.267,-0.364,+5.375,-15.562,+6.875,19, 24, -9, -7, -2, 3, 3, 24,-1.2514598629096172,1.1193121255124039
1503610331492,-0.446,-0.387,+0.369,+0.718,+0.875,-0.276,-0.363,+6.312,-17.938,+5.750,-7, 3, 4, -1, -3, -1, 3, 12,-1.2549441412915308,1.1157826958976353
1503610331507,-0.448,-0.386,+0.364,+0.720,+0.892,-0.280,-0.392,+6.500,-29.188,-0.188,3, -2, -3, -12, -13, -3, -5, 2,-1.2569469156805526,1.1053040200912208
1503610331530,-0.452,-0.384,+0.359,+0.721,+0.864,-0.268,-0.412,+8.875,-36.812,-9.000,19, -7, -3, -2, -2, 1, 4, 46,-1.2614051286009968,1.0934432689299243
1503610331552,-0.457,-0.381,+0.353,+0.722,+0.844,-0.237,-0.414,+11.188,-45.312,-15.000,0, -18, -2, 0, 2, -2, 1, 1,-1.2662444056864908,1.078230925947971
1503610331568,-0.464,-0.378,+0.347,+0.722,+0.834,-0.218,-0.419,+15.250,-48.438,-23.125,0, 19, 22, 7, 4, 1, 4, -15,-1.2754714119646102,1.063551715339612
1503610331590,-0.472,-0.376,+0.342,+0.720,+0.816,-0.226,-0.431,+22.312,-41.625,-31.375,-13, -2, 5, 1, -2, -1, -1, -27,-1.288549302083649,1.052471038357055
1503610331612,-0.480,-0.374,+0.337,+0.718,+0.811,-0.238,-0.479,+24.625,-37.688,-33.875,16, 24, 3, -1, -3, -5, -8, 8,-1.3018622304806169,1.0415045522446922
1503610331627,-0.489,-0.372,+0.332,+0.716,+0.796,-0.202,-0.494,+27.125,-36.312,-38.375,1, -2, -1, -2, -1, -1, 2, 8,-1.3177107796700742,1.0310429611196208
1503610331650,-0.499,-0.370,+0.328,+0.712,+0.875,-0.184,-0.464,+30.812,-40.000,-44.438,10, -4, -4, 0, -3, -1, -1, -8,-1.3358396422674959,1.0222989670495208
1503610331672,-0.508,-0.369,+0.323,+0.708,+0.891,-0.206,-0.489,+34.938,-32.938,-44.125,-9, -7, 4, -1, 0, -1, 1, -2,-1.3533940768283932,1.0131912535952565
1503610331694,-0.518,-0.368,+0.319,+0.703,+0.839,-0.153,-0.529,+40.500,-30.312,-45.000,-3, 9, -2, -5, -4, -1, -1, 1,-1.3735149850179718,1.006128824850781
1503610331710,-0.530,-0.367,+0.314,+0.697,+0.831,-0.137,-0.512,+47.062,-32.688,-57.500,10, 13, -2, 8, 2, 1, -3, -11,-1.3983563949413658,0.9977858281316928
1503610331732,-0.541,-0.369,+0.311,+0.689,+0.906,-0.183,-0.430,+49.500,-26.062,-57.875,-29, -11, -8, -4, -3, -2, 1, -1,-1.4258571259909087,0.9976927310828683
1503610331747,-0.549,-0.371,+0.308,+0.683,+0.892,-0.179,-0.467,+45.500,-10.812,-40.250,20, 10, 6, 0, -2, -2, 4, 11,-1.4468365684610822,0.997198627605921
1503610331770,-0.555,-0.374,+0.307,+0.677,+0.826,-0.115,-0.490,+40.688,+6.125,-35.312,14, -4, 0, 4, 3, 3, 0, -3,-1.4649883247088995,1.0014605252076862
1503610331795,-0.560,-0.379,+0.309,+0.669,+0.838,-0.093,-0.471,+39.812,+23.000,-37.625,-23, -14, -5, -5, -3, -1, -3, -10,-1.4840619369452808,1.0138681588755352
1503610331807,-0.562,-0.386,+0.311,+0.662,+0.944,-0.134,-0.446,+35.375,+37.000,-20.562,5, 1, 0, -2, -1, -1, 0, 2,-1.4994671995454611,1.0293434297058055
1503610331830,-0.560,-0.393,+0.315,+0.657,+0.968,-0.147,-0.411,+24.688,+43.500,-1.750,-7, -18, 1, -4, 0, -1, 0, 0,-1.5059088504948008,1.0475888935787223
1503610331852,-0.558,-0.399,+0.319,+0.654,+0.969,-0.126,-0.404,+13.375,+44.312,+5.000,15, 9, -4, -4, -4, 0, 3, 9,-1.5110661152683127,1.0646823388931554
1503610331868,-0.554,-0.405,+0.323,+0.652,+0.984,-0.111,-0.381,+7.188,+37.750,+11.000,6, 12, -3, -10, -9, -2, -2, -2,-1.5118046058533823,1.0814403618515362
1503610331890,-0.550,-0.410,+0.325,+0.651,+1.003,-0.136,-0.409,+5.875,+33.625,+25.500,-18, -11, -14, -9, -3, -3, -3, -7,-1.511026366146109,1.0930868962211435
1503610331912,-0.544,-0.415,+0.325,+0.653,+1.023,-0.173,-0.421,+6.188,+24.750,+38.688,5, 11, 1, 1, 2, 2, 2, 1,-1.50592411791417,1.1013980435627118
1503610331928,-0.539,-0.420,+0.323,+0.655,+0.969,-0.194,-0.393,+9.438,+13.125,+41.812,-6, -21, -8, 6, 6, 1, 0, 2,-1.503212363332225,1.1066035925194826
1503610331950,-0.536,-0.424,+0.319,+0.657,+0.927,-0.235,-0.381,+11.375,+4.000,+35.688,-5, -15, -12, -12, -8, -1, 0, 0,-1.5033414588072642,1.1070763838715296
1503610331972,-0.532,-0.428,+0.317,+0.658,+0.896,-0.260,-0.355,+11.000,+9.438,+28.125,-8, -35, -31, -3, -1, -5, -6, -5,-1.501339010029371,1.1104805357402097
1503610331987,-0.527,-0.433,+0.317,+0.658,+0.857,-0.257,-0.347,+7.688,+26.125,+27.812,0, 35, 18, 1, -3, -3, -5, -7,-1.4990600070390983,1.1188774370473102
1503610332010,-0.521,-0.440,+0.319,+0.658,+0.825,-0.233,-0.365,+7.750,+42.938,+29.688,-1, -37, 10, 2, 2, 0, 1, 7,-1.498569964551348,1.134718944764094
1503610332032,-0.517,-0.446,+0.321,+0.656,+0.879,-0.240,-0.384,+12.688,+48.188,+18.938,16, 16, -1, 1, -1, -2, 1, 4,-1.5008427759455236,1.1488440040784562
1503610332047,-0.514,-0.451,+0.324,+0.654,+0.910,-0.260,-0.351,+12.375,+38.062,+4.938,-20, -19, -15, -5, 0, 0, 0, 3,-1.5037100392598566,1.1631250183267932
1503610332070,-0.513,-0.454,+0.325,+0.652,+0.899,-0.230,-0.352,+11.062,+18.938,-1.312,-1, 20, 26, 6, -2, 0, 0, -15,-1.5071617301408542,1.1704154496147439
1503610332092,-0.514,-0.455,+0.325,+0.650,+0.833,-0.217,-0.347,+10.875,+7.812,-5.625,8, 10, 21, 7, 2, 2, -1, -1,-1.511156572530242,1.1724054590178106
1503610332107,-0.515,-0.457,+0.326,+0.648,+0.784,-0.213,-0.339,+10.938,+16.625,-10.312,-22, 9, -1, 0, -3, 1, 5, -1,-1.5171377283519456,1.1783151804818957
1503610332130,-0.517,-0.459,+0.329,+0.644,+0.832,-0.201,-0.334,+12.750,+22.812,-18.938,3, 7, 4, 15, 22, 2, 2, 9,-1.5253073437845173,1.1875936899239836
1503610332152,-0.518,-0.460,+0.332,+0.640,+0.881,-0.215,-0.322,+9.188,+20.188,-23.562,-15, 3, 6, -4, -10, -4, -2, -6,-1.5293612750970822,1.1943663180571544
1503610332168,-0.521,-0.460,+0.335,+0.636,+0.902,-0.186,-0.321,+4.688,+13.188,-24.562,5, -7, -11, -5, -4, -4, 1, 11,-1.5358763625771255,1.1996801436783566
1503610332190,-0.524,-0.459,+0.338,+0.633,+0.864,-0.166,-0.336,+2.875,+10.312,-28.562,3, 15, 5, 6, 4, -1, -11, -16,-1.5405221561055256,1.2030881069413375
1503610332212,-0.528,-0.457,+0.341,+0.629,+0.861,-0.164,-0.314,+2.875,+6.750,-36.062,10, 2, -15, -5, -1, -2, -2, -2,-1.545456889702598,1.2044482821237112
1503610332227,-0.532,-0.456,+0.345,+0.625,+0.911,-0.177,-0.284,+2.312,+1.812,-39.312,2, 4, 6, -1, -5, 1, 1, -1,-1.5523426625447085,1.209717096859888
1503610332250,-0.536,-0.453,+0.346,+0.623,+0.994,-0.214,-0.317,-0.500,-11.438,-32.562,1, 13, 12, 1, 0, 0, -3, -9,-1.5555223580575972,1.2059424612235325
1503610332272,-0.539,-0.450,+0.346,+0.623,+0.976,-0.221,-0.353,-8.000,-14.812,-17.188,8, 0, -5, -4, -1, 1, 0, 1,-1.5565978047093478,1.2006051113734757
1503610332287,-0.539,-0.447,+0.347,+0.624,+0.928,-0.185,-0.309,-19.375,-10.188,-3.812,-9, -10, -4, -4, -3, -1, -4, -6,-1.5511221978327197,1.19633928747845
1503610332310,-0.539,-0.444,+0.349,+0.625,+0.921,-0.151,-0.295,-20.688,-2.062,-4.312,-14, -7, -3, 0, 4, 3, 6, 3,-1.5457055746263006,1.1939010342980896
1503610332336,-0.539,-0.441,+0.350,+0.626,+0.936,-0.169,-0.324,-15.688,-9.625,-8.438,-15, -11, -6, 0, 0, 0, 1, -1,-1.5403074084093065,1.1897250511168294
1503610332347,-0.540,-0.438,+0.350,+0.628,+0.961,-0.194,-0.344,-18.375,-13.000,-7.562,22, -2, -12, -8, -7, -2, -1, 6,-1.5371872820325765,1.1843946094639375
1503610332370,-0.540,-0.434,+0.352,+0.629,+0.939,-0.164,-0.315,-25.938,-8.625,-5.125,-29, -22, -10, -7, -7, -7, -5, -10,-1.5301143570010511,1.1800564240552565
1503610332392,-0.539,-0.431,+0.354,+0.631,+0.918,-0.124,-0.312,-26.250,-4.812,+1.000,6, 2, 5, 2, 3, 3, -4, 1,-1.5226929759018897,1.1777733846046627
1503610332407,-0.538,-0.428,+0.356,+0.633,+0.919,-0.123,-0.336,-22.938,-5.188,+0.312,4, 6, 3, -6, -19, -1, 4, 4,-1.5153232148989033,1.175553334941522
1503610332431,-0.538,-0.425,+0.358,+0.634,+0.930,-0.151,-0.334,-20.250,-2.875,-8.125,2, 5, 2, 1, 1, -2, -2, 1,-1.5101884661897846,1.1734486700595057
1503610332452,-0.538,-0.423,+0.361,+0.634,+0.945,-0.173,-0.348,-19.938,+1.125,-12.562,-1, -2, -4, 3, 6, 3, 5, 1,-1.5068348472343485,1.1749540696255356
1503610332467,-0.539,-0.419,+0.363,+0.634,+0.896,-0.126,-0.353,-21.188,-3.250,-18.125,4, 5, 6, 1, 2, 1, 0, 3,-1.5022195013311759,1.1710131318354349
1503610332490,-0.542,-0.414,+0.366,+0.634,+0.894,-0.029,-0.345,-19.500,-10.562,-23.688,1, -2, -1, 1, 1, -2, -8, -5,-1.500549868350699,1.1676933867740307
1503610332512,-0.545,-0.409,+0.368,+0.633,+0.917,-0.002,-0.389,-12.250,-7.312,-22.625,-2, 1, 1, 1, 4, 0, 2, 3,-1.4988837838434919,1.1623310387648977
1503610332527,-0.547,-0.407,+0.369,+0.632,+0.910,-0.068,-0.413,-3.875,-1.375,-14.688,-3, -1, -3, 0, -4, -1, -2, -3,-1.5000476532767804,1.1606689862534056
1503610332550,-0.547,-0.406,+0.370,+0.632,+0.933,-0.086,-0.408,-4.062,+0.500,-4.875,-2, -3, -2, -1, 1, -2, 4, 4,-1.4984219307200026,1.1606006559525364
1503610332572,-0.548,-0.404,+0.370,+0.632,+0.944,-0.035,-0.371,-5.875,-6.188,-1.000,0, 0, 0, -1, -1, -3, -7, -5,-1.4973529803270806,1.1570591403034496
1503610332587,-0.549,-0.403,+0.371,+0.632,+0.921,+0.003,-0.385,-3.312,-3.500,-2.188,2, 2, 6, 5, 2, 0, -1, -9,-1.498031998760697,1.1573311349767015
1503610332610,-0.550,-0.401,+0.370,+0.633,+0.866,+0.007,-0.411,-3.625,-7.875,+6.750,-2, -11, -12, -13, -6, -2, 0, 12,-1.4970180525145789,1.1522351983962436
1503610332636,-0.547,-0.401,+0.368,+0.636,+0.917,-0.027,-0.395,-8.062,-3.750,+27.500,3, 4, 4, 3, 1, 1, 0, -1,-1.4902580418255023,1.1484060823348539
1503610332654,-0.545,-0.401,+0.368,+0.638,+0.971,-0.074,-0.361,-4.312,+0.000,+21.562,-1, 2, 7, -1, 2, 0, 2, 1,-1.485849068645219,1.1483516458564396
1503610332669,-0.543,-0.402,+0.366,+0.640,+0.992,-0.077,-0.369,-4.125,-6.312,+19.312,1, -6, -19, -11, -5, -4, -4, 1,-1.4829870792803799,1.1464671683172725
1503610332691,-0.540,-0.402,+0.363,+0.644,+0.949,-0.093,-0.419,-2.188,-9.812,+33.875,5, -9, -12, -2, -1, -2, -5, 3,-1.4762897022399921,1.1410587930936693
1503610332714,-0.535,-0.404,+0.359,+0.649,+0.958,-0.119,-0.359,-4.688,-11.438,+47.562,0, 20, -2, -6, -2, -2, -2, -7,-1.4684454336167028,1.137266216923165
1503610332729,-0.531,-0.406,+0.357,+0.653,+0.983,-0.083,-0.365,-3.375,-3.438,+46.312,-6, -20, 1, 5, 0, -1, 1, -2,-1.4630102329309693,1.1372510389509805
1503610332751,-0.528,-0.409,+0.355,+0.655,+0.924,-0.068,-0.397,+10.375,+5.750,+32.438,20, 10, -37, -4, -3, -2, -1, 3,-1.461395462194649,1.138931663160226
1503610332777,-0.527,-0.412,+0.351,+0.655,+0.893,-0.151,-0.388,+20.812,+0.250,+24.188,-13, -13, -11, -10, -4, -2, -2, -6,-1.4639622537614736,1.1370359299457442
1503610332789,-0.526,-0.416,+0.348,+0.655,+0.906,-0.224,-0.351,+19.938,+2.000,+18.750,17, 15, -16, -3, -3, -4, -4, -2,-1.4684205539427928,1.1390439659416356
1503610332812,-0.525,-0.420,+0.347,+0.654,+0.882,-0.197,-0.320,+16.938,+14.938,+5.875,-5, -35, -6, -12, -2, -2, 0, 2,-1.473018790978223,1.1445206490563509
1503610332836,-0.526,-0.424,+0.348,+0.650,+0.868,-0.160,-0.343,+21.125,+19.312,-6.875,1, -7, -3, -10, -6, -4, -3, 4,-1.4820570197455363,1.153567141836144
1503610332848,-0.527,-0.428,+0.348,+0.646,+0.899,-0.208,-0.339,+25.312,+15.938,-13.500,-14, -5, 6, -14, -21, -5, -8, -11,-1.491096043252612,1.1608528197514498
1503610332872,-0.529,-0.431,+0.348,+0.642,+0.906,-0.238,-0.312,+24.125,+12.062,-17.188,-2, 4, 1, 4, -5, 0, 3, -1,-1.5006550884535625,1.166519627172846
1503610332893,-0.532,-0.434,+0.348,+0.639,+0.870,-0.230,-0.313,+20.938,+8.562,-18.438,3, 0, -17, 1, 10, 5, 4, 5,-1.5125706355594424,1.1728480573394677
1503610332908,-0.534,-0.436,+0.348,+0.635,+0.856,-0.229,-0.323,+19.000,+8.438,-21.562,6, 12, 13, 5, -3, -2, 0, 0,-1.5204170435310815,1.176540447795939
1503610332931,-0.538,-0.437,+0.348,+0.631,+0.902,-0.227,-0.318,+18.750,+5.312,-26.188,-7, 13, 16, 11, 7, 3, 0, -5,-1.530970299183566,1.1788735710437688
1503610332954,-0.541,-0.438,+0.347,+0.629,+0.965,-0.235,-0.333,+15.250,-5.188,-18.438,21, 22, 15, 9, 9, 5, 7, 16,-1.5393709943188258,1.179620189160269
1503610332976,-0.542,-0.438,+0.345,+0.628,+0.922,-0.241,-0.304,+8.938,-10.000,-5.250,2, 10, 1, -8, -11, -6, -1, 5,-1.5415220676388117,1.176115930240371
1503610332991,-0.544,-0.439,+0.344,+0.627,+0.868,-0.198,-0.300,+7.812,-3.750,-7.312,-17, -11, 2, -3, -5, -2, -2, -8,-1.5477504019814443,1.1768184891080247
1503610333014,-0.546,-0.439,+0.346,+0.624,+0.897,-0.182,-0.298,+10.438,+5.750,-21.812,-19, -11, -4, -5, 0, -3, -7, -9,-1.55219709702542,1.1802571780778117
1503610333028,-0.549,-0.440,+0.348,+0.619,+0.971,-0.158,-0.327,+9.625,+12.125,-31.812,-18, -9, -6, 3, 9, 2, 0, -9,-1.5606557070453586,1.1855691312028285
1503610333051,-0.552,-0.440,+0.351,+0.615,+0.911,-0.116,-0.366,+10.062,+12.250,-26.375,-8, -18, 1, 4, 2, -1, -6, -13,-1.56736258583606,1.1908519537111433
1503610333074,-0.555,-0.441,+0.351,+0.612,+0.873,-0.100,-0.348,+14.750,+9.500,-16.188,0, -8, -8, 5, 6, -2, 0, 3,-1.5758645308090726,1.1931234001919022
1503610333088,-0.556,-0.444,+0.351,+0.609,+1.034,-0.134,-0.315,+21.188,+7.062,-9.188,11, -14, -11, 15, 24, -1, -4, 0,-1.5834804991097575,1.1989025097426866
1503610333112,-0.553,-0.448,+0.349,+0.609,+1.030,-0.165,-0.347,+13.562,+14.312,+27.438,-3, 5, 1, -18, -19, -8, -2, -1,-1.5840030563418483,1.2027478253843042
1503610333134,-0.549,-0.452,+0.348,+0.610,+0.880,-0.166,-0.249,+5.625,+15.438,+28.000,-2, 12, 12, -3, -2, 3, 6, 0,-1.582386954165009,1.208352921564568
1503610333149,-0.549,-0.454,+0.350,+0.608,+0.939,-0.133,-0.264,+7.062,+16.562,-5.438,2, 4, 3, -1, -3, 3, 4, 4,-1.5860521393969826,1.2156038216207843
1503610333173,-0.550,-0.455,+0.352,+0.606,+1.014,-0.132,-0.255,+2.250,+5.312,-10.125,-3, -12, 7, 4, 0, 0, -3, 0,-1.5900964064469822,1.2210673055709802
1503610333194,-0.551,-0.453,+0.351,+0.607,+1.022,-0.149,-0.240,-7.688,-18.188,-4.438,11, 5, -4, -6, 6, 4, 2, 0,-1.5886479543258116,1.2156451423845869
1503610333209,-0.554,-0.447,+0.351,+0.609,+0.958,-0.085,-0.267,-18.000,-35.750,-7.812,3, 17, 6, 7, 3, -10, -8, -8,-1.5844010534150026,1.2045108991626614
1503610333231,-0.556,-0.441,+0.350,+0.612,+0.879,-0.055,-0.295,-22.750,-34.438,+0.062,17, 5, 0, 0, -13, -4, -2, 6,-1.5781088513674748,1.1916782232972498
1503610333254,-0.555,-0.437,+0.351,+0.614,+0.831,-0.096,-0.343,-25.375,-5.375,+1.500,2, 9, 7, 0, -2, -3, 0, 2,-1.5687605393624937,1.1853867336011321
1503610333268,-0.553,-0.435,+0.355,+0.615,+0.895,-0.116,-0.342,-24.875,+10.625,-3.812,-13, -10, -9, -11, -14, 2, -4, -9,-1.5607546033431892,1.1880413705674622
1503610333291,-0.550,-0.434,+0.357,+0.617,+1.037,-0.136,-0.386,-21.250,+11.062,+10.688,2, 7, -1, -4, -2, 1, 2, 1,-1.5522991002569915,1.189149607698598
1503610333314,-0.546,-0.434,+0.356,+0.622,+1.020,-0.174,-0.360,-20.750,-3.562,+31.250,3, -15, -15, 3, 4, 2, -5, -2,-1.5434249777990143,1.1873791412969321
1503610333328,-0.542,-0.433,+0.354,+0.627,+0.929,-0.182,-0.324,-19.812,-13.125,+33.188,-6, 1, 11, 19, 9, 0, -14, -24,-1.532797202874036,1.181753539551685
1503610333351,-0.540,-0.432,+0.353,+0.630,+0.870,-0.162,-0.334,-12.375,-4.062,+16.188,-8, -19, -46, -20, -8, -2, 4, 8,-1.5266274330162946,1.1780554625321251
1503610333374,-0.538,-0.433,+0.354,+0.631,+0.920,-0.190,-0.365,-6.875,+13.312,+9.188,-1, -9, 2, -4, -1, -2, -3, 2,-1.5240186402036295,1.181510530448541
1503610333388,-0.535,-0.435,+0.356,+0.631,+0.942,-0.202,-0.340,-10.250,+24.125,+8.938,-7, -14, -7, -8, -2, 0, 4, 5,-1.5209842831575529,1.188228468160703
1503610333412,-0.533,-0.436,+0.358,+0.631,+0.864,-0.138,-0.301,-8.312,+15.688,+5.625,5, 12, -13, -1, -3, -3, -6, -1,-1.5184185601278732,1.1932550132556181
1503610333434,-0.532,-0.437,+0.360,+0.629,+0.861,-0.129,-0.298,+0.625,+12.375,-4.812,10, 18, 21, 10, 4, -1, -3, 5,-1.517980149262562,1.1980882239990445
1503610333449,-0.533,-0.438,+0.362,+0.627,+0.906,-0.151,-0.320,+7.062,+17.375,-12.438,-2, 2, 0, 7, 0, 0, 12, 3,-1.5219926012670826,1.2035765034122659
1503610333475,-0.536,-0.438,+0.361,+0.624,+0.934,-0.153,-0.321,+11.562,-4.125,-17.688,-23, 0, 12, 0, 2, -1, -5, -12,-1.5284733359942646,1.2019200643020151
1503610333494,-0.539,-0.437,+0.359,+0.624,+0.919,-0.178,-0.304,+12.438,-17.375,-10.312,10, 14, 11, -5, -6, -1, 1, 3,-1.5332849629513277,1.1972000517085075
1503610333509,-0.541,-0.437,+0.357,+0.623,+0.863,-0.173,-0.305,+8.562,-10.625,-4.562,-1, 2, 6, 1, 5, 2, -2, -1,-1.5376476712384595,1.193957560276183
1503610333531,-0.543,-0.438,+0.356,+0.622,+0.878,-0.162,-0.301,+9.250,-4.500,-9.375,-7, -17, -13, -20, -24, -5, -1, -3,-1.543847817121421,1.1945890090023612
1503610333554,-0.546,-0.437,+0.355,+0.620,+0.947,-0.179,-0.313,+8.812,-7.312,-14.250,13, 22, 54, 18, 7, 3, 7, 11,-1.548689345561402,1.1911825910554772
1503610333569,-0.548,-0.436,+0.354,+0.620,+0.948,-0.173,-0.343,+4.500,-8.875,-10.562,-1, -14, -20, -6, 2, -4, -4, -4,-1.5513696629655038,1.1879887500842745
1503610333591,-0.550,-0.436,+0.354,+0.619,+0.992,-0.164,-0.312,+4.875,-11.812,-10.500,1, -16, -10, -1, 1, 0, -4, 0,-1.555833640402143,1.1883799030002589
1503610333614,-0.552,-0.434,+0.351,+0.619,+1.031,-0.147,-0.364,+7.125,-24.312,-2.750,-8, -5, -9, 0, 6, 3, -2, -7,-1.5567492934056244,1.1795649800434842
1503610333628,-0.552,-0.434,+0.348,+0.622,+0.963,-0.204,-0.285,+0.438,-16.188,+16.688,0, 5, 1, 3, 1, 4, 5, -3,-1.5567593505208872,1.1750153223011601
1503610333659,-0.550,-0.434,+0.347,+0.623,+0.906,-0.170,-0.288,-5.375,-6.625,+9.875,-17, 13, -5, -8, -12, -6, -1, 1,-1.552260108281222,1.1728227072901016
1503610333678,-0.551,-0.433,+0.347,+0.623,+0.915,-0.132,-0.301,-6.625,-4.562,-3.938,3, -5, -5, 3, 6, 0, 4, 1,-1.552744454657345,1.1711118875256936
1503610333689,-0.553,-0.431,+0.350,+0.622,+0.937,-0.130,-0.274,-10.875,-5.562,-21.875,10, -11, -11, -6, -5, -1, 4, 4,-1.5537613389447766,1.1727938478343358
1503610333711,-0.555,-0.427,+0.353,+0.620,+0.917,-0.107,-0.298,-16.812,-7.438,-26.125,3, 3, 3, -2, 0, 1, 3, 6,-1.5513052713437765,1.170175222412672
1503610333734,-0.557,-0.422,+0.354,+0.621,+0.943,-0.084,-0.324,-21.812,-17.062,-14.750,-3, -5, -6, -11, -16, -4, -2, -14,-1.5472445480306074,1.1628478592260367
1503610333750,-0.557,-0.417,+0.356,+0.624,+0.950,-0.084,-0.344,-27.562,-20.812,-4.812,5, 5, 7, 5, 9, 4, 6, 7,-1.53882867157513,1.1573347945280703
1503610333771,-0.557,-0.412,+0.356,+0.627,+0.934,-0.051,-0.368,-28.500,-21.875,+2.438,-11, -6, -2, 1, 3, -2, -4, -2,-1.5304742611332804,1.1482973650036286
1503610333794,-0.557,-0.407,+0.356,+0.630,+0.915,-0.062,-0.421,-25.125,-21.625,+5.875,7, 6, 1, 0, 2, 5, 8, 5,-1.5222224174522216,1.1393562769293395
1503610333809,-0.557,-0.402,+0.354,+0.634,+0.939,-0.097,-0.448,-22.562,-21.938,+10.562,-21, -4, 6, 8, 7, 2, 1, -6,-1.5140458905117669,1.1271410077391812
1503610333831,-0.556,-0.398,+0.353,+0.639,+0.977,-0.111,-0.398,-23.375,-27.750,+16.125,-5, 0, -4, -1, 2, -3, -8, -6,-1.5054167881760812,1.1187454201958018
1503610333854,-0.554,-0.394,+0.351,+0.644,+0.935,-0.089,-0.402,-24.000,-28.188,+16.750,-8, -4, -2, 8, 3, -4, -7, -17,-1.494494950452495,1.1082241963684158
1503610333869,-0.555,-0.389,+0.349,+0.647,+0.848,-0.054,-0.414,-18.750,-25.938,+7.125,-10, 5, 2, -6, -5, -6, -3, -2,-1.488825562187759,1.0962887625383488
1503610333891,-0.555,-0.386,+0.349,+0.649,+0.867,-0.075,-0.433,-13.312,-15.750,+1.625,23, 4, -2, 2, 3, 1, -5, 5,-1.4841714256730567,1.0912361715708445
1503610333914,-0.553,-0.386,+0.349,+0.651,+0.913,-0.121,-0.433,-12.562,-0.500,+13.625,-4, 21, -3, -5, -2, -2, 0, 4,-1.4796939457802207,1.0911674325602803
1503610333928,-0.550,-0.386,+0.349,+0.653,+0.933,-0.118,-0.417,-12.500,+7.375,+19.812,-6, 0, 9, 12, 5, 3, -5, -16,-1.4728970218084163,1.0907397281492717
1503610333951,-0.548,-0.387,+0.350,+0.654,+0.913,-0.087,-0.428,-5.062,+7.250,+8.750,21, -9, -7, -5, -3, -2, -3, 5,-1.4700395387234155,1.0940952807103268
1503610333978,-0.548,-0.387,+0.350,+0.653,+0.913,-0.123,-0.404,+2.438,-0.375,+0.312,19, -8, -4, -1, -2, -1, 1, 26,-1.4699283653246225,1.0937714928760192
1503610333988,-0.549,-0.387,+0.349,+0.654,+0.926,-0.151,-0.396,-1.562,-8.438,+1.062,1, -8, -10, -8, -3, -3, -1, -4,-1.4722918206980276,1.092597301720578
1503610334011,-0.549,-0.386,+0.348,+0.655,+0.913,-0.130,-0.415,-5.375,-12.438,+4.250,-21, -12, -9, -4, 5, 1, 3, -7,-1.4707053310674063,1.0891749360111982
1503610334034,-0.549,-0.385,+0.346,+0.656,+0.870,-0.114,-0.437,-2.188,-10.312,+4.500,10, 18, 28, 9, 6, 5, 3, -4,-1.4690437729832544,1.0839040129847695
1503610334049,-0.549,-0.384,+0.345,+0.657,+0.847,-0.124,-0.401,-0.875,-7.938,+3.188,14, 2, -20, -5, -3, -2, 1, 9,-1.467463740203182,1.0804906171456201
1503610334071,-0.549,-0.385,+0.345,+0.657,+0.840,-0.134,-0.384,-1.562,+3.125,+0.938,-10, 2, 18, 27, 17, 2, 2, -6,-1.4690773533812866,1.0823794768825183
1503610334094,-0.548,-0.385,+0.347,+0.656,+0.837,-0.129,-0.389,-5.625,+12.438,-2.812,-15, -19, -23, -19, -11, -3, -4, -1,-1.4667869361251715,1.0853947825420878
1503610334111,-0.547,-0.385,+0.350,+0.656,+0.872,-0.108,-0.396,-10.500,+17.062,-2.188,24, 4, -5, -8, -3, 0, 5, -7,-1.4646972260886384,1.0906091979710626
1503610334131,-0.545,-0.386,+0.353,+0.655,+0.906,-0.113,-0.417,-10.625,+21.250,+0.938,1, -2, -1, -2, -3, -3, 2, 9,-1.4617909791368795,1.0970505089237819
1503610334154,-0.543,-0.386,+0.356,+0.655,+0.917,-0.109,-0.413,-11.188,+12.438,-0.062,10, 8, 1, -11, -5, 2, 3, 15,-1.4573989438410908,1.1019605543221032
1503610334168,-0.543,-0.385,+0.357,+0.655,+0.906,-0.065,-0.412,-12.500,+2.562,-1.812,10, 4, -12, -9, -7, -4, -1, 2,-1.4558622998273678,1.101958269084065
1503610334191,-0.542,-0.384,+0.359,+0.655,+0.887,-0.076,-0.415,-7.312,+5.438,+0.312,-16, -11, -2, 0, 3, 2, -2, 2,-1.452095357703466,1.1034980700377695
1503610334216,-0.541,-0.386,+0.359,+0.655,+0.858,-0.143,-0.454,-2.062,+15.750,+5.375,3, -3, 0, 5, 3, 0, 0, 0,-1.4530245986916737,1.1069009845583122
1503610334228,-0.538,-0.388,+0.361,+0.655,+0.922,-0.173,-0.396,-2.812,+21.812,+5.312,-20, -3, -4, -1, 5, -5, -4, -6,-1.449532072757261,1.1133936063426269
1503610334251,-0.536,-0.391,+0.364,+0.654,+0.950,-0.142,-0.378,-2.000,+29.312,+5.250,9, 9, 16, -1, -5, 0, 2, 5,-1.4500098485688853,1.123712853101039
1503610334274,-0.534,-0.394,+0.366,+0.652,+0.936,-0.136,-0.379,+3.500,+22.250,+1.938,-2, 10, 20, 4, 1, 1, -3, -5,-1.4503196857464595,1.1318644792041985
1503610334289,-0.534,-0.397,+0.367,+0.651,+0.946,-0.156,-0.368,+6.562,+13.500,-0.875,4, -1, -4, -3, -4, 0, 1, 0,-1.4552957198058571,1.139143182377462
1503610334311,-0.534,-0.398,+0.366,+0.650,+0.955,-0.173,-0.383,+9.688,+3.312,-1.062,6, 0, 8, 2, 0, -2, 0, -1,-1.456756618106861,1.13884930177586
1503610334333,-0.536,-0.399,+0.364,+0.649,+0.928,-0.160,-0.370,+11.875,-10.312,-7.375,-9, -8, -2, -3, -4, 0, -1, -3,-1.4627158003392366,1.1373550523602332
1503610334349,-0.540,-0.397,+0.361,+0.648,+0.912,-0.147,-0.344,+9.750,-23.750,-14.062,16, -6, -17, -7, -4, -1, -2, 0,-1.4681831662707048,1.128944043961129
1503610334371,-0.543,-0.395,+0.359,+0.649,+0.863,-0.167,-0.307,+1.500,-31.062,-12.312,-5, -24, -12, -6, -6, -1, 0, 1,-1.4717191097200217,1.1227215881511594
1503610334393,-0.544,-0.392,+0.358,+0.650,+0.834,-0.153,-0.313,-11.250,-21.938,-9.938,-16, -5, -6, -2, -3, -1, 0, -2,-1.469110746364672,1.1158002241735248
1503610335457,-0.534,-0.462,+0.247,+0.664,+0.814,-0.311,-0.411,+42.688,+6.625,+15.438,10, 11, 4, 2, 3, 4, 10, 18,-1.567809286669853,1.068601622690866
1503610335473,-0.534,-0.467,+0.243,+0.662,+0.820,-0.342,-0.402,+41.938,+1.875,+13.250,64, 27, 1, -7, -9, -5, -3, 8,-1.5777449867692714,1.0731559702478335
1503610335490,-0.534,-0.472,+0.239,+0.659,+0.814,-0.328,-0.372,+37.500,+4.688,+11.250,-13, 2, 0, 4, 5, 5, 1, -1,-1.587880441993341,1.0776718785603523
1503610335512,-0.534,-0.477,+0.236,+0.657,+0.791,-0.317,-0.341,+34.312,+5.250,+9.750,-5, -7, -6, -2, 3, 2, 7, 8,-1.5981626615184237,1.0842060531343576
1503610335534,-0.535,-0.481,+0.233,+0.654,+0.792,-0.319,-0.394,+34.500,+5.250,+7.250,-2, 19, 7, -1, -1, 0, 0, 4,-1.6088459375562236,1.0887881445715977
1503610335550,-0.536,-0.486,+0.229,+0.652,+0.815,-0.360,-0.387,+35.375,+2.000,+4.250,3, 1, -12, -13, -9, -5, 0, -7,-1.621736883110895,1.0946155588626745
1503610335571,-0.537,-0.489,+0.226,+0.649,+0.813,-0.362,-0.367,+33.125,-4.188,+3.500,-3, -8, -4, -2, 1, 0, 1, -1,-1.6306124292913469,1.0970949594940593
1503610335594,-0.539,-0.491,+0.222,+0.647,+0.796,-0.356,-0.341,+27.188,-8.625,+2.750,-4, 1, 4, -4, 2, 3, -22, -12,-1.6397268928412634,1.0964426473260753
1503610335610,-0.540,-0.494,+0.219,+0.645,+0.788,-0.340,-0.358,+24.688,-5.250,+2.125,10, 3, 18, -2, -7, 1, 5, 7,-1.6487042397295832,1.0993454167240444
1503610335632,-0.542,-0.495,+0.216,+0.644,+0.801,-0.348,-0.377,+23.625,-6.500,+0.875,10, 8, -3, -4, -3, -3, -8, -15,-1.655661568186814,1.098113740546468
1503610335656,-0.544,-0.497,+0.213,+0.642,+0.817,-0.367,-0.376,+23.625,-11.500,+1.750,-20, 1, 7, 2, 1, -2, 2, -7,-1.6648797512260731,1.0991927277150209
1503610335670,-0.546,-0.497,+0.209,+0.641,+0.802,-0.388,-0.380,+19.688,-18.688,+3.562,-10, -15, -24, -9, -7, -4, -5, 5,-1.669895790381808,1.094120665902895
1503610335692,-0.547,-0.497,+0.205,+0.641,+0.800,-0.393,-0.371,+12.125,-16.375,+4.000,7, -1, 0, 4, 6, 6, 2, 7,-1.6725798930346065,1.0888037390642924
1503610335714,-0.548,-0.497,+0.203,+0.641,+0.825,-0.377,-0.362,+5.625,-11.188,+4.812,-10, 10, 15, 9, 6, -2, 2, 1,-1.6750548891030408,1.0864138414380804
1503610335736,-0.549,-0.497,+0.201,+0.641,+0.821,-0.369,-0.371,+6.062,-10.750,+4.938,-14, -30, -16, -10, -9, -6, -5, 4,-1.6775368447846668,1.0840361918687447
1503610335752,-0.550,-0.497,+0.199,+0.641,+0.821,-0.388,-0.380,+8.562,-11.562,+4.250,7, -1, 5, 7, 5, 4, 1, 2,-1.6800257368519689,1.0816707842875701
1503610335773,-0.551,-0.497,+0.197,+0.641,+0.823,-0.416,-0.378,+4.938,-11.250,+1.688,1, -19, -8, -1, 1, -1, -5, -12,-1.682521541558616,1.0793176123123966
1503610335791,-0.552,-0.496,+0.197,+0.641,+0.835,-0.416,-0.389,-0.438,-7.625,+0.000,8, 15, 12, 6, 5, -1, 0, 8,-1.6826531733122505,1.077333255385838
1503610335812,-0.552,-0.495,+0.197,+0.642,+0.837,-0.380,-0.368,-6.062,-7.250,+1.000,-2, -3, -7, -6, -6, -7, -2, -5,-1.6803998224246948,1.0750425891177713
1503610335834,-0.552,-0.493,+0.198,+0.642,+0.850,-0.386,-0.368,-12.562,-5.125,-0.688,-23, -4, -3, -1, 0, -2, -20, -14,-1.6760545647755614,1.0715013753587284
1503610335850,-0.553,-0.491,+0.198,+0.644,+0.842,-0.397,-0.396,-14.688,-8.562,-0.062,-20, -25, 0, -3, -6, -2, -1, -9,-1.673859873664145,1.0674804090713668
1503610335872,-0.553,-0.489,+0.199,+0.645,+0.828,-0.400,-0.396,-13.938,-7.438,-3.125,15, 26, -3, 3, 5, 0, 0, 0,-1.6694407456931306,1.0642000226279251
1503610335894,-0.553,-0.487,+0.201,+0.646,+0.836,-0.410,-0.397,-17.438,-1.812,-1.688,13, 9, 15, 5, 2, 4, 5, 32,-1.6649483303762,1.0624043979959343
1503610335909,-0.552,-0.484,+0.202,+0.648,+0.851,-0.411,-0.413,-23.375,-3.188,+2.500,-6, 4, 0, -5, -4, 1, 1, -7,-1.6561277520518995,1.0564453474195368
1503610335932,-0.552,-0.481,+0.204,+0.650,+0.841,-0.387,-0.425,-23.562,-4.250,+3.688,11, -3, -5, 10, 4, 1, 1, -12,-1.6495630022999053,1.0525398226822138
1503610335953,-0.551,-0.479,+0.205,+0.652,+0.833,-0.411,-0.438,-19.125,+0.562,+4.125,-11, -11, -15, -13, -11, -7, -5, 6,-1.6429024181638503,1.0491126624707106
1503610335969,-0.549,-0.478,+0.207,+0.653,+0.834,-0.381,-0.442,-14.688,+7.000,+5.000,-26, 0, 3, 0, 1, 1, -1, -15,-1.636034162676686,1.0488656053554457
1503610335992,-0.547,-0.478,+0.209,+0.655,+0.835,-0.396,-0.398,-14.312,+7.250,+6.688,-1, -7, -9, 1, 0, 1, -1, 12,-1.631163278502254,1.05127155030645
1503610336013,-0.545,-0.477,+0.210,+0.656,+0.833,-0.399,-0.401,-18.688,+6.250,+7.562,-4, -1, -3, -8, -2, -3, 0, 4,-1.6243926136575215,1.0495685719626846
1503610336036,-0.544,-0.475,+0.212,+0.659,+0.812,-0.365,-0.418,-20.812,+4.500,+8.438,-2, 3, 4, 6, 2, -3, 5, -9,-1.617715672860138,1.0479830476284733
1503610336052,-0.542,-0.474,+0.215,+0.661,+0.819,-0.367,-0.441,-20.812,+7.938,+7.250,-24, 5, -15, -14, -11, -1, 0, 5,-1.610846871826859,1.0496011836852646
1503610336073,-0.540,-0.472,+0.217,+0.662,+0.828,-0.378,-0.446,-21.312,+8.062,+5.375,24, -15, -16, -10, -8, 3, 5, 3,-1.6020622271498157,1.0471349092108977
1503610336096,-0.538,-0.470,+0.219,+0.664,+0.838,-0.369,-0.427,-23.812,+2.938,+3.938,-19, -11, 17, 12, 5, -3, -4, -1,-1.593271581658809,1.0449515705523365
1503610336112,-0.538,-0.467,+0.222,+0.666,+0.814,-0.338,-0.411,-26.000,-0.812,-0.125,17, 2, -6, 1, 4, -1, -4, 9,-1.5871007119907825,1.0430587662564212
1503610336134,-0.536,-0.464,+0.225,+0.668,+0.802,-0.378,-0.430,-27.188,+5.312,+0.125,4, -6, -1, 0, 2, 0, 0, -10,-1.5764012226048183,1.0402446797007565
1503610336158,-0.535,-0.462,+0.228,+0.670,+0.848,-0.383,-0.466,-27.438,+7.250,+2.688,1, 24, 20, 0, 0, -6, -2, -20,-1.5700826356877888,1.04033815224097
1503610336176,-0.533,-0.459,+0.230,+0.672,+0.874,-0.362,-0.466,-28.750,+2.500,+2.750,-12, -5, -9, -5, -7, -6, -6, 9,-1.5595190795789016,1.0361158852066044
1503610336198,-0.532,-0.455,+0.233,+0.675,+0.838,-0.338,-0.430,-29.438,+0.688,+2.000,14, 1, -8, -6, 2, 4, 6, -6,-1.5494048814220072,1.0320633160028285
1503610336216,-0.531,-0.452,+0.237,+0.677,+0.799,-0.351,-0.413,-32.188,+3.000,-0.812,-14, 2, -7, 4, 3, 1, -3, 6,-1.5413691698510794,1.0317543181316091
1503610336235,-0.529,-0.449,+0.241,+0.679,+0.816,-0.350,-0.428,-36.438,+10.312,-3.062,-16, 1, 0, -3, -2, 0, 0, -1,-1.531112421813932,1.0310699582469864
1503610336254,-0.527,-0.446,+0.246,+0.681,+0.835,-0.338,-0.461,-37.500,+12.062,-1.500,-3, -17, -10, -2, -2, 2, 1, -4,-1.5209979027173335,1.0321555489988228
1503610336276,-0.525,-0.442,+0.251,+0.683,+0.840,-0.329,-0.467,-39.000,+8.000,-1.750,1, -21, -9, -5, -5, -6, 2, 3,-1.5090857516055354,1.0312060512241248
1503610336293,-0.523,-0.437,+0.255,+0.685,+0.840,-0.308,-0.468,-40.688,+5.625,-4.688,2, 16, 10, 4, 1, 2, 1, -4,-1.495353757744798,1.0266099438684122
1503610336314,-0.523,-0.431,+0.259,+0.688,+0.833,-0.274,-0.478,-41.188,-2.688,-4.375,14, -18, -12, -4, -4, 1, -1, 4,-1.4846599191135734,1.021326517714115
1503610336336,-0.522,-0.425,+0.262,+0.691,+0.794,-0.258,-0.519,-39.062,-4.375,-2.500,-16, -7, -4, 0, -2, 1, 1, -12,-1.4717867321330433,1.0141207084425001
1503610336352,-0.522,-0.420,+0.264,+0.694,+0.806,-0.257,-0.539,-33.562,-4.062,-1.750,27, 7, 3, 2, 3, 0, -4, 0,-1.4631798569220287,1.0079753188330134
1503610336375,-0.521,-0.416,+0.265,+0.697,+0.816,-0.260,-0.544,-27.188,-9.125,+4.875,-8, 4, 0, 2, 3, 5, 6, 2,-1.4540801829765153,1.0018423812390644
1503610336396,-0.521,-0.411,+0.264,+0.700,+0.781,-0.260,-0.542,-26.000,-18.500,+10.000,-13, 3, 18, 7, 5, -2, -1, -7,-1.4454270995251453,0.9907682732994728
1503610336412,-0.520,-0.405,+0.262,+0.705,+0.760,-0.263,-0.536,-26.938,-26.438,+11.562,2, -7, -8, -7, -5, -3, -2, -4,-1.4329546114971476,0.9761838852550069
1503610336435,-0.520,-0.399,+0.260,+0.709,+0.784,-0.283,-0.527,-25.562,-31.000,+9.625,-1, 2, -3, -4, -3, 2, 0, -4,-1.4228670814947204,0.9619140835879323
1503610336456,-0.520,-0.395,+0.258,+0.712,+0.784,-0.312,-0.510,-22.312,-27.062,+8.812,-9, -1, -4, -8, -5, 0, 12, -3,-1.4162098796948555,0.951423327885373
1503610336472,-0.520,-0.391,+0.255,+0.716,+0.762,-0.300,-0.517,-22.250,-27.312,+9.375,-9, -13, -8, -5, -6, -4, -6, 1,-1.4096735909845493,0.9395646641557184
1503610336501,-0.519,-0.385,+0.253,+0.720,+0.769,-0.286,-0.506,-25.250,-30.875,+11.438,2, 18, 3, -1, 1, -2, -5, 1,-1.3976039550962487,0.9251460893689887
1503610336516,-0.519,-0.381,+0.252,+0.723,+0.771,-0.280,-0.497,-26.438,-25.750,+9.562,-5, -5, -1, 0, -2, -2, -5, 3,-1.391361151457749,0.916628237392931
1503610336534,-0.518,-0.377,+0.251,+0.726,+0.766,-0.305,-0.502,-24.938,-20.812,+6.250,2, 5, 5, -3, -6, 1, 1, -2,-1.3827986864262174,0.9076940942415644
1503610336554,-0.517,-0.373,+0.250,+0.729,+0.774,-0.316,-0.519,-25.188,-17.938,+5.688,5, -4, -7, 1, 0, -4, -6, -1,-1.374314321794853,0.8988279969289108
1503610336576,-0.517,-0.369,+0.250,+0.731,+0.760,-0.310,-0.538,-27.125,-16.250,+3.125,4, 5, 6, 5, 1, -1, 0, 6,-1.3682635970519812,0.8919541648269707
1503610336594,-0.516,-0.365,+0.251,+0.733,+0.749,-0.300,-0.528,-26.875,-13.125,+0.562,0, 6, 6, 2, 1, 0, -1, -5,-1.3600319486271737,0.8864421681026418
1503610336614,-0.515,-0.362,+0.253,+0.735,+0.753,-0.305,-0.517,-28.562,-3.188,-3.062,-13, -4, 3, -1, 0, 1, -3, -1,-1.3536240697596582,0.8846352847897525
1503610336638,-0.515,-0.359,+0.257,+0.735,+0.744,-0.289,-0.532,-26.375,+12.875,-11.625,4, 0, 1, -2, -1, 0, 0, 0,-1.349549209653935,0.8862699285276325
1503610336652,-0.515,-0.357,+0.262,+0.734,+0.726,-0.255,-0.579,-23.000,+14.062,-18.938,6, -4, -6, -7, -5, -4, 0, 8,-1.3470033360407139,0.891248938791075
1503610336674,-0.517,-0.355,+0.267,+0.732,+0.734,-0.244,-0.577,-16.750,+18.500,-26.500,-1, 2, -3, -4, -5, -3, 1, 5,-1.3490606033974581,0.8968558637864161
1503610336696,-0.519,-0.354,+0.272,+0.729,+0.724,-0.263,-0.540,-13.500,+22.750,-37.375,4, 3, 2, 1, 1, 1, 0, -5,-1.3524332440466988,0.903943761102767
1503610336712,-0.522,-0.354,+0.278,+0.724,+0.772,-0.271,-0.562,-10.500,+26.125,-40.875,-7, -5, 1, 1, 1, 0, -2, -10,-1.3594478096158578,0.9144000683473344
1503610336734,-0.525,-0.353,+0.284,+0.720,+0.810,-0.242,-0.583,-6.438,+24.125,-39.062,-2, 3, 7, 7, 3, -1, -3, 0,-1.3651401016903648,0.9233970211046971
1503610336756,-0.529,-0.353,+0.288,+0.716,+0.825,-0.239,-0.565,-1.188,+19.688,-43.250,-2, -5, -5, -5, -4, -1, 15, 2,-1.3744729572383658,0.9309891795699173
1503610336778,-0.534,-0.354,+0.292,+0.710,+0.865,-0.251,-0.509,+7.125,+13.250,-48.812,1, -2, -12, -9, 0, 0, -1, -5,-1.3873355373455953,0.9400867135874826
1503610336796,-0.540,-0.355,+0.295,+0.704,+0.907,-0.283,-0.491,+15.188,+7.688,-48.562,6, -2, -6, -6, -6, -4, -6, 4,-1.4025173166711704,0.9477693393914552
1503610336817,-0.545,-0.357,+0.295,+0.698,+0.910,-0.294,-0.491,+20.562,+0.312,-43.500,-2, -1, 3, 1, -2, -2, -3, -4,-1.4165403124487985,0.9514196931733355
1503610336839,-0.551,-0.359,+0.294,+0.693,+0.884,-0.291,-0.504,+23.062,-2.438,-38.562,-2, -5, -5, -5, -4, -2, -1, -3,-1.4331424135543194,0.954083207294647
1503610336854,-0.555,-0.362,+0.294,+0.689,+0.871,-0.281,-0.493,+24.688,+1.500,-35.562,-28, -5, -1, 4, 5, -4, -30, -7,-1.4467875477213392,0.959925994101189
1503610336876,-0.560,-0.365,+0.294,+0.683,+0.868,-0.249,-0.495,+26.562,+8.312,-33.188,5, 0, 1, 0, -1, 2, 4, 0,-1.4626529500348673,0.9655611356430948
1503610336892,-0.563,-0.369,+0.295,+0.678,+0.867,-0.232,-0.476,+27.438,+15.438,-30.375,-10, -7, -12, -24, -22, -10, -1, 6,-1.4755433417292736,0.974392768093471
1503610336914,-0.566,-0.374,+0.295,+0.673,+0.872,-0.229,-0.483,+29.625,+18.875,-21.438,7, -4, -2, -3, -6, -3, 6, 0,-1.49001947218244,0.9834358689728774
1503610336936,-0.568,-0.379,+0.295,+0.668,+0.885,-0.218,-0.479,+28.750,+17.000,-16.500,10, 4, 9, -2, -4, -1, -1, 0,-1.5022292923778595,0.992176979872679
1503610336952,-0.570,-0.384,+0.296,+0.664,+0.883,-0.208,-0.423,+26.812,+14.312,-17.375,6, 1, -3, -1, 3, 1, 0, 38,-1.5146847386513793,1.0030957763597652
1503610336974,-0.572,-0.389,+0.296,+0.659,+0.873,-0.230,-0.401,+26.812,+16.000,-17.438,1, 4, 1, -2, 4, 4, 4, 109,-1.527143219884051,1.012058394338734
1503610336998,-0.573,-0.394,+0.297,+0.655,+0.854,-0.267,-0.410,+23.562,+21.875,-17.562,-7, 16, 22, 20, 12, 7, 5, 8,-1.537426840493884,1.0227549411375199
1503610337012,-0.573,-0.399,+0.300,+0.650,+0.871,-0.247,-0.437,+16.562,+38.375,-18.750,3, -3, 15, 7, 3, 0, 0, -56,-1.545463943518131,1.0362592919448512
1503610337034,-0.572,-0.404,+0.305,+0.645,+0.875,-0.173,-0.473,+10.938,+50.500,-14.438,-6, 2, -4, 2, 7, 1, 0, -104,-1.5512929483255733,1.0528943780669502
1503610337056,-0.571,-0.408,+0.310,+0.642,+0.896,-0.087,-0.477,+10.062,+40.125,-7.188,-1, -22, -11, 5, 0, -1, -6, -67,-1.5555965693716927,1.0682328993847874
1503610337073,-0.571,-0.411,+0.312,+0.639,+0.937,-0.060,-0.466,+12.312,+20.875,-4.125,-2, -6, -9, -4, -6, -3, 0, -45,-1.560579708472972,1.0768258321232405
1503610337095,-0.573,-0.412,+0.311,+0.637,+0.880,-0.072,-0.470,+16.000,+5.500,-6.500,3, -7, -14, -6, -5, 1, -2, 42,-1.5668886787734817,1.0773118809567923
1503610337117,-0.576,-0.412,+0.310,+0.635,+0.825,-0.080,-0.466,+17.500,-3.438,-8.562,9, 9, 3, 2, 1, -2, 0, 18,-1.573876482410258,1.0761830004105575
1503610337132,-0.578,-0.412,+0.309,+0.633,+0.815,-0.086,-0.459,+15.562,+0.312,-7.438,5, 12, 4, -3, -1, 0, 0, -7,-1.5785580113832822,1.0746654391662542
1503610337155,-0.579,-0.414,+0.309,+0.631,+0.842,-0.081,-0.440,+12.750,+9.938,-3.000,-8, -10, 6, 3, 3, -1, -1, -8,-1.5842504842751646,1.0785295947645333
1503610337177,-0.579,-0.416,+0.310,+0.629,+0.881,-0.083,-0.424,+9.625,+13.125,+2.500,-1, 12, 5, 0, -1, 0, -2, 3,-1.587619201079649,1.083721909992386
1503610337192,-0.579,-0.417,+0.310,+0.628,+0.908,-0.094,-0.436,+7.312,+5.250,+3.312,2, -31, -20, -2, 1, 0, 1, 20,-1.5893179120086078,1.0854702380450905
1503610337215,-0.580,-0.417,+0.309,+0.628,+0.914,-0.121,-0.431,+5.875,-6.688,+1.250,-10, -1, -1, 0, 2, -1, -8, -2,-1.591659545523022,1.084160425589018
1503610337238,-0.582,-0.415,+0.307,+0.629,+0.881,-0.130,-0.422,+3.812,-15.875,-0.812,0, 2, -1, 0, -1, -2, 1, 0,-1.5929798749704274,1.0777599789798933
1503610337252,-0.583,-0.414,+0.305,+0.629,+0.869,-0.124,-0.432,+2.312,-14.188,-3.062,-2, 7, 4, -2, -1, -1, 0, 2,-1.5936838639865443,1.072723810166748
1503610337275,-0.584,-0.413,+0.305,+0.629,+0.855,-0.120,-0.430,-0.625,-5.000,-2.500,6, -7, -4, 2, -1, -2, -2, -7,-1.5943576995865951,1.0710866065880427
1503610337299,-0.584,-0.413,+0.305,+0.629,+0.891,-0.123,-0.430,-2.688,-0.062,+0.688,15, 30, 13, -1, -1, 0, -1, 6,-1.5943576995865951,1.0710866065880427
1503610337312,-0.584,-0.412,+0.306,+0.628,+0.921,-0.121,-0.422,-2.312,+0.562,+1.500,-19, -17, -11, -9, 1, -1, 0, -2,-1.5927073368353584,1.0704522357572301
1503610337338,-0.584,-0.412,+0.306,+0.628,+0.932,-0.128,-0.423,-0.312,-1.500,+0.250,4, 6, -3, -1, -5, -2, -2, -1,-1.5927073368353584,1.0704522357572301
1503610337357,-0.585,-0.411,+0.306,+0.628,+0.896,-0.140,-0.421,-0.375,-8.688,-2.688,2, -16, -10, -3, 1, -2, 2, 4,-1.5933943051445887,1.0688207522021997
1503610337372,-0.587,-0.410,+0.305,+0.628,+0.882,-0.135,-0.417,-1.062,-11.438,-5.812,-15, 9, -2, 5, 4, 0, -2, -4,-1.5964527563436708,1.065895776680023
1503610337395,-0.588,-0.409,+0.306,+0.627,+0.858,-0.131,-0.421,-2.812,-4.000,-8.875,6, -1, 1, -2, -3, -1, 0, 0,-1.5971656865177664,1.0656682908996449
1503610337417,-0.589,-0.408,+0.307,+0.626,+0.883,-0.128,-0.420,-2.125,+1.562,-10.062,-21, -4, 7, -1, -3, -2, 1, -2,-1.5978864851580996,1.065444177046264
1503610337441,-0.590,-0.408,+0.308,+0.625,+0.906,-0.139,-0.432,+0.812,+2.312,-9.625,6, -1, 5, 6, 1, -1, -1, 3,-1.6002449057153436,1.0672427397457622
1503610337455,-0.592,-0.408,+0.308,+0.624,+0.910,-0.144,-0.429,+2.000,-4.188,-9.938,0, -14, 1, 2, 0, -1, 0, 5,-1.604976016687317,1.0677378937172028
1503610337477,-0.594,-0.407,+0.307,+0.622,+0.876,-0.140,-0.411,+2.312,-9.750,-14.312,3, 3, -5, -6, -3, -1, 2, -3,-1.6081663895116924,1.0642163782975098
1503610337492,-0.597,-0.405,+0.308,+0.620,+0.859,-0.130,-0.408,+2.938,-6.438,-20.000,11, 51, 22, 3, 4, 2, 1, -1,-1.6120637027390785,1.0624676896573
1503610337515,-0.599,-0.405,+0.309,+0.618,+0.855,-0.131,-0.435,+3.750,+4.562,-21.812,4, -12, -11, 0, -1, -2, -2, -2,-1.616846436488167,1.0643519531977375
1503610337538,-0.601,-0.406,+0.311,+0.615,+0.865,-0.130,-0.436,+4.500,+10.062,-21.062,8, -11, 1, 2, 0, 1, 1, 4,-1.6232547029778714,1.0696410119906143
1503610337552,-0.603,-0.406,+0.312,+0.612,+0.907,-0.118,-0.429,+4.938,+8.250,-18.812,-17, -2, -4, -4, -3, -1, 0, -5,-1.6281160405947508,1.071216818993796
1503610337575,-0.605,-0.406,+0.314,+0.609,+0.906,-0.095,-0.437,+5.562,+4.938,-20.062,-7, -10, -6, -4, -6, 0, -1, 2,-1.6329448538037346,1.0744838984591398
1503610337597,-0.608,-0.406,+0.315,+0.606,+0.874,-0.090,-0.446,+7.062,+4.438,-24.875,-1, -9, -6, -5, -6, -4, -7, -5,-1.640193790053599,1.0764407750017704
1503610337612,-0.611,-0.406,+0.316,+0.602,+0.876,-0.094,-0.436,+7.312,+3.875,-27.375,7, 3, 1, 3, 5, 1, 1, 1,-1.647556349435297,1.0780914396012646
1503610337636,-0.612,-0.406,+0.319,+0.599,+0.916,-0.095,-0.417,+1.438,+9.750,-21.562,-6, -8, -8, -3, -1, -4, -4, -6,-1.650009069683935,1.082656735725235
1503610337656,-0.612,-0.406,+0.321,+0.598,+0.939,-0.081,-0.416,-6.250,+12.938,-8.125,-4, -6, 13, 5, 5, 1, 1, 1,-1.6499772817797143,1.0857536327235267
1503610337673,-0.611,-0.407,+0.324,+0.597,+0.913,-0.073,-0.426,-11.188,+15.312,+0.125,7, 4, -5, -3, -1, -2, -2, 2,-1.649103960422787,1.0922026107964953
1503610337695,-0.609,-0.407,+0.327,+0.597,+0.912,-0.080,-0.424,-14.562,+15.750,-0.688,5, 8, 2, -1, 0, 1, 2, 2,-1.6442151513176775,1.0965868369574623
1503610337717,-0.607,-0.406,+0.330,+0.598,+0.944,-0.072,-0.403,-19.625,+11.438,+2.438,2, -7, -7, -3, 1, -2, -2, 0,-1.6376728598695858,1.099296679368211
1503610337734,-0.604,-0.406,+0.333,+0.600,+0.983,-0.068,-0.419,-23.375,+8.000,+13.250,-10, -10, -6, -2, -5, -1, 0, 0,-1.6303162133340914,1.103984475261137
1503610337755,-0.600,-0.404,+0.334,+0.604,+0.967,-0.047,-0.418,-26.375,+1.000,+22.250,6, -3, -3, 0, 1, 1, 0, 1,-1.6174431787605021,1.1014729817045206
1503610337778,-0.597,-0.402,+0.335,+0.608,+0.894,-0.022,-0.438,-23.062,-7.062,+21.375,0, -16, -1, 0, 2, -1, 1, 4,-1.6069769439788697,1.0993645444437543
1503610337792,-0.597,-0.399,+0.334,+0.611,+0.861,-0.041,-0.456,-14.125,-11.250,+12.625,0, 3, 1, -1, -3, -2, -2, 0,-1.6021293734846724,1.0925968238157122
1503610337815,-0.596,-0.398,+0.333,+0.614,+0.863,-0.088,-0.467,-11.375,-8.562,+13.500,-7, -4, -2, 0, 2, -1, -3, -4,-1.5981127021503985,1.089427801876757
1503610337838,-0.593,-0.397,+0.331,+0.617,+0.882,-0.104,-0.455,-12.812,-4.625,+24.500,12, 2, 2, 0, -2, 0, 0, 4,-1.589411154902157,1.0837635454917947
1503610337852,-0.589,-0.397,+0.330,+0.622,+0.875,-0.104,-0.436,-12.312,-5.125,+30.625,5, -2, -6, -1, -1, 0, 1, 0,-1.5799040191770282,1.0820666558822059
1503610337877,-0.586,-0.397,+0.328,+0.625,+0.860,-0.113,-0.415,-9.750,-1.750,+25.875,5, 28, 5, 0, -4, -2, 1, 8,-1.5728206318374032,1.0783554350667628
1503610337897,-0.583,-0.398,+0.328,+0.627,+0.873,-0.132,-0.426,-7.562,+4.688,+19.625,-7, -13, -10, -7, -3, -3, 0, 1,-1.5673553977947474,1.0798126239623975
1503610337912,-0.580,-0.399,+0.328,+0.630,+0.891,-0.129,-0.420,-9.875,+5.000,+20.375,7, 22, 4, -4, -3, 0, 2, 7,-1.5619324682807407,1.081580411065039
1503610337936,-0.577,-0.399,+0.328,+0.632,+0.890,-0.105,-0.417,-11.688,+1.312,+23.438,-2, -3, -7, 0, -1, 0, -1, -1,-1.5549158692433862,1.0810676294577348
1503610337956,-0.575,-0.399,+0.327,+0.635,+0.882,-0.113,-0.412,-8.000,-2.062,+19.812,18, 4, -4, -4, -3, -3, -1, 1,-1.5502704748842817,1.0794755284579722
1503610337972,-0.574,-0.399,+0.326,+0.637,+0.894,-0.139,-0.406,-4.750,-4.625,+13.625,4, 14, 9, 3, 2, -1, -1, 4,-1.54795840608658,1.0779503847761123
1503610337994,-0.572,-0.399,+0.325,+0.638,+0.896,-0.151,-0.417,-5.562,-3.000,+10.562,8, 4, -9, -2, 1, 2, 1, -1,-1.543276593540846,1.075730823546788
1503610338016,-0.571,-0.399,+0.325,+0.639,+0.886,-0.154,-0.416,-6.375,-0.062,+8.000,-12, -14, -2, -4, -6, -6, -3, -5,-1.5409635483974717,1.075659792203518
1503610338031,-0.570,-0.399,+0.325,+0.640,+0.889,-0.146,-0.413,-6.500,-1.062,+2.562,-21, -16, -4, 2, 0, -4, -8, -21,-1.538654106422013,1.075588742168619
1503610338061,-0.571,-0.398,+0.325,+0.640,+0.882,-0.146,-0.409,-4.625,-7.188,-4.375,-12, 1, -8, -4, -5, 0, 1, 7,-1.5393690978894887,1.0740072815783672
1503610338077,-0.573,-0.396,+0.325,+0.640,+0.859,-0.151,-0.416,-4.875,-7.375,-12.062,13, 16, 5, -3, 0, -2, -1, 0,-1.5408206486701674,1.0708535677952362
1503610338091,-0.575,-0.395,+0.327,+0.638,+0.843,-0.144,-0.417,-5.688,-3.312,-19.250,-8, -6, -7, -4, -4, -1, -5, -6,-1.5438883142118338,1.072575814650728
1503610338115,-0.578,-0.393,+0.328,+0.636,+0.854,-0.135,-0.434,-2.000,-0.625,-27.312,-3, -11, 2, -1, 0, -1, 1, 0,-1.5477053201724809,1.0709569336631561
1503610338144,-0.581,-0.391,+0.329,+0.633,+0.894,-0.140,-0.451,+2.312,-2.875,-30.312,-3, -1, 5, 6, 2, 1, 0, -2,-1.5515445376777277,1.0690247250536238
1503610338151,-0.585,-0.389,+0.329,+0.631,+0.894,-0.137,-0.424,+3.562,-12.500,-28.438,-7, -7, 14, 5, 1, -1, -4, -2,-1.5578141708835782,1.0660183447182723
1503610338177,-0.590,-0.387,+0.328,+0.629,+0.875,-0.122,-0.430,+4.438,-19.125,-26.250,1, 15, 11, 4, 2, 1, 3, 9,-1.5665176316628266,1.0616270013471947
1503610338196,-0.594,-0.385,+0.327,+0.626,+0.855,-0.118,-0.449,+6.250,-13.812,-28.250,7, -9, -13, -10, -3, -1, 1, 1,-1.572927962839055,1.0565456066304257
1503610338211,-0.598,-0.384,+0.326,+0.624,+0.869,-0.122,-0.446,+8.688,-10.562,-24.250,-4, -5, -11, -7, 2, 0, 2, -5,-1.5809497696854082,1.0537286546753526
1503610338234,-0.601,-0.383,+0.325,+0.622,+0.890,-0.116,-0.451,+8.000,-12.125,-18.188,1, -12, -3, 2, 1, 0, -3, -4,-1.586628934101499,1.0505374630589903
1503610338256,-0.604,-0.381,+0.324,+0.620,+0.900,-0.100,-0.453,+8.500,-13.750,-21.125,9, 3, -1, -3, -3, 0, 2, 12,-1.5908308402998386,1.0454197131601082
1503610338275,-0.608,-0.380,+0.323,+0.618,+0.916,-0.094,-0.438,+9.750,-14.250,-25.250,4, 4, 6, 4, -1, 0, -6, -19,-1.5990023878005164,1.0426245743681914
1503610338293,-0.611,-0.379,+0.322,+0.616,+0.877,-0.075,-0.461,+8.750,-13.375,-17.812,0, 6, 2, 0, -1, -1, 1, 8,-1.6048151469590366,1.039452009944026
1503610338317,-0.614,-0.378,+0.321,+0.615,+0.873,-0.061,-0.446,+6.688,-11.625,-11.188,-3, 7, 3, 7, 1, -1, -2, 2,-1.610619093838897,1.036612998843569
1503610338332,-0.616,-0.378,+0.321,+0.613,+0.879,-0.053,-0.444,+6.688,-2.188,-12.938,7, 6, 6, -1, 2, 1, -2, 1,-1.6155408267202573,1.0367292852876588
1503610338353,-0.618,-0.378,+0.321,+0.610,+0.922,-0.041,-0.443,+5.938,-0.250,-15.438,-9, -1, 15, 6, 3, 2, -1, -7,-1.6205387317571562,1.0365180997125107
1503610338378,-0.620,-0.377,+0.321,+0.609,+0.922,-0.044,-0.467,+5.312,-6.812,-15.250,-9, -4, -15, -2, 0, 1, 2, 2,-1.6239535013413366,1.035027668143619
1503610338391,-0.622,-0.375,+0.320,+0.608,+0.890,-0.035,-0.459,+2.312,-12.312,-10.812,-7, -3, 1, 0, -3, -3, -4, -9,-1.6259597449788776,1.0298802587251972
1503610338414,-0.624,-0.374,+0.321,+0.607,+0.875,-0.020,-0.457,-1.625,-8.000,-7.625,-5, -4, -6, -5, 0, 0, 3, 12,-1.6293714045188596,1.0301206772298959
1503610338436,-0.625,-0.373,+0.321,+0.607,+0.877,-0.004,-0.479,-2.562,-2.875,-5.812,-4, -9, -7, -4, 1, -3, -4, -2,-1.6303402084319472,1.028580271229242
1503610338451,-0.626,-0.371,+0.321,+0.606,+0.894,-0.017,-0.485,-1.750,-6.812,-5.312,0, -10, -12, -10, -7, -5, -3, -4,-1.6299451818799198,1.0247879288282487
1503610338477,-0.626,-0.370,+0.321,+0.606,+0.882,-0.021,-0.465,-3.438,-4.688,-5.500,-23, -4, 15, 6, 2, 2, -1, 2,-1.6285007098347575,1.0228683113953159
1503610338496,-0.626,-0.369,+0.322,+0.606,+0.865,-0.002,-0.458,-6.625,-0.562,-1.312,6, 2, -7, -4, -3, -3, -3, -7,-1.62701655265229,1.0226833097878423
1503610338513,-0.626,-0.369,+0.323,+0.606,+0.875,-0.003,-0.483,-6.750,+0.312,+1.500,-3, -2, 10, 2, 0, 0, 2, 5,-1.6269750283984015,1.024417807852262
1503610338533,-0.626,-0.368,+0.323,+0.607,+0.886,-0.021,-0.499,-7.438,-2.688,+2.938,-14, -1, -4, -1, -1, -2, -1, -13,-1.6254680985531273,1.0228421737222995
1503610338556,-0.626,-0.366,+0.323,+0.609,+0.878,-0.027,-0.471,-9.875,-10.500,+4.500,0, -5, -10, -5, -4, 2, 3, 0,-1.6224709684283443,1.0197035102121683
1503610338571,-0.625,-0.364,+0.323,+0.610,+0.854,-0.016,-0.458,-12.500,-10.938,+4.875,-4, 8, 7, 3, 0, -1, 0, -1,-1.6171143787858648,1.0158577716287136
1503610338593,-0.624,-0.362,+0.324,+0.612,+0.846,-0.016,-0.490,-13.875,-3.938,+4.750,-4, -20, -8, -1, -1, -3, 2, 17,-1.611680946715785,1.0141149826331683
1503610338617,-0.623,-0.361,+0.325,+0.613,+0.845,-0.014,-0.509,-15.312,-0.500,+8.000,9, 13, 5, -3, 1, 0, 1, 4,-1.6077368723664096,1.013938466939284
1503610338631,-0.621,-0.359,+0.325,+0.616,+0.864,-0.012,-0.501,-15.625,-2.062,+12.250,-7, -10, -12, -6, -4, -2, -4, -5,-1.5998780293164363,1.0104448951909533
1503610338654,-0.619,-0.358,+0.326,+0.618,+0.876,-0.022,-0.486,-14.750,-3.250,+12.938,8, 7, -1, 0, -1, -2, -5, -8,-1.5934764632325211,1.0102595557866285
1503610338678,-0.617,-0.357,+0.326,+0.620,+0.872,-0.031,-0.490,-14.375,-3.562,+13.938,-30, -3, 2, 2, 1, -3, -8, -18,-1.5871060473502598,1.0083216353783093
1503610338691,-0.616,-0.356,+0.326,+0.623,+0.863,-0.024,-0.484,-14.750,-4.625,+13.875,1, -1, -4, 1, -2, -1, 0, 0,-1.5831840538028612,1.0071199373608661
1503610338714,-0.614,-0.355,+0.326,+0.625,+0.886,-0.029,-0.483,-14.438,-5.188,+15.500,-4, 3, -12, -6, -3, -2, -1, 2,-1.5768445432658689,1.0051958069444813
1503610338736,-0.611,-0.354,+0.326,+0.628,+0.870,-0.044,-0.493,-14.562,-4.000,+18.938,6, 1, 7, 2, 2, -1, 2, 2,-1.5680654835937604,1.0032477669502164
1503610338759,-0.609,-0.353,+0.326,+0.631,+0.856,-0.042,-0.492,-14.188,-5.562,+17.812,3, 1, 10, 1, 0, -2, -1, -2,-1.5617649576962234,1.0016891005774462
1503610338774,-0.607,-0.352,+0.326,+0.633,+0.862,-0.043,-0.478,-12.562,-2.000,+11.062,-1, -3, 4, 6, 2, 1, -2, -5,-1.555472354988306,0.9997859744094357
1503610338796,-0.606,-0.352,+0.327,+0.634,+0.848,-0.052,-0.480,-9.562,+0.000,+8.812,11, 12, -1, -1, 1, 1, -1, 5,-1.5530536303801008,1.0015441918427423
1503610338820,-0.604,-0.352,+0.327,+0.636,+0.860,-0.057,-0.494,-9.938,+0.875,+9.938,-12, -7, -2, -4, -3, -1, -1, -4,-1.5482061889218544,1.001490220154222
1503610338837,-0.602,-0.352,+0.328,+0.638,+0.868,-0.054,-0.483,-11.875,+5.000,+12.688,2, -2, 6, 5, 1, 0, 2, 5,-1.5433935324576744,1.0032293272072526
1503610338856,-0.599,-0.352,+0.329,+0.640,+0.876,-0.047,-0.484,-11.562,+5.188,+17.438,2, -20, -9, -6, -3, -3, 0, -1,-1.5361625274945674,1.0045971782351641
1503610338879,-0.596,-0.353,+0.329,+0.642,+0.857,-0.045,-0.515,-9.438,+3.688,+18.688,14, 9, 3, 2, 0, 1, -1, 2,-1.530368779067934,1.0060020407105235
1503610338893,-0.595,-0.353,+0.328,+0.644,+0.851,-0.062,-0.503,-5.500,-1.375,+13.750,-12, -20, -16, -8, -3, -1, -5, -11,-1.5280017457305306,1.0045268097023654
1503610338917,-0.594,-0.352,+0.327,+0.645,+0.861,-0.070,-0.483,-4.188,-6.875,+9.750,5, -11, 4, -3, -1, -2, 1, 6,-1.5241453077241747,1.000866727590278
1503610338939,-0.593,-0.352,+0.327,+0.647,+0.848,-0.074,-0.488,-6.312,-3.875,+9.875,5, -1, -12, -1, -1, -1, -1, 0,-1.5218214359684226,1.001193213068837
1503610338954,-0.591,-0.352,+0.327,+0.648,+0.845,-0.071,-0.496,-7.500,+2.875,+9.312,-11, -5, -5, -1, -3, 0, -1, -1,-1.5170106546022728,1.0007855951599371
1503610338978,-0.589,-0.353,+0.328,+0.649,+0.855,-0.066,-0.488,-7.938,+7.750,+8.500,-11, -5, 10, 1, -1, -2, -4, -3,-1.5136949594504625,1.0040126756030208
1503610338998,-0.588,-0.353,+0.329,+0.650,+0.869,-0.061,-0.483,-8.938,+4.938,+8.688,-2, 22, 21, 11, 6, 0, -1, -3,-1.5113744943458274,1.0057960784481164
1503610339014,-0.587,-0.352,+0.330,+0.650,+0.862,-0.054,-0.468,-7.688,+0.000,+5.000,11, 7, 2, 2, 0, -1, 1, 10,-1.5075367296288364,1.005406852233057
1503610339036,-0.587,-0.352,+0.330,+0.650,+0.852,-0.059,-0.482,-6.062,-1.000,-1.312,2, 9, 4, 2, 0, -2, -7, -15,-1.5075367296288364,1.005406852233057
1503610339052,-0.587,-0.351,+0.331,+0.650,+0.837,-0.068,-0.487,-6.000,-0.500,-6.188,-3, 0, 0, 0, -3, -1, 1, 9,-1.5061327524211987,1.005403420000914
1503610339074,-0.587,-0.350,+0.332,+0.650,+0.851,-0.041,-0.471,-8.250,+4.188,-5.812,25, 18, 3, -1, 1, 0, 1, 7,-1.5047328847584998,1.0054067588940938
1503610339096,-0.586,-0.350,+0.335,+0.649,+0.847,-0.033,-0.490,-7.938,+13.812,-0.625,-27, -32, -24, -7, -3, -2, 0, -3,-1.5023614255370497,1.0101519680417277
1503610339113,-0.585,-0.351,+0.337,+0.648,+0.848,-0.046,-0.497,-6.188,+18.812,-0.688,-1, -13, -7, -2, 0, -2, 0, -2,-1.501393910956032,1.0148989678420435
1503610339134,-0.584,-0.352,+0.340,+0.647,+0.869,-0.050,-0.480,-5.375,+20.312,-3.562,-6, 4, 4, 1, -1, -1, 2, 2,-1.5004842288239408,1.021496353481298
1503610339156,-0.583,-0.354,+0.343,+0.646,+0.908,-0.049,-0.468,-4.938,+17.250,-2.500,15, 10, 13, 1, 2, 1, 0, 12,-1.5010457962857429,1.0299319477273179
1503610339182,-0.582,-0.355,+0.345,+0.645,+0.904,-0.058,-0.480,-4.750,+18.688,+3.062,-11, -21, -19, -14, -8, -2, 2, 0,-1.5001099576876904,1.0347248119401409
1503610339194,-0.579,-0.357,+0.347,+0.645,+0.909,-0.076,-0.476,-4.562,+17.625,+9.625,-3, 40, 15, 5, 0, 0, 0, 0,-1.4959165843462905,1.040979327244691
1503610339216,-0.576,-0.359,+0.348,+0.646,+0.900,-0.082,-0.454,-6.938,+12.938,+14.562,-11, -17, -9, -1, -1, 1, 4, 5,-1.491804526783701,1.0457473226922118
1503610339238,-0.573,-0.360,+0.347,+0.649,+0.948,-0.068,-0.461,-10.500,+0.000,+22.188,0, 10, 13, 3, 0, 0, 0, -4,-1.4863134085503276,1.0456794028951322
1503610339255,-0.571,-0.359,+0.345,+0.653,+0.875,-0.069,-0.502,-6.375,-11.188,+30.062,2, -4, -1, -3, -1, -2, -2, -5,-1.4802925484595764,1.0408151106208496
1503610339276,-0.568,-0.360,+0.341,+0.657,+0.800,-0.088,-0.502,-1.188,-9.688,+28.625,-11, -16, -7, -7, -4, -1, -2, -1,-1.4747576775961038,1.0355252487156228
1503610339298,-0.565,-0.361,+0.341,+0.659,+0.835,-0.098,-0.440,-3.312,+4.688,+19.938,3, -4, -6, -1, 1, -2, -2, 4,-1.4693086276901146,1.0369416544115924
1503610339315,-0.563,-0.363,+0.342,+0.659,+0.899,-0.082,-0.423,-2.625,+12.000,+12.562,-12, -3, 0, 0, 0, 0, -3, -13,-1.4676383067240177,1.0417133234142677
1503610339344,-0.563,-0.364,+0.341,+0.659,+0.933,-0.056,-0.447,+2.625,-4.125,+7.125,17, 27, 9, 3, 2, 1, 0, -3,-1.4690866710891572,1.0416922842918988
1503610339359,-0.564,-0.363,+0.338,+0.660,+0.914,-0.070,-0.458,+6.812,-19.625,+2.125,-8, -10, -9, -4, -5, -3, -2, -8,-1.4698443402581136,1.035030671681036
1503610339375,-0.567,-0.362,+0.335,+0.660,+0.849,-0.098,-0.460,+10.812,-22.562,-1.062,-10, -4, 2, 0, -2, 0, 0, -1,-1.4752896799668858,1.028794106081344
1503610339396,-0.569,-0.361,+0.332,+0.660,+0.809,-0.111,-0.455,+9.500,-13.125,-8.375,-11, 0, 6, 5, 0, 0, -1, -6,-1.478370182329789,1.0222115759526351
1503610339419,-0.571,-0.361,+0.333,+0.658,+0.808,-0.092,-0.441,+3.688,+1.562,-13.812,2, 3, 11, 4, 2, 0, -1, 2,-1.4830302940651081,1.024101489834886
1503610339434,-0.571,-0.362,+0.335,+0.656,+0.871,-0.085,-0.443,-0.125,+12.688,-13.125,0, -7, -12, -7, -4, -1, -1, 0,-1.484462416602048,1.0289060280714952
1503610339457,-0.572,-0.363,+0.338,+0.653,+0.923,-0.085,-0.455,+0.750,+14.750,-12.875,0, -17, -15, -6, -3, -2, 0, 0,-1.4882632107945044,1.0355821873478157
1503610339471,-0.573,-0.364,+0.339,+0.651,+0.935,-0.087,-0.465,+2.875,+11.812,-12.375,-4, -4, -12, -7, -1, -1, -2, 0,-1.492044344400419,1.0389398188732857
1503610339493,-0.573,-0.365,+0.341,+0.649,+0.902,-0.121,-0.438,-0.625,+9.812,-11.375,-3, -7, -4, 0, 0, -2, -5, -6,-1.4934919971987037,1.0437697315040628
1503610339516,-0.573,-0.365,+0.344,+0.648,+0.840,-0.107,-0.434,-8.688,+12.188,-13.625,0, -3, 5, 2, 0, -1, 2, 6,-1.493572889634326,1.0489512191879173
1503610339538,-0.574,-0.363,+0.348,+0.646,+0.865,-0.019,-0.438,-13.250,+12.125,-17.062,4, -7, -11, 2, 2, 0, -1, 4,-1.4929958911962675,1.0523443705158992
1503610339554,-0.575,-0.362,+0.352,+0.644,+0.903,+0.056,-0.474,-8.562,+12.938,-15.500,6, 22, -15, -6, -6, -4, -4, -4,-1.4939354782566454,1.0576112649217395
1503610339576,-0.576,-0.362,+0.351,+0.644,+0.902,-0.007,-0.529,+1.688,+2.188,+2.312,-7, 5, -2, 0, 1, -1, 2, -2,-1.4962768382402667,1.056107174891072
1503610339598,-0.574,-0.362,+0.348,+0.647,+0.939,-0.116,-0.482,-0.500,-13.250,+20.188,-5, 2, 24, 7, 1, 2, 0, 1,-1.4915823497190106,1.0508575753902036
1503610339617,-0.571,-0.362,+0.347,+0.650,+0.941,-0.097,-0.413,-9.562,-9.125,+24.750,-17, -39, -24, -3, -2, 0, -1, -5,-1.4846211688083348,1.048958395863968
1503610339636,-0.568,-0.363,+0.346,+0.653,+0.887,-0.056,-0.446,-8.312,+2.062,+24.625,2, -16, -13, -3, -2, -2, 0, -4,-1.4791967487903237,1.0488840494392624
1503610339659,-0.566,-0.364,+0.345,+0.655,+0.896,-0.079,-0.484,-3.250,-0.812,+20.500,-11, 4, 5, 1, 1, 0, 0, 3,-1.4760834762370836,1.048823625446963
1503610339673,-0.563,-0.365,+0.344,+0.657,+0.921,-0.100,-0.432,-3.375,-4.312,+19.125,9, 13, 6, 11, 13, 3, 1, 1,-1.4706063243802645,1.0483965870731735
1503610339696,-0.561,-0.365,+0.344,+0.659,+0.870,-0.092,-0.411,-6.875,-1.250,+16.688,-6, -9, -11, -7, -4, -2, -2, -2,-1.466076209111537,1.0483544955253405
1503610339718,-0.559,-0.366,+0.345,+0.660,+0.817,-0.084,-0.427,-9.250,+10.000,+10.188,-9, -8, -2, -8, -7, -3, -3, -1,-1.4630529953793,1.0516609246969961
1503610339733,-0.557,-0.366,+0.347,+0.659,+0.819,-0.069,-0.449,-6.938,+19.000,+1.500,13, -3, -7, 0, -1, 1, -1, 0,-1.4583422800990353,1.0543170989778166
1503610339756,-0.558,-0.367,+0.350,+0.657,+0.876,-0.083,-0.453,-2.250,+16.375,-9.188,3, 26, 11, 5, 2, 0, 1, -1,-1.4622531070369156,1.0614314468197525
1503610339772,-0.559,-0.367,+0.351,+0.655,+0.886,-0.102,-0.442,+0.375,+5.188,-17.562,4, 22, 2, -3, -2, 0, -2, -6,-1.4644634384868145,1.0629760222878835
1503610339794,-0.562,-0.365,+0.351,+0.654,+0.868,-0.113,-0.415,-1.750,-7.562,-19.562,4, 3, -4, -6, -8, -2, -3, -8,-1.4684024022173698,1.060043666154157
1503610339818,-0.564,-0.363,+0.352,+0.653,+0.833,-0.115,-0.431,-3.688,-6.000,-19.875,4, 12, 10, 6, 3, 2, -3, 0,-1.4700735547555965,1.0586319452606627
1503610339839,-0.566,-0.362,+0.354,+0.650,+0.804,-0.087,-0.454,-3.375,+7.438,-25.750,-2, 3, 7, 1, 0, -1, -2, -5,-1.4731336287949324,1.0602301651273651
1503610339854,-0.570,-0.361,+0.356,+0.647,+0.855,-0.069,-0.437,+1.188,+4.000,-31.562,-10, 1, 1, 3, -2, -8, -11, -9,-1.48099534699099,1.0625348994262327
1503610339876,-0.574,-0.360,+0.357,+0.644,+0.914,-0.074,-0.459,+6.062,-1.375,-32.250,3, -9, -15, -12, -5, 0, 2, 9,-1.4888326915720358,1.0629553590103944
1503610339898,-0.578,-0.358,+0.356,+0.641,+0.913,-0.092,-0.480,+9.250,-11.125,-27.812,10, 17, 7, 1, 2, 3, 4, -8,-1.4951256399547823,1.057804760494628
1503610339914,-0.582,-0.356,+0.354,+0.640,+0.894,-0.074,-0.476,+7.875,-17.812,-21.250,2, 44, 33, 3, 3, 0, -6, -20,-1.5016195774635612,1.0514943060776314
1503610339936,-0.585,-0.355,+0.352,+0.639,+0.880,-0.052,-0.427,+5.875,-19.125,-14.750,-18, -31, -16, -4, -3, -1, 3, 7,-1.5072261409605467,1.0466645333492341
1503610339960,-0.586,-0.354,+0.351,+0.638,+0.901,-0.046,-0.440,+5.750,-9.812,-6.000,-2, 12, 3, 2, 5, 0, 0, -7,-1.5080668149677225,1.0429926019420477
1503610339975,-0.587,-0.355,+0.350,+0.638,+0.873,-0.059,-0.470,+5.375,-1.875,-2.625,3, -6, 4, 0, -1, 1, 3, -1,-1.5119058114084685,1.0433118896032203
1503610339996,-0.588,-0.356,+0.350,+0.637,+0.889,-0.058,-0.449,+4.500,+6.750,-5.250,8, 9, 12, 1, 0, -1, 0, 16,-1.5157190223505173,1.045138518293094
1503610340020,-0.589,-0.356,+0.351,+0.635,+0.899,-0.021,-0.447,+3.875,+2.625,-9.000,-18, -12, -21, -7, -4, 0, -3, -3,-1.5180506446084368,1.0466443398614331
1503610340038,-0.591,-0.355,+0.350,+0.634,+0.917,+0.001,-0.467,+4.250,-12.000,-13.562,7, -5, -2, -4, -6, -5, -1, -1,-1.5213441501070146,1.0433320398235368
1503610340056,-0.595,-0.352,+0.348,+0.633,+0.909,-0.003,-0.460,+5.438,-21.062,-13.875,5, -2, -4, 0, 1, 0, -3, -2,-1.5266062611406914,1.0352546089229637
1503610340078,-0.597,-0.351,+0.346,+0.633,+0.876,-0.012,-0.454,+3.625,-17.438,-5.938,1, -1, 5, 3, 4, 1, 0, -2,-1.5299856704200252,1.0304729119357119
1503610340094,-0.597,-0.350,+0.345,+0.634,+0.855,-0.008,-0.470,+0.938,-8.875,+1.750,7, 12, -4, 5, 3, 1, -2, -2,-1.5285758942946341,1.0271731447441272
1503610340116,-0.598,-0.350,+0.345,+0.633,+0.870,+0.004,-0.472,+2.000,-1.375,+0.250,0, 0, 0, 5, 5, 2, 1, 9,-1.5309683356073387,1.0271783200063382
1503610340138,-0.599,-0.350,+0.345,+0.633,+0.873,+0.008,-0.479,+3.500,-2.750,-3.438,4, -3, -6, -5, -1, 2, -1, 7,-1.533409546830574,1.0275403682237094
1503610340155,-0.600,-0.349,+0.344,+0.633,+0.886,+0.000,-0.472,+2.812,-5.312,-2.250,-3, -2, -10, -10, -14, -3, 2, -7,-1.5344039157951448,1.0242510499492639
1503610340176,-0.600,-0.349,+0.344,+0.633,+0.874,-0.008,-0.473,-0.188,-4.250,+2.500,-10, -13, 3, 4, 3, 0, 1, 6,-1.5344039157951448,1.0242510499492639
1503610340198,-0.600,-0.348,+0.343,+0.634,+0.878,-0.009,-0.472,-3.125,-5.062,+4.062,-21, -14, -6, -4, -4, -3, 3, -14,-1.533004482565123,1.0209608030063555
1503610340214,-0.599,-0.347,+0.343,+0.635,+0.871,-0.004,-0.478,-4.625,-5.875,+5.000,19, 9, 4, -2, -2, -3, -5, -10,-1.5291892297955743,1.019143703656526
1503610340236,-0.599,-0.347,+0.342,+0.635,+0.862,-0.011,-0.474,-5.188,-5.938,+4.750,-18, -26, -6, -1, 0, -3, -4, 2,-1.5291603322774194,1.0173099244542345
1503610340259,-0.599,-0.346,+0.342,+0.636,+0.880,-0.012,-0.472,-5.750,-4.312,+2.438,5, -1, -4, -2, -3, -4, -5, 0,-1.5277962674272938,1.0158599847470544
1503610340274,-0.598,-0.345,+0.342,+0.637,+0.874,-0.009,-0.464,-6.062,-5.812,+3.875,11, 4, -2, -6, 2, 1, 3, 4,-1.5239869881563277,1.0140496127892327
1503610340296,-0.598,-0.344,+0.342,+0.638,+0.860,-0.018,-0.468,-5.688,-6.125,+3.188,-11, -7, -13, -8, -3, -2, 0, 0,-1.52263378225253,1.0126084848337797
1503610340321,-0.598,-0.343,+0.342,+0.639,+0.857,-0.035,-0.476,-6.688,-2.812,+2.938,-27, -11, -4, 2, -1, -1, -5, -19,-1.5212861346184432,1.011171599350443
1503610340334,-0.597,-0.343,+0.343,+0.639,+0.862,-0.031,-0.484,-7.500,+3.062,+3.000,6, 4, 5, 4, 3, -1, 1, 7,-1.5188688235082497,1.0126474796405858
1503610340357,-0.596,-0.343,+0.344,+0.639,+0.882,-0.019,-0.479,-6.312,+4.250,+2.750,-13, 1, 13, 1, 1, 1, -1, -12,-1.5164532494778906,1.0141274180222708
1503610340378,-0.596,-0.343,+0.344,+0.640,+0.866,-0.014,-0.492,-3.062,-0.688,+1.750,5, 17, 12, 8, 0, 1, 1, 8,-1.516517972722923,1.0144909457275062
1503610340394,-0.596,-0.343,+0.343,+0.640,+0.853,-0.037,-0.492,-0.625,-3.375,+1.375,7, 11, 10, 4, 0, 0, 0, 5,-1.5164807431046834,1.0126474796405858
1503610340416,-0.596,-0.343,+0.343,+0.640,+0.860,-0.044,-0.494,-1.125,-0.438,+1.375,-3, 2, 6, 5, 6, 1, 1, 6,-1.5164807431046834,1.0126474796405858
1503610340439,-0.596,-0.343,+0.344,+0.640,+0.858,-0.033,-0.490,-1.312,+4.562,+0.375,20, 1, -13, -7, -2, 2, 0, 2,-1.516517972722923,1.0144909457275062
1503610340455,-0.595,-0.344,+0.344,+0.639,+0.858,-0.026,-0.485,+0.000,+9.375,-1.188,0, -3, -8, 5, 2, 4, 0, 4,-1.5154132483328135,1.01556159008124
1503610340476,-0.595,-0.345,+0.345,+0.638,+0.876,-0.023,-0.485,+1.250,+8.125,+0.312,5, 5, -7, -5, -3, -3, -4, 6,-1.5168013117152752,1.0188436629764128
1503610340499,-0.595,-0.346,+0.345,+0.638,+0.874,-0.027,-0.486,+3.000,+3.312,+2.062,4, -36, -3, -2, 2, -1, -1, -18,-1.5182194712164498,1.020645444177064
1503610340514,-0.595,-0.347,+0.344,+0.638,+0.855,-0.032,-0.489,+2.938,-0.250,+2.938,4, 21, 7, 1, 2, 4, -1, 4,-1.5196043640254446,1.0206072768767762
1503610340536,-0.595,-0.347,+0.344,+0.638,+0.851,-0.031,-0.483,+1.250,-0.125,+2.250,7, 2, -1, -4, -1, -2, 1, -4,-1.5196043640254446,1.0206072768767762
1503610340558,-0.595,-0.347,+0.344,+0.639,+0.878,-0.025,-0.484,-1.688,+2.750,+2.625,-20, -23, 8, 6, 0, -3, -7, -16,-1.5196652282552663,1.020967018401831
1503610340574,-0.594,-0.347,+0.344,+0.639,+0.886,-0.025,-0.458,-2.125,-0.812,+2.750,-1, -20, -30, -12, -4, -4, -4, -3,-1.5172233113696427,1.0206041377387243
1503610340598,-0.594,-0.347,+0.343,+0.639,+0.892,-0.021,-0.476,+0.125,-5.250,+1.438,1, 13, 19, 11, 5, 1, 1, 0,-1.5171860977031542,1.018762821256102
1503610341999,-0.555,-0.517,+0.206,+0.619,+0.855,-0.403,-0.340,+27.875,-3.125,+4.562,-3, -11, -20, -6, 3, -1, 0, -1,-1.7366068439483684,1.140397741586001
1503610342014,-0.556,-0.519,+0.203,+0.617,+0.860,-0.400,-0.335,+23.625,-3.000,+4.500,0, -2, -1, 0, -2, 1, -4, 1,-1.7440970083319962,1.1415038657038212
1503610342037,-0.557,-0.521,+0.200,+0.615,+0.836,-0.393,-0.331,+22.375,-2.875,+4.312,6, 12, 2, -6, 2, 1, -1, -2,-1.7516502821700122,1.1426812151353734
1503610342059,-0.557,-0.524,+0.197,+0.613,+0.843,-0.404,-0.339,+24.500,-0.438,+2.812,-17, 4, 4, 3, -5, -2, -5, -7,-1.7592915640828624,1.1460657632972808
1503610342075,-0.558,-0.527,+0.194,+0.611,+0.855,-0.432,-0.362,+27.062,-0.375,+2.438,5, -10, -7, -1, -1, -2, 0, -2,-1.7691849565191486,1.1500304140774487
1503610342100,-0.560,-0.529,+0.190,+0.609,+0.866,-0.444,-0.335,+27.562,-8.688,+3.188,1, -4, -3, -2, 3, 1, 2, 1,-1.7793399995943109,1.1506072336637663
1503610342120,-0.561,-0.531,+0.186,+0.607,+0.847,-0.426,-0.308,+26.750,-13.062,+4.562,0, -3, 8, 1, 1, -3, 0, 1,-1.7874281406995292,1.150808252598846
1503610342143,-0.563,-0.533,+0.182,+0.605,+0.822,-0.424,-0.302,+26.688,-12.188,+5.125,-4, 7, 1, -2, -3, 0, 1, -2,-1.797743866982707,1.151593668853224
1503610342157,-0.564,-0.535,+0.178,+0.604,+0.821,-0.433,-0.314,+26.000,-5.625,+3.938,2, -4, 1, -1, -5, 0, -1, 0,-1.805708577242435,1.1521614915573821
1503610342179,-0.564,-0.538,+0.176,+0.601,+0.826,-0.429,-0.324,+26.125,+0.125,+2.812,0, 2, 2, 0, 2, 0, -1, 1,-1.8138793790276575,1.157255239688865
1503610342201,-0.565,-0.540,+0.173,+0.599,+0.850,-0.432,-0.285,+23.750,-2.375,+1.500,-1, -4, -9, -3, 4, 0, 3, 1,-1.8220009566019724,1.159098820064316
1503610342217,-0.566,-0.542,+0.171,+0.597,+0.841,-0.428,-0.266,+19.188,-6.500,+1.812,1, 1, -2, -1, -3, -2, -2, -1,-1.829875128349056,1.1622535083088545
1503610342239,-0.567,-0.543,+0.169,+0.596,+0.808,-0.422,-0.278,+14.750,-5.438,+1.312,-7, -8, -9, -1, -2, -3, -4, -4,-1.8352005551956097,1.162861781526692
1503610342261,-0.567,-0.545,+0.167,+0.594,+0.807,-0.431,-0.296,+12.688,-0.875,-0.062,11, -2, -24, -12, -7, -5, -1, -1,-1.8410422418798247,1.1656198608087815
1503610342277,-0.568,-0.546,+0.167,+0.593,+0.827,-0.439,-0.296,+9.438,+1.375,-0.250,-3, 20, 4, 0, 0, 0, 1, 0,-1.8457502295142254,1.1687136662290518
1503610342302,-0.568,-0.546,+0.166,+0.593,+0.828,-0.444,-0.277,+3.500,-0.375,+1.688,-1, -9, 7, 3, 1, -1, -1, 3,-1.8460839653450016,1.1675013722087322
1503610342314,-0.567,-0.546,+0.166,+0.593,+0.812,-0.442,-0.281,-4.500,+0.000,+1.312,33, 8, 14, 8, 1, 3, 4, 10,-1.8439836740779845,1.1670184382073376
1503610342337,-0.567,-0.546,+0.169,+0.594,+0.816,-0.430,-0.275,-13.938,+7.438,-3.938,-10, -1, 4, 0, -1, 1, 1, 0,-1.8426480812879198,1.1708143099079966
1503610342359,-0.566,-0.544,+0.172,+0.594,+0.849,-0.429,-0.298,-17.562,+5.438,-5.625,-8, 27, 23, 6, 1, 0, 0, 0,-1.8350579791390773,1.1685138881893042
