Timestamp,Orientation X,Orientation Y,Orientation Z,Orientation W,Accelerometer X,Accelerometer Y,Accelerometer Z,Gyroscope X,Gyroscope Y,Gyroscope Z,EMG1,EMG2,EMG3,EMG4,EMG5,EMG6,EMG7,EMG8
1503614538972,-0.479,-0.356,+0.403,+0.694,+0.983,-0.100,-0.368,-32.188,-35.500,-18.312,-1, -6, -7, -1, 1, -1, 1, -1
1503614538987,-0.482,-0.348,+0.401,+0.697,+0.914,-0.079,-0.396,-26.688,-43.438,-21.438,3, 5, -6, -3, 0, 1, -1, 8
1503614539009,-0.486,-0.339,+0.398,+0.700,+0.849,-0.082,-0.408,-25.875,-51.750,-21.938,0, 10, 10, 2, -1, -2, 1, -4
1503614539032,-0.489,-0.330,+0.396,+0.703,+0.871,-0.064,-0.439,-28.750,-40.062,-22.250,-2, 2, 0, 0, 0, 1, -1, -3
1503614539047,-0.492,-0.323,+0.396,+0.705,+0.903,-0.003,-0.494,-23.812,-32.062,-18.062,2, 4, -2, -2, -1, 0, 2, 2
1503614539069,-0.495,-0.317,+0.394,+0.706,+0.899,-0.016,-0.475,-15.125,-30.438,-16.688,0, -1, 0, -2, -3, -1, 0, 1
1503614539092,-0.498,-0.312,+0.392,+0.708,+0.865,-0.056,-0.447,-13.250,-27.750,-15.125,-2, 0, 4, 3, 3, -2, -5, -2
1503614539114,-0.500,-0.308,+0.391,+0.709,+0.854,-0.063,-0.466,-15.812,-24.438,-12.750,0, -6, -8, -3, -1, 0, 1, 0
1503614539129,-0.501,-0.303,+0.390,+0.710,+0.872,-0.038,-0.474,-18.188,-23.562,-13.562,5, 14, 8, 0, 1, 2, -4, -10
1503614539153,-0.504,-0.297,+0.389,+0.712,+0.874,-0.012,-0.492,-16.625,-26.750,-16.125,0, 3, 3, 1, 1, -2, -3, -3
1503614539174,-0.506,-0.292,+0.388,+0.713,+0.862,-0.001,-0.519,-13.812,-24.375,-16.000,-1, -5, -4, -1, -3, -1, 0, 4
1503614539189,-0.509,-0.288,+0.387,+0.713,+0.849,+0.007,-0.513,-9.750,-22.062,-17.000,0, -6, -7, -3, -2, -3, 1, 3
1503614539211,-0.512,-0.284,+0.386,+0.713,+0.833,-0.012,-0.510,-8.188,-16.062,-15.688,-4, -3, -1, -3, -3, -2, -2, -5
1503614539235,-0.513,-0.282,+0.386,+0.713,+0.914,+0.002,-0.499,-8.625,-7.562,-11.312,-11, -7, -4, -5, -2, -2, -2, -13
1503614539249,-0.514,-0.279,+0.387,+0.713,+0.928,+0.033,-0.519,-8.250,-11.438,-8.000,-4, -5, -3, -4, -2, 0, -5, -13
1503614539272,-0.515,-0.277,+0.386,+0.714,+0.828,+0.010,-0.500,-8.500,-9.062,-5.438,2, 7, 10, 0, -2, -1, 0, 1
1503614539294,-0.515,-0.275,+0.386,+0.714,+0.823,+0.026,-0.520,-8.938,-6.750,-1.688,4, -6, -9, -6, -2, -1, 2, 5
1503614539309,-0.515,-0.274,+0.386,+0.715,+0.839,+0.035,-0.539,-6.125,-2.625,-0.312,8, -2, 1, 1, 2, 2, 3, 4
1503614539332,-0.515,-0.274,+0.386,+0.715,+0.871,+0.012,-0.524,-3.125,-1.438,+0.125,2, 23, 16, 5, 3, 1, -1, -2
1503614539346,-0.515,-0.273,+0.386,+0.715,+0.874,+0.006,-0.525,-2.688,-0.125,+0.250,-2, -14, -13, -2, -1, -2, -3, -2
1503614539369,-0.514,-0.274,+0.386,+0.715,+0.835,+0.018,-0.515,-1.062,+4.438,+1.938,-1, 7, -6, -5, -5, -3, -7, -16
1503614539392,-0.514,-0.274,+0.387,+0.715,+0.827,+0.018,-0.521,-2.750,+7.500,+4.562,-1, -1, -2, 3, -1, -4, 0, 29
1503614539407,-0.512,-0.275,+0.388,+0.715,+0.829,-0.015,-0.523,-4.250,+11.312,+5.562,-1, -2, -3, -1, -1, 2, 4, -4
1503614539429,-0.511,-0.276,+0.390,+0.714,+0.855,+0.020,-0.492,-2.625,+11.062,+2.625,13, 4, 6, 1, -2, -1, -1, 5
1503614539452,-0.510,-0.277,+0.391,+0.714,+0.876,+0.002,-0.493,-1.875,+9.500,+2.562,-14, -6, -3, -9, -1, 0, -2, -12
1503614539468,-0.510,-0.278,+0.392,+0.714,+0.882,-0.008,-0.483,-3.688,+8.562,+0.250,2, -5, -3, 2, -1, 0, 0, -3
1503614539490,-0.509,-0.278,+0.393,+0.713,+0.849,-0.022,-0.509,-3.375,+5.625,-1.312,2, -12, -6, 0, 0, 1, 3, 15
1503614539511,-0.510,-0.278,+0.394,+0.713,+0.850,+0.029,-0.500,-3.000,+7.688,-3.000,-2, 1, 3, 4, 0, -3, -3, -7
1503614539528,-0.510,-0.279,+0.394,+0.712,+0.957,+0.002,-0.503,+3.625,+0.500,-0.750,-5, -17, -7, 1, -1, -2, 3, 9
1503614539549,-0.510,-0.279,+0.394,+0.712,+0.853,+0.023,-0.514,+1.875,+1.562,-0.562,-6, 1, -1, -7, -2, 0, -4, -10
1503614541170,-0.451,-0.297,+0.438,+0.719,+0.911,-0.012,-0.433,-14.938,-45.062,-18.250,2, -7, -4, -5, -4, -4, -1, -3
1503614541191,-0.455,-0.291,+0.434,+0.721,+0.906,+0.009,-0.436,-11.125,-39.188,-17.062,-5, -3, -3, 0, 0, 1, 1, 0
1503614541214,-0.458,-0.286,+0.431,+0.723,+0.876,-0.013,-0.428,-10.375,-34.625,-14.438,-3, -2, -2, -1, 1, 1, -2, -13
1503614541231,-0.460,-0.282,+0.429,+0.725,+0.886,+0.008,-0.462,-10.562,-27.938,-10.812,2, -12, -6, 0, -3, -3, 0, 3
1503614541251,-0.462,-0.278,+0.427,+0.726,+0.919,+0.022,-0.450,-7.188,-21.312,-7.312,5, 8, 3, -2, 1, 4, -2, -7
1503614541274,-0.463,-0.276,+0.425,+0.727,+0.900,-0.004,-0.448,-5.125,-20.000,-6.375,0, 1, -6, -4, 0, -2, -3, -1
1503614541290,-0.465,-0.273,+0.423,+0.728,+0.864,-0.007,-0.470,-5.562,-18.188,-5.438,-3, 1, 4, 0, -2, 0, 5, 3
1503614541312,-0.465,-0.271,+0.422,+0.729,+0.875,+0.007,-0.465,-5.438,-13.375,-2.438,-1, -1, -3, 0, -2, 0, 0, 2
1503614541336,-0.465,-0.270,+0.421,+0.730,+0.875,+0.001,-0.453,-6.062,-11.375,+0.062,4, -2, -3, -4, -6, -6, -3, 0
1503614541350,-0.466,-0.268,+0.420,+0.731,+0.898,+0.004,-0.464,-6.500,-9.625,-0.375,-1, -2, 2, 3, 1, 2, 0, -2
1503614541373,-0.466,-0.267,+0.419,+0.732,+0.888,+0.007,-0.455,-5.875,-11.688,-1.000,4, 11, 9, -1, 2, 4, 10, 12
1503614541394,-0.466,-0.265,+0.418,+0.733,+0.901,-0.003,-0.462,-6.062,-13.688,-1.938,-3, 5, 3, 3, 2, -1, 0, 0
1503614541410,-0.467,-0.263,+0.417,+0.734,+0.889,+0.018,-0.468,-5.375,-14.750,-2.875,3, 0, -4, -1, -2, -1, 0, 2
1503614541432,-0.468,-0.261,+0.416,+0.735,+0.883,+0.018,-0.468,-4.938,-14.812,-1.500,-4, 9, 2, 0, -1, 0, -5, -12
1503614541454,-0.468,-0.260,+0.414,+0.736,+0.874,+0.002,-0.476,-5.438,-15.375,+0.812,-4, -7, -5, 2, 2, 0, -4, -8
1503614541470,-0.468,-0.258,+0.412,+0.737,+0.843,+0.023,-0.494,-4.938,-13.125,+0.812,-10, -7, -6, 0, 0, -2, -3, -31
1503614541492,-0.468,-0.257,+0.411,+0.738,+0.862,+0.006,-0.489,-4.500,-9.750,+1.438,-1, 2, 4, -3, 1, 1, -1, -6
1503614541514,-0.468,-0.256,+0.411,+0.739,+0.906,+0.012,-0.485,-5.750,-8.000,+3.375,6, 14, 10, 5, 2, 2, 3, 5
1503614541530,-0.469,-0.255,+0.409,+0.740,+0.874,+0.037,-0.524,-1.875,-10.562,+1.062,2, 1, 1, 3, 1, 0, 0, 8
1503614541552,-0.469,-0.254,+0.408,+0.741,+0.818,+0.012,-0.508,+0.750,-6.625,+0.750,-1, 6, 6, -2, -2, 2, 1, 10
1503614541574,-0.469,-0.254,+0.408,+0.741,+0.852,+0.000,-0.483,-1.375,-2.875,+3.500,-5, -6, -4, -1, -2, 1, -1, -12
1503614541590,-0.468,-0.254,+0.407,+0.742,+0.868,+0.002,-0.489,-3.125,-4.625,+2.500,-1, 2, 4, 0, 1, 1, 0, -2
1503614541613,-0.468,-0.254,+0.407,+0.742,+0.888,+0.015,-0.490,-4.125,-4.375,+2.250,1, 2, 2, 3, 0, -3, -4, -5
1503614541634,-0.468,-0.253,+0.406,+0.743,+0.876,+0.021,-0.508,-1.438,-8.125,+1.938,3, 3, -6, -4, -3, -1, 0, -3
1503614541650,-0.469,-0.252,+0.405,+0.743,+0.826,-0.004,-0.500,-0.438,-6.875,-0.375,0, -1, 2, 1, -1, 1, 6, 21
1503614541672,-0.469,-0.252,+0.404,+0.744,+0.864,-0.003,-0.489,-3.000,-5.438,+0.625,-1, -15, -11, -4, -1, -2, 0, -3
1503614541694,-0.469,-0.251,+0.404,+0.745,+0.885,+0.012,-0.496,-3.688,-8.812,+0.062,-8, -3, 0, 0, 0, -4, -14, -37
1503614541710,-0.469,-0.250,+0.403,+0.745,+0.884,+0.016,-0.502,-4.125,-8.562,-0.250,-5, -4, -6, -3, -2, -2, 0, 1
1503614541732,-0.469,-0.249,+0.402,+0.746,+0.864,+0.018,-0.497,-3.625,-9.500,+2.438,3, 6, 3, 1, -1, 0, 4, 11
1503614541754,-0.469,-0.248,+0.401,+0.747,+0.833,+0.008,-0.508,-4.812,-9.250,+2.875,0, -6, -6, 0, 2, 1, -1, 3
1503614541772,-0.469,-0.247,+0.400,+0.748,+0.842,+0.012,-0.519,-5.125,-8.625,+2.375,-6, -1, 2, 0, -2, 1, -3, -6
1503614541792,-0.469,-0.246,+0.399,+0.749,+0.867,+0.024,-0.521,-3.125,-10.250,+0.938,-1, -7, -6, -5, -4, -5, -3, -6
1503614541814,-0.469,-0.245,+0.398,+0.749,+0.852,+0.006,-0.526,-1.062,-10.812,-1.000,10, 1, 1, 1, -1, 0, 4, 18
1503614541832,-0.470,-0.244,+0.397,+0.750,+0.852,+0.016,-0.517,-0.562,-8.250,+0.125,-4, 4, -2, -2, -1, -2, -2, -7
1503614541852,-0.470,-0.244,+0.396,+0.751,+0.858,+0.009,-0.530,-1.000,-8.125,+3.062,-2, 3, 1, -3, -3, -1, -3, 1
1503614541874,-0.470,-0.244,+0.394,+0.751,+0.816,+0.031,-0.539,+0.562,-6.000,+3.000,6, 2, 3, 0, -2, 0, 8, 30
1503614541890,-0.470,-0.244,+0.393,+0.752,+0.844,+0.040,-0.549,+3.625,-2.875,+5.562,12, 16, 6, 2, 0, 2, 13, 37
1503614541912,-0.470,-0.245,+0.393,+0.752,+0.864,+0.024,-0.558,+7.750,+0.562,+7.375,-17, -12, -4, -2, -1, -1, -6, -31
1503614541934,-0.469,-0.248,+0.392,+0.752,+0.831,+0.020,-0.544,+11.312,+4.938,+9.438,0, -5, 2, 0, 1, 0, -1, -6
1503614541957,-0.469,-0.251,+0.391,+0.751,+0.834,+0.025,-0.548,+15.188,+8.688,+12.688,5, -2, -4, 0, -1, -3, -4, -9
1503614541974,-0.467,-0.255,+0.390,+0.751,+0.856,+0.011,-0.557,+16.875,+12.125,+16.188,3, 4, 1, 1, 0, 0, 0, -2
1503614541994,-0.466,-0.259,+0.390,+0.751,+0.832,-0.002,-0.563,+20.375,+15.438,+16.562,-6, 0, 0, -4, -4, -2, -7, -15
1503614542010,-0.466,-0.264,+0.389,+0.750,+0.852,+0.031,-0.547,+25.000,+16.938,+16.125,-4, -7, -1, -3, -3, -3, -5, -5
1503614545033,-0.476,-0.460,+0.424,+0.618,+0.935,-0.055,-0.117,-35.688,-33.375,-24.562,-4, -2, 2, -3, -2, -5, -1, -7
1503614545054,-0.479,-0.454,+0.424,+0.620,+0.932,-0.131,-0.178,-23.500,-32.938,-15.625,-3, 8, 12, 2, 1, 1, -1, -6
1503614545076,-0.481,-0.447,+0.426,+0.622,+0.963,-0.044,-0.185,-31.062,-20.562,-20.938,2, 2, -9, 1, 4, -1, -1, -3
1503614545092,-0.482,-0.442,+0.427,+0.624,+1.029,-0.146,-0.184,-25.625,-20.688,-13.688,-9, -7, -1, -5, -7, -5, -1, -6
1503614545114,-0.483,-0.437,+0.428,+0.627,+0.929,-0.107,-0.152,-25.000,-20.438,-2.688,-2, 0, -2, -2, -1, 2, 0, -15
1503614545137,-0.484,-0.432,+0.429,+0.628,+0.977,-0.034,-0.204,-20.500,-16.562,-14.625,-1, 3, 3, -2, -5, -1, -3, 5
1503614545152,-0.486,-0.428,+0.429,+0.630,+0.939,-0.062,-0.230,-17.312,-18.250,-5.625,-2, 3, 3, 1, 0, -1, -3, 4
1503614545174,-0.487,-0.425,+0.428,+0.632,+0.962,-0.112,-0.249,-12.625,-18.250,-4.500,5, 2, 5, 1, 1, 1, 3, 7
1503614545197,-0.488,-0.422,+0.428,+0.633,+0.943,-0.083,-0.309,-8.812,-11.688,-3.500,-9, -6, -3, -1, -3, -6, -7, -12
1503614545212,-0.490,-0.420,+0.426,+0.634,+0.944,-0.080,-0.342,-2.688,-12.188,-4.000,9, 4, 7, 0, -1, 1, 2, 8
1503614545234,-0.492,-0.418,+0.425,+0.635,+0.952,-0.124,-0.275,-1.438,-16.125,-7.062,-8, -4, -2, 0, -3, 1, 1, -10
1503614545256,-0.494,-0.415,+0.423,+0.636,+0.967,-0.147,-0.234,-1.062,-20.500,-11.625,5, 6, -2, 1, -4, 2, 0, 7
1503614545272,-0.498,-0.412,+0.421,+0.636,+0.963,-0.119,-0.248,+3.062,-29.688,-19.250,-3, -2, -1, -3, -1, -2, 0, -3
1503614545294,-0.504,-0.408,+0.419,+0.636,+0.908,-0.095,-0.255,+2.062,-33.688,-22.688,-14, -10, -3, -1, 0, 1, -2, -5
1503614545316,-0.507,-0.405,+0.417,+0.636,+0.877,-0.085,-0.264,-0.938,-19.500,-17.062,3, -2, -2, -1, -4, -5, -2, 3
1503614545332,-0.508,-0.404,+0.418,+0.636,+0.924,-0.083,-0.253,-1.750,-2.875,-9.500,-5, 0, 1, -2, 2, -1, -3, -1
1503614545354,-0.508,-0.404,+0.419,+0.635,+1.010,-0.068,-0.247,-2.562,+3.312,-5.125,3, -3, -5, -1, 0, -1, 0, -1
1503614545376,-0.510,-0.403,+0.419,+0.634,+1.049,-0.062,-0.269,-0.500,-12.312,-7.875,-4, 2, -2, -4, 0, 1, -2, -7
1503614545392,-0.513,-0.400,+0.417,+0.635,+0.997,-0.057,-0.280,-1.000,-26.000,-10.062,6, -1, 1, 3, 1, -3, 1, -6
1503614545414,-0.515,-0.397,+0.415,+0.636,+0.958,-0.089,-0.246,-3.188,-23.125,-6.312,-2, -3, -1, -3, -2, -1, 1, -7
1503614545437,-0.515,-0.396,+0.415,+0.638,+0.974,-0.090,-0.268,-7.438,-14.438,-0.562,1, -1, 2, 0, 0, 0, -1, 4
1503614545452,-0.515,-0.394,+0.414,+0.639,+0.954,-0.047,-0.314,-6.312,-7.875,+2.750,-9, -6, -6, 0, 0, -1, -4, -8
1503614545474,-0.515,-0.393,+0.413,+0.640,+0.946,-0.050,-0.315,-6.625,-8.125,+3.750,1, -5, -4, -3, -2, -3, 1, 11
1503614545498,-0.514,-0.392,+0.413,+0.641,+0.959,-0.089,-0.280,-7.688,-10.688,+6.875,-2, -6, -7, -7, -1, 0, -2, -8
1503614545512,-0.513,-0.392,+0.412,+0.643,+0.988,-0.090,-0.287,-8.125,-6.750,+7.188,-8, 2, -1, 1, 1, 2, -1, -11
1503614545534,-0.513,-0.390,+0.411,+0.644,+0.994,-0.060,-0.316,-6.125,-11.062,+5.312,-3, 0, -1, -1, 1, -1, 0, -9
1503614545556,-0.514,-0.388,+0.409,+0.646,+0.947,-0.068,-0.330,-5.312,-18.312,+5.438,22, 5, 5, 1, -1, 3, 4, 47
1503614545572,-0.514,-0.387,+0.407,+0.648,+0.945,-0.083,-0.333,-5.000,-18.000,+5.750,-23, -4, 1, 1, 2, -1, -3, -12
1503614545594,-0.514,-0.386,+0.406,+0.650,+0.917,-0.104,-0.314,-5.500,-13.000,+4.938,-2, 0, -5, -4, -2, -1, -1, 25
1503614545616,-0.513,-0.385,+0.405,+0.652,+0.915,-0.104,-0.322,-7.812,-6.375,+6.188,18, 19, 12, 1, -1, 1, -1, -3
1503614545632,-0.512,-0.384,+0.405,+0.653,+0.940,-0.087,-0.335,-10.688,-1.312,+7.312,-6, -16, 0, -3, -1, 0, -1, -6
1503614545654,-0.510,-0.383,+0.405,+0.654,+0.949,-0.062,-0.346,-10.375,-1.000,+7.062,-14, -18, -4, 1, 7, 1, 1, -1
1503614545677,-0.510,-0.382,+0.405,+0.656,+0.960,-0.064,-0.344,-9.062,-7.562,+6.125,5, 5, -6, -3, -10, -4, -3, 2
1503614545692,-0.510,-0.381,+0.404,+0.657,+0.968,-0.070,-0.361,-6.625,-11.875,+7.312,2, -10, -4, -1, -9, -1, -2, -18
1503614545714,-0.509,-0.380,+0.402,+0.659,+0.965,-0.065,-0.341,-4.000,-13.062,+8.125,3, 6, 6, 5, -2, 0, -1, -10
1503614545736,-0.509,-0.379,+0.400,+0.661,+0.960,-0.075,-0.341,-2.062,-14.750,+9.500,-2, -7, 4, 0, -3, 1, 1, 12
1503614545752,-0.509,-0.378,+0.398,+0.663,+0.947,-0.078,-0.358,+0.125,-16.688,+10.250,6, 29, 34, 7, 5, 5, -3, -1
1503614545774,-0.510,-0.378,+0.395,+0.664,+0.933,-0.077,-0.374,+3.250,-15.438,+11.938,-4, -2, -6, -3, -2, -3, -1, 5
1503614545796,-0.509,-0.378,+0.392,+0.666,+0.917,-0.089,-0.386,+3.125,-11.062,+14.625,3, -5, -6, -5, -3, -1, -2, -4
1503614545812,-0.508,-0.379,+0.390,+0.668,+0.923,-0.092,-0.391,+4.312,-3.938,+16.375,1, -3, -4, 1, -2, -2, -1, -1
1503614545835,-0.507,-0.381,+0.388,+0.669,+0.927,-0.097,-0.388,+7.188,-1.812,+16.750,-8, -7, -9, -3, 0, -4, -3, -5
1503614545856,-0.506,-0.383,+0.386,+0.670,+0.957,-0.116,-0.384,+9.125,-4.125,+17.125,-8, -11, -13, -1, 0, 0, -2, -8
1503614545872,-0.505,-0.385,+0.383,+0.671,+0.960,-0.117,-0.384,+11.125,-5.188,+17.250,-4, -5, -6, -4, 2, 0, 4, 14
1503614545894,-0.505,-0.386,+0.380,+0.672,+0.948,-0.117,-0.389,+13.125,-9.500,+17.500,-10, -8, -1, -3, -1, 1, 1, 0
1503614545916,-0.505,-0.388,+0.376,+0.673,+0.936,-0.135,-0.386,+14.500,-13.688,+18.312,-6, -1, -3, -2, 0, 2, 4, -8
1503614545932,-0.505,-0.390,+0.371,+0.675,+0.943,-0.148,-0.395,+17.188,-13.812,+19.938,3, -15, -14, 0, -3, -2, 1, 49
1503614545954,-0.503,-0.397,+0.363,+0.676,+0.852,-0.312,-0.368,+37.062,-9.062,+35.000,5, -9, -8, -1, -1, 2, 0, -16
1503614545978,-0.502,-0.400,+0.363,+0.676,+0.958,-0.030,-0.354,+13.188,+9.688,+19.000,-10, 4, 3, 5, -1, -1, -2, -12
1503614545992,-0.501,-0.403,+0.359,+0.677,+0.958,-0.152,-0.430,+19.188,-9.312,+27.688,0, 4, 4, -3, 1, -3, -5, -12
1503614546014,-0.500,-0.406,+0.354,+0.678,+0.935,-0.233,-0.378,+19.750,-12.000,+22.062,4, 5, 6, 2, 0, -1, -2, -4
1503614546036,-0.500,-0.408,+0.349,+0.680,+0.922,-0.163,-0.383,+18.250,-16.125,+22.250,5, 20, 14, 4, 3, 1, 2, -3
1503614546052,-0.500,-0.410,+0.342,+0.682,+0.882,-0.220,-0.406,+24.188,-21.688,+26.188,1, 0, 0, -4, -4, -1, 0, -4
1503614546074,-0.500,-0.412,+0.338,+0.683,+0.873,-0.189,-0.348,+17.062,-12.875,+19.875,23, 19, 4, -3, 0, -4, 0, 19
1503614546096,-0.499,-0.415,+0.333,+0.684,+0.867,-0.245,-0.379,+19.250,-13.062,+24.875,4, -1, -1, 7, 4, 1, 1, 8
1503614546112,-0.498,-0.418,+0.329,+0.685,+0.866,-0.244,-0.389,+19.438,-6.312,+23.125,-10, 0, 1, 0, 0, -2, -4, -10
1503614546136,-0.497,-0.421,+0.325,+0.686,+0.845,-0.230,-0.386,+17.938,-4.812,+21.125,-5, -20, -14, -5, -1, -2, 1, -7
1503614546157,-0.496,-0.424,+0.321,+0.686,+0.891,-0.278,-0.365,+16.812,-6.625,+21.500,-6, -9, -4, -4, -4, -1, -1, -7
1503614546172,-0.495,-0.427,+0.318,+0.687,+0.917,-0.283,-0.366,+16.438,-5.688,+20.688,-7, -14, -5, 0, -4, -1, -7, -25
1503614546194,-0.494,-0.429,+0.314,+0.688,+0.884,-0.278,-0.370,+14.625,-10.625,+18.875,-16, -15, -18, -5, -3, -2, -3, -4
1503614546216,-0.493,-0.431,+0.310,+0.689,+0.846,-0.295,-0.403,+12.625,-12.000,+18.438,6, -2, 1, -1, -1, -2, 0, -1
1503614546232,-0.492,-0.433,+0.306,+0.690,+0.829,-0.298,-0.393,+14.375,-3.938,+20.562,2, 9, 3, -1, -2, -1, -1, 8
1503614546254,-0.490,-0.436,+0.304,+0.691,+0.878,-0.292,-0.375,+11.062,+1.750,+22.062,22, 16, 4, 0, 0, 2, 12, 45
1503614546276,-0.488,-0.439,+0.302,+0.692,+0.895,-0.325,-0.385,+9.688,-0.125,+21.938,-5, -14, -1, -1, -4, -1, -4, 0
1503614546299,-0.486,-0.441,+0.299,+0.693,+0.860,-0.323,-0.387,+9.250,-1.625,+21.250,-4, -4, -4, -1, 1, -2, -1, -2
1503614546314,-0.484,-0.443,+0.297,+0.694,+0.848,-0.305,-0.386,+8.375,-2.625,+19.188,-3, -3, 1, -2, -1, 1, -4, -21
1503614549899,-0.531,-0.458,+0.345,+0.624,+0.919,-0.189,-0.299,-15.312,-22.375,-14.438,-1, -7, -3, 2, 1, 0, 2, -1
1503614549921,-0.533,-0.454,+0.344,+0.625,+0.942,-0.200,-0.309,-13.438,-22.625,-13.438,1, -8, -11, -1, -1, -1, -3, -2
1503614549937,-0.536,-0.450,+0.345,+0.626,+0.954,-0.172,-0.314,-12.062,-20.625,-15.250,3, 6, 2, -1, 1, -3, 1, 1
1503614549967,-0.539,-0.446,+0.344,+0.627,+0.950,-0.190,-0.315,-11.812,-24.000,-13.750,-3, 5, 3, 2, 0, -2, -1, -15
1503614549981,-0.540,-0.442,+0.344,+0.628,+0.962,-0.190,-0.326,-14.000,-22.438,-9.750,-1, -4, -5, 1, 1, 2, 1, 4
1503614549997,-0.542,-0.438,+0.343,+0.629,+0.934,-0.150,-0.368,-12.375,-19.125,-8.375,-2, 0, 0, -2, -2, 0, -1, 6
1503614550019,-0.544,-0.434,+0.343,+0.630,+0.890,-0.146,-0.354,-11.812,-18.750,-8.188,13, 8, 9, 1, 1, 0, 2, 12
1503614550041,-0.545,-0.431,+0.343,+0.632,+0.917,-0.191,-0.311,-16.500,-16.938,-6.000,-3, -4, -4, -1, 0, -3, -3, 2
1503614550057,-0.545,-0.429,+0.344,+0.633,+0.946,-0.165,-0.346,-14.750,-10.750,-4.250,-6, 2, -5, -5, -1, 0, -6, -9
1503614550078,-0.546,-0.426,+0.344,+0.634,+0.926,-0.136,-0.360,-14.625,-9.250,-4.812,-6, -7, 2, -4, -4, -6, -2, -6
1503614550101,-0.546,-0.423,+0.345,+0.635,+0.917,-0.159,-0.350,-17.562,-8.188,-2.938,-1, 2, 1, -1, -1, 2, 1, 2
1503614550116,-0.546,-0.421,+0.346,+0.637,+0.926,-0.156,-0.372,-16.938,-5.812,-1.125,2, -3, -1, 0, -2, 2, -6, -7
1503614550139,-0.545,-0.418,+0.347,+0.638,+0.922,-0.118,-0.374,-16.062,-3.875,-0.625,-3, -5, -2, -5, -2, -1, -5, -7
1503614550154,-0.545,-0.416,+0.348,+0.639,+0.926,-0.142,-0.363,-16.000,-4.875,+0.312,5, 1, -6, -3, -2, -5, -3, -3
1503614550176,-0.545,-0.414,+0.349,+0.640,+0.946,-0.151,-0.388,-13.000,-6.000,-0.188,2, 5, -3, 3, 1, 0, -1, -4
1503614550199,-0.545,-0.412,+0.348,+0.642,+0.940,-0.126,-0.408,-10.438,-12.562,-1.938,-12, -8, -6, -3, -4, -3, 0, -4
1503614550214,-0.546,-0.409,+0.348,+0.643,+0.894,-0.138,-0.395,-10.688,-14.875,-1.938,2, 2, 5, 4, 15, -2, -1, 5
1503614550236,-0.546,-0.407,+0.347,+0.644,+0.892,-0.155,-0.384,-9.438,-8.750,+0.812,0, -1, 3, -1, -11, -1, -2, 0
1503614550260,-0.545,-0.407,+0.348,+0.645,+0.908,-0.134,-0.374,-9.812,-1.375,+4.312,-3, 1, 0, -2, -4, 1, 0, -4
1503614550274,-0.544,-0.406,+0.349,+0.646,+0.922,-0.118,-0.379,-9.000,+4.688,+4.438,2, 0, 4, 1, 0, 0, 1, -7
1503614550297,-0.543,-0.406,+0.350,+0.647,+0.919,-0.134,-0.391,-8.562,+3.188,+4.938,5, 0, 4, 0, -4, -1, 1, 0
1503614550320,-0.542,-0.406,+0.350,+0.647,+0.927,-0.146,-0.371,-8.750,-0.062,+4.750,-8, 8, -7, -2, -2, 1, -2, -15
1503614550334,-0.541,-0.405,+0.351,+0.648,+0.915,-0.146,-0.374,-8.875,-1.438,+3.875,-4, -7, -11, -4, -2, -2, -1, 0
1503614550356,-0.540,-0.404,+0.351,+0.649,+0.918,-0.145,-0.381,-8.500,-1.562,+3.125,-5, -22, -9, -3, -1, 1, 2, 24
1503614550378,-0.540,-0.403,+0.351,+0.650,+0.911,-0.143,-0.390,-7.875,-1.000,+4.000,7, -2, 1, -3, 2, 2, 4, 9
1503614550394,-0.539,-0.403,+0.351,+0.651,+0.909,-0.145,-0.380,-8.688,-1.438,+4.000,-12, 6, 2, 1, 0, -4, -7, -25
1503614550416,-0.538,-0.402,+0.352,+0.652,+0.921,-0.137,-0.386,-8.562,+2.062,+5.188,7, -3, -2, -2, -3, -3, -6, 1
1503614550439,-0.537,-0.402,+0.352,+0.653,+0.922,-0.136,-0.393,-7.625,+2.000,+4.938,-13, -9, -8, -5, -2, 0, -2, -31
1503614550454,-0.536,-0.402,+0.353,+0.654,+0.898,-0.148,-0.391,-7.688,+0.188,+4.250,6, 0, -1, -2, 0, 2, 2, 13
1503614550476,-0.536,-0.401,+0.353,+0.654,+0.909,-0.135,-0.390,-6.188,-1.875,+3.125,-1, -15, -9, -5, -4, -3, -1, 9
1503614550500,-0.535,-0.400,+0.353,+0.655,+0.885,-0.135,-0.402,-4.500,-2.250,+1.688,-6, -10, -7, -5, -2, -1, -3, 0
1503614550514,-0.535,-0.400,+0.353,+0.655,+0.906,-0.156,-0.381,-5.000,+0.250,+0.938,-6, -4, -6, -2, 0, 2, 0, -4
1503614550537,-0.534,-0.400,+0.353,+0.656,+0.922,-0.150,-0.391,-3.125,+1.750,+2.250,2, -5, -8, 1, 0, 3, 0, -5
1503614550558,-0.534,-0.400,+0.353,+0.656,+0.913,-0.128,-0.403,-2.625,+0.875,+1.062,-6, -8, -2, 3, -3, -8, -11, -30
1503614550576,-0.534,-0.400,+0.353,+0.656,+0.910,-0.137,-0.389,-2.250,-1.000,+1.188,9, 4, 5, 3, 3, 3, 3, 12
1503614550596,-0.534,-0.400,+0.353,+0.656,+0.898,-0.149,-0.381,-1.938,-0.938,+0.875,7, 13, 1, -5, -3, 0, 4, 7
1503614550618,-0.534,-0.399,+0.353,+0.656,+0.901,-0.149,-0.394,-1.438,-1.250,-0.500,9, 10, 6, -2, -1, -1, -2, -13
1503614550636,-0.534,-0.399,+0.353,+0.656,+0.901,-0.154,-0.385,-1.250,-0.250,-0.688,-4, -16, -10, -3, -2, -4, 0, 12
1503614550657,-0.534,-0.399,+0.353,+0.656,+0.916,-0.141,-0.380,-2.125,-0.875,+0.250,1, 11, 12, 0, -2, 1, 1, -3
1503614550679,-0.535,-0.399,+0.353,+0.656,+0.900,-0.122,-0.380,-1.438,+0.125,-1.750,-4, 0, -1, -3, -2, 1, 3, 1
1503614550701,-0.535,-0.399,+0.354,+0.656,+0.896,-0.142,-0.376,-1.875,+0.062,-2.062,-1, -6, -2, -5, -2, -3, -3, -9
1503614550718,-0.535,-0.399,+0.354,+0.656,+0.916,-0.159,-0.382,-3.000,+2.062,+0.062,-6, -8, -9, -3, -1, -3, 0, 9
1503614550739,-0.534,-0.399,+0.354,+0.655,+0.932,-0.130,-0.402,-0.312,+5.500,+0.875,-2, -11, -9, -2, 0, 1, 1, -1
1503614550762,-0.535,-0.399,+0.354,+0.655,+0.940,-0.129,-0.400,+1.062,-2.062,+0.875,2, 3, -5, 0, 0, -2, -3, 5
1503614550777,-0.535,-0.399,+0.354,+0.656,+0.946,-0.145,-0.382,-1.750,-4.625,+1.438,-1, -13, -14, -2, -4, -2, -2, -7
1503614550798,-0.534,-0.399,+0.353,+0.656,+0.936,-0.141,-0.387,+0.000,-2.812,+4.188,-6, -3, 3, -2, 1, -1, 1, 1
1503614550821,-0.534,-0.400,+0.353,+0.656,+0.945,-0.134,-0.386,+0.188,-1.938,+6.500,-11, -13, -7, -2, -3, -5, -1, -20
1503614550837,-0.533,-0.400,+0.352,+0.657,+0.937,-0.119,-0.424,+2.750,+1.250,+8.750,6, 3, 1, 0, -2, -2, -2, -4
1503614550858,-0.533,-0.402,+0.350,+0.657,+0.940,-0.137,-0.417,+6.375,-0.375,+12.500,4, 8, 3, 3, 2, 2, 0, -1
1503614550881,-0.532,-0.403,+0.348,+0.659,+0.948,-0.163,-0.382,+3.938,-6.062,+14.688,9, 13, -2, 2, 2, 3, 5, 6
1503614550897,-0.530,-0.404,+0.347,+0.660,+0.952,-0.154,-0.378,+3.938,-4.250,+15.375,4, 1, -1, -1, 0, -1, 0, 16
1503614550918,-0.529,-0.405,+0.345,+0.661,+0.921,-0.163,-0.382,+5.125,-3.875,+18.312,2, -9, -5, -2, 1, -1, 0, 1
1503614550941,-0.527,-0.407,+0.343,+0.662,+0.926,-0.164,-0.390,+3.938,-1.875,+19.750,-5, -13, -10, -4, 0, -2, -2, -4
1503614550957,-0.525,-0.408,+0.340,+0.664,+0.922,-0.180,-0.407,+4.062,-2.875,+22.500,9, -4, -1, -2, -2, 3, 4, 28
1503614550979,-0.523,-0.410,+0.338,+0.666,+0.902,-0.186,-0.391,+2.438,-1.375,+24.938,-8, -7, -4, 3, 3, 1, -1, -11
1503614551004,-0.520,-0.412,+0.337,+0.668,+0.909,-0.188,-0.362,+2.062,+0.812,+25.438,-10, 9, 1, 0, -2, 1, -3, -37
1503614551018,-0.517,-0.414,+0.335,+0.670,+0.910,-0.199,-0.369,+2.812,+2.562,+24.875,-3, 3, 4, 1, -1, -3, -5, -12
1503614551039,-0.514,-0.417,+0.333,+0.671,+0.898,-0.226,-0.380,+2.750,+2.625,+25.062,1, -2, 2, 0, 0, -3, 1, 0
1503614551061,-0.511,-0.418,+0.331,+0.674,+0.909,-0.235,-0.382,+0.312,+0.062,+25.938,1, 2, 2, 0, 0, -1, -1, 5
1503614551077,-0.509,-0.420,+0.329,+0.676,+0.900,-0.226,-0.386,-0.938,-1.312,+25.875,-2, 4, 1, -1, 6, -2, -2, -1
1503614551098,-0.506,-0.421,+0.327,+0.678,+0.873,-0.225,-0.378,-0.500,-0.438,+24.938,3, -2, 0, -2, -9, 0, 0, 5
1503614551121,-0.503,-0.423,+0.326,+0.680,+0.870,-0.247,-0.372,-0.688,+1.250,+23.875,-1, -6, -5, -2, -5, 1, -1, 2
1503614551138,-0.500,-0.424,+0.324,+0.682,+0.886,-0.260,-0.388,+0.250,+2.562,+24.000,5, 0, 4, 3, 2, -1, 1, -4
1503614551159,-0.497,-0.426,+0.323,+0.683,+0.889,-0.251,-0.386,-0.188,+2.250,+22.188,2, 0, -8, -3, -1, -3, -1, -4
1503614551181,-0.495,-0.427,+0.321,+0.685,+0.880,-0.265,-0.390,+0.312,-0.688,+21.875,2, -6, -8, -2, -2, -2, -2, 2
1503614551197,-0.493,-0.428,+0.319,+0.687,+0.879,-0.283,-0.384,-0.375,-0.500,+21.438,1, 8, -5, -1, -4, -1, 2, 4
1503614551218,-0.490,-0.430,+0.318,+0.689,+0.864,-0.280,-0.388,+0.562,+0.750,+21.188,7, 8, -3, 1, 2, 0, 1, 3
1503614551249,-0.488,-0.431,+0.316,+0.690,+0.871,-0.290,-0.376,-0.312,+0.500,+20.250,-9, 4, 6, 3, 1, 2, -1, -2
1503614551263,-0.485,-0.432,+0.315,+0.692,+0.880,-0.295,-0.384,-0.312,+0.438,+19.812,-1, -5, 2, -1, 0, -3, -4, -7
1503614551278,-0.483,-0.434,+0.313,+0.693,+0.865,-0.282,-0.394,+1.188,+1.562,+19.188,-5, -6, 1, 0, -3, -3, -1, 3
1503614551301,-0.481,-0.435,+0.311,+0.694,+0.863,-0.293,-0.381,+1.812,-1.812,+17.875,0, 3, -1, -2, -1, 1, 1, 3
1503614551317,-0.480,-0.436,+0.310,+0.696,+0.884,-0.313,-0.374,+1.438,-1.875,+17.188,-3, -5, -3, -3, 0, 1, 4, 10
1503614551339,-0.478,-0.437,+0.309,+0.697,+0.897,-0.309,-0.384,+2.188,+2.188,+18.438,7, 30, 9, 4, 1, 1, 0, 4
1503614551361,-0.475,-0.439,+0.307,+0.698,+0.873,-0.324,-0.394,+1.688,+0.750,+19.375,4, 3, 0, -1, -2, 1, -1, -5
1503614551377,-0.473,-0.440,+0.305,+0.700,+0.864,-0.324,-0.382,-0.812,-0.625,+20.500,-2, 1, 6, 4, 1, 1, 0, 5
1503614551398,-0.471,-0.441,+0.304,+0.701,+0.890,-0.321,-0.385,-0.250,-0.562,+21.875,-3, -17, -7, 0, 1, -1, 0, -1
1503614551421,-0.468,-0.442,+0.302,+0.703,+0.896,-0.326,-0.380,+0.062,+0.375,+22.562,-6, -4, -6, -5, -3, -4, -4, -31
1503614551440,-0.465,-0.443,+0.300,+0.705,+0.863,-0.341,-0.391,-0.312,-0.625,+23.438,0, 0, 3, -1, -2, 0, -2, -5
1503614551458,-0.463,-0.444,+0.298,+0.707,+0.843,-0.348,-0.387,-0.938,-2.562,+23.438,2, -6, -4, 0, 1, -2, -1, 3
1503614551483,-0.460,-0.446,+0.296,+0.708,+0.846,-0.345,-0.397,+0.625,+1.125,+24.688,11, 25, 20, 8, 3, 3, 2, 11
1503614551497,-0.457,-0.448,+0.295,+0.710,+0.849,-0.364,-0.375,+0.688,+4.812,+25.188,-7, -10, -6, -3, 0, -3, -2, -6
1503614551519,-0.453,-0.449,+0.294,+0.712,+0.868,-0.377,-0.366,-0.812,+4.312,+25.812,-3, -3, -3, -5, -5, -2, 2, 5
1503614551543,-0.450,-0.451,+0.292,+0.713,+0.881,-0.373,-0.379,+0.438,+0.500,+24.750,-1, -2, 0, -1, 2, -1, 0, 10
1503614551557,-0.448,-0.452,+0.290,+0.715,+0.852,-0.381,-0.388,+0.875,-3.938,+23.250,-1, 9, -3, 1, -2, 0, -4, -6
1503614551580,-0.445,-0.453,+0.287,+0.717,+0.815,-0.398,-0.389,+0.000,-3.375,+24.750,-5, -9, -7, -4, -2, -1, -3, -1
1503614551601,-0.442,-0.455,+0.285,+0.719,+0.810,-0.405,-0.372,-0.188,+2.438,+26.625,-2, 6, 9, 3, -1, -1, -4, -4
1503614551618,-0.438,-0.457,+0.284,+0.720,+0.838,-0.397,-0.366,+0.125,+5.688,+26.875,1, 2, 0, 0, 1, -1, 1, 10
1503614551641,-0.435,-0.458,+0.282,+0.722,+0.845,-0.422,-0.370,+0.438,+3.875,+25.625,1, -9, -15, 0, -4, -2, -2, 19
1503614551661,-0.432,-0.460,+0.280,+0.724,+0.854,-0.425,-0.376,+0.688,-3.312,+24.438,-6, -2, 6, -1, 1, 0, 0, -26
1503614551677,-0.430,-0.460,+0.277,+0.726,+0.833,-0.431,-0.396,+1.625,-7.438,+23.250,-4, -2, -4, -3, -2, -2, -5, -7
1503614551699,-0.428,-0.461,+0.274,+0.727,+0.781,-0.430,-0.390,+1.688,-5.938,+22.500,3, -13, -2, 0, 3, -2, 4, 5
1503614551721,-0.425,-0.463,+0.272,+0.729,+0.769,-0.440,-0.380,+1.938,+0.688,+23.938,-9, -18, -10, -4, -2, -2, 0, -10
1503614551737,-0.422,-0.465,+0.271,+0.730,+0.803,-0.445,-0.373,+3.688,+5.875,+23.938,0, 5, 3, -1, 0, 0, 0, -7
1503614551759,-0.419,-0.467,+0.269,+0.731,+0.807,-0.461,-0.377,+4.375,+7.438,+21.688,3, -17, -6, -2, -5, -3, -2, 13
1503614551782,-0.416,-0.469,+0.267,+0.732,+0.786,-0.480,-0.379,+4.688,+3.375,+20.438,-3, 10, 14, 0, 1, -2, -5, -1
1503614551798,-0.414,-0.470,+0.266,+0.733,+0.796,-0.485,-0.369,+2.750,+0.125,+18.875,-7, -5, -10, -3, -5, -2, -1, -5
1503614551819,-0.412,-0.472,+0.264,+0.734,+0.774,-0.474,-0.360,+2.062,+1.375,+16.812,-1, 14, 7, 3, 2, 0, -2, -18
1503614551844,-0.410,-0.473,+0.263,+0.734,+0.756,-0.491,-0.344,+2.562,+3.312,+14.688,3, 6, -3, 2, 2, 2, 0, -2
1503614551857,-0.408,-0.475,+0.262,+0.735,+0.788,-0.507,-0.343,+2.125,+3.750,+12.562,-4, 15, 6, -1, -1, -3, -3, -12
1503614551880,-0.406,-0.476,+0.261,+0.735,+0.798,-0.496,-0.360,+1.875,+1.688,+11.062,-1, -4, 0, -1, -1, -1, -1, 7
1503614551901,-0.405,-0.477,+0.260,+0.735,+0.795,-0.497,-0.361,+1.375,-2.062,+9.000,1, -9, -4, -1, -3, -2, -4, -7
1503614551918,-0.405,-0.477,+0.259,+0.736,+0.785,-0.497,-0.354,+1.000,-3.938,+7.875,1, 0, 1, -7, -4, -5, 1, 11
1503614555539,-0.380,-0.427,+0.382,+0.726,+0.940,-0.307,-0.347,-17.625,-1.000,-8.250,-1, -1, -1, 0, 17, 2, -1, 3
1503614555561,-0.380,-0.424,+0.383,+0.727,+0.932,-0.320,-0.328,-16.375,-6.812,-6.500,-2, 1, 3, -2, -7, -2, 3, 4
1503614555583,-0.381,-0.421,+0.383,+0.729,+0.886,-0.319,-0.319,-15.000,-8.812,-7.312,0, 4, 2, -3, -4, 1, 0, -5
1503614555599,-0.381,-0.419,+0.384,+0.729,+0.890,-0.318,-0.325,-12.938,-4.000,-7.000,-2, -2, -2, 3, 0, 0, -1, -4
1503614555621,-0.381,-0.417,+0.385,+0.730,+0.900,-0.303,-0.321,-11.188,+0.625,-4.062,0, 0, 3, 0, -2, -2, -1, 2
1503614555644,-0.380,-0.416,+0.386,+0.730,+0.935,-0.292,-0.316,-9.188,+6.188,-1.062,-1, 8, 0, -1, 0, -3, -5, 0
1503614555659,-0.380,-0.416,+0.388,+0.730,+0.918,-0.295,-0.328,-6.938,+6.375,-0.062,-3, -9, -8, -3, -3, -1, 1, -1
1503614555681,-0.380,-0.415,+0.388,+0.730,+0.893,-0.323,-0.316,-6.750,-1.000,-0.750,-1, -2, 4, 2, 0, 0, -1, -2
1503614555704,-0.379,-0.414,+0.388,+0.731,+0.938,-0.337,-0.292,-8.750,-4.812,-0.625,-2, 2, -3, -4, -5, -3, -1, -3
1503614555719,-0.379,-0.413,+0.388,+0.732,+0.941,-0.322,-0.305,-8.625,-4.688,-0.062,3, 3, 1, -2, -3, 1, 0, 0
1503614555742,-0.379,-0.411,+0.388,+0.732,+0.877,-0.299,-0.313,-8.188,-6.688,-1.812,1, -2, 1, 0, 8, -1, -1, 2
1503614555763,-0.379,-0.410,+0.388,+0.733,+0.893,-0.297,-0.304,-8.812,-6.250,-0.562,-1, -1, -2, -2, -5, 1, 1, 2
1503614555779,-0.379,-0.409,+0.388,+0.734,+0.896,-0.309,-0.318,-8.000,-2.938,+0.500,-4, -1, 3, 6, -5, 3, 1, 0
1503614555801,-0.378,-0.408,+0.388,+0.735,+0.892,-0.319,-0.316,-8.062,-0.438,+0.375,1, 4, 3, -3, -3, -2, 1, -4
1503614555824,-0.378,-0.407,+0.388,+0.735,+0.892,-0.307,-0.314,-9.438,-1.375,-1.812,-2, -1, 1, -5, -3, 3, 3, -1
1503614555839,-0.379,-0.406,+0.388,+0.736,+0.905,-0.308,-0.316,-8.938,-6.562,-4.500,0, 2, -4, 2, 1, -4, -3, -2
1503614555861,-0.380,-0.403,+0.388,+0.737,+0.896,-0.319,-0.319,-9.688,-14.250,-6.812,6, 11, 11, 3, 2, 1, 2, 1
1503614555883,-0.381,-0.401,+0.387,+0.738,+0.874,-0.317,-0.311,-11.625,-14.125,-8.938,2, 1, 5, 3, 3, 2, -2, 1
1503614555899,-0.382,-0.398,+0.387,+0.739,+0.854,-0.302,-0.310,-13.438,-11.000,-10.000,-2, 9, 2, 0, -1, -1, -1, -4
1503614555921,-0.383,-0.396,+0.388,+0.739,+0.862,-0.306,-0.306,-15.188,-8.062,-11.062,-1, 0, 3, 1, 3, 2, 1, 12
1503614555944,-0.384,-0.393,+0.389,+0.740,+0.870,-0.305,-0.307,-17.938,-6.750,-13.500,-5, -3, -12, -8, -4, -3, -1, 3
1503614555959,-0.385,-0.389,+0.390,+0.741,+0.885,-0.292,-0.340,-19.000,-7.375,-18.688,2, 1, 4, 0, 1, 1, 2, 5
1503614555981,-0.387,-0.385,+0.393,+0.740,+0.923,-0.230,-0.384,-16.625,+1.125,-19.125,-1, 3, -3, -1, -4, -3, -3, 0
1503614556006,-0.388,-0.383,+0.395,+0.740,+0.928,-0.198,-0.436,-9.500,+9.500,-12.750,-1, -6, -2, -3, -2, 0, 3, 3
1503614556019,-0.387,-0.382,+0.397,+0.739,+0.957,-0.202,-0.429,-6.188,+15.188,-0.188,-6, -10, -7, -3, 0, 0, -3, -12
1503614556042,-0.386,-0.383,+0.399,+0.738,+0.922,-0.195,-0.407,-0.062,+18.375,+6.875,2, 1, -3, 3, 1, 0, 0, -3
1503614556064,-0.385,-0.385,+0.400,+0.737,+0.953,-0.220,-0.394,+5.750,+15.375,+7.188,4, 9, 7, 3, -1, -1, -1, 2
1503614556079,-0.385,-0.387,+0.400,+0.737,+0.969,-0.263,-0.372,+10.250,+4.438,+5.500,-5, -8, -8, -9, -2, -4, 0, 0
1503614556101,-0.385,-0.389,+0.398,+0.736,+0.920,-0.277,-0.366,+15.125,-2.188,+3.438,1, -6, -3, 1, 0, 1, 1, 2
1503614556125,-0.386,-0.391,+0.396,+0.736,+0.890,-0.272,-0.347,+14.938,-7.562,+5.688,0, 1, 7, 2, 4, 0, -3, -2
1503614556141,-0.387,-0.393,+0.393,+0.736,+0.903,-0.279,-0.314,+12.625,-7.438,+5.875,2, 10, 7, 1, -2, -4, -3, -4
1503614556161,-0.387,-0.394,+0.392,+0.736,+0.894,-0.287,-0.301,+10.875,-7.188,+4.562,-3, -6, 2, 3, 0, -1, -2, -8
1503614556183,-0.388,-0.396,+0.390,+0.735,+0.899,-0.304,-0.292,+8.312,-7.062,+1.562,0, 8, 2, 1, 3, 3, 0, 0
1503614556199,-0.389,-0.396,+0.388,+0.736,+0.898,-0.316,-0.297,+5.312,-11.125,-0.062,3, 20, 11, 5, -1, 1, 1, 2
1503614556222,-0.390,-0.396,+0.387,+0.736,+0.892,-0.309,-0.276,+0.562,-13.688,-1.750,0, -14, -3, -4, -4, -3, -2, 0
1503614556245,-0.391,-0.395,+0.386,+0.737,+0.874,-0.308,-0.282,-4.625,-13.750,-5.062,-4, -7, -6, -5, -3, 0, 1, 0
1503614556260,-0.392,-0.393,+0.385,+0.737,+0.869,-0.311,-0.279,-10.000,-13.562,-8.250,12, -3, -3, -3, 0, -1, 1, 0
1503614556282,-0.393,-0.391,+0.386,+0.738,+0.882,-0.307,-0.296,-13.500,-10.625,-11.125,-4, 2, -3, -2, 1, 2, 2, -3
1503614556303,-0.393,-0.388,+0.386,+0.738,+0.889,-0.283,-0.338,-15.188,-7.875,-11.062,1, -3, 2, 3, 2, -2, 0, 2
1503614556319,-0.394,-0.385,+0.387,+0.739,+0.885,-0.256,-0.344,-16.875,-7.000,-10.312,-13, -11, -10, -3, -3, -1, -2, -6
1503614556345,-0.395,-0.381,+0.388,+0.740,+0.874,-0.250,-0.344,-19.125,-8.438,-11.688,-3, -5, -21, -4, -2, -4, -2, 7
1503614556364,-0.397,-0.377,+0.389,+0.741,+0.893,-0.259,-0.359,-19.312,-12.562,-16.188,-3, -7, -12, -7, -8, -2, -1, 2
1503614556380,-0.399,-0.373,+0.389,+0.742,+0.917,-0.253,-0.383,-18.312,-17.125,-19.625,-2, -9, 0, 2, 1, 3, 1, 5
1503614556401,-0.402,-0.368,+0.389,+0.743,+0.911,-0.231,-0.415,-15.125,-21.562,-20.500,0, -3, -3, -1, 0, 0, 4, 5
1503614556423,-0.405,-0.363,+0.388,+0.744,+0.891,-0.212,-0.417,-14.562,-21.312,-18.062,0, -3, 4, -1, -7, -3, -3, 0
1503614556443,-0.407,-0.359,+0.387,+0.745,+0.873,-0.196,-0.425,-14.250,-19.125,-14.438,1, 2, 7, 2, -4, -3, -3, -1
1503614556462,-0.410,-0.355,+0.387,+0.746,+0.888,-0.188,-0.418,-13.000,-16.312,-13.812,-1, -3, -1, 1, 0, 1, -2, -7
1503614556484,-0.412,-0.352,+0.387,+0.746,+0.914,-0.172,-0.439,-9.062,-12.438,-13.938,-8, 5, -3, 0, 1, 1, 1, -4
1503614556509,-0.414,-0.349,+0.386,+0.747,+0.920,-0.174,-0.482,-3.062,-14.000,-11.562,2, -4, -2, -3, -3, -4, -3, -2
1503614556522,-0.417,-0.347,+0.384,+0.747,+0.949,-0.171,-0.493,+1.562,-16.438,-8.938,1, -3, -2, -2, 2, 0, 2, 4
1503614556544,-0.420,-0.346,+0.381,+0.748,+0.936,-0.147,-0.487,+6.125,-22.250,-6.688,1, 9, 5, 5, 2, 1, -2, 1
1503614556566,-0.423,-0.344,+0.377,+0.749,+0.902,-0.176,-0.463,+8.750,-31.875,-3.938,1, -4, -5, -9, -6, -2, -1, -3
1503614556582,-0.426,-0.343,+0.372,+0.750,+0.905,-0.207,-0.429,+8.562,-31.500,-2.438,4, 13, 15, 8, -4, 3, 1, 3
1503614556603,-0.429,-0.343,+0.369,+0.750,+0.888,-0.172,-0.451,+12.562,-21.812,-1.688,-3, -1, 2, -1, -3, -2, -3, -7
1503614556626,-0.431,-0.344,+0.365,+0.750,+0.869,-0.170,-0.472,+18.062,-18.562,+1.062,-1, 6, -11, -1, 0, 1, 0, -1
1503614556643,-0.433,-0.345,+0.361,+0.750,+0.910,-0.179,-0.493,+19.125,-16.438,+5.125,-6, -24, -18, -7, 18, 3, 2, 1
1503614556663,-0.434,-0.346,+0.357,+0.751,+0.891,-0.208,-0.471,+19.562,-22.938,+7.000,-2, 0, 7, 4, -2, -2, -3, -2
1503614559088,-0.369,-0.454,+0.373,+0.720,+0.917,-0.396,-0.229,-36.500,-12.188,-13.812,5, 0, -2, 1, 0, 0, 2, 7
1503614559102,-0.370,-0.448,+0.375,+0.722,+0.899,-0.395,-0.255,-38.250,-13.938,-17.000,-3, -5, -4, -3, 1, 0, -2, -5
1503614559128,-0.371,-0.442,+0.377,+0.725,+0.852,-0.342,-0.300,-35.125,-9.375,-18.125,-2, -3, 3, 3, -1, -2, -3, 3
1503614559146,-0.372,-0.436,+0.380,+0.726,+0.843,-0.298,-0.331,-30.562,-5.250,-17.062,3, -1, 7, 1, -1, 0, -1, -1
1503614559162,-0.372,-0.431,+0.382,+0.728,+0.894,-0.317,-0.318,-30.125,-2.562,-13.688,-3, 0, -11, -3, -2, 1, 0, -3
1503614559183,-0.372,-0.426,+0.385,+0.730,+0.942,-0.354,-0.287,-31.312,-5.000,-11.938,-2, 1, 1, -2, -1, -1, 0, 1
1503614559206,-0.372,-0.421,+0.386,+0.732,+0.942,-0.343,-0.301,-31.000,-10.688,-12.375,9, 3, -1, -1, -1, 0, 2, 15
1503614559229,-0.373,-0.416,+0.387,+0.733,+0.888,-0.297,-0.334,-28.562,-11.000,-14.188,4, 8, 4, 1, -1, -4, 4, 6
1503614559244,-0.375,-0.410,+0.388,+0.736,+0.857,-0.288,-0.336,-27.625,-15.188,-14.312,-3, 21, 9, 1, -5, -3, -5, -13
1503614559266,-0.375,-0.405,+0.389,+0.737,+0.893,-0.310,-0.312,-28.562,-14.312,-13.625,-7, -19, -13, -6, -1, -1, -2, -4
1503614559289,-0.376,-0.400,+0.390,+0.739,+0.914,-0.324,-0.311,-29.875,-12.250,-13.062,4, 10, 3, 3, -1, 3, 1, 5
1503614559304,-0.376,-0.395,+0.392,+0.741,+0.899,-0.292,-0.327,-30.750,-8.250,-13.750,-2, -3, -2, -1, -3, -2, -2, -2
1503614559329,-0.376,-0.390,+0.394,+0.742,+0.886,-0.258,-0.345,-29.562,-5.562,-11.875,-2, 1, -2, 3, 1, -3, 1, 1
1503614559348,-0.376,-0.385,+0.396,+0.744,+0.887,-0.256,-0.347,-31.188,-5.438,-11.250,0, -3, 0, -3, 0, 0, -2, -2
1503614559364,-0.376,-0.380,+0.398,+0.746,+0.918,-0.269,-0.346,-32.062,-6.062,-10.000,-4, -3, -10, -3, -1, -1, -1, 2
1503614559398,-0.375,-0.375,+0.400,+0.748,+0.938,-0.271,-0.367,-32.438,-7.500,-10.500,-3, -6, -7, -3, -3, -3, -2, 7
1503614559408,-0.375,-0.370,+0.401,+0.749,+0.909,-0.226,-0.401,-28.438,-7.438,-10.250,-4, 11, -6, -3, -2, -1, -1, -14
1503614559423,-0.376,-0.365,+0.402,+0.751,+0.881,-0.213,-0.403,-25.812,-10.250,-9.125,-1, -2, 2, 2, -1, 1, 0, -8
1503614559446,-0.376,-0.360,+0.402,+0.753,+0.902,-0.227,-0.395,-24.875,-10.625,-7.625,1, -1, 0, -1, 0, 2, 0, 2
1503614559469,-0.376,-0.357,+0.403,+0.754,+0.886,-0.218,-0.406,-21.438,-4.250,-6.688,-2, 7, 2, 0, 2, 0, -3, 2
1503614559483,-0.376,-0.354,+0.405,+0.755,+0.875,-0.206,-0.416,-18.000,+1.688,-5.250,1, -9, -3, 0, -2, 2, 2, 16
1503614559506,-0.375,-0.352,+0.406,+0.755,+0.903,-0.210,-0.412,-14.188,+5.938,-4.250,-2, -5, 2, 0, 1, -4, -3, -7
1503614559532,-0.375,-0.350,+0.408,+0.755,+0.925,-0.202,-0.414,-10.500,+2.188,-4.938,-1, 0, 7, 1, -1, -2, -2, -2
1503614559543,-0.376,-0.348,+0.407,+0.756,+0.933,-0.209,-0.424,-6.562,-7.062,-5.812,5, -1, 3, -1, -2, -1, 1, 2
1503614559566,-0.378,-0.346,+0.406,+0.757,+0.905,-0.232,-0.409,-4.688,-13.750,-6.312,-1, -6, -9, -4, 1, 1, 0, 0
1503614559581,-0.378,-0.345,+0.405,+0.757,+0.892,-0.211,-0.403,-4.000,-9.938,-4.188,-3, 4, 2, 1, -1, -2, -1, -4
1503614559603,-0.379,-0.344,+0.405,+0.758,+0.896,-0.197,-0.386,-3.062,-5.312,-2.750,-3, -7, -3, -2, -1, -3, -3, 4
1503614559626,-0.379,-0.344,+0.405,+0.758,+0.911,-0.212,-0.366,-2.625,-4.188,-0.875,-2, 2, 7, 0, -2, 0, 1, -1
1503614559641,-0.379,-0.344,+0.405,+0.758,+0.916,-0.207,-0.376,-2.375,-0.375,-0.312,2, 0, 1, 0, -2, 1, -1, 3
1503614559665,-0.379,-0.344,+0.405,+0.758,+0.897,-0.207,-0.383,-2.000,-0.375,-1.062,-23, -6, -4, -2, -2, 2, 1, -3
1503614559686,-0.380,-0.343,+0.405,+0.758,+0.910,-0.220,-0.388,-2.062,-4.688,-1.125,0, 0, 6, 0, 1, -3, 3, -1
1503614559701,-0.380,-0.342,+0.404,+0.759,+0.899,-0.229,-0.375,-4.938,-10.188,-1.812,6, 0, -1, -1, -2, -1, 0, 3
1503614559723,-0.380,-0.341,+0.403,+0.759,+0.900,-0.224,-0.381,-6.375,-8.125,-2.250,1, 7, 14, 1, -1, 2, -5, -4
1503614559746,-0.381,-0.340,+0.403,+0.759,+0.890,-0.209,-0.394,-4.688,-3.688,-1.562,0, -6, -13, -4, -1, -2, -3, 5
1503614559761,-0.381,-0.340,+0.403,+0.760,+0.890,-0.197,-0.414,-3.750,-1.562,-0.625,-7, -3, 1, 1, 12, -3, -6, -37
1503614559783,-0.381,-0.339,+0.403,+0.760,+0.892,-0.200,-0.414,-3.500,-4.250,+0.812,-2, 4, 3, 0, -6, 2, 2, -4
1503614559807,-0.381,-0.338,+0.402,+0.761,+0.900,-0.209,-0.393,-4.500,-7.000,+0.500,0, 4, -2, -2, -6, 2, 2, 1
1503614559821,-0.381,-0.337,+0.401,+0.761,+0.893,-0.210,-0.394,-3.562,-7.438,-1.250,8, 2, 2, 1, 0, 2, 1, 14
1503614559843,-0.382,-0.337,+0.401,+0.762,+0.898,-0.212,-0.410,-2.500,-6.000,-1.062,-1, -1, 2, -2, -3, 0, 2, 4
1503614559866,-0.382,-0.336,+0.400,+0.762,+0.891,-0.203,-0.410,-2.438,-6.188,-0.438,-10, -7, -2, -1, -3, -3, -2, -8
1503614559881,-0.382,-0.336,+0.399,+0.763,+0.896,-0.195,-0.422,-1.562,-7.188,-0.188,-2, -6, -8, -2, 0, -2, 0, 3
1503614559903,-0.383,-0.335,+0.398,+0.763,+0.895,-0.201,-0.423,-0.750,-8.438,-0.125,2, -2, -1, 0, 1, 1, 0, 8
1503614559926,-0.384,-0.334,+0.397,+0.764,+0.888,-0.207,-0.420,+0.000,-10.875,-0.688,1, 0, -1, -3, 0, -2, -3, -6
1503614559942,-0.384,-0.334,+0.395,+0.764,+0.903,-0.210,-0.413,-0.562,-10.500,+0.125,-3, 0, 2, 0, -1, -1, -2, -3
1503614559963,-0.385,-0.333,+0.394,+0.765,+0.901,-0.202,-0.424,+0.500,-11.312,-0.062,-15, 1, 7, 3, -1, -2, 1, -6
1503614559986,-0.386,-0.333,+0.392,+0.766,+0.891,-0.204,-0.441,+1.125,-13.750,-0.750,-1, -3, -9, -2, -2, 2, -4, -14
1503614560003,-0.388,-0.332,+0.390,+0.767,+0.875,-0.199,-0.447,+1.812,-14.750,-0.938,-2, 0, 2, -1, -2, -2, -4, -12
1503614560023,-0.389,-0.331,+0.388,+0.767,+0.872,-0.192,-0.446,+3.250,-15.000,+0.875,3, 1, 4, 1, 2, -1, -3, -4
1503614560046,-0.390,-0.331,+0.386,+0.768,+0.885,-0.187,-0.444,+4.312,-13.188,+0.938,4, 2, 1, -3, 0, -4, -2, -5
1503614560062,-0.391,-0.331,+0.384,+0.768,+0.898,-0.194,-0.460,+7.562,-12.438,+0.312,0, -3, 2, 1, -1, 1, 5, 8
1503614560083,-0.393,-0.332,+0.381,+0.769,+0.887,-0.202,-0.473,+9.938,-13.875,+0.938,2, -10, 0, -2, -2, -1, -1, 8
1503614560107,-0.394,-0.332,+0.378,+0.769,+0.865,-0.198,-0.496,+12.938,-13.500,+3.062,12, 3, 6, 0, 1, -2, 1, 13
1503614560128,-0.396,-0.333,+0.374,+0.769,+0.874,-0.187,-0.495,+17.500,-14.188,+3.188,0, -8, -4, -3, -1, -1, 2, 6
1503614560143,-0.398,-0.335,+0.371,+0.769,+0.874,-0.181,-0.508,+22.438,-14.562,+3.062,0, -3, -2, -4, -2, 1, 1, 6
1503614560167,-0.401,-0.338,+0.366,+0.769,+0.885,-0.211,-0.500,+25.938,-16.750,+4.562,-8, 18, 5, 3, 2, 1, 0, -12
1503614560188,-0.403,-0.340,+0.362,+0.769,+0.889,-0.215,-0.494,+28.000,-17.000,+6.625,-2, -13, -9, -2, -5, 0, -1, -1
1503614560211,-0.405,-0.344,+0.357,+0.768,+0.873,-0.205,-0.504,+31.500,-16.312,+8.875,2, -5, 8, -1, 0, -1, -2, 7
1503614560235,-0.407,-0.347,+0.352,+0.768,+0.852,-0.209,-0.485,+35.562,-17.688,+8.250,-2, 8, 5, -1, -3, -4, -1, -6
1503614560248,-0.409,-0.352,+0.346,+0.767,+0.845,-0.237,-0.487,+38.562,-16.188,+8.938,-2, 2, 5, 2, 3, 1, -3, -4
1503614560263,-0.412,-0.357,+0.341,+0.766,+0.848,-0.256,-0.488,+41.000,-15.000,+10.562,1, -4, -2, -2, -2, -4, 0, 1
1503614560285,-0.413,-0.361,+0.335,+0.765,+0.861,-0.276,-0.456,+39.750,-17.000,+11.438,-4, -11, -7, -4, 0, 1, -1, -1
1503614560308,-0.415,-0.366,+0.330,+0.764,+0.859,-0.283,-0.442,+38.125,-16.688,+11.438,4, -5, -4, 1, 0, -1, -3, -1
1503614560323,-0.417,-0.371,+0.325,+0.764,+0.830,-0.273,-0.486,+40.188,-14.438,+12.188,3, 13, 3, 1, 1, -1, -4, -10
1503614560346,-0.419,-0.376,+0.319,+0.762,+0.813,-0.289,-0.461,+40.312,-13.062,+12.562,0, -9, -1, -1, -1, -2, 1, 9
1503614560370,-0.419,-0.381,+0.314,+0.761,+0.828,-0.324,-0.440,+37.312,-11.250,+13.938,1, -2, 0, 0, -1, 0, 1, -3
1503614560383,-0.420,-0.387,+0.310,+0.760,+0.830,-0.342,-0.423,+35.125,-8.750,+14.375,-4, -8, -10, -3, -1, -3, -5, -5
1503614560406,-0.420,-0.391,+0.306,+0.759,+0.818,-0.336,-0.419,+31.750,-6.375,+13.750,2, 11, 9, 0, 0, 0, 2, 1
1503614560429,-0.420,-0.396,+0.302,+0.758,+0.785,-0.350,-0.420,+29.312,-4.688,+12.562,11, 10, 21, 5, -2, 0, 2, 22
1503614560444,-0.420,-0.400,+0.299,+0.757,+0.787,-0.378,-0.406,+25.625,-2.188,+11.562,-7, -5, 6, 3, -1, -1, -4, -9
1503614560466,-0.420,-0.404,+0.297,+0.756,+0.821,-0.393,-0.395,+21.062,-2.500,+11.125,-6, -1, -2, -2, -3, -3, -3, -9
1503614560488,-0.420,-0.407,+0.295,+0.756,+0.835,-0.387,-0.405,+17.000,-5.312,+8.312,11, 16, 16, 3, 1, -2, 2, 2
1503614560503,-0.420,-0.409,+0.292,+0.755,+0.804,-0.379,-0.417,+14.250,-7.938,+6.000,-7, -22, -15, -6, -2, 0, -4, -7
1503614560526,-0.421,-0.411,+0.290,+0.755,+0.776,-0.394,-0.416,+10.438,-10.312,+4.812,5, 0, 4, -1, -1, -3, -1, 11
1503614560548,-0.421,-0.412,+0.288,+0.755,+0.787,-0.399,-0.418,+6.688,-6.875,+4.250,-6, 6, -9, -2, 0, 0, 1, 5
1503614560564,-0.421,-0.413,+0.287,+0.755,+0.782,-0.386,-0.437,+5.438,-2.688,+3.688,-4, -7, -11, -2, 1, 1, 0, 3
1503614560585,-0.421,-0.413,+0.286,+0.755,+0.827,-0.388,-0.425,+2.688,-3.938,+2.875,6, 13, 9, 3, -1, 1, 1, 0
1503614560604,-0.421,-0.413,+0.285,+0.755,+0.820,-0.385,-0.441,+1.500,-5.375,+0.688,6, 16, 2, 0, 3, -3, 0, 22
1503614560623,-0.422,-0.413,+0.284,+0.755,+0.790,-0.386,-0.452,-0.438,-9.438,-1.188,-7, -14, -4, 0, -2, 0, -1, -12
1503614560646,-0.422,-0.412,+0.283,+0.756,+0.783,-0.384,-0.459,-2.438,-6.562,+0.625,-6, -14, -3, -2, 0, -3, -4, -18
1503614560661,-0.422,-0.412,+0.283,+0.756,+0.781,-0.375,-0.458,-2.188,+2.438,+2.875,6, 15, 9, 4, 2, 5, 5, 14
1503614560683,-0.421,-0.413,+0.284,+0.756,+0.807,-0.373,-0.456,-1.688,+5.312,+2.750,-9, 0, -4, -1, -1, -2, -2, -13
1503614560706,-0.421,-0.413,+0.284,+0.756,+0.841,-0.390,-0.455,-2.312,-0.188,+1.688,-2, 1, -1, 1, 3, -1, 1, -1
1503614560721,-0.421,-0.412,+0.284,+0.757,+0.831,-0.391,-0.461,-2.938,-7.312,+0.312,-1, 0, 3, 0, -1, 0, -3, -8
1503614560744,-0.422,-0.411,+0.283,+0.757,+0.805,-0.374,-0.460,-3.875,-8.812,+0.000,0, -7, 3, -3, -1, 0, 2, 1
1503614560766,-0.422,-0.410,+0.282,+0.758,+0.772,-0.357,-0.481,-2.188,-3.062,+1.375,-2, 9, 6, 0, -4, -3, -4, -12
1503614560788,-0.422,-0.410,+0.282,+0.758,+0.772,-0.369,-0.486,+0.250,+2.062,+2.500,-6, -3, -4, 3, -1, 1, -1, -15
1503614560806,-0.421,-0.411,+0.282,+0.758,+0.809,-0.391,-0.473,+0.000,+3.062,+3.750,-5, -14, -12, -4, 0, 0, -2, -5
1503614560826,-0.421,-0.411,+0.282,+0.758,+0.817,-0.381,-0.476,-0.125,+2.562,+3.938,5, 6, 4, 2, 1, -1, -3, 1
1503614560848,-0.420,-0.412,+0.282,+0.758,+0.803,-0.368,-0.479,+0.875,+2.438,+3.188,-1, -7, -6, -2, -2, 1, -1, 3
1503614560863,-0.420,-0.412,+0.282,+0.758,+0.808,-0.375,-0.479,+3.188,+1.062,+3.312,2, 3, -1, -3, 1, -2, 0, -6
1503614560886,-0.420,-0.413,+0.281,+0.758,+0.803,-0.390,-0.479,+4.000,-1.188,+3.625,-2, -6, -2, -4, -1, -1, 1, 9
1503614560909,-0.420,-0.413,+0.280,+0.758,+0.781,-0.387,-0.473,+4.250,-0.375,+3.375,-2, 3, 3, -3, -3, -2, -1, -4
1503614560924,-0.420,-0.414,+0.280,+0.757,+0.787,-0.387,-0.457,+5.188,+1.188,+3.375,2, 24, 8, 4, -1, -1, -2, 4
1503614560947,-0.420,-0.416,+0.279,+0.757,+0.817,-0.388,-0.458,+5.812,+2.062,+2.938,5, 1, 5, 3, 2, 1, 2, 21
1503614560968,-0.420,-0.417,+0.279,+0.757,+0.817,-0.386,-0.473,+7.125,+0.750,+2.688,-4, -3, -3, -2, -3, 0, -4, -14
1503614560984,-0.420,-0.418,+0.278,+0.756,+0.803,-0.393,-0.459,+6.562,-1.938,+1.812,7, 7, -7, -1, 0, -1, 0, -1
1503614561007,-0.421,-0.418,+0.277,+0.756,+0.792,-0.391,-0.449,+6.812,-2.875,+1.562,0, -19, -12, -3, -5, -1, 2, 11
1503614561028,-0.421,-0.419,+0.276,+0.755,+0.791,-0.403,-0.454,+7.875,-2.375,+1.312,1, 14, 14, 3, 8, 1, 1, -4
1503614561044,-0.421,-0.421,+0.275,+0.755,+0.786,-0.406,-0.451,+7.375,-0.375,+1.250,-2, -1, 0, -2, -7, 1, -4, -7
1503614561066,-0.422,-0.422,+0.274,+0.754,+0.804,-0.397,-0.461,+7.875,-0.875,+1.438,3, 14, 6, 1, -3, 1, 1, -1
1503614561091,-0.422,-0.423,+0.274,+0.754,+0.821,-0.393,-0.469,+8.062,-2.688,+1.875,-1, 3, -4, -5, -1, -5, -5, -8
1503614561104,-0.423,-0.423,+0.273,+0.753,+0.815,-0.399,-0.443,+7.312,-3.188,+1.938,2, -11, -5, 1, 1, 0, 4, 2
1503614561126,-0.423,-0.424,+0.272,+0.753,+0.787,-0.409,-0.438,+6.375,-2.125,+2.750,-5, -3, 1, 0, -3, -2, -4, -10
1503614561150,-0.423,-0.426,+0.271,+0.753,+0.799,-0.410,-0.440,+7.438,-1.250,+3.312,-1, 0, -2, -2, -3, 1, -1, 3
1503614561164,-0.423,-0.427,+0.270,+0.752,+0.803,-0.410,-0.455,+7.688,-1.750,+1.875,5, 2, 0, -1, 1, -2, 0, 19
1503614561186,-0.424,-0.427,+0.268,+0.752,+0.811,-0.423,-0.451,+6.812,-6.438,+1.750,-3, 4, -2, -2, 0, 0, -1, -1
1503614561208,-0.425,-0.428,+0.267,+0.752,+0.795,-0.420,-0.446,+5.000,-8.250,+1.500,-5, -11, -7, -1, 1, -1, 1, -5
1503614561224,-0.425,-0.428,+0.266,+0.752,+0.768,-0.416,-0.444,+3.938,-4.250,+1.750,-4, 4, 8, 0, 1, -1, -5, -25
1503614561249,-0.425,-0.429,+0.265,+0.752,+0.768,-0.417,-0.441,+3.438,+1.688,+2.938,-5, 0, 3, 4, -1, -1, 1, -2
1503614561268,-0.424,-0.430,+0.265,+0.752,+0.790,-0.425,-0.446,+2.188,+3.562,+3.312,4, -4, -4, -1, -3, -1, -2, 0
1503614561286,-0.424,-0.430,+0.265,+0.751,+0.812,-0.431,-0.441,+1.375,-0.062,+1.812,0, 6, 1, 1, -1, 1, -1, -4
1503614561306,-0.424,-0.431,+0.265,+0.751,+0.791,-0.426,-0.442,+1.062,-3.438,+0.500,0, 1, 2, 0, 1, -3, -2, -6
1503614561328,-0.425,-0.431,+0.264,+0.751,+0.778,-0.426,-0.454,+0.750,-3.688,+0.562,-7, -4, -4, -1, -1, 2, -2, -9
1503614561344,-0.424,-0.431,+0.264,+0.752,+0.778,-0.419,-0.456,+0.625,+1.062,+2.500,1, -1, 4, 1, 3, 1, 4, 8
1503614561366,-0.424,-0.431,+0.264,+0.752,+0.792,-0.423,-0.445,-0.562,+1.688,+2.625,-2, -6, -4, -2, -2, -2, -2, -2
1503614561388,-0.423,-0.431,+0.264,+0.752,+0.815,-0.426,-0.447,-2.438,+1.688,+3.562,0, -1, -4, -5, -4, -1, 1, 17
1503614561404,-0.423,-0.431,+0.264,+0.752,+0.802,-0.410,-0.441,-2.312,+0.375,+3.062,-4, 3, 0, 1, 1, -1, 1, -8
1503614561425,-0.423,-0.431,+0.264,+0.752,+0.782,-0.420,-0.436,-3.062,+0.125,+2.312,1, 0, -3, -3, -2, -1, 1, 1
1503614561449,-0.422,-0.432,+0.264,+0.752,+0.773,-0.439,-0.443,-1.062,+3.438,+2.312,-2, 5, 9, 0, -1, 0, -3, 0
1503614561464,-0.421,-0.432,+0.265,+0.752,+0.770,-0.434,-0.461,-1.312,+5.500,+2.000,-3, -12, -8, -2, -1, 0, 0, 0
1503614561488,-0.421,-0.432,+0.265,+0.752,+0.784,-0.431,-0.467,-1.500,+2.375,+1.562,-1, -5, -4, -1, 0, 0, -2, 4
1503614561516,-0.421,-0.432,+0.265,+0.752,+0.788,-0.419,-0.472,-0.938,-0.438,+0.500,1, -5, -5, -1, -1, -3, 1, -4
1503614561524,-0.422,-0.432,+0.265,+0.752,+0.787,-0.415,-0.462,-0.562,-2.062,-1.438,8, 2, -1, 0, -2, 1, 2, 8
1503614561546,-0.422,-0.432,+0.265,+0.752,+0.774,-0.423,-0.458,+0.500,-0.500,-2.000,4, 3, 2, 1, 0, 0, 1, 18
1503614561568,-0.422,-0.432,+0.264,+0.752,+0.780,-0.430,-0.443,+0.312,-0.500,-2.375,-7, 6, 4, -2, 1, -1, -3, -16
1503614561584,-0.423,-0.432,+0.265,+0.752,+0.799,-0.432,-0.440,+0.312,-0.250,-2.250,-5, -5, -6, -1, -1, 0, -4, -13
1503614561605,-0.423,-0.432,+0.265,+0.751,+0.809,-0.415,-0.452,+0.750,-0.062,-2.562,-5, -6, -2, -3, -2, -2, 0, -4
1503614561629,-0.424,-0.432,+0.265,+0.751,+0.794,-0.409,-0.454,+0.812,-0.438,-2.812,0, -1, -3, -1, -3, -3, -3, -9
1503614561644,-0.424,-0.432,+0.265,+0.751,+0.798,-0.427,-0.446,+0.812,-1.188,-1.812,0, 4, 4, 0, -1, -2, -3, -11
1503614561665,-0.425,-0.432,+0.265,+0.750,+0.795,-0.420,-0.450,+0.938,-0.375,-1.375,3, 9, 14, 4, 4, 3, 3, 12
1503614561689,-0.425,-0.432,+0.265,+0.750,+0.791,-0.416,-0.448,+0.812,+0.438,-1.312,3, 11, 11, -2, -3, 0, -2, 9
1503614561704,-0.425,-0.432,+0.265,+0.750,+0.790,-0.425,-0.454,+1.438,+0.562,-1.375,4, -7, -18, -3, -4, 0, 0, -8
1503614561725,-0.426,-0.432,+0.265,+0.750,+0.792,-0.421,-0.462,+2.062,-0.938,-0.938,-4, -14, -13, -3, -2, -2, 0, 1
1503614561749,-0.426,-0.433,+0.264,+0.749,+0.799,-0.415,-0.439,+1.750,-1.625,-1.250,0, 1, -5, -2, -2, 0, 0, 22
1503614561764,-0.427,-0.433,+0.264,+0.749,+0.781,-0.416,-0.443,+2.500,-0.688,-1.625,-5, -7, -1, 4, 3, 1, 0, -3
1503614561787,-0.427,-0.433,+0.264,+0.748,+0.800,-0.423,-0.441,+2.438,-0.812,-1.125,0, -1, 1, -1, -2, 1, 2, -1
1503614561808,-0.427,-0.434,+0.264,+0.748,+0.811,-0.420,-0.448,+2.312,+0.062,-0.375,0, 2, 3, -2, 3, -2, -2, -14
1503614561824,-0.428,-0.434,+0.263,+0.748,+0.789,-0.418,-0.458,+3.750,-1.875,-0.688,3, 9, 6, -1, 0, 1, -3, -3
1503614561847,-0.428,-0.434,+0.263,+0.748,+0.783,-0.422,-0.447,+2.875,-2.938,-0.250,-3, 0, 0, -2, -2, 0, -2, -2
1503614561868,-0.428,-0.435,+0.262,+0.747,+0.801,-0.421,-0.431,+2.938,-1.188,+0.875,1, -6, -9, -3, 0, -5, 0, 16
1503614561885,-0.429,-0.435,+0.262,+0.747,+0.812,-0.417,-0.433,+3.688,+0.750,+1.188,1, 3, 4, -4, -4, -4, -1, -15
1503614561906,-0.429,-0.436,+0.262,+0.747,+0.800,-0.424,-0.451,+3.938,-0.812,+0.500,-3, -5, 1, 1, 1, 1, -1, 3
1503614561928,-0.429,-0.436,+0.261,+0.747,+0.793,-0.430,-0.457,+3.312,-2.188,+2.188,-5, 2, 1, 4, 1, 1, 0, -4
1503614561946,-0.429,-0.437,+0.260,+0.747,+0.792,-0.428,-0.437,+2.500,-2.062,+2.375,1, -9, -4, -2, -2, -2, -2, -5
1503614561966,-0.429,-0.437,+0.260,+0.746,+0.791,-0.422,-0.438,+3.562,-1.500,+1.875,-1, -1, -11, -3, 0, 0, -3, 0
1503614561989,-0.429,-0.438,+0.259,+0.746,+0.788,-0.430,-0.437,+3.875,-0.812,+1.750,-3, -10, -9, -4, 0, -3, 0, 8
1503614562004,-0.429,-0.438,+0.259,+0.746,+0.789,-0.443,-0.435,+2.188,-2.562,+1.688,-2, -4, 2, 2, 1, -2, 1, 1
1503614562026,-0.430,-0.439,+0.258,+0.746,+0.780,-0.434,-0.446,+1.938,-2.062,+0.750,-1, 3, 0, 0, -2, 2, 1, 4
1503614562049,-0.430,-0.439,+0.258,+0.746,+0.774,-0.422,-0.439,+1.812,-0.312,+1.125,-5, 0, 5, 1, -6, 1, -2, 3
1503614562064,-0.430,-0.440,+0.258,+0.746,+0.780,-0.438,-0.436,+1.688,+1.625,+0.438,3, -3, -1, 0, 4, 1, 0, 7
1503614562087,-0.430,-0.440,+0.258,+0.745,+0.796,-0.440,-0.437,+1.375,+1.312,+0.438,-3, 1, 3, 1, 0, -3, -1, -6
1503614562108,-0.430,-0.440,+0.258,+0.745,+0.797,-0.436,-0.443,+1.188,-0.750,-0.625,0, 8, -3, -3, 0, 1, -1, -10
1503614562124,-0.430,-0.440,+0.257,+0.745,+0.791,-0.425,-0.440,+0.688,-2.188,-1.312,-4, 0, -3, -2, -2, 0, -3, -7
1503614562148,-0.431,-0.440,+0.257,+0.745,+0.778,-0.434,-0.444,+1.500,-0.875,-1.312,4, 3, 7, 3, 0, -2, 1, 3
1503614562168,-0.431,-0.441,+0.257,+0.744,+0.785,-0.433,-0.442,+2.188,-0.125,-1.688,-2, -4, -3, -3, -3, -3, -2, 5
1503614562185,-0.432,-0.441,+0.257,+0.744,+0.803,-0.432,-0.441,+2.812,-0.938,-1.938,-5, -12, -4, -1, -3, -1, -2, 6
1503614562206,-0.432,-0.441,+0.256,+0.743,+0.807,-0.434,-0.448,+3.375,-3.688,-2.250,4, -2, -6, -3, 1, 0, 2, 12
1503614562228,-0.434,-0.441,+0.256,+0.743,+0.811,-0.423,-0.452,+3.375,-5.750,-2.188,-4, 13, 9, 1, -3, 0, 1, 2
1503614562251,-0.435,-0.441,+0.254,+0.743,+0.780,-0.432,-0.457,+4.125,-5.938,-1.562,-5, -9, -4, -1, -4, 1, -1, -11
1503614562266,-0.435,-0.441,+0.254,+0.743,+0.776,-0.427,-0.445,+4.500,-4.062,-1.188,6, 3, 4, -1, 1, 0, -1, 4
1503614562288,-0.436,-0.442,+0.253,+0.742,+0.792,-0.424,-0.443,+5.188,-1.438,-0.062,-1, 8, 4, 1, 0, 0, -1, 1
1503614562304,-0.436,-0.443,+0.253,+0.742,+0.801,-0.436,-0.436,+5.750,-1.938,+0.125,-13, -12, -8, 0, -2, -5, -3, 2
1503614562326,-0.437,-0.443,+0.252,+0.741,+0.807,-0.435,-0.448,+6.062,-4.750,-0.938,-2, 1, 2, 1, -6, 2, -4, -4
1503614562350,-0.438,-0.443,+0.250,+0.741,+0.789,-0.436,-0.448,+6.812,-8.062,-0.688,2, -2, -5, -4, 5, -2, -3, -4
1503614562364,-0.439,-0.444,+0.249,+0.741,+0.776,-0.434,-0.452,+6.750,-7.562,-0.625,-2, -2, -5, -1, 3, -3, 0, -4
1503614562388,-0.440,-0.444,+0.247,+0.740,+0.769,-0.432,-0.449,+7.125,-2.750,+0.625,0, 4, 3, 0, -2, 0, -1, -3
1503614562408,-0.440,-0.445,+0.247,+0.740,+0.781,-0.438,-0.435,+7.375,+0.250,+1.500,5, 0, -3, -2, 1, 1, 3, 9
1503614562424,-0.440,-0.447,+0.246,+0.739,+0.807,-0.441,-0.442,+7.875,-0.562,+1.188,-1, -13, -6, -1, 0, -1, 1, 2
1503614562446,-0.441,-0.447,+0.245,+0.738,+0.806,-0.438,-0.448,+8.812,-4.812,-0.688,2, 3, 6, 1, 0, -1, 2, 6
1503614562468,-0.443,-0.448,+0.243,+0.738,+0.791,-0.450,-0.453,+8.562,-10.812,-0.938,-4, 3, 4, 2, -1, 1, -2, -7
1503614562485,-0.444,-0.448,+0.241,+0.738,+0.769,-0.445,-0.447,+8.125,-8.875,+0.000,-3, 0, -1, -2, -1, 0, 1, -2
1503614562507,-0.444,-0.449,+0.240,+0.737,+0.760,-0.430,-0.444,+8.188,-1.750,+0.938,-1, -3, 0, 0, -1, 3, -1, 13
1503614562528,-0.444,-0.450,+0.240,+0.736,+0.788,-0.443,-0.439,+8.625,+2.688,+2.938,-3, 3, 10, 1, 0, 0, -2, -14
1503614565588,-0.520,-0.457,+0.431,+0.579,+0.993,-0.062,-0.168,-25.938,-17.625,-0.375,3, -11, -8, -3, -4, -3, 1, 5
1503614565611,-0.520,-0.452,+0.431,+0.582,+1.030,-0.058,-0.189,-23.938,-26.000,-3.500,-29, -20, -11, -4, -2, 2, -1, -5
1503614565626,-0.524,-0.446,+0.429,+0.586,+1.026,-0.034,-0.241,-19.250,-41.750,-8.562,10, 2, 2, -3, 1, -2, 2, 5
1503614565649,-0.528,-0.438,+0.426,+0.590,+0.945,-0.051,-0.257,-15.062,-50.375,-11.625,-4, -9, -4, 0, -2, -2, 1, -11
1503614565672,-0.531,-0.432,+0.423,+0.594,+0.901,-0.083,-0.218,-17.500,-41.375,-9.188,3, -1, 0, 0, -1, -2, -2, -5
1503614565686,-0.532,-0.428,+0.422,+0.596,+0.917,-0.042,-0.248,-15.438,-26.500,-5.250,-13, -6, -2, -4, -2, -2, -3, 0
1503614565708,-0.533,-0.425,+0.422,+0.598,+0.922,-0.028,-0.264,-13.625,-13.625,-3.875,-5, 0, 2, -1, -3, -1, -6, -22
1503614565730,-0.534,-0.422,+0.422,+0.600,+0.951,-0.063,-0.271,-12.875,-13.562,-2.750,5, 3, -3, -1, 1, 0, -1, -6
1503614565747,-0.534,-0.418,+0.421,+0.602,+1.007,-0.058,-0.280,-16.188,-17.875,-3.375,21, -1, 1, -2, 1, 1, 5, 17
1503614565768,-0.535,-0.415,+0.421,+0.603,+0.998,-0.013,-0.277,-10.000,-13.125,-4.438,-4, -3, -7, -3, -2, -2, -4, -10
1503614565791,-0.537,-0.413,+0.421,+0.604,+1.000,-0.010,-0.270,-6.750,-15.250,-3.375,-11, -14, -4, -5, -3, -3, -1, 1
1503614565807,-0.537,-0.411,+0.420,+0.605,+0.929,-0.051,-0.282,-5.750,-10.062,+0.062,-23, -9, -5, -3, 1, -3, -6, -17
1503614565828,-0.537,-0.411,+0.420,+0.606,+0.910,-0.052,-0.271,-4.312,+1.250,+2.250,4, 1, 1, 1, -1, 0, 0, 20
1503614565850,-0.536,-0.411,+0.420,+0.606,+0.994,-0.002,-0.286,-5.562,+4.562,+4.312,-11, 0, 1, -1, -2, 0, -1, -17
1503614565866,-0.535,-0.412,+0.420,+0.606,+1.009,-0.021,-0.277,+0.812,+3.562,+6.750,2, -1, -3, 0, -1, -2, -1, 8
1503614565888,-0.535,-0.412,+0.420,+0.606,+0.983,-0.047,-0.246,+1.875,-2.812,+4.562,10, 1, 4, -3, -2, 0, -6, -15
1503614565911,-0.535,-0.413,+0.418,+0.607,+0.940,-0.066,-0.292,+1.500,-2.562,+4.750,-2, -6, -6, 0, -4, -2, -3, -9
1503614565926,-0.534,-0.413,+0.418,+0.607,+0.920,-0.053,-0.272,-0.500,+2.938,+5.625,12, 3, 0, -1, 2, 2, 3, 33
1503614565948,-0.533,-0.414,+0.418,+0.608,+0.973,-0.057,-0.237,-0.688,+3.688,+7.062,4, 0, -1, 0, -1, 0, 1, 10
1503614565972,-0.533,-0.415,+0.418,+0.608,+1.023,-0.038,-0.261,+0.062,-0.062,+6.250,1, -5, 0, -1, 1, 0, 1, 6
1503614565986,-0.533,-0.415,+0.417,+0.608,+0.985,-0.060,-0.262,+0.125,-7.562,+2.438,-8, -4, -2, 4, 1, 0, -3, -22
1503614566008,-0.533,-0.414,+0.416,+0.609,+0.933,-0.071,-0.256,-1.625,-10.000,+2.750,-15, 1, 9, 4, 0, -2, -5, -12
1503614566030,-0.533,-0.414,+0.415,+0.610,+0.910,-0.077,-0.238,-2.750,-2.000,+3.438,1, 2, -3, -4, -2, -1, 0, 2
1503614566047,-0.532,-0.414,+0.415,+0.611,+1.013,-0.062,-0.254,-2.938,+0.812,+6.438,7, -4, -2, -1, -1, 2, -3, 12
1503614566068,-0.533,-0.414,+0.414,+0.611,+1.036,-0.037,-0.268,-2.000,-10.688,+1.812,-13, 8, -1, -3, -2, 1, 0, 1
1503614566090,-0.534,-0.411,+0.413,+0.613,+0.966,-0.080,-0.253,-7.750,-23.500,-0.125,-7, -5, -6, -4, 0, 1, 0, -6
1503614566108,-0.534,-0.409,+0.411,+0.615,+0.899,-0.071,-0.276,-5.062,-13.438,-0.250,6, 4, 13, 5, 2, 0, 2, 6
1503614566128,-0.534,-0.408,+0.411,+0.616,+0.931,-0.062,-0.262,-8.188,-5.250,+4.125,11, -7, -6, 0, 0, 0, -1, 9
1503614566151,-0.532,-0.408,+0.411,+0.617,+0.963,-0.068,-0.290,-8.625,+2.000,+7.500,0, 0, 6, -4, -4, -6, -3, 0
1503614566166,-0.532,-0.407,+0.412,+0.618,+0.997,-0.044,-0.285,-9.750,-5.938,+2.688,-5, 2, 3, 1, -1, -3, -4, -7
1503614566188,-0.532,-0.405,+0.411,+0.620,+0.947,-0.068,-0.272,-9.688,-13.500,+2.812,-6, -10, -2, 0, -3, 1, -4, -29
1503614566211,-0.532,-0.404,+0.411,+0.621,+0.937,-0.051,-0.284,-9.500,-8.188,+1.812,-10, -9, -5, -2, -4, -3, -5, -21
1503614566226,-0.531,-0.403,+0.411,+0.622,+0.933,-0.064,-0.287,-9.250,-4.125,+4.000,19, 12, 5, 2, 2, 1, 1, 5
1503614566250,-0.530,-0.402,+0.411,+0.623,+1.003,-0.050,-0.288,-9.000,-2.500,+4.000,2, 8, 4, 0, -2, -1, 2, 14
1503614566270,-0.530,-0.400,+0.410,+0.625,+1.011,-0.046,-0.313,-6.125,-12.938,+2.438,-2, -3, -3, -1, -2, -2, -2, -4
1503614566289,-0.531,-0.398,+0.409,+0.626,+0.946,-0.058,-0.287,-6.250,-19.500,-0.875,0, 6, 1, -1, 1, -1, -4, 6
1503614566311,-0.533,-0.395,+0.406,+0.628,+0.935,-0.063,-0.316,-3.750,-23.812,-1.375,9, -1, 0, 0, 2, 1, 6, 19
1503614566330,-0.535,-0.393,+0.404,+0.630,+0.959,-0.042,-0.342,-2.562,-23.625,-0.688,-6, -2, 1, 1, 0, 1, -1, 1
1503614566347,-0.536,-0.390,+0.402,+0.631,+0.950,-0.051,-0.344,-3.625,-22.375,+1.312,-6, -4, -7, -1, 0, -2, 0, 6
1503614566368,-0.536,-0.389,+0.400,+0.633,+0.969,-0.058,-0.309,-6.062,-17.438,+4.188,-1, -14, -8, -1, 1, 0, -1, -1
1503614566390,-0.537,-0.388,+0.399,+0.635,+0.989,-0.028,-0.336,-2.250,-15.438,+7.375,22, 14, 4, 1, 4, -4, 4, 26
1503614566406,-0.537,-0.386,+0.396,+0.637,+0.989,-0.040,-0.359,-0.438,-19.125,+10.125,0, -8, -6, -2, 5, 1, -1, -3
1503614566428,-0.537,-0.386,+0.393,+0.639,+0.963,-0.049,-0.371,+1.750,-19.750,+12.938,-13, 3, 1, 0, -6, -1, -1, -17
1503614568852,-0.482,-0.533,+0.323,+0.616,+0.955,-0.359,-0.146,-3.875,-7.938,-7.562,-3, 0, -3, -2, 0, -2, -1, -1
1503614568874,-0.483,-0.532,+0.324,+0.616,+0.921,-0.339,-0.150,-7.125,-3.562,-8.000,-2, -5, -2, -3, -3, -3, 1, -1
1503614568889,-0.484,-0.531,+0.325,+0.616,+0.931,-0.336,-0.155,-8.438,-2.562,-9.000,-2, -11, -5, -1, 0, -3, 0, -4
1503614568911,-0.485,-0.528,+0.326,+0.616,+0.913,-0.345,-0.171,-9.000,-9.750,-12.062,0, 1, -1, -2, 0, 1, 0, -1
1503614568935,-0.487,-0.526,+0.326,+0.617,+0.887,-0.353,-0.157,-13.125,-10.062,-13.375,1, 6, -1, 0, 0, 1, -3, -1
1503614568949,-0.487,-0.523,+0.328,+0.617,+0.916,-0.361,-0.135,-17.750,-7.312,-14.562,2, 7, 3, 1, 0, -2, 0, -3
1503614568971,-0.489,-0.520,+0.331,+0.617,+0.941,-0.349,-0.137,-21.375,-9.750,-19.938,-3, 0, 4, 2, -2, 1, -2, -10
1503614568997,-0.491,-0.516,+0.334,+0.618,+0.934,-0.307,-0.162,-24.062,-11.938,-24.500,0, 0, 0, 2, -1, -2, 0, 4
1503614569010,-0.493,-0.511,+0.337,+0.619,+0.920,-0.282,-0.215,-24.625,-7.938,-23.625,-3, 2, -1, -3, 0, 1, -1, 1
1503614569032,-0.494,-0.507,+0.341,+0.619,+0.916,-0.283,-0.201,-26.750,-3.562,-21.875,-3, -8, 0, -1, -3, -1, -3, -2
1503614569053,-0.495,-0.502,+0.344,+0.620,+0.970,-0.288,-0.165,-28.000,-10.250,-21.188,-2, 7, -6, -2, -2, 0, 1, 1
1503614569069,-0.498,-0.496,+0.346,+0.621,+0.954,-0.268,-0.178,-27.938,-23.688,-25.125,-2, 1, 14, 1, 0, -2, 0, -6
1503614569091,-0.502,-0.489,+0.348,+0.623,+0.902,-0.250,-0.223,-29.312,-30.688,-30.062,11, 1, -2, -1, -1, 0, 4, 18
1503614569113,-0.506,-0.482,+0.350,+0.624,+0.930,-0.230,-0.307,-27.188,-18.250,-28.188,-3, 1, 2, 1, -1, -2, -1, 0
1503614569130,-0.509,-0.477,+0.352,+0.624,+0.946,-0.187,-0.354,-18.125,-11.562,-23.375,-2, 1, -9, -4, -1, 2, -3, -5
1503614569152,-0.512,-0.472,+0.353,+0.625,+0.989,-0.201,-0.304,-17.062,-22.500,-19.375,2, 4, 0, 0, -1, 1, -1, 6
1503614569174,-0.515,-0.466,+0.353,+0.627,+0.988,-0.230,-0.243,-23.438,-30.625,-16.125,2, 1, 8, 2, -2, 2, 2, 5
1503614569198,-0.518,-0.460,+0.353,+0.629,+0.956,-0.194,-0.270,-21.688,-30.375,-17.625,0, 0, -3, -3, -2, 0, 0, 5
1503614569211,-0.522,-0.454,+0.353,+0.630,+0.932,-0.157,-0.301,-16.125,-31.938,-20.062,-3, -7, -8, -1, 1, -1, 0, -7
1503614569234,-0.526,-0.448,+0.352,+0.632,+0.906,-0.182,-0.319,-15.188,-33.500,-19.438,-3, -9, -16, -6, -3, -4, -8, -17
1503614569249,-0.528,-0.443,+0.352,+0.633,+0.907,-0.206,-0.318,-16.750,-23.062,-13.875,-3, 4, -3, -1, 1, -1, -1, -4
1503614569272,-0.529,-0.440,+0.353,+0.634,+0.938,-0.165,-0.310,-16.375,-13.062,-10.250,-1, 2, 7, -2, -1, 0, 0, 4
1503614569294,-0.531,-0.436,+0.354,+0.635,+0.988,-0.150,-0.318,-16.062,-14.438,-9.250,2, -8, 2, 0, -2, 1, 1, 4
1503614569317,-0.532,-0.433,+0.354,+0.636,+0.961,-0.179,-0.317,-18.562,-17.938,-7.875,0, -2, -7, -6, -2, -2, 1, 6
1503614569332,-0.533,-0.429,+0.354,+0.638,+0.926,-0.170,-0.342,-18.750,-18.500,-6.562,6, 11, 18, 11, 3, 2, 2, 1
1503614569354,-0.534,-0.425,+0.354,+0.640,+0.915,-0.139,-0.365,-16.000,-16.062,-6.125,-4, -6, -8, -1, -1, -2, -1, -3
1503614569370,-0.535,-0.421,+0.354,+0.641,+0.909,-0.147,-0.365,-14.938,-16.688,-4.938,-2, -4, 1, -1, 0, -2, -2, 1
1503614569392,-0.535,-0.418,+0.354,+0.643,+0.934,-0.182,-0.315,-19.750,-16.188,-4.062,6, 17, 11, 0, 1, -2, 2, 4
1503614569414,-0.535,-0.415,+0.355,+0.645,+0.944,-0.160,-0.338,-20.375,-15.500,-4.375,-2, 10, 13, 2, 2, 0, -2, 0
1503614569436,-0.536,-0.411,+0.355,+0.646,+0.917,-0.110,-0.398,-15.688,-12.500,-6.438,-1, 2, 2, -1, -2, 0, -1, -2
1503614569450,-0.538,-0.407,+0.355,+0.648,+0.897,-0.119,-0.402,-12.938,-17.188,-5.250,-1, -9, -7, -3, -4, -2, -1, -1
1503614569475,-0.538,-0.404,+0.354,+0.649,+0.914,-0.147,-0.377,-14.438,-14.688,-3.500,0, 4, -7, -2, 2, -1, 0, -2
1503614569496,-0.539,-0.402,+0.355,+0.650,+0.916,-0.123,-0.396,-12.625,-10.125,-4.938,-2, -3, 5, -1, -4, -1, -3, -4
1503614569510,-0.540,-0.399,+0.355,+0.651,+0.920,-0.122,-0.398,-9.688,-9.375,-3.750,0, 0, 1, 0, 1, -1, 0, 0
1503614569533,-0.540,-0.398,+0.355,+0.652,+0.912,-0.127,-0.418,-8.438,-6.938,-1.375,-2, -6, -7, 0, 4, -2, -1, 0
1503614569548,-0.540,-0.396,+0.355,+0.652,+0.905,-0.114,-0.386,-8.938,-6.875,-1.688,-4, -6, -5, 0, 3, 1, 1, -1
1503614569570,-0.541,-0.394,+0.355,+0.653,+0.928,-0.137,-0.371,-8.812,-10.875,-3.500,1, 1, 1, -2, -4, 2, -1, 0
1503614569593,-0.542,-0.392,+0.354,+0.654,+0.940,-0.135,-0.390,-7.812,-14.812,-3.750,-1, 6, 5, -4, 0, -1, -1, 0
1503614569608,-0.543,-0.389,+0.353,+0.655,+0.921,-0.109,-0.430,-7.188,-18.625,-4.750,-2, -3, 1, 2, -2, 0, 0, -3
1503614569630,-0.544,-0.386,+0.352,+0.656,+0.893,-0.105,-0.419,-7.875,-17.125,-2.500,1, 23, 12, 1, -2, -3, -1, -7
1503614569653,-0.545,-0.385,+0.351,+0.657,+0.873,-0.112,-0.416,-7.188,-8.625,+0.250,-3, -12, -7, -1, -3, 1, -4, -1
1503614569668,-0.544,-0.384,+0.352,+0.658,+0.879,-0.114,-0.397,-6.875,-1.250,+2.500,-1, -2, -1, 3, 2, 1, 0, -1
1503614569690,-0.543,-0.384,+0.352,+0.658,+0.936,-0.121,-0.398,-6.500,+1.812,+3.750,2, -5, 0, -1, 2, -2, 1, -3
1503614569713,-0.543,-0.383,+0.352,+0.659,+0.957,-0.111,-0.436,-4.750,-3.500,+2.875,-1, 6, 5, 2, 2, 4, 2, 2
1503614569728,-0.543,-0.382,+0.351,+0.660,+0.935,-0.109,-0.459,-4.375,-9.875,+3.125,1, -7, -8, -3, -3, -5, -1, 14
1503614569750,-0.543,-0.381,+0.350,+0.661,+0.885,-0.111,-0.444,-5.000,-8.375,+5.938,6, 8, -3, 0, -2, -3, -1, -3
1503614569782,-0.542,-0.381,+0.350,+0.662,+0.864,-0.115,-0.409,-3.625,-0.250,+9.688,-4, -8, -1, -1, -2, -4, -1, 0
1503614569788,-0.540,-0.382,+0.350,+0.663,+0.906,-0.113,-0.415,-0.188,+5.438,+11.000,-1, -1, 0, -1, 1, 18, -1, 1
1503614569811,-0.539,-0.383,+0.349,+0.664,+0.945,-0.121,-0.428,+0.688,+0.375,+9.812,0, -2, -2, -4, -2, -4, -2, -3
1503614569837,-0.539,-0.383,+0.348,+0.665,+0.954,-0.135,-0.434,-0.625,-8.125,+9.438,-1, 1, 6, 0, 1, -4, -2, -4
1503614569849,-0.539,-0.383,+0.346,+0.666,+0.909,-0.118,-0.449,+0.125,-9.562,+11.312,-5, -8, -4, -2, 0, -2, -1, 0
1503614569870,-0.537,-0.383,+0.344,+0.668,+0.854,-0.118,-0.444,+1.125,-2.062,+13.812,0, -2, -1, -1, -2, 3, 1, 1
1503614569894,-0.535,-0.385,+0.343,+0.669,+0.867,-0.145,-0.416,+1.875,+4.250,+17.500,-1, -3, 3, 1, 0, 2, 2, 7
1503614569909,-0.533,-0.387,+0.343,+0.670,+0.934,-0.169,-0.387,+0.188,+5.812,+18.312,4, 13, 24, 8, 4, 0, 3, -9
1503614569930,-0.531,-0.389,+0.342,+0.671,+0.949,-0.145,-0.428,+1.188,+3.875,+17.500,-6, -9, -13, -6, -4, -2, -2, 1
1503614569953,-0.529,-0.390,+0.341,+0.672,+0.916,-0.154,-0.429,+0.625,-4.250,+16.250,6, 0, -5, -4, -5, -4, 3, 12
1503614569969,-0.528,-0.390,+0.339,+0.674,+0.886,-0.174,-0.415,-1.062,-8.562,+17.000,3, 2, 4, 0, 0, 0, 0, 4
1503614569990,-0.526,-0.391,+0.337,+0.676,+0.862,-0.156,-0.433,+0.562,-3.500,+17.750,-3, -6, -10, -3, -2, 1, -3, -13
1503614570013,-0.524,-0.392,+0.336,+0.677,+0.885,-0.165,-0.420,+1.125,+1.312,+18.312,16, 2, 3, 0, 0, 1, 0, 11
1503614570028,-0.522,-0.394,+0.335,+0.679,+0.917,-0.183,-0.418,+0.938,+3.188,+19.438,-11, -1, -6, -2, 0, 0, 1, 3
1503614570050,-0.520,-0.395,+0.333,+0.680,+0.932,-0.180,-0.434,+1.688,+0.000,+20.812,-2, 14, 12, 1, -1, 2, 1, 3
1503614570073,-0.518,-0.396,+0.331,+0.682,+0.916,-0.173,-0.441,+1.688,-2.562,+22.125,-9, 2, -3, -1, -1, -2, -2, -4
1503614570096,-0.515,-0.398,+0.329,+0.684,+0.903,-0.181,-0.423,+3.312,-2.375,+23.250,-2, -8, -11, -4, -1, 0, -1, -6
1503614570110,-0.513,-0.399,+0.327,+0.686,+0.909,-0.202,-0.427,+4.938,-5.375,+24.750,5, -4, -10, -3, -2, 0, 6, 15
1503614570133,-0.511,-0.401,+0.324,+0.688,+0.914,-0.208,-0.442,+5.188,-5.375,+26.938,-2, -3, 5, 1, 1, -2, -2, -7
1503614570155,-0.509,-0.403,+0.320,+0.690,+0.895,-0.215,-0.463,+7.688,-5.938,+28.312,-2, 13, 8, 1, -2, -1, -1, -14
1503614570170,-0.506,-0.405,+0.317,+0.693,+0.900,-0.228,-0.435,+7.812,-9.562,+30.375,-1, 1, 3, 0, 0, -2, -4, -13
1503614570193,-0.504,-0.406,+0.313,+0.695,+0.910,-0.219,-0.449,+9.562,-9.250,+32.125,0, 0, -3, 2, 0, 2, -3, 4
1503614573314,-0.403,-0.378,+0.406,+0.728,+0.915,-0.221,-0.355,+1.500,+10.188,-3.688,0, 0, 7, 1, -1, -3, -2, -3
1503614573336,-0.403,-0.379,+0.408,+0.727,+0.928,-0.218,-0.329,+3.438,+13.250,-4.750,0, 7, -1, -1, 0, -1, 2, 2
1503614573351,-0.403,-0.380,+0.409,+0.725,+0.946,-0.222,-0.338,+5.500,+12.375,-6.438,0, -1, -1, 3, 4, -5, -5, -4
1503614573374,-0.404,-0.381,+0.410,+0.723,+0.939,-0.223,-0.341,+6.312,+6.438,-5.625,-1, 5, 2, 1, 1, 2, -6, -1
1503614573397,-0.406,-0.381,+0.410,+0.723,+0.921,-0.223,-0.328,+6.312,-0.750,-5.875,0, 1, 2, 1, -2, -2, 1, -1
1503614573411,-0.407,-0.381,+0.409,+0.722,+0.908,-0.229,-0.312,+4.000,-4.500,-7.562,0, 2, 0, -1, 1, 1, -2, -1
1503614573434,-0.408,-0.381,+0.409,+0.722,+0.904,-0.247,-0.277,+1.188,-7.000,-8.812,0, -8, -5, -5, -5, -1, 3, 1
1503614573456,-0.409,-0.381,+0.409,+0.721,+0.917,-0.242,-0.263,-2.562,-5.688,-9.625,-3, -2, -3, -2, -2, -2, 0, -1
1503614573471,-0.410,-0.380,+0.410,+0.721,+0.934,-0.232,-0.271,-5.062,-4.438,-10.375,1, 1, 0, -1, 2, -1, -2, 0
1503614573494,-0.411,-0.378,+0.411,+0.720,+0.958,-0.211,-0.289,-7.750,-2.000,-10.438,0, 3, -1, 2, 4, 1, 0, -1
1503614573516,-0.412,-0.376,+0.412,+0.720,+0.945,-0.195,-0.323,-9.375,-3.688,-9.188,-1, 0, -1, -2, -5, -2, -1, -1
1503614573534,-0.413,-0.374,+0.412,+0.721,+0.936,-0.201,-0.315,-11.250,-8.375,-7.000,-1, -1, -1, -4, 0, 0, 1, -3
1503614573554,-0.413,-0.372,+0.413,+0.722,+0.945,-0.208,-0.294,-14.438,-9.500,-5.125,0, 2, 4, 1, -4, -3, -5, -3
1503614573576,-0.413,-0.370,+0.413,+0.723,+0.945,-0.206,-0.311,-15.500,-8.688,-5.875,0, 2, -1, 0, 1, -1, -1, -1
1503614573601,-0.413,-0.367,+0.414,+0.724,+0.937,-0.174,-0.344,-15.188,-7.438,-5.812,1, 4, 5, 2, 2, -1, 0, -1
1503614573614,-0.413,-0.364,+0.414,+0.725,+0.911,-0.175,-0.357,-14.625,-9.375,-4.938,1, 0, -1, -2, -6, -2, -3, -4
1503614573638,-0.413,-0.361,+0.414,+0.726,+0.923,-0.182,-0.356,-16.188,-8.125,-2.250,-2, 3, 0, 0, -1, 4, -1, -2
1503614573651,-0.412,-0.359,+0.415,+0.727,+0.930,-0.173,-0.361,-16.438,-3.438,-0.812,-2, -2, -1, -5, -2, -5, 0, 0
1503614573674,-0.412,-0.357,+0.416,+0.728,+0.923,-0.158,-0.369,-14.000,-1.125,-0.125,-2, -3, -1, 0, -2, 3, 1, 1
1503614573697,-0.411,-0.355,+0.416,+0.729,+0.902,-0.165,-0.359,-12.938,-4.125,+0.125,-2, -2, -6, -3, -2, -5, -5, -1
1503614573711,-0.411,-0.354,+0.416,+0.730,+0.917,-0.184,-0.343,-14.188,-4.625,-0.750,-1, -4, -2, 0, -4, -1, 0, 1
1503614573734,-0.410,-0.352,+0.417,+0.731,+0.910,-0.171,-0.345,-13.688,-5.062,-2.125,-1, 1, 2, 0, 3, 1, 0, 2
1503614573756,-0.410,-0.349,+0.417,+0.732,+0.909,-0.167,-0.366,-12.812,-5.875,-4.812,-2, -5, -3, -2, -2, -5, -4, -3
1503614573771,-0.411,-0.347,+0.417,+0.733,+0.906,-0.161,-0.391,-12.000,-4.562,-5.188,0, 0, -4, -1, -2, 1, -2, -4
1503614573796,-0.411,-0.345,+0.418,+0.733,+0.918,-0.156,-0.404,-9.625,-2.688,-3.625,0, 3, 6, 5, 4, -2, -4, 1
1503614573816,-0.411,-0.344,+0.418,+0.733,+0.922,-0.136,-0.408,-7.750,+2.125,-1.062,-3, 1, -8, -4, 0, -1, -1, 0
1503614573832,-0.410,-0.344,+0.419,+0.733,+0.923,-0.131,-0.398,-5.125,+5.125,+1.812,2, 5, -2, 0, 0, 0, -4, -1
1503614573854,-0.410,-0.344,+0.420,+0.733,+0.929,-0.138,-0.380,-3.062,+3.938,+2.188,-2, -3, 1, -4, -3, -1, 0, 2
1503614573876,-0.410,-0.344,+0.420,+0.733,+0.921,-0.168,-0.361,-1.625,-0.438,-0.188,-1, -4, -2, 0, 0, 1, 4, 3
1503614573891,-0.410,-0.344,+0.419,+0.733,+0.912,-0.171,-0.355,-1.000,-3.312,-3.125,1, 1, -2, -1, 1, 1, 1, 0
1503614573914,-0.411,-0.343,+0.419,+0.733,+0.900,-0.163,-0.369,-0.562,-2.250,-4.562,-1, -1, -6, -2, -2, -1, -1, 1
1503614573937,-0.411,-0.343,+0.419,+0.733,+0.907,-0.169,-0.358,-1.125,-1.625,-4.562,-3, -3, 1, -1, 0, -1, 1, 0
1503614573951,-0.412,-0.342,+0.419,+0.733,+0.925,-0.169,-0.352,-3.062,-4.812,-4.938,4, 3, 2, 0, -5, 0, -3, -3
1503614573974,-0.412,-0.341,+0.420,+0.733,+0.941,-0.152,-0.350,-4.375,-3.438,-4.312,1, 2, 0, -2, -2, -3, 1, 1
1503614573998,-0.413,-0.340,+0.420,+0.733,+0.933,-0.140,-0.374,-3.250,-2.750,-4.188,-2, -8, -2, -1, -1, -2, 0, 1
1503614574011,-0.414,-0.340,+0.419,+0.733,+0.935,-0.146,-0.367,-2.375,-6.500,-3.438,-1, -2, -4, -1, 0, 0, -3, 1
1503614574034,-0.415,-0.339,+0.418,+0.734,+0.940,-0.153,-0.379,-2.062,-11.188,-4.125,2, 13, 10, 3, 3, 1, -3, -5
1503614574056,-0.416,-0.337,+0.417,+0.734,+0.935,-0.147,-0.386,-1.375,-11.812,-3.500,-5, -9, -13, -3, -1, -2, 0, 1
1503614574078,-0.417,-0.336,+0.416,+0.735,+0.913,-0.133,-0.389,-0.188,-11.750,-2.375,-3, -5, -7, -4, -1, -2, 0, -1
1503614574094,-0.418,-0.336,+0.414,+0.735,+0.926,-0.134,-0.398,+0.938,-9.938,-1.125,0, -2, -1, -1, -1, -1, 0, -1
1503614574116,-0.419,-0.335,+0.413,+0.736,+0.929,-0.129,-0.402,+2.938,-9.938,+0.062,-3, -4, -4, -7, 0, 0, 0, -2
1503614574132,-0.420,-0.335,+0.411,+0.736,+0.928,-0.131,-0.414,+5.625,-11.625,+0.750,-3, -1, 0, -1, -1, 1, -2, -1
1503614574154,-0.422,-0.335,+0.409,+0.737,+0.930,-0.132,-0.420,+8.188,-12.938,+1.312,1, 2, 2, 3, 0, 0, 0, 0
1503614574177,-0.423,-0.336,+0.406,+0.737,+0.916,-0.141,-0.420,+11.062,-14.312,+1.875,6, 6, 9, -1, -2, -2, 0, 3
1503614574201,-0.425,-0.336,+0.403,+0.738,+0.909,-0.145,-0.427,+13.250,-15.938,+2.125,5, 2, 0, 1, -4, 2, 0, 0
1503614574214,-0.427,-0.337,+0.399,+0.738,+0.905,-0.141,-0.429,+15.188,-17.750,+2.062,-2, 0, -3, -3, 1, -1, -1, -1
1503614574238,-0.429,-0.338,+0.395,+0.739,+0.906,-0.151,-0.422,+17.000,-18.688,+3.625,-2, -2, -1, 1, 1, -3, -1, -1
1503614574265,-0.430,-0.340,+0.392,+0.739,+0.899,-0.160,-0.427,+17.250,-15.750,+4.812,-2, -3, -5, 0, 1, 1, 2, 1
1503614574281,-0.432,-0.341,+0.388,+0.739,+0.897,-0.154,-0.428,+18.438,-14.562,+5.625,-3, 2, 0, 2, 10, 3, 3, 1
1503614574297,-0.434,-0.343,+0.385,+0.739,+0.924,-0.150,-0.423,+19.562,-15.625,+5.938,-1, 1, -2, 1, 0, -3, 0, -1
1503614574318,-0.435,-0.345,+0.381,+0.739,+0.921,-0.171,-0.441,+21.062,-17.812,+5.875,0, -9, -8, -3, -3, -1, -2, 0
1503614574334,-0.437,-0.346,+0.376,+0.740,+0.895,-0.187,-0.436,+21.875,-22.375,+6.812,-2, -3, -3, -5, -2, -1, -1, -2
1503614574356,-0.439,-0.348,+0.371,+0.740,+0.881,-0.195,-0.419,+19.812,-22.562,+6.188,2, 2, 8, 2, 5, 3, 1, 0
1503614574378,-0.441,-0.349,+0.367,+0.741,+0.872,-0.183,-0.447,+20.500,-20.312,+6.000,-3, -9, -6, 0, -2, 2, -3, -1
1503614574394,-0.443,-0.351,+0.362,+0.741,+0.879,-0.182,-0.469,+21.688,-19.125,+7.375,-2, 1, 2, 1, 2, -6, -1, 0
1503614574416,-0.444,-0.353,+0.358,+0.742,+0.893,-0.200,-0.451,+21.875,-18.188,+9.938,4, 1, -4, -1, 0, 0, -4, -1
1503614574438,-0.445,-0.356,+0.353,+0.742,+0.880,-0.202,-0.458,+22.562,-17.062,+11.938,4, -3, -4, -2, -2, -1, 1, 4
1503614574454,-0.446,-0.358,+0.349,+0.742,+0.862,-0.203,-0.453,+22.312,-16.125,+12.500,-3, 0, 0, 2, 2, 2, 1, 4
1503614574476,-0.447,-0.361,+0.344,+0.743,+0.838,-0.228,-0.434,+21.250,-14.938,+11.562,-1, 5, 5, -1, -3, -3, -2, -3
1503614574500,-0.447,-0.363,+0.340,+0.743,+0.834,-0.254,-0.423,+20.188,-14.250,+11.125,2, 18, 14, 3, -2, -1, 1, 0
1503614574514,-0.448,-0.365,+0.337,+0.743,+0.859,-0.250,-0.442,+17.562,-13.062,+10.125,0, 1, -1, -3, -2, -1, -5, -5
1503614574536,-0.448,-0.368,+0.333,+0.743,+0.848,-0.229,-0.477,+18.625,-8.250,+10.438,-2, -3, -3, -2, 3, 0, -1, -2
1503614574558,-0.448,-0.370,+0.331,+0.743,+0.856,-0.235,-0.492,+19.312,-4.562,+13.250,-5, -6, -4, -3, 0, -3, -1, -1
1503614574574,-0.448,-0.373,+0.327,+0.743,+0.862,-0.251,-0.470,+19.375,-5.375,+15.375,0, -2, -11, -2, -3, 1, -1, -1
1503614574596,-0.448,-0.376,+0.324,+0.744,+0.864,-0.266,-0.468,+19.562,-7.750,+14.438,-1, 1, -9, -2, -1, -3, 4, 2
1503614574618,-0.448,-0.379,+0.320,+0.744,+0.840,-0.267,-0.459,+19.250,-12.000,+12.438,-3, -8, -6, -1, 2, -1, 0, 2
1503614574636,-0.448,-0.381,+0.317,+0.744,+0.837,-0.284,-0.451,+18.688,-12.188,+12.562,-1, -3, 4, 2, -3, -1, -1, -1
1503614577558,-0.389,-0.339,+0.439,+0.736,+0.946,-0.154,-0.333,-2.688,+0.125,+0.188,1, 2, 0, 1, -7, 1, -3, -5
1503614577580,-0.389,-0.339,+0.439,+0.736,+0.951,-0.146,-0.335,-1.812,-0.312,+0.375,1, 4, 4, -1, -4, 3, 0, 3
1503614577597,-0.389,-0.338,+0.439,+0.736,+0.950,-0.149,-0.337,-1.500,-3.250,-0.875,4, 3, 9, 2, 0, -2, 3, 7
1503614577618,-0.390,-0.338,+0.439,+0.736,+0.925,-0.160,-0.349,-1.562,-4.312,+0.375,-3, -12, 2, -2, -1, -1, -4, -1
1503614577640,-0.389,-0.338,+0.438,+0.736,+0.904,-0.159,-0.336,-2.062,-2.188,+1.625,-1, -6, -4, -1, 1, -2, -1, -2
1503614577656,-0.389,-0.338,+0.438,+0.736,+0.921,-0.160,-0.319,-3.062,+0.812,+1.375,-4, -2, 1, -2, -2, -1, -1, -4
1503614577679,-0.389,-0.338,+0.439,+0.736,+0.946,-0.155,-0.337,-2.000,+2.500,+0.625,0, 4, 4, 2, 0, 1, 0, -1
1503614577700,-0.389,-0.338,+0.439,+0.736,+0.933,-0.159,-0.340,-1.562,-1.625,+0.125,1, -8, -5, -2, -4, 0, 0, 8
1503614577716,-0.389,-0.337,+0.438,+0.737,+0.935,-0.164,-0.340,-2.875,-4.312,-0.312,1, -6, -1, -1, -4, -1, 3, 10
1503614577738,-0.389,-0.337,+0.438,+0.737,+0.931,-0.155,-0.336,-3.125,-3.438,+0.375,-2, -3, -5, -2, -5, 0, 1, -3
1503614577760,-0.389,-0.337,+0.438,+0.737,+0.917,-0.141,-0.338,-1.938,-1.125,+0.438,-1, -6, -3, 0, 1, 0, 1, -3
1503614577776,-0.389,-0.337,+0.438,+0.737,+0.917,-0.157,-0.333,-1.750,-0.625,-0.125,-1, 6, 4, 3, 4, 1, -1, -1
1503614577798,-0.389,-0.337,+0.438,+0.737,+0.943,-0.167,-0.339,-3.250,-1.188,-0.562,0, -4, 0, 0, 0, -4, -2, -1
1503614577820,-0.389,-0.336,+0.438,+0.738,+0.944,-0.152,-0.346,-3.500,-3.062,-0.312,1, 4, 1, 0, 0, 2, -2, -1
1503614577836,-0.389,-0.336,+0.438,+0.738,+0.921,-0.149,-0.335,-3.938,-4.062,+0.000,-1, 1, 2, 0, -3, -1, -2, -6
1503614577858,-0.389,-0.335,+0.438,+0.738,+0.919,-0.152,-0.330,-5.188,-4.250,+0.000,-2, -11, -9, -5, -2, -2, -1, 1
1503614577880,-0.388,-0.334,+0.438,+0.739,+0.932,-0.161,-0.322,-6.875,-3.812,-0.938,-4, -4, -2, -3, -2, -1, -2, -1
1503614577896,-0.388,-0.333,+0.438,+0.739,+0.946,-0.161,-0.337,-7.438,-4.875,-2.125,-4, -3, -4, -2, -4, 0, -3, -4
1503614577918,-0.389,-0.332,+0.437,+0.740,+0.920,-0.149,-0.364,-6.875,-6.000,-1.938,1, 6, 1, -1, 0, -2, -4, -3
1503614577940,-0.389,-0.330,+0.437,+0.741,+0.893,-0.151,-0.345,-7.125,-8.125,-1.625,0, 1, 9, -2, -1, -3, 6, 6
1503614577958,-0.389,-0.329,+0.437,+0.741,+0.948,-0.152,-0.342,-8.812,-5.125,-1.375,-1, 1, -4, -2, 1, -2, 0, -9
1503614577978,-0.388,-0.328,+0.437,+0.742,+0.949,-0.131,-0.357,-8.500,-1.375,+1.875,2, -3, 0, -1, -1, 0, -3, 3
1503614578000,-0.388,-0.327,+0.438,+0.742,+0.909,-0.125,-0.375,-6.562,+0.375,+1.688,-2, -3, -3, -1, -1, 0, -2, 0
1503614578016,-0.387,-0.327,+0.438,+0.743,+0.919,-0.140,-0.354,-6.688,-0.812,+2.188,-2, -7, -7, 0, -1, -6, 0, -1
1503614578038,-0.387,-0.326,+0.438,+0.743,+0.938,-0.151,-0.354,-6.562,-4.125,+0.812,0, -2, 1, 1, 0, 2, 0, 0
1503614578062,-0.387,-0.325,+0.437,+0.744,+0.921,-0.142,-0.360,-6.500,-5.250,-1.312,-3, 1, -3, 0, -1, 1, -1, -4
1503614578076,-0.387,-0.324,+0.437,+0.745,+0.910,-0.135,-0.377,-4.875,-6.688,-2.125,0, -1, -6, -3, -4, -2, -1, 0
1503614578098,-0.387,-0.323,+0.436,+0.745,+0.926,-0.139,-0.385,-4.062,-4.938,-0.312,2, 6, 4, 0, 1, 0, 0, 0
1503614578121,-0.387,-0.322,+0.436,+0.746,+0.909,-0.132,-0.376,-3.750,-3.125,+0.188,1, -3, -1, -2, 1, -1, -2, 0
1503614578136,-0.388,-0.322,+0.436,+0.746,+0.909,-0.132,-0.363,-2.938,-4.000,-0.188,-3, -4, -3, -1, -3, 1, -1, -3
1503614578162,-0.388,-0.321,+0.435,+0.746,+0.927,-0.151,-0.356,-2.500,-4.562,-1.375,-1, 1, 1, 0, 10, -2, -3, -1
1503614578180,-0.388,-0.321,+0.435,+0.747,+0.928,-0.147,-0.367,-1.938,-4.750,-2.188,-1, 0, -2, -1, -6, 1, 0, -3
1503614578198,-0.389,-0.320,+0.434,+0.747,+0.915,-0.133,-0.372,-2.375,-5.625,-2.312,2, -3, -2, -2, -6, -3, 0, 2
1503614578218,-0.389,-0.319,+0.434,+0.747,+0.905,-0.137,-0.384,-2.562,-6.250,-2.500,-3, -5, -4, -1, -2, -2, 0, 0
1503614578240,-0.390,-0.318,+0.433,+0.748,+0.916,-0.132,-0.366,-2.438,-5.562,-2.312,-2, -2, -3, -2, -4, -2, 2, -1
1503614578256,-0.390,-0.318,+0.433,+0.748,+0.917,-0.137,-0.369,-2.812,-5.438,-2.812,-1, -7, -3, -2, 2, 1, 0, -1
1503614578278,-0.391,-0.317,+0.433,+0.748,+0.925,-0.140,-0.375,-2.562,-5.375,-3.000,0, -11, -5, -2, 1, -4, 1, 2
1503614578300,-0.391,-0.316,+0.432,+0.748,+0.920,-0.126,-0.374,-3.062,-5.688,-2.938,1, 6, 8, 1, 0, 1, 1, 1
1503614578316,-0.392,-0.315,+0.432,+0.749,+0.919,-0.120,-0.386,-2.250,-5.312,-2.312,-2, -1, 2, 1, -1, -2, -2, -3
1503614578338,-0.392,-0.315,+0.431,+0.749,+0.917,-0.122,-0.396,-1.875,-4.188,-1.000,-1, 0, -3, 0, 5, 2, -2, -2
1503614578361,-0.393,-0.315,+0.431,+0.749,+0.925,-0.137,-0.383,-2.250,-5.062,+0.062,1, -3, -1, -2, -1, 1, 1, -1
1503614578376,-0.393,-0.314,+0.430,+0.750,+0.932,-0.131,-0.384,-2.312,-5.500,+0.375,1, 6, 5, 1, -3, 0, -3, -1
1503614578399,-0.393,-0.314,+0.430,+0.750,+0.935,-0.117,-0.390,-1.062,-4.812,+0.688,2, -1, 0, 0, -2, -1, -2, -1
1503614578420,-0.393,-0.313,+0.429,+0.750,+0.909,-0.113,-0.408,-0.312,-7.000,+1.250,3, 0, 1, -2, -2, -1, -1, 5
1503614578436,-0.394,-0.313,+0.428,+0.751,+0.902,-0.132,-0.397,-0.625,-7.938,+1.250,-3, -7, -4, -4, -4, -1, -2, -4
1503614578458,-0.394,-0.312,+0.427,+0.752,+0.905,-0.138,-0.394,-0.562,-7.562,+1.062,1, 10, 0, 1, -2, -2, 1, -2
1503614578480,-0.394,-0.312,+0.426,+0.752,+0.897,-0.132,-0.399,-0.375,-6.812,+0.125,-4, -7, 2, 1, -3, 1, -6, -7
1503614578496,-0.395,-0.312,+0.425,+0.753,+0.894,-0.132,-0.397,+0.500,-5.438,-0.188,0, -2, -3, -3, -3, -2, 1, -6
1503614578518,-0.395,-0.312,+0.424,+0.753,+0.903,-0.139,-0.392,+1.000,-4.062,-0.250,3, 2, 3, 1, 2, 2, -2, 3
1503614578540,-0.396,-0.312,+0.424,+0.753,+0.916,-0.128,-0.407,+1.688,-3.312,-0.250,0, -4, -11, -1, 2, -2, -2, -3
1503614578556,-0.396,-0.312,+0.423,+0.753,+0.920,-0.125,-0.406,+1.625,-4.438,-0.875,1, 1, 1, -5, -4, -2, 0, 1
1503614578578,-0.397,-0.312,+0.422,+0.753,+0.915,-0.123,-0.408,+2.250,-7.438,-0.500,-6, 0, 3, 1, 2, 0, -2, -3
1503614578601,-0.398,-0.312,+0.421,+0.753,+0.909,-0.126,-0.402,+2.375,-8.062,-0.062,-3, -6, 0, 2, 7, -3, 0, 0
1503614578616,-0.398,-0.312,+0.420,+0.754,+0.903,-0.134,-0.409,+3.062,-6.750,+0.438,-1, 4, -2, 0, -1, -1, -1, -1
1503614578639,-0.399,-0.312,+0.418,+0.754,+0.923,-0.128,-0.416,+3.438,-6.812,+1.062,-2, 3, 2, -1, 0, -1, 2, -1
1503614578663,-0.400,-0.312,+0.417,+0.754,+0.935,-0.120,-0.422,+4.750,-7.938,+1.438,-1, -1, 1, -1, -2, 1, 1, -2
1503614578676,-0.401,-0.312,+0.415,+0.755,+0.921,-0.124,-0.444,+6.250,-11.125,+2.438,-2, -1, 0, -1, -1, -3, 0, -4
1503614578699,-0.402,-0.313,+0.413,+0.755,+0.900,-0.126,-0.440,+7.625,-11.688,+4.188,2, -5, -3, -2, -2, 0, -3, 3
1503614578721,-0.402,-0.313,+0.410,+0.756,+0.897,-0.124,-0.434,+9.250,-11.312,+5.188,1, 1, 7, 1, 2, 0, 0, 2
1503614578736,-0.404,-0.314,+0.408,+0.756,+0.903,-0.127,-0.432,+10.875,-12.438,+4.062,0, 4, -4, -2, -2, -4, -2, 2
1503614578758,-0.405,-0.315,+0.405,+0.757,+0.905,-0.147,-0.428,+11.938,-13.625,+4.375,-3, -3, -11, -1, -1, -2, -4, -3
1503614578780,-0.406,-0.317,+0.402,+0.757,+0.911,-0.133,-0.459,+14.938,-12.562,+6.375,-3, -1, 0, -1, 0, 0, -3, -5
1503614578798,-0.407,-0.318,+0.399,+0.758,+0.924,-0.130,-0.469,+16.938,-12.625,+7.188,0, -5, -7, -1, 0, -1, -1, 0
1503614578818,-0.408,-0.320,+0.395,+0.758,+0.906,-0.138,-0.473,+18.938,-14.750,+9.688,-4, -19, -9, 0, 0, 0, 1, -2
1503614578841,-0.409,-0.322,+0.391,+0.759,+0.896,-0.143,-0.452,+20.375,-16.750,+12.562,2, 5, 1, 3, 3, 1, 2, 1
1503614578856,-0.410,-0.325,+0.387,+0.759,+0.900,-0.150,-0.465,+23.750,-13.438,+12.312,0, -3, 4, -1, -2, -1, 0, 0
1503614578878,-0.411,-0.329,+0.382,+0.759,+0.886,-0.152,-0.503,+29.000,-12.375,+12.562,-2, -4, -4, -3, -3, -1, -3, -4
1503614578901,-0.413,-0.332,+0.377,+0.760,+0.882,-0.165,-0.500,+31.438,-14.312,+14.875,-1, -2, 4, -1, -1, -1, 0, 1
1503614581460,-0.517,-0.506,+0.385,+0.573,+0.973,-0.177,-0.102,-6.750,-1.875,-9.312,-2, -13, -5, -2, -2, 1, -1, 2
1503614581481,-0.518,-0.505,+0.386,+0.573,+0.972,-0.180,-0.103,-7.688,-0.062,-10.188,3, 2, 3, -1, 0, -1, 4, -1
1503614581503,-0.517,-0.504,+0.388,+0.573,+0.977,-0.185,-0.120,-10.562,+7.188,-6.062,0, -1, -2, -1, -1, -3, -8, -10
1503614581518,-0.516,-0.503,+0.391,+0.573,+1.011,-0.186,-0.114,-16.000,+7.938,-7.125,-2, -1, -5, -1, -2, -1, -1, -8
1503614581540,-0.514,-0.502,+0.394,+0.573,+1.035,-0.186,-0.094,-19.188,+6.188,-2.812,-9, 4, 8, 1, 0, 2, -1, -1
1503614581562,-0.514,-0.500,+0.396,+0.574,+1.028,-0.140,-0.105,-18.188,-3.875,-5.500,-1, -2, 1, -3, 2, -1, 1, 2
1503614581578,-0.514,-0.497,+0.397,+0.575,+0.989,-0.138,-0.128,-17.062,-10.312,-9.438,-13, -8, -6, -2, -1, 2, -1, -3
1503614581600,-0.515,-0.494,+0.398,+0.577,+0.946,-0.181,-0.083,-18.875,-16.000,-8.375,-2, 9, 3, 1, -2, -3, -3, -15
1503614581623,-0.515,-0.490,+0.400,+0.578,+0.994,-0.167,-0.094,-22.062,-12.312,-9.000,-4, 5, -1, 1, 2, -2, -4, -19
1503614581638,-0.516,-0.487,+0.401,+0.580,+1.018,-0.141,-0.100,-21.875,-15.812,-10.188,-4, -12, -3, -3, -2, -4, 0, 4
1503614581660,-0.518,-0.481,+0.402,+0.582,+0.979,-0.149,-0.125,-23.938,-32.125,-14.000,-1, -6, -1, -1, -2, 0, 1, 17
1503614581684,-0.520,-0.474,+0.402,+0.586,+0.926,-0.173,-0.116,-30.250,-38.312,-15.500,4, 0, -2, 0, -1, -4, -2, 7
1503614581698,-0.521,-0.468,+0.402,+0.589,+0.974,-0.149,-0.136,-32.500,-32.125,-13.688,-4, -11, -10, -2, -1, -2, -4, -9
1503614581720,-0.522,-0.462,+0.404,+0.592,+1.030,-0.089,-0.203,-34.188,-22.500,-8.000,7, 5, 1, 0, -1, 2, 2, 5
1503614581742,-0.523,-0.456,+0.405,+0.596,+0.989,-0.078,-0.248,-32.875,-23.375,-5.375,6, 1, 1, 2, 1, 2, 3, 31
1503614581758,-0.524,-0.449,+0.405,+0.600,+0.989,-0.087,-0.265,-31.562,-29.750,-4.812,5, 4, 12, 5, 0, 2, 0, -5
1503614581780,-0.526,-0.442,+0.404,+0.604,+0.986,-0.033,-0.295,-24.000,-35.312,-5.250,2, 6, -4, -1, 0, -1, 2, -11
1503614581802,-0.529,-0.436,+0.402,+0.607,+0.954,-0.046,-0.300,-18.625,-39.500,-5.312,1, -4, -3, -1, -1, -3, -4, 4
1503614581819,-0.531,-0.431,+0.400,+0.611,+0.911,-0.084,-0.303,-14.938,-32.438,-1.812,-2, -4, -6, -3, 1, -2, -4, 0
1503614581840,-0.532,-0.428,+0.398,+0.613,+0.946,-0.082,-0.307,-10.125,-23.750,+0.938,-6, 2, -2, -3, -2, -1, -5, -17
1503614581862,-0.533,-0.425,+0.396,+0.615,+0.964,-0.062,-0.307,-8.688,-21.438,+2.250,-1, -13, -9, -6, -3, -2, -2, 4
1503614581878,-0.534,-0.422,+0.395,+0.618,+0.935,-0.084,-0.288,-9.000,-19.438,+5.062,-8, -7, -1, -1, -4, -3, -1, -12
1503614581900,-0.533,-0.421,+0.393,+0.619,+0.945,-0.098,-0.284,-7.438,-12.562,+6.375,0, 3, -1, -1, -2, 3, 3, 3
1503614581922,-0.533,-0.420,+0.392,+0.621,+0.956,-0.088,-0.299,-5.250,-11.688,+6.625,3, 8, 7, 2, -4, -2, 0, -11
1503614581938,-0.533,-0.419,+0.391,+0.623,+0.940,-0.108,-0.301,-7.312,-8.000,+8.250,-4, -9, -4, -2, -1, -2, -1, 3
1503614581962,-0.532,-0.418,+0.391,+0.624,+0.938,-0.111,-0.304,-7.375,-4.500,+7.312,-2, -1, 1, 1, 1, 0, -2, 2
1503614581982,-0.531,-0.418,+0.390,+0.626,+0.962,-0.104,-0.299,-6.688,-5.000,+6.250,4, -4, -2, -1, -2, -2, -2, 3
1503614581998,-0.531,-0.416,+0.389,+0.627,+0.984,-0.096,-0.318,-6.250,-11.688,+6.500,-10, -9, -10, -2, 0, 0, -4, -1
1503614582021,-0.531,-0.415,+0.388,+0.629,+0.960,-0.105,-0.307,-8.875,-12.875,+5.125,-3, 0, 1, 1, 1, 0, -3, -11
1503614582042,-0.530,-0.413,+0.387,+0.631,+0.906,-0.118,-0.303,-9.812,-9.125,+5.125,2, 1, 2, 1, -2, -1, 1, 5
1503614582058,-0.529,-0.413,+0.387,+0.632,+0.912,-0.100,-0.320,-6.625,-3.750,+7.938,-6, -4, -5, -4, -2, -2, -4, 2
1503614582080,-0.529,-0.412,+0.387,+0.633,+0.943,-0.103,-0.330,-7.188,-1.500,+6.062,4, 2, -3, -2, 3, 2, 5, 15
1503614582102,-0.528,-0.411,+0.386,+0.635,+0.920,-0.133,-0.339,-7.688,-5.312,+5.312,6, -1, 2, -1, 0, 0, 3, -7
1503614582120,-0.527,-0.410,+0.386,+0.636,+0.951,-0.116,-0.294,-10.625,-6.812,+3.188,-5, -2, -2, 1, 0, 1, 0, -16
1503614582140,-0.527,-0.409,+0.386,+0.637,+0.984,-0.096,-0.325,-7.688,-9.750,+4.688,-4, 1, 2, 1, -2, 0, -1, 1
1503614582163,-0.527,-0.407,+0.385,+0.639,+0.967,-0.099,-0.329,-9.312,-12.875,+2.562,-10, -3, -5, -1, 0, -2, -6, -18
1503614582178,-0.527,-0.405,+0.384,+0.641,+0.904,-0.128,-0.329,-10.500,-13.000,+4.625,8, 5, 3, 0, 2, -1, 2, 13
1503614582200,-0.527,-0.403,+0.383,+0.643,+0.912,-0.116,-0.343,-10.688,-11.188,+3.688,-1, 0, -1, -2, -2, -1, 0, 6
1503614582222,-0.526,-0.402,+0.383,+0.644,+0.903,-0.109,-0.333,-10.562,-2.938,+5.812,-6, 3, 5, 0, -4, 1, 0, 13
1503614582238,-0.525,-0.402,+0.384,+0.645,+0.953,-0.107,-0.331,-10.312,+0.875,+5.250,17, 14, 13, 4, 4, 1, 1, 3
1503614582261,-0.524,-0.401,+0.384,+0.646,+0.982,-0.120,-0.341,-9.062,-2.688,+5.688,-9, -6, -7, -4, -3, -5, -1, -8
1503614582282,-0.524,-0.399,+0.383,+0.648,+0.961,-0.095,-0.357,-7.938,-11.500,+1.562,0, -3, -5, -5, -5, -2, 5, 5
1503614582298,-0.525,-0.397,+0.382,+0.649,+0.908,-0.102,-0.366,-6.688,-18.250,+2.375,17, 13, 14, 5, -4, 2, 0, 4
1503614582322,-0.525,-0.395,+0.381,+0.651,+0.912,-0.103,-0.352,-6.375,-11.312,+3.812,-16, -10, -6, -4, 1, -3, -3, -9
1503614582342,-0.524,-0.395,+0.380,+0.652,+0.927,-0.104,-0.370,-3.375,-6.312,+6.312,8, -1, -4, -1, 6, 1, -3, 0
1503614582360,-0.524,-0.394,+0.379,+0.653,+0.960,-0.096,-0.375,-2.375,-3.812,+5.750,-5, -16, -17, 0, -2, -3, -5, -7
1503614582380,-0.524,-0.394,+0.377,+0.654,+0.941,-0.118,-0.378,-0.938,-8.875,+7.188,-12, -9, -3, -6, -6, -3, -4, -13
1503614582402,-0.524,-0.394,+0.376,+0.655,+0.939,-0.104,-0.378,-0.438,-6.938,+7.250,10, 5, -2, 0, 2, -1, -2, 9
1503614582418,-0.523,-0.394,+0.375,+0.656,+0.917,-0.114,-0.371,+0.375,-2.688,+11.062,-13, 8, 4, 2, 0, -2, -3, -6
1503614582440,-0.521,-0.396,+0.375,+0.657,+0.952,-0.110,-0.349,+0.625,+3.312,+14.750,10, 9, 2, -4, -1, -2, 4, -15
1503614582462,-0.520,-0.397,+0.374,+0.658,+0.979,-0.122,-0.359,+2.188,+1.812,+16.250,-6, -4, 0, -2, -3, -1, -4, -10
1503614582478,-0.518,-0.399,+0.372,+0.659,+0.968,-0.126,-0.369,+2.312,-2.562,+16.750,12, 5, 1, 0, -3, 0, 0, 10
1503614582500,-0.517,-0.399,+0.370,+0.661,+0.945,-0.133,-0.384,+2.812,-8.000,+17.125,-4, 2, 2, 4, 2, -4, -2, -33
1503614582525,-0.516,-0.400,+0.367,+0.663,+0.917,-0.146,-0.376,+3.438,-9.625,+18.312,10, -2, -4, -3, -1, 4, 3, 12
1503614582538,-0.515,-0.401,+0.365,+0.664,+0.928,-0.144,-0.360,+4.062,-7.188,+19.750,-16, -11, -9, -2, 0, -1, 1, 6
1503614582562,-0.513,-0.403,+0.362,+0.666,+0.935,-0.145,-0.367,+5.562,-4.062,+21.375,-8, -12, -4, -3, -2, -1, -5, -32
1503614582582,-0.512,-0.404,+0.360,+0.667,+0.936,-0.158,-0.385,+7.062,-4.625,+21.562,4, 2, 5, 3, 2, 0, 1, 9
1503614582599,-0.511,-0.406,+0.356,+0.669,+0.922,-0.169,-0.394,+8.188,-10.375,+20.375,-14, 1, 7, 0, 0, -4, -6, -23
1503614582620,-0.510,-0.406,+0.352,+0.671,+0.909,-0.174,-0.388,+7.438,-15.875,+20.562,-3, -3, -4, 0, -2, -3, 5, 33
1503614582642,-0.509,-0.408,+0.349,+0.673,+0.900,-0.166,-0.392,+9.812,-11.250,+21.438,19, 2, -3, -1, -1, 3, 8, 29
1503614582659,-0.508,-0.409,+0.345,+0.675,+0.895,-0.185,-0.389,+10.125,-7.562,+21.875,-18, -2, -6, -1, -2, -3, -3, -28
1503614582680,-0.507,-0.411,+0.342,+0.676,+0.914,-0.225,-0.376,+9.312,-10.438,+21.812,-5, -1, -8, -4, -3, -3, -3, -13
1503614582702,-0.506,-0.413,+0.338,+0.678,+0.917,-0.211,-0.392,+8.875,-11.125,+21.938,4, 10, 3, 1, 1, -1, -1, -11
1503614582718,-0.505,-0.414,+0.334,+0.680,+0.894,-0.197,-0.411,+11.562,-9.000,+22.875,12, -3, -2, -3, -1, -3, -1, 14
1503614582740,-0.503,-0.416,+0.331,+0.681,+0.887,-0.232,-0.366,+9.062,-9.375,+23.688,-12, -5, -5, -2, 0, -1, -1, -8
1503614582763,-0.501,-0.418,+0.327,+0.683,+0.891,-0.237,-0.385,+10.062,-7.562,+23.500,-9, -13, -4, -3, -1, -1, -8, -1
1503614582778,-0.500,-0.420,+0.324,+0.685,+0.885,-0.244,-0.388,+10.312,-9.250,+23.188,15, 19, 20, 6, 3, 1, 4, 4
1503614582800,-0.499,-0.421,+0.320,+0.686,+0.879,-0.270,-0.403,+8.250,-10.062,+22.250,-2, -2, 1, -1, 2, 2, 2, -24
1503614582825,-0.497,-0.423,+0.316,+0.688,+0.867,-0.264,-0.428,+11.688,-8.812,+22.438,-4, 6, -4, -5, -2, -3, -2, 13
1503614582838,-0.496,-0.425,+0.313,+0.690,+0.856,-0.279,-0.394,+7.625,-6.688,+23.062,12, -14, -3, 0, 1, -1, -3, -5
1503614582862,-0.493,-0.427,+0.311,+0.691,+0.842,-0.289,-0.378,+6.188,+0.000,+23.000,-3, 3, 3, 1, -1, -1, -1, -1
1503614582882,-0.491,-0.430,+0.308,+0.692,+0.869,-0.288,-0.399,+9.375,+1.125,+22.438,-2, 25, 12, 0, -3, 1, 3, 5
1503614584901,-0.525,-0.516,+0.323,+0.594,+0.940,-0.273,-0.206,+2.000,-1.188,-6.250,12, 6, 4, 6, 4, 1, 4, 55
1503614584923,-0.526,-0.516,+0.324,+0.593,+0.958,-0.275,-0.203,+1.500,+0.062,-6.312,-1, 20, 6, 1, 1, -1, 1, -13
1503614584945,-0.527,-0.516,+0.324,+0.592,+0.952,-0.250,-0.222,+2.062,+1.125,-5.562,-4, -4, -6, -4, -3, 0, -2, -11
1503614584959,-0.528,-0.516,+0.324,+0.591,+0.937,-0.252,-0.210,+2.562,-1.000,-6.125,-6, -1, -5, -3, 1, 2, -2, -8
1503614584983,-0.529,-0.516,+0.324,+0.591,+0.942,-0.270,-0.203,+1.625,-3.312,-6.375,12, 40, 15, 2, 1, -1, 1, 4
1503614585007,-0.530,-0.516,+0.325,+0.590,+0.943,-0.263,-0.211,+1.125,-1.125,-5.875,-10, -17, -6, -6, -5, -4, -1, -13
1503614585019,-0.530,-0.516,+0.325,+0.589,+0.939,-0.255,-0.207,+1.312,+3.188,-5.688,-5, -19, -11, -2, -2, -1, -3, -7
1503614585042,-0.530,-0.516,+0.326,+0.588,+0.960,-0.259,-0.210,+0.500,+5.688,-3.938,-11, -13, -3, 0, 0, 1, 0, -4
1503614585064,-0.530,-0.516,+0.327,+0.587,+0.958,-0.249,-0.212,+1.000,+4.438,-4.500,4, 7, 8, 1, 1, 2, -1, -2
1503614585088,-0.531,-0.516,+0.327,+0.587,+0.945,-0.249,-0.207,+1.250,+1.438,-5.312,-4, 2, -2, -2, -4, -3, -1, -1
1503614585102,-0.532,-0.516,+0.328,+0.586,+0.956,-0.259,-0.199,+0.688,-0.375,-5.625,-3, -17, -18, -4, -3, -1, 0, 0
1503614585125,-0.533,-0.516,+0.328,+0.585,+0.959,-0.247,-0.202,+0.500,-1.438,-6.375,3, 15, 13, 3, 1, 1, 0, 1
1503614585141,-0.533,-0.516,+0.328,+0.585,+0.957,-0.245,-0.195,-0.125,-0.938,-6.062,26, 47, 25, 6, 5, -2, 0, 3
1503614585162,-0.534,-0.516,+0.329,+0.584,+0.939,-0.245,-0.199,-0.625,+1.438,-6.000,-13, -17, -8, -4, -3, -1, -1, 2
1503614585185,-0.534,-0.516,+0.330,+0.583,+0.930,-0.245,-0.205,-0.812,+2.125,-5.938,-2, -11, -7, -1, 0, 0, 0, -2
1503614585199,-0.535,-0.516,+0.330,+0.582,+0.958,-0.254,-0.195,-0.125,+2.375,-7.062,0, 12, 12, 1, -1, -1, -1, 8
1503614585222,-0.536,-0.515,+0.331,+0.581,+0.961,-0.239,-0.201,-0.062,-1.938,-9.062,-6, -10, -5, -2, -2, -2, 0, -8
1503614585245,-0.537,-0.514,+0.332,+0.581,+0.952,-0.231,-0.200,-1.000,-4.125,-10.938,-4, -12, -6, -3, -1, 1, -3, -5
1503614585260,-0.539,-0.513,+0.332,+0.580,+0.959,-0.239,-0.192,-1.750,-7.000,-11.250,-3, -4, -7, -1, -1, -2, -2, -4
1503614585282,-0.540,-0.512,+0.333,+0.579,+0.941,-0.225,-0.199,-2.438,-5.438,-10.812,-2, -11, -6, -1, 0, 0, -5, -2
1503614585305,-0.541,-0.511,+0.334,+0.579,+0.958,-0.228,-0.180,-3.812,-1.875,-9.812,0, -6, -1, 0, -1, 0, 1, 6
1503614585320,-0.542,-0.510,+0.335,+0.578,+1.011,-0.249,-0.187,-5.500,-0.625,-8.875,1, 4, 1, 0, 0, -1, 1, 5
1503614585343,-0.542,-0.509,+0.336,+0.578,+0.989,-0.229,-0.194,-7.438,-5.312,-9.125,-5, -4, -6, -2, -2, -3, -2, -10
1503614585365,-0.544,-0.506,+0.336,+0.579,+0.965,-0.205,-0.192,-10.250,-17.688,-10.938,-5, -2, -2, -2, -1, 2, -1, -5
1503614585383,-0.546,-0.503,+0.337,+0.580,+0.988,-0.218,-0.181,-14.125,-18.000,-9.188,6, 11, 4, 2, 0, -2, 2, 23
1503614585402,-0.547,-0.500,+0.338,+0.580,+0.948,-0.216,-0.182,-15.750,-10.438,-8.250,-3, -22, -13, -4, -2, -3, -1, -9
1503614585425,-0.547,-0.498,+0.339,+0.581,+0.978,-0.218,-0.206,-17.312,-6.875,-6.812,-1, 0, 3, 1, 1, 0, -2, -10
1503614585439,-0.547,-0.494,+0.341,+0.583,+0.987,-0.202,-0.237,-19.688,-11.312,-6.375,-1, -12, -9, -3, -1, 1, 1, 10
1503614585462,-0.549,-0.490,+0.341,+0.585,+0.965,-0.173,-0.234,-21.062,-20.188,-7.125,-1, 1, 1, 0, -4, -1, -1, -8
1503614585485,-0.550,-0.485,+0.342,+0.588,+0.935,-0.184,-0.233,-23.062,-24.500,-7.500,0, -2, 2, -3, 0, 0, 0, 6
1503614585500,-0.551,-0.481,+0.343,+0.590,+0.944,-0.187,-0.239,-23.250,-15.562,-5.250,0, 3, 4, 0, 2, 1, -4, -3
1503614585522,-0.551,-0.478,+0.344,+0.591,+0.933,-0.160,-0.299,-17.250,-11.188,-5.688,-2, -3, -3, -2, -2, 0, -1, -7
1503614585546,-0.553,-0.474,+0.343,+0.593,+0.941,-0.156,-0.308,-15.750,-19.688,-8.125,3, -8, -4, -2, 14, -1, -1, -10
1503614585559,-0.555,-0.469,+0.343,+0.595,+0.954,-0.192,-0.287,-18.938,-28.625,-6.625,-6, -18, -15, -4, -11, 0, 0, -4
1503614585585,-0.556,-0.464,+0.342,+0.598,+0.953,-0.174,-0.293,-19.562,-23.188,-4.875,-5, -16, -12, -5, -7, -1, 0, -2
1503614585604,-0.557,-0.461,+0.343,+0.599,+0.917,-0.126,-0.306,-15.375,-13.562,-4.875,-3, -8, -7, -3, -1, -4, 0, -1
1503614585620,-0.558,-0.459,+0.344,+0.600,+0.906,-0.136,-0.294,-14.062,-7.438,-2.562,0, 12, 8, 1, 0, 0, 0, -9
1503614585642,-0.558,-0.456,+0.344,+0.602,+0.971,-0.172,-0.324,-13.938,-8.312,-0.500,1, 2, 3, 0, -1, 0, 1, 0
1503614585665,-0.558,-0.454,+0.344,+0.603,+0.992,-0.160,-0.331,-13.750,-12.875,-2.312,-1, 5, 2, 0, -1, 0, 1, -3
1503614585680,-0.560,-0.450,+0.343,+0.605,+0.954,-0.162,-0.319,-13.312,-21.750,-4.125,4, 12, -2, -1, -1, 1, 0, 3
1503614585702,-0.561,-0.446,+0.343,+0.607,+0.928,-0.146,-0.310,-15.250,-21.688,-1.875,-2, -15, -4, 1, -1, -1, -5, 2
1503614585725,-0.561,-0.444,+0.343,+0.609,+0.918,-0.130,-0.325,-14.000,-11.375,+1.750,-5, -8, 3, 1, 0, -2, -2, -4
1503614585739,-0.560,-0.443,+0.343,+0.610,+0.927,-0.130,-0.341,-10.000,-3.000,+2.312,1, -5, -8, -4, -3, -1, 0, -1
1503614585762,-0.560,-0.441,+0.343,+0.611,+0.954,-0.143,-0.353,-8.938,-6.875,+2.562,-1, -2, 1, -3, 0, 0, -1, -1
1503614585785,-0.561,-0.439,+0.342,+0.613,+0.960,-0.146,-0.367,-9.125,-12.875,+3.812,4, 9, 1, 1, 0, 1, -2, 2
1503614585807,-0.561,-0.437,+0.341,+0.615,+0.923,-0.136,-0.356,-8.125,-11.812,+3.938,0, 6, 5, 1, 2, 0, 0, 0
1503614585829,-0.561,-0.436,+0.341,+0.616,+0.924,-0.140,-0.331,-7.438,-8.438,+5.562,0, -6, -4, 0, -2, -1, -2, -3
1503614585847,-0.560,-0.435,+0.340,+0.617,+0.958,-0.152,-0.345,-5.438,-7.062,+7.312,-2, -10, -7, 0, 0, -2, 1, 2
1503614585859,-0.560,-0.434,+0.339,+0.619,+0.954,-0.147,-0.375,-4.000,-9.000,+7.188,0, -7, -8, -3, -1, 2, -3, -5
1503614585882,-0.560,-0.433,+0.337,+0.620,+0.920,-0.147,-0.366,-4.312,-10.375,+8.062,-2, -11, -7, -3, -2, -6, -6, -7
1503614585904,-0.559,-0.433,+0.336,+0.622,+0.894,-0.146,-0.355,-4.500,-4.188,+11.750,0, 0, -6, -2, -4, 0, -2, 2
1503614585920,-0.557,-0.434,+0.336,+0.623,+0.899,-0.146,-0.341,-3.312,+5.875,+13.625,-5, 0, -4, -4, -1, -2, -1, -1
1503614585942,-0.555,-0.436,+0.337,+0.624,+0.938,-0.160,-0.343,-2.375,+8.500,+14.375,-6, -4, -1, -2, -4, -4, -1, -10
1503614585965,-0.553,-0.436,+0.336,+0.625,+0.973,-0.181,-0.352,-3.000,+1.062,+12.438,-3, 8, -3, -2, 1, 1, -2, -13
1503614585982,-0.553,-0.436,+0.334,+0.627,+0.958,-0.180,-0.354,-3.500,-12.688,+9.625,1, -9, -11, -2, -1, -4, -3, -7
1503614586002,-0.553,-0.435,+0.332,+0.629,+0.901,-0.173,-0.350,-3.938,-13.438,+9.250,7, -3, 0, 1, 0, 0, 3, 20
1503614586025,-0.552,-0.435,+0.331,+0.630,+0.850,-0.173,-0.340,-3.125,-3.625,+10.750,-5, -4, -8, -3, -2, -1, -1, -2
1503614586039,-0.550,-0.436,+0.331,+0.631,+0.909,-0.196,-0.337,-3.938,+4.375,+12.188,5, 10, -6, 0, -1, 0, -2, -11
1503614586062,-0.548,-0.436,+0.331,+0.632,+0.953,-0.193,-0.359,-3.562,+2.438,+11.812,9, -2, -1, 0, -2, 0, 3, 41
1503614586086,-0.548,-0.436,+0.330,+0.634,+0.956,-0.176,-0.357,-5.000,-6.500,+9.750,-7, -10, 0, 0, -2, -1, -1, -5
1503614586100,-0.547,-0.435,+0.329,+0.635,+0.922,-0.188,-0.356,-6.250,-11.688,+8.750,-10, -6, -2, -3, 1, -1, -4, -19
1503614586123,-0.547,-0.434,+0.327,+0.637,+0.895,-0.183,-0.363,-4.875,-8.875,+9.688,-3, 0, 3, -1, -2, 0, 0, -8
1503614586144,-0.546,-0.434,+0.326,+0.638,+0.899,-0.188,-0.357,-4.938,-4.938,+10.562,-8, -13, -12, -4, 0, -2, -2, 0
1503614586160,-0.544,-0.434,+0.326,+0.640,+0.952,-0.197,-0.373,-4.375,-4.438,+13.062,-6, 0, 0, -2, -2, -1, -2, -11
1503614586183,-0.543,-0.433,+0.324,+0.642,+0.960,-0.189,-0.373,-4.625,-7.875,+14.062,2, 7, 7, 0, -1, -3, 0, 2
1503614586205,-0.543,-0.433,+0.322,+0.644,+0.918,-0.189,-0.387,-3.812,-10.688,+13.500,7, 4, 0, 2, -3, 0, 1, 10
1503614589227,-0.419,-0.411,+0.378,+0.716,+0.939,-0.276,-0.359,-0.688,-1.312,+10.688,0, 4, 5, 1, 2, 0, -1, -3
1503614589243,-0.419,-0.411,+0.377,+0.717,+0.904,-0.268,-0.342,+0.812,-5.125,+11.125,-3, -11, -9, -3, -1, -1, -3, -4
1503614589265,-0.418,-0.412,+0.375,+0.718,+0.880,-0.278,-0.336,+0.938,-4.125,+10.500,0, -3, 5, 1, -1, 0, 1, -2
1503614589288,-0.417,-0.413,+0.375,+0.718,+0.880,-0.282,-0.336,+2.375,+3.312,+10.625,-2, -7, -9, -1, -1, -1, 1, 0
1503614589307,-0.415,-0.415,+0.374,+0.718,+0.871,-0.277,-0.338,+5.000,+7.688,+9.750,-1, -1, 3, -1, -3, -2, -4, -2
1503614589325,-0.413,-0.417,+0.375,+0.717,+0.877,-0.282,-0.344,+7.188,+15.375,+10.562,0, 0, -1, 0, 1, 1, -2, -3
1503614589348,-0.412,-0.421,+0.376,+0.716,+0.880,-0.278,-0.335,+10.875,+22.875,+9.188,-4, 4, 3, -3, -2, -4, 2, -1
1503614589373,-0.410,-0.424,+0.377,+0.714,+0.908,-0.274,-0.357,+14.000,+23.125,+10.000,1, 4, -4, -2, -2, -1, -2, -3
1503614589385,-0.409,-0.428,+0.377,+0.712,+0.911,-0.286,-0.344,+17.500,+19.500,+10.438,0, -13, -5, -3, -2, -4, -2, 1
1503614589408,-0.408,-0.432,+0.376,+0.711,+0.904,-0.325,-0.332,+18.250,+9.750,+6.875,0, -4, 5, 2, 1, 1, -1, -4
1503614589423,-0.409,-0.435,+0.374,+0.710,+0.896,-0.333,-0.300,+19.812,+3.625,+4.438,-3, 2, -1, -2, -2, 1, 0, -3
1503614589445,-0.409,-0.438,+0.373,+0.708,+0.865,-0.326,-0.292,+20.188,+4.500,+3.688,-2, 2, 1, -1, -4, -4, -3, -11
1503614589468,-0.409,-0.441,+0.372,+0.707,+0.860,-0.345,-0.249,+16.625,+5.062,+3.500,-1, 1, -7, -4, 1, -1, -3, 0
1503614589483,-0.409,-0.444,+0.372,+0.706,+0.903,-0.369,-0.189,+8.062,+2.375,+1.375,-4, 0, -20, -6, -4, -5, -4, -2
1503614589508,-0.409,-0.444,+0.371,+0.705,+0.948,-0.382,-0.175,+0.500,-7.438,-5.125,-2, -21, -15, -7, -2, 0, 3, 3
1503614589527,-0.411,-0.443,+0.371,+0.705,+0.928,-0.363,-0.203,-4.938,-15.625,-12.062,2, 4, 7, 1, 0, -1, 1, -4
1503614589543,-0.414,-0.440,+0.371,+0.705,+0.879,-0.328,-0.228,-8.750,-18.812,-17.688,-1, -3, 3, 1, 1, 1, -2, 1
1503614589565,-0.417,-0.437,+0.371,+0.706,+0.864,-0.328,-0.234,-12.438,-17.938,-18.812,3, 12, 18, 7, 2, 1, 1, 3
1503614589587,-0.419,-0.433,+0.372,+0.706,+0.870,-0.342,-0.237,-16.688,-15.562,-21.750,3, 13, 3, 5, 4, 0, 0, 3
1503614589605,-0.421,-0.429,+0.373,+0.707,+0.890,-0.323,-0.259,-20.375,-12.125,-23.188,5, 24, -5, 1, -1, 0, 1, 4
1503614589625,-0.423,-0.425,+0.376,+0.707,+0.903,-0.273,-0.293,-21.625,-8.500,-22.375,-6, -12, -3, -4, -2, -3, -3, -3
1503614589648,-0.425,-0.420,+0.378,+0.707,+0.899,-0.243,-0.312,-21.562,-8.062,-21.500,-1, -15, -13, -3, 7, -1, -1, -1
1503614589672,-0.427,-0.416,+0.380,+0.708,+0.933,-0.256,-0.304,-23.750,-8.500,-19.750,6, 18, 11, 3, -8, 3, 5, -1
1503614589685,-0.427,-0.412,+0.383,+0.708,+0.961,-0.250,-0.331,-23.188,-3.000,-16.688,-10, -27, -10, -9, -9, -5, -1, -2
1503614589708,-0.428,-0.408,+0.385,+0.709,+0.945,-0.216,-0.354,-21.312,-2.562,-13.375,-4, -9, 0, -1, -2, 1, -1, -5
1503614589723,-0.429,-0.404,+0.386,+0.710,+0.958,-0.219,-0.340,-21.000,-8.625,-10.875,1, 3, 20, 4, 3, 1, -1, 3
1503614589745,-0.430,-0.400,+0.387,+0.711,+0.964,-0.217,-0.365,-19.438,-10.062,-8.250,1, 1, -2, -1, 2, -1, 2, 1
1503614589767,-0.430,-0.397,+0.388,+0.712,+0.939,-0.200,-0.389,-15.188,-6.188,-5.312,1, 12, 3, -5, 4, -2, -3, 0
1503614589783,-0.430,-0.395,+0.388,+0.713,+0.908,-0.202,-0.375,-12.188,-4.500,-0.750,-6, -12, -10, -5, -7, -4, -2, -4
1503614589807,-0.429,-0.393,+0.388,+0.714,+0.933,-0.225,-0.347,-12.875,-5.812,+2.812,-8, -6, -4, 1, 4, 0, -4, -14
1503614589828,-0.429,-0.392,+0.388,+0.716,+0.932,-0.226,-0.333,-13.125,-4.875,+2.938,5, 14, 12, 4, 1, -2, 0, 2
1503614589843,-0.428,-0.390,+0.388,+0.717,+0.922,-0.228,-0.350,-11.625,-6.312,+1.812,3, 0, 4, -1, -4, 1, -3, 0
1503614589866,-0.427,-0.388,+0.388,+0.718,+0.902,-0.227,-0.348,-11.750,-6.188,+1.688,-5, -14, -14, -12, -7, -2, -2, 2
1503614589888,-0.427,-0.387,+0.388,+0.719,+0.877,-0.232,-0.352,-12.688,-5.938,+1.062,0, -1, -6, 2, 0, -1, 2, 2
1503614589903,-0.426,-0.385,+0.388,+0.721,+0.891,-0.243,-0.334,-14.438,-6.062,-0.562,0, 2, -1, -5, -3, -1, -2, 3
1503614589926,-0.426,-0.383,+0.389,+0.722,+0.885,-0.238,-0.332,-15.812,-6.688,-3.250,-5, 7, -4, 0, 3, 2, -1, 1
1503614589949,-0.426,-0.380,+0.389,+0.723,+0.887,-0.226,-0.346,-16.812,-6.312,-6.125,-3, -5, -4, -3, -3, -3, -3, -6
1503614589963,-0.426,-0.377,+0.390,+0.724,+0.892,-0.220,-0.354,-17.375,-7.750,-8.312,3, 4, 10, 1, -3, -1, 0, 1
1503614589986,-0.427,-0.374,+0.391,+0.725,+0.885,-0.211,-0.370,-17.875,-8.375,-9.375,-2, -5, -4, -1, 0, -5, -1, 5
1503614590009,-0.428,-0.370,+0.392,+0.726,+0.889,-0.203,-0.377,-17.188,-8.000,-10.375,-14, -3, -2, -2, 1, 2, -2, -1
1503614590023,-0.428,-0.367,+0.393,+0.726,+0.906,-0.190,-0.386,-17.062,-6.562,-10.812,8, 9, 2, -1, -1, -4, -1, 0
1503614590046,-0.429,-0.364,+0.394,+0.727,+0.917,-0.189,-0.375,-16.938,-7.625,-10.188,5, 13, -2, 3, 3, 0, 0, 2
1503614590068,-0.430,-0.361,+0.395,+0.727,+0.932,-0.171,-0.396,-15.812,-4.500,-8.062,-2, -12, -5, -5, -1, -1, -3, -5
1503614590090,-0.430,-0.359,+0.395,+0.728,+0.920,-0.160,-0.412,-13.312,-5.875,-7.250,-3, 5, 4, 1, 2, 0, 2, -1
1503614590106,-0.431,-0.356,+0.396,+0.729,+0.937,-0.166,-0.402,-12.562,-8.000,-5.375,4, 0, 5, -3, -3, -1, -3, 0
1503614590127,-0.431,-0.354,+0.396,+0.730,+0.916,-0.163,-0.411,-10.625,-7.500,-2.875,5, 2, 2, 0, -1, 0, 0, 3
1503614590143,-0.431,-0.352,+0.395,+0.731,+0.918,-0.161,-0.397,-9.000,-8.812,-2.000,-3, 0, 3, 2, 3, -1, -1, -2
1503614590164,-0.432,-0.351,+0.395,+0.731,+0.923,-0.162,-0.401,-7.438,-7.812,-1.312,-1, -1, 1, 2, -1, 0, 3, -1
1503614590188,-0.432,-0.349,+0.394,+0.732,+0.926,-0.159,-0.423,-5.625,-7.312,-0.062,0, -4, -4, 1, 1, 1, -2, 0
1503614590211,-0.432,-0.348,+0.393,+0.733,+0.915,-0.151,-0.434,-3.625,-8.188,+1.500,-1, -2, 1, 1, -3, -2, -1, -2
1503614590224,-0.433,-0.347,+0.392,+0.734,+0.905,-0.151,-0.437,-1.250,-10.688,+1.875,1, 1, -1, 0, -1, 0, -1, -6
1503614590248,-0.433,-0.347,+0.390,+0.735,+0.901,-0.164,-0.443,+1.188,-10.750,+2.062,-1, 0, 1, 1, 0, -4, 2, 2
1503614590270,-0.434,-0.346,+0.388,+0.735,+0.897,-0.167,-0.438,+4.312,-10.812,+2.438,3, 8, 7, 1, 2, -1, -1, -2
1503614590286,-0.435,-0.347,+0.386,+0.736,+0.906,-0.163,-0.425,+6.000,-11.750,+3.375,-2, -3, -3, -4, 0, -1, -2, 0
1503614590307,-0.436,-0.347,+0.384,+0.736,+0.904,-0.157,-0.427,+7.438,-9.688,+4.500,0, 1, 2, 0, 0, -2, -1, 0
1503614590329,-0.437,-0.348,+0.382,+0.737,+0.902,-0.164,-0.440,+9.375,-10.500,+4.125,1, 1, 2, -3, -3, 0, 0, 0
1503614590345,-0.438,-0.349,+0.379,+0.737,+0.910,-0.166,-0.444,+11.562,-11.688,+4.875,-1, 0, 6, 3, 1, 0, 1, 1
1503614594410,-0.380,-0.412,+0.395,+0.728,+0.886,-0.298,-0.309,+17.312,-13.312,-6.250,-12, -4, -6, -6, -4, 1, -4, -23
1503614594431,-0.383,-0.412,+0.392,+0.728,+0.801,-0.323,-0.263,+11.625,-21.750,-7.188,-18, -5, -4, -4, -4, -1, 0, 4
1503614594449,-0.384,-0.412,+0.391,+0.728,+0.869,-0.353,-0.195,+2.875,-14.500,-8.375,13, 11, -4, -1, 0, 0, 1, 5
1503614594473,-0.385,-0.412,+0.392,+0.727,+0.914,-0.342,-0.197,-3.188,-1.375,-10.938,-30, -19, -10, -6, -4, -4, -4, -6
1503614594492,-0.385,-0.411,+0.394,+0.726,+0.912,-0.325,-0.205,-8.875,+1.250,-12.625,9, -2, -1, -5, -5, -2, -3, -6
1503614594508,-0.386,-0.409,+0.396,+0.726,+0.930,-0.332,-0.204,-17.875,-5.500,-13.188,12, 20, 22, 7, 2, 3, 4, 9
1503614594530,-0.386,-0.405,+0.398,+0.727,+0.955,-0.313,-0.208,-26.250,-9.750,-15.125,2, 17, -13, -2, 0, -3, -1, -13
1503614594552,-0.387,-0.400,+0.400,+0.728,+0.932,-0.277,-0.243,-29.938,-13.812,-17.062,14, 0, 7, 1, -2, -3, -1, 18
1503614594568,-0.388,-0.394,+0.402,+0.730,+0.909,-0.259,-0.288,-33.062,-14.438,-18.375,-10, -20, -3, -4, -2, -2, -1, -20
1503614594597,-0.389,-0.388,+0.403,+0.732,+0.897,-0.241,-0.343,-32.562,-13.812,-17.750,-5, -10, 0, 3, 1, 1, -1, -2
1503614594612,-0.390,-0.382,+0.404,+0.734,+0.905,-0.231,-0.361,-32.750,-13.125,-15.750,11, 9, -2, -3, -3, -2, -2, -19
1503614594628,-0.390,-0.376,+0.406,+0.736,+0.944,-0.230,-0.371,-32.750,-14.500,-12.938,-8, -6, -6, -6, -2, -2, -4, 5
1503614594650,-0.391,-0.370,+0.407,+0.738,+0.960,-0.197,-0.377,-31.375,-14.188,-10.062,14, 20, 7, 7, 3, 2, 0, -10
1503614594675,-0.391,-0.364,+0.407,+0.741,+0.937,-0.179,-0.405,-27.312,-15.938,-7.938,9, 32, 28, 10, 5, 2, 3, 8
1503614594688,-0.392,-0.360,+0.407,+0.743,+0.927,-0.186,-0.409,-23.500,-16.500,-4.812,-1, -11, -13, -7, -4, -5, -2, 8
1503614594710,-0.392,-0.355,+0.406,+0.745,+0.911,-0.188,-0.400,-21.438,-15.562,-2.375,-2, -4, -4, 0, -1, 0, 1, 5
1503614594732,-0.392,-0.352,+0.406,+0.747,+0.900,-0.189,-0.405,-19.875,-12.812,-1.938,-4, -14, -7, -3, -2, -2, -3, -4
1503614594748,-0.391,-0.349,+0.406,+0.749,+0.883,-0.187,-0.420,-16.250,-6.875,-0.250,-4, 8, -1, -3, -1, -2, -1, 0
1503614594770,-0.391,-0.347,+0.406,+0.750,+0.861,-0.188,-0.403,-14.062,-2.938,+0.562,0, -18, -13, -4, -4, -2, -4, -3
1503614594793,-0.390,-0.345,+0.406,+0.751,+0.891,-0.201,-0.381,-12.750,-2.938,-0.188,-6, 1, -1, 0, 1, 1, -4, -10
1503614594809,-0.390,-0.343,+0.407,+0.752,+0.909,-0.219,-0.346,-14.312,-7.438,-3.875,-2, -33, -40, -11, -5, -4, 2, 6
1503614594830,-0.390,-0.340,+0.406,+0.753,+0.937,-0.222,-0.374,-15.875,-14.125,-7.125,7, -13, -9, -2, 2, 1, 2, 8
1503614594852,-0.391,-0.337,+0.406,+0.754,+0.914,-0.180,-0.433,-14.500,-13.562,-6.812,5, 16, 7, 1, -2, 0, 1, 6
1503614594868,-0.392,-0.334,+0.405,+0.756,+0.853,-0.143,-0.463,-12.000,-12.875,-6.375,2, 11, 11, 3, 2, 2, -6, -8
1503614594891,-0.393,-0.331,+0.405,+0.757,+0.868,-0.149,-0.450,-11.438,-6.812,-2.500,9, 11, 11, 2, 1, 0, 0, -2
1503614594913,-0.392,-0.330,+0.406,+0.757,+0.843,-0.180,-0.407,-10.375,+5.500,+0.812,-6, -2, -6, -4, -3, -5, 2, 6
1503614594928,-0.390,-0.330,+0.408,+0.757,+0.891,-0.190,-0.370,-9.250,+10.312,+1.500,2, -12, -9, -1, 0, -3, -1, -7
1503614594952,-0.389,-0.330,+0.410,+0.756,+0.959,-0.189,-0.379,-8.250,+8.438,-1.062,-3, 3, 18, 2, -3, 2, -2, 15
1503614594972,-0.390,-0.329,+0.410,+0.756,+0.951,-0.168,-0.435,-6.500,-3.438,-5.625,-3, 4, -7, -2, 1, -2, -2, -5
1503614594988,-0.391,-0.326,+0.409,+0.757,+0.911,-0.165,-0.441,-6.875,-15.875,-6.062,0, 6, 4, 1, 1, 1, 2, 11
1503614595011,-0.393,-0.324,+0.407,+0.759,+0.898,-0.166,-0.421,-6.938,-19.188,-3.750,-2, -17, -2, -2, -3, -4, -1, 1
1503614595032,-0.393,-0.322,+0.406,+0.760,+0.900,-0.171,-0.405,-6.688,-12.250,-2.312,-1, -8, 2, 0, 0, 0, 0, -5
1503614595049,-0.393,-0.321,+0.405,+0.760,+0.891,-0.148,-0.429,-3.500,-6.750,+0.188,2, 1, -9, 0, -3, -1, -3, -3
1503614595070,-0.394,-0.321,+0.404,+0.761,+0.894,-0.147,-0.450,-2.688,-4.562,+1.500,-1, 4, -2, -4, -5, -5, -8, -6
1503614595092,-0.393,-0.320,+0.404,+0.761,+0.906,-0.157,-0.447,-1.812,-3.625,+2.938,-1, 4, -3, 2, 0, 0, -1, -17
1503614598610,-0.481,-0.555,+0.369,+0.570,+1.018,-0.318,+0.015,-30.875,-9.812,-9.062,11, -5, 8, 4, 1, -1, 2, -1
1503614598633,-0.481,-0.550,+0.372,+0.573,+1.016,-0.301,+0.023,-35.250,-15.875,-13.250,3, 10, 8, 1, 1, 0, -2, -5
1503614598654,-0.482,-0.544,+0.375,+0.575,+1.042,-0.236,-0.044,-34.875,-18.062,-14.188,-8, -7, -5, -2, -4, 0, -4, -10
1503614598670,-0.482,-0.538,+0.378,+0.579,+1.015,-0.214,-0.046,-40.062,-20.938,-10.812,-12, -5, -3, -2, 2, -1, 0, 4
1503614598692,-0.483,-0.532,+0.379,+0.583,+1.011,-0.220,-0.047,-42.312,-26.438,-6.000,1, -1, -5, -3, 0, -2, 0, 6
1503614598714,-0.483,-0.526,+0.381,+0.588,+0.951,-0.221,-0.126,-39.438,-23.938,-4.938,4, 3, 0, 1, -2, -2, -2, -2
1503614598730,-0.485,-0.519,+0.381,+0.592,+0.860,-0.213,-0.169,-36.500,-26.688,-10.062,-12, -7, -5, -2, 8, 2, -2, -5
1503614598752,-0.486,-0.512,+0.382,+0.597,+0.855,-0.235,-0.168,-38.000,-27.438,-10.875,-9, -10, -3, -1, -6, -4, -3, 0
1503614598774,-0.484,-0.507,+0.385,+0.600,+0.977,-0.227,-0.163,-38.500,-4.938,-4.688,8, 1, -3, -2, -4, -1, -1, 1
1503614598790,-0.483,-0.503,+0.389,+0.602,+0.992,-0.196,-0.215,-32.688,+3.688,-6.375,-16, -2, 1, -2, -3, -1, -1, 0
1503614598812,-0.485,-0.497,+0.390,+0.605,+0.976,-0.212,-0.208,-27.250,-16.562,-14.625,-12, -3, -4, 0, -3, -2, -4, -8
1503614598834,-0.489,-0.490,+0.389,+0.609,+0.920,-0.265,-0.214,-26.875,-45.312,-20.625,59, 8, 2, -2, 0, -1, 3, 5
1503614598850,-0.492,-0.482,+0.388,+0.612,+0.917,-0.241,-0.186,-30.312,-43.312,-21.000,-12, -1, -8, -2, -2, -2, -1, -4
1503614598873,-0.494,-0.476,+0.390,+0.614,+0.987,-0.176,-0.210,-27.500,-19.688,-18.062,-19, -13, -2, -1, 1, 0, 0, -5
1503614598894,-0.497,-0.471,+0.391,+0.616,+0.980,-0.165,-0.244,-21.250,-17.500,-19.312,11, 8, 2, 0, 0, -1, 2, 8
1503614598910,-0.501,-0.464,+0.391,+0.618,+0.924,-0.174,-0.261,-20.188,-34.000,-22.188,16, 3, 0, -3, 1, -1, 0, 3
1503614598932,-0.505,-0.457,+0.390,+0.620,+0.915,-0.157,-0.263,-20.750,-36.938,-20.375,-9, -6, -5, 0, -1, -3, 0, 5
1503614598954,-0.507,-0.452,+0.390,+0.622,+0.987,-0.138,-0.250,-20.188,-24.438,-16.125,7, 10, 1, 3, 0, 4, -3, -8
1503614598971,-0.509,-0.447,+0.391,+0.623,+1.019,-0.136,-0.238,-19.438,-18.000,-14.000,0, -7, -4, -3, -3, 0, -1, 2
1503614598992,-0.512,-0.442,+0.391,+0.625,+0.967,-0.151,-0.282,-18.938,-29.312,-14.750,12, 1, 5, 4, 1, 4, 3, 14
1503614599014,-0.514,-0.436,+0.390,+0.628,+0.896,-0.149,-0.281,-20.000,-31.688,-13.750,-15, -5, -5, -3, 0, -3, -1, -17
1503614599030,-0.515,-0.431,+0.391,+0.629,+0.944,-0.132,-0.232,-22.438,-18.938,-11.125,9, -3, 2, -1, -2, -2, -1, -2
1503614599052,-0.516,-0.428,+0.392,+0.630,+1.026,-0.102,-0.285,-18.125,-9.562,-7.250,-14, -9, -10, -5, -2, 0, 0, 0
1503614599074,-0.518,-0.424,+0.392,+0.632,+1.007,-0.092,-0.327,-13.938,-22.875,-8.562,-19, 0, 3, -2, 0, 1, 0, -2
1503614599090,-0.520,-0.419,+0.390,+0.634,+0.934,-0.122,-0.309,-17.188,-30.750,-7.500,-11, -7, 3, 1, 0, -2, -3, -15
1503614599113,-0.521,-0.415,+0.389,+0.637,+0.931,-0.122,-0.300,-17.000,-23.125,-3.625,-29, -8, -10, 2, 0, -2, -2, 1
1503614599134,-0.521,-0.411,+0.389,+0.638,+0.948,-0.104,-0.287,-15.188,-17.875,-3.000,26, 8, 1, -2, 0, 2, 4, 27
1503614599150,-0.522,-0.408,+0.389,+0.640,+0.953,-0.115,-0.298,-16.500,-20.312,-3.000,2, 11, -8, -4, -1, 0, -2, -12
1503614599174,-0.523,-0.404,+0.388,+0.643,+0.930,-0.127,-0.331,-18.250,-20.625,-3.000,-5, -8, -3, -3, 0, -1, -1, -4
1503614599195,-0.523,-0.400,+0.388,+0.645,+0.904,-0.101,-0.324,-18.625,-19.812,-4.625,7, -3, 0, -1, -1, -2, 4, 7
1503614599210,-0.524,-0.397,+0.388,+0.646,+0.953,-0.069,-0.333,-17.688,-12.125,-2.500,1, -11, -6, -2, -1, 0, -3, -16
1503614599232,-0.524,-0.394,+0.388,+0.648,+0.938,-0.086,-0.367,-14.688,-15.438,-1.062,-1, -1, 9, 2, -3, 0, -2, -5
1503614599254,-0.524,-0.391,+0.388,+0.650,+0.957,-0.091,-0.373,-14.312,-13.125,-1.375,-21, -8, 2, 0, -1, -3, -3, -10
1503614599270,-0.525,-0.388,+0.387,+0.652,+0.928,-0.071,-0.398,-10.312,-15.688,+0.250,0, -7, -11, -2, -1, 1, -1, 4
1503614599292,-0.525,-0.386,+0.386,+0.653,+0.937,-0.084,-0.371,-9.750,-11.500,+3.312,-7, 0, -6, -2, 0, -1, -5, -6
1503614599316,-0.524,-0.385,+0.386,+0.654,+0.957,-0.086,-0.361,-8.438,-6.688,+4.938,18, 5, 1, 0, 0, 1, 1, 8
1503614599330,-0.524,-0.383,+0.385,+0.656,+0.947,-0.068,-0.377,-5.188,-9.688,+5.000,3, -3, -6, -3, -3, -2, 0, 1
1503614599352,-0.524,-0.383,+0.384,+0.657,+0.936,-0.087,-0.375,-4.312,-9.000,+5.312,11, 6, 10, 4, 2, 1, 1, 5
1503614599375,-0.524,-0.382,+0.383,+0.658,+0.897,-0.119,-0.385,-3.250,-7.062,+5.875,1, 2, -3, 0, -1, -2, 3, 9
1503614599397,-0.523,-0.382,+0.382,+0.659,+0.888,-0.122,-0.377,-3.938,-0.062,+7.812,-7, -1, 2, 0, -3, -1, -2, -9
1503614599413,-0.521,-0.384,+0.382,+0.660,+0.904,-0.118,-0.372,-3.625,+9.500,+10.188,1, 7, 15, 1, 1, -1, -1, -3
1503614599434,-0.518,-0.385,+0.383,+0.660,+0.934,-0.119,-0.371,-3.562,+14.438,+11.000,1, 3, -3, 1, 1, -2, 0, 2
1503614599450,-0.516,-0.387,+0.384,+0.660,+0.946,-0.120,-0.361,-2.375,+13.562,+10.938,-5, -3, -5, 1, 0, 0, -4, -12
1503614599475,-0.514,-0.389,+0.385,+0.661,+0.957,-0.110,-0.358,-2.438,+11.188,+12.438,2, 0, -3, -3, -2, -4, 1, 1
1503614599495,-0.512,-0.390,+0.385,+0.661,+0.974,-0.104,-0.375,-0.688,+6.188,+12.312,-1, 1, -1, 0, 2, 2, -3, 1
1503614599510,-0.511,-0.390,+0.384,+0.662,+0.962,-0.111,-0.367,-1.562,-4.000,+11.562,-13, -6, 0, -2, -2, -5, -2, -3
1503614599532,-0.511,-0.390,+0.382,+0.664,+0.933,-0.118,-0.368,-1.500,-9.062,+12.062,1, 6, 1, -1, 0, 1, 0, -5
1503614599555,-0.510,-0.391,+0.381,+0.665,+0.916,-0.123,-0.365,-0.875,-4.312,+12.688,-11, -8, -4, 1, 0, -2, -3, 0
1503614599570,-0.508,-0.392,+0.380,+0.666,+0.907,-0.139,-0.356,+0.312,-0.375,+13.500,10, 1, 1, 0, -3, -2, -7, -16
1503614599592,-0.507,-0.393,+0.379,+0.668,+0.926,-0.142,-0.368,+0.312,-0.688,+13.688,3, 2, 3, 1, 1, 2, 4, -8
1503614599615,-0.506,-0.393,+0.377,+0.669,+0.917,-0.146,-0.366,-0.625,-4.312,+13.250,-21, -19, -18, -6, -4, -3, -4, -16
1503614599630,-0.505,-0.393,+0.376,+0.670,+0.905,-0.153,-0.349,-1.125,-6.125,+10.938,-1, -2, -1, 0, -2, -2, 1, 9
1503614599652,-0.504,-0.393,+0.374,+0.672,+0.896,-0.159,-0.337,-1.625,-7.812,+9.062,6, -3, -5, -6, -1, -2, -2, 8
1503614599676,-0.504,-0.393,+0.373,+0.673,+0.912,-0.167,-0.340,-2.375,-9.812,+6.750,5, 26, 22, 6, 0, 0, 0, 1
1503614599690,-0.504,-0.393,+0.371,+0.674,+0.912,-0.158,-0.354,-3.125,-11.000,+3.938,-4, -4, -3, 1, 0, -1, -2, 0
1503614603638,-0.520,-0.550,+0.278,+0.591,+0.889,-0.329,-0.215,+1.812,-2.000,-4.875,1, -2, 2, 0, 0, 0, -1, -2
1503614603658,-0.521,-0.550,+0.278,+0.591,+0.919,-0.356,-0.194,+1.750,-1.875,-3.688,-3, -3, -8, -3, -3, 0, -2, 0
1503614603680,-0.521,-0.550,+0.278,+0.590,+0.928,-0.372,-0.186,+0.250,+0.750,-3.688,2, 1, -5, -1, 2, -3, -1, -1
1503614603694,-0.521,-0.550,+0.278,+0.590,+0.928,-0.362,-0.180,-0.750,+0.500,-4.938,-2, -1, -1, -1, -2, -2, -3, -2
1503614603717,-0.522,-0.550,+0.279,+0.589,+0.922,-0.360,-0.155,-3.062,-2.750,-6.250,-2, -1, 5, 0, 0, 1, 1, 0
1503614603732,-0.523,-0.549,+0.280,+0.589,+0.914,-0.369,-0.170,-3.938,-3.500,-9.438,0, -2, 1, -1, -1, -1, 2, -2
1503614603754,-0.524,-0.548,+0.281,+0.589,+0.894,-0.356,-0.171,-6.125,-1.250,-9.875,1, 1, 1, -1, 1, -1, 0, 0
1503614603777,-0.524,-0.548,+0.283,+0.588,+0.947,-0.355,-0.156,-8.500,+2.438,-7.125,-3, 2, -3, -1, -1, 1, -1, 2
1503614603792,-0.523,-0.547,+0.285,+0.588,+1.020,-0.363,-0.153,-11.125,+4.688,-2.875,-4, -3, -6, -2, -2, -2, -3, -5
1503614603815,-0.523,-0.546,+0.286,+0.589,+0.975,-0.330,-0.167,-14.812,-2.562,-2.438,0, -1, -2, -1, 2, 0, -2, 1
1503614603839,-0.523,-0.543,+0.287,+0.591,+0.928,-0.317,-0.181,-17.625,-11.625,-5.062,-1, -5, -8, -6, -2, 1, 2, 6
1503614603859,-0.524,-0.540,+0.288,+0.592,+0.890,-0.350,-0.186,-20.000,-15.562,-6.688,7, 2, 10, 4, 1, -5, 0, -3
1503614603875,-0.525,-0.536,+0.289,+0.595,+0.900,-0.364,-0.165,-23.250,-13.625,-6.312,0, -2, -3, -4, -2, -1, -3, -2
1503614603897,-0.525,-0.533,+0.291,+0.596,+0.924,-0.346,-0.170,-25.875,-9.938,-8.812,-3, -15, -8, -2, -3, 0, -1, -2
1503614603919,-0.526,-0.529,+0.294,+0.598,+0.893,-0.325,-0.198,-29.312,-10.625,-10.938,-9, -12, 0, 2, 1, -1, -4, -6
1503614603935,-0.526,-0.524,+0.296,+0.601,+0.862,-0.317,-0.223,-30.625,-9.750,-10.812,6, 1, 14, 0, -2, 1, -1, 7
1503614603957,-0.526,-0.520,+0.299,+0.603,+0.883,-0.299,-0.224,-32.062,-1.688,-11.625,2, -5, -8, -4, -2, -1, 0, 4
1503614603979,-0.525,-0.516,+0.304,+0.604,+0.941,-0.301,-0.209,-34.875,-0.562,-12.500,0, -4, -5, -1, -1, -1, -1, 2
1503614603995,-0.525,-0.512,+0.308,+0.606,+1.000,-0.321,-0.216,-36.625,-6.250,-12.000,-3, -6, -10, -5, -2, -2, -3, -7
1503614604017,-0.525,-0.506,+0.311,+0.609,+0.974,-0.295,-0.236,-38.188,-14.562,-11.688,-6, -4, -13, -2, -1, -1, -3, -7
1503614604040,-0.527,-0.499,+0.313,+0.612,+0.914,-0.244,-0.284,-38.125,-22.125,-14.750,-3, -8, -2, -5, -2, -3, -1, -2
1503614604055,-0.529,-0.492,+0.315,+0.615,+0.879,-0.234,-0.285,-34.562,-25.938,-15.250,-3, -1, 1, 0, -2, 2, 1, 2
1503614604078,-0.532,-0.486,+0.316,+0.618,+0.898,-0.243,-0.292,-32.438,-24.312,-16.125,2, -3, 4, 0, 1, 3, 1, 4
1503614604099,-0.533,-0.480,+0.318,+0.620,+0.913,-0.257,-0.320,-32.812,-18.875,-16.000,-4, -6, 2, 0, 0, -3, 0, -8
1503614604115,-0.535,-0.474,+0.320,+0.622,+0.906,-0.256,-0.341,-28.688,-15.625,-14.500,1, 1, 3, 1, -1, 2, 0, -3
1503614604138,-0.536,-0.469,+0.322,+0.624,+0.923,-0.214,-0.347,-26.375,-14.375,-12.062,0, -2, 0, -2, -1, -1, 1, -2
1503614604159,-0.537,-0.465,+0.324,+0.625,+0.942,-0.170,-0.359,-23.188,-7.625,-9.625,2, 0, 4, 1, 0, -2, -3, 0
1503614604175,-0.539,-0.461,+0.325,+0.626,+0.954,-0.173,-0.358,-17.562,-12.938,-10.125,-2, -2, -1, 1, -1, 2, -2, -1
1503614604197,-0.540,-0.457,+0.325,+0.627,+0.978,-0.224,-0.359,-16.375,-17.188,-7.688,-3, -3, -1, -3, 0, 0, -1, -4
1503614604220,-0.542,-0.454,+0.325,+0.629,+0.927,-0.223,-0.373,-12.875,-17.188,-5.500,1, 6, 7, 0, 1, 1, 0, -2
1503614604235,-0.543,-0.451,+0.324,+0.630,+0.919,-0.190,-0.362,-11.562,-15.875,-3.125,0, -6, -4, -2, -1, -2, 0, 4
1503614604258,-0.543,-0.448,+0.324,+0.632,+0.929,-0.192,-0.341,-12.000,-11.688,-0.625,4, 7, 9, 3, 2, -1, 1, 6
1503614604279,-0.543,-0.446,+0.324,+0.633,+0.916,-0.211,-0.316,-12.125,-10.312,-0.312,-10, -4, -5, -2, -3, 0, -3, -15
1503614604295,-0.543,-0.444,+0.325,+0.634,+0.920,-0.240,-0.312,-15.375,-11.125,-0.188,-3, -11, -7, -4, -2, 0, -2, -16
1503614604317,-0.543,-0.442,+0.325,+0.636,+0.920,-0.215,-0.341,-14.500,-8.750,-0.625,3, 5, 4, 0, -2, -1, -3, 1
1503614604339,-0.543,-0.439,+0.325,+0.637,+0.915,-0.178,-0.374,-12.812,-9.750,-1.250,-1, -5, -10, -1, -3, 0, 0, 8
1503614604355,-0.544,-0.437,+0.325,+0.638,+0.917,-0.187,-0.373,-14.062,-10.062,-0.875,2, 8, 6, 0, 1, 1, 0, 3
1503614604377,-0.543,-0.435,+0.326,+0.640,+0.912,-0.212,-0.362,-14.250,-9.062,+1.938,-1, 8, 5, -3, -3, -3, -2, -7
1503614604399,-0.543,-0.433,+0.326,+0.642,+0.917,-0.199,-0.366,-13.938,-4.250,+3.875,1, -7, -12, -2, -1, -1, 0, 8
1503614604415,-0.542,-0.432,+0.326,+0.643,+0.929,-0.180,-0.385,-10.250,-3.938,+3.500,6, 15, 18, 5, 2, 1, 5, 38
1503614604437,-0.542,-0.430,+0.326,+0.644,+0.928,-0.186,-0.394,-10.188,-8.000,+5.312,-16, -16, -15, -6, -2, -3, -4, -24
1503614604459,-0.541,-0.428,+0.326,+0.646,+0.917,-0.180,-0.405,-10.938,-8.000,+6.250,4, 14, 16, 5, -1, -1, -3, -11
1503614604477,-0.540,-0.428,+0.325,+0.648,+0.888,-0.179,-0.402,-8.438,-2.688,+9.125,-2, -10, -9, -1, 0, 1, -1, 4
1503614604497,-0.539,-0.428,+0.325,+0.649,+0.870,-0.194,-0.375,-7.750,+3.938,+11.000,12, 1, 0, 2, 0, -2, 2, 12
1503614604519,-0.536,-0.428,+0.326,+0.650,+0.897,-0.222,-0.350,-8.562,+7.562,+11.000,-5, -13, -13, -5, 0, -1, -6, -25
1503614604535,-0.534,-0.429,+0.327,+0.651,+0.930,-0.216,-0.374,-7.375,+6.562,+10.250,-2, -4, -2, 0, 0, -2, 1, 3
1503614604557,-0.533,-0.429,+0.327,+0.652,+0.913,-0.206,-0.390,-6.875,+2.312,+8.500,-2, 2, 4, 2, 0, 0, -2, -5
1503614604579,-0.532,-0.428,+0.327,+0.653,+0.884,-0.212,-0.361,-9.062,-1.438,+7.750,2, 0, -1, 3, 0, 1, 2, 12
1503614604595,-0.530,-0.428,+0.327,+0.655,+0.899,-0.217,-0.348,-11.062,-0.438,+7.062,-6, -9, -9, -3, -2, -3, -4, 9
1503614604617,-0.529,-0.428,+0.328,+0.656,+0.905,-0.207,-0.360,-10.000,+2.375,+5.875,-11, -14, -10, -3, 4, 2, -1, -29
1503614604639,-0.528,-0.427,+0.329,+0.657,+0.894,-0.222,-0.375,-9.625,+2.375,+5.250,-14, -9, -1, -7, -5, -5, -6, -19
1503614604655,-0.526,-0.427,+0.329,+0.658,+0.898,-0.237,-0.362,-11.750,-0.875,+5.125,9, -5, -8, -2, -3, 1, 5, 5
1503614604679,-0.525,-0.425,+0.330,+0.659,+0.926,-0.208,-0.371,-12.250,-1.000,+4.062,14, 16, 12, 1, 0, -1, -3, -4
1503614604699,-0.525,-0.424,+0.330,+0.660,+0.916,-0.179,-0.400,-8.938,+0.438,+3.938,-4, -7, -7, -1, -1, 0, -4, -3
1503614604715,-0.524,-0.424,+0.330,+0.661,+0.905,-0.197,-0.399,-7.188,-0.688,+6.000,-4, -5, -3, -2, -1, -2, -5, -22
1503614604737,-0.523,-0.423,+0.330,+0.662,+0.930,-0.215,-0.396,-6.750,-1.062,+8.438,-9, 8, 4, 0, -1, 0, 1, -13
1503614604759,-0.522,-0.423,+0.330,+0.663,+0.930,-0.200,-0.396,-4.125,-1.375,+9.438,-3, 6, 2, 2, 0, 1, 1, -9
1503614604775,-0.521,-0.423,+0.329,+0.664,+0.938,-0.208,-0.382,-3.000,-4.062,+10.688,-8, -16, -7, -5, -2, -3, 0, 15
