Timestamp,Orientation X,Orientation Y,Orientation Z,Orientation W,Accelerometer X,Accelerometer Y,Accelerometer Z,Gyroscope X,Gyroscope Y,Gyroscope Z,EMG1,EMG2,EMG3,EMG4,EMG5,EMG6,EMG7,EMG8,Roll,Yaw
1503686434609,-0.126,+0.020,-0.577,-0.806,+1.010,-0.158,-0.254,-21.375,-28.250,+10.375,-7, -19, -16, -11, -10, -5, 0, -3,0.18398509172185615,1.224942436163442
1503686434617,-0.130,+0.019,-0.572,-0.810,+0.947,-0.169,-0.353,-18.688,-33.000,+12.562,3, 14, 12, 17, 3, 3, 0, -3,0.19317769637440974,1.212717827153991
1503686434638,-0.133,+0.020,-0.567,-0.813,+0.857,-0.219,-0.346,-16.625,-27.938,+10.938,-3, -2, -11, -10, 3, 0, -9, -12,0.19820710030620703,1.2001344939548297
1503686434661,-0.136,+0.018,-0.563,-0.815,+0.862,-0.241,-0.352,-21.250,-19.188,+2.125,0, 0, 2, 3, -3, -4, -1, 3,0.2063117627679844,1.1900100523264288
1503686434683,-0.137,+0.016,-0.560,-0.817,+0.899,-0.222,-0.325,-20.625,-19.875,-8.500,-5, -9, -8, 0, 4, -3, 3, -5,0.21090036354097735,1.1827157097205856
1503686434698,-0.135,+0.011,-0.556,-0.820,+0.914,-0.216,-0.340,-21.625,-22.625,-24.188,-5, -2, -3, -6, -5, -3, 2, 5,0.21381604868411194,1.1733922631679077
1503686434723,-0.132,+0.006,-0.552,-0.823,+0.908,-0.142,-0.374,-19.062,-23.062,-35.375,-7, -8, -5, 1, 5, -4, -8, -14,0.21489956220100895,1.1642270199229527
1503686434744,-0.128,+0.001,-0.550,-0.825,+0.956,-0.098,-0.345,-13.688,-17.062,-35.875,-3, 2, -1, -5, -7, 0, 2, 3,0.2138954247464071,1.1601647268877633
1503686434760,-0.124,-0.003,-0.548,-0.827,+0.950,-0.101,-0.389,-8.750,-10.875,-30.688,4, 3, -1, -7, -4, -3, -12, -6,0.2117757162472708,1.1560732101518072
1503686434781,-0.121,-0.007,-0.547,-0.828,+0.907,-0.101,-0.342,-8.688,-5.812,-25.625,0, 0, -3, 2, -2, 2, -4, 2,0.2111366744911635,1.1542855790746072
1503686434804,-0.119,-0.009,-0.544,-0.830,+0.901,-0.133,-0.369,-9.000,-16.312,-23.562,-5, -3, -1, 13, 7, -2, 2, -1,0.21025667336489898,1.1473599986392764
1503686434818,-0.115,-0.013,-0.542,-0.833,+0.935,-0.091,-0.308,-9.625,-21.375,-30.938,0, -2, 1, -3, -9, 2, 0, -4,0.20827857021738821,1.143864166853569
1503686434841,-0.110,-0.016,-0.538,-0.835,+1.036,-0.038,-0.333,-1.875,-29.750,-31.438,-1, -6, -1, -5, 1, -1, 7, 6,0.20316464025925354,1.1344641790828618
1503686434858,-0.107,-0.018,-0.534,-0.838,+0.971,-0.053,-0.328,+0.250,-32.062,-22.000,2, -3, -1, 6, -3, 2, 0, 0,0.20060880584798896,1.125449894471194
1503686434878,-0.105,-0.018,-0.529,-0.842,+0.944,-0.099,-0.346,-4.938,-39.750,-12.875,-9, 0, 0, -8, -7, -3, -3, -8,0.19779261836898035,1.1140022092559194
1503686434901,-0.105,-0.020,-0.523,-0.846,+0.948,-0.063,-0.423,-10.625,-45.312,-7.812,-4, 1, -2, -2, 4, -7, -7, -8,0.2004933032341406,1.1003481694680548
1503686434916,-0.106,-0.021,-0.516,-0.850,+0.875,-0.040,-0.457,-12.000,-41.625,-3.125,16, 18, 21, 2, 2, 4, 1, 6,0.20382877371571786,1.0840308276170016
1503686434938,-0.108,-0.022,-0.511,-0.853,+0.851,-0.064,-0.482,-12.375,-29.500,+7.062,2, 1, -5, -5, 1, 3, 7, 19,0.208791945105965,1.0726028196804762
1503686434962,-0.111,-0.022,-0.507,-0.854,+0.832,-0.052,-0.504,-10.812,-17.000,+12.812,-9, -3, -1, -6, -1, -1, -12, -27,0.21413132558377604,1.0627033020463426
1503686434977,-0.113,-0.021,-0.505,-0.855,+0.808,-0.042,-0.493,-8.250,-7.688,+15.812,-8, -4, -2, 1, 2, 5, 9, 7,0.21679757248864076,1.0578370730773703
1503686434999,-0.116,-0.021,-0.504,-0.855,+0.833,-0.053,-0.491,-5.125,+0.500,+16.750,2, -11, -4, -3, -2, -9, -3, 5,0.22207956568421955,1.0552916863780233
1503686435021,-0.118,-0.020,-0.506,-0.854,+0.865,-0.062,-0.472,-2.000,+10.375,+15.688,-3, -1, 3, -1, -3, 0, -2, -11,0.22447701613405863,1.0598648994017663
1503686435036,-0.120,-0.019,-0.508,-0.853,+0.885,-0.083,-0.453,+1.250,+15.125,+15.250,-7, -1, 7, 2, 4, -2, -9, -9,0.22686492128550673,1.0644475817832846
1503686435060,-0.122,-0.017,-0.510,-0.851,+0.896,-0.111,-0.426,+2.750,+16.312,+13.375,-2, 2, -5, 1, -4, 0, 3, 10,0.22799082481182395,1.0683672951084853
1503686435088,-0.123,-0.016,-0.512,-0.850,+0.911,-0.128,-0.403,+1.188,+10.562,+8.000,2, 0, -5, 2, 1, 2, 0, -5,0.2285765815111311,1.072958638931193
1503686435103,-0.123,-0.015,-0.513,-0.849,+0.943,-0.123,-0.414,-0.188,+4.000,+2.438,7, 3, 2, -3, 5, 0, 1, 12,0.22734851346802554,1.0749203923767217
1503686435118,-0.123,-0.015,-0.514,-0.849,+0.930,-0.107,-0.423,+0.812,+2.812,-1.562,-2, -4, 5, 2, -1, 1, -1, -5,0.22737789132159056,1.0775478465744266
1503686435141,-0.122,-0.015,-0.514,-0.849,+0.898,-0.102,-0.419,+1.312,+1.500,-3.938,1, 2, 4, 4, -2, 3, 8, 3,0.22560426281224866,1.07753357121074
1503686435157,-0.121,-0.015,-0.514,-0.849,+0.892,-0.093,-0.436,+1.812,-2.562,-8.062,-4, -7, -5, -2, -3, 2, -11, -2,0.22383187499613866,1.0775192950888615
1503686435178,-0.119,-0.016,-0.514,-0.850,+0.900,-0.093,-0.429,+1.812,-1.562,-7.688,3, -4, 4, 2, 2, -2, 4, 1,0.22154538474450453,1.0781474401917732
1503686435201,-0.118,-0.016,-0.514,-0.850,+0.908,-0.091,-0.428,+1.125,+0.750,-6.438,-4, -3, -4, -3, 3, -4, 1, 2,0.2197749656067301,1.0781322450655042
1503686435216,-0.117,-0.016,-0.514,-0.849,+0.911,-0.084,-0.428,+1.750,+3.375,-3.062,0, 3, 2, 3, 4, -2, 0, 1,0.21777627747631612,1.0776284198830943
1503686435238,-0.117,-0.016,-0.515,-0.849,+0.912,-0.084,-0.430,+2.312,+4.750,-0.438,0, 2, -5, -6, 0, 7, 4, 3,0.2178076586790319,1.0802565663010446
1503686435262,-0.116,-0.015,-0.515,-0.849,+0.892,-0.078,-0.431,+3.750,-0.312,+0.562,4, 2, -3, 5, 1, 0, -3, 1,0.21501763397543505,1.0800766817026621
1503686435276,-0.116,-0.014,-0.516,-0.849,+0.892,-0.091,-0.429,+3.062,+6.062,-0.250,3, -2, 0, -4, -5, -6, -5, -7,0.21402175759284306,1.0825455198172327
1503686435299,-0.116,-0.014,-0.516,-0.848,+0.899,-0.079,-0.437,+2.938,+3.938,+0.750,-5, 1, 3, 8, 6, 3, 0, 5,0.21379399331908994,1.082058924006487
1503686435321,-0.116,-0.013,-0.517,-0.848,+0.888,-0.083,-0.434,+4.938,+5.062,+4.875,-8, -10, -10, -4, -1, 0, 2, -6,0.21279463989455008,1.0845346067996775
1503686435337,-0.116,-0.012,-0.519,-0.847,+0.875,-0.084,-0.436,+4.188,+14.250,+2.938,1, -1, 1, -11, 1, -2, -5, -7,0.21158750421062059,1.0891680675658668
1503686435360,-0.116,-0.010,-0.521,-0.846,+0.931,-0.089,-0.436,+9.000,+11.500,+8.125,1, -6, 3, 0, -5, -2, 2, -2,0.20933946500464493,1.0936712890282567
1503686435381,-0.116,-0.008,-0.522,-0.845,+0.947,-0.092,-0.422,+12.938,+9.562,+8.312,6, 1, 2, 0, 3, -3, 1, -2,0.20706149358501452,1.0955557696765283
1503686435397,-0.115,-0.006,-0.524,-0.844,+0.931,-0.089,-0.427,+13.875,+11.500,+5.812,-6, 0, -3, -3, -4, 1, -5, 3,0.20303147856426218,1.1001029053704823
1503686435420,-0.115,-0.003,-0.526,-0.843,+0.920,-0.088,-0.407,+16.375,+7.875,+11.062,1, 1, 0, 1, -2, -1, -3, -2,0.19970526532894814,1.1045677961012905
1503686435441,-0.115,+0.002,-0.527,-0.842,+0.842,-0.105,-0.432,+21.188,+10.188,+13.812,-3, -3, 0, -2, 1, -6, -3, -5,0.1942761426681528,1.1062201836578427
1503686435465,-0.115,+0.006,-0.530,-0.840,+0.912,-0.112,-0.420,+24.750,+17.250,+16.750,1, -2, -1, -5, -4, 7, 1, -2,0.1896244039429745,1.1129081452689567
1503686435478,-0.114,+0.012,-0.532,-0.839,+0.938,-0.092,-0.395,+32.500,+9.500,+19.188,1, 5, 4, 3, -5, -2, 1, 5,0.18132838553153455,1.117372504852411
1503686435501,-0.113,+0.018,-0.534,-0.837,+0.962,-0.123,-0.368,+35.125,+11.562,+18.688,-2, -2, -5, 1, 1, 1, -2, 2,0.1727679140149158,1.1215306129973364
1503686435523,-0.112,+0.026,-0.536,-0.837,+0.950,-0.130,-0.387,+39.125,+1.875,+19.938,1, 3, 1, 0, 1, 0, 5, -6,0.16250511359348063,1.1267788450349685
1503686435542,-0.111,+0.034,-0.536,-0.836,+0.928,-0.140,-0.393,+48.375,-3.312,+24.188,-5, -4, -1, -7, -4, -3, -2, -4,0.15209170846783676,1.126439320715723
1503686435564,-0.109,+0.044,-0.536,-0.836,+0.938,-0.168,-0.382,+52.188,-5.125,+24.188,-4, -6, -4, -1, 8, 4, -1, 3,0.13803545143356477,1.12697902730882
1503686435583,-0.107,+0.055,-0.537,-0.835,+0.997,-0.208,-0.363,+56.312,-5.875,+23.562,-3, -3, -6, 1, -2, -4, -4, 0,0.12256849344457924,1.1302768156361354
1503686435602,-0.104,+0.065,-0.537,-0.835,+0.996,-0.204,-0.314,+60.750,-11.875,+21.500,3, 1, 4, 0, 1, -5, -1, -2,0.10668492511321959,1.1317367662179565
1503686435621,-0.101,+0.076,-0.535,-0.836,+0.908,-0.222,-0.372,+62.250,-20.625,+19.250,1, -1, -6, -1, -1, 0, -1, 0,0.0901965886935912,1.1288402340385677
1503686435643,-0.097,+0.088,-0.532,-0.836,+0.875,-0.240,-0.357,+67.750,-23.375,+18.562,-4, -1, -6, -2, 0, 2, -3, 1,0.0708684095932198,1.1235589953387242
1503686435659,-0.093,+0.099,-0.529,-0.838,+0.901,-0.261,-0.387,+62.938,-29.000,+16.562,-4, -5, 0, 4, 2, -5, 1, -11,0.05303505004056009,1.1195527219104482
1503686435681,-0.090,+0.110,-0.523,-0.840,+0.840,-0.362,-0.479,+54.000,-34.125,+18.062,2, 3, 2, -5, -3, 4, 0, -5,0.037643734523850635,1.1077804667323718
1503686435703,-0.088,+0.119,-0.518,-0.842,+0.883,-0.318,-0.413,+45.062,-35.812,+15.688,-5, 4, 1, -2, 0, -7, 2, 4,0.026043326557848693,1.0984052333938659
1503686435718,-0.085,+0.127,-0.514,-0.844,+0.864,-0.278,-0.388,+45.562,-33.375,+16.562,0, -1, -1, 0, 0, -4, 5, -5,0.013556400644607077,1.091827837721739
1503686439183,-0.002,+0.062,-0.592,-0.804,+1.016,-0.077,-0.220,-2.688,+4.875,+0.188,-6, 1, 0, -2, -2, -6, -7, -15,-0.07061876044922645,1.273683176609034
1503686439206,-0.003,+0.062,-0.592,-0.803,+0.996,-0.089,-0.228,-1.438,+2.438,+3.062,-3, 0, 1, -2, -6, -4, -9, -10,-0.06901288571605728,1.2732979513641107
1503686439222,-0.003,+0.063,-0.592,-0.803,+0.986,-0.092,-0.233,-0.438,-1.688,+5.188,-3, -1, -4, 0, 5, 7, 0, -6,-0.07021794128133396,1.2735366509376573
1503686439243,-0.004,+0.064,-0.592,-0.804,+0.979,-0.104,-0.242,-0.500,-3.375,+5.312,-8, -3, -5, 1, -4, -9, -7, -1,-0.06980541004761542,1.2740898809212677
1503686439266,-0.004,+0.064,-0.590,-0.805,+0.958,-0.112,-0.246,-1.312,-11.500,+5.250,2, 4, 2, -2, -4, -1, 3, -1,-0.06954051098783463,1.2689440800777165
1503686439281,-0.005,+0.065,-0.589,-0.806,+0.955,-0.110,-0.261,-1.500,-6.625,+2.375,-2, -2, 0, -11, -7, -3, -3, 2,-0.06898767420108304,1.2667573839883273
1503686439303,-0.005,+0.065,-0.588,-0.806,+0.976,-0.110,-0.244,-1.750,-6.812,+1.688,-3, -3, -1, 2, 3, 0, -2, -4,-0.06885718157588047,1.2640111697967686
1503686439326,-0.005,+0.065,-0.587,-0.807,+0.986,-0.118,-0.247,-2.375,-6.812,+1.375,-1, -1, -3, -5, -5, -2, 3, 5,-0.06871664842979217,1.261624037553556
1503686439341,-0.005,+0.064,-0.586,-0.807,+0.969,-0.102,-0.267,-2.938,-7.062,+0.312,-4, -6, -6, 0, -5, -1, -1, -5,-0.0673920775447206,1.2586350098413877
1503686439364,-0.005,+0.064,-0.585,-0.808,+0.930,-0.092,-0.281,-2.000,-4.625,-0.562,-2, 1, 2, 3, 0, 1, 2, 1,-0.0672535604082793,1.2562542645196162
1503686439386,-0.005,+0.064,-0.585,-0.808,+0.913,-0.097,-0.292,-0.938,+0.000,-0.375,-7, -1, 4, 8, 7, -1, -5, -6,-0.0672535604082793,1.2562542645196162
1503686439401,-0.005,+0.064,-0.586,-0.808,+0.940,-0.104,-0.258,-2.188,+4.438,-0.688,-8, -6, -5, -3, -2, -2, -1, -9,-0.0673820401580422,1.2589970218810096
1503686439424,-0.005,+0.064,-0.587,-0.807,+0.997,-0.104,-0.236,-3.688,+3.062,+0.000,3, -4, -3, -2, -1, 2, -9, -5,-0.06752055489236218,1.2613798432628713
1503686439446,-0.005,+0.063,-0.587,-0.807,+1.017,-0.091,-0.239,-1.750,-0.938,-2.062,4, 5, 0, -3, 3, -4, -3, -3,-0.06632515678853597,1.261139524733337
1503686439461,-0.004,+0.063,-0.586,-0.808,+0.992,-0.093,-0.250,+0.688,-5.438,-3.438,-7, 6, 5, 3, -3, -1, 0, -5,-0.06780914660779948,1.2587958804758739
1503686439483,-0.003,+0.063,-0.585,-0.809,+0.949,-0.100,-0.250,+1.062,-8.812,-3.438,-2, -3, 0, -2, -1, 3, 5, 6,-0.06929707478078793,1.2564567924827474
1503686439506,-0.003,+0.063,-0.584,-0.809,+0.946,-0.106,-0.264,-1.250,-5.688,-0.625,12, 7, 4, 6, 3, 3, 3, 12,-0.0691706721164676,1.253716887494033
1503686439521,-0.004,+0.063,-0.584,-0.809,+0.962,-0.105,-0.248,-3.750,-1.688,+2.250,-1, -3, 1, 3, 3, 0, 6, 6,-0.06754825640291306,1.2536773632367582
1503686439543,-0.005,+0.062,-0.584,-0.810,+0.993,-0.098,-0.257,-6.375,-3.750,+3.875,4, 1, 2, -1, 0, 0, 2, -3,-0.06472701338924006,1.2537683249880835
1503686439566,-0.006,+0.062,-0.583,-0.810,+0.998,-0.088,-0.263,-5.375,-6.750,+3.188,-4, -1, -1, -1, 0, -3, -6, -3,-0.06297796225474055,1.2509906231469547
1503686439581,-0.006,+0.062,-0.582,-0.811,+0.976,-0.099,-0.273,-3.312,-8.062,+2.375,-10, 3, 1, -1, -2, -4, -4, -11,-0.06284144037322942,1.2486221950647507
1503686439603,-0.006,+0.062,-0.581,-0.812,+0.942,-0.110,-0.281,-3.125,-7.438,+2.500,7, -1, 1, -5, -1, 0, -5, 1,-0.06270491614608388,1.2462577493956677
1503686439626,-0.007,+0.062,-0.580,-0.812,+0.939,-0.096,-0.282,-3.438,-4.875,+3.625,-1, -5, -6, -2, -1, 0, 1, 0,-0.060951564863245676,1.2434824040701942
1503686439641,-0.008,+0.062,-0.579,-0.813,+0.964,-0.094,-0.273,-3.125,-2.500,+5.062,2, -2, -2, -1, -5, -3, -8, -2,-0.0591819148435309,1.2410833953050813
1503686439663,-0.009,+0.062,-0.579,-0.813,+0.962,-0.098,-0.272,-3.438,-3.125,+5.000,-1, 0, 1, 3, 4, 2, 6, 8,-0.05755065034423939,1.2410430006889888
1503686439679,-0.010,+0.062,-0.578,-0.813,+0.964,-0.104,-0.271,-3.750,-5.500,+5.312,6, -6, -9, -5, -3, 0, 4, 5,-0.05579459596855336,1.2382675300320385
1503686439701,-0.010,+0.062,-0.577,-0.814,+0.965,-0.102,-0.292,-3.250,-6.562,+4.375,-6, -3, -3, -4, -5, -1, -3, -8,-0.0556499012699902,1.2359142126303795
1503686439725,-0.011,+0.062,-0.576,-0.815,+0.945,-0.117,-0.278,-3.688,-5.125,+3.250,3, 0, 0, -3, 1, -1, 1, 6,-0.05386942954135038,1.2335235493156071
1503686439746,-0.012,+0.062,-0.576,-0.815,+0.928,-0.116,-0.272,-5.750,-4.688,+2.812,-2, -1, 2, 0, 2, 4, 1, -2,-0.05223343791511258,1.2334822420803833
1503686439762,-0.013,+0.061,-0.575,-0.816,+0.945,-0.101,-0.283,-6.750,-5.188,+3.312,-5, 1, 3, -1, 0, -3, -5, -5,-0.04927776582304464,1.230870007000677
1503686439783,-0.013,+0.061,-0.574,-0.817,+0.961,-0.094,-0.304,-4.375,-6.062,+2.125,4, 2, -2, 1, -1, 1, 2, 2,-0.04912896617675797,1.22852803788348
1503686439806,-0.013,+0.061,-0.573,-0.817,+0.962,-0.104,-0.305,-1.875,-6.250,+0.125,3, -1, 3, 4, 1, 5, 2, 3,-0.04900630537140077,1.2258001898940443
1503686439821,-0.012,+0.061,-0.572,-0.818,+0.971,-0.091,-0.308,+1.188,-3.625,-0.688,-8, -1, -1, 1, -1, -4, -4, -1,-0.05049972269532881,1.2235061007248589
1503686439843,-0.012,+0.061,-0.572,-0.818,+0.954,-0.092,-0.304,+3.938,-1.750,+0.000,-4, -6, -7, -6, -3, -3, -4, -9,-0.05049972269532881,1.2235061007248589
1503686439866,-0.011,+0.062,-0.572,-0.818,+0.971,-0.105,-0.275,+4.125,-1.938,+2.312,2, 0, 0, -1, -1, -1, -2, 3,-0.053304562436267196,1.2237731420721987
1503686439881,-0.012,+0.063,-0.571,-0.818,+0.958,-0.109,-0.283,+2.812,-7.438,+4.750,-2, 1, 1, 1, 1, -4, -6, -7,-0.05269906487460081,1.221233172861887
1503686439903,-0.012,+0.065,-0.570,-0.819,+0.977,-0.113,-0.292,+3.188,-7.000,+8.312,-6, 0, 1, 1, -2, 0, -1, -5,-0.05486879648128957,1.2193704469604194
1503686439926,-0.013,+0.066,-0.568,-0.820,+1.009,-0.125,-0.305,+4.312,-15.125,+7.812,2, -1, 3, 1, 0, -1, 2, -1,-0.05409319943029184,1.214513927282254
1503686439941,-0.013,+0.068,-0.564,-0.823,+0.953,-0.136,-0.294,+6.375,-27.688,+6.938,1, -1, -2, -1, 0, -1, 4, 2,-0.05578336062776807,1.2053303729292502
1503686439963,-0.012,+0.068,-0.562,-0.824,+0.892,-0.137,-0.282,-0.250,-16.875,-1.562,-4, -1, 5, 3, 2, 0, 3, 2,-0.05713920754059895,1.2003569247458985
1503686439986,-0.013,+0.068,-0.560,-0.825,+0.873,-0.139,-0.299,-7.625,-10.188,+2.625,2, -4, -2, -3, -1, 1, 2, 6,-0.05518344268149328,1.1952922832611124
1503686440001,-0.015,+0.067,-0.560,-0.826,+0.938,-0.114,-0.318,-11.062,-6.000,+3.438,2, 3, 3, 1, 4, 4, 5, 2,-0.05069488843682381,1.1953636504266483
1503686440023,-0.015,+0.066,-0.558,-0.827,+0.990,-0.083,-0.338,-8.125,-9.000,+2.750,-2, -5, -6, -1, -3, -4, 2, -3,-0.04925778796183833,1.1901222184733702
1503686440046,-0.015,+0.065,-0.557,-0.828,+0.986,-0.088,-0.343,-0.312,-12.625,-0.688,-5, -2, -1, -2, -2, 0, 0, -7,-0.047960368227084424,1.1875999944655018
1503686440063,-0.014,+0.066,-0.555,-0.829,+0.941,-0.117,-0.343,+5.250,-14.312,+0.562,-1, -2, 0, 1, 4, 0, 1, -1,-0.05046493967949479,1.1828949844263414
1503686440083,-0.014,+0.068,-0.552,-0.831,+0.961,-0.109,-0.347,+4.938,-17.438,+4.875,-4, 3, 5, 0, -3, 0, 3, 0,-0.05226062191738696,1.176119377928955
1503686440106,-0.014,+0.071,-0.549,-0.833,+0.993,-0.121,-0.350,+11.188,-20.062,+15.500,4, -3, -4, -3, -1, 1, 3, 2,-0.05515629295109704,1.169629885434584
1503686440121,-0.014,+0.073,-0.547,-0.834,+1.007,-0.095,-0.331,+10.562,-15.500,+10.000,6, 1, 1, -3, -1, -2, -1, 17,-0.05707934257411448,1.1651872668457588
1503686440143,-0.015,+0.076,-0.545,-0.835,+0.927,-0.121,-0.332,+11.750,-16.938,+14.562,-2, 1, -1, 2, 0, -4, -5, -5,-0.058425451266330274,1.160972954140909
1503686440166,-0.016,+0.080,-0.542,-0.836,+0.954,-0.144,-0.358,+16.312,-19.812,+20.250,-2, -1, -1, -1, 0, -2, -3, -3,-0.06070239588080423,1.1543813466532655
1503686440181,-0.016,+0.084,-0.540,-0.837,+0.937,-0.124,-0.353,+15.375,-12.688,+17.438,-3, -2, -1, -2, -4, -1, -2, -8,-0.06479404962333421,1.1506070123961727
1503686440211,-0.017,+0.089,-0.538,-0.838,+0.933,-0.129,-0.371,+21.000,-10.625,+25.625,3, 6, 0, 3, 3, -1, -4, -3,-0.06828869700657283,1.1471356728308484
1503686440227,-0.018,+0.095,-0.537,-0.838,+0.902,-0.140,-0.396,+25.938,-2.625,+27.812,-9, -4, -3, -4, -3, 0, -3, -7,-0.07310078933645078,1.146324513955155
1503686440241,-0.020,+0.102,-0.537,-0.837,+0.910,-0.174,-0.402,+27.000,+5.250,+30.938,0, -3, -4, 0, -1, -1, -1, 0,-0.07759188839122247,1.1481581145363176
1503686440263,-0.022,+0.109,-0.537,-0.836,+0.919,-0.207,-0.403,+31.250,+7.688,+34.938,-8, -3, -2, -1, 1, -3, -2, -10,-0.08213253550982116,1.150161361025039
1503686440285,-0.025,+0.116,-0.535,-0.836,+1.014,-0.228,-0.463,+24.312,-6.188,+35.500,0, 10, 9, 4, 0, 1, -2, -2,-0.08450375554211037,1.1472744912590833
1503686440301,-0.027,+0.123,-0.534,-0.836,+0.978,-0.212,-0.384,+27.438,-6.312,+33.562,2, 0, 0, -3, 0, 0, -1, 4,-0.08880989735793761,1.147344530008547
1503686440323,-0.028,+0.130,-0.531,-0.837,+0.959,-0.221,-0.356,+32.625,-14.875,+32.812,-5, -2, -3, -2, -5, -2, -4, -3,-0.09425130300611255,1.1427180027549673
1503686440346,-0.029,+0.138,-0.528,-0.837,+0.932,-0.247,-0.374,+35.250,-17.375,+32.875,-3, 1, -3, 2, 0, 0, -2, -3,-0.10086356109390049,1.1382970389053475
1503686440364,-0.029,+0.146,-0.525,-0.838,+0.912,-0.272,-0.377,+35.562,-16.375,+31.250,1, 3, 2, -1, -2, -4, -3, 1,-0.10911550399160551,1.1346878197746275
1503686444103,+0.007,+0.073,-0.645,-0.760,+1.005,-0.103,-0.105,-5.312,-2.125,+7.438,0, 0, 2, 4, 7, 1, 0, -2,-0.1055558034620747,1.4118783157929575
1503686444126,+0.006,+0.074,-0.645,-0.761,+0.992,-0.111,-0.116,-3.250,-2.500,+5.875,-5, 0, -4, 5, 5, 3, 2, 0,-0.10536620885337593,1.4123539062186508
1503686444148,+0.005,+0.075,-0.644,-0.762,+0.996,-0.134,-0.134,-1.875,-6.750,+4.500,1, -4, 0, -1, -3, 1, 6, 4,-0.10502330274175288,1.4100322455890895
1503686444164,+0.004,+0.075,-0.642,-0.763,+0.983,-0.156,-0.145,-0.250,-8.312,+2.125,2, -2, -3, -4, -4, -1, -5, -2,-0.10320452073122498,1.404615592118189
1503686444185,+0.004,+0.076,-0.641,-0.764,+0.958,-0.174,-0.131,+0.625,-8.125,-1.625,-6, -2, -1, -4, 0, -1, 0, -3,-0.10437680689217081,1.4023303261729734
1503686444208,+0.005,+0.077,-0.640,-0.764,+0.955,-0.174,-0.122,+2.312,-5.375,-4.000,-1, -4, -3, -3, -4, -4, -5, -1,-0.10706884902990922,1.3998603401412446
1503686444223,+0.005,+0.077,-0.640,-0.764,+0.938,-0.158,-0.122,+2.562,+1.500,-6.500,-5, -1, -3, -5, -5, -10, -2, -6,-0.10706884902990922,1.3998603401412446
1503686444245,+0.007,+0.077,-0.641,-0.763,+0.955,-0.129,-0.135,+3.250,+9.688,-10.188,-1, 1, 7, 5, 1, 1, 1, 2,-0.11027063150079097,1.4024969660771145
1503686444268,+0.009,+0.076,-0.643,-0.762,+0.983,-0.109,-0.138,+2.312,+12.625,-11.750,5, 0, -2, -2, 0, 2, -1, 8,-0.11229856517242638,1.4076313309758173
1503686444283,+0.010,+0.075,-0.645,-0.761,+1.031,-0.073,-0.088,+1.375,+10.688,-9.188,0, -4, -10, -9, -4, -1, -5, -3,-0.11278621899176569,1.4127464627346054
1503686444305,+0.012,+0.074,-0.645,-0.761,+1.070,-0.047,-0.096,+0.938,-0.812,-8.625,4, 16, 9, 4, 0, 0, 1, -1,-0.11451359630832443,1.4124945893433951
1503686444329,+0.014,+0.073,-0.645,-0.761,+1.085,-0.030,-0.063,+3.375,-7.125,-7.312,-2, -10, -8, -1, -2, 1, 0, 11,-0.11624188401343155,1.4122455743957576
1503686444343,+0.016,+0.073,-0.643,-0.763,+1.055,-0.047,-0.078,+4.875,-19.688,-1.250,-7, -4, 3, 3, 2, 2, -2, -14,-0.11906442874085309,1.4071137334439416
1503686444366,+0.016,+0.073,-0.640,-0.764,+0.984,-0.053,-0.080,+0.938,-21.125,-1.250,-10, -4, -5, -9, -9, -5, -6, -4,-0.11865961606778555,1.3989395279182313
1503686444391,+0.017,+0.072,-0.639,-0.766,+0.975,-0.052,-0.092,-5.000,-12.938,-1.688,-2, -7, -4, -4, -4, -2, -5, -4,-0.11880445763732159,1.3963193296774616
1503686444403,+0.015,+0.071,-0.638,-0.767,+0.993,-0.069,-0.122,-9.000,-10.312,+5.250,2, 3, -2, 2, 5, 3, 9, -2,-0.11431466862611765,1.3934125047714843
1503686444426,+0.013,+0.071,-0.636,-0.768,+1.015,-0.088,-0.125,-12.188,-12.812,+6.750,-13, -11, -12, -8, -3, -5, -9, -10,-0.11098329003607114,1.388004126003104
1503686444448,+0.012,+0.070,-0.634,-0.770,+1.024,-0.090,-0.128,-12.938,-12.938,+5.125,1, 1, -1, 0, -3, -2, 2, 1,-0.10791202286276402,1.382580083660869
1503686444463,+0.010,+0.069,-0.632,-0.772,+1.014,-0.095,-0.148,-11.875,-18.438,+4.312,-2, 2, 5, 4, 1, 2, 2, -3,-0.10329486537891387,1.3771501806974982
1503686444485,+0.009,+0.068,-0.629,-0.775,+0.974,-0.091,-0.170,-11.500,-23.750,+3.062,4, -2, -1, -2, -2, -1, -3, -2,-0.10010341795126482,1.369232566123161
1503686444508,+0.008,+0.067,-0.626,-0.777,+0.937,-0.102,-0.157,-10.875,-19.688,+2.500,9, 5, 3, 0, 1, 9, 6, 4,-0.09689671652396892,1.361095241337969
1503686444525,+0.006,+0.066,-0.624,-0.778,+0.947,-0.107,-0.154,-11.188,-12.812,+2.812,-6, 2, 1, 2, -2, -2, -5, -5,-0.09225405342342322,1.3554693176618628
1503686444545,+0.005,+0.065,-0.623,-0.779,+0.985,-0.104,-0.167,-9.125,-9.188,+2.500,-4, -3, -3, -7, -4, -2, -2, -3,-0.08930294214408438,1.3526659683740834
1503686444568,+0.005,+0.065,-0.621,-0.781,+1.023,-0.090,-0.184,-6.625,-14.688,+0.000,4, 0, 0, 1, -3, -4, -5, -3,-0.08906280478266726,1.347647660431758
1503686444583,+0.005,+0.063,-0.618,-0.784,+1.008,-0.075,-0.204,-5.188,-24.625,-2.438,14, 3, 4, -1, 1, 2, -1, 4,-0.08618412911481457,1.3396469137505074
1503686444605,+0.005,+0.063,-0.614,-0.787,+0.952,-0.084,-0.173,-3.938,-25.562,-3.188,-12, -6, -2, -1, -1, -2, -3, -8,-0.08570983321807228,1.3294184268055027
1503686444635,+0.005,+0.062,-0.612,-0.788,+0.968,-0.096,-0.174,-6.812,-18.125,+0.125,0, 4, 4, 7, 3, 1, 0, -4,-0.08422154962912021,1.3239257387328605
1503686444643,+0.004,+0.062,-0.610,-0.790,+1.021,-0.075,-0.189,-7.688,-13.500,+6.125,4, -1, -3, -3, -1, -1, 0, 8,-0.08241058173971227,1.3189602875545714
1503686444665,+0.003,+0.061,-0.609,-0.791,+1.045,-0.055,-0.197,-5.688,-14.125,+3.875,-4, 7, 22, 9, 3, 2, 5, -3,-0.07947037703965683,1.3162271430784842
1503686444688,+0.003,+0.061,-0.606,-0.793,+1.003,-0.072,-0.203,-3.188,-19.438,+4.562,-18, -6, 9, 4, 1, -2, -2, -25,-0.07911595412945592,1.308552868963654
1503686444703,+0.002,+0.061,-0.602,-0.796,+0.960,-0.088,-0.240,-5.188,-28.438,+3.688,0, -9, -15, -8, -4, 0, 1, 3,-0.07705032437599975,1.298431819912024
1503686444726,+0.001,+0.061,-0.599,-0.799,+0.947,-0.092,-0.222,-6.312,-25.875,+2.750,9, 9, -4, -3, 1, 4, 11, 28,-0.07509458038920977,1.2911115148110475
1503686444748,+0.000,+0.060,-0.596,-0.801,+0.955,-0.094,-0.247,-6.812,-19.562,+4.625,1, 4, 6, 5, 0, -6, -9, -11,-0.07191444845961588,1.2832544623920632
1503686444763,-0.001,+0.060,-0.593,-0.803,+0.985,-0.101,-0.241,-8.625,-18.562,+5.875,0, -10, -7, -4, -2, 0, 4, 3,-0.06994427760523679,1.2756530491363227
1503686444785,-0.002,+0.059,-0.591,-0.805,+0.975,-0.095,-0.242,-9.562,-19.188,+4.062,-7, -4, -4, -2, -2, -2, -1, -11,-0.06688496700929045,1.2705924939135134
1503686444808,-0.003,+0.058,-0.588,-0.807,+0.968,-0.095,-0.260,-7.438,-21.000,+1.125,-22, -6, -4, -4, -1, -1, 1, -15,-0.06371003113825331,1.2628105502563174
1503686444824,-0.003,+0.058,-0.584,-0.810,+0.935,-0.102,-0.277,-6.562,-22.500,+0.062,-3, -1, -2, 2, 3, -2, -3, -3,-0.06322670966417046,1.252937307584127
1503686444845,-0.004,+0.057,-0.582,-0.812,+0.928,-0.111,-0.268,-6.625,-19.188,-0.375,-13, -5, -1, -3, -3, -2, -3, -4,-0.060172673727189756,1.2479506007988623
1503686444869,-0.004,+0.057,-0.579,-0.813,+0.946,-0.098,-0.268,-4.750,-16.062,-0.875,6, 2, 6, 4, 2, 1, 5, 6,-0.05982163984918616,1.2401261503638263
1503686444884,-0.003,+0.056,-0.577,-0.815,+0.960,-0.095,-0.285,-4.250,-16.750,-3.250,11, 4, 2, 1, -3, -1, -6, 2,-0.060039857382595783,1.235250398602319
1503686444905,-0.003,+0.055,-0.574,-0.817,+0.988,-0.076,-0.311,-2.938,-19.188,-4.438,1, 0, 6, 2, -1, 0, -1, -4,-0.05852662890044321,1.2276344245322603
1503686444928,-0.001,+0.055,-0.571,-0.819,+0.961,-0.064,-0.317,+0.812,-21.250,-4.500,-6, -9, -7, -5, -3, 3, 5, 18,-0.06146693879987219,1.220326759306961
1503686444951,-0.000,+0.055,-0.568,-0.821,+0.957,-0.063,-0.308,+2.188,-20.125,-2.250,4, 5, 4, 0, 3, -1, -2, -8,-0.06277770480995722,1.2130073950668547
1503686444965,+0.000,+0.055,-0.566,-0.822,+0.971,-0.074,-0.318,+3.188,-15.562,+0.812,-5, 6, 2, 5, -1, 1, -4, -18,-0.06255723381749989,1.2079813432899886
1503686444988,+0.001,+0.056,-0.564,-0.824,+0.963,-0.071,-0.328,+5.062,-15.188,+2.938,2, 2, 1, 4, 2, 2, 7, -2,-0.06513296190573974,1.2036190328369107
1503686445004,+0.001,+0.057,-0.562,-0.825,+0.945,-0.055,-0.318,+5.500,-13.875,+3.688,2, -2, 1, 2, 0, -2, -2, -2,-0.06605173628172867,1.1988255711134745
1503686445025,+0.001,+0.058,-0.560,-0.826,+0.944,-0.042,-0.319,+6.000,-10.875,+5.938,-8, -2, -1, 0, -2, -2, -3, -4,-0.06696306776956495,1.194043344504148
1503686445048,+0.001,+0.060,-0.559,-0.827,+0.962,-0.049,-0.371,+10.562,-6.312,+11.375,-3, -1, 0, -3, -2, -3, -3, 9,-0.06912231610084124,1.1921973194690105
1503686445064,+0.001,+0.064,-0.558,-0.827,+0.984,-0.074,-0.363,+13.188,-4.438,+15.062,6, 8, 5, 2, 2, 1, 2, -3,-0.07354884150332959,1.1904244421408035
1503686445086,+0.000,+0.067,-0.557,-0.828,+1.006,-0.077,-0.349,+14.625,-4.188,+18.562,1, -4, -2, -3, -1, -1, -4, -7,-0.07517225367967369,1.188826100870263
1503686445108,-0.001,+0.071,-0.556,-0.828,+0.996,-0.076,-0.341,+17.125,-6.188,+22.250,5, -2, -2, -3, -2, 0, 3, 3,-0.07792527904109973,1.1871023127357192
1503686445124,-0.002,+0.076,-0.555,-0.828,+0.985,-0.094,-0.322,+17.812,-7.375,+25.188,-1, 1, -1, 0, 0, 2, 3, 6,-0.081812848455263,1.1857124422046588
1503686445145,-0.004,+0.082,-0.554,-0.829,+0.994,-0.095,-0.350,+20.875,-7.688,+29.938,-4, -2, 0, -2, -3, -2, -1, -8,-0.08516832686620492,1.185069952182716
1503686445168,-0.006,+0.088,-0.552,-0.829,+0.986,-0.105,-0.358,+24.500,-10.375,+33.938,5, 1, -1, -3, 0, -2, 0, 6,-0.08835172911203643,1.1814196826073706
1503686445184,-0.008,+0.095,-0.549,-0.831,+0.979,-0.142,-0.349,+24.500,-17.062,+35.688,-6, -5, -6, -2, -1, 0, 0, -9,-0.09243491982353413,1.1763805163139254
1503686445207,-0.010,+0.102,-0.545,-0.832,+0.970,-0.155,-0.354,+25.312,-24.750,+38.000,-6, 0, -1, 1, 1, -1, -2, -5,-0.09627019969996174,1.1683781959076964
1503686445230,-0.013,+0.109,-0.541,-0.834,+0.943,-0.175,-0.348,+25.938,-26.188,+38.625,-5, -2, -5, -4, -3, -1, -3, -4,-0.09831303123410785,1.160888186589818
1503686445244,-0.015,+0.116,-0.537,-0.836,+0.922,-0.189,-0.336,+26.375,-23.250,+39.188,2, 0, -1, 0, -3, 3, 0, -3,-0.10194854518941235,1.153649957901033
1503686445266,-0.018,+0.124,-0.534,-0.836,+0.945,-0.205,-0.354,+29.062,-19.812,+41.062,8, 4, 6, 4, 9, 2, 3, 7,-0.10526300772454328,1.1487259906554603
1503686445288,-0.020,+0.132,-0.530,-0.838,+0.953,-0.199,-0.379,+30.188,-22.188,+42.188,-7, -1, -3, -2, -4, -2, -6, -4,-0.10988868820361308,1.1423041770466786
1503686448311,-0.140,-0.027,-0.532,-0.834,+0.857,-0.102,-0.396,-3.250,-8.312,+0.188,7, -4, -2, -1, 0, 1, 10, 23,0.26684308011996616,1.1206236302939487
1503686448327,-0.141,-0.027,-0.531,-0.835,+0.872,-0.106,-0.412,-4.062,-2.625,+0.500,0, 5, 1, 0, 0, -1, -3, -5,0.2688311041127606,1.1184571031004296
1503686448357,-0.141,-0.028,-0.531,-0.835,+0.896,-0.092,-0.405,-3.625,+1.875,-1.750,-8, -6, -1, -4, -3, -4, -6, -10,0.26988981140014934,1.1186805007044702
1503686448371,-0.141,-0.029,-0.532,-0.835,+0.929,-0.099,-0.396,-3.125,+4.812,-1.500,-5, -2, 0, 0, 4, 3, 0, -1,0.27100539016356706,1.1215615204527054
1503686448387,-0.140,-0.029,-0.533,-0.834,+0.958,-0.088,-0.414,-2.062,+7.625,-2.375,-3, -5, -1, -2, -1, -5, -2, -3,0.26902188585608017,1.1237282416948882
1503686448409,-0.139,-0.029,-0.534,-0.833,+0.884,-0.077,-0.427,+3.188,+13.500,-2.250,6, 0, 1, 1, 1, 1, 0, 2,0.2670434754167913,1.1258987296513638
1503686448431,-0.139,-0.029,-0.537,-0.832,+0.884,-0.070,-0.365,+2.875,+18.125,-0.188,3, -4, 0, 1, -1, -1, 4, 5,0.2669426488615489,1.1334232114558263
1503686448446,-0.139,-0.029,-0.540,-0.830,+0.955,-0.124,-0.338,+1.750,+14.375,+2.625,1, 2, -3, 0, 0, -1, 1, -2,0.2665722574587678,1.1405107044662135
1503686448469,-0.139,-0.029,-0.541,-0.829,+0.985,-0.104,-0.322,-3.375,+8.125,+2.000,1, 3, 7, 5, 2, 1, -1, -10,0.266358909025482,1.1427282620294255
1503686448493,-0.139,-0.029,-0.542,-0.829,+0.985,-0.101,-0.323,-2.875,-2.188,-0.125,-14, -13, -10, -3, -2, -3, -13, -7,0.2664151578424669,1.1453993333584245
1503686448506,-0.139,-0.029,-0.540,-0.829,+0.963,-0.112,-0.341,-1.125,-12.375,-3.375,-11, -7, -5, -9, -5, -3, -4, -7,0.2663026584819379,1.1400575727937772
1503686448529,-0.138,-0.030,-0.538,-0.831,+0.940,-0.106,-0.349,-2.562,-16.938,-5.312,6, -1, -2, 0, -2, -4, 0, 0,0.26604581161403407,1.135830922290314
1503686448553,-0.138,-0.030,-0.535,-0.833,+0.941,-0.094,-0.371,-3.375,-21.812,-4.938,5, 3, 0, 1, 2, 0, 1, 2,0.26640644771090133,1.1287595160351547
1503686448566,-0.137,-0.030,-0.532,-0.835,+0.906,-0.099,-0.394,-2.875,-23.438,-7.375,-11, -12, -9, -8, -5, -3, 1, 23,0.2650029983077738,1.1216866317635834
1503686448597,-0.136,-0.031,-0.528,-0.838,+0.884,-0.094,-0.385,-3.750,-24.438,-10.125,5, 15, 18, 8, 5, 4, 9, 12,0.2648546523943812,1.1126891755528747
1503686448611,-0.135,-0.032,-0.524,-0.840,+0.908,-0.084,-0.421,-4.375,-23.250,-10.562,-4, -13, -7, -9, -8, -6, -6, 6,0.26441978661564575,1.1032685906831634
1503686448627,-0.134,-0.032,-0.521,-0.842,+0.904,-0.074,-0.430,-2.250,-18.500,-10.188,1, -1, 2, -1, 2, 1, 2, -3,0.2629842940613532,1.0962822648058732
1503686448649,-0.133,-0.033,-0.519,-0.844,+0.887,-0.074,-0.432,-2.125,-13.562,-9.000,2, -1, -3, 0, -3, -1, -6, -18,0.26264444093528355,1.0921866254847319
1503686448671,-0.132,-0.034,-0.518,-0.845,+0.892,-0.059,-0.444,-1.438,-8.750,-6.188,4, 6, 2, 1, 0, 1, 5, -2,0.26210150382134023,1.090250398547229
1503686448688,-0.131,-0.034,-0.517,-0.845,+0.894,-0.058,-0.427,+0.062,-4.250,-3.438,-5, -4, -3, -3, -3, 1, -3, -9,0.2602616208688013,1.0875935578963232
1503686448709,-0.131,-0.034,-0.516,-0.846,+0.892,-0.076,-0.412,-1.312,-4.000,-2.562,-3, -5, 0, -2, 1, -1, -7, -11,0.26044965340984894,1.0854522355727687
1503686448731,-0.130,-0.034,-0.516,-0.846,+0.921,-0.072,-0.407,-2.812,-5.562,-1.938,3, 4, 2, 0, 1, 0, 3, 3,0.25867507708927906,1.0854204196277006
1503686448746,-0.130,-0.035,-0.514,-0.847,+0.926,-0.069,-0.411,-3.375,-9.125,-2.062,4, 1, -1, 0, 3, -1, -2, -2,0.259827250681546,1.0809073170937733
1503686448769,-0.130,-0.035,-0.513,-0.848,+0.922,-0.072,-0.412,-2.312,-13.562,-3.500,-3, -3, -2, -1, -3, -4, 2, 3,0.2600113756494406,1.078775184791098
1503686448793,-0.129,-0.035,-0.510,-0.849,+0.902,-0.071,-0.427,-2.000,-16.062,-5.500,-2, -2, -2, -5, -5, -3, -6, -2,0.2582810093734499,1.0713863505134789
1503686448813,-0.129,-0.035,-0.508,-0.851,+0.889,-0.069,-0.428,-3.000,-16.062,-5.062,7, 7, 6, 30, 21, 10, 5, 5,0.2586454685677495,1.0671478829306118
1503686448830,-0.129,-0.036,-0.505,-0.852,+0.899,-0.068,-0.425,-5.000,-18.438,-4.375,3, 1, -1, -5, -8, -7, -1, 3,0.25970716608982525,1.060075648723646
1503686448851,-0.129,-0.036,-0.503,-0.854,+0.926,-0.053,-0.462,-5.188,-19.312,-3.500,5, -1, -1, -1, -3, -3, -4, 8,0.26006752892765533,1.055866513763322
1503686448866,-0.128,-0.037,-0.500,-0.856,+0.906,-0.042,-0.462,-2.312,-17.812,-2.688,5, -2, 1, -5, -3, 2, 11, 8,0.2595737291022593,1.049295902087554
1503686448889,-0.128,-0.036,-0.497,-0.857,+0.859,-0.057,-0.453,-2.500,-17.750,-0.562,-2, 6, 9, 3, 0, -4, -5, -11,0.25860630703947607,1.0417720076250765
1503686448924,-0.129,-0.037,-0.495,-0.859,+0.861,-0.058,-0.468,-4.312,-16.750,+0.562,-4, -4, -5, 2, 1, 1, 1, -3,0.2617551916379948,1.0379020013397409
1503686448927,-0.129,-0.037,-0.492,-0.860,+0.891,-0.049,-0.482,-4.375,-14.125,+2.375,-2, 0, 1, 1, 3, 1, -1, -1,0.2617900356588005,1.0306669440275147
1503686448949,-0.130,-0.036,-0.491,-0.861,+0.888,-0.049,-0.478,-2.125,-12.812,+3.625,5, 2, 2, 1, 0, -2, -2, -1,0.2627809480912334,1.028376158408811
1503686448972,-0.130,-0.036,-0.489,-0.862,+0.873,-0.042,-0.485,-0.188,-11.062,+4.375,2, -4, -4, -3, -2, 0, 0, 4,0.26289320243042325,1.0237368096547574
1503686448991,-0.131,-0.035,-0.488,-0.863,+0.863,-0.047,-0.472,+0.188,-9.438,+5.812,1, 1, 5, 2, -2, -2, -2, -5,0.2638999718900074,1.0214550014226582
1503686449009,-0.132,-0.034,-0.486,-0.863,+0.861,-0.060,-0.483,-0.500,-8.438,+7.188,-9, -10, -5, -4, -3, -2, -6, -12,0.2645956238352653,1.016096672158699
1503686449032,-0.133,-0.033,-0.485,-0.864,+0.871,-0.058,-0.488,-0.500,-6.688,+7.688,8, 1, -1, 0, 3, 2, 2, 8,0.26562262986681545,1.0138241295526857
1503686449046,-0.134,-0.032,-0.485,-0.864,+0.886,-0.059,-0.494,+0.812,-4.875,+9.562,0, 2, 2, 4, 1, -2, -3, -1,0.26646242333948184,1.0136064612763964
1503686449068,-0.135,-0.031,-0.484,-0.864,+0.891,-0.060,-0.503,+3.062,-4.188,+10.250,1, 6, 5, -3, -2, -2, 0, 3,0.26724467957084413,1.0108235760897546
1503686449091,-0.137,-0.029,-0.484,-0.864,+0.863,-0.067,-0.493,+3.625,-3.062,+11.188,6, -4, -5, 0, 0, 1, 3, 6,0.2689404162769597,1.0103936258281556
1503686449106,-0.138,-0.028,-0.483,-0.864,+0.858,-0.061,-0.499,+2.750,-3.750,+13.312,3, 5, 3, -1, 1, 0, 0, 2,0.26973785233331776,1.007613982690376
1503686449128,-0.140,-0.026,-0.484,-0.864,+0.863,-0.078,-0.488,+3.312,+1.688,+15.625,1, 6, 4, -1, -3, -2, -4, 0,0.271502814795725,1.0097577988470692
1503686449150,-0.141,-0.024,-0.484,-0.863,+0.868,-0.084,-0.495,+5.062,+0.375,+13.125,2, 2, 5, 0, -2, -1, 3, 8,0.27112613101766736,1.0087964117506585
1503686449173,-0.143,-0.022,-0.485,-0.863,+0.870,-0.088,-0.505,+6.812,+3.875,+14.188,-5, -1, -3, 2, -1, 1, -1, -12,0.27289302568687407,1.0109567731383722
1503686449200,-0.144,-0.019,-0.486,-0.862,+0.854,-0.089,-0.500,+9.812,+8.500,+14.125,0, 3, 2, -2, 1, 0, 3, 5,0.27159301786400186,1.0123667140373924
1503686449210,-0.145,-0.017,-0.487,-0.861,+0.840,-0.110,-0.473,+9.938,+9.188,+13.688,-4, 3, -1, -2, -3, -3, -4, -7,0.2712487259659691,1.0140157010038247
1503686449228,-0.146,-0.015,-0.489,-0.860,+0.851,-0.119,-0.474,+8.812,+8.312,+12.312,-5, 1, 3, -2, -2, 0, 3, -12,0.27092690798153624,1.0182625363790572
1503686449248,-0.147,-0.012,-0.490,-0.859,+0.882,-0.116,-0.479,+8.500,+7.938,+11.000,4, 6, 2, 1, -2, -2, -1, -1,0.26960035035508256,1.0197440266850837
1503686449270,-0.147,-0.010,-0.492,-0.858,+0.896,-0.116,-0.465,+9.438,+6.250,+8.500,-4, -5, -1, -2, -1, -1, -2, -1,0.2674251300287081,1.0240266581413737
1503686449286,-0.147,-0.008,-0.493,-0.858,+0.880,-0.125,-0.474,+9.688,+4.625,+7.438,7, 2, 1, 1, 0, 0, 5, 6,0.2655069778452738,1.0262527085832993
1503686449309,-0.147,-0.006,-0.494,-0.857,+0.870,-0.116,-0.473,+11.312,+5.000,+6.812,-2, 4, 6, 3, 1, 1, -6, -8,0.26329705933987746,1.0279815253507618
1503686449330,-0.147,-0.004,-0.495,-0.857,+0.881,-0.111,-0.480,+12.562,+5.500,+8.688,-1, -6, -3, 2, 0, 2, 2, 2,0.2613679239367577,1.0302432112843856
1503686449353,-0.147,-0.001,-0.496,-0.856,+0.883,-0.122,-0.484,+14.875,+9.188,+11.062,2, 5, -1, 0, 2, -2, -1, 1,0.25817568034480687,1.0318510606491373
1503686449368,-0.147,+0.002,-0.498,-0.854,+0.883,-0.124,-0.463,+17.375,+10.188,+13.438,-1, -4, -3, -3, -2, -3, -2, -6,0.2546840141728552,1.0355951677111608
1503686449395,-0.147,+0.006,-0.500,-0.853,+0.880,-0.147,-0.458,+18.812,+10.875,+14.562,6, -2, 1, 1, 1, 1, -1, 8,0.25048452134984683,1.0397699377114349
1503686449413,-0.148,+0.010,-0.503,-0.852,+0.874,-0.172,-0.449,+18.625,+11.438,+14.812,-2, -1, -3, -1, -4, 0, 4, -3,0.24806170591506646,1.0466383060971989
1503686449429,-0.148,+0.014,-0.505,-0.850,+0.894,-0.169,-0.458,+19.562,+10.125,+16.188,1, -1, -3, -3, -2, -3, -2, 6,0.2435109224836688,1.0504558146210698
1503686449450,-0.149,+0.018,-0.506,-0.849,+0.888,-0.162,-0.457,+21.000,+7.375,+16.062,0, -4, -2, -2, -3, -1, 0, 1,0.24108038104970944,1.0521972805321043
1503686449473,-0.149,+0.023,-0.508,-0.848,+0.898,-0.186,-0.433,+22.750,+7.562,+17.500,-5, -2, -2, -1, -3, -2, -2, -7,0.23578904244842147,1.056597953733877
1503686449488,-0.149,+0.027,-0.509,-0.847,+0.880,-0.177,-0.435,+19.562,+6.312,+14.250,-1, 4, 1, 1, -1, 1, 2, 2,0.2315042171248333,1.0585024718604472
1503686449510,-0.150,+0.031,-0.510,-0.846,+0.882,-0.191,-0.439,+22.125,+3.688,+15.938,-4, -6, -6, -5, -2, 0, 2, 2,0.22902806962234762,1.0604410728263252
1503686449540,-0.149,+0.036,-0.511,-0.846,+0.869,-0.204,-0.441,+22.125,+3.688,+12.188,1, 2, 4, 0, 0, -2, -3, -2,0.22220280212652435,1.0629946965400041
1503686449548,-0.149,+0.040,-0.512,-0.845,+0.884,-0.215,-0.444,+25.312,+4.812,+13.188,3, -2, -5, -2, -3, -1, -2, -2,0.21787435292155174,1.065110973172552
1503686449570,-0.148,+0.045,-0.514,-0.844,+0.874,-0.207,-0.441,+27.562,+7.375,+12.562,-1, -1, -2, 1, -2, 1, -4, -1,0.21062491995148463,1.0700346825743463
1503686449596,-0.147,+0.050,-0.517,-0.842,+0.909,-0.213,-0.427,+30.188,+13.125,+13.500,1, 0, -5, -1, -1, -3, -1, -1,0.20293724703587734,1.0772737726564956
1503686449608,-0.146,+0.056,-0.519,-0.841,+0.918,-0.200,-0.453,+33.625,+11.750,+15.500,1, 3, 2, -1, 0, -1, -4, -3,0.19458832195796688,1.0825224101759934
1503686449631,-0.145,+0.063,-0.521,-0.839,+0.892,-0.210,-0.448,+42.875,+11.250,+18.312,-3, -3, 0, -1, -1, -2, -1, -4,0.18487684386411593,1.0875354420294139
1503686449653,-0.144,+0.071,-0.523,-0.837,+0.881,-0.258,-0.436,+45.688,+13.375,+21.000,-2, -2, -6, -2, 2, 1, 0, 7,0.17407619158312132,1.092906087892654
1503686449669,-0.143,+0.079,-0.524,-0.836,+0.932,-0.274,-0.459,+43.000,+2.500,+24.062,3, -3, -4, -3, 0, 0, 2, 11,0.16364148804398512,1.0963364084909035
1503686449691,-0.141,+0.088,-0.526,-0.834,+0.925,-0.255,-0.416,+50.438,+4.750,+23.312,1, 5, 5, 0, 1, 2, -1, -5,0.14982097009512363,1.1025762810886386
1503686449713,-0.139,+0.098,-0.527,-0.833,+0.935,-0.286,-0.397,+55.812,+2.750,+23.000,-5, -11, -3, -1, -3, -3, 1, -4,0.13532659753136325,1.1071816309362963
1503686449730,-0.137,+0.108,-0.528,-0.831,+0.933,-0.304,-0.406,+58.938,-1.938,+23.312,-2, -5, -5, -3, -2, -3, -5, -4,0.12042593281935268,1.1117520123835016
1503686453013,-0.146,-0.005,-0.506,-0.850,+0.985,-0.133,-0.415,+3.188,+15.688,-2.562,11, 5, 4, 0, 2, 1, 4, 8,0.25862669826759815,1.0555952602583754
1503686453035,-0.146,-0.005,-0.508,-0.849,+0.942,-0.132,-0.413,+2.062,+10.125,+1.688,-2, -2, 1, 0, 0, 0, 2, 3,0.2583611371687519,1.0603455736790537
1503686453055,-0.146,-0.005,-0.508,-0.849,+0.839,-0.147,-0.422,+0.250,+1.875,-1.062,0, 2, 2, 0, -2, -2, -2, 3,0.2583611371687519,1.0603455736790537
1503686453073,-0.146,-0.005,-0.508,-0.849,+0.884,-0.135,-0.444,-2.188,+0.750,+0.625,-2, 2, 0, 3, 5, 2, -1, -10,0.2583611371687519,1.0603455736790537
1503686453095,-0.145,-0.005,-0.509,-0.849,+0.927,-0.143,-0.426,-0.750,+0.000,-1.938,-3, 2, 1, 2, 0, 0, -2, -5,0.2565630477864057,1.0629692327957347
1503686453111,-0.144,-0.005,-0.508,-0.849,+0.930,-0.148,-0.424,+0.125,-6.250,-7.188,-2, 2, 0, 0, -2, -3, -3, -1,0.2547469237281566,1.0603357061894643
1503686453133,-0.143,-0.005,-0.507,-0.850,+0.917,-0.144,-0.415,-0.188,-12.125,-10.062,-1, -2, -3, -4, -3, -1, -6, -4,0.2532117992805611,1.0582055022247592
1503686453155,-0.141,-0.006,-0.505,-0.852,+0.902,-0.144,-0.424,-1.438,-17.000,-11.875,-2, -1, -3, -1, 1, 4, -1, -1,0.25112736806706626,1.0541144989743443
1503686453171,-0.139,-0.007,-0.502,-0.854,+0.888,-0.123,-0.451,-3.500,-18.125,-11.688,-2, 0, -4, -1, -3, -3, -4, -4,0.2490133840365036,1.0474235174958288
1503686453194,-0.138,-0.008,-0.499,-0.855,+0.873,-0.100,-0.482,-2.312,-17.062,-10.250,4, 1, 5, -2, 0, -2, 4, 26,0.24841831126644467,1.0402577105304787
1503686453215,-0.136,-0.008,-0.497,-0.857,+0.852,-0.101,-0.485,+0.375,-12.000,-8.438,-2, -5, -5, -1, -3, -3, 4, -3,0.2453070626365336,1.03604945404672
1503686453232,-0.135,-0.008,-0.496,-0.858,+0.856,-0.101,-0.471,+0.875,-8.562,-5.188,0, 1, 4, 2, -1, -2, -5, -10,0.24374786715569602,1.0339498683138222
1503686453254,-0.135,-0.008,-0.495,-0.858,+0.895,-0.101,-0.457,-0.188,-5.875,-0.500,-7, -2, -1, -2, -5, -1, -2, -3,0.24373222693997423,1.031349634918322
1503686453269,-0.136,-0.008,-0.494,-0.859,+0.919,-0.105,-0.453,-2.062,-7.125,+3.312,-4, -2, 0, -2, 1, -4, -2, -2,0.24579174417372063,1.029272114154132
1503686453291,-0.136,-0.008,-0.493,-0.859,+0.876,-0.104,-0.486,-1.375,-8.625,+4.812,0, -1, -4, 3, 0, 3, 4, 1,0.24577611112369477,1.026675489789143
1503686453313,-0.137,-0.007,-0.492,-0.860,+0.836,-0.115,-0.489,+1.188,-8.188,+4.000,4, -1, -3, -1, 2, 2, 5, 1,0.2468721189030076,1.0244343715188893
1503686453329,-0.137,-0.006,-0.491,-0.860,+0.832,-0.121,-0.497,+1.812,-2.875,+3.000,-4, 0, -2, -3, -4, -8, -7, -8,0.2458923553537311,1.021674250053102
1503686453354,-0.137,-0.005,-0.491,-0.860,+0.869,-0.125,-0.467,+0.562,-0.188,+3.375,8, 4, 1, 3, 0, 1, 2, 3,0.24492683189526848,1.0215111329865223
1503686453373,-0.138,-0.005,-0.491,-0.860,+0.893,-0.128,-0.460,-2.875,-3.188,+2.812,5, -3, -5, -6, -2, -1, 0, 8,0.24674357515882192,1.021516396970755
1503686453390,-0.138,-0.005,-0.490,-0.861,+0.905,-0.124,-0.476,-3.500,-5.812,+2.188,-1, -4, -5, -5, -4, -6, -2, -1,0.24700360715602512,1.0194404512941704
1503686453411,-0.139,-0.005,-0.489,-0.861,+0.869,-0.122,-0.485,-2.812,-7.938,+1.438,1, -1, -3, -9, -7, -4, 0, -3,0.2488138507553716,1.0168544620065272
1503686453434,-0.139,-0.005,-0.488,-0.862,+0.843,-0.121,-0.507,-1.688,-5.062,+1.250,-4, -2, 4, 6, 5, 4, -1, 1,0.2490757141543249,1.014783991944859
1503686453449,-0.139,-0.005,-0.488,-0.862,+0.847,-0.119,-0.476,-0.125,-0.312,+1.812,-2, -1, -3, -7, -2, 2, -2, 1,0.2490757141543249,1.014783991944859
1503686453471,-0.139,-0.005,-0.487,-0.862,+0.870,-0.130,-0.463,-3.500,-1.562,+1.812,-2, -2, 0, 3, 2, 1, 0, -1,0.24906594375824642,1.0121963701436822
1503686453494,-0.140,-0.005,-0.487,-0.862,+0.908,-0.116,-0.464,-5.375,-4.812,+2.438,-2, -3, 1, 1, -1, -1, 0, -2,0.25088924251225164,1.012201714333902
1503686453516,-0.141,-0.005,-0.486,-0.863,+0.908,-0.124,-0.474,-3.875,-9.125,+3.062,0, -3, 0, -3, -3, -3, 0, 6,0.2529795136834751,1.0101420466834738
1503686453531,-0.141,-0.005,-0.484,-0.863,+0.857,-0.113,-0.510,-2.062,-8.938,+1.812,6, 3, 1, 3, 4, 2, 4, 4,0.25295998917838125,1.0049754402916957
1503686453557,-0.141,-0.005,-0.483,-0.864,+0.832,-0.118,-0.487,-0.438,-6.812,+1.750,-10, -4, -5, -3, 0, -1, -3, -6,0.25322550555657436,1.0029183065846812
1503686453576,-0.142,-0.005,-0.482,-0.864,+0.838,-0.134,-0.466,-3.688,-7.125,+2.875,0, -1, 0, -3, -1, 2, 1, 0,0.25504562097645517,1.0003447646710464
1503686453594,-0.143,-0.005,-0.481,-0.865,+0.885,-0.130,-0.490,-6.250,-7.750,+3.312,-2, -1, 3, 0, 0, -1, 1, -1,0.2571461241434586,0.9982984642454047
1503686453614,-0.143,-0.005,-0.480,-0.866,+0.892,-0.112,-0.512,-5.125,-10.125,+1.938,-1, -8, -6, -6, -4, -6, -4, -3,0.25741527554903576,0.9962495621045429
1503686453636,-0.143,-0.005,-0.478,-0.867,+0.857,-0.117,-0.499,-2.125,-10.938,+0.500,-1, -5, -6, -5, -2, 1, -3, -6,0.2576746390036434,0.9916332133203823
1503686453651,-0.143,-0.005,-0.477,-0.867,+0.823,-0.123,-0.502,-1.938,-10.062,+0.000,2, 4, 0, 4, 4, -1, -2, -3,0.2576648891389715,0.9890642190185654
1503686453674,-0.143,-0.005,-0.475,-0.868,+0.839,-0.126,-0.500,-3.125,-9.000,+0.250,4, 5, 4, 2, 4, 2, 6, 5,0.25792421847621916,0.9844606260997819
1503686453696,-0.144,-0.005,-0.474,-0.869,+0.866,-0.115,-0.515,-3.188,-7.312,+1.062,1, 0, 2, 2, -3, -2, -1, -1,0.2600352763720913,0.982433081017835
1503686453719,-0.144,-0.005,-0.473,-0.869,+0.864,-0.107,-0.517,-1.812,-6.438,+2.375,-5, 0, -2, -2, -1, -2, -1, -1,0.26002553285704366,0.9798716440167291
1503686453734,-0.144,-0.005,-0.472,-0.870,+0.853,-0.124,-0.512,-1.188,-6.625,+3.125,1, 1, 5, -1, -3, -1, 1, -8,0.2602963837521077,0.9778437004387157
1503686453757,-0.145,-0.004,-0.471,-0.870,+0.846,-0.123,-0.527,-1.812,-6.375,+3.875,-1, -5, -4, 0, 0, 2, 7, 11,0.26120967904317405,0.9751126101283826
1503686453771,-0.146,-0.004,-0.470,-0.870,+0.846,-0.110,-0.547,+0.312,-3.062,+5.000,7, 0, -1, -7, -5, -4, 0, 1,0.263048973365631,0.9725602311026823
1503686453794,-0.146,-0.003,-0.470,-0.871,+0.810,-0.130,-0.531,+2.688,-2.375,+3.750,-6, -2, -1, 3, 4, 2, -1, -6,0.26241409015257283,0.9729165882390567
1503686453825,-0.146,-0.002,-0.470,-0.871,+0.781,-0.153,-0.515,-0.750,+1.438,+1.938,-2, -1, -2, -3, -3, -3, -6, -3,0.2614954547871547,0.972742460843134
1503686453832,-0.147,-0.003,-0.471,-0.870,+0.806,-0.156,-0.507,-5.312,+7.375,-0.500,-8, 2, 2, 0, 2, -2, -5, -11,0.2639843099798236,0.9749435621947419
1503686453854,-0.147,-0.004,-0.472,-0.869,+0.875,-0.131,-0.509,-7.250,+8.688,-1.812,8, 7, -4, -2, -1, 2, 3, 15,0.2646268566786575,0.9771475188046339
1503686453876,-0.146,-0.005,-0.473,-0.869,+0.906,-0.106,-0.513,-3.875,+5.438,-3.750,1, -5, -4, 1, -1, 1, -1, 1,0.26371391798411437,0.9798828799326132
1503686453893,-0.145,-0.006,-0.474,-0.869,+0.883,-0.101,-0.521,+1.375,+2.812,-5.438,5, 4, 4, 4, 2, 2, 3, 6,0.2628076017449121,0.9826193147844733
1503686453914,-0.144,-0.006,-0.474,-0.869,+0.836,-0.113,-0.539,+3.812,+2.812,-6.000,1, 5, 3, 2, 1, 2, 4, -1,0.2609644536664478,0.982612604944398
1503686453936,-0.143,-0.005,-0.475,-0.869,+0.786,-0.106,-0.539,+3.250,+10.188,-1.875,-4, -4, -3, -2, -3, -2, -7, -10,0.2582030066804855,0.9849902689525963
1503686453951,-0.143,-0.005,-0.478,-0.867,+0.817,-0.105,-0.530,+5.125,+21.938,+4.938,2, -3, 4, 2, 2, 3, 1, 3,0.2576746390036434,0.9916332133203823
1503686453974,-0.143,-0.004,-0.482,-0.864,+0.867,-0.097,-0.521,+7.938,+31.062,+8.250,-5, -3, -1, -3, -2, -2, 1, 3,0.2559318270239017,1.0001790895366924
1503686453996,-0.144,-0.002,-0.487,-0.861,+0.896,-0.099,-0.499,+12.375,+32.125,+9.812,-4, 0, 2, -1, 1, -5, -5, -7,0.2550527690079302,1.0112034120506326
1503686454011,-0.143,+0.000,-0.492,-0.859,+0.911,-0.107,-0.479,+17.562,+28.375,+9.438,-6, -1, -1, -1, 0, 0, 0, -4,0.25075849245635856,1.022827128403882
1503686454034,-0.142,+0.004,-0.497,-0.856,+0.918,-0.129,-0.475,+23.750,+27.625,+10.000,1, 0, -2, -1, -1, -3, 1, 2,0.2442115619198937,1.0337469748161625
1503686454059,-0.142,+0.008,-0.501,-0.854,+0.905,-0.147,-0.442,+26.312,+24.250,+11.125,-2, -4, 0, -1, -1, 0, 2, 1,0.23970849288068036,1.0426936115101682
1503686454071,-0.140,+0.013,-0.506,-0.851,+0.929,-0.170,-0.434,+33.000,+23.688,+11.250,-9, -2, -1, -4, 0, 1, -2, -13,0.2302351008530105,1.0538075353343013
1503686454095,-0.138,+0.019,-0.510,-0.849,+0.958,-0.152,-0.408,+36.188,+19.250,+8.375,1, 1, -3, 0, -2, -2, -3, -4,0.22000321844167686,1.062906855408522
1503686454115,-0.134,+0.025,-0.514,-0.847,+1.001,-0.158,-0.404,+43.812,+16.000,+4.250,0, 1, 0, -3, -2, -3, 0, 6,0.20609679011856233,1.0722736949002116
1503686454131,-0.130,+0.032,-0.517,-0.845,+0.985,-0.166,-0.391,+51.125,+7.125,+3.438,4, 0, -1, 0, 2, 2, -2, 3,0.1911863945575722,1.0792013122013422
1503686454154,-0.126,+0.041,-0.517,-0.845,+0.904,-0.192,-0.404,+58.312,-7.438,+8.062,-5, -3, -1, 1, -2, -2, 1, 10,0.17494557068404903,1.0794143989381477
1503686454175,-0.121,+0.049,-0.519,-0.845,+0.910,-0.196,-0.396,+53.688,-1.375,-0.875,4, 2, 1, 1, 0, 1, 1, 4,0.1577278891414481,1.0853412763521604
1503686454198,-0.116,+0.057,-0.520,-0.845,+0.882,-0.248,-0.412,+52.812,+0.250,-1.625,2, 0, -1, -2, -1, -1, 0, -1,0.14055413961820448,1.0889132564461135
1503686454212,-0.111,+0.064,-0.521,-0.844,+0.825,-0.233,-0.449,+47.625,+4.125,-3.188,-1, -4, -2, 0, 0, 1, 2, 3,0.12413534600832235,1.0921861242032485
1503686454235,-0.109,+0.070,-0.519,-0.845,+0.908,-0.273,-0.565,+32.250,-7.938,+3.438,4, 4, 1, -1, 0, -2, 0, -1,0.11491532973266312,1.0882532031672472
1503686454250,-0.107,+0.074,-0.519,-0.845,+0.915,-0.235,-0.417,+29.375,-1.312,+2.875,0, -3, -3, 0, 0, 0, -1, -1,0.10724926234042796,1.0890281595275955
1503686454272,-0.104,+0.079,-0.519,-0.845,+0.903,-0.222,-0.413,+30.812,-3.000,+1.000,0, 3, 5, 1, 1, 2, 1, 6,0.09676626048546204,1.0901404895964737
1503686458015,+0.019,+0.075,-0.611,-0.788,+0.971,-0.078,-0.223,-7.875,-24.000,+1.688,0, -1, 1, -2, -2, 1, 1, -1,-0.12245163945536781,1.3251731235439208
1503686458037,+0.018,+0.074,-0.608,-0.790,+0.913,-0.079,-0.263,-8.625,-16.000,+3.875,2, 1, 1, 3, 0, -4, -5, -1,-0.11924540517131323,1.3171470169751232
1503686458054,+0.017,+0.074,-0.607,-0.792,+0.899,-0.072,-0.290,-8.500,-2.500,+4.312,-1, 0, -1, 0, -3, 1, 0, -2,-0.1175811138052363,1.3149626377561257
1503686458075,+0.016,+0.073,-0.607,-0.791,+0.913,-0.083,-0.265,-6.000,+8.312,+2.250,1, 4, 4, 5, 4, 1, -1, -3,-0.11471515525032236,1.3143223539193594
1503686458098,+0.016,+0.072,-0.609,-0.790,+0.964,-0.083,-0.235,-4.312,+15.000,-2.750,-1, 1, 3, -2, -3, -2, -1, -2,-0.1137258558187707,1.319252676831917
1503686458123,+0.017,+0.072,-0.611,-0.788,+0.978,-0.067,-0.202,-0.562,+16.625,-5.875,2, -6, -3, -2, -2, 2, -1, 0,-0.11552949001227973,1.3242155311992623
1503686458136,+0.018,+0.072,-0.613,-0.787,+0.981,-0.072,-0.204,+5.375,+13.750,-7.562,-7, -5, -1, -2, -2, -1, 0, 1,-0.11736100410302527,1.3294881268203802
1503686458159,+0.021,+0.072,-0.615,-0.785,+0.993,-0.077,-0.186,+11.062,+14.125,-10.250,8, 2, -2, 0, 1, -2, 0, 1,-0.12229934926564047,1.3345444517415908
1503686458174,+0.023,+0.073,-0.616,-0.784,+1.064,-0.087,-0.132,+9.062,+7.625,-8.500,-2, 0, 6, 7, 2, 0, 2, -2,-0.12680958776814397,1.3373879312853754
1503686458196,+0.025,+0.073,-0.617,-0.783,+1.023,-0.084,-0.118,+5.875,+2.000,-6.000,-1, 2, 2, -1, -1, 0, -3, -2,-0.1300512463897376,1.3399412961120916
1503686458222,+0.024,+0.073,-0.617,-0.783,+1.003,-0.087,-0.114,-2.438,-4.312,-0.375,-8, -7, -10, -7, -3, -3, -3, -2,-0.1284801090448894,1.3399077611070773
1503686458234,+0.024,+0.073,-0.616,-0.784,+1.011,-0.050,-0.171,-6.375,-9.375,+4.062,1, -2, -4, -1, -1, -1, -1, 1,-0.1283825646491021,1.3374218222385323
1503686458256,+0.023,+0.072,-0.615,-0.785,+0.993,-0.053,-0.179,-4.375,-10.875,+6.625,8, 1, 0, -2, -2, -1, 2, 5,-0.12544869676844597,1.3346120959815067
1503686458278,+0.021,+0.073,-0.614,-0.786,+0.984,-0.071,-0.182,-4.750,-10.625,+9.875,10, 8, 4, 4, 5, 2, 2, 10,-0.12345690036228421,1.332358729736807
1503686458294,+0.019,+0.073,-0.612,-0.787,+0.988,-0.085,-0.181,-7.438,-9.125,+13.375,6, 9, 1, -2, -2, 0, -2, -4,-0.12005070353295144,1.3270470448348248
1503686458316,+0.017,+0.074,-0.611,-0.788,+0.992,-0.091,-0.201,-8.125,-8.688,+14.375,-7, 12, 10, 5, 4, 1, -6, -25,-0.11803605978728787,1.3248011478228503
1503686458338,+0.015,+0.074,-0.610,-0.789,+0.967,-0.096,-0.211,-5.875,-7.250,+11.562,-22, -11, -2, 2, -3, -5, -10, -8,-0.11475781283843878,1.322262164679878
1503686458358,+0.013,+0.075,-0.608,-0.790,+0.957,-0.098,-0.213,-5.250,-8.375,+7.938,16, 6, 6, 5, 1, 5, 7, 9,-0.11257207862508878,1.3172569298054646
1503686458376,+0.012,+0.075,-0.607,-0.791,+0.944,-0.100,-0.219,-5.188,-6.875,+5.438,-4, -2, -1, 0, 6, 13, 6, 3,-0.11086196919328409,1.3147614401428398
1503686458400,+0.011,+0.074,-0.606,-0.792,+0.975,-0.098,-0.209,-5.250,-6.250,+2.938,-3, -1, -6, -13, -11, 11, -5, -13,-0.10790384235999467,1.3119740960085062
1503686458414,+0.011,+0.074,-0.605,-0.793,+1.004,-0.095,-0.212,-4.438,-7.125,+1.000,-2, -1, 0, 2, -3, -2, -3, -1,-0.10777789213796392,1.309524608005807
1503686458436,+0.011,+0.074,-0.605,-0.793,+0.983,-0.088,-0.202,-1.938,-4.875,+0.500,8, 2, -3, -9, -4, -1, 5, 12,-0.10777789213796392,1.309524608005807
1503686458459,+0.011,+0.074,-0.604,-0.794,+0.973,-0.094,-0.204,-2.625,-8.250,+2.000,1, 0, 2, 2, 2, 0, 0, -3,-0.10765193848307733,1.3070792537964684
1503686458473,+0.010,+0.074,-0.602,-0.795,+0.965,-0.103,-0.218,-4.250,-8.188,+4.750,3, 0, 1, 3, 4, -4, -1, 3,-0.10578376581558946,1.3018400988338688
1503686458497,+0.009,+0.074,-0.602,-0.795,+0.978,-0.099,-0.212,-6.188,-7.375,+6.438,-12, 4, 10, 4, 2, -9, -3, -6,-0.10418951815274155,1.3018005447439227
1503686458519,+0.007,+0.074,-0.601,-0.796,+0.993,-0.091,-0.211,-6.562,-5.688,+9.188,8, 6, 2, 4, 1, -5, -2, -3,-0.10086689905330172,1.299284820312327
1503686458533,+0.005,+0.074,-0.600,-0.797,+1.000,-0.099,-0.212,-7.125,-7.500,+10.062,-3, -9, -13, -12, -8, -5, -4, -2,-0.09753602999518851,1.2967718110018984
1503686458556,+0.003,+0.074,-0.598,-0.798,+0.970,-0.113,-0.214,-7.562,-9.688,+10.875,-5, -8, -9, -2, -2, -4, -3, -4,-0.09404849000545192,1.2915043626314187
1503686458578,+0.001,+0.074,-0.597,-0.799,+0.965,-0.110,-0.233,-8.500,-9.688,+9.875,12, 3, 2, 4, 2, 0, 1, 8,-0.09070072786197646,1.288997841294967
1503686458595,-0.000,+0.074,-0.595,-0.800,+0.957,-0.111,-0.245,-9.188,-9.562,+9.250,-1, 8, 5, 2, 1, -3, -4, -1,-0.08880095736898991,1.28378030469302
1503686458616,-0.002,+0.074,-0.594,-0.801,+0.973,-0.118,-0.253,-9.125,-7.812,+8.062,-2, -2, -1, -1, -4, 0, 1, -4,-0.08543818829153228,1.2812806576244213
1503686458639,-0.004,+0.073,-0.593,-0.802,+0.960,-0.112,-0.255,-7.750,-5.875,+5.750,0, -1, 0, 1, 0, -2, -4, -7,-0.08085155464959408,1.2785024049600429
1503686458653,-0.005,+0.073,-0.592,-0.803,+0.946,-0.117,-0.258,-6.625,-4.625,+3.125,-1, -2, -2, 1, -1, -4, -8, -9,-0.07908532264304222,1.276052281129853
1503686458676,-0.005,+0.072,-0.592,-0.803,+0.937,-0.115,-0.259,-5.875,-1.750,+0.875,12, 2, 0, 0, 1, -2, 6, 11,-0.07787313003552615,1.2757757368283078
1503686458699,-0.005,+0.072,-0.592,-0.803,+0.973,-0.110,-0.243,-5.250,+0.062,+0.000,-16, -4, 1, 0, -1, 3, -1, -6,-0.07787313003552615,1.2757757368283078
1503686458713,-0.006,+0.071,-0.592,-0.803,+1.000,-0.103,-0.252,-3.062,+1.750,+0.500,-5, -3, -6, -2, -3, -4, 1, 1,-0.07505026829233268,1.275461477636853
1503686458736,-0.006,+0.071,-0.592,-0.802,+1.000,-0.101,-0.242,-0.875,+3.312,+1.250,-4, -5, -4, -3, -1, -2, -6, -2,-0.07506232322358164,1.2751139972310077
1503686458758,-0.006,+0.072,-0.593,-0.802,+0.962,-0.126,-0.240,+0.125,+2.000,+1.750,2, 6, 1, 1, 3, 0, 5, 5,-0.07641826044791017,1.2781413180915444
1503686458773,-0.006,+0.072,-0.593,-0.802,+0.968,-0.131,-0.244,-2.500,+4.375,+1.500,0, 0, 0, -4, -2, -2, 6, 6,-0.07641826044791017,1.2781413180915444
1503686458796,-0.007,+0.073,-0.594,-0.801,+0.996,-0.135,-0.231,+0.750,+4.375,+4.000,-2, 1, 4, 2, 1, 2, 4, 0,-0.07618328688690151,1.2807876801788167
1503686458819,-0.007,+0.073,-0.595,-0.800,+0.988,-0.134,-0.220,+1.188,+5.875,+3.625,2, -3, -2, 0, 1, 3, 0, 1,-0.07634408767860888,1.2832042348708348
1503686458834,-0.008,+0.073,-0.595,-0.800,+0.970,-0.148,-0.195,-6.125,+1.500,-2.000,23, 37, 34, 15, 5, 2, 1, 3,-0.07473816119964628,1.2831624706772198
1503686458858,-0.008,+0.071,-0.595,-0.800,+0.982,-0.122,-0.203,-9.625,-3.500,-3.938,-13, -8, -8, -6, -3, -3, -7, -10,-0.07230324656151492,1.2826146993639989
1503686458878,-0.007,+0.070,-0.594,-0.801,+1.019,-0.106,-0.208,-2.625,-13.000,-8.688,10, 6, -2, 2, -1, 1, 2, -1,-0.07253774765513304,1.279971212951614
1503686458893,-0.003,+0.068,-0.592,-0.803,+1.062,-0.084,-0.214,+2.500,-19.625,-18.312,-14, -16, -14, -11, -8, -4, -5, 6,-0.07625379963490103,1.2747884791437083
1503686458916,+0.000,+0.068,-0.589,-0.805,+1.046,-0.092,-0.231,+8.438,-27.312,-14.750,14, 21, 21, 10, 5, 3, -2, -8,-0.08067622856972265,1.2673645475008748
1503686458945,+0.003,+0.070,-0.584,-0.808,+1.062,-0.116,-0.245,+16.188,-36.625,-1.500,5, -8, -11, -6, -4, -3, -10, -1,-0.08724471403851267,1.2553820967961495
1503686458953,+0.005,+0.073,-0.577,-0.813,+1.062,-0.095,-0.311,+20.500,-50.812,+3.375,-7, -10, -4, -5, -2, -1, -3, -2,-0.09310188834878044,1.2390087879445792
1503686458976,+0.008,+0.077,-0.569,-0.819,+0.982,-0.121,-0.303,+24.375,-60.188,+5.500,-9, -10, -11, -6, -2, -1, -3, -6,-0.10160094656942305,1.2208382172384518
1503686458998,+0.010,+0.082,-0.560,-0.824,+0.921,-0.151,-0.326,+23.875,-60.812,+6.125,1, -2, -1, 1, -2, 2, 4, 1,-0.1093804965522857,1.2000775091584188
1503686459013,+0.011,+0.086,-0.552,-0.830,+0.848,-0.179,-0.329,+22.688,-56.250,+9.375,10, 1, -3, -2, 1, 1, 9, 17,-0.11442980127187587,1.1823210542713631
1503686459036,+0.011,+0.091,-0.544,-0.834,+0.804,-0.216,-0.381,+14.812,-44.188,+12.750,10, 12, 9, 6, 3, 3, -2, -6,-0.11879969378406263,1.1642096844211378
1503686459060,+0.010,+0.092,-0.538,-0.838,+0.855,-0.138,-0.381,+2.250,-36.562,+11.562,1, 0, -1, -3, -2, 0, 12, 45,-0.11722916726411897,1.1501568581475978
1503686459073,+0.009,+0.094,-0.535,-0.839,+0.881,-0.107,-0.355,+3.500,-19.625,+13.438,8, 18, 16, 6, 4, 1, -7, -10,-0.11724236786155973,1.1432019103271889
1503686459096,+0.009,+0.096,-0.533,-0.841,+0.946,-0.103,-0.368,+9.625,-17.875,+13.875,0, 5, -1, -1, -2, -1, -4, -13,-0.11913287464841212,1.1394716606582755
1503686459119,+0.009,+0.098,-0.530,-0.843,+0.976,-0.120,-0.377,+11.062,-21.562,+11.500,3, -10, -13, -4, -3, -3, -1, 4,-0.12081436805873642,1.1331013993157648
1503686459133,+0.009,+0.101,-0.525,-0.845,+0.972,-0.127,-0.386,+11.938,-29.375,+11.750,-10, 1, 1, -1, 0, -1, -2, -17,-0.1231791378163473,1.1218189703946995
1503686459158,+0.010,+0.104,-0.521,-0.847,+0.944,-0.127,-0.400,+16.125,-32.250,+12.625,2, -5, -5, -1, 0, 0, 2, 11,-0.12741083504554046,1.1133542065504023
1503686459178,+0.010,+0.107,-0.517,-0.849,+0.906,-0.123,-0.407,+17.812,-26.125,+13.438,-1, -8, -7, -3, 0, 0, 4, -1,-0.12989980999201642,1.1048595424104604
1503686459199,+0.011,+0.111,-0.514,-0.851,+0.895,-0.122,-0.410,+18.062,-19.250,+14.438,7, 5, 2, 0, -3, 2, 5, 13,-0.13538639349472312,1.0995804068881077
1503686459216,+0.010,+0.115,-0.511,-0.852,+0.902,-0.132,-0.442,+20.875,-12.375,+17.938,-10, -5, -1, 1, -1, -1, -4, -18,-0.13738356917247255,1.0936917828934818
1503686459239,+0.010,+0.120,-0.510,-0.852,+0.900,-0.149,-0.453,+23.812,-5.625,+21.188,-7, -9, -4, -6, -3, -3, -3, -13,-0.14262941862544412,1.0932199597689567
1503686462996,+0.031,+0.051,-0.626,-0.778,+0.989,+0.011,-0.149,-8.375,-11.812,+2.375,0, 2, 1, -3, -1, -1, 1, 0,-0.11241628757945328,1.3580968963894202
1503686463020,+0.030,+0.050,-0.624,-0.779,+0.992,-0.001,-0.200,-6.625,-11.625,+2.188,-4, 0, 3, 0, -1, 1, -3, -5,-0.10944810676014764,1.3525782332097769
1503686463040,+0.029,+0.050,-0.622,-0.781,+0.989,-0.047,-0.193,-6.812,-13.500,+2.938,-1, 0, 1, -2, 0, 0, 2, 1,-0.10780158927992238,1.3475510916391928
1503686463056,+0.028,+0.049,-0.620,-0.783,+0.983,-0.070,-0.189,-10.562,-13.000,+3.062,4, 4, -5, -1, 0, -4, -4, 3,-0.10489223615032281,1.3423342659536395
1503686463078,+0.026,+0.048,-0.619,-0.784,+0.978,-0.072,-0.176,-11.000,-7.938,+1.562,5, -1, -8, -6, -4, -2, 3, 6,-0.10045346661189801,1.339600383032463
1503686463100,+0.026,+0.048,-0.619,-0.784,+0.964,-0.084,-0.186,-8.750,-1.812,-2.062,-2, 2, 2, 0, -1, -1, -5, -12,-0.10045346661189801,1.339600383032463
1503686463122,+0.026,+0.047,-0.618,-0.784,+0.972,-0.084,-0.208,-4.125,+0.250,-4.562,4, 0, 0, 0, -1, -1, 1, 11,-0.09910796035897596,1.3366322641659372
1503686463138,+0.026,+0.047,-0.618,-0.785,+0.983,-0.067,-0.206,-0.188,-3.625,-6.688,-3, 1, 3, 2, -1, 0, -1, -4,-0.09915974982494331,1.336919074157912
1503686463160,+0.028,+0.046,-0.617,-0.785,+0.983,-0.039,-0.188,+1.750,-7.312,-7.812,-8, -7, -3, -8, -2, -3, 1, -4,-0.10096710425301661,1.333999633378443
1503686463176,+0.029,+0.046,-0.616,-0.786,+0.985,-0.021,-0.188,+4.375,-8.250,-6.312,1, -1, -2, -1, 0, 1, -1, -1,-0.10250780241519013,1.331543484727683
1503686463198,+0.030,+0.047,-0.615,-0.787,+1.003,-0.015,-0.189,+4.188,-7.438,-1.062,-6, -2, -3, 0, 0, -2, -2, -10,-0.10529627844930906,1.3292869442371622
1503686463227,+0.030,+0.047,-0.614,-0.787,+1.015,-0.021,-0.165,+0.562,-9.438,+5.750,-1, 0, -1, 2, -5, -1, -2, -3,-0.10520273423330935,1.3265208127183492
1503686463236,+0.029,+0.048,-0.613,-0.788,+1.006,-0.012,-0.159,-2.812,-10.062,+9.000,-1, -2, -2, -2, 0, -2, -1, 0,-0.104828116319487,1.3242290617760155
1503686463260,+0.027,+0.048,-0.612,-0.789,+0.997,-0.002,-0.167,-5.000,-10.125,+10.062,8, 4, 3, 1, 0, -1, -3, -2,-0.10162528687344896,1.3217182754243133
1503686463281,+0.026,+0.048,-0.610,-0.790,+0.988,-0.001,-0.164,-6.688,-12.688,+10.688,-11, -7, -5, -1, 1, 1, -4, -7,-0.09990371131129966,1.3164718507755226
1503686463296,+0.024,+0.047,-0.609,-0.791,+0.975,-0.002,-0.175,-9.938,-11.312,+10.250,8, 5, 2, 3, 0, 0, 1, 5,-0.09545632210621556,1.3137728572208018
1503686463318,+0.022,+0.047,-0.608,-0.792,+0.963,-0.009,-0.207,-9.938,-8.875,+9.750,-9, -5, -2, -5, -3, -2, -8, -11,-0.09223573903324261,1.311274432283004
1503686463340,+0.020,+0.046,-0.607,-0.793,+0.981,-0.034,-0.200,-12.000,-9.438,+9.375,2, 9, 6, 3, 4, 2, 4, 4,-0.08778069015233751,1.3085890198931687
1503686463358,+0.017,+0.045,-0.606,-0.794,+0.987,-0.035,-0.200,-14.375,-9.500,+7.812,-1, -1, -1, -2, 0, 0, 2, 3,-0.08173261815187678,1.3058893345448956
1503686463379,+0.016,+0.044,-0.604,-0.796,+0.978,-0.027,-0.210,-14.375,-11.375,+5.000,-2, -5, -2, 0, -1, -2, -3, 1,-0.07880665645382955,1.3008112223206818
1503686463400,+0.014,+0.042,-0.602,-0.797,+0.978,-0.045,-0.226,-14.188,-15.188,+3.125,2, -1, 0, -2, -4, 1, 0, -1,-0.07304066272643817,1.2952316845150336
1503686463424,+0.012,+0.041,-0.599,-0.799,+0.986,-0.060,-0.239,-12.438,-20.250,+2.875,-7, -2, -1, 1, -3, -5, -3, 2,-0.06843714070279722,1.287420579037698
1503686463439,+0.011,+0.040,-0.596,-0.802,+0.981,-0.059,-0.243,-11.188,-23.000,+1.625,3, -1, -1, -3, -2, -8, -1, -3,-0.06545597958483687,1.2800023793324242
1503686463461,+0.011,+0.038,-0.593,-0.804,+0.978,-0.048,-0.250,-10.250,-23.562,-0.438,-3, -2, 1, 3, 1, 5, 9, 6,-0.06287007744866129,1.2721455788173062
1503686463482,+0.010,+0.037,-0.590,-0.807,+0.962,-0.034,-0.258,-8.938,-24.125,-0.438,-3, -3, -1, -2, 0, -1, -3, -1,-0.059904450529197135,1.264808081649057
1503686463498,+0.009,+0.036,-0.587,-0.809,+0.951,-0.029,-0.260,-9.062,-20.312,+3.125,12, 7, 0, -1, -1, 2, -1, 2,-0.05692137531290821,1.2571493781257914
1503686463520,+0.008,+0.036,-0.585,-0.810,+0.955,-0.030,-0.272,-8.062,-11.625,+8.188,4, 3, 3, 2, 3, 3, -3, -2,-0.05517417108626299,1.2520231661220438
1503686463542,+0.005,+0.036,-0.584,-0.811,+0.982,-0.021,-0.285,-6.812,-2.500,+13.375,-3, 0, -2, -3, -2, 1, -1, -1,-0.05024853462142891,1.2495904001609544
1503686463559,+0.003,+0.037,-0.584,-0.811,+1.000,-0.020,-0.293,-3.750,+0.125,+18.188,-11, -7, -3, -3, -2, -7, -5, -10,-0.04817757093157076,1.2496855067895032
1503686463580,-0.000,+0.039,-0.584,-0.811,+1.005,-0.051,-0.284,-1.750,-4.125,+21.750,-1, -3, -1, -1, -2, 1, 9, 7,-0.045659235910933654,1.2499042935664106
1503686463602,-0.003,+0.041,-0.583,-0.812,+1.001,-0.062,-0.270,-2.000,-6.000,+23.562,-2, 17, 30, 13, 4, 1, -1, -1,-0.04305298891106618,1.2477677745019198
1503686463618,-0.006,+0.044,-0.582,-0.812,+0.998,-0.055,-0.274,+0.188,-6.562,+25.250,12, 8, 5, -2, 0, 3, 4, 7,-0.041612178397310386,1.2454297252270536
1503686463640,-0.010,+0.047,-0.581,-0.813,+0.991,-0.073,-0.274,+3.438,-7.625,+26.562,16, 19, 19, 6, 3, 0, 1, 4,-0.0385128878795031,1.2434572035342943
1503686463662,-0.013,+0.050,-0.579,-0.813,+0.981,-0.099,-0.269,+2.625,-7.500,+26.500,-6, -1, -4, -3, -2, -1, -4, -6,-0.03694247380136398,1.2384260723063114
1503686463678,-0.016,+0.053,-0.578,-0.814,+0.972,-0.095,-0.266,+2.250,-8.625,+24.000,2, -13, -16, -13, -3, -1, 4, 23,-0.03542240739582394,1.2365295609775915
1503686463700,-0.018,+0.056,-0.577,-0.815,+0.954,-0.099,-0.260,+3.188,-10.125,+21.875,-9, -5, 1, 2, 1, 1, 2, -9,-0.035514927361666365,1.2346939268648793
1503686463726,-0.020,+0.059,-0.575,-0.816,+0.957,-0.116,-0.264,+4.312,-12.125,+19.312,-13, -4, 0, 4, 0, 0, 0, -7,-0.03547055459867091,1.2301544728361855
1503686463744,-0.022,+0.061,-0.573,-0.817,+0.956,-0.116,-0.274,+3.875,-13.625,+17.312,1, 5, 11, 3, 0, 0, -2, -18,-0.03423263056556869,1.225425929640147
1503686463762,-0.023,+0.063,-0.571,-0.818,+0.955,-0.106,-0.278,+2.250,-16.438,+16.062,-6, -2, -2, -1, -1, -1, -1, -4,-0.0346156945541663,1.2207543563346634
1503686463783,-0.025,+0.064,-0.569,-0.820,+0.958,-0.082,-0.280,+2.000,-18.438,+16.000,5, -3, -3, 1, 1, -2, 1, 7,-0.032124367582648854,1.216226498188877
1503686463799,-0.026,+0.066,-0.566,-0.822,+0.952,-0.077,-0.291,+3.188,-21.188,+16.750,-8, 0, 0, 0, 0, 1, 1, -12,-0.03228177828674801,1.2092633630941108
1503686463821,-0.027,+0.068,-0.562,-0.824,+0.958,-0.085,-0.318,+4.688,-23.750,+18.312,-9, -5, -5, -2, -1, 6, -1, 2,-0.032270400312256316,1.1996108729612087
1503686463850,-0.029,+0.071,-0.558,-0.826,+0.946,-0.092,-0.340,+7.000,-27.000,+19.750,3, -2, 0, -1, -2, -6, -4, -3,-0.03169031686395625,1.190185870492546
1503686463864,-0.030,+0.073,-0.554,-0.829,+0.944,-0.096,-0.333,+6.312,-30.625,+20.562,1, -8, -4, -5, -2, -2, -2, -1,-0.0315264374985846,1.1810365430365817
1503686463881,-0.032,+0.076,-0.549,-0.832,+0.938,-0.105,-0.342,+7.625,-29.812,+22.188,-4, -2, 3, -2, -6, -3, -3, 7,-0.030606821962357443,1.1694287692923337
1503686467824,-0.152,-0.042,-0.528,-0.835,+0.955,-0.074,-0.376,-4.438,-12.750,-9.500,0, 3, 1, 2, 1, 1, 0, 2,0.3040679634989474,1.114653199976894
1503686467841,-0.152,-0.042,-0.526,-0.836,+0.951,-0.055,-0.396,-3.125,-12.875,-4.000,1, -3, -2, -1, -1, 0, 0, 0,0.30419824678962964,1.1098421930546287
1503686467863,-0.152,-0.042,-0.524,-0.837,+0.920,-0.069,-0.386,-1.562,-14.500,-0.312,0, 0, -3, -1, -3, -3, -2, -1,0.3043285194236388,1.1050402514806144
1503686467884,-0.152,-0.042,-0.522,-0.838,+0.904,-0.074,-0.397,-2.688,-17.000,+2.125,-3, -2, 1, -3, -1, -1, 0, -1,0.304458781397861,1.1002473946233124
1503686467900,-0.153,-0.041,-0.519,-0.840,+0.908,-0.081,-0.419,-3.562,-17.875,+3.875,-1, 8, 4, 1, 2, 0, -2, -1,0.3055483964884304,1.0930642693133508
1503686467923,-0.154,-0.041,-0.517,-0.841,+0.888,-0.084,-0.445,-2.812,-15.125,+4.250,-7, 3, 5, 3, 0, 1, 0, -4,0.3074805071703272,1.0883330967424774
1503686467944,-0.154,-0.040,-0.515,-0.842,+0.876,-0.091,-0.440,-1.750,-11.000,+3.188,0, -8, -4, -1, -2, 1, 0, 1,0.3065832638838038,1.0832845627430185
1503686467960,-0.155,-0.040,-0.513,-0.843,+0.873,-0.088,-0.440,-1.562,-8.375,+1.562,1, -1, -2, 0, -2, -1, -1, 0,0.3085264839491836,1.0785707929428556
1503686467982,-0.155,-0.040,-0.512,-0.844,+0.882,-0.087,-0.435,-2.438,-6.688,+0.500,0, -1, 4, 1, 2, 0, -1, 1,0.3087465396931985,1.0764425562521354
1503686468004,-0.155,-0.040,-0.512,-0.844,+0.892,-0.089,-0.432,-2.125,-4.312,+0.000,1, -3, 1, -2, -3, -2, -5, 0,0.3087465396931985,1.0764425562521354
1503686468027,-0.155,-0.040,-0.511,-0.845,+0.902,-0.092,-0.438,-2.000,-3.562,-0.438,2, -1, -1, 0, 0, -2, 0, 2,0.3089665645519306,1.074317603132418
1503686468042,-0.155,-0.040,-0.511,-0.845,+0.895,-0.073,-0.445,-0.500,-1.438,-0.188,-9, -2, -3, -3, -3, -1, -5, -18,0.3089665645519306,1.074317603132418
1503686468064,-0.155,-0.040,-0.511,-0.845,+0.885,-0.081,-0.437,+1.000,+1.188,+0.250,-6, 1, 4, -3, 0, 2, -1, -6,0.3089665645519306,1.074317603132418
1503686468080,-0.155,-0.039,-0.511,-0.845,+0.894,-0.086,-0.423,+0.000,+0.750,+1.062,-1, -2, -2, -2, -3, -3, -4, -2,0.3079405516406114,1.0740298876653132
1503686468102,-0.155,-0.039,-0.511,-0.845,+0.922,-0.081,-0.442,+0.438,+0.438,+1.312,-1, -1, -4, -4, -2, -3, -3, 0,0.3079405516406114,1.0740298876653132
1503686468125,-0.154,-0.039,-0.511,-0.845,+0.913,-0.071,-0.434,+2.875,+1.375,+1.625,-1, 0, -1, -7, -5, -10, -6, -3,0.30613520021619145,1.0739925650598148
1503686468140,-0.155,-0.038,-0.512,-0.844,+0.883,-0.086,-0.417,+3.938,+2.250,+3.688,-2, 1, 0, 3, 3, 7, 5, 5,0.3066913543056421,1.0758711666683307
1503686468164,-0.155,-0.037,-0.512,-0.844,+0.887,-0.110,-0.406,+0.062,+0.625,+3.438,4, 1, 3, 2, 2, -6, -4, 1,0.30566507763559936,1.0755906049372375
1503686468184,-0.156,-0.037,-0.512,-0.844,+0.926,-0.117,-0.412,-3.250,-1.312,+3.000,7, 0, -2, -3, 0, 0, 2, 8,0.3074705591481964,1.0756259348092587
1503686468200,-0.156,-0.037,-0.512,-0.844,+0.929,-0.104,-0.429,-4.000,-4.812,-1.000,2, -2, 0, -3, -4, 1, 2, 1,0.3074705591481964,1.0756259348092587
1503686468223,-0.156,-0.038,-0.510,-0.845,+0.878,-0.102,-0.436,-5.312,-9.125,-5.062,1, -5, -4, -3, -2, 3, 2, 1,0.30864975743233425,1.0711693149415953
1503686468244,-0.155,-0.039,-0.509,-0.846,+0.857,-0.087,-0.444,-5.062,-6.562,-6.938,-5, -1, 0, 2, 2, 4, 4, 3,0.3080879271826304,1.0692982012287993
1503686468261,-0.154,-0.040,-0.508,-0.847,+0.855,-0.087,-0.440,-6.000,-6.062,-8.250,6, 7, 5, 0, -1, 0, 2, 7,0.3075212267313663,1.0674322063730302
1503686468283,-0.153,-0.041,-0.506,-0.848,+0.868,-0.083,-0.465,-5.000,-9.062,-11.875,-6, -9, -7, -3, -2, -3, -3, -6,0.30687119142634117,1.0629683400551313
1503686468304,-0.151,-0.043,-0.505,-0.849,+0.893,-0.056,-0.465,-2.812,-4.000,-13.812,3, 1, 2, -3, 0, -1, -5, 12,0.3055028821347402,1.0613708188962108
1503686468320,-0.150,-0.044,-0.505,-0.849,+0.948,-0.040,-0.446,+0.688,+2.688,-7.312,2, 2, 8, 6, 4, 6, 8, 14,0.3047156944596034,1.0616278119175449
1503686468343,-0.149,-0.043,-0.507,-0.848,+0.943,-0.042,-0.440,+3.750,+6.812,+0.375,-11, -1, -2, 2, 0, -3, -6, -25,0.30177165210880735,1.0659962649309935
1503686468366,-0.149,-0.043,-0.508,-0.847,+0.914,-0.050,-0.415,+3.062,+5.000,+5.875,-3, 1, 1, -3, 0, -1, -5, -4,0.30156860014376297,1.0681089892459497
1503686468387,-0.150,-0.042,-0.508,-0.847,+0.903,-0.048,-0.433,+2.000,+2.125,+10.188,7, -5, -8, -2, 0, -1, -5, 3,0.30234570652709586,1.067856047371097
1503686468403,-0.151,-0.040,-0.509,-0.847,+0.925,-0.055,-0.439,+3.000,+0.625,+12.750,9, 2, -2, -2, -3, 2, 3, 15,0.3021803909095988,1.0699233537471111
1503686468425,-0.153,-0.038,-0.509,-0.846,+0.933,-0.086,-0.442,+5.875,+0.250,+14.875,3, 1, 2, 1, -2, -1, 1, 0,0.30345338697335356,1.0689394934465724
1503686468440,-0.154,-0.036,-0.509,-0.846,+0.903,-0.093,-0.431,+7.000,-0.688,+13.812,-9, -12, -6, 0, 2, 1, -2, -12,0.3032190468109463,1.068417768880476
1503686468463,-0.155,-0.034,-0.508,-0.846,+0.891,-0.101,-0.428,+4.812,-8.938,+11.250,4, -1, -2, -1, -1, 0, 6, 11,0.30292528034197613,1.0652937604464379
1503686468485,-0.156,-0.032,-0.506,-0.848,+0.873,-0.101,-0.444,+2.062,-14.312,+7.500,0, -4, -5, -3, -3, -4, -3, -8,0.30318235032535473,1.0605619836394737
1503686468501,-0.157,-0.031,-0.505,-0.848,+0.857,-0.119,-0.433,+0.875,-9.125,+8.500,-7, 1, 4, 1, -3, -2, -9, -4,0.30392947998212705,1.0577207926115288
1503686468526,-0.159,-0.030,-0.504,-0.848,+0.896,-0.101,-0.457,+0.250,-4.375,+10.125,-6, -4, 2, -2, -1, 0, -6, -14,0.3065023645361732,1.0549107422039314
1503686468545,-0.160,-0.028,-0.505,-0.848,+0.926,-0.105,-0.450,+4.250,-1.000,+10.312,3, 1, -5, -3, -3, 0, -1, 6,0.3063723231265574,1.057028107301212
1503686468561,-0.160,-0.026,-0.505,-0.848,+0.902,-0.110,-0.450,+6.375,-1.500,+8.688,0, -1, -2, 2, -1, -2, -4, -7,0.30436739282996195,1.0565220569927065
1503686468583,-0.161,-0.024,-0.504,-0.848,+0.870,-0.105,-0.473,+7.250,-1.688,+8.750,0, -2, -1, 0, 1, 1, 4, 5,0.3041432868218286,1.053442020698925
1503686468605,-0.161,-0.022,-0.505,-0.848,+0.871,-0.103,-0.455,+10.000,+4.188,+10.500,-2, 0, 4, 1, 1, 1, 1, 0,0.3021913618583359,1.0555725129400224
1503686468620,-0.161,-0.019,-0.507,-0.847,+0.923,-0.092,-0.467,+15.812,+8.562,+12.812,-2, -1, 0, -1, -3, -1, 4, 12,0.2989628658522037,1.0596099701587254
1503686468643,-0.161,-0.015,-0.509,-0.846,+0.930,-0.101,-0.460,+22.125,+10.000,+13.062,1, -2, -4, 0, -1, 1, 0, 1,0.29471554400589706,1.0634819709916734
1503686468665,-0.160,-0.011,-0.510,-0.845,+0.911,-0.104,-0.443,+27.250,+5.188,+12.125,-1, -1, -4, -4, -4, -1, -5, -2,0.2886036807649336,1.0647853322937952
1503686468680,-0.159,-0.004,-0.512,-0.844,+0.914,-0.131,-0.457,+34.438,+1.875,+16.562,-4, -6, -5, -4, -1, 0, 0, -8,0.2794961843369946,1.0682728597771012
1503686468703,-0.158,+0.002,-0.514,-0.843,+0.937,-0.120,-0.458,+38.375,+9.062,+18.938,-4, 0, 1, 1, 0, 0, -8, -11,0.2713624220524059,1.0721158782212123
1503686468727,-0.156,+0.010,-0.517,-0.841,+0.949,-0.133,-0.450,+48.750,+13.875,+22.812,1, 2, -3, -1, -3, -3, -2, 6,0.25904875626190593,1.0780554490649914
1503686468740,-0.154,+0.021,-0.521,-0.839,+0.933,-0.168,-0.442,+61.688,+18.688,+23.875,3, -4, 3, -2, 0, 1, 6, 16,0.2436020568211674,1.0867562126647288
1503686468763,-0.151,+0.032,-0.526,-0.836,+0.957,-0.181,-0.409,+70.750,+20.500,+24.000,-2, -5, 1, 0, -2, -3, 1, -4,0.22583650847055461,1.0982707082423977
1503686468785,-0.148,+0.044,-0.530,-0.834,+0.877,-0.206,-0.428,+68.750,+16.125,+25.750,-1, 1, -1, 0, -1, 0, -1, -7,0.2072303356565319,1.1082330967915799
1503686468801,-0.147,+0.055,-0.530,-0.833,+0.988,-0.311,-0.543,+58.062,+3.188,+26.938,9, 3, 0, -1, -1, 1, 2, 9,0.19380831609995564,1.1083076584370197
1503686472107,-0.149,+0.005,-0.543,-0.826,+0.902,-0.170,-0.357,-6.438,-19.125,-15.562,5, 4, 3, 3, 1, 3, 5, 4,0.24678131001463627,1.1412246969168667
1503686472123,-0.148,+0.003,-0.541,-0.828,+0.953,-0.159,-0.354,-8.562,-16.375,-11.188,4, 5, 2, -3, -5, -3, -3, -3,0.24773136621884959,1.1369715551188977
1503686472145,-0.147,+0.002,-0.538,-0.830,+0.965,-0.129,-0.401,-6.312,-18.500,-8.938,-3, 1, -1, -1, -3, 0, -1, -2,0.24760782754070365,1.129938060119057
1503686472167,-0.146,+0.001,-0.536,-0.832,+0.885,-0.120,-0.425,-2.438,-15.750,-6.875,1, 0, 0, -3, 0, -1, 0, 1,0.2474648197951867,1.1256196069568336
1503686472185,-0.146,+0.001,-0.534,-0.833,+0.830,-0.135,-0.402,-0.125,-7.750,-3.000,2, 0, -1, -3, -2, -2, 0, 1,0.24775542952960833,1.1207233846283262
1503686472206,-0.146,+0.001,-0.534,-0.833,+0.863,-0.166,-0.361,-3.562,+0.688,+4.250,0, 0, 2, 0, -2, -3, -4, -3,0.24775542952960833,1.1207233846283262
1503686472228,-0.148,+0.001,-0.534,-0.832,+0.959,-0.162,-0.363,-9.188,-0.438,+7.062,-1, 4, 2, -2, 0, -2, -4, -4,0.25102925705903395,1.1202507679868028
1503686472243,-0.149,-0.000,-0.533,-0.833,+0.981,-0.136,-0.385,-7.688,-7.562,+3.250,-1, -1, 3, 2, -1, 0, 2, 2,0.2541509508539648,1.1181702130174016
1503686472265,-0.149,-0.000,-0.531,-0.834,+0.932,-0.149,-0.397,-3.250,-13.000,+0.250,-2, 0, -1, 0, 1, -1, -5, -3,0.25444306225430113,1.1132877287054568
1503686472287,-0.149,-0.000,-0.529,-0.835,+0.847,-0.154,-0.416,-2.312,-10.625,-1.625,-5, -7, -3, -1, -5, -1, -1, -1,0.2547351292765997,1.1084145869299773
1503686472303,-0.149,-0.000,-0.528,-0.836,+0.830,-0.144,-0.426,-2.125,-3.750,-1.875,-1, -3, -1, 1, 2, -1, 0, 1,0.25502715188115554,1.1062212087125058
1503686472325,-0.149,-0.000,-0.528,-0.836,+0.866,-0.151,-0.413,-1.688,+3.250,+0.000,7, 15, 5, 3, 3, 2, 4, 1,0.25502715188115554,1.1062212087125058
1503686472347,-0.149,-0.001,-0.529,-0.835,+0.907,-0.154,-0.402,-2.625,+7.188,+0.625,-3, -6, -2, 1, -1, 2, 0, 3,0.2557722184238811,1.1085510355925663
1503686472363,-0.149,-0.001,-0.531,-0.834,+0.924,-0.143,-0.401,-1.812,+9.000,-1.188,6, 0, 0, 0, 2, 2, 1, 3,0.2554842272916837,1.1134228419293808
1503686472387,-0.148,-0.002,-0.532,-0.834,+0.908,-0.142,-0.401,+1.062,+12.188,-2.562,-4, -4, -2, -1, 0, 0, 0, -3,0.254744345881751,1.1162349339686706
1503686472407,-0.147,-0.002,-0.534,-0.833,+0.883,-0.145,-0.389,+4.875,+10.938,-5.375,-4, -1, -4, -3, 0, -3, -3, -7,0.25268027029166884,1.1211161300450954
1503686472423,-0.144,-0.002,-0.534,-0.833,+0.872,-0.156,-0.399,+7.062,+3.938,-14.500,-3, -4, -2, -6, -7, -6, -4, -2,0.24734365287869986,1.121110853188793
1503686472445,-0.141,-0.003,-0.535,-0.833,+0.896,-0.157,-0.370,+4.500,+5.688,-20.625,-1, -1, 1, -1, 2, 0, 3, 1,0.24307721712085356,1.1239168639834105
1503686472467,-0.138,-0.004,-0.537,-0.833,+0.954,-0.145,-0.355,+4.438,+6.875,-19.875,-1, -5, -4, -5, -4, -2, 0, 0,0.23883819772943227,1.1293988541159843
1503686472483,-0.135,-0.005,-0.539,-0.832,+0.998,-0.132,-0.327,+5.062,+7.625,-14.000,-5, -3, -8, -2, 2, 1, -3, -7,0.2343572013167625,1.1344191967517534
1503686472505,-0.133,-0.005,-0.539,-0.832,+0.993,-0.130,-0.323,+2.062,-7.062,-10.000,7, 0, -3, -2, 0, 2, 3, 7,0.23083905681382383,1.1344106677288968
1503686472527,-0.132,-0.005,-0.536,-0.834,+0.959,-0.126,-0.353,+0.312,-17.812,-7.750,-8, -1, 2, 0, 0, -2, 0, -4,0.22957144799697668,1.1272949565608208
1503686472543,-0.131,-0.005,-0.535,-0.835,+0.922,-0.135,-0.370,-0.562,-12.688,-3.188,6, 10, 7, 6, 1, -2, -3, -2,0.2280597426061565,1.1250807789313173
1503686472565,-0.132,-0.005,-0.533,-0.836,+0.921,-0.118,-0.387,-3.875,-10.188,+3.250,2, 0, 6, 2, 0, 2, 3, 8,0.23006067888826956,1.1202084544170352
1503686472591,-0.133,-0.005,-0.532,-0.836,+0.921,-0.130,-0.379,-5.250,-11.375,+4.438,-3, -8, -5, -4, -4, -2, -1, 1,0.23181539735772397,1.1175429597295392
1503686472603,-0.134,-0.005,-0.530,-0.838,+0.905,-0.135,-0.392,-7.875,-14.438,+3.750,-7, -5, -5, -2, -4, -2, 0, -5,0.23408785342052224,1.1131557078982062
1503686472625,-0.135,-0.006,-0.527,-0.839,+0.908,-0.121,-0.417,-7.375,-14.750,+2.188,-2, 1, 5, 6, 7, 2, -2, -2,0.23713350090603014,1.105788807933513
1503686472646,-0.135,-0.006,-0.525,-0.840,+0.897,-0.115,-0.430,-3.875,-11.562,+0.438,-6, -6, -12, -8, -8, -5, -5, -6,0.23737472141547022,1.1009500118541298
1503686472663,-0.135,-0.006,-0.524,-0.841,+0.873,-0.111,-0.431,-0.938,-7.125,+0.000,1, 2, 0, 0, 0, 1, -1, -3,0.23762767853329964,1.0987744990953994
1503686472685,-0.135,-0.005,-0.523,-0.842,+0.874,-0.132,-0.400,-0.438,-5.188,+0.312,-1, -2, 1, 1, 3, 3, 2, 4,0.23684977550618388,1.0964583711915694
1503686472706,-0.135,-0.006,-0.522,-0.842,+0.891,-0.136,-0.406,-3.688,-4.750,+0.250,-5, -5, -4, 3, -1, -3, -7, -10,0.23786884134075845,1.093950886104536
1503686472723,-0.135,-0.006,-0.522,-0.842,+0.909,-0.119,-0.421,-3.750,-3.125,-0.438,-3, -3, -3, -3, -3, -4, -3, -2,0.23786884134075845,1.093950886104536
1503686472745,-0.135,-0.006,-0.521,-0.843,+0.908,-0.110,-0.430,-0.750,-2.000,-1.938,3, -3, 0, 0, -2, -1, 1, 1,0.2381217378909874,1.0917847963389054
1503686472767,-0.134,-0.006,-0.521,-0.843,+0.889,-0.119,-0.423,+1.000,-1.312,-3.062,2, 0, 2, -1, 0, 0, 1, 0,0.23634142023486845,1.0917792187881998
1503686472783,-0.134,-0.006,-0.521,-0.843,+0.896,-0.135,-0.398,+0.562,-0.500,-3.375,-2, -1, -1, -1, -2, -1, -5, 0,0.23634142023486845,1.0917792187881998
1503686472805,-0.134,-0.007,-0.521,-0.843,+0.916,-0.136,-0.396,-3.500,-2.000,-1.250,-1, -1, -2, -3, -3, 0, 1, -7,0.23736896764702783,1.091927020344959
1503686472827,-0.134,-0.007,-0.520,-0.843,+0.934,-0.121,-0.407,-4.688,-4.688,-0.500,0, 0, 2, 1, -4, -5, -4, -3,0.2373552476585394,1.0892793448194433
1503686472843,-0.134,-0.008,-0.519,-0.844,+0.933,-0.108,-0.416,-3.500,-6.750,+0.062,-2, 0, -1, -2, -2, -3, -2, 4,0.23862816996304054,1.0872720258675574
1503686472865,-0.134,-0.008,-0.518,-0.845,+0.912,-0.116,-0.418,-2.688,-8.875,+0.812,-2, -2, 2, -1, 3, 1, 4, 9,0.2388749709589411,1.0851161054196514
1503686472889,-0.135,-0.007,-0.517,-0.846,+0.896,-0.121,-0.418,-3.125,-9.938,+1.375,7, 4, -1, -1, 1, 0, 4, 3,0.23988757785539022,1.0828169024713044
1503686472903,-0.135,-0.007,-0.515,-0.846,+0.907,-0.112,-0.431,-2.688,-10.688,+2.875,-1, 2, 0, -2, -3, 1, 5, 0,0.23986015608513203,1.077539036121606
1503686472926,-0.135,-0.007,-0.514,-0.847,+0.900,-0.112,-0.439,-1.438,-10.375,+3.438,1, -1, 0, 0, 1, 2, 2, 0,0.2401108557172906,1.0753944736841032
1503686472947,-0.136,-0.006,-0.512,-0.848,+0.891,-0.110,-0.442,+1.000,-9.125,+5.062,3, 1, 1, -1, -2, 0, -3, -2,0.24112987923213794,1.0704727599473638
1503686472963,-0.136,-0.005,-0.511,-0.849,+0.890,-0.118,-0.442,+1.438,-8.188,+4.688,4, -2, -2, -2, 0, 0, 2, 13,0.2403782557432315,1.0681854053572406
1503686472985,-0.137,-0.004,-0.510,-0.849,+0.892,-0.116,-0.445,+1.375,-6.875,+6.000,0, 1, 0, 2, 0, -2, -5, -7,0.2411596965944152,1.065409946082114
1503686473007,-0.137,-0.003,-0.509,-0.850,+0.897,-0.123,-0.444,+2.875,-4.875,+6.125,-5, 0, -3, 0, -3, -4, -9, -11,0.24041941155424268,1.0631323689112575
1503686473025,-0.138,-0.002,-0.508,-0.850,+0.871,-0.134,-0.454,+2.375,-5.250,+6.562,-1, -6, -2, -2, -1, 1, -1, -1,0.2412139731866,1.0603618496028504
1503686473045,-0.139,-0.001,-0.508,-0.850,+0.847,-0.139,-0.458,+1.812,-0.812,+5.125,9, 6, 3, 2, 1, 2, 5, 13,0.2420169353059278,1.0602213675114087
1503686473068,-0.139,-0.000,-0.508,-0.850,+0.859,-0.141,-0.457,+1.812,+3.000,+4.688,-12, -10, -5, -4, -3, -2, 1, -10,0.2410200701573053,1.060082368403752
1503686473083,-0.139,+0.000,-0.509,-0.850,+0.866,-0.136,-0.456,+1.750,+5.250,+2.438,-6, -2, 3, -1, 0, 0, -4, -7,0.2410200701573053,1.062713012646488
1503686473105,-0.139,+0.001,-0.509,-0.849,+0.879,-0.146,-0.447,+1.812,+4.312,-1.750,3, 1, -3, 0, 0, -2, -3, -3,0.2397488672710032,1.0620774359958884
1503686473127,-0.138,+0.001,-0.509,-0.850,+0.923,-0.164,-0.441,+2.562,-4.438,-2.688,2, 1, 0, 0, -1, 1, 2, 15,0.2382204960673913,1.0625791690519277
1503686473143,-0.136,+0.001,-0.509,-0.850,+0.902,-0.127,-0.432,+0.938,+0.562,-8.625,3, -2, -1, -2, 0, -1, 4, 5,0.2346223781883971,1.0625811348550744
1503686473166,-0.135,+0.001,-0.509,-0.850,+0.891,-0.094,-0.442,+5.125,-0.062,-3.188,0, 7, 8, 3, 3, 4, 2, -2,0.23282546230476958,1.0625821177514445
1503686473187,-0.134,+0.003,-0.510,-0.850,+0.944,-0.117,-0.456,+13.562,+4.500,-0.688,-2, -5, -8, -4, -3, -2, -3, 0,0.22902567185192235,1.064967308121042
1503686473203,-0.132,+0.004,-0.511,-0.849,+0.912,-0.084,-0.459,+15.938,+4.000,+1.125,-6, -5, -5, -5, -3, -5, -5, -2,0.2241686747796965,1.0669933786511103
1503686476907,+0.013,+0.079,-0.609,-0.789,+1.102,-0.133,-0.100,+19.500,-7.625,-6.188,0, -4, -4, 1, 0, 0, 0, 2,-0.11770537585617111,1.3209450576594446
1503686476929,+0.015,+0.081,-0.607,-0.790,+0.936,-0.105,-0.187,+15.750,-13.750,-0.125,-1, -3, 0, 0, 1, 0, 1, 2,-0.12308762725508664,1.3164354773108735
1503686476952,+0.016,+0.082,-0.605,-0.792,+0.846,-0.083,-0.198,+6.562,-10.938,-3.500,-3, 0, -1, -1, -1, -4, -3, -5,-0.12566188904792158,1.3118946665776028
1503686476967,+0.017,+0.081,-0.607,-0.790,+0.967,-0.087,-0.164,-0.500,+8.812,-4.562,2, -2, -2, -1, -2, -1, 2, -1,-0.12625778323501596,1.3165175156261064
1503686476992,+0.017,+0.081,-0.608,-0.790,+1.069,-0.097,-0.108,-5.188,-0.438,-1.375,-1, 0, -3, -2, -4, -1, -1, -1,-0.12641942571101908,1.3192815030455591
1503686477011,+0.017,+0.080,-0.607,-0.791,+1.055,-0.102,-0.135,-5.438,-15.688,-1.562,-3, -2, 2, 0, 0, 0, 0, -1,-0.12503979010492364,1.3165026209729527
1503686477028,+0.017,+0.079,-0.604,-0.793,+0.976,-0.096,-0.206,-5.188,-23.562,-1.562,-1, -5, -3, -2, -1, -2, -2, -3,-0.12338366989165193,1.3085250025893238
1503686477053,+0.016,+0.078,-0.601,-0.796,+0.953,-0.094,-0.235,-6.250,-20.875,+1.562,1, -1, -2, -1, 0, -1, 0, 0,-0.12017730799150637,1.3008551588162542
1503686477071,+0.015,+0.078,-0.598,-0.797,+0.955,-0.088,-0.248,-8.375,-14.625,+5.750,2, 0, -1, 1, -1, 0, -2, -1,-0.11814294594680629,1.2928748759056599
1503686477089,+0.014,+0.078,-0.597,-0.799,+0.952,-0.073,-0.273,-6.562,-7.000,+9.500,-2, 0, 3, 1, 0, -1, 0, 0,-0.11644401670962229,1.2907408541284096
1503686477109,+0.012,+0.078,-0.596,-0.799,+0.951,-0.074,-0.273,-3.688,-0.062,+9.688,0, 0, 1, 1, 1, 0, 0, 2,-0.11308209237735374,1.2879022146065489
1503686477131,+0.011,+0.079,-0.597,-0.799,+0.946,-0.092,-0.253,-1.312,+4.938,+8.875,-2, -5, -6, -3, -3, 0, -2, -1,-0.11286452486537747,1.2909203406533172
1503686477147,+0.010,+0.079,-0.597,-0.798,+0.960,-0.109,-0.223,-2.875,+5.938,+8.000,4, -2, 0, -2, -3, 0, 1, 0,-0.11124147116644335,1.2905442886858172
1503686477169,+0.009,+0.080,-0.598,-0.798,+0.985,-0.112,-0.223,-3.562,+2.500,+7.438,-3, -1, -1, 2, -1, 1, -1, -1,-0.11103060666451578,1.2935681374167398
1503686477187,+0.008,+0.080,-0.598,-0.798,+0.989,-0.121,-0.214,-3.188,+1.312,+5.125,0, 0, 1, 0, 0, -3, -1, -1,-0.10942947689125797,1.2935240665822672
1503686477207,+0.007,+0.080,-0.598,-0.798,+0.970,-0.130,-0.219,-3.188,-2.688,+0.812,1, 2, 1, -1, 0, -1, -1, -1,-0.10782832752478795,1.2934799820948264
1503686477229,+0.008,+0.079,-0.597,-0.799,+0.945,-0.126,-0.248,-1.938,-4.750,-5.875,-4, -3, -3, 1, -3, 0, 1, -2,-0.10805538262641662,1.290788611868853
1503686477245,+0.010,+0.078,-0.596,-0.799,+0.935,-0.096,-0.257,+0.250,-2.250,-9.625,-4, -8, -8, -7, -4, -3, -4, -2,-0.10987612797097235,1.2878145527948186
1503686477267,+0.011,+0.078,-0.596,-0.799,+0.992,-0.082,-0.241,+1.625,+0.188,-8.812,1, 0, 0, -1, 2, -1, 0, -3,-0.11147910250632766,1.2878583903085197
1503686477289,+0.013,+0.077,-0.597,-0.798,+1.002,-0.078,-0.214,+2.625,+3.188,-5.375,2, 0, 0, -1, 0, 0, -1, 7,-0.11358626183292754,1.2900583043164648
1503686477305,+0.013,+0.078,-0.598,-0.798,+0.995,-0.091,-0.194,+1.125,+4.562,+0.438,0, 2, 4, 0, 0, -1, -3, -8,-0.11497092853333192,1.2931187413805232
1503686477328,+0.012,+0.078,-0.599,-0.797,+1.004,-0.090,-0.201,-1.250,+2.812,+6.188,-5, 2, 2, -1, 1, -1, 0, -1,-0.11350195446255452,1.2955014094753987
1503686477349,+0.011,+0.079,-0.599,-0.797,+0.976,-0.098,-0.206,-1.250,-0.750,+8.188,-2, 4, 2, 2, 2, -1, -1, -1,-0.11313652738141983,1.2957687923705936
1503686477365,+0.010,+0.079,-0.598,-0.797,+0.991,-0.099,-0.208,-2.375,-4.750,+9.562,-3, -5, -6, -5, -4, -3, -4, -3,-0.11137951911662075,1.292968986866404
1503686477388,+0.008,+0.080,-0.597,-0.798,+1.005,-0.117,-0.210,-4.312,-6.812,+13.125,2, 2, 1, 0, 0, 2, 1, 2,-0.10926931183083284,1.2907685257551433
1503686477409,+0.005,+0.081,-0.596,-0.799,+0.985,-0.131,-0.211,-7.188,-9.000,+14.562,5, 1, 3, 0, -2, 1, 1, 2,-0.10554375242399434,1.2885265377178308
1503686477431,+0.003,+0.082,-0.594,-0.800,+0.963,-0.121,-0.231,-5.688,-14.000,+16.375,-1, 3, 3, 3, -1, -2, -1, -2,-0.10324283339320353,1.2835780951278046
1503686477447,+0.001,+0.083,-0.592,-0.802,+0.973,-0.125,-0.240,-7.125,-12.562,+12.875,-5, -4, -5, -3, -2, 0, -2, -4,-0.10092742559997474,1.2789784853079362
1503686477469,-0.001,+0.083,-0.590,-0.803,+0.946,-0.139,-0.239,-7.562,-12.562,+11.375,-2, 1, 0, 4, 4, 1, 1, 0,-0.09737112960859957,1.2737228967123646
1503686477491,-0.003,+0.083,-0.588,-0.805,+0.927,-0.141,-0.250,-8.750,-12.000,+9.812,2, 0, -3, -6, -4, -3, -1, 2,-0.09379980293260451,1.2688243806728745
1503686477507,-0.005,+0.083,-0.587,-0.806,+0.951,-0.139,-0.258,-9.750,-10.250,+8.125,2, -1, -2, -3, -1, -2, 6, 16,-0.09038833873930958,1.2663298361889939
1503686477536,-0.007,+0.082,-0.585,-0.807,+0.975,-0.128,-0.257,-10.000,-10.312,+7.312,1, 4, 7, 6, 1, 1, -4, -4,-0.08559465585285579,1.260777372477813
1503686477551,-0.008,+0.082,-0.583,-0.808,+0.987,-0.118,-0.259,-8.688,-11.438,+6.562,-21, -10, -5, -6, -2, -4, -7, -21,-0.08362647603120081,1.2555949104891317
1503686477567,-0.010,+0.081,-0.582,-0.809,+0.970,-0.128,-0.271,-7.500,-11.750,+6.188,9, 0, 0, -2, -2, 0, 1, 4,-0.07899383121639178,1.2528053429772696
1503686477593,-0.011,+0.081,-0.580,-0.810,+0.948,-0.133,-0.263,-6.562,-9.938,+7.125,3, 0, 1, 0, -2, 3, 2, 2,-0.07701866690540875,1.2476337973759966
1503686477611,-0.013,+0.081,-0.579,-0.811,+0.940,-0.143,-0.285,-6.938,-6.188,+9.312,0, 2, 0, -1, -1, -2, -2, -3,-0.07357102936569056,1.2451589714774278
1503686477629,-0.015,+0.081,-0.578,-0.812,+0.956,-0.153,-0.278,-8.500,-3.438,+8.562,-1, -3, -6, -5, -1, 0, 2, -1,-0.0701140306548991,1.2426866552429114
1503686477649,-0.016,+0.081,-0.578,-0.812,+0.967,-0.157,-0.282,-10.000,-1.875,+6.375,-2, -6, -6, -1, 1, 0, -2, 2,-0.06847987029022366,1.2426338613571388
1503686477671,-0.017,+0.080,-0.578,-0.812,+0.960,-0.140,-0.285,-9.438,-1.625,+2.188,-3, -5, -3, -4, 0, -2, -3, -6,-0.065657116129045,1.2422838807852328
1503686477688,-0.018,+0.079,-0.577,-0.812,+0.959,-0.141,-0.292,-6.000,-0.812,+0.750,6, 14, 13, 8, 2, 0, -1, 2,-0.0626758146283683,1.2391954761973434
1503686477710,-0.018,+0.079,-0.577,-0.813,+0.925,-0.157,-0.260,-2.625,-0.750,+2.250,-2, -10, -9, -4, -3, 0, -3, -1,-0.06263947868791571,1.239575301316827
1503686477732,-0.019,+0.079,-0.577,-0.813,+0.957,-0.175,-0.261,-3.438,-1.750,-1.062,-7, -10, -5, -8, -3, -2, 4, 11,-0.061002697076012254,1.2395233470551965
1503686477748,-0.018,+0.079,-0.577,-0.813,+0.997,-0.157,-0.273,-1.500,-4.438,-3.375,-1, 1, 2, 2, 0, 0, 0, -4,-0.06263947868791571,1.239575301316827
1503686477770,-0.017,+0.078,-0.576,-0.814,+1.025,-0.129,-0.273,+1.938,-8.625,-7.688,1, 0, -1, 0, 0, 1, -3, -7,-0.0628996954844238,1.2369792855357555
1503686477792,-0.015,+0.080,-0.574,-0.815,+1.025,-0.188,-0.261,+10.500,-19.125,-1.562,0, -1, -1, -1, 4, 9, 0, -8,-0.0681890234438859,1.2325749105274477
1503686477808,-0.013,+0.081,-0.569,-0.819,+0.970,-0.117,-0.280,+10.562,-39.000,-0.875,-4, 1, -2, -13, -15, -23, -9, -9,-0.07172785183358027,1.2208815788342182
1503686477830,-0.010,+0.083,-0.564,-0.822,+1.003,-0.114,-0.316,+14.562,-37.812,-4.625,0, 1, 1, 9, 6, 8, 6, 2,-0.07811887509392892,1.2092375752688143
1503686477851,-0.007,+0.085,-0.559,-0.825,+1.005,-0.108,-0.326,+20.188,-35.688,-2.750,-3, -3, -8, -8, -7, -10, -6, -4,-0.08451062657045265,1.1976823769530052
1503686477868,-0.004,+0.089,-0.554,-0.828,+1.031,-0.116,-0.322,+24.000,-36.062,+1.438,-9, -1, 1, 2, 3, -1, -6, -7,-0.09320096899285454,1.1868704898562115
1503686477890,-0.001,+0.093,-0.549,-0.831,+0.953,-0.142,-0.366,+30.188,-34.125,+5.125,-8, -5, 1, 0, 0, -6, -5, -9,-0.10186659460791891,1.176196698581076
1503686477911,+0.001,+0.099,-0.544,-0.833,+0.865,-0.172,-0.350,+29.188,-30.938,+8.500,3, 11, 7, 1, -3, -5, 0, -7,-0.11110567362454984,1.165881108497535
1503686477928,+0.001,+0.102,-0.537,-0.837,+0.950,-0.205,-0.475,+14.250,-38.250,+13.188,-11, -5, -10, -10, -5, -1, -8, -17,-0.11310098212901717,1.1499418494188922
1503686477950,+0.002,+0.106,-0.532,-0.840,+0.984,-0.146,-0.400,+16.562,-37.000,+14.500,11, 13, 16, 2, 3, 2, 9, 23,-0.11826054539695233,1.1395141942474782
1503686477971,+0.002,+0.110,-0.525,-0.844,+0.953,-0.174,-0.384,+20.062,-47.312,+18.375,-2, -4, -3, -2, 0, 0, 0, -5,-0.12122776978508298,1.1242275409798486
1503686477988,+0.002,+0.115,-0.518,-0.848,+0.903,-0.162,-0.391,+20.312,-47.562,+17.625,-1, -8, -2, 2, -4, 0, 2, 7,-0.12520370019928476,1.1095105758839554
1503686478010,+0.003,+0.119,-0.512,-0.851,+0.868,-0.156,-0.424,+22.500,-35.562,+17.375,7, 0, 0, 3, 0, -1, 4, 13,-0.12992894328769386,1.09681813159381
1503686478033,+0.003,+0.124,-0.508,-0.852,+0.854,-0.180,-0.448,+25.312,-22.000,+20.375,-1, -10, -11, -8, 0, -1, 0, -7,-0.1344419885801324,1.0889136237930768
1503686478054,+0.002,+0.131,-0.506,-0.853,+0.866,-0.202,-0.446,+28.875,-9.188,+24.812,-3, 1, -3, -5, -3, -2, -4, -6,-0.1398984128979367,1.08722953248605
1503686478070,+0.001,+0.137,-0.506,-0.852,+0.896,-0.209,-0.416,+30.188,+3.500,+28.062,-6, -3, -4, 1, 0, 2, -3, -24,-0.14480156152090956,1.0895527375957583
1503686478093,-0.001,+0.144,-0.507,-0.850,+0.917,-0.209,-0.403,+31.938,+10.938,+29.875,1, 2, -2, -2, 0, -1, -6, -2,-0.14943791182301555,1.0945791079909846
1503686478108,-0.002,+0.152,-0.508,-0.848,+0.940,-0.216,-0.392,+34.688,+12.875,+30.000,5, 8, 9, 3, 4, 4, 6, 5,-0.15705452797438882,1.1004956827606254
1503686478130,-0.003,+0.160,-0.509,-0.846,+0.954,-0.246,-0.409,+38.562,+9.188,+31.125,-2, 3, 2, 0, -1, 0, 1, -5,-0.16481400494807055,1.1066801364862908
1503686478151,-0.004,+0.168,-0.509,-0.845,+0.935,-0.272,-0.397,+39.062,+2.750,+31.875,-14, -19, -3, -3, -3, -3, -7, -15,-0.1723693634584787,1.1109217002145153
1503686482014,+0.028,+0.057,-0.640,-0.766,+0.978,-0.035,-0.088,-1.188,-35.250,-0.750,2, 0, 0, -2, 0, 2, -3, 1,-0.11627128683004657,1.3954214449150897
1503686482029,+0.028,+0.057,-0.637,-0.768,+0.967,-0.030,-0.120,-3.188,-23.250,+2.562,-4, -1, 1, 0, 1, 0, -3, -4,-0.11604253101323556,1.387506474755032
1503686482054,+0.027,+0.057,-0.635,-0.770,+0.984,-0.024,-0.133,-4.625,-16.812,+5.250,-3, 0, -2, -2, -2, -2, -2, -2,-0.11438255635354307,1.3823790254491506
1503686482074,+0.026,+0.057,-0.633,-0.772,+0.995,-0.035,-0.123,-7.125,-15.250,+5.750,-3, -3, -3, -1, 0, -2, 0, -1,-0.11271480595103006,1.3772674819795798
1503686482090,+0.025,+0.056,-0.632,-0.773,+0.988,-0.029,-0.133,-8.625,-9.375,+3.812,4, 4, 0, 1, 0, 0, 0, 2,-0.10981977157020632,1.374474920870912
1503686482111,+0.024,+0.055,-0.631,-0.773,+0.980,-0.029,-0.158,-6.250,-1.375,+1.562,5, 2, -1, -2, 0, 0, 2, 3,-0.10687785972440358,1.3714406471550133
1503686482134,+0.024,+0.055,-0.631,-0.773,+0.978,-0.057,-0.188,-2.375,+0.812,+0.875,-7, -5, -6, -3, -2, -3, -3, -4,-0.10687785972440358,1.3714406471550133
1503686482149,+0.024,+0.055,-0.631,-0.773,+0.981,-0.079,-0.182,-1.750,+2.438,-0.500,7, 1, 1, 3, 1, 1, 2, 4,-0.10687785972440358,1.3714406471550133
1503686482171,+0.024,+0.055,-0.632,-0.772,+0.956,-0.071,-0.171,-0.875,+10.625,-1.562,1, -2, -1, 0, -1, -2, -5, -1,-0.10693959843467728,1.3739782786738073
1503686482194,+0.024,+0.056,-0.634,-0.771,+0.966,-0.062,-0.172,+4.625,+18.438,-1.000,-7, -3, -1, -2, 0, 0, -2, -5,-0.10839734801350415,1.3795357460573237
1503686482209,+0.025,+0.057,-0.636,-0.769,+0.996,-0.083,-0.164,+9.125,+15.438,-2.500,-6, -4, 0, 0, -2, -1, -1, -3,-0.11135779007528578,1.3848880013508835
1503686482231,+0.027,+0.059,-0.637,-0.769,+1.026,-0.094,-0.129,+10.250,+2.938,-4.875,-1, -1, -1, 0, 0, 1, -3, -5,-0.11714408636770389,1.3881941523361547
1503686482255,+0.029,+0.060,-0.636,-0.769,+1.010,-0.064,-0.113,+7.938,-3.500,-4.812,-8, -2, 0, 1, 0, -1, -1, -3,-0.12140563723343714,1.3856953968077195
1503686482269,+0.030,+0.060,-0.635,-0.769,+1.012,-0.033,-0.112,+6.312,-8.750,-1.812,-7, -3, -1, 5, 2, 1, 2, -1,-0.12282959431826888,1.3829297168514127
1503686482293,+0.030,+0.061,-0.634,-0.770,+1.019,-0.023,-0.101,+4.625,-10.250,+2.625,-2, -2, -4, -2, 0, 3, -2, 0,-0.12406007350818576,1.3806303199698728
1503686482314,+0.031,+0.062,-0.633,-0.771,+1.021,-0.022,-0.100,+4.938,-16.750,+4.375,1, -2, 1, -5, -4, -4, -1, 1,-0.12683492154239506,1.3783628287992025
1503686482330,+0.031,+0.062,-0.630,-0.773,+1.000,-0.022,-0.120,+0.938,-20.750,+3.250,1, 1, 0, -1, -2, -2, 0, -2,-0.12658851415673272,1.370504339138963
1503686482352,+0.031,+0.061,-0.628,-0.776,+0.994,-0.012,-0.115,-6.125,-22.438,+1.250,2, -2, -4, 0, -3, -2, -4, 1,-0.12524793397414355,1.3654511386910466
1503686482374,+0.031,+0.060,-0.625,-0.778,+0.970,+0.004,-0.144,-7.688,-23.500,-1.375,1, -1, 5, 4, 1, 0, 0, 0,-0.12373513886993705,1.3573927876585121
1503686482395,+0.031,+0.057,-0.622,-0.780,+0.973,-0.010,-0.136,-11.062,-25.188,-4.500,-6, -4, -6, -6, -3, 0, -1, -5,-0.11970569524267698,1.3488790764223713
1503686482412,+0.031,+0.055,-0.619,-0.783,+0.990,-0.001,-0.169,-14.375,-23.000,-3.812,-2, -3, -1, 0, -3, -2, -2, -3,-0.1170359864470344,1.3409310494427442
1503686482441,+0.030,+0.052,-0.616,-0.785,+0.982,-0.002,-0.196,-14.312,-19.562,-0.750,-3, 0, -1, -5, -3, -1, -5, -1,-0.11150662976605814,1.3325026276323435
1503686482450,+0.029,+0.050,-0.613,-0.788,+0.993,-0.021,-0.197,-15.188,-22.812,+1.438,-10, -5, -6, -3, -3, -2, -1, -6,-0.10730999718410031,1.3246378847613343
1503686482478,+0.027,+0.049,-0.611,-0.790,+0.987,-0.035,-0.203,-15.000,-22.312,+2.812,-1, -4, -2, -2, -2, -2, -4, -5,-0.10282005594179679,1.3194600299324246
1503686482494,+0.026,+0.047,-0.608,-0.792,+0.979,-0.031,-0.212,-14.688,-19.688,+3.625,3, 4, 4, 2, 0, 0, 1, 5,-0.09858605217048833,1.3113710229234208
1503686482510,+0.024,+0.046,-0.605,-0.794,+0.953,-0.041,-0.229,-12.375,-16.188,+6.125,6, 2, 0, 2, 2, 1, 2, 2,-0.09400174250128669,1.3034853846263956
1503686482532,+0.021,+0.045,-0.604,-0.795,+0.957,-0.062,-0.214,-13.688,-10.562,+8.938,7, 3, 0, -2, -2, -1, -4, 2,-0.08795739634893429,1.3007891027847915
1503686482554,+0.018,+0.045,-0.604,-0.796,+0.995,-0.052,-0.217,-13.125,-3.500,+11.188,5, 4, -1, 2, 1, 1, 1, 4,-0.08321523426968615,1.3010394716599292
1503686482570,+0.016,+0.045,-0.603,-0.797,+1.040,-0.047,-0.242,-9.812,-6.125,+11.938,-3, -1, -2, 0, 2, 1, -2, -2,-0.07996869327467908,1.2985605164499232
1503686482592,+0.014,+0.045,-0.600,-0.799,+1.021,-0.068,-0.236,-8.688,-19.312,+10.062,4, 4, 2, 0, 3, 4, 7, 4,-0.076562806228059,1.2909112053322689
1503686482613,+0.012,+0.044,-0.596,-0.802,+0.968,-0.061,-0.227,-11.438,-30.188,+8.312,-6, -4, -3, -2, -2, -4, -3, -3,-0.07187149404130228,1.280697480779421
1503686482630,+0.010,+0.044,-0.592,-0.805,+0.926,-0.041,-0.215,-12.125,-27.438,+7.875,0, -3, -1, 0, -1, -1, 2, 3,-0.0683681079375697,1.2707071500610256
1503686482652,+0.008,+0.043,-0.590,-0.806,+0.927,-0.033,-0.252,-9.250,-14.375,+8.625,-5, -3, -2, -2, 1, 0, -3, -5,-0.06379372617337582,1.2653534798570314
1503686482673,+0.006,+0.043,-0.589,-0.807,+0.952,-0.038,-0.273,-7.875,-5.812,+11.125,-8, -5, -1, -4, -4, -4, -4, -7,-0.06049243954598835,1.2629177434704693
1503686482691,+0.004,+0.044,-0.588,-0.808,+0.965,-0.053,-0.283,-7.562,-3.750,+14.750,10, 1, 0, -3, 0, 1, 12, 50,-0.058369755069483005,1.2606537064195877
1503686482712,+0.001,+0.044,-0.587,-0.808,+0.976,-0.061,-0.276,-8.625,-4.000,+16.688,-1, 0, 0, 2, 2, 1, -3, -14,-0.05342828176286011,1.2578339179708247
1503686482734,-0.002,+0.045,-0.586,-0.809,+0.995,-0.043,-0.276,-6.188,-5.875,+18.688,-4, -1, 0, 3, 3, 1, -1, -11,-0.049664831076241346,1.255545394482728
1503686482750,-0.005,+0.046,-0.585,-0.810,+1.000,-0.054,-0.287,-4.312,-11.000,+21.125,-9, -7, -1, -3, -3, -2, -6, -9,-0.045884386494210214,1.2532594613446475
1503686482772,-0.009,+0.049,-0.582,-0.812,+0.991,-0.091,-0.297,-3.125,-15.375,+25.188,-2, 1, 2, 0, -4, -4, -4, -4,-0.04260582448216278,1.2462006149517033
1503686482794,-0.013,+0.052,-0.579,-0.813,+0.980,-0.125,-0.277,-3.062,-19.188,+28.188,-3, -2, 0, 1, -3, -2, -4, -9,-0.039283619851766434,1.2387968512700502
1503686482810,-0.017,+0.054,-0.577,-0.815,+0.972,-0.128,-0.266,-3.250,-18.250,+27.625,-3, -7, 1, -1, -2, 1, 3, 0,-0.03481518224629203,1.2343359187110698
1503686482832,-0.020,+0.057,-0.574,-0.817,+0.966,-0.125,-0.269,-1.375,-19.375,+23.875,1, 2, -1, 3, 3, -1, -2, 1,-0.03298484301467183,1.2273986977037803
1503686482854,-0.023,+0.059,-0.571,-0.818,+0.954,-0.124,-0.271,-1.438,-20.438,+19.188,-3, -5, -5, -5, -4, -4, -3, -2,-0.029981537377418332,1.2198936581069506
1503686482870,-0.025,+0.060,-0.568,-0.820,+0.937,-0.126,-0.279,-2.188,-19.625,+15.312,-3, 2, -6, -2, -3, -4, -8, -11,-0.02738461037064939,1.2126329178988706
1503686482892,-0.026,+0.061,-0.566,-0.822,+0.926,-0.135,-0.295,-2.312,-16.688,+12.312,-2, 4, 6, 3, 1, -1, 0, 2,-0.02653517541894418,1.2081584053586656
1503686482913,-0.028,+0.063,-0.564,-0.823,+0.933,-0.140,-0.296,-1.125,-13.562,+9.375,-7, -5, -3, -2, -3, -1, -6, -22,-0.025210358173761126,1.2034609216995733
1503686482930,-0.028,+0.063,-0.562,-0.824,+0.961,-0.126,-0.312,-0.125,-14.750,+6.625,-6, -6, -4, -1, 0, 0, -2, -11,-0.024899597391379712,1.198431145460278
1503686482952,-0.028,+0.064,-0.559,-0.826,+0.964,-0.113,-0.323,+0.062,-20.250,+5.500,-2, -7, -7, -4, -6, -5, -12, -11,-0.025539767872457302,1.1913283674036368
1503686482973,-0.029,+0.065,-0.556,-0.828,+0.946,-0.126,-0.321,-0.688,-25.312,+5.750,6, 7, 7, 1, 2, -1, 3, 11,-0.024499374494655904,1.1842019269824275
1503686482990,-0.029,+0.065,-0.552,-0.831,+0.930,-0.110,-0.344,+1.438,-25.188,+7.438,-3, -4, 1, -2, 0, -4, 5, 13,-0.023798679728851857,1.174651064347575
1503686483012,-0.029,+0.067,-0.548,-0.833,+0.931,-0.108,-0.363,+4.500,-24.375,+9.688,-3, 2, 1, -1, 0, 6, 4, -6,-0.02538319001161736,1.1651544227975936
1503686483035,-0.030,+0.069,-0.545,-0.835,+0.932,-0.119,-0.371,+5.750,-22.250,+12.062,-9, -3, -1, 1, 3, -1, -8, -12,-0.02539209241084522,1.1583408389944947
1503686483050,-0.031,+0.071,-0.542,-0.837,+0.930,-0.117,-0.368,+6.125,-20.875,+14.375,4, 0, 1, -1, -5, -2, -7, -1,-0.025369152779389424,1.1515565609978262
1503686483072,-0.032,+0.073,-0.539,-0.838,+0.937,-0.105,-0.362,+7.750,-17.312,+16.562,0, 0, 0, -5, -2, -1, 1, -2,-0.02537908563644227,1.1443499336674492
1503686483094,-0.033,+0.076,-0.537,-0.840,+0.950,-0.108,-0.377,+11.688,-17.438,+19.000,0, -4, -4, -4, 0, -3, -5, -1,-0.026542276355591747,1.1405560787069686
1503686486836,-0.148,-0.036,-0.521,-0.840,+0.937,-0.104,-0.387,+3.312,+12.188,-10.750,-4, 3, 1, 2, -3, -1, -1, -8,0.29152606217199634,1.096766400968048
1503686486854,-0.146,-0.037,-0.523,-0.839,+0.916,-0.086,-0.375,+1.062,+7.938,-7.500,-6, -4, -1, 0, 0, -2, -4, -6,0.2888609515505855,1.1017558648208625
1503686486873,-0.145,-0.038,-0.523,-0.839,+0.936,-0.079,-0.380,-0.125,-1.625,-7.312,-7, -5, -4, -6, -3, 0, -3, 0,0.28812924084809116,1.1019882136602017
1503686486896,-0.144,-0.039,-0.522,-0.840,+0.921,-0.076,-0.395,-1.812,-5.875,-8.812,4, 6, -4, 2, -5, -2, -4, 5,0.2876022625479446,1.1000638497074542
1503686486911,-0.143,-0.039,-0.521,-0.840,+0.928,-0.070,-0.375,-2.125,-8.062,-6.938,-1, 1, 5, -1, 4, -1, -2, -5,0.28574709358052613,1.0973966488087876
1503686486933,-0.142,-0.039,-0.520,-0.841,+0.996,-0.083,-0.372,-2.125,-13.250,-4.562,-4, -2, 1, 1, -1, 1, -1, -6,0.2841668171734427,1.0952081291761542
1503686486956,-0.142,-0.040,-0.518,-0.843,+0.969,-0.096,-0.387,-3.312,-20.125,-6.312,5, 0, 3, 0, 0, 0, 3, 10,0.28560557029235245,1.0911846493956996
1503686486978,-0.141,-0.040,-0.513,-0.846,+0.899,-0.083,-0.450,-4.750,-28.375,-7.188,2, 1, -1, 1, 3, -1, -1, 1,0.28425234195272836,1.0794986946245704
1503686486994,-0.141,-0.041,-0.509,-0.848,+0.864,-0.055,-0.433,-7.375,-25.250,-5.188,3, 3, 3, 2, -2, 0, 3, 0,0.28551260079704716,1.0703066516912747
1503686487016,-0.142,-0.042,-0.506,-0.850,+0.908,-0.050,-0.452,-9.375,-19.812,-0.125,3, 0, -1, -1, 0, -1, -3, -1,0.28863421761111335,1.0637990768671461
1503686487038,-0.143,-0.042,-0.503,-0.851,+0.903,-0.051,-0.478,-8.812,-16.875,+4.000,-4, -5, 2, -3, -3, -2, -2, -4,0.2904635802023045,1.0565383126829657
1503686487055,-0.144,-0.042,-0.501,-0.852,+0.850,-0.050,-0.479,-4.625,-13.062,+4.812,-1, 2, 2, 2, 3, 1, -1, -5,0.2923787736295936,1.0518878196537038
1503686487076,-0.144,-0.042,-0.499,-0.854,+0.813,-0.063,-0.481,-2.312,-12.188,+1.312,-3, -2, -5, -2, -2, -3, -3, -1,0.2927704599610878,1.0477049758536232
1503686487098,-0.144,-0.042,-0.497,-0.855,+0.819,-0.075,-0.499,-0.688,-4.938,-2.750,4, -1, -5, -1, -3, 2, 8, 4,0.2928856442293743,1.0430331164787359
1503686487114,-0.143,-0.042,-0.497,-0.855,+0.853,-0.083,-0.490,+0.562,+5.000,-4.938,-2, 0, 6, 3, -1, 0, -2, -4,0.2910782864551918,1.0429907141472639
1503686487136,-0.142,-0.043,-0.499,-0.854,+0.888,-0.090,-0.446,-1.625,+10.125,-8.062,-5, -4, -2, -3, -3, -2, -2, -5,0.290168211855101,1.0479106380389396
1503686487152,-0.141,-0.044,-0.500,-0.853,+0.929,-0.056,-0.433,-2.062,+6.375,-8.875,-4, 1, -2, -1, 0, 0, -1, -2,0.28918768789854843,1.050249630949181
1503686487175,-0.139,-0.045,-0.501,-0.853,+0.926,-0.055,-0.425,-0.500,+1.375,-9.938,-1, -4, -5, -1, 4, -1, -1, 0,0.2866885789327226,1.0530456349326465
1503686487197,-0.138,-0.046,-0.501,-0.853,+0.934,-0.049,-0.419,-3.625,-2.500,-5.938,1, 0, 3, 0, 1, 2, 1, -2,0.28590671213650687,1.0532963153022579
1503686487212,-0.139,-0.046,-0.500,-0.854,+0.919,-0.034,-0.429,-5.188,-6.125,+0.625,-3, -5, 1, 0, 0, -3, -1, -2,0.28788169918784723,1.0512497449269216
1503686487234,-0.140,-0.046,-0.499,-0.854,+0.896,-0.043,-0.433,-3.688,-10.000,+3.812,1, 1, -5, -3, -1, -4, -2, -1,0.2895928258183189,1.0487083530621328
1503686487258,-0.140,-0.046,-0.497,-0.855,+0.900,-0.053,-0.440,-3.125,-17.125,+2.688,2, 0, 2, -1, -6, 0, 0, 0,0.2896849982447339,1.0440381178493041
1503686487279,-0.141,-0.046,-0.493,-0.857,+0.896,-0.056,-0.450,-3.812,-23.250,+0.750,-1, -1, -2, 1, -1, -1, 0, 0,0.2916757722263425,1.0347714583740109
1503686487294,-0.141,-0.046,-0.490,-0.859,+0.897,-0.055,-0.479,-4.562,-23.625,+0.188,-1, 0, -4, -3, 0, -1, -1, 0,0.29195209217924095,1.028063692492431
1503686487316,-0.142,-0.046,-0.487,-0.861,+0.891,-0.031,-0.502,-3.500,-19.562,+2.438,-1, -1, 0, -2, -2, 0, -4, -3,0.2940435289398129,1.021426547895692
1503686487338,-0.143,-0.045,-0.484,-0.862,+0.859,-0.047,-0.501,-0.500,-16.938,+6.250,-8, -5, -8, -5, -1, -2, -2, -10,0.2948887645102368,1.0139946877633688
1503686487356,-0.144,-0.044,-0.482,-0.863,+0.805,-0.063,-0.505,-2.188,-14.688,+7.188,-1, 2, 3, -1, 0, -2, 0, 1,0.2958362724787638,1.0091356985402276
1503686487376,-0.146,-0.043,-0.480,-0.864,+0.820,-0.057,-0.509,-4.125,-9.688,+8.688,-3, 7, -1, -1, -2, -3, -1, -5,0.29862448436034633,1.004332280315875
1503686487393,-0.147,-0.043,-0.479,-0.864,+0.845,-0.067,-0.502,-5.000,-4.625,+9.438,-3, -5, -4, -4, 2, -1, -7, -4,0.3003701347107546,1.0018264262648804
1503686487414,-0.149,-0.043,-0.479,-0.864,+0.869,-0.089,-0.483,-6.188,-2.938,+8.750,-3, 1, -4, -3, 1, 0, 1, -2,0.30403030612254717,1.001919312105279
1503686487436,-0.150,-0.043,-0.478,-0.865,+0.913,-0.046,-0.498,-5.625,-5.938,+7.000,2, -1, 1, 2, 0, 2, 2, 2,0.30606701545014187,0.9999334502880954
1503686487452,-0.151,-0.042,-0.477,-0.865,+0.906,-0.051,-0.496,-0.188,-10.688,+4.375,0, -3, -1, -2, -3, -2, -1, -3,0.3068571184973165,0.9971249696592882
1503686487474,-0.151,-0.041,-0.475,-0.866,+0.850,-0.062,-0.496,+1.312,-13.625,+2.750,0, -3, 0, -1, -4, -1, -3, 2,0.30602691461668874,0.992248333622677
1503686487496,-0.152,-0.040,-0.473,-0.867,+0.832,-0.069,-0.501,+0.500,-13.125,+4.000,-6, 0, -3, 2, 1, 1, 1, -2,0.30704647806864327,0.9874264330121596
1503686487512,-0.152,-0.040,-0.471,-0.868,+0.836,-0.069,-0.516,-1.500,-10.812,+5.188,-2, 4, 0, 0, -2, -1, -2, -3,0.307184118225838,0.9828710381613888
1503686487534,-0.153,-0.039,-0.470,-0.868,+0.870,-0.065,-0.525,-1.000,-7.438,+5.688,-6, -7, -2, -2, -2, -2, 1, 1,0.3080056894007159,0.980076331070441
1503686487563,-0.154,-0.038,-0.469,-0.869,+0.877,-0.059,-0.525,+1.062,-6.062,+6.500,6, 1, -3, -1, -1, 0, -4, -7,0.30912820490473913,0.9778094229997784
1503686487572,-0.155,-0.037,-0.469,-0.869,+0.843,-0.051,-0.546,+4.438,-3.688,+9.875,1, 1, 5, 0, -1, -1, 0, 3,0.3100356272262641,0.9775534789415172
1503686487594,-0.156,-0.035,-0.469,-0.869,+0.820,-0.066,-0.527,+7.438,+1.062,+13.875,1, 1, -1, 1, 0, 1, -1, 0,0.3100060001644192,0.9770053690735054
1503686487616,-0.158,-0.032,-0.469,-0.868,+0.821,-0.099,-0.536,+6.625,+3.812,+14.688,-3, 3, 5, 3, 2, 0, 0, 2,0.31059860037102777,0.9756892539132548
1503686487632,-0.159,-0.030,-0.471,-0.867,+0.837,-0.104,-0.532,+6.688,+8.875,+12.625,-6, 6, 4, 2, 0, -2, -3, -15,0.3103937618135381,0.9797149643263428
1503686487654,-0.160,-0.029,-0.472,-0.866,+0.832,-0.121,-0.521,+5.062,+11.125,+9.062,8, 2, -3, 0, 0, 5, 3, 4,0.3110606871153133,0.9814880370842219
1503686487676,-0.160,-0.028,-0.474,-0.865,+0.829,-0.128,-0.493,+2.562,+10.500,+4.188,2, 2, 5, 3, 3, 0, 2, 13,0.30992295750680154,0.9857838680273714
1503686487693,-0.160,-0.027,-0.475,-0.865,+0.848,-0.120,-0.494,+0.375,+7.625,-0.188,3, 0, -2, -2, -2, -4, -8, 6,0.3090330638045206,0.988065647887314
1503686487714,-0.159,-0.028,-0.476,-0.864,+0.879,-0.099,-0.500,-0.062,+4.812,-4.250,5, -2, -2, -3, -1, -3, 1, 11,0.3078736232189332,0.9903319585679486
1503686487736,-0.158,-0.028,-0.477,-0.864,+0.886,-0.099,-0.479,+0.125,+1.438,-5.875,4, 1, -8, -7, -2, 1, 1, -6,0.3060786696664915,0.9928562381072851
1503686487760,-0.158,-0.029,-0.477,-0.865,+0.863,-0.104,-0.459,-1.812,-3.438,-6.062,-11, -15, -5, -3, 3, 0, -1, -12,0.3073302374823772,0.9936489754898596
1503686487774,-0.157,-0.029,-0.475,-0.865,+0.875,-0.091,-0.499,-2.750,-7.875,-7.500,7, 4, 1, 0, -4, -1, -3, 23,0.30537045688500186,0.9885114452881332
1503686487798,-0.155,-0.030,-0.475,-0.866,+0.898,-0.080,-0.514,-0.625,-6.688,-7.000,-16, -29, -19, -11, -8, -10, -4, -10,0.3029214233392391,0.9892422814550764
1503686487818,-0.154,-0.030,-0.474,-0.866,+0.873,-0.090,-0.509,+0.188,-5.750,-5.250,2, -1, 3, 4, 4, 1, 1, -3,0.30101815427644096,0.9866595799420926
1503686487835,-0.154,-0.030,-0.473,-0.867,+0.837,-0.077,-0.516,+1.438,-4.000,-1.000,-5, 4, 2, 3, -2, -1, -11, -5,0.3012560484004952,0.9846373035808539
1503686487856,-0.154,-0.029,-0.473,-0.867,+0.847,-0.090,-0.497,+0.438,-1.250,+1.188,-5, 11, 12, 3, -1, 0, -4, -16,0.30031333818256706,0.9843673921718836
1503686487878,-0.154,-0.029,-0.473,-0.867,+0.873,-0.083,-0.517,-0.188,+0.375,+3.188,-3, 1, -1, -3, -3, -1, 3, -2,0.30031333818256706,0.9843673921718836
1503686487894,-0.154,-0.029,-0.473,-0.867,+0.849,-0.087,-0.515,+0.500,-0.188,+2.188,2, 6, 1, 3, 5, 2, 1, -1,0.30031333818256706,0.9843673921718836
1503686487916,-0.155,-0.028,-0.473,-0.867,+0.819,-0.113,-0.508,-0.312,+1.250,-0.062,-3, -2, -2, -3, -5, -1, 0, -4,0.3012195222025997,0.9841318733481147
1503686487938,-0.154,-0.029,-0.473,-0.867,+0.821,-0.113,-0.498,-2.750,+2.250,-3.812,-2, -1, -1, -1, -1, -1, -2, -7,0.30031333818256706,0.9843673921718836
1503686487955,-0.153,-0.029,-0.473,-0.867,+0.857,-0.091,-0.511,-2.938,+0.062,-7.062,7, 4, 1, 3, -2, 0, -1, -2,0.2984670271671031,0.9843351465569117
1503686487976,-0.151,-0.030,-0.473,-0.867,+0.879,-0.070,-0.519,+0.438,+0.375,-10.938,-3, 0, 4, 1, 0, 1, 0, 2,0.2957221925140347,0.9845372806481427
1503686487999,-0.149,-0.031,-0.474,-0.867,+0.894,-0.068,-0.492,+3.000,-0.625,-10.938,-3, 1, 0, 0, -1, 1, -1, -1,0.29304448209292966,0.9872855856299362
1503686488014,-0.147,-0.031,-0.474,-0.868,+0.893,-0.071,-0.508,+5.125,-3.125,-9.500,0, 1, 1, -2, 0, 1, -2, -5,0.2896514334152024,0.9877411057304439
1503686488037,-0.145,-0.030,-0.474,-0.868,+0.908,-0.059,-0.521,+8.125,+0.125,-6.000,0, -1, -1, 2, 2, -5, 1, -7,0.2850302218756141,0.9874101183004396
1503686488059,-0.144,-0.028,-0.474,-0.868,+0.918,-0.056,-0.525,+13.625,-0.562,-1.312,-1, 0, 0, 0, 4, -2, -1, 3,0.28130250059152345,0.9868639396826547
1503686488081,-0.142,-0.026,-0.475,-0.868,+0.891,-0.062,-0.522,+19.438,+3.188,-0.562,-5, -8, -4, 0, -4, -2, -3, -2,0.2757956177128109,0.9888575665249046
1503686488097,-0.140,-0.022,-0.477,-0.867,+0.901,-0.074,-0.508,+23.875,+5.500,+4.062,8, 5, 1, 0, -4, -4, 1, 3,0.26816686236563725,0.9924467412547058
1503686492341,-0.129,-0.001,-0.525,-0.841,+0.956,-0.112,-0.389,-5.000,-19.062,-4.688,-1, -2, 5, 2, 1, 1, -1, 0,0.221823316192237,1.1007444402004563
1503686492361,-0.129,-0.001,-0.521,-0.844,+0.892,-0.140,-0.384,-4.938,-30.000,-8.250,-1, -4, -3, -1, -1, 0, 0, 0,0.22257720732037747,1.0915733638854472
1503686492380,-0.128,-0.002,-0.516,-0.847,+0.894,-0.128,-0.399,-6.312,-32.562,-9.062,-6, -4, -3, -3, 1, 0, -2, -4,0.22256444710759474,1.079933138784615
1503686492401,-0.127,-0.003,-0.511,-0.850,+0.926,-0.115,-0.442,-6.688,-33.688,-10.188,0, 2, -1, 1, -1, 0, 0, 1,0.22252202331988144,1.0683630188752058
1503686492416,-0.126,-0.004,-0.507,-0.853,+0.878,-0.099,-0.481,-5.500,-26.125,-7.125,-2, -3, -1, -1, 0, -1, -4, -4,0.22245783959241977,1.059483778932264
1503686492439,-0.126,-0.005,-0.504,-0.855,+0.830,-0.086,-0.471,-4.500,-17.000,-0.875,-1, 0, 1, 3, 0, 1, 0, 0,0.22392341914159888,1.0527706494870928
1503686492461,-0.127,-0.005,-0.502,-0.856,+0.828,-0.080,-0.487,-6.000,-10.938,+5.000,4, 0, 1, -1, 0, 0, -1, 2,0.22594554410788145,1.048051858021653
1503686492476,-0.129,-0.005,-0.500,-0.856,+0.845,-0.095,-0.473,-4.750,-4.688,+9.125,-4, -11, -15, -7, -5, -3, -3, -1,0.22951851666661868,1.042840104568798
1503686492499,-0.130,-0.004,-0.500,-0.856,+0.892,-0.102,-0.477,-3.062,-0.875,+9.250,-1, 4, 3, 0, 0, 0, 1, -2,0.23033180015855878,1.042697502733034
1503686492521,-0.131,-0.004,-0.501,-0.856,+0.901,-0.117,-0.468,+0.188,+2.875,+9.000,2, -2, -1, -1, 1, 1, 1, 0,0.23213953824153324,1.0453125698173003
1503686492536,-0.132,-0.003,-0.501,-0.855,+0.884,-0.136,-0.446,+0.938,+1.688,+6.750,1, 4, 1, 2, -1, 1, -3, -2,0.23269589084018302,1.0446639654508578
1503686492561,-0.133,-0.002,-0.501,-0.855,+0.872,-0.129,-0.438,-0.562,-0.438,+4.500,-6, -5, -1, 0, 1, -2, 3, 8,0.23351163605986747,1.0445235390254068
1503686492581,-0.133,-0.002,-0.501,-0.855,+0.884,-0.132,-0.449,-2.375,-2.625,+3.000,2, -7, -1, 0, -2, 2, 2, 3,0.23351163605986747,1.0445235390254068
1503686492597,-0.133,-0.002,-0.500,-0.856,+0.890,-0.132,-0.454,-2.875,-3.375,+0.750,0, -6, -5, 1, 2, 2, 0, -4,0.23376868848207755,1.0424185033964966
1503686492619,-0.133,-0.002,-0.500,-0.856,+0.871,-0.133,-0.464,-3.000,-3.062,-1.250,-2, 6, 11, 5, 1, -2, -2, -3,0.23376868848207755,1.0424185033964966
1503686492641,-0.133,-0.003,-0.499,-0.856,+0.838,-0.128,-0.447,-3.438,-2.250,-3.125,2, 7, 5, -1, -1, -1, 1, 1,0.23474597668527789,1.0399517729914238
1503686492657,-0.133,-0.003,-0.499,-0.857,+0.854,-0.112,-0.485,-4.000,-1.562,-0.438,-3, -4, -4, -3, -2, -2, -1, -1,0.2350068023382012,1.0404608900946093
1503686492679,-0.133,-0.004,-0.499,-0.856,+0.894,-0.087,-0.480,-3.062,+4.938,+2.000,2, 4, 3, 2, 1, -1, -1, -3,0.23572769086549314,1.0400997304581903
1503686492702,-0.133,-0.004,-0.500,-0.856,+0.826,-0.102,-0.494,+2.188,+7.625,-1.812,-2, -3, -3, -4, 0, -2, 0, -2,0.2357355321437994,1.0427096908054234
1503686492717,-0.132,-0.003,-0.502,-0.855,+0.834,-0.115,-0.458,+3.938,+15.938,+0.000,-1, 1, -2, -4, 0, -3, 3, 1,0.23270177699642122,1.0472781050492606
1503686492739,-0.133,-0.003,-0.505,-0.853,+0.888,-0.116,-0.491,+2.500,+22.250,+4.188,1, 5, 2, 2, -1, 1, -3, -3,0.23399861939636993,1.0541249374371862
1503686492764,-0.133,-0.002,-0.509,-0.850,+0.854,-0.073,-0.501,+8.500,+35.875,+6.312,0, 1, 2, 1, -2, -1, 1, 2,0.2322376842335304,1.0629812709282862
1503686492777,-0.132,-0.001,-0.516,-0.847,+0.834,-0.109,-0.406,+15.438,+41.000,+5.250,-5, -4, -2, -3, -4, -1, -1, -2,0.22867996258455342,1.0798098949937662
1503686492799,-0.132,+0.001,-0.521,-0.844,+0.957,-0.142,-0.363,+8.938,+29.375,+7.250,3, -4, -3, 0, 0, -1, -1, 0,0.2258612351762651,1.0913304691632943
1503686492821,-0.132,+0.002,-0.525,-0.841,+0.995,-0.150,-0.354,+6.750,+20.188,+6.000,2, 8, 3, 4, 1, -1, -7, -6,0.22404115217924653,1.100390263185409
1503686492837,-0.131,+0.003,-0.527,-0.840,+0.957,-0.169,-0.352,+7.125,+12.188,+0.000,9, 10, 12, 6, 3, 1, 3, 4,0.22096401188219536,1.1051276442528017
1503686492861,-0.131,+0.004,-0.529,-0.839,+0.952,-0.176,-0.330,+2.062,+3.875,-1.062,-4, -5, -4, 0, 0, -3, -2, -3,0.21965359955540875,1.1098783074846745
1503686492881,-0.131,+0.004,-0.529,-0.839,+0.979,-0.170,-0.337,-3.625,-7.188,-2.125,4, 8, 2, -3, 0, 0, 3, 3,0.21965359955540875,1.1098783074846745
1503686492897,-0.130,+0.003,-0.527,-0.840,+0.968,-0.142,-0.355,-5.812,-18.438,-6.000,2, -5, -3, -2, -3, -6, -4, -2,0.21919249834802224,1.1051303656115599
1503686492919,-0.130,+0.002,-0.523,-0.843,+0.939,-0.146,-0.388,-6.562,-27.000,-7.312,-2, -3, 1, 1, 3, 3, 1, 3,0.2210137636031364,1.0960408219623086
1503686492941,-0.129,+0.001,-0.518,-0.845,+0.884,-0.134,-0.425,-8.188,-29.250,-7.312,-2, -1, 2, 0, -3, -3, -3, -2,0.2207855586849056,1.0838712653700444
1503686492957,-0.129,-0.000,-0.515,-0.848,+0.878,-0.129,-0.428,-9.375,-24.625,-4.125,-2, 0, -4, 0, -2, -1, -3, -2,0.22256692165141653,1.0775331637287533
1503686492979,-0.130,-0.001,-0.511,-0.850,+0.871,-0.114,-0.438,-11.500,-20.250,-0.750,-5, -1, -2, 0, 0, -2, 0, 0,0.22586830209153747,1.0681050961423602
1503686493001,-0.131,-0.003,-0.508,-0.851,+0.872,-0.119,-0.436,-13.562,-19.812,+1.188,1, 1, 4, 1, -1, 1, 0, 1,0.22990881481785325,1.0609865924021247
1503686493017,-0.132,-0.004,-0.505,-0.853,+0.892,-0.086,-0.480,-11.188,-21.000,-0.500,3, 3, -2, -6, -6, -5, -4, 5,0.2331954936508543,1.0542656843411635
1503686493039,-0.131,-0.005,-0.502,-0.855,+0.866,-0.098,-0.480,-4.062,-17.312,-2.750,-3, -3, -3, -1, -1, 2, -2, -8,0.23287917006937037,1.0475669437947528
1503686493063,-0.131,-0.005,-0.500,-0.856,+0.849,-0.125,-0.449,-3.688,-12.812,-1.875,-6, -7, -1, 1, -1, 2, 6, 5,0.23311642327094814,1.042850256731508
1503686493077,-0.132,-0.005,-0.498,-0.857,+0.902,-0.127,-0.450,-6.625,-11.562,+0.125,-3, -3, -7, -5, -4, 1, 0, -8,0.23515650212565978,1.0381478034272038
1503686493100,-0.132,-0.006,-0.496,-0.858,+0.904,-0.100,-0.461,-6.250,-14.500,+1.312,-3, -1, 1, 3, 2, -1, 0, -2,0.23637250888970093,1.0336045793384327
1503686493121,-0.133,-0.006,-0.493,-0.860,+0.871,-0.101,-0.462,-4.562,-17.500,+0.625,-1, -6, -4, -6, -2, -3, -1, 4,0.23866387214638649,1.0268389168148797
1503686493138,-0.133,-0.006,-0.490,-0.861,+0.849,-0.112,-0.485,-4.500,-18.062,+0.188,0, -3, -3, 1, 0, 1, -5, -3,0.2388889865147012,1.0195733566780518
1503686493159,-0.134,-0.006,-0.488,-0.862,+0.855,-0.123,-0.493,-4.625,-13.875,+1.875,0, -1, 0, -4, 0, 1, -2, -4,0.24094050808098083,1.0149187733245113
1503686493181,-0.134,-0.006,-0.486,-0.864,+0.857,-0.125,-0.495,-5.000,-12.375,-0.250,3, 2, 1, 5, 1, -2, 0, -1,0.24144131768977214,1.01078725801211
1503686493198,-0.134,-0.006,-0.484,-0.865,+0.865,-0.101,-0.507,-3.625,-11.438,-1.188,-1, -2, -2, -7, -3, -2, 3, 1,0.24167994133284276,1.0061461725804048
1503686493219,-0.134,-0.006,-0.483,-0.865,+0.843,-0.102,-0.512,-1.125,-6.688,+0.125,0, -1, 0, -2, -3, -4, 0, 0,0.24166820639992193,1.0035676744222584
1503686493241,-0.134,-0.006,-0.482,-0.866,+0.816,-0.114,-0.510,-0.875,-1.438,+0.500,-4, -6, -1, -4, -1, -3, -6, -5,0.24191853690741275,1.0015140768761237
1503686493257,-0.134,-0.006,-0.483,-0.865,+0.836,-0.102,-0.514,-1.125,+5.562,+1.938,5, 3, -1, 2, -2, -1, 5, 9,0.24166820639992193,1.0035676744222584
1503686493279,-0.135,-0.006,-0.484,-0.865,+0.882,-0.100,-0.498,-0.938,+9.688,+4.438,-3, -2, 1, 1, -3, 0, -3, -1,0.2435016055168975,1.006152638719635
1503686493301,-0.135,-0.006,-0.486,-0.864,+0.907,-0.097,-0.510,+2.938,+8.375,+8.000,-5, -2, 1, -2, 0, 1, -6, -6,0.24326110830989314,1.010793676471917
1503686493317,-0.136,-0.004,-0.487,-0.863,+0.877,-0.106,-0.491,+4.438,+10.000,+9.562,6, -3, -4, -3, -4, -3, 8, 19,0.24291341104522812,1.0125399106992192
1503686493340,-0.137,-0.003,-0.489,-0.861,+0.833,-0.127,-0.478,+4.250,+14.562,+9.375,-12, -2, -11, -8, -4, 0, -4, -25,0.24325387918805047,1.0165255906441393
1503686493361,-0.138,-0.002,-0.492,-0.859,+0.875,-0.130,-0.479,+5.312,+19.188,+10.688,-8, -8, -7, -2, 0, -5, -5, -13,0.24358486350538702,1.0231242846573942
1503686493377,-0.138,-0.000,-0.496,-0.857,+0.921,-0.115,-0.462,+7.812,+20.812,+8.312,-4, -5, -4, -6, -4, -4, -3, -9,0.24111401430648347,1.0322110564449833
1503686493399,-0.138,+0.001,-0.499,-0.856,+0.942,-0.114,-0.462,+11.250,+16.562,+8.062,-3, -5, 2, 2, 3, 1, -7, 0,0.23986518293968723,1.0393889730099415
1503686493421,-0.137,+0.004,-0.502,-0.854,+0.933,-0.114,-0.435,+16.688,+13.500,+5.625,2, -1, 3, 0, 1, 2, 4, 4,0.23455915639672764,1.0458293288902971
1503686493438,-0.136,+0.007,-0.504,-0.853,+0.944,-0.126,-0.418,+21.625,+7.188,+4.250,2, -7, -5, -3, -2, 0, 4, 14,0.22950867131947572,1.0502191192712975
1503686493459,-0.133,+0.011,-0.505,-0.853,+0.957,-0.134,-0.436,+27.625,+3.188,+1.312,7, 4, -1, 1, 0, 0, -4, -6,0.220132231609605,1.0524608475021802
1503686493481,-0.130,+0.016,-0.506,-0.853,+0.955,-0.161,-0.429,+31.938,-3.562,-0.812,0, 5, 5, 1, -1, 1, 1, -7,0.20976116985806215,1.0547132947221889
1503686493499,-0.127,+0.020,-0.506,-0.853,+0.890,-0.178,-0.413,+30.938,-5.625,-5.438,-5, -7, -4, -4, -5, -3, -3, -3,0.2004103791878155,1.0545070588881242
1503686493519,-0.123,+0.024,-0.507,-0.853,+0.893,-0.194,-0.418,+29.125,-5.312,-8.312,-3, 0, -3, -3, 0, -4, -5, -4,0.1892262293818167,1.0570451004684867
1503686493542,-0.119,+0.027,-0.506,-0.854,+0.896,-0.180,-0.439,+25.688,-5.875,-11.750,-1, -2, -1, -3, -3, -6, -3, -2,0.1793789108392272,1.0549201288015944
1503686493557,-0.115,+0.030,-0.506,-0.854,+0.853,-0.178,-0.421,+21.500,-6.750,-12.938,1, 0, 0, -1, -3, -1, 0, 1,0.1692526740114824,1.0549847299397364
1503686493579,-0.112,+0.032,-0.506,-0.855,+0.842,-0.181,-0.444,+19.625,-4.250,-12.062,1, 0, 0, 3, 4, 3, -1, -4,0.16213884046457908,1.0555756459991623
1503686493603,-0.108,+0.034,-0.505,-0.855,+0.833,-0.181,-0.463,+18.312,-1.188,-13.000,-1, -4, -4, -6, -1, -2, -5, -7,0.15308889355215802,1.053079970962167
1503686493623,-0.106,+0.036,-0.504,-0.856,+0.824,-0.242,-0.506,+8.438,-4.125,-10.625,4, 3, -1, 2, 3, 2, 6, 4,0.1478300648062221,1.051050012419439
1503686497442,+0.015,+0.073,-0.618,-0.783,+0.980,-0.075,-0.188,-5.250,-9.750,+1.938,-8, -21, -16, -6, -2, -1, -4, -9,-0.11449245577034893,1.3423801624478804
1503686497463,+0.015,+0.073,-0.617,-0.784,+0.977,-0.068,-0.191,-4.312,-9.500,+3.938,-1, 2, 0, 0, -1, -1, 1, 0,-0.11437668218970558,1.339889381703335
1503686497486,+0.014,+0.073,-0.615,-0.785,+0.967,-0.062,-0.225,-1.688,-8.688,+6.062,2, 1, 4, 1, -3, -1, 0, 4,-0.11254130650467112,1.3345972691799142
1503686497502,+0.014,+0.074,-0.615,-0.785,+0.930,-0.088,-0.215,+1.625,+2.688,+5.562,1, 2, 4, 1, 0, 0, -1, 2,-0.11380273315794358,1.3348910728823082
1503686497523,+0.013,+0.074,-0.615,-0.785,+0.960,-0.110,-0.193,-2.750,+2.250,+3.188,5, 4, 2, 2, 3, 1, 2, 10,-0.11222883840284018,1.3348563094682842
1503686497539,+0.013,+0.074,-0.616,-0.785,+0.988,-0.091,-0.187,-4.688,+4.188,+1.125,-3, 5, 4, 2, -2, 0, 0, -9,-0.11237664844966307,1.337628199475055
1503686497565,+0.013,+0.074,-0.615,-0.785,+0.987,-0.085,-0.201,+0.312,+0.375,-1.688,-1, 2, -4, -2, -1, -2, -2, -4,-0.11222883840284018,1.3348563094682842
1503686497591,+0.014,+0.074,-0.616,-0.784,+0.962,-0.089,-0.212,+6.500,+5.625,-3.438,1, 0, 2, 0, 0, -1, -2, 2,-0.11392254323094614,1.3373764558937595
1503686497601,+0.016,+0.075,-0.616,-0.784,+0.994,-0.092,-0.175,+7.250,+2.500,-7.625,3, 4, 1, 4, 0, 1, 5, 3,-0.11833093198954145,1.3377440100144846
1503686497621,+0.018,+0.075,-0.616,-0.784,+0.996,-0.113,-0.172,+6.625,-2.062,-7.750,2, 6, 17, 9, 2, 1, 1, 1,-0.12147540961137442,1.337813608847524
1503686497643,+0.019,+0.075,-0.616,-0.784,+0.987,-0.100,-0.154,+2.312,-7.438,-6.500,-5, -8, -12, -7, -2, -5, -3, -5,-0.1230478116118113,1.3378483929605636
1503686497662,+0.020,+0.075,-0.615,-0.785,+1.014,-0.071,-0.169,+0.812,-8.625,-5.062,3, -4, -2, -1, 0, 2, 0, 2,-0.12451071412568279,1.3353997398083852
1503686497681,+0.021,+0.075,-0.615,-0.785,+1.011,-0.047,-0.182,+3.438,-1.125,-0.938,-2, -2, -7, -5, -2, -1, -3, -2,-0.12608540091792717,1.3354348588183
1503686497704,+0.022,+0.076,-0.614,-0.786,+0.970,-0.077,-0.178,+5.875,-8.500,+1.562,0, -3, -3, -3, -2, -3, -1, 0,-0.12881648792142503,1.333296354336624
1503686497719,+0.022,+0.077,-0.612,-0.787,+0.988,-0.097,-0.165,+2.125,-14.688,+4.688,6, 9, 18, 9, 3, 2, 4, 4,-0.12981625801445174,1.3283652997853963
1503686497741,+0.021,+0.076,-0.611,-0.787,+0.992,-0.083,-0.150,-7.562,-6.750,+5.000,-3, 1, -8, -5, -1, -3, -4, -7,-0.12682706497549062,1.3252524949943751
1503686497766,+0.019,+0.076,-0.610,-0.789,+1.004,-0.074,-0.181,-7.938,-10.812,+9.312,-1, 1, 3, 0, 0, 1, 1, -1,-0.12359357748587793,1.3230111286073942
