Timestamp,Orientation X,Orientation Y,Orientation Z,Orientation W,Accelerometer X,Accelerometer Y,Accelerometer Z,Gyroscope X,Gyroscope Y,Gyroscope Z,EMG1,EMG2,EMG3,EMG4,EMG5,EMG6,EMG7,EMG8,Roll,Yaw
1503686425872,-0.305,-0.124,-0.260,-0.907,+0.573,+0.074,-0.805,-1.312,+0.125,+0.250,-2, -1, 0, -1, -3, -1, -1, 0,0.6678454715920712,0.5807027163122899
1503686425894,-0.305,-0.124,-0.260,-0.907,+0.578,+0.078,-0.805,-1.125,-0.438,+0.250,1, -1, -2, -1, -2, -1, -1, -3,0.6678454715920712,0.5807027163122899
1503686425910,-0.305,-0.124,-0.260,-0.907,+0.581,+0.074,-0.805,-1.062,-0.500,+0.438,-1, -1, 0, -3, -1, 0, 3, -2,0.6678454715920712,0.5807027163122899
1503686425933,-0.305,-0.124,-0.260,-0.907,+0.569,+0.075,-0.808,-1.125,-0.375,+0.312,-1, -3, -2, -2, 0, -2, 1, 0,0.6678454715920712,0.5807027163122899
1503686425954,-0.305,-0.124,-0.260,-0.907,+0.572,+0.076,-0.807,-1.125,-0.062,+0.312,-2, -1, -2, 4, -1, 0, -2, 1,0.6678454715920712,0.5807027163122899
1503686425976,-0.305,-0.124,-0.260,-0.908,+0.572,+0.081,-0.817,-1.188,+0.062,+0.500,-2, -1, -3, -1, -1, -1, 0, -2,0.6683254344857044,0.5811384097276775
1503686425992,-0.305,-0.124,-0.260,-0.908,+0.573,+0.075,-0.810,-1.000,+0.562,+0.500,-2, -2, 1, 2, -2, -1, 0, -1,0.6683254344857044,0.5811384097276775
1503686426014,-0.305,-0.124,-0.261,-0.907,+0.575,+0.074,-0.805,-0.875,+0.812,+0.562,-2, 0, -1, 0, -2, -1, 0, -2,0.6680406479081928,0.5827958317530201
1503686426037,-0.305,-0.124,-0.261,-0.907,+0.576,+0.073,-0.806,-1.062,+0.750,+0.438,1, -2, -3, -1, 1, -2, -3, 0,0.6680406479081928,0.5827958317530201
1503686426052,-0.305,-0.124,-0.261,-0.907,+0.579,+0.073,-0.806,-1.062,+0.312,+0.312,1, 1, 0, 0, -2, -2, -4, -1,0.6680406479081928,0.5827958317530201
1503686426074,-0.305,-0.124,-0.261,-0.907,+0.578,+0.074,-0.808,-1.062,+0.188,+0.250,-2, 1, 1, -1, -1, 1, 0, 1,0.6680406479081928,0.5827958317530201
1503686426098,-0.305,-0.124,-0.261,-0.907,+0.578,+0.075,-0.805,-1.000,-0.438,+0.188,0, -1, 2, 1, 0, -1, -1, 1,0.6680406479081928,0.5827958317530201
1503686426112,-0.305,-0.124,-0.261,-0.907,+0.576,+0.075,-0.804,-1.062,-0.250,+0.250,-1, -1, 0, -2, -4, -1, -1, -3,0.6680406479081928,0.5827958317530201
1503686426135,-0.305,-0.124,-0.261,-0.907,+0.575,+0.077,-0.807,-1.312,-0.500,+0.062,-3, -1, 0, -1, 0, -2, 0, -2,0.6680406479081928,0.5827958317530201
1503686426156,-0.305,-0.124,-0.261,-0.907,+0.571,+0.074,-0.808,-1.250,-0.250,+0.438,-1, 1, -3, -1, 2, -2, -2, -1,0.6680406479081928,0.5827958317530201
1503686426173,-0.305,-0.124,-0.261,-0.907,+0.569,+0.074,-0.800,-1.188,-0.062,+0.375,-4, 0, 2, -2, -3, 0, -1, 0,0.6680406479081928,0.5827958317530201
1503686426194,-0.305,-0.124,-0.261,-0.907,+0.576,+0.075,-0.802,-1.250,+0.125,+0.312,-2, -4, -1, 1, -3, -2, -2, -3,0.6680406479081928,0.5827958317530201
1503686426217,-0.305,-0.124,-0.261,-0.907,+0.577,+0.076,-0.809,-1.188,+0.188,+0.312,3, 2, -1, -1, 1, 1, 1, 1,0.6680406479081928,0.5827958317530201
1503686426232,-0.305,-0.124,-0.261,-0.907,+0.578,+0.075,-0.812,-1.188,-0.312,+0.250,-1, 0, 1, -2, -2, -1, -1, 0,0.6680406479081928,0.5827958317530201
1503686426254,-0.305,-0.124,-0.261,-0.907,+0.573,+0.075,-0.799,-1.125,-0.062,+0.188,0, 2, 2, 0, 2, -2, -1, 0,0.6680406479081928,0.5827958317530201
1503686426277,-0.305,-0.124,-0.261,-0.907,+0.571,+0.076,-0.804,-1.250,+0.000,+0.438,0, -4, -1, -2, -4, 0, 0, -1,0.6680406479081928,0.5827958317530201
1503686426292,-0.305,-0.124,-0.261,-0.907,+0.575,+0.079,-0.810,-1.125,+0.125,+0.375,-3, 3, 3, -1, 0, 0, -2, 0,0.6680406479081928,0.5827958317530201
1503686426314,-0.305,-0.124,-0.261,-0.907,+0.575,+0.071,-0.809,-1.000,+0.688,+0.562,-1, -1, -1, -1, -1, 0, -3, -2,0.6680406479081928,0.5827958317530201
1503686426338,-0.305,-0.124,-0.261,-0.907,+0.581,+0.076,-0.807,-1.125,+0.188,+0.250,-2, -2, -1, -1, -1, -2, -1, 0,0.6680406479081928,0.5827958317530201
1503686426352,-0.305,-0.124,-0.261,-0.907,+0.576,+0.078,-0.804,-1.062,+0.125,+0.312,0, -1, 1, -2, 1, -1, -1, -3,0.6680406479081928,0.5827958317530201
1503686426374,-0.305,-0.124,-0.261,-0.907,+0.574,+0.074,-0.808,-1.125,+0.062,+0.312,-1, -1, -1, -2, -1, -1, 0, 0,0.6680406479081928,0.5827958317530201
1503686426399,-0.305,-0.124,-0.261,-0.907,+0.577,+0.076,-0.806,-1.188,+0.438,+0.375,-1, -2, 1, 0, -2, -2, 0, 0,0.6680406479081928,0.5827958317530201
1503686426413,-0.305,-0.124,-0.261,-0.907,+0.573,+0.076,-0.805,-1.062,+0.438,+0.375,-1, 0, -2, 1, -1, 1, 1, -2,0.6680406479081928,0.5827958317530201
1503686426436,-0.305,-0.124,-0.261,-0.907,+0.578,+0.076,-0.803,-1.062,+0.438,+0.438,0, 1, -4, -2, -1, -1, 0, -1,0.6680406479081928,0.5827958317530201
1503686426456,-0.305,-0.124,-0.261,-0.907,+0.574,+0.075,-0.800,-1.000,+0.438,+0.500,-2, 0, -1, 1, -10, -2, -1, -1,0.6680406479081928,0.5827958317530201
1503686426473,-0.305,-0.124,-0.261,-0.907,+0.578,+0.074,-0.805,-0.875,+0.188,+0.375,-1, 0, 1, 0, 5, -1, 1, 1,0.6680406479081928,0.5827958317530201
1503686426495,-0.305,-0.124,-0.261,-0.907,+0.576,+0.072,-0.801,-0.875,+0.562,+0.375,1, -1, 1, -1, 2, 0, -2, 0,0.6680406479081928,0.5827958317530201
1503686426516,-0.305,-0.124,-0.261,-0.907,+0.578,+0.075,-0.806,-1.062,+0.062,+0.125,-1, -2, -1, 2, -2, 0, -1, -2,0.6680406479081928,0.5827958317530201
1503686426533,-0.305,-0.124,-0.261,-0.907,+0.579,+0.076,-0.804,-1.188,+0.125,+0.250,0, -4, 0, -3, 0, 1, -1, -1,0.6680406479081928,0.5827958317530201
1503686426555,-0.305,-0.124,-0.261,-0.907,+0.576,+0.079,-0.807,-1.188,-0.312,+0.312,-2, 0, 1, 2, 0, 1, 0, 0,0.6680406479081928,0.5827958317530201
1503686426577,-0.305,-0.124,-0.261,-0.907,+0.575,+0.073,-0.806,-1.250,-0.375,+0.375,0, 2, 0, 0, 0, -1, -2, 0,0.6680406479081928,0.5827958317530201
1503686426593,-0.305,-0.124,-0.261,-0.907,+0.576,+0.073,-0.808,-1.250,-0.188,+0.250,2, 0, -2, -1, -2, -2, -2, 0,0.6680406479081928,0.5827958317530201
1503686426615,-0.305,-0.124,-0.261,-0.907,+0.576,+0.074,-0.803,-1.125,-0.375,+0.125,-4, -1, -3, -2, -4, 2, 1, -1,0.6680406479081928,0.5827958317530201
1503686426637,-0.305,-0.124,-0.261,-0.907,+0.573,+0.073,-0.805,-1.312,-0.188,+0.188,-2, -1, -1, -1, 1, 0, 0, 2,0.6680406479081928,0.5827958317530201
1503686426653,-0.305,-0.124,-0.261,-0.907,+0.576,+0.079,-0.798,-1.250,-0.125,+0.188,1, -2, 2, 0, -1, -4, -2, -2,0.6680406479081928,0.5827958317530201
1503686426676,-0.305,-0.124,-0.261,-0.907,+0.578,+0.076,-0.804,-1.062,-0.250,+0.312,-1, -2, 2, -1, -1, -1, -1, -3,0.6680406479081928,0.5827958317530201
1503686426696,-0.305,-0.124,-0.261,-0.907,+0.578,+0.078,-0.802,-1.062,-0.062,+0.438,1, 0, 0, -1, -1, -1, 0, -2,0.6680406479081928,0.5827958317530201
1503686426712,-0.305,-0.124,-0.261,-0.907,+0.578,+0.076,-0.799,-1.188,-0.188,+0.188,0, -1, -2, -1, 1, -1, -1, -2,0.6680406479081928,0.5827958317530201
1503686426735,-0.305,-0.124,-0.261,-0.907,+0.574,+0.073,-0.809,-1.000,+0.250,+0.250,-3, 0, 0, -2, -1, 0, -1, 0,0.6680406479081928,0.5827958317530201
1503686426756,-0.305,-0.124,-0.261,-0.907,+0.577,+0.076,-0.802,-1.125,-0.125,+0.250,-1, 0, 0, -1, 1, -2, -1, 0,0.6680406479081928,0.5827958317530201
1503686426772,-0.305,-0.124,-0.261,-0.907,+0.580,+0.070,-0.803,-1.062,-0.312,+0.188,-1, -1, -3, -1, -2, -1, -1, 0,0.6680406479081928,0.5827958317530201
1503686426795,-0.305,-0.124,-0.261,-0.907,+0.580,+0.075,-0.807,-1.312,+0.000,+0.125,-1, 0, 1, 0, -1, 1, 1, 0,0.6680406479081928,0.5827958317530201
1503686426816,-0.305,-0.124,-0.261,-0.907,+0.578,+0.074,-0.806,-1.188,-0.250,+0.000,2, -1, -1, -1, -1, -4, -3, -1,0.6680406479081928,0.5827958317530201
1503686426835,-0.305,-0.124,-0.261,-0.907,+0.580,+0.071,-0.796,-1.250,-0.625,+0.250,0, -1, -2, -3, -2, 1, -3, 0,0.6680406479081928,0.5827958317530201
1503686426855,-0.305,-0.124,-0.261,-0.907,+0.577,+0.078,-0.802,-1.250,-0.812,+0.000,0, 0, -3, -2, -1, 0, 2, 0,0.6680406479081928,0.5827958317530201
1503686426877,-0.305,-0.124,-0.261,-0.907,+0.582,+0.074,-0.807,-1.375,-1.000,+0.062,-1, -2, -2, 0, -2, 1, 2, -2,0.6680406479081928,0.5827958317530201
1503686426893,-0.305,-0.124,-0.261,-0.907,+0.577,+0.075,-0.808,-1.375,-1.188,+0.312,-1, -2, 1, 0, -2, -2, -3, -2,0.6680406479081928,0.5827958317530201
1503686426914,-0.305,-0.124,-0.261,-0.907,+0.579,+0.075,-0.804,-1.438,-1.562,+0.188,-1, -2, -4, 0, -1, 0, -2, -1,0.6680406479081928,0.5827958317530201
1503686426936,-0.306,-0.124,-0.260,-0.907,+0.581,+0.075,-0.806,-1.188,-1.438,+0.312,-1, 0, -1, -1, 2, -2, -2, 0,0.6700316220710493,0.5809105396451635
1503686426952,-0.306,-0.124,-0.260,-0.907,+0.575,+0.071,-0.806,-1.375,-1.375,+0.188,-1, -2, 0, -3, 1, -2, -1, -1,0.6700316220710493,0.5809105396451635
1503686426975,-0.306,-0.124,-0.260,-0.908,+0.572,+0.075,-0.806,-1.312,-1.438,+0.000,-1, -1, 2, 0, -1, -2, 1, 0,0.6705122459228857,0.5813461141980264
1503686426996,-0.306,-0.124,-0.260,-0.908,+0.571,+0.077,-0.807,-1.375,-0.625,+0.062,-4, -1, -2, 1, 0, -2, -1, -1,0.6705122459228857,0.5813461141980264
1503686427013,-0.306,-0.124,-0.260,-0.908,+0.572,+0.077,-0.813,-1.312,-0.188,+0.000,0, 2, -2, -2, 1, 2, 0, 0,0.6705122459228857,0.5813461141980264
1503686427036,-0.306,-0.124,-0.260,-0.908,+0.572,+0.078,-0.810,-1.250,+0.062,+0.125,1, 0, -1, 1, -2, -2, -3, -2,0.6705122459228857,0.5813461141980264
1503686427056,-0.306,-0.124,-0.260,-0.908,+0.576,+0.077,-0.803,-1.000,-0.062,+0.188,-1, 0, 1, -3, -2, -1, -1, -2,0.6705122459228857,0.5813461141980264
1503686427073,-0.306,-0.124,-0.260,-0.908,+0.573,+0.075,-0.808,-1.000,+0.000,+0.250,-1, -2, -2, 0, -2, -1, -4, 1,0.6705122459228857,0.5813461141980264
1503686427094,-0.306,-0.124,-0.260,-0.908,+0.579,+0.076,-0.809,-1.000,+0.000,+0.250,2, 1, 3, 2, -2, 0, 0, -2,0.6705122459228857,0.5813461141980264
1503686427116,-0.306,-0.124,-0.260,-0.908,+0.575,+0.075,-0.807,-1.125,-0.375,+0.312,-4, -2, -3, -1, -1, 0, 1, -1,0.6705122459228857,0.5813461141980264
1503686427132,-0.306,-0.124,-0.260,-0.908,+0.574,+0.076,-0.808,-1.000,-0.812,+0.250,2, -1, 0, 1, -2, -2, -2, -1,0.6705122459228857,0.5813461141980264
1503686427154,-0.306,-0.124,-0.260,-0.908,+0.575,+0.075,-0.806,-1.125,-0.625,+0.188,0, -1, -2, -2, -2, -1, -1, 0,0.6705122459228857,0.5813461141980264
1503686427176,-0.306,-0.124,-0.260,-0.908,+0.569,+0.077,-0.811,-1.250,-0.500,+0.062,1, -2, -3, -1, -1, 0, -2, -1,0.6705122459228857,0.5813461141980264
1503686427192,-0.306,-0.124,-0.260,-0.908,+0.571,+0.070,-0.807,-1.125,-0.562,+0.125,1, -2, -1, 0, -2, -2, -2, -3,0.6705122459228857,0.5813461141980264
1503686427215,-0.306,-0.124,-0.260,-0.908,+0.572,+0.078,-0.805,-1.188,-0.500,+0.000,1, 2, 4, 1, 0, -1, -1, -1,0.6705122459228857,0.5813461141980264
1503686427239,-0.306,-0.124,-0.260,-0.908,+0.574,+0.080,-0.800,-1.250,-0.375,+0.062,-2, 1, -2, -1, -4, 0, -1, 0,0.6705122459228857,0.5813461141980264
1503686427252,-0.306,-0.124,-0.260,-0.908,+0.574,+0.073,-0.809,-1.188,-0.375,+0.125,0, -1, 0, -2, -1, -3, 0, 0,0.6705122459228857,0.5813461141980264
1503686427275,-0.306,-0.124,-0.260,-0.908,+0.574,+0.074,-0.809,-1.125,-0.562,+0.125,-4, 0, 0, 0, -1, -1, -1, -3,0.6705122459228857,0.5813461141980264
1503686427296,-0.306,-0.124,-0.260,-0.908,+0.574,+0.075,-0.812,-1.188,-0.500,+0.125,-1, -2, -2, -1, -1, 2, -1, -1,0.6705122459228857,0.5813461141980264
1503686427313,-0.306,-0.124,-0.260,-0.908,+0.572,+0.080,-0.813,-1.188,-0.500,+0.000,-3, -1, -2, -1, -1, -1, -1, -3,0.6705122459228857,0.5813461141980264
1503686427334,-0.306,-0.124,-0.260,-0.908,+0.568,+0.077,-0.809,-1.000,+0.000,+0.250,0, -2, 0, -2, 1, -2, -1, -1,0.6705122459228857,0.5813461141980264
1503686427358,-0.306,-0.124,-0.260,-0.908,+0.565,+0.075,-0.809,-0.938,+0.250,+0.312,1, -1, -3, -3, -2, 0, 0, 1,0.6705122459228857,0.5813461141980264
1503686427373,-0.306,-0.124,-0.260,-0.908,+0.572,+0.075,-0.807,-1.000,+0.688,+0.562,0, -2, 0, 0, 0, 0, 0, -1,0.6705122459228857,0.5813461141980264
1503686427410,-0.306,-0.124,-0.260,-0.908,+0.578,+0.073,-0.808,-0.812,+0.500,+0.375,0, -2, -1, -2, -4, 0, -2, 0,0.6705122459228857,0.5813461141980264
1503686427417,-0.306,-0.124,-0.260,-0.908,+0.578,+0.073,-0.810,-0.875,+0.312,+0.125,0, -3, 1, 1, 2, 0, 0, 0,0.6705122459228857,0.5813461141980264
1503686427433,-0.306,-0.124,-0.260,-0.908,+0.577,+0.073,-0.804,-1.000,-0.312,+0.125,0, 1, -2, -1, -2, 0, 2, -2,0.6705122459228857,0.5813461141980264
1503686427455,-0.306,-0.124,-0.260,-0.908,+0.573,+0.072,-0.811,-1.000,-0.500,-0.062,0, -3, 1, 1, -3, 0, -2, 0,0.6705122459228857,0.5813461141980264
1503686427477,-0.306,-0.124,-0.260,-0.908,+0.575,+0.073,-0.801,-1.250,-0.062,-0.062,1, -1, 0, 0, 0, 0, -2, 0,0.6705122459228857,0.5813461141980264
1503686427492,-0.306,-0.124,-0.260,-0.908,+0.566,+0.077,-0.805,-1.188,-0.438,-0.062,2, -2, -2, -2, -2, -3, -2, -2,0.6705122459228857,0.5813461141980264
1503686427515,-0.306,-0.124,-0.260,-0.908,+0.568,+0.075,-0.812,-1.188,+0.188,+0.188,-3, 1, 1, -2, 0, -1, 2, -1,0.6705122459228857,0.5813461141980264
1503686427537,-0.306,-0.124,-0.260,-0.908,+0.578,+0.076,-0.805,-1.062,+0.250,+0.438,-2, 1, 0, -2, -2, 1, -3, 0,0.6705122459228857,0.5813461141980264
1503686427552,-0.306,-0.124,-0.260,-0.908,+0.573,+0.079,-0.802,-1.250,+0.375,+0.312,-1, 1, -2, 0, 0, -2, 0, -1,0.6705122459228857,0.5813461141980264
1503686427575,-0.306,-0.124,-0.260,-0.908,+0.577,+0.076,-0.808,-1.125,+0.188,+0.438,1, -3, 0, 1, -5, 0, 3, 0,0.6705122459228857,0.5813461141980264
1503686427598,-0.306,-0.124,-0.260,-0.908,+0.574,+0.075,-0.804,-1.062,+0.000,+0.312,-2, -1, -2, -1, 2, 0, -2, -4,0.6705122459228857,0.5813461141980264
1503686427613,-0.306,-0.124,-0.260,-0.908,+0.577,+0.075,-0.805,-1.125,+0.188,+0.312,2, -2, -1, -1, 1, 0, -1, 2,0.6705122459228857,0.5813461141980264
1503686427635,-0.306,-0.124,-0.260,-0.908,+0.578,+0.072,-0.804,-1.125,-0.062,+0.375,-1, -2, 1, 0, -5, -3, -3, -1,0.6705122459228857,0.5813461141980264
1503686427657,-0.306,-0.124,-0.260,-0.908,+0.571,+0.077,-0.803,-1.125,+0.125,+0.188,-3, 0, 0, -1, 0, -2, 0, -1,0.6705122459228857,0.5813461141980264
1503686427674,-0.306,-0.124,-0.260,-0.908,+0.571,+0.077,-0.807,-1.188,+0.438,+0.438,-1, -2, 1, 1, -1, 1, -3, -1,0.6705122459228857,0.5813461141980264
1503686427695,-0.306,-0.124,-0.260,-0.908,+0.574,+0.081,-0.808,-1.125,+0.562,+0.375,0, 0, -2, 1, -1, -3, -1, 1,0.6705122459228857,0.5813461141980264
1503686427717,-0.306,-0.124,-0.260,-0.908,+0.573,+0.079,-0.807,-0.938,+0.438,+0.438,-1, -4, -2, -1, 0, 0, 1, 1,0.6705122459228857,0.5813461141980264
1503686427732,-0.306,-0.124,-0.260,-0.908,+0.576,+0.078,-0.807,-1.000,-0.062,+0.375,0, -1, 2, -3, -1, 1, -1, -2,0.6705122459228857,0.5813461141980264
1503686427755,-0.306,-0.124,-0.260,-0.908,+0.573,+0.076,-0.800,-0.938,+0.125,+0.375,0, -2, -2, -2, -1, -2, -1, -3,0.6705122459228857,0.5813461141980264
1503686427778,-0.306,-0.124,-0.260,-0.908,+0.576,+0.074,-0.809,-1.062,+0.062,+0.500,2, 0, 1, -4, 0, 0, -3, 1,0.6705122459228857,0.5813461141980264
1503686427792,-0.306,-0.124,-0.260,-0.908,+0.577,+0.075,-0.807,-0.938,+0.250,+0.312,0, -1, -3, 1, 1, 0, 1, 0,0.6705122459228857,0.5813461141980264
1503686427815,-0.306,-0.124,-0.260,-0.908,+0.580,+0.072,-0.805,-1.000,+0.125,+0.312,0, 0, -2, -1, -3, 0, -2, -2,0.6705122459228857,0.5813461141980264
1503686427837,-0.306,-0.124,-0.260,-0.908,+0.576,+0.075,-0.807,-1.125,-0.062,+0.125,-1, 0, 4, -1, -1, -2, 0, -1,0.6705122459228857,0.5813461141980264
1503686427852,-0.306,-0.124,-0.260,-0.908,+0.577,+0.074,-0.804,-1.312,-0.062,-0.062,0, -2, -3, 1, 0, 1, 0, 0,0.6705122459228857,0.5813461141980264
1503686427877,-0.306,-0.124,-0.260,-0.908,+0.577,+0.077,-0.809,-1.188,-0.062,+0.188,1, 2, -1, -1, 2, 1, 2, 0,0.6705122459228857,0.5813461141980264
1503686427897,-0.306,-0.124,-0.260,-0.908,+0.574,+0.077,-0.810,-1.250,+0.125,+0.062,-3, -3, -1, 0, -2, -1, -2, -2,0.6705122459228857,0.5813461141980264
1503686427919,-0.306,-0.124,-0.260,-0.908,+0.573,+0.075,-0.806,-1.312,+0.062,+0.250,1, -1, 2, -1, -1, -1, -3, -2,0.6705122459228857,0.5813461141980264
1503686427935,-0.306,-0.124,-0.260,-0.908,+0.578,+0.077,-0.812,-1.312,+0.125,+0.438,0, -2, -3, -2, 0, -2, 1, -1,0.6705122459228857,0.5813461141980264
1503686427957,-0.306,-0.124,-0.260,-0.908,+0.582,+0.075,-0.810,-1.125,-0.062,+0.375,0, 0, 1, 1, 0, 1, 2, -1,0.6705122459228857,0.5813461141980264
1503686427973,-0.306,-0.124,-0.260,-0.908,+0.575,+0.077,-0.805,-1.250,-0.312,+0.250,2, 3, -1, -1, -3, -2, 1, 1,0.6705122459228857,0.5813461141980264
1503686427995,-0.306,-0.124,-0.260,-0.908,+0.572,+0.080,-0.799,-1.250,-0.188,+0.312,-2, 0, -3, 0, 0, 1, 0, -1,0.6705122459228857,0.5813461141980264
1503686428018,-0.306,-0.124,-0.260,-0.908,+0.571,+0.079,-0.804,-1.062,-0.125,+0.500,1, -1, 2, 1, 1, -2, 1, -1,0.6705122459228857,0.5813461141980264
1503686428033,-0.306,-0.124,-0.260,-0.908,+0.578,+0.075,-0.811,-0.938,+0.500,+0.688,2, -1, -2, -2, 0, 2, -3, -1,0.6705122459228857,0.5813461141980264
1503686428055,-0.306,-0.124,-0.260,-0.908,+0.575,+0.079,-0.806,-1.000,+0.562,+0.438,-1, -1, -3, 0, -1, -4, -1, 2,0.6705122459228857,0.5813461141980264
1503686428078,-0.306,-0.124,-0.260,-0.908,+0.576,+0.076,-0.808,-1.000,+0.375,+0.500,-2, -1, -3, -1, -4, -1, -4, 0,0.6705122459228857,0.5813461141980264
1503686428092,-0.306,-0.124,-0.260,-0.908,+0.577,+0.070,-0.812,-1.062,+0.312,+0.375,-3, -1, 0, 0, 0, -1, -1, -3,0.6705122459228857,0.5813461141980264
1503686428115,-0.306,-0.124,-0.260,-0.908,+0.581,+0.075,-0.802,-0.938,+0.250,+0.375,-2, 0, -2, -1, -2, 0, 1, -1,0.6705122459228857,0.5813461141980264
1503686428137,-0.306,-0.124,-0.260,-0.908,+0.579,+0.072,-0.803,-1.000,-0.250,+0.375,1, -2, -1, -2, 0, -2, -2, 1,0.6705122459228857,0.5813461141980264
1503686428153,-0.306,-0.124,-0.260,-0.908,+0.578,+0.074,-0.806,-1.125,-0.375,+0.062,1, 0, 0, -2, 1, -2, 1, -1,0.6705122459228857,0.5813461141980264
1503686428179,-0.306,-0.124,-0.260,-0.908,+0.573,+0.075,-0.806,-1.125,-0.562,+0.250,-2, -2, 1, 0, 0, 1, 0, 1,0.6705122459228857,0.5813461141980264
1503686428197,-0.306,-0.124,-0.260,-0.908,+0.576,+0.073,-0.801,-1.125,-0.125,+0.188,2, 0, 1, -2, 0, -1, 1, 0,0.6705122459228857,0.5813461141980264
1503686428216,-0.306,-0.124,-0.260,-0.908,+0.576,+0.077,-0.803,-1.188,-0.062,+0.125,-3, 1, -1, -4, 0, -2, -2, -2,0.6705122459228857,0.5813461141980264
1503686428235,-0.306,-0.124,-0.260,-0.908,+0.582,+0.077,-0.807,-1.250,-0.438,+0.375,-1, -6, 0, 0, -2, -1, -1, -2,0.6705122459228857,0.5813461141980264
1503686428257,-0.306,-0.124,-0.260,-0.908,+0.576,+0.078,-0.809,-1.250,-0.188,+0.125,-1, 0, -1, 1, -5, -2, 0, 1,0.6705122459228857,0.5813461141980264
1503686428272,-0.306,-0.124,-0.260,-0.908,+0.575,+0.077,-0.808,-1.312,-0.312,+0.438,-1, -1, 1, 0, 2, -1, 1, -1,0.6705122459228857,0.5813461141980264
1503686428295,-0.306,-0.124,-0.260,-0.908,+0.571,+0.075,-0.802,-1.188,+0.062,+0.375,2, 0, 0, -4, 1, -2, 1, -1,0.6705122459228857,0.5813461141980264
1503686428320,-0.306,-0.124,-0.260,-0.908,+0.577,+0.082,-0.801,-1.188,+0.000,+0.312,-1, -2, 0, 1, -3, 0, -1, -2,0.6705122459228857,0.5813461141980264
1503686428333,-0.306,-0.124,-0.260,-0.908,+0.578,+0.072,-0.792,-1.062,+0.000,+0.500,0, -2, 0, -1, 0, 0, -1, -1,0.6705122459228857,0.5813461141980264
1503686428357,-0.306,-0.124,-0.260,-0.908,+0.575,+0.077,-0.806,-1.125,+0.250,+0.375,-1, -1, 0, 1, -1, 0, 0, -4,0.6705122459228857,0.5813461141980264
1503686428381,-0.306,-0.124,-0.260,-0.908,+0.578,+0.071,-0.809,-1.062,-0.250,+0.250,-4, -1, 1, -2, -1, -1, 0, 2,0.6705122459228857,0.5813461141980264
1503686428392,-0.306,-0.124,-0.260,-0.908,+0.573,+0.078,-0.800,-1.000,+0.312,+0.312,-1, 1, 1, 1, -2, 0, 0, 3,0.6705122459228857,0.5813461141980264
1503686428415,-0.306,-0.124,-0.260,-0.908,+0.580,+0.076,-0.803,-1.062,+0.062,+0.312,-4, 1, 4, 0, 1, 0, -1, -1,0.6705122459228857,0.5813461141980264
1503686428437,-0.306,-0.124,-0.260,-0.908,+0.574,+0.077,-0.805,-1.062,+0.250,+0.375,2, 0, 0, 0, -1, -3, -1, -2,0.6705122459228857,0.5813461141980264
1503686428453,-0.306,-0.124,-0.260,-0.908,+0.580,+0.075,-0.805,-1.062,+0.500,+0.312,-3, 0, -1, 0, -1, 0, -2, 1,0.6705122459228857,0.5813461141980264
1503686428475,-0.306,-0.124,-0.260,-0.908,+0.578,+0.072,-0.799,-1.062,-0.062,+0.250,-1, -1, 2, 0, 0, 1, -2, 0,0.6705122459228857,0.5813461141980264
1503686428498,-0.306,-0.124,-0.260,-0.908,+0.580,+0.075,-0.805,-1.125,+0.188,+0.250,-4, 0, 1, -1, -5, -1, 0, -2,0.6705122459228857,0.5813461141980264
1503686428514,-0.306,-0.124,-0.260,-0.908,+0.576,+0.077,-0.803,-1.250,+0.188,+0.125,2, 1, -3, -2, 2, -1, -1, -1,0.6705122459228857,0.5813461141980264
1503686428535,-0.306,-0.124,-0.260,-0.908,+0.575,+0.075,-0.805,-1.062,-0.125,+0.125,-1, 0, 1, -1, -1, -2, 2, -1,0.6705122459228857,0.5813461141980264
1503686428557,-0.306,-0.124,-0.260,-0.908,+0.578,+0.078,-0.800,-1.250,-0.312,+0.188,2, -3, -2, -2, -1, 0, -2, -1,0.6705122459228857,0.5813461141980264
1503686428572,-0.306,-0.124,-0.260,-0.908,+0.572,+0.077,-0.805,-1.312,-0.188,+0.250,-3, -2, -1, 0, -3, -2, -1, -1,0.6705122459228857,0.5813461141980264
1503686428595,-0.306,-0.124,-0.260,-0.908,+0.575,+0.073,-0.805,-1.188,-0.125,+0.500,0, -2, -3, -1, 0, -1, 0, 0,0.6705122459228857,0.5813461141980264
1503686428616,-0.306,-0.124,-0.260,-0.908,+0.582,+0.076,-0.801,-1.125,+0.125,+0.375,0, 0, 0, -3, 3, -2, -2, 0,0.6705122459228857,0.5813461141980264
1503686428639,-0.306,-0.124,-0.260,-0.908,+0.580,+0.074,-0.803,-1.125,-0.250,+0.312,0, 0, 2, 1, -3, -2, -1, -2,0.6705122459228857,0.5813461141980264
1503686428654,-0.306,-0.124,-0.260,-0.908,+0.575,+0.072,-0.803,-1.125,-0.375,+0.125,0, -2, 2, 1, -1, -1, 1, -2,0.6705122459228857,0.5813461141980264
1503686428676,-0.306,-0.124,-0.260,-0.908,+0.576,+0.077,-0.801,-1.062,-0.375,+0.250,-2, -2, -1, -1, 0, -1, -1, -1,0.6705122459228857,0.5813461141980264
1503686428699,-0.306,-0.124,-0.260,-0.908,+0.573,+0.071,-0.803,-1.125,-0.250,+0.438,-4, -3, -2, -2, -3, -2, -4, -1,0.6705122459228857,0.5813461141980264
1503686428721,-0.306,-0.124,-0.260,-0.908,+0.575,+0.076,-0.806,-0.938,+0.188,+0.375,0, -3, -1, -3, 0, -2, 1, 0,0.6705122459228857,0.5813461141980264
1503686428736,-0.306,-0.124,-0.260,-0.908,+0.576,+0.076,-0.805,-1.000,+0.188,+0.375,0, 1, -3, 5, 0, 0, -2, -2,0.6705122459228857,0.5813461141980264
1503686428759,-0.306,-0.124,-0.260,-0.908,+0.578,+0.074,-0.807,-1.000,+0.062,+0.688,-2, -3, -3, -3, -1, -2, -1, -3,0.6705122459228857,0.5813461141980264
1503686428774,-0.306,-0.124,-0.260,-0.908,+0.582,+0.075,-0.801,-0.875,-0.062,+0.375,1, -2, -1, -2, -2, 0, -1, 0,0.6705122459228857,0.5813461141980264
1503686428798,-0.306,-0.124,-0.260,-0.908,+0.583,+0.075,-0.805,-1.062,-0.188,+0.250,0, 1, 2, -1, -1, -1, -1, -3,0.6705122459228857,0.5813461141980264
1503686428820,-0.306,-0.124,-0.260,-0.908,+0.576,+0.072,-0.803,-1.000,-0.562,+0.125,-3, -3, -5, 0, 1, 0, -2, -1,0.6705122459228857,0.5813461141980264
1503686428834,-0.306,-0.124,-0.260,-0.908,+0.575,+0.071,-0.807,-1.062,-0.688,+0.000,0, -3, 0, 0, -2, 0, -2, -1,0.6705122459228857,0.5813461141980264
1503686428857,-0.306,-0.124,-0.260,-0.908,+0.574,+0.076,-0.808,-1.188,-0.250,+0.250,-1, 0, -2, -1, 1, -1, 0, 0,0.6705122459228857,0.5813461141980264
1503686428879,-0.306,-0.124,-0.260,-0.908,+0.577,+0.076,-0.803,-1.188,+0.000,+0.250,1, 2, 0, 1, -1, 0, 1, 0,0.6705122459228857,0.5813461141980264
1503686428894,-0.306,-0.124,-0.260,-0.908,+0.579,+0.074,-0.808,-1.188,-0.062,+0.250,-2, -3, -1, 1, 0, 0, -3, 0,0.6705122459228857,0.5813461141980264
1503686428916,-0.306,-0.124,-0.260,-0.908,+0.577,+0.073,-0.811,-1.062,-0.250,+0.312,0, -3, -3, -2, -1, -3, 0, -2,0.6705122459228857,0.5813461141980264
1503686428939,-0.306,-0.124,-0.260,-0.908,+0.579,+0.072,-0.805,-1.125,-0.250,+0.125,0, 0, 1, 0, 0, -1, -1, -2,0.6705122459228857,0.5813461141980264
1503686428954,-0.306,-0.124,-0.260,-0.908,+0.573,+0.076,-0.801,-1.250,-0.562,+0.250,0, -1, 2, -2, -2, -1, 0, -1,0.6705122459228857,0.5813461141980264
1503686428976,-0.306,-0.124,-0.260,-0.908,+0.573,+0.073,-0.809,-1.125,-0.125,+0.250,-1, 0, -2, 1, 1, 1, -2, -2,0.6705122459228857,0.5813461141980264
1503686428999,-0.306,-0.124,-0.260,-0.908,+0.573,+0.075,-0.810,-1.188,-0.188,+0.250,-1, -3, -1, -1, 1, 0, 0, -2,0.6705122459228857,0.5813461141980264
1503686429014,-0.306,-0.124,-0.260,-0.908,+0.576,+0.076,-0.806,-1.125,-0.125,+0.438,-1, -1, 1, -1, -3, -3, 0, 0,0.6705122459228857,0.5813461141980264
1503686429036,-0.306,-0.124,-0.260,-0.908,+0.576,+0.074,-0.805,-1.062,-0.125,+0.250,0, -2, -2, -2, -2, 0, -1, -1,0.6705122459228857,0.5813461141980264
1503686429059,-0.306,-0.124,-0.260,-0.908,+0.576,+0.073,-0.805,-1.125,-0.500,+0.188,0, 2, 1, 1, 0, 0, 0, -1,0.6705122459228857,0.5813461141980264
1503686429074,-0.306,-0.124,-0.260,-0.908,+0.578,+0.078,-0.801,-1.250,-0.188,+0.188,0, -2, 0, -1, 0, 0, 0, 0,0.6705122459228857,0.5813461141980264
1503686429096,-0.306,-0.124,-0.260,-0.908,+0.577,+0.074,-0.804,-1.250,-0.312,+0.188,-4, 1, 1, -1, -1, -1, 2, -1,0.6705122459228857,0.5813461141980264
1503686429119,-0.306,-0.124,-0.260,-0.908,+0.578,+0.076,-0.804,-1.188,-0.688,+0.250,-3, -3, -3, -2, -3, 0, -2, 1,0.6705122459228857,0.5813461141980264
1503686429134,-0.306,-0.124,-0.260,-0.908,+0.572,+0.079,-0.811,-1.250,-0.500,+0.062,-1, -1, 0, -1, 1, -3, -4, -2,0.6705122459228857,0.5813461141980264
1503686429156,-0.306,-0.124,-0.260,-0.908,+0.574,+0.073,-0.806,-1.188,-0.875,+0.250,-1, -1, 1, 2, 0, -1, 1, 0,0.6705122459228857,0.5813461141980264
1503686429179,-0.306,-0.124,-0.260,-0.908,+0.569,+0.075,-0.804,-1.188,-0.125,+0.125,0, -1, -4, -1, 0, 0, 0, -1,0.6705122459228857,0.5813461141980264
1503686429194,-0.306,-0.124,-0.260,-0.908,+0.579,+0.073,-0.812,-1.250,-0.250,+0.125,2, -1, -1, -1, -2, -3, -2, 0,0.6705122459228857,0.5813461141980264
1503686429218,-0.306,-0.124,-0.260,-0.908,+0.581,+0.074,-0.803,-1.312,-0.500,+0.000,-2, -2, 0, -3, 0, 2, -3, -1,0.6705122459228857,0.5813461141980264
1503686429239,-0.306,-0.124,-0.260,-0.908,+0.575,+0.081,-0.808,-1.250,-0.125,+0.125,-2, -2, 0, 1, 0, 0, -2, 0,0.6705122459228857,0.5813461141980264
1503686429254,-0.306,-0.124,-0.260,-0.908,+0.574,+0.077,-0.807,-1.125,-0.812,+0.188,-2, -2, -2, -1, -3, 1, 0, -2,0.6705122459228857,0.5813461141980264
1503686429276,-0.306,-0.124,-0.260,-0.908,+0.576,+0.075,-0.804,-1.188,-0.250,+0.250,0, -3, -1, 0, 0, -2, 0, 0,0.6705122459228857,0.5813461141980264
1503686429299,-0.306,-0.124,-0.260,-0.908,+0.582,+0.075,-0.805,-1.312,-0.625,+0.125,-2, 0, -1, -1, -1, -1, -2, 1,0.6705122459228857,0.5813461141980264
1503686429314,-0.306,-0.124,-0.260,-0.908,+0.574,+0.075,-0.807,-1.312,-0.625,+0.000,0, -1, 1, -2, -1, -1, -3, -1,0.6705122459228857,0.5813461141980264
1503686429336,-0.306,-0.124,-0.260,-0.908,+0.575,+0.078,-0.807,-1.375,-0.562,+0.000,-2, 0, 0, -1, -3, -2, 2, 1,0.6705122459228857,0.5813461141980264
1503686429359,-0.306,-0.124,-0.260,-0.908,+0.574,+0.080,-0.807,-1.250,-0.312,+0.188,-1, 1, -1, -2, -1, 0, 0, -1,0.6705122459228857,0.5813461141980264
1503686429373,-0.306,-0.124,-0.260,-0.908,+0.571,+0.074,-0.809,-1.000,-0.250,+0.375,-1, 3, 3, 3, 1, -2, 0, -1,0.6705122459228857,0.5813461141980264
1503686429396,-0.306,-0.124,-0.260,-0.908,+0.573,+0.078,-0.799,-1.000,-0.375,+0.188,0, -1, -2, -2, -2, 0, -2, -2,0.6705122459228857,0.5813461141980264
1503686429420,-0.306,-0.124,-0.260,-0.908,+0.572,+0.080,-0.809,-1.062,+0.125,+0.188,-1, -2, 0, 0, -4, -1, 2, -2,0.6705122459228857,0.5813461141980264
1503686429433,-0.306,-0.124,-0.260,-0.908,+0.575,+0.076,-0.804,-0.938,+0.125,+0.188,0, 1, 1, -2, -1, -1, 1, -1,0.6705122459228857,0.5813461141980264
1503686429456,-0.306,-0.124,-0.260,-0.908,+0.583,+0.077,-0.801,-1.000,-0.062,+0.188,-2, -2, 0, -3, 0, -3, -5, 1,0.6705122459228857,0.5813461141980264
1503686429479,-0.306,-0.124,-0.260,-0.908,+0.580,+0.076,-0.807,-0.938,-0.188,+0.125,-2, -1, -2, 0, 0, 1, -2, -1,0.6705122459228857,0.5813461141980264
1503686429494,-0.306,-0.124,-0.260,-0.908,+0.574,+0.072,-0.810,-1.062,-0.312,+0.125,0, 2, 0, 2, 3, 1, -1, -3,0.6705122459228857,0.5813461141980264
1503686429516,-0.306,-0.124,-0.260,-0.908,+0.574,+0.079,-0.802,-1.125,-0.375,+0.125,-1, -1, -1, 1, -1, -1, 0, -1,0.6705122459228857,0.5813461141980264
1503686429539,-0.306,-0.124,-0.260,-0.908,+0.576,+0.078,-0.814,-1.062,-0.188,+0.188,-2, -2, -1, -4, -1, -2, 2, -1,0.6705122459228857,0.5813461141980264
1503686429554,-0.306,-0.124,-0.260,-0.908,+0.573,+0.073,-0.807,-1.125,-0.438,+0.188,1, 1, 0, 1, 0, 2, -1, -4,0.6705122459228857,0.5813461141980264
1503686429576,-0.306,-0.124,-0.260,-0.908,+0.570,+0.073,-0.805,-1.250,-0.312,+0.062,1, -1, -1, -1, -1, -2, -1, 2,0.6705122459228857,0.5813461141980264
1503686429599,-0.306,-0.124,-0.260,-0.908,+0.576,+0.076,-0.809,-1.375,-0.312,+0.062,3, 0, -1, 2, 0, -1, 0, 1,0.6705122459228857,0.5813461141980264
1503686429614,-0.306,-0.124,-0.260,-0.908,+0.572,+0.075,-0.803,-1.312,-0.250,+0.062,-3, -3, 2, 0, -3, 1, 2, 1,0.6705122459228857,0.5813461141980264
1503686429636,-0.306,-0.124,-0.260,-0.908,+0.575,+0.077,-0.809,-1.250,+0.062,+0.125,2, -1, 1, -3, 2, -3, -5, -1,0.6705122459228857,0.5813461141980264
1503686429659,-0.306,-0.124,-0.260,-0.908,+0.575,+0.072,-0.808,-1.188,+0.188,+0.188,-3, -2, -2, 0, -3, -1, 0, 1,0.6705122459228857,0.5813461141980264
1503686429673,-0.306,-0.124,-0.260,-0.908,+0.573,+0.077,-0.807,-1.125,+0.375,+0.312,-1, -2, -3, -1, -2, -2, -2, -2,0.6705122459228857,0.5813461141980264
1503686429697,-0.306,-0.124,-0.260,-0.908,+0.577,+0.074,-0.804,-1.250,+0.438,+0.375,0, 0, -3, -1, -1, 0, 2, -2,0.6705122459228857,0.5813461141980264
1503686429719,-0.306,-0.124,-0.260,-0.908,+0.577,+0.074,-0.807,-1.062,+0.125,+0.312,0, 0, -2, 0, -1, 0, -2, -3,0.6705122459228857,0.5813461141980264
1503686429734,-0.306,-0.124,-0.260,-0.908,+0.577,+0.074,-0.808,-1.125,+0.000,+0.312,1, 0, 0, -3, -2, 1, -1, 1,0.6705122459228857,0.5813461141980264
1503686429756,-0.306,-0.124,-0.260,-0.908,+0.580,+0.077,-0.811,-1.000,-0.188,+0.312,-2, -2, 0, 0, 0, 0, -1, 3,0.6705122459228857,0.5813461141980264
1503686429779,-0.306,-0.124,-0.260,-0.908,+0.573,+0.080,-0.801,-1.000,+0.062,+0.250,0, 2, -2, 0, 0, -1, 1, -3,0.6705122459228857,0.5813461141980264
1503686429794,-0.306,-0.124,-0.260,-0.908,+0.572,+0.078,-0.804,-1.188,+0.125,+0.625,-3, -1, 0, 0, 1, -1, 0, 0,0.6705122459228857,0.5813461141980264
1503686429816,-0.306,-0.124,-0.260,-0.908,+0.575,+0.074,-0.799,-1.062,+0.438,+0.438,0, 1, -3, -3, -1, -1, -1, 0,0.6705122459228857,0.5813461141980264
1503686429839,-0.306,-0.124,-0.260,-0.908,+0.576,+0.077,-0.808,-0.938,+0.250,+0.500,-3, -1, 2, 2, -2, 1, 1, -2,0.6705122459228857,0.5813461141980264
1503686429857,-0.306,-0.124,-0.260,-0.908,+0.581,+0.076,-0.804,-1.062,+0.250,+0.250,-1, 0, 0, -1, 0, -2, 0, 0,0.6705122459228857,0.5813461141980264
1503686429876,-0.306,-0.124,-0.260,-0.908,+0.575,+0.074,-0.801,-1.000,+0.000,+0.062,-2, -2, -2, -3, -1, -3, -3, -1,0.6705122459228857,0.5813461141980264
1503686429899,-0.306,-0.124,-0.260,-0.908,+0.574,+0.075,-0.802,-1.188,-0.312,+0.250,-1, 2, 1, 1, 0, 0, -2, -2,0.6705122459228857,0.5813461141980264
1503686429914,-0.306,-0.124,-0.260,-0.908,+0.574,+0.080,-0.813,-1.188,+0.062,+0.250,0, -3, 0, 0, 1, 1, 3, 0,0.6705122459228857,0.5813461141980264
1503686429936,-0.306,-0.124,-0.260,-0.908,+0.573,+0.077,-0.802,-1.125,+0.000,+0.375,2, 2, 1, -1, -3, 0, 0, 0,0.6705122459228857,0.5813461141980264
1503686429959,-0.306,-0.124,-0.260,-0.908,+0.578,+0.070,-0.807,-1.000,-0.312,+0.438,-3, -2, -1, 1, -2, -1, 1, 0,0.6705122459228857,0.5813461141980264
1503686429981,-0.306,-0.124,-0.260,-0.908,+0.576,+0.070,-0.806,-1.250,-0.125,+0.188,0, 2, -1, -2, 1, -1, -2, -1,0.6705122459228857,0.5813461141980264
1503686430004,-0.306,-0.124,-0.260,-0.908,+0.577,+0.079,-0.811,-1.250,-0.188,+0.062,-2, -2, 0, -3, -3, -2, -4, -2,0.6705122459228857,0.5813461141980264
1503686430019,-0.306,-0.124,-0.260,-0.908,+0.573,+0.077,-0.806,-1.188,+0.312,+0.250,-1, -3, -2, -1, -1, -3, -3, -2,0.6705122459228857,0.5813461141980264
1503686430034,-0.306,-0.124,-0.260,-0.908,+0.578,+0.075,-0.808,-1.125,-0.125,+0.250,-2, -1, -3, -3, -2, -1, 3, 2,0.6705122459228857,0.5813461141980264
1503686430058,-0.306,-0.124,-0.260,-0.908,+0.577,+0.081,-0.803,-1.125,+0.125,+0.500,0, 0, 1, 0, 1, 0, -2, -1,0.6705122459228857,0.5813461141980264
1503686430079,-0.306,-0.124,-0.260,-0.908,+0.577,+0.076,-0.805,-1.062,-0.062,+0.438,2, -1, -1, 2, -1, -2, 2, 1,0.6705122459228857,0.5813461141980264
1503686430094,-0.306,-0.124,-0.260,-0.908,+0.577,+0.075,-0.811,-1.000,-0.250,+0.312,-1, -1, -3, 0, -1, 1, 1, -1,0.6705122459228857,0.5813461141980264
1503686430116,-0.306,-0.124,-0.260,-0.908,+0.576,+0.074,-0.805,-1.000,+0.125,+0.375,-2, -2, -2, 0, -1, -1, -2, -3,0.6705122459228857,0.5813461141980264
1503686430139,-0.306,-0.124,-0.260,-0.908,+0.575,+0.074,-0.808,-1.062,-0.438,+0.125,-1, -1, 2, -2, -2, 1, 1, -1,0.6705122459228857,0.5813461141980264
1503686430154,-0.306,-0.124,-0.260,-0.908,+0.575,+0.074,-0.804,-1.062,-0.125,+0.188,-1, -2, 0, -4, 1, -1, 0, -3,0.6705122459228857,0.5813461141980264
1503686430176,-0.306,-0.124,-0.260,-0.908,+0.577,+0.074,-0.806,-1.125,+0.000,+0.062,2, 0, -1, 1, -2, 1, 1, -1,0.6705122459228857,0.5813461141980264
1503686430199,-0.306,-0.124,-0.260,-0.908,+0.576,+0.074,-0.807,-1.062,-0.062,+0.375,-4, 1, 0, 0, -1, -1, -4, 1,0.6705122459228857,0.5813461141980264
1503686430214,-0.306,-0.124,-0.260,-0.908,+0.577,+0.076,-0.811,-1.188,+0.312,+0.500,1, -1, 1, -2, 1, -2, -2, -3,0.6705122459228857,0.5813461141980264
1503686430236,-0.306,-0.124,-0.260,-0.908,+0.581,+0.076,-0.809,-1.188,-0.312,+0.375,0, -2, -3, 1, 0, -2, 0, 1,0.6705122459228857,0.5813461141980264
1503686430259,-0.306,-0.124,-0.260,-0.908,+0.577,+0.076,-0.808,-1.062,-0.312,+0.438,-6, 0, -2, -1, 0, -1, -3, -2,0.6705122459228857,0.5813461141980264
1503686430274,-0.306,-0.124,-0.260,-0.908,+0.572,+0.074,-0.800,-1.188,-0.250,+0.188,3, 0, 0, -2, -1, -2, -1, 0,0.6705122459228857,0.5813461141980264
1503686430296,-0.306,-0.124,-0.260,-0.908,+0.577,+0.072,-0.800,-1.188,+0.062,+0.250,-1, 0, -1, -1, -3, -2, -3, 0,0.6705122459228857,0.5813461141980264
1503686430319,-0.306,-0.124,-0.260,-0.908,+0.577,+0.082,-0.802,-1.188,+0.125,+0.125,0, -2, 0, -1, 1, 1, 1, 1,0.6705122459228857,0.5813461141980264
1503686430334,-0.306,-0.124,-0.260,-0.908,+0.574,+0.075,-0.807,-1.125,+0.188,+0.125,0, -2, -1, 0, 1, -1, -2, -2,0.6705122459228857,0.5813461141980264
1503686430359,-0.306,-0.124,-0.260,-0.908,+0.573,+0.076,-0.802,-1.062,+0.250,+0.250,-1, 0, 0, -5, -2, -1, -1, -1,0.6705122459228857,0.5813461141980264
1503686430379,-0.306,-0.124,-0.260,-0.908,+0.576,+0.075,-0.802,-1.188,+0.375,+0.312,-1, 0, -3, 2, 1, 0, 1, -1,0.6705122459228857,0.5813461141980264
1503686430394,-0.306,-0.124,-0.260,-0.908,+0.578,+0.078,-0.804,-1.125,+0.125,+0.375,-2, 1, 2, 1, 2, -1, 0, -3,0.6705122459228857,0.5813461141980264
1503686430416,-0.306,-0.124,-0.260,-0.908,+0.579,+0.076,-0.806,-1.188,-0.062,+0.375,-2, -1, 1, 0, -2, 0, 0, 1,0.6705122459228857,0.5813461141980264
1503686430439,-0.306,-0.124,-0.260,-0.908,+0.583,+0.075,-0.807,-1.188,-0.375,+0.188,-2, 1, -1, -2, -1, 0, -1, 1,0.6705122459228857,0.5813461141980264
1503686430454,-0.306,-0.124,-0.260,-0.908,+0.575,+0.072,-0.811,-1.125,-0.500,+0.188,1, -4, -3, -2, -1, -4, 0, -3,0.6705122459228857,0.5813461141980264
1503686430476,-0.306,-0.124,-0.260,-0.908,+0.572,+0.078,-0.801,-1.188,-0.250,+0.250,-1, 0, 3, 3, -1, 0, 0, 1,0.6705122459228857,0.5813461141980264
1503686430499,-0.306,-0.124,-0.260,-0.908,+0.573,+0.076,-0.810,-1.062,+0.125,+0.375,1, 2, -1, 0, 1, -1, -4, 0,0.6705122459228857,0.5813461141980264
1503686430514,-0.306,-0.124,-0.260,-0.908,+0.579,+0.070,-0.808,-1.125,+0.062,+0.375,0, 0, 0, 1, 2, 0, 0, -1,0.6705122459228857,0.5813461141980264
1503686430536,-0.306,-0.124,-0.260,-0.908,+0.577,+0.079,-0.807,-1.062,-0.062,+0.188,-1, -2, 0, -2, -2, -1, -2, 0,0.6705122459228857,0.5813461141980264
1503686430561,-0.306,-0.124,-0.260,-0.908,+0.578,+0.074,-0.810,-1.188,-0.250,+0.125,-1, -3, -3, -1, -1, 0, -1, -4,0.6705122459228857,0.5813461141980264
1503686430574,-0.306,-0.124,-0.260,-0.908,+0.573,+0.075,-0.805,-1.250,+0.000,+0.188,0, -1, -1, -3, -1, -1, -2, -1,0.6705122459228857,0.5813461141980264
1503686430596,-0.306,-0.124,-0.260,-0.908,+0.577,+0.073,-0.806,-1.125,+0.250,+0.312,-2, -2, -1, 0, -2, 0, 1, -1,0.6705122459228857,0.5813461141980264
1503686430618,-0.306,-0.124,-0.260,-0.908,+0.581,+0.075,-0.804,-1.250,+0.188,+0.438,-2, -2, 0, 0, 0, 1, 0, -1,0.6705122459228857,0.5813461141980264
1503686430634,-0.306,-0.124,-0.260,-0.908,+0.579,+0.077,-0.807,-1.125,-0.375,+0.375,-3, -1, -3, -2, -2, -2, -1, -3,0.6705122459228857,0.5813461141980264
1503686430656,-0.306,-0.124,-0.260,-0.908,+0.573,+0.074,-0.806,-1.188,-0.750,+0.062,-2, 1, 1, 2, -3, -2, -1, 0,0.6705122459228857,0.5813461141980264
1503686430678,-0.306,-0.124,-0.260,-0.908,+0.570,+0.076,-0.808,-1.125,-0.312,+0.312,1, 1, 2, 0, 0, -1, 1, -1,0.6705122459228857,0.5813461141980264
1503686430695,-0.306,-0.124,-0.260,-0.908,+0.571,+0.075,-0.808,-1.188,+0.438,+0.250,1, -3, 0, -2, -1, 1, -3, -1,0.6705122459228857,0.5813461141980264
1503686430716,-0.306,-0.124,-0.260,-0.908,+0.577,+0.076,-0.809,-1.062,+0.812,+0.438,-1, -3, 0, 0, -2, -2, 0, 0,0.6705122459228857,0.5813461141980264
1503686430738,-0.306,-0.124,-0.260,-0.908,+0.583,+0.075,-0.810,-1.062,+0.250,+0.625,2, 0, -3, 1, -1, -2, -1, 1,0.6705122459228857,0.5813461141980264
1503686430754,-0.306,-0.124,-0.260,-0.908,+0.579,+0.075,-0.800,-0.938,+0.500,+0.375,0, -1, 0, 1, 1, 0, -2, -2,0.6705122459228857,0.5813461141980264
1503686430776,-0.306,-0.124,-0.260,-0.908,+0.576,+0.077,-0.805,-1.000,-0.062,+0.312,-1, 1, 2, -1, -2, 0, -3, -1,0.6705122459228857,0.5813461141980264
1503686430800,-0.306,-0.124,-0.260,-0.908,+0.582,+0.073,-0.804,-1.125,+0.000,+0.312,-2, -2, -2, 0, -2, -2, 0, -1,0.6705122459228857,0.5813461141980264
1503686430814,-0.306,-0.124,-0.260,-0.908,+0.576,+0.074,-0.811,-1.188,-0.438,+0.000,-2, -2, -1, 0, 1, 0, 1, 0,0.6705122459228857,0.5813461141980264
1503686430836,-0.306,-0.124,-0.260,-0.908,+0.577,+0.076,-0.808,-1.188,-0.312,+0.250,-1, 0, -4, -2, 0, -2, -2, -2,0.6705122459228857,0.5813461141980264
1503686430859,-0.306,-0.124,-0.260,-0.908,+0.570,+0.079,-0.801,-1.250,+0.125,+0.250,0, -2, -2, -2, 1, -1, 1, -2,0.6705122459228857,0.5813461141980264
1503686430874,-0.306,-0.124,-0.260,-0.908,+0.578,+0.077,-0.812,-1.250,+0.188,+0.312,0, 0, 0, -1, -2, 0, -4, -3,0.6705122459228857,0.5813461141980264
1503686430897,-0.306,-0.124,-0.260,-0.908,+0.576,+0.075,-0.809,-1.062,+0.438,+0.312,1, 0, 1, 3, -2, -1, -1, 0,0.6705122459228857,0.5813461141980264
1503686430919,-0.306,-0.124,-0.260,-0.908,+0.577,+0.072,-0.811,-1.125,+0.062,+0.062,-2, -1, 1, -1, -1, 0, -1, 0,0.6705122459228857,0.5813461141980264
1503686430934,-0.306,-0.124,-0.260,-0.908,+0.574,+0.080,-0.808,-0.938,+0.562,+0.250,0, -1, 0, -1, -1, -1, -1, 1,0.6705122459228857,0.5813461141980264
1503686430956,-0.306,-0.124,-0.260,-0.908,+0.568,+0.070,-0.807,-0.938,+1.375,+0.250,0, -3, 0, -1, 1, -2, 0, 0,0.6705122459228857,0.5813461141980264
1503686430978,-0.305,-0.124,-0.260,-0.908,+0.577,+0.074,-0.803,-1.125,+1.750,+0.062,0, -1, -2, -1, -2, -2, -1, 0,0.6683254344857044,0.5811384097276775
1503686430994,-0.305,-0.124,-0.261,-0.907,+0.586,+0.073,-0.798,-0.875,+2.000,+0.312,0, 2, 1, 0, 1, 1, 0, -2,0.6680406479081928,0.5827958317530201
1503686431016,-0.305,-0.124,-0.261,-0.907,+0.586,+0.074,-0.799,-1.250,+0.750,+0.375,0, 1, -4, -2, -1, -1, 0, 0,0.6680406479081928,0.5827958317530201
1503686431039,-0.305,-0.124,-0.261,-0.907,+0.585,+0.073,-0.798,-1.438,+0.312,+0.375,0, 0, -1, -4, -2, -2, 0, -2,0.6680406479081928,0.5827958317530201
1503686431054,-0.305,-0.124,-0.261,-0.907,+0.584,+0.080,-0.805,-1.250,-1.000,+0.188,-1, -2, 0, -1, -2, -1, 0, 1,0.6680406479081928,0.5827958317530201
1503686431077,-0.305,-0.124,-0.260,-0.908,+0.577,+0.075,-0.805,-0.938,-1.312,+0.125,-2, -3, 0, -2, 0, -3, -1, -1,0.6683254344857044,0.5811384097276775
1503686431099,-0.305,-0.124,-0.260,-0.908,+0.564,+0.075,-0.802,-0.750,-0.250,+0.250,0, 0, 0, 0, -3, 0, -2, -2,0.6683254344857044,0.5811384097276775
1503686431115,-0.305,-0.124,-0.260,-0.908,+0.559,+0.075,-0.814,-0.625,+1.312,+0.125,-3, 2, 0, 0, 3, 0, 2, 0,0.6683254344857044,0.5811384097276775
1503686431137,-0.305,-0.124,-0.261,-0.907,+0.558,+0.076,-0.824,-0.438,+4.312,+0.000,1, -1, -3, 0, 0, 0, -2, 0,0.6680406479081928,0.5827958317530201
1503686431159,-0.305,-0.124,-0.262,-0.907,+0.547,+0.084,-0.813,+0.375,+8.375,+0.375,1, 2, 0, 1, -1, -3, -2, -2,0.6682357641254905,0.5848906219188571
1503686431175,-0.305,-0.125,-0.264,-0.907,+0.561,+0.092,-0.792,+1.875,+11.625,+2.000,-2, -3, -2, -3, -1, -3, 2, 0,0.669350247435538,0.589870671493072
1503686431200,-0.305,-0.124,-0.266,-0.906,+0.570,+0.097,-0.803,+5.812,+16.188,+3.938,2, -2, -1, -3, -1, 0, -3, 1,0.6685361884898101,0.5928446208900565
1503686431219,-0.304,-0.124,-0.270,-0.905,+0.604,+0.117,-0.803,+8.750,+19.250,+5.312,1, 0, 1, 0, 1, 3, 1, 1,0.6666570985891368,0.6006126470528207
1503686431237,-0.304,-0.123,-0.274,-0.904,+0.585,+0.098,-0.808,+13.812,+23.062,+6.500,1, -1, 1, 4, -4, 1, 0, 0,0.6662220482208057,0.6078237310587363
1503686431257,-0.303,-0.121,-0.278,-0.903,+0.551,+0.099,-0.811,+17.562,+28.000,+6.562,4, 3, 0, 5, 8, 3, 2, 2,0.6628653317584469,0.6140805448418197
1503686431279,-0.302,-0.120,-0.285,-0.902,+0.506,+0.097,-0.816,+23.938,+43.875,+8.188,-3, -2, -1, -8, -9, -5, -3, -4,0.6608086097278294,0.6275320487704862
1503686431295,-0.301,-0.118,-0.295,-0.899,+0.576,+0.075,-0.834,+29.000,+60.562,+10.625,2, 0, -1, 6, 6, 1, -2, -2,0.6575951354431766,0.6457981997023717
1503686431317,-0.300,-0.116,-0.309,-0.895,+0.646,+0.089,-0.816,+32.438,+80.125,+13.938,-4, 1, 6, -2, -4, -2, -1, -1,0.6546017696461935,0.6724049205287423
1503686431339,-0.298,-0.115,-0.325,-0.890,+0.681,+0.098,-0.760,+38.125,+93.500,+14.938,-2, -5, -4, -4, -4, -4, -4, -1,0.6500886857075622,0.7037968067493894
1503686431355,-0.296,-0.113,-0.343,-0.884,+0.647,+0.050,-0.682,+40.812,+107.062,+15.062,0, -2, -4, -4, -8, -5, -2, -3,0.6446400317601375,0.7388161359429232
1503686431377,-0.293,-0.113,-0.364,-0.877,+0.728,+0.039,-0.701,+41.375,+125.562,+14.500,-4, -3, 0, 5, 8, 3, 0, -1,0.6387911800118599,0.7820067254587663
1503686431400,-0.289,-0.111,-0.386,-0.869,+0.757,+0.069,-0.706,+48.750,+130.750,+17.375,2, -2, -3, -6, -3, 2, 1, 0,0.628883522650643,0.826199866746044
1503686431415,-0.286,-0.104,-0.407,-0.861,+0.851,+0.067,-0.663,+71.438,+115.688,+24.562,-10, -4, -5, -1, -5, -3, -1, -4,0.6163091964127475,0.8657075367038354
1503686431437,-0.282,-0.098,-0.430,-0.852,+0.789,+0.016,-0.614,+77.625,+130.062,+26.312,0, 3, 1, 4, 5, 2, 1, 0,0.6021708219767691,0.9112498752345263
1503686431459,-0.277,-0.091,-0.457,-0.840,+0.792,+0.000,-0.578,+83.625,+157.125,+31.438,-1, -3, -4, -7, -4, -2, 0, -3,0.5839998460074949,0.9658204604560392
1503686431476,-0.274,-0.084,-0.489,-0.824,+0.820,-0.103,-0.512,+83.750,+191.562,+43.938,2, 3, 3, 1, 3, 0, 0, 0,0.5683219118048581,1.0334000991078933
1503686431497,-0.273,-0.075,-0.515,-0.809,+1.015,-0.133,-0.449,+78.062,+153.312,+59.125,-3, 0, 1, 0, 0, 1, -1, -3,0.5535793604237806,1.087946278497104
1503686431519,-0.274,-0.065,-0.537,-0.796,+1.138,-0.140,-0.385,+75.750,+126.000,+68.500,-3, 0, 0, -2, 0, -3, 1, 2,0.5414493609870331,1.1348756188464968
1503686431536,-0.274,-0.052,-0.554,-0.785,+1.167,-0.145,-0.394,+82.500,+90.812,+72.750,3, 1, 2, -2, -2, -3, -3, 1,0.5238281919538949,1.1698758733427816
1503686431557,-0.274,-0.036,-0.565,-0.778,+1.155,-0.177,-0.365,+89.938,+44.938,+77.125,2, 0, 3, 0, -2, -1, -2, 3,0.5037789791840618,1.1908551559360794
1503686431579,-0.275,-0.018,-0.570,-0.774,+1.115,-0.239,-0.325,+91.562,+3.125,+81.125,1, -2, -5, 0, -4, -1, -4, -3,0.4843399050802455,1.1974133024737776
1503686431598,-0.278,+0.003,-0.572,-0.772,+1.037,-0.287,-0.294,+87.938,-22.438,+92.938,-7, -16, -7, 3, 1, -1, -5, -1,0.4665701737536369,1.1971405707717335
1503686431617,-0.283,+0.026,-0.573,-0.769,+0.975,-0.303,-0.290,+86.062,-27.312,+105.625,2, 3, 3, 5, 0, 2, 2, 1,0.45041652056436754,1.194907629054687
1503686431639,-0.289,+0.050,-0.573,-0.765,+0.897,-0.315,-0.268,+89.938,-25.000,+114.188,7, 4, 2, -1, 1, 0, 1, 6,0.43512809983460277,1.19107723352027
1503686431655,-0.296,+0.075,-0.574,-0.760,+0.876,-0.354,-0.245,+91.125,-16.812,+123.062,1, -7, -9, -14, -2, -3, 0, -4,0.42053811537838925,1.191783699816327
1503686431684,-0.303,+0.100,-0.576,-0.753,+0.831,-0.422,-0.229,+91.188,-10.625,+134.125,-4, -8, -1, -2, -1, 2, 3, 2,0.4046917265123166,1.1970331114971953
1503686431699,-0.312,+0.126,-0.576,-0.745,+0.800,-0.476,-0.250,+89.625,-10.750,+136.750,-2, 3, 5, 2, 2, 2, 2, -3,0.39193633724502525,1.1982215020655742
1503686431715,-0.320,+0.151,-0.576,-0.737,+0.736,-0.513,-0.218,+88.188,-13.062,+138.875,-7, -12, -9, -7, -6, -1, -3, -4,0.37807605353585827,1.2019244418243604
1503686431738,-0.328,+0.177,-0.576,-0.728,+0.683,-0.539,-0.151,+88.750,-11.875,+139.438,-2, 0, 0, -2, -4, -1, 3, -2,0.36222453251594056,1.208588990957406
1503686431759,-0.335,+0.201,-0.575,-0.719,+0.679,-0.591,-0.092,+85.312,-12.938,+131.438,1, 2, 5, 4, 4, 0, -3, -2,0.3461552568232258,1.214078484728646
1503686431776,-0.341,+0.223,-0.576,-0.708,+0.677,-0.696,-0.046,+84.062,-1.250,+118.438,1, 3, 3, 6, 3, 3, 3, 4,0.3261901861988862,1.2277523374356916
1503686431797,-0.346,+0.243,-0.577,-0.698,+0.647,-0.792,+0.011,+77.312,+2.500,+109.062,-2, -1, -2, -3, 0, -1, -1, -1,0.30546657845196024,1.2439726316188795
1503686431818,-0.352,+0.262,-0.578,-0.688,+0.622,-0.811,+0.002,+69.625,+3.875,+105.500,7, 14, 17, 7, 3, 0, 1, 1,0.2869879978453094,1.2624862687835214
1503686431837,-0.357,+0.281,-0.578,-0.678,+0.563,-0.853,-0.044,+68.938,+5.812,+100.562,2, 0, 1, -1, 0, -1, 1, 1,0.2648502404603747,1.2809611091248179
1503686431857,-0.362,+0.298,-0.579,-0.667,+0.550,-0.909,+0.025,+63.000,+5.250,+95.438,-8, -18, -15, -4, -4, -1, -1, -2,0.24119227998423706,1.3043758554152884
1503686431879,-0.367,+0.313,-0.579,-0.657,+0.550,-0.926,+0.030,+47.188,+7.688,+86.312,-5, -5, -9, -9, -4, -1, -5, -7,0.22038875309903827,1.3243755758711677
1503686431895,-0.374,+0.325,-0.579,-0.647,+0.525,-0.874,+0.026,+34.188,+18.812,+88.562,7, 14, 8, 1, -2, -1, 1, 3,0.20833987283958585,1.3412422532082682
1503686431917,-0.383,+0.337,-0.579,-0.636,+0.501,-0.901,+0.001,+33.812,+24.812,+96.875,3, -9, -5, 3, 1, 4, 9, 13,0.19946663753092608,1.3599482825341958
1503686431939,-0.393,+0.347,-0.580,-0.624,+0.468,-0.966,+0.072,+19.375,+36.750,+98.438,10, 25, 26, 12, 13, 7, 3, -1,0.19287983327050948,1.3815940288472617
1503686431961,-0.404,+0.354,-0.581,-0.612,+0.437,-0.928,+0.052,+11.188,+46.375,+88.125,-14, -37, -36, -18, -6, -5, -6, -6,0.1941214299878301,1.397889848384991
1503686431981,-0.413,+0.361,-0.581,-0.601,+0.462,-0.920,+0.005,+11.062,+39.812,+83.125,4, -3, -5, 7, -3, 1, 5, 2,0.1908677450433256,1.411634698234275
1503686431999,-0.422,+0.368,-0.579,-0.593,+0.450,-0.973,+0.039,+5.000,+23.938,+82.000,-1, 6, 5, -5, 2, 9, 3, -2,0.19675408078181658,1.4160485990696758
1503686432021,-0.431,+0.375,-0.576,-0.584,+0.332,-0.994,+0.019,-0.812,+19.750,+80.750,-9, -21, -17, -21, -20, -9, -8, -12,0.20282385476934353,1.4141638905010863
1503686432041,-0.442,+0.381,-0.572,-0.576,+0.250,-0.976,-0.011,-10.312,+24.812,+79.562,-3, -3, -3, 3, -6, -10, -6, -4,0.2259537410593008,1.400758721201494
1503686432060,-0.454,+0.386,-0.567,-0.569,+0.317,-0.987,-0.097,-11.125,+19.500,+86.688,2, 24, 33, 7, -10, -8, -1, 1,0.265924976926349,1.3731450291601133
1503686432081,-0.464,+0.392,-0.558,-0.565,+0.488,-0.980,-0.233,-18.250,-7.375,+99.375,-3, -5, -8, -3, 18, 11, 2, -2,0.3199912833777505,1.314374011961642
1503686432097,-0.472,+0.404,-0.547,-0.561,+0.378,-0.819,-0.235,-5.500,-38.188,+105.625,-8, -12, -20, -7, -13, -19, -9, -11,0.3668516741839754,1.2579911247068833
1503686432119,-0.476,+0.417,-0.534,-0.561,+0.328,-0.735,-0.336,+15.500,-65.750,+96.438,5, 3, 10, 8, -3, 1, -1, 6,0.41923248486261333,1.1858443615885477
1503686432143,-0.459,+0.434,-0.531,-0.565,-0.255,-1.062,-0.116,+91.812,-109.188,-11.062,-18, 4, 0, 23, 7, -16, -9, -7,0.2786148964757512,1.284440938289442
1503686432157,-0.451,+0.457,-0.521,-0.562,+1.490,-1.364,+1.196,+82.500,-104.500,+77.125,-4, 21, 14, -5, -81, -60, -31, -39,0.17334241688156576,1.347247436738026
1503686432180,-0.454,+0.489,-0.482,-0.568,-0.383,-0.873,+0.378,-32.062,-228.375,+184.875,-2, -40, -42, -19, 34, 74, 53, 67,0.38473060182059665,1.066745266168568
1503686432201,-0.461,+0.490,-0.474,-0.567,-1.655,-0.245,+0.095,-35.688,-1.812,+54.188,-2, -8, 6, 4, -8, -33, -25, -13,0.5512061891767901,0.8829718716821296
1503686432217,-0.461,+0.483,-0.482,-0.567,-0.208,-0.796,-0.365,+22.188,+48.438,-69.125,5, -16, -37, -4, 38, 29, 10, 5,0.48534381196060955,0.9741882084987389
1503686432241,-0.469,+0.472,-0.498,-0.556,+0.116,-1.008,+0.000,+14.500,+135.312,-19.688,-4, -25, -18, -8, -52, -45, -30, -10,0.422029354515963,1.0864460889227325
1503686432262,-0.468,+0.461,-0.513,-0.553,+0.258,-0.723,+0.027,+12.000,+85.062,-55.250,-9, -32, -26, -13, 9, 14, 6, -7,0.3150657157281258,1.22718043548484
1503686432278,-0.458,+0.449,-0.527,-0.558,+0.453,-0.797,+0.123,+7.688,+31.375,-100.562,10, 27, 17, 1, 10, 2, 1, -1,0.21053003461767475,1.3411597335151808
1503686432299,-0.444,+0.440,-0.534,-0.570,+0.255,-0.912,+0.105,-2.125,-24.375,-119.750,0, 7, 12, 3, -3, -15, -7, -6,0.16434120130973853,1.3783447183011144
1503686432321,-0.430,+0.429,-0.536,-0.586,+0.084,-0.875,+0.090,-30.562,-47.688,-133.812,4, 21, 20, 5, 3, 14, 2, -5,0.16657991630919855,1.3531772514460363
1503686432342,-0.416,+0.414,-0.541,-0.602,+0.101,-0.833,+0.012,-37.625,-33.750,-149.875,12, 18, 14, 6, 23, 20, 9, 9,0.16848288057041286,1.340846812638757
1503686432359,-0.403,+0.394,-0.551,-0.616,+0.152,-0.851,-0.062,-37.312,+7.750,-168.562,0, 3, 6, 2, -6, -2, 1, -3,0.16920896343301184,1.3467417025149306
1503686432382,-0.390,+0.370,-0.565,-0.627,+0.253,-0.793,-0.067,-40.125,+42.812,-187.250,-1, -1, 3, 0, -12, -14, -7, -3,0.16659318573776247,1.364787621008089
1503686432397,-0.376,+0.342,-0.579,-0.637,+0.411,-0.725,-0.103,-41.875,+51.938,-197.625,2, 0, 1, 0, 2, -1, 0, 1,0.1700458727759714,1.374406411347589
1503686432419,-0.361,+0.315,-0.593,-0.648,+0.568,-0.742,-0.121,-44.125,+44.375,-200.500,-4, 4, 6, 6, 8, 5, 2, -3,0.1725407925238519,1.3911744251130949
1503686432444,-0.344,+0.287,-0.604,-0.659,+0.617,-0.765,-0.107,-44.562,+31.062,-203.500,2, 4, 1, -3, 9, 8, 4, 2,0.17639302400004767,1.3961372789578441
1503686432458,-0.325,+0.260,-0.614,-0.670,+0.633,-0.746,-0.109,-36.938,+23.812,-208.938,-2, -1, -1, -5, 7, 5, 1, -1,0.1759890659345521,1.4028985890247347
1503686432479,-0.304,+0.233,-0.624,-0.681,+0.659,-0.669,-0.165,-26.938,+18.188,-214.438,1, 1, 1, -7, -3, -1, 0, 1,0.1727111008054689,1.4130303434554738
1503686432501,-0.281,+0.207,-0.632,-0.692,+0.735,-0.606,-0.169,-20.562,+7.438,-218.938,-3, -4, -6, -15, -14, -1, 1, 0,0.16668247640115463,1.4197135746823093
1503686432517,-0.258,+0.182,-0.638,-0.702,+0.844,-0.593,-0.146,-19.688,+4.688,-212.438,-1, 2, -1, 7, 9, 4, -1, -3,0.16096850919485986,1.4226529120595766
1503686432542,-0.236,+0.158,-0.643,-0.711,+0.960,-0.572,-0.110,-16.750,-0.812,-198.562,-4, 1, 0, 0, -2, -4, 2, -2,0.15657958962847568,1.4251589312868829
1503686432561,-0.213,+0.137,-0.646,-0.720,+1.031,-0.509,-0.097,-11.625,-10.000,-188.125,8, 4, 3, 6, 4, 2, 2, 7,0.14772004042299508,1.4252189664947066
1503686432578,-0.191,+0.117,-0.647,-0.729,+1.057,-0.447,-0.111,-5.500,-23.688,-182.875,3, 0, 2, 2, 5, 0, -1, -1,0.14032499805992882,1.4212434434255865
1503686432599,-0.169,+0.099,-0.647,-0.737,+1.067,-0.375,-0.130,+2.750,-29.812,-168.625,-5, -2, -1, -1, 0, 0, -2, -2,0.13031239853822596,1.4164401086178084
1503686432621,-0.148,+0.085,-0.646,-0.744,+1.058,-0.310,-0.158,+7.812,-28.375,-147.188,0, -1, -2, -5, -5, -3, 0, -1,0.11670111501579294,1.4109497733081218
1503686432637,-0.131,+0.073,-0.646,-0.748,+1.045,-0.275,-0.185,+13.125,-8.625,-120.812,-7, 0, -2, 8, 6, -1, -1, -3,0.10604868333122855,1.408907064569186
1503686432659,-0.117,+0.065,-0.649,-0.749,+1.077,-0.280,-0.154,+16.375,+14.125,-96.875,4, -1, -3, -4, -5, -1, -3, 0,0.09399582950697499,1.416189262921805
1503686432681,-0.106,+0.057,-0.654,-0.747,+1.183,-0.275,-0.096,+15.188,+25.250,-80.625,3, 0, 0, 0, -1, 1, 1, 0,0.0860949983293022,1.4286819507147548
1503686432697,-0.095,+0.051,-0.658,-0.745,+1.239,-0.241,-0.048,+13.875,+21.312,-68.938,-2, -3, -2, -2, -2, -4, -5, -8,0.07605893434761056,1.4388123209865347
1503686432719,-0.086,+0.046,-0.659,-0.746,+1.227,-0.223,-0.035,+12.625,-2.625,-62.062,-6, 1, 8, 5, 3, 2, -1, 2,0.06888741604830498,1.4411029945591807
1503686432744,-0.077,+0.042,-0.657,-0.749,+1.165,-0.231,-0.058,+11.688,-24.750,-53.812,12, 18, 21, 11, 4, 2, -1, 0,0.06102219871612616,1.4354204203633532
1503686432760,-0.071,+0.039,-0.654,-0.752,+1.056,-0.220,-0.094,+5.750,-30.312,-46.500,0, -3, -2, -4, 0, -2, 0, 0,0.05645363623250764,1.4270956293071844
1503686432779,-0.065,+0.036,-0.651,-0.755,+1.000,-0.171,-0.118,+4.250,-19.062,-43.250,-1, -9, -10, -4, 0, -2, -1, -3,0.05180414206577081,1.4188523346725057
1503686432801,-0.058,+0.033,-0.650,-0.757,+0.975,-0.151,-0.146,+9.750,-11.125,-43.062,-3, -7, -5, -2, -4, -4, -1, -1,0.045284600179773704,1.4161436568082504
1503686432819,-0.052,+0.031,-0.650,-0.758,+1.026,-0.190,-0.113,+14.438,-2.938,-37.812,-13, -7, -5, -9, -8, -3, -4, -2,0.03879704748908699,1.4161842405916203
1503686432839,-0.047,+0.030,-0.651,-0.757,+1.034,-0.174,-0.099,+12.938,+2.750,-30.375,-4, 0, -2, -2, -3, 1, 2, -2,0.03228760963626748,1.4187445123216216
1503686432861,-0.043,+0.030,-0.652,-0.756,+1.048,-0.152,-0.090,+13.438,+8.812,-24.375,6, -1, -1, -2, -3, -1, 1, 6,0.02603328053203106,1.4214037151278982
1503686432880,-0.040,+0.030,-0.654,-0.755,+1.042,-0.131,-0.071,+12.375,+9.500,-13.000,1, 1, -2, -2, -1, -1, -2, -2,0.021263126579815664,1.4268767561709987
1503686432900,-0.039,+0.031,-0.657,-0.753,+1.028,-0.166,-0.033,+7.625,+17.750,-6.625,4, 3, 0, 3, 4, 1, -1, -7,0.01808782490354549,1.4350837932267007
1503686432921,-0.040,+0.032,-0.661,-0.748,+1.087,-0.088,-0.075,+2.438,+36.250,+7.688,-9, -5, -3, 1, 4, 10, 3, -2,0.017626688678600212,1.445619819166578
1503686432937,-0.037,+0.034,-0.664,-0.746,+1.011,-0.037,-0.154,+17.188,+29.625,+0.938,0, 0, 2, -1, -9, -3, -2, 2,0.010102676531469347,1.454046463189796
1503686432960,-0.034,+0.036,-0.664,-0.746,+0.997,-0.160,-0.120,+20.750,-4.438,-8.875,3, 9, 7, 5, 2, 0, -2, -2,0.00293438182749644,1.4543339210695216
1503686432982,-0.032,+0.037,-0.662,-0.748,+1.013,-0.144,-0.063,+11.875,-16.875,-11.750,-18, -14, -16, -13, -6, -8, -7, -11,-0.001121366391774913,1.4491569593836695
1503686432997,-0.027,+0.037,-0.659,-0.751,+0.987,-0.072,-0.079,+14.500,-22.312,-18.188,2, -3, -4, -2, -3, -1, 5, 7,-0.008246415812001508,1.4412392066645623
1503686433021,-0.022,+0.036,-0.656,-0.754,+0.952,-0.090,-0.103,+14.250,-25.750,-24.188,-4, 2, 2, 4, 10, 13, -1, -15,-0.014105282604484974,1.4332269527135513
1503686433042,-0.020,+0.035,-0.654,-0.755,+0.971,-0.081,-0.076,+3.812,-15.500,-16.750,-8, -7, -3, 4, 4, -8, -6, -3,-0.015629527304582957,1.427666358809134
1503686433057,-0.018,+0.035,-0.655,-0.755,+1.008,-0.021,-0.100,+3.312,+4.125,-6.000,8, -2, 3, -4, -3, -3, -1, 21,-0.018725830317646696,1.430499774366059
1503686433080,-0.017,+0.035,-0.656,-0.754,+1.014,-0.012,-0.134,+6.188,+13.062,-0.500,-6, -1, -2, -5, -7, -7, -9, -14,-0.020342799881604232,1.43314010818719
1503686433102,-0.016,+0.036,-0.657,-0.753,+1.023,-0.055,-0.124,+7.250,+7.188,+1.250,-1, -1, -5, -7, -6, -3, 3, -1,-0.0232760575610007,1.4359211387602488
1503686433117,-0.015,+0.037,-0.657,-0.753,+1.041,-0.090,-0.092,+7.875,+1.188,-0.125,3, 2, 5, 4, 1, -1, 1, 1,-0.026105310879007658,1.4360718568255875
1503686433149,-0.014,+0.039,-0.655,-0.754,+1.055,-0.084,-0.112,+10.688,-9.562,+0.312,-3, -4, 2, -10, -12, -4, 0, -1,-0.030072230736688247,1.4309278143800133
1503686433162,-0.012,+0.041,-0.654,-0.756,+0.982,-0.074,-0.117,+11.312,-12.625,-0.750,10, 3, 3, 2, -5, -2, -1, 3,-0.035598945438313497,1.4288173590398303
1503686433179,-0.010,+0.042,-0.652,-0.757,+0.958,-0.080,-0.109,+12.500,-11.750,-2.188,3, -1, -3, -4, 0, 1, -1, 1,-0.03975532849626178,1.4235718746026738
1503686433200,-0.009,+0.044,-0.651,-0.758,+0.978,-0.092,-0.091,+10.688,-5.875,-0.688,-13, -3, -1, -1, -1, -3, -2, -4,-0.04379275617629567,1.4213040406493413
1503686433222,-0.008,+0.045,-0.652,-0.757,+1.022,-0.080,-0.076,+6.375,+0.688,+2.438,0, -2, -4, -9, -6, -4, -2, 0,-0.046729334452472314,1.4241073749079192
1503686433238,-0.009,+0.047,-0.652,-0.757,+1.012,-0.065,-0.107,+5.500,+5.312,+6.375,18, 4, -6, 3, 5, 5, 12, 19,-0.04784475540616917,1.4244540676694666
1503686433260,-0.009,+0.048,-0.653,-0.755,+1.005,-0.067,-0.118,+5.812,+11.250,+10.812,-10, -2, 2, 3, -2, -1, -6, -22,-0.04929335618673187,1.4270733782066969
1503686433282,-0.011,+0.051,-0.654,-0.755,+1.062,-0.107,-0.075,+1.750,+4.125,+18.438,-3, 0, 3, 5, 5, 4, 1, -4,-0.05032968696702962,1.4304403768760088
1503686433297,-0.015,+0.054,-0.654,-0.754,+1.086,-0.117,-0.043,-4.688,+0.188,+25.375,0, 1, -3, 1, 5, 0, -3, 3,-0.048277974912206284,1.430813643584525
1503686433320,-0.019,+0.056,-0.654,-0.754,+1.060,-0.110,-0.036,-7.250,-4.500,+26.688,3, 1, 3, 3, 3, 1, 4, 4,-0.04487994441556082,1.431180746138141
1503686433342,-0.023,+0.058,-0.653,-0.755,+1.035,-0.139,-0.061,-9.125,-8.938,+25.375,1, -4, -5, -1, -1, -6, -4, 1,-0.04131634662252046,1.4289254681352528
1503686433357,-0.028,+0.059,-0.652,-0.756,+1.042,-0.165,-0.064,-12.312,-9.500,+22.875,-4, 6, 2, -3, -4, -6, -10, -10,-0.03488352084181422,1.426436479095206
1503686433386,-0.032,+0.060,-0.650,-0.757,+1.058,-0.165,-0.071,-12.688,-14.812,+19.875,-4, -6, 1, -2, -2, -1, -1, -6,-0.029819006706344017,1.4211472240785015
1503686433402,-0.033,+0.060,-0.645,-0.761,+1.105,-0.131,-0.113,-12.125,-37.875,+9.500,2, -4, 1, 0, 0, 2, -2, 10,-0.027424372940170163,1.4078427204590631
1503686433417,-0.036,+0.061,-0.640,-0.766,+1.065,-0.182,-0.078,-11.125,-45.375,+13.500,-2, 0, 1, 0, -1, -1, -1, -9,-0.023156251592489706,1.39502429926398
1503686433440,-0.038,+0.061,-0.634,-0.770,+0.975,-0.152,-0.111,-11.812,-44.812,+8.188,3, 0, 0, 0, -4, 0, 2, -1,-0.019022228626566884,1.3790461395677176
1503686433462,-0.039,+0.059,-0.626,-0.776,+0.970,-0.097,-0.147,-13.875,-55.688,+1.938,0, -1, 0, 2, 5, 8, 3, 5,-0.013473986466010876,1.3576448478857488
1503686433477,-0.039,+0.058,-0.619,-0.782,+0.951,-0.108,-0.186,-12.250,-54.312,-0.562,-1, -3, -2, -1, 0, 1, 1, 5,-0.010914202607063344,1.339486906074206
1503686433500,-0.040,+0.057,-0.613,-0.787,+0.900,-0.103,-0.230,-13.062,-37.312,+0.438,-4, -1, 0, -5, -2, -4, -3, -4,-0.006989673123591684,1.3239676334998538
1503686433522,-0.041,+0.055,-0.610,-0.789,+0.849,-0.095,-0.258,-11.062,-19.000,+3.250,-8, -6, -6, -3, -3, -2, -2, -3,-0.0024248176762546128,1.3157911257918866
1503686433537,-0.042,+0.055,-0.609,-0.790,+0.835,-0.105,-0.266,-7.125,+3.500,+3.750,1, -2, 3, 4, 0, -1, -2, -1,-0.0006360924081160793,1.3132890118476643
1503686433560,-0.043,+0.054,-0.612,-0.788,+0.883,-0.086,-0.236,-6.375,+21.812,+1.062,2, -2, -3, -8, -9, -2, 0, 0,0.0016880858701462218,1.3208105468334672
1503686433582,-0.043,+0.052,-0.615,-0.785,+0.956,-0.068,-0.232,-3.000,+29.688,-0.875,2, -2, -1, 0, 5, -2, -3, -5,0.0035826080406265053,1.3279021911786808
1503686433597,-0.042,+0.053,-0.619,-0.782,+0.974,-0.071,-0.269,+8.000,+34.812,+0.625,-16, -5, -7, -8, -4, -2, -5, -17,7.46830510473175e-05,1.3384125345403386
1503686433620,-0.041,+0.054,-0.620,-0.782,+0.996,-0.133,-0.233,+9.188,+10.062,+1.875,1, -1, 1, -3, -4, -2, -2, 2,-0.0028623083177336662,1.3414243581182865
1503686433642,-0.042,+0.057,-0.620,-0.781,+0.965,-0.157,-0.184,+6.875,+2.750,+8.688,-3, -3, -4, 0, 0, -1, 2, 0,-0.005127362453461465,1.3417121505525575
1503686433663,-0.042,+0.058,-0.622,-0.780,+0.917,-0.148,-0.192,+8.375,+12.562,+5.188,-4, -6, -3, -7, -3, -2, -4, -7,-0.006700622327026211,1.3472369943613944
1503686433680,-0.040,+0.060,-0.624,-0.778,+0.894,-0.156,-0.210,+14.188,+21.438,-1.312,-7, -8, -3, -3, -4, 1, -5, -20,-0.012772142968289102,1.352769247366657
1503686433701,-0.038,+0.063,-0.627,-0.776,+0.930,-0.193,-0.212,+19.125,+21.812,-1.750,8, 7, 1, 6, 0, -3, -5, 0,-0.02024240899301322,1.361374522573528
1503686433716,-0.037,+0.066,-0.629,-0.774,+0.956,-0.206,-0.170,+18.250,+18.688,-2.812,15, 4, 0, -4, 1, 2, 17, 46,-0.026044385335669468,1.367210973819178
1503686433738,-0.035,+0.068,-0.631,-0.772,+0.936,-0.208,-0.123,+13.562,+13.938,-8.938,-6, -3, -1, 0, -4, -3, -3, 1,-0.03214104313882898,1.3728759700396347
1503686433761,-0.032,+0.068,-0.634,-0.770,+0.940,-0.166,-0.084,+8.938,+18.000,-13.125,-15, -3, -2, 1, -2, -4, -14, -35,-0.03734871139452086,1.3808919878093897
1503686433776,-0.030,+0.068,-0.639,-0.766,+0.936,-0.112,-0.083,+10.000,+34.125,-11.812,-1, -7, -8, -3, -4, 0, -1, 1,-0.041377771942938874,1.3940611987102491
1503686433799,-0.028,+0.068,-0.646,-0.760,+0.980,-0.099,-0.074,+10.625,+48.625,-7.688,5, 8, 9, 0, 2, 1, 5, 8,-0.045759312994678704,1.4125178199644577
1503686433821,-0.029,+0.069,-0.650,-0.756,+1.132,-0.173,-0.234,+2.438,+40.750,+5.938,0, 0, -1, 0, -2, -2, -1, -3,-0.04633835173433494,1.4232472474452456
1503686433843,-0.028,+0.067,-0.652,-0.755,+1.132,+0.002,-0.059,-2.562,+10.250,+2.688,-1, 0, 1, 1, -5, 0, -3, -6,-0.045537064381996575,1.4281956088321432
1503686433860,-0.027,+0.070,-0.652,-0.754,+1.058,-0.021,-0.040,+13.438,-1.312,+12.375,3, 4, 3, -2, 2, 0, 1, 6,-0.05109521948053388,1.428826659725873
1503686433881,-0.028,+0.073,-0.655,-0.752,+0.987,-0.061,+0.000,+14.938,+14.125,+23.750,8, 5, 5, 4, 7, 5, 8, 11,-0.054127487036648075,1.4377563468979067
1503686433896,-0.033,+0.077,-0.656,-0.750,+1.016,-0.150,-0.099,-7.500,+18.875,+36.062,1, 1, 0, -2, -5, 1, 2, 5,-0.052209994836091456,1.4413097081777388
1503686433920,-0.041,+0.079,-0.660,-0.746,+0.998,-0.173,+0.007,-21.812,+30.312,+42.375,2, -2, -4, -1, 1, -1, 4, -1,-0.04377401801484947,1.4524468599695466
1503686433941,-0.052,+0.079,-0.664,-0.741,+1.008,-0.166,+0.052,-36.750,+31.562,+47.625,5, -2, -9, -4, -1, 0, 0, 9,-0.02834768013078546,1.4628728313696806
1503686433957,-0.062,+0.078,-0.668,-0.738,+1.021,-0.173,+0.067,-44.375,+24.938,+43.625,8, 6, 9, 8, 3, 2, 8, 13,-0.012952474334224716,1.473405537721883
1503686433979,-0.071,+0.076,-0.670,-0.735,+0.978,-0.190,+0.012,-45.188,+23.688,+29.562,-4, 0, 0, -5, -5, -6, -5, -7,0.002585938555266146,1.4780061125027402
1503686434001,-0.078,+0.071,-0.672,-0.734,+0.886,-0.204,-0.081,-48.812,+19.812,+8.812,-3, 2, 0, 2, -3, 1, 0, 2,0.01951171428489917,1.4820936556442736
1503686434016,-0.083,+0.064,-0.670,-0.735,+0.907,-0.185,-0.088,-52.125,+0.250,-6.625,4, 1, 4, 0, -2, 3, 2, 0,0.03704734419016205,1.474604005375932
1503686434038,-0.088,+0.056,-0.667,-0.737,+0.972,-0.172,-0.113,-52.875,-15.875,-7.750,-3, -4, -6, 1, 2, -1, -1, -5,0.05617244382613391,1.464398264664467
1503686434062,-0.092,+0.049,-0.663,-0.741,+0.956,-0.150,-0.154,-52.312,-20.938,-8.500,-8, -4, -2, -1, -4, -2, -6, -12,0.07282629649129009,1.4521431147336579
1503686434076,-0.095,+0.042,-0.658,-0.746,+0.942,-0.096,-0.206,-46.625,-27.125,-8.750,-2, -10, -12, -10, 0, -2, -1, 1,0.0881459535652671,1.4375285981137897
1503686434100,-0.102,+0.037,-0.645,-0.757,+1.014,-0.179,-0.399,-52.625,-76.062,+12.188,-11, -11, -5, -2, -2, -3, -5, -12,0.10883907897051139,1.4019196833272018
1503686434124,-0.107,+0.034,-0.634,-0.765,+0.906,-0.103,-0.161,-39.500,-71.312,+8.125,11, 8, 10, 7, 4, 2, 3, 7,0.12309143875859749,1.3721754046224288
1503686434136,-0.112,+0.032,-0.626,-0.771,+0.930,-0.170,-0.248,-32.375,-53.750,+16.000,-5, -6, -5, -3, 1, -1, -3, -4,0.13550422874671153,1.3508511313150342
1503686434159,-0.118,+0.031,-0.621,-0.774,+0.969,-0.143,-0.246,-30.625,-26.875,+23.000,5, 8, 4, 1, 4, 1, 2, 6,0.14750617670285412,1.3373953636156275
1503686434181,-0.124,+0.032,-0.618,-0.776,+1.013,-0.127,-0.298,-18.062,-14.500,+35.312,-6, -5, -4, -4, -6, -5, -3, -4,0.1567836614923123,1.3294780462799047
1503686434196,-0.129,+0.035,-0.617,-0.775,+1.005,-0.177,-0.208,-8.562,+0.062,+41.188,2, -5, -9, -14, -4, -4, -2, -1,0.16115904328027256,1.3264715031933665
1503686434223,-0.136,+0.039,-0.618,-0.773,+1.010,-0.273,-0.131,-7.438,+7.938,+40.250,3, 2, 1, -1, -1, 1, 4, 6,0.16723349656446293,1.3289030967177942
1503686434241,-0.142,+0.041,-0.619,-0.771,+1.029,-0.288,-0.108,-10.875,+4.250,+35.750,-3, -2, -2, 1, -1, -2, -4, -2,0.17410973259599785,1.331212775215875
1503686434257,-0.145,+0.043,-0.618,-0.771,+1.053,-0.216,-0.174,-8.375,-7.875,+26.750,9, 21, 35, 20, 13, 7, 4, 0,0.17674933299261936,1.32848889838761
1503686434278,-0.146,+0.045,-0.616,-0.773,+0.996,-0.206,-0.210,+6.938,-16.812,+12.938,1, 1, 7, 6, 1, 4, 1, 0,0.17675017135706142,1.3235752039420179
1503686434301,-0.144,+0.048,-0.614,-0.775,+0.869,-0.289,-0.210,+13.562,-16.312,-0.812,0, -8, -10, -9, -3, -6, -6, -4,0.1705183953062159,1.3188744577979752
1503686434316,-0.144,+0.050,-0.613,-0.775,+0.848,-0.340,-0.174,+6.375,-8.000,-3.188,10, 9, 7, 1, 4, 1, -2, 3,0.16818653878595716,1.3162611094624048
1503686434338,-0.145,+0.051,-0.612,-0.776,+0.929,-0.345,-0.168,-7.125,-6.125,+0.938,-6, -6, -6, -5, -5, -5, 3, 3,0.16905197347075712,1.313824298187611
1503686434361,-0.146,+0.049,-0.610,-0.777,+0.947,-0.289,-0.175,-16.188,-15.812,-7.438,-3, -9, -12, -8, -16, -4, -5, -4,0.17365811927623032,1.3081656167581857
1503686434376,-0.145,+0.045,-0.606,-0.781,+0.915,-0.249,-0.232,-16.125,-26.438,-20.812,1, 4, 4, 5, 4, 4, 2, 0,0.17834475296739424,1.2976963981889422
1503686434401,-0.141,+0.041,-0.602,-0.785,+0.935,-0.211,-0.260,-10.312,-26.250,-31.375,-5, -1, -1, 4, 0, -1, 4, -3,0.17785840563423114,1.2874599141092795
1503686434425,-0.137,+0.038,-0.601,-0.787,+1.064,-0.198,-0.214,-4.500,-14.375,-29.062,-2, -2, -7, -6, -1, -2, -5, 1,0.17530420421410498,1.2851928508660853
1503686434436,-0.132,+0.034,-0.601,-0.788,+1.072,-0.187,-0.176,-1.875,-7.688,-32.438,0, -2, -3, 2, 2, 0, -1, 7,0.17190204417370755,1.2853877401942275
1503686434461,-0.129,+0.033,-0.598,-0.790,+0.997,-0.255,-0.185,+3.500,-24.625,-24.250,-1, -6, -5, -6, 3, 7, 2, -5,0.16877323795791874,1.277658814228014
1503686434481,-0.125,+0.031,-0.595,-0.794,+0.932,-0.199,-0.226,-3.312,-28.688,-28.188,4, 2, -4, -2, -1, -7, -11, -3,0.1656236397190267,1.2706542315395684
1503686434497,-0.122,+0.028,-0.591,-0.797,+0.987,-0.125,-0.301,-3.625,-24.062,-20.750,5, 24, 31, 16, 0, 5, 6, 9,0.16507635626061448,1.2605125334187737
1503686434518,-0.120,+0.027,-0.589,-0.799,+0.944,-0.149,-0.283,-1.500,-13.250,-11.750,-6, -10, -11, -10, -2, 1, -3, -10,0.16347298148107964,1.2556852667700946
1503686434541,-0.119,+0.024,-0.588,-0.800,+0.955,-0.123,-0.197,-13.438,-14.438,-9.938,5, -4, -3, -7, -3, -5, 5, 8,0.165571377416785,1.2532248586845205
1503686434557,-0.121,+0.023,-0.585,-0.802,+0.954,-0.202,-0.216,-13.750,-23.438,+0.250,-2, 2, 2, 0, -1, -5, -1, 1,0.1707264395484879,1.2456077392122595
1503686434578,-0.123,+0.021,-0.581,-0.804,+1.060,-0.182,-0.201,-20.812,-30.375,+5.438,0, 5, 13, 5, 8, 3, -2, -1,0.17708020821276366,1.2352560124460392
1503686435741,-0.083,+0.136,-0.509,-0.846,+0.846,-0.298,-0.403,+48.312,-36.250,+17.438,1, 1, -1, 1, -4, 0, -4, 5,0.00209432602573624,1.0831022733977476
1503686435764,-0.081,+0.145,-0.505,-0.847,+0.843,-0.336,-0.406,+47.500,-30.938,+18.625,-10, -11, -6, -6, 1, 2, -5, -7,-0.00977501283707648,1.076938105798146
1503686435779,-0.079,+0.154,-0.501,-0.848,+0.829,-0.348,-0.409,+44.812,-26.750,+18.125,-7, -1, -7, -2, -1, -6, 2, 2,-0.021615931360143163,1.0711065510815103
1503686435801,-0.077,+0.163,-0.498,-0.848,+0.814,-0.342,-0.424,+46.188,-20.562,+18.875,8, 10, 4, -1, -1, 6, 4, -1,-0.03395044092193244,1.0678353614306406
1503686435823,-0.075,+0.172,-0.496,-0.848,+0.829,-0.345,-0.420,+46.875,-13.625,+20.938,2, 1, 7, 6, 5, -1, 1, 1,-0.04667953491244384,1.0676507405542948
1503686435839,-0.074,+0.180,-0.494,-0.847,+0.847,-0.366,-0.400,+46.438,-9.750,+23.688,-3, -2, -5, -4, -5, -1, -3, -1,-0.05672470534794434,1.0665136921916922
1503686435861,-0.073,+0.189,-0.493,-0.846,+0.847,-0.381,-0.393,+47.750,-11.562,+22.750,3, -3, -1, 0, -2, -1, -2, 0,-0.06835179265097972,1.0690475849823247
1503686435883,-0.072,+0.198,-0.491,-0.845,+0.819,-0.396,-0.381,+46.312,-10.875,+21.500,-3, -3, -2, 2, 0, 2, 2, 6,-0.07967522768036192,1.0691735786613041
1503686435900,-0.070,+0.207,-0.490,-0.844,+0.798,-0.400,-0.361,+44.188,-8.750,+21.062,10, 2, -3, -2, 3, -2, -1, 5,-0.09337040460736916,1.0726546130380872
1503686435921,-0.070,+0.215,-0.489,-0.843,+0.812,-0.424,-0.371,+42.938,-4.500,+20.875,-3, -6, -5, -5, -4, 1, -2, -3,-0.10239749711924735,1.0753153271843523
1503686435943,-0.069,+0.222,-0.489,-0.841,+0.808,-0.439,-0.373,+40.562,-2.500,+18.750,0, -8, -2, -6, -8, 0, -4, -2,-0.11282398237976286,1.0799903066423562
1503686435966,-0.068,+0.229,-0.489,-0.839,+0.806,-0.437,-0.354,+38.125,+0.062,+15.750,-10, 1, 0, -3, 3, 4, -1, -2,-0.12338150907208843,1.0849272810019757
1503686435981,-0.066,+0.236,-0.489,-0.837,+0.806,-0.447,-0.350,+36.625,+0.250,+14.062,-1, -7, -3, -7, -3, 1, -3, -1,-0.1359050210941772,1.0903774565854747
1503686436004,-0.065,+0.242,-0.489,-0.836,+0.822,-0.467,-0.347,+34.438,-0.062,+12.312,7, -3, -4, -2, 2, -1, 5, 5,-0.14534562029462136,1.0954583727181204
1503686436019,-0.064,+0.248,-0.488,-0.834,+0.817,-0.483,-0.339,+30.875,-3.375,+12.000,4, 4, 3, 8, 6, -5, -8, 1,-0.15448659521672972,1.0973952330436063
1503686436041,-0.063,+0.253,-0.487,-0.833,+0.813,-0.493,-0.336,+27.062,-5.875,+12.250,-8, 1, -1, -1, -5, 5, -3, -3,-0.1622833492871092,1.099061279662404
1503686436073,-0.063,+0.258,-0.487,-0.832,+0.800,-0.497,-0.322,+24.000,-3.375,+11.812,6, -2, -3, -8, 2, 2, 7, 4,-0.16888936951312084,1.1034490117430882
1503686436079,-0.062,+0.262,-0.487,-0.831,+0.800,-0.504,-0.321,+22.000,+2.875,+10.375,-5, 1, 5, 7, -1, -2, -3, -4,-0.176098040366874,1.1072300694255262
1503686436103,-0.062,+0.265,-0.488,-0.829,+0.808,-0.518,-0.324,+17.375,+6.312,+9.812,4, 1, 2, -3, -7, -3, -2, -7,-0.18094416395276355,1.1121699851629834
1503686436123,-0.063,+0.268,-0.489,-0.828,+0.839,-0.522,-0.307,+12.188,+5.625,+10.062,-7, -5, 1, -4, -3, -2, -1, 0,-0.18386545740581556,1.1174045984116832
1503686436144,-0.064,+0.271,-0.489,-0.827,+0.825,-0.530,-0.300,+7.562,+2.438,+12.375,0, -2, -5, 1, 0, -4, 1, -2,-0.18621488934465513,1.1198181287756386
1503686436161,-0.065,+0.272,-0.490,-0.826,+0.795,-0.506,-0.300,+3.625,+5.938,+11.375,4, 6, 4, -4, 0, -1, 1, 2,-0.1865024518703336,1.123009292888126
1503686436183,-0.067,+0.273,-0.492,-0.824,+0.791,-0.511,-0.314,+1.938,+14.938,+8.438,7, 9, 8, 11, 2, 5, 2, 2,-0.1857469153606224,1.1283465976437779
1503686436209,-0.069,+0.274,-0.494,-0.822,+0.816,-0.529,-0.323,+0.812,+17.438,+7.375,-8, -10, 1, -4, 2, -2, -1, -5,-0.18502015051208315,1.133718762793111
1503686436221,-0.070,+0.274,-0.496,-0.821,+0.821,-0.508,-0.293,-1.750,+13.875,+5.000,2, 1, 1, -1, 2, 0, -3, 3,-0.1846107115592642,1.1387828031027811
1503686436243,-0.071,+0.273,-0.498,-0.820,+0.789,-0.493,-0.278,-5.625,+11.000,+0.938,-6, -6, -6, -7, -3, 4, 3, 5,-0.1828270080253503,1.1427650628342496
1503686436259,-0.071,+0.272,-0.499,-0.819,+0.762,-0.494,-0.297,-6.062,+12.375,-3.938,-3, -3, -5, -2, 0, -2, 1, 9,-0.1822394708517535,1.144106915768912
1503686436281,-0.071,+0.270,-0.502,-0.819,+0.774,-0.479,-0.313,-6.250,+15.062,-8.875,-3, -5, -2, -4, -1, -4, -7, -5,-0.18135075835282513,1.1506817869456534
1503686436304,-0.070,+0.268,-0.504,-0.818,+0.807,-0.497,-0.331,-4.812,+12.188,-9.938,7, 11, 3, -1, -2, 0, -6, -2,-0.1818029284964624,1.154131130764611
1503686436319,-0.070,+0.267,-0.505,-0.818,+0.815,-0.501,-0.321,-5.312,+5.125,-8.250,-8, -6, -2, 2, -2, -7, 3, -11,-0.18103741369689427,1.155970860373069
1503686436341,-0.070,+0.266,-0.505,-0.818,+0.795,-0.492,-0.307,-6.438,+1.125,-5.938,-1, -3, -7, -5, -3, -2, -7, 3,-0.17966311935742596,1.1549051111102526
1503686436371,-0.070,+0.264,-0.505,-0.819,+0.781,-0.503,-0.301,-7.562,+2.625,-4.375,-3, -6, -1, 2, -1, -3, -1, -4,-0.17676580709746106,1.1532647139006762
1503686436386,-0.071,+0.263,-0.506,-0.819,+0.794,-0.510,-0.308,-11.062,+5.000,-2.688,2, -3, -1, -2, -3, 1, 6, 1,-0.17419291511148238,1.1548741165049377
1503686436401,-0.072,+0.261,-0.506,-0.819,+0.811,-0.488,-0.317,-14.062,+5.750,-0.250,-3, 1, 1, 8, 6, 1, 2, -1,-0.16966508787325232,1.152548779416297
1503686436423,-0.074,+0.259,-0.507,-0.819,+0.812,-0.467,-0.322,-16.000,+4.688,+3.375,5, 4, 3, -1, -2, 2, -1, 7,-0.16393404550374469,1.1529089166114685
1503686436439,-0.076,+0.257,-0.507,-0.820,+0.803,-0.454,-0.322,-16.438,+4.812,+5.375,-4, -1, -2, -3, -3, -1, 0, 3,-0.15745039310991832,1.1508670651836077
1503686436461,-0.078,+0.255,-0.507,-0.820,+0.805,-0.457,-0.321,-14.250,+4.375,+6.062,5, 2, 4, 0, 2, 3, 2, -1,-0.15114974126207564,1.1483763000965437
1503686436483,-0.080,+0.253,-0.507,-0.820,+0.802,-0.473,-0.330,-13.500,+3.125,+6.312,-6, -2, 3, 0, 2, -1, -2, -7,-0.14486335519764432,1.145910992848497
1503686436499,-0.081,+0.252,-0.506,-0.821,+0.800,-0.477,-0.330,-12.562,+1.250,+5.875,-4, -4, -6, -12, 0, -5, 0, -4,-0.1409662788180642,1.1422650555823353
1503686436521,-0.083,+0.251,-0.506,-0.821,+0.810,-0.479,-0.326,-13.938,-2.000,+5.312,-8, -6, -6, -5, -6, 2, 1, 3,-0.13601075115642566,1.1408081477341165
1503686436544,-0.085,+0.249,-0.505,-0.822,+0.809,-0.478,-0.310,-16.438,-2.562,+3.500,3, -2, -5, 1, 2, 1, -4, -3,-0.1289882251197145,1.135977928939472
1503686436559,-0.086,+0.247,-0.505,-0.823,+0.801,-0.481,-0.298,-17.750,-2.500,+2.312,0, -1, 1, -4, 0, 0, 4, 4,-0.12437238973433827,1.1343247888658392
1503686436581,-0.088,+0.244,-0.505,-0.823,+0.804,-0.481,-0.290,-20.312,+1.562,-0.250,3, -3, -6, -4, -7, -2, 0, 1,-0.11685290614647997,1.131036955702217
1503686436603,-0.089,+0.241,-0.506,-0.824,+0.805,-0.494,-0.302,-22.188,+4.750,-3.562,-5, -2, 1, -3, -5, -5, -7, -7,-0.1115402450338521,1.131434714662538
1503686436619,-0.091,+0.237,-0.506,-0.824,+0.817,-0.490,-0.313,-25.875,+5.625,-8.312,1, 2, 3, 2, 0, -1, -3, -1,-0.10281151110305868,1.127366717947534
1503686436641,-0.091,+0.232,-0.507,-0.825,+0.819,-0.476,-0.322,-29.750,+0.812,-11.375,0, -3, 3, 2, 2, 1, 1, -4,-0.09686305026175347,1.1263735006789641
1503686436663,-0.092,+0.226,-0.507,-0.827,+0.818,-0.457,-0.326,-35.438,-2.062,-13.938,-5, 0, -3, -5, -7, -3, 4, 3,-0.08718251853825804,1.1220606089687992
1503686436679,-0.093,+0.220,-0.506,-0.829,+0.808,-0.454,-0.326,-37.250,-5.312,-14.438,0, -5, -8, 5, 1, 1, -2, 0,-0.07710818319993937,1.1150854105379144
1503686436704,-0.095,+0.213,-0.505,-0.831,+0.778,-0.476,-0.301,-44.438,-5.250,-15.625,4, -2, 3, 2, 1, 3, 0, 4,-0.06413904529339727,1.107357041526161
1503686436723,-0.097,+0.205,-0.506,-0.832,+0.746,-0.462,-0.296,-52.812,+5.125,-18.938,-6, -1, 1, 0, -3, 1, -1, -9,-0.05128745210486601,1.1043891851668355
1503686436740,-0.100,+0.195,-0.508,-0.833,+0.706,-0.422,-0.332,-57.188,+18.375,-21.062,-3, -1, 4, 0, 4, -2, 3, 3,-0.03485506352635445,1.1030369533472917
1503686436761,-0.103,+0.185,-0.511,-0.833,+0.701,-0.424,-0.351,-58.312,+28.312,-20.375,-1, 4, -1, -3, -1, -4, -4, 2,-0.01919064152464334,1.10449612594309
1503686436783,-0.107,+0.175,-0.515,-0.833,+0.717,-0.418,-0.377,-60.188,+34.250,-22.500,4, 4, -3, -5, -2, -2, -2, -10,-0.0021706529850780694,1.1090712480938678
1503686436799,-0.109,+0.164,-0.518,-0.832,+0.828,-0.378,-0.392,-56.375,+29.375,-27.250,3, 2, 0, 1, 1, 2, 2, 12,0.012435859237318537,1.1105823305587872
1503686436821,-0.109,+0.154,-0.520,-0.833,+0.886,-0.378,-0.386,-50.688,+10.938,-29.188,1, -4, 2, 1, -2, -1, 0, -2,0.02307284444519065,1.1115833681860527
1503686436843,-0.110,+0.144,-0.519,-0.835,+0.868,-0.409,-0.357,-53.812,-3.500,-30.188,-4, -2, -1, 1, 1, 1, -2, 0,0.036617441172788395,1.1049658479644706
1503686436859,-0.110,+0.133,-0.520,-0.837,+0.812,-0.387,-0.367,-61.125,+5.438,-36.250,4, 0, 0, -4, 2, 3, 2, 3,0.04868430769081919,1.1040987743013189
1503686436881,-0.111,+0.121,-0.521,-0.838,+0.795,-0.312,-0.392,-62.500,+16.562,-38.875,1, -5, -1, -4, -1, -4, -2, -1,0.06328660292645218,1.102745076188649
1503686436906,-0.110,+0.108,-0.524,-0.837,+0.957,-0.233,-0.456,-57.688,+25.250,-39.000,-5, -3, -8, 3, 1, 2, 4, -7,0.07435932243067155,1.1063878312643167
1503686436919,-0.107,+0.095,-0.529,-0.837,+1.071,-0.173,-0.485,-46.750,+31.750,-45.750,-2, -3, 0, -2, -3, 2, -1, -5,0.08178146017685725,1.116754962918661
1503686436943,-0.104,+0.084,-0.534,-0.835,+1.054,-0.270,-0.384,-39.750,+32.625,-52.562,-1, -1, 2, 1, -1, -5, -4, -1,0.08686149367738877,1.1270870047717765
1503686436963,-0.101,+0.074,-0.535,-0.835,+0.979,-0.282,-0.315,-43.625,+2.500,-46.562,0, 1, 1, -1, -2, -2, -3, -4,0.09212518089183348,1.1279894423015395
1503686436980,-0.100,+0.065,-0.532,-0.838,+0.938,-0.210,-0.402,-43.250,-19.312,-35.312,-1, 4, 8, 11, 5, 4, -1, -1,0.10097801373206398,1.1198053766992568
1503686437002,-0.099,+0.056,-0.525,-0.844,+0.980,-0.144,-0.496,-48.062,-44.500,-26.375,-3, 1, 0, 0, 1, -1, 1, -2,0.11073406238262563,1.1026593098100843
1503686437023,-0.098,+0.048,-0.521,-0.847,+0.877,-0.117,-0.426,-37.000,-24.688,-28.250,-1, -3, 0, 0, -3, 1, -2, 1,0.11827139100813337,1.0926630148947678
1503686437042,-0.098,+0.042,-0.520,-0.848,+0.927,-0.142,-0.432,-31.000,-3.125,-17.500,-1, -2, -2, -6, -2, -4, -3, -2,0.12472776045264537,1.0900576995988625
1503686437061,-0.097,+0.037,-0.520,-0.848,+0.945,-0.102,-0.427,-24.375,+0.562,-13.250,-3, -3, 2, 1, 3, -1, 0, -5,0.12810322432443433,1.0898417720660425
1503686437083,-0.097,+0.033,-0.519,-0.849,+0.930,-0.074,-0.427,-18.438,-5.062,-10.188,0, -5, -4, -7, -1, -2, -1, 1,0.13246936964746406,1.0875298989842905
1503686437099,-0.096,+0.030,-0.517,-0.850,+0.940,-0.109,-0.424,-11.938,-9.188,-9.438,2, 4, 1, 4, 3, -1, 5, -1,0.1340998357046341,1.082671073985986
1503686437121,-0.096,+0.028,-0.516,-0.851,+0.921,-0.155,-0.412,-10.688,-8.375,-6.438,1, -3, -2, 1, -2, 2, -4, 2,0.1363887791918106,1.0804851403164641
1503686437145,-0.096,+0.026,-0.515,-0.851,+0.892,-0.156,-0.406,-12.438,-6.000,-3.688,0, 3, -2, -3, -1, 1, 2, 0,0.13847729429312575,1.077826521258657
1503686437159,-0.097,+0.025,-0.514,-0.852,+0.897,-0.147,-0.415,-14.062,-6.688,-1.000,2, 0, 1, 4, -2, -2, -3, 2,0.14149471787229656,1.075649943318563
1503686437182,-0.098,+0.023,-0.513,-0.852,+0.927,-0.132,-0.432,-14.062,-6.625,+0.250,0, 5, 3, 0, 0, -1, -4, -9,0.14532829018499366,1.0729993904033934
1503686437203,-0.099,+0.021,-0.512,-0.853,+0.933,-0.119,-0.439,-10.000,-7.625,-1.500,2, 0, 1, 0, 2, 1, 2, 0,0.1493517973017805,1.070865788677701
1503686437219,-0.099,+0.021,-0.511,-0.854,+0.910,-0.126,-0.428,-5.812,-8.875,-3.000,-4, -5, -1, 0, -5, -4, -8, -13,0.1495913827611988,1.0687228485978109
1503686437242,-0.099,+0.020,-0.509,-0.855,+0.874,-0.124,-0.432,-4.500,-9.625,-1.812,1, -3, -1, 2, -3, -2, -2, 0,0.15087639624736723,1.0639730339497921
1503686437263,-0.099,+0.020,-0.508,-0.856,+0.868,-0.125,-0.444,-3.875,-8.688,+0.000,-6, -3, 0, -5, 1, 4, 2, 2,0.1511138557204604,1.0618394891118168
1503686437280,-0.099,+0.020,-0.507,-0.856,+0.879,-0.125,-0.454,-3.312,-6.375,+1.562,-5, -7, -6, -2, -1, -1, 1, 4,0.15115376319079005,1.0592086122097195
1503686437301,-0.099,+0.020,-0.506,-0.857,+0.893,-0.125,-0.452,-1.375,-4.625,+1.062,-1, -1, 0, -3, -2, -2, -3, 1,0.15139120260410446,1.057080739085417
1503686437323,-0.099,+0.020,-0.506,-0.857,+0.898,-0.134,-0.449,+0.500,-4.375,-0.750,2, 0, -2, -2, -1, 0, 4, -1,0.15139120260410446,1.057080739085417
1503686437341,-0.099,+0.020,-0.505,-0.857,+0.882,-0.138,-0.450,+0.938,-3.938,-1.375,1, 7, 7, 6, 3, 1, 1, 0,0.15143110670018667,1.0544532052563533
1503686437361,-0.098,+0.020,-0.504,-0.858,+0.865,-0.134,-0.458,+0.125,-2.750,-2.125,-4, -9, -5, -9, -2, -4, 0, 3,0.14989693873543974,1.0523509762662433
1503686437383,-0.098,+0.020,-0.504,-0.858,+0.858,-0.138,-0.470,-1.375,+0.875,-2.500,5, 3, -1, 3, 0, -3, 0, -2,0.14989693873543974,1.0523509762662433
1503686437399,-0.098,+0.020,-0.504,-0.858,+0.856,-0.143,-0.469,-1.688,+3.938,-0.625,-3, -3, -2, 2, -1, 1, -1, -2,0.14989693873543974,1.0523509762662433
1503686437422,-0.098,+0.020,-0.505,-0.857,+0.870,-0.138,-0.461,-0.750,+6.312,-0.812,-1, 3, -2, -2, 0, 1, 0, -1,0.14966148263779325,1.054473136517053
1503686437446,-0.097,+0.020,-0.507,-0.857,+0.885,-0.130,-0.458,+1.062,+10.062,-2.062,0, -3, -4, 3, 1, -2, -4, -5,0.14781310183514756,1.059748597900894
1503686437459,-0.097,+0.020,-0.508,-0.856,+0.901,-0.122,-0.440,+2.875,+10.812,-2.250,3, 12, 12, 0, -2, 0, -2, 1,0.14757958828334505,1.0618788061457596
1503686437482,-0.096,+0.021,-0.510,-0.855,+0.892,-0.134,-0.441,+3.312,+10.375,-1.938,3, 1, -2, 2, -2, -2, 2, 5,0.14453620497420377,1.0666445567712683
1503686437503,-0.096,+0.021,-0.511,-0.854,+0.881,-0.145,-0.432,+2.500,+11.438,-2.062,0, 3, 3, 2, 2, 2, 1, 0,0.14430253863432163,1.0687840339704917
1503686437521,-0.095,+0.021,-0.513,-0.853,+0.885,-0.135,-0.433,+1.188,+12.312,-2.062,-1, 0, 0, -4, -1, 0, 1, -4,0.14226805915335172,1.0735871653588178
1503686437547,-0.095,+0.021,-0.515,-0.852,+0.887,-0.126,-0.439,+1.500,+14.375,-2.188,-6, -6, -1, -1, -2, -2, 0, 1,0.14199437576053428,1.0783788939055006
1503686437563,-0.094,+0.021,-0.517,-0.850,+0.894,-0.115,-0.431,+3.812,+16.062,-3.125,0, -4, -5, -5, -1, -3, 0, 1,0.13977896995230038,1.0827104281154698
1503686437583,-0.092,+0.021,-0.520,-0.849,+0.894,-0.111,-0.433,+6.688,+16.875,-3.688,-3, 0, 1, 1, -1, -4, -1, -4,0.13596848739940665,1.0902138015450575
1503686437602,-0.091,+0.022,-0.523,-0.847,+0.904,-0.118,-0.417,+9.562,+19.125,-4.312,-3, -5, -2, -4, -1, 0, -1, -4,0.13269753877832433,1.097225265739052
1503686437624,-0.089,+0.023,-0.526,-0.846,+0.914,-0.131,-0.397,+11.625,+19.250,-4.438,-1, 0, -4, 3, -4, 0, -5, 1,0.12786334285985373,1.1047666381699568
1503686437639,-0.087,+0.025,-0.529,-0.844,+0.912,-0.136,-0.393,+12.438,+20.188,-4.062,-3, 1, 2, 1, 0, 1, 2, -1,0.12180609153884167,1.1118710272407186
1503686437662,-0.086,+0.026,-0.532,-0.842,+0.910,-0.142,-0.384,+12.250,+19.688,-3.000,4, -2, -1, -7, 3, -1, -4, -3,0.11852432034266117,1.1189815235139777
1503686437686,-0.084,+0.027,-0.535,-0.840,+0.907,-0.142,-0.384,+11.688,+20.188,-4.062,2, -4, -9, -1, -5, 2, 2, -2,0.11351496130185698,1.1261474340233946
1503686437701,-0.082,+0.028,-0.538,-0.839,+0.907,-0.132,-0.383,+11.375,+19.750,-6.000,-4, -5, 0, -2, 1, -3, -2, -1,0.10867646604759544,1.1338062040397485
1503686437722,-0.080,+0.029,-0.541,-0.837,+0.896,-0.127,-0.384,+11.812,+21.938,-7.938,3, -1, 1, -1, -3, 1, -3, -1,0.10367577243594764,1.1410336655282993
1503686437745,-0.078,+0.030,-0.545,-0.835,+0.908,-0.132,-0.364,+11.875,+23.938,-7.688,0, -1, -1, 2, 5, -3, 4, 0,0.09862104033037508,1.1509879037940018
1503686437760,-0.076,+0.031,-0.548,-0.832,+0.930,-0.148,-0.337,+11.375,+25.062,-6.562,-3, -2, 0, 0, -3, 3, -2, 2,0.09347797438997811,1.157842433697693
1503686437782,-0.074,+0.032,-0.552,-0.830,+0.958,-0.146,-0.312,+9.188,+23.250,-5.812,-3, 0, 4, 3, 2, 1, 0, -1,0.08843338685669498,1.167884735941381
1503686437804,-0.073,+0.032,-0.555,-0.828,+0.968,-0.136,-0.321,+6.938,+18.438,-5.875,-6, -3, -2, 0, 1, -3, -1, -2,0.08625211798425131,1.175168096583246
1503686437820,-0.071,+0.032,-0.558,-0.826,+0.966,-0.133,-0.319,+7.062,+14.188,-6.562,-3, 4, 4, 1, 0, 3, -2, 0,0.08239475204465573,1.1824996827405239
1503686437843,-0.070,+0.033,-0.560,-0.825,+0.953,-0.132,-0.312,+6.812,+12.688,-5.812,-2, 0, -3, 0, 1, -3, 1, -4,0.07932535196657445,1.1876017559144785
1503686437864,-0.069,+0.033,-0.562,-0.824,+0.938,-0.131,-0.314,+5.500,+13.000,-3.500,6, 2, 0, 0, -1, -1, -2, 0,0.07737230034241901,1.192644460311632
1503686437882,-0.068,+0.034,-0.564,-0.823,+0.928,-0.121,-0.326,+4.812,+14.312,-1.562,3, 0, 2, 4, 0, -2, 0, -2,0.07429946203087137,1.1977707259348551
1503686437902,-0.067,+0.034,-0.566,-0.821,+0.942,-0.117,-0.330,+5.938,+14.938,-1.062,-2, 1, 0, -1, -3, 1, -2, -3,0.07221694316480247,1.202419667959514
1503686437924,-0.066,+0.035,-0.568,-0.820,+0.959,-0.109,-0.316,+8.438,+17.062,-0.812,3, -2, 3, -1, 2, -2, 0, 2,0.06914260753975839,1.207573900273152
1503686437946,-0.064,+0.036,-0.571,-0.818,+0.949,-0.105,-0.314,+12.188,+17.062,-2.375,-1, -2, 0, 0, -1, 1, -2, -3,0.06419691614863891,1.215098697789823
1503686437962,-0.062,+0.038,-0.573,-0.816,+0.941,-0.111,-0.318,+15.000,+18.625,-4.250,-2, 1, -5, -5, -8, -2, -3, 1,0.05818631875770345,1.2200162679930213
1503686437984,-0.060,+0.040,-0.576,-0.815,+0.940,-0.136,-0.288,+15.938,+16.125,-5.688,4, 0, 2, -3, -2, -3, 0, -2,0.0522160330946668,1.2281066385267874
1503686438000,-0.058,+0.041,-0.578,-0.813,+0.960,-0.153,-0.260,+15.062,+15.625,-5.750,-1, 0, -5, -3, -5, -1, 3, 2,0.04735473779134634,1.232983642691705
1503686438022,-0.056,+0.043,-0.580,-0.811,+0.971,-0.146,-0.262,+12.750,+14.438,-6.188,2, 4, 5, 5, 2, 1, -2, 1,0.04134083559997925,1.2380087522051972
1503686438051,-0.053,+0.044,-0.582,-0.810,+0.953,-0.125,-0.275,+12.875,+11.188,-9.500,-3, -7, -6, -7, -2, -2, -3, -3,0.03496166976335538,1.2433443295210176
1503686438061,-0.051,+0.045,-0.584,-0.809,+0.934,-0.139,-0.280,+15.312,+15.312,-7.500,2, -4, -3, -3, -3, 2, 0, 0,0.030228549121450714,1.2486655253580725
1503686438084,-0.048,+0.047,-0.586,-0.807,+0.957,-0.145,-0.236,+14.562,+10.312,-7.750,-1, 1, -1, -1, 1, -1, -2, 0,0.02258807220087172,1.2538090912914
1503686438104,-0.046,+0.047,-0.588,-0.806,+0.971,-0.153,-0.208,+8.750,+8.625,-9.375,0, 0, 1, 3, 0, -2, 1, -1,0.01904243495434239,1.2590145300186688
1503686438120,-0.045,+0.047,-0.590,-0.805,+0.981,-0.155,-0.217,+3.938,+10.250,-6.875,6, 12, 13, 6, 2, 1, -3, 1,0.017133423300722084,1.2641970555879727
1503686438142,-0.043,+0.047,-0.591,-0.804,+0.996,-0.122,-0.229,+1.938,+5.500,-7.812,-4, -2, -6, -1, -2, -3, -4, -8,0.013700341684359215,1.266654968818749
1503686438164,-0.042,+0.047,-0.591,-0.804,+0.994,-0.116,-0.246,+3.125,+2.312,-7.938,-5, -6, -7, 0, 0, 0, -2, -14,0.012077384312413212,1.2666833494000054
1503686438182,-0.040,+0.047,-0.592,-0.804,+0.984,-0.114,-0.250,+4.062,+2.062,-7.500,9, 24, 24, 11, 3, 1, 2, 3,0.008738348006365245,1.2694985673678187
1503686438202,-0.039,+0.047,-0.593,-0.803,+0.980,-0.092,-0.250,+4.500,+4.250,-4.250,-8, -9, -11, -10, -5, -2, 2, 1,0.006943689155230952,1.2719327120770674
1503686438224,-0.038,+0.047,-0.592,-0.804,+0.969,-0.098,-0.252,+7.688,-5.688,-1.938,0, -7, -3, -3, 2, 0, 2, 3,0.005496099566658519,1.2695547467545725
1503686438239,-0.036,+0.049,-0.590,-0.805,+0.929,-0.132,-0.276,+8.188,-10.750,-4.000,-8, -7, -11, -3, 0, -2, -6, -12,0.00014104287005282758,1.264779402684522
1503686438262,-0.034,+0.049,-0.590,-0.805,+0.896,-0.106,-0.284,+6.938,+1.438,-10.062,1, 2, 2, 1, -5, 0, 2, 6,-0.0031020581623889846,1.2648388863379187
1503686438284,-0.032,+0.049,-0.591,-0.804,+0.940,-0.096,-0.296,+9.688,+13.125,-5.438,5, 2, -5, 0, -3, -2, -1, -5,-0.006506478187333271,1.2672974516891595
1503686438299,-0.030,+0.050,-0.593,-0.803,+0.994,-0.085,-0.260,+13.562,+11.500,-6.000,4, 1, 2, 1, 0, 1, 1, 0,-0.011195665919892383,1.2726901860184425
1503686438322,-0.027,+0.053,-0.595,-0.801,+0.994,-0.118,-0.234,+19.188,+14.938,-5.000,4, 4, 9, 6, 1, 2, 0, 7,-0.019954568312246602,1.2781490608248225
1503686438344,-0.024,+0.054,-0.596,-0.800,+0.988,-0.101,-0.234,+18.562,+6.812,-8.312,-6, -7, -7, -2, 6, -1, -2, 0,-0.026144677399096403,1.2808513123261125
1503686438359,-0.021,+0.056,-0.598,-0.800,+0.960,-0.118,-0.218,+15.000,+5.938,-9.000,-4, -4, 1, -4, -3, -1, -2, -5,-0.03360383798524502,1.28686768478793
1503686438383,-0.019,+0.057,-0.599,-0.799,+0.946,-0.137,-0.217,+14.500,+9.062,-5.750,0, 0, 0, -4, -3, -3, 2, 1,-0.03818123812446107,1.289563437640382
1503686438404,-0.018,+0.059,-0.602,-0.796,+0.994,-0.135,-0.173,+9.500,+17.188,-5.250,-4, -2, -5, -3, 5, 1, -1, -8,-0.04267905272086473,1.2973249356747936
1503686438420,-0.017,+0.059,-0.604,-0.795,+1.018,-0.116,-0.159,+1.875,+11.188,-3.562,2, 3, 7, 3, -1, -3, 1, 0,-0.04454862550003592,1.302567243635651
1503686438442,-0.016,+0.059,-0.605,-0.794,+1.026,-0.094,-0.174,+0.438,+1.250,-2.250,5, 1, 3, -2, -1, 0, 1, 0,-0.04629515511952072,1.3050462927229745
1503686438464,-0.015,+0.059,-0.604,-0.795,+0.969,-0.080,-0.224,+4.750,-6.812,-5.062,-3, -2, -4, -6, -6, -3, -3, 3,-0.04773981570360871,1.3026301592120686
1503686438479,-0.013,+0.059,-0.603,-0.796,+0.955,-0.105,-0.191,+5.625,-11.188,-4.562,-2, -5, -4, -3, -4, -4, 0, 1,-0.05078534595831498,1.3002504224307407
1503686438502,-0.012,+0.060,-0.600,-0.797,+0.979,-0.110,-0.249,+5.062,-14.688,-2.312,-2, 1, 4, 4, 2, 0, -4, 0,-0.05322058756816442,1.2925409258585554
1503686438524,-0.011,+0.060,-0.600,-0.798,+0.992,-0.094,-0.217,+4.812,-6.000,-2.438,1, -1, -2, 0, 1, 0, -1, 3,-0.05479729677748423,1.2929055323941339
1503686438539,-0.011,+0.061,-0.600,-0.798,+1.030,-0.112,-0.220,+3.500,-1.062,+6.750,-7, -8, -6, -6, -4, -2, -4, 1,-0.05601621620688381,1.2931335028567732
1503686438562,-0.012,+0.063,-0.600,-0.797,+0.982,-0.101,-0.226,+2.750,+3.062,+10.750,-3, 2, 2, 4, 1, 3, 1, -5,-0.056878973560806165,1.2932357031737665
1503686438585,-0.014,+0.066,-0.598,-0.798,+0.902,-0.125,-0.297,+6.062,-5.312,+18.750,-12, -5, -4, -5, -4, -3, -3, -10,-0.0570499729782215,1.288696174182001
1503686438599,-0.016,+0.067,-0.599,-0.798,+0.927,-0.117,-0.228,-1.375,+6.188,+11.625,3, 0, -4, -4, -1, 0, 2, 0,-0.05519823534732157,1.2916356324897007
1503686438622,-0.017,+0.068,-0.599,-0.798,+0.925,-0.139,-0.261,-1.750,+1.375,+6.875,-6, 2, 5, 6, 2, 1, 0, -4,-0.05481619381121594,1.2918505993437952
1503686438644,-0.017,+0.068,-0.599,-0.798,+0.918,-0.131,-0.262,+0.562,+3.312,-1.938,-4, -2, -2, -3, -2, -2, 0, -4,-0.05481619381121594,1.2918505993437952
1503686438660,-0.016,+0.068,-0.599,-0.798,+0.933,-0.135,-0.249,+2.000,+5.125,-7.938,7, -6, -9, -2, 1, -3, -2, 1,-0.05641929758299047,1.2918883414629603
1503686438685,-0.014,+0.067,-0.600,-0.797,+0.969,-0.126,-0.238,+1.938,+9.000,-11.250,-3, -1, 1, -4, -1, 1, 0, 2,-0.058566341740827116,1.2941431882008523
1503686438704,-0.012,+0.067,-0.602,-0.796,+1.000,-0.113,-0.215,+5.250,+11.250,-12.000,4, 26, 17, 12, 1, -3, -3, -4,-0.06205999083937824,1.2994197894419086
1503686438720,-0.009,+0.066,-0.603,-0.795,+1.030,-0.093,-0.210,+4.812,+4.625,-10.938,-7, -18, -15, -8, -3, 0, -3, 2,-0.06577551322568516,1.3017167117115858
1503686438742,-0.008,+0.066,-0.604,-0.794,+1.009,-0.104,-0.183,+6.688,+3.250,-6.875,4, 2, 3, 0, 1, -1, 3, 3,-0.06751898690236424,1.3041974044968938
1503686438764,-0.006,+0.067,-0.604,-0.795,+0.981,-0.099,-0.212,+5.562,-4.812,-4.062,1, -1, 0, 1, 3, 0, 2, 0,-0.07192375637830575,1.3048421799898573
1503686438786,-0.005,+0.067,-0.603,-0.795,+0.942,-0.098,-0.192,+3.688,-1.875,-3.750,4, 0, -2, -4, -3, -4, -2, -3,-0.07338368759689273,1.3021133243258356
1503686438802,-0.005,+0.067,-0.604,-0.794,+0.971,-0.108,-0.198,-1.625,+6.562,+0.000,5, -1, -4, 0, 0, 3, 1, 5,-0.07352821681099524,1.3045580494723183
1503686438824,-0.006,+0.067,-0.605,-0.793,+1.001,-0.100,-0.191,-3.500,+4.500,+2.250,2, 0, 0, -1, -1, -3, -1, -7,-0.07208237414160591,1.3069717424416099
1503686438839,-0.006,+0.067,-0.606,-0.793,+1.001,-0.118,-0.175,-3.438,+0.375,+2.750,-13, -7, -3, -1, 0, -1, 0, 1,-0.07221689522034884,1.3097401696421205
1503686438861,-0.007,+0.067,-0.604,-0.794,+0.997,-0.123,-0.189,-2.875,-12.312,+1.312,1, -2, -5, -4, -2, -4, -1, 0,-0.07034323677803378,1.304487056695939
1503686438886,-0.006,+0.066,-0.602,-0.796,+0.994,-0.119,-0.207,-2.312,-18.938,-3.312,5, 4, 4, 5, -2, -1, 1, -1,-0.07041493923741134,1.2993820321573262
1503686438899,-0.005,+0.066,-0.599,-0.798,+0.981,-0.102,-0.225,-2.500,-19.750,-4.688,-4, -2, 0, 0, -4, -15, -7, -1,-0.07159380545260911,1.2917898046718668
1503686438930,-0.005,+0.065,-0.597,-0.800,+0.953,-0.091,-0.253,-2.375,-17.750,-3.188,2, -2, -1, -3, -2, -2, 0, -3,-0.07009174793530625,1.286691763074711
1503686438943,-0.004,+0.065,-0.595,-0.801,+0.932,-0.091,-0.258,-1.625,-12.688,-2.125,3, 2, -4, -3, -1, 3, 4, 5,-0.07142715922130698,1.2815568898208933
1503686438966,-0.004,+0.064,-0.593,-0.802,+0.969,-0.098,-0.244,-1.000,-9.562,-1.938,-5, -3, 0, 2, 0, 2, 1, -3,-0.06994989631044338,1.2761463706970941
1503686438989,-0.004,+0.064,-0.593,-0.803,+1.010,-0.109,-0.225,-2.375,-7.625,+0.812,-2, -2, -1, -3, 3, 1, -4, -3,-0.06994186937253097,1.2764926574513682
1503686439003,-0.004,+0.064,-0.592,-0.804,+1.001,-0.101,-0.249,-2.562,-7.062,+2.938,-4, -4, -2, -2, -4, -5, 0, -4,-0.06980541004761542,1.2740898809212677
1503686439026,-0.005,+0.065,-0.590,-0.805,+0.985,-0.111,-0.297,-2.000,-7.500,+3.062,-4, -1, -3, 1, -3, 0, -2, -4,-0.06912820208874232,1.2691506002870896
1503686439041,-0.005,+0.065,-0.590,-0.805,+0.898,-0.098,-0.280,-1.000,-0.750,+2.375,-9, -6, -6, -4, 0, -2, -5, -4,-0.06912820208874232,1.2691506002870896
1503686439063,-0.006,+0.065,-0.590,-0.805,+0.907,-0.121,-0.255,-3.250,+3.125,+2.062,4, 1, 1, -4, -7, -6, -1, -2,-0.06751346113716938,1.2691117456725325
1503686439087,-0.006,+0.065,-0.590,-0.805,+0.971,-0.119,-0.245,-5.188,+1.500,+1.250,-8, 4, 0, -2, -3, -3, -13, -14,-0.06751346113716938,1.2691117456725325
1503686439101,-0.006,+0.064,-0.590,-0.805,+1.017,-0.090,-0.249,-4.375,-0.812,-2.938,-9, -4, 5, 2, 0, 0, -6, -15,-0.06631143605607437,1.2688675223795998
1503686439123,-0.005,+0.063,-0.590,-0.805,+0.970,-0.099,-0.270,+1.875,-2.188,-7.625,-4, -1, -5, -1, 2, 4, 1, -7,-0.06672458866952316,1.2686648947287313
1503686439146,-0.003,+0.063,-0.590,-0.805,+0.937,-0.097,-0.257,+3.812,+1.062,-9.750,2, -7, -3, -3, 1, 1, 5, 12,-0.06995312907848168,1.2687402898127313
1503686439161,-0.002,+0.063,-0.591,-0.804,+0.971,-0.104,-0.224,+0.625,+4.750,-4.500,6, 1, 0, -2, -3, 0, 6, 5,-0.07169757921100946,1.2711738457012642
1503686440383,-0.030,+0.155,-0.523,-0.838,+0.896,-0.283,-0.382,+35.688,-14.938,+32.000,-3, 0, 2, -2, -3, -1, -2, -5,-0.1171789682137987,1.1340022790192636
1503686440406,-0.031,+0.163,-0.520,-0.838,+0.875,-0.283,-0.383,+35.500,-12.375,+34.125,-1, -4, -4, -2, 1, 1, 0, 0,-0.12377821311399752,1.1302974927005895
1503686440422,-0.033,+0.170,-0.518,-0.838,+0.867,-0.299,-0.377,+33.188,-7.500,+33.312,-1, 0, 3, 3, -2, 0, -3, -3,-0.12781971587154609,1.1287755057233688
1503686440444,-0.035,+0.179,-0.515,-0.838,+0.866,-0.328,-0.361,+31.500,-13.438,+40.375,2, -1, 0, 1, 0, -3, 0, 1,-0.13386447775031704,1.1259788961331796
1503686440466,-0.037,+0.187,-0.511,-0.838,+0.859,-0.341,-0.371,+31.062,-18.188,+38.125,-4, -3, 0, -2, 1, -1, -2, -4,-0.13833080378916188,1.1200279836125941
1503686440481,-0.039,+0.194,-0.508,-0.838,+0.811,-0.354,-0.356,+27.375,-13.625,+35.000,3, 1, 0, -1, -1, -1, -1, 0,-0.14197209020036322,1.1163145383545345
1503686440503,-0.042,+0.202,-0.506,-0.837,+0.756,-0.378,-0.365,+31.250,-2.938,+36.312,1, -2, -1, -1, 0, 1, 2, 0,-0.14555984019725426,1.115586086530012
1503686440526,-0.045,+0.210,-0.506,-0.835,+0.765,-0.404,-0.361,+31.562,+8.750,+38.750,0, -1, -3, -1, -2, -1, 1, 0,-0.1501906339511589,1.1201423411762816
1503686440541,-0.049,+0.218,-0.507,-0.832,+0.806,-0.420,-0.339,+31.000,+17.625,+39.750,-1, -2, -1, 0, 2, 1, 1, 1,-0.15376843485937716,1.1270810101114033
1503686440565,-0.052,+0.226,-0.509,-0.829,+0.847,-0.436,-0.334,+31.938,+19.000,+39.625,2, 0, 1, 0, -1, -1, 4, 2,-0.15981490192118714,1.137352514340967
1503686440586,-0.055,+0.234,-0.509,-0.826,+0.857,-0.456,-0.331,+32.875,+11.812,+38.562,1, 3, 6, 7, 3, 0, -5, -3,-0.1650889045515779,1.142326766117126
1503686440602,-0.058,+0.242,-0.508,-0.824,+0.840,-0.473,-0.312,+32.875,+2.875,+37.125,5, 3, 5, -2, 2, 0, 0, -1,-0.16988015326079162,1.1452286479601659
1503686440623,-0.060,+0.250,-0.507,-0.823,+0.825,-0.488,-0.297,+33.812,-2.125,+34.875,-3, -3, -2, -1, 0, 0, 1, -1,-0.17645837845273826,1.1491140490150544
1503686440646,-0.061,+0.258,-0.506,-0.820,+0.803,-0.494,-0.278,+32.875,+0.938,+32.750,-2, -1, -3, -2, -5, 1, 0, -3,-0.18525001580328912,1.1526017491726634
1503686440661,-0.063,+0.266,-0.506,-0.818,+0.805,-0.500,-0.265,+32.438,+2.812,+30.812,-3, -9, -10, -4, -2, -2, -6, -1,-0.19288539167951096,1.1595385430698486
1503686440683,-0.065,+0.273,-0.506,-0.816,+0.807,-0.530,-0.272,+30.875,+4.375,+30.125,-2, -1, 1, 1, 2, 0, 1, -2,-0.1993322825558074,1.165723741931785
1503686440706,-0.066,+0.280,-0.505,-0.814,+0.799,-0.548,-0.253,+26.375,+4.875,+27.750,-1, -5, 0, -1, -1, -2, 0, 0,-0.20711788973357376,1.1695207576141478
1503686440721,-0.068,+0.285,-0.506,-0.811,+0.799,-0.554,-0.235,+21.750,+6.938,+23.000,3, 0, 0, 1, -4, 0, -1, 2,-0.21182124432693436,1.176379739797197
1503686440743,-0.070,+0.290,-0.507,-0.809,+0.795,-0.574,-0.223,+18.125,+7.125,+18.938,-2, -5, -3, -5, -1, 0, -1, 1,-0.21650388920218594,1.183881175030265
1503686440766,-0.071,+0.294,-0.507,-0.807,+0.815,-0.579,-0.211,+15.625,+6.062,+16.500,-1, 2, 3, 9, 3, -2, -5, -5,-0.2209493765790614,1.1876174105178559
1503686440781,-0.072,+0.298,-0.507,-0.806,+0.803,-0.599,-0.223,+11.750,+3.438,+13.938,-1, -6, -7, -9, -2, 1, 1, 1,-0.22529920492522687,1.1919105529805902
1503686440803,-0.073,+0.300,-0.507,-0.805,+0.795,-0.599,-0.208,+9.250,-1.312,+11.188,-2, -2, -3, -2, 0, -1, -4, -9,-0.22668009109687465,1.1937386326800676
1503686440825,-0.074,+0.302,-0.507,-0.804,+0.777,-0.573,-0.170,+3.688,-1.062,+8.750,-2, 3, 2, 3, 0, 1, 2, -1,-0.22807943788097376,1.1955928426260847
1503686440841,-0.075,+0.303,-0.508,-0.803,+0.762,-0.552,-0.190,-1.312,+3.562,+5.812,0, -3, -3, -2, -3, -2, -2, 0,-0.22868280353249837,1.1991669804540686
1503686440864,-0.076,+0.303,-0.509,-0.802,+0.768,-0.570,-0.239,-4.062,+8.312,+3.062,1, -1, -2, -2, -1, 1, 2, 16,-0.22776596574075994,1.2014532009485341
1503686440885,-0.077,+0.302,-0.510,-0.802,+0.794,-0.534,-0.281,-5.250,+10.312,+1.688,1, -2, 1, -1, -1, -2, -1, -1,-0.2251407274136013,1.2028900028038871
1503686440906,-0.077,+0.301,-0.510,-0.802,+0.814,-0.502,-0.300,-2.375,+4.875,+1.625,-3, -1, 0, 2, 0, 0, -2, -8,-0.22361393199357768,1.201596969816304
1503686440923,-0.076,+0.301,-0.510,-0.802,+0.803,-0.506,-0.310,+3.188,-1.562,+0.625,2, 4, 0, 0, 0, -1, -1, -5,-0.2254205117534359,1.2018593395969879
1503686440946,-0.075,+0.302,-0.509,-0.803,+0.764,-0.520,-0.296,+7.062,-3.938,-1.250,5, 6, 7, 4, 0, 1, 1, 4,-0.2278666343558613,1.2008639754218686
1503686440961,-0.074,+0.303,-0.509,-0.802,+0.768,-0.527,-0.246,+8.812,-2.875,-1.188,1, 0, -4, -1, 2, -3, -2, -1,-0.2313789449132604,1.2019821251861078
1503686440983,-0.073,+0.304,-0.509,-0.802,+0.783,-0.546,-0.238,+6.812,-0.812,-1.750,-4, -1, -1, -1, -6, 1, 1, -1,-0.2347192896859893,1.2035514965462335
1503686441006,-0.072,+0.305,-0.509,-0.802,+0.796,-0.538,-0.229,+4.062,-0.812,-2.188,-4, -10, -7, -11, -5, -4, -2, -4,-0.23806421826192706,1.2051271377043546
1503686441021,-0.071,+0.304,-0.509,-0.802,+0.793,-0.528,-0.226,-1.562,-6.562,-2.500,0, 2, 2, 1, -1, 0, 2, 3,-0.23832347667761072,1.2040785703981356
1503686441043,-0.070,+0.303,-0.508,-0.803,+0.792,-0.516,-0.259,-5.250,-7.625,-4.188,2, 1, 1, 5, 2, -2, -2, -1,-0.23771059314159243,1.2004931747500975
1503686441068,-0.068,+0.301,-0.507,-0.805,+0.797,-0.497,-0.291,-5.062,-8.688,-8.250,2, 8, 8, 0, -1, -3, -5, -4,-0.23722852374030592,1.196345955912589
1503686441081,-0.067,+0.299,-0.506,-0.806,+0.784,-0.507,-0.293,-6.250,-11.625,-10.312,-2, -3, 2, -3, -3, 0, 2, 1,-0.23513888944827466,1.1915314192194189
1503686441103,-0.065,+0.297,-0.505,-0.808,+0.790,-0.494,-0.280,-8.688,-11.000,-12.500,-1, -6, -7, -3, 1, 1, -1, -1,-0.23473088689238988,1.1874723156909743
1503686441125,-0.063,+0.294,-0.504,-0.810,+0.796,-0.480,-0.282,-9.312,-10.688,-13.812,-3, 2, 3, 5, 2, -1, -1, 0,-0.23287283838228004,1.1822184607273099
1503686441141,-0.061,+0.291,-0.503,-0.811,+0.818,-0.481,-0.281,-11.188,-10.000,-12.688,2, 1, -3, -3, 1, 1, 0, 2,-0.23121822695532787,1.176585868561722
1503686441164,-0.059,+0.288,-0.503,-0.813,+0.830,-0.476,-0.299,-11.750,-8.062,-12.250,-7, -7, -6, -4, 0, -2, -3, -9,-0.23014018824566443,1.1744067940892566
1503686441185,-0.058,+0.285,-0.502,-0.814,+0.833,-0.483,-0.289,-13.125,-11.812,-12.500,0, -1, -2, 5, 2, 1, -1, 1,-0.22678495896232648,1.1686462910331543
1503686441203,-0.056,+0.282,-0.501,-0.816,+0.832,-0.492,-0.292,-14.625,-13.250,-11.500,3, -1, -2, -2, -1, 0, 2, 7,-0.2251528924289981,1.1636794197570883
1503686441223,-0.055,+0.279,-0.500,-0.818,+0.826,-0.489,-0.299,-15.875,-10.375,-11.000,-3, -4, -3, 1, -3, -2, -2, -4,-0.221779588956918,1.158524618734006
1503686441246,-0.055,+0.276,-0.499,-0.820,+0.818,-0.477,-0.314,-18.188,-7.812,-12.750,0, -1, -2, -3, -3, -3, -2, 1,-0.2166596036895378,1.1531827914030977
1503686441261,-0.054,+0.271,-0.499,-0.821,+0.816,-0.460,-0.319,-19.938,-7.062,-14.000,-4, -1, 1, 0, 1, 0, -3, -4,-0.2113514055536777,1.148389293448043
1503686441283,-0.053,+0.267,-0.499,-0.823,+0.802,-0.445,-0.314,-22.188,-3.750,-14.688,-1, -6, -5, -6, -1, -1, 1, -5,-0.2073847549817051,1.1452752264203534
1503686441306,-0.052,+0.262,-0.500,-0.824,+0.807,-0.427,-0.315,-24.812,+3.125,-16.750,-2, -1, -1, 2, 0, -2, -2, -5,-0.2028216672515016,1.1435948030601353
1503686441321,-0.052,+0.256,-0.501,-0.825,+0.820,-0.421,-0.319,-26.500,+3.500,-18.250,2, 4, 2, 4, 2, -2, 0, 4,-0.19517646642431954,1.1407785048818426
1503686441344,-0.052,+0.250,-0.502,-0.826,+0.812,-0.440,-0.301,-33.312,+0.688,-18.688,-1, -4, -8, -5, -2, -1, 3, 7,-0.18762156296107493,1.1381460677435626
1503686441365,-0.053,+0.243,-0.503,-0.828,+0.767,-0.448,-0.290,-40.938,+0.875,-18.750,-1, -2, -3, -5, -3, -1, -3, -2,-0.17694187894684904,1.1349975622055513
1503686441382,-0.055,+0.235,-0.504,-0.829,+0.710,-0.478,-0.285,-50.562,+7.750,-19.938,0, 3, 4, 7, 4, 2, 0, 2,-0.16343020421601084,1.1305048319284197
1503686441405,-0.058,+0.225,-0.507,-0.830,+0.709,-0.473,-0.302,-59.750,+22.062,-25.375,-2, -1, 0, -2, -4, -4, -4, -1,-0.1467696451286076,1.1300728073870487
1503686441426,-0.060,+0.214,-0.510,-0.831,+0.805,-0.427,-0.318,-60.938,+15.625,-29.125,0, 1, 3, 0, 0, 2, -1, -4,-0.1308055812556906,1.1295475442732428
1503686441442,-0.061,+0.203,-0.510,-0.834,+0.868,-0.420,-0.340,-63.000,-2.750,-32.312,5, -1, -2, 1, 2, 2, 1, 3,-0.11519737838370127,1.1223485270171258
1503686441464,-0.061,+0.191,-0.509,-0.837,+0.806,-0.420,-0.328,-69.750,-12.250,-37.625,-7, -2, 1, 0, -1, -1, -4, -6,-0.10006097466962283,1.1124777317520482
1503686441493,-0.062,+0.178,-0.508,-0.841,+0.681,-0.399,-0.325,-75.188,-5.500,-41.188,-1, -1, 2, 3, 1, -1, 1, 1,-0.08223459476008976,1.1030130698628653
1503686441504,-0.064,+0.165,-0.509,-0.842,+0.639,-0.366,-0.370,-72.938,+13.625,-39.875,-2, 0, -2, -1, -3, -4, -1, -1,-0.06412860600309273,1.0982228500383548
1503686441524,-0.065,+0.152,-0.513,-0.842,+0.744,-0.355,-0.428,-66.000,+32.562,-39.500,-5, 2, 2, 7, 0, 2, -5, -3,-0.04914049222385447,1.1020554554507098
1503686441546,-0.066,+0.140,-0.519,-0.841,+0.874,-0.360,-0.422,-59.188,+40.562,-38.562,-4, -5, -4, -8, -3, 0, 0, 1,-0.036018899612993725,1.111992337970763
1503686441562,-0.067,+0.130,-0.524,-0.839,+0.959,-0.371,-0.403,-52.188,+30.750,-31.500,1, 0, 1, -3, -4, -2, 0, -1,-0.024873110712022767,1.1201135286866775
1503686441584,-0.069,+0.121,-0.527,-0.838,+0.985,-0.352,-0.427,-51.500,+25.500,-25.812,4, 2, 4, 5, 6, 0, 3, 2,-0.012369374818594292,1.1239198768727858
1503686441606,-0.071,+0.112,-0.529,-0.838,+0.953,-0.312,-0.430,-50.000,+17.250,-22.750,-2, -3, -2, -1, -3, -2, -1, -1,0.0005182259623356389,1.1258052936285836
1503686441622,-0.072,+0.104,-0.530,-0.838,+1.002,-0.273,-0.433,-43.875,+11.375,-19.938,-1, -3, 2, -1, -3, 1, -2, -3,0.010776442322531244,1.1257155769920155
1503686441644,-0.071,+0.097,-0.534,-0.837,+1.159,-0.270,-0.360,-31.062,+13.625,-23.625,1, -6, -6, -2, -2, -3, 1, 0,0.015710786333053863,1.1340412921302343
1503686441665,-0.066,+0.091,-0.535,-0.838,+1.237,-0.159,-0.342,-17.562,-8.188,-34.000,-2, 1, -3, -5, -1, 0, 0, -2,0.013588623567664035,1.135885683832228
1503686441682,-0.058,+0.085,-0.536,-0.838,+1.026,-0.123,-0.322,-0.625,-1.375,-50.812,3, 2, 4, 1, 2, 0, 0, 3,0.0062196410554718525,1.137561064758038
1503686441709,-0.053,+0.083,-0.534,-0.840,+0.885,-0.208,-0.367,+3.375,-21.312,-32.312,-1, 1, 0, -1, 1, 1, 0, -2,0.0004038327178690944,1.1329129623724343
1503686441725,-0.051,+0.081,-0.531,-0.842,+0.776,-0.156,-0.444,-5.312,-14.250,-18.375,-3, -3, -7, -7, -4, -5, -4, -2,-0.00014057591210438078,1.1253849274729022
1503686441742,-0.050,+0.080,-0.530,-0.843,+0.797,-0.138,-0.469,-4.938,+6.938,-5.812,-1, 2, -1, 0, 0, -1, 1, 0,-0.0005090612470061503,1.1229812440458047
1503686441764,-0.050,+0.078,-0.532,-0.841,+0.872,-0.137,-0.435,-1.062,+19.375,-4.312,-1, 0, 0, 0, -2, -3, -3, -3,0.0011273539430994156,1.1269363555145036
1503686441785,-0.049,+0.078,-0.536,-0.839,+0.931,-0.142,-0.388,+1.562,+27.562,-3.938,-6, -3, -3, -3, -2, -2, -1, -6,-0.0014180636049760864,1.1368581778667433
1503686441802,-0.049,+0.078,-0.540,-0.836,+0.965,-0.167,-0.341,+3.000,+24.625,-0.062,3, 0, 3, 5, 1, -1, -1, 1,-0.0023519076092076035,1.1462940531585692
1503686441824,-0.049,+0.078,-0.544,-0.834,+0.969,-0.187,-0.324,+1.812,+20.188,+1.750,1, 0, -1, 0, -1, 1, 0, 1,-0.003186056786052154,1.1562234541156595
1503686441849,-0.049,+0.079,-0.546,-0.832,+0.970,-0.193,-0.316,+1.438,+16.125,-0.688,0, -4, -5, -4, -4, -1, -1, 1,-0.0048151891572125426,1.1610117208071256
1503686441862,-0.048,+0.078,-0.549,-0.831,+0.949,-0.194,-0.330,-0.312,+12.625,-5.250,3, 0, -1, 2, 1, 0, -3, -1,-0.005968050344336851,1.1685267884094592
1503686441884,-0.047,+0.078,-0.550,-0.830,+0.947,-0.204,-0.323,-0.250,+9.625,-6.938,2, 1, 5, 2, 2, 3, 2, 3,-0.007911050377854362,1.1708696634361457
1503686441910,-0.047,+0.078,-0.551,-0.829,+0.938,-0.201,-0.312,+0.500,+4.938,-1.188,0, 0, -4, -5, -2, -2, 0, -1,-0.00816525038521253,1.173154190133509
1503686441922,-0.047,+0.078,-0.552,-0.829,+0.961,-0.190,-0.314,-2.250,+3.438,-0.625,-3, -5, -2, -2, -3, -3, -1, -2,-0.0083238706572035,1.175874759337856
1503686441944,-0.047,+0.078,-0.552,-0.829,+0.958,-0.187,-0.332,-3.250,+1.062,-0.938,-2, 0, 2, -1, -1, 2, 0, -2,-0.0083238706572035,1.175874759337856
1503686441966,-0.047,+0.078,-0.552,-0.829,+0.940,-0.181,-0.331,-3.312,-2.375,-1.438,2, -2, -2, -1, 4, -1, 0, 4,-0.0083238706572035,1.175874759337856
1503686441982,-0.047,+0.077,-0.552,-0.829,+0.922,-0.177,-0.343,-3.375,-2.375,-1.250,1, -2, -6, -2, -6, -1, -1, 2,-0.007199049382682605,1.1756206700996255
1503686442004,-0.047,+0.077,-0.551,-0.829,+0.922,-0.162,-0.357,-1.875,+0.750,-0.312,-2, 3, 1, -4, 0, 0, -1, -5,-0.0070425093458728405,1.1729004969259953
1503686442025,-0.047,+0.077,-0.552,-0.829,+0.930,-0.170,-0.342,+0.125,+1.312,-0.125,0, -1, 1, 1, 1, 0, -2, -3,-0.007199049382682605,1.1756206700996255
1503686442042,-0.047,+0.077,-0.552,-0.829,+0.932,-0.182,-0.330,+0.375,+1.312,+0.500,-1, 5, 6, 4, -1, 0, -1, -3,-0.007199049382682605,1.1756206700996255
1503686442064,-0.047,+0.077,-0.552,-0.829,+0.920,-0.188,-0.338,-0.688,-0.062,-0.125,0, -1, 0, 2, 2, 1, 0, -2,-0.007199049382682605,1.1756206700996255
1503686442085,-0.047,+0.077,-0.552,-0.829,+0.917,-0.184,-0.329,-1.125,+0.438,-1.438,-3, -3, -2, -2, -2, -3, -3, -3,-0.007199049382682605,1.1756206700996255
1503686442102,-0.047,+0.077,-0.552,-0.829,+0.921,-0.178,-0.343,-1.312,+0.875,-2.562,-6, -5, -9, -6, -1, -2, -3, -2,-0.007199049382682605,1.1756206700996255
1503686442124,-0.046,+0.076,-0.552,-0.829,+0.918,-0.174,-0.336,-2.875,+2.625,-4.812,-2, 7, 5, 2, 1, -3, -4, -5,-0.0077583038606534975,1.1754299324649295
1503686442146,-0.046,+0.076,-0.553,-0.829,+0.933,-0.173,-0.333,-3.438,+3.688,-4.438,-3, -4, -1, 0, -2, -2, -1, -2,-0.00791273202255797,1.1781492770990192
1503686442162,-0.046,+0.076,-0.553,-0.828,+0.943,-0.177,-0.342,-1.562,+2.125,-1.500,-2, -2, -4, -2, -1, 0, -1, 0,-0.008006201516622133,1.1777191164477545
1503686442184,-0.045,+0.075,-0.553,-0.828,+0.932,-0.175,-0.333,-1.688,+2.438,-2.000,0, 2, 4, 3, 2, 2, 1, -1,-0.008560773903672013,1.1775298416066804
1503686442206,-0.045,+0.075,-0.554,-0.828,+0.942,-0.172,-0.328,-1.312,+2.438,-1.750,-3, -2, -2, -4, -1, -3, -3, -2,-0.008713093199391515,1.1802506995957693
1503686442222,-0.045,+0.075,-0.554,-0.828,+0.941,-0.168,-0.331,-0.438,+1.875,-1.375,0, 2, 3, 1, -2, 0, 1, 0,-0.008713093199391515,1.1802506995957693
1503686442244,-0.044,+0.075,-0.554,-0.828,+0.939,-0.168,-0.341,+0.125,+1.250,-1.750,5, 9, 8, 4, -1, -1, 1, 5,-0.010392791256227338,1.180308674977796
1503686442266,-0.044,+0.075,-0.554,-0.828,+0.927,-0.170,-0.344,+0.188,+1.875,-1.750,1, 5, 1, 3, 1, 0, 0, -2,-0.010392791256227338,1.180308674977796
1503686442284,-0.044,+0.075,-0.555,-0.827,+0.926,-0.172,-0.338,+0.875,+4.125,-1.438,-3, -5, -1, -2, -3, -1, -2, 0,-0.010634418840830717,1.1826027985430052
1503686442304,-0.044,+0.075,-0.556,-0.827,+0.923,-0.167,-0.332,+0.500,+5.750,-0.688,-5, -4, -3, -3, -2, -3, -4, -2,-0.010786704497478886,1.1853254931627157
1503686442326,-0.044,+0.075,-0.557,-0.826,+0.929,-0.175,-0.321,+0.062,+6.438,+0.375,0, 0, 1, 0, 0, 0, 0, -3,-0.011028330043149185,1.187625714510817
1503686442346,-0.044,+0.076,-0.558,-0.826,+0.947,-0.181,-0.314,-0.875,+6.062,+0.625,6, 2, 4, 1, -1, -1, 0, 2,-0.012317369761319322,1.1906019856696008
1503686442364,-0.044,+0.076,-0.558,-0.825,+0.952,-0.177,-0.312,-1.312,+4.812,+0.000,-2, -2, 0, -3, -1, -1, -1, 0,-0.012406734678234785,1.1901813011872506
1503686442386,-0.044,+0.075,-0.559,-0.825,+0.950,-0.173,-0.315,-1.500,+2.938,-0.750,1, -5, -2, 1, -1, -1, -3, -2,-0.011422237822914311,1.1926569313839506
1503686442402,-0.044,+0.075,-0.559,-0.825,+0.933,-0.171,-0.322,-2.125,+1.438,-1.250,1, 2, 1, 0, 0, 1, 0, 1,-0.011422237822914311,1.1926569313839506
1503686442424,-0.044,+0.075,-0.559,-0.824,+0.916,-0.172,-0.331,-2.562,+3.125,-1.188,-1, 0, -1, -1, -2, -2, -3, 1,-0.01151157724295557,1.1922376012814468
1503686442448,-0.044,+0.074,-0.560,-0.824,+0.928,-0.176,-0.317,-4.250,+4.375,-0.875,4, 6, 2, -1, 1, -1, -1, 2,-0.010523619390895885,1.1947185024994362
1503686442462,-0.044,+0.074,-0.560,-0.824,+0.933,-0.169,-0.314,-5.125,+4.750,-1.188,-1, -4, -4, -3, 0, -4, 1, -3,-0.010523619390895885,1.1947185024994362
1503686442485,-0.044,+0.073,-0.561,-0.823,+0.931,-0.173,-0.324,-5.562,+4.188,-2.688,0, 1, -1, 0, 0, -1, -2, -2,-0.009621507914486143,1.19678672615324
1503686442506,-0.044,+0.072,-0.562,-0.823,+0.934,-0.176,-0.323,-5.312,+4.562,-4.812,-8, -7, -3, -3, -2, 0, -4, -6,-0.008626632290319278,1.199275918857332
1503686442522,-0.044,+0.071,-0.562,-0.823,+0.934,-0.175,-0.319,-5.750,+7.375,-6.375,3, 1, 2, 2, 0, -1, 1, 2,-0.007484298098951845,1.199038088240908
1503686442545,-0.044,+0.069,-0.564,-0.822,+0.936,-0.173,-0.310,-5.562,+9.625,-7.750,-3, -2, 0, 2, 1, -1, 0, -2,-0.005570555166839568,1.2036226384703526
1503686442566,-0.043,+0.068,-0.565,-0.821,+0.956,-0.177,-0.313,-6.438,+9.375,-9.688,-4, -5, -4, -4, -2, -3, -2, -2,-0.00631567990495442,1.2057674083166052
1503686442582,-0.042,+0.066,-0.567,-0.820,+0.943,-0.170,-0.312,-6.562,+13.625,-12.000,1, -3, -3, -3, -2, 2, -3, -3,-0.006037830572702465,1.2104293771006236
1503686442604,-0.041,+0.064,-0.569,-0.819,+0.952,-0.159,-0.295,-5.562,+15.562,-14.250,-3, 6, 6, 2, -3, 0, -1, -1,-0.0057402606508696,1.2151076694837986
1503686442626,-0.039,+0.062,-0.572,-0.817,+0.982,-0.142,-0.273,-3.125,+16.562,-13.750,1, 0, 3, -1, 2, 0, 1, 0,-0.007279987029336348,1.2221862944534336
1503686442648,-0.037,+0.063,-0.574,-0.816,+1.013,-0.155,-0.279,+7.125,+10.625,-8.375,0, -5, -4, -2, -2, -1, 0, 2,-0.012068261090934005,1.2275678336726485
1503686442664,-0.036,+0.065,-0.576,-0.815,+0.992,-0.158,-0.258,+14.375,+6.875,-2.500,-2, 0, -1, -1, -2, -2, -2, 1,-0.016379412709356573,1.233141526133715
1503686442687,-0.033,+0.065,-0.577,-0.813,+1.018,-0.145,-0.251,+10.562,+6.000,-9.438,6, 7, 5, 3, 3, 0, 1, 1,-0.021578017156022804,1.2352448920694712
1503686442708,-0.031,+0.067,-0.578,-0.813,+0.999,-0.169,-0.285,+12.000,+3.000,-5.562,4, 3, -2, -3, -2, 0, -2, 0,-0.02733723818017372,1.2385383945794517
1503686442724,-0.028,+0.068,-0.580,-0.812,+0.974,-0.162,-0.266,+15.250,+11.312,-10.062,-2, 0, 0, 1, -2, -1, -2, -4,-0.03376045970405421,1.244019456997145
1503686442747,-0.026,+0.070,-0.582,-0.810,+0.967,-0.178,-0.260,+17.000,+17.188,-9.875,0, -4, -5, -4, -1, 0, -1, 2,-0.0397828918772193,1.2493473359193485
1503686442769,-0.023,+0.073,-0.585,-0.807,+0.955,-0.191,-0.267,+21.062,+22.562,-8.062,2, 0, 1, -1, -1, -1, -1, -1,-0.04882162239628888,1.2574091063264161
1503686442785,-0.020,+0.075,-0.589,-0.804,+0.937,-0.183,-0.264,+20.438,+30.438,-10.875,0, 2, 2, 2, 1, 0, -2, 2,-0.05681413980620861,1.2680340132632073
1503686442806,-0.017,+0.077,-0.594,-0.801,+0.935,-0.176,-0.250,+19.375,+34.000,-11.000,-1, -3, -3, -3, -4, 0, 2, 4,-0.06495944897879227,1.2814880985820405
1503686442828,-0.015,+0.079,-0.599,-0.797,+0.918,-0.179,-0.253,+17.875,+37.438,-11.500,-5, -2, 1, 3, -1, -1, -1, -6,-0.07153641167453838,1.2946418356994762
1503686442847,-0.013,+0.080,-0.602,-0.794,+0.924,-0.212,-0.287,+10.000,+31.062,-8.625,-5, -5, -1, -2, -2, -1, -2, -3,-0.07653368684901239,1.3023613085809436
1503686442866,-0.011,+0.079,-0.605,-0.792,+0.952,-0.170,-0.210,+3.625,+20.125,-14.625,1, -2, 0, -1, 1, -2, 2, 2,-0.07900859087980071,1.3098236177535545
1503686442889,-0.009,+0.079,-0.607,-0.791,+0.911,-0.147,-0.203,+8.562,+15.250,-13.125,-4, -4, -5, -2, 0, -1, -1, -1,-0.08252597321372612,1.3151407074256156
1503686442904,-0.006,+0.080,-0.612,-0.787,+0.930,-0.153,-0.175,+11.500,+36.688,-13.812,3, 1, -2, 1, -3, 2, 3, 10,-0.08939085095787196,1.3282348292858075
1503686442926,-0.004,+0.079,-0.618,-0.782,+0.946,-0.116,-0.196,+8.875,+43.938,-16.312,0, -3, -1, -3, -2, -2, -3, -4,-0.09228325913760972,1.3432452848576375
1503686442949,-0.001,+0.079,-0.623,-0.778,+0.971,-0.105,-0.184,+8.875,+38.312,-14.562,-3, -3, -2, -3, -3, -3, -3, -5,-0.09778980105142109,1.3561861454366186
1503686442964,+0.001,+0.079,-0.628,-0.775,+0.979,-0.107,-0.167,+8.500,+31.938,-13.188,-4, -2, -2, -4, 1, -1, -5, -3,-0.10169592856317046,1.3694154252528443
1503686442986,+0.004,+0.079,-0.632,-0.771,+0.998,-0.111,-0.133,+9.250,+31.938,-12.875,2, 0, 1, 0, -2, 1, 1, 1,-0.10695785768192158,1.3796847568509807
1503686443008,+0.006,+0.079,-0.637,-0.767,+1.012,-0.116,-0.132,+8.812,+38.062,-13.688,1, 0, -1, 2, -1, -2, -1, -3,-0.11079104558124608,1.3927817024656233
1503686443024,+0.008,+0.079,-0.642,-0.762,+1.007,-0.103,-0.121,+9.188,+38.188,-11.875,3, 2, 4, 2, 2, 0, 0, -1,-0.11457514105187806,1.4057357110337938
1503686443048,+0.011,+0.079,-0.646,-0.759,+1.004,-0.093,-0.118,+11.750,+30.688,-11.938,-4, 0, -2, -1, -1, -2, 0, -1,-0.11972135919548967,1.416404488961884
1503686443068,+0.014,+0.079,-0.650,-0.756,+0.991,-0.093,-0.100,+11.250,+26.688,-14.438,2, 1, -1, 1, 1, 2, 1, 4,-0.12483100236830548,1.427106902219807
1503686443087,+0.016,+0.078,-0.654,-0.753,+1.000,-0.074,-0.065,+8.312,+26.375,-15.000,0, -3, -2, 0, 1, 1, 1, 1,-0.127051668749875,1.437504550140492
1503686443106,+0.019,+0.078,-0.657,-0.749,+1.008,-0.051,-0.056,+7.438,+27.250,-12.062,0, 0, -2, -2, -1, -2, 0, -1,-0.13189387158545995,1.4453041721194133
1503686443129,+0.021,+0.078,-0.662,-0.746,+1.001,-0.026,-0.069,+7.438,+30.875,-9.375,-7, -4, -2, 0, -1, 1, 0, 0,-0.13554751801423442,1.4589081208476102
1503686443144,+0.023,+0.077,-0.665,-0.742,+1.000,-0.021,-0.069,+7.000,+27.812,-7.250,5, 1, -1, 1, 0, 1, 3, 0,-0.1374563482417417,1.4664794924832374
1503686443173,+0.025,+0.077,-0.667,-0.740,+1.014,-0.018,-0.063,+5.312,+18.750,-5.000,2, 3, 1, 5, 1, -1, -2, 3,-0.14063910296887489,1.4718640509013696
1503686443189,+0.026,+0.077,-0.669,-0.739,+1.010,-0.015,-0.043,+2.188,+12.312,-4.000,2, 3, 7, 0, -2, 0, 0, 1,-0.14237769120925636,1.4773731523710092
1503686443205,+0.027,+0.076,-0.671,-0.738,+0.985,-0.005,-0.038,-0.188,+10.500,-3.250,-7, -3, -2, -1, -1, -3, -1, -6,-0.14273639488230527,1.4825734406965487
1503686443227,+0.028,+0.075,-0.672,-0.736,+0.977,-0.001,-0.044,-0.875,+11.250,-2.500,-5, -2, 1, 0, 0, 1, 0, 1,-0.14287971382115863,1.4848565458011247
1503686443252,+0.028,+0.074,-0.674,-0.735,+1.002,-0.001,-0.040,-1.250,+12.688,-1.625,2, -2, -3, -2, -1, 0, -2, 1,-0.14174166573057748,1.4900654897995598
1503686443264,+0.029,+0.073,-0.675,-0.733,+1.005,+0.000,-0.042,-1.188,+14.188,-3.688,-1, 1, -3, -3, -1, -2, 0, -4,-0.1418670036479572,1.4923770159081176
1503686443287,+0.030,+0.072,-0.677,-0.732,+1.016,+0.010,-0.044,+0.625,+9.375,-4.750,1, -2, -2, 0, 1, 0, 0, -1,-0.1421838932376571,1.497619527321922
1503686443309,+0.031,+0.072,-0.677,-0.732,+1.013,-0.002,-0.048,+1.438,+1.000,-3.125,-8, -1, -1, 1, -1, 0, 0, -2,-0.1436533624903848,1.4976300737002328
1503686443325,+0.032,+0.071,-0.676,-0.732,+1.010,-0.009,-0.040,+0.312,-1.000,-0.625,0, -3, 1, 0, 0, 2, -1, 1,-0.14359868502670445,1.494535947579499
1503686443347,+0.032,+0.071,-0.677,-0.732,+1.013,-0.015,-0.024,-1.062,+1.125,+2.500,8, -1, -4, -3, -4, -1, 1, 7,-0.14373948201009046,1.4973502290018694
1503686443369,+0.032,+0.072,-0.677,-0.732,+1.015,-0.014,-0.019,+0.250,+6.125,+4.750,-4, -2, -2, -2, -2, 0, -1, -3,-0.14512314970806012,1.497640617044478
1503686443385,+0.032,+0.073,-0.678,-0.731,+1.035,-0.035,-0.013,+1.312,+5.688,+5.562,3, -2, -1, 1, 1, 1, 0, 0,-0.14658892858185357,1.500650094958517
1503686443407,+0.031,+0.073,-0.678,-0.730,+1.045,-0.050,-0.027,+1.688,+2.750,+5.812,-2, 0, 1, 1, 0, -5, 1, 0,-0.1450596582079722,1.5005444906215746
1503686443429,+0.031,+0.074,-0.678,-0.731,+1.044,-0.057,-0.019,+0.312,-5.250,+5.500,2, 0, 1, 0, 3, 0, 0, 2,-0.1465084284302891,1.5009379857535747
1503686443444,+0.030,+0.074,-0.676,-0.732,+1.040,-0.074,-0.004,-3.000,-14.000,+3.938,1, 3, -2, -1, -1, -1, 1, 2,-0.14480687790257848,1.4953981371215124
1503686443467,+0.030,+0.074,-0.674,-0.734,+1.021,-0.091,-0.002,-4.875,-18.438,+3.062,3, -1, -2, -3, -1, -2, -6, -5,-0.14463231228236756,1.4899804086976276
1503686443489,+0.029,+0.074,-0.672,-0.737,+0.993,-0.091,-0.024,-6.000,-19.688,+2.312,-8, -3, -3, -3, -3, 0, -2, -3,-0.14303800523815013,1.4846826458856666
1503686443504,+0.028,+0.074,-0.669,-0.739,+0.957,-0.091,-0.042,-9.125,-17.000,+2.750,1, 2, 0, 2, 0, -3, -2, 0,-0.14122951424112157,1.4764818089260943
1503686443528,+0.026,+0.073,-0.668,-0.740,+0.974,-0.099,-0.041,-10.438,-11.250,+4.062,-4, -1, 1, 0, 0, -1, 0, -1,-0.13680147818362526,1.4734722867590078
1503686443551,+0.024,+0.073,-0.668,-0.740,+0.979,-0.099,-0.047,-9.312,-1.000,+4.000,0, -1, 2, 3, -1, -1, -3, -2,-0.13383326459322886,1.4734438237260832
1503686443564,+0.023,+0.073,-0.668,-0.740,+0.966,-0.090,-0.060,-6.688,+3.375,+2.125,-4, -1, 0, 0, 1, 3, 1, 0,-0.13234950936584264,1.4734295859853062
1503686443587,+0.022,+0.073,-0.668,-0.740,+0.988,-0.094,-0.062,-6.000,+3.312,+2.188,2, -1, 0, -4, -3, -1, 2, 1,-0.13086597372393766,1.4734153440925735
1503686443609,+0.021,+0.072,-0.669,-0.740,+1.015,-0.069,-0.056,-6.188,+4.750,+4.312,4, -2, -4, -2, 2, -3, -2, -2,-0.12815943274851038,1.4759196024762713
1503686443624,+0.020,+0.072,-0.670,-0.739,+1.033,-0.038,-0.041,-3.312,+5.500,+6.812,5, 0, 0, -4, -2, -3, -3, -1,-0.12677986688278944,1.4785921937682858
1503686443647,+0.019,+0.073,-0.670,-0.739,+1.046,-0.030,-0.060,-0.938,+1.562,+10.438,0, 0, 1, -2, 0, 0, 3, 3,-0.12666940477519634,1.4788719730674025
1503686443669,+0.018,+0.074,-0.668,-0.740,+1.044,-0.042,-0.050,-1.438,-9.750,+15.125,2, 1, 0, 2, -1, 0, -1, -3,-0.1263010366599507,1.4736556319623169
1503686443691,+0.016,+0.076,-0.666,-0.742,+1.034,-0.052,-0.029,-5.375,-22.688,+17.562,-9, -4, -3, -5, -1, -3, -4, -10,-0.12583373211681684,1.4688713305066243
1503686443707,+0.013,+0.076,-0.663,-0.745,+0.978,-0.062,-0.025,-10.000,-21.250,+17.625,0, -1, 6, 3, 1, 1, -3, -4,-0.12099775947006708,1.4608106569769028
1503686443729,+0.010,+0.077,-0.661,-0.746,+0.937,-0.080,-0.065,-10.000,-12.562,+16.062,-5, -8, -8, -2, -3, -3, -4, -6,-0.11759346297818865,1.4555914147649314
1503686443744,+0.007,+0.078,-0.660,-0.747,+0.960,-0.132,-0.083,-9.000,-6.125,+16.000,-3, -3, -7, -2, -2, -4, -4, 1,-0.11432574986327024,1.4531891840787674
1503686443767,+0.004,+0.079,-0.659,-0.748,+0.984,-0.163,-0.067,-10.750,-1.875,+14.750,4, 0, -2, -2, -1, 2, 6, 13,-0.11104266241169324,1.450791364802766
1503686443796,+0.001,+0.079,-0.660,-0.748,+0.987,-0.147,-0.059,-10.500,+0.812,+8.188,-3, 4, 3, -1, -1, 1, -2, -1,-0.10670635319235207,1.453548337901435
1503686443804,+0.000,+0.079,-0.660,-0.747,+0.989,-0.161,-0.071,-6.625,+2.562,+1.312,5, 1, 1, -2, 1, 3, 11, 9,-0.10520817412180801,1.4533742017751095
1503686443827,+0.000,+0.079,-0.660,-0.747,+0.982,-0.174,-0.108,-2.250,+1.688,-4.250,-2, -1, -1, -2, 2, 1, 3, 1,-0.10520817412180801,1.4533742017751095
1503686443849,+0.001,+0.078,-0.659,-0.748,+0.997,-0.158,-0.084,+2.125,-3.688,-8.875,5, 2, 3, 5, 3, -5, -5, -1,-0.1051952125371973,1.4504201159374812
1503686443864,+0.003,+0.078,-0.658,-0.749,+1.008,-0.150,-0.088,+5.562,-9.938,-9.938,-11, -6, -1, -2, -4, 0, -8, -12,-0.10804138010424079,1.4478044366875498
1503686443888,+0.005,+0.078,-0.656,-0.750,+1.000,-0.138,-0.075,+5.375,-13.000,-9.688,1, 4, 3, 1, -1, -2, -1, -1,-0.11073966677239168,1.4423815948895307
1503686443909,+0.006,+0.078,-0.655,-0.752,+0.984,-0.116,-0.072,+2.875,-13.250,-7.812,0, -2, -1, -3, -3, 1, -2, -1,-0.11210994052528388,1.439931259256011
1503686443927,+0.008,+0.078,-0.654,-0.753,+0.997,-0.087,-0.076,+1.062,-9.000,-4.750,2, 4, 4, 5, 5, 3, 4, 1,-0.11498266739666324,1.4373378640590708
1503686443946,+0.008,+0.077,-0.653,-0.753,+1.021,-0.083,-0.055,-1.812,-5.312,-3.062,0, 2, -1, -3, -5, -4, -4, -2,-0.11348639151584197,1.4342183270653446
1503686443968,+0.009,+0.076,-0.653,-0.753,+1.044,-0.055,-0.053,-3.062,-6.375,-1.750,-7, -6, -3, -8, -6, -5, -3, 4,-0.1136551969565689,1.4339319990377626
1503686443983,+0.010,+0.075,-0.652,-0.754,+1.028,-0.026,-0.072,-1.688,-11.188,-2.000,1, 0, -4, -1, -3, -1, -3, -2,-0.11369500499541471,1.4310214172527753
1503686444006,+0.011,+0.074,-0.650,-0.756,+1.027,-0.020,-0.087,-2.562,-16.938,-4.188,4, 7, 5, 5, 1, 1, 2, -5,-0.1136179033110128,1.4255008701393723
