Timestamp,Orientation X,Orientation Y,Orientation Z,Orientation W,Accelerometer X,Accelerometer Y,Accelerometer Z,Gyroscope X,Gyroscope Y,Gyroscope Z,EMG1,EMG2,EMG3,EMG4,EMG5,EMG6,EMG7,EMG8,Roll,Yaw
1503702397970,+0.821,+0.550,+0.054,-0.145,+0.858,-0.356,-0.373,+3.250,+7.875,-3.750,2, 1, 3, -3, 0, -2, -3, -7,-2.956257753642554,1.1575226925057744
1503702397992,+0.821,+0.550,+0.055,-0.143,+0.751,-0.322,-0.334,+5.625,+3.312,-15.250,-5, -8, -3, -6, -2, 0, 6, 4,-2.9607050451862453,1.1576997382073069
1503702398014,+0.820,+0.552,+0.055,-0.140,+0.744,-0.295,-0.342,+7.188,+14.625,-18.812,-12, -1, 8, 3, 6, 0, 1, -6,-2.9664221337060446,1.1629037853064939
1503702398030,+0.819,+0.554,+0.055,-0.137,+0.852,-0.281,-0.351,+12.500,+14.875,-17.812,-16, -2, -3, -1, -11, -3, -6, -8,-2.9721285739733636,1.1681138151257924
1503702398052,+0.819,+0.555,+0.056,-0.133,+0.854,-0.258,-0.362,+15.375,+3.438,-20.062,17, -6, -6, 0, 22, -4, -17, 0,-2.980410655962792,1.171158001463048
1503702398074,+0.820,+0.554,+0.057,-0.130,+0.874,-0.257,-0.317,+15.312,-5.062,-15.438,9, 3, -5, -9, -9, 5, 4, -6,-2.9863334575424836,1.169086327670907
1503702398090,+0.821,+0.553,+0.057,-0.127,+0.893,-0.265,-0.331,+6.188,-10.125,-16.875,-2, -3, -7, -3, -7, -24, -20, 10,-2.9911367747785396,1.1669120412958753
1503702398112,+0.823,+0.552,+0.057,-0.124,+0.899,-0.250,-0.345,+3.062,-12.812,-14.000,-3, 7, -1, -2, -2, 2, -2, -8,-2.996188027050114,1.1651909750340115
1503702398134,+0.825,+0.549,+0.056,-0.123,+0.905,-0.242,-0.337,-4.875,-18.688,-12.875,12, 1, 4, 1, 1, 1, 2, -4,-2.995895521309933,1.1577804648005532
1503702398150,+0.827,+0.547,+0.053,-0.121,+0.908,-0.198,-0.340,-10.750,-16.438,-16.625,11, 7, 2, 1, -8, 1, 3, -4,-2.995527124744944,1.1529852708941977
1503702398172,+0.829,+0.545,+0.049,-0.119,+0.916,-0.190,-0.327,-12.562,-16.750,-23.125,1, -1, -1, -3, -4, 11, 4, 1,-2.994104359293132,1.1481555545474436
1503702398195,+0.832,+0.541,+0.045,-0.116,+0.965,-0.208,-0.338,-15.562,-29.250,-26.688,-30, -19, -7, 1, 2, -1, -5, -44,-2.9938500032854587,1.1384640997349116
1503702398210,+0.835,+0.537,+0.040,-0.114,+0.956,-0.198,-0.318,-22.875,-32.625,-26.062,26, 7, 5, 6, 2, 4, 15, 52,-2.990949160766206,1.128802414294371
1503702398233,+0.838,+0.533,+0.035,-0.112,+0.920,-0.165,-0.402,-25.812,-26.188,-29.938,-11, 2, 15, 8, 10, 3, 4, -4,-2.988179042075583,1.1192936929763462
1503702398258,+0.841,+0.530,+0.028,-0.109,+0.941,-0.174,-0.374,-27.438,-19.625,-37.500,8, 4, -7, -1, 3, -3, 3, 17,-2.9854948831613193,1.112626739817205
1503702398270,+0.844,+0.526,+0.022,-0.107,+0.930,-0.093,-0.394,-28.062,-28.500,-25.375,-6, 3, -1, -6, -24, -6, -2, -6,-2.981952402913108,1.103450790670841
1503702398293,+0.846,+0.523,+0.016,-0.107,+0.894,-0.068,-0.413,-30.625,-16.312,-16.188,-2, -3, -2, -3, -13, 0, -6, -26,-2.97522480566976,1.096601193300649
1503702398314,+0.848,+0.518,+0.010,-0.105,+0.966,-0.078,-0.446,-24.625,-27.500,-21.250,-3, -7, -9, -10, -10, -5, -6, -16,-2.9712147147131542,1.0846453781662264
1503702398330,+0.852,+0.513,+0.006,-0.104,+1.006,-0.103,-0.474,-19.938,-38.062,-21.312,-4, -1, -7, -5, 3, -1, 3, -8,-2.968461610805747,1.0736944710282226
1503702398352,+0.856,+0.507,+0.002,-0.102,+0.890,-0.092,-0.462,-18.312,-35.625,-21.438,15, -1, 0, 3, 8, 7, 9, 54,-2.9671870749919766,1.060262869268458
1503702398374,+0.859,+0.502,-0.004,-0.099,+0.750,-0.026,-0.420,-22.812,-30.938,-30.250,3, -6, 0, 2, -2, 0, -2, 5,-2.965735477550406,1.049306960128977
1503702398392,+0.860,+0.501,-0.008,-0.096,+0.884,+0.059,-0.546,-9.812,+2.562,-22.000,14, 9, 4, 3, -1, -4, -4, -16,-2.9669375477618263,1.04765908183501
1503702398412,+0.861,+0.500,-0.010,-0.093,+0.998,-0.092,-0.477,-2.562,-12.312,-18.875,32, 15, 9, 5, 4, -1, 7, 41,-2.9701410572335516,1.045784039083503
1503702398435,+0.863,+0.497,-0.010,-0.091,+1.004,-0.133,-0.402,-0.375,-28.750,-18.188,9, 9, -4, -1, 5, -1, -1, -10,-2.973398672717829,1.0389769959464994
1503702398450,+0.866,+0.492,-0.011,-0.091,+0.792,-0.076,-0.502,-10.375,-28.375,-3.812,-32, -14, -17, -7, -8, -1, -3, -39,-2.9720676797386596,1.0276760722986173
1503702398473,+0.867,+0.489,-0.011,-0.094,+0.823,-0.003,-0.519,-9.562,-10.375,+19.375,-9, 6, 8, -1, 3, -4, -10, -32,-2.9663999070622733,1.0204712563389706
1503702398495,+0.866,+0.490,-0.009,-0.098,+0.965,-0.108,-0.493,-3.312,+2.312,+24.812,-1, 2, -2, -4, -4, -4, -4, -1,-2.961389730234746,1.0223135148757625
1503702398511,+0.865,+0.490,-0.007,-0.102,+1.013,-0.099,-0.481,-2.562,-4.188,+28.875,-2, 6, 14, 5, -10, 3, 6, -15,-2.9560487386205554,1.0215694337387595
1503702398533,+0.867,+0.487,-0.003,-0.107,+0.988,-0.107,-0.492,+4.125,-23.750,+34.625,-1, -8, -16, -12, -23, -1, -3, 38,-2.9511726987305478,1.0143642203978693
1503702398554,+0.868,+0.484,+0.001,-0.110,+0.911,-0.157,-0.469,+6.875,-24.500,+24.938,8, 0, -13, -4, 4, -1, 4, 60,-2.9492100856352907,1.0066659337386814
1503702398571,+0.869,+0.482,+0.004,-0.112,+0.829,-0.153,-0.487,+8.188,-15.438,+15.625,-28, -19, -2, -2, -1, 0, 4, 26,-2.9483367165357808,1.0016906944944945
1503702398593,+0.869,+0.482,+0.007,-0.114,+0.812,-0.133,-0.470,+5.500,-4.750,+13.562,-54, -23, -7, -2, 2, -3, -8, -69,-2.9477598829098515,1.0013667345494002
1503702398614,+0.867,+0.484,+0.009,-0.114,+0.896,-0.136,-0.494,+10.812,+14.562,+9.938,-8, -4, -5, 0, -6, 3, 10, 30,-2.9495591224020776,1.005292461030063
1503702398631,+0.867,+0.484,+0.012,-0.114,+0.984,-0.160,-0.481,+13.812,-5.500,+7.125,33, 1, -5, -2, 0, -2, 3, 28,-2.9524398795181797,1.0050299483282872
1503702398653,+0.869,+0.481,+0.016,-0.114,+0.884,-0.174,-0.461,+13.562,-28.000,+4.688,38, 7, 1, 7, 2, 3, 4, 11,-2.9559525883079503,0.9980177717417077
1503702398676,+0.871,+0.477,+0.019,-0.113,+0.799,-0.199,-0.480,+12.938,-28.875,+1.875,-30, -1, -15, -8, -3, -3, -10, -23,-2.9598175372257662,0.988572223872697
1503702398693,+0.872,+0.475,+0.022,-0.113,+0.774,-0.203,-0.488,+9.312,-14.000,+4.000,72, 28, 11, 5, -1, 3, 11, 51,-2.9622954466129174,0.9837780610167355
1503702398713,+0.873,+0.474,+0.025,-0.114,+0.855,-0.172,-0.503,+9.062,-6.125,+9.000,3, -2, 0, 9, -12, 3, 1, -3,-2.963406000046966,0.9815632595237318
1503702398736,+0.872,+0.474,+0.028,-0.114,+0.918,-0.174,-0.508,+11.938,-2.625,+11.688,-19, -7, -6, -7, 2, -5, -5, -7,-2.9658466614363626,0.9809122854126412
1503702398752,+0.873,+0.473,+0.032,-0.115,+0.940,-0.197,-0.518,+17.188,-12.812,+14.562,-7, -30, -7, -1, 3, -3, 3, 8,-2.9678800140850266,0.9787206195759218
1503702398773,+0.874,+0.471,+0.037,-0.115,+0.890,-0.192,-0.528,+20.562,-16.438,+13.625,-24, -11, 4, -7, 1, -1, 1, -14,-2.9721799518543213,0.9740248289157851
1503702398798,+0.874,+0.470,+0.042,-0.115,+0.847,-0.203,-0.515,+24.062,-11.750,+12.188,-8, 9, -10, -10, -8, -8, -7, 5,-2.976496160106081,0.9714499218834011
1503702398811,+0.874,+0.470,+0.048,-0.115,+0.840,-0.215,-0.534,+28.688,-2.125,+11.938,16, 7, 11, 8, 7, 2, 0, 2,-2.982161440725738,0.9715653523724707
1503702398833,+0.873,+0.471,+0.053,-0.114,+0.894,-0.218,-0.542,+31.250,+1.250,+11.750,-13, -10, 5, 3, -2, 0, -1, 9,-2.988737292587465,0.9738659299590344
1503702398855,+0.873,+0.471,+0.060,-0.112,+0.942,-0.226,-0.542,+33.500,-4.750,+11.000,-16, -20, 3, 1, 10, -7, -7, -14,-2.9989314203200097,0.9744245901885842
1503702398871,+0.873,+0.470,+0.065,-0.110,+0.897,-0.220,-0.531,+34.250,-9.562,+5.375,-5, -10, -16, -15, -1, -6, -7, -7,-3.0068527929520856,0.9723889783096994
1503702398901,+0.873,+0.470,+0.071,-0.107,+0.865,-0.224,-0.540,+37.750,-7.312,+2.688,-14, 4, 17, 11, 16, 10, 3, 20,-3.017925939285891,0.9732561145299208
1503702398917,+0.873,+0.470,+0.078,-0.104,+0.850,-0.235,-0.535,+40.688,-2.438,+1.938,21, 18, 8, 2, 0, 0, -2, -14,-3.0299905045800606,0.9744338913885446
1503702398934,+0.872,+0.471,+0.084,-0.101,+0.844,-0.230,-0.542,+42.750,+0.938,+3.812,4, 0, -6, -7, -6, -8, -8, -37,-3.0413378500985133,0.977731698544135
1503702398953,+0.871,+0.472,+0.091,-0.098,+0.839,-0.229,-0.516,+46.188,+6.375,+6.188,16, -1, -3, -1, 6, 3, 5, 24,-3.053735076965186,0.981408188733707
1503702398975,+0.870,+0.474,+0.099,-0.095,+0.848,-0.233,-0.511,+49.000,+6.500,+8.125,-2, -9, 2, 1, -13, 0, -7, -28,-3.067546839123325,0.9881851401767707
1503702398991,+0.868,+0.476,+0.107,-0.093,+0.826,-0.258,-0.504,+50.500,+7.500,+9.688,-27, -19, -8, -4, -6, 2, -1, -3,-3.0796055024237106,0.994623459903191
1503702399013,+0.866,+0.477,+0.115,-0.090,+0.819,-0.271,-0.479,+50.750,+8.938,+9.375,-5, 8, 14, 11, 4, 4, 0, 8,-3.0932832017951863,0.9988496739639794
1503702399035,+0.865,+0.479,+0.123,-0.087,+0.811,-0.264,-0.479,+48.688,+8.812,+10.438,19, 0, 1, -6, -8, 10, -6, -24,-3.1074021665392126,1.006589268399013
1503702401374,+0.866,+0.499,+0.019,+0.026,+0.880,-0.032,-0.500,+7.312,-4.688,-9.250,-11, -3, -3, -6, -2, -5, -1, 1,3.0775525725219253,1.0457077597956117
1503702401397,+0.867,+0.498,+0.020,+0.027,+0.914,-0.054,-0.452,+6.875,-8.125,-2.562,1, 3, -1, 3, 4, 1, 7, -1,3.0749126520678947,1.043727800740995
1503702401419,+0.867,+0.496,+0.021,+0.029,+0.898,-0.035,-0.444,+3.562,-11.062,-9.812,-6, 10, 12, 5, 4, 12, 4, 3,3.0702679115536036,1.038684589787656
1503702401442,+0.868,+0.494,+0.020,+0.031,+0.864,-0.009,-0.462,+4.438,-14.250,-13.000,8, -2, -8, -4, 8, -6, -7, -8,3.067775348658903,1.0339515836181428
1503702401457,+0.869,+0.493,+0.020,+0.034,+0.880,+0.020,-0.473,+6.375,-9.125,-15.438,6, -7, 0, 1, 0, 0, -3, 6,3.0626618174878617,1.0319328407984822
1503702401472,+0.870,+0.492,+0.019,+0.037,+0.884,+0.042,-0.468,+6.562,-9.562,-15.375,2, 3, 0, -2, 2, -5, -5, -11,3.0585356796325938,1.029812439866184
1503702401494,+0.871,+0.490,+0.019,+0.040,+0.882,+0.038,-0.486,+8.688,-10.875,-12.188,-8, -5, -2, -2, -5, -3, 1, -9,3.0532999025628134,1.0252180565423346
1503702401518,+0.871,+0.488,+0.020,+0.043,+0.894,-0.001,-0.454,+7.625,-14.500,-13.250,1, -2, -10, -1, 2, 1, -2, 3,3.046840150980427,1.0202340950212843
1503702401532,+0.872,+0.487,+0.020,+0.044,+0.912,-0.015,-0.471,+3.438,-11.312,-7.438,2, -17, -1, 4, 0, 3, 2, 1,3.04520308708343,1.0181912061787837
1503702401556,+0.872,+0.486,+0.021,+0.045,+0.931,+0.008,-0.512,+5.625,-4.125,-1.188,-4, 4, 5, 0, 1, 1, 0, 0,3.042346712142861,1.0157562813911287
1503702401577,+0.873,+0.485,+0.022,+0.046,+0.972,-0.003,-0.473,+6.750,-13.750,-3.875,-6, 1, -7, -4, 0, 3, 7, -17,3.039749402666068,1.0138415602572826
1503702401592,+0.875,+0.481,+0.021,+0.047,+0.854,+0.045,-0.413,-3.188,-29.938,-0.875,-2, -9, -4, -3, -5, -9, -11, 1,3.0388820390834117,1.0045052893353643
1503702401615,+0.875,+0.481,+0.020,+0.045,+0.791,+0.071,-0.481,-6.188,+4.188,+8.500,10, 2, 6, 2, 1, 3, 3, 18,3.043325913564837,1.004342687818265
1503702401637,+0.874,+0.484,+0.021,+0.044,+0.952,+0.048,-0.492,+1.125,+16.312,+12.375,13, 15, -3, -2, -1, 1, 2, -1,3.044296191943529,1.0116196525090364
1503702401652,+0.874,+0.484,+0.022,+0.042,+1.078,-0.006,-0.463,+2.000,-9.688,+9.812,-34, -16, -9, -5, -4, -4, -5, -25,3.046810337867391,1.011692541209124
1503702401674,+0.875,+0.481,+0.023,+0.042,+0.936,-0.005,-0.465,-1.062,-24.312,+3.250,-9, -4, 2, 2, 0, -2, -9, -5,3.045681900674717,1.0046313240575362
1503702401697,+0.877,+0.478,+0.022,+0.042,+0.745,+0.013,-0.486,-3.500,-17.438,-3.375,-15, -9, -7, -4, 1, -4, -9, -12,3.0467240231570796,0.9978631473584929
1503702401715,+0.877,+0.478,+0.021,+0.042,+0.777,+0.017,-0.538,-2.688,+3.812,+0.375,4, -10, -7, -1, 0, 0, 3, -3,3.0476760755243557,0.9977453335130894
1503702401734,+0.876,+0.480,+0.022,+0.041,+0.895,+0.032,-0.498,-3.312,+12.125,+8.188,0, 12, 6, 3, -2, 1, 0, -13,3.0484952538768324,1.0024407911421633
1503702401757,+0.876,+0.480,+0.023,+0.039,+0.971,-0.002,-0.548,-1.188,+1.875,+10.812,11, 5, 9, 2, -1, -3, -3, 15,3.051029130281996,1.002511265476793
1503702401774,+0.877,+0.478,+0.023,+0.039,+0.880,-0.012,-0.485,+1.438,-13.688,+6.250,-7, -6, 4, -1, -1, 0, 2, 18,3.051013579008687,0.9979095096835454
1503702401795,+0.879,+0.476,+0.024,+0.038,+0.773,+0.035,-0.525,-1.750,-12.625,+8.188,-15, 5, 2, 0, 0, 0, -1, -10,3.052040201650954,0.9939307156199085
1503702401817,+0.878,+0.476,+0.024,+0.036,+0.785,+0.037,-0.536,-1.062,+8.312,+12.125,-1, 10, 1, 2, 0, 0, 0, 7,3.0553040164877414,0.993358945699529
1503702401832,+0.877,+0.478,+0.026,+0.033,+0.934,+0.024,-0.479,-0.500,+9.750,+20.062,14, -1, 4, 0, 0, 1, 2, -8,3.0586485037206788,0.9981143674976323
1503702401855,+0.877,+0.478,+0.028,+0.030,+0.965,-0.005,-0.475,+3.875,-3.125,+23.438,-2, 9, -5, -4, -2, -1, -1, -4,3.0619923855994724,0.9982764829948196
1503702401877,+0.878,+0.476,+0.031,+0.028,+0.916,-0.038,-0.496,+3.188,-17.000,+20.438,32, -12, -4, 0, -1, 1, 3, 20,3.06267515949417,0.9940089544279849
1503702401892,+0.879,+0.474,+0.033,+0.025,+0.854,-0.031,-0.504,+2.375,-9.500,+18.750,-2, 3, 4, 2, 5, 0, 0, 0,3.0660965319264757,0.9895886186789183
1503702401922,+0.880,+0.473,+0.033,+0.023,+0.765,-0.024,-0.504,-4.375,-8.500,+15.500,9, 9, 1, -2, -2, -2, 1, 2,3.069749213832804,0.98748569669263
1503702401937,+0.880,+0.473,+0.034,+0.020,+0.824,-0.026,-0.528,-2.875,+7.188,+17.188,-11, -2, -6, -6, -5, -9, -12, -63,3.074078398655664,0.9875105384434201
1503702401954,+0.879,+0.475,+0.036,+0.017,+0.940,-0.039,-0.508,-1.875,+7.312,+21.562,-25, -10, -8, -4, -2, 1, 6, 29,3.077372063776088,0.992255449839665
1503702401975,+0.880,+0.473,+0.038,+0.015,+0.957,-0.034,-0.513,+2.375,-12.875,+18.562,7, -5, 1, 0, 0, 1, -3, -17,3.0790919812622146,0.9878706649231606
1503702401997,+0.882,+0.470,+0.039,+0.014,+0.872,-0.059,-0.531,+3.312,-19.562,+10.188,-4, -6, -5, -2, -3, 0, 5, 13,3.0801693671519157,0.9813690534684446
1503702402012,+0.883,+0.467,+0.039,+0.014,+0.633,-0.069,-0.532,-1.250,-10.062,-1.000,-38, 6, 8, 3, 0, 1, 0, 25,3.080246760670932,0.974260453594341
1503702402034,+0.882,+0.469,+0.039,+0.013,+0.679,-0.024,-0.554,-5.000,+21.250,+3.938,36, 19, 7, 5, 4, 3, 2, -22,3.0818968516223113,0.978779365509188
1503702402057,+0.879,+0.475,+0.040,+0.010,+0.976,-0.049,-0.514,-0.500,+37.500,+15.500,19, -3, -9, -2, 2, -1, -5, -22,3.0858769546545117,0.9925331788062484
1503702402072,+0.878,+0.476,+0.042,+0.008,+1.063,-0.062,-0.473,+1.812,+0.625,+15.562,14, 5, -7, -4, -3, 0, 1, -15,3.0873380661748366,0.9947768303041473
1503702402094,+0.880,+0.473,+0.043,+0.007,+0.857,-0.062,-0.472,+1.750,-27.625,+11.750,-98, -30, 0, 2, -2, -5, -5, -12,3.0884456864232743,0.9882516507657585
1503702402117,+0.882,+0.469,+0.044,+0.005,+0.736,-0.083,-0.499,-1.188,-19.688,+13.562,25, 1, 1, -3, -3, 4, 5, 17,3.091330233313235,0.979148809917863
1503702402132,+0.882,+0.468,+0.045,+0.002,+0.826,-0.109,-0.473,-5.938,-3.875,+18.625,22, 5, -2, -4, -9, 5, -7, 38,3.0956965601015405,0.9766034321543734
1503702402155,+0.882,+0.469,+0.047,-0.001,+0.920,-0.087,-0.536,-3.125,+0.625,+19.625,-5, 3, -6, 2, 10, 4, 1, 5,3.099116435109504,0.9793047174086272
1503702402177,+0.883,+0.467,+0.048,-0.004,+0.964,-0.106,-0.503,-0.688,-16.750,+16.438,-42, -25, -12, -4, -1, -4, -2, -4,3.1036742469394256,0.9747286140358776
1503702402193,+0.883,+0.466,+0.049,-0.006,+0.818,-0.072,-0.460,-3.625,-6.812,+12.750,52, 7, 0, -1, -5, -4, 15, 46,3.106312588762071,0.9722275769826215
1503702402214,+0.884,+0.465,+0.049,-0.007,+0.828,-0.103,-0.559,-2.000,-0.375,+9.250,14, 0, 7, 1, 14, 9, 13, 5,3.108256336939062,0.9701541308352623
1503702402237,+0.882,+0.468,+0.051,-0.008,+0.892,-0.106,-0.533,+1.688,+14.688,+9.062,5, 19, 12, 2, -6, -8, -19, -62,3.1077750497218997,0.9770023467748978
1503702402253,+0.881,+0.469,+0.052,-0.009,+0.927,-0.110,-0.538,+7.375,+9.125,+8.188,21, 30, 14, 5, -1, 2, 4, -18,3.1084295087985385,0.9791330528535278
1503702402274,+0.881,+0.470,+0.054,-0.010,+0.910,-0.108,-0.516,+6.125,+5.375,+9.500,-14, 0, -10, -6, -3, -1, 4, 33,3.108269045241355,0.981961579016614
1503702402297,+0.880,+0.471,+0.057,-0.010,+0.879,-0.121,-0.533,+10.750,+5.875,+8.250,-49, -30, -12, -10, -5, -8, -13, -89,3.105241263728712,0.9845184850100217
1503702402312,+0.879,+0.472,+0.060,-0.011,+0.890,-0.138,-0.523,+12.812,+9.688,+7.875,30, -4, 1, 3, -15, -7, -1, 35,3.103963958222577,0.9870441764438339
1503702402335,+0.878,+0.474,+0.063,-0.011,+0.877,-0.127,-0.531,+16.750,+12.438,+9.125,19, -11, -2, 0, -4, 2, 19, 86,3.1008451824155254,0.9922353722694647
1503702402357,+0.877,+0.476,+0.067,-0.011,+0.880,-0.147,-0.497,+14.500,+10.375,+10.375,-52, 6, -1, -3, -2, -9, -4, 7,3.096747260412649,0.9976834374564174
1503702402372,+0.875,+0.478,+0.070,-0.012,+0.876,-0.136,-0.506,+16.125,+16.312,+10.688,9, -1, -3, 0, 0, -3, -6, 6,3.0951585750877153,1.002378306199422
1503702402395,+0.874,+0.480,+0.073,-0.012,+0.903,-0.149,-0.518,+16.938,+13.938,+9.625,-26, -12, -9, -12, -11, -7, -8, 8,3.091960794333477,1.0077118753551082
1503702402420,+0.873,+0.482,+0.077,-0.011,+0.868,-0.135,-0.475,+18.500,+14.812,+8.062,20, -13, 4, -2, -6, -13, 5, 18,3.086010699872581,1.0134220959721219
1503702402432,+0.871,+0.484,+0.081,-0.011,+0.862,-0.142,-0.482,+19.938,+15.188,+6.312,-22, 24, 16, 7, 9, 9, -5, -19,3.081565079533976,1.018611658930444
1503702402462,+0.869,+0.487,+0.084,-0.010,+0.892,-0.147,-0.497,+21.688,+17.938,+9.000,-15, 11, 5, 2, 11, 4, -9, 33,3.0762459796729082,1.0262832658894279
1503702404916,+0.816,+0.577,+0.030,+0.014,+0.939,-0.057,-0.267,+8.000,-3.375,-12.000,2, 8, 3, 0, -3, -7, -3, -2,3.0840482670816907,1.2317928897700685
1503702404938,+0.815,+0.578,+0.030,+0.016,+0.932,-0.064,-0.272,+6.938,+4.938,-12.875,-3, -3, 3, -1, -2, -1, -5, -2,3.0807018325247824,1.2341715730035037
1503702404960,+0.814,+0.580,+0.030,+0.018,+0.978,-0.051,-0.256,+5.812,+12.062,-14.125,-5, -5, -1, 0, -2, -4, -5, 3,3.0774477948198453,1.2392781350711586
1503702404976,+0.813,+0.581,+0.030,+0.021,+0.998,-0.032,-0.270,+4.250,+8.312,-14.562,10, 2, 1, 2, -1, -3, -4, -8,3.0724933645752692,1.2416848877353976
1503702404998,+0.812,+0.582,+0.029,+0.023,+0.965,-0.020,-0.263,+2.938,+1.000,-13.500,-6, 5, 0, 2, -4, -2, 2, -3,3.070329706138125,1.243948954640612
1503702405020,+0.812,+0.582,+0.028,+0.025,+0.971,-0.022,-0.278,+2.375,-0.750,-10.875,7, 0, 0, 0, 2, 0, 3, 13,3.0682485410404303,1.2438621372994048
1503702405037,+0.813,+0.581,+0.028,+0.026,+0.986,-0.032,-0.276,+1.812,-3.688,-9.250,-3, -5, -1, -4, -2, -2, 1, 4,3.0667003924520597,1.2415286674638293
1503702405058,+0.813,+0.581,+0.027,+0.028,+0.989,-0.024,-0.278,+0.812,-6.250,-10.625,9, -1, 1, 2, 0, 1, -3, 2,3.0646162938037307,1.2414426812837007
1503702405080,+0.814,+0.580,+0.026,+0.030,+0.941,+0.007,-0.278,-0.562,-6.750,-11.500,10, -2, -2, 2, 6, -2, 0, 21,3.06259842390215,1.2390108543466123
1503702405095,+0.814,+0.580,+0.025,+0.032,+0.938,+0.020,-0.286,+1.375,+0.125,-11.562,-7, 1, 4, 1, -5, 1, -1, -5,3.0605116327700905,1.2389274821662914
1503702405118,+0.814,+0.580,+0.025,+0.034,+0.973,+0.001,-0.292,+4.875,+3.062,-13.625,-8, -1, -5, -2, 2, -1, -4, -15,3.0572713477963185,1.238960046188383
1503702405140,+0.814,+0.580,+0.024,+0.037,+1.010,-0.033,-0.261,+3.875,-4.125,-16.438,-5, 0, -6, -7, -4, -1, -5, -10,3.0535675001818836,1.2388921942792277
1503702405155,+0.814,+0.579,+0.023,+0.039,+0.972,-0.015,-0.246,+0.000,-7.750,-18.062,6, 4, 0, 2, 4, 6, 6, 5,3.051321082825708,1.2360869238493501
1503702405178,+0.814,+0.578,+0.021,+0.041,+0.952,+0.011,-0.281,-1.562,-4.938,-17.500,5, 2, -2, 1, -2, -4, 1, -1,3.0502153938965724,1.2331740693131739
1503702405200,+0.814,+0.578,+0.019,+0.043,+0.963,+0.013,-0.287,-3.500,-1.000,-16.125,-10, 2, 2, -3, -12, -1, 1, 1,3.049273078331537,1.2329937868944367
1503702405216,+0.815,+0.578,+0.017,+0.045,+1.002,+0.028,-0.292,-4.000,-4.500,-12.375,0, -3, 1, 4, 3, 1, 2, 1,3.0485445222276373,1.2332065474361829
1503702405241,+0.816,+0.576,+0.016,+0.046,+1.025,+0.032,-0.268,-2.625,-13.500,-9.125,-3, -8, -1, 1, 5, 2, -3, -5,3.0479186671709693,1.2280695452679395
1503702405260,+0.818,+0.574,+0.014,+0.046,+0.972,+0.021,-0.258,-8.312,-23.500,-8.625,2, -1, 0, -1, 4, -3, -4, -2,3.0502629973787188,1.2232376409743295
1503702405276,+0.820,+0.571,+0.012,+0.047,+0.888,+0.056,-0.304,-8.375,-19.375,-8.625,2, -2, 0, 0, 2, -2, -6, -16,3.050775211811076,1.2157318775848696
1503702405299,+0.821,+0.569,+0.010,+0.048,+0.890,+0.067,-0.328,-6.062,-12.125,-9.312,-6, 2, 4, 3, 1, 2, 0, 1,3.051245033175012,1.2105676239798806
1503702405320,+0.822,+0.567,+0.008,+0.049,+0.930,+0.083,-0.318,-5.375,-9.500,-8.062,0, 2, -1, -1, 1, -3, -2, 1,3.0516979487835356,1.2054221564590137
1503702405335,+0.823,+0.566,+0.006,+0.050,+0.944,+0.102,-0.331,-4.062,-11.188,-6.688,8, -2, -2, -1, -6, -5, 4, 2,3.052324120320043,1.2030024493454985
1503702405358,+0.825,+0.563,+0.005,+0.051,+0.933,+0.079,-0.324,-3.125,-14.688,-3.312,11, -3, -7, -1, 5, 0, 4, 2,3.0516220935225706,1.1956548845910002
1503702405380,+0.826,+0.561,+0.005,+0.051,+0.922,+0.076,-0.349,-5.125,-13.062,+0.250,-5, -5, 0, -1, -8, -2, 0, 1,3.05143277560009,1.1906663379218905
1503702405395,+0.827,+0.560,+0.004,+0.050,+0.921,+0.077,-0.349,-3.000,-6.812,+3.250,-10, -7, -2, 1, 3, -1, -2, 13,3.0542028168333792,1.1883266656633473
1503702405418,+0.827,+0.559,+0.005,+0.049,+0.968,+0.065,-0.340,-1.125,-5.938,+5.125,-2, 2, 4, -1, -1, -2, -5, -5,3.0545505962205595,1.185678566865213
1503702405441,+0.829,+0.558,+0.005,+0.048,+1.000,+0.033,-0.317,-1.312,-14.125,+7.250,-3, 7, -3, -2, -1, -1, 1, -3,3.0563971058752837,1.1838207526035733
1503702405455,+0.831,+0.555,+0.006,+0.047,+0.989,+0.007,-0.312,-2.562,-21.938,+7.000,-33, -20, 0, -2, -6, -4, -6, -16,3.0567821617448194,1.1766465267438078
1503702405478,+0.832,+0.552,+0.006,+0.045,+0.948,+0.022,-0.317,-4.688,-20.125,+7.062,17, 2, 2, 2, -2, -1, 1, 0,3.059767901194942,1.1690030037638233
1503702405500,+0.834,+0.550,+0.006,+0.044,+0.944,+0.045,-0.346,-6.812,-18.438,+8.312,-7, 4, -2, -1, -7, -1, -3, 1,3.061460387022833,1.1644969716784934
1503702405515,+0.835,+0.548,+0.006,+0.042,+0.978,+0.049,-0.344,-6.188,-15.562,+11.000,-10, 6, 0, -2, 3, 0, -3, -6,3.064647851260272,1.1595625532333258
1503702405538,+0.836,+0.546,+0.006,+0.040,+0.950,+0.036,-0.352,-4.875,-12.125,+8.938,2, 0, -9, -5, -2, -3, -3, 18,3.0678531303945973,1.1546363924434568
1503702405560,+0.838,+0.545,+0.006,+0.039,+0.952,+0.056,-0.355,-3.375,-13.625,+7.250,-5, 1, -1, 0, 4, 4, 3, -22,3.0697074543226464,1.1528410736090005
1503702405578,+0.839,+0.543,+0.007,+0.038,+0.948,+0.053,-0.366,-3.312,-12.438,+9.188,7, 4, 2, -2, -3, -1, 2, 21,3.070172343585167,1.1479922967740133
1503702405598,+0.840,+0.541,+0.007,+0.037,+0.934,+0.049,-0.385,-0.875,-14.250,+9.312,1, -4, -2, -7, -9, -3, 0, -4,3.071731955432612,1.1430964660470138
1503702405621,+0.842,+0.539,+0.008,+0.035,+0.918,+0.038,-0.377,-1.938,-13.500,+9.250,-7, -3, -5, -2, -2, -4, -6, -1,3.0740618346331745,1.1387115948230313
1503702405635,+0.842,+0.537,+0.009,+0.034,+0.896,+0.045,-0.383,-0.875,-7.125,+10.375,14, 11, 5, 2, 3, -3, 1, 0,3.074413023031627,1.1334398272056234
1503702405658,+0.843,+0.537,+0.010,+0.033,+0.917,+0.042,-0.393,+0.375,-0.812,+12.375,-1, -12, -5, -3, 0, 3, 5, 8,3.075181835885849,1.1339494964954562
1503702405680,+0.843,+0.537,+0.011,+0.031,+0.963,+0.048,-0.382,+2.125,-2.938,+14.625,-2, 0, 0, 0, 1, -1, 3, -1,3.0774745634635092,1.1339968625624735
1503702405695,+0.844,+0.536,+0.013,+0.029,+0.948,+0.024,-0.375,+2.312,-8.625,+15.250,14, 15, 10, 2, 2, 3, -1, -8,3.078741225619032,1.1319107291434571
1503702405718,+0.845,+0.534,+0.015,+0.027,+0.902,+0.024,-0.401,+3.625,-6.312,+16.250,0, -3, 4, 4, 3, 1, -3, 5,3.0799198160329584,1.127181121698834
1503702405743,+0.845,+0.534,+0.017,+0.026,+0.914,+0.014,-0.386,+4.125,-1.375,+16.188,7, 5, 0, 0, -1, 0, 4, 1,3.079474793553969,1.1273284811980575
1503702405755,+0.844,+0.535,+0.019,+0.024,+0.947,+0.012,-0.374,+4.938,+2.375,+16.250,-3, 11, 6, 0, 2, -2, -2, -5,3.0806506020715223,1.1296685049464936
1503702405779,+0.845,+0.534,+0.022,+0.023,+0.992,-0.000,-0.398,+7.938,-4.062,+16.062,19, -2, 2, 3, 2, 1, 2, 10,3.079205397286424,1.1277356649764174
1503702405800,+0.846,+0.532,+0.024,+0.021,+0.980,-0.019,-0.395,+7.875,-13.625,+13.625,-17, -8, -4, -6, -6, 2, 2, 4,3.0804466923389344,1.1230535715069363
1503702405816,+0.847,+0.530,+0.026,+0.021,+0.917,-0.003,-0.391,+8.250,-17.000,+12.375,4, -1, -3, -4, 3, 2, -1, -18,3.078328945212069,1.1184322215231643
1503702405838,+0.849,+0.528,+0.029,+0.020,+0.878,-0.001,-0.395,+8.188,-11.688,+11.562,-6, -3, -2, 1, 1, -1, -3, -17,3.077044798603785,1.114394948331722
1503702405860,+0.849,+0.527,+0.031,+0.019,+0.879,-0.020,-0.397,+8.438,-1.562,+12.125,-17, -6, -1, -1, -3, -2, 0, -4,3.076557026483558,1.1119744531106004
1503702405877,+0.849,+0.528,+0.033,+0.019,+0.910,-0.023,-0.405,+8.000,+4.188,+11.188,-1, 1, -4, -1, -3, -2, -2, 9,3.0745276337319005,1.1148816405582629
1503702405898,+0.848,+0.528,+0.036,+0.018,+0.938,-0.014,-0.404,+9.938,+4.000,+12.688,-26, -5, 2, 1, 0, -3, -9, -26,3.072866305700997,1.1148068195091927
1503702405921,+0.848,+0.528,+0.039,+0.017,+0.957,-0.024,-0.398,+12.250,-2.562,+14.312,20, 10, 13, 6, 3, -1, 5, 11,3.0713951828671786,1.1152246078850485
1503702405935,+0.849,+0.527,+0.042,+0.017,+0.928,-0.039,-0.387,+13.688,-8.812,+13.500,1, 6, -6, 0, -1, -4, 0, -10,3.0683741271566847,1.1135267842301202
1503702405958,+0.849,+0.525,+0.045,+0.016,+0.908,-0.044,-0.401,+14.688,-7.375,+14.812,2, -7, -7, -1, 0, -6, 0, 5,3.0667787779010625,1.1087134021453888
1503702405981,+0.850,+0.524,+0.049,+0.015,+0.896,-0.060,-0.405,+14.812,-4.938,+16.938,3, 18, 5, 0, 4, 1, 0, 1,3.064442017230506,1.1072285174519483
1503702405995,+0.850,+0.523,+0.053,+0.014,+0.918,-0.073,-0.399,+15.000,-5.125,+16.875,-2, -9, -4, -1, 2, 4, 1, -13,3.0618895112016515,1.1053250650752244
1503702406020,+0.850,+0.523,+0.057,+0.013,+0.904,-0.081,-0.400,+15.250,-3.312,+16.125,-3, -11, -3, 2, 2, 0, 3, 3,3.0594019973085227,1.1061135270530438
1503702406039,+0.851,+0.522,+0.060,+0.012,+0.901,-0.090,-0.407,+13.938,-3.500,+16.062,2, -6, -3, 0, -2, -1, 1, 1,3.058168337702777,1.1045540028413958
1503702406055,+0.851,+0.522,+0.064,+0.012,+0.911,-0.100,-0.389,+12.812,-2.562,+15.188,-22, 0, 2, -3, -3, 0, -4, -2,3.0539951365746254,1.1054871421721346
1503702406079,+0.851,+0.521,+0.067,+0.011,+0.915,-0.101,-0.397,+12.500,-3.500,+14.125,-15, -5, -2, -1, -2, -2, -3, -8,3.052514547823043,1.1035237667118498
1503702406099,+0.851,+0.520,+0.070,+0.010,+0.900,-0.110,-0.395,+11.312,-3.688,+12.500,26, 7, -6, -1, -2, 0, 0, 11,3.0510405045597184,1.1015869197518477
1503702406122,+0.851,+0.520,+0.073,+0.010,+0.892,-0.114,-0.391,+11.250,-1.000,+10.562,-7, -5, 3, -1, -1, -3, 1, 7,3.047913137256478,1.1023844955007507
1503702406137,+0.851,+0.520,+0.076,+0.009,+0.898,-0.119,-0.400,+12.562,+2.250,+10.438,23, -2, 5, 5, 2, 0, 0, -1,3.0464923924232417,1.103145972182279
1503702406159,+0.850,+0.520,+0.079,+0.009,+0.916,-0.124,-0.383,+11.500,-1.188,+10.812,-10, -3, 3, 2, 2, 4, 3, -2,3.043049011422103,1.1035348548615809
1503702406174,+0.850,+0.520,+0.081,+0.008,+0.907,-0.131,-0.378,+11.812,-3.312,+10.625,-28, -2, 1, -2, -4, -3, -6, -5,3.0426672832965416,1.1040539954854567
1503702406197,+0.851,+0.519,+0.084,+0.008,+0.893,-0.158,-0.398,+11.438,-3.312,+10.188,-6, 10, -3, -1, 0, -2, -1, 4,3.039822530151891,1.1027950934212747
1503702406219,+0.851,+0.518,+0.087,+0.008,+0.881,-0.147,-0.416,+9.938,-0.750,+9.438,23, 1, -9, -4, -2, 1, -1, 0,3.0366569517781037,1.1010971358176729
1503702406234,+0.850,+0.518,+0.090,+0.007,+0.911,-0.133,-0.403,+10.938,-0.188,+11.062,-18, -6, 4, 2, 2, -1, -5, -13,3.034893813400858,1.1015202288578028
1503702406257,+0.851,+0.517,+0.092,+0.006,+0.913,-0.147,-0.391,+9.688,-5.625,+12.625,11, -6, 5, 1, 1, 1, 6, 13,3.0348361472032246,1.0999335094010267
1503702406280,+0.851,+0.516,+0.095,+0.005,+0.879,-0.161,-0.394,+7.938,-6.562,+12.250,1, -4, -6, 0, -1, 0, 2, 14,3.0333936871899447,1.0982287704090907
1503702406294,+0.851,+0.516,+0.097,+0.005,+0.883,-0.159,-0.417,+8.000,-1.875,+11.125,-18, -10, -5, 0, 2, 1, 0, -1,3.031314537316253,1.0989307823352898
1503702406317,+0.851,+0.516,+0.099,+0.004,+0.912,-0.159,-0.400,+7.688,+1.000,+11.125,-1, 5, 4, 1, -2, -2, -1, -2,3.030949978355442,1.09955661476032
1503702406340,+0.851,+0.516,+0.101,+0.003,+0.920,-0.170,-0.389,+6.562,-1.000,+10.500,16, 0, 0, -1, -4, 0, 0, 3,3.030585448922377,1.1001938842267975
1503702406355,+0.851,+0.515,+0.103,+0.003,+0.917,-0.173,-0.411,+8.125,-3.125,+9.312,11, -4, 5, 3, 1, -2, -1, -4,3.0284791730296527,1.0982886246142518
1503702406377,+0.851,+0.514,+0.105,+0.002,+0.922,-0.171,-0.422,+7.500,-4.000,+7.562,-1, -6, -2, 0, 1, 2, 0, 1,3.028093313876796,1.0963003187689648
1503702406399,+0.851,+0.514,+0.107,+0.002,+0.913,-0.175,-0.396,+6.562,-2.375,+7.500,6, -6, -7, -5, -2, 1, 0, 3,3.026015962449239,1.0970709495382254
1503702406415,+0.851,+0.513,+0.109,+0.002,+0.925,-0.172,-0.421,+9.438,-2.250,+5.938,-4, 4, 1, 1, 2, 1, -1, -7,3.0239145401114573,1.0952067669007866
1503702406437,+0.851,+0.513,+0.111,+0.003,+0.939,-0.175,-0.443,+10.688,-4.625,+6.812,-7, -2, -3, -3, -3, 2, 0, 7,3.0201180670775787,1.0961103079817496
1503702406460,+0.852,+0.511,+0.113,+0.003,+0.917,-0.183,-0.421,+10.812,-7.250,+6.625,-4, 2, 0, -3, -1, 0, 1, -5,3.0184086432597352,1.0921079216605547
1503702406474,+0.852,+0.511,+0.115,+0.003,+0.871,-0.184,-0.412,+10.812,-3.875,+6.250,-2, -5, -4, -4, -4, -5, -2, -1,3.0163424018723317,1.0929384169413894
1503702406497,+0.852,+0.511,+0.118,+0.003,+0.852,-0.205,-0.417,+8.312,+4.438,+7.188,13, 20, 7, 4, 0, -3, 0, 6,3.0132450597989755,1.0942126376729324
1503702406520,+0.851,+0.512,+0.120,+0.002,+0.901,-0.198,-0.427,+10.000,+10.875,+8.188,8, 12, 5, 2, -1, -1, -3, -4,3.0124851744018035,1.0971432088640622
1503702406534,+0.850,+0.513,+0.122,+0.002,+0.959,-0.198,-0.398,+11.188,+5.562,+10.062,6, -2, -1, -1, -1, 0, -1, 9,3.0099918053362136,1.1002052414658905
1503702406565,+0.849,+0.512,+0.125,+0.002,+0.935,-0.208,-0.395,+11.562,-3.750,+9.562,-2, 7, 10, 4, -2, 0, -2, -5,3.0063864178127218,1.0984281816446868
1503702406579,+0.850,+0.511,+0.128,+0.002,+0.881,-0.210,-0.405,+13.625,-7.375,+9.062,-46, -7, -2, -2, 1, -4, -1, -10,3.003711560225366,1.0976372949845807
1503702406594,+0.850,+0.510,+0.131,+0.002,+0.860,-0.241,-0.404,+12.125,-2.562,+9.688,20, -2, -5, -4, -1, 0, 1, -1,3.000574697958115,1.096403100402365
1503702406619,+0.849,+0.511,+0.134,+0.001,+0.865,-0.240,-0.405,+11.750,+4.125,+9.062,17, 5, -2, 0, 0, -2, -1, -2,2.9987257426884923,1.0999184056021183
1503702406639,+0.849,+0.511,+0.136,+0.001,+0.901,-0.239,-0.403,+12.062,+5.500,+7.562,-5, -6, -1, -3, -2, -2, 5, 10,2.9966486826212613,1.1009089806314305
1503702406654,+0.848,+0.511,+0.139,+0.001,+0.911,-0.238,-0.400,+13.062,+3.250,+7.625,6, 4, 9, 5, 3, 2, 2, -1,2.9930219481465663,1.1019494626701003
1503702406677,+0.848,+0.511,+0.142,+0.001,+0.903,-0.238,-0.402,+14.188,-1.000,+8.812,5, 2, -1, -3, -2, -1, -4, -5,2.9899011096019814,1.1035011663731777
1503702406699,+0.848,+0.510,+0.145,+0.001,+0.885,-0.252,-0.395,+13.312,-4.938,+7.438,-13, 6, 4, 1, 1, 0, -4, -14,2.986754042431549,1.1024214383535038
1503702406716,+0.848,+0.509,+0.148,+0.002,+0.869,-0.253,-0.402,+13.375,-2.938,+8.250,5, -9, -6, -2, -1, -1, -2, 4,2.9818805314891033,1.10151375719887
1503702406737,+0.848,+0.509,+0.150,+0.002,+0.881,-0.255,-0.411,+12.250,-1.875,+8.500,0, -6, -10, -6, -3, -5, -3, -3,2.979806187968948,1.1026157385296222
1503702406759,+0.847,+0.508,+0.153,+0.002,+0.900,-0.250,-0.397,+12.500,-0.938,+8.625,1, 0, -1, -2, 0, 1, 0, -2,2.976091005644279,1.1011544819572026
1503702409018,+0.831,+0.550,-0.036,-0.079,+0.993,-0.021,-0.309,-0.812,-30.125,-14.812,1, -8, -8, -2, 4, -3, -1, -3,-2.969993936427264,1.1675469270347603
1503702409040,+0.833,+0.547,-0.037,-0.079,+0.958,-0.003,-0.293,-7.375,-24.875,-2.375,-33, -18, 6, 4, 0, 3, 4, -7,-2.9688313855436808,1.1605919614951217
1503702409061,+0.835,+0.543,-0.038,-0.078,+0.934,-0.007,-0.379,-4.688,-24.812,-5.312,9, 11, 7, 3, -2, 0, 0, 5,-2.9690351390797405,1.1509696496942912
1503702409078,+0.838,+0.539,-0.039,-0.078,+1.011,-0.036,-0.370,-7.438,-28.000,-12.062,1, 0, -1, 0, -3, -1, -2, -1,-2.9680494280903367,1.141865202076871
1503702409100,+0.839,+0.536,-0.041,-0.077,+0.942,+0.018,-0.323,-10.000,-22.062,-9.562,6, 1, 1, 3, -4, 0, 0, -1,-2.9671304325749106,1.1347353044025579
1503702409121,+0.841,+0.534,-0.044,-0.077,+0.899,+0.078,-0.381,-13.000,-16.938,-3.562,-15, 0, -2, -4, -4, -3, -1, -4,-2.964258406731996,1.1309984464300384
1503702409138,+0.842,+0.532,-0.045,-0.078,+0.979,+0.053,-0.433,-5.938,-8.375,+2.125,12, 3, -3, -3, 0, 0, 1, 2,-2.9614172135820063,1.126426041902125
1503702409160,+0.843,+0.531,-0.045,-0.078,+1.021,-0.045,-0.398,-5.062,-12.562,-0.500,6, 0, -4, 0, 3, 2, 1, 2,-2.961574988259905,1.1242399623010504
1503702409181,+0.844,+0.528,-0.046,-0.079,+0.997,-0.030,-0.377,-8.688,-19.812,-0.250,2, 4, -2, -4, -4, -2, 0, 1,-2.958450629755857,1.1170496855551537
1503702409199,+0.846,+0.525,-0.046,-0.080,+0.957,-0.011,-0.411,-6.375,-20.000,-0.188,-2, -7, 1, -1, 1, -1, -3, -1,-2.956827600354483,1.110111356688262
1503702409220,+0.848,+0.522,-0.046,-0.080,+0.972,-0.011,-0.415,-4.062,-20.750,-2.688,-28, -7, -4, -4, -7, -4, -1, -4,-2.95687509568528,1.1031561517693742
1503702409242,+0.849,+0.520,-0.047,-0.079,+0.893,-0.021,-0.367,-3.812,-17.812,-6.562,-6, -8, 9, 9, 7, 3, 4, -1,-2.9574037012197913,1.0985702940273288
1503702409258,+0.851,+0.517,-0.048,-0.079,+0.816,+0.007,-0.405,-6.188,-17.688,-6.062,15, 13, -3, -4, -10, -1, 3, -3,-2.9564596919660575,1.0918939582742038
1503702409280,+0.851,+0.517,-0.049,-0.079,+0.844,+0.023,-0.442,-4.562,+0.188,+1.250,18, 0, -9, -3, 2, -2, 0, 5,-2.95544362544181,1.0921389236760202
1503702409302,+0.851,+0.517,-0.049,-0.080,+0.949,+0.019,-0.443,-3.000,+5.875,+4.688,31, 14, -4, -1, 0, 2, 0, 8,-2.953771991952094,1.0921840542158348
1503702409318,+0.851,+0.517,-0.049,-0.081,+0.957,+0.014,-0.434,-3.688,-1.500,+6.625,-40, -10, -3, 0, -6, -3, -6, -25,-2.952101419983104,1.0922291769059116
1503702409340,+0.851,+0.516,-0.048,-0.082,+0.897,+0.014,-0.416,-2.312,-9.375,+7.812,12, 1, 0, -2, -7, -3, -2, 2,-2.951149532630338,1.089408101044958
1503702409362,+0.852,+0.515,-0.047,-0.084,+0.851,-0.001,-0.422,-1.812,-2.250,+11.000,-18, -14, -2, -1, 5, 1, 3, 2,-2.9490037955618558,1.0871124377635024
1503702409378,+0.851,+0.516,-0.047,-0.086,+0.877,+0.017,-0.434,-4.500,+7.250,+12.562,-18, -12, -9, -7, -7, -4, 1, 28,-2.9454784086953465,1.0893378517533874
1503702409402,+0.849,+0.518,-0.047,-0.088,+0.938,+0.036,-0.412,-4.750,+13.062,+12.750,8, 8, -6, -4, -5, 1, 4, 5,-2.9417743998569086,1.09371002118888
1503702409421,+0.848,+0.520,-0.047,-0.089,+0.958,+0.013,-0.424,-0.625,+13.188,+9.562,12, -2, -3, 3, 11, 3, 7, 9,-2.94024960946282,1.0985247942084815
1503702409439,+0.847,+0.522,-0.046,-0.089,+0.922,+0.003,-0.437,+2.750,+10.438,+1.812,-14, -6, -7, -10, -5, -5, -9, -45,-2.941418603836336,1.103058768366814
1503702409460,+0.847,+0.523,-0.046,-0.088,+0.896,+0.010,-0.410,+0.812,+9.812,+0.125,21, 4, 1, 1, -4, 0, 0, 26,-2.9434012560771197,1.105645696339435
1503702409481,+0.845,+0.526,-0.046,-0.088,+0.874,+0.003,-0.394,+1.375,+21.312,+4.188,-37, -14, -7, -1, 1, 1, -1, 4,-2.943382458219796,1.1126054333552875
1503702409498,+0.843,+0.529,-0.046,-0.089,+0.905,-0.004,-0.388,-0.688,+21.438,+4.062,-9, -1, 9, 3, 3, 4, 5, 17,-2.94172238573505,1.1196287853050526
1503702409520,+0.841,+0.532,-0.045,-0.089,+0.958,-0.021,-0.376,+0.438,+19.062,+4.125,37, 21, 23, 7, 2, -1, -4, 2,-2.942769819479447,1.1263942288923425
1503702409542,+0.840,+0.534,-0.044,-0.089,+0.956,-0.055,-0.414,+6.312,+10.938,+3.188,13, 26, -2, -6, 1, -2, 2, 10,-2.943991767485645,1.13099333800836
1503702409558,+0.840,+0.534,-0.043,-0.088,+0.943,-0.066,-0.376,+5.250,+0.250,-0.562,1, -8, -6, 6, 26, 3, 1, 1,-2.946685070157809,1.1307234859238784
1503702409580,+0.840,+0.534,-0.042,-0.089,+0.904,-0.076,-0.329,+0.875,-2.688,+1.562,6, 9, 0, -3, -10, -3, -2, -17,-2.9460850022821883,1.1305304818755173
1503702409603,+0.839,+0.535,-0.041,-0.089,+0.875,-0.076,-0.383,+0.625,+9.312,+2.625,-13, -7, -7, -6, -8, -4, -8, -28,-2.946990593101504,1.1324995136045675
1503702409618,+0.838,+0.536,-0.040,-0.090,+0.962,-0.096,-0.354,-0.250,+3.625,+1.312,38, -7, 0, 2, -3, 1, 0, -22,-2.9462563859526862,1.1345097057934874
1503702409640,+0.839,+0.536,-0.040,-0.090,+1.021,-0.079,-0.284,-5.750,-12.438,-2.000,-10, 3, 8, 6, -13, 0, 1, -14,-2.94673015191123,1.134962663428684
1503702409662,+0.840,+0.533,-0.041,-0.090,+0.917,-0.035,-0.337,-8.000,-21.125,-6.500,5, -5, -12, -4, -9, -1, -2, 5,-2.945149213293611,1.1276910137672898
1503702409678,+0.843,+0.528,-0.042,-0.090,+0.943,-0.015,-0.418,-6.625,-29.812,-2.938,-1, -20, -2, 4, 6, 8, 13, 39,-2.9438839566467796,1.1160813671885268
1503702409700,+0.846,+0.524,-0.043,-0.091,+0.966,-0.047,-0.353,-10.438,-33.312,-4.188,3, -15, -9, -1, -3, -4, -3, 14,-2.9413362379858294,1.1072086457552428
1503702409722,+0.848,+0.520,-0.045,-0.091,+0.868,-0.034,-0.357,-14.625,-30.938,-10.188,10, 1, 3, -1, -1, 4, 9, 12,-2.938963413334908,1.0981169015820156
1503702409745,+0.851,+0.515,-0.048,-0.090,+0.819,+0.046,-0.463,-15.062,-24.688,-14.500,17, 15, 3, 3, 5, 1, 4, 29,-2.9374777900527578,1.0871476452963547
1503702409760,+0.853,+0.513,-0.051,-0.089,+0.881,+0.048,-0.488,-10.125,-9.250,-13.938,45, 9, 0, -3, -4, -2, -2, 4,-2.936520315633015,1.0836105270878669
1503702409782,+0.854,+0.511,-0.053,-0.087,+0.994,+0.039,-0.459,-4.812,-11.375,-12.812,-30, 9, 12, -2, -2, 1, 2, -6,-2.9377481624395085,1.0793090677713366
1503702409798,+0.856,+0.507,-0.053,-0.086,+0.986,+0.030,-0.464,-0.750,-24.188,-5.188,4, -1, -3, -1, 1, 3, 0, 18,-2.9392352059853617,1.069811592130357
1503702409820,+0.859,+0.503,-0.053,-0.086,+0.905,+0.034,-0.464,+0.438,-32.375,-2.000,23, -8, 6, 7, 5, -3, 3, 53,-2.9395884851363583,1.0608898210460225
1503702409849,+0.861,+0.499,-0.052,-0.086,+0.821,+0.003,-0.483,+3.188,-22.812,+3.250,31, 19, 7, 3, 6, 7, 8, 36,-2.9404159607659435,1.0512481745522682
1503702409858,+0.862,+0.497,-0.051,-0.087,+0.807,-0.006,-0.493,+0.562,-4.688,+5.938,-20, -14, 3, -5, -4, -4, -10, -23,-2.939628799403792,1.046360441703497
1503702409881,+0.861,+0.499,-0.049,-0.088,+0.939,+0.023,-0.486,+4.375,+11.375,+13.688,22, 4, -5, 1, -2, 1, 5, 9,-2.939975440956808,1.0505634206282402
1503702409904,+0.860,+0.500,-0.046,-0.090,+1.055,-0.002,-0.463,+10.750,-0.250,+20.500,-2, 5, -10, -3, 10, -2, -4, -20,-2.939331333992375,1.0519906156002428
1503702409918,+0.861,+0.499,-0.042,-0.092,+0.963,-0.058,-0.396,+10.938,-16.125,+13.750,-30, -23, -8, -6, -8, -7, -4, -31,-2.94007136963146,1.0490127133032663
1503702409941,+0.862,+0.498,-0.040,-0.091,+0.791,-0.075,-0.419,+8.375,-10.562,+2.062,-14, -27, -8, -3, -13, 4, -6, 2,-2.943898691726841,1.0464151361319152
1503702409962,+0.860,+0.500,-0.040,-0.092,+0.672,-0.069,-0.424,-3.375,+20.812,+2.312,3, 13, 6, -3, -4, -8, -8, -12,-2.941841496476211,1.0506376451417379
1503702409978,+0.855,+0.508,-0.041,-0.092,+0.831,-0.007,-0.439,-4.312,+61.750,+0.250,11, -4, -3, 1, 2, 10, 3, -6,-2.9409156831776637,1.0691922159992482
1503702410000,+0.850,+0.518,-0.040,-0.091,+1.190,+0.035,-0.482,+14.125,+57.875,+5.188,8, -4, 6, 3, 6, 1, 6, 27,-2.9443828165875647,1.0926482690083252
1503702410022,+0.850,+0.518,-0.038,-0.089,+1.264,-0.018,-0.310,+15.750,-15.750,-1.312,-5, -11, -20, -8, -2, 0, 1, -2,-2.9497488136703054,1.092133686595657
1503702410040,+0.855,+0.510,-0.036,-0.086,+0.858,-0.032,-0.384,+13.188,-60.625,-15.312,10, 1, 1, 3, -4, -2, 0, 3,-2.956630138440208,1.0730835264007215
1503702410060,+0.860,+0.502,-0.036,-0.084,+0.574,-0.020,-0.488,+2.500,-41.000,-9.812,-21, -2, -8, -3, 1, 0, -6, -16,-2.9599096086515524,1.0546467236858683
1503702410082,+0.859,+0.503,-0.035,-0.085,+0.725,+0.017,-0.488,+5.188,+16.375,+9.000,26, 14, 18, 7, 3, 5, 7, 23,-2.959044317254162,1.0565766601468798
1503702410098,+0.857,+0.507,-0.033,-0.086,+1.043,-0.001,-0.431,+7.125,+19.438,+14.438,-6, -6, -10, -5, 1, 1, 3, 2,-2.9596331473292303,1.0656271374517314
1503702410120,+0.857,+0.506,-0.032,-0.086,+1.030,+0.006,-0.397,+4.812,-13.250,+8.750,7, 4, -7, -5, -2, -1, -3, -7,-2.9603286028938727,1.0628246633084728
1503702410142,+0.860,+0.502,-0.031,-0.086,+0.804,+0.006,-0.473,+2.062,-28.812,+1.500,-4, -9, -3, -1, -7, 0, -1, 4,-2.961464572513834,1.0537101067467538
1503702410158,+0.861,+0.499,-0.029,-0.087,+0.747,-0.009,-0.507,+5.688,-7.375,+7.250,7, -4, 5, -3, -2, -6, -8, -10,-2.961287993462848,1.046071704747107
1503702410180,+0.860,+0.501,-0.027,-0.087,+0.880,-0.037,-0.469,+9.000,+12.250,+10.812,-17, -2, -9, -1, -1, 0, -4, -18,-2.963423072249536,1.0503947304073138
1503702410202,+0.860,+0.502,-0.025,-0.088,+0.984,-0.029,-0.466,+10.625,+2.688,+11.250,-13, -11, 0, -1, -4, -4, -4, -3,-2.964009523084268,1.0526641374699346
1503702410218,+0.861,+0.500,-0.023,-0.087,+0.940,+0.000,-0.468,+7.125,-16.438,+3.375,8, -13, -20, -5, -5, -2, 5, 16,-2.9675061707942585,1.0476026775321903
1503702410242,+0.862,+0.498,-0.020,-0.088,+0.857,-0.069,-0.491,+14.250,-12.812,+14.438,9, 7, -1, 0, -5, 0, -2, -6,-2.9685789727762404,1.0424478506114798
1503702410262,+0.863,+0.497,-0.016,-0.089,+0.893,-0.046,-0.501,+17.062,-4.250,+14.875,16, 15, 9, 5, 4, 3, 0, 15,-2.9709172976562552,1.0397686902535914
1503702410278,+0.863,+0.497,-0.011,-0.090,+0.944,-0.062,-0.483,+22.688,-2.875,+19.062,16, -5, 4, 5, -1, -3, -2, 6,-2.9741221435780987,1.0390946240394727
1503702410300,+0.863,+0.497,-0.005,-0.090,+0.917,-0.079,-0.469,+24.812,-8.812,+20.250,1, 0, -5, -2, 0, -1, -11, -5,-2.9800231867316045,1.038379194157967
1503702410322,+0.864,+0.496,+0.000,-0.090,+0.892,-0.078,-0.479,+25.938,-9.688,+16.250,-26, -6, -5, -6, -3, -4, -1, -3,-2.985000785983226,1.035785990368039
1503702410338,+0.864,+0.496,+0.007,-0.090,+0.883,-0.103,-0.479,+30.750,-2.938,+17.812,-3, 7, 9, -3, -1, -12, -10, -13,-2.991886274602963,1.0352251793838116
1503702410360,+0.863,+0.496,+0.013,-0.090,+0.924,-0.106,-0.464,+30.875,-1.250,+16.812,-6, -10, -6, -4, -1, -1, -3, -32,-2.997480140113629,1.0343684001503635
1503702410384,+0.863,+0.497,+0.019,-0.089,+0.916,-0.125,-0.459,+32.375,-2.188,+15.250,7, 7, 4, 0, 2, -4, -2, 2,-3.00545937992479,1.0367727531162187
1503702410404,+0.863,+0.497,+0.025,-0.089,+0.905,-0.138,-0.449,+32.500,-1.688,+13.438,18, 2, 2, -5, -7, -1, 3, 6,-3.0114161960031605,1.036682857249841
1503702410420,+0.862,+0.498,+0.031,-0.088,+0.906,-0.135,-0.439,+33.188,+0.812,+13.875,-3, -3, 14, 13, 8, 6, 3, 8,-3.0191690636152635,1.0388555957036156
1503702410443,+0.861,+0.499,+0.038,-0.086,+0.907,-0.146,-0.445,+36.312,+1.438,+12.938,8, 27, 1, -8, -2, 2, -6, -8,-3.0297192239977027,1.0412556830193807
1503702413382,+0.832,+0.549,-0.033,-0.071,+0.948,-0.010,-0.365,-4.938,-8.062,-13.812,-10, 0, 6, 0, -2, 1, -1, -16,-2.986477075519088,1.1645286670725408
1503702413404,+0.835,+0.545,-0.034,-0.069,+0.976,-0.010,-0.370,-1.500,-25.688,-14.875,-2, 0, -7, -6, -1, -1, 0, -24,-2.988732760153566,1.1552756511198656
1503702413420,+0.837,+0.541,-0.036,-0.066,+0.914,-0.029,-0.352,-3.875,-26.062,-22.688,10, -2, 2, 0, -1, 0, -1, 3,-2.9912546172914127,1.1457775149262794
1503702413442,+0.840,+0.538,-0.039,-0.064,+0.875,+0.026,-0.350,-7.250,-24.000,-21.062,12, 7, 1, -2, 7, 0, -1, 4,-2.9917439014971503,1.1396509747712555
1503702413467,+0.841,+0.536,-0.041,-0.062,+0.904,+0.035,-0.372,-7.312,-8.750,-13.438,-2, -1, -3, -1, -12, -3, 1, 1,-2.9928382620768503,1.1351213312096566
1503702413480,+0.842,+0.534,-0.043,-0.061,+0.985,+0.042,-0.383,-5.938,-11.938,-10.375,4, -1, 4, -2, -2, -1, -1, 1,-2.992295002060864,1.1306442327304256
1503702413502,+0.843,+0.532,-0.045,-0.060,+1.012,+0.039,-0.386,-4.000,-18.125,-11.062,7, 8, 4, 3, 6, -5, -7, 5,-2.9917736202400707,1.1261869103563933
1503702413524,+0.845,+0.529,-0.047,-0.058,+0.939,+0.026,-0.366,-5.250,-22.188,-15.875,-4, 0, 2, 0, -3, 1, 1, -2,-2.9931124519712777,1.1195257942229337
1503702413540,+0.847,+0.526,-0.049,-0.057,+0.910,+0.051,-0.391,-7.750,-23.750,-14.312,-3, 1, 1, 2, 4, 4, 3, -1,-2.992820977622292,1.1129371929257181
1503702413565,+0.848,+0.524,-0.051,-0.055,+0.898,+0.062,-0.403,-6.750,-9.062,-11.062,-3, -1, -9, -6, -6, -1, 0, 2,-2.9940659327833523,1.108501281605492
1503702413584,+0.849,+0.522,-0.052,-0.055,+0.982,+0.051,-0.395,-6.375,-13.312,-7.688,5, 7, 1, 3, 6, 3, -1, 2,-2.9930075472367843,1.1039380219339714
1503702413603,+0.851,+0.520,-0.053,-0.055,+0.997,+0.038,-0.401,-6.000,-20.375,-3.438,2, 15, 7, 1, -6, -5, -7, -20,-2.9923569857526293,1.0998595167667118
1503702413622,+0.853,+0.516,-0.055,-0.055,+0.934,+0.033,-0.385,-9.125,-27.875,-8.625,0, -17, -4, -2, -1, 1, -1, 5,-2.990297033599405,1.0907992909150726
1503702413644,+0.855,+0.512,-0.057,-0.054,+0.908,+0.071,-0.418,-10.188,-28.062,-6.812,-5, 5, 0, 2, 3, -3, -9, -1,-2.989969856001351,1.0817341138233254
1503702413660,+0.857,+0.508,-0.058,-0.054,+0.885,+0.077,-0.441,-6.938,-21.250,-4.125,6, -2, -1, 0, 4, 1, -4, -2,-2.9890013037006105,1.0725105499107894
1503702413682,+0.860,+0.505,-0.060,-0.054,+0.919,+0.057,-0.436,-8.375,-26.375,-5.688,2, 6, 3, -2, -10, 1, 6, 7,-2.9876719859373106,1.0666765870373822
1503702413704,+0.861,+0.502,-0.061,-0.055,+0.892,+0.065,-0.416,-9.625,-21.875,-4.250,2, -4, 6, 9, 7, -1, 0, 13,-2.9848254822948457,1.0596932288750232
1503702413720,+0.863,+0.498,-0.063,-0.055,+0.856,+0.094,-0.488,-8.375,-19.438,-2.562,0, -4, -10, -8, 8, -5, 0, -3,-2.982946651629273,1.050846939201417
1503702413742,+0.865,+0.495,-0.063,-0.055,+0.885,+0.084,-0.488,-5.312,-19.562,+0.812,-30, -3, -3, -4, -8, -6, -4, -28,-2.9832536896906054,1.0440781377416986
1503702413766,+0.867,+0.492,-0.063,-0.057,+0.917,+0.034,-0.477,-4.750,-22.188,+6.875,16, 4, -10, -4, -6, 1, 4, 6,-2.9801453223979464,1.0374595418801735
1503702413780,+0.868,+0.489,-0.063,-0.059,+0.867,+0.030,-0.459,-6.500,-15.688,+5.875,7, -13, 8, 5, 2, 0, 0, 3,-2.9765858790356146,1.0303620578853467
1503702413802,+0.869,+0.487,-0.063,-0.060,+0.826,+0.065,-0.478,-9.250,-16.000,+3.562,-36, -1, -1, -3, 0, -2, -6, -18,-2.9749305426340875,1.0257878168657002
1503702413824,+0.869,+0.486,-0.064,-0.061,+0.866,+0.084,-0.500,-7.625,-2.250,+6.062,-9, 1, 9, 0, -1, -1, -3, 1,-2.9720509042516188,1.0235646085591055
1503702413840,+0.870,+0.485,-0.063,-0.062,+0.927,+0.054,-0.514,-1.500,-5.125,+7.438,-26, -6, -5, -2, -5, -2, -4, -18,-2.9715563619753893,1.0212889089260737
1503702413862,+0.871,+0.484,-0.063,-0.063,+0.928,+0.026,-0.459,-2.312,-14.938,+4.250,11, -9, -7, -3, -4, -1, -7, -24,-2.9701034090970757,1.0192972556062139
1503702413884,+0.872,+0.481,-0.063,-0.064,+0.852,+0.042,-0.476,-4.062,-17.062,+4.125,10, 2, -13, -4, 1, 3, 7, 20,-2.9682372329610813,1.0121885207967856
1503702413901,+0.873,+0.479,-0.062,-0.065,+0.842,+0.050,-0.493,-2.812,-14.500,+4.688,23, -1, -1, 3, 4, 1, 2, 3,-2.967521544177138,1.0073712643002142
1503702413922,+0.874,+0.477,-0.062,-0.066,+0.886,+0.042,-0.483,-4.250,-11.188,+3.625,0, 2, -2, 1, 0, -2, 2, 6,-2.965855997813219,1.0028435407491154
1503702413944,+0.874,+0.476,-0.062,-0.067,+0.848,+0.063,-0.509,-3.125,-5.562,+3.562,-9, -12, -2, -4, -3, -3, -2, 8,-2.963917171545488,1.0003593473008667
1503702413960,+0.875,+0.475,-0.063,-0.068,+0.821,+0.068,-0.513,-6.938,-3.562,+2.562,-19, -10, 11, 7, 0, 0, -3, -3,-2.961528678394698,0.9986765200376556
1503702413982,+0.874,+0.476,-0.063,-0.069,+0.846,+0.066,-0.526,-4.188,+5.750,+6.750,16, 3, -2, -1, -2, 4, 6, 5,-2.9595277203448376,1.000778776223644
1503702414004,+0.874,+0.476,-0.063,-0.070,+0.895,+0.045,-0.510,-4.250,+1.562,+7.250,-18, -2, -5, -4, -2, -5, -14, -36,-2.957804659455771,1.0008468574584288
1503702414020,+0.874,+0.476,-0.063,-0.072,+0.866,+0.042,-0.498,-4.125,-1.062,+7.312,-34, -7, -8, -5, -3, -5, -11, -23,-2.9543618559966505,1.0009829765483913
1503702414042,+0.874,+0.476,-0.063,-0.073,+0.848,+0.041,-0.509,-3.062,-0.688,+7.312,14, -2, 2, 1, 2, 3, 8, 26,-2.9526421316743283,1.001051014411521
1503702414064,+0.874,+0.477,-0.063,-0.074,+0.867,+0.037,-0.485,-4.188,+3.000,+6.312,-29, 2, 1, 1, 4, -4, -4, -5,-2.951160824053701,1.0036678258544627
1503702414080,+0.873,+0.477,-0.062,-0.075,+0.903,+0.037,-0.492,-1.438,+2.875,+5.688,16, -10, -17, -4, 3, 2, 4, 22,-2.949863992928156,1.0029307757888632
1503702414103,+0.873,+0.477,-0.062,-0.075,+0.897,+0.042,-0.499,-0.875,-3.062,+3.438,-12, 2, -2, 1, -1, 1, 7, -6,-2.949863992928156,1.0029307757888632
1503702414138,+0.874,+0.477,-0.062,-0.076,+0.844,+0.026,-0.484,-2.062,-3.000,+1.188,19, 6, 3, -1, 0, -1, -3, 15,-2.948668234005308,1.003510658744074
1503702414140,+0.873,+0.477,-0.062,-0.076,+0.821,+0.042,-0.492,-4.062,+5.062,-0.312,-16, -12, -15, -7, -4, -3, -2, 15,-2.948146429628409,1.0029975321731168
1503702414162,+0.873,+0.478,-0.062,-0.076,+0.900,+0.058,-0.517,-0.625,+8.250,+2.375,2, -9, -9, 1, -1, 0, -2, -21,-2.948391966917514,1.0055481303854699
1503702414184,+0.873,+0.478,-0.062,-0.076,+0.923,+0.035,-0.510,-0.938,-3.188,+3.250,4, 1, 2, -2, -1, -1, -2, 18,-2.948391966917514,1.0055481303854699
1503702414208,+0.874,+0.477,-0.062,-0.077,+0.849,+0.018,-0.482,-2.250,-10.438,+2.938,4, 17, -4, -2, -2, -3, 0, 13,-2.9469556161589745,1.0035772938067127
1503702414222,+0.874,+0.476,-0.062,-0.078,+0.805,+0.033,-0.502,-4.312,-3.250,+4.062,-61, -2, 8, -4, -3, -10, -26, -108,-2.944993973816448,1.0010962071578122
1503702414244,+0.874,+0.476,-0.062,-0.079,+0.865,+0.048,-0.498,-2.812,+3.688,+5.625,21, 5, -2, -4, 1, 1, 3, 7,-2.943280525272353,1.0011631104698087
1503702414260,+0.873,+0.477,-0.061,-0.080,+0.916,+0.045,-0.493,-2.625,+3.000,+5.125,-5, -3, -8, 2, 5, 3, 2, -9,-2.9422235776482295,1.0029708111723703
1503702414282,+0.873,+0.476,-0.061,-0.080,+0.910,+0.042,-0.491,-1.688,-6.688,+3.938,-42, -18, -2, -3, -2, 2, 3, 18,-2.9419649554679093,1.0004223607541702
1503702414305,+0.874,+0.475,-0.061,-0.081,+0.871,+0.028,-0.499,-0.812,-10.000,+2.750,15, -12, -1, -1, -5, -7, -8, -25,-2.940528875052193,0.9984564618673522
1503702414320,+0.875,+0.474,-0.060,-0.081,+0.857,+0.031,-0.508,-1.125,-4.625,+3.188,-18, 0, 0, -3, -3, -1, 0, 7,-2.9417374974735213,0.9961360450169905
1503702414342,+0.874,+0.474,-0.060,-0.082,+0.875,+0.040,-0.506,-1.188,+0.188,+7.688,-39, 7, 4, -2, -1, -5, -16, -56,-2.939482766771602,0.9956855885938627
1503702414364,+0.874,+0.475,-0.060,-0.084,+0.885,+0.030,-0.501,-2.500,+0.938,+8.688,-6, 15, 7, 2, 0, -2, 4, -13,-2.9363213506400605,0.9983602415148921
1503702414380,+0.874,+0.476,-0.059,-0.085,+0.885,+0.038,-0.502,-2.562,+5.438,+10.250,-19, -16, -2, -3, -1, -3, -5, -17,-2.9358133103136215,1.0006780870785317
1503702414403,+0.873,+0.477,-0.058,-0.087,+0.917,+0.047,-0.533,+0.000,+5.625,+16.188,9, 13, 0, -1, -2, -1, 2, 28,-2.933058041939042,1.0025474519686464
1503702414424,+0.872,+0.477,-0.056,-0.090,+0.925,+0.019,-0.499,+0.625,+0.250,+20.438,16, -12, -4, 1, -2, -7, 6, 19,-2.9292470747725354,1.0016428368111219
1503702414440,+0.872,+0.477,-0.054,-0.093,+0.872,+0.005,-0.480,+0.562,-1.062,+18.875,14, 5, 2, 0, 0, -3, -8, -19,-2.925994323536837,1.0012526987442871
1503702414462,+0.872,+0.478,-0.053,-0.095,+0.849,+0.003,-0.504,+2.438,+4.500,+15.312,-12, 4, 6, -5, -6, -4, -3, -16,-2.9238270557076254,1.0036346808445518
1503702414485,+0.870,+0.480,-0.051,-0.096,+0.868,-0.000,-0.493,+2.562,+11.812,+13.562,16, 1, -5, -5, -2, 1, 4, 43,-2.923488716239512,1.007210375265152
1503702414500,+0.869,+0.482,-0.050,-0.097,+0.891,-0.006,-0.492,+4.312,+11.812,+11.375,-3, 6, 3, 1, 1, 1, 5, -5,-2.9228005579761636,1.0115888102244202
1503702414523,+0.869,+0.483,-0.048,-0.098,+0.896,-0.025,-0.487,+7.062,+4.562,+7.188,-8, -9, -7, -6, -2, -4, -3, -22,-2.923310896054317,1.0136594428118053
1503702414545,+0.869,+0.483,-0.046,-0.098,+0.867,-0.036,-0.483,+8.188,+0.188,+4.688,-12, -6, 5, -1, -2, 2, 2, 5,-2.9251966233104922,1.0131330162067624
1503702414560,+0.869,+0.483,-0.044,-0.098,+0.840,-0.039,-0.485,+8.062,-1.000,+3.188,26, 4, -2, 2, -2, -1, -4, -4,-2.9270839153375268,1.0126200226425794
1503702414583,+0.869,+0.483,-0.042,-0.098,+0.846,-0.049,-0.485,+9.312,+1.312,+3.750,-20, 22, 14, 5, 5, -2, -6, -12,-2.9289727606226563,1.0121204550719514
1503702414605,+0.869,+0.484,-0.039,-0.098,+0.863,-0.043,-0.479,+9.125,+0.250,+5.125,9, -6, -13, -4, -5, -1, 0, -4,-2.932135147847035,1.0139580765667933
1503702414620,+0.869,+0.483,-0.037,-0.098,+0.871,-0.041,-0.478,+9.438,-3.625,+5.125,2, -5, 4, 4, 5, 1, -1, 8,-2.93370159321687,1.0109302343778976
1503702414643,+0.869,+0.483,-0.035,-0.098,+0.867,-0.040,-0.483,+11.000,-4.188,+6.000,-9, -19, -13, -8, -3, -2, -5, -22,-2.9355957833313813,1.0104776115136056
1503702414665,+0.870,+0.483,-0.032,-0.097,+0.876,-0.046,-0.496,+13.062,-4.562,+6.500,-2, 14, 3, -1, -2, -2, -2, -6,-2.9406527178422093,1.0103038853278334
1503702414681,+0.870,+0.482,-0.029,-0.097,+0.877,-0.052,-0.499,+14.375,-3.375,+6.562,20, 2, 4, 1, 1, -1, 6, 6,-2.943168989430402,1.0071210680621092
1503702414705,+0.870,+0.482,-0.026,-0.097,+0.883,-0.035,-0.493,+16.000,-4.188,+6.250,-41, -1, -3, -2, -4, -3, -2, -11,-2.946011454232995,1.006530280315225
1503702414725,+0.870,+0.482,-0.023,-0.096,+0.906,-0.046,-0.475,+18.125,-3.812,+6.875,-6, 13, 1, -4, -3, -3, 0, -3,-2.950570776188151,1.0059449144970056
1503702414749,+0.870,+0.482,-0.018,-0.095,+0.908,-0.067,-0.498,+21.375,-3.562,+7.500,4, -7, -5, 3, 0, 3, 1, 17,-2.957041586791861,1.0050632624178002
1503702414763,+0.871,+0.482,-0.014,-0.094,+0.894,-0.070,-0.502,+21.938,-3.125,+6.875,3, -11, 4, 3, 2, 3, 4, 0,-2.9630098915812613,1.0049412222911618
1503702414785,+0.871,+0.483,-0.010,-0.093,+0.889,-0.073,-0.497,+24.375,+0.375,+7.188,-1, -9, -4, -3, -2, -1, -1, 6,-2.968849501367842,1.006932972802529
1503702414807,+0.870,+0.484,-0.005,-0.092,+0.923,-0.084,-0.499,+27.312,+1.875,+9.375,14, -3, -2, 3, 5, -1, 2, 8,-2.9752543006425785,1.0083569268578427
1503702414823,+0.870,+0.485,+0.001,-0.091,+0.922,-0.100,-0.500,+30.250,+0.125,+10.125,-33, -4, -2, -7, -8, -5, -6, -16,-2.983046363879683,1.0103035281812898
1503702414845,+0.870,+0.485,+0.007,-0.090,+0.917,-0.097,-0.499,+35.500,-3.312,+10.375,9, 8, 2, -3, -2, 0, 2, -2,-2.9905447142938097,1.0098093836173676
1503702414866,+0.870,+0.485,+0.013,-0.089,+0.879,-0.113,-0.493,+36.062,-5.500,+12.188,27, 7, 10, 5, 4, 2, -5, 12,-2.9980602193286505,1.0094497433535923
1503702414883,+0.870,+0.485,+0.020,-0.087,+0.842,-0.123,-0.499,+36.688,+1.250,+12.125,9, 16, 16, 3, 3, 2, -4, -10,-3.0082958315632604,1.009218513547982
1503702414907,+0.869,+0.487,+0.027,-0.086,+0.870,-0.131,-0.502,+38.562,+8.438,+12.688,35, 5, -7, -1, 4, -2, 1, 8,-3.0171501639648532,1.0138194377988514
1503702414926,+0.867,+0.489,+0.034,-0.085,+0.915,-0.138,-0.477,+39.500,+9.375,+15.938,4, -6, -4, -1, -2, -2, -1, 6,-3.0258373161551417,1.0181064828365023
1503702414948,+0.866,+0.491,+0.042,-0.084,+0.911,-0.164,-0.458,+40.750,+4.188,+16.062,-7, 5, -5, -3, -4, -2, -6, -3,-3.035841849668085,1.0231748523284907
1503702414964,+0.866,+0.491,+0.049,-0.082,+0.889,-0.166,-0.472,+42.250,+0.938,+15.500,12, 13, 3, 0, 0, -5, -5, -2,-3.046262404117109,1.0237603208532244
1503702414986,+0.865,+0.492,+0.057,-0.081,+0.863,-0.164,-0.461,+40.438,+3.000,+17.062,-17, -14, -5, -2, -4, -2, -4, -4,-3.0560949960703736,1.0267008389606591
1503702415003,+0.864,+0.493,+0.064,-0.080,+0.863,-0.176,-0.461,+39.812,+6.188,+17.250,19, 17, 3, -1, -2, 1, 1, 8,-3.065002121726292,1.0297553907346386
1503702415024,+0.862,+0.495,+0.071,-0.079,+0.876,-0.173,-0.455,+40.188,+7.000,+16.688,-3, -16, -5, 0, 1, -1, 3, 7,-3.074177874547193,1.035130561633176
1503702415046,+0.861,+0.496,+0.078,-0.078,+0.888,-0.187,-0.444,+40.312,+3.250,+17.438,-38, -2, -1, -2, 1, 1, 0, -14,-3.08323944361306,1.0385969351370157
1503702415063,+0.860,+0.497,+0.085,-0.077,+0.850,-0.210,-0.447,+38.750,+3.125,+15.062,9, -1, 3, 7, 4, 0, 1, -7,-3.0923629259488523,1.0422689080096321
1503702415085,+0.859,+0.498,+0.092,-0.076,+0.830,-0.228,-0.440,+35.812,+7.750,+11.125,-3, 11, 0, -3, -7, -3, 0, 8,-3.1015469797596427,1.0461487676650951
1503702415108,+0.857,+0.500,+0.097,-0.074,+0.856,-0.212,-0.428,+33.188,+13.625,+8.312,14, 3, -1, 0, 1, -3, -2, -1,-3.110808634372794,1.0519444641769276
1503702415123,+0.855,+0.503,+0.102,-0.072,+0.888,-0.210,-0.442,+32.750,+14.375,+8.562,-12, 7, 12, 5, 4, 2, -1, 3,-3.120411359552713,1.060554326209156
1503702415150,+0.854,+0.504,+0.107,-0.070,+0.899,-0.220,-0.454,+32.812,+6.438,+7.750,8, 3, -8, -5, -6, 0, -1, 1,-3.1294856255671566,1.0644640389836946
1503702415166,+0.853,+0.504,+0.112,-0.068,+0.861,-0.222,-0.435,+30.875,+2.375,+5.125,9, 2, 3, 0, 0, -3, -8, -6,-3.138361935528246,1.0658154295422058
1503702415183,+0.853,+0.505,+0.116,-0.066,+0.829,-0.228,-0.432,+28.625,+6.062,+4.062,6, -22, -13, -7, -2, -2, 2, 11,3.1368644682677664,1.0701167277294765
1503702415205,+0.851,+0.507,+0.120,-0.064,+0.845,-0.221,-0.437,+27.750,+9.812,+4.188,-2, -9, -3, -3, -2, 1, -2, -9,3.1283445975351865,1.0761904442708377
1503702415227,+0.850,+0.508,+0.124,-0.063,+0.860,-0.223,-0.442,+27.000,+9.438,+6.000,-13, 2, 6, 3, 1, -1, -3, -18,3.1219474340066564,1.080044120442314
1503702415243,+0.849,+0.509,+0.128,-0.061,+0.857,-0.223,-0.438,+25.625,+5.500,+7.250,10, 0, -11, -8, -6, -3, 0, -4,3.113753418921911,1.0841030622711167
1503702415265,+0.848,+0.509,+0.132,-0.060,+0.837,-0.255,-0.413,+23.812,+3.875,+8.188,8, -7, 2, 3, 3, 3, 6, 7,3.107501910662341,1.0854156689320644
1503702415288,+0.848,+0.510,+0.136,-0.059,+0.827,-0.268,-0.425,+22.938,+6.250,+7.812,3, -7, -4, -2, 2, -3, 0, -5,3.101280950605057,1.0900040597304117
1503702415303,+0.847,+0.510,+0.139,-0.059,+0.854,-0.267,-0.430,+21.938,+6.938,+8.375,2, 11, 16, 5, 2, 0, -2, -3,3.097816229093172,1.0908701041369884
1503702417822,+0.835,+0.549,+0.026,+0.021,+0.979,-0.010,-0.327,+5.875,-10.875,-12.938,6, 4, 0, 0, 5, 1, 3, 1,3.0778856763376403,1.1636510282299128
1503702417843,+0.836,+0.548,+0.026,+0.024,+0.938,-0.013,-0.358,+4.188,-12.375,-11.312,8, 9, 3, -3, -5, -2, 3, 9,3.072966614768615,1.1614711232426762
1503702417866,+0.837,+0.546,+0.026,+0.026,+0.919,+0.009,-0.396,+4.562,-10.062,-10.438,1, -8, -3, 1, -2, 0, 2, 10,3.069611591803803,1.1566012739346383
1503702417882,+0.838,+0.545,+0.025,+0.028,+0.935,+0.016,-0.361,+3.188,-8.438,-12.562,-1, -4, -5, -3, -3, -2, -4, -11,3.067442246096879,1.154295471937783
1503702417904,+0.838,+0.544,+0.024,+0.031,+0.959,+0.020,-0.368,+4.125,-9.250,-15.750,-8, -1, 4, 3, 6, 3, -3, -3,3.0633992025199155,1.1515710827527885
1503702417929,+0.839,+0.542,+0.023,+0.034,+0.960,+0.024,-0.376,+5.812,-11.312,-15.875,6, 0, -1, -4, -4, -2, -2, -8,3.0594128044397215,1.1466232705537154
1503702417949,+0.841,+0.539,+0.022,+0.038,+0.937,+0.018,-0.396,+6.938,-15.875,-18.438,-11, 5, -4, -3, -3, -5, -6, -14,3.053799975548788,1.1394887606935045
1503702417965,+0.842,+0.537,+0.022,+0.042,+0.921,+0.003,-0.376,+8.625,-20.188,-21.375,4, 7, 8, 5, 2, -1, -1, -3,3.0470136811371455,1.134693809862402
1503702417986,+0.844,+0.535,+0.021,+0.045,+0.896,+0.008,-0.364,+4.812,-15.062,-21.000,-22, -7, -3, -2, -1, 1, -5, -28,3.043197331658309,1.1302304692854277
1503702418009,+0.844,+0.534,+0.020,+0.049,+0.900,+0.026,-0.396,+4.625,-4.000,-18.250,3, -6, -5, -3, -4, -2, 0, 8,3.037374957451172,1.1275324405876774
1503702418024,+0.844,+0.533,+0.019,+0.051,+0.946,+0.030,-0.410,+7.125,-6.062,-13.875,2, 4, -6, -8, -4, 0, 1, 0,3.0348916196556455,1.1247991771652563
1503702418046,+0.846,+0.531,+0.020,+0.054,+0.979,+0.014,-0.400,+7.188,-15.250,-11.562,1, -3, 1, -1, -3, -3, -3, 0,3.028938035506046,1.1205867521887365
1503702418076,+0.847,+0.528,+0.019,+0.056,+0.919,+0.021,-0.380,+4.500,-18.688,-12.562,0, -18, 4, 0, -2, -1, 0, 4,3.026296494309123,1.1130282918940069
1503702418092,+0.848,+0.527,+0.018,+0.058,+0.863,+0.055,-0.399,+2.750,-9.062,-12.500,8, 9, 7, 3, 4, 3, 3, 7,3.024049040180705,1.1107682245078605
1503702418107,+0.848,+0.527,+0.018,+0.060,+0.923,+0.059,-0.409,+3.875,-0.188,-8.375,-1, -1, -5, -1, -1, -3, -6, 2,3.0206837164348945,1.1108001942314378
1503702418129,+0.848,+0.526,+0.019,+0.062,+1.000,+0.048,-0.396,+7.125,-7.812,-2.750,2, 2, 0, 2, 0, -3, -11, 1,3.016051205038721,1.1083121167224068
1503702418144,+0.849,+0.524,+0.019,+0.063,+0.979,+0.051,-0.404,+8.250,-17.062,-4.875,-2, -4, -1, -1, -3, -4, 3, 0,3.014215906439136,1.1035209433849917
1503702418167,+0.851,+0.520,+0.019,+0.064,+0.861,+0.041,-0.372,+1.625,-24.500,-5.250,-3, 1, -2, 1, 1, -2, -2, -4,3.012226450483645,1.0939482176559092
1503702418189,+0.852,+0.520,+0.018,+0.064,+0.837,+0.048,-0.386,-5.188,-2.562,-0.500,2, 5, 1, -1, -1, 7, 4, 19,3.0135691514364473,1.0943011524303725
1503702418205,+0.850,+0.522,+0.018,+0.063,+0.939,+0.068,-0.416,-3.562,+16.875,+7.938,-5, -6, -8, -4, -2, 2, -3, -4,3.0151038347010517,1.098598167806356
1503702418226,+0.850,+0.523,+0.019,+0.062,+1.047,+0.060,-0.405,-1.125,-2.000,+6.750,4, -5, -4, -2, -1, -1, 7, -9,3.01598061066684,1.101339730246964
1503702418249,+0.851,+0.521,+0.019,+0.062,+0.992,+0.035,-0.383,-1.938,-18.688,+1.188,-7, 0, 0, 0, 1, -2, -7, -31,3.0158359011336806,1.0965458372272199
1503702418265,+0.853,+0.518,+0.018,+0.062,+0.848,+0.038,-0.412,-2.375,-18.188,-1.062,9, 4, 0, 1, -2, -1, 4, 13,3.0168041252409057,1.0894882061992888
1503702418286,+0.854,+0.517,+0.018,+0.061,+0.844,+0.042,-0.429,-3.562,-4.688,+3.938,-2, -14, -1, -3, -1, -8, -1, 4,3.018577439712002,1.0873252381959433
1503702418303,+0.853,+0.518,+0.018,+0.060,+0.925,+0.042,-0.417,-1.438,+4.250,+6.312,-6, -1, 3, 3, 1, 0, 1, 0,3.020192241941857,1.0894548555221697
1503702418325,+0.854,+0.517,+0.019,+0.059,+0.979,+0.045,-0.417,-2.812,-7.312,+7.500,-26, -3, -6, -3, 0, -4, -11, -49,3.020940299838711,1.0874121547894773
1503702418346,+0.855,+0.515,+0.019,+0.058,+0.903,+0.023,-0.417,-2.875,-11.250,+4.500,-2, -4, -2, 0, -2, 0, -3, -1,3.022511380897404,1.0826286310262352
1503702418370,+0.856,+0.514,+0.018,+0.058,+0.809,+0.049,-0.451,-3.688,-4.562,+1.812,16, 7, 0, -5, -6, -1, -1, 31,3.0236157900429665,1.0803711951428205
1503702418384,+0.855,+0.515,+0.019,+0.057,+0.846,+0.074,-0.470,-2.000,+9.875,+10.062,8, -2, 1, 1, 0, -2, -2, 4,3.024210330091124,1.0826108012508193
1503702418406,+0.854,+0.517,+0.020,+0.055,+0.951,+0.062,-0.447,-0.500,+16.688,+15.312,4, 9, 6, 5, 2, -1, 3, 20,3.0266973225257914,1.0874617094007875
1503702418431,+0.853,+0.518,+0.022,+0.053,+0.979,+0.026,-0.431,+2.125,+6.688,+15.000,5, -10, -7, -1, 0, 2, 3, 3,3.0279460621123615,1.0898183322054409
1503702418444,+0.854,+0.518,+0.024,+0.051,+0.940,+0.009,-0.419,+2.188,-4.438,+16.938,-3, 4, -3, -4, 0, 2, 3, 17,3.029560714609676,1.0905141679553538
1503702418466,+0.854,+0.517,+0.026,+0.048,+0.874,+0.005,-0.404,+0.438,-2.438,+17.438,-20, 2, 1, -1, 0, 2, -3, -10,3.0324162401703703,1.0880881871986656
1503702418489,+0.854,+0.517,+0.027,+0.046,+0.888,+0.000,-0.399,-1.375,+1.812,+15.375,-2, -6, -2, -2, -2, -2, -1, 7,3.0347866628977394,1.088176531743539
1503702418504,+0.853,+0.519,+0.028,+0.044,+0.919,+0.005,-0.403,-3.500,+8.000,+14.375,5, 29, 15, 6, 2, -2, 0, 14,3.0372105528539883,1.0930398442741602
1503702418526,+0.853,+0.520,+0.028,+0.042,+0.929,+0.014,-0.394,-5.500,+5.375,+12.188,0, -1, 0, -2, 0, -1, -1, -13,3.0407608910149055,1.0956173158767486
1503702418549,+0.853,+0.520,+0.028,+0.040,+0.937,+0.006,-0.398,-5.438,+1.625,+8.938,-25, -8, -4, 0, 0, 0, -1, -34,3.0441529718880544,1.0955660860860328
1503702418565,+0.853,+0.520,+0.028,+0.039,+0.912,+0.001,-0.413,-4.625,-0.812,+6.812,8, -1, -1, 0, 0, 1, 4, 17,3.045849861169828,1.095540467364768
1503702418586,+0.853,+0.519,+0.028,+0.038,+0.877,-0.003,-0.419,-5.438,-3.562,+3.875,-8, -12, -5, -3, -2, 0, 0, 1,3.047407689652666,1.0928852831517588
1503702418609,+0.854,+0.519,+0.027,+0.037,+0.858,-0.004,-0.423,-7.625,-2.438,+4.438,-5, -26, -4, -3, -3, 0, -1, -6,3.0503824196574327,1.0932050956124826
1503702418624,+0.854,+0.518,+0.027,+0.035,+0.879,+0.006,-0.419,-8.438,-1.750,+7.562,-10, 4, 1, 0, 1, 0, -1, 6,3.0536519022043858,1.0905277397230526
1503702418646,+0.854,+0.518,+0.026,+0.033,+0.913,-0.004,-0.425,-9.375,-2.250,+8.438,-10, -8, 2, -1, -2, -2, 0, 7,3.058092219743851,1.090353275412977
1503702418669,+0.855,+0.517,+0.026,+0.031,+0.935,-0.005,-0.434,-8.062,-9.000,+9.500,14, 2, 1, 0, 1, -2, 0, -1,3.061599400867015,1.0881578213241778
1503702418684,+0.856,+0.515,+0.026,+0.030,+0.915,-0.011,-0.439,-6.312,-13.375,+8.938,3, 7, 14, 6, 3, 1, 1, 4,3.0632931007433815,1.0833663303943546
1503702418706,+0.857,+0.513,+0.026,+0.028,+0.860,-0.005,-0.428,-8.875,-8.688,+8.500,14, 11, 3, 0, 0, -2, 0, -4,3.06670752701469,1.0785584261394288
1503702418729,+0.858,+0.513,+0.025,+0.026,+0.861,+0.004,-0.448,-8.188,+0.250,+9.375,33, 4, -4, 1, -3, -2, 0, 5,3.0713485556098337,1.0788796320610212
1503702418744,+0.857,+0.514,+0.025,+0.024,+0.929,-0.006,-0.436,-5.562,+5.625,+12.375,0, 3, 0, 0, 0, 3, -4, -3,3.074675099770057,1.0809683265788035
1503702418766,+0.857,+0.514,+0.026,+0.021,+0.968,-0.018,-0.427,-4.312,+0.000,+14.375,-17, -5, 0, 0, 1, 1, 1, -35,3.0787829416539805,1.0810075368768073
1503702418789,+0.858,+0.513,+0.027,+0.019,+0.933,-0.022,-0.444,-3.500,-5.875,+15.500,-10, -2, -7, -6, -5, -3, -5, -25,3.081279338332084,1.078933562080763
1503702418804,+0.858,+0.512,+0.028,+0.017,+0.898,-0.030,-0.416,-2.562,-4.812,+16.562,-20, -6, -9, -2, 0, -1, -1, -4,3.083617286796543,1.0763761426407907
1503702418826,+0.858,+0.512,+0.030,+0.014,+0.918,-0.052,-0.411,-4.250,-0.312,+17.562,-4, -4, -3, -2, -2, 1, 2, 26,3.0867179175636785,1.0765273646666953
1503702418849,+0.858,+0.513,+0.031,+0.011,+0.948,-0.045,-0.421,-5.250,-1.000,+18.188,6, -2, -15, -10, -4, -2, -9, -19,3.090886455445098,1.0791802592576636
1503702418867,+0.858,+0.512,+0.031,+0.008,+0.939,-0.041,-0.418,-6.062,-6.312,+16.250,-4, -3, 4, 1, -3, -3, 1, 16,3.0959978755633695,1.0764714973984764
1503702418886,+0.859,+0.511,+0.032,+0.005,+0.908,-0.064,-0.400,-7.250,-7.375,+13.500,-6, -2, -2, 0, -1, -11, 1, 3,3.100239654238201,1.0743660169354123
1503702418912,+0.859,+0.510,+0.032,+0.003,+0.917,-0.073,-0.434,-6.500,-5.938,+11.875,-17, -7, 0, -1, -1, 1, -5, 7,3.103663621524083,1.0716862800702327
1503702418924,+0.860,+0.509,+0.033,+0.001,+0.920,-0.063,-0.449,-5.500,-8.875,+11.375,3, -1, -3, -4, -3, -4, 0, -17,3.1062000343051843,1.069612205114236
1503702418946,+0.861,+0.507,+0.032,-0.001,+0.898,-0.050,-0.393,-9.312,-13.375,+6.688,3, 3, -3, -2, 1, 0, -5, -37,3.1107759181804537,1.0646966368050688
1503702418969,+0.862,+0.506,+0.031,-0.002,+0.847,-0.071,-0.427,-9.438,-7.375,+2.312,25, 8, 0, 0, 1, 4, 0, 32,3.1136244734133856,1.06243770756381
1503702418985,+0.862,+0.505,+0.030,-0.003,+0.866,-0.070,-0.456,-13.062,-4.375,+0.562,-15, -2, -5, -1, 1, 3, 9, -2,3.1163725814690526,1.0596928645994952
1503702419007,+0.863,+0.505,+0.029,-0.004,+0.887,-0.035,-0.496,-9.125,+2.875,+2.250,-7, 4, 4, 4, 0, 7, 8, 34,3.119201169710237,1.0600589543882821
1503702419028,+0.863,+0.505,+0.028,-0.004,+0.894,-0.051,-0.455,-5.062,-3.250,-0.312,16, -21, -4, 0, -3, -1, 4, 38,3.1202111019837955,1.0599633110079612
1503702419045,+0.863,+0.505,+0.027,-0.004,+0.863,-0.037,-0.414,-8.000,+0.562,-2.000,-26, -5, -5, -1, -3, -3, 0, -50,3.1212210778826632,1.0598711723166863
1503702419068,+0.863,+0.505,+0.026,-0.004,+0.866,-0.018,-0.503,-0.938,+4.688,-3.562,6, 1, -3, -1, -1, 5, -21, -19,3.1222310953490826,1.0597825371354381
1503702419088,+0.863,+0.504,+0.026,-0.003,+0.951,-0.049,-0.488,+0.562,-4.375,-1.062,10, -3, -3, 3, 9, 7, 4, 36,3.120514548334788,1.0571999835353707
1503702419105,+0.864,+0.503,+0.027,-0.003,+0.909,-0.054,-0.438,+1.938,-9.500,+0.250,38, 5, -2, 3, 3, 0, -14, -6,3.119596422004239,1.0551792079254976
1503702419127,+0.865,+0.501,+0.027,-0.003,+0.856,-0.062,-0.471,+1.500,-12.625,-1.312,-9, 7, 0, -4, -4, -6, 1, -13,3.1196982547820187,1.0504694084013741
1503702419148,+0.866,+0.500,+0.028,-0.003,+0.859,-0.064,-0.456,-0.938,-4.250,+1.562,-9, -4, 12, 2, -1, 4, 20, 22,3.1187905993352167,1.0484599776569214
1503702419165,+0.866,+0.500,+0.028,-0.003,+0.906,-0.043,-0.457,-0.500,-1.688,+2.250,5, -2, -2, -3, -2, -5, 3, -7,3.1187905993352167,1.0484599776569214
1503702419187,+0.866,+0.499,+0.028,-0.004,+0.921,-0.042,-0.444,-2.000,-5.188,+2.562,-22, -4, -4, -6, -5, -4, -5, -8,3.12053583525049,1.0458324102246106
1503702419209,+0.867,+0.498,+0.028,-0.004,+0.882,-0.048,-0.447,-1.125,-7.875,+2.438,20, 13, 9, 2, -2, -7, -3, -4,3.120630851883004,1.043735666349601
1503702419225,+0.867,+0.498,+0.028,-0.004,+0.890,-0.043,-0.460,-1.250,-4.062,+3.125,-8, -6, 0, 2, 7, 3, 0, -2,3.120630851883004,1.043735666349601
1503702419247,+0.867,+0.497,+0.029,-0.004,+0.937,-0.042,-0.458,-0.250,-5.438,+2.688,-8, 3, 1, 2, -2, -3, 3, 14,3.1196490260076652,1.0412338009672146
1503702419271,+0.868,+0.495,+0.029,-0.004,+0.938,-0.045,-0.462,+2.125,-14.188,+1.750,36, 3, -3, -4, -2, 0, 3, 46,3.119762393837297,1.0365489979685902
1503702419285,+0.870,+0.493,+0.030,-0.005,+0.886,-0.079,-0.453,-0.875,-17.812,+1.938,-22, 8, 3, 1, -2, -1, -4, 6,3.1207135581291645,1.0324458816918731
1503702419307,+0.870,+0.491,+0.030,-0.005,+0.833,-0.070,-0.464,-1.188,-8.062,+3.375,-8, -4, 2, -1, -10, -4, -6, -2,3.1207515028367605,1.0272711258174336
1503702419329,+0.870,+0.492,+0.031,-0.006,+0.884,-0.064,-0.486,-0.375,+2.562,+4.688,28, -3, 4, 4, -4, -2, 5, 24,3.1214897031615108,1.0299256540389945
1503702419346,+0.869,+0.493,+0.032,-0.006,+0.967,-0.072,-0.468,+2.438,+4.875,+5.750,17, 0, -8, -5, -3, 1, 7, 10,3.1203959331030395,1.0321094349196176
1503702419367,+0.870,+0.492,+0.033,-0.007,+1.008,-0.077,-0.461,+4.312,-9.312,+6.125,-8, -12, 3, 6, 5, 2, 4, 9,3.121261323137468,1.030099123792986
1503702419389,+0.871,+0.490,+0.035,-0.007,+0.960,-0.082,-0.476,+6.250,-21.688,+7.812,6, -6, -2, -2, -4, 0, 3, 7,3.1194344773235314,1.0256531831011269
1503702419406,+0.873,+0.487,+0.037,-0.008,+0.857,-0.086,-0.479,+7.125,-18.688,+8.875,12, -3, -12, -5, -8, -4, -4, -6,3.1194952211463227,1.0191195446445374
1503702419427,+0.873,+0.486,+0.040,-0.009,+0.816,-0.090,-0.484,+8.812,-0.188,+9.000,-12, 9, 8, 5, 9, 9, 2, 2,3.1183529713239997,1.0168665437132207
1503702419449,+0.871,+0.489,+0.042,-0.009,+0.892,-0.074,-0.494,+10.562,+18.812,+11.438,-1, 5, 6, 2, -3, 2, -1, 5,3.1160859939122814,1.0238531070907801
1503702419465,+0.869,+0.492,+0.046,-0.010,+0.988,-0.062,-0.490,+15.688,+17.312,+14.625,13, -5, -6, -2, 0, 0, 4, 36,3.1135603786741526,1.0311222878213415
1503702419487,+0.868,+0.493,+0.049,-0.010,+0.984,-0.076,-0.449,+18.562,+6.312,+13.562,4, -5, -1, -3, -4, -7, -4, 41,3.110428845401268,1.0336696766412803
1503702419510,+0.868,+0.493,+0.054,-0.010,+0.914,-0.086,-0.476,+23.312,-0.938,+12.875,28, 5, 5, -2, 2, 0, -2, -10,3.105469450044372,1.034508192020662
1503702419525,+0.868,+0.493,+0.059,-0.010,+0.866,-0.100,-0.495,+25.562,+2.812,+15.562,-7, -10, -12, -4, 3, -4, -4, -8,3.1005118317531184,1.03543428958269
1503702419554,+0.867,+0.495,+0.064,-0.010,+0.851,-0.122,-0.463,+25.500,+11.812,+17.562,-17, -4, -1, -1, 2, -1, -2, -5,3.095301303452464,1.041145729194764
1503702419569,+0.865,+0.497,+0.070,-0.011,+0.868,-0.119,-0.470,+25.188,+17.000,+18.062,-26, -5, -1, -1, 0, -1, -7, -13,3.090600416693095,1.046621364532214
1503702419585,+0.863,+0.499,+0.075,-0.011,+0.916,-0.123,-0.451,+25.188,+16.688,+17.875,5, 12, 4, 0, -2, -1, 2, -12,3.0850840309100955,1.052058715400208
1503702419607,+0.862,+0.501,+0.080,-0.012,+0.925,-0.141,-0.441,+26.500,+11.375,+17.375,-21, -19, -3, 1, 2, 2, -1, -15,3.0814763288197917,1.0580250568992422
1503702422388,+0.791,+0.612,+0.006,+0.016,+0.986,-0.039,-0.179,+8.188,+5.000,-4.000,-5, 4, -9, -6, -2, -4, -4, -6,3.108962927393154,1.3173355484500877
1503702422411,+0.790,+0.613,+0.007,+0.017,+0.960,-0.009,-0.194,+5.750,+9.438,-4.625,-2, -6, -7, -5, -3, -5, -6, -7,3.106156205816571,1.3198329785690694
1503702422427,+0.789,+0.615,+0.007,+0.018,+0.979,+0.004,-0.190,+4.750,+11.875,-3.062,7, 11, -4, -4, -3, -4, 0, 24,3.104650610498299,1.3250697855424673
1503702422448,+0.787,+0.616,+0.008,+0.019,+1.006,+0.007,-0.185,+5.062,+11.125,-5.938,13, 6, 1, 3, -2, 0, 1, -4,3.101758075919518,1.3272854413754598
1503702422471,+0.787,+0.617,+0.008,+0.021,+0.998,+0.013,-0.184,+5.250,+6.125,-7.562,-23, -13, -3, -1, -4, 0, -4, -21,3.098697959903378,1.3300649717247004
1503702422486,+0.787,+0.617,+0.008,+0.023,+1.007,+0.009,-0.196,+4.312,-2.500,-7.938,-22, -8, 3, 1, -3, -3, -2, 6,3.0955565469422255,1.330072598109823
1503702422508,+0.787,+0.616,+0.008,+0.024,+0.974,-0.008,-0.199,+2.625,-3.312,-8.188,-3, -7, -3, -2, -5, -3, 0, 0,3.0938846829552626,1.3273047409094365
1503702422531,+0.788,+0.615,+0.007,+0.025,+0.965,-0.005,-0.179,-0.812,-9.625,-10.875,3, -17, -15, -7, -1, 0, 1, 4,3.093539748355208,1.3247943276867666
1503702422546,+0.789,+0.614,+0.005,+0.026,+0.996,+0.029,-0.162,-2.438,-9.000,-10.062,0, -1, -2, 0, 3, 1, 3, -17,3.0944140800731432,1.322256789699406
1503702422568,+0.790,+0.613,+0.004,+0.028,+1.013,+0.039,-0.202,-1.625,-10.562,-9.625,-7, -3, 0, 2, 0, 0, -1, -5,3.0924753113884145,1.3197655768402436
1503702422595,+0.791,+0.611,+0.003,+0.029,+1.000,+0.017,-0.196,-2.688,-17.938,-13.688,3, 10, 11, 1, 1, 1, 0, 5,3.091990286531807,1.3145125675609195
1503702422606,+0.793,+0.608,+0.000,+0.031,+0.958,+0.033,-0.209,-5.750,-19.125,-15.062,2, 0, 9, 9, 6, 4, 0, 7,3.092319911351961,1.306780781815832
1503702422630,+0.794,+0.607,-0.002,+0.032,+0.954,+0.061,-0.211,-5.688,-10.438,-13.375,1, 9, 2, -2, -3, -1, 1, -5,3.0931344726014824,1.304309881043942
1503702422651,+0.795,+0.606,-0.004,+0.034,+1.005,+0.073,-0.238,-2.562,-7.562,-12.375,2, 3, -5, -2, 2, -3, -2, -3,3.092347656760954,1.301853726998258
1503702422668,+0.796,+0.604,-0.006,+0.035,+1.021,+0.053,-0.208,-5.688,-15.688,-13.250,-18, 8, 3, 2, 0, -1, -5, -6,3.093006434545919,1.2966547875627623
1503702422689,+0.798,+0.602,-0.008,+0.036,+0.976,+0.069,-0.230,-7.750,-15.062,-11.375,11, 5, -3, -3, 1, -3, -1, 5,3.0937293636305325,1.2918068647736272
1503702422711,+0.799,+0.601,-0.010,+0.037,+0.955,+0.074,-0.197,-7.000,-9.312,-8.562,0, -8, -1, -3, 1, 0, 1, 0,3.0944840065283765,1.2894069144323523
1503702422727,+0.800,+0.599,-0.011,+0.037,+1.045,+0.086,-0.214,-5.625,-16.938,-3.438,2, -9, -3, -1, -4, 0, 4, 4,3.095492712606052,1.284251831007416
1503702422748,+0.802,+0.596,-0.013,+0.037,+1.029,+0.091,-0.227,-8.000,-24.312,-2.000,-30, -19, -9, -3, -8, -2, -3, -20,3.0976299863577283,1.2767253862970405
1503702422771,+0.804,+0.593,-0.015,+0.036,+0.949,+0.087,-0.262,-10.750,-21.125,-4.750,6, 5, -1, -2, 0, -2, -2, 2,3.1013605923057947,1.2692444174543587
1503702422786,+0.805,+0.592,-0.016,+0.036,+0.918,+0.104,-0.271,-9.750,-4.875,+1.438,5, -4, 1, -3, -5, -1, 1, -1,3.1024783494262227,1.2668877978599005
1503702422808,+0.805,+0.592,-0.016,+0.034,+0.998,+0.076,-0.249,-6.562,-3.375,+9.062,5, 6, 6, 3, -1, -1, -1, -8,3.1057035668222155,1.2669069931908234
1503702422831,+0.806,+0.590,-0.016,+0.033,+1.021,+0.055,-0.244,-4.125,-11.375,+4.875,-5, 3, -4, 1, 4, 0, -3, 1,3.1071342089220626,1.2617807055954444
1503702422847,+0.808,+0.588,-0.017,+0.032,+0.949,+0.040,-0.252,-7.312,-20.625,-3.125,12, -6, -2, -1, 0, 3, 1, 0,3.109794819862302,1.2570695751442058
1503702422868,+0.810,+0.586,-0.018,+0.031,+0.873,+0.075,-0.264,-8.750,-10.250,+2.250,-2, 0, 6, 4, 5, 1, 1, 3,3.1124475221150787,1.252379122947984
1503702422892,+0.810,+0.586,-0.019,+0.030,+0.927,+0.086,-0.269,-9.375,-0.125,+5.312,14, -2, -8, -2, -5, -3, 0, -1,3.115240186026194,1.2524419936445517
1503702422907,+0.810,+0.586,-0.020,+0.029,+1.005,+0.084,-0.237,-9.250,-3.938,+3.500,2, 0, 0, -4, -2, -9, -4, -2,3.1180332611362522,1.2525099295855102
1503702422929,+0.811,+0.584,-0.021,+0.028,+0.965,+0.089,-0.264,-9.375,-13.562,-1.625,0, 1, 4, 4, 2, -4, -1, -2,3.1206564957317506,1.2474782136182925
1503702422951,+0.813,+0.581,-0.023,+0.028,+0.928,+0.106,-0.275,-8.812,-18.000,-1.562,5, -1, 8, 2, -5, -1, -1, -5,3.1227374474914833,1.2401552830896962
1503702422967,+0.814,+0.580,-0.025,+0.027,+0.910,+0.118,-0.260,-10.750,-12.875,+1.625,18, 14, 7, 0, -3, 0, -4, 3,3.12660768323938,1.2379640671817411
1503702422988,+0.815,+0.578,-0.026,+0.026,+0.921,+0.111,-0.281,-9.250,-8.000,+2.250,-5, -4, -5, 1, 4, 5, 3, -1,3.129227462625122,1.2329816592001233
1503702423011,+0.816,+0.577,-0.027,+0.025,+0.956,+0.097,-0.319,-8.812,-9.438,+1.312,-15, -4, -3, -3, 1, 2, 2, 7,3.131927467427746,1.2307393688958996
1503702423027,+0.817,+0.575,-0.028,+0.024,+0.961,+0.080,-0.292,-8.500,-13.938,+2.312,21, 10, -2, 1, -1, -2, -1, -8,3.134550205464537,1.225780727832129
1503702423048,+0.819,+0.573,-0.029,+0.023,+0.960,+0.079,-0.289,-8.875,-14.000,+2.375,-6, -6, -3, -1, 3, 3, 4, 11,3.1371445873915844,1.2212288368271935
1503702423072,+0.820,+0.571,-0.030,+0.022,+0.959,+0.090,-0.299,-7.000,-13.812,-0.312,5, 0, -3, -4, 1, -2, -1, 8,3.139766963108983,1.21630015306363
1503702423086,+0.821,+0.569,-0.031,+0.022,+0.968,+0.091,-0.308,-6.375,-14.000,-0.188,14, 3, -1, -3, 1, -1, 3, 7,3.140742918357329,1.211362602344053
1503702423116,+0.822,+0.568,-0.031,+0.021,+0.964,+0.077,-0.315,-6.938,-13.625,+2.250,9, 1, 2, 0, -5, 1, 1, 0,-3.1408983040220653,1.2090708883516532
1503702423131,+0.823,+0.566,-0.032,+0.020,+0.941,+0.071,-0.309,-6.750,-10.688,+3.125,-24, -12, -4, -4, -7, -5, -2, -16,-3.1382732971039036,1.204174333199929
1503702423146,+0.824,+0.565,-0.032,+0.019,+0.945,+0.083,-0.323,-5.750,-5.500,+4.688,-7, -8, -3, 3, 8, 5, -1, -3,-3.136727185892284,1.2018937357283115
1503702423168,+0.824,+0.565,-0.032,+0.017,+0.953,+0.076,-0.322,-6.750,-2.375,+7.312,-11, 8, 0, 3, -5, 3, 1, -8,-3.1334194276678704,1.2019400259220103
1503702423198,+0.824,+0.565,-0.032,+0.015,+0.954,+0.082,-0.314,-6.125,+0.688,+10.125,-1, -4, 1, 0, 5, -3, -2, -4,-3.1301118482879695,1.2019863050316055
1503702423214,+0.824,+0.565,-0.032,+0.014,+0.989,+0.073,-0.309,-4.750,+0.188,+10.750,-7, -8, -4, -2, 7, 4, 3, 5,-3.1284581482747686,1.2020094404310466
1503702423231,+0.825,+0.565,-0.031,+0.012,+1.003,+0.079,-0.308,-3.250,-5.875,+9.188,-9, 2, -3, -5, -8, -9, -12, -16,-3.126359261662566,1.2023545645825096
1503702423251,+0.826,+0.563,-0.030,+0.011,+0.963,+0.074,-0.322,-1.562,-12.000,+8.562,7, -7, 2, 3, 0, -1, 0, 7,-3.125962322860221,1.1972698891732945
1503702423267,+0.826,+0.562,-0.030,+0.010,+0.907,+0.070,-0.326,-2.312,-6.125,+7.688,-10, 0, 2, -2, -3, -5, 0, 9,-3.1243294526252643,1.1945876486744125
1503702423288,+0.826,+0.563,-0.029,+0.008,+0.929,+0.067,-0.327,-1.188,+3.375,+9.562,-4, -5, 0, 1, -5, 1, -5, -20,-3.1221277165110912,1.1972314877130117
1503702423311,+0.826,+0.563,-0.028,+0.007,+0.985,+0.070,-0.317,+1.188,+4.188,+9.812,-10, -6, -2, -2, -5, -1, 4, 1,-3.121601126065982,1.1971515121551548
1503702423327,+0.826,+0.563,-0.027,+0.007,+1.002,+0.066,-0.327,+3.500,-3.625,+8.062,1, 2, 9, 2, 4, 3, -3, 6,-3.1227284031879043,1.1970540790967372
1503702423348,+0.827,+0.561,-0.025,+0.006,+0.953,+0.059,-0.337,+3.938,-11.500,+7.375,-7, 3, -5, 0, -1, -4, -1, -8,-3.1234195817740043,1.1918984039213703
1503702423371,+0.828,+0.560,-0.024,+0.005,+0.897,+0.047,-0.327,+4.062,-10.625,+8.688,-16, -5, -1, 0, -1, 0, 4, 10,-3.1229644038084015,1.189546302796135
1503702423386,+0.829,+0.559,-0.022,+0.004,+0.905,+0.037,-0.341,+2.875,-1.562,+10.812,4, 3, 1, 0, 3, -2, -5, -9,-3.123620595260355,1.18712013551465
1503702423408,+0.829,+0.559,-0.020,+0.003,+0.962,+0.046,-0.333,+3.375,+1.938,+11.625,7, -4, 0, 2, 1, 3, 0, 5,-3.1241987359756194,1.1869852336813926
1503702423433,+0.829,+0.559,-0.019,+0.002,+0.994,+0.059,-0.319,+5.250,-5.750,+12.188,-6, -5, -6, -2, 5, -1, -3, 3,-3.123658604146746,1.1869293559678897
1503702423446,+0.830,+0.557,-0.017,+0.001,+0.956,+0.043,-0.325,+5.625,-16.000,+11.250,5, 10, 4, 2, 0, 3, -6, -7,-3.1242869241254736,1.181843788313833
1503702423470,+0.832,+0.555,-0.015,+0.000,+0.907,+0.022,-0.331,+6.062,-14.438,+10.625,0, -3, 0, -1, -2, -5, -5, 0,-3.124952477195867,1.177205230519581
1503702423491,+0.833,+0.554,-0.013,-0.000,+0.909,+0.030,-0.344,+6.750,-8.062,+9.938,12, -2, 2, 1, 0, 1, 3, 17,-3.127212797991885,1.1748410147489396
1503702423507,+0.833,+0.553,-0.011,-0.001,+0.952,+0.037,-0.355,+7.375,-3.375,+8.625,-12, 2, 5, 0, -7, -4, -6, 5,-3.1277531776436307,1.1720749505045176
1503702423529,+0.833,+0.552,-0.009,-0.001,+0.979,+0.032,-0.336,+8.812,-5.500,+7.062,18, 10, 3, -2, -5, 3, 5, 10,-3.129958438375667,1.1693137197676253
1503702423551,+0.834,+0.551,-0.007,-0.000,+0.972,+0.036,-0.340,+10.438,-10.875,+6.188,2, -1, 2, 5, 3, -1, 3, 19,-3.1338657796012406,1.1669955099365767
1503702423567,+0.836,+0.549,-0.005,+0.000,+0.937,+0.035,-0.357,+11.750,-14.562,+4.438,5, 12, 11, 2, 1, 0, -2, -6,-3.13610596777109,1.1624580257603943
1503702423590,+0.837,+0.547,-0.003,+0.001,+0.902,+0.018,-0.363,+12.000,-9.062,+4.125,11, -7, -9, -5, -6, -2, 0, 9,-3.139983940708419,1.1575085367108677
1503702423611,+0.837,+0.548,+0.000,+0.002,+0.953,+0.017,-0.372,+13.875,+0.938,+7.000,3, -3, -2, -1, 2, -5, -7, -15,3.1382505014531317,1.1601709991255518
1503702423627,+0.837,+0.547,+0.003,+0.002,+0.991,+0.019,-0.361,+15.312,-4.312,+11.000,-23, -1, 11, 4, 3, 5, 3, -9,3.134959805833894,1.1575157668486988
1503702423649,+0.838,+0.546,+0.007,+0.002,+0.978,-0.000,-0.339,+15.500,-12.438,+11.062,5, -9, -7, -4, -6, -11, 1, 0,3.1306050072084792,1.1553601910658067
1503702423673,+0.839,+0.544,+0.010,+0.002,+0.941,-0.017,-0.348,+16.312,-15.938,+11.625,16, 17, 8, 4, -1, 5, 3, 23,3.127353543344329,1.1505548505256675
1503702423687,+0.840,+0.542,+0.014,+0.002,+0.928,-0.023,-0.368,+16.688,-12.688,+13.250,-40, -8, -10, -2, 0, 3, 3, -39,3.1230351763365722,1.145841408545082
1503702423710,+0.841,+0.541,+0.018,+0.001,+0.924,-0.027,-0.362,+15.312,-8.062,+13.188,-7, -6, -6, -5, -3, -5, -2, -9,3.120436202535021,1.1438459840728492
1503702423734,+0.841,+0.540,+0.021,+0.001,+0.929,-0.022,-0.374,+16.062,-2.938,+13.625,19, 9, -2, 3, 5, 1, -1, 10,3.1171808595821457,1.1413946187817052
1503702423747,+0.842,+0.540,+0.025,+0.001,+0.975,-0.013,-0.375,+19.062,-4.250,+11.750,14, 15, 1, -2, -1, -4, -2, 4,3.112948809061078,1.1421822885204864
1503702423769,+0.842,+0.538,+0.029,+0.002,+0.975,-0.016,-0.368,+20.375,-11.250,+11.250,-1, -13, -9, -3, -1, -1, -4, 5,3.1069241208696856,1.1372734133372524
1503702423791,+0.844,+0.536,+0.033,+0.003,+0.924,-0.038,-0.367,+20.812,-15.625,+9.562,-33, -12, -8, -5, -4, -1, -5, -6,3.101144939994664,1.133341452516663
1503702423807,+0.845,+0.534,+0.037,+0.004,+0.883,-0.052,-0.387,+21.500,-12.750,+8.000,-7, -1, 3, 1, 2, 1, -8, -28,3.095273882127626,1.1290295842027402
1503702423829,+0.845,+0.533,+0.040,+0.004,+0.892,-0.051,-0.380,+20.375,-4.062,+9.375,4, 14, 6, 5, -1, 1, 5, 23,3.092046194185666,1.1268010021444934
1503702423852,+0.845,+0.533,+0.044,+0.005,+0.924,-0.063,-0.381,+19.688,+1.000,+10.938,-3, 1, -4, -4, 0, -2, -9, 1,3.086086142765968,1.127460938815639
1503702423871,+0.845,+0.533,+0.048,+0.005,+0.932,-0.056,-0.381,+20.812,-1.312,+11.062,25, -2, -2, -3, 3, 1, 2, 6,3.0818202088183884,1.128144737719746
1503702423889,+0.845,+0.532,+0.052,+0.006,+0.932,-0.063,-0.382,+20.438,-6.125,+11.375,-13, -10, -4, -1, 5, -2, -4, -14,3.0758309295135735,1.126274266168873
1503702423911,+0.845,+0.531,+0.057,+0.006,+0.915,-0.065,-0.381,+20.750,-6.875,+14.250,-33, -12, 0, 3, -1, 0, 0, -2,3.0704668730527573,1.1246306543312208
1503702423928,+0.846,+0.530,+0.061,+0.006,+0.912,-0.086,-0.390,+21.562,-7.438,+16.000,20, 10, 3, 0, -3, 0, -1, 2,3.0664128356523843,1.1233109088468467
1503702423949,+0.846,+0.528,+0.066,+0.006,+0.916,-0.088,-0.398,+23.062,-7.688,+16.438,-13, -5, -6, -4, -7, -3, -5, -12,3.061031294797696,1.1191766374625096
1503702423974,+0.847,+0.527,+0.071,+0.006,+0.909,-0.088,-0.404,+23.312,-9.250,+19.062,17, -2, -3, -1, 9, 1, -5, -1,3.0559698734263687,1.1182526707626144
1503702423987,+0.848,+0.525,+0.076,+0.005,+0.904,-0.102,-0.407,+24.438,-8.062,+18.875,6, 6, 1, -3, -5, 0, 5, 9,3.052607707164001,1.1147015654071732
1503702424009,+0.848,+0.524,+0.082,+0.005,+0.896,-0.132,-0.390,+24.562,-3.625,+20.875,-40, -10, -6, 0, -4, -3, 0, -18,3.046257835387936,1.1137916814072228
1503702424031,+0.847,+0.524,+0.087,+0.004,+0.909,-0.131,-0.396,+26.312,-1.312,+21.938,-4, 1, 3, 1, -1, 1, -2, 6,3.0423717929615948,1.1148017472162814
1503702424053,+0.847,+0.523,+0.093,+0.003,+0.931,-0.145,-0.406,+26.688,-2.562,+22.500,9, 0, 0, -4, -11, -2, 1, -5,3.037718452328541,1.1140450228002494
1503702424070,+0.847,+0.522,+0.099,+0.003,+0.934,-0.172,-0.386,+26.625,-5.875,+22.438,-4, 3, 6, 1, -3, 0, 4, 4,3.031366059716056,1.1134983023698477
1503702424093,+0.848,+0.520,+0.106,+0.002,+0.930,-0.186,-0.391,+27.125,-10.875,+22.250,17, -3, -9, -5, -4, -2, -5, 5,3.026041191527335,1.111186097238593
1503702424107,+0.848,+0.518,+0.111,+0.001,+0.881,-0.197,-0.393,+24.062,-8.000,+21.062,10, 2, -2, -1, 0, 1, 3, 12,3.0224577229538747,1.1077543064388071
1503702424129,+0.847,+0.518,+0.117,+0.000,+0.869,-0.218,-0.365,+20.875,+0.625,+21.125,-16, -1, -1, 1, 1, -4, -6, -23,3.017461910078809,1.1096791123372274
1503702424159,+0.846,+0.519,+0.122,-0.001,+0.904,-0.219,-0.381,+21.062,+6.750,+19.812,-7, -7, -1, 4, 3, -3, 1, 1,3.013509887328886,1.113953293204896
1503702424167,+0.845,+0.519,+0.126,-0.002,+0.928,-0.216,-0.374,+18.125,+6.625,+18.688,13, 10, 2, -1, -4, 2, 0, 1,3.0105607323647767,1.115190737298393
1503702424189,+0.844,+0.520,+0.130,-0.003,+0.916,-0.226,-0.369,+17.750,+2.500,+18.062,-13, -11, -5, -5, -2, 0, 2, 7,3.0076101430068474,1.119160840989672
1503702424212,+0.844,+0.519,+0.135,-0.004,+0.901,-0.245,-0.377,+17.375,-1.000,+16.250,8, -2, 2, 3, 1, 0, -7, 0,3.0040212098885384,1.1187979334146683
1503702424228,+0.844,+0.519,+0.138,-0.005,+0.893,-0.246,-0.386,+15.312,+1.062,+14.438,-1, -4, 0, 0, -1, 0, -2, 0,3.002569156801223,1.1201795271031716
1503702424249,+0.843,+0.519,+0.142,-0.005,+0.889,-0.254,-0.361,+12.812,+1.125,+13.875,-16, -20, -1, -3, -3, -1, 1, -3,2.9978379246265154,1.1217747026321072
1503702424272,+0.843,+0.519,+0.145,-0.006,+0.885,-0.258,-0.378,+9.938,+2.062,+12.688,18, 21, 3, 1, 0, -1, -4, -11,2.996381291856803,1.123232722994344
1503702424287,+0.842,+0.519,+0.147,-0.007,+0.876,-0.252,-0.364,+7.625,+3.500,+12.125,2, 0, -4, -4, -2, -2, -2, 2,2.9954635740467883,1.123714760167183
1503702424309,+0.841,+0.519,+0.149,-0.008,+0.889,-0.249,-0.372,+8.875,+3.875,+11.125,6, -11, -2, 0, 3, 4, 2, 5,2.9945361203989873,1.1242098937444174
1503702424331,+0.841,+0.520,+0.152,-0.009,+0.899,-0.277,-0.378,+7.812,+4.062,+11.125,-15, -3, 2, 0, 0, -3, 3, -4,2.9930736097061392,1.128436302828322
1503702424347,+0.840,+0.519,+0.154,-0.010,+0.886,-0.271,-0.377,+7.375,+2.125,+10.500,5, 6, 2, 1, 0, -3, 1, 3,2.9921223974987696,1.1262714168660464
1503702424369,+0.840,+0.519,+0.156,-0.010,+0.890,-0.259,-0.372,+7.188,-0.625,+9.250,-11, -14, 2, 3, 3, -1, -3, -3,2.9899861088695854,1.1274174877871368
1503702424391,+0.840,+0.519,+0.158,-0.011,+0.879,-0.271,-0.371,+6.625,+1.125,+9.438,-17, -7, -7, -7, -8, -3, 0, -5,2.9895787664377185,1.1284392303384876
1503702424407,+0.840,+0.519,+0.159,-0.012,+0.877,-0.274,-0.371,+6.812,+3.250,+9.250,7, -1, 1, 1, -2, -2, -2, 10,2.990239180467594,1.128884303184756
1503702424429,+0.839,+0.519,+0.161,-0.013,+0.889,-0.286,-0.376,+7.250,+4.250,+9.312,12, 6, -3, -3, -1, -1, 3, -11,2.9892748605818826,1.1294631835293716
1503702424451,+0.839,+0.519,+0.164,-0.013,+0.896,-0.285,-0.396,+8.438,+2.750,+9.125,3, -8, -1, 1, 1, -1, 0, -1,2.9860624002967935,1.1312695440784197
1503702424467,+0.838,+0.519,+0.166,-0.014,+0.893,-0.298,-0.360,+7.562,+0.938,+9.312,-14, -10, 1, -4, -1, 1, 1, -2,2.9850775602248603,1.131886270552548
1503702424496,+0.838,+0.519,+0.168,-0.014,+0.882,-0.292,-0.369,+7.688,+0.562,+9.000,-16, 6, 4, 0, -2, 0, -1, -1,2.982930775439816,1.133127481585464
1503702424511,+0.838,+0.519,+0.170,-0.015,+0.889,-0.300,-0.372,+8.625,+1.188,+9.250,-5, 1, -3, 1, 0, 2, 2, -3,2.9825173055337686,1.1342348818751045
1503702424527,+0.837,+0.519,+0.172,-0.015,+0.896,-0.305,-0.357,+8.438,+1.812,+8.688,7, 17, 15, 6, 3, -5, 2, 9,2.9797764996005225,1.1350488417718567
1503702424549,+0.837,+0.519,+0.174,-0.015,+0.904,-0.313,-0.362,+10.125,+0.438,+9.438,4, -7, -11, -7, -6, -3, -1, 7,2.977625752922807,1.1363401311374166
1503702428073,+0.785,+0.609,-0.046,-0.103,+1.032,-0.082,-0.193,+6.125,+10.875,-1.438,-2, 1, -6, 1, 0, -1, -2, -7,-2.921704808836437,1.3135702844818413
1503702428089,+0.785,+0.610,-0.046,-0.102,+0.979,-0.081,-0.185,+3.375,+3.125,-3.938,-12, -15, -3, -2, 4, 1, -2, -9,-2.9236783942745816,1.316306078395634
1503702428111,+0.785,+0.609,-0.046,-0.101,+0.957,-0.060,-0.208,+3.250,-1.188,-5.875,-33, -24, 5, 2, 0, -2, -2, -5,-2.9247766801836397,1.313523394343646
1503702428134,+0.785,+0.609,-0.046,-0.099,+0.940,-0.066,-0.216,+2.312,+2.250,-8.750,10, 10, -1, -3, -1, -1, -8, -2,-2.9278527144215714,1.3134764874860363
1503702428149,+0.786,+0.609,-0.046,-0.098,+1.005,-0.060,-0.220,+0.562,-2.812,-7.562,5, 5, 0, -3, -1, -2, 2, 6,-2.9298625659253994,1.3137632753424844
1503702428171,+0.786,+0.608,-0.046,-0.098,+1.013,-0.074,-0.193,-2.438,-7.375,-3.438,3, 8, 1, -3, -4, -3, -2, 4,-2.9294398521337555,1.3110048970549868
1503702428193,+0.787,+0.607,-0.047,-0.097,+0.986,-0.043,-0.195,-1.812,-10.812,-8.125,-1, 3, -2, -2, 0, -1, 2, -2,-2.929841710835041,1.308767352802094
1503702428209,+0.789,+0.605,-0.048,-0.096,+0.975,-0.031,-0.211,-0.312,-15.875,-8.625,-12, 11, -1, 1, 3, 1, -9, -9,-2.930312292028703,1.3041015493711483
1503702428233,+0.791,+0.602,-0.049,-0.094,+0.960,-0.031,-0.224,+0.000,-16.438,-13.125,1, -1, -5, -4, -3, -3, -1, -3,-2.9319447171394963,1.2966801948830144
1503702428253,+0.793,+0.600,-0.050,-0.092,+0.972,-0.026,-0.229,+0.812,-15.625,-17.875,-13, -10, -3, -1, -3, -3, -3, -13,-2.9340172515297143,1.2920293524133903
1503702428276,+0.795,+0.598,-0.052,-0.089,+0.936,-0.011,-0.203,-2.438,-13.875,-21.375,4, 0, 4, 3, 0, 1, 2, 7,-2.9365007630425812,1.2876149184859
1503702428292,+0.796,+0.596,-0.056,-0.086,+0.953,+0.056,-0.199,-6.250,-14.438,-23.438,14, 3, -4, -3, -1, -2, 3, 5,-2.93621294922907,1.2834060091247255
1503702428315,+0.797,+0.595,-0.060,-0.082,+1.014,+0.058,-0.235,-2.500,-4.375,-29.562,5, 7, 5, 4, -1, -1, 2, 0,-2.9379016960234114,1.281956191175252
1503702428336,+0.799,+0.594,-0.063,-0.077,+1.087,+0.062,-0.268,-2.188,-10.812,-31.438,10, 16, 5, 2, 1, 0, 1, 6,-2.942831997704335,1.2805686299924697
1503702428351,+0.802,+0.590,-0.064,-0.074,+0.998,-0.039,-0.287,+6.500,-24.812,-22.062,11, 10, -3, -4, -2, -2, -3, -3,-2.946454270670576,1.2708588568681078
1503702428373,+0.803,+0.587,-0.064,-0.073,+1.002,-0.019,-0.226,-0.812,-19.562,-15.688,-4, -1, 4, 0, -1, 1, -3, -3,-2.947517075391908,1.2629916365035916
1503702428396,+0.805,+0.586,-0.066,-0.071,+0.983,+0.014,-0.200,-3.000,-15.500,-14.312,-4, -7, -8, -1, 0, 0, 0, -2,-2.949001720888915,1.261483986285595
1503702428412,+0.806,+0.583,-0.067,-0.070,+1.017,+0.037,-0.253,-2.750,-18.125,-12.250,13, 4, 8, -2, 0, 2, -1, -2,-2.9489628833846804,1.2539349752088549
1503702428442,+0.809,+0.580,-0.069,-0.068,+0.999,+0.025,-0.270,-4.750,-22.750,-14.062,-1, -7, 3, -2, -8, 1, 1, -2,-2.9503634750781074,1.2473976395090784
1503702428456,+0.811,+0.577,-0.071,-0.067,+0.958,+0.053,-0.263,-5.875,-18.188,-15.625,-14, -7, -11, -3, 4, -4, -6, -5,-2.949741357357508,1.2405745844918659
1503702428472,+0.813,+0.575,-0.072,-0.065,+0.965,+0.073,-0.297,-0.938,-17.312,-13.750,3, -15, -7, -3, 4, 3, -3, 1,-2.9521778349976615,1.236129069164907
1503702428493,+0.815,+0.572,-0.073,-0.063,+0.994,+0.034,-0.298,-0.125,-19.875,-15.062,-17, 4, 8, 7, 1, 0, 1, -2,-2.9543545941786067,1.2289943275158632
1503702428516,+0.817,+0.569,-0.075,-0.061,+0.928,+0.045,-0.293,-2.312,-20.750,-14.812,8, 0, -5, -2, 3, -4, -1, 0,-2.9554530636364653,1.2222028688510114
1503702428537,+0.819,+0.565,-0.076,-0.061,+0.884,+0.094,-0.300,-5.812,-19.812,-8.000,-2, -4, -1, 0, 3, 1, 2, -3,-2.9542214194634817,1.2125230808289482
1503702428553,+0.820,+0.564,-0.077,-0.061,+0.938,+0.109,-0.328,-5.188,-10.000,-0.750,-1, -5, 2, 0, 1, 1, -2, 6,-2.9533314263684383,1.210555904050616
1503702428578,+0.822,+0.562,-0.077,-0.061,+0.977,+0.061,-0.332,-1.625,-15.000,+1.000,7, 8, 0, -3, -3, -3, -3, 1,-2.9537802826549884,1.2059729685748635
1503702428591,+0.823,+0.559,-0.077,-0.062,+0.954,+0.048,-0.282,-5.812,-20.688,+2.562,-37, -1, 0, 0, -2, -2, 1, -12,-2.951850931371563,1.1983691536491385
1503702428613,+0.825,+0.556,-0.078,-0.063,+0.902,+0.077,-0.292,-8.938,-22.188,+1.438,23, 7, 9, -1, -3, 0, -3, 4,-2.94932489513136,1.1915282147335464
1503702428638,+0.827,+0.553,-0.079,-0.065,+0.916,+0.085,-0.327,-10.250,-20.000,+1.562,5, 8, -6, 3, 4, 2, 0, -6,-2.945189972023243,1.1847778283515622
1503702428651,+0.828,+0.551,-0.080,-0.066,+0.948,+0.070,-0.329,-10.188,-15.250,-0.750,-3, 0, 4, -2, -3, -4, -2, 0,-2.9424463656648463,1.1802517311320264
1503702428673,+0.829,+0.549,-0.082,-0.066,+0.943,+0.088,-0.335,-9.625,-12.688,-2.750,1, -12, -5, -2, -2, 2, 8, 1,-2.9402575826640263,1.1760306474013014
1503702428696,+0.831,+0.547,-0.083,-0.067,+0.967,+0.098,-0.355,-6.875,-14.812,+2.062,7, 12, -3, 0, -1, -1, -2, 3,-2.9380715072014905,1.1719635869690703
1503702428713,+0.832,+0.544,-0.083,-0.067,+0.937,+0.083,-0.333,-4.438,-17.125,+0.375,3, 12, -2, -4, -9, -6, -8, -3,-2.9377762724753715,1.1643992930200242
1503702428738,+0.833,+0.542,-0.084,-0.068,+0.890,+0.083,-0.357,-7.750,-14.062,-1.750,-1, 1, -5, -3, -1, -4, 0, -4,-2.935062305316244,1.1599366172517527
1503702428749,+0.834,+0.541,-0.085,-0.069,+0.886,+0.083,-0.378,-7.562,-3.562,+2.000,-8, -3, -6, -3, -4, -3, -1, -1,-2.932637183086818,1.158145915554661
1503702428773,+0.834,+0.541,-0.085,-0.070,+0.939,+0.074,-0.370,-8.062,+1.938,+6.375,-6, -4, -1, -2, -1, -3, -7, -14,-2.931003068499031,1.1582142263898971
1503702428793,+0.834,+0.541,-0.086,-0.071,+0.959,+0.091,-0.355,-9.250,-3.688,+4.812,5, 1, -3, -5, -4, -2, -4, -6,-2.9283114291555505,1.1586534311033005
1503702428809,+0.834,+0.540,-0.086,-0.073,+0.969,+0.088,-0.332,-6.688,-5.812,+8.125,-6, -2, -2, -2, -8, -1, 0, -3,-2.924753214738285,1.1561366672317215
1503702428831,+0.834,+0.539,-0.086,-0.075,+0.958,+0.069,-0.375,-5.375,-7.562,+8.062,-7, 6, 1, 0, -17, -7, -6, -14,-2.921185658674029,1.1536218498871709
1503702428853,+0.835,+0.538,-0.086,-0.076,+0.958,+0.062,-0.365,-3.000,-7.688,+6.875,-5, 0, 6, 0, 4, 3, -1, 13,-2.91983336619418,1.1514780994309193
1503702428871,+0.835,+0.537,-0.085,-0.077,+0.956,+0.052,-0.353,-3.188,-8.188,+6.750,-8, -9, -12, -1, 5, 3, 3, 3,-2.9189430968501373,1.1485220071849653
1503702428891,+0.836,+0.536,-0.085,-0.078,+0.945,+0.048,-0.364,-2.875,-7.250,+4.625,19, 9, -6, -2, 4, -6, -2, 8,-2.9175884110553754,1.1463848120794022
1503702428913,+0.837,+0.535,-0.084,-0.079,+0.941,+0.048,-0.367,-1.500,-8.500,+2.938,-20, -4, -8, -9, 3, 2, -4, -23,-2.9172801732487326,1.1438780673793771
1503702428929,+0.837,+0.534,-0.084,-0.079,+0.940,+0.050,-0.383,-0.125,-7.438,+1.750,-6, 1, 1, 1, -1, 10, -3, 3,-2.9169672958992905,1.1412331074532878
1503702428951,+0.838,+0.533,-0.083,-0.079,+0.938,+0.052,-0.392,+2.312,-8.688,+2.688,1, 1, -2, -2, -10, -4, -2, -1,-2.918290517593511,1.1386656341497288
1503702428974,+0.839,+0.532,-0.082,-0.080,+0.934,+0.056,-0.386,+2.938,-7.875,+4.312,0, -21, -9, 1, 0, -1, -2, 2,-2.9179702220200077,1.136174636754763
1503702428989,+0.840,+0.531,-0.080,-0.080,+0.936,+0.057,-0.402,+6.375,-5.625,+6.000,-16, -3, -6, -4, 2, 0, 2, 3,-2.9203196469780313,1.1332614587476726
1503702429011,+0.840,+0.530,-0.078,-0.081,+0.938,+0.041,-0.375,+7.438,-7.438,+8.500,-15, -12, -5, -5, -5, 2, -2, -10,-2.9204396244770723,1.1299806031107296
1503702429033,+0.841,+0.530,-0.076,-0.081,+0.918,+0.049,-0.397,+9.500,-4.438,+8.125,0, 11, 3, -2, 5, 2, 3, -5,-2.9230870330087155,1.12973738278746
1503702429049,+0.841,+0.530,-0.073,-0.081,+0.943,+0.062,-0.406,+14.188,-1.812,+10.500,-5, 2, 4, 4, 1, -3, -3, -10,-2.9261931076965797,1.1287208142710634
1503702429073,+0.841,+0.530,-0.069,-0.081,+0.967,+0.039,-0.394,+16.438,-3.500,+12.438,27, 11, -7, 2, 1, 4, 12, 32,-2.9303411077263792,1.127415831566644
1503702429093,+0.842,+0.529,-0.065,-0.081,+0.942,+0.027,-0.403,+19.375,-5.250,+11.312,8, 4, 4, 1, 0, -1, -1, 3,-2.934722043008718,1.1239868291437292
1503702429116,+0.842,+0.529,-0.061,-0.081,+0.926,+0.026,-0.414,+22.188,-3.625,+12.125,-9, -3, 4, 3, -3, 0, -2, -7,-2.9388719244652473,1.1227970005435315
1503702429132,+0.843,+0.529,-0.056,-0.080,+0.928,+0.026,-0.404,+23.688,-0.125,+14.000,2, -2, 1, -2, -3, -8, -1, 1,-2.9462249284227013,1.1218013384791157
1503702429153,+0.843,+0.530,-0.051,-0.080,+0.941,+0.013,-0.411,+26.188,+0.750,+16.125,-11, 15, 8, 6, 2, 0, 3, -4,-2.9517194372216826,1.1231296293286683
1503702429179,+0.843,+0.530,-0.045,-0.080,+0.951,+0.006,-0.419,+29.688,-1.625,+17.250,2, -6, -8, -9, -4, -4, -4, -4,-2.9579657481513983,1.1216755192300893
1503702429192,+0.844,+0.530,-0.038,-0.079,+0.957,+0.008,-0.410,+32.000,-7.062,+19.125,-2, 3, -3, -3, -1, 0, -1, 4,-2.9673641556394807,1.1205700704947905
1503702429215,+0.844,+0.529,-0.032,-0.079,+0.932,-0.006,-0.405,+33.438,-9.688,+20.562,-4, -1, -4, -2, 2, 1, 0, 6,-2.9733330085799214,1.1167568607890748
1503702429236,+0.845,+0.528,-0.025,-0.079,+0.896,-0.027,-0.409,+34.250,-6.500,+20.812,0, -14, 4, 1, 1, -1, -1, -3,-2.9807507729261737,1.1133741211138393
1503702429252,+0.845,+0.529,-0.017,-0.079,+0.900,-0.045,-0.399,+35.625,+1.625,+22.062,-2, 13, -10, -2, -1, -2, -4, -19,-2.989401041626083,1.1148579167754549
1503702429283,+0.844,+0.530,-0.010,-0.078,+0.952,-0.051,-0.405,+37.562,+2.062,+22.625,-3, -13, -1, -2, -2, -1, 3, 1,-2.998365211755825,1.1162051416359906
1503702429296,+0.844,+0.531,-0.003,-0.078,+0.947,-0.066,-0.377,+37.312,-0.625,+20.625,22, 0, 6, 1, -1, 3, 4, 16,-3.006023501677563,1.1182154639103445
1503702429317,+0.844,+0.530,+0.005,-0.077,+0.911,-0.077,-0.389,+37.625,-4.375,+20.625,6, 6, 2, 3, 0, -2, -11, -24,-3.0158734653553574,1.1150420256857259
1503702429334,+0.844,+0.531,+0.012,-0.076,+0.896,-0.099,-0.383,+36.062,-2.000,+19.312,-23, -20, -9, -3, -1, 0, 1, 14,-3.02524342397521,1.1174522099652469
1503702429355,+0.844,+0.531,+0.019,-0.076,+0.911,-0.095,-0.391,+37.438,+2.062,+18.812,0, -4, -1, -2, 0, -2, 2, -7,-3.0326681580417665,1.1173758977970953
1503702429377,+0.843,+0.532,+0.026,-0.075,+0.927,-0.102,-0.387,+36.250,+2.812,+18.500,-9, -14, -3, -1, 1, 1, 2, 12,-3.0418724580460887,1.1197013327990617
1503702429394,+0.842,+0.533,+0.032,-0.074,+0.921,-0.114,-0.365,+35.500,-0.250,+17.875,-16, 5, -1, -4, -14, -5, -8, -16,-3.0500698771578354,1.1221730042227809
1503702429416,+0.842,+0.533,+0.039,-0.073,+0.911,-0.132,-0.377,+34.375,-2.562,+17.500,11, 2, -1, -1, 0, 0, 1, 24,-3.059274779017795,1.1226581821819062
1503702429433,+0.842,+0.533,+0.045,-0.072,+0.893,-0.150,-0.370,+32.438,+0.375,+15.812,-18, 18, 11, 3, 3, 1, 4, 6,-3.067418514455942,1.1232327188252373
1503702429454,+0.841,+0.534,+0.051,-0.071,+0.896,-0.146,-0.372,+32.938,+1.812,+15.875,-33, -16, -5, -1, 2, 1, -1, -9,-3.0757364424120386,1.1261703620872985
1503702429476,+0.840,+0.534,+0.058,-0.070,+0.897,-0.163,-0.371,+32.688,+1.812,+14.688,-2, -11, -5, -4, 1, -5, -5, -17,-3.0849489619923616,1.1267194958904898
1503702429492,+0.840,+0.534,+0.063,-0.069,+0.894,-0.177,-0.370,+30.375,-0.188,+14.000,21, 8, -1, -1, -6, 0, 1, 4,-3.092081031322545,1.1275797683913151
1503702429514,+0.839,+0.535,+0.069,-0.069,+0.890,-0.171,-0.363,+29.750,+2.438,+14.500,-33, -6, 1, 5, 7, 2, -2, -31,-3.0988233387861888,1.1309097182490775
1503702429536,+0.838,+0.536,+0.075,-0.068,+0.915,-0.194,-0.370,+29.562,+1.875,+16.125,19, 5, 3, 1, -1, -3, -1, 3,-3.107320830601415,1.1344516377684462
1503702429553,+0.838,+0.535,+0.081,-0.067,+0.928,-0.200,-0.376,+30.125,-3.188,+15.938,5, 2, 4, -2, -2, 2, 5, -1,-3.1153718209999304,1.1331944998710026
1503702429576,+0.838,+0.535,+0.086,-0.067,+0.889,-0.205,-0.365,+27.500,-5.438,+14.000,22, 11, 0, 4, 1, 3, 1, 11,-3.120845081949492,1.1344525952759932
1503702429597,+0.838,+0.534,+0.091,-0.066,+0.855,-0.218,-0.365,+26.625,-1.812,+12.688,27, -5, -8, -6, -3, -4, 0, 25,-3.1278183914268434,1.1331722945150435
1503702429617,+0.837,+0.535,+0.096,-0.066,+0.878,-0.231,-0.381,+26.000,+6.750,+12.875,1, 9, 6, 0, -3, -2, -6, -11,-3.1336181968141266,1.1368794344295523
1503702432740,+0.812,+0.572,-0.008,-0.112,+0.855,-0.123,-0.270,+3.125,+4.875,+0.125,-5, -14, 4, 1, 3, 0, -4, -6,-2.947728501121864,1.2153417370388104
1503702432753,+0.811,+0.575,-0.008,-0.111,+0.827,-0.137,-0.305,+2.750,+20.812,-4.000,-10, -1, -1, -1, -2, -2, -3, 0,-2.9502060477692553,1.2231309539493487
1503702432776,+0.808,+0.579,-0.008,-0.110,+0.977,-0.150,-0.284,+0.938,+28.375,-7.188,8, 4, -4, -3, -4, -4, -1, -7,-2.9523045325236468,1.2328945800127493
1503702432798,+0.806,+0.582,-0.010,-0.109,+1.004,-0.114,-0.254,-0.500,+22.750,-9.375,1, 7, 3, 2, 4, -1, 1, 4,-2.9520810577743353,1.2405546529422993
1503702432813,+0.806,+0.583,-0.011,-0.106,+0.976,-0.102,-0.261,+4.750,+2.938,-17.312,5, 0, 0, 0, -5, 1, 3, 3,-2.9561202577886694,1.2433846951290168
1503702432836,+0.807,+0.581,-0.011,-0.102,+0.904,-0.145,-0.284,+5.938,-9.500,-23.125,-1, -11, -4, -1, -4, -3, -3, -4,-2.962074928460984,1.2382561625856434
1503702432858,+0.807,+0.582,-0.013,-0.099,+0.859,-0.136,-0.256,+1.188,+7.125,-25.438,5, 13, 2, 1, 0, 0, 2, -4,-2.964955354557693,1.2411932790832063
1503702432874,+0.805,+0.585,-0.016,-0.095,+0.927,-0.087,-0.296,+0.812,+22.000,-26.312,-3, -13, -2, 1, 12, 1, 1, 1,-2.9682653477999175,1.2489746546947649
1503702432895,+0.804,+0.587,-0.019,-0.091,+0.985,-0.068,-0.271,+1.125,+17.062,-29.438,7, 4, -3, -2, -3, 0, -2, 5,-2.9715212824279056,1.2544178383698283
1503702432918,+0.805,+0.587,-0.021,-0.086,+0.965,-0.069,-0.267,+2.562,-0.750,-33.188,13, -1, 0, -1, -8, -2, -1, -2,-2.977514726651419,1.2549841834534816
1503702432933,+0.806,+0.586,-0.024,-0.081,+0.916,-0.066,-0.254,+2.500,-5.375,-36.250,-9, -13, 5, 2, -4, -3, -6, 0,-2.982018162353267,1.2529575643945012
1503702432955,+0.806,+0.586,-0.027,-0.076,+0.997,-0.059,-0.258,+0.312,-1.375,-32.562,2, 4, -5, 2, 4, 1, 0, -3,-2.9865132507467003,1.253316227552966
1503702432978,+0.809,+0.583,-0.030,-0.073,+1.060,-0.038,-0.304,-2.250,-21.500,-25.750,-13, -7, -5, -2, -3, 0, 0, -12,-2.9879750742885816,1.246644342733208
1503702432994,+0.811,+0.580,-0.032,-0.070,+1.022,-0.042,-0.203,-4.562,-23.500,-25.188,1, 11, 9, 2, -4, 2, -1, -1,-2.9903050041108608,1.2394866761576953
1503702433015,+0.813,+0.578,-0.035,-0.067,+0.963,-0.052,-0.257,-5.500,-18.312,-28.625,-12, -6, -7, 2, 9, -4, -4, -4,-2.9918275597986645,1.2352531337190795
1503702433038,+0.815,+0.575,-0.038,-0.063,+0.958,-0.006,-0.308,-5.000,-15.250,-29.562,2, 2, -5, -7, -3, 0, -3, 3,-2.99474390578444,1.228318666001867
1503702433053,+0.816,+0.573,-0.042,-0.058,+1.012,+0.002,-0.275,-2.750,-18.500,-36.875,7, -5, 0, 0, -1, 3, 2, 3,-2.9981171548429564,1.2239124353253092
1503702433076,+0.818,+0.570,-0.045,-0.054,+1.056,+0.009,-0.260,-3.750,-20.312,-30.562,-2, 5, 0, -6, -6, -3, 0, -2,-3.0011893662809666,1.2170551954081845
1503702433101,+0.821,+0.566,-0.047,-0.051,+1.019,-0.009,-0.271,-1.375,-33.375,-24.062,-4, 0, 0, 1, 0, 5, -4, 0,-3.003970133112943,1.2077550963095613
1503702433114,+0.825,+0.560,-0.050,-0.048,+0.978,+0.004,-0.322,-3.250,-40.750,-32.062,4, 4, 5, 1, 1, 1, 2, -11,-3.0056563894159765,1.1937474420395044
1503702433136,+0.829,+0.556,-0.053,-0.044,+0.878,+0.076,-0.364,-5.688,-27.625,-30.812,1, 1, -4, -5, -6, -3, -2, 4,-3.009515417477318,1.1851781790537788
1503702433158,+0.829,+0.554,-0.055,-0.041,+0.837,+0.110,-0.417,-2.750,+1.688,-13.688,4, 7, 5, -1, 0, -1, 2, 7,-3.0118826763361843,1.1801504873774
1503702433174,+0.828,+0.557,-0.055,-0.041,+0.958,+0.070,-0.264,+0.625,+11.312,+1.500,-8, -8, -4, -4, -7, -7, -5, -4,-3.0120703213447477,1.1877894968356595
1503702433195,+0.829,+0.555,-0.053,-0.041,+1.120,+0.018,-0.326,+11.562,-14.812,+1.000,3, -5, 3, 5, 7, -3, 0, 7,-3.014265141433763,1.1823731646144853
1503702433218,+0.832,+0.550,-0.054,-0.039,+0.989,+0.080,-0.338,-0.938,-36.000,-10.188,2, -7, -6, 3, 9, -13, -1, 7,-3.0166257096873386,1.170384092543633
1503702433235,+0.836,+0.544,-0.054,-0.038,+0.780,+0.096,-0.439,+5.500,-33.062,-4.688,-6, -4, -2, 4, 9, 3, 0, -9,-3.018650663724808,1.1560324387706806
1503702433255,+0.838,+0.542,-0.053,-0.038,+0.876,+0.040,-0.334,+3.438,-13.812,+2.312,-5, -4, 3, -4, -12, -2, -5, 4,-3.0200793093855234,1.1513517761690226
1503702433278,+0.838,+0.542,-0.051,-0.038,+0.970,+0.037,-0.314,+8.062,-8.438,+5.000,0, 7, -1, -3, -5, 1, -4, 1,-3.0222332103412857,1.1509095145458659
1503702433294,+0.840,+0.538,-0.051,-0.037,+0.995,+0.061,-0.339,+1.375,-30.250,-6.312,4, -9, -10, -4, 1, -1, -2, -8,-3.023930982859652,1.1411066639225482
1503702433315,+0.844,+0.533,-0.052,-0.036,+0.887,+0.088,-0.373,+0.562,-36.562,-8.812,0, -7, -6, -6, -17, 7, 7, 2,-3.0250858661878812,1.1298107459528932
1503702433339,+0.846,+0.529,-0.052,-0.035,+0.851,+0.106,-0.378,+0.625,-25.438,-4.688,11, -10, -5, 1, -2, -2, 1, -2,-3.0268388285135743,1.1200887577353034
1503702433354,+0.848,+0.526,-0.053,-0.034,+0.885,+0.095,-0.368,-1.938,-19.750,-4.125,-4, -8, 1, -1, -1, -1, 1, 3,-3.027702234351158,1.1132585757833011
1503702433377,+0.849,+0.524,-0.054,-0.034,+0.904,+0.093,-0.396,-4.750,-16.250,-0.312,-10, -3, -1, 7, 24, 2, -2, -7,-3.026709841888886,1.1086685224902453
1503702433398,+0.851,+0.521,-0.055,-0.035,+0.902,+0.091,-0.419,-6.312,-17.062,+2.625,-17, 5, -1, -7, -11, -1, -2, -5,-3.024226850272404,1.1019773047588333
1503702433414,+0.852,+0.519,-0.055,-0.036,+0.905,+0.069,-0.416,-7.250,-12.438,+5.812,-11, 7, 1, -1, 3, 3, 0, -1,-3.0225912999627895,1.097238203972186
1503702433436,+0.853,+0.517,-0.055,-0.038,+0.960,+0.070,-0.431,-5.312,-16.438,+8.812,-6, -8, 3, -5, -5, -3, 0, -2,-3.0192540576681264,1.0925593175752395
1503702433458,+0.855,+0.514,-0.055,-0.040,+0.934,+0.067,-0.414,-7.438,-24.562,+8.375,10, 0, 2, 6, 3, -2, 1, 2,-3.016109744124686,1.0857492492007332
1503702433474,+0.857,+0.510,-0.055,-0.042,+0.860,+0.068,-0.455,-5.438,-20.625,+9.375,9, 5, -9, -6, -22, 0, 3, 8,-3.012809561284693,1.0763508918073281
1503702433495,+0.858,+0.509,-0.054,-0.045,+0.843,+0.052,-0.461,-6.938,-7.062,+14.688,-5, -9, -2, 2, 3, 3, 2, -3,-3.0089154743276323,1.074146488820244
1503702433518,+0.858,+0.509,-0.054,-0.048,+0.881,+0.069,-0.455,-7.562,+5.625,+18.000,-8, 0, -2, 3, 10, 3, 0, -5,-3.0038125247995446,1.0743009798388694
1503702433537,+0.856,+0.511,-0.053,-0.051,+0.952,+0.083,-0.440,-5.562,+12.188,+21.312,-19, -10, 0, -2, 4, -2, -3, -3,-2.9993225554265686,1.0784718455597406
1503702433555,+0.855,+0.513,-0.052,-0.055,+0.996,+0.068,-0.418,-3.500,+3.500,+27.938,-17, -5, 13, 4, 1, -2, -2, -3,-2.9935500105181703,1.0831809232506246
1503702433578,+0.855,+0.513,-0.050,-0.059,+0.948,+0.044,-0.421,-2.938,-3.500,+27.500,-10, -15, -6, 2, 2, -1, -5, -8,-2.9888145374362507,1.0829047478866827
1503702433594,+0.855,+0.512,-0.047,-0.063,+0.900,+0.016,-0.425,-1.625,-3.375,+25.562,-3, 3, 7, 3, -1, 7, -1, -2,-2.9848716595489666,1.07978709303518
1503702433615,+0.854,+0.513,-0.046,-0.066,+0.867,-0.007,-0.401,-4.938,+6.250,+23.250,6, 17, 8, -6, -11, -5, -5, -2,-2.980632925705925,1.0818253695135176
1503702433638,+0.852,+0.516,-0.044,-0.070,+0.901,+0.005,-0.401,-3.688,+18.312,+21.312,1, 31, 15, 3, 5, 0, -3, -4,-2.9758166914780593,1.0884403733069232
1503702433653,+0.851,+0.519,-0.043,-0.072,+0.994,+0.003,-0.422,-1.312,+14.625,+18.625,-13, -19, -24, -4, 8, -4, 0, -8,-2.9738258862273543,1.0956900663148237
1503702433676,+0.850,+0.520,-0.042,-0.074,+0.968,-0.020,-0.379,-1.750,+3.375,+15.250,8, -2, -3, 1, 0, 0, 6, 13,-2.971335774437485,1.0977004223233155
1503702433698,+0.850,+0.519,-0.041,-0.076,+0.875,-0.019,-0.423,-1.812,-4.438,+11.125,10, -2, 1, 5, 13, 1, -1, 2,-2.968734990566241,1.0949344508329504
1503702433714,+0.850,+0.520,-0.040,-0.078,+0.818,-0.030,-0.430,-4.438,+7.188,+10.062,4, 3, -1, -3, -4, 0, 0, 1,-2.9666889891781922,1.0974194497456944
1503702433738,+0.848,+0.522,-0.040,-0.080,+0.884,-0.028,-0.429,-4.188,+18.000,+11.375,2, 4, -5, -5, -17, -2, 2, 7,-2.9630383687382573,1.1018017302024579
1503702433758,+0.846,+0.525,-0.039,-0.081,+0.981,-0.016,-0.394,-2.812,+15.188,+10.312,4, 11, 5, 4, 1, 2, 2, -2,-2.9623967145869297,1.108581414903803
1503702433775,+0.846,+0.525,-0.039,-0.082,+0.965,-0.021,-0.384,-2.562,-0.750,+5.062,0, -22, -9, -2, 4, 3, -3, 10,-2.960730101315375,1.1086162126021355
1503702433795,+0.847,+0.523,-0.038,-0.083,+0.867,-0.026,-0.413,-2.688,-10.000,+5.125,5, 3, -5, 4, 10, 2, 4, 5,-2.959938475251504,1.103641159885838
1503702433818,+0.847,+0.523,-0.038,-0.085,+0.841,-0.041,-0.418,-2.875,+1.062,+6.250,-10, -16, -5, -1, -5, 2, 6, 3,-2.9566026100840435,1.1037096482264006
1503702433834,+0.847,+0.524,-0.037,-0.086,+0.917,-0.037,-0.416,-2.062,+6.500,+8.250,11, -6, -7, -4, 5, 0, -7, 5,-2.956278452343848,1.1061648842899938
1503702433855,+0.846,+0.524,-0.036,-0.087,+0.982,-0.030,-0.408,-1.375,-1.312,+10.188,-10, -2, -5, -4, -6, -5, -6, 1,-2.9551883230398293,1.1055193548671374
1503702433880,+0.847,+0.522,-0.035,-0.088,+0.925,-0.044,-0.389,-1.000,-14.250,+6.438,11, -1, 1, -1, -2, 3, 0, 16,-2.9543699304814726,1.1005509137919105
1503702433894,+0.849,+0.520,-0.035,-0.089,+0.853,-0.046,-0.409,-2.812,-12.500,+5.312,6, 1, 5, 0, -2, -3, 3, -12,-2.952980418982481,1.0962728217662392
1503702433917,+0.849,+0.520,-0.034,-0.090,+0.876,-0.031,-0.415,-1.125,-1.062,+6.750,-4, -1, 1, -4, -4, 1, 3, -1,-2.9523342580414753,1.0960997403090185
1503702433939,+0.849,+0.520,-0.033,-0.091,+0.958,-0.033,-0.433,+2.375,+1.188,+5.062,-23, -3, -3, -2, 4, -3, -8, -26,-2.9516882570150536,1.0959283760850582
1503702433954,+0.849,+0.519,-0.032,-0.091,+1.005,-0.036,-0.423,+4.062,-13.125,+5.125,-25, -8, -2, -4, 1, -4, -1, -5,-2.9523814467934444,1.0931020139288516
1503702433976,+0.851,+0.516,-0.030,-0.091,+0.920,-0.053,-0.402,+4.500,-24.125,+3.375,22, 14, 3, 4, 3, 13, 8, 9,-2.9543538790953185,1.085798418999282
1503702433998,+0.853,+0.513,-0.029,-0.091,+0.833,-0.065,-0.429,+4.688,-16.438,+2.375,-2, -3, -4, -1, -1, -1, -1, -6,-2.9553017704132225,1.0787161350191674
1503702434014,+0.853,+0.513,-0.027,-0.092,+0.840,-0.062,-0.438,+4.250,+4.562,+4.562,6, -15, -9, -1, 0, -2, -5, 1,-2.955642201326433,1.0783718418746706
1503702434036,+0.851,+0.516,-0.026,-0.092,+0.947,-0.046,-0.433,+6.688,+14.250,+8.938,7, 0, 2, 3, -1, -1, 6, 7,-2.956742460629808,1.0850858588916779
1503702434058,+0.851,+0.517,-0.024,-0.092,+1.015,-0.051,-0.416,+9.250,+2.188,+8.875,14, 7, 3, 4, 3, -2, -2, 9,-2.9591048447145187,1.0873615139525947
1503702434082,+0.852,+0.515,-0.021,-0.093,+0.992,-0.054,-0.417,+13.250,-15.188,+9.562,11, 1, -5, -5, 4, -2, -1, -14,-2.9602518340223267,1.0821180978803198
1503702434096,+0.853,+0.513,-0.017,-0.093,+0.905,-0.089,-0.429,+13.000,-21.875,+10.375,3, -7, -3, 1, -3, -2, 5, 15,-2.9640722074845844,1.076738732548602
1503702434118,+0.855,+0.511,-0.014,-0.094,+0.838,-0.089,-0.422,+10.125,-13.812,+10.250,-8, 5, 15, 4, -2, 1, -7, -21,-2.965591225068708,1.0720594382762472
1503702434134,+0.854,+0.511,-0.011,-0.095,+0.850,-0.076,-0.417,+9.438,+2.562,+11.875,15, -9, 4, 5, 1, -2, 3, 6,-2.966518485793471,1.0711767196119049
1503702434156,+0.853,+0.513,-0.009,-0.095,+0.919,-0.055,-0.430,+8.500,+10.062,+13.125,-21, 0, -9, -10, -6, -5, -5, 6,-2.968809947229675,1.0756802983425338
1503702434178,+0.853,+0.514,-0.007,-0.096,+0.965,-0.067,-0.428,+10.125,+1.438,+12.250,5, -1, 7, 2, 2, 4, 1, 10,-2.9694912545783536,1.0780756780772147
1503702434194,+0.853,+0.513,-0.004,-0.096,+0.917,-0.079,-0.438,+12.125,-5.875,+9.500,24, 35, 9, -2, -2, 1, -3, 9,-2.972197166196405,1.0751159602548437
1503702434216,+0.853,+0.512,-0.002,-0.096,+0.860,-0.095,-0.414,+10.562,-5.250,+8.312,-29, -5, -3, 2, -6, -6, -10, -20,-2.973889231168088,1.07228318959246
1503702434238,+0.853,+0.513,+0.001,-0.096,+0.842,-0.091,-0.436,+11.312,+2.000,+7.250,11, 1, -6, -6, -1, -2, -3, -25,-2.9772793904147816,1.0746305214016183
1503702434254,+0.853,+0.514,+0.003,-0.096,+0.888,-0.089,-0.438,+12.250,+7.250,+5.750,-4, 5, -4, -2, -6, -2, -3, 2,-2.9796536105188642,1.0770922115432253
1503702434276,+0.852,+0.514,+0.005,-0.095,+0.948,-0.090,-0.436,+12.062,+2.375,+4.625,4, -9, -2, 4, 4, 1, -1, -5,-2.983028908340136,1.0764520872117869
1503702434298,+0.853,+0.514,+0.007,-0.094,+0.937,-0.091,-0.428,+13.125,-5.875,+4.000,-9, -8, -2, 1, 2, -1, -6, -8,-2.9871130734268165,1.0768104164295296
1503702434315,+0.853,+0.513,+0.010,-0.094,+0.895,-0.110,-0.405,+11.562,-12.000,+4.688,9, 10, 3, -2, -1, -4, -2, -12,-2.989843754308975,1.073996869842117
1503702434336,+0.854,+0.511,+0.012,-0.094,+0.842,-0.116,-0.428,+8.938,-8.250,+5.562,21, -7, 0, 10, 4, 2, 2, 21,-2.991549401573727,1.0691203139323988
1503702434358,+0.854,+0.512,+0.014,-0.094,+0.854,-0.112,-0.426,+7.438,+2.938,+6.188,-19, -5, -4, -3, -2, -1, -10, -4,-2.993918804382008,1.0716637113017355
1503702434376,+0.853,+0.513,+0.015,-0.094,+0.896,-0.115,-0.419,+6.312,+7.500,+4.562,-29, -6, -1, 5, 0, -1, 3, 0,-2.99495466596385,1.0737668919495755
1503702434396,+0.852,+0.514,+0.016,-0.094,+0.938,-0.104,-0.447,+8.375,+5.438,+4.875,-6, -4, -3, -3, -5, -4, -5, -11,-2.995998895365327,1.0758776760359632
1503702434418,+0.853,+0.514,+0.018,-0.094,+0.930,-0.117,-0.433,+7.750,-3.688,+4.438,-2, -2, 0, -2, -2, 1, 4, 18,-2.9983565040243283,1.076310330562117
1503702434434,+0.853,+0.513,+0.020,-0.093,+0.889,-0.116,-0.433,+8.188,-5.062,+2.250,21, 5, -3, 3, 5, -2, -3, 12,-3.001777196428776,1.073644364457977
1503702434456,+0.853,+0.513,+0.021,-0.093,+0.882,-0.115,-0.439,+7.812,-3.625,+3.250,5, 29, 9, -1, -1, 1, 7, 0,-3.002802322377073,1.0736275836674125
1503702434478,+0.854,+0.512,+0.023,-0.092,+0.882,-0.115,-0.438,+7.625,-1.625,+3.375,-4, -12, 0, 1, 3, 5, 4, 2,-3.006514973789587,1.0714810039876816
1503702434501,+0.853,+0.512,+0.024,-0.092,+0.910,-0.113,-0.445,+8.938,-0.188,+3.375,8, 3, 1, 5, -4, -2, 0, -8,-3.007260860343745,1.0709801918127477
1503702434516,+0.853,+0.512,+0.026,-0.091,+0.925,-0.125,-0.444,+9.812,-1.188,+4.125,-4, -15, -9, -4, 1, -2, 5, 34,-3.0110265587901655,1.07100452640876
1503702434538,+0.854,+0.512,+0.028,-0.091,+0.912,-0.131,-0.439,+12.188,-3.875,+5.750,-6, -12, -4, -6, 1, -7, -6, -7,-3.0133418654749367,1.0715153677386777
1503702434554,+0.854,+0.511,+0.031,-0.090,+0.908,-0.136,-0.450,+13.438,-4.375,+6.062,0, 0, -3, 0, -2, -10, 1, -4,-3.017811129026082,1.0689526568648053
1503702434577,+0.854,+0.511,+0.034,-0.090,+0.907,-0.143,-0.450,+13.438,-3.250,+7.250,0, -5, 3, 5, -6, 0, -5, -11,-3.0208904335953632,1.069035760128546
1503702434598,+0.854,+0.511,+0.037,-0.090,+0.901,-0.152,-0.442,+14.812,-0.875,+7.375,-12, 9, 2, -6, -4, -1, -3, 2,-3.0239720400833807,1.069150927229547
1503702434614,+0.854,+0.511,+0.040,-0.089,+0.919,-0.149,-0.451,+16.250,+0.500,+7.312,-7, -6, -3, 1, 8, -2, -2, -7,-3.028774790927331,1.069337187709093
1503702434636,+0.853,+0.512,+0.043,-0.089,+0.944,-0.148,-0.459,+19.375,-0.188,+9.875,-8, -3, 2, -3, -10, 2, 1, -2,-3.031976296037813,1.0716724912978135
1503702434658,+0.854,+0.511,+0.047,-0.088,+0.951,-0.148,-0.468,+22.312,-3.375,+10.250,-5, -2, -3, -1, -2, 2, 0, -22,-3.0377038709908337,1.0698589625904675
1503702434674,+0.854,+0.511,+0.052,-0.087,+0.921,-0.163,-0.436,+23.812,-7.875,+11.688,-2, -5, -1, 0, 16, 3, 1, 8,-3.0445848883069684,1.0703624763100466
1503702434696,+0.854,+0.510,+0.057,-0.086,+0.876,-0.176,-0.435,+25.875,-2.688,+12.312,12, 4, 11, 2, -3, -2, -5, -14,-3.0511726359484634,1.0683095734268446
1503702434718,+0.853,+0.511,+0.062,-0.086,+0.877,-0.192,-0.431,+25.875,+5.000,+14.188,0, 0, -2, -1, -3, 1, 6, 11,-3.056524373662412,1.071111351249828
1503702434734,+0.851,+0.513,+0.067,-0.086,+0.901,-0.190,-0.423,+27.938,+10.375,+14.312,-2, -5, -1, -1, -3, 0, -2, -3,-3.062118649163918,1.0761853676570061
1503702434756,+0.850,+0.515,+0.072,-0.085,+0.925,-0.203,-0.416,+28.812,+8.625,+14.438,6, 5, -9, -3, -4, -2, 0, 0,-3.0696069457259036,1.0819429350583807
1503702434778,+0.849,+0.516,+0.078,-0.085,+0.923,-0.216,-0.409,+29.688,+2.812,+16.000,-2, -1, -5, -1, -4, -1, 1, 14,-3.0761558954310417,1.0852682012129462
1503702434794,+0.848,+0.516,+0.084,-0.084,+0.893,-0.223,-0.407,+28.938,+0.750,+15.375,-16, -6, -4, -4, -5, -2, -1, -2,-3.0841973795110285,1.0861315428498226
1503702434817,+0.847,+0.516,+0.089,-0.084,+0.872,-0.229,-0.413,+28.062,+1.000,+15.312,-18, -3, -4, -6, -4, -3, 0, 1,-3.0894880582976034,1.0868100401802778
1503702434839,+0.847,+0.517,+0.094,-0.083,+0.886,-0.215,-0.414,+29.438,+1.625,+15.062,0, 2, 3, 4, 5, 0, -2, -6,-3.0968462070144986,1.0908661380839082
1503702434855,+0.846,+0.517,+0.100,-0.083,+0.890,-0.235,-0.396,+30.375,+0.375,+15.750,16, 1, 0, 1, -3, 0, 0, 8,-3.1032722741920042,1.092032487503419
1503702434879,+0.845,+0.517,+0.106,-0.082,+0.865,-0.244,-0.404,+30.250,-1.125,+14.312,1, 1, -5, -3, 1, -4, -3, 1,-3.1115008077635764,1.0934395079655406
1503702434898,+0.844,+0.518,+0.111,-0.081,+0.846,-0.250,-0.394,+28.938,+3.625,+14.062,11, 6, 1, -1, -4, -2, -1, -7,-3.118990087235026,1.0973800937270022
1503702434916,+0.843,+0.519,+0.117,-0.080,+0.881,-0.258,-0.411,+31.500,+8.000,+14.250,9, 8, 1, 3, 3, -3, 1, 7,-3.127600108398005,1.1017978020938235
1503702434937,+0.842,+0.520,+0.123,-0.079,+0.904,-0.266,-0.391,+32.812,+3.688,+13.750,-8, -13, -11, -7, -5, -2, 2, -5,-3.136256467058541,1.1063838099423688
1503702434959,+0.841,+0.519,+0.129,-0.078,+0.888,-0.282,-0.372,+32.062,-3.000,+14.812,-7, -8, 4, 2, 1, 3, -1, -1,3.1387540527824873,1.105668635787747
1503702434974,+0.840,+0.519,+0.134,-0.077,+0.855,-0.301,-0.377,+31.062,-1.875,+13.062,4, 23, 5, -2, -6, -4, -5, 1,3.1313479603121515,1.1074081243300162
1503702438400,+0.844,+0.532,+0.028,+0.063,+0.908,+0.040,-0.401,-4.188,+1.375,+3.188,-7, -10, -4, -1, 1, 1, 0, -14,3.0050366682594163,1.1235983458208934
1503702438416,+0.844,+0.532,+0.028,+0.062,+0.953,+0.035,-0.380,-1.875,+1.625,+5.125,-3, 4, -5, -2, -2, -1, 1, 18,3.0067092875235852,1.1235741247362054
1503702438438,+0.844,+0.532,+0.028,+0.062,+0.955,+0.022,-0.386,-2.250,-4.188,+4.062,-6, 5, 7, 6, 2, 2, 0, 4,3.0067092875235852,1.1235741247362054
1503702438460,+0.845,+0.531,+0.028,+0.061,+0.908,+0.006,-0.399,-3.250,-8.188,+2.875,-10, -17, -5, -5, -3, -4, -4, -13,3.0084834540930094,1.1213625484188907
1503702438476,+0.845,+0.530,+0.028,+0.060,+0.881,+0.005,-0.390,-4.562,-3.625,+2.312,-47, 1, -1, 2, 5, 3, -9, -50,3.0099345744247286,1.1186913204520375
1503702438498,+0.845,+0.530,+0.028,+0.059,+0.902,+0.019,-0.381,-5.188,+3.438,+3.375,20, 5, -2, -4, -5, -2, 2, 20,3.011612851157709,1.118666842281895
1503702438520,+0.845,+0.531,+0.027,+0.059,+0.955,+0.047,-0.389,-3.875,+2.688,+4.062,5, -7, 0, -1, -4, -3, -1, 2,3.0128850943189525,1.121163540571323
1503702438537,+0.845,+0.530,+0.027,+0.058,+0.947,+0.036,-0.398,-2.688,-5.938,+4.562,10, 2, 1, -1, 1, 1, 0, 7,3.0143453454950166,1.1184926332208913
1503702438559,+0.846,+0.529,+0.027,+0.057,+0.902,+0.016,-0.388,-3.688,-11.562,+5.688,-28, 0, -3, -3, -2, -3, -7, -19,3.0161244130622418,1.1162869917988767
1503702438581,+0.847,+0.528,+0.027,+0.056,+0.879,+0.009,-0.396,-5.062,-5.688,+5.125,10, 7, 11, 2, 0, 3, 5, 31,3.0179047006822084,1.114084559480013
1503702438596,+0.847,+0.528,+0.027,+0.055,+0.902,+0.026,-0.404,-6.562,+2.438,+6.062,-1, -4, -5, -2, 0, 1, 3, -10,3.0195860656096816,1.1140607429990252
1503702438618,+0.847,+0.528,+0.026,+0.053,+0.939,+0.033,-0.384,-6.625,+2.688,+6.375,-7, -2, -4, -4, -7, -6, 1, -21,3.024000191924219,1.113871182302399
1503702438640,+0.847,+0.528,+0.026,+0.053,+0.956,+0.027,-0.390,-5.438,-3.188,+4.500,6, 1, -4, -5, -2, -3, -5, -8,3.024000191924219,1.113871182302399
1503702438656,+0.848,+0.527,+0.026,+0.052,+0.920,+0.014,-0.397,-5.375,-6.750,+2.625,-8, -9, -6, -3, -1, 2, -3, -4,3.0257803711604305,1.1116724689888513
1503702438678,+0.848,+0.527,+0.025,+0.051,+0.903,+0.010,-0.411,-4.688,-4.375,+2.375,1, 8, 0, -6, 0, -1, -7, -34,3.0285118077685853,1.111512779864865
1503702438700,+0.848,+0.527,+0.025,+0.050,+0.916,+0.017,-0.408,-5.062,+0.188,+2.625,12, -10, -1, 2, -1, 1, 5, 23,3.0301972070479564,1.1114906128699713
1503702438716,+0.848,+0.527,+0.025,+0.050,+0.911,+0.015,-0.400,-4.125,+1.750,+2.688,7, 13, 5, 2, 1, -1, -3, -2,3.0301972070479564,1.1114906128699713
1503702438739,+0.848,+0.527,+0.025,+0.049,+0.935,+0.009,-0.399,-3.875,+0.188,+2.125,-4, -13, -4, 2, -1, -2, 4, 21,3.031883242050456,1.111468443887875
1503702438760,+0.848,+0.527,+0.025,+0.049,+0.928,+0.001,-0.407,-3.125,-1.750,+3.438,18, 6, -2, -2, -1, -3, -2, 7,3.031883242050456,1.111468443887875
1503702438776,+0.849,+0.526,+0.025,+0.048,+0.920,+0.010,-0.400,-2.875,-3.812,+3.125,-10, -12, -3, 1, 1, -1, -9, -17,3.0336629622070586,1.1092734687877994
1503702438798,+0.849,+0.526,+0.025,+0.047,+0.908,+0.009,-0.403,-3.000,-2.875,+3.062,4, 13, 0, -3, -3, 3, 0, 18,3.0353500775826356,1.1092512064752735
1503702438820,+0.849,+0.525,+0.025,+0.047,+0.906,+0.015,-0.403,-3.500,-2.438,+2.375,-1, -17, -2, 1, 0, -1, 0, 8,3.0351766335483186,1.1066118291158658
1503702438837,+0.849,+0.525,+0.024,+0.046,+0.935,+0.025,-0.403,-3.438,-1.125,+2.562,15, -1, 3, 4, 2, 0, -5, -10,3.0379139857380513,1.1064605482460843
1503702438859,+0.850,+0.525,+0.024,+0.046,+0.920,+0.017,-0.404,-2.750,-3.375,+1.125,9, -4, -15, -7, 1, -1, -3, -6,3.038173733062846,1.1069305698556964
1503702438880,+0.850,+0.524,+0.023,+0.046,+0.892,+0.014,-0.397,-4.062,-3.625,-1.812,-5, -5, -4, -2, -1, 1, 1, 5,3.0390478136682524,1.104167900704779
1503702438896,+0.850,+0.525,+0.023,+0.046,+0.903,+0.028,-0.403,-2.750,+3.250,-0.500,13, 2, -4, -5, -8, -4, -15, -50,3.0392165654769134,1.106805389200976
1503702438922,+0.849,+0.525,+0.023,+0.046,+0.964,+0.039,-0.421,-1.062,+1.875,+3.500,32, -1, 0, -1, 0, 2, 4, 40,3.0389603313849833,1.1063352310949262
1503702438942,+0.850,+0.524,+0.023,+0.045,+0.960,+0.016,-0.396,-0.812,-8.625,+3.938,17, -6, -10, -10, -8, -9, -2, 37,3.0407401883468004,1.1041472014424276
1503702438956,+0.851,+0.522,+0.024,+0.045,+0.886,+0.003,-0.413,-1.000,-12.062,+3.938,8, 8, 2, -3, -2, 3, -3, -4,3.0396231378046252,1.0994731081162963
