Timestamp,Orientation X,Orientation Y,Orientation Z,Orientation W,Accelerometer X,Accelerometer Y,Accelerometer Z,Gyroscope X,Gyroscope Y,Gyroscope Z,EMG1,EMG2,EMG3,EMG4,EMG5,EMG6,EMG7,EMG8,Roll,Yaw
1503957329499,+0.837,+0.505,+0.202,+0.060,+0.807,-0.271,-0.364,-6.500,+0.375,+21.375,-3, 4, 0, -2, -7, -1, -2, -1,2.819120577697725,1.1317884203240667
1503957329521,+0.838,+0.502,+0.203,+0.059,+0.835,-0.259,-0.337,-2.125,-15.312,+9.062,-1, 0, -2, 0, 8, 3, 3, -2,2.819976833409279,1.1249428702457878
1503957329537,+0.841,+0.498,+0.203,+0.059,+0.832,-0.308,-0.359,-2.875,-29.625,+4.125,7, 3, -3, -2, 1, -5, -6, -5,2.821916516883203,1.1157471610214142
1503957329566,+0.845,+0.492,+0.201,+0.061,+0.791,-0.283,-0.414,-7.062,-39.562,-9.812,10, 6, -11, 0, -7, -5, -13, 1,2.822988192333046,1.1005640375885901
1503957329582,+0.849,+0.486,+0.197,+0.066,+0.775,-0.197,-0.479,-6.688,-42.562,-24.750,-7, -21, -3, -6, -3, -4, -2, -3,2.820938129860801,1.0845049502484785
1503957329597,+0.852,+0.482,+0.195,+0.071,+0.863,-0.150,-0.494,+3.188,-29.000,-17.062,12, 14, 5, -3, 3, 1, 1, 5,2.816429794873346,1.074904404552909
1503957329620,+0.854,+0.478,+0.194,+0.073,+0.937,-0.151,-0.516,+8.438,-23.188,-3.312,10, 4, 4, 5, 9, 5, 1, 6,2.814986313837087,1.065095996340172
1503957329641,+0.856,+0.473,+0.194,+0.076,+0.960,-0.223,-0.458,+7.000,-36.188,-4.250,12, 4, 1, -4, -13, -1, 7, 8,2.8106765316935696,1.05372705302753
1503957329657,+0.860,+0.466,+0.194,+0.081,+0.927,-0.251,-0.441,+12.562,-56.312,-11.812,8, 18, 17, 10, 1, -3, -6, -2,2.8045289722893245,1.038674027806826
1503957329681,+0.863,+0.457,+0.195,+0.090,+0.798,-0.300,-0.521,+24.875,-56.875,-33.938,-10, -5, -6, -5, -3, -2, -4, -7,2.7892573693622422,1.0198039241583086
1503957329701,+0.866,+0.451,+0.195,+0.097,+0.670,-0.294,-0.455,+21.250,-41.125,-35.062,5, 17, 8, 4, 1, -2, 0, 8,2.779079269912371,1.0075596387523165
1503957329719,+0.865,+0.450,+0.196,+0.100,+0.716,-0.281,-0.373,+10.438,-4.750,-15.312,30, -6, -8, -6, -4, -4, 0, 0,2.771823371172232,1.0059726874031376
1503957329740,+0.861,+0.458,+0.197,+0.100,+0.831,-0.146,-0.364,+0.125,+48.750,-2.875,-2, -4, 3, -2, -3, -5, -1, -1,2.768961648008969,1.0250587126580057
1503957329762,+0.856,+0.467,+0.196,+0.101,+1.003,-0.077,-0.458,+6.688,+48.438,-11.125,-1, -10, -8, -5, 3, -1, -3, 0,2.7655726628030606,1.044932278296365
1503957329777,+0.856,+0.468,+0.195,+0.105,+1.140,-0.127,-0.545,+11.938,-2.438,-11.562,-11, -7, -3, -3, -3, -2, -2, -5,2.7602545584461873,1.0474850423509168
1503957329799,+0.857,+0.463,+0.196,+0.111,+1.018,-0.235,-0.592,+21.812,-30.875,-18.750,1, 15, -2, 1, 2, -2, -5, -3,2.7489534844837755,1.037279813850523
1503957329822,+0.859,+0.457,+0.196,+0.119,+0.682,-0.202,-0.407,+18.562,-42.500,-31.000,4, 0, -2, -1, -6, -4, -10, -9,2.7360631882515167,1.024733464435572
1503957329837,+0.860,+0.455,+0.195,+0.123,+0.549,-0.187,-0.379,+9.625,-13.438,-24.250,-5, -10, -2, -1, -2, 2, -2, -5,2.7308624856024326,1.0202074469598603
1503957329859,+0.856,+0.463,+0.197,+0.122,+0.592,-0.189,-0.434,+1.625,+64.188,-5.062,-6, -6, -2, -2, -1, 0, 2, 2,2.729117330113302,1.0398675269542397
1503957329882,+0.846,+0.480,+0.200,+0.116,+0.714,-0.155,-0.451,+0.688,+124.812,+13.562,-7, -5, -1, -4, -2, 0, 1, 0,2.7311401212146063,1.0796596874097848
1503957329897,+0.836,+0.497,+0.203,+0.110,+0.960,-0.175,-0.342,-5.250,+122.875,+12.188,-10, -8, -1, -1, -3, 1, 6, 1,2.7333921305737885,1.1202596632947583
1503957329919,+0.828,+0.512,+0.204,+0.106,+1.096,-0.211,-0.327,-4.312,+93.875,+6.250,8, -4, -6, -4, -3, -2, 2, 2,2.7360734999372562,1.1559254778668233
1503957329942,+0.822,+0.521,+0.204,+0.105,+1.096,-0.212,-0.299,-2.250,+55.812,-9.875,-13, 8, -1, 1, -4, -3, -15, -20,2.7348714120900977,1.1768098319834297
1503957329957,+0.821,+0.523,+0.202,+0.109,+1.147,-0.187,-0.337,+1.188,+2.562,-22.125,11, 3, -1, -2, -1, -2, 2, 16,2.7304522848928423,1.180575754957459
1503957329979,+0.825,+0.517,+0.199,+0.114,+1.186,-0.199,-0.356,+0.688,-54.312,-18.875,-2, 0, 1, 4, 4, -1, -1, -8,2.7273648098619914,1.1647935811346373
1503957330001,+0.831,+0.507,+0.197,+0.117,+0.998,-0.244,-0.311,-7.688,-76.750,-8.562,-3, -7, 0, 0, 0, 1, 4, -11,2.7267908338643747,1.140152429416939
1503957330017,+0.836,+0.499,+0.194,+0.118,+0.745,-0.256,-0.312,-15.188,-60.750,-8.375,-5, -8, -4, -1, -1, 0, -2, 0,2.7301213378310525,1.119338607588913
1503957330039,+0.840,+0.494,+0.190,+0.120,+0.668,-0.156,-0.386,-13.062,-28.312,-8.750,9, 2, -1, -4, -3, 4, 6, 19,2.7330261552156494,1.1053520895043631
1503957330061,+0.840,+0.494,+0.187,+0.120,+0.832,-0.077,-0.447,-10.688,-1.375,-6.688,-5, -1, 1, -2, -1, -2, 2, 2,2.735805237670611,1.102960002609584
1503957330077,+0.841,+0.495,+0.185,+0.120,+0.983,-0.104,-0.479,-7.312,+2.750,+0.938,-1, -2, -3, 0, -1, -2, -7, -17,2.739225953246506,1.104411282250197
1503957330099,+0.842,+0.492,+0.186,+0.119,+1.047,-0.229,-0.489,-1.625,-12.688,+12.500,2, 3, 0, -3, -1, -1, 2, 1,2.7396786262546304,1.0977687700050194
1503957330121,+0.845,+0.488,+0.187,+0.118,+1.056,-0.305,-0.418,-3.375,-33.688,+9.188,-1, -3, -4, -1, -1, 1, 5, 6,2.741982940210359,1.0894930629728372
1503957330137,+0.848,+0.483,+0.185,+0.119,+0.994,-0.267,-0.343,-11.125,-43.562,-4.375,1, -2, 3, 1, 0, -2, -2, -1,2.7434725759329006,1.0766995322583632
1503957330159,+0.852,+0.476,+0.182,+0.121,+0.951,-0.240,-0.345,-11.625,-54.938,-10.625,17, 2, 1, 1, -2, -5, -5, -1,2.7445614704097308,1.0587807051345894
1503957330183,+0.856,+0.468,+0.180,+0.124,+0.947,-0.204,-0.345,-5.562,-70.375,-12.938,2, -11, -6, -5, -2, -3, -2, 0,2.7427519972596492,1.03943275634463
1503957330197,+0.861,+0.459,+0.178,+0.128,+0.868,-0.216,-0.352,-0.062,-73.000,-12.188,-2, -22, -10, -5, -2, 0, -4, 5,2.7400796953511626,1.0184220513389892
1503957330220,+0.865,+0.452,+0.176,+0.131,+0.702,-0.220,-0.372,-4.188,-49.812,-12.000,-12, -8, -5, -6, -2, 1, -5, -13,2.738707642491125,1.0019339659565254
1503957330241,+0.866,+0.451,+0.174,+0.132,+0.547,-0.122,-0.423,-8.312,-2.438,-12.312,-2, 11, 4, 3, 0, -1, -7, -8,2.7395178648723957,0.9986384604128637
1503957330257,+0.863,+0.456,+0.173,+0.134,+0.718,-0.124,-0.525,-2.250,+37.938,-16.938,6, 3, 2, 2, 0, -1, 2, 0,2.735742845999012,1.0092838056940965
1503957330278,+0.860,+0.461,+0.172,+0.135,+0.989,-0.192,-0.530,+1.562,+31.625,-17.312,-5, 4, 2, 0, -2, 0, -1, 3,2.7336667709857942,1.0197803919250688
1503957330301,+0.860,+0.460,+0.171,+0.139,+1.049,-0.170,-0.529,-0.625,-10.688,-19.062,1, 12, 5, 2, 0, -2, 4, 3,2.7276949823590124,1.017265616157261
1503957330318,+0.863,+0.455,+0.167,+0.145,+0.952,-0.059,-0.531,+2.125,-47.062,-28.062,-10, -13, -1, -3, 0, -1, -3, -7,2.722772096820078,1.0044108296538872
1503957330338,+0.867,+0.445,+0.163,+0.153,+0.812,-0.003,-0.624,+10.875,-61.250,-27.812,-5, -1, -2, 0, -1, 0, 0, 1,2.7135460576943933,0.9801522237664947
1503957330361,+0.871,+0.436,+0.161,+0.157,+0.718,-0.047,-0.659,+12.500,-48.812,-11.438,-2, 3, 0, 0, -3, -4, -3, 2,2.709490592064055,0.9593087131173985
1503957330376,+0.873,+0.432,+0.162,+0.158,+0.734,-0.134,-0.573,+5.438,-24.625,+0.688,5, 2, 6, 4, 1, 1, 5, 9,2.7077139620997563,0.9514249110125456
1503957330398,+0.874,+0.430,+0.162,+0.159,+0.764,-0.157,-0.534,+3.250,-3.438,+1.500,-12, 6, 1, 2, -2, 1, -3, -1,2.7064354594729445,0.9472328882791979
1503957336000,+0.785,+0.544,+0.257,+0.146,+1.000,-0.222,-0.274,+3.188,+3.438,-12.125,18, 6, 3, -2, -2, -4, -1, -3,2.58856537376149,1.28201480186695
1503957336024,+0.784,+0.545,+0.256,+0.148,+0.940,-0.217,-0.235,+1.500,+4.188,-13.938,-6, 12, 2, 0, -1, 0, 4, -3,2.5860535700998,1.2835089419062202
1503957336045,+0.784,+0.546,+0.255,+0.151,+0.892,-0.203,-0.212,+4.812,+2.875,-17.875,6, -3, -3, -2, -2, -3, 0, 3,2.5836355695328956,1.285469353751087
1503957336061,+0.783,+0.547,+0.254,+0.154,+0.944,-0.183,-0.236,+6.688,-0.125,-19.250,4, 1, -2, -2, 2, 3, 1, 4,2.5798014319690665,1.2871105816397426
1503957336083,+0.782,+0.547,+0.253,+0.157,+0.967,-0.182,-0.245,+4.688,+0.125,-16.062,-15, -5, -5, -5, -5, -4, 3, 1,2.5752283778154017,1.2861446085286328
1503957336106,+0.782,+0.547,+0.252,+0.159,+1.025,-0.215,-0.269,+3.688,-4.812,-11.500,-13, -6, -2, 1, -1, -3, -2, -9,2.5734671628581927,1.285350366235
1503957336120,+0.782,+0.546,+0.251,+0.164,+1.096,-0.195,-0.211,+8.625,-13.938,-19.562,-3, 5, 2, -1, -1, -1, -4, 24,2.5668873018477067,1.282395225532692
1503957336143,+0.781,+0.546,+0.251,+0.169,+0.977,-0.210,-0.119,+14.000,-10.250,-25.938,2, 3, 2, 1, -1, -3, -3, -11,2.558724769067641,1.2828076196189375
1503957336167,+0.779,+0.547,+0.252,+0.172,+0.913,-0.278,-0.186,+11.812,+4.375,-23.312,3, 1, -1, 4, 1, -1, -6, -10,2.5516624936747077,1.2862916340994102
1503957336181,+0.777,+0.550,+0.252,+0.173,+0.937,-0.279,-0.173,+1.125,+17.125,-16.500,9, -5, -6, -1, 1, 1, -1, 3,2.5498472832160695,1.2935963656588398
1503957336203,+0.774,+0.555,+0.251,+0.172,+1.052,-0.226,-0.114,-10.562,+24.500,-10.312,-9, -9, -3, -3, -3, -1, 0, -10,2.5518365390102806,1.3044569333336373
1503957336226,+0.772,+0.559,+0.250,+0.171,+1.175,-0.154,-0.139,-13.938,+15.250,+2.375,-15, -5, 0, -1, -2, 0, 0, -6,2.55451943093907,1.3130709206955793
1503957336240,+0.774,+0.558,+0.247,+0.169,+1.158,-0.118,-0.199,-19.375,-15.938,+8.188,9, 5, 3, 4, 2, 0, 3, 6,2.5620621619112103,1.3075852851652534
1503957336263,+0.779,+0.553,+0.243,+0.168,+0.959,-0.112,-0.239,-24.062,-42.188,+8.062,-1, 1, 2, 0, 1, -1, -2, 6,2.5702963282423683,1.291720536724573
1503957336286,+0.786,+0.546,+0.239,+0.166,+0.859,-0.166,-0.221,-28.062,-53.875,+11.812,6, -10, -2, 2, -2, -1, -9, -23,2.5812231022833627,1.2713086097610857
1503957336301,+0.790,+0.542,+0.235,+0.162,+0.869,-0.220,-0.200,-33.438,-29.500,+14.938,-22, -13, -2, -9, -2, -2, 4, 4,2.593062998676677,1.2575739774395935
1503957336323,+0.792,+0.543,+0.233,+0.157,+0.927,-0.202,-0.224,-34.312,+1.688,+15.688,6, -1, -3, -1, -1, 0, -1, 7,2.6053726931673236,1.2581061671253837
1503957336346,+0.793,+0.543,+0.230,+0.152,+0.978,-0.156,-0.283,-29.812,+1.750,+14.562,1, 2, 0, -5, 0, -7, 6, -5,2.6165721366702837,1.2547309334430043
1503957336361,+0.796,+0.541,+0.227,+0.149,+0.980,-0.164,-0.317,-27.688,-12.188,+14.000,0, 4, 2, 1, 0, 2, -3, -1,2.626322994301661,1.2471667002428075
1503957336383,+0.800,+0.538,+0.224,+0.145,+0.888,-0.187,-0.329,-28.500,-22.875,+16.625,5, 9, 1, 2, -1, -4, 0, 13,2.6381814615618264,1.237258220093049
1503957336406,+0.804,+0.533,+0.221,+0.141,+0.853,-0.228,-0.329,-28.000,-24.438,+19.938,6, 15, 5, 6, 2, 2, 0, -4,2.6488286085311032,1.2222003480087493
1503957336420,+0.807,+0.531,+0.219,+0.136,+0.847,-0.238,-0.305,-26.375,-13.625,+18.312,4, -4, -3, -4, -1, -1, -3, -3,2.6606720040938163,1.2154444183835629
1503957336443,+0.810,+0.529,+0.217,+0.132,+0.905,-0.233,-0.340,-25.750,-8.938,+16.375,1, 1, -5, -2, -1, 1, -1, 0,2.671100752942595,1.2088750176397303
1503957336466,+0.812,+0.527,+0.215,+0.128,+0.922,-0.206,-0.342,-26.312,-13.875,+13.312,3, 6, 4, 3, 1, 2, -2, 2,2.6803190834334307,1.2019495057632117
1503957336480,+0.815,+0.525,+0.211,+0.126,+0.884,-0.166,-0.311,-22.250,-17.188,+3.875,0, -6, -2, -2, -1, -2, 5, 6,2.6897633871707494,1.1939570883834287
1503957336503,+0.816,+0.524,+0.209,+0.127,+0.815,-0.184,-0.288,-13.812,-10.562,-7.375,6, 4, 1, 2, -3, -1, -4, -20,2.6908655732209232,1.1901149387413892
1503957336528,+0.816,+0.524,+0.207,+0.128,+0.874,-0.235,-0.261,-9.750,-2.500,-15.250,-4, 0, 0, -2, -1, 5, 4, 5,2.6912924572097827,1.188500951192708
1503957336540,+0.815,+0.526,+0.205,+0.128,+0.985,-0.218,-0.287,-11.375,+9.000,-12.688,-9, -9, -3, -2, -1, -2, 1, -9,2.6931191343452934,1.1915659002847772
1503957336563,+0.815,+0.527,+0.202,+0.129,+1.010,-0.148,-0.353,-10.250,-1.250,-9.562,-1, -6, -6, -4, 3, 0, 0, 11,2.6950826194209534,1.191725526254078
1503957336585,+0.818,+0.523,+0.199,+0.131,+0.982,-0.154,-0.376,-9.625,-28.625,-10.562,-4, 0, 1, 0, -3, -3, 2, -2,2.6963490269696373,1.180232611512944
1503957336601,+0.822,+0.518,+0.196,+0.133,+0.917,-0.223,-0.353,-10.562,-38.375,-10.375,9, 3, 0, -1, 0, 0, 2, -2,2.6982358337567676,1.1666451568280556
1503957336623,+0.824,+0.515,+0.194,+0.133,+0.876,-0.237,-0.348,-11.062,-25.812,-6.750,-7, -6, -2, -4, 0, -2, 1, 0,2.700891110535527,1.1580258529849379
1503957336646,+0.825,+0.514,+0.193,+0.132,+0.913,-0.168,-0.397,-9.500,-0.562,+6.125,5, 0, 1, -2, -1, -3, -4, -7,2.7040080611453887,1.1548672629334167
1503957336662,+0.825,+0.515,+0.194,+0.129,+0.915,-0.138,-0.420,-4.000,+9.875,+16.250,-5, 2, 0, -1, -1, 0, 3, 4,2.7081534683600594,1.157812700714791
1503957336683,+0.826,+0.514,+0.194,+0.127,+1.059,-0.161,-0.368,-2.625,-5.688,+16.500,-4, 0, 0, 0, -2, -1, -2, -4,2.7118581391469347,1.1553216599160774
1503957336706,+0.827,+0.511,+0.196,+0.126,+1.110,-0.210,-0.352,+2.938,-22.562,+14.938,-4, -3, 0, 0, -1, -1, -2, -1,2.7111310240394335,1.1494658375175493
1503957336720,+0.830,+0.505,+0.198,+0.126,+0.998,-0.241,-0.360,+5.812,-35.875,+11.500,-4, 1, 1, 0, -1, 0, -1, -2,2.7097764379325042,1.1368995185201571
1503957336743,+0.834,+0.499,+0.199,+0.126,+0.852,-0.221,-0.374,+4.125,-38.688,+15.188,3, 2, 0, -1, 0, 1, 1, -2,2.7106604211275704,1.124008232693767
1503957336766,+0.836,+0.495,+0.201,+0.124,+0.732,-0.235,-0.364,+3.625,-19.250,+16.250,-7, -3, -1, -2, -1, 0, 6, 10,2.7123979191159346,1.115935538538126
1503957336780,+0.835,+0.497,+0.203,+0.122,+0.696,-0.245,-0.274,+1.562,+16.312,+5.812,-9, -5, -1, -1, 1, 0, -3, -16,2.713405770372555,1.1219895053824405
1503957336803,+0.831,+0.503,+0.204,+0.122,+0.825,-0.242,-0.247,-2.375,+40.938,-8.062,-5, -2, 0, -1, -1, 0, 4, 2,2.7105436027677654,1.1365874752147462
1503957336826,+0.827,+0.510,+0.202,+0.123,+1.000,-0.235,-0.276,-5.875,+32.188,-25.438,0, -1, -2, 0, -1, -3, -2, 2,2.7095478353299054,1.1514507184638005
1503957336840,+0.825,+0.514,+0.198,+0.128,+1.052,-0.207,-0.271,-7.750,+9.125,-36.438,-9, 0, -2, 0, -1, -1, -5, -4,2.705355330238133,1.158404329127493
1503957336865,+0.825,+0.514,+0.194,+0.133,+0.947,-0.151,-0.320,-6.375,-14.562,-37.438,-9, -5, -2, 0, 2, 0, 1, -1,2.701541247704579,1.1558553739000879
1503957336886,+0.827,+0.511,+0.189,+0.139,+0.846,-0.110,-0.387,-7.875,-22.625,-36.688,3, 3, -3, -3, -1, -1, -3, 2,2.6979000582674364,1.1457817089446958
1503957336901,+0.828,+0.510,+0.184,+0.142,+0.887,-0.114,-0.410,-11.938,-14.750,-25.438,1, -1, 1, 1, -1, 0, 1, -12,2.6986641789963444,1.1400693770003008
1503957336923,+0.829,+0.510,+0.182,+0.142,+0.996,-0.115,-0.421,-11.312,-4.375,-2.312,-2, -4, -3, -2, -4, -1, -2, -8,2.7017050718016358,1.13891393695141
1503957336946,+0.831,+0.507,+0.181,+0.141,+1.051,-0.127,-0.428,-6.688,-15.562,+9.812,3, -4, 0, -4, 0, -2, -1, 3,2.7048676549865167,1.1311126184310056
1503957336960,+0.834,+0.502,+0.181,+0.140,+1.019,-0.174,-0.393,-5.312,-36.812,+10.938,-6, -3, -1, 0, 0, 0, -2, 3,2.707241792032787,1.119419108262701
1503957336983,+0.838,+0.496,+0.180,+0.140,+0.913,-0.209,-0.383,-5.062,-44.812,+8.562,-5, 2, -1, -3, -1, 1, -1, 2,2.7097169298497694,1.1050459002133843
1503957337006,+0.841,+0.491,+0.180,+0.139,+0.798,-0.188,-0.405,-5.188,-30.125,+3.688,3, 3, 1, -2, -2, -3, 1, 7,2.7122364040172378,1.0934642376974848
1503957337021,+0.842,+0.490,+0.179,+0.139,+0.786,-0.140,-0.415,-3.812,-4.000,+0.438,10, 2, 1, 1, 0, -2, 2, -2,2.7138067699573427,1.0905948124371354
1503957337043,+0.841,+0.492,+0.178,+0.139,+0.873,-0.121,-0.374,-4.750,+10.500,+0.000,4, 0, -2, 0, 0, -1, -1, 1,2.7145460609479612,1.0944690261052177
1503957337074,+0.839,+0.494,+0.178,+0.138,+0.935,-0.125,-0.313,-7.000,+11.188,+0.500,-4, -4, -4, -1, 1, 0, 0, 5,2.7147853786684926,1.0985036875985799
1503957337081,+0.839,+0.495,+0.177,+0.139,+0.934,-0.131,-0.352,-2.562,-4.000,-8.125,7, 4, -1, 1, -1, -1, -1, -5,2.7146520514753094,1.1004571508997323
1503957337104,+0.841,+0.492,+0.174,+0.143,+0.951,-0.127,-0.436,-2.812,-27.312,-22.250,1, -12, -8, 0, -2, 0, 0, 2,2.711975291354949,1.0920670716408458
1503957343208,+0.779,+0.595,+0.192,+0.041,+0.919,-0.263,-0.199,+0.812,-11.375,-35.000,-7, 13, 1, 3, -2, 0, 2, 4,2.834446853447112,1.343329493760349
1503957343230,+0.781,+0.593,+0.188,+0.046,+0.786,-0.261,-0.239,-1.500,-15.438,-39.875,8, -4, -5, -6, -5, -4, 2, 12,2.832489573907502,1.3356931957463067
1503957343247,+0.781,+0.595,+0.184,+0.049,+0.906,-0.211,-0.197,-9.500,+8.500,-33.062,-1, 8, 2, 2, 6, 4, 9, 5,2.8333107305228618,1.3383907256795569
1503957343268,+0.779,+0.598,+0.179,+0.051,+1.074,-0.179,-0.243,-14.250,+19.375,-23.500,-9, -19, -5, -4, -1, -2, -6, -4,2.8355098683822053,1.342506169473248
1503957343290,+0.780,+0.598,+0.177,+0.052,+1.207,-0.199,-0.205,-9.000,-5.375,-8.438,-7, -5, -5, 0, -5, -5, -10, -16,2.8371841106764855,1.3413981121952256
1503957343308,+0.781,+0.597,+0.176,+0.050,+1.078,-0.304,-0.068,-16.062,-16.750,+3.938,-2, -11, -8, -5, -4, -4, 2, 11,2.8418728103993556,1.3380370845370755
1503957343327,+0.785,+0.593,+0.173,+0.048,+0.996,-0.252,-0.127,-24.250,-31.438,-0.688,6, 7, 5, 2, 1, 1, 6, 13,2.850318620441437,1.3258777533157553
1503957343350,+0.790,+0.587,+0.170,+0.046,+0.989,-0.262,-0.156,-28.250,-53.750,+2.812,2, 4, 0, 4, 0, 0, -1, -14,2.8589101772155603,1.3086416972834645
1503957343366,+0.797,+0.579,+0.165,+0.045,+0.914,-0.229,-0.136,-34.875,-60.250,-2.250,11, 5, -1, -1, -7, -3, 4, 11,2.8692266416743877,1.2854796316748593
1503957343387,+0.803,+0.573,+0.159,+0.043,+0.876,-0.177,-0.165,-40.750,-57.125,-6.312,-6, -11, -1, -4, -1, -2, 2, 9,2.8820445255236904,1.2670020625608316
1503957343411,+0.807,+0.570,+0.152,+0.041,+0.917,-0.108,-0.241,-45.188,-27.000,-1.750,-10, -11, -2, -2, 0, 0, -1, -10,2.8952510665166704,1.2556454384872693
1503957343426,+0.810,+0.566,+0.146,+0.039,+0.986,-0.067,-0.314,-36.125,-24.500,+0.500,6, 5, 1, 2, -2, 4, -4, 6,2.906292656572533,1.242062348500633
1503957343448,+0.814,+0.562,+0.141,+0.036,+1.040,-0.199,-0.303,-32.750,-34.625,+0.250,4, 6, 1, -2, 1, 0, 2, 10,2.918494426560721,1.2295361252433756
1503957343472,+0.819,+0.555,+0.137,+0.034,+0.978,-0.194,-0.332,-31.938,-44.625,+2.375,-5, 2, -2, -3, -4, -3, -5, 0,2.9279366881134186,1.2101085264967266
1503957343486,+0.826,+0.547,+0.133,+0.032,+0.877,-0.143,-0.391,-28.938,-50.750,+8.562,11, 9, 8, 7, 5, 2, 1, 11,2.9384403736635845,1.189022661158312
1503957343513,+0.831,+0.541,+0.130,+0.027,+0.848,-0.178,-0.394,-29.812,-39.750,+19.625,-7, -5, -1, -4, -2, -1, 6, -13,2.951931964553658,1.1729338762892083
1503957343532,+0.833,+0.537,+0.129,+0.021,+0.881,-0.200,-0.371,-28.688,-19.250,+25.188,1, 2, 0, 2, 5, 6, -5, 2,2.963580940421981,1.1619315266476755
1503957343546,+0.834,+0.537,+0.128,+0.016,+0.911,-0.209,-0.345,-20.438,+0.312,+23.188,5, 4, 0, -6, -3, 2, -11, -9,2.9735785921233617,1.1613501886024806
1503957343568,+0.834,+0.537,+0.129,+0.013,+0.944,-0.214,-0.339,-11.000,+3.375,+17.750,-17, -13, -6, -6, -4, -8, 4, -9,2.9775282127541205,1.1615299042205245
1503957343590,+0.834,+0.537,+0.129,+0.010,+0.950,-0.235,-0.336,-8.000,-1.438,+11.000,5, 6, 1, 5, 0, 0, 0, 3,2.9825646653618945,1.16121538961054
1503957343606,+0.835,+0.535,+0.129,+0.009,+0.927,-0.265,-0.328,-7.625,-10.312,+4.625,-10, -6, -2, -2, 0, -1, -1, 3,2.9845956683240535,1.156169442849358
1503957343629,+0.835,+0.534,+0.129,+0.008,+0.878,-0.256,-0.352,-7.000,-2.125,+1.812,11, 3, -4, -3, -6, 2, 1, 5,2.9862034119158674,1.153373847884189
1503957343653,+0.834,+0.536,+0.129,+0.007,+0.826,-0.223,-0.337,-5.438,+10.438,-1.812,-3, 1, 2, 0, 1, -4, -1, -8,2.987533345795802,1.1582080012038747
1503957343667,+0.833,+0.537,+0.128,+0.007,+0.948,-0.216,-0.326,-5.562,+10.375,-3.875,0, -2, -2, 0, -5, -1, 0, 3,2.988186916664347,1.1599748602733857
1503957343688,+0.833,+0.538,+0.127,+0.007,+1.074,-0.224,-0.354,-3.500,+2.312,-4.125,-10, -4, 0, 1, 4, 4, 0, -3,2.9893514634967078,1.1621853318371662
1503957343718,+0.834,+0.537,+0.127,+0.008,+1.062,-0.214,-0.380,-1.750,-12.500,-1.188,-1, -1, 0, -3, -7, -13, -3, -6,2.988093581882479,1.1600332731341412
1503957343726,+0.837,+0.532,+0.127,+0.007,+0.975,-0.195,-0.408,-0.875,-28.500,+8.000,-3, -4, -1, -3, -1, -2, 0, 5,2.9909153272298403,1.1478135227106492
1503957343748,+0.840,+0.527,+0.128,+0.006,+0.834,-0.191,-0.378,-1.438,-29.625,+13.625,1, 0, 0, 0, -2, 0, -1, -18,2.9927094845657933,1.1361253165790401
1503957343770,+0.841,+0.525,+0.130,+0.005,+0.767,-0.241,-0.349,+3.375,-13.500,+10.062,-6, -6, -4, -2, -1, -3, -4, -11,2.9926640243358187,1.1320788664370165
1503957343788,+0.840,+0.525,+0.133,+0.003,+0.836,-0.278,-0.322,+2.188,+5.312,+8.188,13, 11, 2, -1, 1, 1, -3, 13,2.9923750132083287,1.132868067426213
1503957343808,+0.839,+0.528,+0.134,+0.001,+0.939,-0.269,-0.328,-1.062,+16.062,+11.312,-13, -17, -5, -3, 0, 0, 1, -3,2.9943538555281393,1.1407346121749906
1503957343831,+0.838,+0.529,+0.135,-0.001,+0.967,-0.232,-0.319,-4.500,+6.062,+11.312,4, 6, -1, 1, 0, 0, 2, 7,2.996225829688953,1.143244542397549
1503957343852,+0.838,+0.528,+0.135,-0.002,+0.939,-0.216,-0.331,-3.625,-8.938,+5.500,-7, 4, 4, 3, 0, -2, -3, 5,2.997891597218232,1.1404385111173025
1503957343868,+0.840,+0.526,+0.134,-0.001,+0.879,-0.212,-0.362,-2.125,-14.312,-2.188,7, 0, -2, -1, -1, -2, -5, -3,2.998177131252286,1.1355857311895086
1503957343892,+0.841,+0.524,+0.133,+0.000,+0.796,-0.212,-0.342,-2.375,-10.562,-10.812,4, 3, 0, -1, 0, 0, 6, 5,2.9979565541615223,1.1302957449769468
1503957343906,+0.841,+0.525,+0.131,+0.003,+0.806,-0.195,-0.272,-6.812,-1.312,-21.312,-3, -3, -3, -3, -3, -4, -4, -6,2.9950080065688955,1.1323393002782058
1503957343936,+0.839,+0.529,+0.127,+0.006,+0.941,-0.147,-0.289,-9.000,+14.250,-23.750,-1, 1, -2, -2, 0, 0, 1, -2,2.9934048971850284,1.1405542018060768
1503957343951,+0.839,+0.530,+0.124,+0.010,+0.962,-0.156,-0.464,+0.750,+10.375,-26.062,-2, -2, 0, 0, 0, 1, -2, 2,2.989906292349596,1.1422419770152386
1503957343966,+0.842,+0.526,+0.121,+0.015,+0.936,-0.162,-0.468,+0.688,-26.312,-33.875,-1, 11, -1, -1, -2, -1, -5, 0,2.9858025371888988,1.132042103536658
1503957343989,+0.846,+0.520,+0.118,+0.020,+0.910,-0.140,-0.406,-6.250,-46.375,-25.062,1, -6, 0, -1, -1, 1, 0, -2,2.9819317780821963,1.1170808056932258
1503957344010,+0.848,+0.516,+0.116,+0.021,+0.861,-0.175,-0.379,-6.875,-27.312,-8.375,-7, -8, -2, -1, -3, 0, 1, -6,2.982924534479103,1.1066288577305516
1503957344026,+0.849,+0.515,+0.115,+0.021,+0.880,-0.196,-0.380,-6.312,-4.625,-2.875,11, -2, -1, -1, 0, 0, -2, -8,2.9843623997454527,1.1040147861001852
1503957344048,+0.850,+0.514,+0.115,+0.021,+1.004,-0.182,-0.414,-4.000,-10.375,-5.062,-4, 6, -2, 0, 0, 0, 1, 1,2.984763726982344,1.1018427811668847
1503957344070,+0.851,+0.512,+0.114,+0.024,+1.063,-0.156,-0.416,+4.250,-22.562,-10.938,-1, -5, -1, -1, -1, -1, -1, 2,2.980979689459592,1.096918134310479
1503957344086,+0.854,+0.507,+0.114,+0.029,+0.936,-0.184,-0.382,+12.125,-36.688,-17.938,4, 2, 0, 1, 0, -1, 0, 5,2.9734384072939988,1.0857229655727554
1503957344108,+0.857,+0.501,+0.114,+0.034,+0.827,-0.204,-0.371,+7.250,-44.938,-26.000,-1, -2, 0, 2, -2, -11, -6, -2,2.9657533153933566,1.07199396418207
1503957344130,+0.859,+0.497,+0.112,+0.037,+0.824,-0.167,-0.413,+0.562,-28.375,-23.188,-4, -4, -1, -2, -1, 2, 1, -3,2.963166535484107,1.0619882064062198
1503957344147,+0.861,+0.495,+0.111,+0.041,+0.875,-0.128,-0.462,+2.938,-14.438,-17.875,-6, -4, -8, -2, -4, -1, -4, -5,2.9581201964415893,1.0577733151396445
1503957344168,+0.862,+0.492,+0.110,+0.044,+0.960,-0.127,-0.440,+4.438,-25.562,-16.125,-13, -10, 3, -2, -1, 2, 2, -2,2.9540744808518493,1.050376740801591
1503957344190,+0.865,+0.487,+0.109,+0.047,+0.955,-0.164,-0.407,+2.000,-41.438,-12.375,6, 18, 9, 6, 2, 2, -1, 1,2.950823706381002,1.0388293800601247
1503957344206,+0.868,+0.481,+0.109,+0.049,+0.832,-0.189,-0.456,-0.500,-42.812,-11.312,8, 0, -2, -3, 0, 2, 1, 4,2.948159141954286,1.0250924591427297
1503957344228,+0.872,+0.476,+0.107,+0.052,+0.772,-0.126,-0.513,-3.375,-33.875,-15.875,0, 0, -2, -1, 0, 0, -1, -2,2.9464016861583042,1.0137756322595783
1503957344251,+0.874,+0.471,+0.105,+0.055,+0.868,-0.062,-0.530,+0.750,-27.812,-16.375,0, -3, -3, 0, -1, -2, -2, -4,2.9434417823571284,1.001518078221581
1503957344266,+0.876,+0.467,+0.104,+0.058,+1.011,-0.109,-0.477,+4.062,-38.875,-11.250,3, -3, 1, -2, -3, -6, 0, 6,2.9396793758379127,0.9922828994859825
1503957344289,+0.878,+0.463,+0.104,+0.060,+0.956,-0.161,-0.377,+2.625,-39.312,-6.312,1, -3, -5, -3, -1, 1, 1, 3,2.936715526062537,0.9833882781056454
1503957344310,+0.880,+0.458,+0.105,+0.062,+0.805,-0.171,-0.415,+4.938,-33.875,-5.812,-5, 1, 5, 1, -1, -3, -1, -3,2.9326714120208783,0.9724234999773614
1503957353033,+0.852,+0.504,+0.145,-0.019,+0.792,-0.263,-0.403,-14.875,-1.875,-8.812,0, 1, 1, -1, -2, -3, -7, -20,3.023598558116548,1.085575736420098
1503957353055,+0.851,+0.505,+0.142,-0.021,+0.848,-0.257,-0.373,-22.062,+9.125,-0.812,7, 7, 1, 0, -1, 3, -4, 6,3.0297160249908006,1.0859631721176244
1503957353078,+0.850,+0.508,+0.138,-0.023,+0.941,-0.250,-0.375,-24.000,+17.062,+1.938,3, 2, 1, 0, 1, 6, 3, -2,3.0367809240748938,1.0912651346280149
1503957353093,+0.849,+0.509,+0.135,-0.025,+1.012,-0.241,-0.411,-18.000,+7.188,-0.375,4, 4, 7, 1, 4, 1, -2, 18,3.0429519993581398,1.0917624113261957
1503957353115,+0.852,+0.506,+0.133,-0.024,+1.028,-0.256,-0.433,-13.875,-27.188,-4.062,4, 2, -2, -7, -10, -3, 6, 2,3.044685874374109,1.0843916651424688
1503957353137,+0.856,+0.499,+0.131,-0.024,+0.947,-0.260,-0.425,-15.500,-47.688,-2.562,3, 12, 1, 0, -2, -3, 2, -1,3.0488111108388614,1.0667985969885019
1503957353153,+0.860,+0.493,+0.129,-0.026,+0.809,-0.237,-0.419,-21.750,-38.438,+8.875,-20, -5, -5, 0, 1, 0, 5, -3,3.056360742811388,1.0517357302966825
1503957353177,+0.862,+0.490,+0.127,-0.030,+0.745,-0.247,-0.432,-24.438,-18.938,+14.062,-8, -14, -2, 1, 2, -1, -2, -4,3.066456601311489,1.043425969964219
1503957353201,+0.863,+0.489,+0.125,-0.034,+0.799,-0.275,-0.444,-23.312,-1.812,+12.500,24, 2, 2, 0, 7, 14, 10, 46,3.076004581358557,1.0399359443488447
1503957353213,+0.863,+0.489,+0.124,-0.037,+0.875,-0.284,-0.470,-19.062,+2.438,+8.562,-4, -4, -2, 1, -1, -1, 0, -11,3.0823407580071884,1.0391391624533666
1503957353235,+0.863,+0.488,+0.122,-0.039,+0.937,-0.276,-0.437,-16.250,-7.312,+2.875,-7, -15, -6, -3, -4, -9, -2, -15,3.0880545021540966,1.0354418841749853
1503957353257,+0.865,+0.486,+0.120,-0.039,+0.973,-0.263,-0.408,-13.938,-20.312,-0.812,20, 30, 14, 11, -1, 1, 6, 20,3.0908848503840343,1.03041574030621
1503957353273,+0.867,+0.482,+0.119,-0.039,+0.888,-0.243,-0.443,-12.938,-27.312,+0.250,2, -4, -3, 2, -4, -2, -3, 3,3.0929855826335695,1.0205370770282542
1503957353295,+0.869,+0.478,+0.117,-0.040,+0.769,-0.233,-0.474,-10.625,-23.375,-0.312,-1, -6, 2, -5, -8, -24, -1, -4,3.0978570565715624,1.0102065232315656
1503957353317,+0.871,+0.476,+0.117,-0.040,+0.784,-0.268,-0.490,-9.062,-11.875,-1.875,1, -2, -1, 2, 1, 2, -1, 3,3.0986444930570243,1.0060153554925377
1503957353333,+0.871,+0.476,+0.116,-0.041,+0.935,-0.292,-0.522,-4.812,+0.750,-0.938,3, 4, 3, -1, 0, -2, -1, -3,3.101415776026849,1.0055260173162124
1503957353355,+0.871,+0.475,+0.117,-0.041,+0.985,-0.323,-0.536,+1.125,-9.688,+0.188,15, 15, 4, 4, 2, 7, -2, 18,3.100596856706289,1.0032684391876414
1503957353379,+0.874,+0.470,+0.119,-0.039,+0.970,-0.324,-0.513,+4.500,-36.500,-1.188,-1, -4, -4, -2, 1, 4, 2, 1,3.0965631266579456,0.9927808360984152
1503957353393,+0.878,+0.462,+0.121,-0.037,+0.852,-0.308,-0.489,+7.812,-54.438,-3.562,-7, -15, -6, -2, 0, 3, 2, -5,3.093282870129834,0.9751094778791914
1503957353415,+0.881,+0.455,+0.123,-0.035,+0.702,-0.298,-0.466,+11.125,-49.562,-7.562,0, 4, 0, -1, -2, -1, -3, -2,3.0896305139748543,0.959628769600581
1503957353437,+0.884,+0.450,+0.125,-0.032,+0.646,-0.286,-0.489,+11.062,-27.188,-9.750,-5, -5, -1, -2, -4, -2, 2, -10,3.0838788386144764,0.9495566767683841
1503957353454,+0.884,+0.449,+0.127,-0.030,+0.680,-0.289,-0.522,+9.188,-0.188,-10.688,-5, -5, -4, -2, -4, -2, 2, -3,3.078530625089388,0.9480583109851447
1503957353475,+0.883,+0.451,+0.128,-0.028,+0.746,-0.284,-0.539,+9.375,+13.875,-13.938,-1, 2, 0, 2, 2, 1, -3, -3,3.0733801146110107,0.9533664964306242
1503957353497,+0.882,+0.453,+0.128,-0.025,+0.765,-0.265,-0.506,+10.438,+11.625,-19.625,2, -6, -6, -4, 0, 0, -6, -3,3.067352315109702,0.958438514098027
1503957353513,+0.881,+0.455,+0.128,-0.021,+0.769,-0.228,-0.432,+8.750,+8.438,-22.188,4, 0, -1, 0, 1, -2, 0, 3,3.0595336465930876,0.9636627250072903
1503957361764,+0.831,+0.503,+0.208,+0.112,+0.964,-0.163,-0.408,+49.812,+81.375,-25.312,5, 2, 4, 2, 3, 1, -1, 5,2.7223262818170317,1.1382855209417235
1503957361784,+0.822,+0.514,+0.214,+0.119,+1.005,-0.125,-0.347,+58.688,+76.750,-33.000,3, -8, -6, -7, -4, -2, -1, 12,2.7002405218668097,1.1696461828389952
1503957361800,+0.815,+0.521,+0.220,+0.128,+1.039,-0.167,-0.285,+61.312,+39.062,-32.438,0, 24, 1, 4, 0, -2, -3, -8,2.675914361459706,1.1921019333270246
1503957361822,+0.811,+0.522,+0.226,+0.137,+1.006,-0.291,-0.300,+52.750,+9.438,-31.875,-3, -10, -5, -4, -3, -1, 4, 1,2.652293689888815,1.2003521005556634
1503957361845,+0.809,+0.522,+0.229,+0.145,+0.954,-0.242,-0.210,+40.750,-9.125,-34.125,3, 4, 2, 3, 0, -1, 7, -2,2.6351382836644586,1.2038490663853814
1503957361862,+0.808,+0.520,+0.232,+0.151,+0.910,-0.196,-0.288,+31.812,-14.938,-16.750,-5, -4, 1, 1, -1, -3, 0, -1,2.6210533576868777,1.202279425066435
1503957361882,+0.807,+0.519,+0.236,+0.152,+0.910,-0.256,-0.308,+21.188,+1.875,+8.312,0, -1, 3, 0, 0, 1, -2, -2,2.613886956991218,1.203514327197569
1503957361904,+0.806,+0.519,+0.239,+0.151,+0.923,-0.255,-0.227,+12.375,+6.125,+10.062,0, -3, 0, 0, -2, -2, 0, -6,2.6111494273139955,1.2060256486368734
1503957361919,+0.807,+0.518,+0.241,+0.152,+0.815,-0.220,-0.205,+7.438,-11.688,-0.500,-3, -1, -2, -3, -2, 0, -3, -5,2.608639996854117,1.2060647584128807
1503957361942,+0.806,+0.519,+0.239,+0.154,+0.748,-0.167,-0.147,-5.938,-5.562,-12.938,-3, -1, -1, -2, -1, -1, -2, 10,2.6068663877625613,1.2065507807086977
1503957361964,+0.803,+0.524,+0.235,+0.155,+0.927,-0.073,-0.196,-11.875,+25.188,-19.812,14, -3, 3, 3, 1, 1, 0, 27,2.6082617117214117,1.2144245446750073
1503957361979,+0.801,+0.528,+0.232,+0.158,+1.100,-0.134,-0.275,-9.438,+14.562,-23.188,-1, -6, -3, 0, 1, 2, -2, -8,2.6067485658648395,1.2215054972039066
1503957362002,+0.801,+0.529,+0.228,+0.163,+0.982,-0.151,-0.270,-6.062,-7.312,-35.750,0, 1, -1, 0, -3, -1, -3, -8,2.604127280638376,1.2209190155117167
1503957362024,+0.801,+0.530,+0.221,+0.170,+0.889,-0.133,-0.273,-6.062,-10.562,-53.312,-6, -2, 0, 0, 1, -1, 1, -4,2.6015223380474195,1.2177837762763841
1503957362039,+0.799,+0.534,+0.216,+0.174,+1.239,-0.032,-0.319,-13.625,+4.188,-33.312,-4, 1, -2, -4, 0, -1, -1, -5,2.600763905521501,1.2232247339345965
1503957362063,+0.800,+0.532,+0.214,+0.176,+1.081,-0.155,-0.372,-2.562,-12.250,-11.875,-5, -1, 2, 2, 1, 3, 2, -9,2.599725461608216,1.2168487656782918
1503957362084,+0.800,+0.532,+0.213,+0.178,+1.078,-0.160,-0.261,-3.062,-12.312,-6.875,-3, 0, -2, -2, -1, 4, 0, -1,2.597874374194066,1.216213716480909
1503957362101,+0.803,+0.528,+0.212,+0.180,+1.021,-0.201,-0.303,+1.500,-31.062,-8.938,2, 9, 3, 1, -3, -6, -2, -3,2.597155363715795,1.2064071212799106
1503957362122,+0.805,+0.524,+0.210,+0.181,+0.962,-0.156,-0.251,-6.312,-36.625,-7.062,-15, -21, -6, -7, -3, -4, -5, -19,2.5973811263877384,1.1951888547395657
1503957362144,+0.808,+0.520,+0.208,+0.181,+0.898,-0.156,-0.261,-13.250,-29.625,+3.625,0, 6, 0, 0, -1, -1, 3, 4,2.600392474314717,1.1842548095295218
1503957362159,+0.811,+0.519,+0.206,+0.178,+0.896,-0.157,-0.257,-19.938,-16.812,+11.250,-2, -13, -6, -3, -3, -3, 1, 2,2.6097863198191895,1.1805837322056771
1503957362182,+0.812,+0.518,+0.205,+0.173,+1.003,-0.143,-0.295,-22.812,-6.688,+19.562,0, 6, 1, 1, 0, 1, -3, 3,2.6184293161955163,1.1767204908277757
1503957362205,+0.814,+0.517,+0.203,+0.169,+1.065,-0.146,-0.331,-24.000,-11.562,+20.312,5, 4, 1, 0, -2, -2, -2, 0,2.6279552926623335,1.17253145076752
1503957362219,+0.818,+0.513,+0.200,+0.166,+1.029,-0.150,-0.353,-26.312,-36.375,+15.000,-3, -2, -3, -2, -2, -3, -3, -1,2.6376368359514974,1.1607680697749183
1503957362242,+0.824,+0.505,+0.195,+0.165,+0.910,-0.156,-0.352,-25.812,-59.062,+6.312,0, 5, 0, -2, 0, -1, -2, -2,2.6463265671743033,1.1383065090534525
1503957362264,+0.830,+0.497,+0.190,+0.164,+0.819,-0.152,-0.353,-27.062,-58.375,+4.250,5, 4, 0, 1, -1, -1, 0, 2,2.655097305492447,1.1161031265369843
1503957362279,+0.835,+0.492,+0.187,+0.161,+0.749,-0.150,-0.372,-28.812,-32.312,+11.188,0, 2, 4, 2, 2, 0, 1, 1,2.6656481160873997,1.1026167929651278
1503957362302,+0.836,+0.492,+0.183,+0.156,+0.785,-0.121,-0.385,-31.312,-1.375,+17.562,-2, -4, -5, -3, -3, -4, -5, -3,2.6779958441375533,1.0989671669714787
1503957362324,+0.837,+0.494,+0.181,+0.151,+0.889,-0.104,-0.394,-28.938,+9.375,+19.625,0, 1, 4, 2, -4, -15, -5, -3,2.6897118051707074,1.102082782117632
1503957362339,+0.838,+0.493,+0.179,+0.148,+0.953,-0.143,-0.383,-23.062,-8.750,+11.062,0, 3, 1, 1, 7, 11, 0, -3,2.6967585006371038,1.0979166391838138
1503957362364,+0.841,+0.490,+0.175,+0.147,+0.958,-0.154,-0.401,-20.375,-27.500,-1.000,-2, -4, -3, -6, -5, -3, -7, -2,2.7038662267460243,1.088384601060249
1503957362384,+0.844,+0.487,+0.172,+0.147,+0.866,-0.123,-0.465,-16.500,-24.812,-3.875,-9, -8, -3, -7, -6, -1, 2, -12,2.70850989588835,1.079862977102175
1503957369607,+0.751,+0.596,+0.245,+0.141,+0.838,-0.124,-0.144,+8.812,+25.250,+4.812,-3, -3, 2, -1, -1, -2, 0, -1,2.6005055091297486,1.3967773300300426
1503957369629,+0.747,+0.600,+0.245,+0.144,+0.871,-0.120,-0.053,+13.188,+22.938,-15.750,-1, -4, -2, -1, -1, -1, -1, -2,2.5945808680577227,1.4068654201895212
1503957369645,+0.745,+0.602,+0.244,+0.150,+0.859,-0.183,-0.069,+16.062,+3.188,-34.875,-1, 1, -1, -1, 0, -1, -1, 0,2.5868876574456627,1.4112455297415536
1503957369667,+0.743,+0.604,+0.241,+0.157,+0.876,-0.163,-0.080,+10.438,+4.062,-50.500,-2, -1, -2, -1, 0, 0, -3, 0,2.5801102178629356,1.4136531324701558
1503957369689,+0.741,+0.607,+0.237,+0.164,+0.911,-0.067,-0.107,+6.188,+10.250,-48.812,0, -2, -2, 0, -2, -2, 0, 0,2.5754055636058584,1.4177385890645362
1503957369706,+0.737,+0.611,+0.231,+0.170,+0.970,-0.042,-0.072,-2.375,+16.125,-47.875,-5, -1, -1, 0, 0, 0, -1, -1,2.5724883190112697,1.4221432069711095
1503957369727,+0.735,+0.615,+0.227,+0.175,+1.051,-0.046,-0.071,-1.625,+7.812,-40.812,1, 8, 3, 1, 0, -1, 0, 1,2.5715643504265357,1.4289072437300594
1503957369749,+0.732,+0.618,+0.223,+0.179,+1.079,-0.123,-0.026,-1.812,+9.938,-36.688,-3, -4, -2, -1, -2, -1, -2, -2,2.569764610724419,1.432844166332449
1503957369766,+0.730,+0.621,+0.220,+0.182,+1.116,-0.117,-0.022,-5.188,+10.875,-34.188,-6, -2, 2, 2, -2, 0, -2, -2,2.5695489487848797,1.4378936479827265
1503957369787,+0.730,+0.622,+0.217,+0.183,+1.152,-0.024,-0.145,-12.750,+0.188,-11.312,0, 0, -3, -2, -4, -9, 0, -2,2.572444691133245,1.4378650167349007
1503957369810,+0.733,+0.619,+0.215,+0.180,+1.218,-0.016,-0.152,-21.500,-17.500,+19.938,3, 0, 0, 10, -3, -16, -4, 3,2.5791650240865724,1.4283673759467403
1503957369825,+0.738,+0.616,+0.213,+0.174,+1.157,-0.091,-0.074,-31.312,-31.500,+32.375,2, -6, -4, 0, 3, 9, -1, 2,2.59227487264569,1.4190740761492138
1503957369847,+0.745,+0.609,+0.211,+0.169,+1.094,-0.081,-0.086,-30.250,-53.688,+31.375,6, 2, -2, -3, -1, 2, 0, 5,2.603142908185253,1.3996148476376045
1503957369869,+0.753,+0.602,+0.209,+0.165,+0.984,-0.132,-0.101,-28.375,-57.812,+26.062,-5, -3, -1, -2, 3, -1, 3, 4,2.614262041719979,1.3805924846210909
1503957369885,+0.757,+0.598,+0.207,+0.161,+0.861,-0.101,-0.079,-26.812,-33.562,+15.750,7, 4, 0, -4, -3, 1, -3, -2,2.6231898052188285,1.368766887876465
1503957369907,+0.760,+0.597,+0.204,+0.159,+0.851,-0.094,-0.107,-19.500,-15.375,+6.000,-4, -2, 1, -2, -1, -1, -1, -7,2.6318361338558067,1.3640361396359377
1503957369929,+0.760,+0.597,+0.202,+0.158,+0.947,-0.169,-0.087,-16.312,-5.812,-8.188,-3, -2, -4, -2, 2, 4, -3, -7,2.6352729019823715,1.3622201309261703
1503957369945,+0.760,+0.598,+0.198,+0.159,+1.010,-0.138,-0.150,-18.312,-1.438,-22.062,-1, -5, -2, -1, -1, -2, -1, 3,2.638957986167754,1.3615584558544351
1503957369969,+0.761,+0.598,+0.193,+0.162,+1.033,-0.046,-0.222,-15.438,-8.188,-26.438,3, 11, 0, 1, 0, 0, 0, -3,2.641395086777851,1.3578745944163502
1503957369989,+0.763,+0.596,+0.188,+0.164,+1.031,-0.045,-0.215,-14.938,-20.188,-19.250,3, -3, -3, 0, 0, 1, 1, 2,2.6447048979872996,1.3491202644050089
1503957370005,+0.767,+0.593,+0.183,+0.164,+1.032,-0.071,-0.197,-21.188,-29.250,-10.188,0, 4, -1, -2, 0, 0, -1, 3,2.6522134809233853,1.3381793062308667
1503957370027,+0.770,+0.590,+0.179,+0.164,+1.030,-0.073,-0.186,-20.312,-31.750,-5.688,-4, -8, -1, -4, -3, 0, 1, -1,2.6574970425591755,1.3278717055195093
1503957370049,+0.773,+0.587,+0.176,+0.163,+1.000,-0.093,-0.180,-18.000,-27.875,-2.312,-17, -10, -1, 0, 5, 6, -1, -2,2.66310653237236,1.3183302572755664
1503957370066,+0.776,+0.584,+0.174,+0.162,+0.984,-0.070,-0.205,-19.438,-21.562,+3.875,9, 1, -1, 0, -1, 0, -2, 1,2.6676885519833737,1.309608045992947
1503957370087,+0.779,+0.582,+0.172,+0.158,+0.976,-0.063,-0.219,-20.750,-15.688,+14.812,-5, -3, -2, -4, -2, -3, -3, -2,2.677220833630054,1.3033209386956608
1503957370109,+0.782,+0.580,+0.171,+0.154,+1.029,-0.098,-0.262,-20.312,-16.438,+25.000,2, -1, -3, 0, -3, -3, -3, -4,2.685751558791201,1.2978094974905838
1503957370126,+0.786,+0.575,+0.172,+0.148,+1.064,-0.151,-0.291,-19.938,-30.375,+31.375,10, 6, 2, 0, -3, -3, -5, -4,2.694098198141119,1.2859454711920435
1503957370147,+0.792,+0.568,+0.172,+0.143,+1.029,-0.177,-0.249,-18.938,-49.562,+30.312,3, 6, -2, 0, -2, -3, 0, 5,2.703134002899596,1.268822361542122
1503957370172,+0.798,+0.561,+0.171,+0.140,+0.854,-0.159,-0.239,-15.562,-43.875,+23.250,-56, -28, -3, -4, 3, 5, 7, -9,2.710546227122501,1.251276348522297
1503957370185,+0.800,+0.558,+0.171,+0.137,+0.706,-0.128,-0.249,-11.938,-17.750,+13.812,16, 4, -2, 3, 1, 1, -10, -5,2.7152359408480593,1.243718441919672
1503957370209,+0.801,+0.558,+0.170,+0.135,+0.787,-0.111,-0.262,-11.938,+5.062,+3.438,8, 6, 5, 6, 0, -8, 4, 8,2.7202805787821225,1.2431202367664893
1503957370229,+0.800,+0.560,+0.168,+0.135,+0.927,-0.107,-0.281,-11.500,+12.312,-8.125,-7, -15, 2, 4, -2, -6, 10, 11,2.7224850187147243,1.2465951590451014
1503957370246,+0.799,+0.562,+0.165,+0.137,+0.984,-0.156,-0.241,-8.500,+2.562,-23.625,-8, -15, -8, -7, 0, 3, -3, -15,2.7228053236720484,1.2495865329730813
1503957370267,+0.800,+0.561,+0.161,+0.141,+0.990,-0.121,-0.242,-9.000,-15.562,-36.375,27, 11, -10, -2, -2, 1, -5, 2,2.7214916594104275,1.2448694431130554
1503957370289,+0.801,+0.559,+0.156,+0.146,+0.923,-0.054,-0.269,-8.875,-19.375,-34.125,1, -10, -4, -5, -5, -3, -2, 6,2.719081066799042,1.2369723529177448
1503957374909,+0.799,+0.574,+0.181,+0.006,+0.946,-0.082,-0.266,+41.438,+10.438,-17.188,-2, 0, 2, 1, -2, -1, -2, -3,2.913340572438122,1.2796401065724736
1503957374932,+0.799,+0.573,+0.185,+0.014,+0.853,-0.240,-0.218,+45.000,-11.375,-22.938,0, -4, -2, 0, -2, 0, 0, 1,2.895588846563482,1.280693262013392
1503957374947,+0.796,+0.575,+0.189,+0.019,+0.832,-0.295,-0.162,+34.750,+16.188,-16.562,-1, -1, -4, -2, 1, 1, -3, -5,2.88098744638031,1.2887796604153956
1503957374970,+0.791,+0.581,+0.192,+0.022,+0.885,-0.284,-0.190,+31.500,+40.938,-10.188,1, 0, -1, -2, 0, -1, 0, 1,2.8700934343437847,1.306380554687169
1503957374993,+0.786,+0.586,+0.196,+0.024,+1.003,-0.301,-0.177,+26.938,+36.375,-6.938,-7, -6, -4, -3, -1, -2, -4, -8,2.859386594607856,1.322052881425854
1503957375007,+0.783,+0.588,+0.198,+0.027,+0.964,-0.334,-0.139,+22.125,+12.312,-13.312,1, 0, 0, 0, -1, -3, -1, 0,2.8503056243084295,1.3286194027016387
1503957375035,+0.782,+0.590,+0.199,+0.031,+0.922,-0.291,-0.183,+15.438,+6.438,-21.250,-6, -6, 1, 1, -3, 0, 0, 1,2.842638184347788,1.335074925720109
1503957375052,+0.781,+0.591,+0.199,+0.034,+0.912,-0.234,-0.288,+11.562,+18.125,-9.438,-5, -3, -2, -2, -1, -2, -1, 1,2.837419100420879,1.3378429891856576
1503957375071,+0.779,+0.593,+0.201,+0.033,+0.990,-0.262,-0.219,+9.062,+14.812,+7.750,-1, -1, -2, -1, 1, -1, -2, -2,2.8354883291690998,1.3443700203775182
1503957375089,+0.778,+0.594,+0.203,+0.032,+0.967,-0.258,-0.150,+5.188,+14.062,+9.938,2, -1, -1, -3, -1, 0, -2, -2,2.8341097569756566,1.3484387710994916
1503957375111,+0.777,+0.594,+0.204,+0.032,+0.956,-0.265,-0.173,+6.125,+1.625,+8.438,-5, -1, 1, 0, -1, 0, 2, -3,2.8320105122769643,1.349007823439659
1503957375128,+0.778,+0.593,+0.205,+0.033,+0.870,-0.247,-0.182,+4.938,-4.688,+0.250,-2, 0, -2, -3, -2, -1, 0, 0,2.8298652280263457,1.347451116919894
1503957375149,+0.779,+0.592,+0.204,+0.034,+0.824,-0.214,-0.169,+2.000,-7.812,-8.938,0, 4, 0, 0, -1, 1, -1, 1,2.8300729936457905,1.3442084283983025
1503957375172,+0.778,+0.593,+0.202,+0.037,+0.860,-0.173,-0.129,+0.500,+1.250,-15.125,1, 1, -1, -2, -2, -3, -1, 3,2.8272246253947366,1.3453022109885169
1503957375187,+0.777,+0.596,+0.200,+0.041,+0.827,-0.158,-0.116,+6.062,+10.625,-24.625,1, 0, -1, 0, -1, 1, -4, -4,2.823621144121367,1.3520213420050697
1503957375209,+0.775,+0.599,+0.197,+0.047,+0.865,-0.202,-0.101,+3.562,+12.688,-41.500,-2, -3, 1, 0, 0, -1, 2, 1,2.8173249877235715,1.3578275486437998
1503957375232,+0.773,+0.602,+0.191,+0.055,+0.870,-0.217,-0.122,+4.188,+4.500,-64.000,-5, -2, -1, -2, 0, 0, -1, -4,2.8116733921410986,1.3614176445701596
1503957375247,+0.773,+0.603,+0.183,+0.066,+1.006,-0.139,-0.163,+0.750,-6.750,-76.812,2, 4, 4, 3, 1, -2, 1, 5,2.804978303687685,1.3588409917820727
1503957375271,+0.774,+0.604,+0.176,+0.076,+1.013,-0.068,-0.228,+3.125,-6.875,-62.438,1, 0, -3, -2, 0, 0, -3, -2,2.79961623545221,1.3573898126567767
1503957375292,+0.773,+0.606,+0.172,+0.081,+1.020,-0.128,-0.245,-1.562,+8.688,-34.312,1, 0, -2, 0, -2, -1, 0, 2,2.7969333643616046,1.3600697077961175
1503957375307,+0.769,+0.611,+0.170,+0.081,+1.138,-0.148,-0.130,-4.438,+34.188,-12.688,-1, -7, -4, -1, 0, 0, 2, 7,2.7981848707203794,1.3713077020074336
1503957375331,+0.767,+0.614,+0.170,+0.081,+1.211,-0.233,-0.099,-4.188,+14.000,-6.562,0, -5, -2, -1, -1, -1, 3, 1,2.797932630208811,1.3790361346969677
1503957375352,+0.768,+0.612,+0.169,+0.080,+1.237,-0.221,-0.108,-11.625,-16.438,+4.375,1, -1, -2, -2, -4, 2, 0, 0,2.800437254431532,1.373027344018138
1503957375368,+0.772,+0.607,+0.169,+0.077,+1.031,-0.222,-0.149,-15.250,-35.062,+16.750,0, 4, 0, -1, 0, -7, -8, -9,2.805924372478457,1.3601271521216085
1503957375390,+0.776,+0.604,+0.167,+0.073,+0.957,-0.178,-0.066,-25.375,-29.562,+13.688,1, 1, 0, -1, -2, 2, 1, 0,2.816277129682305,1.3512765552307742
1503957375412,+0.778,+0.602,+0.165,+0.069,+0.960,-0.146,-0.135,-28.125,-20.750,+17.938,-1, 2, 1, 0, -1, 1, 0, -2,2.825402181632794,1.3446674192870869
1503957375429,+0.781,+0.600,+0.163,+0.064,+0.924,-0.135,-0.143,-29.688,-12.688,+16.000,-4, 1, -1, 0, -1, -1, -1, 2,2.8369230363573728,1.3382867214185332
1503957375450,+0.783,+0.598,+0.159,+0.060,+0.932,-0.141,-0.162,-30.812,-15.188,+9.938,-8, -1, -2, 1, -1, -13, -6, -2,2.8484719590329295,1.3304098557663835
1503957375473,+0.785,+0.597,+0.156,+0.057,+0.957,-0.169,-0.180,-29.688,-9.500,+5.625,-4, 1, 3, 1, 0, 1, 1, -1,2.857748984549993,1.3260724183859547
1503957375487,+0.786,+0.596,+0.153,+0.055,+1.020,-0.159,-0.209,-24.750,-11.812,-1.875,8, 4, -4, -2, 9, 19, -4, -2,2.864717047790864,1.3215645598445267
1503957375510,+0.790,+0.592,+0.149,+0.055,+1.033,-0.170,-0.212,-20.188,-31.500,-11.000,-6, -2, -1, -4, -2, 1, -4, -8,2.870969265960687,1.3093407113431488
1503957375532,+0.795,+0.586,+0.144,+0.057,+0.968,-0.161,-0.181,-21.438,-52.250,-15.688,0, -2, 1, -2, -2, -4, 5, 3,2.875264786567068,1.2916833613820513
1503957375547,+0.801,+0.579,+0.138,+0.058,+0.869,-0.146,-0.194,-24.812,-54.938,-18.250,2, -2, -1, 0, -2, 2, 2, 8,2.882553056418206,1.2712308443319347
1503957375571,+0.805,+0.576,+0.132,+0.059,+0.824,-0.114,-0.239,-26.188,-32.125,-22.000,1, 3, 1, 1, 3, 7, 0, -10,2.8896102459326114,1.2612276073403352
1503957375592,+0.806,+0.575,+0.128,+0.060,+0.884,-0.110,-0.274,-22.000,-3.562,-14.938,0, -7, -2, -1, -6, -3, 5, 2,2.8929042741664452,1.2568068189836035
1503957375608,+0.806,+0.576,+0.125,+0.058,+1.059,-0.143,-0.283,-21.688,+2.000,-3.750,3, 2, -1, 0, -3, -6, -6, -1,2.8997542719429648,1.2577934602339356
1503957375632,+0.806,+0.576,+0.122,+0.055,+1.105,-0.163,-0.271,-24.688,-0.438,+8.062,6, 3, 3, 0, 0, 1, 7, 16,2.907888601544755,1.2560343793636395
1503957375652,+0.808,+0.574,+0.121,+0.051,+1.027,-0.150,-0.283,-23.250,-11.312,+12.750,-6, -6, -4, -2, -3, -1, 3, 1,2.9160681887600037,1.2505236365543027
1503957375670,+0.811,+0.571,+0.119,+0.049,+0.991,-0.163,-0.301,-18.250,-25.125,+6.500,-3, 15, 1, 1, -1, -2, -9, -16,2.922558657485133,1.2423546673408126
1503957375690,+0.815,+0.566,+0.118,+0.047,+0.996,-0.174,-0.351,-11.562,-31.375,+7.375,-2, -7, -2, -4, -8, -23, 5, -4,2.9280260223357875,1.2296870252552792
1503957375713,+0.818,+0.560,+0.119,+0.044,+0.942,-0.207,-0.360,-8.688,-31.500,+16.500,-20, -8, -1, 6, 3, 6, 6, 3,2.9321019157565775,1.214875590026651
1503957375728,+0.821,+0.557,+0.119,+0.041,+0.894,-0.177,-0.294,-12.500,-21.312,+16.625,2, -2, -1, -2, -1, 2, 1, 25,2.938077539482579,1.2077190464497685
1503957375750,+0.822,+0.556,+0.119,+0.038,+0.880,-0.155,-0.258,-12.688,-8.562,+16.062,14, -3, 0, -2, -3, 0, 1, -2,2.9433325292121166,1.2051668608738613
1503957375772,+0.822,+0.556,+0.120,+0.035,+0.908,-0.153,-0.254,-7.875,-2.250,+16.438,1, 1, 2, -3, -3, -4, 4, -1,2.9471221644778707,1.205385708299633
1503957375787,+0.823,+0.554,+0.120,+0.033,+0.978,-0.135,-0.341,-4.438,-11.625,+8.875,-2, 1, 2, 2, -1, 0, 13, 13,2.9505790619483268,1.2002200754824743
1503957375810,+0.827,+0.549,+0.119,+0.034,+0.958,-0.085,-0.411,-1.438,-29.438,+2.000,-7, -8, -3, -5, -3, -7, 3, 4,2.951373275927315,1.1880140991416301
1503957375833,+0.831,+0.542,+0.119,+0.035,+0.886,-0.112,-0.366,-0.562,-46.062,+1.562,5, 4, 0, -1, -6, 12, 5, 7,2.950721312479053,1.171006947034557
1503957381052,+0.823,+0.531,+0.201,-0.020,+0.805,-0.304,-0.270,+14.625,+21.625,-3.562,1, 1, 2, 2, -1, 1, 1, 0,2.9475217264742413,1.181479909083595
1503957381079,+0.821,+0.534,+0.201,-0.017,+0.863,-0.282,-0.231,+13.500,+11.688,-15.188,0, -2, -2, -2, 1, -2, -1, -2,2.940979509519069,1.1894099524771717
1503957381097,+0.821,+0.535,+0.200,-0.011,+0.847,-0.264,-0.263,+10.938,-3.375,-26.938,0, 0, -1, -2, -2, 0, -2, -1,2.931869534055263,1.192341097246724
1503957381112,+0.821,+0.535,+0.199,-0.006,+0.706,-0.308,-0.309,+10.750,-2.438,-32.062,-2, 1, 0, 1, -1, 0, 0, -2,2.9244611689481053,1.192343084943645
1503957381135,+0.820,+0.538,+0.196,-0.001,+0.772,-0.305,-0.235,-1.125,+15.250,-40.562,0, -2, -2, -2, -1, -2, -3, 0,2.9188090701556235,1.1986174022352516
1503957381158,+0.818,+0.543,+0.191,+0.004,+0.861,-0.295,-0.215,-5.562,+21.375,-47.188,0, 3, 1, -1, 1, 1, 0, 0,2.914969166693093,1.2084477724164526
1503957381172,+0.817,+0.547,+0.183,+0.013,+0.887,-0.183,-0.216,-12.062,+6.750,-63.438,0, 0, -2, 0, -1, -3, -2, -1,2.9086537785592363,1.214324895904887
1503957381197,+0.818,+0.549,+0.173,+0.021,+0.895,-0.141,-0.290,-16.250,-4.562,-68.250,-1, -3, -2, 1, -1, 0, -1, -4,2.9075976004436614,1.214153941740611
1503957381217,+0.817,+0.552,+0.165,+0.026,+1.010,-0.153,-0.397,-20.875,+16.312,-46.312,0, -2, 0, -2, -3, 0, -1, 1,2.9080597295279236,1.217151497790525
1503957381233,+0.814,+0.557,+0.160,+0.026,+1.413,-0.082,-0.436,-19.688,+35.250,-3.000,0, 1, 1, 0, 1, 0, -2, -1,2.912453985571359,1.226343769857329
1503957381255,+0.817,+0.554,+0.162,+0.021,+1.263,-0.354,-0.507,-8.500,-14.250,+34.062,-4, -8, -5, -2, -1, 0, -1, -2,2.9199494477581807,1.2200617745924343
1503957381277,+0.818,+0.552,+0.163,+0.017,+0.896,-0.287,-0.128,-12.625,-18.938,+18.125,-1, -2, -2, -1, -1, 1, 0, 2,2.925767480404002,1.215190617916125
1503957381294,+0.822,+0.546,+0.162,+0.017,+0.848,-0.194,-0.255,-10.750,-41.938,+4.812,-4, -1, 2, -2, 0, -1, -1, -2,2.928689072387595,1.1998454077410954
1503957381315,+0.824,+0.544,+0.160,+0.014,+0.827,-0.243,-0.280,-19.938,-15.375,+9.250,1, -2, -2, -1, -1, -2, -1, 1,2.936931951884316,1.193613296615483
1503957381337,+0.824,+0.544,+0.157,+0.012,+0.900,-0.148,-0.276,-23.062,-0.312,+4.688,1, 0, 0, -1, -2, -2, -1, 0,2.9435622389996587,1.1915181395820431
1503957381352,+0.825,+0.544,+0.155,+0.009,+0.983,-0.220,-0.286,-20.812,-1.562,+10.250,3, 2, 0, 0, 0, -1, -2, 0,2.9514047440753415,1.19036463219554
1503957381375,+0.825,+0.544,+0.153,+0.007,+1.021,-0.244,-0.303,-19.000,-2.125,+7.250,2, -1, -1, -1, 0, -1, -1, -1,2.9569506084588184,1.1889366554669911
1503957381399,+0.826,+0.542,+0.151,+0.005,+1.022,-0.217,-0.343,-12.625,-13.312,+5.625,-5, 0, -2, -1, -3, 0, -1, -3,2.9629202823986573,1.1825169426393278
1503957381412,+0.829,+0.539,+0.150,+0.004,+0.937,-0.205,-0.341,-11.438,-23.688,+6.000,0, -1, 0, -1, 1, 2, -1, -1,2.967214682780473,1.1749593746830957
1503957381436,+0.831,+0.536,+0.149,+0.002,+0.882,-0.235,-0.356,-15.188,-17.938,+9.750,-3, -5, 0, -1, -1, 0, 3, -1,2.9726120952385195,1.1668854404075155
1503957381457,+0.832,+0.534,+0.148,-0.002,+0.911,-0.233,-0.376,-15.375,-4.125,+21.688,-8, -8, -1, 1, 3, 3, -2, -12,2.9809217083737978,1.1608584236188628
1503957381472,+0.832,+0.534,+0.149,-0.007,+0.906,-0.268,-0.344,-14.312,+4.250,+25.312,14, 1, -3, -1, -2, -1, -2, 0,2.988331686570156,1.1608060204158
1503957381495,+0.833,+0.533,+0.150,-0.011,+0.900,-0.314,-0.330,-11.312,-4.625,+21.312,7, 6, 1, 0, 2, -1, -3, -5,2.994564569065008,1.1585990195610898
1503957381517,+0.834,+0.531,+0.150,-0.014,+0.915,-0.305,-0.333,-11.188,-13.438,+14.250,-10, -18, -11, -7, -5, -6, -3, -5,3.000193752784532,1.153238461352605
1503957381533,+0.836,+0.527,+0.151,-0.016,+0.887,-0.299,-0.345,-10.438,-24.812,+10.312,-4, -1, -1, 2, 9, 10, 3, 4,3.0035802832689464,1.1435860657200154
1503957381555,+0.840,+0.521,+0.150,-0.018,+0.845,-0.332,-0.345,-15.562,-37.062,+6.750,-1, -1, 1, -1, -4, 1, -1, 8,3.01022656227429,1.1283567772262995
1503957381579,+0.844,+0.515,+0.148,-0.019,+0.789,-0.329,-0.307,-23.812,-41.938,-1.125,19, 3, 2, -3, -3, -1, 2, 8,3.0162298442429463,1.1128203894388125
1503957381594,+0.848,+0.509,+0.144,-0.020,+0.731,-0.300,-0.294,-28.750,-42.375,-8.062,-10, -2, -1, -3, -3, -2, 2, 1,3.024321080851891,1.096372350984188
1503957387562,+0.813,+0.506,+0.273,+0.097,+0.822,-0.299,-0.258,+14.062,+11.375,-2.000,-2, 3, -1, -2, -1, -2, -3, -3,2.66177818065003,1.2015794768120296
1503957387577,+0.812,+0.506,+0.273,+0.100,+0.835,-0.296,-0.247,+10.938,-0.938,-13.938,-3, -3, 0, 0, -2, 0, -1, 1,2.655764086839911,1.2018199182606877
1503957387598,+0.812,+0.506,+0.272,+0.106,+0.817,-0.242,-0.233,+8.938,-12.750,-26.625,-2, -4, -3, 2, 0, 1, -1, 0,2.6475806545636438,1.2019137052486235
1503957387621,+0.812,+0.505,+0.271,+0.110,+0.778,-0.275,-0.297,+8.375,-10.125,-21.812,2, 0, 2, 1, 0, -1, 0, 1,2.6419566726665487,1.1989704442609714
1503957387636,+0.811,+0.508,+0.269,+0.112,+0.754,-0.324,-0.279,-0.375,+16.062,-22.875,2, 1, 0, -1, -2, -1, -3, -2,2.6409637990773502,1.2045481402448293
1503957387663,+0.808,+0.513,+0.265,+0.117,+0.850,-0.243,-0.154,-6.250,+17.688,-43.562,-1, -1, 2, -1, 0, -2, -1, -3,2.635685971210879,1.2129309465284728
1503957387681,+0.806,+0.517,+0.260,+0.124,+0.952,-0.216,-0.219,-5.250,+2.625,-54.250,-3, 2, 1, 1, -1, -1, -1, -3,2.6294880427419027,1.218372239139493
1503957387696,+0.806,+0.519,+0.252,+0.134,+0.851,-0.184,-0.272,-6.000,-10.688,-68.500,3, 1, 1, -1, -1, 0, 0, 3,2.6235894997469917,1.216679755047206
1503957387718,+0.805,+0.521,+0.244,+0.144,+0.848,-0.242,-0.287,-11.688,-9.875,-75.125,-4, -3, -1, -2, -1, -1, -2, -4,2.61644830709881,1.2147864276833138
1503957387741,+0.804,+0.525,+0.237,+0.149,+1.020,-0.238,-0.328,-20.312,+12.375,-54.375,-1, 2, -2, -2, -2, -2, 1, 1,2.61700724679631,1.218411616332028
1503957387758,+0.802,+0.529,+0.233,+0.148,+1.388,-0.138,-0.455,-20.438,+25.188,-3.000,-5, -4, 2, 2, 3, 0, -3, -7,2.6220670657532255,1.2238464511389726
1503957387778,+0.803,+0.529,+0.234,+0.143,+1.277,-0.285,-0.375,-14.438,+1.125,+31.625,-3, 1, 0, -1, -3, -1, -2, 1,2.629651642046709,1.2244038113860884
1503957387801,+0.805,+0.526,+0.234,+0.139,+0.950,-0.222,-0.179,-13.312,-19.625,+25.938,-5, -1, -1, -1, -2, -2, -2, -4,2.636233920323134,1.2166782505174736
1503957387816,+0.809,+0.522,+0.234,+0.136,+0.840,-0.199,-0.275,-10.500,-26.562,+18.500,1, 0, 1, -2, -1, 2, 1, 1,2.6435428864903825,1.2072767680425132
1503957387838,+0.810,+0.522,+0.232,+0.134,+0.901,-0.190,-0.267,-15.312,-7.062,+10.312,-9, -1, -2, -3, -5, -3, -1, -3,2.649701120915511,1.2053278465881077
1503957387861,+0.811,+0.520,+0.230,+0.134,+0.983,-0.165,-0.284,-12.875,-13.750,+1.688,-1, 0, -1, 1, -1, -1, -1, -3,2.6517393524656394,1.1985386827400952
1503957387876,+0.814,+0.518,+0.228,+0.134,+0.938,-0.202,-0.287,-12.500,-24.688,-2.312,-2, 0, -2, 2, 1, -1, 1, 3,2.656424428580848,1.1925598247798976
1503957387899,+0.816,+0.516,+0.225,+0.135,+0.868,-0.195,-0.288,-12.188,-19.000,-6.125,-9, -6, -3, 0, -3, -2, -2, -9,2.6592326031836158,1.1854363497780382
1503957387921,+0.817,+0.515,+0.223,+0.135,+0.859,-0.196,-0.318,-14.250,-6.125,-3.125,-4, 5, -3, -1, 0, -4, -3, 2,2.6618392344816533,1.1813319239250553
1503957387943,+0.817,+0.516,+0.221,+0.133,+0.938,-0.208,-0.343,-15.875,+4.938,+5.312,1, -1, 2, -2, -2, -1, 0, 1,2.6672601284374617,1.181685142919552
1503957387960,+0.818,+0.516,+0.220,+0.129,+1.008,-0.255,-0.384,-17.250,+3.312,+14.062,7, 4, -1, -3, -3, -1, 0, 0,2.6754638650250273,1.1804604055150711
1503957387981,+0.820,+0.514,+0.219,+0.125,+1.018,-0.262,-0.334,-19.000,-10.250,+17.688,8, 3, -2, -2, 0, -2, 0, 2,2.6838847426965606,1.174449435858951
1503957387996,+0.822,+0.511,+0.218,+0.122,+0.944,-0.239,-0.329,-18.312,-21.062,+18.938,-7, -1, -3, -2, -1, 3, -1, -2,2.690329096869635,1.1660204698178174
1503957388018,+0.826,+0.507,+0.217,+0.119,+0.871,-0.250,-0.351,-17.500,-29.000,+15.875,-1, -1, 0, 0, -1, -4, -3, -4,2.6988249652500893,1.1558452039658187
1503957388041,+0.829,+0.503,+0.215,+0.117,+0.852,-0.273,-0.359,-15.562,-25.000,+10.625,-8, -5, -2, -2, -3, 0, -1, -6,2.7055476038248396,1.1445581037022425
1503957388065,+0.831,+0.500,+0.214,+0.115,+0.838,-0.279,-0.333,-16.188,-15.938,+6.750,5, -4, -3, 1, 2, -3, -1, -7,2.7106282671298976,1.136374346820619
1503957388078,+0.833,+0.498,+0.212,+0.113,+0.865,-0.280,-0.328,-19.312,-13.812,+5.312,3, 3, 3, 1, 1, 0, 1, 12,2.7171343403895967,1.1299045822786622
1503957388103,+0.834,+0.497,+0.210,+0.110,+0.851,-0.262,-0.331,-23.500,-9.438,+5.688,6, 7, 0, 1, 2, 0, 1, 5,2.724473718917467,1.125425658170695
1503957388116,+0.836,+0.497,+0.207,+0.107,+0.844,-0.265,-0.349,-26.188,-3.188,+3.000,-6, 0, -2, -3, -2, -2, -2, -5,2.734374955571595,1.123138340987122
1503957388138,+0.837,+0.497,+0.204,+0.105,+0.879,-0.287,-0.360,-25.625,-6.000,-1.438,-12, -6, -2, -2, -3, -4, 0, -3,2.741516731221085,1.1206436584927506
1503957388162,+0.839,+0.496,+0.200,+0.104,+0.908,-0.252,-0.382,-23.562,-10.250,-5.438,-5, -5, -4, -2, 0, 0, 0, 0,2.7487304509805996,1.1153995012662226
1503957388176,+0.841,+0.493,+0.196,+0.105,+0.928,-0.207,-0.408,-22.688,-22.500,-7.438,2, 3, 7, 5, 2, 2, 3, 1,2.7519296170859846,1.1054249948233645
1503957388199,+0.844,+0.490,+0.192,+0.105,+0.957,-0.196,-0.408,-21.812,-32.500,-6.562,0, 0, 0, -1, -1, 2, 2, 2,2.7578026584751134,1.0958220386487287
1503957393081,+0.752,+0.606,+0.231,+0.122,+0.834,-0.191,-0.078,-3.500,+3.188,-48.250,-2, -15, -6, -2, -2, -1, -2, -1,2.649954070576781,1.4081540417150527
1503957393103,+0.750,+0.610,+0.225,+0.127,+0.901,-0.184,-0.066,-9.438,+11.438,-55.125,0, 3, 2, -1, -1, -2, 0, -1,2.650358326001333,1.4131381772647855
1503957393127,+0.748,+0.613,+0.217,+0.133,+0.998,-0.118,-0.097,-12.750,+7.000,-58.812,-1, 0, 1, 2, 1, -1, 0, -1,2.650992710515866,1.4138211779510121
1503957393141,+0.747,+0.616,+0.208,+0.140,+0.938,-0.069,-0.092,-14.750,+1.250,-59.688,-1, 7, -2, 0, 0, -2, -1, 0,2.652715620124016,1.4141415531319035
1503957393163,+0.746,+0.619,+0.200,+0.145,+0.998,-0.088,-0.083,-18.625,+2.188,-56.250,0, -1, 0, 0, -1, -2, 0, 0,2.6561159955945306,1.415490180228708
1503957393186,+0.744,+0.622,+0.194,+0.149,+1.123,-0.127,-0.115,-18.562,+13.000,-45.625,-2, 0, 2, 1, 0, 1, 0, 0,2.657605587754953,1.4184691884494394
1503957393200,+0.742,+0.626,+0.189,+0.150,+1.301,-0.119,-0.138,-19.062,+15.438,-27.875,-1, -7, -5, -2, -2, 0, -1, 0,2.662882845584614,1.4249305760224047
1503957393224,+0.743,+0.625,+0.186,+0.150,+1.292,-0.056,-0.178,-13.938,-6.125,-4.750,-2, -2, 0, 1, 0, -1, -2, -2,2.666512073583819,1.4200438884307065
1503957393246,+0.746,+0.623,+0.186,+0.146,+1.330,-0.046,-0.153,-12.500,-18.812,+23.938,7, 1, -1, -1, -1, -1, 0, 1,2.6735082448814933,1.4149792533793082
1503957393261,+0.749,+0.619,+0.188,+0.143,+0.965,-0.167,-0.066,-5.125,-25.312,+23.438,-4, -4, 0, 0, -1, -2, -2, -1,2.675430215877704,1.406158463216092
1503957393286,+0.750,+0.618,+0.187,+0.143,+0.820,-0.116,+0.012,-5.125,-15.250,-1.875,-2, 1, -1, -2, -2, 0, 0, 0,2.676858385738363,1.4028700559985874
1503957393306,+0.751,+0.618,+0.187,+0.142,+0.958,-0.128,-0.062,-7.875,-6.375,+4.062,1, 4, 0, -1, -1, 0, -2, -1,2.67929955133563,1.4030148064271233
1503957393321,+0.749,+0.620,+0.185,+0.139,+0.973,-0.100,-0.024,-20.000,+12.375,+1.062,2, -4, 2, 0, -1, -1, -3, -1,2.6849554820689,1.4062581832486087
1503957393343,+0.750,+0.621,+0.183,+0.137,+1.117,-0.030,-0.153,-19.250,+1.250,+3.875,-1, 0, -1, -2, 0, -1, -1, -1,2.6917442450430036,1.4074987304190183
1503957393366,+0.754,+0.617,+0.181,+0.135,+1.151,-0.100,-0.190,-18.750,-29.375,+8.812,-4, -3, -4, -1, 1, 0, -1, -1,2.6979724597682595,1.3958455782413404
1503957393380,+0.760,+0.611,+0.177,+0.134,+1.059,-0.117,-0.097,-24.062,-51.750,+7.000,1, 12, 3, 1, 0, 0, 1, -1,2.705772175972457,1.3778680722061867
1503957393403,+0.766,+0.605,+0.174,+0.132,+0.931,-0.065,-0.139,-22.250,-50.938,+10.812,1, -1, 2, 0, -1, -1, 0, 0,2.7139178429327147,1.3607433448828716
1503957393426,+0.770,+0.601,+0.173,+0.128,+0.869,-0.087,-0.133,-21.188,-30.562,+16.875,-2, 6, 0, -1, -1, -1, 0, -1,2.7220628425232385,1.3499444786224049
1503957393440,+0.772,+0.599,+0.172,+0.124,+0.921,-0.114,-0.156,-22.500,-12.812,+21.188,-2, -3, -2, -1, 0, 0, -2, -2,2.729574350647493,1.3440386945437603
1503957393463,+0.774,+0.598,+0.171,+0.119,+0.974,-0.116,-0.161,-21.938,-8.125,+17.875,-2, -5, -4, -5, -1, -2, -1, 0,2.7392120714596198,1.3407635755372138
1503957393488,+0.776,+0.596,+0.169,+0.116,+0.977,-0.123,-0.173,-19.312,-12.750,+10.438,-2, -2, -1, 0, -2, 0, -2, 1,2.746503508503366,1.3342336864362485
1503957393501,+0.778,+0.594,+0.168,+0.115,+0.962,-0.129,-0.183,-16.000,-15.438,+5.062,-4, -2, -2, -2, -2, -1, -1, -2,2.7498208845595276,1.3286013735909563
1503957393531,+0.780,+0.593,+0.166,+0.113,+0.965,-0.128,-0.178,-16.438,-14.750,+2.875,-1, -2, 1, -2, -1, 0, -1, 1,2.75630139670247,1.324897814485609
1503957393546,+0.782,+0.591,+0.164,+0.112,+0.963,-0.117,-0.171,-17.375,-14.875,+1.250,-3, -2, 3, -1, 0, -1, 1, 0,2.7607383581467797,1.3186025340976684
1503957393561,+0.783,+0.590,+0.161,+0.110,+0.978,-0.138,-0.176,-16.625,-13.312,-0.438,-4, 5, 4, 0, -2, 0, 0, 0,2.7673743632724515,1.3139651293451242
1503957393583,+0.785,+0.588,+0.159,+0.110,+0.982,-0.126,-0.260,-12.688,-12.438,-2.375,-2, 1, -3, -1, 1, -1, -1, 2,2.770349068820476,1.3078120752188076
1503957393606,+0.788,+0.585,+0.157,+0.111,+0.958,-0.109,-0.290,-9.062,-21.312,-7.688,-1, -3, -4, -2, -2, -1, -1, -2,2.772218111591271,1.299393184575149
1503957393623,+0.792,+0.580,+0.155,+0.111,+0.989,-0.115,-0.261,-11.625,-34.750,-0.938,2, 2, -1, -1, -1, -1, -2, -3,2.775396743588882,1.2858869975240173
1503957393643,+0.795,+0.576,+0.154,+0.109,+0.952,-0.129,-0.214,-12.500,-31.688,+6.625,-9, 5, 1, 1, -2, -1, -1, -3,2.7801147928106564,1.2752932924330986
1503957393666,+0.797,+0.574,+0.153,+0.107,+0.947,-0.145,-0.173,-11.625,-17.562,+7.500,2, -5, -5, -3, -1, 0, 0, -1,2.7850045320400882,1.2697636512641128
1503957393680,+0.798,+0.573,+0.153,+0.105,+1.019,-0.170,-0.227,-10.688,-11.500,+10.750,-1, 0, 3, 0, 0, 0, 1, 0,2.788423938770848,1.2672382902141366
1503957393703,+0.801,+0.570,+0.153,+0.103,+1.040,-0.168,-0.291,-11.062,-21.250,+12.625,0, -3, -3, -1, 0, 0, -2, -2,2.792677252832393,1.2600456742358574
1503957393727,+0.805,+0.564,+0.152,+0.101,+0.965,-0.160,-0.282,-9.750,-36.875,+8.875,2, -1, -4, -1, -1, -3, -5, -4,2.797501310979203,1.2445605588499964
1503957393740,+0.809,+0.559,+0.151,+0.101,+0.886,-0.136,-0.239,-9.000,-40.562,+5.250,-1, -3, -2, -1, -2, 0, -2, 0,2.7998116451986688,1.2320281372215602
1503957393763,+0.812,+0.555,+0.150,+0.100,+0.896,-0.141,-0.243,-11.125,-25.875,+1.750,21, 10, -1, 0, -2, 1, -3, -1,2.803258841561114,1.2217520548941596
1503957393789,+0.811,+0.556,+0.148,+0.100,+0.917,-0.139,-0.215,-10.938,+0.750,-7.188,-4, -11, -4, -2, -3, -4, -3, -1,2.804940637683999,1.2227675563552975
1503957399487,+0.834,+0.522,+0.158,-0.089,+0.857,-0.286,-0.388,+6.500,+33.938,-18.250,0, 3, 1, -2, -1, 0, 1, 0,3.123967780218148,1.1226308108886849
1503957399508,+0.831,+0.526,+0.157,-0.089,+1.022,-0.270,-0.450,+5.312,+31.562,-2.438,-4, -11, -8, -4, 0, -1, -1, -1,3.1231394463152733,1.1318178326774748
1503957399531,+0.831,+0.527,+0.156,-0.089,+1.105,-0.276,-0.491,+2.812,+6.375,+9.875,0, -4, 1, -3, -1, -1, 0, -1,3.1239707831389847,1.1340847400134653
1503957399546,+0.832,+0.523,+0.159,-0.089,+0.924,-0.315,-0.399,+11.875,-22.625,+18.125,0, -4, -2, -2, -2, 0, 0, -2,3.122037569945467,1.1249820584650236
1503957399568,+0.832,+0.522,+0.164,-0.092,+0.791,-0.361,-0.337,+10.188,-3.688,+27.312,0, 1, 0, 0, 1, -1, -1, 0,3.122090405201742,1.124447377434248
1503957399586,+0.831,+0.523,+0.167,-0.094,+0.785,-0.332,-0.329,+10.938,+10.125,+17.312,-1, -1, 0, 0, -2, 0, -3, -1,3.121713353226122,1.1281324650457216
1503957399606,+0.830,+0.524,+0.169,-0.093,+0.860,-0.344,-0.285,+10.562,+0.188,+6.125,-1, 5, 2, 0, -1, 1, -1, 0,3.117074183741455,1.1317528147583824
1503957399628,+0.830,+0.523,+0.170,-0.090,+0.783,-0.334,-0.274,+10.812,-8.812,-11.312,-3, -6, -2, -1, 0, 0, 0, -1,3.110873278677778,1.1299897210676753
1503957399644,+0.831,+0.523,+0.169,-0.085,+0.727,-0.319,-0.290,+8.688,-9.750,-29.812,-2, -8, -2, -1, 1, -1, -1, -1,3.103360091757954,1.1306688971075305
1503957399666,+0.831,+0.525,+0.167,-0.079,+0.734,-0.323,-0.259,+6.875,+5.125,-37.312,0, 1, 0, -3, -2, -1, -1, 0,3.0943805271839313,1.1360190328784474
1503957399692,+0.829,+0.530,+0.163,-0.074,+0.766,-0.324,-0.263,+1.062,+22.938,-44.312,0, -1, -3, 0, 0, 0, -2, -3,3.088146897241468,1.1474707566877556
1503957399710,+0.828,+0.535,+0.156,-0.065,+0.934,-0.218,-0.256,-4.000,+21.875,-61.250,0, 2, -1, -1, -1, -1, 0, -1,3.0788530712811424,1.1582472439576943
1503957399727,+0.829,+0.536,+0.149,-0.055,+0.975,-0.190,-0.398,-2.062,-3.562,-61.125,-2, -11, -5, -2, -2, -1, -1, -1,3.0695021451208295,1.1589868303958375
1503957399755,+0.831,+0.535,+0.143,-0.049,+0.953,-0.275,-0.401,-8.125,-11.750,-47.750,0, 6, 0, 1, 0, 0, 1, -1,3.0666763894133617,1.1547746863804196
1503957399770,+0.830,+0.538,+0.139,-0.046,+1.027,-0.279,-0.380,-12.812,+11.500,-25.625,-3, -1, 2, -1, -2, 0, 0, 4,3.065223315489488,1.1609228142736925
1503957399786,+0.830,+0.540,+0.135,-0.047,+1.073,-0.231,-0.398,-16.500,+13.062,-2.812,0, 1, 1, -1, -1, 0, 0, -3,3.07117856207239,1.1643595752997602
1503957399807,+0.830,+0.539,+0.133,-0.050,+1.066,-0.258,-0.365,-20.062,-7.125,+12.562,-1, -4, -1, 0, 0, -1, 0, -3,3.078710132978362,1.1603396475807097
1503957399831,+0.832,+0.536,+0.132,-0.054,+1.016,-0.314,-0.333,-22.625,-19.625,+16.562,-1, 0, 1, -1, -1, 0, -2, 0,3.0877907723163402,1.1521018602510311
1503957399846,+0.834,+0.532,+0.131,-0.058,+0.953,-0.336,-0.301,-21.875,-26.562,+15.500,-1, -6, -2, -4, -2, 0, -1, 2,3.0970736324676573,1.1411469650923372
1503957399868,+0.836,+0.529,+0.131,-0.061,+0.857,-0.322,-0.304,-19.062,-25.062,+13.875,-2, -6, 0, -2, 0, -3, -1, 0,3.103379417222871,1.133513950503924
1503957399891,+0.838,+0.526,+0.130,-0.064,+0.818,-0.298,-0.313,-19.062,-15.000,+10.812,3, 11, 3, 2, 0, 1, -3, 0,3.1108080948613384,1.1254598430055947
1503957399906,+0.838,+0.526,+0.129,-0.067,+0.843,-0.302,-0.334,-20.000,-1.312,+10.188,-1, -1, -2, -1, -1, 0, 1, -2,3.1171508502672234,1.1246814434194263
1503957399928,+0.838,+0.526,+0.127,-0.070,+0.883,-0.298,-0.335,-21.500,+0.625,+8.188,0, -2, -2, 1, -1, -2, 0, -2,3.124593539498427,1.1234947381037792
1503957399953,+0.839,+0.525,+0.124,-0.072,+0.997,-0.265,-0.361,-20.625,-9.000,+2.938,0, -1, -2, -1, -1, 0, -5, -6,3.1318087115189024,1.1197859411847195
1503957399966,+0.841,+0.522,+0.121,-0.073,+0.919,-0.264,-0.346,-19.938,-16.188,+1.062,0, -2, -1, -1, 0, 0, 1, 2,3.137905448430621,1.1112662368949433
1503957399989,+0.844,+0.517,+0.119,-0.074,+0.807,-0.291,-0.374,-22.062,-34.438,-2.375,1, 6, 3, 0, 1, 0, 1, 0,-3.1396473863014833,1.0982464778235237
1503957406611,+0.835,+0.529,+0.149,-0.029,+0.825,-0.349,-0.294,+3.375,+7.688,-12.812,-1, 3, 3, 3, -2, -1, 0, 3,3.027626489062775,1.1457947240452602
1503957406633,+0.832,+0.534,+0.148,-0.029,+0.916,-0.260,-0.289,+1.375,+30.750,-6.625,-5, -1, -2, 0, 0, -1, -2, -7,3.0270846694806393,1.157543505738585
1503957406655,+0.831,+0.536,+0.148,-0.027,+1.052,-0.210,-0.401,+6.312,+11.250,-5.812,1, 7, -2, -1, 0, 1, 0, 2,3.0230959637164196,1.1628081694030417
1503957406671,+0.831,+0.535,+0.148,-0.025,+1.014,-0.192,-0.433,+10.062,-7.438,-1.875,2, -4, -3, -1, -1, -1, -3, -1,3.01970260544242,1.1603221102864687
1503957406693,+0.833,+0.532,+0.150,-0.024,+0.908,-0.258,-0.414,+12.000,-17.000,+6.750,1, 1, 1, -1, 1, 1, 2, 1,3.0168374125683033,1.154249256797898
1503957406715,+0.833,+0.530,+0.154,-0.026,+0.874,-0.322,-0.412,+10.312,-4.062,+16.500,-3, -2, 1, -1, -3, -2, -1, -2,3.015965847514275,1.1507681927845306
1503957406731,+0.832,+0.531,+0.157,-0.027,+0.904,-0.272,-0.311,+9.875,+6.562,+18.375,-1, 0, 1, -1, -1, -1, -1, -1,3.0138547699370997,1.1546311949438997
1503957406754,+0.832,+0.530,+0.160,-0.028,+0.918,-0.224,-0.309,+14.188,-4.812,+17.250,-8, -5, 0, -2, -3, -1, 0, 0,3.012322055931148,1.1535119584897344
1503957406775,+0.833,+0.528,+0.164,-0.028,+0.861,-0.295,-0.340,+15.312,-14.375,+12.438,-5, -3, 0, 2, -2, -1, 1, -2,3.0085320195138285,1.1508780540918946
1503957406791,+0.834,+0.525,+0.167,-0.026,+0.791,-0.314,-0.343,+15.938,-20.500,+4.188,6, -5, -4, -2, -1, -1, 2, 0,3.0024433004806816,1.1452458599623245
1503957406813,+0.835,+0.523,+0.168,-0.025,+0.736,-0.301,-0.291,+9.125,-14.000,-5.688,-1, 5, 0, 0, -1, -1, 1, 2,3.0002401719832523,1.1410043522248978
1503957406835,+0.835,+0.523,+0.169,-0.024,+0.841,-0.335,-0.295,+4.750,+3.125,-2.312,-3, 0, 2, 3, 0, -1, -1, 1,2.99741383848016,1.1417743792640365
1503957406855,+0.833,+0.527,+0.169,-0.022,+0.837,-0.290,-0.231,+1.750,+14.500,-16.375,-3, -2, -1, -2, -2, 0, -1, -1,2.992714526101688,1.152082258433941
1503957406873,+0.833,+0.527,+0.166,-0.016,+0.834,-0.240,-0.266,+2.375,-7.062,-35.750,-3, 0, -1, -1, 0, -1, -1, -1,2.985636302850753,1.1510643085022916
1503957406896,+0.834,+0.528,+0.161,-0.009,+0.734,-0.240,-0.282,-3.125,-5.375,-53.688,-2, 0, 0, 0, 0, -2, -4, -5,2.979634615593518,1.1521401926692656
1503957406911,+0.834,+0.530,+0.154,-0.000,+0.799,-0.188,-0.271,-10.250,-0.688,-63.812,-1, -3, -1, -4, -2, -1, 2, 1,2.971932988379771,1.1545939638381664
1503957406933,+0.833,+0.534,+0.146,+0.006,+0.914,-0.115,-0.343,-15.562,+17.938,-53.438,3, 9, 0, -1, 0, -1, 2, 1,2.970111449786907,1.1611478833157916
1503957406957,+0.831,+0.539,+0.138,+0.009,+1.085,-0.131,-0.474,-21.125,+31.938,-34.750,-3, -5, -1, -2, 0, 0, -2, -1,2.97304681916321,1.169782474281986
1503957406971,+0.830,+0.541,+0.136,+0.008,+1.522,-0.148,-0.584,-8.750,+17.750,+14.875,-4, -1, -1, -1, -1, 0, 0, 2,2.976539945400067,1.1735962722980413
1503957406994,+0.831,+0.538,+0.140,+0.001,+1.138,-0.381,-0.268,-7.938,-24.062,+40.625,7, -2, -3, -2, -1, 0, 0, 0,2.984257614755057,1.1672443917464725
1503957407016,+0.834,+0.534,+0.141,-0.001,+0.760,-0.173,-0.255,-5.875,-28.688,+15.812,11, 4, 0, 1, 1, 2, 1, 0,2.987918658523038,1.1580438802512418
1503957407031,+0.836,+0.530,+0.140,-0.001,+0.767,-0.207,-0.277,-9.625,-24.938,+0.062,-9, -3, 0, 0, -1, 0, -3, -2,2.989861233808744,1.147610140459997
1503957407055,+0.837,+0.530,+0.137,-0.000,+0.888,-0.195,-0.312,-16.312,-6.250,-12.688,-2, -8, -1, -3, -2, -1, 0, 1,2.991911314472135,1.1466187702340174
1503957407076,+0.838,+0.530,+0.133,+0.000,+0.998,-0.128,-0.384,-15.625,-5.500,-7.125,-1, 2, 0, 0, 1, -2, -1, -2,2.996716315705322,1.1450477331454951
1503957407092,+0.838,+0.529,+0.131,-0.001,+0.954,-0.150,-0.348,-12.562,-6.938,+5.500,-4, -5, -3, -1, -1, -1, -1, -2,3.000525675331639,1.1412616474562502
1503957407113,+0.839,+0.529,+0.130,-0.003,+0.896,-0.166,-0.361,-13.875,-2.188,+10.500,-5, -1, -1, -2, -2, -1, -2, -4,3.005485685259897,1.1410057057407743
1503957407136,+0.839,+0.529,+0.128,-0.005,+0.950,-0.161,-0.358,-14.375,+0.188,+8.812,-1, 0, -2, -2, -1, -2, -1, 2,3.011041399252424,1.1398305330737524
1503957407159,+0.839,+0.529,+0.128,-0.007,+1.046,-0.187,-0.391,-7.438,+1.062,+14.438,-1, -2, 1, -2, -2, -1, -3, -1,3.014452777885998,1.139611188978482
1503957407174,+0.840,+0.527,+0.130,-0.010,+1.005,-0.267,-0.439,+0.250,-9.375,+18.000,-4, 1, 0, -1, -2, -2, -1, 0,3.017861331207506,1.1352978168856849
1503957407198,+0.843,+0.521,+0.132,-0.011,+0.914,-0.309,-0.420,+2.688,-33.812,+12.562,3, 2, -2, 0, -1, -2, -1, -2,3.018794771929618,1.1213944619951886
1503957407213,+0.847,+0.515,+0.134,-0.012,+0.879,-0.304,-0.383,-0.438,-41.625,+13.125,-2, -1, -2, -1, -3, -2, 1, 0,3.0202647539353378,1.108031764084267
1503957407235,+0.849,+0.511,+0.136,-0.015,+0.818,-0.298,-0.349,-1.375,-25.062,+17.500,-3, -3, 0, -3, -2, -6, 0, -2,3.02435232050832,1.0988766212637755
1503957407256,+0.849,+0.510,+0.139,-0.019,+0.770,-0.312,-0.343,-5.688,-0.688,+23.312,1, 10, 5, 1, 2, 1, -2, -1,3.0282134771718194,1.0971525373770574
1503957407272,+0.849,+0.509,+0.140,-0.024,+0.784,-0.331,-0.348,-12.125,+0.188,+21.312,2, -1, -1, 1, 1, 3, -1, 1,3.035952985990812,1.0943055607611138
1503957407294,+0.849,+0.508,+0.139,-0.027,+0.800,-0.320,-0.295,-17.938,-9.438,+7.438,-3, -7, -3, -2, -1, 1, -1, -1,3.042332367817799,1.0907345709295821
1503957407315,+0.850,+0.508,+0.136,-0.028,+0.770,-0.298,-0.268,-24.562,-4.125,-6.562,-7, -3, -2, -2, -2, -2, -2, -3,3.0476308884110486,1.089652282106153
1503957407332,+0.850,+0.510,+0.131,-0.029,+0.792,-0.286,-0.270,-32.500,+4.125,-16.188,-3, -2, 1, -1, -2, 0, -2, -3,3.054453746987106,1.0925703197013108
1503957415699,+0.764,+0.598,+0.220,+0.101,+0.786,-0.161,-0.081,+0.688,+10.812,-49.438,4, 11, 1, 2, -1, -1, -2, 0,2.6997975862437413,1.377060988016666
1503957415716,+0.760,+0.605,+0.213,+0.108,+0.929,-0.120,-0.043,-4.750,+24.062,-62.375,0, -3, 1, 1, -1, -1, 1, -1,2.697734028108215,1.3892923351388218
1503957415738,+0.759,+0.607,+0.205,+0.115,+1.113,-0.136,-0.219,-8.562,+5.500,-59.375,-12, -5, -2, -1, -1, -1, 0, -2,2.697101842538658,1.3879988921123085
1503957415759,+0.762,+0.605,+0.203,+0.115,+1.577,-0.185,-0.432,-10.000,-8.750,+6.000,-3, -4, 0, -1, -1, -1, 0, -3,2.7012959336459383,1.381563109169674
1503957415776,+0.767,+0.599,+0.205,+0.108,+1.224,-0.389,-0.038,-25.000,-46.312,+36.875,3, 0, -2, -1, -1, -1, 0, 0,2.7105100345394804,1.3676980854081766
1503957415798,+0.770,+0.595,+0.205,+0.104,+0.796,-0.115,-0.038,-18.625,-28.438,+25.250,2, -2, 1, 0, 2, 2, 1, 1,2.716993353313326,1.357298532647844
1503957415819,+0.774,+0.591,+0.204,+0.101,+0.874,-0.177,-0.200,-15.500,-29.062,+17.438,6, 5, -3, -3, -2, -1, -1, 0,2.72435918010631,1.3464088887793921
1503957415837,+0.775,+0.590,+0.204,+0.097,+0.995,-0.233,-0.142,-17.250,-1.188,+18.812,-14, -6, 5, 3, -1, -1, 2, -4,2.7306462370239855,1.3436028272840672
1503957415858,+0.776,+0.590,+0.205,+0.092,+1.058,-0.181,-0.207,-14.125,+2.938,+28.500,-2, -5, -7, -2, -2, 0, -4, 1,2.737889938865792,1.3442617766790783
1503957415879,+0.777,+0.589,+0.206,+0.087,+1.062,-0.181,-0.181,-14.562,-0.500,+31.438,0, -3, -3, 0, -3, 0, -2, 0,2.744606169162299,1.3422115920149897
1503957415898,+0.779,+0.586,+0.207,+0.082,+1.068,-0.227,-0.169,-14.625,-15.250,+31.000,-3, -4, -2, -2, -1, 0, -2, -1,2.75138771979113,1.335006362960963
1503957415918,+0.781,+0.583,+0.208,+0.078,+1.036,-0.241,-0.159,-12.625,-22.125,+30.875,5, 17, 4, 3, -2, 1, 0, 1,2.7567972226002078,1.32789400982435
1503957415941,+0.785,+0.579,+0.209,+0.074,+0.970,-0.225,-0.174,-9.750,-28.812,+27.875,4, 0, -3, -3, -1, -1, 0, -1,2.7639258441211547,1.3186558742340555
1503957415956,+0.788,+0.575,+0.211,+0.069,+0.854,-0.272,-0.206,-10.312,-18.500,+31.062,1, -1, -1, -1, 1, -2, 0, -1,2.770534344070146,1.3099046200548046
1503957415978,+0.787,+0.576,+0.214,+0.064,+0.789,-0.280,-0.157,-10.250,+14.375,+28.062,3, 4, 3, 1, -1, -2, 1, -1,2.7741973746489546,1.3144117497418717
1503957416000,+0.784,+0.579,+0.215,+0.059,+0.905,-0.265,-0.162,-6.938,+28.125,+18.688,-3, -1, -1, -1, -2, -3, -2, -1,2.7788727398655144,1.3220318218787854
1503957416016,+0.783,+0.581,+0.215,+0.058,+1.000,-0.253,-0.186,-4.812,+15.250,+7.000,-3, -4, -2, -1, -1, 0, 0, 0,2.7802268689523912,1.32709524273229
1503957416038,+0.783,+0.580,+0.215,+0.058,+0.970,-0.276,-0.195,-2.312,-4.188,-1.062,-1, -7, -4, -1, -1, -2, -2, -1,2.779791249736715,1.3243608756330678
1503957416059,+0.784,+0.579,+0.214,+0.058,+0.862,-0.280,-0.191,-3.375,-4.438,-4.375,0, -3, -2, 1, -1, 0, -3, 0,2.781523567323579,1.321028234694734
1503957416076,+0.784,+0.580,+0.214,+0.058,+0.831,-0.245,-0.178,-3.500,+8.000,-7.562,-2, -3, -1, -1, -1, -1, 0, 0,2.7819553802131454,1.3237616155123426
1503957416100,+0.782,+0.583,+0.212,+0.060,+0.885,-0.211,-0.158,-2.938,+14.938,-12.062,-1, 1, -4, 1, -1, -2, -2, -1,2.7804234055784702,1.3298172985649754
1503957416119,+0.781,+0.585,+0.210,+0.062,+0.972,-0.197,-0.167,+0.812,+10.562,-17.375,1, 0, 1, -2, -1, -1, -1, 0,2.779525699463592,1.3334455888354826
1503957416136,+0.779,+0.587,+0.210,+0.065,+0.948,-0.226,-0.212,+7.000,+9.688,-13.938,1, -3, -3, -3, -2, -2, 0, -2,2.773867457413146,1.3386483905406952
1503957416158,+0.778,+0.589,+0.209,+0.067,+0.892,-0.247,-0.169,+5.250,+16.188,-16.625,-2, -13, -5, 0, -1, -1, 0, 0,2.771913051344001,1.3431564891039829
1503957416179,+0.774,+0.594,+0.208,+0.071,+0.936,-0.221,-0.105,+9.562,+25.938,-28.688,-2, -2, 1, -3, 0, 0, 0, -3,2.765402584174004,1.3552417953616762
1503957416196,+0.772,+0.596,+0.205,+0.078,+1.012,-0.191,-0.146,+12.000,+4.688,-43.000,2, 5, 0, 0, -1, 0, 0, -1,2.757430909194726,1.3582231500074142
1503957416217,+0.774,+0.594,+0.201,+0.086,+0.938,-0.198,-0.196,+11.500,-21.938,-51.562,1, 7, 7, 3, 1, 1, -1, 1,2.7512191306982614,1.3506223577656755
1503957416242,+0.773,+0.595,+0.198,+0.094,+0.828,-0.154,-0.155,+11.375,-6.625,-45.938,0, 2, 2, 1, -2, 0, 1, 0,2.742423290797841,1.3512768049132342
1503957416256,+0.769,+0.600,+0.196,+0.098,+0.809,-0.129,-0.246,+6.625,+41.562,-34.375,0, -4, -4, -2, -1, -1, 0, -1,2.7375967017414404,1.3624965683460506
1503957416278,+0.760,+0.612,+0.194,+0.099,+1.478,-0.080,-0.114,-1.312,+74.188,-16.938,-3, -5, -3, -2, -2, -1, -3, -1,2.7363421719464096,1.3914210918963772
1503957416300,+0.761,+0.610,+0.198,+0.096,+1.471,-0.354,-0.354,+6.500,+2.625,+28.438,1, 5, 0, -1, 0, 0, 1, 1,2.7358482062536917,1.389264264497633
1503957425104,+0.760,+0.594,+0.219,+0.148,+0.880,-0.160,-0.079,+40.438,+19.000,+6.188,-3, -4, -1, -3, 0, -2, -1, -1,2.6284168709540805,1.3685712715597438
1503957425126,+0.755,+0.598,+0.225,+0.148,+0.854,-0.145,-0.078,+30.875,+38.812,+9.562,1, 3, 3, 2, 1, 0, 0, -1,2.6190498486216875,1.3837095735560938
1503957425145,+0.749,+0.603,+0.231,+0.148,+0.907,-0.140,-0.123,+31.750,+53.062,+9.938,-1, -5, -2, 0, -1, -1, 1, -1,2.60921373890684,1.4015299824280774
1503957425164,+0.744,+0.607,+0.237,+0.149,+1.028,-0.179,-0.129,+29.625,+39.188,+8.500,0, 2, 2, -1, 0, -2, -2, -1,2.5985218671134027,1.417202044426462
1503957425187,+0.741,+0.608,+0.241,+0.150,+1.115,-0.167,-0.088,+22.938,+16.000,+4.812,-1, 4, 2, 3, 1, 0, 0, 0,2.5899571244762445,1.4234072335581696
1503957425202,+0.740,+0.608,+0.244,+0.152,+1.024,-0.147,-0.063,+19.062,+0.250,+2.312,0, -1, 0, -1, -1, 0, -1, -3,2.5829209598936886,1.4264302095225434
1503957425224,+0.741,+0.606,+0.246,+0.155,+0.868,-0.179,-0.062,+17.625,-13.625,-3.125,-2, -4, 1, -2, 0, -1, 0, -1,2.5765715397680213,1.4235697873761042
1503957425247,+0.740,+0.606,+0.245,+0.158,+0.834,-0.138,-0.059,+9.500,-3.312,-13.562,2, 9, 4, 2, 0, -2, 1, 0,2.5724591145942455,1.4225759759829741
1503957425262,+0.737,+0.608,+0.246,+0.160,+0.915,-0.120,-0.144,+11.438,+20.000,-13.938,2, -2, -4, -1, -3, -1, -4, 0,2.5666720931436426,1.4285305198883853
1503957425284,+0.735,+0.611,+0.246,+0.162,+1.083,-0.124,-0.145,+8.875,+20.500,-7.375,-2, -2, -6, -1, 0, -1, -2, 0,2.5642472314616276,1.4362932490973157
1503957425306,+0.733,+0.613,+0.247,+0.162,+1.094,-0.107,-0.080,+3.375,+16.000,-0.625,-2, 1, -2, 0, -1, -1, 0, 0,2.5623816782613273,1.4423103501021242
1503957425322,+0.731,+0.614,+0.247,+0.164,+1.031,-0.090,-0.092,+7.000,+11.625,-2.812,-1, -4, -3, -3, 1, 0, -3, 0,2.558141112926388,1.4447771528277777
1503957425346,+0.731,+0.614,+0.247,+0.167,+0.938,-0.121,-0.108,+11.062,-2.562,-13.000,1, 2, 1, 3, -1, 0, -2, -1,2.554437069358159,1.4449656860192677
1503957425366,+0.731,+0.614,+0.246,+0.169,+0.976,-0.146,-0.021,+3.438,-7.750,-13.562,-1, 1, 2, -1, -1, -2, 0, -2,2.553009644922895,1.4440588503393599
1503957425383,+0.728,+0.617,+0.245,+0.171,+0.976,-0.092,-0.008,+3.125,+16.500,-13.750,1, -1, -3, -3, 0, -2, 0, 2,2.5504425690924992,1.450649836600551
1503957425404,+0.727,+0.618,+0.244,+0.174,+1.027,-0.105,-0.083,+6.688,+1.562,-17.062,1, 0, 4, 1, -1, -1, -2, -1,2.5474510597040947,1.4523077999004266
1503957425427,+0.728,+0.616,+0.242,+0.177,+1.048,-0.158,-0.056,-0.250,-17.438,-20.625,-2, -3, -2, -1, -1, 0, 0, 0,2.5452368083508197,1.4452996166733227
1503957425442,+0.729,+0.616,+0.238,+0.181,+0.960,-0.102,+0.005,-3.750,-19.000,-30.875,-5, -2, -1, -1, -2, -3, 0, 1,2.5458368467937893,1.4416781019577365
1503957425464,+0.729,+0.617,+0.233,+0.185,+0.936,-0.051,-0.026,-7.438,-10.812,-30.062,4, 4, -1, -1, 0, -3, 0, -1,2.5471128168353996,1.4396358988742934
1503957425487,+0.728,+0.618,+0.229,+0.188,+1.088,-0.034,-0.118,-12.562,-0.312,-24.250,-4, -5, 0, -1, -2, -1, -2, -2,2.5472626447723625,1.4384290984927552
1503957425502,+0.728,+0.619,+0.225,+0.191,+1.119,-0.029,+0.017,-4.750,-12.750,-22.500,-5, -3, 0, 0, -2, 0, -1, -3,2.548757900239798,1.437449203377622
1503957425524,+0.728,+0.619,+0.224,+0.192,+1.077,-0.087,+0.012,-4.188,-7.375,-9.000,0, 1, 0, -2, 4, 2, -2, -3,2.5485764501120087,1.4365646256981612
1503957425548,+0.728,+0.620,+0.222,+0.189,+1.065,-0.075,-0.076,-19.062,+2.125,+6.312,9, 5, 0, -8, -5, -10, -6, 3,2.5553027895562126,1.4371689096910747
1503957425562,+0.731,+0.619,+0.221,+0.184,+1.054,-0.112,-0.054,-29.125,-10.375,+20.625,-3, -4, -1, 1, 0, 4, -2, -4,2.5653627512534074,1.4337761265653133
1503957425584,+0.735,+0.617,+0.217,+0.181,+1.113,-0.074,-0.023,-33.125,-31.250,+5.688,-6, -9, -4, 0, -3, 0, 2, -5,2.576438254392625,1.4252697147444677
1503957425606,+0.740,+0.613,+0.212,+0.178,+1.133,+0.008,-0.135,-31.250,-32.812,+8.875,-5, 8, 1, 2, 1, 3, 0, -5,2.587984850103944,1.4108117315139022
1503957425623,+0.745,+0.608,+0.208,+0.176,+1.012,+0.061,-0.203,-26.125,-39.250,+18.750,2, 7, 4, 7, 4, 1, 4, 5,2.5963900206955617,1.3947820768935666
1503957425648,+0.752,+0.601,+0.204,+0.174,+0.907,-0.000,-0.211,-22.250,-50.188,+16.375,1, -5, -3, -1, -1, -2, -2, 2,2.60561525561958,1.374005638275903
1503957434374,+0.799,+0.592,+0.107,-0.021,+0.940,-0.147,-0.221,-19.750,-13.438,-1.375,-1, -5, -3, -3, 1, -2, -11, -2,3.046627915472192,1.2854725657616006
1503957434392,+0.800,+0.590,+0.105,-0.022,+0.923,-0.159,-0.245,-15.250,-7.688,+0.188,-2, -4, -3, -3, 0, 1, 3, 4,3.0509789476597393,1.279402038115826
1503957434411,+0.801,+0.589,+0.104,-0.023,+0.940,-0.175,-0.264,-11.188,-4.562,-2.062,1, -1, 0, 0, 1, 1, 3, 0,3.0541375481137902,1.2765198406007339
1503957434434,+0.802,+0.588,+0.102,-0.023,+0.994,-0.197,-0.307,-9.500,-6.750,-1.375,-1, 13, 0, -2, 0, -1, 1, 0,3.0568585732045133,1.2733226520701018
1503957434448,+0.804,+0.585,+0.102,-0.024,+0.974,-0.224,-0.313,-10.625,-17.938,+2.875,4, 8, -4, 0, -4, -1, -3, 0,3.059154835131189,1.2656646283625115
1503957434479,+0.806,+0.582,+0.100,-0.026,+0.960,-0.194,-0.252,-14.938,-16.188,+6.750,-1, -6, -4, -4, 0, 0, 3, 25,3.065476579614362,1.2572119514474425
1503957434495,+0.806,+0.582,+0.100,-0.029,+0.931,-0.150,-0.262,-12.438,+0.500,+10.625,-3, -5, -2, -2, -2, -2, -4, -19,3.0704010234259056,1.257023139091276
1503957434508,+0.807,+0.582,+0.100,-0.031,+0.956,-0.187,-0.298,-3.688,+1.688,+11.750,0, 0, 1, 1, 0, 1, 2, 6,3.0739717699395572,1.2572635219248618
1503957434535,+0.808,+0.579,+0.102,-0.033,+1.079,-0.249,-0.349,-2.000,-12.562,+19.875,-12, -12, 5, 2, 0, -1, -2, -31,3.075322968082618,1.2499509553424066
1503957434553,+0.809,+0.577,+0.105,-0.037,+1.043,-0.265,-0.262,-3.812,-12.188,+23.000,1, -1, -1, 0, -2, -1, 2, 8,3.078787853298782,1.2456601680575785
1503957434568,+0.809,+0.577,+0.107,-0.039,+0.929,-0.244,-0.178,+2.562,-7.875,+15.875,-2, 12, -1, -1, -2, 0, -2, -22,3.07973613012242,1.2462948564242393
1503957434595,+0.808,+0.578,+0.110,-0.040,+0.917,-0.252,-0.172,+7.688,+2.500,+11.438,-6, -4, -3, 0, -2, 1, 1, 10,3.0774848555409204,1.2498085725056103
1503957434614,+0.806,+0.580,+0.112,-0.039,+1.020,-0.196,-0.204,+11.250,+11.562,+7.188,-4, 2, -2, 0, 0, -1, 1, -2,3.0727233130836735,1.2555011823651805
1503957434631,+0.806,+0.580,+0.115,-0.038,+1.025,-0.184,-0.307,+17.562,-1.375,+6.375,-20, -14, -3, -1, 0, -3, 2, -10,3.0675117452588374,1.2568295738093704
1503957434651,+0.807,+0.577,+0.118,-0.037,+0.905,-0.258,-0.299,+16.125,-15.500,+5.000,10, 6, 4, 0, 2, -2, 2, 18,3.0628037232391936,1.2502377305368122
1503957434674,+0.808,+0.575,+0.121,-0.036,+0.821,-0.274,-0.260,+12.562,-7.562,+2.250,4, 0, -4, 1, -2, -2, -4, -8,3.0580483308463027,1.2464680590307518
1503957434688,+0.807,+0.577,+0.123,-0.036,+0.774,-0.253,-0.262,+12.562,+12.875,-1.875,-1, -7, -7, -5, -2, -1, -1, 4,3.055230342130475,1.2525525877120711
1503957434711,+0.805,+0.579,+0.124,-0.034,+0.817,-0.246,-0.252,+12.938,+17.625,-8.688,2, 3, -2, -1, -1, 1, 3, 9,3.0499216391061936,1.2579900427431632
1503957434735,+0.804,+0.581,+0.125,-0.031,+0.911,-0.247,-0.236,+12.625,+13.938,-15.812,1, -1, 0, -1, 0, 2, 3, 9,3.0433494817369877,1.2638875686833702
1503957434749,+0.803,+0.583,+0.124,-0.025,+0.938,-0.225,-0.254,+13.812,+7.250,-28.375,1, 0, 0, 1, -1, -1, -3, -3,3.0342755498712033,1.2690732005185592
1503957434771,+0.803,+0.583,+0.122,-0.018,+0.904,-0.190,-0.217,+16.250,-8.312,-40.812,8, 1, -1, -1, 0, 1, -3, 5,3.025198843638784,1.2686610870403185
1503957434794,+0.804,+0.583,+0.120,-0.010,+0.791,-0.167,-0.180,+16.625,-5.938,-46.812,-5, -11, -4, 1, -2, -1, -2, -6,3.0149466268098144,1.2686769533016897
1503957434809,+0.801,+0.587,+0.117,-0.001,+0.818,-0.140,-0.141,+14.812,+22.062,-53.188,-1, -2, -3, -4, -2, -3, 0, 0,3.002871556049767,1.2779329581204604
1503957434832,+0.796,+0.595,+0.113,+0.007,+0.998,-0.035,-0.248,+14.250,+45.500,-49.562,0, 3, 5, 4, 0, 2, 3, 2,2.9933829622246013,1.2970627582729624
1503957434854,+0.792,+0.600,+0.109,+0.014,+1.207,-0.011,-0.262,+8.250,+33.688,-34.375,-2, 2, -1, -2, -1, 0, -2, 7,2.98588880197486,1.3082521014856483
1503957434871,+0.792,+0.601,+0.108,+0.017,+1.266,-0.105,-0.249,+9.750,-1.312,-10.062,1, 2, 1, -3, 2, 0, 1, 8,2.98250306401186,1.3107524319071364
1503957434895,+0.792,+0.600,+0.110,+0.016,+1.131,-0.146,-0.173,+3.625,-4.375,+10.250,3, 2, -2, -1, -1, -1, -2, 3,2.9815174506918254,1.3088033802433392
1503957434914,+0.791,+0.601,+0.111,+0.016,+0.982,-0.114,-0.197,+4.375,+2.938,+4.375,2, -2, -1, 0, -1, -2, 0, -11,2.98000317930426,1.3116943090154864
1503957434929,+0.791,+0.601,+0.111,+0.018,+0.968,-0.135,-0.147,+4.125,-2.125,-4.500,-3, -5, -2, -1, -2, -2, -2, -4,2.9768396805633195,1.3118094819312878
1503957434951,+0.790,+0.602,+0.111,+0.018,+0.988,-0.167,-0.110,-0.312,+2.312,-3.500,-2, 2, -1, -1, -1, -1, -1, -6,2.9765279743270097,1.3142627887631422
1503957434974,+0.790,+0.603,+0.111,+0.018,+1.013,-0.151,-0.166,-2.250,+0.250,-1.875,7, 2, 0, 0, -2, -4, 0, 2,2.9767069934461112,1.3170269056861739
1503957434989,+0.791,+0.601,+0.109,+0.019,+1.011,-0.058,-0.222,-4.812,-12.750,-5.500,6, 10, 2, 1, 3, 5, 3, 8,2.9776612330468986,1.310986414074189
1503957435011,+0.793,+0.599,+0.107,+0.020,+0.967,-0.115,-0.180,-6.062,-22.812,-7.000,-11, -6, -1, -2, -6, -16, -3, -13,2.9790828216504717,1.3052876437482137
1503957435034,+0.794,+0.598,+0.106,+0.019,+0.917,-0.172,-0.150,-12.938,-8.438,-0.875,-4, -7, -1, -2, -1, 2, -2, -5,2.9821631142489036,1.302366067692078
1503957435049,+0.793,+0.599,+0.105,+0.016,+0.947,-0.148,-0.190,-17.812,+10.438,+11.500,-11, -7, -1, -2, -2, 1, -2, -1,2.987821860460142,1.3042153862789074
1503957435072,+0.792,+0.601,+0.105,+0.010,+1.052,-0.139,-0.215,-20.625,+15.625,+27.062,-2, 1, 0, 1, 0, 2, 2, 6,2.997200102372328,1.3090928135795243
1503957435095,+0.792,+0.601,+0.106,+0.003,+1.111,-0.160,-0.203,-19.000,+1.375,+36.625,-3, 0, 0, -4, -3, -3, -3, -1,3.007124012296889,1.309122073270907
1503957435109,+0.795,+0.597,+0.108,-0.003,+1.073,-0.216,-0.231,-15.625,-29.000,+35.812,-20, -7, -3, -1, 3, 0, 0, -8,3.0151482633260125,1.299498161409821
1503957441656,+0.821,+0.530,+0.186,-0.100,+0.862,-0.498,-0.210,+4.375,+32.062,-49.312,-1, 5, -4, -3, -1, 0, -1, -6,3.10538400840736,1.15381653999462
1503957441678,+0.817,+0.539,+0.181,-0.095,+0.875,-0.396,-0.273,+0.000,+53.500,-48.875,-4, -6, -1, -1, 0, -1, 1, 5,3.098075244229574,1.1752040808586395
1503957441694,+0.814,+0.547,+0.177,-0.088,+0.938,-0.262,-0.512,+13.562,+56.812,-43.375,-2, -2, -2, -2, -2, -3, -2, -4,3.087106300424112,1.1951360642927202
1503957441717,+0.813,+0.550,+0.173,-0.080,+1.010,-0.276,-0.412,+16.188,+15.000,-46.938,-2, -1, -2, 0, -1, -2, 0, -9,3.0767172344807356,1.2017876610060763
1503957441738,+0.810,+0.556,+0.171,-0.073,+1.034,-0.235,-0.309,+22.750,+32.500,-33.375,-3, -2, 1, -1, -1, 0, -1, -4,3.0644818413508905,1.2172030414079316
1503957441754,+0.807,+0.560,+0.175,-0.067,+0.792,-0.399,-0.397,+39.562,+29.500,-22.250,-1, -1, -3, 0, 0, 0, 1, 2,3.0473665536387187,1.2306715636703505
1503957441776,+0.806,+0.562,+0.177,-0.061,+0.801,-0.437,-0.314,+33.250,+13.688,-31.688,6, 8, 5, 2, -1, 0, 4, 2,3.033932856232663,1.2380238251589848
1503957441799,+0.803,+0.567,+0.178,-0.056,+0.809,-0.423,-0.269,+23.438,+30.250,-33.000,-10, -7, -2, 0, 0, -1, -1, -2,3.0221589919718213,1.252317891098349
1503957441814,+0.800,+0.571,+0.179,-0.052,+0.897,-0.437,-0.271,+19.188,+28.125,-25.312,2, 2, 0, 1, -1, 0, -1, 5,3.0122677044211876,1.263689085590366
1503957441836,+0.798,+0.573,+0.178,-0.048,+0.963,-0.438,-0.156,+6.938,+6.562,-27.812,-1, -5, -2, -3, -1, 0, -2, 4,3.005510353876581,1.2683884046080098
1503957441858,+0.798,+0.574,+0.176,-0.045,+0.903,-0.403,-0.188,-1.375,-0.125,-24.938,-4, -4, -2, -1, 0, -1, -1, -1,3.002844211891587,1.270176307104105
1503957441874,+0.799,+0.574,+0.174,-0.043,+0.839,-0.312,-0.289,-4.938,+0.750,-22.875,4, -5, -2, -2, -1, -1, -1, -1,3.0024627114546374,1.2693953811525882
1503957441896,+0.799,+0.575,+0.171,-0.040,+0.825,-0.242,-0.373,+1.562,+11.188,-17.375,5, 3, 1, -1, 0, -2, -1, -4,3.0010304055563863,1.2705280378806367
1503957441918,+0.797,+0.577,+0.171,-0.040,+0.894,-0.296,-0.297,+4.125,+21.812,-4.375,-3, -10, -5, -2, -1, -2, 1, -1,2.99988371096417,1.2754532543527481
1503957441934,+0.794,+0.581,+0.172,-0.040,+0.993,-0.342,-0.222,+5.750,+30.875,+1.188,-6, 0, 0, 0, -1, 0, -1, 0,2.996942440788725,1.286370099850488
1503957441956,+0.793,+0.583,+0.174,-0.040,+1.057,-0.319,-0.253,+10.438,+13.000,+3.250,-4, -1, 2, 0, -3, -1, -1, -2,2.993931220690938,1.2930400099377604
1503957441978,+0.794,+0.581,+0.176,-0.039,+0.973,-0.321,-0.289,+12.625,-13.062,+9.062,-2, 0, -2, -2, 1, 1, 0, 2,2.9904247244581814,1.289203779070321
1503957441997,+0.795,+0.578,+0.180,-0.040,+0.876,-0.324,-0.257,+12.938,-13.000,+17.312,-3, -5, 0, 0, -1, 0, 0, 1,2.987830799123829,1.2837610218579356
1503957442016,+0.794,+0.578,+0.184,-0.043,+0.850,-0.356,-0.230,+10.188,+6.000,+27.625,-5, -11, -4, -4, -1, -2, 2, 1,2.9873761717124663,1.2859553114501348
1503957442039,+0.792,+0.579,+0.188,-0.046,+0.835,-0.316,-0.175,+5.000,+14.625,+24.062,-1, 4, -4, -3, 0, -2, -3, -22,2.986271751558596,1.2907171744989965
1503957442054,+0.791,+0.579,+0.189,-0.047,+0.877,-0.251,-0.165,+4.812,+2.375,+11.812,-3, -1, -2, 0, -1, 1, 1, 3,2.9860983859018058,1.2910109926944238
1503957442077,+0.793,+0.578,+0.189,-0.044,+0.853,-0.261,-0.192,+6.812,-16.562,-4.312,-1, -3, -2, -3, -2, -1, -2, 0,2.982346189165756,1.289186759439471
1503957442098,+0.795,+0.575,+0.188,-0.041,+0.798,-0.283,-0.182,+1.625,-24.625,-18.500,-3, -1, 0, -2, -3, -2, -3, 2,2.9798177387591607,1.2809613800481165
1503957442114,+0.797,+0.574,+0.185,-0.036,+0.756,-0.255,-0.190,-1.062,-14.750,-29.312,0, 2, 2, 3, 0, 2, 3, 10,2.976338239452324,1.2771967991698099
1503957442137,+0.798,+0.575,+0.181,-0.031,+0.724,-0.281,-0.175,-5.688,+0.000,-40.125,0, 0, 0, 2, 0, -2, -2, -2,2.9734643507394463,1.2780399178141377
1503957442159,+0.795,+0.581,+0.174,-0.026,+0.861,-0.244,-0.099,-14.312,+25.000,-51.625,11, 9, 4, 3, 0, 0, 0, 0,2.9719725538404096,1.2894963216205884
1503957442174,+0.794,+0.584,+0.164,-0.018,+1.047,-0.158,-0.216,-13.062,+11.250,-61.188,-2, -9, -6, 0, -3, -2, -3, -1,2.970461438758103,1.291680459351782
1503957442197,+0.797,+0.583,+0.156,-0.010,+1.039,-0.192,-0.288,-14.000,-17.938,-60.625,9, 4, 3, -1, -1, -1, -2, 11,2.968682247704442,1.2855962052721943
1503957442218,+0.801,+0.580,+0.148,-0.004,+1.082,-0.210,-0.352,-17.500,-24.875,-46.000,-5, -4, -1, -3, 0, 0, -3, -6,2.970406380447861,1.274404496779323
1503957442236,+0.802,+0.579,+0.146,-0.005,+1.326,-0.186,-0.351,-10.312,-10.500,+5.438,-3, -6, -1, -2, -2, -1, 0, -3,2.9748517406159287,1.2707450408503487
1503957442256,+0.804,+0.575,+0.149,-0.012,+1.020,-0.396,-0.230,-17.625,-24.000,+37.750,-5, 5, 0, -3, 0, -1, 0, -4,2.9835497313561934,1.2614673718483997
1503957442278,+0.804,+0.576,+0.147,-0.016,+0.834,-0.203,-0.116,-26.250,+5.125,+15.750,5, 10, 2, 3, 1, 1, 0, -3,2.9925407306019705,1.262719716728915
1503957442297,+0.805,+0.575,+0.144,-0.018,+0.962,-0.190,-0.234,-21.250,-10.750,+4.375,1, 0, -1, 1, -1, -3, -2, 0,2.999835996661125,1.2584381818542332
1503957442316,+0.807,+0.573,+0.143,-0.022,+1.022,-0.300,-0.275,-24.000,-12.875,+12.375,-4, -4, -2, 1, -2, 1, 2, 4,3.008546860171178,1.2527075858212198
1503957442339,+0.809,+0.570,+0.141,-0.027,+0.985,-0.302,-0.273,-27.500,-14.938,+16.188,5, 0, -1, 0, -1, -3, 0, 2,3.020105195792057,1.2435887381148827
1503957442354,+0.810,+0.569,+0.140,-0.032,+0.965,-0.280,-0.253,-27.625,-7.625,+23.375,-2, -6, -1, -2, -2, -2, 1, 2,3.030066591111994,1.2401939986071984
1503957442376,+0.811,+0.567,+0.139,-0.038,+0.965,-0.276,-0.300,-24.375,-5.500,+26.312,2, 4, 6, 5, -1, 0, -2, 3,3.0417711115387704,1.2339338622058091
1503957442401,+0.813,+0.564,+0.139,-0.044,+0.966,-0.266,-0.295,-23.125,-15.938,+29.125,0, 0, 1, 1, 3, 0, 1, 2,3.052853010458905,1.225801979762796
1503957442414,+0.816,+0.559,+0.140,-0.049,+0.965,-0.282,-0.288,-17.312,-27.750,+30.125,5, -1, -1, 0, -3, -1, 0, 3,3.0617438892791444,1.2131237449447096
1503957442437,+0.818,+0.555,+0.141,-0.053,+0.923,-0.318,-0.270,-13.250,-30.812,+25.062,-1, -2, -1, 0, -1, 0, -2, -1,3.0685778156019383,1.2029267890948396
1503957442459,+0.821,+0.551,+0.142,-0.056,+0.874,-0.324,-0.210,-12.938,-29.250,+20.062,1, 0, -1, -2, 1, -2, -2, -5,3.074142443115818,1.1932663660367544
1503957442474,+0.822,+0.548,+0.142,-0.060,+0.814,-0.333,-0.258,-17.750,-17.062,+16.062,3, 16, 3, 0, -2, 0, -1, -1,3.0817969671651726,1.1849223974522785
1503957450746,+0.818,+0.545,+0.152,+0.102,+0.929,-0.144,-0.370,-20.312,+1.750,+8.375,0, -2, -4, 1, 0, 0, -1, -2,2.798960288183198,1.1990182639199642
1503957450760,+0.819,+0.544,+0.151,+0.099,+0.922,-0.181,-0.390,-14.125,+1.500,+10.125,1, 9, 0, 1, -2, -1, -4, -1,2.8051449135285007,1.1957890572745296
1503957450783,+0.820,+0.543,+0.151,+0.097,+0.958,-0.191,-0.359,-12.938,-5.125,+6.375,-2, -10, -2, -2, -1, -1, -2, -1,2.8087440951977727,1.1933167004663872
1503957450806,+0.821,+0.542,+0.149,+0.095,+0.962,-0.145,-0.349,-13.625,-7.062,+4.438,-1, 0, 0, -2, 0, -1, 0, -4,2.8144304421423083,1.1895762955824842
1503957450820,+0.823,+0.541,+0.149,+0.093,+0.893,-0.173,-0.368,-10.125,-4.500,+6.625,3, 2, 0, 1, 1, -1, 1, 1,2.8189270789467025,1.1875177392802627
1503957450843,+0.824,+0.539,+0.149,+0.092,+0.945,-0.236,-0.382,-5.375,-5.625,+4.875,-1, 1, 4, 2, 2, 1, 1, 4,2.8205707151410646,1.1825184316486361
1503957450859,+0.824,+0.538,+0.151,+0.091,+0.961,-0.214,-0.422,+1.750,-2.312,+6.625,-5, -5, -3, -4, -2, 1, -2, -1,2.8196845565522723,1.1810188564096962
1503957450881,+0.824,+0.537,+0.154,+0.090,+0.808,-0.209,-0.394,+11.938,+5.375,+7.000,-1, -3, -3, 2, 1, -1, -2, -1,2.817770760504703,1.1801761677230274
1503957450903,+0.823,+0.538,+0.158,+0.090,+0.761,-0.244,-0.366,+17.688,+15.875,+2.625,-3, -6, -1, -2, -2, 1, 0, -2,2.8131415152990273,1.1850297610288305
1503957450925,+0.820,+0.542,+0.161,+0.092,+0.834,-0.196,-0.313,+18.062,+35.875,-6.000,-1, 1, 1, 0, 0, -1, -1, -4,2.8057883970791777,1.1966615988307305
1503957450941,+0.815,+0.548,+0.164,+0.094,+0.995,-0.136,-0.295,+24.938,+39.562,-7.625,0, -1, 1, -2, -1, -2, -2, 0,2.7974641330236065,1.212905436722365
1503957450963,+0.811,+0.552,+0.169,+0.097,+1.083,-0.137,-0.321,+32.688,+31.188,-3.000,-2, 0, -1, -1, 1, -1, -1, 0,2.785582182370083,1.2258673565428284
1503957450985,+0.808,+0.554,+0.173,+0.100,+0.996,-0.170,-0.262,+32.688,+20.812,-3.875,1, 2, 2, 0, -2, -1, -2, -1,2.7747911039672797,1.2333001086957938
1503957451001,+0.805,+0.556,+0.178,+0.104,+0.904,-0.173,-0.220,+33.875,+12.875,-5.938,6, 22, 6, 6, 0, -2, 0, 1,2.761418958390682,1.2416954563497318
1503957451023,+0.802,+0.559,+0.182,+0.109,+0.924,-0.144,-0.219,+36.500,+20.000,-17.250,0, -7, -5, -4, -1, 0, -3, 0,2.7481350223419145,1.2522346242411213
1503957451046,+0.798,+0.561,+0.185,+0.116,+1.025,-0.131,-0.270,+37.125,+15.312,-20.812,0, -2, 0, 0, 0, -1, 0, 0,2.7313949407270104,1.2592965060823265
1503957451061,+0.796,+0.562,+0.188,+0.122,+1.001,-0.134,-0.283,+38.375,+7.875,-19.875,-3, -5, -2, -3, -1, -1, -1, 0,2.7177936663221645,1.2643375001747064
1503957451083,+0.793,+0.564,+0.192,+0.129,+0.857,-0.125,-0.186,+38.312,+12.688,-24.500,-2, -5, -2, -1, 1, 1, 2, 0,2.701277688986791,1.2726785506272331
1503957451113,+0.787,+0.569,+0.194,+0.135,+0.812,-0.099,-0.130,+35.250,+37.062,-29.438,0, -2, -4, -2, -1, 0, 0, -3,2.6868921995501376,1.2863120376037829
1503957451128,+0.779,+0.578,+0.197,+0.141,+0.969,-0.068,-0.197,+32.625,+62.500,-27.250,0, -3, -2, -1, -2, -1, -2, -2,2.672079279771372,1.3109168142812668
1503957451143,+0.773,+0.585,+0.199,+0.147,+1.208,-0.043,-0.233,+32.375,+45.750,-27.250,-1, -3, -2, -1, -1, -1, -1, -2,2.6596172095252832,1.3301043175875955
1503957451165,+0.770,+0.586,+0.201,+0.153,+1.230,-0.054,-0.225,+31.875,+5.125,-17.312,-3, -1, -1, -2, -1, 0, -1, -1,2.64646620445756,1.3342128687989332
1503957451181,+0.769,+0.585,+0.203,+0.158,+1.001,-0.066,-0.131,+28.500,-3.750,-10.750,-2, -1, -1, -1, 0, -2, -1, -2,2.635594753252781,1.3334850921963495
1503957451203,+0.766,+0.588,+0.206,+0.159,+0.896,-0.042,-0.111,+15.375,+18.188,+3.188,-2, 1, -2, 0, -1, -2, 0, 0,2.6298344046930255,1.3433666379927576
1503957451225,+0.762,+0.593,+0.208,+0.157,+0.938,-0.078,-0.120,+7.188,+38.688,+11.125,0, 0, -5, -1, 0, -1, 1, 0,2.6295315288835974,1.3572163003223658
1503957451242,+0.759,+0.597,+0.209,+0.155,+0.970,-0.120,-0.061,-6.125,+26.750,+2.062,-2, -3, -3, -3, -1, 2, -2, -5,2.630710838812591,1.3678490930224745
1503957451263,+0.758,+0.599,+0.207,+0.154,+1.000,-0.067,-0.112,-17.125,+9.750,-2.000,0, 3, 0, -1, 0, -2, -3, 0,2.63455292766331,1.3710945545341084
1503957451285,+0.760,+0.599,+0.202,+0.153,+1.087,-0.022,-0.136,-22.562,-12.688,-3.500,0, 3, 1, 1, -3, -1, -2, 0,2.643587173721372,1.3671471075440507
1503957459767,+0.758,+0.630,+0.159,+0.062,+1.211,-0.228,-0.132,+18.625,+51.875,-41.812,-3, -5, -2, 1, -2, -1, -1, -2,2.8390295533243712,1.4124705240669784
1503957459792,+0.752,+0.637,+0.159,+0.065,+1.301,-0.144,-0.131,+10.938,+49.188,-18.688,-20, -10, 0, -2, 0, 1, 3, -2,2.8331304724822095,1.430819164247654
1503957459812,+0.749,+0.639,+0.159,+0.069,+1.082,-0.023,-0.207,+19.688,+24.312,-7.188,-6, 2, -1, -3, -2, -1, -1, 0,2.8259115280352423,1.435996962858969
1503957459827,+0.750,+0.637,+0.162,+0.074,+0.921,-0.086,-0.220,+32.000,-1.125,-6.312,-1, -5, 1, 1, 1, 0, -1, -1,2.8148450221412915,1.4328547420681292
1503957459854,+0.747,+0.639,+0.166,+0.077,+0.929,-0.167,-0.100,+30.875,+15.250,-2.625,0, -2, 0, 0, -1, 0, 0, -1,2.8041968469783143,1.4407026867784583
1503957459866,+0.742,+0.644,+0.171,+0.078,+0.944,-0.150,-0.058,+25.250,+43.438,+3.375,-2, -1, 1, -1, 0, 0, -1, -1,2.7951013206850632,1.4572304961527436
1503957459888,+0.737,+0.648,+0.175,+0.079,+0.996,-0.124,-0.070,+26.875,+42.688,+3.750,-5, 5, 0, -2, -1, 0, -1, 0,2.786669619466362,1.470461005183862
1503957459910,+0.733,+0.651,+0.179,+0.082,+0.999,-0.152,-0.018,+27.438,+25.250,-3.188,-6, -6, -2, -1, -2, -1, -2, -1,2.775755817482336,1.4812589719291975
1503957459927,+0.730,+0.653,+0.181,+0.086,+0.925,-0.120,-0.034,+25.625,+14.000,-12.312,4, -2, -2, -4, 0, -2, -1, -1,2.766259465822198,1.4880411133522802
1503957459947,+0.729,+0.654,+0.182,+0.091,+0.888,-0.077,-0.076,+23.625,+7.312,-15.000,-2, 0, -1, 1, -1, -3, -7, -5,2.757890735400854,1.4915831872891647
1503957459970,+0.727,+0.655,+0.183,+0.094,+0.900,-0.096,-0.027,+16.812,+13.750,-8.188,-1, -3, -1, 0, -1, 0, 0, 0,2.751362375558016,1.4949651442312695
1503957459986,+0.724,+0.658,+0.184,+0.096,+0.940,-0.088,-0.033,+14.250,+22.375,-7.438,1, 0, -2, -1, -1, -1, 0, -3,2.7466132930433695,1.503738642610889
1503957460008,+0.721,+0.660,+0.184,+0.099,+0.942,-0.076,-0.054,+14.625,+18.000,-12.750,-1, -2, -6, -1, -2, -1, -2, -2,2.7411054070414087,1.5090544524899685
1503957460030,+0.720,+0.661,+0.184,+0.104,+0.894,-0.070,-0.053,+13.438,+6.125,-20.438,-11, -8, -4, -1, -2, 0, 1, 1,2.7341682779734886,1.51183506132925
1503957460053,+0.719,+0.662,+0.182,+0.108,+0.863,-0.090,+0.008,+8.000,+5.750,-24.562,0, 0, -1, -1, 0, -1, 0, 0,2.731057476799749,1.5130920259149316
1503957460076,+0.716,+0.665,+0.179,+0.112,+0.907,-0.047,+0.039,+3.312,+13.688,-32.625,-2, 8, 1, 1, 0, -1, -3, -3,2.7287826817643817,1.5189793462336185
1503957460091,+0.713,+0.668,+0.175,+0.118,+0.953,-0.028,-0.012,+5.188,+15.250,-39.250,-1, 0, 0, 0, 0, 0, -1, -1,2.725220236917816,1.5242423121531945
1503957460112,+0.711,+0.672,+0.170,+0.123,+0.991,-0.014,+0.025,+0.812,+16.438,-41.062,-3, -4, -2, -1, -1, -1, 0, -1,2.726047398718562,1.5316826945456299
1503957460129,+0.708,+0.674,+0.165,+0.128,+0.977,+0.036,+0.006,+0.000,+13.938,-40.938,1, -7, 0, -1, 1, 0, 2, 0,2.724520508985048,1.5336900380840013
1503957460151,+0.707,+0.675,+0.161,+0.133,+1.094,-0.007,-0.023,-1.750,-0.875,-36.188,2, -1, -1, -1, -1, -1, -2, -1,2.722867722230419,1.5338043973190936
1503957460172,+0.708,+0.675,+0.158,+0.135,+1.184,-0.029,-0.009,-5.875,-4.125,-18.625,3, 2, -1, 2, 0, -1, 0, 1,2.7248895827800563,1.53193402482877
1503957460187,+0.709,+0.674,+0.158,+0.132,+1.224,-0.067,-0.056,-13.000,-5.375,+13.000,5, 8, -1, -2, -3, 0, 0, 2,2.7288859496133804,1.5291939475680474
1503957460210,+0.711,+0.674,+0.157,+0.128,+1.027,-0.054,+0.052,-18.500,-6.812,+15.375,-2, 13, 5, 4, -1, 1, -2, 8,2.737123281541173,1.5286131178276547
1503957460226,+0.714,+0.670,+0.155,+0.127,+0.944,+0.006,+0.027,-15.875,-29.938,+3.875,-1, -6, 1, -1, 0, -1, 1, -4,2.7404937511820426,1.5164894032875231
1503957460247,+0.718,+0.668,+0.152,+0.126,+0.968,-0.051,+0.048,-17.562,-31.125,-3.188,0, -3, -2, -2, 1, 0, -1, -3,2.747523269326465,1.5093791282300841
1503957460270,+0.721,+0.665,+0.149,+0.124,+1.042,-0.018,+0.016,-23.250,-24.000,+3.562,-5, -2, -2, -2, -2, -1, 2, -2,2.754271755578465,1.4994753036512931
1503957460287,+0.726,+0.661,+0.146,+0.120,+1.096,-0.005,-0.049,-29.438,-35.562,+14.812,2, -4, -3, -1, 0, 0, -3, -2,2.764756944787699,1.4870312008397812
1503957460307,+0.731,+0.657,+0.143,+0.116,+0.964,-0.038,-0.043,-33.812,-33.188,+13.812,0, -4, -4, -5, -2, -1, -1, -3,2.7753306611613504,1.474682960959475
1503957460330,+0.735,+0.654,+0.139,+0.112,+0.966,+0.009,-0.062,-31.812,-33.875,+9.562,-7, -1, -2, 0, -2, -1, -2, -2,2.7870476512257154,1.4644740562344607
1503957460346,+0.740,+0.650,+0.136,+0.110,+1.011,+0.015,-0.098,-23.750,-31.062,+7.750,9, 4, 1, 1, -1, -3, -1, 0,2.7949753823816668,1.45238362083111
1503957460367,+0.745,+0.645,+0.133,+0.108,+1.037,+0.007,-0.126,-21.125,-35.250,+11.750,-1, -1, 1, -1, 0, -2, -2, -1,2.8023150302743187,1.4376476458748086
1503957460393,+0.750,+0.639,+0.132,+0.105,+1.001,-0.048,-0.157,-19.250,-42.688,+16.688,-2, -6, -1, -1, -3, -1, 0, -1,2.8081179237520035,1.421334240425333
1503957469174,+0.839,+0.539,+0.062,-0.039,+0.855,-0.150,-0.375,+0.000,-19.750,+0.375,-4, 0, 0, 0, -1, -1, -1, -1,3.1401829846330402,1.1419984919222539
1503957469197,+0.841,+0.536,+0.062,-0.039,+0.923,-0.139,-0.375,+1.438,-18.125,+0.688,1, -2, -2, -1, 1, -3, 0, 1,3.1407171581879254,1.1348538783636046
1503957469217,+0.842,+0.534,+0.063,-0.039,+0.962,-0.140,-0.380,-1.312,-18.000,+5.062,1, 0, -1, -1, 0, 0, -2, 1,3.1399655199168945,1.130145575874384
1503957469237,+0.844,+0.532,+0.063,-0.041,+0.912,-0.147,-0.370,-3.688,-13.562,+8.312,-1, -1, -2, -1, -3, 1, -2, -4,-3.1393962746926953,1.1256038007622846
1503957469256,+0.844,+0.531,+0.064,-0.043,+0.868,-0.159,-0.371,-3.312,-5.000,+10.562,3, 0, 0, 0, 0, -1, -2, 1,-3.1369234299707136,1.1230113657463456
1503957469278,+0.844,+0.531,+0.065,-0.044,+0.827,-0.176,-0.393,+0.250,+6.562,+8.062,-2, -6, -2, -2, 0, 0, 0, -2,-3.1362902231964376,1.1231521032607492
1503957469293,+0.843,+0.532,+0.066,-0.044,+0.887,-0.163,-0.401,+1.688,+7.438,+3.812,-4, -1, 1, 1, 0, 0, -1, 0,-3.1375819230388915,1.1255672391377567
1503957469316,+0.843,+0.531,+0.067,-0.044,+1.023,-0.144,-0.405,+2.625,-4.688,+3.062,-2, 0, -2, -1, -1, -1, -1, -2,-3.138517208057785,1.1230914064015358
1503957469338,+0.843,+0.531,+0.068,-0.045,+0.974,-0.146,-0.404,+5.188,-2.438,+8.250,-1, 3, -3, -2, 0, -1, -2, 0,-3.1378838542899814,1.123239862506422
1503957469353,+0.843,+0.531,+0.070,-0.047,+0.842,-0.175,-0.398,+2.125,+6.000,+17.562,13, 4, 0, -1, -2, -2, 0, 4,-3.136617156188883,1.123542774524679
1503957469376,+0.840,+0.535,+0.072,-0.051,+0.772,-0.160,-0.373,-0.188,+33.188,+23.875,-6, -3, -1, -1, -1, 0, -4, -4,-3.132809267412816,1.1330926956759304
1503957469400,+0.834,+0.543,+0.075,-0.054,+0.800,-0.132,-0.358,+6.188,+63.375,+22.062,-3, -1, -2, -1, -1, -1, -1, 0,-3.1328021866102174,1.1524715302721107
1503957469412,+0.828,+0.553,+0.077,-0.057,+0.933,-0.156,-0.357,+12.625,+71.312,+20.438,4, 0, -2, 0, -1, -1, 0, -2,-3.1322012615249855,1.1773103408858734
1503957469435,+0.821,+0.562,+0.081,-0.058,+1.023,-0.201,-0.350,+18.625,+67.125,+20.188,-9, -4, 0, -2, -1, 0, -3, -2,-3.1373141245261875,1.1999280730366169
1503957469457,+0.815,+0.570,+0.085,-0.059,+1.022,-0.208,-0.315,+22.500,+55.125,+14.188,-4, -1, 1, -1, -2, 1, 0, -1,3.140846423214636,1.220543586689559
1503957469472,+0.811,+0.575,+0.089,-0.057,+0.984,-0.202,-0.305,+25.438,+37.375,+5.625,-2, -7, -4, 0, -1, -1, -1, -1,3.1314608398987693,1.2340909913920022
1503957469494,+0.807,+0.580,+0.093,-0.055,+0.934,-0.188,-0.310,+33.438,+34.625,+0.438,3, 0, -1, 0, 0, -2, 0, 0,3.12200114929143,1.2478098504320572
1503957469517,+0.804,+0.585,+0.099,-0.051,+0.882,-0.199,-0.272,+42.312,+33.625,-1.125,0, 1, 1, 0, 0, -1, 0, 1,3.106998231005038,1.2628862860644317
1503957469535,+0.800,+0.589,+0.104,-0.047,+0.921,-0.214,-0.234,+39.438,+28.375,+0.875,-1, -2, -2, -1, 0, 1, 0, 2,3.0930479931026054,1.27468447289388
1503957469554,+0.796,+0.593,+0.110,-0.045,+0.994,-0.252,-0.213,+34.938,+29.875,+8.812,-3, 1, 0, 1, 0, 0, 1, -2,3.0810606338076862,1.2869629201039052
1503957469577,+0.792,+0.598,+0.116,-0.044,+0.968,-0.253,-0.207,+34.688,+32.562,+7.375,-4, -1, -1, 0, -1, -2, -3, -7,3.0705179421848974,1.302233278973498
1503957469592,+0.789,+0.601,+0.121,-0.039,+0.808,-0.233,-0.205,+44.500,+24.312,-6.625,2, 4, 2, 2, 0, -2, 0, 2,3.055085725642675,1.3122513209561573
1503957469614,+0.787,+0.603,+0.125,-0.032,+0.825,-0.273,-0.125,+41.688,+8.625,-27.000,-3, 1, -5, -5, -2, 0, -2, 2,3.0380444893104444,1.3195756391073357
1503957469637,+0.785,+0.606,+0.126,-0.024,+0.903,-0.255,-0.073,+31.750,+12.562,-34.438,1, -2, 1, -1, 0, -1, 0, 7,3.0231819934456854,1.3283748996598908
1503957469652,+0.782,+0.610,+0.126,-0.017,+0.928,-0.226,-0.121,+26.062,+15.750,-35.438,-3, 2, 1, 0, -1, 1, 0, 0,3.010904969966063,1.3391310806974066
1503957474018,+0.833,+0.519,+0.138,-0.130,+0.905,-0.287,-0.448,+32.375,+44.500,-37.688,-4, -3, -1, -1, 0, -4, 1, 0,-3.0626035383889803,1.0986874988193416
1503957474040,+0.831,+0.525,+0.138,-0.119,+1.004,-0.343,-0.306,+35.812,+18.625,-53.062,6, 5, -1, -1, -1, 0, 1, -4,-3.084939926256329,1.1159433949541864
1503957474057,+0.831,+0.528,+0.138,-0.108,+0.775,-0.380,-0.303,+31.625,+7.000,-62.188,2, 5, -1, 0, -2, 1, -2, 2,-3.1056346216923654,1.125738822848101
1503957474079,+0.830,+0.532,+0.136,-0.098,+0.726,-0.330,-0.433,+25.750,+26.688,-58.000,4, -1, -1, -2, -1, 1, 0, 0,-3.122549516345092,1.1367833192583152
1503957474100,+0.826,+0.539,+0.135,-0.094,+0.894,-0.418,-0.340,+11.875,+43.000,-34.438,-1, 3, 1, -1, 2, 0, -1, 1,-3.1312735804537994,1.1544634734735408
1503957474115,+0.820,+0.548,+0.134,-0.094,+1.021,-0.396,-0.305,+3.188,+56.188,-9.688,-1, -3, -2, -2, -1, 0, -1, -3,-3.1338755037845014,1.176483266099984
1503957474138,+0.818,+0.551,+0.135,-0.095,+1.058,-0.367,-0.411,+2.625,+28.125,+10.375,-1, 0, 0, 2, 1, 0, -1, 0,-3.1345590819163758,1.1843649962427942
1503957474161,+0.818,+0.550,+0.136,-0.097,+0.929,-0.371,-0.312,-2.875,-6.062,+12.812,-2, -3, 0, 0, 1, -1, 0, -1,-3.13195391761212,1.1817898231117707
1503957474183,+0.819,+0.548,+0.137,-0.099,+0.779,-0.290,-0.383,-3.000,-7.250,+13.812,2, -2, -3, -1, 0, -1, -2, 1,-3.1288456340645636,1.1768409306387952
1503957474199,+0.820,+0.545,+0.139,-0.101,+0.778,-0.306,-0.417,-0.250,-6.000,+13.312,-1, -2, -4, 0, -2, 1, -2, -4,-3.1265434622687485,1.1695362028315237
1503957474228,+0.819,+0.546,+0.140,-0.104,+0.859,-0.374,-0.316,-0.312,+8.875,+14.188,0, 0, 3, 1, 1, 1, 1, 0,-3.1229630570592337,1.1720172148897123
1503957474236,+0.817,+0.549,+0.141,-0.106,+0.923,-0.356,-0.318,+1.562,+19.812,+12.125,-2, -4, 0, -3, -4, -1, 2, 2,-3.121989287403377,1.1798300859189659
1503957474260,+0.816,+0.549,+0.143,-0.106,+0.934,-0.314,-0.313,+5.625,+4.375,+7.125,4, 18, 6, 1, -2, 1, -1, -1,-3.1244966621717056,1.1803324541396092
1503957474280,+0.816,+0.550,+0.144,-0.105,+0.881,-0.319,-0.270,+7.750,+0.062,+2.188,2, -12, -4, -3, -1, -1, -3, 0,-3.1277579070075685,1.183763289808733
1503957474302,+0.816,+0.550,+0.145,-0.104,+0.870,-0.334,-0.299,+9.688,-2.750,-0.875,-8, -4, -3, 0, -1, -1, -1, -1,-3.1306740430141917,1.1843670747217225
1503957474318,+0.816,+0.550,+0.146,-0.103,+0.893,-0.328,-0.292,+6.250,+0.625,+0.000,6, 7, -1, 2, 4, 1, 0, 4,-3.133590364739931,1.1849766104671429
1503957474340,+0.815,+0.550,+0.148,-0.103,+0.885,-0.358,-0.314,+6.625,+3.500,+4.688,-6, -11, -5, -5, -3, 0, -2, -8,-3.1361398178169066,1.185533648469219
1503957474359,+0.815,+0.551,+0.148,-0.103,+0.817,-0.321,-0.256,+2.812,+0.688,-1.125,-1, -5, -2, -4, -1, 0, -1, 1,-3.13646899858827,1.1883706439909267
1503957474378,+0.815,+0.551,+0.148,-0.101,+0.817,-0.313,-0.274,+2.125,-0.688,-8.438,-2, -2, 2, 3, -1, 0, -4, 1,-3.1399531566127536,1.1886067308877895
1503957474400,+0.815,+0.551,+0.146,-0.098,+0.832,-0.306,-0.269,-0.375,-1.188,-19.500,1, 0, 0, -1, 0, 0, 2, 6,3.140361427217288,1.1879519529274745
1503957474424,+0.816,+0.552,+0.143,-0.094,+0.840,-0.292,-0.257,-0.375,-2.500,-28.062,-2, 3, -1, 1, -1, 1, 1, 2,3.1368494045648934,1.1901893438384212
1503957474438,+0.816,+0.553,+0.141,-0.090,+0.824,-0.312,-0.274,-0.688,+3.688,-29.688,4, 9, 4, 0, -1, 2, 3, -1,3.1319823148000197,1.192480068986644
1503957474460,+0.816,+0.555,+0.137,-0.085,+0.768,-0.317,-0.247,-5.812,+6.000,-41.375,1, -13, -3, -1, -2, -2, -1, -5,3.127507770275417,1.196730385480913
1503957474482,+0.817,+0.557,+0.129,-0.078,+0.779,-0.231,-0.218,-12.062,+4.500,-58.438,-4, -4, -2, -3, -3, -1, -1, -1,3.1245828779738085,1.199804082604204
1503957474498,+0.818,+0.557,+0.121,-0.071,+0.814,-0.252,-0.360,-17.875,+1.688,-65.812,1, -5, -5, -1, -2, -2, -1, -6,3.1221551251029966,1.197453142632527
1503957474520,+0.816,+0.564,+0.111,-0.066,+1.487,-0.174,-0.355,-24.500,+30.125,-37.938,-1, 3, 7, 2, 4, 2, 4, 1,3.1235184491449077,1.2125169519632077
1503957474542,+0.819,+0.559,+0.112,-0.070,+1.414,-0.388,-0.603,-8.812,-25.125,+23.375,7, -3, -2, -1, -2, -3, -4, -5,3.130671023968312,1.1999390345051384
1503957480726,+0.828,+0.524,+0.168,-0.107,+0.733,-0.373,-0.518,+15.438,+23.750,-4.562,2, 4, 2, 0, 0, 0, 0, 1,-3.1403669935637626,1.1280360267525384
1503957480744,+0.824,+0.529,+0.170,-0.108,+0.819,-0.378,-0.445,+12.375,+43.125,+6.750,0, 2, -1, -1, -1, -1, 1, 1,3.139548268370401,1.1412550838543922
1503957480767,+0.819,+0.536,+0.172,-0.110,+0.898,-0.350,-0.425,+17.562,+56.375,+14.750,-1, -2, -2, 1, -2, 0, -1, -1,3.1370037372644597,1.1597014134792214
1503957480782,+0.816,+0.540,+0.175,-0.109,+0.953,-0.346,-0.415,+25.250,+27.938,+9.188,-2, 0, -2, -1, -1, 0, -1, 2,3.129447820353553,1.171722032597753
1503957480804,+0.816,+0.540,+0.178,-0.106,+0.871,-0.327,-0.343,+30.312,-2.562,+2.312,-2, -1, -3, -2, 0, -1, -1, -4,3.120557667684395,1.174031734827479
1503957480822,+0.816,+0.538,+0.183,-0.101,+0.665,-0.343,-0.321,+34.000,-10.688,-8.562,-3, 2, -2, -1, 0, 0, 1, 1,3.1063820856865,1.1722661205464713
1503957480841,+0.817,+0.538,+0.185,-0.095,+0.666,-0.338,-0.281,+30.188,-5.000,-21.625,-3, 4, 1, 0, 0, 0, 1, 3,3.0936682976855594,1.1749763287139963
1503957480865,+0.815,+0.541,+0.186,-0.088,+0.719,-0.365,-0.223,+28.438,+5.500,-36.125,-2, -5, -2, -3, -1, 0, 0, -2,3.078412201307573,1.1844067375254415
1503957480880,+0.814,+0.544,+0.187,-0.081,+0.733,-0.465,-0.204,+22.562,+14.000,-42.938,-1, -1, -3, -2, -1, -2, -1, 0,3.063688475266241,1.1942725091274773
1503957480901,+0.811,+0.549,+0.186,-0.075,+0.784,-0.472,-0.189,+12.562,+19.750,-45.500,2, -4, -4, 0, -1, 0, -2, -1,3.0519035748484837,1.2074200265873483
1503957480925,+0.810,+0.553,+0.182,-0.068,+0.927,-0.394,-0.228,+3.375,+14.625,-51.500,-1, -4, -1, -1, -1, -2, -1, -2,3.043263648922979,1.2165940916340394
1503957480940,+0.811,+0.554,+0.178,-0.062,+1.038,-0.316,-0.363,+3.625,-3.188,-39.375,-2, -4, -3, -1, 0, -2, -2, -2,3.0379486881523876,1.2179334675708187
1503957480962,+0.813,+0.552,+0.177,-0.058,+0.914,-0.361,-0.389,+7.062,-14.188,-16.438,5, 10, 1, 0, -1, -2, -4, 0,3.033463478308968,1.2129741607452769
1503957480984,+0.814,+0.550,+0.178,-0.057,+0.901,-0.376,-0.357,+5.312,-4.000,-4.625,2, 6, 6, 1, 1, -1, 3, -2,3.031307833555439,1.2085573322122758
1503957481000,+0.813,+0.551,+0.179,-0.057,+0.942,-0.352,-0.330,+8.188,+9.188,+8.188,-2, -1, -2, 1, 0, -1, 0, -2,3.029512942140143,1.2116291762091727
1503957481024,+0.813,+0.550,+0.182,-0.059,+0.962,-0.348,-0.348,+9.500,-0.500,+17.125,-2, 0, -4, -2, -2, -2, 0, 0,3.029579165219765,1.2105770165295915
1503957481044,+0.813,+0.549,+0.185,-0.059,+0.975,-0.349,-0.276,+8.812,-12.000,+16.188,1, 7, -1, 0, -1, -2, -1, -1,3.0261875815323194,1.2098312668895856
1503957481066,+0.813,+0.547,+0.188,-0.060,+0.900,-0.371,-0.254,+12.375,-11.125,+16.375,-2, -4, 1, -2, -1, 0, 0, -1,3.024660932797491,1.2061517989027952
1503957481082,+0.812,+0.547,+0.192,-0.061,+0.770,-0.355,-0.219,+10.188,+2.188,+13.750,-1, -2, -1, -1, -1, 0, -5, -2,3.021162807981108,1.2084674363145136
1503957481104,+0.811,+0.549,+0.192,-0.060,+0.787,-0.308,-0.190,+7.875,+9.062,-2.000,-1, -7, -2, -1, -3, 1, -1, 2,3.018615239998036,1.2138656238837553
1503957481128,+0.810,+0.551,+0.192,-0.058,+0.841,-0.377,-0.171,+2.062,+4.062,-13.125,0, -3, -2, -2, 0, -2, 0, -2,3.0143485379151556,1.219409871337832
1503957481141,+0.811,+0.551,+0.189,-0.055,+0.793,-0.366,-0.167,-6.000,-6.688,-27.938,-3, -7, -2, -1, -2, 0, 0, 1,3.0132511304338077,1.2180586572772512
1503957481164,+0.812,+0.552,+0.183,-0.050,+0.788,-0.312,-0.189,-15.812,-6.875,-45.125,1, 19, 5, 2, -1, 0, -2, -2,3.012127440592121,1.2177199236363612
1503957481186,+0.812,+0.554,+0.175,-0.044,+0.830,-0.271,-0.200,-21.625,+2.812,-53.938,0, 3, -3, -1, 1, -2, 3, 1,3.011035120064591,1.2186777125158188
1503957481201,+0.812,+0.557,+0.166,-0.039,+0.865,-0.217,-0.282,-23.562,+11.375,-53.250,-2, 2, -2, 0, 0, -1, -2, -2,3.012847685101511,1.2218623391452512
1503957481226,+0.812,+0.560,+0.157,-0.033,+0.862,-0.196,-0.276,-24.875,+13.062,-56.062,-1, -10, 0, -1, -2, -2, 0, 0,3.013063599434454,1.2254042850278537
1503957481246,+0.812,+0.564,+0.147,-0.028,+1.057,-0.191,-0.287,-25.750,+13.750,-53.500,-1, 0, 1, -3, -1, -1, -2, -8,3.0162231458678517,1.2312844033325536
1503957481262,+0.813,+0.564,+0.140,-0.023,+1.152,-0.241,-0.417,-23.250,-2.938,-41.250,-1, -2, 0, -1, -1, -1, -1, -2,3.0164610935510807,1.228371338025725
1503957481284,+0.816,+0.560,+0.137,-0.023,+1.311,-0.293,-0.481,-9.688,-24.438,-5.375,1, -1, -2, -1, 0, -2, -3, 1,3.0213058511056263,1.216955982027817
1503957481306,+0.819,+0.556,+0.138,-0.026,+0.936,-0.374,-0.213,-13.500,-30.750,+14.438,-2, 0, -1, -1, -1, -1, 0, 2,3.0265900558156735,1.2073686572286058
1503957481321,+0.820,+0.555,+0.137,-0.029,+0.840,-0.243,-0.268,-18.562,-9.750,+9.062,0, 11, 1, 0, 0, 0, -2, -4,3.0332502854135517,1.2042103977583944
1503957481344,+0.821,+0.554,+0.136,-0.032,+0.854,-0.311,-0.279,-21.438,-1.438,+7.812,0, -3, -6, -3, -2, -1, -2, 0,3.0399145945895847,1.2010614237628237
1503957481367,+0.821,+0.555,+0.132,-0.035,+0.959,-0.275,-0.220,-27.812,+1.438,-0.375,-2, -1, 0, 0, -1, -1, -1, -4,3.0494910920298044,1.2015459573736345
1503957489370,+0.879,+0.435,+0.146,-0.131,+0.751,-0.386,-0.534,-0.375,-6.438,-3.812,-4, -6, -1, -1, 1, -2, 0, -1,-3.0302499042043123,0.897958859404992
1503957489392,+0.880,+0.434,+0.146,-0.131,+0.725,-0.373,-0.544,-0.125,-6.938,-4.312,5, 4, -2, 3, 2, 2, -1, 2,-3.029871098453642,0.895899432968693
1503957489408,+0.880,+0.434,+0.146,-0.130,+0.729,-0.347,-0.537,+0.625,+1.688,-3.812,-5, -2, -1, -3, -4, -1, -2, 2,-3.031749504876393,0.8960957069893768
1503957489432,+0.879,+0.436,+0.145,-0.129,+0.759,-0.336,-0.547,+3.312,+10.062,-3.062,-6, -1, 1, -2, -2, -1, 0, -5,-3.0335922519624887,0.9006759108103486
1503957489451,+0.878,+0.437,+0.146,-0.128,+0.796,-0.347,-0.544,+5.125,+6.375,-5.000,-2, 1, 1, 1, -1, 0, -1, -1,-3.0367887505789684,0.9032521956474121
1503957489474,+0.878,+0.437,+0.146,-0.126,+0.771,-0.375,-0.507,+8.000,-5.000,-9.375,0, -11, -5, -1, -2, -2, -3, -1,-3.040550687685431,0.9036409456356914
1503957489490,+0.878,+0.437,+0.148,-0.124,+0.778,-0.429,-0.541,+9.562,-3.375,-8.688,1, 3, -2, 2, 1, 1, -1, 2,-3.04619036358774,0.9046936444439551
1503957489512,+0.878,+0.437,+0.149,-0.123,+0.808,-0.438,-0.606,+7.000,+3.875,-2.938,0, 2, 1, 1, -1, -1, 0, -2,-3.049012508540182,0.9052296210996146
1503957489527,+0.877,+0.439,+0.151,-0.123,+0.654,-0.448,-0.571,+9.375,+17.250,-0.375,-1, -3, 0, -1, -1, -2, -2, 0,-3.0518011884770098,0.9106432707239895
1503957489550,+0.875,+0.442,+0.154,-0.122,+0.665,-0.499,-0.556,+17.938,+20.688,-10.000,4, 3, 1, 0, -1, 0, 0, -3,-3.0578778697810467,0.9187436544146361
1503957489572,+0.873,+0.445,+0.159,-0.117,+0.834,-0.514,-0.602,+32.500,+16.750,-20.375,0, -1, -2, -2, -2, -1, -4, -1,-3.073490532793393,0.9285378513997942
1503957489587,+0.872,+0.446,+0.165,-0.113,+0.880,-0.628,-0.702,+42.000,+4.938,-17.562,2, -7, -3, -2, 2, -1, 0, 0,-3.087332880392404,0.9339678800750494
1503957489610,+0.870,+0.450,+0.172,-0.107,+0.724,-0.557,-0.523,+49.750,+18.188,-24.500,-3, -7, -4, 0, -1, -1, 0, -1,-3.1074526802251983,0.9480332124527312
1503957489633,+0.864,+0.458,+0.182,-0.100,+0.646,-0.616,-0.400,+68.062,+47.500,-26.562,-1, 4, 0, -1, 0, 0, -1, 0,-3.134921117979233,0.9728885357732314
1503957489647,+0.856,+0.470,+0.192,-0.092,+0.851,-0.642,-0.367,+77.625,+62.688,-33.500,-3, 1, 1, 1, -2, -1, -2, -2,3.11627379635207,1.0087906482106386
1503957489670,+0.849,+0.482,+0.201,-0.081,+0.914,-0.538,-0.374,+80.812,+55.438,-44.250,3, 4, 1, 0, 0, 0, -2, 0,3.079629593562316,1.046410154805923
1503957489691,+0.844,+0.490,+0.208,-0.067,+0.838,-0.487,-0.355,+81.000,+30.250,-59.250,-4, 3, 1, -2, 0, -2, -3, -1,3.041643021827591,1.0740389301892352
1503957489707,+0.839,+0.498,+0.213,-0.051,+0.698,-0.405,-0.267,+75.625,+30.500,-80.250,-2, -5, 0, -1, 1, 1, 0, 0,3.0024630738526614,1.1009805231869965
1503957489730,+0.833,+0.508,+0.214,-0.034,+0.754,-0.366,-0.262,+64.938,+46.062,-91.375,0, -6, -4, -2, -3, -1, -1, 1,2.9655612308189485,1.1301115381262583
1503957489751,+0.827,+0.520,+0.213,-0.018,+0.887,-0.299,-0.311,+53.688,+53.938,-89.938,-1, -3, -1, -1, -2, -1, 0, -2,2.9336205930749273,1.162794092371206
1503957489768,+0.821,+0.530,+0.212,-0.004,+1.019,-0.245,-0.417,+47.188,+51.875,-72.750,-2, 2, 0, 1, 0, -2, -1, -2,2.9062759738574573,1.1894104878098823
1503957489790,+0.815,+0.539,+0.212,+0.008,+0.880,-0.197,-0.334,+47.500,+55.250,-62.312,3, 3, 1, -1, -2, -1, -1, 0,2.8819710480245453,1.2136825188332774
1503957489812,+0.807,+0.551,+0.211,+0.017,+0.874,-0.134,-0.236,+36.375,+68.188,-51.188,0, 2, 0, 2, -1, -2, 0, 1,2.8632465357632015,1.2441079863754616
1503957489827,+0.799,+0.563,+0.208,+0.025,+1.035,-0.054,-0.284,+29.188,+72.188,-42.188,0, -1, -6, -3, -2, -1, -2, -3,2.849193249243177,1.2727880857178193
1503957489850,+0.795,+0.569,+0.207,+0.033,+1.062,-0.094,-0.336,+27.750,+38.812,-36.125,-1, -4, -2, -1, -2, 0, -2, -1,2.8355430563540174,1.288084849752618
1503957489873,+0.793,+0.572,+0.206,+0.041,+1.000,-0.144,-0.284,+27.375,+13.125,-30.625,-3, -1, 0, -2, 1, 0, 1, -2,2.8231336146856023,1.2957652751749877
1503957489887,+0.789,+0.576,+0.206,+0.047,+0.889,-0.091,-0.230,+24.000,+30.500,-25.812,0, -3, -1, 0, -1, -1, 0, 0,2.8113346363515044,1.3061437743621682
1503957489910,+0.786,+0.581,+0.205,+0.052,+0.865,-0.031,-0.283,+23.500,+35.625,-20.188,-1, 5, 0, 0, 0, 1, 0, -2,2.8037404587106356,1.3186157625715147
1503957498378,+0.797,+0.573,+0.189,-0.001,+0.901,-0.157,-0.193,+55.938,+69.875,-63.312,-6, -3, -2, -2, -2, -3, 0, -3,2.913709139267098,1.2813456549844962
1503957498398,+0.790,+0.583,+0.187,+0.014,+0.937,-0.108,-0.259,+55.312,+58.688,-73.750,3, 1, 0, 0, 1, -2, -3, 1,2.888347633139178,1.306921023787475
1503957498421,+0.784,+0.592,+0.185,+0.030,+0.965,+0.047,-0.306,+53.500,+53.438,-72.062,3, 8, -1, 0, -1, 0, -3, 4,2.862997701116979,1.3300472787257267
1503957498437,+0.781,+0.596,+0.182,+0.048,+0.979,+0.092,-0.268,+57.688,+13.875,-73.812,2, 4, -2, -1, -1, -2, -1, -5,2.8375484285039287,1.3395444042344251
1503957498466,+0.776,+0.601,+0.181,+0.063,+0.985,+0.021,-0.180,+53.750,+24.688,-65.562,-3, -9, -1, 0, 0, 0, 0, -4,2.8136204453981732,1.3523968792640852
1503957498477,+0.770,+0.607,+0.182,+0.074,+0.880,-0.070,-0.222,+51.750,+48.062,-45.688,-3, -3, -2, -2, -1, -1, -3, -4,2.793413852601569,1.3688948944547004
1503957498497,+0.763,+0.614,+0.185,+0.081,+0.962,-0.140,-0.184,+40.562,+52.375,-30.688,3, 3, 4, 1, 0, -2, 1, 3,2.7767144259469387,1.389189638346863
1503957498519,+0.756,+0.621,+0.187,+0.083,+1.093,-0.182,-0.088,+22.562,+52.812,-15.188,-2, 0, 0, 1, -1, 1, -2, 3,2.7686435298997583,1.4085435672519178
1503957498534,+0.750,+0.628,+0.189,+0.084,+1.086,-0.140,-0.051,+10.500,+45.188,-1.562,-10, -10, -3, -2, -1, 0, 1, -4,2.7630909538967248,1.428212388614417
1503957498556,+0.748,+0.631,+0.189,+0.085,+1.087,-0.033,-0.123,+6.375,+24.312,+3.500,1, 4, 2, -1, -2, -2, 0, 1,2.7615139323356948,1.4361431023226783
1503957498579,+0.749,+0.630,+0.189,+0.086,+0.996,+0.027,-0.199,+8.438,-2.500,+9.000,0, -5, -3, -3, 0, -1, 1, 3,2.7604771982748946,1.4336265137750306
1503957498594,+0.751,+0.626,+0.190,+0.087,+0.942,-0.010,-0.179,+5.250,-19.125,+16.375,0, 2, 0, -1, -3, -2, -1, -2,2.757449124137115,1.4238651287076514
1503957498617,+0.752,+0.625,+0.191,+0.086,+0.898,-0.044,-0.107,+5.000,-4.438,+16.812,4, -1, -2, -1, 0, 0, 0, 1,2.7580746638257634,1.4220469212183042
1503957498638,+0.751,+0.626,+0.194,+0.085,+0.899,-0.114,-0.114,+7.250,+13.938,+15.438,-4, 0, -1, -1, -1, -1, -2, -3,2.7555613081946455,1.4269434532395473
1503957498655,+0.749,+0.628,+0.196,+0.084,+0.936,-0.138,-0.104,+9.438,+19.625,+10.500,9, -4, -2, -1, 1, 0, 0, -1,2.753819327428904,1.4336289503201067
1503957498679,+0.747,+0.629,+0.198,+0.085,+0.949,-0.136,-0.085,+9.375,+10.250,+1.750,-4, -1, 3, -2, 0, 0, -1, -1,2.748650846903975,1.437714696798066
1503957498698,+0.747,+0.628,+0.197,+0.087,+0.997,-0.120,-0.096,+4.938,-3.750,-3.125,2, 8, -1, 2, 0, 0, -2, 3,2.746409991907784,1.4342602658634571
1503957498715,+0.749,+0.626,+0.196,+0.090,+0.961,-0.116,-0.127,+5.750,-16.000,-11.875,-2, -5, -3, -1, -2, -2, 0, -2,2.7441567699418514,1.4284843447232676
1503957498736,+0.751,+0.623,+0.195,+0.094,+0.912,-0.153,-0.130,+4.750,-24.375,-14.375,0, -3, -5, -1, -1, 0, -1, -1,2.739864859657992,1.4200652652261994
1503957498758,+0.752,+0.622,+0.193,+0.096,+0.892,-0.152,-0.070,-0.625,-12.500,-15.500,-2, -1, -1, -2, -1, -2, -1, 1,2.7397723722726277,1.4160264350021237
1503957498774,+0.752,+0.623,+0.191,+0.098,+0.888,-0.144,-0.079,-1.812,-2.312,-18.688,-2, -4, -3, -2, -2, -2, -1, 1,2.7399181218056703,1.4172769321443768
1503957498796,+0.752,+0.623,+0.189,+0.102,+0.930,-0.189,-0.067,-0.812,-5.000,-26.938,-1, 0, 1, -1, -1, -2, -1, -1,2.7366322280853255,1.415929044682592
1503957498819,+0.751,+0.624,+0.186,+0.105,+0.945,-0.209,-0.027,-3.312,-2.250,-33.500,-2, 9, 0, 2, 1, -3, -1, -1,2.7355562305710652,1.4162916769840836
1503957498834,+0.751,+0.625,+0.181,+0.109,+0.932,-0.183,-0.073,-6.562,-1.938,-37.375,-1, 0, -2, -2, -2, 0, -2, -4,2.7364327732159452,1.4154174065252736
