Timestamp,Orientation X,Orientation Y,Orientation Z,Orientation W,Accelerometer X,Accelerometer Y,Accelerometer Z,Gyroscope X,Gyroscope Y,Gyroscope Z,EMG1,EMG2,EMG3,EMG4,EMG5,EMG6,EMG7,EMG8,Roll,Yaw
1503957322494,+0.990,+0.126,-0.070,-0.005,+0.279,+0.133,-0.942,-0.812,-0.625,+0.562,7, 4, -1, 0, 1, 0, 1, 5,-3.113836343558949,0.2553290010976434
1503957322510,+0.990,+0.126,-0.070,-0.005,+0.263,+0.134,-0.930,-0.750,-2.875,-0.125,-3, -5, 1, 0, -2, -1, -1, -4,-3.113836343558949,0.2553290010976434
1503957322533,+0.990,+0.125,-0.070,-0.005,+0.260,+0.144,-0.943,-1.250,-1.562,-0.688,-3, -3, -1, -2, -1, 0, -1, -2,-3.1139633959582405,0.25326691603732665
1503957322556,+0.990,+0.126,-0.070,-0.005,+0.268,+0.153,-0.935,-2.812,+2.812,+0.188,6, 2, -2, -1, 0, -2, -2, 3,-3.113836343558949,0.2553290010976434
1503957322570,+0.989,+0.126,-0.070,-0.005,+0.288,+0.167,-0.928,-2.500,+2.375,-0.250,0, -4, 0, -1, -1, -1, 0, 0,-3.113735320191499,0.25508283180601277
1503957322592,+0.989,+0.127,-0.071,-0.005,+0.287,+0.166,-0.938,-1.375,+3.000,+0.062,1, 0, 2, 2, 1, 0, 1, 1,-3.1133513022623864,0.2572262599055841
1503957322614,+0.989,+0.127,-0.071,-0.005,+0.298,+0.161,-0.921,-0.875,-0.688,+0.375,-3, -3, -2, -3, 0, 0, -1, -1,-3.1133513022623864,0.2572262599055841
1503957322631,+0.989,+0.127,-0.071,-0.005,+0.266,+0.137,-0.952,-0.062,+0.188,+1.062,1, 2, 0, 1, -1, -1, 1, 0,-3.1133513022623864,0.2572262599055841
1503957322652,+0.989,+0.127,-0.070,-0.005,+0.269,+0.128,-0.932,-1.500,+1.312,+0.312,-3, -3, -2, -3, -1, 0, 0, -2,-3.1136080542151223,0.2571440683588768
1503957322674,+0.989,+0.127,-0.070,-0.005,+0.284,+0.141,-0.928,-1.438,+0.812,+0.000,1, 3, 1, 0, -3, -1, -1, -1,-3.1136080542151223,0.2571440683588768
1503957322690,+0.989,+0.127,-0.070,-0.005,+0.291,+0.145,-0.936,-1.625,+1.188,+0.188,0, 6, 3, 0, 0, -2, -1, -1,-3.1136080542151223,0.2571440683588768
1503957322712,+0.989,+0.127,-0.071,-0.005,+0.296,+0.157,-0.928,-1.000,-1.312,+0.250,-2, -2, -2, 0, -1, -1, -2, 1,-3.1133513022623864,0.2572262599055841
1503957322734,+0.989,+0.127,-0.070,-0.005,+0.269,+0.158,-0.941,+0.000,-1.938,-0.250,0, -5, -1, -2, 0, -1, -1, 3,-3.1136080542151223,0.2571440683588768
1503957322750,+0.989,+0.127,-0.070,-0.005,+0.264,+0.157,-0.936,-0.812,+0.125,-0.375,3, 2, -4, -1, -1, 0, -2, -3,-3.1136080542151223,0.2571440683588768
1503957322772,+0.989,+0.127,-0.070,-0.005,+0.278,+0.144,-0.937,-1.188,+0.125,-0.125,3, -2, -1, 0, -1, -1, 0, -5,-3.1136080542151223,0.2571440683588768
1503957322795,+0.989,+0.127,-0.070,-0.005,+0.286,+0.136,-0.934,-1.938,+0.312,+0.875,-3, -3, 0, -1, 0, -2, 1, 2,-3.1136080542151223,0.2571440683588768
1503957322811,+0.989,+0.127,-0.071,-0.005,+0.284,+0.166,-0.932,-2.250,-0.875,+1.188,2, -2, 0, -1, 0, -1, -1, -1,-3.1133513022623864,0.2572262599055841
1503957322833,+0.989,+0.127,-0.071,-0.005,+0.275,+0.161,-0.938,-0.500,+0.875,+0.938,-2, -3, 0, 0, 0, 0, -1, 0,-3.1133513022623864,0.2572262599055841
1503957322854,+0.989,+0.127,-0.071,-0.005,+0.282,+0.153,-0.938,-0.312,+1.750,+0.250,-4, -2, -1, -1, -1, -1, -3, -3,-3.1133513022623864,0.2572262599055841
1503957322870,+0.989,+0.127,-0.071,-0.005,+0.275,+0.137,-0.939,-0.438,+0.875,+0.125,0, 11, -1, 2, 0, 0, 1, 0,-3.1133513022623864,0.2572262599055841
1503957322892,+0.989,+0.127,-0.071,-0.005,+0.280,+0.134,-0.940,-1.312,-1.250,+0.812,-1, 3, -1, -2, -2, -1, -2, -2,-3.1133513022623864,0.2572262599055841
1503957322914,+0.989,+0.127,-0.070,-0.006,+0.279,+0.136,-0.936,-1.500,-1.750,+1.250,-4, -6, -2, -3, 0, -1, -1, -3,-3.111608723803375,0.2572807575433647
1503957322932,+0.989,+0.127,-0.070,-0.006,+0.284,+0.151,-0.937,-1.438,+0.312,+0.188,-1, 0, -1, -1, -2, 0, -3, 2,-3.111608723803375,0.2572807575433647
1503957322952,+0.989,+0.127,-0.070,-0.006,+0.282,+0.161,-0.940,-1.250,+0.062,-0.688,-1, -1, -1, 0, 1, -1, 0, -1,-3.111608723803375,0.2572807575433647
1503957322975,+0.989,+0.127,-0.071,-0.005,+0.270,+0.172,-0.933,-1.438,+0.000,-1.438,0, -4, -1, -1, -2, 0, -1, 2,-3.1133513022623864,0.2572262599055841
1503957322990,+0.989,+0.127,-0.071,-0.005,+0.275,+0.165,-0.936,-1.188,+1.250,-0.062,-3, -6, -3, -4, 0, 0, -3, -1,-3.1133513022623864,0.2572262599055841
1503957323013,+0.989,+0.127,-0.071,-0.006,+0.288,+0.154,-0.928,-0.875,+0.750,+1.875,1, -7, -2, -2, -1, -3, 0, -1,-3.1113520017460234,0.2573649365483509
1503957323034,+0.989,+0.127,-0.071,-0.006,+0.289,+0.134,-0.936,+0.688,+0.500,+1.688,-3, 1, -1, -2, -2, -1, -2, -1,-3.1113520017460234,0.2573649365483509
1503957323050,+0.989,+0.127,-0.070,-0.006,+0.275,+0.119,-0.939,+0.500,+0.125,+0.188,1, 1, 0, 0, -1, 0, 2, -2,-3.111608723803375,0.2572807575433647
1503957323073,+0.989,+0.127,-0.070,-0.006,+0.269,+0.129,-0.936,-1.000,+0.188,-0.938,-2, 0, 0, 1, -1, -1, -1, -2,-3.111608723803375,0.2572807575433647
1503957323095,+0.989,+0.127,-0.070,-0.006,+0.281,+0.149,-0.937,-2.000,+1.062,-0.938,0, 0, -1, -1, -1, 0, 1, 2,-3.111608723803375,0.2572807575433647
1503957323111,+0.989,+0.128,-0.070,-0.006,+0.295,+0.161,-0.930,-2.188,+0.188,+1.375,2, 1, 1, 1, 0, -1, -1, 1,-3.1114827482716083,0.2593428961182082
1503957323135,+0.989,+0.128,-0.070,-0.006,+0.281,+0.162,-0.930,-1.625,-0.500,+1.688,0, -4, -4, -1, -2, -1, -3, -1,-3.1114827482716083,0.2593428961182082
1503957323155,+0.989,+0.128,-0.070,-0.007,+0.282,+0.154,-0.942,+0.000,-0.188,+1.188,-2, -3, -2, -3, 0, -1, -2, -2,-3.109484704047363,0.25947949930170705
1503957323177,+0.989,+0.128,-0.070,-0.007,+0.272,+0.127,-0.936,-0.250,+0.250,-0.125,0, 1, -1, -2, 1, 0, -2, 0,-3.109484704047363,0.25947949930170705
1503957323192,+0.989,+0.128,-0.070,-0.007,+0.277,+0.134,-0.932,-1.125,+0.875,-0.625,-1, -1, -1, 0, -1, 0, -2, 0,-3.109484704047363,0.25947949930170705
1503957323214,+0.989,+0.128,-0.070,-0.007,+0.283,+0.148,-0.930,-1.688,+1.312,+1.062,0, -6, -1, -1, 1, -1, 2, 1,-3.109484704047363,0.25947949930170705
1503957323236,+0.989,+0.128,-0.070,-0.007,+0.287,+0.148,-0.925,-1.438,+0.750,+1.250,-1, 2, 0, 0, -2, 0, 0, -1,-3.109484704047363,0.25947949930170705
1503957323252,+0.989,+0.128,-0.070,-0.007,+0.280,+0.152,-0.935,-0.688,-0.312,+0.812,0, -8, -2, -2, 0, -1, 0, -2,-3.109484704047363,0.25947949930170705
1503957323274,+0.989,+0.128,-0.070,-0.007,+0.290,+0.139,-0.931,-1.000,-0.625,+0.125,-2, 3, 0, 1, 0, -1, 1, 0,-3.109484704047363,0.25947949930170705
1503957323296,+0.989,+0.128,-0.070,-0.007,+0.292,+0.142,-0.938,-1.188,-0.812,+0.438,5, 2, 0, -2, 0, -2, 1, 2,-3.109484704047363,0.25947949930170705
1503957323312,+0.989,+0.128,-0.070,-0.007,+0.282,+0.148,-0.947,-1.750,-1.312,+0.500,-3, -4, -1, -3, -1, -1, -2, 0,-3.109484704047363,0.25947949930170705
1503957323337,+0.989,+0.128,-0.070,-0.007,+0.277,+0.158,-0.935,-1.812,-0.312,-0.312,-1, 3, -1, 1, -1, -1, -1, -1,-3.109484704047363,0.25947949930170705
1503957323356,+0.989,+0.128,-0.070,-0.007,+0.271,+0.155,-0.932,-1.562,+0.688,-0.500,0, -4, -3, -1, -2, -3, -5, -2,-3.109484704047363,0.25947949930170705
1503957323372,+0.989,+0.128,-0.070,-0.007,+0.280,+0.153,-0.934,-1.375,+0.750,-0.312,1, 2, 4, 0, 1, 2, 0, 0,-3.109484704047363,0.25947949930170705
1503957323394,+0.989,+0.128,-0.070,-0.007,+0.288,+0.143,-0.930,-1.375,-0.500,+1.375,1, 0, -4, -1, -1, -1, -3, -1,-3.109484704047363,0.25947949930170705
1503957323416,+0.989,+0.128,-0.070,-0.008,+0.280,+0.138,-0.929,-0.812,-2.062,+0.875,-5, -9, -2, -2, -3, 1, -2, -4,-3.107486916239473,0.25961609257856927
1503957323432,+0.989,+0.128,-0.070,-0.008,+0.274,+0.131,-0.931,-0.625,-0.125,+0.250,-2, -5, -1, -2, 0, -2, 2, -1,-3.107486916239473,0.25961609257856927
1503957323454,+0.989,+0.128,-0.070,-0.008,+0.284,+0.147,-0.925,-0.938,+0.188,-0.375,-5, -3, 0, 2, 0, 0, 0, -1,-3.107486916239473,0.25961609257856927
1503957323476,+0.989,+0.128,-0.070,-0.008,+0.288,+0.156,-0.934,-1.562,-0.562,-0.250,1, -1, 0, -2, -2, -2, 0, -2,-3.107486916239473,0.25961609257856927
1503957323492,+0.989,+0.128,-0.070,-0.008,+0.285,+0.162,-0.935,-1.812,-1.500,+1.000,0, 0, -2, -2, 0, 0, -1, 2,-3.107486916239473,0.25961609257856927
1503957323514,+0.989,+0.127,-0.071,-0.008,+0.291,+0.175,-0.928,-1.688,-1.812,+0.625,0, -3, -1, 0, -1, 0, -1, -2,-3.107354142044351,0.2576422594617213
1503957323539,+0.989,+0.127,-0.071,-0.008,+0.279,+0.154,-0.945,-0.312,-1.562,+1.000,1, -1, -3, -1, 1, -2, -1, 0,-3.107354142044351,0.2576422594617213
1503957323552,+0.989,+0.127,-0.070,-0.008,+0.260,+0.138,-0.940,-0.188,-1.938,+0.188,-2, -1, -2, 0, 0, -1, -1, -1,-3.1076107981728573,0.2575541064146186
1503957323574,+0.989,+0.127,-0.070,-0.008,+0.259,+0.130,-0.939,-0.375,-0.188,+0.438,6, 5, 1, 0, -2, -1, -2, -1,-3.1076107981728573,0.2575541064146186
1503957323596,+0.989,+0.127,-0.070,-0.008,+0.271,+0.143,-0.932,-1.312,+0.625,+1.125,-5, -6, -2, -1, -3, -1, 1, -3,-3.1076107981728573,0.2575541064146186
1503957323613,+0.989,+0.127,-0.070,-0.008,+0.287,+0.147,-0.935,-0.875,+1.250,+1.312,-3, -3, -1, -2, -1, 0, -4, -1,-3.1076107981728573,0.2575541064146186
1503957323634,+0.989,+0.127,-0.070,-0.009,+0.287,+0.155,-0.933,-0.500,+0.438,+1.312,-1, 0, 0, -1, -2, 1, 0, -1,-3.105612234805962,0.25769076609329566
1503957323656,+0.989,+0.127,-0.070,-0.009,+0.280,+0.139,-0.934,-0.062,-0.438,+0.125,3, 2, -1, -2, -1, -2, -1, 1,-3.105612234805962,0.25769076609329566
1503957323672,+0.989,+0.128,-0.070,-0.009,+0.284,+0.129,-0.937,-1.062,+1.188,-0.062,0, -3, -2, -2, -2, 0, -4, -3,-3.1054894007423495,0.2597526759447759
1503957323694,+0.989,+0.128,-0.070,-0.009,+0.285,+0.141,-0.930,-1.688,-0.062,+0.688,0, -1, 1, -1, -1, -1, 0, -1,-3.1054894007423495,0.2597526759447759
1503957323716,+0.989,+0.128,-0.070,-0.009,+0.272,+0.155,-0.929,-1.438,+0.500,+0.375,5, 13, 4, 3, -1, 0, -5, 1,-3.1054894007423495,0.2597526759447759
1503957323732,+0.989,+0.128,-0.070,-0.009,+0.272,+0.157,-0.939,-0.750,+0.188,+0.500,1, 10, -2, 0, 0, 1, -1, 0,-3.1054894007423495,0.2597526759447759
1503957323754,+0.989,+0.128,-0.070,-0.009,+0.283,+0.135,-0.937,-0.438,+0.438,-0.312,-1, -4, -2, -2, 0, 0, 2, -1,-3.1054894007423495,0.2597526759447759
1503957323778,+0.989,+0.128,-0.070,-0.009,+0.286,+0.133,-0.935,-0.875,+0.812,+0.688,0, -6, 1, 0, -1, 0, -1, -3,-3.1054894007423495,0.2597526759447759
1503957323792,+0.989,+0.128,-0.070,-0.009,+0.294,+0.132,-0.931,-1.500,-1.000,+0.688,0, -2, -3, -1, 1, -2, 0, -1,-3.1054894007423495,0.2597526759447759
1503957323814,+0.989,+0.128,-0.070,-0.009,+0.278,+0.146,-0.940,-1.625,-0.812,+0.812,-3, -2, -4, -2, -1, -1, -3, -1,-3.1054894007423495,0.2597526759447759
1503957323836,+0.989,+0.128,-0.070,-0.009,+0.264,+0.153,-0.938,-1.938,-0.438,-0.500,-2, -9, -1, -2, -1, -1, 1, 0,-3.1054894007423495,0.2597526759447759
1503957323852,+0.989,+0.128,-0.070,-0.009,+0.265,+0.161,-0.932,-1.875,+1.688,-0.812,0, -1, 0, 1, -1, 0, 2, 2,-3.1054894007423495,0.2597526759447759
1503957323875,+0.989,+0.128,-0.071,-0.008,+0.288,+0.165,-0.927,-1.688,+2.812,-0.375,1, 1, 1, 0, -1, 1, -1, 1,-3.1072283747943783,0.2597048035743079
1503957323896,+0.989,+0.128,-0.071,-0.008,+0.306,+0.155,-0.923,-0.750,+0.875,+0.875,2, 6, -1, 0, -1, -2, -4, -1,-3.1072283747943783,0.2597048035743079
1503957323914,+0.989,+0.128,-0.070,-0.009,+0.298,+0.133,-0.927,-0.375,-1.312,+1.312,-2, -8, -2, -2, -1, -1, 1, -2,-3.1054894007423495,0.2597526759447759
1503957323934,+0.989,+0.128,-0.070,-0.009,+0.270,+0.132,-0.942,-0.312,-2.750,+0.812,0, 0, 0, -2, -1, -2, -1, -4,-3.1054894007423495,0.2597526759447759
1503957323956,+0.989,+0.128,-0.070,-0.009,+0.277,+0.136,-0.933,-0.750,-1.562,-0.062,-1, 0, 0, 0, -2, 0, 1, 0,-3.1054894007423495,0.2597526759447759
1503957323973,+0.989,+0.127,-0.070,-0.009,+0.273,+0.144,-0.936,-1.062,-0.250,+0.125,-1, 1, -2, 0, 0, 0, -3, -1,-3.105612234805962,0.25769076609329566
1503957323995,+0.989,+0.128,-0.070,-0.009,+0.283,+0.150,-0.929,-1.812,-0.562,+0.125,7, 13, 2, 0, 0, -2, 0, 0,-3.1054894007423495,0.2597526759447759
1503957324017,+0.989,+0.127,-0.070,-0.009,+0.281,+0.157,-0.931,-1.812,-1.188,+0.375,0, -1, 0, -1, 0, 0, -1, 0,-3.105612234805962,0.25769076609329566
1503957324032,+0.989,+0.127,-0.070,-0.009,+0.273,+0.151,-0.938,-1.625,+0.375,+0.562,-3, -5, 0, 0, -1, 0, 0, 1,-3.105612234805962,0.25769076609329566
1503957324055,+0.989,+0.127,-0.070,-0.009,+0.266,+0.160,-0.936,-1.188,-0.188,+0.812,-2, -6, -1, -2, 1, -2, -3, -1,-3.105612234805962,0.25769076609329566
1503957324077,+0.989,+0.127,-0.070,-0.009,+0.270,+0.144,-0.925,-0.438,+0.438,-0.125,-2, -1, 0, 1, -1, 0, -1, -1,-3.105612234805962,0.25769076609329566
1503957324092,+0.989,+0.128,-0.070,-0.009,+0.281,+0.143,-0.933,-0.625,+1.500,+1.125,0, 1, 0, -2, -1, 1, -2, -1,-3.1054894007423495,0.2597526759447759
1503957324115,+0.989,+0.128,-0.070,-0.009,+0.300,+0.137,-0.934,-0.875,-0.125,+1.062,-4, 2, 1, 0, 0, -1, 0, -2,-3.1054894007423495,0.2597526759447759
1503957324137,+0.989,+0.128,-0.070,-0.009,+0.294,+0.131,-0.929,-0.812,+0.062,+1.312,-2, -6, 0, 1, 1, -2, 2, 0,-3.1054894007423495,0.2597526759447759
1503957324152,+0.989,+0.127,-0.070,-0.010,+0.279,+0.141,-0.937,-2.000,-2.438,+0.312,3, 3, 0, 0, 0, -2, 0, 1,-3.103613958951389,0.25782741592861685
1503957324175,+0.989,+0.127,-0.070,-0.009,+0.266,+0.155,-0.937,-1.688,-1.312,-0.188,0, 3, 2, 0, 0, -1, 2, -4,-3.105612234805962,0.25769076609329566
1503957324197,+0.989,+0.127,-0.070,-0.009,+0.274,+0.152,-0.937,-1.750,+1.188,-0.375,-1, 2, -1, -1, -1, -1, -2, 0,-3.105612234805962,0.25769076609329566
1503957324212,+0.989,+0.128,-0.070,-0.009,+0.288,+0.148,-0.935,-1.875,+1.250,-0.375,6, 2, -2, -2, -1, 1, -1, 0,-3.1054894007423495,0.2597526759447759
1503957324235,+0.989,+0.128,-0.070,-0.009,+0.274,+0.153,-0.933,-1.438,+1.000,+0.062,-3, -2, -3, -1, 0, 0, -2, -1,-3.1054894007423495,0.2597526759447759
1503957324257,+0.989,+0.128,-0.070,-0.009,+0.279,+0.150,-0.929,-0.875,+0.750,+0.500,-3, -8, -1, -1, 0, -2, 0, -2,-3.1054894007423495,0.2597526759447759
1503957324272,+0.989,+0.128,-0.070,-0.009,+0.289,+0.136,-0.936,-0.375,+0.875,+0.938,1, 0, 1, -2, 0, 1, 0, -2,-3.1054894007423495,0.2597526759447759
1503957324295,+0.989,+0.128,-0.070,-0.009,+0.297,+0.117,-0.935,-0.688,+0.438,+0.812,1, 4, 0, 0, -2, 0, -5, 0,-3.1054894007423495,0.2597526759447759
1503957324317,+0.989,+0.127,-0.070,-0.010,+0.277,+0.140,-0.941,-2.125,-1.312,+0.938,-6, -4, 1, 0, -1, -3, 0, -2,-3.103613958951389,0.25782741592861685
1503957324332,+0.989,+0.127,-0.071,-0.010,+0.260,+0.167,-0.936,-2.375,-1.938,-0.062,-4, -3, -2, -1, -2, 0, -2, 0,-3.1033573769251395,0.25791954185072663
1503957324355,+0.989,+0.127,-0.071,-0.010,+0.279,+0.173,-0.936,-1.625,+1.250,+0.062,-2, 1, -2, -2, 0, 0, 0, -2,-3.1033573769251395,0.25791954185072663
1503957324377,+0.989,+0.128,-0.071,-0.010,+0.292,+0.159,-0.928,-0.875,+1.875,+0.562,-4, -3, -1, -1, -1, -2, -3, -2,-3.103233706855652,0.25998193089863436
1503957324392,+0.989,+0.128,-0.071,-0.010,+0.298,+0.143,-0.938,-0.688,+1.188,+0.875,1, -2, 1, 1, -1, 1, -1, 1,-3.103233706855652,0.25998193089863436
1503957324415,+0.989,+0.128,-0.071,-0.010,+0.291,+0.133,-0.938,-1.438,-0.625,+0.188,0, 1, -1, 0, 1, 0, -1, -1,-3.103233706855652,0.25998193089863436
1503957324444,+0.989,+0.128,-0.071,-0.010,+0.267,+0.153,-0.943,-1.812,-0.812,+0.312,0, -1, -1, -1, -1, -2, 0, 1,-3.103233706855652,0.25998193089863436
1503957324452,+0.989,+0.128,-0.071,-0.010,+0.271,+0.147,-0.928,-0.750,+0.000,+0.500,2, 2, 2, -1, 0, -1, -1, 0,-3.103233706855652,0.25998193089863436
1503957324477,+0.989,+0.128,-0.071,-0.010,+0.280,+0.148,-0.932,-0.188,+0.250,+1.500,2, 12, -2, -1, 0, 0, -4, -1,-3.103233706855652,0.25998193089863436
1503957324497,+0.989,+0.128,-0.070,-0.010,+0.303,+0.134,-0.932,+0.000,+0.938,+1.125,-4, -4, -3, -3, -2, -1, -2, -1,-3.10349217343738,0.25988924939631025
1503957324513,+0.989,+0.128,-0.070,-0.010,+0.291,+0.137,-0.944,-0.750,-0.562,+0.688,-2, -2, 0, 0, -1, -1, 1, -1,-3.10349217343738,0.25988924939631025
1503957324535,+0.989,+0.128,-0.071,-0.010,+0.283,+0.156,-0.931,-1.625,-1.750,-0.938,-2, -4, 0, -1, 0, -1, 0, -2,-3.103233706855652,0.25998193089863436
1503957324557,+0.989,+0.128,-0.071,-0.010,+0.275,+0.154,-0.932,-1.438,+0.500,-0.375,1, 2, 3, -1, -2, 0, -1, -1,-3.103233706855652,0.25998193089863436
1503957324572,+0.989,+0.128,-0.071,-0.010,+0.278,+0.156,-0.931,-1.750,-0.375,+0.062,1, 6, 2, 0, 1, -1, -1, -2,-3.103233706855652,0.25998193089863436
1503957324595,+0.989,+0.128,-0.071,-0.010,+0.281,+0.152,-0.932,-0.812,-0.062,+0.375,5, 5, 0, 0, -1, -1, 0, 0,-3.103233706855652,0.25998193089863436
1503957324617,+0.989,+0.128,-0.071,-0.010,+0.277,+0.147,-0.938,-0.688,+0.375,+0.938,0, 1, 0, 0, 1, -1, 0, 0,-3.103233706855652,0.25998193089863436
1503957324633,+0.989,+0.128,-0.071,-0.010,+0.276,+0.131,-0.936,-0.562,+0.375,+0.500,-1, -3, -1, 0, 0, 0, 0, 0,-3.103233706855652,0.25998193089863436
1503957324655,+0.989,+0.129,-0.070,-0.010,+0.289,+0.133,-0.934,-1.062,+1.562,-0.062,-3, -3, 1, 1, -1, -1, 0, 0,-3.103370668945935,0.2619520642506912
1503957324679,+0.989,+0.129,-0.070,-0.010,+0.301,+0.148,-0.927,-1.125,+0.062,+0.125,-4, -5, -2, 0, -2, -2, -1, -2,-3.103370668945935,0.2619520642506912
1503957324692,+0.989,+0.128,-0.070,-0.010,+0.288,+0.146,-0.937,-1.625,-1.312,+0.250,-3, 4, 0, -3, -1, -1, -2, 0,-3.10349217343738,0.25988924939631025
1503957324716,+0.989,+0.128,-0.071,-0.010,+0.283,+0.167,-0.935,-1.938,-1.500,+0.375,-2, -7, -3, -1, 0, 2, -1, -1,-3.103233706855652,0.25998193089863436
1503957324737,+0.989,+0.128,-0.071,-0.010,+0.280,+0.165,-0.923,-1.000,-0.312,-0.125,-1, -2, 1, -1, 0, -1, 0, -3,-3.103233706855652,0.25998193089863436
1503957324752,+0.989,+0.128,-0.071,-0.010,+0.280,+0.145,-0.930,-0.562,+1.125,-0.062,-1, -3, -3, -1, -1, 0, -1, -3,-3.103233706855652,0.25998193089863436
1503957324775,+0.989,+0.128,-0.071,-0.010,+0.285,+0.140,-0.933,-0.562,-0.250,+0.000,-1, 1, 1, 0, 0, -3, -2, 0,-3.103233706855652,0.25998193089863436
1503957324797,+0.989,+0.128,-0.071,-0.010,+0.269,+0.132,-0.944,-1.125,-1.375,+0.500,-1, -1, -1, 0, 0, 1, 3, 1,-3.103233706855652,0.25998193089863436
1503957324813,+0.989,+0.128,-0.071,-0.010,+0.265,+0.132,-0.935,-1.500,-0.062,+0.438,1, 4, -2, 0, -2, -1, -2, -4,-3.103233706855652,0.25998193089863436
1503957324835,+0.989,+0.128,-0.071,-0.010,+0.285,+0.136,-0.923,-1.562,+2.000,-0.688,0, -7, -1, -3, 0, -2, -1, -4,-3.103233706855652,0.25998193089863436
1503957324857,+0.989,+0.129,-0.071,-0.010,+0.291,+0.149,-0.932,-1.312,+1.312,-0.062,-6, -3, -3, -1, -2, -1, -1, -2,-3.1031103208437765,0.2620453011559679
1503957324872,+0.989,+0.129,-0.071,-0.010,+0.305,+0.148,-0.929,-1.062,+0.250,-0.438,-2, -2, 0, 0, -1, -1, -1, -3,-3.1031103208437765,0.2620453011559679
1503957324895,+0.989,+0.129,-0.071,-0.010,+0.291,+0.159,-0.936,-1.250,-1.812,-0.125,0, -2, -2, -1, -2, 0, 0, -2,-3.1031103208437765,0.2620453011559679
1503957324918,+0.989,+0.128,-0.071,-0.010,+0.269,+0.167,-0.945,-1.125,-2.125,+0.188,-1, 4, -2, -1, -1, 0, -2, 1,-3.103233706855652,0.25998193089863436
1503957324932,+0.989,+0.128,-0.071,-0.010,+0.277,+0.151,-0.929,-0.812,-0.312,-0.062,2, 2, 0, -2, -1, -2, 3, 2,-3.103233706855652,0.25998193089863436
1503957324955,+0.989,+0.128,-0.071,-0.010,+0.273,+0.144,-0.938,-0.375,+0.750,+0.375,-3, -7, -1, -2, 0, -2, -1, -2,-3.103233706855652,0.25998193089863436
1503957324977,+0.989,+0.128,-0.071,-0.010,+0.292,+0.129,-0.937,-0.562,+0.125,+0.188,2, 1, 0, 0, 0, 1, 0, 1,-3.103233706855652,0.25998193089863436
1503957324992,+0.989,+0.128,-0.071,-0.010,+0.290,+0.125,-0.933,-1.062,-0.562,+0.250,0, -2, -2, 0, 0, 0, -2, 1,-3.103233706855652,0.25998193089863436
1503957325015,+0.989,+0.128,-0.071,-0.010,+0.291,+0.135,-0.936,-1.125,-1.250,+0.438,-2, -7, 0, 1, -1, -2, -3, -2,-3.103233706855652,0.25998193089863436
1503957325037,+0.989,+0.128,-0.071,-0.011,+0.286,+0.148,-0.933,-1.562,-2.000,+1.375,-3, -1, 1, 1, -2, -2, 1, -1,-3.101236824121945,0.26012047924351417
1503957325052,+0.989,+0.127,-0.071,-0.011,+0.268,+0.146,-0.938,-1.250,-2.438,+0.062,-3, -6, -2, -4, -2, 0, 0, -3,-3.101359444587723,0.25805816783804525
1503957325074,+0.989,+0.127,-0.071,-0.010,+0.270,+0.155,-0.931,-1.750,+1.625,-1.125,-1, -2, -1, 0, -1, -1, -1, -4,-3.1033573769251395,0.25791954185072663
1503957325096,+0.989,+0.128,-0.071,-0.010,+0.292,+0.161,-0.929,-2.000,+0.938,-1.500,3, 3, -1, -1, -2, 0, -1, 0,-3.103233706855652,0.25998193089863436
1503957325111,+0.989,+0.128,-0.071,-0.010,+0.289,+0.162,-0.934,-1.375,-0.250,+0.062,-4, -1, -1, -2, 0, 0, -3, -1,-3.103233706855652,0.25998193089863436
1503957325133,+0.989,+0.128,-0.071,-0.010,+0.286,+0.152,-0.925,-0.875,-1.375,+0.812,-1, -1, -1, 0, -1, 0, -3, -1,-3.103233706855652,0.25998193089863436
1503957325156,+0.989,+0.127,-0.071,-0.010,+0.268,+0.146,-0.933,-0.375,-1.312,+1.000,2, 5, 1, 1, -1, -1, -1, 0,-3.1033573769251395,0.25791954185072663
1503957325171,+0.989,+0.127,-0.071,-0.010,+0.255,+0.135,-0.943,-0.062,-0.750,+0.438,-4, -8, -1, -2, -1, -3, -3, -3,-3.1033573769251395,0.25791954185072663
1503957325194,+0.989,+0.127,-0.071,-0.010,+0.279,+0.124,-0.933,-0.562,+1.250,-0.312,1, 2, 1, 1, -1, 1, 0, 0,-3.1033573769251395,0.25791954185072663
1503957325217,+0.989,+0.128,-0.071,-0.010,+0.292,+0.134,-0.930,-0.875,+0.250,+0.438,-1, 0, -1, -1, -1, 1, -1, -1,-3.103233706855652,0.25998193089863436
1503957325231,+0.989,+0.128,-0.071,-0.010,+0.299,+0.143,-0.933,-1.688,-0.438,+0.062,-1, 1, 0, 0, 0, -1, 3, -2,-3.103233706855652,0.25998193089863436
1503957325254,+0.989,+0.127,-0.071,-0.010,+0.286,+0.153,-0.938,-1.812,-2.000,+0.250,3, 1, -2, -1, -1, -2, -1, 1,-3.1033573769251395,0.25791954185072663
1503957325276,+0.989,+0.127,-0.071,-0.010,+0.260,+0.168,-0.938,-1.625,-2.125,-0.062,-1, 0, -3, -2, -1, 0, -1, -1,-3.1033573769251395,0.25791954185072663
1503957325291,+0.989,+0.127,-0.071,-0.010,+0.270,+0.159,-0.932,-0.500,+1.000,-1.062,-1, 5, 0, -2, 0, -2, 1, -2,-3.1033573769251395,0.25791954185072663
1503957325313,+0.989,+0.127,-0.071,-0.010,+0.284,+0.140,-0.938,-0.375,+1.625,-0.750,-1, -3, -1, 0, -1, -1, -2, 0,-3.1033573769251395,0.25791954185072663
1503957325336,+0.989,+0.127,-0.071,-0.010,+0.284,+0.135,-0.934,-0.812,-1.000,+0.750,-1, -1, -1, -4, -1, -1, -2, -1,-3.1033573769251395,0.25791954185072663
1503957325351,+0.989,+0.127,-0.071,-0.010,+0.274,+0.144,-0.936,-1.875,-1.062,+1.312,0, 2, 0, 0, -1, 0, -1, 1,-3.1033573769251395,0.25791954185072663
1503957325373,+0.989,+0.127,-0.071,-0.011,+0.272,+0.153,-0.929,-1.188,-0.188,+1.312,0, 2, -1, 2, 0, 0, -1, -2,-3.101359444587723,0.25805816783804525
1503957325396,+0.989,+0.127,-0.071,-0.011,+0.268,+0.149,-0.932,-0.312,+1.000,+0.312,-1, -4, -2, 0, 0, -1, -1, -1,-3.101359444587723,0.25805816783804525
1503957325411,+0.989,+0.127,-0.071,-0.011,+0.292,+0.139,-0.933,+0.562,+1.812,-0.438,-2, -4, -2, -3, -2, -1, -1, 0,-3.101359444587723,0.25805816783804525
1503957325433,+0.989,+0.127,-0.071,-0.011,+0.303,+0.132,-0.930,-0.750,+1.062,-0.562,-4, -4, 0, 1, 1, -1, 1, -1,-3.101359444587723,0.25805816783804525
1503957325456,+0.989,+0.127,-0.071,-0.011,+0.302,+0.143,-0.935,-2.062,-2.000,+0.750,0, 2, -1, -1, 0, 0, -3, -3,-3.101359444587723,0.25805816783804525
1503957325471,+0.989,+0.127,-0.071,-0.011,+0.280,+0.165,-0.926,-2.938,-2.125,+0.375,-4, -5, -3, -2, -1, 2, -1, -2,-3.101359444587723,0.25805816783804525
1503957325493,+0.989,+0.127,-0.072,-0.011,+0.262,+0.176,-0.934,-1.625,-1.000,+0.688,0, 0, 0, 1, -2, -1, -1, -2,-3.1011029079718058,0.2581533618219495
1503957325517,+0.989,+0.127,-0.072,-0.011,+0.257,+0.159,-0.939,-0.312,-0.312,-0.188,-2, -6, -1, 0, -1, 0, 0, 1,-3.1011029079718058,0.2581533618219495
1503957325532,+0.989,+0.127,-0.071,-0.011,+0.269,+0.134,-0.941,+0.125,+2.500,+0.688,1, -2, 0, -2, -2, -2, -3, 1,-3.101359444587723,0.25805816783804525
1503957325554,+0.989,+0.128,-0.071,-0.011,+0.293,+0.120,-0.932,-0.500,+2.688,+0.938,0, -3, 1, 2, 0, -1, 0, 0,-3.101236824121945,0.26012047924351417
1503957325576,+0.989,+0.128,-0.070,-0.011,+0.305,+0.128,-0.934,-1.000,+1.188,+0.812,3, 1, 0, -1, -1, 2, 1, 0,-3.101495250192174,0.2600258129291575
1503957325592,+0.989,+0.128,-0.070,-0.011,+0.288,+0.146,-0.933,-1.312,-0.812,+0.375,-3, -1, -2, 1, -2, -1, 0, -3,-3.101495250192174,0.2600258129291575
1503957325613,+0.989,+0.128,-0.070,-0.011,+0.275,+0.157,-0.936,-1.750,+0.125,+0.000,0, 2, -2, -3, -1, -1, -1, 0,-3.101495250192174,0.2600258129291575
1503957325636,+0.989,+0.128,-0.071,-0.011,+0.287,+0.168,-0.934,-2.000,+1.125,+0.062,3, 2, 0, -1, 1, -2, 0, 2,-3.101236824121945,0.26012047924351417
1503957325652,+0.989,+0.128,-0.071,-0.011,+0.287,+0.164,-0.932,-1.250,+0.688,+0.750,-1, 0, -1, -1, 0, -1, 0, 0,-3.101236824121945,0.26012047924351417
1503957325673,+0.989,+0.128,-0.070,-0.011,+0.298,+0.137,-0.926,+0.438,+0.375,+0.875,-5, -5, -5, -2, -2, 0, -3, -1,-3.101495250192174,0.2600258129291575
1503957325696,+0.989,+0.129,-0.069,-0.011,+0.289,+0.096,-0.945,+2.375,+2.250,-2.812,0, 3, 1, 0, 0, -1, -1, 1,-3.1016351145490875,0.261994426811292
1503957325719,+0.989,+0.128,-0.069,-0.011,+0.241,+0.116,-0.950,-2.188,+0.188,+1.188,0, 4, 3, 1, 0, 1, 0, 0,-3.101753681621119,0.25993223499196116
1503957325733,+0.989,+0.129,-0.069,-0.011,+0.261,+0.130,-0.936,-3.000,+2.938,+0.438,-2, -6, -3, -2, -1, 0, 0, -1,-3.1016351145490875,0.261994426811292
1503957325756,+0.989,+0.130,-0.070,-0.011,+0.298,+0.161,-0.920,-3.125,+4.875,+0.188,-1, -2, -1, -1, -1, 0, -2, -2,-3.101254642649714,0.26415227567015515
1503957325779,+0.989,+0.131,-0.070,-0.011,+0.333,+0.170,-0.925,-1.875,+2.750,-0.062,-3, 0, 0, 1, -1, -1, -1, -2,-3.101134773424655,0.2662169944549914
1503957325794,+0.989,+0.131,-0.070,-0.011,+0.320,+0.166,-0.927,-1.375,-0.438,-0.812,-2, 2, 2, 0, -1, -1, -1, -5,-3.101134773424655,0.2662169944549914
1503957325816,+0.989,+0.131,-0.070,-0.011,+0.297,+0.162,-0.919,-0.875,-1.125,-2.188,3, -5, -3, -2, -1, -2, 0, 1,-3.101134773424655,0.2662169944549914
1503957325838,+0.989,+0.131,-0.070,-0.010,+0.299,+0.162,-0.926,-0.375,-2.000,-2.062,-1, 4, 0, 0, 0, -2, -2, -3,-3.103128507151899,0.26608066426712146
1503957325862,+0.989,+0.130,-0.070,-0.010,+0.293,+0.162,-0.938,+1.062,-3.438,-1.125,-3, -5, -1, -1, -1, -1, -1, 2,-3.1032494465096034,0.2640158670358363
1503957325876,+0.989,+0.129,-0.070,-0.010,+0.259,+0.139,-0.932,+1.625,-3.438,-0.250,-1, -3, -1, 0, -1, -1, -1, -3,-3.103370668945935,0.2619520642506912
1503957325892,+0.989,+0.128,-0.069,-0.010,+0.237,+0.129,-0.948,+0.750,-1.375,-0.688,-1, -2, -1, -1, -1, 0, -1, -1,-3.1037506451122763,0.25979765481462935
1503957325913,+0.989,+0.129,-0.069,-0.010,+0.273,+0.127,-0.927,-0.500,+1.438,-0.188,-3, 0, -2, -2, -2, -3, 1, -1,-3.10363102223218,0.26185992255784896
1503957325936,+0.989,+0.129,-0.069,-0.010,+0.287,+0.146,-0.937,-1.250,-0.375,+1.438,-3, -1, 1, -1, -2, 0, 0, -1,-3.10363102223218,0.26185992255784896
1503957325953,+0.989,+0.129,-0.069,-0.011,+0.308,+0.150,-0.927,-1.125,-1.188,+1.812,0, -1, 0, -1, 0, -2, 0, -1,-3.1016351145490875,0.261994426811292
1503957325973,+0.989,+0.129,-0.069,-0.011,+0.304,+0.142,-0.933,-0.625,-1.062,+0.688,-1, 2, -2, -2, -2, -1, -2, -1,-3.1016351145490875,0.261994426811292
1503957325996,+0.989,+0.128,-0.069,-0.011,+0.255,+0.145,-0.946,-0.688,-1.938,+0.188,0, -2, -1, 0, 0, -1, 1, -1,-3.101753681621119,0.25993223499196116
1503957326012,+0.989,+0.128,-0.069,-0.010,+0.261,+0.139,-0.934,-1.250,-0.812,-1.500,-1, -3, -1, -2, 0, 0, -4, -1,-3.1037506451122763,0.25979765481462935
1503957326033,+0.989,+0.128,-0.069,-0.010,+0.273,+0.152,-0.930,-1.062,+3.000,+0.250,2, 0, 1, -1, -2, 1, 0, -1,-3.1037506451122763,0.25979765481462935
1503957326056,+0.989,+0.128,-0.069,-0.010,+0.300,+0.143,-0.935,-1.375,+0.875,+0.875,-3, 0, 0, -2, -1, 0, -1, 0,-3.1037506451122763,0.25979765481462935
1503957326072,+0.989,+0.129,-0.069,-0.011,+0.310,+0.126,-0.932,-0.875,-0.375,+1.188,0, -3, 0, 1, 0, 0, 1, -1,-3.1016351145490875,0.261994426811292
1503957326094,+0.989,+0.128,-0.069,-0.011,+0.292,+0.130,-0.935,-1.562,-2.312,+0.375,-3, -9, -5, -4, -1, -2, -4, -1,-3.101753681621119,0.25993223499196116
1503957326123,+0.989,+0.128,-0.069,-0.011,+0.269,+0.149,-0.930,-2.000,-2.812,-0.375,5, 2, -1, -1, 0, 0, 0, 1,-3.101753681621119,0.25993223499196116
1503957326132,+0.989,+0.128,-0.069,-0.011,+0.264,+0.170,-0.940,-2.188,-0.562,-0.625,0, 2, -1, 0, -1, 0, 0, 0,-3.101753681621119,0.25993223499196116
1503957326156,+0.989,+0.128,-0.069,-0.011,+0.278,+0.164,-0.930,-1.875,+0.625,+0.562,-2, 0, 0, -2, -3, -2, -2, -1,-3.101753681621119,0.25993223499196116
1503957326176,+0.989,+0.128,-0.069,-0.011,+0.291,+0.154,-0.926,-1.312,+0.125,+0.750,6, 2, 0, 1, 0, 0, 2, 1,-3.101753681621119,0.25993223499196116
1503957326192,+0.989,+0.128,-0.069,-0.011,+0.293,+0.147,-0.939,-0.625,-0.188,+0.750,-4, 0, -1, 0, 0, -2, 0, -3,-3.101753681621119,0.25993223499196116
1503957326213,+0.989,+0.127,-0.069,-0.011,+0.278,+0.137,-0.929,-0.250,-1.250,+0.125,-2, -3, 0, 1, -3, -1, -2, 0,-3.1018725336815924,0.25787102408243073
1503957326236,+0.989,+0.127,-0.069,-0.011,+0.265,+0.129,-0.931,-0.062,-0.500,-0.375,1, 0, -1, -3, 1, 0, -1, -1,-3.1018725336815924,0.25787102408243073
1503957326252,+0.989,+0.127,-0.069,-0.011,+0.278,+0.128,-0.937,-1.188,-0.125,+0.750,0, 7, 0, -1, -2, -2, -3, -2,-3.1018725336815924,0.25787102408243073
1503957326273,+0.989,+0.127,-0.069,-0.011,+0.293,+0.136,-0.941,-1.625,-0.688,+1.000,-3, -5, 1, 0, 0, -1, 1, 0,-3.1018725336815924,0.25787102408243073
1503957326296,+0.989,+0.128,-0.069,-0.011,+0.286,+0.149,-0.935,-2.312,-0.250,+1.500,-2, 4, -1, -1, -1, 0, -3, 0,-3.101753681621119,0.25993223499196116
1503957326312,+0.989,+0.127,-0.070,-0.011,+0.264,+0.164,-0.940,-1.562,-1.750,+0.188,2, 3, 0, -1, 2, 1, -1, -1,-3.101615986502187,0.25796405591654287
1503957326334,+0.989,+0.127,-0.070,-0.011,+0.265,+0.157,-0.931,-1.312,+1.750,-0.625,-6, 0, -2, -1, -3, -1, -2, -3,-3.101615986502187,0.25796405591654287
1503957326358,+0.989,+0.128,-0.070,-0.011,+0.290,+0.141,-0.932,-1.312,+1.688,-0.125,-4, -5, -3, 0, 0, -2, -1, -2,-3.101495250192174,0.2600258129291575
1503957326372,+0.989,+0.128,-0.070,-0.011,+0.302,+0.147,-0.929,-1.375,+0.312,+0.500,-2, -4, -1, -2, -1, 0, -1, -2,-3.101495250192174,0.2600258129291575
1503957326395,+0.989,+0.128,-0.070,-0.011,+0.302,+0.136,-0.924,-1.188,-1.188,+1.000,2, 3, 1, 2, 0, -2, -4, -1,-3.101495250192174,0.2600258129291575
1503957326416,+0.989,+0.127,-0.070,-0.011,+0.279,+0.153,-0.935,-1.188,-2.438,+0.188,1, 1, 1, -2, -2, 1, 1, 1,-3.101615986502187,0.25796405591654287
1503957326432,+0.989,+0.127,-0.070,-0.011,+0.256,+0.147,-0.931,-0.562,-1.625,+0.000,-2, -6, -2, -1, -2, 0, 1, -3,-3.101615986502187,0.25796405591654287
1503957326453,+0.989,+0.127,-0.070,-0.011,+0.270,+0.137,-0.934,-0.750,+0.562,-0.562,0, -4, -1, 0, 0, -2, 1, 0,-3.101615986502187,0.25796405591654287
1503957326476,+0.989,+0.127,-0.070,-0.011,+0.293,+0.143,-0.933,-1.375,+1.250,+0.625,0, 2, 0, -1, -3, -2, -1, 0,-3.101615986502187,0.25796405591654287
1503957326499,+0.989,+0.127,-0.070,-0.011,+0.309,+0.154,-0.929,-1.875,-1.188,+0.438,1, 2, 1, -2, 0, -1, 1, 0,-3.101615986502187,0.25796405591654287
1503957326514,+0.989,+0.127,-0.070,-0.011,+0.299,+0.153,-0.921,-1.188,-1.938,+0.188,-2, 2, 0, 0, 0, -1, 0, -1,-3.101615986502187,0.25796405591654287
1503957326536,+0.989,+0.127,-0.070,-0.011,+0.269,+0.164,-0.936,-0.938,-2.750,-0.062,0, -2, -2, -1, 0, 0, -2, -1,-3.101615986502187,0.25796405591654287
1503957326559,+0.989,+0.126,-0.070,-0.011,+0.250,+0.152,-0.940,-0.312,-1.438,-0.125,2, -5, -3, -1, -1, -1, -1, -2,-3.101737009817887,0.2559032730573128
1503957326573,+0.989,+0.126,-0.070,-0.011,+0.263,+0.136,-0.936,-0.562,+1.188,-0.062,-3, 4, 1, -2, -1, 0, 0, 0,-3.101737009817887,0.2559032730573128
1503957326596,+0.989,+0.126,-0.070,-0.011,+0.276,+0.127,-0.939,-1.500,+1.062,+0.812,5, -4, -2, 0, 0, -1, -3, -1,-3.101737009817887,0.2559032730573128
1503957326618,+0.989,+0.126,-0.070,-0.011,+0.292,+0.134,-0.931,-1.562,+0.125,+0.875,-2, -2, 0, 1, -1, -1, -2, -1,-3.101737009817887,0.2559032730573128
1503957326634,+0.989,+0.126,-0.070,-0.011,+0.284,+0.137,-0.934,-0.812,+1.000,+0.438,0, -5, -1, 0, 0, 0, 1, -1,-3.101737009817887,0.2559032730573128
1503957326659,+0.989,+0.126,-0.070,-0.011,+0.273,+0.151,-0.937,-1.250,+0.375,+0.125,0, 0, -2, 0, -1, -2, -1, -1,-3.101737009817887,0.2559032730573128
1503957326678,+0.989,+0.126,-0.070,-0.011,+0.280,+0.151,-0.936,-1.625,+0.312,-0.438,5, -5, -4, -1, 1, -1, 0, -1,-3.101737009817887,0.2559032730573128
1503957326694,+0.989,+0.127,-0.070,-0.011,+0.286,+0.158,-0.926,-2.250,+1.812,+0.062,-1, 6, 1, 0, -1, -1, 0, -1,-3.101615986502187,0.25796405591654287
1503957326716,+0.989,+0.127,-0.070,-0.011,+0.295,+0.167,-0.934,-2.000,-0.250,+0.062,1, -1, -2, -2, 0, -2, -2, 0,-3.101615986502187,0.25796405591654287
1503957326739,+0.989,+0.127,-0.070,-0.011,+0.284,+0.163,-0.934,-0.938,-1.062,+0.062,-2, -5, -3, 0, -2, -1, -1, 0,-3.101615986502187,0.25796405591654287
1503957326753,+0.989,+0.127,-0.070,-0.011,+0.268,+0.151,-0.937,-0.625,-0.562,+0.812,1, 1, -1, -1, -1, -1, -1, 0,-3.101615986502187,0.25796405591654287
1503957326776,+0.989,+0.127,-0.070,-0.011,+0.267,+0.138,-0.936,-0.875,+0.562,+0.312,-3, -2, 0, -2, -1, 0, -2, -1,-3.101615986502187,0.25796405591654287
1503957326798,+0.989,+0.127,-0.070,-0.011,+0.265,+0.130,-0.938,-0.438,+0.750,+0.938,-2, 1, 1, 0, -2, 0, 0, -2,-3.101615986502187,0.25796405591654287
1503957326814,+0.989,+0.127,-0.070,-0.011,+0.284,+0.119,-0.931,-0.438,+0.250,+1.188,-1, -3, -2, -1, 0, -1, 0, -1,-3.101615986502187,0.25796405591654287
1503957326836,+0.989,+0.127,-0.070,-0.011,+0.294,+0.131,-0.935,-1.188,+0.750,+1.062,-1, -3, -2, -1, -1, -3, -2, -3,-3.101615986502187,0.25796405591654287
1503957326860,+0.989,+0.127,-0.070,-0.012,+0.305,+0.137,-0.941,-2.188,-0.438,+0.250,1, 0, -2, -1, 1, 0, 0, 1,-3.099618333336888,0.2581006860530364
1503957326874,+0.989,+0.127,-0.070,-0.012,+0.283,+0.153,-0.937,-3.250,-1.688,+0.188,-11, -3, 1, 0, -4, -1, -2, -4,-3.099618333336888,0.2581006860530364
1503957326896,+0.989,+0.126,-0.071,-0.012,+0.257,+0.174,-0.935,-2.812,-1.250,+0.062,0, 4, 2, -1, 0, 0, 0, -2,-3.09948370083432,0.2561355232895654
1503957326918,+0.989,+0.126,-0.071,-0.012,+0.255,+0.166,-0.928,-1.188,+1.375,+0.000,-1, 1, 0, -1, 1, 0, 0, -2,-3.09948370083432,0.2561355232895654
1503957326936,+0.989,+0.127,-0.071,-0.011,+0.276,+0.144,-0.940,-0.125,+2.500,-0.188,-3, 0, -1, 0, 0, 0, 0, -1,-3.101359444587723,0.25805816783804525
1503957326956,+0.989,+0.127,-0.071,-0.012,+0.298,+0.122,-0.938,-0.250,+1.000,+0.375,-1, -5, -2, -1, -1, -1, -3, -1,-3.099361833572122,0.25819678368162025
1503957326986,+0.989,+0.127,-0.071,-0.012,+0.296,+0.121,-0.933,-2.312,-0.125,+0.812,-1, -1, -1, -1, -1, 0, 0, 2,-3.099361833572122,0.25819678368162025
1503957327001,+0.989,+0.127,-0.071,-0.012,+0.291,+0.150,-0.932,-2.812,-1.688,+0.312,4, 5, 1, 0, 1, 0, 0, 2,-3.099361833572122,0.25819678368162025
1503957327016,+0.989,+0.127,-0.071,-0.012,+0.272,+0.165,-0.932,-1.938,-1.250,+0.438,-2, -7, -7, -3, 0, -1, -3, -2,-3.099361833572122,0.25819678368162025
1503957327038,+0.989,+0.127,-0.071,-0.012,+0.269,+0.156,-0.933,-1.125,+0.000,-0.062,-5, -2, 1, 0, 0, -1, -1, -4,-3.099361833572122,0.25819678368162025
1503957327054,+0.989,+0.127,-0.071,-0.012,+0.287,+0.148,-0.941,-0.688,+1.625,-0.750,0, 1, -2, 1, -1, -2, -1, 1,-3.099361833572122,0.25819678368162025
1503957327082,+0.989,+0.127,-0.071,-0.012,+0.286,+0.149,-0.937,-1.500,-1.125,+0.625,0, -1, -1, -1, -1, 0, 0, -1,-3.099361833572122,0.25819678368162025
1503957327098,+0.989,+0.127,-0.072,-0.012,+0.279,+0.145,-0.931,-2.250,-1.812,+0.750,4, 2, 0, 0, -1, -3, 1, 0,-3.0991053393674526,0.25829396485095396
1503957327114,+0.989,+0.127,-0.072,-0.012,+0.271,+0.150,-0.928,-1.312,-0.125,+0.812,0, -2, -1, -2, -4, 1, -4, 0,-3.0991053393674526,0.25829396485095396
1503957327137,+0.989,+0.127,-0.072,-0.012,+0.268,+0.156,-0.934,-0.688,+0.562,+0.500,2, 3, 1, 0, -1, 0, 0, 0,-3.0991053393674526,0.25829396485095396
1503957327158,+0.989,+0.127,-0.071,-0.012,+0.281,+0.135,-0.929,+0.438,+1.438,-0.125,-3, -7, -4, -3, 2, -2, -2, -3,-3.099361833572122,0.25819678368162025
1503957327174,+0.989,+0.127,-0.071,-0.012,+0.287,+0.118,-0.938,-1.062,+0.750,+1.125,1, -1, -1, 0, -1, 0, 0, 0,-3.099361833572122,0.25819678368162025
1503957327200,+0.989,+0.127,-0.071,-0.012,+0.301,+0.134,-0.929,-1.938,-0.875,+0.438,0, 0, -2, -2, -1, -1, -2, -1,-3.099361833572122,0.25819678368162025
1503957327218,+0.989,+0.127,-0.071,-0.012,+0.292,+0.165,-0.925,-2.062,-1.062,+0.812,0, 2, 2, 0, -1, -1, 0, -2,-3.099361833572122,0.25819678368162025
1503957327234,+0.989,+0.127,-0.071,-0.012,+0.264,+0.175,-0.942,-1.375,-2.375,+0.250,0, 0, -1, -1, -1, 0, 0, -2,-3.099361833572122,0.25819678368162025
1503957327256,+0.989,+0.127,-0.071,-0.012,+0.269,+0.145,-0.940,-0.500,+1.750,+0.000,-4, -1, 0, -1, -3, -3, 0, -3,-3.099361833572122,0.25819678368162025
1503957327278,+0.989,+0.127,-0.071,-0.012,+0.272,+0.130,-0.936,-1.438,+2.188,+0.375,-1, -4, -3, 1, 0, 0, -2, 2,-3.099361833572122,0.25819678368162025
1503957327295,+0.989,+0.128,-0.071,-0.012,+0.288,+0.140,-0.935,-1.938,+1.688,-0.375,-1, 4, -1, -1, -2, -1, -1, 1,-3.0992402633517417,0.2602590173712851
1503957327316,+0.989,+0.128,-0.071,-0.012,+0.292,+0.146,-0.940,-1.250,+0.812,+0.250,-2, 0, 0, -1, -1, -1, -1, -3,-3.0992402633517417,0.2602590173712851
1503957327338,+0.989,+0.127,-0.071,-0.013,+0.280,+0.164,-0.933,-1.375,-1.188,+1.188,5, 0, 2, 0, 1, -1, 3, 1,-3.0973645597395874,0.2583353893772389
1503957327354,+0.989,+0.127,-0.071,-0.013,+0.276,+0.149,-0.938,-0.562,-0.812,+1.500,-1, -6, -2, 0, 0, -1, -1, 0,-3.0973645597395874,0.2583353893772389
1503957327376,+0.989,+0.128,-0.071,-0.013,+0.289,+0.140,-0.931,-1.062,+2.250,+1.125,2, 15, 3, 1, -2, -1, -2, 0,-3.097244040380806,0.2603975452777601
1503957327398,+0.989,+0.128,-0.071,-0.013,+0.300,+0.145,-0.928,-1.500,+1.562,+0.250,-5, -8, -1, -1, -2, -1, 0, -3,-3.097244040380806,0.2603975452777601
1503957327414,+0.989,+0.128,-0.071,-0.013,+0.305,+0.145,-0.938,-1.312,-0.750,-0.500,0, 2, -3, 0, 0, 0, -1, 1,-3.097244040380806,0.2603975452777601
1503957327436,+0.989,+0.128,-0.072,-0.013,+0.275,+0.156,-0.931,-2.688,-1.875,+2.125,-1, 0, -1, -1, -2, -3, -2, -2,-3.096985707406841,0.26049727364076997
1503957327458,+0.989,+0.128,-0.073,-0.014,+0.231,+0.188,-0.896,-4.875,-0.188,+2.875,-2, -4, 1, -2, 0, -1, 1, -2,-3.0947316051470937,0.2607405873259985
1503957327474,+0.989,+0.129,-0.073,-0.014,+0.240,+0.172,-0.940,-2.125,+13.375,+3.500,1, 0, -1, -2, 0, -1, -3, 1,-3.094608689896165,0.2628047699598915
1503957327499,+0.988,+0.133,-0.071,-0.013,+0.447,+0.022,-0.980,-0.250,+15.438,-7.625,0, -2, 0, 0, 0, -2, -1, 0,-3.0964926151870196,0.270464385916269
1503957327518,+0.988,+0.135,-0.073,-0.013,+0.392,+0.199,-0.966,-7.812,+5.812,-0.500,3, 2, -2, 0, -2, -2, -2, 0,-3.0957097830357725,0.2748063967103542
1503957327536,+0.988,+0.135,-0.076,-0.015,+0.130,+0.473,-1.024,+2.188,+9.125,+13.438,-1, -2, 6, 23, 12, 2, -1, 1,-3.090904772077508,0.27542327008172307
1503957327556,+0.988,+0.135,-0.073,-0.018,-0.033,+0.495,-1.019,+34.125,+23.000,+32.625,1, 0, 0, -10, -6, -1, 0, -1,-3.085743162320743,0.27551593137453245
1503957327578,+0.987,+0.147,-0.069,-0.019,+0.469,+0.374,-0.977,+38.188,+59.375,+17.562,-5, -5, 0, 0, 0, 0, 1, 0,-3.0833743659317596,0.2997862318291552
1503957327594,+0.984,+0.164,-0.058,-0.021,+0.777,+0.241,-1.092,+68.000,+74.625,+25.000,0, 5, 14, 18, 8, 2, 3, 5,-3.0807250315947745,0.333228507696563
1503957327616,+0.983,+0.180,-0.035,-0.023,+0.807,+0.556,-1.292,+139.312,+86.125,+41.438,1, -1, -3, 3, 2, -2, 3, 8,-3.083687462094635,0.36412562414412736
1503957327638,+0.980,+0.198,-0.005,-0.023,+0.707,+0.341,-1.196,+178.562,+101.062,+42.375,7, 24, 23, 14, 11, 4, -1, 5,-3.094530129304879,0.39879185096684755
1503957327654,+0.975,+0.217,+0.029,-0.031,+0.734,+0.094,-1.522,+195.875,+110.438,+87.125,-4, -10, -15, -19, -17, -10, -15, -19,-3.0935458204571606,0.43610025641451255
1503957327676,+0.966,+0.245,+0.063,-0.044,+0.950,-0.387,-1.697,+182.000,+168.438,+115.438,-7, -8, -39, -22, -2, -2, -11, -4,-3.08676112734421,0.4923852533277854
1503957327700,+0.960,+0.252,+0.109,-0.058,+0.915,-0.344,-1.124,+240.312,+36.750,+144.125,-1, 14, -69, 32, 12, 7, 11, 6,-3.0835014849505877,0.5065598532725714
1503957327714,+0.950,+0.260,+0.157,-0.071,+0.972,-0.270,-0.830,+261.000,+45.188,+145.500,-19, -12, 4, -34, -17, -12, 0, -2,-3.085005608254749,0.5244037646678243
1503957327739,+0.937,+0.269,+0.204,-0.088,+0.757,-0.789,-0.899,+246.250,+62.062,+159.438,0, -16, 7, 25, 17, 7, 17, -8,-3.08042507689258,0.5451436388710822
1503957327758,+0.922,+0.276,+0.249,-0.107,+0.620,-0.716,-0.947,+241.062,+63.750,+179.562,-12, -16, 21, 4, -4, 3, 11, -3,-3.071492343782808,0.5619502963850499
1503957327775,+0.902,+0.288,+0.295,-0.125,+0.516,-0.298,-0.775,+260.125,+98.375,+164.625,6, -9, 6, 0, 6, 5, 14, 10,-3.071627252878846,0.5940203803992168
1503957327796,+0.879,+0.300,+0.342,-0.143,+0.488,-0.426,-0.427,+267.812,+99.938,+176.000,-6, -9, 18, 0, 1, 0, -7, -12,-3.0779874782769743,0.6325289563799118
1503957327818,+0.854,+0.311,+0.385,-0.162,+0.419,-0.921,-0.305,+243.312,+96.938,+173.250,4, 0, 4, -8, -6, -6, -10, 1,-3.0845659393028426,0.6727794148609022
1503957327835,+0.829,+0.322,+0.420,-0.181,+0.310,-1.164,-0.325,+203.750,+111.125,+155.375,18, 20, 7, -10, -6, -11, -14, 6,-3.090733397210814,0.7149317768071091
1503957327856,+0.804,+0.333,+0.450,-0.201,+0.229,-0.940,-0.357,+178.500,+121.688,+150.438,6, -5, -3, 0, -2, 3, -10, -8,-3.095943193803189,0.7597671207175376
1503957327878,+0.779,+0.343,+0.477,-0.221,+0.134,-0.647,-0.261,+166.938,+118.812,+147.750,-8, -5, 1, 3, 0, -1, -1, -2,-3.103533620356578,0.8073717456898645
1503957327894,+0.756,+0.351,+0.499,-0.237,+0.129,-0.655,-0.017,+138.625,+99.812,+124.875,4, 12, 4, 2, 1, 6, 2, 11,-3.1209369598296446,0.8554746866256417
1503957327916,+0.739,+0.356,+0.515,-0.249,+0.155,-0.651,+0.048,+103.375,+67.562,+95.062,17, -7, 3, -3, -1, 2, 7, 5,-3.137710851697472,0.8953332233828574
1503957327943,+0.728,+0.355,+0.529,-0.254,+0.254,-0.542,-0.058,+80.125,+12.312,+79.000,16, 16, 13, 5, -4, -2, -6, -3,3.1231150536674877,0.9217552578809695
1503957327956,+0.718,+0.351,+0.541,-0.262,-0.052,-0.534,-0.119,+63.375,+15.062,+70.938,-11, -7, -1, -1, -1, 2, -4, -2,3.1287982535531844,0.9191564765326278
1503957327977,+0.710,+0.347,+0.550,-0.271,-0.376,-0.568,-0.030,+35.812,+21.375,+41.500,-4, 33, 12, 8, -2, -2, -14, -3,-3.129064094389638,0.9008668860770818
1503957327998,+0.703,+0.346,+0.557,-0.276,-0.278,-0.554,+0.118,+27.938,+20.125,+24.812,2, 10, 2, 10, 11, 4, -5, -11,-3.1301294734735716,0.9068414491549333
1503957328014,+0.699,+0.351,+0.554,-0.287,+0.133,-0.623,-0.350,+4.938,+69.312,+31.000,3, -20, -8, -9, -14, -22, -5, -1,-3.0865598187396017,0.8904163703824997
1503957328037,+0.691,+0.359,+0.551,-0.300,+0.071,-0.592,-0.016,-1.938,+92.438,+28.500,-12, -5, -1, -2, -3, -8, -4, -21,-3.0525953718010395,0.886531124999114
1503957328058,+0.685,+0.363,+0.549,-0.312,-0.070,-0.800,+0.118,-18.875,+75.250,+26.312,-24, -58, -9, -24, -22, -1, 13, 1,-2.9996443091858294,0.8583421556640601
1503957328075,+0.683,+0.369,+0.541,-0.323,-0.075,-0.758,-0.520,-9.000,+85.188,+0.438,20, 42, 22, 3, -24, 5, 8, 27,-2.9399854495107904,0.8266434027320266
1503957328097,+0.686,+0.375,+0.536,-0.319,+0.479,-0.644,-0.170,-1.938,+12.375,-28.688,-42, -13, -10, -4, 2, -3, -4, -3,-2.9825986652301824,0.8747550767037067
1503957328118,+0.696,+0.365,+0.530,-0.317,-0.540,-0.942,-0.612,-36.875,-40.312,-59.938,0, -16, 6, 6, 0, 12, 20, 5,-2.914518800405893,0.7862998239541245
1503957328139,+0.709,+0.351,+0.537,-0.292,-0.602,-0.742,+0.398,+11.625,-176.000,-80.500,54, 111, 4, 45, 72, 54, 59, -8,-2.9953553629335135,0.8054802349193764
1503957328157,+0.703,+0.351,+0.541,-0.299,-0.056,-1.006,+0.269,-7.438,+24.875,+28.938,55, -40, -6, 21, 63, 23, 11, 102,-2.970337253478957,0.7905781161214903
1503957328178,+0.707,+0.344,+0.533,-0.313,-0.503,-0.467,-0.801,-41.188,+35.562,+15.125,-30, -23, -9, 28, 76, 36, 19, -38,-2.8309704723312588,0.6641475707384199
1503957328195,+0.703,+0.366,+0.526,-0.308,+0.531,-0.865,+0.026,+22.812,+95.625,-70.875,-31, -23, 1, -26, -72, -56, -19, -48,-2.956417599538225,0.8174572727262518
1503957328216,+0.700,+0.377,+0.522,-0.309,+0.391,-1.054,-0.009,+1.875,+54.562,-23.062,1, 1, 3, -20, -29, -21, -31, 8,-2.9950228693933147,0.8767179727888724
1503957328240,+0.703,+0.382,+0.517,-0.304,+0.452,-0.895,-0.261,+1.938,+9.688,-38.125,1, 24, -15, 0, -17, -5, -2, 53,-3.0263723424700255,0.9088605622551513
1503957328254,+0.705,+0.386,+0.516,-0.297,+0.221,-0.993,-0.021,+2.062,-7.000,-47.625,4, 10, 7, -5, -16, -8, -17, -27,-3.0717916347229353,0.9514657137632947
1503957328284,+0.706,+0.389,+0.514,-0.293,+0.161,-1.006,+0.025,-12.188,-4.125,-38.875,-23, -41, -5, -15, -14, -9, -11, -30,-3.095470614965909,0.9728414031685685
1503957328300,+0.707,+0.393,+0.510,-0.293,+0.151,-0.955,+0.011,-19.375,+22.562,-32.750,9, -15, 5, -2, -18, -6, -12, -10,-3.0980616023867866,0.9836729584994433
1503957328315,+0.708,+0.400,+0.504,-0.291,+0.263,-0.812,-0.071,-14.562,+30.750,-44.188,-2, -1, -3, -10, -2, -6, -9, -13,-3.114141469949843,1.0087861898908637
1503957328353,+0.711,+0.409,+0.495,-0.286,+0.340,-0.686,-0.127,-14.688,+25.625,-67.062,-6, -13, 0, 11, 1, 0, -2, -2,-3.1364365089618653,1.0395093049056225
1503957328366,+0.712,+0.421,+0.488,-0.279,+0.444,-0.856,-0.078,-2.562,+44.125,-73.188,-3, 0, 0, -6, -9, -4, -3, -2,3.104690012430648,1.0934783821147886
1503957328376,+0.711,+0.433,+0.482,-0.274,+0.511,-0.934,-0.131,+11.750,+46.625,-61.500,-1, -10, -4, -1, 2, 1, 0, 4,3.0697410126482176,1.1428487391755342
1503957328396,+0.711,+0.443,+0.476,-0.268,+0.482,-0.754,-0.151,+7.250,+31.312,-55.812,-2, -12, -11, -3, -5, -1, -6, -3,3.0412223397973075,1.1801517104007693
1503957328420,+0.714,+0.449,+0.470,-0.261,+0.391,-0.591,-0.163,+0.938,+11.812,-58.250,-2, -5, -3, -4, -6, -2, -2, -2,3.0253902794737604,1.1975737281266403
1503957328435,+0.718,+0.455,+0.463,-0.253,+0.305,-0.555,-0.129,-6.125,+3.500,-72.250,-2, -2, 1, -3, -3, 0, -4, -4,3.011965803282282,1.2119236811305563
1503957328457,+0.722,+0.461,+0.455,-0.244,+0.296,-0.645,-0.076,-11.688,+0.500,-86.375,1, 0, 0, 0, 0, 0, -2, 0,2.998914864607175,1.2228559232897986
1503957328484,+0.726,+0.466,+0.448,-0.234,+0.323,-0.804,-0.033,-6.625,-4.000,-89.062,0, 4, 1, 1, 0, -3, -1, -1,2.9837084726938934,1.2325175916564182
1503957328494,+0.730,+0.472,+0.442,-0.224,+0.325,-0.840,-0.080,-8.188,-5.250,-92.375,1, -3, -2, -2, -1, -1, -1, 1,2.9669838199991228,1.2490408854576258
1503957328517,+0.734,+0.479,+0.430,-0.216,+0.367,-0.752,-0.199,-26.125,+23.875,-97.250,-2, -3, 1, 0, 0, -1, -2, 0,2.966569299559656,1.2510520892065244
1503957328540,+0.738,+0.489,+0.414,-0.212,+0.470,-0.721,-0.344,-42.812,+46.062,-95.688,-2, -3, -1, -3, -3, -6, -10, -6,2.9809190060655504,1.2541787287209447
1503957328555,+0.746,+0.497,+0.395,-0.203,+0.608,-0.787,-0.419,-59.500,+17.312,-121.812,-1, 2, 0, -2, -4, -1, -1, -1,2.994803383762308,1.2487143994423657
1503957328577,+0.758,+0.502,+0.373,-0.185,+0.739,-0.732,-0.313,-65.438,-26.312,-163.562,-3, -3, -1, 0, -1, -1, 0, 0,2.9986051541869894,1.2345844459063862
1503957328599,+0.768,+0.508,+0.353,-0.166,+0.814,-0.574,-0.174,-47.312,-20.875,-167.188,2, -3, 0, 2, 0, 0, 1, 1,2.99367890957535,1.2306704638448425
1503957328615,+0.775,+0.515,+0.335,-0.147,+0.813,-0.503,-0.282,-32.688,-10.688,-155.562,0, -3, -1, -4, -1, -1, 0, -1,2.9827668275315404,1.233887275127861
1503957328641,+0.783,+0.520,+0.317,-0.127,+0.905,-0.576,-0.456,-30.875,-24.625,-162.188,-4, -3, -4, -8, -4, 7, 0, -4,2.9726807873240455,1.2324334062836082
1503957328659,+0.792,+0.522,+0.299,-0.104,+1.015,-0.683,-0.451,-29.000,-44.812,-172.000,-1, 0, 0, -3, -2, -1, -5, -5,2.9592496371996764,1.2241368914079431
1503957328675,+0.797,+0.527,+0.285,-0.080,+1.000,-0.555,-0.239,+1.312,-26.812,-161.500,0, 0, -4, -10, -9, -2, -5, 0,2.93525456961367,1.2295997796626106
1503957328697,+0.798,+0.534,+0.273,-0.052,+0.875,-0.329,-0.315,+30.750,-11.875,-179.188,0, -1, 0, -1, 1, 5, -1, 1,2.8993012950424673,1.2424992127529828
1503957328719,+0.801,+0.540,+0.258,-0.020,+0.785,-0.062,-0.200,+30.125,-27.500,-199.750,-1, -2, 2, 2, 2, -5, -2, -1,2.864300006428159,1.2503604005391598
1503957328734,+0.802,+0.545,+0.244,+0.005,+0.995,-0.078,-0.186,+10.438,-18.188,-168.312,0, -7, 0, 2, -3, -4, -4, -14,2.839911752123251,1.2545264977617676
1503957328757,+0.799,+0.553,+0.236,+0.022,+1.297,-0.458,-0.215,+18.938,+22.500,-112.188,6, 2, -5, -6, -6, -4, -3, -11,2.819809682443428,1.2703684014381114
1503957328779,+0.795,+0.559,+0.231,+0.039,+1.318,-0.540,-0.251,+34.812,+16.062,-106.812,1, 7, -4, -3, -4, 3, -10, -49,2.795814352598211,1.2831198382316007
1503957328794,+0.798,+0.557,+0.222,+0.061,+1.502,-0.290,-0.265,+27.875,-53.875,-128.375,8, 24, 9, 10, 1, -1, -1, 23,2.7736619285861357,1.273224464452007
1503957328817,+0.805,+0.546,+0.218,+0.080,+1.264,-0.173,-0.328,+36.750,-105.500,-83.375,-7, -22, 1, 0, 2, -5, 5, -9,2.7515168222049655,1.2450399456801702
1503957328840,+0.815,+0.529,+0.219,+0.091,+0.895,-0.399,-0.197,+31.438,-124.875,-19.750,-1, -2, 1, -4, 0, -1, -1, 11,2.737267944674731,1.206112665264693
1503957328854,+0.819,+0.521,+0.220,+0.092,+0.892,-0.486,-0.055,-5.750,-64.688,-9.000,-5, -1, 2, -7, -2, 3, 0, 11,2.7358360039532554,1.1876244587510432
1503957328877,+0.818,+0.524,+0.217,+0.094,+1.102,-0.309,-0.153,-9.875,-5.625,-21.500,7, -2, -10, -10, -15, -4, -2, 3,2.735857949376166,1.192743996150942
1503957328899,+0.814,+0.528,+0.220,+0.096,+1.158,-0.397,-0.250,+13.562,+25.188,-11.188,4, 18, -10, 18, -6, 3, -12, -12,2.7269020537822692,1.2048047814038767
1503957328921,+0.812,+0.530,+0.225,+0.095,+1.163,-0.612,-0.208,+12.250,+4.250,-4.438,-4, -22, -3, -2, 0, -3, 0, 16,2.7219920957724537,1.2138232879266198
1503957328937,+0.811,+0.530,+0.227,+0.097,+1.130,-0.551,-0.104,+7.312,-12.375,-15.625,4, 3, 6, 14, 18, 8, -2, 14,2.7157139941148367,1.2156635231261168
1503957328959,+0.812,+0.528,+0.227,+0.103,+1.041,-0.373,-0.181,+11.562,-28.250,-32.000,-8, 2, 1, -8, 3, -3, 5, 3,2.706780816847421,1.2117481478468806
1503957328981,+0.814,+0.525,+0.224,+0.109,+0.908,-0.279,-0.284,+2.938,-32.375,-36.938,-23, -8, -2, -6, -4, -3, 3, -23,2.7015551335404924,1.2027688395479572
1503957328997,+0.817,+0.521,+0.221,+0.113,+0.909,-0.312,-0.339,-6.750,-33.688,-25.312,7, -5, 1, 0, -1, -3, 0, 5,2.700060219851639,1.191311925254036
1503957329019,+0.819,+0.519,+0.219,+0.113,+1.002,-0.302,-0.306,-11.688,-20.312,-5.125,12, 9, -3, 1, 2, 1, -6, -12,2.70344087544745,1.1850214775157109
1503957329043,+0.820,+0.517,+0.218,+0.113,+0.989,-0.264,-0.253,-8.750,-22.125,-1.000,-4, -11, -2, -2, -1, 0, -5, 12,2.7046334840539803,1.1792745849982187
1503957329057,+0.823,+0.512,+0.215,+0.115,+0.940,-0.222,-0.315,-9.000,-36.375,-10.375,-13, 9, 8, 8, 1, 1, 3, 1,2.705642862500977,1.1650623728162275
1503957329079,+0.827,+0.506,+0.211,+0.120,+0.906,-0.157,-0.343,-8.188,-50.625,-19.000,-9, -9, 1, -1, -6, -2, 0, -15,2.7036802892172465,1.1484276579569181
1503957329101,+0.830,+0.502,+0.209,+0.124,+0.858,-0.205,-0.363,-0.312,-36.312,-22.250,6, 3, -1, -3, 1, 2, -2, 2,2.701093382430101,1.1382969957880127
1503957329118,+0.831,+0.500,+0.208,+0.126,+0.880,-0.280,-0.373,-0.500,-11.188,-11.938,6, 4, 0, 3, 0, -3, -12, 1,2.6991828174276766,1.1330439034205992
1503957329139,+0.830,+0.502,+0.208,+0.124,+0.909,-0.293,-0.308,-9.188,+9.250,+0.250,-2, -1, -3, -5, -2, -3, 2, 12,2.7020253585739504,1.1374138038586272
1503957329161,+0.830,+0.504,+0.207,+0.123,+0.974,-0.272,-0.264,-14.562,+2.375,-4.375,1, -7, -4, -2, -1, -1, 2, 1,2.7054775682812395,1.1415269376177972
1503957329178,+0.830,+0.505,+0.202,+0.125,+1.054,-0.176,-0.302,-17.938,-8.875,-17.875,13, 2, -12, 2, 0, -1, -6, -2,2.7075675983599874,1.1401275678920377
1503957329199,+0.830,+0.505,+0.197,+0.127,+1.031,-0.028,-0.417,-14.875,-4.938,-15.125,-3, -5, -1, -5, -3, 0, -1, 1,2.7091727358472784,1.1362285798116951
1503957329221,+0.831,+0.504,+0.195,+0.129,+0.948,-0.037,-0.487,-0.875,-6.562,-2.250,4, 9, 6, 3, 2, -2, 1, 0,2.708647970104573,1.1327481655421134
1503957329237,+0.832,+0.502,+0.195,+0.130,+0.951,-0.109,-0.432,+5.312,-11.250,+6.250,1, -3, 1, -1, 2, 0, 3, 11,2.7072905000423644,1.1281967231221428
1503957329259,+0.833,+0.501,+0.196,+0.130,+0.965,-0.170,-0.296,+2.312,-9.062,+6.688,3, 5, 1, -2, -3, 0, 3, 5,2.707052018332828,1.1268932983533988
1503957329281,+0.832,+0.503,+0.195,+0.129,+1.011,-0.144,-0.239,-6.375,-0.688,+2.688,8, 4, 1, -1, -1, 1, 0, -4,2.7093314486291318,1.1306049192148107
1503957329297,+0.830,+0.507,+0.193,+0.126,+1.081,-0.073,-0.299,-18.438,+15.750,+12.062,4, 0, 3, -1, -1, -2, 3, -1,2.7154727991657346,1.1379102633662708
1503957329319,+0.830,+0.510,+0.191,+0.120,+1.149,-0.045,-0.412,-29.562,+15.125,+33.250,-1, 5, 0, -1, 10, 1, -2, -4,2.7281125025884028,1.1430703641878144
1503957329341,+0.831,+0.511,+0.190,+0.110,+1.045,-0.051,-0.408,-32.875,+11.625,+57.000,-1, 5, 6, -2, -5, -3, -7, -1,2.7462373066521177,1.1436846283689859
1503957329357,+0.833,+0.510,+0.190,+0.099,+0.910,-0.084,-0.510,-28.062,+12.438,+63.000,-12, -12, -4, -6, -5, -2, 2, -13,2.7653252623928095,1.1401682040581904
1503957329379,+0.834,+0.509,+0.191,+0.092,+0.894,-0.240,-0.375,-17.125,+1.375,+40.938,4, 38, 5, 8, -1, 0, -1, -1,2.776170141281775,1.1376391581494476
1503957329401,+0.836,+0.506,+0.194,+0.085,+0.894,-0.377,-0.329,-10.562,-9.688,+33.938,-8, -4, -2, 0, 0, -3, -1, 2,2.7854753796396117,1.1318824643993999
1503957329418,+0.836,+0.505,+0.196,+0.080,+0.813,-0.298,-0.324,-11.000,+0.625,+30.188,3, -8, -4, -3, 2, 0, 2, 1,2.7912701812877247,1.1300057547309335
1503957329439,+0.836,+0.506,+0.197,+0.075,+0.782,-0.219,-0.332,-10.000,+12.125,+23.062,8, -6, 2, -3, -6, -4, -3, -2,2.798751418594383,1.1325712575709417
1503957329461,+0.836,+0.506,+0.199,+0.070,+0.827,-0.324,-0.448,-7.812,+14.438,+26.500,-9, -8, 2, -1, 1, -11, -13, -13,2.804941724999406,1.133314661257953
1503957329481,+0.836,+0.506,+0.201,+0.064,+0.844,-0.348,-0.439,-9.812,+13.062,+29.812,-22, -23, -3, -1, -19, -6, 1, -4,2.8128040852889575,1.1338822199164615
1503957330421,+0.874,+0.429,+0.164,+0.160,+0.832,-0.212,-0.590,+9.750,-7.500,-6.375,-3, -5, -4, -3, -2, 0, 2, 0,2.7028262139736796,0.9464301323546458
1503957330436,+0.874,+0.426,+0.164,+0.164,+0.893,-0.240,-0.608,+11.000,-18.188,-21.062,1, 15, 2, -3, -2, -2, -1, 0,2.6951115176902456,0.9398960777137221
1503957330459,+0.875,+0.423,+0.164,+0.169,+0.871,-0.176,-0.562,+12.938,-22.375,-23.938,0, -8, -11, -4, -4, -1, -4, 1,2.6870377162504444,0.9340953374457686
1503957330481,+0.875,+0.421,+0.166,+0.174,+0.862,-0.224,-0.403,+14.062,-24.312,-22.000,11, -2, -1, 0, 2, -1, 1, 6,2.6766759410088183,0.9317261275831636
1503957330496,+0.874,+0.420,+0.168,+0.177,+0.857,-0.235,-0.426,+13.875,-9.688,-20.250,-7, -4, 4, 5, 4, 1, -2, -6,2.6686851289447824,0.9309112889746496
1503957330520,+0.873,+0.420,+0.172,+0.180,+0.930,-0.202,-0.635,+26.125,+3.750,-8.500,1, -2, -3, -2, -1, -1, -1, -3,2.659662279702772,0.9340881609547016
1503957330541,+0.872,+0.417,+0.176,+0.185,+0.986,-0.259,-0.638,+32.688,-18.812,-13.562,-2, -2, 0, 1, 2, -2, 3, -3,2.6460947312681,0.9305387461659147
1503957330561,+0.873,+0.412,+0.181,+0.190,+0.879,-0.213,-0.586,+38.562,-24.000,-8.875,1, 5, 6, 1, 1, -1, 2, 2,2.633587696455418,0.9241430246335699
1503957330587,+0.871,+0.410,+0.189,+0.192,+0.767,-0.125,-0.613,+53.125,+4.688,+7.562,-7, 5, -2, -5, 0, -2, 0, -6,2.620911017394339,0.925458598183762
1503957330601,+0.868,+0.410,+0.201,+0.194,+0.862,-0.129,-0.638,+68.125,+22.562,+19.062,-1, -4, -3, -4, -4, -3, -1, 2,2.6048661099515455,0.9348851509539291
1503957330616,+0.865,+0.409,+0.214,+0.195,+1.007,-0.171,-0.613,+76.000,+12.000,+30.000,-3, -1, 1, -5, -2, -3, 0, -1,2.589056603496802,0.9431987971421295
1503957330638,+0.864,+0.405,+0.227,+0.196,+0.932,-0.164,-0.568,+80.312,-3.875,+38.250,2, -2, 0, 1, 1, 1, 3, 0,2.5747969236916157,0.9459899800477894
1503957330662,+0.863,+0.399,+0.241,+0.197,+0.764,-0.136,-0.548,+86.500,-12.812,+39.875,-2, -10, 2, -1, 1, 0, -1, -1,2.5589963324712475,0.9457454779973126
1503957330677,+0.861,+0.392,+0.257,+0.198,+0.673,-0.179,-0.636,+96.000,-0.375,+38.000,6, 4, -2, 0, 0, 1, -3, 4,2.5398731763920104,0.9456881590880476
1503957330698,+0.857,+0.389,+0.272,+0.200,+0.768,-0.188,-0.619,+98.188,+14.000,+38.250,9, -5, -4, -2, -2, 0, -3, 1,2.5185030433924043,0.9544608242982
1503957330721,+0.853,+0.386,+0.289,+0.199,+0.869,-0.232,-0.521,+97.562,+14.750,+49.250,-5, 2, 1, 3, 1, 2, 0, -5,2.5000534002879773,0.9657414858139678
1503957330736,+0.850,+0.381,+0.306,+0.199,+0.824,-0.305,-0.424,+91.062,-2.062,+47.125,3, 1, -1, 0, 0, -2, 0, 3,2.480926761401382,0.9743717107857675
1503957330759,+0.847,+0.374,+0.320,+0.199,+0.687,-0.307,-0.397,+85.062,-10.938,+38.000,-4, -1, -3, -2, -3, -1, -3, 0,2.462760703395766,0.9753965638312613
1503957330781,+0.844,+0.370,+0.333,+0.199,+0.625,-0.300,-0.505,+82.125,+11.312,+36.750,-4, -4, -2, -4, -2, -2, -2, -1,2.4466245988912236,0.9830748100030567
1503957330796,+0.839,+0.370,+0.347,+0.197,+0.666,-0.328,-0.539,+81.188,+36.688,+35.812,-9, -6, -3, -3, -2, -2, -2, -4,2.4303662043327687,1.0009850372494271
1503957330827,+0.834,+0.369,+0.359,+0.198,+0.878,-0.385,-0.366,+68.188,+10.188,+26.125,-14, -1, -2, 2, 0, -3, -6, -21,2.410349203840848,1.0156392273248018
1503957330841,+0.832,+0.364,+0.368,+0.199,+0.770,-0.426,-0.296,+51.312,-19.625,+22.188,-4, -2, 0, 1, -2, -1, 2, -2,2.396541671080623,1.0178961035110439
1503957330856,+0.832,+0.359,+0.373,+0.200,+0.553,-0.404,-0.373,+31.750,-12.312,+14.688,2, -4, 1, 0, 1, -1, 1, -1,2.3896509401017125,1.014734235998068
1503957330878,+0.831,+0.358,+0.375,+0.200,+0.639,-0.362,-0.409,+17.625,+6.000,+9.625,-4, -4, -5, -4, -4, -2, -1, -3,2.385701004631109,1.0152922335024839
1503957330901,+0.830,+0.359,+0.377,+0.200,+0.743,-0.366,-0.418,+12.312,+7.875,+5.562,-5, -5, -4, -2, -4, -2, -5, -8,2.3827386705438265,1.0206505276075188
1503957330916,+0.831,+0.357,+0.376,+0.203,+0.827,-0.383,-0.497,+6.312,-13.500,-8.250,-6, 0, 0, -2, -1, -1, -4, -4,2.3804837206818537,1.0159592209393782
1503957330938,+0.833,+0.353,+0.373,+0.207,+0.803,-0.414,-0.406,-5.312,-43.688,-9.750,-14, -4, 1, 2, 4, 0, 1, -12,2.3793160456014486,1.004056303536543
1503957330961,+0.836,+0.348,+0.368,+0.211,+0.625,-0.354,-0.325,-17.750,-46.188,-12.625,6, 3, 4, 0, 1, -1, 4, 8,2.381074856074481,0.98702306854684
1503957330976,+0.839,+0.347,+0.362,+0.212,+0.565,-0.353,-0.343,-31.250,-17.000,-13.938,3, 6, -1, -1, 1, -1, -4, -2,2.3893896852845447,0.9766172255522941
1503957330998,+0.840,+0.350,+0.356,+0.212,+0.703,-0.386,-0.448,-39.625,+7.938,-13.438,1, 3, 3, 0, -2, -1, 3, -7,2.3964720075635566,0.9745029416024363
1503957331023,+0.842,+0.354,+0.347,+0.212,+0.890,-0.300,-0.486,-46.312,-2.250,-15.562,0, -1, 7, 8, -2, 2, 6, 6,2.407968287119454,0.9707452452189336
1503957331036,+0.846,+0.353,+0.336,+0.214,+0.814,-0.284,-0.493,-53.812,-28.812,-14.188,3, -8, -3, -1, 2, 1, -3, 13,2.4196629768308484,0.9544495220154074
1503957331061,+0.851,+0.352,+0.324,+0.214,+0.662,-0.328,-0.453,-64.938,-31.188,-16.250,8, 52, 18, 10, -1, 1, 2, 3,2.43664388683773,0.9369868555266015
1503957331082,+0.855,+0.356,+0.312,+0.210,+0.598,-0.360,-0.362,-86.500,+5.750,-10.750,4, -11, -6, -5, 1, 0, -2, 5,2.4593751277669615,0.9299042544503983
1503957331096,+0.857,+0.368,+0.298,+0.201,+0.646,-0.296,-0.438,-108.812,+52.750,-2.812,-7, -11, -9, -17, 1, 0, -8, 14,2.4903226607139137,0.9370586437297416
1503957331118,+0.859,+0.381,+0.285,+0.190,+0.879,-0.143,-0.704,-105.438,+71.625,+6.875,0, -9, -4, 4, -1, -1, -2, -21,2.5244728994919314,0.9485278112102126
1503957331141,+0.862,+0.388,+0.269,+0.182,+1.040,-0.202,-0.724,-102.250,+23.500,+9.500,18, -4, 0, 23, -1, 3, 10, 32,2.5555908974986257,0.9449944454418153
1503957331158,+0.869,+0.387,+0.253,+0.177,+0.826,-0.264,-0.578,-107.250,-27.438,-0.750,-10, -15, -2, 0, 0, -3, -4, -20,2.5854072631182903,0.9266086891011026
1503957331178,+0.876,+0.386,+0.233,+0.171,+0.501,-0.251,-0.468,-120.312,-36.375,-8.625,-5, -4, -7, -17, -2, -2, -5, -5,2.619180804374969,0.9052664522307435
1503957331201,+0.880,+0.392,+0.213,+0.162,+0.462,-0.202,-0.599,-136.312,+20.125,-0.188,-3, -2, -3, -13, -5, -4, -5, 18,2.655726971849568,0.9002566394875415
1503957331216,+0.880,+0.407,+0.197,+0.148,+0.714,+0.108,-0.896,-126.625,+86.250,+20.312,-2, 3, -1, -1, -1, -1, -2, -18,2.695559637546607,0.9189945412044084
1503957331238,+0.879,+0.420,+0.182,+0.132,+1.103,+0.057,-0.785,-120.312,+73.562,+34.000,-4, -4, -2, 1, 0, -2, -6, -26,2.7366597459108846,0.9345398671437614
1503957331261,+0.883,+0.423,+0.165,+0.119,+1.099,-0.120,-0.529,-129.188,+7.938,+25.000,-3, -3, -3, -2, 2, 0, 1, -71,2.777308346768142,0.9289446916319255
1503957331276,+0.889,+0.420,+0.145,+0.109,+0.812,-0.125,-0.491,-132.562,-37.375,+11.250,0, -3, -1, -5, -3, 0, 4, 60,2.815553194552983,0.9099524217330286
1503957331299,+0.893,+0.419,+0.128,+0.098,+0.614,+0.080,-0.779,-115.875,-11.500,+22.125,-26, -25, -5, -4, -4, -2, 1, 34,2.851604751852319,0.8981303869237197
1503957331321,+0.897,+0.418,+0.114,+0.090,+0.704,+0.135,-1.059,-80.875,+13.312,+25.125,4, 15, -5, -2, -3, -3, -4, -19,2.8799001117029386,0.8895751515176864
1503957331336,+0.900,+0.415,+0.101,+0.081,+0.949,-0.094,-0.819,-91.125,-18.875,+21.688,-4, 0, 1, 3, 1, -1, -3, 5,2.907850407230461,0.8768215970191883
1503957331358,+0.905,+0.409,+0.089,+0.070,+0.916,-0.102,-0.593,-91.188,-50.562,+30.250,-4, 2, 6, 6, 3, 2, 1, 0,2.9392790701652745,0.8588240889494021
1503957331381,+0.911,+0.400,+0.077,+0.061,+0.628,-0.076,-0.584,-83.500,-57.312,+29.875,20, 2, -6, -4, 0, -1, 4, 1,2.9670899980120424,0.8351687362034304
1503957331396,+0.916,+0.393,+0.068,+0.052,+0.449,-0.186,-0.672,-76.562,-31.625,+23.812,1, 3, -3, -7, -4, -1, 2, 0,2.9920483030161176,0.8174646297450212
1503957331418,+0.917,+0.392,+0.061,+0.043,+0.603,-0.172,-0.793,-65.125,+6.562,+24.438,-2, -4, -1, 1, 5, -4, -7, -8,3.0142049054968636,0.8130226722433292
1503957331441,+0.917,+0.392,+0.056,+0.036,+0.928,-0.075,-0.805,-41.625,+2.688,+29.688,-3, -5, -3, -2, -6, -2, -4, 2,3.0309081351210665,0.8113331995573551
1503957331458,+0.919,+0.389,+0.054,+0.027,+0.944,-0.201,-0.602,-40.062,-30.312,+40.000,-8, -22, -4, -1, 1, 3, 4, 1,3.049455271059738,0.8041071700257864
1503957331478,+0.923,+0.381,+0.052,+0.018,+0.719,-0.250,-0.520,-42.250,-59.875,+38.438,1, -3, 0, 0, 2, 0, 6, -1,3.068444913888374,0.7860565677499453
1503957331501,+0.927,+0.370,+0.052,+0.010,+0.529,-0.259,-0.657,-29.562,-54.625,+32.125,-3, 4, -4, -2, -4, -3, -3, -3,3.084202431355838,0.7614137649442274
1503957331516,+0.930,+0.364,+0.053,+0.003,+0.494,-0.318,-0.701,-22.562,-24.438,+31.688,-4, 3, 4, -1, -1, -7, -2, -4,3.097226575578594,0.7484275818534503
1503957331538,+0.930,+0.363,+0.055,-0.004,+0.615,-0.396,-0.611,-19.312,-1.688,+29.500,12, 10, 1, 1, -4, -2, -5, 1,3.108896409789224,0.7457989618426517
1503957331561,+0.929,+0.365,+0.057,-0.010,+0.751,-0.420,-0.516,-22.812,+1.875,+20.500,0, 1, 1, 3, 0, 1, 3, 2,3.1183935342904836,0.7497871000015145
1503957331576,+0.928,+0.368,+0.057,-0.016,+0.764,-0.406,-0.479,-26.688,+8.938,+16.812,-2, 0, -3, -3, 1, 2, -1, -6,3.12925356723877,0.7558663060556264
1503957331598,+0.926,+0.371,+0.057,-0.021,+0.774,-0.282,-0.583,-20.250,+12.562,+19.438,-11, 0, -3, -2, -3, 0, 2, -1,3.1381571155094243,0.7615082265439996
1503957331621,+0.926,+0.372,+0.058,-0.024,+0.796,-0.196,-0.691,-5.688,+2.812,+15.062,0, 4, 3, -1, -7, -1, 0, 1,-3.1402858338601924,0.7637684161832775
1503957331636,+0.926,+0.371,+0.060,-0.025,+0.794,-0.296,-0.658,-7.625,-13.562,+2.938,1, 3, 0, 3, 2, -1, -4, -4,-3.139795100604516,0.7615543942671535
1503957331660,+0.927,+0.370,+0.060,-0.028,+0.784,-0.319,-0.616,-17.875,-12.938,+7.250,7, -3, -2, 1, -2, -2, -2, -4,-3.134023712084855,0.7594483099436157
1503957331680,+0.925,+0.373,+0.060,-0.032,+0.879,-0.139,-0.786,-3.625,+19.125,+23.375,-6, -4, -1, -1, 0, 1, 0, 0,-3.1270005784485626,0.7651746424704193
1503957331697,+0.925,+0.373,+0.064,-0.033,+0.956,-0.080,-0.888,+19.000,+0.875,+20.812,6, -5, 0, -1, -1, -1, 3, 3,-3.128146377186118,0.7655890673408603
1503957331718,+0.926,+0.369,+0.070,-0.035,+0.985,-0.248,-0.764,+21.125,-37.938,+23.250,-5, -2, -1, -3, -3, -1, -2, -3,-3.128263810063035,0.7571967055665654
1503957331741,+0.927,+0.365,+0.076,-0.037,+0.795,-0.273,-0.707,+25.812,-29.438,+23.375,-15, -3, -1, -4, -4, -4, -6, -17,-3.1282771341709408,0.7488681683364992
1503957331756,+0.926,+0.365,+0.084,-0.038,+0.619,-0.235,-0.708,+32.750,+7.562,+17.438,-3, -1, 4, 2, -1, 0, 2, 3,-3.1323653002962,0.7495310607187817
1503957331778,+0.924,+0.370,+0.091,-0.039,+0.630,-0.292,-0.727,+33.812,+37.625,+11.000,13, 3, -2, 1, 1, 2, 0, 4,-3.136770771812322,0.7616155892278859
1503957331801,+0.920,+0.379,+0.096,-0.038,+0.763,-0.330,-0.702,+29.250,+57.812,-0.812,-7, -2, -1, 0, -2, -2, -1, 1,3.138686782464987,0.7823483660846204
1503957331816,+0.915,+0.389,+0.100,-0.035,+0.925,-0.245,-0.644,+29.188,+50.500,-11.125,-2, -3, -2, 0, -1, -2, 0, -3,3.1275212125555525,0.8052996323969109
1503957331838,+0.912,+0.395,+0.104,-0.031,+0.933,-0.158,-0.641,+35.875,+29.250,-9.812,-2, -5, -5, -11, -9, -3, 0, -1,3.115340354833543,0.8199510013943212
1503957331864,+0.912,+0.395,+0.110,-0.026,+0.785,-0.166,-0.644,+47.438,-4.000,-12.312,8, 2, 0, 1, 1, 0, -4, -1,3.101148843099884,0.8223850092405515
1503957331876,+0.912,+0.393,+0.118,-0.018,+0.671,-0.221,-0.608,+58.250,-16.312,-25.000,-5, -1, -2, -4, -2, 0, -4, -3,3.080052952031858,0.8212373229700485
1503957331899,+0.911,+0.393,+0.127,-0.009,+0.580,-0.297,-0.582,+63.688,+2.000,-32.750,8, 2, 1, 5, 2, -2, -1, 3,3.055688603303907,0.825385462678498
1503957331921,+0.907,+0.399,+0.135,-0.002,+0.603,-0.289,-0.574,+61.188,+40.125,-26.250,-5, -1, 1, 2, 2, -1, 2, -3,3.033986667495043,0.8424090602475645
1503957331937,+0.901,+0.409,+0.143,+0.003,+0.643,-0.234,-0.590,+55.250,+67.562,-15.375,-2, -2, 0, 2, 2, 0, -1, -1,3.014557025294752,0.8683945798027248
1503957331958,+0.896,+0.419,+0.149,+0.008,+0.764,-0.176,-0.549,+53.125,+60.125,-19.812,-2, -1, -1, -2, 0, 0, 0, 1,2.9971164981586296,0.894526941036542
1503957331981,+0.892,+0.425,+0.154,+0.015,+0.895,-0.217,-0.485,+45.500,+28.938,-23.625,-1, -2, -1, -3, -1, -1, 1, 0,2.977570802833628,0.9113777489810494
1503957331998,+0.889,+0.430,+0.158,+0.018,+0.846,-0.229,-0.542,+32.500,+30.188,-7.750,2, 4, 0, -1, 0, 0, -2, 0,2.9667582810592257,0.9251374886867908
1503957332018,+0.886,+0.433,+0.161,+0.019,+0.684,-0.189,-0.653,+24.500,+35.250,-1.812,7, 4, 0, 1, 1, -1, 0, 1,2.9604269688758826,0.9330008153737697
1503957332041,+0.885,+0.435,+0.162,+0.023,+0.760,-0.154,-0.640,+21.688,+17.062,-10.812,-6, -2, -2, -2, -1, -3, -1, -2,2.9516671707417195,0.9389119661585121
1503957332056,+0.886,+0.433,+0.164,+0.027,+0.951,-0.222,-0.528,+21.312,-22.688,-9.562,-5, -3, -2, 0, -2, -3, -2, -5,2.9433079280037835,0.936318226120406
1503957332079,+0.888,+0.428,+0.166,+0.030,+0.921,-0.249,-0.477,+14.625,-42.312,-3.938,-3, -5, -2, -1, 0, 0, -3, -4,2.9373935470870185,0.9265028448848758
1503957332108,+0.891,+0.421,+0.166,+0.033,+0.743,-0.240,-0.528,+4.812,-44.062,-4.250,19, 5, 2, -1, 1, 4, 4, 13,2.9338821675899442,0.91108170219817
1503957332123,+0.894,+0.416,+0.166,+0.034,+0.597,-0.210,-0.608,+1.812,-27.438,-5.062,-9, -4, 0, -2, -2, -3, 2, -1,2.934051609734388,0.9003505755957244
1503957332138,+0.895,+0.413,+0.165,+0.036,+0.568,-0.167,-0.661,+4.250,-3.438,-4.375,0, -1, 3, 6, -2, 1, 0, 1,2.9319003659764586,0.8932271280024996
1503957332160,+0.894,+0.414,+0.165,+0.038,+0.700,-0.143,-0.625,+7.688,+11.500,-8.125,-5, -6, -4, -2, 0, 1, -3, -5,2.927591426907577,0.895617806095875
1503957332176,+0.893,+0.416,+0.164,+0.040,+0.846,-0.201,-0.599,+8.312,+9.938,-11.750,-2, 3, 1, 0, -1, -3, -3, 2,2.9241649188198493,0.8999227857670608
1503957332199,+0.893,+0.416,+0.164,+0.043,+0.892,-0.213,-0.606,+4.500,-5.375,-11.312,-3, 0, 0, -1, -2, -1, 0, -3,2.918742555402548,0.9005559963011831
1503957332220,+0.895,+0.413,+0.163,+0.047,+0.840,-0.184,-0.625,+6.438,-22.000,-14.438,-4, -6, 0, -1, -1, -2, 2, -2,2.913677512354591,0.8944007317447186
1503957332243,+0.897,+0.409,+0.162,+0.051,+0.808,-0.133,-0.584,+10.125,-31.625,-12.625,-1, 0, -3, 1, -1, 0, -2, 0,2.908551019878098,0.8857916050063455
1503957332258,+0.898,+0.404,+0.163,+0.055,+0.769,-0.190,-0.491,+15.812,-36.562,-12.062,3, 2, -2, 0, 0, -1, -2, -1,2.9009535852952095,0.8753956356488194
1503957332280,+0.900,+0.400,+0.165,+0.061,+0.754,-0.238,-0.425,+18.438,-39.375,-17.750,-5, -7, -3, -3, 1, 0, -2, -6,2.8898171537529467,0.8691017260880376
1503957332303,+0.900,+0.397,+0.167,+0.067,+0.803,-0.277,-0.434,+22.938,-31.875,-29.625,1, 6, -1, -2, 0, 0, -2, 1,2.877194138554848,0.8642791161520202
1503957332318,+0.898,+0.398,+0.170,+0.075,+0.811,-0.239,-0.427,+29.375,-8.500,-33.688,-1, -2, 1, 2, 0, -2, 1, -1,2.858907261924876,0.8693448090055241
1503957332341,+0.896,+0.402,+0.174,+0.080,+0.786,-0.212,-0.422,+32.438,+14.562,-22.062,-3, -5, -3, -3, -2, -2, 0, 1,2.8455946359333657,0.8818277172575918
1503957332366,+0.891,+0.408,+0.180,+0.082,+0.774,-0.205,-0.365,+33.938,+36.062,-3.875,0, -3, -1, 2, 2, 0, 3, -1,2.833483475710098,0.8984688290505701
1503957332379,+0.885,+0.419,+0.188,+0.083,+0.833,-0.248,-0.326,+40.625,+61.438,+4.250,-33, -9, 0, -1, -2, 0, -1, -5,2.82121918889989,0.9284875284602899
1503957332401,+0.878,+0.428,+0.196,+0.084,+0.879,-0.341,-0.441,+43.562,+59.875,-0.812,10, -2, -3, -5, -2, 0, -1, 0,2.8074388306650655,0.9535533067922466
1503957332423,+0.874,+0.433,+0.203,+0.086,+0.912,-0.385,-0.601,+36.875,+35.750,-5.438,-8, -3, -2, 0, -1, 0, -2, -2,2.794916437878398,0.9700186285829883
1503957332439,+0.873,+0.432,+0.206,+0.088,+0.829,-0.285,-0.668,+27.812,+8.250,-2.438,9, 5, -1, 0, 1, -1, 0, -2,2.7876491348560406,0.9698915270966882
1503957332461,+0.875,+0.428,+0.207,+0.090,+0.708,-0.106,-0.622,+16.875,-17.312,+3.438,9, 0, -1, -2, -2, -3, 0, 5,2.784693448766688,0.9621630000772788
1503957332483,+0.875,+0.426,+0.209,+0.091,+0.766,-0.263,-0.595,+13.938,-2.125,+3.875,15, 27, 5, 6, -1, 4, -3, 5,2.7808701318550613,0.9590351995810247
1503957332499,+0.874,+0.429,+0.212,+0.088,+0.722,-0.550,-0.707,+0.562,+37.438,+4.812,-16, -13, -2, -2, -1, -1, 0, -7,2.7830351024503246,0.9677957417693966
1503957332520,+0.872,+0.434,+0.211,+0.082,+0.844,-0.426,-0.758,-18.500,+50.312,+12.938,-6, -2, -1, -5, -4, -1, -2, 0,2.7930188423564184,0.9770609815580767
1503957332543,+0.872,+0.435,+0.208,+0.078,+0.970,-0.268,-0.662,-22.500,+14.000,+13.375,3, -3, 0, -3, 0, -2, -2, -3,2.8026749374959405,0.9761461439930359
1503957332559,+0.875,+0.432,+0.206,+0.078,+0.982,-0.302,-0.598,-15.375,-23.938,+4.812,-4, -3, -3, -1, -1, -1, -2, -1,2.8069781182634297,0.9684775335365576
1503957332581,+0.878,+0.426,+0.204,+0.078,+0.876,-0.351,-0.613,-12.250,-38.562,+1.875,6, -5, -1, -1, 0, 0, 3, 5,2.810715547930778,0.9533041671056887
1503957332603,+0.882,+0.419,+0.201,+0.075,+0.742,-0.356,-0.636,-22.688,-36.875,+13.688,3, 0, -1, 1, 0, 0, 0, -2,2.821416073419303,0.9347185981284433
1503957332619,+0.887,+0.412,+0.197,+0.070,+0.680,-0.259,-0.625,-33.812,-30.938,+26.062,17, 6, -2, -2, 2, 0, -3, 0,2.8375234423915283,0.9155505691700355
1503957332642,+0.890,+0.408,+0.193,+0.065,+0.660,-0.159,-0.482,-35.062,-24.625,+28.438,17, 2, 0, -1, -2, 2, -2, 3,2.852088044054784,0.9029836847030616
1503957332663,+0.893,+0.404,+0.190,+0.061,+0.709,-0.179,-0.362,-26.000,-29.875,+19.750,-12, -3, -1, -1, 0, -3, -2, -3,2.8640669853527236,0.8914961763914803
1503957332679,+0.893,+0.405,+0.188,+0.059,+0.784,-0.207,-0.311,-15.375,-5.562,+9.438,-2, 3, 2, 2, -1, -1, -1, -4,2.8693591959353335,0.8921004874057475
1503957332708,+0.890,+0.411,+0.188,+0.057,+0.789,-0.201,-0.401,-10.500,+26.000,+9.312,-5, -5, 0, 0, -1, 1, -1, -8,2.8707734551889303,0.9049767814257023
1503957332723,+0.888,+0.416,+0.188,+0.054,+0.768,-0.223,-0.488,-6.688,+35.250,+12.500,-14, -6, 0, -2, -3, 0, 0, 0,2.8747980904527086,0.9157121436358772
1503957332739,+0.886,+0.421,+0.187,+0.051,+0.811,-0.251,-0.471,-9.375,+31.688,+8.938,-1, -1, -2, -3, -2, -2, -1, 1,2.879678278691694,0.925819999501778
1503957332761,+0.883,+0.427,+0.185,+0.049,+0.874,-0.272,-0.421,-16.188,+31.312,-0.125,1, 0, -3, 1, 0, -1, 0, 2,2.8828963646504135,0.9375397190061061
1503957332783,+0.880,+0.436,+0.182,+0.047,+0.938,-0.226,-0.411,-21.938,+40.062,-2.500,2, -1, 0, 0, 0, -1, 2, 4,2.8873394612765435,0.9562883400954124
1503957332799,+0.877,+0.443,+0.178,+0.045,+0.931,-0.163,-0.470,-21.875,+43.375,+1.500,-2, -2, -1, -3, 0, -2, 1, -1,2.892624782240474,0.9694363588134144
1503957332821,+0.876,+0.448,+0.175,+0.042,+0.924,-0.169,-0.532,-21.062,+25.438,+9.312,-2, -3, -3, -3, -2, -1, -2, -5,2.9002929453630113,0.9790988779751642
1503957332844,+0.876,+0.448,+0.173,+0.038,+0.923,-0.253,-0.557,-19.625,+6.000,+17.000,1, -2, -3, 2, -2, 1, -3, 0,2.9091754038906474,0.9769999178158193
1503957332859,+0.878,+0.446,+0.172,+0.035,+0.865,-0.306,-0.538,-18.188,-9.250,+14.812,0, -3, 1, 2, 1, 0, 0, 2,2.916761849533871,0.9716847590206176
1503957332881,+0.880,+0.443,+0.171,+0.031,+0.769,-0.306,-0.516,-19.875,-16.500,+18.250,-2, 6, 0, -1, 0, -1, 0, 7,2.9260757218468143,0.963626804269681
1503957332903,+0.881,+0.441,+0.169,+0.025,+0.702,-0.274,-0.555,-22.000,-3.125,+25.500,11, 0, -3, -3, -2, -1, -2, -2,2.939246453221576,0.9565999665335387
1503957332919,+0.881,+0.442,+0.168,+0.019,+0.750,-0.272,-0.586,-22.625,+21.188,+25.938,-2, -3, 0, 0, 1, 1, 3, 1,2.950955899920471,0.9573468613187831
1503957332941,+0.880,+0.445,+0.166,+0.013,+0.854,-0.262,-0.597,-21.625,+25.125,+24.500,1, 6, 2, 1, -1, -2, -2, 1,2.962939012741071,0.9621384610386499
1503957332963,+0.881,+0.444,+0.165,+0.010,+0.869,-0.261,-0.577,-14.750,-4.188,+20.062,-10, -7, 0, -2, -4, -1, -2, -4,2.9698992480491597,0.9589279180194543
1503957332980,+0.884,+0.437,+0.165,+0.009,+0.807,-0.248,-0.546,-6.438,-40.438,+8.125,-1, 8, 4, 2, 1, 0, -3, -4,2.973719434083283,0.9423800917432535
1503957333001,+0.889,+0.428,+0.164,+0.012,+0.752,-0.261,-0.504,-1.000,-63.312,-5.250,-5, -5, -1, -3, -1, -1, 0, -4,2.972455140802703,0.9221694085847384
1503957333023,+0.892,+0.420,+0.165,+0.014,+0.694,-0.330,-0.546,+3.375,-50.062,-5.125,17, 12, 2, -1, 0, 0, -1, 5,2.9700395001123527,0.9044991216855157
1503957333039,+0.894,+0.415,+0.167,+0.014,+0.623,-0.367,-0.567,+4.062,-24.312,-0.375,-8, -8, -3, -3, 0, -3, 0, -5,2.9697564214589236,0.894086228356287
1503957333060,+0.895,+0.413,+0.167,+0.015,+0.666,-0.321,-0.532,+1.125,-9.750,-2.062,6, 4, 1, 0, 1, -1, -1, 3,2.968620539315288,0.8898113104465344
1503957333083,+0.895,+0.413,+0.168,+0.016,+0.760,-0.286,-0.504,+2.125,+0.000,-5.375,1, -1, -1, 0, 0, -1, -1, 1,2.965930397806831,0.8905953666874179
1503957333099,+0.894,+0.415,+0.168,+0.018,+0.817,-0.273,-0.548,+7.062,+5.938,-12.125,-1, 1, -2, -1, 2, 0, 0, -2,2.9615506398957145,0.8955277435961062
1503957333120,+0.894,+0.415,+0.168,+0.021,+0.814,-0.309,-0.616,+5.688,+0.312,-15.375,-1, -1, -1, -2, 2, 2, -1, -1,2.956049924795359,0.8961846628850169
1503957333143,+0.894,+0.415,+0.168,+0.022,+0.790,-0.329,-0.629,+3.375,+0.938,-9.188,-1, -2, 0, 0, -1, -1, 0, 0,2.954218857429179,0.8964033964619711
1503957333159,+0.894,+0.415,+0.169,+0.024,+0.781,-0.298,-0.583,+5.125,+1.875,-6.250,2, -13, -11, 0, -5, -1, -5, -1,2.9497121760734584,0.8974205354426243
1503957333181,+0.893,+0.415,+0.171,+0.025,+0.830,-0.321,-0.521,+8.812,-5.062,-6.812,-4, -7, 0, 0, 0, -2, 3, 0,2.945517506134075,0.8982747164565997
1503957333206,+0.893,+0.414,+0.172,+0.027,+0.834,-0.336,-0.513,+9.625,-7.875,-3.250,-6, 1, 1, -3, -4, -4, -3, -7,2.9410202812173156,0.896799889471583
1503957333219,+0.893,+0.414,+0.174,+0.027,+0.791,-0.330,-0.525,+8.375,-4.312,-1.375,6, 5, 1, 1, 2, 2, -2, 0,2.939324924284557,0.8979997192718666
1503957333241,+0.893,+0.413,+0.176,+0.028,+0.778,-0.341,-0.563,+7.812,-5.812,-1.688,5, 4, 0, -2, 1, 2, 0, 2,2.935811798876051,0.8969281992512322
1503957333263,+0.893,+0.413,+0.177,+0.030,+0.804,-0.316,-0.504,+4.875,-7.812,-5.750,0, 3, 0, 1, -2, 0, -1, -3,2.931313689871449,0.8980031438309535
1503957333279,+0.893,+0.413,+0.178,+0.030,+0.789,-0.290,-0.497,+2.625,+0.062,-0.938,-7, -5, 0, -4, -2, -3, -1, -2,2.9304698449306,0.8986228791003186
1503957333301,+0.891,+0.415,+0.179,+0.029,+0.735,-0.255,-0.544,+2.562,+16.562,+7.500,3, 0, 1, -1, -1, -2, 1, 0,2.9299985773519115,0.9029735099037423
1503957333323,+0.890,+0.418,+0.179,+0.027,+0.761,-0.248,-0.591,+1.375,+20.000,+9.375,-19, 5, -1, 1, -2, -2, 0, 1,2.9329208286932844,0.9095430307726055
1503957333341,+0.890,+0.419,+0.180,+0.026,+0.875,-0.288,-0.576,+0.938,+8.125,+8.562,3, -5, -5, -1, -2, -1, 0, 3,2.933881336292254,0.9124685898770467
1503957333361,+0.890,+0.419,+0.180,+0.025,+0.905,-0.308,-0.550,-0.688,-5.562,+9.812,1, 0, -1, -3, -1, -1, -3, -4,2.9357041894329883,0.9122378232837574
1503957333383,+0.891,+0.416,+0.180,+0.025,+0.833,-0.267,-0.530,-1.750,-17.000,+6.938,-1, -3, 0, 1, -1, -2, -4, -7,2.936450850890207,0.9051921316361363
1503957333399,+0.892,+0.413,+0.181,+0.025,+0.766,-0.265,-0.515,+1.000,-22.250,+3.125,2, 1, 0, -1, -1, 0, 0, 2,2.936359407712223,0.8987866860643502
1503957333421,+0.893,+0.411,+0.181,+0.026,+0.730,-0.294,-0.528,+3.062,-11.562,-0.375,5, -1, -3, -1, -1, -1, 0, 2,2.9352755910777937,0.8945238893354822
1503957333443,+0.892,+0.413,+0.182,+0.027,+0.739,-0.305,-0.558,+2.875,+8.750,-4.875,-2, -7, -2, -4, -2, 0, 2, 2,2.931847156008876,0.8998908347920939
1503957333459,+0.891,+0.415,+0.181,+0.027,+0.779,-0.251,-0.588,+1.000,+17.750,-4.500,0, 1, 5, -1, 0, 2, 3, -2,2.931951759621239,0.9037642275930656
1503957333482,+0.891,+0.417,+0.180,+0.028,+0.829,-0.222,-0.575,+1.375,+7.375,-1.250,-3, 11, 10, 3, 2, 2, 4, -2,2.930966263174517,0.9084143796958535
1503957333503,+0.891,+0.416,+0.181,+0.029,+0.845,-0.262,-0.539,+4.062,-9.000,-2.500,-3, -7, -6, -2, -2, 0, 0, 1,2.9282949603238135,0.9067559741229133
1503957333519,+0.892,+0.413,+0.181,+0.031,+0.789,-0.279,-0.528,+5.500,-22.125,-5.562,-2, -9, -5, -3, 0, 0, -2, -3,2.9253825140921386,0.9002029506031721
1503957333542,+0.894,+0.409,+0.181,+0.033,+0.738,-0.264,-0.532,+4.250,-24.312,-5.125,2, 0, -1, 0, -1, 1, 0, 0,2.9232085649901087,0.8917014821168069
1503957333563,+0.895,+0.407,+0.181,+0.033,+0.691,-0.293,-0.559,-0.312,-12.875,+0.938,3, 1, 0, 0, 0, 0, -2, 0,2.9239517411312956,0.8872256685001902
1503957333579,+0.895,+0.407,+0.182,+0.031,+0.678,-0.320,-0.580,-5.188,+6.312,+7.750,-2, 5, 2, 0, -1, -2, 0, -2,2.9267788523611467,0.8873774244296164
1503957333601,+0.894,+0.408,+0.181,+0.029,+0.717,-0.318,-0.585,-8.062,+13.000,+6.438,0, -4, -4, -1, -1, 1, -1, 0,2.9305380350285337,0.8882369460955367
1503957333623,+0.894,+0.409,+0.180,+0.029,+0.798,-0.294,-0.568,-8.500,+3.125,+0.812,-1, -5, -4, -2, 0, -1, 2, 0,2.9313641967611668,0.8901217703503259
1503957333641,+0.895,+0.408,+0.179,+0.029,+0.825,-0.259,-0.576,-6.812,-6.000,-0.500,17, 1, -4, -4, 0, -2, 1, 5,2.9329327370269356,0.8875293454386022
1503957333661,+0.896,+0.406,+0.178,+0.029,+0.788,-0.247,-0.574,-3.812,-12.438,-0.125,-5, -1, -2, -2, -3, 1, -3, -4,2.93450813622415,0.8824395831909911
1503957333685,+0.897,+0.405,+0.177,+0.029,+0.749,-0.253,-0.555,-4.250,-9.938,+3.875,-4, -1, -1, 0, -1, -1, 0, 1,2.936062462114555,0.8798649409945936
1503957333699,+0.897,+0.405,+0.177,+0.027,+0.726,-0.287,-0.549,-5.125,+0.875,+8.375,-4, -2, 0, 0, 0, -1, 0, 0,2.9397339541556846,0.8793927882940628
1503957333721,+0.896,+0.405,+0.177,+0.026,+0.761,-0.325,-0.571,-6.750,+6.750,+5.625,-4, 0, 0, -1, 0, -2, -2, -1,2.9408774754074427,0.8786153647677216
1503957333743,+0.896,+0.406,+0.176,+0.025,+0.821,-0.310,-0.583,-7.438,+3.500,-0.250,-6, 0, 1, 0, -1, -2, 0, -2,2.9435277178726222,0.8802810863224511
1503957333759,+0.897,+0.406,+0.175,+0.026,+0.837,-0.301,-0.599,-6.938,-7.500,-3.688,-3, -2, -2, -2, -4, -1, 0, -1,2.9432079873425656,0.8804557779086648
1503957333783,+0.898,+0.404,+0.173,+0.027,+0.827,-0.283,-0.570,-6.688,-11.500,-4.438,2, 5, -1, 0, -1, 1, 0, -1,2.9437589710297027,0.8750377391246332
1503957333803,+0.898,+0.404,+0.172,+0.027,+0.780,-0.262,-0.555,-8.000,-5.188,-1.750,-10, 9, 7, 4, 2, 0, -1, -2,2.944586145555912,0.8744486913903363
1503957333819,+0.898,+0.405,+0.171,+0.026,+0.724,-0.276,-0.570,-7.875,+6.000,+2.625,2, -3, -2, -1, -1, -1, -2, 0,2.9472297078464607,0.8761317983689266
1503957333843,+0.897,+0.406,+0.171,+0.024,+0.736,-0.295,-0.578,-8.125,+11.438,+4.312,-1, -5, -1, 0, -1, -1, -3, 0,2.9502158572500696,0.8776337322171338
1503957333863,+0.897,+0.408,+0.170,+0.023,+0.791,-0.280,-0.580,-8.188,+10.562,+4.688,-1, -3, -4, -2, -2, -2, -1, -1,2.9528328404496813,0.881833276463641
1503957333880,+0.897,+0.409,+0.169,+0.021,+0.796,-0.271,-0.567,-7.000,+6.688,+5.375,1, -2, -2, -1, -2, 0, 0, 0,2.9573122586401275,0.883314044955657
1503957333901,+0.896,+0.410,+0.168,+0.020,+0.775,-0.271,-0.553,-8.250,+5.938,+6.000,-4, 12, 5, 5, 0, 0, -1, 1,2.959316897643319,0.8844859911592254
1503957333923,+0.896,+0.411,+0.168,+0.018,+0.764,-0.279,-0.549,-9.500,+8.938,+6.062,-9, -16, -5, -4, 0, -1, 4, -2,2.9629590524394764,0.8865521795843379
1503957333939,+0.895,+0.413,+0.167,+0.016,+0.796,-0.282,-0.554,-8.625,+10.188,+5.000,3, -2, -3, -2, -3, 0, -4, 0,2.9667795323511155,0.8900307542890598
1503957333961,+0.895,+0.413,+0.166,+0.016,+0.810,-0.267,-0.563,-7.688,+2.125,+2.250,-1, 2, 2, 1, -1, -1, -1, -1,2.967628921662296,0.8894698504659386
1503957333983,+0.896,+0.412,+0.165,+0.016,+0.806,-0.270,-0.576,-6.438,-9.125,-0.750,4, 0, -1, -1, 0, -1, -1, 0,2.969131437121121,0.8869425679620995
1503957333999,+0.897,+0.410,+0.164,+0.016,+0.751,-0.293,-0.570,-5.750,-10.562,-0.750,0, -8, -3, -3, 0, -2, -1, -7,2.970671631462593,0.8819143357059388
1503957334021,+0.897,+0.409,+0.164,+0.015,+0.714,-0.285,-0.567,-6.125,-2.562,+0.938,13, -2, -2, -1, -2, 0, -1, 3,2.972564702905045,0.8791893210492581
1503957334044,+0.897,+0.411,+0.163,+0.014,+0.744,-0.276,-0.564,-6.438,+9.188,+3.500,-6, 0, 0, -2, -1, 0, -1, -4,2.97515114986002,0.8834440416292363
1503957334059,+0.896,+0.413,+0.163,+0.013,+0.792,-0.292,-0.576,-5.562,+14.125,+4.562,5, -1, 0, -4, -2, -2, -2, 1,2.976301132588496,0.8877093420288625
1503957334082,+0.896,+0.414,+0.163,+0.012,+0.826,-0.287,-0.575,-3.562,+6.250,+2.375,-4, 3, 0, 2, 0, 0, -2, -3,2.978088575387638,0.890010168168768
1503957334103,+0.896,+0.413,+0.162,+0.012,+0.797,-0.293,-0.546,-2.312,-6.562,-0.688,0, 3, 0, 1, -1, -2, -2, -1,2.978992662074705,0.8869538924151994
1503957334119,+0.896,+0.413,+0.163,+0.012,+0.764,-0.309,-0.549,-1.375,-4.750,-1.812,1, 2, 0, 0, -1, -1, -1, -1,2.9781432043524214,0.8874948663759974
1503957334141,+0.896,+0.413,+0.163,+0.012,+0.731,-0.304,-0.582,-3.250,+7.062,+0.062,-9, 1, -1, 0, -1, -1, 0, -1,2.9781432043524214,0.8874948663759974
1503957334163,+0.895,+0.415,+0.162,+0.011,+0.773,-0.289,-0.584,-6.438,+12.250,+1.000,1, -4, 0, -1, -1, 0, 0, 0,2.980146932772257,0.8912291744430629
1503957334179,+0.894,+0.417,+0.161,+0.010,+0.840,-0.283,-0.547,-7.438,+9.500,+2.062,-8, -7, 0, 0, -2, -1, -1, -2,2.982160548201039,0.8949755880631275
1503957334201,+0.894,+0.417,+0.160,+0.010,+0.808,-0.262,-0.533,-6.500,-0.625,+0.375,6, 0, -3, 0, -1, -2, -1, 1,2.983019826435126,0.8944408950478537
1503957334223,+0.895,+0.417,+0.159,+0.010,+0.775,-0.217,-0.512,-5.750,-6.625,-2.062,3, -2, 0, -1, 1, -1, -1, 0,2.984443157293119,0.8944533556202872
1503957334239,+0.895,+0.417,+0.158,+0.010,+0.743,-0.245,-0.520,-5.750,-1.312,-2.812,-3, 0, 2, 1, 0, -1, 0, -3,2.9852998206009174,0.8939261476208668
1503957334262,+0.895,+0.418,+0.157,+0.009,+0.751,-0.321,-0.574,-9.625,+10.000,-1.250,1, 0, 2, 0, -1, -2, -1, -1,2.987939708879256,0.8957167617435755
1503957334284,+0.895,+0.418,+0.155,+0.008,+0.795,-0.328,-0.562,-16.812,+0.812,-1.938,-4, -1, -1, -1, -1, 1, -2, -1,2.991494895928647,0.8944799843338556
1503957334299,+0.896,+0.417,+0.154,+0.008,+0.839,-0.288,-0.433,-9.812,-18.875,-1.688,-1, -11, -2, 0, -1, -1, -4, -1,2.9929483908966996,0.8919959367187644
1503957334322,+0.896,+0.416,+0.157,+0.009,+0.767,-0.303,-0.450,+9.125,-10.000,+1.625,1, 24, 9, 3, -1, -1, -1, 0,2.9886047857777234,0.891224460359888
1503957334345,+0.895,+0.418,+0.159,+0.007,+0.653,-0.369,-0.599,+3.938,+20.062,+6.625,1, -7, -4, 0, 0, -2, 0, 1,2.989898588339139,0.8963534897900828
1503957334359,+0.892,+0.423,+0.159,+0.003,+0.715,-0.373,-0.721,-8.875,+49.500,+12.438,3, -2, 1, 1, 0, 0, 1, 3,2.9952918449997554,0.9065435055008934
1503957334382,+0.889,+0.430,+0.157,+0.000,+0.896,-0.226,-0.678,-11.375,+51.312,+5.062,-2, 1, 0, -2, -2, 1, 2, -1,3.0004766699755683,0.9210489261881277
1503957334404,+0.888,+0.433,+0.154,+0.002,+1.022,-0.061,-0.565,+0.375,+10.000,-2.438,-3, -4, -1, -1, -2, -2, 0, 0,2.998762553041345,0.926985943903577
1503957334419,+0.889,+0.431,+0.155,+0.005,+0.972,-0.173,-0.488,+15.125,-29.000,-3.938,-2, -1, -6, -2, 0, -1, -2, 0,2.9930361286659526,0.9235327346027852
1503957334442,+0.892,+0.424,+0.159,+0.007,+0.756,-0.377,-0.593,+13.938,-39.125,+0.062,-2, -8, -2, -3, -2, -1, -3, 0,2.987884545936432,0.9098918822998487
1503957334464,+0.894,+0.418,+0.161,+0.005,+0.588,-0.379,-0.658,+2.250,-18.938,+12.000,4, 11, 4, 1, 0, 1, -1, 1,2.9913122283124896,0.8964505107843288
1503957334480,+0.894,+0.417,+0.163,+0.001,+0.608,-0.319,-0.627,-1.438,+8.500,+19.812,-5, -7, -4, -3, 0, -3, -1, -1,2.9970541715965444,0.894140254131613
1503957334502,+0.892,+0.420,+0.165,-0.002,+0.768,-0.309,-0.554,+2.812,+24.062,+20.750,-3, -1, -2, -2, -1, -1, -1, -4,2.9995330824240125,0.9010814294906966
1503957334524,+0.890,+0.423,+0.168,-0.005,+0.878,-0.286,-0.522,+9.562,+15.188,+19.812,-3, -2, -1, -2, -1, 0, -1, 0,3.0011020360422798,0.9086090857545184
1503957334539,+0.890,+0.423,+0.171,-0.006,+0.880,-0.269,-0.516,+13.562,-4.812,+18.250,-4, -4, -2, -3, -1, -1, -1, -5,3.000313279922093,0.910055271289867
1503957334562,+0.891,+0.420,+0.174,-0.006,+0.779,-0.273,-0.551,+14.562,-13.688,+12.750,-5, -14, -3, 0, -1, -3, -1, 0,2.9985475806632964,0.9046377633384287
1503957334584,+0.891,+0.418,+0.176,-0.005,+0.711,-0.297,-0.568,+14.000,-9.188,+2.375,3, 1, 0, -1, 1, 0, 4, 1,2.995161613284475,0.9009093986858472
1503957334599,+0.891,+0.418,+0.178,-0.003,+0.748,-0.328,-0.512,+12.062,-2.062,-6.938,-15, -9, -2, 0, -3, 0, -2, -4,2.98969821729656,0.9025341092264444
1503957334623,+0.889,+0.421,+0.180,-0.000,+0.770,-0.345,-0.418,+15.188,+7.312,-12.688,1, 1, -1, 0, -1, -1, 0, -3,2.980915074596815,0.9109847961453902
1503957334644,+0.886,+0.426,+0.183,+0.003,+0.789,-0.328,-0.392,+19.688,+21.688,-14.250,6, 6, -1, 1, 1, -1, -1, 2,2.970462345468467,0.9246822613726182
1503957334660,+0.882,+0.432,+0.185,+0.005,+0.791,-0.312,-0.456,+21.812,+39.812,-12.375,4, 12, 1, 1, 0, -2, -5, 0,2.962016874314669,0.9396581912535418
1503957334682,+0.878,+0.440,+0.188,+0.007,+0.821,-0.306,-0.526,+21.562,+47.562,-10.375,-5, 0, -1, -3, 0, 1, -1, 0,2.9525550947003945,0.9605712498283109
1503957334703,+0.875,+0.446,+0.190,+0.009,+0.880,-0.319,-0.546,+18.312,+36.812,-9.375,3, 1, 0, -2, 0, -2, -2, -3,2.9448040525776547,0.976326648688363
1503957334720,+0.873,+0.449,+0.191,+0.011,+0.886,-0.335,-0.513,+16.562,+17.625,-10.312,2, 1, 1, 1, -2, 1, -1, 1,2.9387787809898613,0.9842016364120308
1503957334742,+0.872,+0.450,+0.193,+0.014,+0.860,-0.319,-0.505,+16.062,+4.688,-12.625,0, -4, -1, 0, 0, -1, 0, -1,2.9307708048938736,0.9883341494243402
1503957334763,+0.872,+0.449,+0.194,+0.017,+0.795,-0.310,-0.540,+15.875,+0.000,-8.375,-1, -1, -1, -1, 0, 0, -1, 3,2.9244368693578053,0.9871096300581863
1503957334779,+0.872,+0.448,+0.196,+0.018,+0.766,-0.321,-0.580,+13.125,-1.375,+1.750,1, -2, -3, -2, -1, -2, 1, 0,2.9207753452480407,0.9861545975667931
1503957334802,+0.873,+0.446,+0.197,+0.018,+0.789,-0.274,-0.565,+6.312,-6.188,+6.375,5, -1, -1, -1, -1, -2, -2, 0,2.9206067445870794,0.9821966337337128
1503957334824,+0.873,+0.445,+0.198,+0.019,+0.785,-0.253,-0.459,+7.750,-7.438,-0.125,16, -9, -3, -2, -1, 0, 4, 5,2.917875230571184,0.9805502692547323
1503957334839,+0.873,+0.445,+0.199,+0.019,+0.759,-0.323,-0.475,+6.750,-1.000,+3.125,-5, 1, 1, 1, 1, -1, -5, -9,2.9169559547152595,0.9812715792678401
1503957334862,+0.872,+0.445,+0.200,+0.016,+0.706,-0.351,-0.524,-2.250,+14.750,+10.938,-1, 5, 2, -1, 0, -1, -2, 1,2.920672803362447,0.9807644741757591
1503957334888,+0.872,+0.447,+0.200,+0.014,+0.707,-0.296,-0.494,-7.562,+19.000,+7.312,-6, -3, 2, -1, -1, -1, -1, -2,2.9242848263166326,0.985499627955234
1503957334899,+0.871,+0.448,+0.198,+0.014,+0.837,-0.229,-0.459,-6.062,+5.750,+1.750,-7, -7, -4, -2, -1, -1, -2, -3,2.9253702531593393,0.986138963969878
1503957334922,+0.872,+0.448,+0.197,+0.015,+0.864,-0.237,-0.439,-2.875,-8.875,+0.812,-4, -10, 0, -4, -4, -3, -5, -3,2.9252561753915542,0.9861789355502587
1503957334944,+0.873,+0.446,+0.196,+0.015,+0.791,-0.283,-0.458,-4.000,-15.438,+3.312,-16, -4, -2, -2, -2, -1, 0, -6,2.9269442109344523,0.9807916462973538
1503957334959,+0.874,+0.444,+0.196,+0.013,+0.762,-0.327,-0.490,-9.000,-8.562,+8.875,-1, 1, 1, 1, 0, -2, 1, 1,2.931333773865483,0.9756579927066441
1503957334984,+0.875,+0.443,+0.195,+0.010,+0.763,-0.359,-0.517,-13.562,+0.875,+9.750,0, 6, 0, 4, -2, -14, -3, 1,2.9384575138879625,0.9721905187704202
1503957335003,+0.876,+0.442,+0.194,+0.008,+0.782,-0.355,-0.520,-15.188,-1.375,+3.875,4, 4, 0, -3, 0, 2, -1, 2,2.9437649229729206,0.9689659036230674
1503957335022,+0.877,+0.441,+0.191,+0.008,+0.824,-0.332,-0.504,-17.625,-12.062,-3.000,2, 2, -1, 1, 0, 5, 2, 2,2.947258143068968,0.9648595114401978
1503957335042,+0.878,+0.439,+0.188,+0.008,+0.829,-0.307,-0.469,-19.250,-14.125,-3.625,-3, -1, -3, -1, -1, 1, 2, 0,2.950769986657714,0.9582120602474459
1503957335064,+0.880,+0.438,+0.185,+0.007,+0.800,-0.290,-0.494,-20.375,-7.062,-0.625,0, -4, -3, -2, -1, -3, -1, -1,2.9567228506057495,0.9545102227279133
1503957335080,+0.880,+0.438,+0.181,+0.005,+0.816,-0.281,-0.521,-22.312,+0.938,+1.875,-5, -7, -2, -3, -1, 1, 0, -6,2.9640106584138706,0.9515170981894276
1503957335109,+0.881,+0.439,+0.178,+0.004,+0.849,-0.273,-0.524,-19.688,+0.938,-1.750,2, 10, 3, 1, 0, 1, 1, -1,2.969150735431129,0.952549149962852
1503957335124,+0.882,+0.438,+0.175,+0.005,+0.903,-0.261,-0.506,-15.375,-12.750,-6.188,-1, 2, 2, 2, 1, 2, 0, 0,2.970722004238982,0.9488967658819809
1503957335145,+0.884,+0.435,+0.172,+0.006,+0.873,-0.266,-0.501,-13.188,-23.375,-4.688,1, -1, -3, -1, -3, 0, -2, 1,2.9729790202222186,0.9406866477575571
1503957335162,+0.885,+0.432,+0.171,+0.005,+0.774,-0.308,-0.493,-13.562,-21.312,+4.125,-4, 1, 1, 1, 4, 5, -3, -1,2.9764671004272913,0.9327393689774509
1503957335184,+0.886,+0.430,+0.170,+0.002,+0.733,-0.345,-0.479,-16.562,-8.125,+11.312,-6, 2, -2, 0, -2, -1, 0, -2,2.983583533288062,0.9269428512863268
1503957335199,+0.886,+0.431,+0.169,-0.002,+0.793,-0.335,-0.485,-19.188,+2.812,+12.500,4, 1, 1, -1, -1, -2, 0, 0,2.991760799444369,0.9280807341281818
1503957335222,+0.887,+0.431,+0.167,-0.004,+0.854,-0.313,-0.491,-18.375,+0.062,+9.250,2, 6, -3, 0, -2, -1, -1, 1,2.997778322455094,0.9270801746986425
1503957335244,+0.887,+0.430,+0.165,-0.006,+0.839,-0.308,-0.499,-16.625,-9.438,+4.250,-5, -4, -1, 0, -1, 1, -1, -3,3.0033403308368958,0.9230022923192015
1503957335260,+0.889,+0.428,+0.164,-0.007,+0.831,-0.341,-0.529,-14.812,-14.438,+1.875,1, -1, 1, 1, 0, 0, 1, -1,3.0073088807906467,0.9182268588515708
1503957335282,+0.889,+0.429,+0.163,-0.008,+0.790,-0.360,-0.514,-13.500,+0.938,+2.250,7, 1, -1, -1, 0, -1, 0, -2,3.0099386415808844,0.9200400973970367
1503957335304,+0.888,+0.431,+0.162,-0.010,+0.780,-0.350,-0.518,-11.812,+16.750,+2.500,-9, -1, -1, -2, -3, 0, -1, -3,3.0138058465642743,0.9236710761106309
1503957335323,+0.886,+0.435,+0.161,-0.011,+0.825,-0.334,-0.536,-5.438,+24.375,-4.062,-3, -2, 0, -2, -2, -1, 0, -5,3.015138315905744,0.9321090912221337
1503957335342,+0.885,+0.437,+0.161,-0.009,+0.863,-0.341,-0.558,+5.250,+8.500,-13.688,5, 0, -1, 1, -1, -1, 1, 2,3.010769294320045,0.9371036726062651
1503957335364,+0.885,+0.437,+0.162,-0.005,+0.864,-0.305,-0.530,+11.875,-5.000,-19.875,3, -1, -1, -1, -1, -1, 1, -1,3.002534272683958,0.9384385169802016
1503957335379,+0.884,+0.437,+0.164,-0.001,+0.786,-0.312,-0.532,+17.750,-1.375,-17.375,-2, -5, 2, -1, 0, -4, -1, -1,2.9928678052888773,0.9397965481156643
1503957335402,+0.884,+0.437,+0.167,+0.002,+0.727,-0.371,-0.570,+19.562,+7.688,-15.125,-12, -2, -2, -1, -3, -2, 3, 0,2.9846736135992296,0.9420883182200506
1503957335424,+0.882,+0.439,+0.169,+0.005,+0.791,-0.384,-0.548,+17.938,+13.625,-16.438,-1, 1, -3, 1, 0, -1, -2, -1,2.976112878994563,0.9479163634916941
1503957335445,+0.880,+0.442,+0.171,+0.008,+0.899,-0.333,-0.488,+17.000,+10.062,-11.000,18, 3, -2, -1, 0, -9, -4, 1,2.9674934547202065,0.9563568084097576
1503957335463,+0.879,+0.444,+0.174,+0.010,+0.884,-0.310,-0.451,+19.938,+9.250,-5.750,5, -2, -4, -3, -4, -3, -2, -1,2.9604371938573473,0.963198549974339
1503957335483,+0.877,+0.446,+0.178,+0.012,+0.737,-0.346,-0.450,+22.312,+13.250,-3.000,-3, -1, 0, -4, -3, 2, 0, -1,2.951803514077199,0.9702006662908231
1503957335505,+0.875,+0.449,+0.181,+0.015,+0.726,-0.369,-0.514,+22.875,+23.438,-16.500,-15, -21, -3, -5, -5, -7, 3, -2,2.9422452537351953,0.9794562231397534
1503957335527,+0.871,+0.455,+0.184,+0.019,+0.845,-0.330,-0.526,+28.188,+35.938,-25.062,10, 10, -1, 4, 1, 1, -5, 0,2.929506964387615,0.9957439011005023
1503957335543,+0.867,+0.460,+0.188,+0.024,+0.953,-0.335,-0.503,+36.938,+31.000,-18.375,-1, -4, -5, -2, -1, -6, -10, -7,2.91402512305047,1.0104632395996174
1503957335565,+0.863,+0.465,+0.194,+0.028,+0.929,-0.363,-0.478,+40.000,+30.625,-8.750,-2, -8, -4, -2, 2, 4, 4, 1,2.8984001861275868,1.0265839865692552
1503957335580,+0.859,+0.469,+0.201,+0.030,+0.862,-0.382,-0.454,+42.750,+29.938,-4.750,1, 8, 4, 3, 1, -1, -3, -1,2.8851796625555615,1.0406944758636216
1503957335603,+0.856,+0.472,+0.209,+0.033,+0.843,-0.455,-0.457,+45.438,+27.250,-5.188,3, 4, 1, 0, 0, 0, 0, 0,2.8699068269045385,1.0540044040658985
1503957335626,+0.851,+0.476,+0.216,+0.036,+0.888,-0.467,-0.464,+47.500,+31.125,-7.375,-5, 0, -2, 1, 0, -1, 0, 0,2.8537647231259373,1.0685122942220122
1503957335640,+0.848,+0.478,+0.224,+0.041,+0.888,-0.443,-0.513,+54.250,+21.250,-6.812,21, 5, 0, -1, 1, -2, 4, 6,2.8347055744816654,1.0803538116109057
1503957335663,+0.845,+0.479,+0.232,+0.046,+0.870,-0.412,-0.411,+56.062,+5.312,-8.438,-12, -5, -1, -4, -6, -2, 2, -5,2.81543249683776,1.0899270629262996
1503957335688,+0.841,+0.482,+0.240,+0.051,+0.781,-0.360,-0.301,+53.875,+24.688,-10.938,-1, 1, 2, 2, 4, 5, -2, -3,2.795406499400062,1.1047091849020658
1503957335700,+0.835,+0.488,+0.247,+0.056,+0.773,-0.332,-0.350,+53.562,+42.688,-20.062,-2, -5, 0, -5, 0, -1, 2, 1,2.7747262266043022,1.1259472172756417
1503957335723,+0.829,+0.495,+0.251,+0.063,+0.914,-0.263,-0.377,+50.938,+40.812,-25.500,-8, -21, -10, -2, 0, -1, -4, -8,2.7539956804555907,1.1475553212521599
1503957335745,+0.825,+0.500,+0.255,+0.072,+0.894,-0.190,-0.376,+53.688,+29.375,-29.500,7, -8, -7, -4, -3, -2, 0, 3,2.732106590419069,1.1652758554686755
1503957335760,+0.820,+0.504,+0.259,+0.081,+0.798,-0.169,-0.300,+51.688,+24.562,-37.125,5, -5, -5, -5, -4, -2, -5, -7,2.7088975979332304,1.180011165072391
1503957335783,+0.815,+0.509,+0.261,+0.091,+0.745,-0.203,-0.241,+46.375,+23.125,-41.938,-2, 4, 3, 3, 0, 4, 2, 7,2.6867505981727744,1.195482680234825
1503957335805,+0.809,+0.517,+0.262,+0.099,+0.867,-0.209,-0.230,+34.625,+41.312,-46.812,-2, -7, -4, 1, 2, 3, 3, 3,2.669145222640582,1.216978246323653
1503957335824,+0.803,+0.523,+0.263,+0.107,+0.912,-0.194,-0.338,+34.312,+41.750,-41.812,-5, -8, -5, -3, -3, -5, -4, -9,2.6509722848042756,1.233200339950016
1503957335843,+0.800,+0.527,+0.262,+0.114,+0.976,-0.188,-0.302,+25.062,+18.062,-33.125,-5, -3, -2, -2, 1, -2, 2, 2,2.639626463313279,1.2428039393360144
1503957335866,+0.797,+0.530,+0.262,+0.120,+0.955,-0.196,-0.263,+19.438,+13.938,-30.000,3, 5, 2, 1, 1, 2, 2, -2,2.628402691091761,1.250687298801364
1503957335880,+0.795,+0.533,+0.262,+0.125,+0.904,-0.178,-0.274,+20.062,+16.562,-26.688,1, 3, 2, 0, 1, 0, -7, 5,2.6202001577319765,1.258726874967238
1503957335903,+0.792,+0.536,+0.262,+0.130,+0.892,-0.169,-0.274,+19.312,+16.812,-23.062,-12, -7, -1, 0, -3, -4, 3, -7,2.6107055897974174,1.266409744118153
1503957335926,+0.790,+0.538,+0.262,+0.134,+0.880,-0.184,-0.258,+14.625,+11.875,-21.125,0, -1, -3, -3, -5, -4, -4, -1,2.6035063428259604,1.2716341195298408
1503957335948,+0.788,+0.540,+0.261,+0.138,+0.909,-0.200,-0.265,+8.875,+9.750,-21.500,1, -1, 1, 0, 0, 1, -1, 1,2.5973364456965222,1.275730489838387
1503957335963,+0.787,+0.542,+0.260,+0.141,+0.904,-0.201,-0.279,+5.562,+12.625,-17.875,4, 0, -3, -3, -1, -2, -10, -16,2.5940716474370626,1.2799896845219152
1503957335986,+0.786,+0.543,+0.258,+0.143,+0.934,-0.200,-0.272,+3.500,+8.625,-16.250,-13, -12, -8, -2, -3, -3, -3, 9,2.5924787252236903,1.280369876041036
1503957337125,+0.844,+0.487,+0.171,+0.147,+0.896,-0.148,-0.474,-3.312,-34.500,-19.625,-9, -7, -1, -2, -1, -2, -1, -6,2.7094028632816918,1.0791115426060054
1503957337142,+0.846,+0.483,+0.169,+0.149,+0.852,-0.161,-0.430,-6.625,-26.188,-9.875,14, 6, 1, -1, 2, 0, 2, 3,2.7083627864546105,1.0687312042274297
1503957337167,+0.847,+0.482,+0.167,+0.149,+0.878,-0.127,-0.416,-7.688,-11.062,-3.438,-6, -2, -1, 0, -1, -1, -2, 1,2.7107846314632353,1.0651892377068173
1503957337185,+0.848,+0.481,+0.167,+0.149,+0.944,-0.137,-0.441,-4.188,-11.375,-0.875,-6, 2, 2, 1, 2, 3, -2, 0,2.7114344137265265,1.0631300294485484
1503957337201,+0.849,+0.478,+0.166,+0.149,+0.980,-0.144,-0.467,-2.500,-18.188,+2.750,0, 2, 2, -1, -3, -2, 0, 3,2.711965192907824,1.05528552843107
1503957337223,+0.852,+0.474,+0.166,+0.150,+0.951,-0.148,-0.496,+1.062,-27.562,+2.625,1, 1, 0, -2, -2, -2, -3, 0,2.7118887608708544,1.0467949138888581
1503957337245,+0.854,+0.469,+0.167,+0.150,+0.901,-0.178,-0.510,+7.875,-29.438,+4.688,12, 3, -2, 2, -1, -1, -3, 2,2.710903023125816,1.0359163579107546
1503957337261,+0.856,+0.464,+0.169,+0.151,+0.852,-0.198,-0.500,+11.688,-25.438,+9.625,-1, -2, -2, -2, 0, 0, 1, 6,2.7075521682189394,1.0260027236257232
1503957337283,+0.858,+0.461,+0.173,+0.149,+0.872,-0.198,-0.492,+12.062,-16.062,+16.438,-1, 0, -1, -2, 0, 1, 1, 1,2.7082489422328675,1.0221091650505676
1503957337306,+0.858,+0.458,+0.177,+0.148,+0.910,-0.146,-0.534,+17.125,-7.875,+23.438,-3, -4, -3, -3, -2, 0, -4, -5,2.70505708067244,1.017477723324674
1503957337321,+0.859,+0.455,+0.182,+0.146,+0.939,-0.125,-0.525,+24.250,-11.938,+29.875,-2, 1, 1, -1, -2, 1, 0, 4,2.703856427109175,1.013981387615421
1503957337343,+0.860,+0.451,+0.188,+0.144,+0.937,-0.201,-0.473,+26.500,-19.125,+35.562,1, 15, 4, 3, 2, -1, -1, 0,2.701460072074572,1.008872143808584
1503957337367,+0.861,+0.448,+0.196,+0.140,+0.872,-0.202,-0.510,+33.562,-6.938,+43.188,-8, -10, -5, -3, -3, -1, -3, -3,2.701127494895271,1.007598090005971
1503957337381,+0.861,+0.444,+0.206,+0.138,+0.845,-0.155,-0.596,+49.750,-0.312,+45.375,0, -4, -2, 1, 1, 0, 1, 0,2.6944014928667173,1.0056877163914406
1503957337405,+0.861,+0.439,+0.217,+0.136,+0.933,-0.210,-0.554,+55.875,-16.000,+48.938,-2, 0, -1, -2, -2, 0, -1, -1,2.6865746238886015,1.0025357951250826
1503957337425,+0.862,+0.433,+0.229,+0.133,+0.869,-0.255,-0.475,+58.000,-18.688,+56.875,-2, -4, 0, 1, 0, -2, 0, 2,2.6806681603966593,0.9985013212219114
1503957337442,+0.861,+0.428,+0.242,+0.130,+0.772,-0.268,-0.473,+63.125,-7.125,+58.562,1, -3, 0, -2, 0, 0, 7, 4,2.6718324836142533,0.9974628426355567
1503957337463,+0.859,+0.424,+0.257,+0.126,+0.760,-0.300,-0.501,+68.688,+8.188,+59.000,4, 0, 0, -1, -1, -2, 2, -1,2.6620349900900124,1.0008532432390533
1503957337485,+0.857,+0.421,+0.271,+0.123,+0.896,-0.330,-0.515,+74.188,+2.562,+58.375,-1, -4, -5, -4, -4, -1, -5, 0,2.6517601482048607,1.006766153609213
1503957337502,+0.855,+0.415,+0.286,+0.122,+0.878,-0.309,-0.463,+81.375,-13.812,+55.562,-3, 13, 2, 3, -1, -1, -3, -2,2.636443875345723,1.0077700317318865
1503957337523,+0.854,+0.407,+0.301,+0.123,+0.750,-0.312,-0.378,+84.812,-28.250,+47.875,0, -6, -3, -4, -2, -1, -3, -3,2.618913717820727,1.0059126952737345
1503957337546,+0.851,+0.400,+0.316,+0.122,+0.628,-0.402,-0.377,+81.375,-13.062,+47.562,-2, -2, -4, 0, -1, -1, -2, -1,2.6017448179114804,1.0059612924720467
1503957337561,+0.848,+0.397,+0.330,+0.120,+0.702,-0.445,-0.461,+77.812,+8.812,+45.188,2, -1, -1, 1, 1, 0, -1, 2,2.5881171050927185,1.0153931682307664
1503957337583,+0.845,+0.393,+0.343,+0.121,+0.817,-0.458,-0.428,+72.250,-3.938,+36.125,3, -1, -1, -1, -2, -2, 0, 1,2.5699329041996632,1.0230303283220643
1503957337607,+0.843,+0.386,+0.353,+0.123,+0.805,-0.510,-0.345,+61.375,-31.375,+23.688,4, -1, -1, -3, -2, -1, 1, 2,2.553236579599315,1.0202617260808975
1503957337621,+0.842,+0.379,+0.361,+0.126,+0.672,-0.514,-0.358,+50.562,-35.688,+14.500,-11, -4, -2, -4, -2, -1, -3, -3,2.5383525431440592,1.0158332494407776
1503957337644,+0.842,+0.374,+0.367,+0.129,+0.640,-0.500,-0.379,+37.688,-25.438,+4.812,0, 19, 0, 1, 0, -1, -4, -2,2.527626486256047,1.0141285982463737
1503957337666,+0.841,+0.371,+0.370,+0.133,+0.695,-0.450,-0.424,+28.688,-15.312,-4.062,0, -6, -2, -1, -2, 0, 2, 2,2.516083479202814,1.0128026777559203
1503957337681,+0.841,+0.368,+0.371,+0.140,+0.824,-0.414,-0.345,+21.438,-33.375,-15.000,9, -2, 2, 2, 0, -1, 0, 1,2.5032671996426266,1.0101255303300498
1503957337703,+0.843,+0.363,+0.370,+0.146,+0.781,-0.467,-0.176,-2.625,-57.438,-16.312,-3, -4, -4, -4, -2, -1, -1, -5,2.4970186339302107,0.999687281674038
1503957337725,+0.846,+0.360,+0.364,+0.149,+0.565,-0.350,-0.201,-28.312,-38.562,-17.562,3, 3, 4, 3, 0, -1, 1, 1,2.501609225147037,0.9852934023592056
1503957337741,+0.849,+0.361,+0.355,+0.151,+0.597,-0.335,-0.341,-46.375,-14.438,-23.438,0, -8, -2, -4, -1, -1, 1, 0,2.510949983558213,0.9759208608544893
1503957337763,+0.852,+0.363,+0.344,+0.152,+0.774,-0.356,-0.517,-59.438,-5.500,-27.000,-7, 0, 2, 2, -1, 0, 0, -2,2.5233913209124705,0.966034609784815
1503957337785,+0.857,+0.364,+0.330,+0.155,+0.856,-0.368,-0.526,-66.438,-26.312,-29.875,-2, -2, -4, -4, -3, -2, -5, -1,2.5380474537508304,0.9519190442345329
1503957337803,+0.863,+0.361,+0.317,+0.156,+0.700,-0.435,-0.526,-75.250,-36.250,-27.812,11, 6, 0, -2, -1, -2, -3, 2,2.555428781492251,0.9300599730099225
1503957337823,+0.869,+0.360,+0.301,+0.157,+0.625,-0.418,-0.503,-88.875,-30.562,-31.375,-7, -4, 0, 3, 1, 0, 0, -2,2.5749650182932187,0.9102316685855151
1503957337846,+0.873,+0.364,+0.285,+0.154,+0.610,-0.261,-0.625,-92.562,+10.875,-21.062,-10, -6, -2, 2, 2, 1, 1, -5,2.5985556514249457,0.9012198492953514
1503957337861,+0.877,+0.369,+0.271,+0.150,+0.786,-0.268,-0.636,-87.375,+15.125,-9.938,3, 0, -4, -6, -1, 0, -3, -2,2.6225307755808096,0.8977523852290238
1503957337883,+0.881,+0.370,+0.256,+0.146,+0.760,-0.375,-0.533,-96.250,-10.250,-12.938,2, -1, 0, -3, -2, -5, -3, -2,2.6459102470991267,0.8846038863897417
1503957337908,+0.886,+0.371,+0.238,+0.143,+0.541,-0.367,-0.474,-111.812,-15.312,-18.938,0, -1, -2, -1, -1, 4, 4, 3,2.6710082435596627,0.8705007753814594
1503957337921,+0.889,+0.379,+0.219,+0.136,+0.487,-0.188,-0.664,-119.562,+31.812,-13.875,1, -2, 2, 1, 0, 1, -2, -1,2.70233961886388,0.8715653651548976
1503957337943,+0.889,+0.390,+0.203,+0.128,+0.716,+0.040,-0.908,-95.375,+74.938,+5.500,-5, -25, -3, 1, -1, -1, 2, -4,2.7303157347296216,0.8822453343437704
1503957337965,+0.889,+0.400,+0.188,+0.120,+0.956,-0.136,-0.758,-94.250,+54.375,+6.250,-10, -10, -4, 0, -2, -1, 2, -24,2.7577376168203753,0.8926335423034412
1503957337982,+0.892,+0.403,+0.173,+0.112,+0.920,-0.211,-0.566,-106.500,+8.562,+5.125,2, -4, -2, -3, -2, -1, 3, -12,2.786951633760854,0.888726660021745
1503957338005,+0.895,+0.403,+0.157,+0.104,+0.804,-0.150,-0.580,-105.688,-10.625,+4.875,6, 6, -3, -5, -4, -3, -3, 24,2.8162091089367935,0.8779951818758148
1503957338025,+0.899,+0.402,+0.142,+0.097,+0.775,-0.107,-0.701,-94.062,-13.312,+9.812,8, 9, -1, 1, -5, -1, -8, 20,2.843615666906508,0.8673309623353377
1503957338042,+0.902,+0.401,+0.129,+0.089,+0.782,-0.045,-0.812,-82.562,-0.062,+21.625,-4, -9, -1, 7, -3, 0, -5, -7,2.8702000097036575,0.8580342967225689
1503957338063,+0.904,+0.402,+0.118,+0.079,+0.685,-0.093,-0.713,-81.312,+13.688,+27.750,9, 4, 1, -2, 1, 1, 1, 18,2.8982913628261895,0.854504611173008
1503957338085,+0.904,+0.408,+0.107,+0.066,+0.642,-0.206,-0.623,-93.812,+41.188,+32.562,-2, -6, -5, -7, -1, -2, -1, 70,2.9311432534671518,0.8623354877058724
1503957338101,+0.901,+0.419,+0.096,+0.052,+0.705,-0.181,-0.590,-97.312,+72.062,+34.875,-2, -3, -4, -5, 2, -4, -2, -75,2.9647901996432107,0.8815387521102632
1503957338123,+0.897,+0.430,+0.087,+0.042,+0.929,-0.103,-0.615,-76.062,+70.188,+27.812,3, 2, -1, 0, -1, 0, 2, -42,2.9893925263583974,0.9022880231083212
1503957338147,+0.896,+0.435,+0.082,+0.035,+1.108,-0.132,-0.652,-46.438,+25.875,+22.750,-7, 1, 0, 1, 2, -2, 2, -22,3.0061976260774386,0.9118638829994102
1503957338162,+0.897,+0.433,+0.080,+0.027,+1.041,-0.297,-0.569,-41.188,-22.125,+24.125,6, 7, 4, -3, 0, 1, 2, 5,3.0225498954802554,0.9060287764291398
1503957338183,+0.900,+0.429,+0.077,+0.021,+0.772,-0.374,-0.521,-44.312,-30.250,+14.312,-2, -1, -3, -2, -1, -1, 0, 4,3.0368584870305546,0.8962812627159936
1503957338207,+0.901,+0.427,+0.073,+0.015,+0.637,-0.308,-0.526,-46.938,-5.875,+11.625,0, -3, -6, -6, -2, 1, 6, -45,3.0514042892196773,0.890259593715712
1503957338222,+0.900,+0.431,+0.069,+0.009,+0.675,-0.201,-0.559,-38.062,+31.125,+13.688,3, 2, 7, 7, 2, 0, -2, -22,3.065415264691231,0.898160070732698
1503957338244,+0.897,+0.436,+0.068,+0.006,+0.910,-0.202,-0.543,-22.250,+27.250,+7.438,-9, -9, -4, -5, -3, -1, 0, 21,3.070900770045254,0.9085129766866858
1503957338265,+0.897,+0.437,+0.068,+0.005,+1.034,-0.277,-0.471,-9.562,-4.875,-5.250,-5, 1, 1, -2, -4, -1, 0, 74,3.0726895581699045,0.9109259272451592
1503957338282,+0.897,+0.437,+0.069,+0.007,+1.000,-0.301,-0.462,-0.312,-18.688,-18.438,-2, 5, 3, 1, 0, -1, -1, 13,3.0682104982250853,0.9113204091723383
1503957338303,+0.897,+0.437,+0.072,+0.008,+0.788,-0.245,-0.571,+9.875,+2.000,-3.938,-12, -3, 1, 4, -2, 0, -6, 2,3.0637805158503073,0.9121086247935292
1503957338325,+0.895,+0.439,+0.076,+0.005,+0.616,-0.230,-0.516,+7.375,+25.000,+19.250,-23, -3, -2, 0, 2, 0, -1, 5,3.065105589921912,0.9167384247285877
1503957338344,+0.892,+0.446,+0.079,-0.001,+0.736,-0.268,-0.436,-0.312,+41.250,+27.312,18, 1, 4, 1, -2, -4, 2, 4,3.072267233391276,0.9329048420534332
1503957338363,+0.888,+0.452,+0.083,-0.004,+0.952,-0.301,-0.501,+4.750,+38.688,+16.812,5, -8, -3, -7, -3, 3, 11, 0,3.0727876944561343,0.9466824341485022
1503957338385,+0.886,+0.455,+0.087,-0.004,+1.147,-0.334,-0.562,+11.562,+7.500,+3.438,0, 0, 2, 5, 4, 0, -5, -10,3.0684723091203097,0.9543306411610911
1503957338402,+0.888,+0.451,+0.092,-0.003,+1.095,-0.323,-0.596,+19.812,-35.000,+1.438,-3, -2, -4, -3, -2, -1, -1, -5,3.0628284157388226,0.9468023027700679
1503957338424,+0.892,+0.440,+0.099,-0.001,+0.920,-0.318,-0.527,+34.125,-74.688,+9.562,8, 22, 4, 1, -1, 2, 1, 0,3.054604191621291,0.9235328151517451
1503957338446,+0.898,+0.427,+0.108,-0.001,+0.714,-0.365,-0.486,+33.750,-81.625,+20.438,8, 1, -3, -1, -1, -1, -3, 1,3.0493344370234796,0.8971115121086566
1503957338462,+0.902,+0.416,+0.117,-0.001,+0.548,-0.360,-0.541,+35.375,-61.250,+12.938,0, -4, -2, -2, -4, -2, -3, -3,3.043747223621945,0.8750218874202256
1503957338483,+0.903,+0.411,+0.123,+0.002,+0.536,-0.305,-0.607,+34.688,-20.375,-4.625,33, -5, -5, 1, 2, -3, -1, 32,3.033904823613148,0.865868078875798
1503957338505,+0.902,+0.413,+0.128,+0.007,+0.621,-0.161,-0.746,+41.250,+23.438,-14.938,-8, -3, 1, 1, 0, -4, 0, -16,3.019970984857385,0.8731225141061068
1503957338521,+0.900,+0.415,+0.133,+0.015,+0.731,-0.087,-0.810,+53.812,+24.625,-23.688,-11, -4, 1, 1, -1, -3, -3, -10,3.0000904576724685,0.8805169262382325
1503957338545,+0.898,+0.417,+0.138,+0.023,+0.791,-0.159,-0.658,+53.688,+14.688,-31.000,-10, -8, -2, -4, -3, -1, 1, 0,2.980191646941471,0.8881058474314587
1503957338565,+0.896,+0.420,+0.142,+0.033,+0.768,-0.145,-0.526,+49.750,+12.625,-36.625,-3, -9, -2, -3, -2, 0, -4, 2,2.957545256856504,0.8982498330995148
1503957338582,+0.894,+0.421,+0.147,+0.042,+0.754,-0.138,-0.525,+50.375,+3.562,-34.625,-3, 1, 3, 2, -3, 0, -1, -3,2.9358574397157207,0.9038958829300562
1503957338603,+0.892,+0.422,+0.150,+0.049,+0.693,-0.156,-0.572,+37.750,+10.062,-30.750,1, 3, 6, 4, 2, 0, 6, -2,2.919445187447133,0.9082529459118491
1503957338626,+0.891,+0.425,+0.150,+0.054,+0.671,-0.123,-0.564,+16.562,+22.062,-25.812,-14, -8, -3, -2, 0, 0, 0, -1,2.9100716393403747,0.9161479908139392
1503957338645,+0.888,+0.432,+0.149,+0.056,+0.870,+0.024,-0.591,+9.938,+41.500,-1.688,-5, 0, -2, 0, -1, 0, 1, -4,2.9059368781528905,0.9318745913641491
1503957338664,+0.885,+0.437,+0.150,+0.056,+1.003,+0.065,-0.565,+16.875,+28.000,+14.750,2, 1, 0, -1, 2, -3, -3, -4,2.9034502554089268,0.9434037479049009
1503957338686,+0.886,+0.434,+0.152,+0.056,+1.044,-0.085,-0.520,+11.812,-27.188,+20.125,-6, -1, -2, 1, 0, 1, -4, -4,2.9020972823802818,0.9375288292477615
1503957338702,+0.890,+0.426,+0.153,+0.053,+0.936,-0.173,-0.505,+0.500,-57.812,+28.688,-1, -1, -4, -6, -6, 0, -6, -1,2.9086653223351933,0.9196082787351567
1503957338724,+0.894,+0.418,+0.154,+0.049,+0.689,-0.169,-0.489,-5.750,-48.125,+32.812,-19, -8, -3, -1, -2, -4, -2, -7,2.917193734076772,0.901566135455227
1503957338747,+0.897,+0.412,+0.155,+0.043,+0.534,-0.162,-0.489,-9.812,-26.875,+41.562,5, 1, -1, -1, -1, 0, 2, -1,2.9289197838555885,0.8876079302928976
1503957338762,+0.897,+0.411,+0.156,+0.035,+0.552,-0.216,-0.533,-13.875,+11.750,+45.062,-2, 0, 1, 1, 2, -1, 1, -2,2.9425630160578335,0.8840444319924005
1503957338784,+0.895,+0.417,+0.156,+0.026,+0.796,-0.294,-0.557,-24.438,+44.312,+38.312,1, -1, 1, 0, 0, -1, -2, -9,2.9577185840491564,0.896122946569072
1503957338805,+0.893,+0.423,+0.153,+0.019,+1.004,-0.353,-0.622,-36.250,+37.062,+25.062,1, 0, -1, -1, 0, 3, 2, 2,2.971771147957912,0.9071329377401276
1503957338821,+0.894,+0.423,+0.149,+0.014,+1.085,-0.323,-0.615,-37.500,-9.812,+15.625,8, 2, 0, -1, -1, -1, 0, 3,2.98490250117491,0.904658468709229
1503957338845,+0.898,+0.416,+0.145,+0.012,+1.008,-0.253,-0.520,-30.438,-58.750,+12.750,-7, 0, -1, -1, -2, -1, 3, -4,2.9943818699364098,0.88690692242509
1503957338865,+0.902,+0.407,+0.144,+0.011,+0.804,-0.216,-0.484,-15.500,-65.875,+11.812,8, 0, 1, 0, -1, 0, -3, 3,2.9995621021072405,0.8659532775081138
1503957338882,+0.905,+0.399,+0.145,+0.010,+0.664,-0.264,-0.553,-1.500,-44.312,+8.375,-6, -4, -1, -1, 0, -1, -4, -2,3.002592365713401,0.8480010083369821
1503957338903,+0.906,+0.396,+0.146,+0.009,+0.670,-0.282,-0.513,-1.375,-19.438,+7.750,-7, -10, -2, -4, -1, 0, 1, -5,3.0043478140876116,0.8413870260710457
1503957338926,+0.905,+0.398,+0.147,+0.006,+0.720,-0.280,-0.478,-3.750,+12.750,+14.750,0, -12, -3, -1, 0, -1, 2, -1,3.0084674042660873,0.8456503158616185
1503957338948,+0.902,+0.405,+0.149,+0.002,+0.726,-0.292,-0.510,-2.250,+42.375,+22.000,-18, -14, -9, -6, 1, -3, -2, -3,3.012199821636533,0.8615464477330476
1503957338964,+0.899,+0.412,+0.150,-0.003,+0.770,-0.293,-0.564,-3.562,+49.375,+19.188,1, 7, 5, 0, -3, 0, -1, 0,3.018556598397413,0.876897235502977
1503957338986,+0.896,+0.418,+0.150,-0.006,+0.859,-0.292,-0.506,-9.438,+33.500,+13.562,17, 12, 4, 4, 0, -1, -1, 1,3.022124092452382,0.8897656119544406
1503957339009,+0.894,+0.422,+0.149,-0.009,+0.844,-0.251,-0.485,-14.375,+21.188,+10.500,13, 6, 0, 0, -1, 2, 0, 1,3.027219276169696,0.8977227562068996
1503957339024,+0.893,+0.424,+0.146,-0.011,+0.809,-0.212,-0.555,-15.938,+15.875,+6.062,6, 5, 0, -1, -2, -1, -3, 2,3.032889833615834,0.9004581629606816
1503957339047,+0.893,+0.426,+0.144,-0.012,+0.720,-0.216,-0.648,-13.688,+17.125,+0.375,1, -6, -1, -2, -1, -4, -3, -6,3.036272059310166,0.9044257989655159
1503957339072,+0.893,+0.428,+0.140,-0.013,+0.728,-0.228,-0.601,-17.500,+18.500,-3.000,-9, 1, -1, 0, 0, -1, -1, -4,3.04141376773945,0.9075264044923091
1503957339084,+0.891,+0.433,+0.136,-0.013,+0.810,-0.213,-0.484,-22.562,+26.375,-13.188,-5, -3, 2, 0, -1, -2, 3, 6,3.043635579645766,0.9173893520495345
1503957339106,+0.889,+0.439,+0.131,-0.012,+0.901,-0.140,-0.505,-18.188,+34.375,-17.875,-14, 0, -3, 0, 0, 1, 0, -5,3.044924036590465,0.9296146580003206
1503957339128,+0.887,+0.443,+0.127,-0.010,+0.889,-0.159,-0.637,-7.625,+22.938,-18.750,-5, 0, -1, 0, -2, -1, -2, -2,3.0437913218231905,0.9373893370909305
1503957339146,+0.888,+0.442,+0.125,-0.007,+0.865,-0.272,-0.688,-4.250,-0.312,-20.250,-3, -4, -3, 0, -2, 0, -3, -4,3.0406081569330126,0.9350283157642659
1503957339166,+0.890,+0.439,+0.124,-0.003,+0.788,-0.372,-0.584,-5.000,-21.375,-31.812,-12, -4, 0, -1, 0, 0, -1, -4,3.035222231874031,0.9286911608156097
1503957339188,+0.893,+0.434,+0.120,+0.003,+0.752,-0.271,-0.482,-11.375,-37.500,-40.312,-3, 1, 1, 0, -1, 2, 1, 3,3.029348355896215,0.9169780782898485
1503957339204,+0.895,+0.430,+0.116,+0.008,+0.721,-0.211,-0.560,-12.625,-28.188,-33.812,-16, -8, -2, -2, 0, -2, -4, -14,3.024743019527763,0.9071830956706548
1503957339226,+0.897,+0.426,+0.116,+0.010,+0.745,-0.339,-0.655,-1.125,-21.625,-16.125,9, 7, 1, 1, -1, -1, 0, 1,3.022050563949427,0.8985382578739409
1503957339248,+0.898,+0.424,+0.118,+0.010,+0.738,-0.357,-0.608,+0.000,-11.312,-8.625,-5, -5, -2, -2, 1, -1, -1, 1,3.0208046114256377,0.894852141626
1503957339264,+0.899,+0.422,+0.118,+0.011,+0.847,-0.272,-0.538,+0.000,-12.812,-6.562,2, -4, -3, 0, 0, 1, 0, 2,3.019466789026695,0.890551744856939
1503957339287,+0.900,+0.420,+0.119,+0.012,+0.796,-0.281,-0.521,+3.938,-21.688,-4.875,-8, -6, -3, 0, 3, -1, 3, -1,3.017278145077858,0.8866508841379808
1503957339308,+0.902,+0.415,+0.121,+0.015,+0.702,-0.305,-0.584,+6.812,-28.375,-9.938,7, -1, -1, -1, 0, -1, 1, 2,3.01112920411224,0.8765605959837963
1503957339324,+0.904,+0.410,+0.121,+0.018,+0.690,-0.243,-0.600,+6.375,-32.125,-20.438,6, 3, 4, 3, -2, -1, 0, -7,3.0066667089028067,0.8657361821336841
1503957339348,+0.905,+0.408,+0.122,+0.021,+0.717,-0.219,-0.653,+8.250,-6.625,-8.625,-16, -3, -4, -3, -1, -3, -3, -8,3.000855610971068,0.8622249884520247
1503957339368,+0.903,+0.410,+0.124,+0.021,+0.795,-0.174,-0.621,+11.625,+13.438,+0.000,0, 2, -3, -2, -1, 1, -2, 1,2.998215733717086,0.8669019078347467
1503957339384,+0.902,+0.413,+0.125,+0.022,+0.877,-0.118,-0.607,+10.438,+16.125,+2.062,3, -13, -7, -6, 1, -3, 2, 9,2.995040478133333,0.8743683032974443
1503957339406,+0.901,+0.414,+0.126,+0.023,+0.917,-0.120,-0.626,+16.188,+3.562,+2.375,23, 6, 5, 3, -1, 2, 8, 37,2.991878125674658,0.8768938467876577
1503957339428,+0.901,+0.412,+0.129,+0.026,+0.863,-0.175,-0.572,+20.625,-16.312,-1.062,6, 6, 3, 1, -2, 3, -6, -17,2.9838956799480307,0.8737359299281898
1503957339444,+0.902,+0.409,+0.132,+0.028,+0.790,-0.234,-0.543,+19.938,-25.562,-4.250,-20, -8, -2, -2, -2, -4, -3, -15,2.978272579721524,0.8685296506049517
1503957339466,+0.903,+0.406,+0.135,+0.031,+0.674,-0.292,-0.525,+15.062,-15.062,-9.500,-20, -1, 8, 1, -5, 0, 0, -13,2.9708531188817364,0.863558678613605
1503957339488,+0.902,+0.408,+0.138,+0.029,+0.745,-0.335,-0.499,+0.375,+10.625,+8.500,9, -8, -11, -2, 3, -2, -6, 12,2.971481261210582,0.868997707963865
1503957339504,+0.900,+0.412,+0.138,+0.023,+0.853,-0.393,-0.465,-20.438,+22.438,+22.625,65, 21, 5, 3, 0, 2, -9, 13,2.981318058862156,0.8767417519746467
1503957339526,+0.897,+0.419,+0.138,+0.014,+0.916,-0.339,-0.511,-27.438,+37.250,+33.750,-38, -18, -5, -6, -2, -3, 0, -18,2.9960558816416683,0.8909516739685035
1503957339549,+0.896,+0.423,+0.138,+0.006,+0.951,-0.273,-0.544,-24.125,+23.375,+40.188,-8, 0, -2, -3, 0, -1, 1, 7,3.010025662717741,0.8990190535450847
1503957339564,+0.895,+0.423,+0.138,-0.001,+0.919,-0.276,-0.553,-18.625,+3.938,+37.500,-14, -6, -3, -3, -3, -2, -2, -1,3.0224009251616404,0.8972336407544592
1503957339586,+0.896,+0.423,+0.139,-0.007,+0.854,-0.252,-0.646,-7.688,+2.250,+34.688,-8, 1, 1, 0, 1, 1, 10, -16,3.0329909279794034,0.8971499299703694
1503957339608,+0.896,+0.422,+0.142,-0.011,+0.716,-0.230,-0.700,+6.500,+7.688,+30.688,-3, 8, 4, 1, -2, 0, -2, -23,3.037853284092101,0.8952268409073418
1503957339625,+0.895,+0.421,+0.145,-0.014,+0.693,-0.250,-0.651,+12.500,+9.625,+27.125,6, -5, 0, -1, 0, 3, 3, 7,3.0404990899039483,0.8929360355434698
1503957339646,+0.894,+0.422,+0.149,-0.016,+0.683,-0.276,-0.595,+16.312,+12.250,+17.438,-6, -12, -8, -5, -1, 0, -2, -5,3.0401777576120135,0.896368079792306
1503957339668,+0.893,+0.422,+0.153,-0.015,+0.730,-0.264,-0.543,+22.188,+6.500,+0.312,12, 25, 13, 10, -1, 0, -4, -7,3.0343974621736036,0.8979038992993161
1503957339684,+0.893,+0.421,+0.156,-0.011,+0.754,-0.306,-0.547,+25.688,-9.000,-10.250,-7, -8, -3, -4, -2, 1, 2, 5,3.0244691194432036,0.8976322817825791
1503957339706,+0.894,+0.418,+0.160,-0.007,+0.687,-0.356,-0.579,+26.562,-21.438,-16.938,1, -7, -7, -5, 0, 0, -2, -6,3.014378077947549,0.8934122971961784
1503957339728,+0.895,+0.415,+0.162,-0.001,+0.621,-0.296,-0.569,+24.250,-16.562,-25.875,30, 3, -2, -1, 4, -1, 5, 3,3.002330921679535,0.8886748001480883
1503957339744,+0.895,+0.414,+0.164,+0.006,+0.671,-0.165,-0.618,+29.000,+0.188,-24.875,-6, -3, -2, -2, -3, 1, 1, 12,2.987732130821146,0.888718358767925
1503957339766,+0.894,+0.414,+0.167,+0.013,+0.705,-0.152,-0.595,+41.000,-1.062,-27.188,-9, -6, -3, -1, 0, -2, 0, -10,2.971648781168554,0.8913473217365834
1503957339788,+0.894,+0.414,+0.170,+0.022,+0.808,-0.194,-0.528,+38.625,-9.750,-32.688,-26, -9, -1, -4, 1, 0, 4, -1,2.9525433035185635,0.8950462900224305
1503957339804,+0.893,+0.415,+0.172,+0.029,+0.823,-0.183,-0.511,+29.875,-8.250,-27.188,-21, -4, -2, 0, 2, -1, 1, -9,2.937364243401193,0.8997604113558907
1503957339826,+0.892,+0.415,+0.174,+0.034,+0.766,-0.195,-0.569,+29.250,+0.000,-17.250,4, -1, -4, -4, 1, -2, -8, -22,2.9258529960864728,0.9015557791934812
1503957339852,+0.892,+0.415,+0.176,+0.038,+0.721,-0.214,-0.586,+24.312,+4.688,-14.562,6, -4, -3, 0, 1, -1, 1, 10,2.916901912758118,0.9036986428067987
1503957339864,+0.890,+0.417,+0.178,+0.042,+0.800,-0.202,-0.563,+18.688,+9.750,-12.125,-5, -4, -3, -3, -4, -2, -1, -8,2.906517177705666,0.9098261220400762
1503957339886,+0.889,+0.419,+0.180,+0.045,+0.883,-0.229,-0.548,+22.125,+6.562,-10.125,3, -3, 0, -3, -1, 0, 0, 8,2.8987272259842993,0.9162957829481827
1503957339908,+0.889,+0.418,+0.182,+0.050,+0.923,-0.296,-0.541,+24.812,-16.062,-17.750,7, 3, 3, -1, -6, -5, -4, 7,2.888001617790901,0.9162497798054935
1503957339924,+0.889,+0.414,+0.185,+0.055,+0.896,-0.298,-0.505,+22.000,-31.250,-12.312,0, 0, -2, 0, -3, -1, 0, 6,2.876223408623994,0.9094120560151707
1503957339946,+0.890,+0.411,+0.189,+0.057,+0.774,-0.292,-0.535,+21.750,-17.188,+1.812,7, 4, 1, 1, 0, 1, -4, -1,2.8699459483364045,0.9056698484812188
1503957339968,+0.889,+0.412,+0.192,+0.056,+0.707,-0.270,-0.578,+19.938,+9.188,+10.625,-39, -14, -2, 0, -1, 1, -2, -11,2.8684432682750143,0.9094983352277634
1503957339986,+0.888,+0.413,+0.196,+0.055,+0.774,-0.260,-0.593,+17.125,+18.875,+15.562,-11, -8, -3, -2, -1, -3, -5, -9,2.866088545617756,0.9140831722954128
1503957340007,+0.886,+0.416,+0.199,+0.053,+0.871,-0.271,-0.576,+12.875,+16.688,+17.062,1, -2, -2, -1, -4, -5, -16, -12,2.8655752603581064,0.9222488475424311
1503957340029,+0.885,+0.416,+0.201,+0.052,+0.883,-0.300,-0.551,+8.688,+6.062,+13.688,-9, -2, 0, -1, -1, -2, 10, -16,2.864772763656612,0.922941553526656
1503957340045,+0.886,+0.415,+0.202,+0.051,+0.851,-0.311,-0.537,+2.688,-10.250,+10.875,5, 2, 0, 0, 0, 2, -10, 0,2.866568894736331,0.9214340556685288
1503957340069,+0.887,+0.413,+0.202,+0.048,+0.772,-0.298,-0.520,-5.500,-11.750,+18.812,2, -2, -4, -3, 1, 3, -1, 2,2.8727507202664766,0.9161449954519287
1503957340089,+0.887,+0.413,+0.202,+0.043,+0.702,-0.258,-0.502,-14.562,+6.312,+30.875,7, 3, -1, 0, 1, -1, 5, 8,2.881786168424122,0.9148454660942875
1503957340104,+0.887,+0.415,+0.201,+0.036,+0.725,-0.260,-0.490,-20.250,+21.312,+33.812,-4, -3, 1, -2, -1, -1, 0, 2,2.8953871311480626,0.9173640281014356
1503957340126,+0.886,+0.418,+0.200,+0.029,+0.838,-0.284,-0.484,-22.500,+21.875,+28.625,1, 0, 2, 2, 0, 0, 1, 1,2.908185335633839,0.92193181716322
1503957340148,+0.885,+0.420,+0.198,+0.024,+0.912,-0.319,-0.494,-25.750,+6.062,+24.375,6, -14, -15, -1, -6, -1, 0, 3,2.9182406557164122,0.9238073076219379
1503957340164,+0.887,+0.418,+0.195,+0.019,+0.852,-0.320,-0.481,-29.875,-11.562,+21.188,-4, -11, -2, -3, -2, -2, 2, 1,2.9315942000144966,0.9164503309591581
1503957340187,+0.889,+0.415,+0.191,+0.015,+0.735,-0.339,-0.496,-35.188,-16.062,+18.375,-4, 5, 1, 0, 1, 1, -2, -3,2.9440083462522044,0.9062164804832123
1503957340208,+0.891,+0.413,+0.187,+0.009,+0.624,-0.309,-0.522,-39.750,-5.375,+20.562,-9, 5, 4, 1, 0, -1, 1, -4,2.960062844388104,0.8981550596937283
1503957340224,+0.892,+0.414,+0.182,+0.002,+0.617,-0.275,-0.539,-41.938,+18.188,+20.438,9, 7, 0, -3, -1, 0, 0, 1,2.9779261809788258,0.8964540407356659
1503957340246,+0.890,+0.419,+0.177,-0.005,+0.720,-0.246,-0.538,-41.062,+38.812,+19.250,3, 1, 2, -1, -3, -1, -2, 0,2.993614928328399,0.9034911969585977
1503957340268,+0.888,+0.426,+0.172,-0.011,+0.822,-0.257,-0.533,-38.375,+42.188,+17.625,-3, 3, 1, 1, 1, -1, -8, -1,3.0072967364484042,0.9160952331213748
1503957340284,+0.887,+0.431,+0.167,-0.016,+0.873,-0.299,-0.538,-35.438,+31.875,+12.875,-10, -5, -1, -1, 1, -2, 2, 0,3.019908297100697,0.9245508031130512
1503957340306,+0.886,+0.433,+0.163,-0.019,+0.897,-0.323,-0.562,-30.500,+15.000,+6.875,11, 5, 2, -1, 0, -1, 0, 3,3.0283298383626387,0.9263939539546111
1503957340329,+0.888,+0.431,+0.160,-0.020,+0.872,-0.333,-0.606,-22.562,-13.250,-2.875,-6, -3, -2, -2, -1, -1, -2, -2,3.0340616194402648,0.9205957353015997
1503957340345,+0.891,+0.425,+0.157,-0.018,+0.821,-0.307,-0.624,-12.312,-37.062,-13.438,-4, -1, -2, -2, 0, 0, 2, 0,3.0351756241082266,0.905788415912904
