Timestamp,Orientation X,Orientation Y,Orientation Z,Orientation W,Accelerometer X,Accelerometer Y,Accelerometer Z,Gyroscope X,Gyroscope Y,Gyroscope Z,EMG1,EMG2,EMG3,EMG4,EMG5,EMG6,EMG7,EMG8
1503523602437,-0.673,-0.709,-0.183,-0.104,+1.026,-0.049,+0.026,+3.812,-4.438,-38.000,-5, 48, 3, 2, -9, -12, 2, 20
1503523602450,-0.676,-0.707,-0.179,-0.109,+1.033,-0.091,+0.078,+2.125,-20.562,-33.375,-3, -10, -1, -5, -5, -37, -45, -46
1503523602473,-0.678,-0.705,-0.176,-0.112,+1.021,-0.149,+0.148,-2.250,-27.625,-27.500,16, 7, 0, 2, 6, 44, -10, -21
1503523602496,-0.683,-0.701,-0.172,-0.115,+1.056,-0.129,+0.094,-5.062,-43.312,-25.438,35, -27, -2, 3, 6, 24, 17, 10
1503523602510,-0.687,-0.697,-0.168,-0.118,+0.985,-0.086,+0.094,-9.000,-41.750,-21.188,-3, -38, -8, 10, 0, 5, 9, -9
1503523602533,-0.692,-0.693,-0.164,-0.121,+0.992,-0.073,+0.106,-7.062,-42.312,-21.375,8, 32, 2, -1, -1, 14, -29, -2
1503523602555,-0.695,-0.690,-0.160,-0.124,+0.996,-0.044,+0.058,-6.438,-34.812,-21.500,11, 19, 10, -4, -3, 5, 29, 10
1503523602571,-0.699,-0.687,-0.157,-0.126,+1.024,-0.036,+0.000,-6.750,-26.938,-14.750,-27, -6, -7, -10, 0, -4, 3, 19
1503523602593,-0.701,-0.684,-0.155,-0.126,+1.039,-0.020,+0.041,-6.375,-22.188,-5.688,-36, -69, -2, -3, -3, 4, 41, 23
1503523602615,-0.703,-0.682,-0.153,-0.127,+0.992,-0.003,+0.038,-6.688,-19.562,-3.875,-5, 42, 1, 0, -7, 1, 49, -11
1503523602630,-0.705,-0.681,-0.152,-0.127,+0.975,-0.002,-0.012,-6.250,-8.812,-2.438,24, -3, -2, 3, -1, -13, -16, 2
1503523602653,-0.706,-0.681,-0.152,-0.127,+1.084,-0.014,-0.044,-1.312,-2.938,+4.000,38, -9, 2, 2, 1, 8, -8, -2
1503523602676,-0.706,-0.680,-0.153,-0.128,+1.124,+0.011,-0.030,+8.750,-2.000,+5.875,-2, 25, 7, -7, -7, -15, -25, -90
1503523602690,-0.708,-0.678,-0.151,-0.127,+0.987,-0.116,+0.116,-15.188,-26.500,-2.312,25, 26, -2, 0, 2, 6, -8, 28
1503523602713,-0.710,-0.677,-0.151,-0.126,+0.920,-0.062,-0.032,-2.875,-4.688,+4.812,14, 1, 3, 0, -3, -13, -2, 29
1503523602735,-0.707,-0.679,-0.151,-0.123,+0.999,-0.038,+0.033,-11.688,+21.062,+6.438,3, -46, 2, -3, 9, 19, 8, 56
1503523602750,-0.707,-0.680,-0.151,-0.123,+1.127,-0.012,+0.019,-5.938,+1.188,+3.250,9, -14, -15, -7, -18, -9, -20, -4
1503523602773,-0.709,-0.678,-0.149,-0.123,+1.032,-0.033,+0.027,-5.562,-17.750,-3.688,25, -22, -1, 0, 9, -10, -12, -45
1503523602797,-0.712,-0.676,-0.148,-0.124,+0.923,-0.040,+0.024,-7.000,-22.625,-4.250,-17, -27, -1, 4, -1, 17, 3, 13
1503523602810,-0.713,-0.675,-0.146,-0.123,+0.949,-0.029,+0.009,-10.938,-12.188,+0.625,-39, -1, -8, 2, 0, -6, -29, 39
1503523602833,-0.714,-0.674,-0.145,-0.122,+1.009,-0.016,-0.005,-10.562,-7.500,+1.438,-26, -9, -2, -2, -11, 0, -20, -37
1503523602855,-0.716,-0.672,-0.143,-0.122,+1.069,-0.014,+0.007,-8.938,-19.250,+0.188,17, 8, -12, 0, 4, -3, 29, -24
1503523602870,-0.720,-0.669,-0.142,-0.122,+1.001,-0.033,-0.024,-6.875,-29.188,-0.500,-47, -11, 5, -14, -12, -1, 9, 11
1503523602901,-0.723,-0.666,-0.141,-0.121,+0.937,-0.053,-0.031,-8.625,-24.688,+1.812,-47, -7, -3, -12, -3, -33, -5, 28
1503523602915,-0.726,-0.663,-0.140,-0.120,+0.967,-0.052,-0.048,-11.750,-18.250,+7.438,-22, -27, -4, -1, -7, -1, -9, -19
1503523602938,-0.728,-0.661,-0.139,-0.117,+1.013,-0.040,-0.040,-13.750,-16.438,+12.062,9, -20, -6, 3, 8, 12, 12, -2
1503523602953,-0.730,-0.659,-0.139,-0.114,+1.003,-0.045,-0.023,-14.188,-18.562,+13.938,25, -22, -4, 4, 5, 6, 4, 22
1503523602984,-0.733,-0.657,-0.139,-0.112,+1.040,-0.042,-0.045,-12.875,-19.750,+17.000,-26, 35, 7, 9, 8, 5, -2, -43
1503523602991,-0.736,-0.653,-0.139,-0.109,+1.039,-0.051,-0.061,-13.812,-26.000,+17.625,26, 28, -1, 4, 3, 5, 5, -18
1503523603013,-0.740,-0.650,-0.138,-0.106,+0.997,-0.062,-0.065,-14.562,-28.375,+17.812,19, -20, 1, -1, -2, 4, -12, -39
1503523603036,-0.744,-0.646,-0.139,-0.102,+1.024,-0.069,-0.082,-13.812,-25.875,+22.000,29, 50, -6, -5, 5, 5, 10, 44
1503523603051,-0.747,-0.643,-0.138,-0.099,+0.995,-0.071,-0.067,-16.125,-24.438,+19.438,54, 21, 3, 0, 1, 3, 27, 60
1503523603078,-0.750,-0.640,-0.138,-0.095,+1.021,-0.079,-0.106,-15.625,-23.188,+18.625,-59, -3, -7, -4, -3, -5, -15, 6
1503523603095,-0.753,-0.637,-0.138,-0.093,+1.019,-0.073,-0.098,-12.375,-20.312,+16.188,-19, -2, -5, -3, -3, -4, 1, 25
1503523603111,-0.756,-0.634,-0.138,-0.090,+1.020,-0.083,-0.141,-9.438,-21.625,+18.625,23, 73, 12, 2, 0, -1, 0, 44
1503523603133,-0.759,-0.631,-0.139,-0.087,+1.024,-0.095,-0.125,-7.562,-23.438,+18.938,-37, 15, 8, -1, -5, 2, -3, 9
1503523603155,-0.761,-0.627,-0.141,-0.085,+1.012,-0.105,-0.131,-5.062,-23.312,+22.062,-22, -8, 7, 1, -2, -1, 13, -17
1503523603178,-0.764,-0.624,-0.143,-0.082,+1.008,-0.102,-0.155,-0.500,-21.562,+23.062,-4, 0, -14, -1, 3, 2, 11, 64
1503523603193,-0.767,-0.620,-0.146,-0.080,+0.999,-0.137,-0.156,+2.250,-22.188,+25.500,10, 6, 0, 0, -6, -3, 16, -17
1503523603215,-0.770,-0.616,-0.149,-0.077,+0.982,-0.158,-0.151,+3.562,-22.375,+28.875,-32, -44, -9, -4, -2, -2, -9, 28
1503523603239,-0.772,-0.613,-0.153,-0.074,+0.995,-0.172,-0.171,+5.375,-19.438,+31.688,-32, 31, 11, 2, 1, 1, -10, -30
1503523603253,-0.774,-0.609,-0.158,-0.071,+1.004,-0.156,-0.179,+8.125,-22.188,+33.500,-12, 2, 4, 2, 1, 1, 12, -6
1503523603276,-0.777,-0.604,-0.162,-0.068,+0.969,-0.177,-0.166,+10.625,-24.250,+34.438,-25, -37, 0, 0, 1, -3, -5, 5
1503523603301,-0.780,-0.600,-0.168,-0.065,+0.957,-0.189,-0.205,+13.625,-22.938,+38.562,-7, -25, -4, -2, 0, -4, -36, -8
1503523603313,-0.782,-0.595,-0.174,-0.062,+0.947,-0.212,-0.198,+13.438,-22.625,+43.312,2, 22, -1, 2, 4, 1, -7, -4
1503523603337,-0.784,-0.591,-0.181,-0.058,+0.959,-0.227,-0.207,+15.750,-20.375,+45.375,5, 21, 3, 0, 3, 1, 0, -2
1503523603358,-0.786,-0.586,-0.188,-0.054,+0.950,-0.237,-0.222,+18.688,-19.562,+47.312,-4, 14, 15, 0, -6, 1, -3, -3
1503523603375,-0.788,-0.581,-0.196,-0.051,+0.938,-0.240,-0.232,+21.875,-23.562,+48.625,-15, -30, -12, -2, 1, -3, 0, 13
1503523603395,-0.790,-0.576,-0.204,-0.047,+0.900,-0.263,-0.224,+25.375,-24.812,+49.750,4, -12, -4, 0, 0, 1, -1, -3
1503523603418,-0.792,-0.571,-0.213,-0.044,+0.899,-0.280,-0.219,+28.625,-21.312,+49.812,-18, -2, -3, 1, 0, 3, 3, -27
1503523603435,-0.793,-0.566,-0.222,-0.042,+0.924,-0.298,-0.227,+32.375,-18.938,+48.812,-34, -5, -2, 0, 0, -3, -4, -3
1503523603455,-0.794,-0.561,-0.231,-0.040,+0.915,-0.316,-0.240,+34.812,-20.188,+46.562,-13, -44, -13, -1, -4, -2, 3, 22
1503523603478,-0.795,-0.556,-0.240,-0.038,+0.890,-0.332,-0.230,+37.250,-20.750,+44.062,-7, -20, -8, -5, -2, -3, -3, 13
1503523603493,-0.795,-0.551,-0.249,-0.037,+0.890,-0.350,-0.225,+39.250,-19.812,+42.750,27, 16, 0, 1, 9, 3, 0, -5
1503523607379,-0.710,-0.659,-0.247,-0.037,+1.021,-0.313,+0.040,-4.938,-2.062,-16.375,-37, -29, 2, -1, -6, -2, -2, 3
1503523607394,-0.711,-0.659,-0.245,-0.038,+1.035,-0.315,+0.033,-7.062,-5.875,-11.625,-22, 31, 5, 3, -1, -2, 13, 6
1503523607416,-0.712,-0.658,-0.243,-0.038,+1.024,-0.315,+0.044,-8.750,-9.562,-4.875,17, 10, 0, 0, 5, -1, 3, -6
1503523607439,-0.714,-0.656,-0.242,-0.037,+0.977,-0.303,+0.022,-13.000,-12.562,+1.562,-16, 83, 5, 25, 15, -2, -9, 3
1503523607455,-0.715,-0.655,-0.240,-0.036,+0.958,-0.277,+0.038,-16.625,-10.562,+1.000,-58, -30, -10, -19, -9, -2, 0, -7
1503523607476,-0.717,-0.654,-0.237,-0.035,+0.966,-0.268,+0.031,-16.500,-13.062,-3.250,-11, -20, 8, -6, -9, -2, -2, -6
1503523607499,-0.720,-0.653,-0.234,-0.036,+0.949,-0.277,+0.028,-15.750,-19.250,-12.250,29, -57, 19, 13, -24, -2, -7, -9
1503523607522,-0.722,-0.651,-0.231,-0.036,+0.927,-0.294,-0.012,-17.375,-16.000,-11.438,-6, 16, -3, -15, -4, -3, -7, 5
1503523607536,-0.723,-0.652,-0.227,-0.035,+0.886,-0.277,+0.033,-19.875,-2.938,-12.500,-30, 0, -8, 8, 16, 2, -3, -3
1503523607559,-0.725,-0.651,-0.224,-0.035,+1.006,-0.318,+0.025,-18.562,-13.062,-13.250,7, -40, -16, -4, 1, -1, -5, 9
1503523607581,-0.727,-0.650,-0.219,-0.037,+0.950,-0.203,-0.033,-15.312,-11.688,-17.875,-18, 40, 15, -4, -2, 7, -19, -14
1503523607596,-0.729,-0.649,-0.215,-0.039,+0.979,-0.247,-0.048,-12.688,-18.312,-19.562,40, 41, -13, -6, -34, -5, 6, 8
1503523607622,-0.730,-0.648,-0.212,-0.040,+0.939,-0.215,-0.065,-10.688,-2.750,-13.625,8, 40, 23, 2, 12, 1, 1, -16
1503523607641,-0.728,-0.651,-0.210,-0.039,+0.986,-0.215,-0.085,-7.562,+23.812,-6.375,-7, -22, -14, 0, -1, -2, -2, 3
1503523607656,-0.727,-0.652,-0.210,-0.039,+1.070,-0.257,+0.014,-3.188,+5.375,+0.062,-23, 73, 1, -9, -1, -41, -19, -3
1503523607680,-0.728,-0.651,-0.210,-0.040,+1.026,-0.277,-0.026,+1.625,-10.000,-4.500,-26, -8, 4, -20, -11, 2, 4, 4
1503523607701,-0.730,-0.649,-0.210,-0.042,+0.954,-0.246,-0.007,+2.938,-18.625,-4.000,9, -5, -7, -1, -2, 18, -11, 0
1503523607717,-0.731,-0.648,-0.210,-0.042,+0.966,-0.282,-0.005,-1.875,-14.688,-4.000,-32, -26, 6, -4, 7, -2, -9, 1
1503523607739,-0.732,-0.647,-0.208,-0.043,+1.002,-0.208,-0.021,-4.438,-6.312,-7.500,-24, -35, 0, 9, 20, -31, 15, 22
1503523607762,-0.734,-0.646,-0.206,-0.046,+1.036,-0.193,-0.005,-1.625,-21.125,-11.500,43, -64, -14, -6, -8, 11, -10, 0
1503523607777,-0.737,-0.642,-0.205,-0.049,+1.010,-0.289,+0.039,+0.812,-34.688,-13.250,-16, 28, 2, -2, -4, 8, -37, 4
1503523607800,-0.740,-0.639,-0.203,-0.050,+0.972,-0.279,+0.005,-7.750,-29.938,-11.562,17, -39, 14, 7, -7, 7, 16, -4
1503523607825,-0.742,-0.637,-0.201,-0.050,+1.052,-0.255,-0.011,-13.375,-23.438,-2.875,-6, -29, -25, -9, -19, -17, -3, -2
1503523607838,-0.745,-0.634,-0.199,-0.048,+1.062,-0.226,-0.055,-19.562,-25.812,+5.375,9, 9, -1, -2, -7, 32, 4, 8
1503523607858,-0.749,-0.631,-0.197,-0.046,+0.979,-0.207,-0.072,-22.375,-23.625,+9.938,-5, -18, 8, -20, -38, -5, 54, -4
1503523607880,-0.752,-0.628,-0.195,-0.042,+0.967,-0.208,-0.104,-26.125,-20.688,+17.938,53, 14, -8, 0, 31, 7, 7, 33
1503523607895,-0.754,-0.626,-0.194,-0.037,+0.976,-0.220,-0.120,-26.125,-11.375,+22.375,-45, -44, -7, 4, -18, -37, -16, -32
1503523607918,-0.757,-0.624,-0.193,-0.032,+0.970,-0.234,-0.121,-26.188,-13.188,+20.625,37, 32, 6, 4, 13, -3, 1, 14
1503523607940,-0.760,-0.621,-0.191,-0.027,+0.932,-0.248,-0.125,-27.188,-18.000,+18.375,-22, -27, -2, 13, 12, 7, 21, 1
1503523607957,-0.762,-0.618,-0.190,-0.023,+0.932,-0.236,-0.110,-25.375,-14.750,+17.000,1, -50, -11, 7, 8, 16, -20, -4
1503523607978,-0.765,-0.616,-0.188,-0.020,+0.979,-0.235,-0.132,-19.250,-18.000,+14.375,-41, 28, -3, 3, 14, -6, -1, 26
1503523608001,-0.768,-0.612,-0.187,-0.018,+0.980,-0.250,-0.148,-16.938,-24.250,+12.000,1, 12, 12, 5, 1, -14, 21, -10
1503523608016,-0.772,-0.608,-0.186,-0.016,+0.938,-0.262,-0.172,-15.812,-29.125,+7.812,-33, 3, 4, -1, -4, 3, -6, -35
1503523608038,-0.776,-0.603,-0.185,-0.015,+0.925,-0.257,-0.164,-14.875,-33.375,+7.562,40, 10, 8, 0, 2, 5, -8, 5
1503523608062,-0.778,-0.600,-0.185,-0.013,+0.964,-0.273,-0.166,-11.562,-24.062,+11.750,-41, -3, -17, -3, -3, 1, -7, -39
1503523608075,-0.781,-0.597,-0.185,-0.011,+0.949,-0.280,-0.164,-11.938,-17.438,+12.812,38, 91, 31, 5, 4, 1, 11, 19
1503523608099,-0.783,-0.594,-0.184,-0.009,+0.982,-0.259,-0.166,-11.000,-26.438,+11.875,35, -24, -13, -6, -7, -24, -18, -6
1503523608120,-0.787,-0.589,-0.184,-0.008,+0.969,-0.274,-0.204,-8.562,-34.250,+10.500,-4, -1, -6, 0, 3, 24, 0, -8
1503523608135,-0.790,-0.584,-0.184,-0.007,+0.932,-0.279,-0.176,-9.438,-33.312,+9.938,-35, 53, 8, 1, 6, 13, 1, 15
1503523608159,-0.794,-0.579,-0.184,-0.007,+0.928,-0.250,-0.215,-5.812,-34.812,+8.250,8, 10, -2, -1, -3, 0, 0, 2
1503523608180,-0.797,-0.575,-0.184,-0.007,+0.925,-0.267,-0.222,-5.500,-32.812,+8.562,7, -9, -1, -3, -2, -14, -2, 13
1503523608195,-0.801,-0.570,-0.184,-0.006,+0.936,-0.270,-0.221,-7.438,-31.312,+9.500,9, -20, -6, 1, -5, -15, -7, 11
1503523608218,-0.803,-0.567,-0.183,-0.005,+0.907,-0.251,-0.265,-6.250,-24.875,+8.688,7, -2, 3, 4, -1, 0, -2, 7
1503523608240,-0.806,-0.563,-0.184,-0.005,+0.926,-0.239,-0.272,-0.875,-24.312,+7.875,-5, -63, -10, -1, 2, 2, -10, -12
1503523608259,-0.809,-0.559,-0.184,-0.005,+0.978,-0.279,-0.265,-0.438,-31.750,+8.000,-34, 10, 0, -1, -3, -13, -11, -8
1503523608280,-0.812,-0.553,-0.185,-0.006,+0.952,-0.275,-0.282,+0.250,-36.750,+6.875,3, -42, 1, -3, 1, 13, -2, 8
1503523608300,-0.815,-0.548,-0.186,-0.007,+0.912,-0.259,-0.308,+4.875,-35.375,+8.750,37, 29, -2, 1, -1, 20, -11, -49
1503523608315,-0.818,-0.543,-0.188,-0.007,+0.896,-0.278,-0.322,+7.562,-33.625,+11.562,-8, -31, -4, -3, 0, 1, 5, 13
1503523608338,-0.821,-0.539,-0.190,-0.007,+0.910,-0.282,-0.341,+9.688,-26.438,+14.812,38, 25, 2, 2, 2, 10, 8, 13
1503523608360,-0.823,-0.534,-0.194,-0.007,+0.925,-0.271,-0.351,+14.125,-25.688,+17.250,4, 78, 6, -2, -1, -5, 6, 5
1503523608376,-0.825,-0.529,-0.198,-0.007,+0.929,-0.293,-0.347,+18.562,-28.812,+21.062,4, 26, -3, 0, 0, 2, -5, -3
1503523608398,-0.827,-0.525,-0.203,-0.007,+0.890,-0.301,-0.346,+22.188,-27.500,+22.812,23, -6, -2, -2, 0, -2, 0, 3
1503523608420,-0.828,-0.520,-0.208,-0.007,+0.871,-0.304,-0.352,+25.688,-25.000,+26.188,5, -7, 3, 1, -3, -8, 1, -3
1503523608435,-0.830,-0.516,-0.215,-0.007,+0.903,-0.316,-0.365,+27.938,-22.750,+29.000,-25, 2, 3, 0, -2, -4, 0, 0
1503523608459,-0.830,-0.511,-0.221,-0.006,+0.896,-0.331,-0.375,+31.000,-21.500,+31.500,-13, 20, 2, 1, 0, -7, -2, -10
1503523608480,-0.831,-0.507,-0.229,-0.006,+0.864,-0.333,-0.368,+34.562,-23.062,+32.125,-17, -43, -5, -1, -3, -1, 1, -9
1503523608503,-0.832,-0.502,-0.237,-0.006,+0.862,-0.349,-0.371,+37.875,-24.312,+33.500,4, -44, -5, -3, -1, -2, 0, 9
1503523608518,-0.832,-0.497,-0.245,-0.005,+0.847,-0.370,-0.349,+41.188,-19.625,+35.500,-8, -5, 0, -2, -3, 0, 3, 4
1503523608541,-0.832,-0.493,-0.254,-0.005,+0.844,-0.387,-0.347,+43.875,-18.312,+37.188,-6, -7, -2, 2, 2, 0, 2, -1
1503523608555,-0.831,-0.490,-0.264,-0.004,+0.840,-0.410,-0.349,+45.750,-15.000,+39.000,-20, 4, 1, 0, 1, -3, 0, 0
1503523608578,-0.830,-0.486,-0.274,-0.003,+0.824,-0.423,-0.346,+47.938,-12.750,+40.938,11, 8, 2, -3, -2, -3, 1, -2
1503523608601,-0.829,-0.482,-0.284,-0.002,+0.817,-0.442,-0.328,+48.812,-12.312,+40.250,-2, 6, -2, 0, -2, 2, -2, -1
1503523608615,-0.827,-0.479,-0.294,-0.001,+0.785,-0.475,-0.328,+48.750,-10.750,+40.312,17, -11, -7, -4, 2, -3, 0, 6
1503523612982,-0.820,-0.572,-0.000,+0.003,+0.911,-0.011,-0.297,-0.812,+2.125,+1.312,-29, -13, 6, -1, 1, -17, -4, -48
1503523613002,-0.820,-0.572,+0.000,+0.003,+0.956,+0.009,-0.297,-3.188,-0.562,+0.688,-42, 23, -6, -2, 1, 25, -3, 76
1503523613020,-0.820,-0.572,+0.000,+0.003,+0.971,+0.008,-0.314,-1.625,-4.438,-0.500,-4, -38, 0, 2, -5, 1, 0, -14
1503523613041,-0.821,-0.571,+0.000,+0.003,+0.976,-0.001,-0.292,-1.188,-7.375,-0.500,-7, 28, 11, 0, 2, -2, -5, 2
1503523613064,-0.822,-0.570,+0.001,+0.003,+0.938,-0.006,-0.310,-2.062,-8.125,+0.562,20, 19, -4, -1, 0, -9, -11, -122
1503523613079,-0.823,-0.569,+0.001,+0.003,+0.965,+0.011,-0.338,-2.688,-6.812,+1.562,39, -44, 10, -1, 1, -3, 5, 40
1503523613101,-0.823,-0.568,+0.001,+0.003,+0.945,+0.005,-0.306,-2.562,-5.250,+0.625,4, -6, -5, 0, -5, 2, -13, 52
1503523613124,-0.824,-0.567,+0.001,+0.003,+0.934,+0.008,-0.318,-3.125,-4.688,+0.000,16, 22, -3, -2, 6, 7, 10, 50
1503523613146,-0.824,-0.567,+0.002,+0.004,+0.937,+0.013,-0.316,-4.188,-1.312,-0.125,2, -38, 1, -1, 5, -10, -5, 64
1503523613168,-0.824,-0.567,+0.002,+0.003,+0.964,+0.029,-0.308,-2.000,-2.938,-0.562,-60, -13, -6, -4, -6, -8, -4, -56
1503523613183,-0.825,-0.566,+0.002,+0.003,+0.931,+0.010,-0.303,-0.188,-5.938,-1.188,9, -5, 3, 15, -1, 13, 5, 28
1503523613205,-0.825,-0.565,+0.002,+0.003,+0.943,+0.000,-0.333,-2.062,-3.438,+1.625,15, 34, -6, -10, -5, -6, -5, -1
1503523613221,-0.825,-0.565,+0.003,+0.003,+0.974,+0.015,-0.319,-2.250,-0.938,+1.188,60, -32, -8, -8, -8, -5, -22, -82
1503523613242,-0.825,-0.565,+0.003,+0.003,+0.966,+0.012,-0.311,-0.188,-1.312,+0.250,15, 38, 4, -1, 4, 6, -2, 13
1503523613265,-0.825,-0.565,+0.003,+0.003,+0.926,+0.008,-0.319,+0.375,-1.250,-1.250,3, 40, -9, -2, -5, 15, 9, 58
1503523613293,-0.825,-0.565,+0.003,+0.003,+0.945,+0.020,-0.327,-0.188,+2.062,+0.688,-9, -20, 1, -13, 8, 1, 6, -57
1503523613302,-0.824,-0.566,+0.002,+0.003,+0.956,+0.026,-0.304,+1.562,+5.750,+2.375,21, 29, -3, -13, 6, -13, 2, -14
1503523613326,-0.824,-0.566,+0.002,+0.003,+0.952,+0.006,-0.329,+1.688,+2.688,+3.812,-12, -22, -3, -5, -4, 15, 1, 22
1503523613340,-0.824,-0.567,+0.001,+0.003,+0.947,-0.004,-0.328,+1.125,+3.312,+2.312,0, -62, -1, 9, 2, 6, 2, 26
1503523613362,-0.823,-0.568,+0.000,+0.003,+0.937,-0.007,-0.312,+0.500,+8.062,+2.562,115, -99, -5, 2, 1, 6, -4, 14
1503523613385,-0.822,-0.569,+0.000,+0.003,+0.951,+0.013,-0.299,+1.812,+10.125,+1.750,-53, -10, -6, 21, 15, 0, 12, -2
1503523613400,-0.821,-0.570,-0.000,+0.003,+0.950,+0.017,-0.304,+2.062,+8.125,+0.000,-9, -23, 1, -1, 6, 6, 1, 7
1503523613423,-0.821,-0.571,-0.000,+0.002,+0.911,+0.008,-0.295,+1.875,+8.062,-1.125,-50, -7, -1, -9, -6, -4, -10, -37
1503523613445,-0.820,-0.573,-0.000,+0.002,+0.935,-0.001,-0.295,-1.000,+7.750,+0.438,15, 61, 8, 3, 3, -3, 5, 8
1503523613460,-0.819,-0.574,-0.001,+0.002,+0.972,+0.005,-0.299,-0.562,+7.375,+1.000,-14, 14, 4, -2, -3, -1, 9, 22
1503523613486,-0.819,-0.574,-0.001,+0.002,+0.961,+0.005,-0.285,-0.750,-1.625,+1.625,-3, -33, 5, -2, 0, -1, 8, 35
1503523613506,-0.819,-0.574,-0.001,+0.003,+0.950,-0.005,-0.292,-1.375,-0.750,+2.312,-9, -18, -10, 1, -4, -1, -1, 36
1503523613521,-0.819,-0.574,-0.002,+0.003,+0.962,-0.009,-0.300,+0.438,+4.312,+5.500,32, 79, 8, 8, 13, 1, 6, -50
1503523613542,-0.819,-0.574,-0.002,+0.003,+0.962,-0.007,-0.299,+1.062,+2.250,+4.438,-5, -30, -5, -11, -4, 6, -6, -38
1503523613565,-0.818,-0.575,-0.003,+0.004,+0.964,-0.009,-0.295,+0.562,+4.812,+5.938,-20, -54, -3, -6, -8, -1, 0, -30
1503523613580,-0.817,-0.576,-0.004,+0.005,+0.982,-0.009,-0.301,+1.688,+7.375,+6.375,-44, -42, -18, -3, -11, -7, 4, -3
1503523613602,-0.816,-0.577,-0.005,+0.005,+0.969,-0.001,-0.295,+3.250,+8.812,+5.562,16, 5, 7, 4, -2, -2, 7, -38
1503523613626,-0.816,-0.578,-0.006,+0.005,+0.950,+0.001,-0.289,+3.812,+7.688,+4.938,-4, -11, -2, 9, 5, -5, -5, 40
1503523613640,-0.815,-0.579,-0.007,+0.005,+0.944,+0.009,-0.289,+5.938,+5.188,+4.750,40, 50, 9, 10, 4, 2, 5, 35
1503523613662,-0.815,-0.580,-0.009,+0.005,+0.951,+0.005,-0.297,+6.438,+7.250,+6.750,3, -43, 0, -6, 4, 1, -12, 6
1503523613689,-0.814,-0.581,-0.010,+0.005,+0.958,-0.002,-0.285,+7.188,+8.062,+7.750,9, -43, -7, 2, -8, -21, -3, 21
1503523613700,-0.814,-0.581,-0.012,+0.005,+0.990,-0.001,-0.300,+7.000,+2.625,+9.250,-4, 1, -10, -15, -8, 5, -4, 8
1503523613724,-0.814,-0.581,-0.014,+0.005,+0.970,-0.009,-0.286,+9.062,-0.875,+9.750,12, 8, -2, -14, -5, 5, 5, 50
1503523613745,-0.814,-0.581,-0.017,+0.006,+0.952,-0.032,-0.277,+9.562,-0.562,+9.438,46, 26, 0, 4, -3, 7, 7, 14
1503523613761,-0.813,-0.582,-0.019,+0.005,+0.964,-0.015,-0.286,+11.938,+4.625,+9.812,17, 29, 8, 3, 7, 3, 0, -5
1503523613782,-0.813,-0.582,-0.022,+0.005,+1.000,-0.022,-0.286,+13.312,+3.562,+8.812,-12, 33, -4, -9, -1, -2, -3, 19
1503523613805,-0.812,-0.583,-0.025,+0.004,+0.986,-0.028,-0.285,+15.438,+2.375,+8.625,-15, -7, -9, 1, 8, -2, -2, -36
1503523613820,-0.812,-0.583,-0.028,+0.004,+0.972,-0.040,-0.281,+16.688,+5.125,+10.375,-41, 19, 6, 2, 5, 1, 2, 28
1503523613842,-0.811,-0.584,-0.032,+0.004,+0.997,-0.043,-0.279,+18.125,+7.688,+10.875,48, 1, -6, -1, 13, 0, 3, -5
1503523613865,-0.810,-0.585,-0.036,+0.003,+1.008,-0.047,-0.272,+20.812,+7.875,+10.562,-14, -25, 0, 13, -2, 4, -1, 0
1503523613880,-0.809,-0.586,-0.040,+0.002,+1.003,-0.049,-0.267,+22.500,+6.938,+11.812,-75, -88, 1, -3, 10, 4, -4, -15
1503523613902,-0.808,-0.587,-0.045,+0.001,+0.995,-0.063,-0.271,+23.938,+7.250,+14.062,10, 36, 15, -6, -6, -3, 2, -38
1503523613925,-0.807,-0.589,-0.050,+0.001,+1.000,-0.072,-0.260,+24.500,+8.875,+17.125,-13, -4, -5, -5, -20, -4, 2, 10
1503523613940,-0.806,-0.590,-0.055,+0.001,+0.997,-0.078,-0.247,+25.250,+9.812,+19.188,11, -7, 4, 22, 6, 1, 10, 45
1503523613963,-0.804,-0.591,-0.061,+0.001,+1.003,-0.089,-0.249,+26.750,+9.125,+20.688,-17, 24, -4, -6, -1, -5, -6, 15
1503523613988,-0.803,-0.592,-0.067,+0.001,+0.996,-0.096,-0.240,+27.188,+8.688,+20.750,20, 59, -4, 1, -10, -1, -11, -9
1503523614000,-0.802,-0.593,-0.073,+0.001,+1.000,-0.096,-0.246,+28.562,+9.125,+21.188,-18, -24, 5, -14, -4, -1, -18, -7
1503523614023,-0.800,-0.594,-0.079,+0.001,+0.974,-0.113,-0.246,+28.750,+10.688,+21.125,-12, -19, -8, -4, 5, -1, 2, 0
1503523614045,-0.799,-0.596,-0.085,+0.001,+0.964,-0.130,-0.235,+28.062,+10.250,+20.438,-37, -56, 4, -2, -2, -1, 0, -75
1503523614061,-0.797,-0.597,-0.091,+0.000,+0.986,-0.136,-0.222,+28.312,+12.688,+19.875,45, 22, -3, 5, 0, -4, -4, 25
1503523614093,-0.795,-0.598,-0.097,+0.000,+0.985,-0.148,-0.218,+27.750,+11.375,+19.500,-5, 19, -3, 6, 5, 0, 2, 25
1503523614105,-0.794,-0.600,-0.103,-0.000,+0.984,-0.158,-0.220,+28.625,+11.562,+20.125,-6, -2, 5, -4, 1, 4, 19, -17
1503523614123,-0.792,-0.601,-0.108,-0.000,+0.972,-0.159,-0.212,+27.938,+8.562,+19.438,90, 4, -7, 1, 7, 4, -4, 33
1503523614142,-0.791,-0.601,-0.114,-0.001,+0.974,-0.160,-0.205,+28.562,+3.938,+19.125,6, -19, -4, -1, -4, -5, -3, -8
1503523614165,-0.790,-0.601,-0.120,-0.001,+0.952,-0.183,-0.200,+28.438,+2.438,+19.000,-63, -9, -4, -6, -7, 0, 9, 22
1503523614180,-0.789,-0.601,-0.126,-0.002,+0.941,-0.188,-0.192,+27.562,+3.625,+20.062,18, -42, -5, 8, 0, -1, 1, 14
1503523614202,-0.788,-0.601,-0.132,-0.002,+0.963,-0.184,-0.195,+26.938,+4.750,+20.938,-18, 8, -8, -5, -6, -2, -7, -11
1503523614225,-0.787,-0.601,-0.137,-0.002,+0.953,-0.190,-0.173,+26.250,+3.250,+18.500,12, 10, 1, 8, 3, -1, 1, 1
1503523614240,-0.786,-0.602,-0.143,-0.002,+0.931,-0.216,-0.178,+25.875,+7.062,+21.562,30, 8, -13, -8, 1, -1, -24, 6
1503523614263,-0.784,-0.603,-0.149,-0.001,+0.962,-0.226,-0.176,+25.062,+9.375,+23.000,2, -17, 2, 4, -6, -5, 1, -32
1503523614289,-0.782,-0.603,-0.155,-0.001,+0.981,-0.230,-0.165,+25.438,+7.812,+23.938,-30, 22, -5, 4, -4, 1, 0, 25
1503523614301,-0.781,-0.604,-0.160,-0.000,+0.957,-0.246,-0.164,+25.500,+7.375,+22.875,-7, -67, -10, -3, 3, -2, 4, 45
1503523614323,-0.779,-0.604,-0.166,+0.000,+0.970,-0.248,-0.161,+26.000,+6.562,+22.250,4, 13, 11, 11, 5, 7, 3, 6
1503523614345,-0.778,-0.605,-0.172,+0.000,+0.968,-0.245,-0.156,+26.250,+6.562,+22.562,6, 22, 6, -5, 2, 1, 0, -45
1503523614360,-0.776,-0.605,-0.178,+0.000,+0.950,-0.254,-0.164,+26.875,+4.812,+22.375,-1, 55, 4, -7, -8, -5, -11, -77
1503523614382,-0.775,-0.605,-0.184,+0.000,+0.951,-0.280,-0.158,+29.125,+5.625,+23.750,18, 38, 3, 0, 0, -3, 4, -24
1503523614405,-0.773,-0.605,-0.191,+0.001,+0.941,-0.290,-0.152,+29.875,+7.812,+23.688,-2, 3, 5, 5, -6, 1, 0, 15
1503523614428,-0.771,-0.605,-0.197,+0.001,+0.959,-0.301,-0.157,+31.312,+6.688,+24.938,20, -9, -7, -6, -12, -6, -25, -38
1503523614450,-0.770,-0.605,-0.204,+0.001,+0.952,-0.302,-0.162,+32.375,+5.375,+25.938,-43, 8, 4, 1, 6, -1, 5, 33
1503523614465,-0.769,-0.604,-0.211,+0.001,+0.926,-0.319,-0.146,+33.312,+2.312,+25.625,2, 21, -6, -8, -1, 3, 8, 57
1503523614480,-0.767,-0.603,-0.219,+0.000,+0.921,-0.328,-0.156,+36.562,+3.812,+25.688,-62, 3, -4, 2, -2, -1, 3, 5
1503523614502,-0.765,-0.603,-0.227,+0.000,+0.933,-0.347,-0.130,+36.125,+4.812,+28.438,29, -16, 11, -1, -4, -3, 4, 3
1503523619227,-0.758,-0.601,-0.246,+0.069,+0.932,-0.469,-0.090,+0.062,+5.750,-10.312,-50, 1, 3, -2, -6, -1, -5, 1
1503523619243,-0.757,-0.602,-0.245,+0.067,+0.914,-0.436,-0.105,-0.500,+3.875,-9.750,3, 8, 3, 3, 6, 3, -1, 3
1503523619265,-0.757,-0.602,-0.243,+0.066,+0.908,-0.426,-0.099,-2.312,-1.188,-11.438,-26, -26, -11, -4, -2, 0, 0, -2
1503523619289,-0.758,-0.603,-0.242,+0.064,+0.896,-0.431,-0.090,-2.812,-2.312,-14.250,-1, 4, -8, 0, -4, 2, 2, 2
1503523619303,-0.758,-0.604,-0.240,+0.063,+0.913,-0.439,-0.101,-4.125,+0.812,-13.250,4, 9, 11, -1, 4, -8, -2, -3
1503523619327,-0.758,-0.604,-0.238,+0.062,+0.927,-0.433,-0.115,-4.188,+1.375,-10.125,-8, 5, 1, 1, -1, 0, 1, 1
1503523619348,-0.759,-0.604,-0.237,+0.060,+0.913,-0.417,-0.122,-5.188,-4.812,-10.562,-65, -17, 6, 2, -12, -1, -4, -7
1503523619363,-0.759,-0.604,-0.236,+0.059,+0.897,-0.432,-0.125,-3.125,-5.750,-7.812,67, -13, -15, 0, -5, -10, -1, -1
1503523619385,-0.760,-0.604,-0.234,+0.059,+0.901,-0.416,-0.125,-5.062,+0.688,-8.125,2, -7, -9, -3, -2, 3, -4, -1
1503523619407,-0.760,-0.604,-0.233,+0.057,+0.901,-0.405,-0.129,-2.750,-0.312,-9.000,21, 5, -7, 1, -4, -2, 0, 1
1503523619423,-0.760,-0.604,-0.231,+0.056,+0.914,-0.417,-0.138,-3.438,-0.062,-11.688,-7, -3, 10, -2, -1, -2, 0, 1
1503523619447,-0.761,-0.605,-0.230,+0.055,+0.882,-0.415,-0.125,-2.375,+0.250,-12.312,9, 5, 10, 1, -7, 3, 0, -1
1503523619469,-0.761,-0.605,-0.228,+0.053,+0.867,-0.375,-0.127,-0.438,+1.250,-13.000,-1, -2, 2, -1, -1, -3, 1, 1
1503523619483,-0.760,-0.607,-0.227,+0.051,+0.902,-0.399,-0.104,+1.750,+4.250,-15.562,5, -6, 0, -5, -3, 2, 1, 0
1503523619505,-0.759,-0.609,-0.225,+0.049,+0.954,-0.441,-0.075,-2.062,+7.562,-16.688,6, -3, -5, -6, 1, 1, 2, -2
1503523619535,-0.760,-0.608,-0.225,+0.049,+1.085,-0.449,-0.169,+1.938,-2.688,-0.625,4, -1, 2, -1, 11, -1, -9, -1
1503523619551,-0.760,-0.608,-0.225,+0.049,+0.989,-0.394,-0.041,-4.250,-6.438,+3.562,-19, 17, -2, -5, -1, -9, 4, 5
1503523619565,-0.760,-0.608,-0.226,+0.049,+0.953,-0.359,-0.030,-2.562,-6.312,+6.062,27, -24, -13, -6, 7, -1, -5, -1
1503523619587,-0.760,-0.607,-0.225,+0.050,+0.898,-0.363,-0.061,-7.875,-7.250,+5.688,-27, -5, -7, 15, 30, 0, -8, -4
1503523619603,-0.761,-0.607,-0.224,+0.051,+0.934,-0.374,-0.045,-13.188,-6.375,+0.125,-1, -3, 2, 10, -4, -10, 2, 4
1503523619625,-0.762,-0.606,-0.221,+0.051,+0.949,-0.390,-0.066,-17.750,-12.438,-6.750,-20, 0, -1, -5, -6, 0, -5, -3
1503523619649,-0.765,-0.604,-0.218,+0.052,+0.940,-0.421,-0.117,-22.500,-15.938,-7.438,30, -5, -4, 11, 16, 1, -3, 3
1503523619670,-0.767,-0.603,-0.215,+0.054,+0.923,-0.432,-0.137,-26.500,-11.125,+0.125,5, 24, 14, 2, 2, -3, 5, -4
1503523619686,-0.768,-0.601,-0.212,+0.058,+0.924,-0.451,-0.121,-31.750,-6.000,+8.688,21, -11, -7, -5, -1, -2, 4, 1
1503523619707,-0.770,-0.599,-0.210,+0.064,+0.997,-0.454,-0.118,-34.062,-13.625,+18.438,14, -5, -4, 7, 3, 1, 1, 5
1503523619730,-0.773,-0.596,-0.208,+0.070,+1.000,-0.410,-0.137,-37.312,-17.500,+24.438,-4, -1, 4, -1, 1, 2, 0, 0
1503523619745,-0.776,-0.592,-0.205,+0.076,+0.924,-0.377,-0.181,-40.000,-18.188,+24.375,24, 23, -2, 5, 14, 0, -30, -6
1503523619768,-0.779,-0.588,-0.202,+0.082,+0.888,-0.357,-0.197,-38.562,-21.688,+23.625,9, 9, 0, -9, -17, 0, 7, 2
1503523619790,-0.782,-0.584,-0.200,+0.087,+0.895,-0.360,-0.206,-35.500,-23.438,+23.188,-39, -1, 10, -3, -14, -2, 7, -1
1503523619805,-0.785,-0.580,-0.198,+0.093,+0.901,-0.408,-0.224,-32.750,-19.500,+23.938,33, 29, 9, 1, -8, -2, -5, 4
1503523619827,-0.788,-0.576,-0.196,+0.098,+0.884,-0.391,-0.234,-30.250,-19.625,+22.375,-6, -2, -7, 12, 8, 11, 21, -7
1503523619856,-0.791,-0.570,-0.195,+0.102,+0.870,-0.394,-0.235,-25.812,-30.750,+21.312,2, -48, 4, -1, -9, -6, -19, -5
1503523619865,-0.795,-0.565,-0.194,+0.105,+0.847,-0.402,-0.271,-22.875,-35.500,+14.312,34, 5, 3, -5, 4, 5, 1, -13
1503523619888,-0.799,-0.559,-0.193,+0.107,+0.837,-0.392,-0.283,-20.688,-33.000,+11.812,18, -24, -2, 5, -8, -7, -5, 8
1503523619910,-0.803,-0.554,-0.192,+0.109,+0.833,-0.398,-0.317,-15.438,-30.188,+8.938,-11, -33, -16, -3, -2, 4, 2, -4
1503523619927,-0.806,-0.549,-0.192,+0.109,+0.829,-0.403,-0.321,-9.812,-29.625,+6.500,35, 3, -4, 14, -2, -20, 0, 1
1503523619947,-0.809,-0.544,-0.192,+0.109,+0.848,-0.424,-0.329,-6.312,-30.938,+5.188,-4, -1, 0, -20, -1, 12, -5, -3
1503523619970,-0.813,-0.539,-0.193,+0.109,+0.844,-0.426,-0.336,-2.688,-34.125,+3.562,-27, -10, -6, -10, 12, 16, 5, 0
1503523619992,-0.816,-0.533,-0.194,+0.108,+0.839,-0.439,-0.323,-0.125,-39.312,+2.375,-25, -21, -12, -7, -15, -12, 0, -5
1503523620007,-0.820,-0.528,-0.194,+0.106,+0.829,-0.422,-0.316,+0.688,-40.312,-1.312,23, 8, -3, 3, 3, 4, 1, -7
1503523620030,-0.823,-0.524,-0.195,+0.105,+0.792,-0.401,-0.344,+3.000,-29.000,-3.000,19, 6, -7, -2, 20, -4, -6, 3
1503523620045,-0.825,-0.520,-0.196,+0.102,+0.795,-0.401,-0.357,+8.625,-24.812,-3.125,9, 2, -3, -2, 6, 0, -5, -1
1503523620068,-0.827,-0.517,-0.198,+0.100,+0.887,-0.417,-0.362,+11.625,-27.000,-1.812,-24, 3, -1, 1, 2, 9, 17, 8
1503523620093,-0.829,-0.513,-0.200,+0.097,+0.875,-0.420,-0.360,+14.375,-30.562,-2.562,1, 27, -1, 5, -2, -2, 2, 8
1503523620105,-0.832,-0.508,-0.203,+0.093,+0.828,-0.426,-0.342,+16.500,-40.812,-7.375,-9, -65, -16, -4, -2, -5, 0, 0
1503523620127,-0.835,-0.503,-0.205,+0.089,+0.790,-0.429,-0.354,+14.562,-41.375,-10.188,-7, -22, -7, -2, -4, -2, -2, -9
1503523620153,-0.837,-0.499,-0.207,+0.085,+0.769,-0.425,-0.385,+14.938,-29.000,-6.688,9, 10, -10, -3, 0, -3, 3, 2
1503523620165,-0.839,-0.496,-0.209,+0.083,+0.809,-0.421,-0.406,+17.062,-19.625,-3.812,-2, -1, -2, -1, -2, -1, 0, -3
1503523620187,-0.840,-0.493,-0.212,+0.080,+0.833,-0.429,-0.385,+15.375,-20.750,-2.312,3, -10, 3, 4, 1, 0, 0, 0
1503523620210,-0.841,-0.491,-0.214,+0.077,+0.838,-0.410,-0.384,+18.188,-25.000,-4.312,6, 18, 14, -1, -2, -1, 15, 5
1503523620226,-0.843,-0.487,-0.217,+0.073,+0.829,-0.409,-0.400,+21.375,-28.688,-5.062,0, 3, -4, 1, -1, -1, 1, 2
1503523620247,-0.844,-0.484,-0.220,+0.069,+0.813,-0.410,-0.417,+22.625,-25.875,-3.625,4, 2, -1, 1, -1, 3, -2, -2
1503523620270,-0.845,-0.481,-0.223,+0.066,+0.817,-0.405,-0.435,+26.562,-21.125,-0.688,-31, 0, 2, 0, -1, -1, -4, -4
1503523620286,-0.846,-0.478,-0.228,+0.062,+0.833,-0.420,-0.433,+28.438,-22.625,+3.250,18, -45, -4, 1, 1, 0, -3, 2
1503523620308,-0.847,-0.474,-0.232,+0.059,+0.837,-0.420,-0.412,+30.500,-24.812,+3.688,12, -45, -4, -1, -1, -1, -4, -5
1503523620330,-0.848,-0.471,-0.238,+0.056,+0.794,-0.414,-0.459,+37.500,-22.438,+6.938,-14, 20, 4, 2, -1, -14, -4, -14
1503523624027,-0.744,-0.619,-0.235,-0.093,+0.915,-0.233,-0.072,-13.312,-11.188,-10.062,5, 3, 5, -2, -2, 0, -3, 0
1503523624050,-0.745,-0.619,-0.232,-0.092,+0.966,-0.217,-0.042,-17.875,-5.500,-7.000,-27, 4, 5, -2, -7, 0, 1, -2
1503523624089,-0.745,-0.619,-0.230,-0.091,+1.015,-0.220,-0.027,-16.938,-8.125,-1.250,6, 2, -3, 0, -3, -1, -3, -2
1503523624091,-0.747,-0.619,-0.227,-0.090,+1.014,-0.231,-0.062,-20.125,-9.000,-5.125,-1, -5, 0, -3, -1, 4, -6, -4
1503523624110,-0.748,-0.618,-0.223,-0.090,+0.919,-0.219,-0.120,-19.438,-7.375,-10.438,20, 6, 0, 2, 0, -1, -1, -1
1503523624148,-0.750,-0.618,-0.220,-0.090,+0.934,-0.219,-0.087,-19.000,-9.438,-12.375,7, 14, -1, -3, 4, -3, 0, -4
1503523624150,-0.752,-0.617,-0.216,-0.089,+1.043,-0.239,-0.049,-24.188,-17.750,-9.688,32, -2, -4, 1, 5, -7, -2, 3
1503523624172,-0.754,-0.615,-0.212,-0.088,+1.024,-0.241,-0.074,-25.062,-17.812,-9.188,-19, -5, -2, -3, -10, -3, 2, -5
1503523624192,-0.757,-0.613,-0.207,-0.088,+0.939,-0.193,-0.121,-25.812,-21.438,-13.188,-14, -26, -3, 0, 2, 3, -1, 1
1503523624208,-0.761,-0.610,-0.202,-0.088,+0.960,-0.163,-0.163,-24.500,-26.312,-9.875,19, 7, -1, 1, -9, -3, 1, 0
1503523624230,-0.764,-0.608,-0.198,-0.087,+0.960,-0.198,-0.156,-21.625,-19.062,-7.750,-29, 9, -2, -1, 4, 1, 0, -14
1503523624252,-0.767,-0.606,-0.194,-0.088,+0.967,-0.188,-0.132,-21.312,-24.438,-10.750,-19, -3, 2, -3, 3, -1, 5, 5
1503523624267,-0.770,-0.603,-0.190,-0.089,+0.984,-0.179,-0.158,-19.000,-29.750,-12.938,10, 6, 0, -4, -4, -5, -6, 7
1503523624289,-0.773,-0.600,-0.185,-0.090,+0.983,-0.159,-0.164,-18.062,-29.875,-14.625,-6, 1, 2, -3, -2, -1, -1, 10
1503523624312,-0.777,-0.596,-0.182,-0.091,+0.973,-0.166,-0.173,-15.000,-31.500,-10.562,24, 6, -1, -3, 5, 3, 0, 10
1503523624327,-0.780,-0.592,-0.179,-0.092,+0.954,-0.161,-0.186,-12.938,-32.062,-10.938,-3, 3, -1, 0, 4, -2, -6, -1
1503523624350,-0.783,-0.589,-0.176,-0.093,+0.937,-0.154,-0.207,-11.938,-28.438,-9.562,29, 7, 1, 3, -2, -8, 11, 3
1503523624374,-0.786,-0.587,-0.173,-0.094,+0.921,-0.146,-0.214,-12.250,-19.562,-6.938,13, 6, -1, -2, 0, 2, 2, -3
1503523624388,-0.787,-0.585,-0.171,-0.093,+0.956,-0.138,-0.230,-11.500,-10.500,-2.312,-15, 3, 0, 5, 3, -1, -11, 1
1503523624411,-0.788,-0.585,-0.169,-0.093,+0.939,-0.149,-0.246,-13.688,-4.875,-2.625,-37, -7, -2, -4, -9, 2, 3, -4
1503523624432,-0.790,-0.583,-0.167,-0.093,+0.998,-0.146,-0.197,-9.938,-18.562,-2.250,-7, 1, -3, 1, -5, -2, 0, -3
1503523624449,-0.791,-0.582,-0.165,-0.093,+0.985,-0.154,-0.227,-11.500,-9.125,-3.562,11, 2, 3, 1, 3, 1, 3, 7
1503523624469,-0.793,-0.580,-0.163,-0.092,+0.912,-0.138,-0.217,-11.812,-12.438,-0.750,-1, -1, 2, 4, -13, -5, -2, 2
1503523624492,-0.793,-0.580,-0.162,-0.091,+0.968,-0.128,-0.232,-10.000,-5.375,-0.688,-53, -10, -8, -5, -2, -7, 6, 4
1503523624509,-0.794,-0.579,-0.160,-0.091,+0.997,-0.128,-0.257,-10.188,-8.562,-1.000,54, 17, 5, 2, 3, 2, -2, -1
1503523624530,-0.796,-0.577,-0.159,-0.091,+1.000,-0.141,-0.233,-9.562,-14.125,-0.062,10, 1, -1, -1, -2, 2, -2, 7
1503523624552,-0.798,-0.575,-0.157,-0.090,+1.003,-0.152,-0.255,-8.438,-14.938,+0.312,-34, 5, 1, -5, -1, -7, -6, -6
1503523624568,-0.800,-0.573,-0.156,-0.090,+0.958,-0.149,-0.228,-10.500,-20.438,+1.375,53, 8, -4, -3, -6, 1, -3, 10
1503523624589,-0.802,-0.571,-0.154,-0.089,+0.927,-0.141,-0.241,-12.125,-16.625,+2.125,-38, -6, -2, -3, 4, -5, -13, 2
1503523624615,-0.803,-0.569,-0.153,-0.087,+0.948,-0.146,-0.267,-13.438,-11.125,+4.375,-10, -2, -2, 1, -3, 14, 8, -4
1503523624635,-0.805,-0.568,-0.151,-0.086,+0.995,-0.146,-0.267,-15.500,-12.938,+4.875,43, -5, 0, 1, 3, -7, -8, -3
1503523624657,-0.807,-0.566,-0.149,-0.085,+0.980,-0.123,-0.280,-14.812,-16.438,+4.125,34, 12, 1, 0, 1, 23, 2, 33
1503523624677,-0.809,-0.563,-0.147,-0.084,+0.932,-0.112,-0.284,-13.312,-18.438,+3.000,-52, -36, -12, -2, -4, 10, -1, -22
1503523624695,-0.811,-0.561,-0.146,-0.082,+0.902,-0.128,-0.297,-12.438,-12.000,+5.438,-29, 17, 5, 0, 4, -4, 2, -6
1503523624710,-0.811,-0.561,-0.145,-0.080,+0.950,-0.129,-0.295,-12.438,-3.500,+10.125,29, -2, -1, -3, 2, -4, -4, -14
1503523624732,-0.812,-0.560,-0.145,-0.078,+1.000,-0.113,-0.325,-7.938,-1.000,+10.312,53, 2, -1, 0, -3, 2, 8, 8
1503523624755,-0.813,-0.558,-0.144,-0.077,+0.994,-0.123,-0.330,-6.938,-10.938,+11.188,-5, -26, -7, -3, -5, 4, 0, -3
1503523624769,-0.815,-0.556,-0.145,-0.075,+0.961,-0.139,-0.325,-2.938,-12.000,+13.938,11, -1, 4, 1, 3, 2, -5, 12
1503523624792,-0.816,-0.554,-0.146,-0.073,+0.936,-0.135,-0.319,-0.750,-9.938,+14.000,-12, -10, -5, -1, -3, -7, -8, 13
1503523624816,-0.817,-0.552,-0.148,-0.072,+0.959,-0.156,-0.329,+3.312,-9.375,+19.125,-10, 6, 3, 0, -4, 8, -17, 15
1503523624829,-0.818,-0.550,-0.150,-0.070,+0.919,-0.164,-0.305,+3.438,-11.312,+15.938,6, 0, 1, -3, 2, 15, -15, 5
1503523624852,-0.819,-0.548,-0.152,-0.069,+0.935,-0.144,-0.315,+5.875,-10.875,+16.562,44, 9, -5, 1, 0, -3, -5, -55
1503523624876,-0.821,-0.546,-0.155,-0.068,+0.963,-0.149,-0.322,+8.750,-13.375,+17.312,-34, -6, 1, 2, -3, 5, -6, -9
1503523624890,-0.822,-0.543,-0.157,-0.068,+0.950,-0.168,-0.313,+8.688,-20.500,+12.562,-4, -11, 0, -2, -4, -3, 7, 13
1503523624912,-0.825,-0.539,-0.159,-0.068,+0.926,-0.182,-0.337,+10.438,-25.625,+9.938,55, 7, -4, -1, -7, -13, -14, -99
1503523624935,-0.827,-0.535,-0.161,-0.069,+0.841,-0.194,-0.342,+12.500,-23.125,+7.688,17, 25, 3, 1, 2, -8, 3, 55
1503523624951,-0.828,-0.532,-0.164,-0.069,+0.871,-0.199,-0.336,+11.625,-15.375,+9.125,48, 0, -10, -5, -6, -7, -9, -37
1503523624972,-0.828,-0.531,-0.166,-0.069,+0.883,-0.188,-0.317,+11.188,-5.188,+8.500,87, -26, -11, -5, 1, -3, 0, -21
1503523624995,-0.828,-0.530,-0.169,-0.070,+0.922,-0.203,-0.333,+11.938,-4.500,+7.438,-22, 16, 5, 1, 1, 2, 4, 13
1503523625012,-0.828,-0.529,-0.171,-0.070,+0.923,-0.196,-0.347,+11.625,-5.438,+7.375,-1, -22, 0, -3, 1, 2, -3, 14
1503523625032,-0.828,-0.528,-0.173,-0.070,+0.920,-0.210,-0.327,+9.688,-4.812,+8.375,16, -13, 4, 2, -1, -9, -1, 0
1503523625048,-0.828,-0.528,-0.176,-0.069,+0.921,-0.217,-0.338,+9.688,+1.125,+11.500,-3, 12, 4, 0, -4, -2, 7, 52
1503523625070,-0.828,-0.528,-0.179,-0.069,+0.946,-0.218,-0.324,+10.438,+1.438,+13.375,-88, 18, 4, -1, 5, 30, 3, 1
1503523625092,-0.828,-0.527,-0.181,-0.068,+0.935,-0.220,-0.333,+11.188,-3.938,+13.500,9, 9, -3, 0, 0, -5, -7, -47
1503523625112,-0.828,-0.525,-0.184,-0.068,+0.919,-0.224,-0.337,+11.625,-5.250,+13.625,26, -13, -8, 2, -4, -14, -5, 0
1503523625129,-0.828,-0.524,-0.187,-0.067,+0.907,-0.222,-0.347,+12.875,-4.188,+13.750,-44, 16, 10, 1, -5, -4, 5, 2
1503523625152,-0.828,-0.523,-0.190,-0.066,+0.900,-0.239,-0.326,+10.375,-2.062,+14.562,19, -3, 0, 1, -1, 0, -1, 3
1503523625168,-0.828,-0.523,-0.193,-0.065,+0.913,-0.243,-0.324,+10.500,+1.625,+15.312,0, 34, -3, -2, -2, -4, 5, 28
1503523625189,-0.827,-0.523,-0.196,-0.064,+0.915,-0.249,-0.329,+9.312,-0.875,+15.250,22, -5, -12, -3, -1, -4, 2, 17
1503523625212,-0.827,-0.522,-0.198,-0.063,+0.912,-0.253,-0.333,+9.750,-2.875,+14.500,-29, -41, 4, -1, 5, -6, -4, -10
1503523625228,-0.828,-0.520,-0.201,-0.062,+0.908,-0.267,-0.335,+10.250,-4.312,+12.812,7, 21, 1, -4, -4, -1, -4, -21
1503523625251,-0.828,-0.519,-0.204,-0.062,+0.925,-0.270,-0.331,+8.500,-5.562,+13.688,-29, 21, -4, -4, 2, 1, -13, -14
1503523625272,-0.828,-0.518,-0.206,-0.061,+0.905,-0.267,-0.342,+10.188,-3.625,+13.812,78, 47, 10, 2, -2, -7, 0, -7
1503523625288,-0.828,-0.516,-0.209,-0.061,+0.923,-0.268,-0.347,+12.938,-9.188,+14.125,-69, -37, -6, -1, 5, 16, 10, 34
1503523625312,-0.829,-0.514,-0.212,-0.061,+0.923,-0.268,-0.349,+13.562,-12.000,+14.750,9, 8, 4, 1, 2, -5, -17, -21
1503523625332,-0.830,-0.512,-0.215,-0.060,+0.909,-0.282,-0.355,+14.625,-10.000,+17.188,-15, -23, -3, -3, -4, -4, 1, 37
1503523625355,-0.830,-0.510,-0.219,-0.059,+0.934,-0.283,-0.358,+15.938,-7.500,+21.250,24, -8, -9, 1, 1, -3, -5, -99
1503523625370,-0.830,-0.508,-0.224,-0.058,+0.909,-0.288,-0.358,+16.875,-6.625,+23.812,-13, -6, 7, 2, 0, -4, -5, 27
1503523625392,-0.830,-0.505,-0.228,-0.057,+0.903,-0.291,-0.352,+20.938,-10.000,+26.375,-14, -8, 1, -2, -4, -5, -7, -3
1503523625416,-0.831,-0.503,-0.234,-0.055,+0.911,-0.310,-0.363,+23.312,-11.750,+28.125,-1, -9, -5, -1, -5, -2, -1, 3
1503523625429,-0.831,-0.500,-0.239,-0.054,+0.887,-0.318,-0.340,+22.938,-11.000,+29.438,11, -11, 2, 1, -1, -1, 4, -34
1503523625452,-0.831,-0.497,-0.245,-0.052,+0.896,-0.326,-0.346,+24.812,-9.188,+31.938,-27, 50, 19, 0, 0, 3, 3, 25
1503523625478,-0.831,-0.494,-0.251,-0.050,+0.860,-0.345,-0.348,+24.250,-7.625,+32.062,7, -41, -4, -6, -5, -4, -2, 13
1503523625490,-0.830,-0.492,-0.258,-0.049,+0.869,-0.348,-0.342,+26.312,-8.938,+32.312,38, 21, -3, -3, 0, -3, -3, 1
1503523625512,-0.830,-0.489,-0.264,-0.047,+0.880,-0.362,-0.346,+27.500,-11.312,+33.500,8, -5, 0, 2, 1, 2, 2, 3
1503523628355,-0.766,-0.577,-0.284,-0.022,+0.902,-0.409,-0.135,+0.438,-0.750,-2.875,3, 7, 2, 0, -1, -1, 0, 1
1503523628371,-0.766,-0.577,-0.283,-0.022,+0.910,-0.408,-0.129,-1.000,-1.188,-2.500,-9, 0, 6, -3, 0, -1, -1, -2
1503523628397,-0.765,-0.578,-0.283,-0.022,+0.909,-0.411,-0.113,-1.812,+2.750,-1.125,9, -8, -10, 0, -3, -5, 2, -1
1503523628415,-0.765,-0.578,-0.283,-0.022,+0.907,-0.404,-0.115,-2.000,+3.875,-1.938,2, -1, 0, -3, 0, -2, -2, -4
1503523628430,-0.765,-0.579,-0.283,-0.022,+0.917,-0.407,-0.128,-2.000,+3.688,-2.312,10, 1, 3, 0, -1, -1, 0, 1
1503523628453,-0.765,-0.579,-0.282,-0.022,+0.907,-0.411,-0.126,-4.125,+0.250,-3.312,4, 4, 4, 1, 0, -4, -1, 1
1503523628475,-0.765,-0.580,-0.281,-0.022,+0.911,-0.408,-0.104,-5.562,+1.500,-2.000,9, -5, -5, 2, 3, 3, 4, 1
1503523628499,-0.764,-0.580,-0.280,-0.021,+0.906,-0.407,-0.116,-7.000,+3.688,-3.375,5, 3, -4, -1, -1, -2, -4, 4
1503523628520,-0.764,-0.581,-0.279,-0.022,+0.920,-0.399,-0.100,-7.875,+3.125,-6.812,-1, 5, 9, 0, 0, 0, 0, -5
1503523628535,-0.765,-0.582,-0.277,-0.022,+0.918,-0.404,-0.117,-8.188,-0.188,-8.125,0, -8, -14, -2, -1, -1, 2, 0
1503523628551,-0.765,-0.582,-0.276,-0.022,+0.914,-0.396,-0.118,-8.062,+0.812,-6.375,8, 2, 2, -2, -1, -1, 0, 1
1503523628574,-0.764,-0.583,-0.274,-0.022,+0.906,-0.381,-0.126,-8.875,+6.312,-5.000,-53, -10, -5, -4, -3, -15, -6, -9
1503523628596,-0.764,-0.584,-0.272,-0.021,+0.915,-0.371,-0.140,-8.562,+6.750,-6.000,14, 9, 3, 0, -1, 4, -1, 2
1503523628611,-0.764,-0.585,-0.271,-0.022,+0.935,-0.382,-0.135,-6.812,+1.688,-7.500,-22, 2, -2, 0, 1, 0, 0, -4
1503523628633,-0.765,-0.585,-0.269,-0.023,+0.916,-0.381,-0.133,-5.312,+0.125,-8.125,19, -1, 1, 0, 0, 2, 0, 4
1503523628655,-0.764,-0.586,-0.268,-0.023,+0.911,-0.383,-0.131,-4.625,+3.000,-5.375,6, 0, 6, 3, -1, -1, -1, 0
1503523628671,-0.764,-0.587,-0.267,-0.023,+0.907,-0.378,-0.134,-5.688,+6.188,-6.188,14, 2, -5, -3, -4, 1, -1, -6
1503523628695,-0.764,-0.588,-0.266,-0.023,+0.960,-0.378,-0.119,-5.938,+4.000,-6.000,16, 0, 3, 0, -2, -1, -3, 0
1503523628715,-0.764,-0.589,-0.264,-0.023,+0.989,-0.374,-0.121,-6.312,+1.625,-7.312,-13, -5, -3, -1, -4, -3, -2, 1
1503523628731,-0.764,-0.588,-0.262,-0.024,+1.000,-0.379,-0.099,-7.000,-8.438,-7.250,31, 15, -1, -2, 0, -1, 1, 2
1503523628753,-0.766,-0.587,-0.261,-0.025,+0.958,-0.384,-0.116,-8.938,-16.250,-5.312,-14, -7, -2, 2, -2, 2, -1, -2
1503523628776,-0.768,-0.585,-0.259,-0.026,+0.896,-0.365,-0.103,-13.000,-17.500,-8.375,-7, -5, -8, -3, -5, -1, -2, 6
1503523628799,-0.770,-0.584,-0.255,-0.026,+0.896,-0.362,-0.102,-17.062,-17.500,-12.312,14, -1, -3, -3, -2, -3, -3, -3
1503523628813,-0.773,-0.582,-0.251,-0.028,+0.884,-0.368,-0.086,-21.125,-20.938,-21.188,15, -3, -3, -1, 1, -1, 4, -2
1503523628836,-0.776,-0.581,-0.246,-0.029,+0.931,-0.393,-0.096,-23.438,-25.188,-21.500,4, 1, -4, 1, -1, 2, -2, 4
1503523628857,-0.778,-0.580,-0.241,-0.029,+0.930,-0.390,-0.126,-31.875,-14.375,-18.375,0, 4, 0, -1, -1, 0, -1, 6
1503523628873,-0.780,-0.580,-0.235,-0.028,+0.927,-0.322,-0.152,-34.188,-10.688,-18.938,10, 0, -2, -1, 2, 1, 2, 12
1503523628897,-0.783,-0.578,-0.228,-0.028,+0.990,-0.315,-0.155,-34.688,-18.438,-17.562,-15, 0, 4, 1, -2, -3, -2, -4
1503523628917,-0.787,-0.576,-0.221,-0.028,+1.001,-0.314,-0.174,-37.562,-28.188,-16.562,-38, -10, -2, 0, 0, -1, -1, -8
1503523628933,-0.791,-0.573,-0.215,-0.028,+0.890,-0.275,-0.202,-37.250,-27.188,-17.875,8, 1, 1, -1, 0, 0, -6, -6
1503523628955,-0.794,-0.570,-0.208,-0.028,+0.888,-0.255,-0.241,-34.750,-22.875,-14.312,-6, -2, -3, 0, -2, -2, -2, -1
1503523628978,-0.797,-0.569,-0.202,-0.026,+0.926,-0.275,-0.232,-35.625,-12.938,-9.500,9, 0, 0, 0, -2, 1, 4, 2
1503523628993,-0.799,-0.568,-0.197,-0.025,+0.994,-0.260,-0.259,-31.062,-14.250,-4.625,20, -5, -3, -2, -1, 4, 1, -2
1503523629015,-0.802,-0.565,-0.192,-0.024,+1.010,-0.274,-0.266,-28.938,-23.062,-6.312,2, -4, 0, -1, -1, 2, -1, 3
1503523629038,-0.806,-0.561,-0.188,-0.023,+0.938,-0.259,-0.274,-28.750,-27.812,-5.250,-8, 2, 5, -1, -8, -6, -1, -4
1503523629053,-0.809,-0.557,-0.184,-0.022,+0.901,-0.258,-0.261,-26.062,-28.312,-1.812,12, -15, -1, 0, 0, 1, -7, -4
1503523629076,-0.812,-0.555,-0.180,-0.020,+0.890,-0.260,-0.263,-26.938,-16.500,+1.688,-6, -4, 3, 0, -5, -1, -1, 3
1503523629099,-0.813,-0.554,-0.177,-0.018,+0.910,-0.238,-0.290,-24.750,-9.750,+1.375,-16, -6, -1, -2, -5, 0, -2, -2
1503523629113,-0.815,-0.552,-0.174,-0.017,+0.950,-0.237,-0.305,-22.250,-13.312,+1.250,-11, -6, -4, -2, 0, 5, 0, -8
1503523629137,-0.818,-0.549,-0.171,-0.016,+0.957,-0.248,-0.312,-20.938,-22.438,-0.750,2, 0, 0, -2, -6, -3, 2, 5
1503523629157,-0.821,-0.546,-0.168,-0.015,+0.899,-0.264,-0.299,-19.688,-25.062,-1.750,15, 8, -1, -2, 2, 2, -2, -12
1503523629174,-0.824,-0.542,-0.165,-0.014,+0.893,-0.259,-0.304,-20.812,-22.938,-0.312,-45, -12, -1, 0, -3, -2, -5, -2
1503523629195,-0.826,-0.540,-0.162,-0.012,+0.891,-0.244,-0.324,-19.938,-15.750,+1.000,-1, 0, 0, 5, -2, -1, 0, 1
1503523629217,-0.827,-0.538,-0.160,-0.011,+0.923,-0.226,-0.339,-18.375,-13.000,+1.500,5, 3, -2, 0, 5, 0, 1, 1
1503523629234,-0.830,-0.536,-0.158,-0.010,+0.952,-0.230,-0.349,-14.938,-19.000,+0.250,8, -6, -3, 2, -7, 5, 4, -11
1503523629254,-0.832,-0.533,-0.156,-0.010,+0.931,-0.231,-0.369,-12.750,-22.375,+0.875,-13, -2, -1, -4, -8, 0, 4, -7
1503523629277,-0.835,-0.529,-0.154,-0.010,+0.892,-0.218,-0.369,-10.125,-24.375,+2.750,22, 8, 4, -1, -1, -2, 4, 1
1503523629292,-0.837,-0.526,-0.153,-0.009,+0.921,-0.217,-0.361,-9.500,-19.250,+8.000,4, -1, -6, -4, 1, 0, 6, 12
1503523629314,-0.838,-0.524,-0.153,-0.007,+0.919,-0.221,-0.395,-5.875,-13.375,+11.562,-29, -13, -3, -5, -6, -1, 1, -1
1503523629338,-0.840,-0.521,-0.154,-0.005,+0.932,-0.227,-0.396,-4.000,-16.312,+14.688,11, 10, 2, 1, -4, -5, -16, -5
1503523629352,-0.841,-0.518,-0.155,-0.004,+0.941,-0.234,-0.409,-1.250,-18.750,+17.438,11, 2, -1, -5, -3, -3, 2, -3
1503523629375,-0.843,-0.514,-0.157,-0.002,+0.928,-0.234,-0.426,+4.000,-20.438,+21.938,-47, -4, 1, -1, 3, 0, 2, 2
1503523629397,-0.845,-0.510,-0.160,+0.000,+0.922,-0.232,-0.418,+7.375,-24.375,+25.438,27, 3, 0, 3, 1, -1, -1, -1
1503523629412,-0.847,-0.505,-0.164,+0.002,+0.897,-0.244,-0.418,+10.812,-25.562,+29.062,0, 7, 13, 0, 1, -6, -2, 8
1503523629435,-0.849,-0.501,-0.169,+0.005,+0.900,-0.253,-0.427,+16.250,-21.250,+33.875,-2, 0, -4, 0, 1, 1, -3, 6
1503523629457,-0.850,-0.497,-0.174,+0.007,+0.892,-0.251,-0.445,+21.438,-20.250,+36.188,-3, -50, -52, -11, -3, -5, -13, -89
1503523629472,-0.851,-0.493,-0.181,+0.009,+0.877,-0.263,-0.438,+25.438,-23.312,+38.000,28, 6, -8, 1, 0, 2, 3, 23
1503523629494,-0.852,-0.488,-0.188,+0.011,+0.844,-0.292,-0.424,+30.188,-24.375,+38.375,-27, 2, 3, 4, 3, 2, 7, 5
1503523629517,-0.853,-0.484,-0.196,+0.013,+0.804,-0.333,-0.424,+31.125,-21.500,+39.062,-15, 58, 46, 7, 4, 1, 2, 1
1503523629532,-0.853,-0.480,-0.204,+0.016,+0.812,-0.338,-0.426,+33.562,-16.125,+40.500,44, 4, 3, -2, -3, -2, -5, 30
1503523629554,-0.853,-0.476,-0.212,+0.018,+0.808,-0.362,-0.418,+33.688,-14.188,+40.375,-8, -10, -4, -4, 3, 0, 3, -13
1503523629579,-0.853,-0.473,-0.221,+0.021,+0.826,-0.378,-0.413,+36.188,-13.188,+40.500,-36, 34, 3, -3, -4, -1, -9, -82
1503523629592,-0.852,-0.470,-0.230,+0.023,+0.812,-0.403,-0.417,+37.812,-11.438,+40.375,47, 11, 19, 2, -5, -4, -2, 8
1503523629614,-0.851,-0.467,-0.238,+0.025,+0.804,-0.418,-0.395,+36.875,-14.062,+38.625,38, 23, 4, 3, 1, 1, 4, 26
1503523629637,-0.851,-0.464,-0.247,+0.027,+0.773,-0.436,-0.403,+37.375,-12.500,+38.188,22, -2, 7, 0, 0, 4, 4, 71
1503523633441,-0.739,-0.622,-0.238,+0.105,+0.899,-0.491,-0.070,+2.375,+0.375,-1.562,-24, 17, 21, 5, 4, 0, 2, -4
1503523633455,-0.739,-0.622,-0.238,+0.105,+0.894,-0.487,-0.064,+1.312,-3.375,-0.125,20, -24, -7, 2, 0, 0, 1, 0
1503523633478,-0.739,-0.622,-0.238,+0.104,+0.878,-0.469,-0.050,-0.250,-2.562,-1.562,32, 5, 0, 5, 8, 1, -6, -4
1503523633502,-0.739,-0.622,-0.238,+0.104,+0.866,-0.461,-0.064,+0.812,-2.250,-1.812,8, -1, -7, -2, -9, -8, -3, 5
1503523633515,-0.739,-0.622,-0.238,+0.104,+0.890,-0.478,-0.048,-0.688,+2.062,+0.312,-34, -8, 0, -6, -1, 1, 1, -4
1503523633540,-0.738,-0.622,-0.239,+0.104,+0.901,-0.483,-0.066,+0.188,+4.188,+2.438,-7, -7, -7, 10, -4, -1, 5, 7
1503523633562,-0.738,-0.622,-0.239,+0.104,+0.909,-0.476,-0.074,+0.500,-0.125,+1.438,-37, -4, -4, -7, 2, -3, -5, -4
1503523633576,-0.739,-0.622,-0.239,+0.104,+0.881,-0.489,-0.065,-0.500,-5.500,-0.625,-9, 1, -4, -1, 0, 5, 6, -6
1503523633604,-0.739,-0.621,-0.239,+0.103,+0.854,-0.486,-0.055,-3.000,-7.875,-2.812,-33, 17, 9, 6, 2, -1, 1, 2
1503523633623,-0.739,-0.621,-0.238,+0.104,+0.858,-0.492,-0.047,-4.250,-0.438,-2.750,28, -7, -3, -4, 5, -1, 3, 14
1503523633643,-0.739,-0.622,-0.237,+0.104,+0.896,-0.479,-0.033,-5.562,+1.562,-2.938,-29, -53, -17, -4, 3, -2, -2, -1
1503523633658,-0.740,-0.622,-0.236,+0.103,+0.925,-0.472,-0.076,-4.750,-2.938,-4.875,6, 4, -9, -3, -6, 0, -3, -1
1503523633680,-0.741,-0.621,-0.236,+0.102,+0.879,-0.457,-0.080,-3.625,-7.375,-3.875,39, 8, 3, -4, -4, 1, -6, -21
1503523633700,-0.741,-0.620,-0.235,+0.102,+0.870,-0.463,-0.085,-4.062,-4.125,-2.562,27, 4, 1, -3, -7, -2, -12, 3
1503523633724,-0.742,-0.620,-0.234,+0.102,+0.889,-0.469,-0.082,-5.562,-0.688,-2.438,15, 7, 3, -4, -6, -2, 4, -2
1503523633741,-0.742,-0.620,-0.233,+0.102,+0.912,-0.465,-0.069,-4.375,-3.062,-3.875,-13, 12, 6, -3, -17, 1, 0, -13
1503523633755,-0.743,-0.620,-0.232,+0.101,+0.889,-0.476,-0.070,-4.938,-6.562,-6.188,-21, 20, 8, -3, -9, -5, 0, -3
1503523633778,-0.745,-0.618,-0.231,+0.100,+0.878,-0.454,-0.151,-3.250,-8.938,-8.250,-5, -14, -12, -3, 0, 3, 7, 11
1503523633800,-0.747,-0.618,-0.227,+0.097,+0.688,-0.455,+0.090,-17.750,-18.375,-35.250,9, 2, 10, 3, 10, 0, -5, 9
1503523633815,-0.747,-0.619,-0.224,+0.096,+0.991,-0.521,-0.205,-2.250,+10.625,-16.562,20, 7, -12, 0, 1, -1, -2, -3
1503523633838,-0.745,-0.622,-0.220,+0.095,+1.008,-0.415,-0.050,-10.250,+14.500,-18.688,-10, 28, 10, 9, 9, 2, -3, -28
1503523633860,-0.748,-0.620,-0.219,+0.092,+1.003,-0.393,-0.173,-0.312,-14.625,-6.125,2, -15, -13, -10, -4, 0, 1, 9
1503523633876,-0.748,-0.620,-0.219,+0.093,+0.924,-0.457,-0.065,-4.188,-4.062,-0.500,-3, -4, -2, -3, -1, 1, 10, -10
1503523633899,-0.748,-0.620,-0.219,+0.093,+0.840,-0.380,-0.084,-3.062,+3.500,+4.375,8, -21, -10, 4, -8, 0, -10, -10
1503523633920,-0.747,-0.621,-0.218,+0.094,+0.926,-0.435,-0.046,-7.562,+2.875,+0.125,6, -29, 5, 5, 7, 0, 5, -9
1503523633935,-0.747,-0.621,-0.217,+0.095,+0.936,-0.444,-0.062,-8.562,+3.312,+0.188,8, 28, -1, 2, -2, 1, 6, 7
1503523633958,-0.746,-0.622,-0.216,+0.096,+0.934,-0.448,-0.045,-11.250,+3.938,+3.750,14, 8, 16, -1, 7, 0, -1, 3
1503523633980,-0.746,-0.622,-0.214,+0.099,+0.933,-0.445,-0.032,-16.062,+0.062,+5.750,-20, -1, 6, 6, 6, 0, 4, 7
1503523633995,-0.747,-0.622,-0.212,+0.101,+0.915,-0.447,-0.037,-20.500,-3.312,+2.375,-28, -5, 2, -1, 9, 0, 5, -1
1503523634018,-0.748,-0.621,-0.210,+0.103,+0.920,-0.448,-0.038,-24.062,-8.688,-1.062,21, 5, -3, -1, 10, -2, -4, -8
1503523634040,-0.750,-0.620,-0.207,+0.105,+0.931,-0.458,-0.066,-27.125,-9.625,+1.812,-4, -13, -17, -1, 1, -5, -5, -4
1503523634056,-0.751,-0.618,-0.205,+0.110,+0.964,-0.466,-0.130,-26.125,-4.312,+15.688,-24, -7, -16, -1, -5, -1, -4, 10
1503523634078,-0.751,-0.617,-0.204,+0.116,+0.944,-0.449,-0.130,-31.125,+5.812,+24.312,-12, 2, -12, 21, 6, 0, -17, -24
1503523634102,-0.752,-0.616,-0.202,+0.122,+0.941,-0.418,-0.143,-31.062,-0.062,+29.188,-23, 5, 11, -10, -7, 2, 6, 3
1503523634115,-0.753,-0.613,-0.202,+0.128,+0.950,-0.414,-0.145,-27.875,-9.250,+31.562,-15, -28, 6, 1, 0, -3, 0, 6
1503523634138,-0.755,-0.610,-0.201,+0.134,+0.928,-0.421,-0.133,-27.438,-11.562,+29.688,-2, 17, 0, -3, -13, -6, -2, 11
1503523634160,-0.756,-0.607,-0.201,+0.140,+0.886,-0.429,-0.151,-25.938,-12.688,+29.250,9, -36, 2, -14, -6, -6, -14, -16
1503523634176,-0.758,-0.603,-0.201,+0.146,+0.852,-0.453,-0.167,-24.250,-13.312,+30.312,14, 9, -22, 0, 3, -2, -11, -21
1503523634198,-0.759,-0.600,-0.201,+0.151,+0.840,-0.461,-0.161,-23.938,-10.188,+29.688,7, 9, 7, 3, -2, 7, 11, 3
1503523634220,-0.760,-0.598,-0.201,+0.156,+0.859,-0.427,-0.158,-22.312,-8.125,+27.688,-1, -13, -11, -7, -6, 2, 1, 15
1503523634236,-0.761,-0.595,-0.202,+0.162,+0.886,-0.502,-0.175,-16.125,-8.188,+31.250,-1, -9, 9, -3, 1, -5, -3, -6
1503523634258,-0.761,-0.593,-0.203,+0.166,+0.882,-0.510,-0.177,-15.625,-10.312,+29.375,1, 1, 22, -2, -7, -4, -3, -18
1503523634280,-0.763,-0.589,-0.205,+0.171,+0.864,-0.501,-0.183,-13.688,-17.688,+30.562,-1, -11, -12, 1, -5, -1, 0, 17
1503523634295,-0.765,-0.585,-0.207,+0.175,+0.854,-0.525,-0.188,-11.188,-22.688,+29.000,-18, -43, -23, -1, 2, 2, -7, -17
1503523634318,-0.766,-0.580,-0.210,+0.178,+0.821,-0.528,-0.193,-10.312,-24.125,+27.625,9, 18, 2, 2, -11, 0, 9, -19
1503523634342,-0.768,-0.576,-0.212,+0.182,+0.815,-0.530,-0.202,-7.812,-21.125,+29.062,-3, 17, -20, -4, 3, -3, -6, 8
1503523634355,-0.769,-0.572,-0.215,+0.186,+0.816,-0.547,-0.222,-5.188,-23.125,+29.188,14, 1, 31, 2, 5, 0, 5, 2
1503523634378,-0.771,-0.567,-0.218,+0.189,+0.810,-0.546,-0.211,-5.500,-28.812,+29.000,31, -17, -12, 7, 5, 4, 2, -6
1503523634403,-0.773,-0.563,-0.221,+0.192,+0.797,-0.569,-0.245,-5.875,-24.125,+27.250,-38, 4, -4, -16, 20, 0, 0, 13
1503523634415,-0.774,-0.559,-0.224,+0.195,+0.774,-0.542,-0.220,-3.750,-22.125,+27.000,50, -21, -1, -7, -7, -1, 5, -24
1503523634440,-0.776,-0.555,-0.226,+0.196,+0.788,-0.540,-0.246,+0.062,-25.125,+19.375,-27, -2, 2, 0, -9, 0, -3, 16
1503523634460,-0.779,-0.549,-0.229,+0.196,+0.795,-0.560,-0.260,+2.500,-36.625,+15.062,-66, 1, -1, 8, -4, -4, -2, -19
1503523634476,-0.783,-0.543,-0.232,+0.196,+0.773,-0.585,-0.252,+1.625,-45.438,+12.375,-1, -4, -4, -3, -7, 3, 5, 6
1503523634498,-0.786,-0.537,-0.235,+0.196,+0.758,-0.590,-0.258,-0.750,-39.375,+14.375,-29, -40, -8, -15, -6, 2, -4, -6
1503523634520,-0.788,-0.533,-0.238,+0.197,+0.732,-0.573,-0.262,+1.375,-28.562,+17.062,-5, -12, -3, 11, -13, -5, -16, -6
1503523634542,-0.790,-0.529,-0.241,+0.197,+0.733,-0.546,-0.311,+8.938,-25.562,+14.812,-3, 0, -1, 9, -14, 2, -8, -3
1503523634556,-0.792,-0.524,-0.245,+0.196,+0.741,-0.577,-0.326,+12.312,-31.125,+8.125,-76, 7, 23, 2, 10, -4, 6, -28
1503523634579,-0.795,-0.519,-0.248,+0.194,+0.759,-0.618,-0.302,+12.000,-44.500,+5.750,6, -29, -16, -15, -20, -4, 2, 28
1503523634604,-0.798,-0.513,-0.252,+0.192,+0.742,-0.623,-0.299,+10.188,-42.438,+9.062,9, -72, -10, 13, 25, 9, -6, 2
1503523634617,-0.799,-0.509,-0.256,+0.192,+0.693,-0.610,-0.302,+11.375,-27.562,+11.438,37, -14, -9, 6, -6, -5, -4, 8
1503523634640,-0.800,-0.506,-0.260,+0.191,+0.714,-0.579,-0.325,+15.812,-22.500,+12.250,-25, -10, -4, -9, 14, 8, 17, 1
1503523634662,-0.802,-0.502,-0.264,+0.189,+0.738,-0.583,-0.344,+17.562,-28.375,+10.875,15, 26, -1, -11, -24, -4, 7, 13
1503523634677,-0.804,-0.498,-0.268,+0.187,+0.725,-0.602,-0.333,+17.625,-31.875,+7.750,-34, 8, 1, -26, -16, -3, -3, -6
1503523634699,-0.805,-0.494,-0.272,+0.185,+0.718,-0.608,-0.324,+19.688,-27.875,+8.250,36, 24, -15, 5, 5, -3, 5, -38
1503523634722,-0.805,-0.491,-0.277,+0.184,+0.722,-0.614,-0.327,+22.625,-23.000,+11.750,-21, 79, 64, 17, 13, -5, -9, -6
1503523634739,-0.805,-0.489,-0.282,+0.182,+0.728,-0.615,-0.339,+25.188,-20.812,+14.250,-17, -18, -21, 27, 13, 7, -20, -4
1503523634759,-0.806,-0.486,-0.287,+0.180,+0.714,-0.615,-0.335,+28.125,-23.000,+14.250,-18, 17, -3, -17, -14, -12, -11, -10
1503523634782,-0.806,-0.482,-0.293,+0.178,+0.695,-0.625,-0.341,+30.000,-26.625,+13.125,-8, -4, 3, -18, 27, 7, 8, -5
1503523634797,-0.806,-0.479,-0.299,+0.176,+0.684,-0.639,-0.336,+31.875,-25.438,+13.938,10, -32, -10, 0, 6, 9, 12, 35
1503523634819,-0.806,-0.476,-0.306,+0.174,+0.680,-0.651,-0.313,+32.000,-22.500,+15.062,-48, 12, -5, 0, -9, -5, -4, 19
1503523634842,-0.805,-0.474,-0.312,+0.172,+0.689,-0.650,-0.306,+33.125,-19.250,+16.625,44, -33, -8, -2, -3, 0, 2, 8
1503523634856,-0.804,-0.472,-0.319,+0.171,+0.690,-0.662,-0.316,+35.375,-18.438,+16.188,7, 5, -1, 2, -1, 1, 3, -13
1503523634880,-0.804,-0.469,-0.325,+0.169,+0.670,-0.676,-0.306,+35.000,-21.000,+15.250,-19, -5, -18, 4, -5, -1, -7, -12
1503523634902,-0.803,-0.467,-0.332,+0.167,+0.665,-0.685,-0.306,+34.688,-20.062,+16.812,8, -16, -8, 1, 2, 0, -4, -11
1503523634924,-0.802,-0.464,-0.339,+0.165,+0.648,-0.692,-0.294,+35.312,-18.375,+16.625,-1, -13, 1, 1, -2, -1, 3, 2
1503523634943,-0.800,-0.462,-0.345,+0.163,+0.656,-0.697,-0.282,+34.125,-17.500,+17.000,12, -1, 3, -1, 1, 1, -2, 2
1503523638142,-0.746,-0.547,-0.357,+0.129,+0.711,-0.671,-0.126,-4.500,-5.375,+8.875,-1, 5, 1, -1, 0, -1, 0, 0
1503523638158,-0.746,-0.546,-0.358,+0.130,+0.697,-0.686,-0.128,-1.875,-3.062,+6.875,-5, -8, -6, 0, -1, 2, -2, -1
1503523638180,-0.746,-0.545,-0.358,+0.131,+0.701,-0.683,-0.115,-1.500,-1.688,+3.375,-2, 0, -5, -2, 0, -1, -1, -2
1503523638203,-0.747,-0.545,-0.359,+0.130,+0.700,-0.675,-0.110,-0.062,-2.188,-1.438,-3, 5, -7, -2, 1, -2, -1, -4
1503523638218,-0.747,-0.545,-0.358,+0.129,+0.702,-0.685,-0.107,+1.562,-2.188,-7.125,0, -5, -2, -2, -3, -1, 0, 0
1503523638240,-0.747,-0.545,-0.358,+0.128,+0.712,-0.681,-0.110,+3.375,-2.000,-8.938,-5, 1, 1, 0, -2, 0, 1, -1
1503523638263,-0.747,-0.546,-0.358,+0.126,+0.726,-0.669,-0.117,+5.812,-0.312,-10.812,1, -5, -7, -2, 1, -4, 0, 0
1503523638278,-0.747,-0.547,-0.358,+0.124,+0.733,-0.654,-0.111,+6.125,+1.875,-10.312,4, 0, 1, 0, 3, -2, -3, 1
1503523638301,-0.746,-0.548,-0.358,+0.122,+0.767,-0.662,-0.093,+8.500,+0.125,-10.250,3, -8, -3, -2, -12, -1, -1, -3
1503523638322,-0.746,-0.549,-0.358,+0.120,+0.783,-0.673,-0.080,+7.562,+0.250,-9.625,-1, 18, 10, 5, 6, -1, -1, 1
1503523638338,-0.745,-0.550,-0.358,+0.118,+0.786,-0.669,-0.070,+5.312,-0.312,-5.688,1, -2, -20, -3, -3, 0, -1, 1
1503523638360,-0.745,-0.550,-0.358,+0.117,+0.782,-0.642,-0.080,+2.750,-1.000,-5.250,-2, -6, -3, -3, -5, -3, -2, -4
1503523638383,-0.745,-0.551,-0.358,+0.116,+0.759,-0.645,-0.096,+1.062,+1.188,-3.625,-2, -9, -4, 1, 2, -1, -2, -2
1503523638398,-0.745,-0.551,-0.358,+0.116,+0.763,-0.643,-0.107,+1.750,+2.688,-0.375,10, 7, 18, -1, -4, 2, -2, 0
1503523638420,-0.744,-0.552,-0.358,+0.115,+0.773,-0.659,-0.079,+2.500,+2.312,-0.312,-34, -7, 8, 3, 6, -1, 4, 0
1503523638442,-0.744,-0.552,-0.358,+0.115,+0.768,-0.665,-0.072,+1.000,+0.062,-1.562,-15, -6, -3, -5, 2, 0, 0, -2
1503523638458,-0.744,-0.552,-0.358,+0.114,+0.750,-0.665,-0.084,-2.000,-1.188,-3.938,-9, -4, -12, -3, 0, -1, 0, 0
1503523638480,-0.744,-0.553,-0.357,+0.114,+0.742,-0.663,-0.085,-2.062,-1.125,-5.938,20, -1, 0, 3, 6, -2, -4, 0
1503523638502,-0.744,-0.553,-0.357,+0.113,+0.716,-0.653,-0.097,-1.188,+2.375,-7.000,15, -4, 0, -9, 11, -2, -1, -1
1503523638518,-0.745,-0.554,-0.356,+0.112,+0.741,-0.669,-0.097,-0.750,+0.250,-8.000,-7, 8, 4, -7, 12, 3, 1, -2
1503523638540,-0.745,-0.554,-0.355,+0.111,+0.762,-0.667,-0.079,-1.188,+0.000,-8.438,-8, -3, 1, 6, 6, 0, 2, 2
1503523638564,-0.745,-0.555,-0.354,+0.110,+0.750,-0.654,-0.088,-1.750,-1.312,-11.125,23, 1, 4, -2, 2, 0, -1, 2
1503523638584,-0.745,-0.555,-0.353,+0.108,+0.766,-0.646,-0.076,-2.938,-0.875,-13.812,24, -3, -5, -3, 2, 0, 3, -1
1503523638601,-0.746,-0.556,-0.351,+0.107,+0.774,-0.625,-0.082,-3.625,+0.312,-15.875,-3, -26, -11, 5, -5, -2, 2, -1
1503523638622,-0.746,-0.558,-0.349,+0.105,+0.782,-0.638,-0.080,-5.125,+0.812,-15.562,-1, -9, 3, -2, -7, -7, -3, -3
1503523638644,-0.746,-0.559,-0.347,+0.104,+0.791,-0.636,-0.078,-6.312,+0.375,-15.000,-8, 4, 3, -4, 12, 2, 5, 1
1503523638660,-0.747,-0.559,-0.344,+0.103,+0.815,-0.653,-0.058,-11.875,-2.938,-13.812,-12, 6, -5, -2, 8, 0, -2, -3
1503523638682,-0.748,-0.560,-0.342,+0.102,+0.847,-0.645,-0.056,-13.312,-3.688,-10.188,0, 5, -2, 7, -2, -3, 2, 2
1503523638708,-0.749,-0.560,-0.339,+0.102,+0.840,-0.597,-0.062,-15.312,-3.375,-7.125,9, -3, 1, -4, -10, 0, 1, 2
1503523638720,-0.750,-0.560,-0.336,+0.102,+0.860,-0.591,-0.071,-16.125,-1.562,-6.000,6, 0, -1, 2, 18, 2, 2, -2
1503523638742,-0.752,-0.560,-0.334,+0.102,+0.866,-0.579,-0.075,-16.188,-8.938,-2.562,0, -4, -6, -9, -28, -8, -3, -1
1503523638767,-0.755,-0.558,-0.331,+0.101,+0.831,-0.608,-0.089,-21.000,-21.812,-6.188,-14, 5, -6, -6, -6, -1, -1, 1
1503523638781,-0.759,-0.554,-0.327,+0.102,+0.784,-0.639,-0.088,-29.188,-28.125,-6.938,-7, -7, -5, -3, 2, 0, 0, -2
1503523638803,-0.762,-0.551,-0.324,+0.104,+0.749,-0.636,-0.092,-36.438,-23.438,-2.250,-9, 4, 8, 2, -3, -1, -10, -4
1503523638824,-0.765,-0.549,-0.319,+0.108,+0.730,-0.645,-0.108,-41.875,-10.500,+0.938,-4, 1, 4, -3, 1, 0, 8, 0
1503523638842,-0.767,-0.548,-0.314,+0.112,+0.767,-0.647,-0.127,-45.312,+0.500,+3.438,-5, 1, -2, 8, 6, 2, 2, 1
1503523638862,-0.769,-0.547,-0.309,+0.117,+0.803,-0.621,-0.179,-42.625,+1.875,+4.688,2, -9, 2, 1, 5, 2, 3, 5
1503523638884,-0.772,-0.545,-0.304,+0.121,+0.796,-0.614,-0.193,-44.688,-5.188,+2.250,-31, -18, -11, -7, -5, -3, -1, -2
1503523638902,-0.775,-0.543,-0.298,+0.125,+0.790,-0.599,-0.189,-45.812,-11.188,+1.562,24, 3, 4, 0, -3, -1, 0, 2
1503523638922,-0.779,-0.540,-0.292,+0.128,+0.794,-0.579,-0.186,-43.062,-13.938,-2.625,1, -28, -23, -3, -2, 1, -1, -3
1503523638944,-0.782,-0.538,-0.287,+0.130,+0.777,-0.565,-0.222,-41.375,-14.688,-6.562,0, 6, 13, 5, 0, -2, -3, 1
1503523638960,-0.786,-0.535,-0.281,+0.131,+0.752,-0.547,-0.254,-39.625,-15.000,-8.750,-3, -9, -15, -4, -4, -4, -1, 0
1503523638982,-0.789,-0.533,-0.275,+0.133,+0.767,-0.553,-0.259,-37.188,-12.438,-7.062,-2, 0, -2, 4, 1, -2, -2, -3
1503523639005,-0.792,-0.531,-0.270,+0.135,+0.792,-0.546,-0.275,-33.188,-7.438,-6.312,-3, 2, -3, -5, -3, -1, -1, -2
1503523639020,-0.794,-0.530,-0.265,+0.135,+0.800,-0.545,-0.291,-29.125,-7.438,-8.812,1, 5, -1, -5, -12, -2, -8, -6
1503523639043,-0.797,-0.527,-0.261,+0.135,+0.792,-0.538,-0.304,-24.875,-17.625,-11.375,2, -3, -14, -3, -1, 6, 2, 2
1503523639065,-0.801,-0.524,-0.257,+0.134,+0.795,-0.525,-0.298,-22.938,-24.000,-13.188,-3, 5, 7, 3, 3, -2, 0, 1
1503523639080,-0.805,-0.520,-0.254,+0.133,+0.782,-0.527,-0.319,-19.188,-24.500,-12.188,-3, -5, -12, -1, 1, -4, -5, 3
1503523639103,-0.807,-0.518,-0.251,+0.132,+0.779,-0.521,-0.312,-15.875,-19.375,-9.875,-1, 19, 18, 1, -3, -3, 0, 0
1503523639125,-0.810,-0.515,-0.249,+0.131,+0.797,-0.525,-0.316,-12.250,-16.688,-9.000,-7, -9, -10, -4, 11, 0, -1, -2
1503523639140,-0.812,-0.513,-0.247,+0.130,+0.809,-0.521,-0.330,-9.438,-18.375,-6.688,-3, -2, 2, 0, -2, 3, 0, 1
1503523639163,-0.814,-0.510,-0.246,+0.129,+0.816,-0.516,-0.336,-8.812,-20.438,-4.188,11, -4, 0, -3, -3, -1, -3, -7
1503523639184,-0.816,-0.507,-0.245,+0.127,+0.828,-0.506,-0.328,-5.688,-21.500,-2.812,0, -16, 4, -4, -9, -6, -18, 1
1503523639202,-0.818,-0.504,-0.245,+0.126,+0.793,-0.491,-0.358,-2.062,-21.375,-1.500,-6, -11, -1, 6, 4, -3, 8, 2
1503523639223,-0.820,-0.502,-0.245,+0.125,+0.782,-0.490,-0.358,+1.562,-20.000,-1.250,-53, 2, -1, 0, 5, 0, 3, -5
1503523639245,-0.822,-0.499,-0.246,+0.123,+0.803,-0.509,-0.354,+3.188,-20.625,-0.375,21, 6, 0, -7, -7, 0, -3, 0
1503523639260,-0.823,-0.496,-0.247,+0.122,+0.812,-0.523,-0.368,+3.438,-18.750,+4.125,10, -5, 2, -4, -29, -4, -1, -1
1503523639282,-0.824,-0.494,-0.248,+0.122,+0.782,-0.513,-0.368,+6.312,-14.812,+7.688,4, 4, 4, 1, -4, 2, -2, 1
1503523639307,-0.825,-0.491,-0.251,+0.121,+0.769,-0.502,-0.382,+10.375,-16.312,+7.688,-4, 4, 7, 2, 3, -1, -10, -4
1503523639320,-0.826,-0.488,-0.253,+0.120,+0.779,-0.521,-0.364,+12.438,-20.750,+7.750,-6, -4, -12, 1, 0, -1, 4, 1
1503523639343,-0.827,-0.485,-0.256,+0.119,+0.781,-0.540,-0.367,+14.562,-21.812,+8.312,-9, -7, 26, 2, -1, 2, -1, -7
1503523639365,-0.828,-0.483,-0.260,+0.119,+0.760,-0.543,-0.374,+15.062,-17.562,+10.562,-5, 0, -3, -10, 3, 0, 1, 4
1503523639382,-0.828,-0.481,-0.263,+0.119,+0.749,-0.531,-0.373,+16.000,-11.312,+14.250,14, 5, -4, 2, -42, -6, 3, 1
1503523639404,-0.828,-0.479,-0.267,+0.118,+0.751,-0.519,-0.376,+19.500,-9.062,+14.875,4, -3, 4, -14, -10, 1, 1, 2
1503523639424,-0.827,-0.477,-0.272,+0.118,+0.760,-0.544,-0.358,+21.438,-12.125,+14.500,-11, -6, -8, 4, 7, 5, 6, -3
1503523639445,-0.827,-0.475,-0.276,+0.117,+0.768,-0.568,-0.359,+22.312,-13.188,+14.500,8, -3, -5, -12, 1, -3, -15, -2
1503523639463,-0.827,-0.473,-0.281,+0.117,+0.748,-0.576,-0.362,+24.062,-12.125,+15.562,12, -2, 6, -1, -5, -8, 5, -5
1503523639484,-0.826,-0.471,-0.286,+0.116,+0.736,-0.568,-0.361,+24.938,-13.188,+15.500,16, 1, -2, -10, -29, -1, 6, 4
1503523639500,-0.826,-0.469,-0.291,+0.115,+0.744,-0.570,-0.348,+26.500,-14.625,+16.062,-4, -4, -3, -6, 14, 0, -6, 2
1503523639523,-0.825,-0.467,-0.297,+0.114,+0.731,-0.595,-0.349,+28.188,-14.500,+16.188,-22, 1, 1, 5, -17, -7, 4, 2
1503523639545,-0.824,-0.465,-0.302,+0.113,+0.724,-0.603,-0.346,+28.938,-14.500,+16.000,5, -5, -6, -3, 2, 2, -5, -3
1503523639560,-0.824,-0.463,-0.308,+0.113,+0.696,-0.591,-0.344,+28.125,-10.188,+16.250,8, -7, -1, 3, 5, -2, -4, -1
1503523639583,-0.822,-0.462,-0.314,+0.112,+0.719,-0.609,-0.334,+29.688,-7.875,+18.000,-1, 3, 0, -7, 12, 3, 8, 1
1503523639606,-0.821,-0.460,-0.319,+0.112,+0.724,-0.629,-0.324,+29.750,-10.000,+17.875,4, -1, -5, -21, -17, -1, -22, -2
1503523639620,-0.820,-0.458,-0.325,+0.111,+0.712,-0.629,-0.339,+30.812,-11.688,+17.688,2, -3, -2, -20, -1, -1, -16, -2
1503523643106,-0.757,-0.583,-0.294,-0.004,+0.907,-0.430,-0.099,-0.812,+3.125,-4.125,19, -6, -8, -1, 0, -1, -2, -1
1503523643122,-0.756,-0.584,-0.294,-0.005,+0.914,-0.430,-0.110,+0.562,+5.562,-2.688,3, -3, -4, -2, -1, -1, 0, 2
1503523643144,-0.756,-0.585,-0.294,-0.005,+0.910,-0.429,-0.107,+0.062,+4.375,-1.625,-6, 5, 0, 0, -1, -2, -1, -1
1503523643167,-0.756,-0.585,-0.294,-0.005,+0.905,-0.443,-0.112,-1.062,-0.250,-2.812,1, 4, 9, 1, 2, 0, -1, 0
1503523643182,-0.757,-0.585,-0.293,-0.006,+0.899,-0.437,-0.104,-2.312,-3.438,-4.062,6, -5, -10, -1, 0, 0, -1, -1
1503523643205,-0.757,-0.585,-0.292,-0.007,+0.898,-0.420,-0.090,-2.625,-3.688,-4.375,-12, -7, -9, -4, -2, -1, 1, -2
1503523643226,-0.757,-0.585,-0.292,-0.007,+0.897,-0.422,-0.095,-1.875,-1.375,-5.688,6, -6, -9, 2, -2, -1, -1, 0
1503523643242,-0.757,-0.585,-0.291,-0.008,+0.900,-0.431,-0.097,-1.188,+2.312,-4.750,-27, -5, -4, -1, -3, 1, -1, -2
1503523643264,-0.756,-0.586,-0.291,-0.008,+0.909,-0.429,-0.100,-1.938,+3.438,-3.250,8, 1, -5, -1, -2, -1, 1, 0
1503523643286,-0.756,-0.586,-0.290,-0.008,+0.922,-0.438,-0.098,-2.000,+2.062,-3.938,0, -1, -3, 2, 2, -2, -2, -1
1503523643302,-0.756,-0.587,-0.290,-0.009,+0.914,-0.430,-0.091,-2.938,-0.875,-4.375,5, 0, -8, -3, 0, -1, -2, -3
1503523643324,-0.757,-0.587,-0.289,-0.009,+0.912,-0.425,-0.097,-4.125,-2.312,-4.750,-6, -2, 3, -3, 1, -1, 2, -3
1503523643347,-0.757,-0.587,-0.288,-0.009,+0.899,-0.418,-0.088,-5.375,-1.625,-4.812,5, -3, -5, 0, -2, -2, -1, -1
1503523643365,-0.757,-0.587,-0.287,-0.010,+0.896,-0.417,-0.101,-4.875,+0.312,-4.562,-2, 1, 0, 0, 3, 3, -1, -2
1503523643384,-0.757,-0.588,-0.286,-0.010,+0.911,-0.421,-0.092,-5.062,+2.500,-4.125,-5, -4, -4, 0, -2, 1, 1, 3
1503523643407,-0.757,-0.589,-0.285,-0.010,+0.917,-0.418,-0.098,-5.938,+3.000,-5.812,-22, 8, 22, 4, 1, -2, -2, -2
1503523643422,-0.757,-0.589,-0.283,-0.010,+0.922,-0.406,-0.091,-6.312,+0.500,-5.750,5, -7, -17, -3, 1, -1, 0, 1
1503523643444,-0.757,-0.589,-0.282,-0.010,+0.917,-0.393,-0.100,-7.875,-2.062,-6.062,-7, -6, -3, -2, -3, 0, -2, 0
1503523643466,-0.758,-0.590,-0.280,-0.011,+0.911,-0.397,-0.102,-6.312,+0.438,-5.250,-10, -6, -3, 0, -2, -1, -2, -2
1503523643482,-0.757,-0.590,-0.279,-0.011,+0.911,-0.397,-0.102,-4.312,+3.688,-5.062,10, 3, -1, 2, 0, 0, 1, 2
1503523643505,-0.757,-0.591,-0.278,-0.011,+0.902,-0.404,-0.115,-3.250,+5.125,-5.750,0, 11, 14, -4, -2, 0, -1, -2
1503523643526,-0.757,-0.592,-0.277,-0.012,+0.876,-0.390,-0.137,-3.062,+3.250,-7.250,6, -7, -8, -2, -4, -2, -2, -2
1503523643544,-0.757,-0.592,-0.276,-0.013,+0.941,-0.415,-0.099,-2.125,-0.250,-8.125,-15, 7, 6, 1, 1, -2, -1, -1
1503523643567,-0.758,-0.592,-0.276,-0.013,+0.971,-0.441,-0.116,-3.312,-3.062,-1.625,8, -5, -12, -3, -1, 0, 0, -1
1503523643586,-0.758,-0.592,-0.275,-0.013,+0.945,-0.420,-0.062,-6.812,-4.375,-2.375,25, -8, -7, -2, -1, -4, -1, 0
1503523643602,-0.758,-0.592,-0.274,-0.012,+0.914,-0.399,-0.060,-10.438,-4.250,-3.688,-10, 2, -4, -1, -1, 0, -2, -1
1503523643624,-0.759,-0.591,-0.272,-0.013,+0.904,-0.395,-0.122,-9.500,-6.312,-7.312,4, -12, -11, -2, 1, 0, 0, 0
1503523643647,-0.760,-0.592,-0.269,-0.011,+0.830,-0.383,-0.020,-23.625,+1.938,-4.562,7, 3, 5, 4, -1, 0, 0, 2
1503523643663,-0.766,-0.584,-0.268,-0.013,+0.862,-0.410,-0.258,-1.750,-53.812,-5.562,-11, -4, 2, 1, 0, -1, 0, -1
1503523643685,-0.763,-0.589,-0.264,-0.016,+0.912,-0.413,+0.015,-10.250,+19.875,-32.875,1, -2, -1, 1, 0, 1, -2, 0
1503523643707,-0.763,-0.591,-0.260,-0.016,+0.962,-0.390,-0.057,-21.875,+2.250,-20.562,-2, -10, -3, -3, -1, -1, -2, 0
1503523643722,-0.765,-0.592,-0.255,-0.016,+0.935,-0.355,-0.133,-27.625,-2.250,-14.062,1, -17, -9, -4, -4, -2, -2, -3
1503523643745,-0.766,-0.593,-0.250,-0.015,+0.981,-0.329,-0.128,-24.562,+0.250,-14.125,-1, 10, -4, -4, -1, 1, 0, -2
1503523643768,-0.768,-0.592,-0.245,-0.015,+0.950,-0.343,-0.131,-25.938,-10.062,-11.688,-3, 0, -6, -2, -4, -2, 0, -1
1503523643782,-0.770,-0.591,-0.240,-0.015,+0.954,-0.348,-0.147,-28.938,-16.312,-15.000,7, 9, 6, 1, 3, -1, -2, -1
1503523643807,-0.773,-0.589,-0.234,-0.015,+0.906,-0.329,-0.144,-31.000,-17.500,-17.062,-13, 7, -2, -2, -1, -2, 1, 0
1503523643827,-0.776,-0.588,-0.229,-0.014,+0.929,-0.330,-0.142,-30.250,-12.188,-14.312,-6, 0, -5, -2, -3, 2, -1, 1
1503523643843,-0.778,-0.587,-0.223,-0.014,+0.955,-0.331,-0.173,-30.250,-10.750,-12.875,3, -1, 5, 0, 1, 0, -2, 0
1503523643865,-0.780,-0.586,-0.218,-0.013,+0.955,-0.333,-0.172,-31.938,-12.562,-13.188,-20, -7, 3, -1, -2, -2, -2, -4
1503523643887,-0.783,-0.585,-0.212,-0.012,+0.962,-0.305,-0.169,-34.500,-17.750,-12.375,12, 14, 5, 2, -1, 0, 3, -1
1503523643903,-0.786,-0.582,-0.207,-0.011,+0.953,-0.297,-0.182,-31.500,-23.438,-12.250,13, -7, -5, -1, 2, -2, -2, -4
1503523643925,-0.789,-0.580,-0.201,-0.011,+0.929,-0.283,-0.193,-31.500,-21.750,-12.438,-1, -14, 8, 4, -1, 0, -1, 2
1503523643947,-0.792,-0.578,-0.196,-0.010,+0.916,-0.274,-0.221,-31.062,-16.375,-9.125,4, 4, -6, -1, -3, -2, 0, -3
1503523643962,-0.794,-0.577,-0.191,-0.009,+0.942,-0.272,-0.235,-28.688,-9.812,-7.125,-8, 4, 1, -3, -1, 0, 0, -1
1503523643985,-0.796,-0.576,-0.187,-0.007,+0.967,-0.287,-0.227,-27.375,-12.750,-5.312,-5, -5, -5, 1, 1, -1, -1, 2
1503523644007,-0.799,-0.573,-0.183,-0.006,+0.963,-0.285,-0.239,-27.812,-18.438,-6.000,9, 0, 1, -1, -4, -1, 0, -1
1503523644022,-0.801,-0.571,-0.178,-0.005,+0.938,-0.251,-0.255,-27.562,-18.062,-5.500,4, 8, 6, 0, -1, -1, 0, 16
1503523644045,-0.804,-0.569,-0.174,-0.005,+0.922,-0.230,-0.268,-21.125,-16.438,-5.938,-1, -11, -9, 1, -3, -1, -2, -1
1503523644067,-0.806,-0.566,-0.171,-0.005,+0.926,-0.248,-0.271,-18.000,-18.875,-4.625,-31, -2, 0, -2, 1, -2, -3, -17
1503523644083,-0.809,-0.564,-0.169,-0.004,+0.938,-0.269,-0.266,-18.125,-19.750,-3.938,4, 9, 4, -2, 0, 0, 0, -1
1503523644106,-0.811,-0.562,-0.166,-0.003,+0.925,-0.258,-0.267,-18.500,-17.250,-4.125,7, -10, -7, -3, -1, -1, -1, -1
1503523644127,-0.812,-0.560,-0.163,-0.003,+0.937,-0.247,-0.272,-16.500,-14.750,-2.750,9, -3, -4, 1, -1, -2, 0, 4
1503523644149,-0.814,-0.558,-0.161,-0.002,+0.946,-0.227,-0.296,-14.875,-12.375,-1.125,-5, -1, -1, -1, -2, -1, -2, -1
1503523644165,-0.816,-0.556,-0.159,-0.002,+0.954,-0.233,-0.303,-11.188,-15.750,+0.500,-2, -12, 3, -1, -1, 0, -3, -1
1503523644187,-0.818,-0.553,-0.158,-0.002,+0.967,-0.241,-0.301,-9.375,-20.125,+2.000,-3, 7, 3, 0, -2, 0, -1, -3
1503523644210,-0.820,-0.550,-0.157,-0.002,+0.959,-0.250,-0.306,-6.375,-24.438,+3.625,-5, -6, -6, -2, -3, 0, 1, 2
1503523644225,-0.823,-0.546,-0.157,-0.001,+0.928,-0.241,-0.318,-6.250,-26.312,+6.312,5, 8, 9, -3, 1, 2, 3, 0
1503523644247,-0.825,-0.543,-0.157,-0.000,+0.894,-0.234,-0.333,-3.938,-19.812,+8.938,-5, 1, 0, 1, 2, -1, -4, -4
1503523644270,-0.826,-0.540,-0.158,+0.001,+0.901,-0.232,-0.354,-0.125,-13.562,+11.250,1, 0, -1, -1, 1, -1, -1, 0
1503523644292,-0.828,-0.538,-0.159,+0.002,+0.945,-0.238,-0.352,+2.188,-13.375,+13.250,-7, -8, -8, 2, -1, -2, 0, 6
1503523644311,-0.829,-0.535,-0.161,+0.003,+0.956,-0.250,-0.352,+4.500,-17.188,+14.750,8, 4, -1, -2, 3, 1, 1, 3
1503523644329,-0.831,-0.532,-0.163,+0.003,+0.941,-0.252,-0.351,+6.125,-20.688,+17.125,-2, 8, 6, -1, 0, 0, 0, 3
1503523644346,-0.833,-0.528,-0.166,+0.005,+0.920,-0.253,-0.356,+8.875,-22.875,+20.188,3, 0, 2, -1, -7, -4, -2, 0
1503523644367,-0.834,-0.525,-0.170,+0.006,+0.912,-0.259,-0.352,+12.125,-24.062,+22.000,2, -16, -12, -3, -2, -2, 0, 0
1503523644389,-0.836,-0.520,-0.174,+0.006,+0.898,-0.257,-0.389,+16.562,-23.625,+24.062,3, -4, -2, -2, -2, 2, -2, 2
1503523644407,-0.838,-0.516,-0.179,+0.007,+0.900,-0.267,-0.380,+20.000,-22.938,+25.500,-23, -17, -8, -2, -2, -2, -6, -9
1503523644427,-0.839,-0.513,-0.184,+0.008,+0.899,-0.289,-0.381,+21.812,-21.000,+28.188,10, 1, -5, -4, 2, -3, 2, 5
1503523644449,-0.840,-0.509,-0.190,+0.010,+0.878,-0.301,-0.375,+23.875,-18.562,+31.062,4, 1, 2, 1, -2, 1, 2, 1
1503523644465,-0.840,-0.506,-0.196,+0.011,+0.870,-0.323,-0.377,+25.062,-17.188,+32.250,-2, -6, -4, -1, 3, 0, -1, 4
1503523644487,-0.841,-0.502,-0.203,+0.013,+0.860,-0.326,-0.403,+28.562,-14.250,+33.688,-2, 10, 1, -4, -5, -3, 1, -1
1503523648011,-0.764,-0.612,-0.202,-0.024,+0.949,-0.278,-0.128,-13.312,-15.125,+6.000,3, 2, 0, -6, -3, 10, 31, 0
1503523648027,-0.766,-0.610,-0.201,-0.022,+0.918,-0.267,-0.142,-13.562,-10.875,+5.188,6, -3, -3, -5, -7, -55, -34, -19
1503523648048,-0.767,-0.609,-0.200,-0.021,+0.890,-0.264,-0.154,-10.500,-2.125,+5.250,-88, -3, -2, 0, 4, 14, 18, 3
1503523648072,-0.767,-0.609,-0.200,-0.019,+0.918,-0.270,-0.149,-7.875,+2.125,+5.875,10, -8, -4, -2, -6, 4, 2, 12
1503523648087,-0.767,-0.609,-0.199,-0.018,+0.970,-0.289,-0.139,-7.312,+1.625,+5.125,13, -15, -2, 1, 2, -3, -11, -1
1503523648109,-0.767,-0.610,-0.199,-0.017,+0.981,-0.291,-0.135,-7.562,+1.625,+3.000,18, 1, 2, -2, -5, -1, -9, -1
1503523648132,-0.768,-0.609,-0.198,-0.016,+0.979,-0.274,-0.154,-6.562,-3.750,+1.875,5, -2, -1, -3, 4, 10, 0, 3
1503523648146,-0.769,-0.608,-0.197,-0.016,+0.943,-0.274,-0.158,-6.312,-8.500,+1.438,17, -3, 2, -2, -4, -2, -17, -13
1503523648169,-0.770,-0.607,-0.197,-0.015,+0.923,-0.275,-0.136,-5.562,-8.000,+1.250,35, -11, -6, -4, 0, 2, -1, -12
1503523648191,-0.771,-0.606,-0.197,-0.015,+0.938,-0.281,-0.121,-5.250,-4.875,+1.812,-56, -19, -1, -1, -2, -1, 1, 1
1503523648207,-0.770,-0.607,-0.196,-0.013,+0.944,-0.285,-0.125,-8.188,+2.938,+2.875,10, 13, 2, 4, -2, 0, 6, 2
1503523648228,-0.770,-0.608,-0.195,-0.012,+0.946,-0.271,-0.134,-10.500,+10.875,+3.625,-2, 2, -2, 8, -14, -34, -16, -3
1503523648251,-0.769,-0.609,-0.194,-0.010,+0.962,-0.254,-0.151,-9.062,+10.938,+4.250,17, 10, 2, 1, 7, -9, -10, 4
1503523648267,-0.769,-0.610,-0.193,-0.009,+0.986,-0.261,-0.149,-6.562,+1.812,+3.188,29, -10, -2, -1, 0, 11, 8, -2
1503523648289,-0.769,-0.609,-0.193,-0.009,+0.974,-0.279,-0.140,-7.250,-2.438,+3.438,-1, 4, 0, -4, -12, 4, -3, 5
1503523648311,-0.770,-0.609,-0.193,-0.008,+0.959,-0.275,-0.137,-6.250,-1.750,+4.188,1, 10, 1, 2, 7, -5, 2, 0
1503523648327,-0.770,-0.609,-0.193,-0.007,+0.937,-0.289,-0.160,-4.562,-0.125,+4.812,16, -6, -2, -4, 2, 8, 9, -17
1503523648349,-0.770,-0.608,-0.193,-0.006,+0.913,-0.282,-0.154,-4.125,-0.125,+4.188,56, 34, -8, 0, 6, 11, 0, 2
1503523648376,-0.770,-0.608,-0.193,-0.006,+0.917,-0.271,-0.152,-0.688,+1.312,+1.500,-59, -39, -21, -6, 1, 3, 4, 5
1503523648387,-0.770,-0.609,-0.193,-0.006,+0.948,-0.289,-0.148,+1.125,+3.000,-0.062,13, -18, -19, -6, -1, 1, -5, -1
1503523648409,-0.769,-0.609,-0.193,-0.006,+0.970,-0.295,-0.136,+0.812,+3.125,-0.438,-31, -20, 10, 1, 2, 1, -6, -16
1503523648434,-0.769,-0.609,-0.193,-0.006,+0.976,-0.306,-0.131,+0.688,+1.312,-0.375,15, 1, -5, -3, -1, 2, 1, -2
1503523648447,-0.769,-0.609,-0.193,-0.006,+0.958,-0.306,-0.127,-1.125,-1.312,-0.312,-17, 21, 3, -1, 11, 2, -2, 0
1503523648471,-0.769,-0.609,-0.193,-0.006,+0.949,-0.285,-0.120,-1.562,-0.938,+0.188,-4, 11, 2, 0, -4, -1, 0, 3
1503523648491,-0.769,-0.610,-0.193,-0.006,+0.983,-0.274,-0.118,-0.188,-0.375,-0.625,-13, 46, 1, -2, -3, -11, -3, 1
1503523648508,-0.769,-0.609,-0.193,-0.007,+1.005,-0.279,-0.120,-1.000,-5.125,+0.125,9, -1, 3, 6, -9, -4, -5, 11
1503523648529,-0.770,-0.608,-0.193,-0.007,+0.981,-0.286,-0.132,-1.688,-12.875,-0.375,31, 20, -1, -9, 8, -1, -2, -15
1503523648551,-0.772,-0.606,-0.193,-0.007,+0.956,-0.285,-0.105,-4.688,-16.438,+2.625,4, -5, -3, -1, 2, 7, 9, -2
1503523648568,-0.773,-0.605,-0.193,-0.007,+0.961,-0.288,-0.130,-3.062,-11.625,+1.812,1, -12, -3, 10, -15, -6, -3, -5
1503523648589,-0.774,-0.603,-0.193,-0.007,+0.921,-0.276,-0.163,-3.750,-7.812,+1.125,-6, -9, -6, -4, -1, 9, -13, 3
1503523648611,-0.775,-0.602,-0.192,-0.007,+0.928,-0.276,-0.158,-5.000,-10.875,-0.125,-35, 1, 24, 0, -2, -5, 2, -1
1503523648627,-0.777,-0.600,-0.191,-0.007,+0.966,-0.277,-0.148,-4.750,-14.438,-0.750,-3, -19, -8, 7, 12, -4, 7, 4
1503523648649,-0.778,-0.599,-0.191,-0.007,+0.963,-0.291,-0.152,-4.312,-13.062,-0.188,-10, -9, -1, 3, -1, 1, 3, 3
1503523648672,-0.779,-0.597,-0.190,-0.007,+0.938,-0.297,-0.181,-6.250,-12.125,-0.750,6, 13, -7, -1, 19, -33, -15, -2
1503523648687,-0.781,-0.595,-0.189,-0.007,+0.940,-0.286,-0.178,-6.438,-14.188,-0.062,11, -15, -7, -5, -6, 16, -3, -5
1503523648710,-0.783,-0.593,-0.189,-0.007,+0.942,-0.287,-0.186,-5.812,-15.750,-0.875,0, 18, 3, 6, 7, -12, 2, -1
1503523648731,-0.784,-0.591,-0.188,-0.007,+0.937,-0.288,-0.192,-6.938,-13.188,-1.938,-7, 13, 2, 1, 3, 7, -7, 11
1503523648747,-0.786,-0.590,-0.187,-0.008,+0.952,-0.265,-0.179,-5.938,-11.812,-1.750,-25, -23, -10, -9, 16, -24, -7, -2
1503523648770,-0.787,-0.588,-0.186,-0.008,+0.960,-0.268,-0.196,-5.438,-13.125,-1.312,17, -17, -4, -10, -3, 3, -15, 2
1503523648791,-0.789,-0.586,-0.185,-0.008,+0.924,-0.276,-0.199,-5.938,-13.750,-1.812,22, 6, 0, 1, -3, 19, 50, 1
1503523648808,-0.790,-0.585,-0.184,-0.008,+0.927,-0.275,-0.194,-7.500,-12.625,-1.812,-5, -9, 1, 0, -18, 7, 6, 8
1503523648829,-0.791,-0.584,-0.182,-0.008,+0.928,-0.256,-0.198,-7.438,-6.750,-1.562,11, 23, -7, -1, -2, -8, -5, 0
1503523648851,-0.792,-0.584,-0.182,-0.008,+0.954,-0.262,-0.219,-4.625,-5.250,-2.000,-3, -21, -7, -8, 6, 3, -10, -1
1503523648870,-0.793,-0.582,-0.181,-0.009,+0.947,-0.270,-0.230,-4.000,-10.188,-3.562,-8, 20, 2, -18, 4, -1, -21, 0
1503523648890,-0.794,-0.580,-0.180,-0.010,+0.945,-0.266,-0.220,-3.688,-16.438,-5.312,1, -8, 1, -5, -7, -28, 10, -12
1503523648912,-0.796,-0.579,-0.179,-0.011,+0.939,-0.269,-0.214,-3.812,-13.500,-4.688,0, 13, 2, -8, -9, -2, -4, 7
1503523648927,-0.797,-0.578,-0.178,-0.011,+0.936,-0.261,-0.220,-4.500,-8.438,-2.438,-7, -13, -1, 2, 2, 4, 14, 0
1503523648949,-0.797,-0.577,-0.177,-0.011,+0.935,-0.257,-0.229,-4.750,-6.938,-1.062,0, 2, -3, -3, 10, -2, -1, 6
1503523648971,-0.798,-0.576,-0.177,-0.011,+0.938,-0.257,-0.226,-3.688,-8.312,-1.375,-6, 8, 37, 12, 4, 0, -9, -21
1503523648987,-0.799,-0.575,-0.176,-0.012,+0.946,-0.254,-0.240,-1.250,-6.438,-0.500,-31, 12, -20, -6, 1, 4, 2, 7
1503523649009,-0.800,-0.574,-0.176,-0.012,+0.965,-0.260,-0.244,-1.500,-8.625,-0.938,-20, -30, -15, -2, -6, 2, 3, -1
1503523649031,-0.801,-0.572,-0.176,-0.012,+0.957,-0.255,-0.239,-2.812,-11.625,-0.062,-11, 26, 18, 4, 1, 1, 2, -6
1503523649047,-0.802,-0.571,-0.176,-0.013,+0.932,-0.266,-0.234,-2.000,-12.938,+0.312,4, -21, -3, 0, -3, 11, -2, -11
1503523649072,-0.803,-0.569,-0.175,-0.013,+0.928,-0.268,-0.242,-2.750,-11.625,+1.312,10, -1, 7, 0, -2, -1, 5, 8
1503523649091,-0.804,-0.568,-0.175,-0.013,+0.906,-0.256,-0.263,-3.688,-6.375,+1.625,5, -66, -14, -3, -1, -2, -10, -21
1503523649107,-0.805,-0.568,-0.175,-0.012,+0.922,-0.251,-0.256,-2.000,-2.438,+1.812,14, 35, -5, -4, -1, -2, -6, -12
1503523649129,-0.805,-0.567,-0.175,-0.013,+0.971,-0.249,-0.242,-1.812,-6.125,+1.250,21, 19, 1, 0, -2, -4, -2, 10
1503523649151,-0.806,-0.565,-0.175,-0.013,+0.952,-0.249,-0.256,-0.312,-12.438,-1.750,25, 17, 1, -1, -2, 9, 0, 1
1503523649167,-0.808,-0.563,-0.174,-0.014,+0.919,-0.263,-0.261,-0.312,-16.500,-2.875,10, -25, -10, -1, -1, 2, 6, 12
1503523649189,-0.809,-0.561,-0.174,-0.015,+0.910,-0.274,-0.261,-1.438,-14.625,-2.875,28, 9, 2, 0, 0, -2, -2, -25
1503523649211,-0.810,-0.560,-0.174,-0.015,+0.902,-0.277,-0.270,-2.125,-8.875,-2.938,-16, -2, -3, -1, 0, -2, -6, 1
1503523649227,-0.811,-0.559,-0.173,-0.016,+0.924,-0.255,-0.268,-1.875,-5.875,-1.375,5, -35, -5, -3, 0, 1, 4, -7
1503523649250,-0.811,-0.558,-0.173,-0.016,+0.968,-0.254,-0.273,-1.438,-9.938,-0.875,-15, -8, -9, -2, -2, -9, -4, 5
1503523649273,-0.813,-0.556,-0.173,-0.017,+0.940,-0.256,-0.268,-1.875,-14.000,-2.750,-9, 21, 7, 0, -2, 2, -1, 11
1503523649287,-0.814,-0.554,-0.172,-0.018,+0.920,-0.251,-0.271,-1.562,-16.438,-3.125,-24, 3, -4, -2, 1, 0, -3, -6
1503523649310,-0.815,-0.553,-0.172,-0.019,+0.908,-0.259,-0.280,-1.188,-13.125,-2.375,-34, 12, 4, 0, 1, -2, -2, 0
1503523649331,-0.816,-0.551,-0.172,-0.020,+0.920,-0.244,-0.296,-0.938,-10.938,-2.125,13, 21, -1, -2, -2, -3, -1, 8
1503523649347,-0.817,-0.550,-0.171,-0.020,+0.923,-0.237,-0.291,+0.312,-9.750,-1.562,21, -25, -8, -1, -1, 1, 8, -35
1503523649369,-0.818,-0.548,-0.171,-0.021,+0.941,-0.235,-0.292,-0.125,-12.688,-1.562,-21, 24, 21, 1, 0, 1, -1, 22
1503523649391,-0.819,-0.547,-0.171,-0.021,+0.931,-0.252,-0.306,-0.250,-9.125,+0.625,-3, -7, -9, 0, 1, 3, 1, 5
1503523649410,-0.820,-0.546,-0.172,-0.022,+0.930,-0.253,-0.303,+0.375,-6.812,+2.375,11, 32, -3, 0, 0, -3, -3, 5
1503523649430,-0.821,-0.545,-0.172,-0.022,+0.939,-0.243,-0.323,+0.062,-8.938,+3.625,-6, -28, 17, 0, -1, 0, -4, -1
1503523649452,-0.822,-0.543,-0.172,-0.022,+0.924,-0.234,-0.330,+2.625,-11.062,+4.812,-38, 8, -7, -1, 0, -4, 2, -2
1503523649467,-0.823,-0.541,-0.173,-0.022,+0.924,-0.244,-0.318,+3.375,-13.000,+5.812,0, -47, -5, -4, -1, -4, 5, 22
1503523649489,-0.824,-0.539,-0.174,-0.022,+0.923,-0.252,-0.312,+3.875,-12.250,+7.250,2, -3, 2, 1, 1, -1, -2, 4
1503523649512,-0.824,-0.538,-0.176,-0.022,+0.916,-0.249,-0.321,+5.188,-8.062,+8.562,-8, 17, -4, 0, -1, 6, -12, -18
1503523649527,-0.825,-0.536,-0.178,-0.021,+0.932,-0.250,-0.336,+7.875,-10.188,+10.250,1, -56, -8, -1, -3, 1, 1, 7
1503523649552,-0.826,-0.534,-0.180,-0.022,+0.919,-0.256,-0.339,+10.188,-10.688,+10.500,1, 39, -2, -1, -3, -3, 0, -6
1503523649571,-0.827,-0.532,-0.183,-0.022,+0.916,-0.251,-0.343,+11.938,-12.250,+11.812,-8, -64, -7, 0, -1, -1, -1, -4
1503523649587,-0.827,-0.530,-0.185,-0.022,+0.918,-0.250,-0.344,+13.062,-10.438,+14.125,2, 18, -1, 2, -3, -10, -3, 0
1503523649612,-0.828,-0.528,-0.189,-0.021,+0.907,-0.254,-0.346,+16.250,-9.062,+15.438,-9, -5, -1, 7, 5, 11, 2, -3
1503523649631,-0.828,-0.526,-0.193,-0.021,+0.915,-0.267,-0.350,+19.000,-8.000,+17.938,-14, 21, -1, -5, -1, 1, -1, 3
1503523649647,-0.828,-0.525,-0.197,-0.021,+0.922,-0.275,-0.351,+22.250,-4.812,+20.375,-4, 22, 4, -5, -2, -3, 1, 0
1503523649670,-0.828,-0.523,-0.203,-0.021,+0.940,-0.280,-0.361,+26.250,-7.250,+21.812,-17, 1, -11, -1, -1, -3, 16, 5
1503523649691,-0.828,-0.520,-0.209,-0.021,+0.942,-0.285,-0.361,+30.625,-11.250,+23.688,27, 13, 3, -2, -2, -3, -1, 6
1503523649711,-0.828,-0.517,-0.215,-0.022,+0.909,-0.302,-0.370,+34.875,-17.875,+25.750,-1, 15, -3, -1, -2, 8, -3, -3
1503523649730,-0.829,-0.513,-0.223,-0.022,+0.861,-0.307,-0.358,+39.625,-16.500,+27.188,17, 20, 3, -2, -1, -11, -7, -4
1503523654852,-0.755,-0.618,-0.183,+0.118,+0.886,-0.398,-0.131,-9.000,-11.438,-1.688,-1, -8, 1, 0, -7, -2, -3, 1
1503523654874,-0.756,-0.617,-0.182,+0.119,+0.898,-0.407,-0.133,-9.688,-6.312,+0.500,5, 10, 6, -1, -1, 0, -2, 1
1503523654896,-0.757,-0.617,-0.181,+0.119,+0.921,-0.404,-0.121,-8.188,-4.938,-1.188,9, 7, 10, 1, 3, 0, 1, -2
1503523654914,-0.758,-0.616,-0.180,+0.119,+0.901,-0.399,-0.141,-5.562,-7.000,-1.875,-20, -21, -12, 1, -5, 0, 0, 0
1503523654934,-0.759,-0.615,-0.180,+0.119,+0.901,-0.420,-0.149,-5.750,-5.188,+0.000,7, 4, 1, -6, -3, 0, -2, 3
1503523654956,-0.759,-0.614,-0.179,+0.119,+0.869,-0.399,-0.124,-4.438,-3.312,-1.625,5, 12, 3, 1, 3, -1, -2, -1
1503523654972,-0.758,-0.617,-0.177,+0.119,+0.715,-0.396,+0.024,-11.438,+7.562,-19.000,3, 6, 0, 4, 0, 4, 1, 2
1503523654994,-0.758,-0.617,-0.174,+0.117,+0.958,-0.431,-0.256,-1.312,+6.500,-16.812,12, 3, 0, -4, -2, -1, 0, 1
1503523655018,-0.758,-0.619,-0.172,+0.115,+1.023,-0.407,-0.109,-4.250,+6.812,-14.812,4, 3, 7, 3, -1, 1, -1, 0
1503523655032,-0.759,-0.618,-0.171,+0.113,+0.972,-0.390,-0.190,+3.125,-3.312,-7.750,1, -14, -11, -2, 0, -4, -2, -4
1503523655054,-0.759,-0.618,-0.172,+0.113,+0.928,-0.412,-0.156,+2.438,-2.750,+3.250,0, -14, -4, -13, -13, -3, -2, -4
1503523655077,-0.758,-0.618,-0.172,+0.114,+0.890,-0.388,-0.109,-0.750,+2.875,+3.250,-4, 3, -5, -1, 2, -3, -2, 0
1503523655092,-0.758,-0.618,-0.172,+0.114,+0.897,-0.380,-0.108,-1.438,-0.375,-0.125,13, 6, 15, 10, 7, -4, 0, 3
1503523655114,-0.758,-0.619,-0.172,+0.114,+0.920,-0.407,-0.111,-3.500,+1.188,-0.812,-6, 2, 2, -1, 1, 3, 1, 5
1503523655136,-0.758,-0.619,-0.171,+0.114,+0.938,-0.385,-0.110,-5.125,+4.000,+0.625,2, -4, 4, -9, 12, -1, 4, 1
1503523655152,-0.757,-0.620,-0.171,+0.115,+0.952,-0.423,-0.100,-3.500,+2.938,-1.312,0, 2, 2, 2, -1, 1, 1, -2
1503523655174,-0.757,-0.620,-0.170,+0.115,+0.943,-0.419,-0.076,-7.625,-3.312,+0.250,-3, -19, -18, 0, -3, -3, -8, -4
1503523655196,-0.757,-0.620,-0.169,+0.116,+0.904,-0.384,-0.096,-10.312,-1.938,+2.188,-5, -6, 5, 4, -7, -3, -2, -2
1503523655214,-0.757,-0.620,-0.169,+0.118,+0.936,-0.400,-0.103,-12.750,+0.750,+6.312,1, 7, -1, 1, -4, 2, -7, -5
1503523655234,-0.757,-0.620,-0.167,+0.120,+0.968,-0.388,-0.136,-13.125,+0.750,+7.875,2, 10, 7, -10, 2, 0, -3, -1
1503523655256,-0.759,-0.618,-0.167,+0.122,+0.977,-0.404,-0.165,-14.250,-8.000,+10.188,1, -2, -9, -9, 9, 1, 3, 1
1503523655272,-0.760,-0.616,-0.167,+0.126,+0.978,-0.417,-0.154,-13.625,-9.562,+17.688,-4, 4, 7, 0, -1, -13, -2, -3
1503523655294,-0.761,-0.614,-0.167,+0.129,+0.920,-0.401,-0.145,-15.312,-10.938,+20.375,8, -13, -13, -7, 10, 4, 4, -2
1503523655317,-0.762,-0.611,-0.168,+0.133,+0.917,-0.400,-0.170,-15.312,-15.000,+24.688,-36, -13, -3, 7, 24, 2, 3, 1
1503523655332,-0.763,-0.608,-0.169,+0.138,+0.898,-0.400,-0.162,-15.000,-12.688,+26.562,10, 8, 7, -15, -11, 0, -1, 0
1503523655355,-0.764,-0.606,-0.170,+0.142,+0.902,-0.423,-0.147,-14.938,-9.188,+26.062,27, 24, 16, 11, -9, 1, 0, -2
1503523655377,-0.765,-0.604,-0.171,+0.146,+0.891,-0.406,-0.151,-15.812,-9.938,+23.750,-10, -14, -10, -10, 1, 2, 5, 3
1503523655399,-0.766,-0.601,-0.171,+0.150,+0.871,-0.424,-0.173,-13.188,-13.062,+20.438,-1, 21, 13, 3, -8, 2, -8, -3
1503523655416,-0.767,-0.599,-0.172,+0.153,+0.887,-0.436,-0.181,-12.812,-12.875,+19.875,19, -3, -6, 1, 0, -4, 0, 0
1503523655436,-0.768,-0.596,-0.173,+0.156,+0.869,-0.448,-0.202,-10.812,-11.438,+19.625,13, 8, -5, 1, 16, 1, 1, -4
1503523655453,-0.769,-0.594,-0.174,+0.160,+0.846,-0.454,-0.198,-10.062,-9.625,+19.062,-9, -6, -9, 9, -14, 7, 2, 4
1503523655474,-0.770,-0.592,-0.175,+0.163,+0.860,-0.456,-0.201,-10.625,-8.750,+18.812,49, -5, -10, -13, 7, 1, 6, -2
1503523655496,-0.770,-0.590,-0.176,+0.166,+0.872,-0.471,-0.201,-8.562,-8.062,+18.250,-10, 31, 8, 0, -1, -5, -4, -6
1503523655512,-0.771,-0.588,-0.177,+0.168,+0.874,-0.468,-0.223,-8.750,-9.500,+15.125,31, -15, -13, -1, -4, -5, -2, 2
1503523655534,-0.773,-0.586,-0.177,+0.170,+0.858,-0.465,-0.216,-7.125,-15.062,+13.062,-3, -21, -11, 2, -4, 1, -1, -2
1503523655558,-0.774,-0.582,-0.178,+0.171,+0.862,-0.468,-0.220,-6.875,-19.688,+12.000,-6, 8, 42, 5, 6, 0, -1, 0
1503523655573,-0.776,-0.580,-0.179,+0.173,+0.852,-0.471,-0.218,-5.625,-16.688,+12.875,13, -69, -29, -8, 0, -3, -9, -6
1503523655594,-0.776,-0.578,-0.180,+0.175,+0.852,-0.468,-0.220,-6.125,-8.500,+13.438,5, 27, -7, -4, -7, -15, 2, 2
1503523655617,-0.777,-0.577,-0.181,+0.177,+0.837,-0.459,-0.238,-4.062,-5.312,+13.812,-21, -17, -5, -10, 3, 1, -7, 2
1503523655632,-0.778,-0.575,-0.182,+0.178,+0.846,-0.470,-0.238,-0.500,-10.062,+11.000,-8, -16, -10, -2, 2, 3, 3, 0
1503523655655,-0.779,-0.573,-0.184,+0.178,+0.842,-0.484,-0.230,+0.500,-15.500,+10.438,12, 8, 14, 7, 7, 1, -2, 1
1503523655676,-0.780,-0.571,-0.185,+0.179,+0.826,-0.495,-0.235,-0.250,-13.750,+8.500,1, 5, -7, -6, -3, 0, -2, 1
1503523655692,-0.781,-0.569,-0.187,+0.180,+0.824,-0.502,-0.245,+0.312,-10.938,+7.750,-3, 31, 8, 6, 0, 1, -5, -10
1503523655714,-0.781,-0.567,-0.188,+0.181,+0.838,-0.496,-0.250,-0.750,-9.875,+9.812,-5, -18, 3, -7, -3, 1, 2, -2
1503523655736,-0.782,-0.566,-0.189,+0.182,+0.850,-0.500,-0.248,-0.688,-8.500,+9.875,-5, -5, -11, -6, -1, -2, 6, 7
1503523655752,-0.782,-0.565,-0.190,+0.182,+0.859,-0.489,-0.233,+1.938,-11.062,+8.125,-5, 16, -2, 8, 13, -1, 2, -2
1503523655781,-0.784,-0.562,-0.192,+0.181,+0.862,-0.499,-0.249,+5.125,-17.750,+6.188,-7, -1, -15, -2, -5, -1, -8, -8
1503523655797,-0.786,-0.559,-0.194,+0.181,+0.851,-0.495,-0.274,+5.375,-22.375,+5.625,-5, -11, -12, -4, 0, 5, -2, 1
1503523655813,-0.787,-0.557,-0.196,+0.180,+0.840,-0.490,-0.273,+7.438,-20.438,+6.875,1, 3, -6, -3, 4, 1, -1, 0
1503523655834,-0.788,-0.554,-0.199,+0.179,+0.826,-0.490,-0.279,+9.562,-18.438,+9.562,4, 4, 5, 4, 8, -7, -5, -3
1503523655857,-0.790,-0.551,-0.202,+0.178,+0.851,-0.493,-0.280,+11.938,-23.125,+9.625,1, 23, 13, -9, -4, 2, -1, 3
1503523655872,-0.792,-0.547,-0.205,+0.177,+0.863,-0.508,-0.283,+13.250,-29.875,+9.562,-10, -34, -13, -3, -15, -3, 1, -1
1503523655895,-0.794,-0.543,-0.209,+0.175,+0.826,-0.505,-0.292,+15.562,-34.188,+8.375,-30, -1, 1, 0, 1, -3, 3, 0
1503523660559,-0.755,-0.643,-0.108,+0.069,+0.973,-0.242,-0.165,-11.938,-1.812,+13.125,-2, 4, 4, -1, -11, -3, 0, -3
1503523660581,-0.756,-0.642,-0.108,+0.071,+0.989,-0.232,-0.160,-9.750,+1.375,+9.562,-1, 4, -5, -3, -2, 0, -2, -2
1503523660597,-0.755,-0.642,-0.108,+0.074,+0.950,-0.252,-0.171,-9.000,+7.312,+17.750,-4, 0, -14, -4, -15, -1, 0, 0
1503523660620,-0.753,-0.644,-0.111,+0.077,+0.914,-0.261,-0.153,+2.875,+25.375,+24.500,-2, -3, 1, 1, 10, -5, -1, -2
1503523660641,-0.749,-0.647,-0.114,+0.081,+1.038,-0.295,-0.093,+4.000,+25.062,+24.625,-1, 4, 3, -2, 3, 2, -3, -16
1503523660657,-0.748,-0.648,-0.118,+0.084,+1.034,-0.302,-0.129,+3.938,+9.562,+27.875,-3, -12, -2, 0, -9, -2, -5, 5
1503523660679,-0.748,-0.647,-0.121,+0.086,+0.977,-0.303,-0.103,+5.312,-3.000,+23.000,2, -3, -7, -2, 6, -1, 1, 2
1503523660701,-0.747,-0.647,-0.125,+0.089,+0.922,-0.303,-0.112,+4.625,+4.375,+27.562,-2, -3, -6, -5, -6, -2, 0, 2
1503523660722,-0.745,-0.647,-0.130,+0.092,+0.908,-0.314,-0.133,+9.188,+12.875,+31.750,-51, -8, 7, -2, -2, 2, 1, -6
1503523660739,-0.743,-0.648,-0.134,+0.095,+0.916,-0.356,-0.065,+9.750,+10.250,+26.562,19, -13, -14, -1, -4, 0, 2, 21
1503523660761,-0.742,-0.649,-0.137,+0.097,+0.958,-0.396,-0.004,+5.062,+1.188,+17.562,-13, -4, -7, -8, -5, -1, -2, -2
1503523660777,-0.742,-0.648,-0.139,+0.098,+0.945,-0.375,-0.020,-0.125,-5.312,+5.875,10, 6, 0, -4, 19, 5, 1, -1
1503523660799,-0.744,-0.647,-0.139,+0.098,+0.874,-0.354,-0.090,-1.875,-12.125,+1.562,19, -4, -3, -9, -8, -1, 1, -3
1503523660823,-0.745,-0.645,-0.140,+0.100,+0.881,-0.340,-0.086,-5.688,-7.562,+6.188,17, -9, 6, 4, 10, -7, 4, 1
1503523660837,-0.745,-0.644,-0.140,+0.102,+0.939,-0.352,-0.095,-7.062,-6.375,+10.000,-31, 1, 2, -2, -3, 2, 1, -6
1503523660860,-0.746,-0.643,-0.141,+0.103,+0.958,-0.383,-0.095,-6.812,-7.688,+4.750,12, 3, -5, -2, -8, -2, 2, 3
1503523660881,-0.748,-0.640,-0.141,+0.104,+0.975,-0.366,-0.082,-7.500,-18.062,+4.375,-37, 0, 14, 5, 0, -2, 2, -4
1503523660897,-0.751,-0.637,-0.141,+0.104,+0.963,-0.380,-0.102,-4.688,-25.375,+4.062,26, -3, 2, 8, -35, 2, 5, -5
1503523660921,-0.754,-0.633,-0.142,+0.105,+0.896,-0.370,-0.156,-5.875,-28.062,+1.250,9, 9, 1, 8, 30, 1, -8, 4
1503523660941,-0.757,-0.629,-0.141,+0.106,+0.894,-0.363,-0.144,-11.188,-27.812,+4.562,29, 1, 10, -2, -5, -8, -8, 3
1503523660957,-0.760,-0.625,-0.142,+0.108,+0.928,-0.374,-0.131,-13.000,-23.625,+9.688,14, -5, -9, -5, -4, -2, -8, -12
1503523660988,-0.762,-0.622,-0.142,+0.110,+0.960,-0.375,-0.104,-12.312,-20.562,+11.188,12, 4, 4, -8, 13, -2, -3, -1
1503523661002,-0.764,-0.619,-0.142,+0.113,+0.971,-0.382,-0.146,-14.375,-23.875,+12.375,13, -18, 8, 6, -30, 1, 3, 4
1503523661016,-0.768,-0.614,-0.142,+0.115,+0.991,-0.366,-0.132,-14.188,-33.250,+11.562,16, 5, -3, -2, -7, 1, 2, -17
1503523661039,-0.773,-0.608,-0.142,+0.115,+1.015,-0.367,-0.106,-14.062,-54.375,+7.438,-10, 8, -3, -3, 4, 1, 4, -2
1503523661062,-0.780,-0.599,-0.142,+0.116,+0.981,-0.372,-0.153,-15.750,-70.562,+5.000,8, 13, 11, 2, 7, -12, -23, -9
1503523661077,-0.786,-0.590,-0.142,+0.117,+0.887,-0.368,-0.193,-17.188,-64.250,+6.688,-4, -4, -7, 1, 1, 4, 4, 13
1503523661099,-0.793,-0.581,-0.142,+0.118,+0.862,-0.335,-0.233,-16.312,-60.312,+8.812,33, -7, 7, -2, -27, -5, -3, -10
1503523661122,-0.798,-0.573,-0.142,+0.119,+0.915,-0.306,-0.261,-13.875,-54.000,+10.938,64, 22, 2, 2, 1, 25, 9, 14
1503523661136,-0.803,-0.566,-0.142,+0.119,+0.911,-0.287,-0.276,-7.312,-48.938,+10.375,-75, -12, -10, -3, 10, 17, 13, 15
1503523667983,-0.848,-0.495,-0.184,+0.047,+0.819,-0.349,-0.408,-5.375,+2.812,-9.812,18, 0, 0, -7, 9, -1, -5, 12
1503523668005,-0.848,-0.496,-0.182,+0.046,+0.866,-0.340,-0.411,-4.438,+4.125,-8.750,-13, 4, -1, 0, 3, -7, 3, 0
1503523668021,-0.848,-0.497,-0.181,+0.045,+0.900,-0.329,-0.408,-2.812,+2.562,-7.250,1, -16, 6, 4, 5, 4, -3, 2
1503523668043,-0.848,-0.497,-0.180,+0.044,+0.884,-0.330,-0.401,-0.875,-3.625,-6.250,-36, -9, -23, -3, -8, -2, -3, -7
1503523668065,-0.849,-0.496,-0.179,+0.042,+0.843,-0.313,-0.397,-0.500,-6.438,-6.188,1, 6, 3, -5, -11, -5, -5, 8
1503523668081,-0.849,-0.496,-0.179,+0.042,+0.820,-0.346,-0.409,+0.250,-1.188,-2.312,-10, -7, 3, -2, -10, -7, 15, 9
1503523668103,-0.849,-0.496,-0.179,+0.042,+0.840,-0.351,-0.410,-1.250,+1.062,-1.312,6, -1, 6, 0, -7, -2, -8, 1
1503523668125,-0.848,-0.496,-0.179,+0.042,+0.841,-0.357,-0.385,-4.750,+3.938,-0.812,-1, -6, 4, -1, -1, -6, -5, 2
1503523668141,-0.848,-0.497,-0.178,+0.042,+0.850,-0.336,-0.388,-5.188,+5.250,-2.438,25, -1, -12, -2, 2, 2, -4, -4
1503523668163,-0.848,-0.498,-0.177,+0.042,+0.856,-0.334,-0.386,-6.562,+2.938,-4.375,47, 18, 13, 6, 4, -3, -10, -22
1503523668185,-0.848,-0.498,-0.175,+0.042,+0.818,-0.335,-0.382,-8.875,+1.188,-8.750,-29, 21, 21, -3, 12, 1, -1, 10
1503523668201,-0.848,-0.499,-0.173,+0.041,+0.788,-0.351,-0.396,-11.500,+4.312,-11.500,8, 13, 4, 1, 6, 10, 3, 13
1503523668222,-0.848,-0.501,-0.170,+0.041,+0.790,-0.344,-0.394,-14.000,+10.250,-14.312,-20, -4, -7, 2, -25, -5, -20, -3
1503523668246,-0.848,-0.503,-0.166,+0.040,+0.823,-0.337,-0.387,-16.562,+11.375,-18.562,-40, -6, -11, -3, -6, 17, 18, -8
1503523668261,-0.847,-0.505,-0.162,+0.038,+0.853,-0.320,-0.401,-16.312,+11.375,-21.875,2, -8, -12, -1, 9, -2, -3, -9
1503523668282,-0.847,-0.506,-0.158,+0.036,+0.868,-0.299,-0.384,-16.562,+7.750,-25.062,12, -5, 4, 2, 2, 0, -3, -17
1503523668306,-0.847,-0.508,-0.153,+0.033,+0.906,-0.264,-0.408,-13.812,+3.188,-25.375,35, -40, -20, -7, 2, -6, 0, 8
1503523668321,-0.848,-0.508,-0.150,+0.030,+0.937,-0.247,-0.421,-7.875,-0.938,-22.188,-6, 13, 6, 1, 2, -6, -1, 4
1503523668345,-0.848,-0.508,-0.147,+0.027,+0.944,-0.238,-0.430,-2.500,-6.000,-18.938,-2, -9, 4, 0, -3, -7, -10, -21
1503523668365,-0.849,-0.507,-0.146,+0.025,+0.927,-0.240,-0.444,+0.125,-8.750,-12.812,-3, 2, 9, 0, -1, -2, 10, -9
1503523668381,-0.849,-0.507,-0.145,+0.024,+0.925,-0.236,-0.429,+1.500,-2.125,-3.312,-14, 0, -1, -1, 0, 0, -9, -3
1503523668403,-0.849,-0.507,-0.146,+0.024,+0.938,-0.236,-0.431,+4.500,+1.688,+5.312,8, 2, -6, -4, 1, 8, 20, 7
1503523668425,-0.849,-0.507,-0.147,+0.024,+0.935,-0.239,-0.429,+5.625,+0.000,+10.938,-5, 12, -5, 0, -1, -1, -4, 5
1503523668441,-0.849,-0.507,-0.149,+0.025,+0.914,-0.246,-0.398,+7.188,-2.875,+14.500,-10, 1, 0, -1, 0, 0, 9, 13
1503523668462,-0.849,-0.506,-0.152,+0.026,+0.893,-0.269,-0.396,+8.750,-3.688,+16.688,3, -7, -1, 1, -3, 6, 11, 12
1503523668485,-0.849,-0.505,-0.155,+0.028,+0.888,-0.278,-0.402,+7.938,-3.188,+18.688,4, -9, 4, -1, -1, 17, 0, 13
1503523668501,-0.849,-0.504,-0.158,+0.030,+0.873,-0.280,-0.395,+6.875,-2.938,+19.750,-5, -5, -4, -1, -2, -10, -1, 20
1503523668522,-0.849,-0.503,-0.160,+0.032,+0.874,-0.289,-0.392,+7.500,-5.250,+19.438,-3, -33, -8, -4, -6, -10, -8, 2
1503523668546,-0.849,-0.502,-0.163,+0.034,+0.864,-0.299,-0.398,+7.875,-6.500,+18.500,-12, -17, -5, -2, -2, -1, -6, 2
1503523668561,-0.849,-0.500,-0.166,+0.035,+0.861,-0.319,-0.401,+8.812,-6.750,+18.875,20, 10, 0, 0, -1, -18, -6, -6
1503523668583,-0.849,-0.499,-0.169,+0.037,+0.857,-0.335,-0.398,+9.188,-6.875,+18.500,13, 12, 1, -1, 1, 6, -4, -27
1503523668608,-0.849,-0.498,-0.173,+0.038,+0.857,-0.344,-0.394,+8.938,-8.625,+17.438,-10, 19, -5, 0, 3, -1, -10, -7
1503523668621,-0.849,-0.496,-0.176,+0.040,+0.861,-0.341,-0.402,+9.812,-8.000,+18.500,1, 3, 3, 0, 1, 2, 13, 10
1503523668643,-0.850,-0.494,-0.179,+0.041,+0.833,-0.333,-0.396,+10.875,-8.812,+17.938,2, -10, -1, 1, -1, 0, -4, -9
1503523668665,-0.850,-0.493,-0.182,+0.042,+0.838,-0.343,-0.410,+11.938,-8.812,+18.062,-7, 1, 10, 2, 0, 3, 12, 23
1503523668688,-0.850,-0.491,-0.185,+0.043,+0.841,-0.345,-0.409,+11.062,-7.500,+18.125,-10, -23, -4, 0, 1, 0, 5, -15
1503523668703,-0.850,-0.490,-0.189,+0.045,+0.844,-0.354,-0.401,+10.000,-5.562,+18.688,-2, -8, 6, -2, 0, 5, -7, -1
1503523668725,-0.850,-0.489,-0.192,+0.046,+0.853,-0.357,-0.410,+9.562,-4.312,+18.875,-10, 0, 1, 0, 1, 1, 0, -5
1503523668748,-0.850,-0.488,-0.195,+0.048,+0.857,-0.356,-0.412,+11.250,-6.062,+19.562,18, -3, 7, 2, 0, 4, 0, 5
1503523668762,-0.850,-0.486,-0.198,+0.049,+0.833,-0.365,-0.421,+13.312,-9.625,+19.188,1, 11, 1, 0, -2, -8, -16, -8
1503523673668,-0.801,-0.588,-0.112,+0.005,+0.933,-0.192,-0.237,+2.000,-25.188,-3.125,-4, 3, 4, -1, -1, -4, -5, 1
1503523673691,-0.803,-0.586,-0.113,+0.005,+0.935,-0.208,-0.226,-0.125,-15.812,+0.125,16, -1, -2, 1, -6, 0, -1, 3
1503523673706,-0.804,-0.584,-0.113,+0.005,+1.002,-0.201,-0.258,-0.438,-13.062,+1.750,-2, -23, 0, 1, -5, -3, -1, 1
1503523673727,-0.806,-0.581,-0.113,+0.004,+1.022,-0.199,-0.272,-2.875,-22.562,-0.875,-1, 49, 15, -7, -6, -3, -2, 4
1503523673751,-0.809,-0.578,-0.111,+0.003,+0.924,-0.170,-0.237,-7.125,-25.312,-5.750,14, -3, -14, 26, 20, 6, 3, 0
1503523673766,-0.810,-0.577,-0.110,+0.003,+0.770,-0.158,-0.255,-5.812,-7.375,-7.438,0, -10, -11, -14, -10, -2, -2, 3
1503523673787,-0.809,-0.578,-0.109,+0.004,+0.734,-0.152,-0.263,-9.562,+15.000,-2.062,1, 21, -5, 0, 2, 1, -3, -1
1503523673810,-0.805,-0.584,-0.107,+0.005,+0.948,-0.158,-0.262,-9.688,+42.750,+2.625,1, -33, -21, -6, -3, -4, 0, -4
1503523673826,-0.800,-0.590,-0.107,+0.007,+1.140,-0.182,-0.275,-4.500,+43.500,+5.812,-3, -43, 18, -1, 0, 0, 0, 0
1503523673848,-0.800,-0.590,-0.108,+0.006,+1.205,-0.162,-0.282,+5.438,-2.562,+1.312,22, 55, 18, -3, 11, -4, -6, -2
1503523673870,-0.805,-0.583,-0.109,+0.004,+0.973,-0.199,-0.246,+7.812,-49.250,-4.750,-22, -32, -19, -8, -11, -7, -8, -3
1503523673886,-0.809,-0.578,-0.110,+0.003,+0.780,-0.206,-0.249,+4.312,-35.812,-2.500,6, 17, 1, -8, 4, -1, -4, -1
1503523673907,-0.809,-0.578,-0.111,+0.003,+0.848,-0.175,-0.234,+0.562,+1.000,+6.500,-34, -16, -13, 2, -9, 2, 6, 7
1503523673930,-0.807,-0.580,-0.111,+0.005,+0.999,-0.174,-0.240,-2.812,+15.188,+9.625,-8, 60, -11, -7, -1, -3, -10, -7
1503523673949,-0.806,-0.582,-0.110,+0.006,+0.979,-0.141,-0.227,-5.250,+6.562,+3.188,-3, -59, 3, -15, -13, -3, -2, -3
1503523673967,-0.806,-0.581,-0.110,+0.006,+0.957,-0.155,-0.251,-1.438,-2.000,+1.250,14, 38, -4, -29, -8, -1, -1, -3
1503523673990,-0.806,-0.581,-0.110,+0.006,+0.975,-0.178,-0.248,-0.062,-0.625,+1.500,-13, -32, -14, -1, -1, 1, 3, -3
1503523674006,-0.807,-0.580,-0.111,+0.006,+0.973,-0.190,-0.256,+0.375,-7.312,+1.250,20, 33, 0, 9, 10, -1, -7, 0
1503523674027,-0.808,-0.579,-0.111,+0.006,+0.943,-0.205,-0.267,-1.875,-9.125,+1.000,-8, -25, 17, 9, 6, -6, -4, -1
1503523674050,-0.809,-0.578,-0.111,+0.006,+0.922,-0.193,-0.280,+0.000,-7.188,+2.500,-16, -24, -26, 2, -8, -3, -3, -7
1503523674066,-0.809,-0.577,-0.111,+0.006,+0.950,-0.169,-0.274,-1.375,-7.938,+1.938,1, 34, 37, -1, 0, 4, 2, 7
1503523674089,-0.810,-0.576,-0.111,+0.006,+0.967,-0.160,-0.263,-0.938,-8.500,+1.188,-5, 10, 8, 5, 0, -1, 1, 4
1503523674113,-0.811,-0.575,-0.111,+0.005,+0.958,-0.175,-0.253,-0.875,-8.250,+0.250,-2, -8, 10, 3, 2, 6, 5, 0
1503523674126,-0.812,-0.573,-0.111,+0.005,+0.953,-0.174,-0.274,+1.000,-9.625,+0.688,-13, -38, -15, 4, 5, 4, -6, -5
1503523674147,-0.813,-0.572,-0.112,+0.005,+0.971,-0.185,-0.278,+1.062,-12.500,+0.438,19, 10, -7, -2, -2, -8, -6, -3
1503523674170,-0.814,-0.570,-0.112,+0.004,+0.971,-0.185,-0.293,+1.125,-14.312,+1.500,-9, 34, -3, -8, -3, -2, -2, 1
1503523674186,-0.816,-0.567,-0.113,+0.004,+0.958,-0.178,-0.289,+3.000,-17.938,+1.812,-13, -22, -6, -2, -5, -1, 0, -6
1503523674208,-0.818,-0.565,-0.113,+0.003,+0.959,-0.180,-0.298,+3.500,-20.188,+2.500,-17, -48, -16, 3, -7, 0, -1, -11
1503523674230,-0.819,-0.562,-0.114,+0.003,+0.897,-0.182,-0.299,+2.562,-18.312,+2.812,12, 24, -6, -2, -4, -3, 4, -8
1503523674247,-0.820,-0.560,-0.115,+0.003,+0.893,-0.183,-0.281,+1.438,-11.875,+3.438,10, 38, -8, 4, 2, -3, 0, 2
1503523674267,-0.821,-0.560,-0.116,+0.003,+0.967,-0.177,-0.299,+2.812,-5.312,+5.438,4, -12, 15, 17, 36, 4, -1, 0
1503523674290,-0.822,-0.558,-0.117,+0.002,+1.003,-0.176,-0.304,+4.938,-11.500,+4.750,0, -27, -9, -4, -9, -3, -4, -1
1503523674305,-0.824,-0.555,-0.118,+0.002,+0.980,-0.185,-0.309,+5.875,-25.125,+3.688,7, -5, -5, -6, -9, -5, 1, 4
1503523674327,-0.826,-0.551,-0.119,+0.001,+0.944,-0.189,-0.330,+7.562,-25.812,+5.625,4, -65, 8, -3, -3, 1, 4, -6
1503523674351,-0.828,-0.547,-0.122,+0.000,+0.941,-0.178,-0.341,+9.625,-25.062,+8.812,5, 33, 20, 2, 0, 2, -5, 3
1503523674365,-0.830,-0.544,-0.124,+0.000,+0.936,-0.188,-0.341,+10.562,-22.812,+11.312,-4, 10, -4, -4, -13, -6, -1, -1
1503523674389,-0.832,-0.541,-0.127,+0.000,+0.931,-0.175,-0.358,+12.688,-21.250,+13.500,-2, -21, -13, -2, -2, 0, 2, 7
1503523674410,-0.833,-0.537,-0.130,+0.000,+0.956,-0.185,-0.374,+16.312,-19.188,+17.562,3, 39, -23, -5, -2, 0, 0, 3
1503523677589,-0.751,-0.607,-0.218,+0.138,+0.882,-0.489,-0.108,-2.062,-8.500,-1.062,7, 9, 0, 0, -1, -1, -1, -10
1503523677614,-0.752,-0.606,-0.218,+0.138,+0.841,-0.489,-0.117,-0.812,-9.312,-3.875,-12, -3, -6, 3, -3, -2, -7, -30
1503523677627,-0.753,-0.606,-0.218,+0.137,+0.837,-0.493,-0.100,-2.500,-3.625,-1.438,1, -7, 3, 0, -3, 1, -1, 10
1503523677650,-0.752,-0.607,-0.218,+0.138,+0.853,-0.502,-0.121,-4.250,+6.625,+2.375,-4, -21, -7, -2, -1, -2, -3, -1
1503523677674,-0.751,-0.607,-0.217,+0.139,+0.885,-0.489,-0.134,-4.000,+7.062,+0.938,-5, -2, -2, 1, 2, 1, 2, 8
1503523677687,-0.752,-0.607,-0.217,+0.139,+0.904,-0.510,-0.135,-3.062,-3.125,-1.500,1, 13, -1, -2, 0, -5, -6, -21
1503523677714,-0.753,-0.606,-0.216,+0.138,+0.880,-0.502,-0.120,-4.500,-12.000,-4.375,12, 12, -3, -4, -1, -1, -3, -10
1503523677732,-0.755,-0.604,-0.216,+0.138,+0.840,-0.502,-0.125,-5.812,-10.250,-4.688,9, -18, -2, -3, -3, -1, -3, -5
1503523677748,-0.755,-0.604,-0.214,+0.138,+0.824,-0.480,-0.121,-6.750,-4.812,-5.500,11, 14, -1, -3, -3, -3, -2, 13
1503523677771,-0.755,-0.604,-0.213,+0.138,+0.882,-0.484,-0.120,-7.562,-0.312,-0.812,-21, -5, 0, 0, 0, -3, -2, 1
1503523677792,-0.755,-0.605,-0.212,+0.139,+0.892,-0.485,-0.139,-7.812,+4.875,-1.750,-5, -11, -2, 1, 1, -12, 1, 6
1503523677808,-0.756,-0.604,-0.211,+0.139,+0.892,-0.479,-0.150,-7.875,-1.375,-2.688,-5, 6, 1, 0, -3, -56, -1, -4
1503523677829,-0.757,-0.603,-0.210,+0.139,+0.900,-0.477,-0.152,-7.500,-10.312,-3.750,-5, -3, -2, -2, 1, 20, -3, 2
1503523677852,-0.758,-0.602,-0.208,+0.138,+0.889,-0.482,-0.132,-8.062,-8.875,-3.250,-12, -9, 2, 3, 2, 16, 8, -2
1503523677867,-0.759,-0.601,-0.208,+0.139,+0.868,-0.475,-0.134,-8.312,-6.000,+0.500,-8, -8, -1, 0, -2, -14, 15, -3
1503523677889,-0.760,-0.601,-0.207,+0.139,+0.859,-0.461,-0.144,-8.375,-2.812,-0.125,9, 7, -2, -3, 0, 10, -11, 0
1503523677913,-0.760,-0.600,-0.206,+0.140,+0.865,-0.475,-0.129,-9.562,-4.688,-1.250,1, 5, -1, 0, -4, -24, -7, 0
1503523677927,-0.761,-0.600,-0.204,+0.140,+0.860,-0.484,-0.138,-9.688,-4.125,-2.688,5, 0, -1, -1, 1, 21, 9, 3
1503523677949,-0.761,-0.599,-0.203,+0.141,+0.851,-0.482,-0.160,-10.562,-0.062,-4.000,6, -2, -2, -2, 1, 9, -16, -1
1503523677973,-0.762,-0.599,-0.201,+0.142,+0.895,-0.470,-0.129,-11.188,-0.875,-2.375,-4, 2, 1, 3, 1, 8, -4, 4
1503523677987,-0.762,-0.599,-0.199,+0.141,+0.860,-0.475,-0.172,-7.750,-0.688,-10.125,2, -2, 0, -3, 0, 6, -2, -3
1503523678010,-0.764,-0.598,-0.197,+0.140,+0.781,-0.455,-0.159,-13.500,-12.062,-16.750,9, 1, -2, -1, -2, 0, -7, 3
1503523678032,-0.765,-0.598,-0.194,+0.139,+0.884,-0.470,-0.210,-7.500,+1.688,-10.812,-4, -1, -1, 0, -4, -1, 2, -1
1503523678055,-0.765,-0.599,-0.192,+0.140,+0.933,-0.478,-0.169,-12.000,+6.188,-4.938,-8, 4, -3, -3, -2, -21, 3, 2
1503523678074,-0.765,-0.599,-0.191,+0.140,+0.944,-0.433,-0.193,-7.062,+1.875,-0.125,0, -1, 2, 0, 1, 13, -4, -2
1503523678092,-0.766,-0.598,-0.190,+0.140,+0.896,-0.419,-0.169,-6.500,-5.562,-2.438,-12, -2, -3, -1, 1, 6, 0, -2
1503523678108,-0.767,-0.598,-0.189,+0.140,+0.857,-0.418,-0.181,-3.188,-4.062,-1.938,33, 4, -2, -1, 0, 21, -21, -4
1503523678130,-0.766,-0.598,-0.188,+0.140,+0.860,-0.436,-0.170,-3.000,+3.500,-1.625,6, 4, 1, 0, 3, -19, -37, 1
1503523678152,-0.766,-0.599,-0.188,+0.140,+0.887,-0.455,-0.169,-2.812,+6.500,-1.188,22, 17, 4, 2, 4, 6, -17, 4
1503523678168,-0.766,-0.600,-0.187,+0.140,+0.900,-0.460,-0.160,-2.625,+3.312,-1.938,0, -1, -2, -4, -1, -11, 27, 0
1503523678190,-0.765,-0.600,-0.187,+0.140,+0.890,-0.464,-0.161,-2.250,+0.750,-1.750,30, 3, 1, -1, -1, 4, 0, 1
1503523678212,-0.765,-0.600,-0.187,+0.140,+0.898,-0.451,-0.145,-3.875,+0.562,+0.875,-10, -4, -1, 0, 0, 1, 24, -1
1503523678228,-0.765,-0.600,-0.186,+0.141,+0.904,-0.452,-0.139,-4.750,+2.188,+1.812,-14, -8, -4, 2, 2, 1, 15, 0
1503523678250,-0.765,-0.601,-0.185,+0.141,+0.897,-0.452,-0.123,-6.750,-0.500,-0.625,-27, -11, -2, 1, -4, -8, 1, -2
1503523678275,-0.765,-0.601,-0.185,+0.141,+0.880,-0.449,-0.131,-8.250,-2.688,-1.812,-5, -4, -1, -3, 0, 1, -9, -1
1503523678288,-0.765,-0.601,-0.183,+0.142,+0.857,-0.441,-0.158,-9.250,+3.875,-1.062,-4, 0, -3, -2, -3, 3, -6, -3
1503523678310,-0.764,-0.602,-0.182,+0.144,+0.888,-0.448,-0.163,-10.125,+10.625,+2.562,-3, -5, -2, 0, -2, -5, -3, -4
1503523678332,-0.763,-0.603,-0.181,+0.146,+0.926,-0.461,-0.186,-10.125,+13.375,+6.875,-6, 0, -4, -1, -2, -4, -9, -2
1503523678348,-0.762,-0.604,-0.181,+0.148,+0.938,-0.455,-0.197,-9.812,+7.375,+11.500,-1, 4, -1, -2, -2, -1, -2, -1
1503523678370,-0.762,-0.603,-0.181,+0.151,+0.907,-0.459,-0.177,-10.875,+2.312,+14.188,2, -2, 19, 2, 1, -1, -2, -3
1503523678401,-0.761,-0.603,-0.180,+0.154,+0.929,-0.423,-0.136,-10.250,+3.500,+15.812,-11, 1, 3, -1, -2, -1, -4, -1
1503523678415,-0.762,-0.602,-0.181,+0.157,+0.909,-0.478,-0.159,-9.750,-5.250,+19.062,1, 1, 9, 1, 0, -2, -1, 4
1503523678429,-0.762,-0.601,-0.182,+0.160,+0.902,-0.457,-0.169,-12.812,-4.250,+19.188,4, -1, 5, 2, 1, -1, -1, 0
1503523678452,-0.762,-0.599,-0.182,+0.164,+0.876,-0.461,-0.162,-13.812,-2.438,+22.000,10, 1, 3, -1, -1, 2, -2, 3
1503523678477,-0.762,-0.598,-0.183,+0.168,+0.868,-0.464,-0.152,-14.812,-1.062,+22.438,1, -1, -1, -1, -2, -1, 0, 1
1503523678490,-0.762,-0.597,-0.183,+0.172,+0.891,-0.471,-0.161,-12.562,-7.000,+20.812,-9, 10, 12, 1, 0, -1, -4, -2
1503523678512,-0.763,-0.595,-0.184,+0.175,+0.844,-0.478,-0.185,-11.312,-8.250,+16.625,2, -10, -6, 0, 0, 3, 0, 2
1503523678534,-0.763,-0.593,-0.184,+0.177,+0.834,-0.483,-0.168,-11.188,-6.375,+12.625,-3, -9, -7, -1, -2, -1, 1, -2
1503523678550,-0.764,-0.592,-0.185,+0.180,+0.829,-0.501,-0.207,-10.500,-6.188,+14.688,5, -2, -5, -4, 0, -2, -3, -2
1503523678572,-0.764,-0.590,-0.185,+0.183,+0.870,-0.511,-0.203,-8.688,-5.375,+16.750,5, 1, 2, -2, -2, -3, -2, -2
1503523678595,-0.765,-0.589,-0.186,+0.186,+0.894,-0.511,-0.199,-8.688,-7.062,+19.688,-7, -1, -1, 2, -1, -1, -1, 0
1503523678612,-0.765,-0.586,-0.188,+0.188,+0.886,-0.485,-0.191,-6.562,-13.438,+17.625,1, 3, -6, -4, 0, -1, -3, 0
1503523678632,-0.767,-0.583,-0.189,+0.189,+0.856,-0.491,-0.190,-6.312,-22.938,+15.000,4, -1, -3, -2, 0, -3, 0, 1
1503523678655,-0.769,-0.579,-0.190,+0.191,+0.838,-0.491,-0.209,-5.250,-23.562,+15.500,-2, 14, 8, 2, 1, -1, 0, 1
1503523678669,-0.770,-0.577,-0.192,+0.193,+0.838,-0.505,-0.227,-3.688,-13.375,+18.062,-7, -3, -1, 1, -1, -1, 1, 0
1503523678692,-0.771,-0.575,-0.194,+0.195,+0.825,-0.508,-0.238,-3.125,-7.625,+18.625,5, -5, 11, 0, -1, -2, -3, 0
1503523678715,-0.772,-0.572,-0.196,+0.197,+0.843,-0.517,-0.220,-0.625,-16.625,+16.875,-6, -4, -12, -3, 0, 0, 0, -1
1503523678729,-0.774,-0.568,-0.199,+0.197,+0.862,-0.559,-0.236,+3.500,-29.062,+15.375,-1, 1, 4, -1, -2, 1, -1, 0
1503523678753,-0.777,-0.563,-0.201,+0.197,+0.845,-0.536,-0.247,+1.875,-34.750,+13.000,-1, 10, 8, -1, 0, -2, -2, -3
1503523678774,-0.779,-0.559,-0.204,+0.197,+0.784,-0.527,-0.244,+2.812,-34.375,+11.438,-3, -23, -1, -1, -2, -1, -2, -3
1503523678790,-0.782,-0.553,-0.208,+0.197,+0.766,-0.532,-0.255,+8.562,-39.062,+12.000,-1, 9, -10, -1, -3, -1, 1, -9
1503523678812,-0.785,-0.548,-0.211,+0.196,+0.769,-0.547,-0.258,+7.562,-34.750,+11.312,-1, 11, 11, -2, -3, 0, -2, 1
1503523678835,-0.786,-0.545,-0.214,+0.197,+0.753,-0.548,-0.258,+2.688,-21.062,+9.812,-3, -5, -7, -2, -3, -1, -2, 0
1503523678850,-0.787,-0.543,-0.216,+0.197,+0.772,-0.529,-0.287,+7.312,-15.812,+10.125,3, -3, 1, 0, 0, -2, 1, 1
1503523678872,-0.788,-0.540,-0.219,+0.196,+0.792,-0.544,-0.313,+11.562,-18.312,+11.438,0, -2, -3, -1, 2, 0, 1, -3
1503523678895,-0.790,-0.537,-0.222,+0.196,+0.794,-0.556,-0.309,+11.562,-21.188,+10.938,-2, 1, -1, 2, 0, -3, -7, -2
1503523678909,-0.791,-0.534,-0.226,+0.195,+0.783,-0.548,-0.298,+13.250,-24.438,+9.188,-5, 3, 2, 1, -1, 1, 2, 4
1503523678932,-0.793,-0.531,-0.229,+0.193,+0.809,-0.549,-0.283,+16.625,-29.188,+8.500,-3, 2, 1, -2, 0, -1, -1, -2
1503523678955,-0.795,-0.527,-0.233,+0.191,+0.794,-0.562,-0.296,+17.688,-31.688,+7.812,-2, -4, -2, -2, -4, 1, -3, -1
1503523678969,-0.796,-0.523,-0.237,+0.189,+0.742,-0.567,-0.311,+16.375,-28.312,+9.500,0, -15, 4, 4, 2, 3, 3, 2
1503523678992,-0.797,-0.520,-0.242,+0.188,+0.711,-0.548,-0.327,+18.438,-18.562,+11.500,8, 31, 39, 3, -1, -2, -3, -13
1503523679015,-0.797,-0.518,-0.246,+0.187,+0.753,-0.562,-0.314,+23.438,-16.812,+12.375,-4, -9, -15, -3, -3, -3, 0, -7
1503523679039,-0.798,-0.516,-0.251,+0.185,+0.810,-0.590,-0.296,+25.062,-23.625,+12.062,6, 20, 0, -1, 0, 0, -1, 2
1503523679053,-0.799,-0.512,-0.256,+0.182,+0.814,-0.607,-0.308,+25.062,-30.625,+9.938,-4, -2, -11, -2, 0, -1, 1, 1
1503523679075,-0.801,-0.508,-0.262,+0.180,+0.741,-0.576,-0.320,+26.875,-35.312,+9.438,-2, -1, 13, 1, -1, -2, -2, -5
1503523679090,-0.802,-0.503,-0.268,+0.177,+0.695,-0.573,-0.313,+30.812,-34.688,+10.562,-3, -4, -2, 0, 1, 1, 3, -2
1503523679115,-0.803,-0.500,-0.274,+0.174,+0.715,-0.604,-0.297,+32.750,-30.250,+11.375,-7, 12, 1, -4, -3, 0, -1, -1
1503523684377,-0.715,-0.665,-0.186,+0.104,+0.971,-0.397,-0.033,+5.688,+11.500,-10.000,6, -13, -6, -2, 17, -3, 1, -2
1503523684393,-0.714,-0.667,-0.186,+0.102,+0.976,-0.396,-0.027,+8.062,+9.312,-4.188,9, 1, 4, -2, 0, 1, -3, 1
1503523684414,-0.714,-0.668,-0.187,+0.101,+0.898,-0.427,+0.009,+7.875,+4.000,-5.812,20, 6, 0, 0, -4, 1, -2, -4
1503523684437,-0.713,-0.668,-0.187,+0.101,+0.924,-0.470,+0.031,+3.312,+4.938,-5.875,-7, 3, -3, 0, -5, 5, 0, 1
1503523684455,-0.712,-0.669,-0.187,+0.100,+0.931,-0.439,+0.066,-2.812,+2.938,-6.312,-16, -8, -10, -2, -7, -5, -1, -3
1503523684474,-0.712,-0.670,-0.185,+0.100,+0.926,-0.423,+0.071,-7.812,+2.250,-7.188,-3, -22, 4, 2, 2, 1, -2, -1
1503523684497,-0.712,-0.671,-0.183,+0.100,+0.877,-0.385,+0.045,-8.750,+0.812,-10.938,7, 8, -3, 1, -3, -4, -1, 2
1503523684512,-0.712,-0.672,-0.180,+0.100,+0.910,-0.377,+0.018,-14.062,+4.312,-13.938,-8, -14, -6, -3, -3, -1, -2, -3
1503523684534,-0.712,-0.672,-0.176,+0.099,+0.981,-0.342,+0.040,-13.500,+1.375,-14.188,30, 6, 0, -4, -1, 1, 1, 1
1503523684557,-0.713,-0.672,-0.173,+0.098,+0.961,-0.313,-0.004,-12.000,-3.875,-15.875,8, 10, 0, -2, 4, -10, -2, 1
1503523684579,-0.715,-0.671,-0.169,+0.097,+0.907,-0.345,-0.046,-12.375,-9.875,-14.688,10, -14, 2, 0, -1, 0, 0, -2
1503523684594,-0.716,-0.671,-0.166,+0.096,+0.884,-0.359,+0.027,-12.750,-5.875,-19.750,-2, 1, 5, -2, -4, 3, 0, -1
1503523684625,-0.717,-0.671,-0.163,+0.095,+0.838,-0.369,+0.046,-13.375,-3.875,-20.312,-10, -3, 8, 5, 1, -2, 0, -3
1503523684639,-0.717,-0.672,-0.159,+0.095,+0.913,-0.343,-0.025,-14.125,+10.125,-13.688,17, -17, -5, 0, -5, 0, -3, 8
1503523684657,-0.717,-0.673,-0.156,+0.094,+1.018,-0.283,-0.035,-11.938,+7.500,-12.688,7, -5, -7, -3, 12, 1, 1, -3
1503523684677,-0.718,-0.673,-0.153,+0.093,+0.955,-0.321,-0.031,-8.375,-1.375,-14.938,-6, 19, 0, 0, -10, 0, 0, -1
1503523684700,-0.718,-0.674,-0.150,+0.092,+0.917,-0.309,+0.010,-7.688,+3.875,-15.312,3, 10, 2, 5, 8, 1, -3, 1
1503523684715,-0.717,-0.675,-0.148,+0.091,+0.970,-0.271,-0.053,-2.062,+10.375,-11.688,2, 6, 2, -5, -3, -2, -11, 5
1503523684737,-0.716,-0.677,-0.146,+0.090,+1.007,-0.295,-0.007,+1.188,+13.875,-6.500,1, 13, 11, 3, -8, 3, 2, -4
1503523684754,-0.716,-0.677,-0.146,+0.088,+0.998,-0.312,-0.019,+3.812,+0.312,-10.750,-11, -4, -6, -2, -9, 2, 2, -2
1503523684776,-0.716,-0.678,-0.146,+0.086,+0.900,-0.348,+0.007,+6.875,-0.875,-11.500,2, -15, 0, -5, 4, -3, 0, -4
1503523684804,-0.715,-0.679,-0.145,+0.083,+0.920,-0.331,+0.048,+5.250,+9.062,-14.750,-5, -3, -14, -3, 5, -5, -2, 0
1503523684813,-0.713,-0.681,-0.143,+0.081,+0.996,-0.333,+0.046,+3.875,+8.750,-15.250,-3, 0, 2, 2, -10, -1, 0, -7
1503523684835,-0.713,-0.682,-0.142,+0.079,+0.985,-0.327,+0.033,+1.938,+4.125,-14.438,-12, -8, 2, -2, 2, -3, 1, -1
1503523684857,-0.713,-0.683,-0.141,+0.077,+0.939,-0.305,+0.013,+2.688,+0.562,-13.875,-3, -4, 5, 1, 1, -1, 2, 0
1503523684873,-0.713,-0.683,-0.140,+0.075,+0.949,-0.317,+0.060,+2.438,-0.750,-14.688,3, 3, 0, -1, -4, 0, 0, 2
1503523684896,-0.713,-0.684,-0.138,+0.073,+0.968,-0.309,+0.011,+3.688,+1.000,-18.625,4, 9, 7, 0, -2, 0, 0, -6
1503523684917,-0.713,-0.684,-0.137,+0.071,+0.986,-0.339,+0.025,-0.125,+0.750,-13.438,-6, -15, -16, -2, -4, -3, -2, 2
1503523684933,-0.714,-0.684,-0.136,+0.070,+0.994,-0.320,+0.009,-5.000,-6.438,-10.562,-4, -13, -6, -2, -2, 0, 1, 0
1503523684955,-0.715,-0.683,-0.134,+0.070,+0.981,-0.327,+0.044,-8.062,-10.250,-9.375,-4, 6, 0, -4, 0, -1, 1, 13
1503523684977,-0.717,-0.681,-0.132,+0.070,+1.061,-0.342,+0.040,-13.312,-18.938,-12.125,8, 0, -5, -5, 0, -1, -4, -2
1503523684999,-0.722,-0.677,-0.128,+0.068,+1.089,-0.328,+0.064,-20.000,-40.875,-22.250,14, -3, -9, -1, -2, -2, 2, -4
1503523685015,-0.726,-0.673,-0.123,+0.068,+0.816,-0.292,+0.001,-22.750,-34.875,-26.062,18, 10, 10, 0, -2, -1, 0, 1
1503523685037,-0.727,-0.673,-0.118,+0.069,+0.761,-0.247,-0.053,-24.625,+7.938,-17.125,-3, 7, 6, 2, 0, -1, -1, -3
1503523685060,-0.725,-0.676,-0.112,+0.068,+1.127,-0.252,+0.050,-25.312,+14.250,-23.375,-19, -26, 6, 3, 4, 0, 2, -2
1503523685075,-0.729,-0.673,-0.106,+0.067,+1.203,-0.279,+0.035,-25.125,-33.250,-30.312,-6, 16, 0, -4, 0, -1, -5, -4
1503523685097,-0.735,-0.668,-0.100,+0.064,+0.981,-0.228,-0.057,-23.188,-42.938,-35.500,0, -3, 0, 0, -5, -5, -2, 2
1503523685123,-0.737,-0.666,-0.095,+0.063,+0.528,-0.136,-0.186,-15.875,-7.250,-22.875,3, 5, 17, 0, -1, 6, -3, -3
1503523685135,-0.732,-0.672,-0.090,+0.062,+1.034,-0.155,-0.021,-15.750,+50.438,-18.188,0, -10, -7, -3, 0, 0, 2, 2
1503523685157,-0.730,-0.675,-0.086,+0.060,+1.283,-0.170,-0.061,-7.438,+18.375,-23.312,0, 6, -3, 0, 4, -2, -3, -6
1503523685179,-0.735,-0.671,-0.082,+0.056,+1.110,-0.232,-0.034,-4.125,-36.938,-30.062,9, -2, -3, -3, -6, -2, 0, 1
1503523685195,-0.739,-0.667,-0.079,+0.053,+0.807,-0.212,-0.076,-8.438,-28.062,-28.000,2, 5, 4, 6, 34, 2, -1, -14
1503523685217,-0.739,-0.667,-0.075,+0.052,+0.750,-0.140,-0.076,-9.438,+1.375,-22.500,-1, 2, 7, -2, -4, -1, 1, 2
1503523685239,-0.736,-0.671,-0.071,+0.050,+1.089,-0.139,-0.007,-9.375,+26.750,-22.438,17, 2, 3, -5, -7, 0, 0, 8
1503523685257,-0.737,-0.671,-0.066,+0.047,+1.138,-0.155,+0.033,-11.250,-10.188,-28.625,21, -5, -10, 2, 3, 0, 0, 17
1503523685277,-0.740,-0.668,-0.062,+0.044,+1.040,-0.170,-0.026,-12.562,-27.938,-29.812,-4, -9, -20, -7, -3, -2, -1, -2
1503523685300,-0.743,-0.665,-0.057,+0.042,+0.866,-0.127,-0.100,-16.375,-19.812,-28.188,-20, -16, -10, 13, -12, -3, 0, -6
1503523685315,-0.744,-0.665,-0.052,+0.041,+0.958,-0.110,-0.050,-19.125,-4.000,-22.750,1, 1, -3, -1, 4, 3, 6, 3
1503523685337,-0.745,-0.665,-0.047,+0.040,+1.029,-0.069,-0.062,-18.875,-5.188,-20.500,-1, -1, -6, -11, -17, -7, -5, 13
1503523685363,-0.747,-0.662,-0.043,+0.039,+1.089,-0.068,-0.061,-16.438,-23.375,-15.188,-34, 1, -6, -3, -1, -2, -3, -10
1503523685375,-0.753,-0.656,-0.039,+0.039,+1.094,-0.081,-0.061,-19.188,-48.188,-8.688,5, -22, -20, -2, -4, -4, -1, -10
1503523685397,-0.759,-0.648,-0.037,+0.041,+0.991,-0.082,-0.188,-18.562,-54.562,-1.688,-4, 5, 14, 1, -2, 3, 0, -7
1503523685419,-0.764,-0.643,-0.035,+0.042,+0.897,-0.093,-0.134,-17.438,-38.562,-0.312,-4, -12, -20, -1, -7, 0, -3, -25
1503523685435,-0.765,-0.642,-0.033,+0.043,+0.975,-0.117,-0.110,-13.375,-9.812,-3.000,14, -15, -9, -2, -1, 0, 1, -3
1503523685459,-0.766,-0.641,-0.031,+0.044,+1.103,-0.111,-0.136,-13.938,-5.812,-2.438,-2, -5, 2, -1, 2, 0, 0, -6
1503523685479,-0.768,-0.638,-0.029,+0.045,+0.988,-0.108,-0.181,-17.875,-21.000,-4.938,-1, 6, 3, -8, 1, 5, 7, 8
1503523685495,-0.770,-0.635,-0.027,+0.048,+0.949,-0.187,-0.092,-23.812,-22.125,-4.125,-7, -7, -13, -2, 1, -3, -3, 0
1503523685517,-0.772,-0.633,-0.024,+0.050,+1.201,-0.114,-0.170,-20.812,-20.875,+4.062,-27, -21, -11, 1, 0, 0, -3, -6
1503523685539,-0.775,-0.629,-0.022,+0.053,+0.858,-0.047,-0.165,-24.000,-21.750,+2.625,13, 0, -4, -3, 3, -1, -2, -5
1503523685555,-0.775,-0.630,-0.021,+0.055,+0.910,-0.054,-0.200,-13.875,+7.688,+12.188,7, 2, -16, -5, -2, -5, -4, 17
1503523685577,-0.773,-0.632,-0.020,+0.058,+1.049,-0.063,-0.191,-13.000,+19.812,+11.750,-16, -5, 2, 5, 8, -1, -2, -4
1503523685599,-0.772,-0.632,-0.020,+0.059,+1.054,-0.062,-0.167,-3.562,+1.312,+5.875,4, 20, 16, 2, -6, 1, 0, 5
1503523685615,-0.775,-0.629,-0.020,+0.059,+0.997,-0.086,-0.217,-1.438,-17.562,+1.812,8, -3, -3, -4, -1, -1, -2, -5
1503523685637,-0.777,-0.626,-0.021,+0.059,+0.903,-0.093,-0.189,-0.625,-18.500,+6.312,-5, -4, 8, 2, 3, -1, 0, -6
1503523685661,-0.777,-0.626,-0.023,+0.061,+0.964,-0.109,-0.163,+0.938,-3.250,+16.375,-7, 5, -9, -1, 12, 0, -1, 2
1503523685675,-0.777,-0.626,-0.026,+0.064,+1.027,-0.093,-0.243,+7.375,+3.250,+27.375,3, -3, -18, -2, -1, 0, 4, 1
1503523689102,-0.725,-0.620,-0.302,-0.001,+0.912,-0.418,-0.013,-5.688,+3.812,-0.250,-1, 13, 8, 0, -2, 1, 0, 6
1503523689117,-0.725,-0.620,-0.301,-0.001,+0.925,-0.411,-0.028,-5.000,+0.438,-1.500,2, 11, -5, 0, -2, -1, -7, 2
1503523689140,-0.725,-0.620,-0.300,-0.002,+0.920,-0.415,-0.014,-3.250,-1.875,-3.000,2, 1, 1, 1, 0, -2, 1, 9
1503523689162,-0.726,-0.620,-0.299,-0.002,+0.899,-0.424,-0.021,-1.688,-1.250,-5.250,5, -2, 10, -1, -1, 1, 1, 5
1503523689176,-0.726,-0.620,-0.298,-0.003,+0.883,-0.430,-0.017,-1.500,-0.625,-7.188,2, 2, 1, -2, -1, -1, 0, 17
1503523689200,-0.726,-0.620,-0.297,-0.004,+0.908,-0.432,-0.020,-2.562,-2.188,-6.875,1, 7, 3, 3, 1, -1, 0, 9
1503523689223,-0.726,-0.620,-0.297,-0.004,+0.924,-0.436,-0.001,-2.875,-1.000,-6.000,-8, -7, 1, -3, -1, 0, -3, -8
1503523689236,-0.726,-0.621,-0.295,-0.005,+0.948,-0.403,+0.016,-4.312,+0.875,-6.938,-16, -16, 0, -3, 0, -1, 1, 8
1503523689261,-0.726,-0.621,-0.294,-0.006,+0.919,-0.393,-0.013,-2.438,-0.750,-7.375,-7, -7, 0, 0, 0, 2, -3, -25
1503523689285,-0.726,-0.622,-0.293,-0.007,+0.903,-0.397,-0.004,-2.188,-1.562,-8.438,-7, -6, -10, -4, -2, -4, -3, 6
1503523689296,-0.726,-0.622,-0.292,-0.008,+0.911,-0.407,-0.002,-1.812,-1.625,-8.188,11, 2, 3, -3, 0, 0, 1, -7
1503523689329,-0.726,-0.623,-0.291,-0.009,+0.941,-0.407,+0.003,-2.562,+0.062,-9.062,-7, 0, 5, 3, 0, 3, 0, -3
1503523689342,-0.726,-0.623,-0.290,-0.010,+0.929,-0.397,-0.025,-2.062,+0.312,-9.188,10, 14, 2, 0, -1, -5, -2, 1
1503523689357,-0.727,-0.623,-0.289,-0.011,+0.909,-0.396,-0.008,-2.188,-1.688,-9.000,-1, 4, 2, 0, -2, -9, -4, -5
1503523689379,-0.727,-0.624,-0.288,-0.012,+0.938,-0.394,-0.015,-1.125,-2.188,-7.312,4, -4, -1, -4, -4, 2, 1, -8
1503523689401,-0.727,-0.624,-0.287,-0.013,+0.925,-0.393,-0.021,-0.750,-0.312,-7.500,12, 19, 2, 3, -3, -1, -2, -1
1503523689419,-0.727,-0.624,-0.286,-0.015,+0.932,-0.376,-0.011,-0.812,-0.438,-8.438,-17, -11, -1, 2, -1, 0, 3, 2
1503523689439,-0.727,-0.625,-0.285,-0.016,+0.930,-0.381,-0.008,+0.562,-0.812,-7.688,1, -1, -1, -10, -3, -4, -1, -2
1503523689462,-0.727,-0.625,-0.284,-0.017,+0.910,-0.375,-0.014,-0.125,+2.438,-7.125,0, -3, 0, 1, 1, -1, -14, 3
1503523689487,-0.726,-0.626,-0.283,-0.018,+0.932,-0.375,-0.015,+0.125,+0.875,-8.750,14, 8, -1, -8, -10, -12, 1, -1
1503523689499,-0.727,-0.626,-0.283,-0.019,+0.960,-0.394,-0.008,-0.625,-1.750,-7.250,-9, 0, -4, 1, -1, 2, -3, -4
1503523689522,-0.727,-0.626,-0.282,-0.020,+0.944,-0.381,+0.002,-2.625,-1.875,-8.250,2, -1, 1, -2, 2, 3, 11, 3
1503523689538,-0.727,-0.627,-0.281,-0.021,+0.950,-0.361,+0.004,-1.812,-2.188,-7.562,0, -3, -1, 2, -2, 0, 5, -1
1503523689559,-0.727,-0.627,-0.280,-0.022,+0.961,-0.357,-0.017,-2.562,+0.812,-3.625,-8, -7, 0, 1, -2, 8, -7, -3
1503523689581,-0.727,-0.627,-0.279,-0.022,+0.937,-0.362,-0.005,-4.062,-1.125,-2.125,-2, 11, 0, -1, 4, 11, -2, -2
1503523689597,-0.727,-0.627,-0.278,-0.022,+0.954,-0.381,-0.015,-4.375,-2.812,-2.125,2, 0, -4, -2, -17, -25, -4, 7
1503523689626,-0.728,-0.627,-0.277,-0.022,+0.938,-0.359,-0.027,-5.000,-1.938,-2.188,0, -3, -1, -1, 3, 3, 3, 4
1503523689641,-0.728,-0.627,-0.277,-0.022,+0.934,-0.350,-0.028,-4.062,-1.938,-1.938,3, 0, 1, 3, 0, 0, 0, -2
1503523689661,-0.728,-0.627,-0.276,-0.022,+0.897,-0.353,-0.043,-3.312,+1.000,-3.312,-2, -1, -4, 0, 0, 8, 14, -1
1503523689679,-0.729,-0.627,-0.275,-0.023,+0.900,-0.358,-0.034,-2.438,-0.375,-6.562,2, 3, 0, 3, 8, 1, -7, -2
1503523689701,-0.729,-0.627,-0.274,-0.024,+0.927,-0.374,-0.026,-0.125,-0.188,-8.312,-3, 2, 0, -4, 1, -5, -7, -3
1503523689717,-0.728,-0.628,-0.273,-0.025,+0.937,-0.364,-0.025,+1.000,+2.562,-11.125,0, 0, 1, 2, -2, -8, 4, -1
1503523689739,-0.728,-0.628,-0.272,-0.028,+0.932,-0.355,-0.020,+2.750,-1.875,-13.188,1, -3, 1, -3, 0, 5, -3, -4
1503523689762,-0.728,-0.629,-0.271,-0.030,+0.911,-0.354,-0.021,+2.250,-0.688,-13.938,4, 1, 1, 0, 0, 8, -8, 0
1503523689777,-0.727,-0.630,-0.270,-0.031,+0.889,-0.346,-0.004,-0.125,+6.375,-15.500,-10, -3, 0, 0, -3, -9, 9, 1
1503523689799,-0.727,-0.632,-0.268,-0.033,+0.970,-0.355,+0.010,-2.438,+3.500,-16.125,19, -1, -3, -2, -3, 8, -1, 4
1503523689824,-0.726,-0.633,-0.267,-0.034,+1.034,-0.360,+0.002,-3.500,+5.812,-9.438,-20, -4, -6, -4, -12, -9, -1, -6
1503523689837,-0.725,-0.635,-0.265,-0.034,+1.016,-0.335,+0.021,-7.750,+4.812,-9.438,-42, -8, -3, -6, 3, 1, -4, -3
1503523689861,-0.726,-0.635,-0.262,-0.035,+0.987,-0.310,+0.009,-8.750,-1.125,-8.750,37, 4, 2, 9, 3, 1, -2, 3
1503523689881,-0.726,-0.636,-0.260,-0.035,+0.945,-0.316,+0.018,-11.625,-0.375,-12.688,5, 4, 1, -2, -2, -7, -12, -7
1503523689897,-0.726,-0.637,-0.256,-0.036,+0.949,-0.342,+0.042,-15.375,-3.250,-16.875,-12, -3, 0, -1, 3, -1, 28, -2
1503523689923,-0.727,-0.638,-0.252,-0.035,+0.930,-0.354,+0.036,-21.250,-1.812,-18.688,3, 0, 2, 4, 10, -2, 2, 4
1503523689941,-0.728,-0.639,-0.247,-0.035,+0.954,-0.344,+0.044,-27.500,-3.938,-20.688,-3, -4, 1, 1, -5, 1, -4, 0
1503523689958,-0.730,-0.639,-0.241,-0.035,+0.988,-0.320,+0.026,-30.438,-12.188,-23.312,7, 0, -5, -2, 0, -9, -8, 0
1503523689980,-0.732,-0.638,-0.234,-0.035,+0.993,-0.303,+0.006,-34.750,-17.625,-23.500,-29, -6, -4, 1, 1, 7, -17, -4
