Timestamp,Orientation X,Orientation Y,Orientation Z,Orientation W,Accelerometer X,Accelerometer Y,Accelerometer Z,Gyroscope X,Gyroscope Y,Gyroscope Z,EMG1,EMG2,EMG3,EMG4,EMG5,EMG6,EMG7,EMG8,Roll,Yaw
1503510449725,-0.666,-0.665,+0.292,+0.169,+1.013,+0.174,+0.083,-1.438,+0.188,+0.062,-1, -2, -1, -3, -2, -1, 2, 0,-2.469847417334671,1.6265833182484488
1503510449747,-0.667,-0.665,+0.292,+0.169,+1.000,+0.182,+0.086,-1.062,-1.750,-0.500,-3, 0, 0, -1, -2, -1, -1, -1,-2.4712589537372307,1.626508208985451
1503510449763,-0.667,-0.664,+0.292,+0.169,+0.977,+0.183,+0.095,-0.938,-2.000,-0.812,0, -3, -3, 0, 0, 0, -4, -2,-2.4700478401422243,1.6238916159282657
1503510449785,-0.667,-0.664,+0.293,+0.169,+0.967,+0.183,+0.098,-1.312,-1.312,-0.250,1, 0, -1, -1, -1, -4, -6, -1,-2.4689938697253915,1.6250580546382807
1503510449808,-0.667,-0.664,+0.293,+0.169,+0.972,+0.179,+0.097,-1.625,-0.750,+0.125,-1, 0, 0, -1, -1, 2, 0, 1,-2.4689938697253915,1.6250580546382807
1503510449830,-0.667,-0.664,+0.293,+0.170,+0.984,+0.177,+0.094,-1.500,-1.312,+0.750,1, 0, -1, 1, 0, 0, 3, -1,-2.467936915988623,1.6250258492609357
1503510449846,-0.667,-0.663,+0.293,+0.170,+0.987,+0.175,+0.096,-0.750,-2.812,+0.938,0, 1, 0, -1, -2, 1, 1, -1,-2.4667207202686754,1.6224097926767376
1503510449868,-0.668,-0.663,+0.293,+0.171,+0.983,+0.163,+0.108,+0.000,-4.562,+1.500,0, 1, -2, -1, 0, -4, 2, -2,-2.467084724410438,1.6223098810288943
1503510449884,-0.668,-0.663,+0.293,+0.171,+0.968,+0.163,+0.103,-0.312,-3.438,+1.750,-1, -2, -2, -1, 0, -4, -8, 0,-2.467084724410438,1.6223098810288943
1503510449906,-0.668,-0.663,+0.293,+0.171,+0.960,+0.178,+0.100,-0.812,+0.062,+2.562,-2, -1, 0, -2, 1, 2, 3, 1,-2.467084724410438,1.6223098810288943
1503510449928,-0.667,-0.663,+0.293,+0.171,+0.971,+0.188,+0.088,-0.500,+2.875,+2.312,3, -1, -1, -1, -1, 2, -1, -1,-2.465663964860393,1.6223791300922892
1503510449944,-0.667,-0.663,+0.293,+0.172,+0.999,+0.183,+0.074,-0.812,+3.812,+2.125,-2, 1, 0, -3, -1, 1, 0, 0,-2.4646089975466547,1.6223485038860728
1503510449965,-0.667,-0.664,+0.293,+0.172,+1.019,+0.179,+0.082,-1.500,+2.875,+1.562,-1, -1, 0, 1, -2, -3, 0, -2,-2.4658283477555645,1.6249615529452803
1503510449988,-0.667,-0.663,+0.293,+0.172,+1.027,+0.175,+0.071,-1.375,+0.938,+0.375,1, -3, -3, -1, 1, 3, 1, -2,-2.4646089975466547,1.6223485038860728
1503510450004,-0.667,-0.663,+0.294,+0.172,+1.012,+0.176,+0.077,-1.750,-1.750,-0.688,-2, -1, -1, 0, -2, -1, 1, 0,-2.4635621267472034,1.6235184874097763
1503510450027,-0.667,-0.662,+0.294,+0.172,+0.989,+0.175,+0.092,-1.375,-2.812,-1.000,0, 0, -2, 0, -2, -1, -1, 0,-2.462339318715905,1.6209045129307542
1503510450047,-0.667,-0.662,+0.294,+0.172,+0.970,+0.176,+0.102,-1.562,-2.125,-1.188,-2, -2, -1, 1, -1, -1, -3, -1,-2.462339318715905,1.6209045129307542
1503510450070,-0.667,-0.662,+0.295,+0.172,+0.961,+0.182,+0.104,-1.875,+0.375,-0.750,-2, 1, -2, -1, 1, -4, 2, 0,-2.461294243059231,1.6220804032794427
1503510450086,-0.667,-0.662,+0.296,+0.172,+0.976,+0.180,+0.103,-1.812,+2.062,-0.250,1, -1, 0, -1, -3, -7, -8, -1,-2.460250931908661,1.6232593804854654
1503510450107,-0.666,-0.662,+0.296,+0.173,+0.986,+0.179,+0.102,-1.438,+1.500,+0.188,0, -1, -1, -2, 1, 2, 2, -1,-2.4577673363270462,1.6232983283106208
1503510450130,-0.666,-0.662,+0.296,+0.173,+0.993,+0.184,+0.110,-0.438,-1.562,+0.500,-1, -1, 1, -1, -2, 1, -1, 1,-2.4577673363270462,1.6232983283106208
1503510450147,-0.667,-0.662,+0.296,+0.173,+0.980,+0.169,+0.101,+0.312,-3.188,+0.688,0, -1, 0, 0, 0, -3, 0, -1,-2.4592015230814894,1.623227923898582
1503510450167,-0.667,-0.662,+0.296,+0.173,+0.978,+0.161,+0.098,+0.000,-1.688,+0.812,-1, -1, -1, -2, -3, 4, 0, -2,-2.4592015230814894,1.623227923898582
1503510450190,-0.667,-0.662,+0.296,+0.173,+0.962,+0.168,+0.097,+0.000,+1.312,+0.938,-1, 0, -2, 1, 0, 4, 4, -1,-2.4592015230814894,1.623227923898582
1503510450206,-0.666,-0.662,+0.296,+0.173,+0.969,+0.173,+0.104,-0.250,+3.125,+1.500,-3, -2, -1, -1, -1, 0, 0, -1,-2.4577673363270462,1.6232983283106208
1503510450228,-0.666,-0.663,+0.296,+0.173,+0.984,+0.183,+0.082,-0.312,+4.188,+1.438,0, -2, -1, -3, 1, -2, 1, -2,-2.4589979786839966,1.6259086332931099
1503510450250,-0.665,-0.663,+0.296,+0.173,+1.002,+0.184,+0.079,-0.875,+3.500,+1.688,0, -1, 1, -2, -1, -2, -5, 0,-2.457566093216234,1.6259827343773432
1503510450273,-0.665,-0.663,+0.296,+0.173,+1.009,+0.180,+0.077,-1.250,+2.750,+0.938,0, -1, -1, -1, 1, 2, 1, 0,-2.457566093216234,1.6259827343773432
1503510450288,-0.665,-0.663,+0.297,+0.174,+1.007,+0.180,+0.072,-1.625,+1.188,+0.438,1, -1, -1, 0, -1, -4, -1, -2,-2.455480299932814,1.6271303302871927
1503510450313,-0.665,-0.663,+0.297,+0.174,+1.001,+0.176,+0.072,-2.062,+1.250,-0.688,0, 0, 0, -1, -2, -2, -2, -1,-2.455480299932814,1.6271303302871927
1503510450326,-0.665,-0.662,+0.297,+0.174,+0.997,+0.175,+0.088,-2.188,+0.062,-1.250,1, -1, -1, -1, 0, -1, 2, 0,-2.4542418064255673,1.6245208940173927
1503510450347,-0.665,-0.662,+0.298,+0.174,+0.979,+0.174,+0.101,-2.000,-1.250,-0.875,-2, 0, -2, -1, -1, 0, -2, 0,-2.453203207194139,1.6257075187078969
1503510450370,-0.665,-0.662,+0.298,+0.174,+0.970,+0.178,+0.109,-2.062,-1.125,-0.812,-3, -3, 0, -1, -2, -1, -1, -2,-2.453203207194139,1.6257075187078969
1503510450386,-0.665,-0.662,+0.299,+0.174,+0.973,+0.179,+0.115,-2.125,-0.125,-0.375,0, -1, -2, 0, 0, 3, 3, -2,-2.4521663796619246,1.626897200059665
1503510450407,-0.665,-0.662,+0.299,+0.175,+0.970,+0.179,+0.122,-1.375,+0.062,+0.625,1, 0, 1, -1, 0, -6, -4, 0,-2.451126634950958,1.6268632159978642
1503510450430,-0.664,-0.662,+0.299,+0.175,+0.974,+0.178,+0.105,-0.875,+0.750,+0.750,-1, -2, -2, 0, -1, 3, 0, 0,-2.4496815484290018,1.626938513653422
1503510450446,-0.664,-0.662,+0.300,+0.175,+0.982,+0.181,+0.098,-1.312,+2.938,+1.000,-1, -1, -2, 0, 1, 2, -1, 0,-2.4486471234173313,1.6281319870036097
1503510450467,-0.664,-0.663,+0.300,+0.175,+0.995,+0.183,+0.104,-0.812,+2.875,+0.562,0, 1, 1, -1, -1, -5, -3, -2,-2.4498932790585477,1.6307347547915836
1503510450490,-0.663,-0.663,+0.300,+0.175,+1.000,+0.170,+0.091,-0.500,+1.688,+0.312,-2, -1, -1, 0, -2, 1, -2, -1,-2.448449407854049,1.6308153204764553
1503510450506,-0.663,-0.663,+0.300,+0.175,+0.992,+0.173,+0.096,-0.938,+0.875,+0.500,-2, 0, -1, -3, -1, 1, -1, -1,-2.448449407854049,1.6308153204764553
1503510450527,-0.663,-0.663,+0.300,+0.175,+0.978,+0.180,+0.094,-0.812,+0.125,+0.562,0, -1, -1, -2, 2, -3, 0, 1,-2.448449407854049,1.6308153204764553
1503510450550,-0.663,-0.663,+0.301,+0.175,+0.979,+0.186,+0.090,-1.750,+0.625,+0.500,0, 0, -2, 0, 0, 2, 0, 0,-2.4474155323271702,1.6320104939563655
1503510450566,-0.663,-0.662,+0.301,+0.175,+0.987,+0.185,+0.085,-1.625,+1.438,+0.375,-1, 0, 1, 0, -2, 2, -2, 1,-2.4461630468725977,1.629407141127146
1503510450588,-0.663,-0.662,+0.301,+0.176,+0.998,+0.184,+0.097,-1.688,+0.250,+0.438,-1, -1, -1, 0, 2, 2, -2, 0,-2.4451294917478497,1.629371357103153
1503510450610,-0.663,-0.662,+0.301,+0.176,+0.990,+0.171,+0.100,-1.312,-2.688,+0.438,-2, -3, -2, -1, -1, -1, 1, -1,-2.4451294917478497,1.629371357103153
1503510450626,-0.663,-0.662,+0.302,+0.176,+0.982,+0.171,+0.106,-1.562,-3.500,+0.375,0, -1, 0, 2, -2, -3, 1, 0,-2.444099275061002,1.6305716342114442
1503510450650,-0.664,-0.661,+0.302,+0.177,+0.973,+0.184,+0.109,-1.500,-2.062,+0.750,-2, -4, -2, -3, -1, -2, -2, -1,-2.4432685511133827,1.6278573854265541
1503510450671,-0.663,-0.661,+0.302,+0.177,+0.970,+0.181,+0.107,-0.938,-0.125,+1.062,3, 0, -1, 0, -1, -6, -2, -1,-2.4418104598212196,1.6279339272348314
1503510450686,-0.663,-0.661,+0.302,+0.177,+0.985,+0.180,+0.096,-0.812,+1.000,+0.375,1, 0, 0, -1, 1, 5, 0, 0,-2.4418104598212196,1.6279339272348314
1503510450708,-0.663,-0.661,+0.302,+0.177,+0.986,+0.181,+0.104,-1.062,+1.000,+1.250,1, 1, -1, -2, -1, -2, -1, -1,-2.4418104598212196,1.6279339272348314
1503510450730,-0.663,-0.661,+0.303,+0.177,+0.989,+0.179,+0.100,-1.188,-1.500,+1.062,-1, -1, -3, -1, -3, -1, -1, -2,-2.4407839210944906,1.6291393060003434
1503510450747,-0.663,-0.661,+0.303,+0.178,+0.990,+0.175,+0.092,-1.438,-2.188,+0.875,0, 0, 0, -1, 1, -2, -2, -1,-2.4397560594288827,1.6291034695615145
1503510450768,-0.663,-0.661,+0.303,+0.178,+0.989,+0.176,+0.103,-2.062,+0.062,+0.938,-1, -2, 1, 1, 0, -3, -1, 1,-2.4397560594288827,1.6291034695615145
1503510450790,-0.663,-0.661,+0.303,+0.178,+0.987,+0.182,+0.095,-2.188,-0.438,+0.375,-3, 0, 1, -1, -2, -1, 1, -1,-2.4397560594288827,1.6291034695615145
1503510450806,-0.663,-0.660,+0.303,+0.179,+0.990,+0.177,+0.093,-2.312,-1.750,+0.750,-1, -1, 0, 0, 1, 0, -1, -1,-2.4374649050349584,1.6264688162721703
1503510450828,-0.663,-0.660,+0.304,+0.179,+0.981,+0.177,+0.095,-2.250,-1.750,+0.625,-1, 0, -3, -2, 0, -1, -1, -2,-2.4364438452990163,1.6276784508653224
1503510450851,-0.663,-0.660,+0.304,+0.180,+0.987,+0.183,+0.101,-2.000,-1.688,+0.688,-3, -3, -1, -1, 0, 4, 1, -2,-2.435419928106337,1.62764340125289
1503510450867,-0.663,-0.660,+0.304,+0.180,+0.986,+0.186,+0.103,-1.625,-1.250,+0.562,-2, 0, -3, -2, -1, -4, -5, -1,-2.435419928106337,1.62764340125289
1503510450888,-0.663,-0.659,+0.304,+0.180,+0.975,+0.172,+0.106,-0.938,-1.875,+1.000,1, -2, -1, 0, 0, -1, -2, -1,-2.4341500618129244,1.625045306290825
1503510450910,-0.663,-0.659,+0.305,+0.181,+0.979,+0.177,+0.100,-1.312,-1.562,+1.062,-1, 0, 0, -1, -2, -10, -2, 2,-2.4321109880906513,1.6262257307113894
1503510450926,-0.663,-0.659,+0.305,+0.181,+0.987,+0.176,+0.097,-1.500,+0.625,+1.062,-2, -2, 1, -2, -1, -2, 0, -2,-2.4321109880906513,1.6262257307113894
1503510450952,-0.663,-0.659,+0.305,+0.181,+0.992,+0.173,+0.096,-1.312,+0.562,+0.938,1, -2, 1, 0, 0, 1, -1, -1,-2.4321109880906513,1.6262257307113894
1503510450970,-0.663,-0.659,+0.305,+0.181,+0.997,+0.176,+0.099,-0.625,-0.125,+0.625,-3, 0, 0, 0, -3, -14, -14, -5,-2.4321109880906513,1.6262257307113894
1503510450986,-0.663,-0.659,+0.305,+0.181,+0.986,+0.177,+0.101,-1.000,-1.125,+0.938,2, -1, -2, 1, -1, 2, 6, 0,-2.4321109880906513,1.6262257307113894
1503510451008,-0.663,-0.659,+0.305,+0.182,+0.977,+0.182,+0.091,-1.375,-0.625,+0.688,0, 1, -2, -2, 0, 7, 2, 2,-2.431091046618935,1.6261914689966779
1503510451030,-0.663,-0.659,+0.305,+0.182,+0.975,+0.181,+0.091,-0.750,-0.625,+0.875,-1, -2, 0, -2, 0, 2, 2, 0,-2.431091046618935,1.6261914689966779
1503510451046,-0.663,-0.659,+0.306,+0.182,+0.984,+0.182,+0.093,-1.000,-0.188,+0.812,-1, -1, -1, -1, 0, -1, -1, -1,-2.430079029486613,1.6274074942719692
1503510451068,-0.663,-0.658,+0.306,+0.182,+0.988,+0.175,+0.093,-1.062,-0.500,+0.938,0, 0, -1, 0, -3, -5, 0, -3,-2.4288032402746773,1.6248146990740062
1503510451090,-0.663,-0.658,+0.306,+0.183,+0.989,+0.175,+0.102,-1.062,-0.875,+1.125,-1, -1, 0, -1, 0, 3, -2, -2,-2.42778551398527,1.6247811847051186
1503510451106,-0.663,-0.658,+0.306,+0.183,+0.981,+0.177,+0.095,-0.750,-0.750,+1.000,1, 0, 0, -1, -2, -5, -1, -1,-2.42778551398527,1.6247811847051186
1503510451128,-0.663,-0.658,+0.306,+0.183,+0.979,+0.180,+0.099,-1.062,-0.438,+1.000,-1, 0, -1, 1, -2, -2, 0, 1,-2.42778551398527,1.6247811847051186
1503510451151,-0.663,-0.658,+0.306,+0.183,+0.986,+0.179,+0.100,-1.125,+1.125,+0.625,-1, -1, -2, 1, -2, -4, -1, -1,-2.42778551398527,1.6247811847051186
1503510451166,-0.663,-0.658,+0.307,+0.183,+0.993,+0.177,+0.089,-1.250,+1.500,+0.375,0, -1, 1, -1, 0, -3, -2, -2,-2.426777233794379,1.6260022904427602
1503510451188,-0.663,-0.658,+0.307,+0.183,+0.992,+0.178,+0.096,-1.000,+0.375,+0.688,-1, -1, -2, 0, -2, -1, -1, 0,-2.426777233794379,1.6260022904427602
1503510451210,-0.663,-0.658,+0.307,+0.184,+0.980,+0.176,+0.090,-0.812,-1.188,+0.500,0, -3, -1, -3, 0, 3, 1, -1,-2.425763073678692,1.6259679644699316
1503510451229,-0.663,-0.658,+0.307,+0.184,+0.981,+0.172,+0.088,-1.250,-1.375,+0.688,-2, -1, -2, 0, -2, -1, -2, -3,-2.425763073678692,1.6259679644699316
1503510451248,-0.663,-0.658,+0.307,+0.184,+0.978,+0.180,+0.091,-1.125,-0.188,+1.000,-2, 0, -2, -2, -1, -2, 0, 0,-2.425763073678692,1.6259679644699316
1503510451271,-0.663,-0.658,+0.307,+0.184,+0.987,+0.171,+0.095,-1.062,+0.062,+0.688,1, 0, -2, -1, -3, 0, 1, -1,-2.425763073678692,1.6259679644699316
1503510451287,-0.663,-0.657,+0.307,+0.185,+0.990,+0.178,+0.092,-1.312,+0.125,+1.000,0, -2, -2, 0, 0, -7, -3, 0,-2.4234675858180244,1.6233448513642355
1503510451309,-0.663,-0.657,+0.308,+0.185,+0.986,+0.179,+0.101,-1.000,-0.562,+0.875,0, 0, 0, -1, 0, 4, 0, 1,-2.422464836377479,1.624570178352731
1503510451330,-0.663,-0.657,+0.308,+0.185,+0.989,+0.178,+0.093,-0.812,-1.125,+0.750,-1, -2, -2, 0, 0, -1, -3, -1,-2.422464836377479,1.624570178352731
1503510451346,-0.663,-0.657,+0.308,+0.185,+0.987,+0.175,+0.091,-0.875,+0.188,+0.562,1, 2, 0, 0, -2, -5, -4, 0,-2.422464836377479,1.624570178352731
1503510451369,-0.662,-0.657,+0.308,+0.185,+0.977,+0.173,+0.099,-1.000,+0.562,+0.750,0, -3, 0, -1, 0, -2, -1, -1,-2.420974554914671,1.6246418600235115
1503510451391,-0.662,-0.657,+0.308,+0.186,+0.980,+0.178,+0.093,-0.938,-0.250,+0.750,-2, -2, -1, -1, 0, 4, 4, -1,-2.419964984486478,1.6246082320733735
1503510451406,-0.662,-0.657,+0.308,+0.186,+0.982,+0.179,+0.098,-0.750,-0.125,+1.125,-3, 0, -1, -1, -2, -1, 0, -2,-2.419964984486478,1.6246082320733735
1503510451430,-0.662,-0.657,+0.309,+0.186,+0.997,+0.172,+0.090,-1.125,+0.312,+0.375,-1, 1, -2, -1, 0, 0, -2, -2,-2.4189648095533114,1.6258372636684328
1503510451450,-0.662,-0.657,+0.309,+0.186,+0.992,+0.175,+0.093,-0.688,-0.188,+0.812,-1, -2, 0, 0, 2, 5, 1, 0,-2.4189648095533114,1.6258372636684328
1503510451466,-0.662,-0.657,+0.309,+0.186,+0.983,+0.174,+0.093,-0.750,-1.750,+0.875,-3, 0, 0, -2, -3, -5, -3, 0,-2.4189648095533114,1.6258372636684328
1503510451489,-0.663,-0.656,+0.309,+0.187,+0.981,+0.178,+0.092,-0.938,-1.125,+0.750,1, -1, -2, -1, -2, 0, -2, -1,-2.4181601628462985,1.623146308191049
1503510451510,-0.663,-0.656,+0.309,+0.187,+0.979,+0.176,+0.095,-0.625,-0.375,+1.000,-2, -2, -1, -2, 0, -5, 1, 0,-2.4181601628462985,1.623146308191049
1503510451526,-0.662,-0.656,+0.309,+0.187,+0.990,+0.178,+0.087,-0.938,+0.562,+0.562,-1, 0, -1, 1, -2, 3, 3, -1,-2.416663526024323,1.62321597266848
1503510451555,-0.662,-0.656,+0.309,+0.187,+0.993,+0.173,+0.093,-0.750,+0.250,+0.812,-1, 1, -1, 0, -2, -1, -3, 0,-2.416663526024323,1.62321597266848
1503510451570,-0.662,-0.656,+0.309,+0.187,+0.986,+0.170,+0.105,-0.750,-1.000,+0.875,1, -2, -1, 0, 0, 1, 1, -3,-2.416663526024323,1.62321597266848
1503510451587,-0.662,-0.656,+0.309,+0.188,+0.988,+0.175,+0.096,-1.062,-0.625,+0.750,0, -1, -1, -2, -1, 1, 0, 0,-2.4156580387988376,1.6231831350878554
1503510451608,-0.662,-0.656,+0.310,+0.188,+0.981,+0.182,+0.091,-0.688,-0.625,+0.812,-2, -1, 1, -1, -2, -13, -11, -2,-2.4146634320583664,1.6244163703261634
1503510451630,-0.662,-0.656,+0.310,+0.188,+0.987,+0.176,+0.098,-1.062,+0.250,+0.500,0, -3, 1, -2, -1, 0, 2, 0,-2.4146634320583664,1.6244163703261634
1503510451646,-0.662,-0.656,+0.310,+0.188,+0.991,+0.178,+0.092,-1.312,+1.062,+0.375,-1, 0, 0, 0, -1, -2, 3, -2,-2.4146634320583664,1.6244163703261634
1503510451668,-0.662,-0.656,+0.310,+0.188,+0.987,+0.174,+0.099,-1.125,-0.562,+0.625,2, -2, -2, -1, 1, 5, -2, 0,-2.4146634320583664,1.6244163703261634
1503510451692,-0.662,-0.655,+0.310,+0.188,+0.982,+0.178,+0.092,-0.938,-2.125,+0.625,-2, 0, 1, -1, -1, 2, -1, 0,-2.413363604394412,1.621830467887231
1503510451706,-0.662,-0.655,+0.310,+0.189,+0.981,+0.172,+0.087,-1.250,-1.438,+0.688,0, -2, -2, 1, 0, 2, 0, 0,-2.412360433582599,1.6217983810235799
1503510451728,-0.662,-0.655,+0.311,+0.189,+0.980,+0.179,+0.095,-1.500,+0.188,+0.750,-2, -2, -2, 0, 1, -2, 0, -2,-2.411369637157046,1.6230366794277973
1503510451750,-0.662,-0.655,+0.311,+0.189,+0.982,+0.176,+0.099,-0.875,+0.500,+0.875,2, 1, 0, 1, -1, 3, 1, -1,-2.411369637157046,1.6230366794277973
1503510451767,-0.662,-0.655,+0.311,+0.189,+0.987,+0.172,+0.092,-0.938,+0.312,+0.438,1, 0, -1, -2, -1, -2, -2, -1,-2.411369637157046,1.6230366794277973
1503510451789,-0.662,-0.655,+0.311,+0.190,+0.989,+0.178,+0.092,-1.375,+0.000,+0.750,-1, 0, -1, -2, 0, -1, -2, 0,-2.410370035002653,1.6230037643986515
1503510451812,-0.662,-0.655,+0.312,+0.190,+0.984,+0.183,+0.090,-0.875,+0.125,+0.562,-2, -2, 0, 1, -2, 0, -1, -1,-2.409382763990173,1.6242441266354002
1503510451828,-0.662,-0.655,+0.312,+0.190,+0.985,+0.177,+0.094,-0.688,+0.000,+0.438,-1, -2, -1, 0, -1, -8, -10, -2,-2.409382763990173,1.6242441266354002
1503510451848,-0.662,-0.655,+0.312,+0.190,+0.979,+0.172,+0.093,-0.625,+0.188,+0.562,-1, -1, -2, -2, -2, -1, 3, 0,-2.409382763990173,1.6242441266354002
1503510451870,-0.662,-0.655,+0.312,+0.190,+0.978,+0.175,+0.097,-0.688,+0.750,+0.750,-1, -3, 0, -2, 3, 3, 2, 0,-2.409382763990173,1.6242441266354002
1503510451886,-0.661,-0.655,+0.312,+0.190,+0.986,+0.181,+0.091,-1.500,+1.750,+0.562,-2, -2, 0, 0, -4, 0, 0, -1,-2.4078745514498423,1.6243151121257209
1503510451908,-0.661,-0.655,+0.312,+0.190,+0.993,+0.178,+0.093,-0.938,+0.562,+0.500,-1, 1, 0, 0, 1, 3, 2, 0,-2.4078745514498423,1.6243151121257209
1503510451931,-0.661,-0.655,+0.313,+0.190,+0.990,+0.175,+0.098,-0.938,-0.500,+0.688,-1, 0, -1, -2, -1, -2, -2, -1,-2.4068881524700836,1.6255600147625677
1503510451947,-0.661,-0.655,+0.313,+0.191,+0.984,+0.174,+0.087,-1.000,-1.000,+0.562,1, -1, 0, 1, 1, 1, 2, 1,-2.4058944968599394,1.625525296887976
1503510451968,-0.661,-0.654,+0.313,+0.191,+0.979,+0.177,+0.092,-1.250,-1.062,+0.812,1, 0, -2, -4, -1, -4, 0, -1,-2.4045817692737756,1.6229461152728897
1503510451991,-0.661,-0.654,+0.313,+0.191,+0.979,+0.176,+0.098,-1.000,-0.062,+0.750,-3, -1, -1, 0, -2, -1, -2, -1,-2.4045817692737756,1.6229461152728897
1503510452006,-0.661,-0.654,+0.313,+0.191,+0.988,+0.169,+0.093,-0.875,+0.125,+0.750,-1, -1, -1, -2, -1, -1, -1, -1,-2.4045817692737756,1.6229461152728897
1503510452029,-0.661,-0.654,+0.313,+0.192,+0.992,+0.172,+0.094,-1.312,+0.250,+0.812,0, 0, -1, 1, 0, -2, 0, -1,-2.4035887068558157,1.6229130249714185
1503510452050,-0.661,-0.654,+0.313,+0.192,+0.981,+0.176,+0.100,-0.562,-0.375,+0.875,0, -2, -2, -1, 0, 6, 3, 0,-2.4035887068558157,1.6229130249714185
1503510452066,-0.661,-0.654,+0.314,+0.192,+0.983,+0.182,+0.097,-0.562,-0.562,+0.875,-3, -1, 0, 0, -1, -1, -2, 0,-2.402607923140057,1.6241620958004186
1503510452089,-0.661,-0.654,+0.314,+0.192,+0.984,+0.177,+0.095,-0.750,+0.625,+0.688,-1, -1, 0, -2, -1, 2, -1, 1,-2.402607923140057,1.6241620958004186
1503510452110,-0.661,-0.654,+0.314,+0.192,+0.987,+0.178,+0.098,-0.750,+2.000,+0.500,1, 0, 0, 1, 0, -3, -3, -2,-2.402607923140057,1.6241620958004186
1503510452126,-0.660,-0.655,+0.314,+0.192,+0.986,+0.180,+0.101,-0.250,+2.688,+0.500,0, -1, -3, -1, -2, -2, -3, -2,-2.402408772513069,1.6268108983548624
1503510452148,-0.660,-0.655,+0.314,+0.192,+0.995,+0.176,+0.090,-0.375,+1.062,+0.438,-1, -1, 0, -2, 0, -3, 0, 0,-2.402408772513069,1.6268108983548624
1503510452171,-0.660,-0.655,+0.315,+0.192,+0.997,+0.175,+0.083,-1.750,+0.875,+0.250,0, -1, -1, -1, -1, 2, 0, -1,-2.401428566790751,1.6280614617690288
1503510452186,-0.660,-0.654,+0.315,+0.192,+0.979,+0.193,+0.090,-0.938,-2.125,+1.125,-1, 0, -2, -1, 0, 0, 0, -1,-2.400108737480472,1.6254865127614284
1503510452208,-0.661,-0.654,+0.315,+0.192,+0.971,+0.178,+0.101,+0.812,-4.250,+1.000,-1, -1, -1, -2, -3, -5, -5, 1,-2.4016288893860276,1.6254140733770048
1503510452231,-0.661,-0.654,+0.315,+0.193,+0.977,+0.173,+0.107,+0.250,-1.688,+1.125,1, -1, 0, 0, -2, 0, 1, -1,-2.400641151972135,1.6253792512091174
1503510452246,-0.660,-0.654,+0.315,+0.193,+0.998,+0.164,+0.107,-0.875,+1.938,+0.438,-2, -1, 1, 1, -1, -2, 0, -1,-2.3991216585787662,1.625451598284722
1503510452268,-0.660,-0.654,+0.315,+0.193,+0.989,+0.170,+0.121,+0.250,+2.625,+0.438,-3, -1, -2, -1, 1, 0, -1, -1,-2.3991216585787662,1.625451598284722
1503510452292,-0.660,-0.655,+0.315,+0.192,+0.985,+0.179,+0.105,+1.562,+1.562,+0.562,-2, 0, 0, 1, -2, 1, 0, -1,-2.401428566790751,1.6280614617690288
1503510452306,-0.659,-0.655,+0.315,+0.192,+0.985,+0.160,+0.089,+0.188,+5.750,-0.688,0, -1, -2, -1, -1, -7, -3, -2,-2.3999109366803255,1.628137512676002
1503510452328,-0.658,-0.656,+0.316,+0.191,+0.984,+0.177,+0.095,-0.625,+10.812,-1.562,-1, 0, -2, -3, -2, 7, 3, 0,-2.399721672799611,1.6320848271430572
1503510452350,-0.657,-0.657,+0.317,+0.191,+0.998,+0.181,+0.101,+0.625,+10.812,-1.062,-3, -1, -2, 0, 0, 2, -2, 0,-2.3985503644473543,1.6359988955351041
1503510452366,-0.656,-0.658,+0.317,+0.190,+0.992,+0.175,+0.084,+0.500,+7.812,-1.938,1, 0, 0, 2, -1, -4, -4, -2,-2.3993448280661904,1.6387025232906471
1503510452388,-0.656,-0.658,+0.318,+0.190,+0.988,+0.175,+0.094,-1.000,+7.312,-1.625,0, -1, -1, -1, -1, -2, -1, 1,-2.3983620715216856,1.6399608056536141
1503510452410,-0.655,-0.659,+0.318,+0.189,+0.979,+0.186,+0.102,-1.062,+6.438,-1.250,-1, 0, -3, 1, 0, 0, 5, 0,-2.3991572585840317,1.6426707102575828
1503510452427,-0.655,-0.659,+0.318,+0.189,+0.976,+0.185,+0.115,+0.312,+1.750,-0.875,-1, -1, -1, -1, -1, 1, 0, 0,-2.3991572585840317,1.6426707102575828
1503510452448,-0.655,-0.659,+0.318,+0.189,+0.963,+0.182,+0.134,+0.625,-2.750,+0.938,0, -1, 2, 1, 0, 0, -4, 0,-2.3991572585840317,1.6426707102575828
1503510452470,-0.655,-0.658,+0.318,+0.189,+0.965,+0.179,+0.134,+1.000,-4.875,+2.125,0, -1, -3, -2, 0, -1, -1, -2,-2.397823424458035,1.64009782441187
1503510452486,-0.655,-0.658,+0.318,+0.190,+0.981,+0.175,+0.105,-0.625,-1.000,+2.250,-2, 0, 0, 0, -2, -2, 0, 0,-2.3968443455080664,1.6400531215134753
1503510452508,-0.655,-0.658,+0.318,+0.190,+0.988,+0.187,+0.116,-0.938,+0.500,+2.125,-3, 1, 0, 0, -2, -2, 0, -1,-2.3968443455080664,1.6400531215134753
1503510452531,-0.656,-0.658,+0.318,+0.190,+0.989,+0.180,+0.121,+2.188,-4.000,+2.312,0, -2, -1, -1, 1, -1, -1, 1,-2.3983620715216856,1.6399608056536141
1503510452546,-0.656,-0.657,+0.317,+0.191,+1.016,+0.163,+0.098,+1.250,-7.125,+3.375,-1, -1, -2, -3, -1, 1, -1, 0,-2.3970315255047194,1.6360857991877291
1503510452569,-0.657,-0.657,+0.317,+0.191,+1.022,+0.151,+0.090,-2.062,-4.125,-1.625,3, -1, -2, 0, 0, -3, -1, -1,-2.3985503644473543,1.6359988955351041
1503510452590,-0.657,-0.656,+0.317,+0.192,+1.115,+0.135,+0.130,-4.312,-7.188,-3.250,-1, 15, 10, 1, 0, 0, -1, -1,-2.396238811603811,1.6333852521524912
1503510452613,-0.661,-0.652,+0.317,+0.196,+1.154,+0.143,+0.136,-6.125,-38.438,-0.312,-5, -26, -13, -4, -3, 1, -1, -2,-2.393104960080234,1.6226516276333156
1503510452630,-0.670,-0.642,+0.314,+0.201,+1.181,+0.195,+0.093,-2.500,-88.125,+2.250,-12, -17, -5, 0, -1, -2, -1, -4,-2.391752732024774,1.5926071863516225
1503510452651,-0.682,-0.630,+0.310,+0.206,+1.093,+0.281,+0.047,+1.125,-105.312,+0.062,25, 4, 13, 1, -1, 0, 3, 25,-2.3937683693958194,1.5566134555135893
1503510452673,-0.692,-0.619,+0.308,+0.210,+0.956,+0.252,+0.020,+1.438,-95.438,+0.500,-24, -34, -18, -3, -1, 0, 0, 0,-2.3935025462905304,1.526254302130311
1503510452688,-0.698,-0.611,+0.306,+0.212,+0.768,+0.269,+0.025,+2.312,-59.312,+1.438,15, 17, 1, -1, -2, -2, 0, -1,-2.3929632657672193,1.503648015844276
1503510452711,-0.699,-0.610,+0.307,+0.212,+0.782,+0.202,+0.063,+2.812,-12.812,-3.438,-9, 14, 15, 2, 0, 0, 1, 3,-2.3924390053356634,1.5024334810504798
1503510452734,-0.698,-0.610,+0.307,+0.213,+0.871,+0.160,-0.049,-6.812,+6.312,+4.875,-27, 28, 4, 0, -2, -1, 0, -1,-2.389781376260104,1.5023914398761045
1503510452749,-0.697,-0.612,+0.306,+0.213,+0.948,+0.161,-0.125,+3.438,+16.312,+12.312,29, 40, 6, -5, -3, -2, -2, 5,-2.3915489454244097,1.5061776877463837
1503510452772,-0.695,-0.617,+0.303,+0.211,+0.926,+0.169,-0.223,+22.250,+45.250,+12.375,-27, -33, -4, 0, 1, -1, 1, 17,-2.399359355652382,1.5150406552354543
1503510452801,-0.693,-0.624,+0.297,+0.207,+1.078,+0.179,-0.251,+36.688,+52.688,+21.125,2, -20, -1, -2, 1, -3, -3, -20,-2.4146127187835815,1.5254447747079327
1503510452808,-0.692,-0.629,+0.288,+0.205,+1.296,+0.080,-0.203,+47.188,+31.938,+27.188,-5, 21, 10, 2, -2, -1, 0, 5,-2.4298841080351106,1.527500209520279
1503510452834,-0.693,-0.633,+0.279,+0.206,+1.326,-0.000,-0.069,+40.750,+1.375,+30.938,-11, -14, -5, 2, 0, 1, 0, -5,-2.4438923411836053,1.5275494941293986
1503510452853,-0.696,-0.633,+0.268,+0.207,+1.188,+0.028,-0.129,+42.812,-16.125,+34.500,13, -4, 2, 1, -1, 0, -2, -4,-2.457997679944611,1.515440514735862
1503510452869,-0.700,-0.633,+0.257,+0.209,+1.103,+0.035,-0.161,+45.500,-22.812,+40.188,8, -2, -1, 0, -1, -1, 0, -5,-2.472448684811083,1.503945347962683
1503510452891,-0.702,-0.635,+0.246,+0.210,+1.097,+0.031,-0.124,+46.812,-8.250,+42.812,13, -17, -6, -2, -3, -2, 2, 9,-2.48749757784202,1.4980323496634596
1503510452913,-0.701,-0.639,+0.235,+0.211,+1.115,-0.002,-0.095,+45.250,+11.312,+42.750,16, 12, 9, 1, 2, -1, -2, -3,-2.5008439167969208,1.4976561898452352
1503510452932,-0.701,-0.643,+0.225,+0.212,+1.122,-0.008,-0.142,+43.562,+9.438,+44.000,9, 8, 1, -2, 2, 2, 1, 2,-2.5146557265336758,1.4988443058546697
1503510452951,-0.703,-0.645,+0.214,+0.213,+1.086,+0.025,-0.080,+44.750,-13.062,+46.750,-18, -12, -5, -2, -4, -2, 0, -1,-2.52987727084289,1.4944366707670382
1503510452973,-0.706,-0.644,+0.201,+0.216,+1.132,+0.011,-0.111,+43.375,-31.875,+52.500,-14, -77, -18, 0, 7, 2, -2, -2,-2.5427908451650234,1.4809668545764596
1503510452988,-0.708,-0.644,+0.191,+0.219,+1.059,+0.011,-0.089,+36.312,-23.312,+50.250,-7, -9, -6, -3, -26, -4, -2, 0,-2.5523883513913592,1.4731073426397996
1503510453011,-0.711,-0.643,+0.181,+0.222,+1.008,+0.010,-0.117,+33.062,-26.750,+48.812,2, 15, 3, 4, 21, 5, -2, -4,-2.5620452258704955,1.4630629480303656
1503510453033,-0.714,-0.641,+0.171,+0.224,+0.953,+0.008,-0.132,+32.188,-29.500,+42.938,4, 29, 5, 3, 0, -2, 0, 0,-2.5717505906014457,1.4506506555464533
1503510453047,-0.716,-0.640,+0.164,+0.227,+0.928,-0.015,-0.129,+24.062,-21.750,+37.625,-12, 8, -2, -1, -3, 4, 1, -3,-2.5769164431891904,1.4433215940946496
1503510453070,-0.717,-0.640,+0.159,+0.229,+0.900,-0.003,-0.125,+15.750,-6.438,+29.250,-21, -34, 8, -5, -15, -6, -5, -2,-2.5810483393777144,1.4400698883134504
1503510453092,-0.717,-0.640,+0.156,+0.229,+0.891,+0.009,-0.120,+10.000,+0.062,+17.812,-3, -22, -3, -10, -87, -14, -2, 1,-2.5843057417191813,1.4380127780302758
1503510453108,-0.717,-0.640,+0.155,+0.230,+0.916,-0.018,-0.092,+4.500,+0.312,+7.062,1, -16, -6, -2, -21, -32, -6, -5,-2.584174850806038,1.437375338905268
1503510453135,-0.716,-0.640,+0.157,+0.230,+0.925,-0.017,-0.026,-8.188,-2.562,-1.500,-3, 19, 8, 2, 29, 13, 1, -5,-2.580867422414143,1.4385674498492267
1503510453152,-0.716,-0.640,+0.160,+0.230,+0.850,+0.075,+0.031,-13.625,+3.062,-3.812,0, -5, 4, -2, 10, -2, -1, -2,-2.5776130401511312,1.4406378437208995
1503510453168,-0.715,-0.640,+0.164,+0.230,+0.848,+0.082,+0.092,-15.688,-6.375,-4.188,8, 18, -1, -4, -20, 0, -1, -1,-2.5721412402238877,1.4432839165297475
1503510453190,-0.715,-0.639,+0.168,+0.229,+0.867,+0.131,+0.134,-11.188,-9.000,-4.125,19, 31, -10, 3, 58, 24, 6, 6,-2.5679331511648065,1.4433906583445029
1503510453212,-0.716,-0.638,+0.169,+0.228,+0.823,+0.118,+0.181,+2.688,-27.625,-3.125,1, 37, 0, 0, 15, 4, 2, 2,-2.5681290091009736,1.4415197345355688
1503510453227,-0.721,-0.634,+0.167,+0.227,+0.819,+0.089,+0.087,+12.438,-44.250,+2.438,5, -7, -5, 2, 50, 23, -1, -4,-2.5729610643467424,1.4300131749850713
1503510453250,-0.723,-0.632,+0.164,+0.225,+0.786,+0.100,+0.083,+19.375,-29.062,+5.938,-1, -17, -2, 4, 16, 7, 3, 2,-2.5787844699941003,1.4226895230097034
1503510453272,-0.724,-0.633,+0.161,+0.222,+0.853,+0.077,+0.035,+25.750,-6.750,+4.688,1, 11, -10, -3, 7, 1, 0, -1,-2.587916130535321,1.4233222986815126
1503510453287,-0.723,-0.636,+0.158,+0.218,+0.943,+0.041,+0.027,+33.750,+5.688,+4.438,-2, -17, -6, -5, -9, -6, -2, -3,-2.5981375297769302,1.4290386314318975
1503510453310,-0.724,-0.638,+0.154,+0.213,+0.997,+0.014,+0.031,+38.000,-1.625,+3.688,-2, -12, 1, 5, 29, 10, 1, -2,-2.6119295896855,1.4317399564850075
1503510453335,-0.724,-0.640,+0.149,+0.209,+0.968,+0.006,-0.008,+39.625,-1.875,+1.812,-11, -10, 5, 1, 9, 6, 0, -2,-2.6245275000453945,1.4337460968368656
1503510453348,-0.724,-0.643,+0.145,+0.204,+0.948,-0.024,-0.043,+37.938,+10.312,+1.625,-7, -2, -2, 1, -1, 3, 1, 0,-2.6383333146690124,1.4392151911328124
1503510453373,-0.722,-0.647,+0.142,+0.201,+1.005,-0.062,-0.054,+33.000,+22.375,+1.812,-8, -7, 7, -2, -10, -5, 1, 4,-2.6474212634789747,1.4478966406788698
1503510453392,-0.720,-0.651,+0.139,+0.197,+1.078,-0.100,-0.066,+27.000,+19.688,+0.375,2, -4, 2, 0, -1, 1, -2, -4,-2.6578381669575415,1.4566451611208726
1503510453408,-0.719,-0.653,+0.136,+0.195,+1.085,-0.125,-0.059,+20.812,+7.688,-0.625,5, -2, 1, 0, 15, -4, -1, -2,-2.6648102762646806,1.4601771642924075
1503510453430,-0.720,-0.653,+0.134,+0.194,+1.066,-0.118,-0.070,+14.188,-1.000,-0.750,7, 10, 5, -3, -19, -18, 2, 3,-2.6693895584961216,1.4591307094415593
1503510453452,-0.720,-0.653,+0.133,+0.194,+1.061,-0.101,-0.081,+6.938,-3.188,+0.812,1, 15, -1, 1, 2, -1, -7, -4,-2.6705545755778974,1.4585557669729776
1503510453470,-0.721,-0.652,+0.132,+0.195,+1.035,-0.095,-0.039,+1.562,-12.750,+1.125,1, 30, 7, -1, -8, -11, -2, 3,-2.6704461860046855,1.4554010460491589
1503510453490,-0.722,-0.650,+0.131,+0.195,+1.035,-0.083,-0.063,-1.812,-12.812,-0.188,0, -42, -19, -3, -7, 5, 4, 6,-2.6706744570906626,1.449460158891295
1503510453512,-0.723,-0.649,+0.131,+0.196,+0.981,-0.072,-0.025,-2.875,-9.875,+1.000,-6, -10, -4, 2, 14, 5, 3, 1,-2.669400383461106,1.4468887487175286
1503510453527,-0.724,-0.647,+0.131,+0.197,+1.012,-0.055,-0.056,-3.688,-16.938,+3.438,6, 63, -6, -1, -7, -8, 1, 10,-2.6671768313561732,1.4415622113607738
1503510453550,-0.725,-0.647,+0.130,+0.199,+1.047,-0.047,-0.053,-2.250,-9.562,+9.438,1, -64, 6, 9, 33, 15, 10, 13,-2.6667211202391665,1.4412269823734403
1503510453574,-0.726,-0.645,+0.130,+0.200,+1.036,+0.004,-0.165,+0.125,-10.812,+7.562,-12, 2, 5, 12, 29, 41, 9, -23,-2.664496877014908,1.4359151042162952
1503510453587,-0.727,-0.644,+0.131,+0.199,+1.646,-0.046,-1.394,+4.625,+84.562,-5.188,20, -16, 0, -11, -19, -13, 7, 12,-2.664670960467293,1.433869890869715
1503510453610,-0.731,-0.639,+0.130,+0.200,-0.511,+0.015,+0.754,-5.938,-82.188,-1.938,-16, 18, 1, -42, -85, -82, -19, -53,-2.663718912791511,1.4202950215747228
1503510453632,-0.726,-0.643,+0.140,+0.201,+1.672,+0.066,-0.488,-42.438,+69.250,-13.750,-6, -18, -7, -9, -26, 23, -17, -8,-2.6498708537890656,1.4363463469745597
1503510453648,-0.731,-0.638,+0.134,+0.201,+1.048,-0.042,-0.184,+22.938,-37.875,+14.375,8, 9, 6, 52, 127, 82, 13, 14,-2.656929213032784,1.4199181226816167
1503510453670,-0.730,-0.639,+0.130,+0.204,+1.296,-0.268,+0.204,+2.125,-29.438,+16.875,18, 37, 8, -7, 45, 21, 10, -18,-2.6575258204187553,1.4202592392289874
1503510453692,-0.731,-0.637,+0.131,+0.207,+0.672,-0.056,-0.119,-14.438,-8.562,+2.312,3, 2, 6, 3, -53, -9, -2, -3,-2.6515857993963334,1.4156497749016903
1503510453709,-0.728,-0.641,+0.132,+0.206,+0.895,-0.036,-0.060,+0.875,+30.750,+5.000,2, 32, 9, 33, 23, 25, -1, 0,-2.652603568820664,1.4266249869158283
1503510453730,-0.722,-0.647,+0.135,+0.205,+1.011,-0.062,-0.040,-1.062,+48.812,-5.062,8, 10, 2, -16, -28, 1, 1, 0,-2.650317005945067,1.4438257373059795
1503510453752,-0.719,-0.650,+0.136,+0.204,+1.011,-0.138,-0.021,-2.312,+20.625,-6.750,-21, 34, 1, -6, -38, -27, -8, -8,-2.6504016930694054,1.452178433449307
1503510453770,-0.718,-0.651,+0.137,+0.203,+0.918,-0.070,-0.003,-1.688,+8.812,-6.000,14, 21, 13, -4, 16, 48, 8, -8,-2.6505118719996172,1.4553454679247089
1503510453790,-0.716,-0.654,+0.139,+0.203,+0.963,-0.051,-0.051,-1.688,+21.688,-4.688,11, 0, -2, 8, 55, 20, -3, 0,-2.6491830074519127,1.4645214532237236
1503510453812,-0.714,-0.656,+0.140,+0.202,+1.029,-0.056,-0.041,+0.812,+15.438,+0.000,-13, 13, 2, -4, 1, 7, 3, -3,-2.6492840044721047,1.4703351222282073
1503510453827,-0.714,-0.656,+0.139,+0.202,+1.014,-0.056,+0.004,+2.625,-5.688,+3.750,0, -16, -5, -5, -14, -10, -2, -4,-2.6504422023044216,1.4697382332418598
1503510453850,-0.715,-0.655,+0.138,+0.203,+0.975,-0.050,-0.021,+1.562,-10.625,+4.250,9, 2, 4, 2, 16, 2, 1, 11,-2.6503364401031173,1.4665475408737665
1503510453873,-0.715,-0.655,+0.138,+0.202,+0.932,-0.036,-0.008,+3.812,-0.375,+2.500,-7, 4, -1, 0, 34, -8, -2, -6,-2.6515999596119575,1.4665187576109033
1503510453887,-0.713,-0.657,+0.137,+0.202,+0.966,-0.051,-0.003,+5.562,+7.875,+2.625,-9, -8, 0, -2, -20, -12, -3, -2,-2.6527706403017297,1.4711865479372994
1503510453910,-0.712,-0.659,+0.137,+0.201,+0.995,-0.061,+0.009,+6.438,+9.188,+3.750,-4, -16, -8, -5, -18, -16, -4, 1,-2.6550381638748553,1.4765609727845141
1503510453932,-0.711,-0.660,+0.136,+0.201,+0.989,-0.081,-0.008,+6.312,+6.812,+3.188,-5, 4, 3, 0, 7, -1, 1, 0,-2.656223896250637,1.478620953667222
1503510453947,-0.710,-0.662,+0.135,+0.200,+0.957,-0.058,-0.015,+4.625,+8.000,+1.500,-3, 0, 1, -1, -28, -5, -3, -2,-2.659672042776338,1.483435252053228
1503510453971,-0.708,-0.664,+0.135,+0.199,+0.942,-0.025,+0.021,+6.875,+9.750,+1.938,1, 7, -1, 3, 34, 12, -2, -1,-2.660990158619732,1.4887257731083896
1503510453992,-0.707,-0.665,+0.134,+0.198,+0.979,-0.049,+0.019,+10.875,+8.250,+3.812,-1, -29, -7, 0, -4, -6, 1, 0,-2.6634676488875337,1.490798218219638
1503510454008,-0.706,-0.668,+0.133,+0.197,+1.010,-0.068,-0.021,+12.125,+13.250,+4.562,-1, 3, -6, 2, 19, 10, 0, 0,-2.6679278902203105,1.498431251667778
1503510454030,-0.704,-0.669,+0.132,+0.196,+0.997,-0.057,-0.055,+9.250,+13.938,+5.500,3, -14, -2, -1, 0, -4, -1, -6,-2.6694906252406607,1.5004383835803425
1503510454052,-0.704,-0.671,+0.130,+0.195,+1.019,-0.066,-0.023,+11.500,+8.438,+2.875,-7, -3, -9, -3, -5, -3, -1, -1,-2.675111391546111,1.5048747937742122
1503510454067,-0.703,-0.673,+0.129,+0.194,+1.010,-0.061,+0.033,+13.062,+7.812,+2.938,5, -1, 3, 1, 0, -5, -1, 1,-2.6786072517004054,1.5097855088691743
1503510454090,-0.702,-0.674,+0.127,+0.192,+1.026,-0.086,+0.007,+13.938,+8.625,+1.625,0, -11, -1, -1, 0, 1, 2, -2,-2.683611885669091,1.5113827240775985
1503510454112,-0.700,-0.676,+0.127,+0.190,+0.982,-0.073,-0.009,+12.188,+13.250,-1.562,-1, -4, 0, -6, -4, -2, -1, -1,-2.6862769569855685,1.516770171853775
1503510454127,-0.699,-0.678,+0.126,+0.188,+0.956,-0.039,+0.012,+14.812,+11.125,-0.312,0, 0, 0, 1, 2, -7, -4, 0,-2.6910616525016358,1.5217209936781986
1503510454150,-0.697,-0.682,+0.124,+0.186,+1.023,-0.060,+0.018,+17.438,+23.625,+3.125,1, 4, 1, 0, -2, 1, -2, -2,-2.6981138747507925,1.5316924826969902
1503510454173,-0.694,-0.685,+0.123,+0.184,+1.058,-0.096,-0.041,+16.500,+31.000,+3.938,0, 2, -2, -1, 1, 1, 0, -2,-2.702147603082665,1.5393903736408496
1503510454187,-0.692,-0.688,+0.121,+0.183,+1.058,-0.083,-0.066,+12.188,+24.875,+4.812,-5, -11, 5, -2, -23, -3, -1, -3,-2.707049271443167,1.5466860668900761
1503510454210,-0.691,-0.690,+0.119,+0.182,+1.062,-0.048,+0.010,+16.250,+9.562,+6.938,3, 8, -2, 2, 6, 3, 0, 3,-2.7118655233816567,1.5512601646122959
1503510454232,-0.692,-0.690,+0.115,+0.181,+1.083,-0.104,+0.050,+20.562,-9.812,+10.375,-1, -7, -7, -2, 7, 1, 0, 0,-2.7189796627197573,1.5493765506331987
1503510454255,-0.692,-0.690,+0.112,+0.180,+0.987,-0.145,+0.031,+19.938,-4.188,+6.312,0, 0, -1, 3, 7, 1, -1, 0,-2.7240406975923386,1.5479805775695499
1503510454270,-0.690,-0.692,+0.110,+0.178,+0.907,-0.086,+0.038,+14.188,+16.500,+3.250,-2, 1, 6, 0, -2, -1, 3, -1,-2.7293791676185695,1.552619437052561
1503510454292,-0.687,-0.696,+0.109,+0.176,+0.958,-0.040,+0.025,+16.500,+29.625,+6.688,1, 1, -3, -2, 2, -1, -1, 1,-2.734514094118253,1.563350793848774
1503510454307,-0.685,-0.700,+0.106,+0.174,+1.068,-0.036,+0.084,+23.375,+20.250,+10.000,-2, -3, -2, -1, -1, -2, -1, -3,-2.7430108254717362,1.5732785285315032
1503510454330,-0.683,-0.702,+0.102,+0.171,+1.072,-0.050,+0.114,+26.688,+10.125,+13.875,6, 52, 12, 2, -2, -1, -1, -2,-2.752333513479987,1.5772521605356027
1503510454353,-0.682,-0.705,+0.099,+0.169,+0.992,-0.025,+0.095,+26.938,+11.312,+12.125,2, -15, -7, -4, 2, 2, 0, -3,-2.7607255701352775,1.5845149384795543
1503510454367,-0.680,-0.708,+0.095,+0.166,+0.963,+0.052,+0.113,+31.062,+13.875,+19.562,2, 4, -4, -4, -20, -22, -5, -6,-2.771026962989907,1.5914868433300764
1503510454390,-0.676,-0.713,+0.089,+0.162,+0.951,+0.101,+0.174,+41.688,+24.062,+31.000,-2, -14, -8, 1, 20, 7, 3, 3,-2.785717770675136,1.6036004353390494
1503510454413,-0.671,-0.720,+0.081,+0.157,+0.912,+0.095,+0.184,+54.438,+40.000,+34.375,-2, 0, -6, -2, -1, -6, -1, 0,-2.8055973043151825,1.6210950063243512
1503510454427,-0.664,-0.729,+0.074,+0.151,+0.897,+0.036,+0.226,+56.875,+49.312,+26.062,-1, 1, -3, 1, -2, -4, -2, -2,-2.8260200184705857,1.6452038641869502
1503510454450,-0.657,-0.737,+0.068,+0.145,+0.955,+0.040,+0.216,+54.125,+52.375,+22.312,1, 7, -3, -3, -4, -4, -3, -1,-2.844473463799188,1.6672297384939867
1503510454480,-0.650,-0.745,+0.060,+0.138,+0.966,+0.053,+0.142,+61.812,+61.188,+29.750,4, 2, -1, -2, -1, -2, -3, -1,-2.867238730343057,1.6892672196172027
1503510454488,-0.644,-0.752,+0.051,+0.130,+0.966,+0.028,+0.180,+74.250,+49.625,+26.812,-24, -9, -3, -1, -12, -1, -3, -2,-2.892674767596259,1.708646356970323
1503510454514,-0.639,-0.759,+0.042,+0.121,+0.964,-0.033,+0.207,+77.938,+41.625,+19.750,42, 4, -1, -3, -5, -4, 0, 2,-2.919872392724306,1.7283207699554604
1503510454532,-0.634,-0.764,+0.033,+0.113,+0.983,-0.098,+0.187,+73.000,+37.688,+13.000,13, 8, 1, 2, -1, 1, 2, 2,-2.944744395708066,1.7427826548087977
1503510454548,-0.630,-0.769,+0.025,+0.105,+0.943,-0.089,+0.170,+65.938,+36.062,+10.812,-18, 1, -1, -3, -2, -1, -3, -4,-2.9684874377958206,1.7574443601527756
1503510454570,-0.627,-0.773,+0.018,+0.097,+0.961,-0.082,+0.167,+63.500,+29.000,+11.812,-4, -2, -3, -3, -3, 0, 0, -5,-2.990442553546662,1.7693176054556587
1503510454592,-0.624,-0.776,+0.009,+0.091,+1.020,-0.166,+0.154,+65.000,+32.062,+14.188,1, -3, 0, -2, 3, 1, 0, -1,-3.0125852541839646,1.7785742200962469
1503510454609,-0.621,-0.779,+0.001,+0.085,+1.060,-0.250,+0.162,+58.500,+28.000,+10.000,-5, 1, 3, -1, -9, 0, 0, 0,-3.0332551400989782,1.78812778977447
1503510454630,-0.621,-0.779,-0.005,+0.080,+1.067,-0.229,+0.208,+50.250,-1.688,+3.688,-1, 0, 0, -1, -6, 0, 2, -1,-3.0488912494764424,1.788386386163954
1503510454652,-0.626,-0.776,-0.012,+0.074,+1.071,-0.220,+0.222,+52.812,-33.688,+1.750,11, 5, -1, -1, -1, 0, 0, 4,-3.066817140917177,1.7787631339968306
1503510454668,-0.633,-0.771,-0.019,+0.069,+0.978,-0.233,+0.217,+51.062,-49.250,+4.562,9, -3, -2, 1, -1, -2, -3, -1,-3.0830326577000324,1.7631604119205326
1503510454690,-0.638,-0.767,-0.027,+0.065,+0.857,-0.262,+0.198,+45.875,-46.500,+5.938,3, 3, 1, -1, 0, 0, 0, 2,-3.0997039530088952,1.7513745351469188
1503510454713,-0.640,-0.765,-0.034,+0.061,+0.821,-0.341,+0.191,+46.562,-19.062,-0.188,-5, -8, -1, 0, -2, -1, -2, 5,-3.115266195603533,1.7461587025199174
1503510454728,-0.641,-0.764,-0.039,+0.058,+0.891,-0.377,+0.133,+41.125,-5.875,-4.250,-8, 6, 4, 1, 1, 1, 1, -2,-3.126667875686995,1.7438651333249024
1503510454750,-0.643,-0.762,-0.044,+0.056,+0.974,-0.309,+0.128,+29.625,-12.500,+0.375,-1, 5, 3, 2, -3, 0, 1, 1,-3.1365733977537253,1.73859761842314
1503510454772,-0.647,-0.759,-0.048,+0.053,+1.024,-0.229,+0.232,+27.875,-31.438,+2.000,-6, -7, -5, -3, 0, 1, -1, -1,3.1372647176455213,1.7298913672995506
1503510454788,-0.652,-0.755,-0.055,+0.049,+1.027,-0.237,+0.188,+38.750,-41.500,+9.438,-5, -4, -7, -1, -3, -3, -2, -4,3.1222526312498533,1.7189175778438641
1503510454810,-0.658,-0.749,-0.062,+0.045,+0.896,-0.264,+0.130,+42.500,-46.812,+5.125,-1, 7, 1, 1, -1, 0, -2, -1,3.107538632584573,1.702354740001777
1503510454832,-0.664,-0.744,-0.067,+0.041,+0.885,-0.258,+0.152,+36.250,-50.750,-1.750,7, -1, 2, -2, -4, -2, -5, -4,3.0958669924072364,1.6883641139675756
1503510454848,-0.668,-0.740,-0.071,+0.038,+0.968,-0.252,+0.157,+30.438,-36.938,+0.812,4, 4, 0, 2, 0, 3, 7, 7,3.0866567331603423,1.6774660669835304
1503510454870,-0.671,-0.736,-0.076,+0.036,+0.990,-0.229,+0.169,+25.625,-33.625,+5.312,4, 0, -3, 0, -2, -1, 0, -5,3.0770805305340123,1.6671576542193118
1503510454892,-0.677,-0.731,-0.079,+0.033,+0.966,-0.201,+0.180,+24.500,-49.500,-2.000,-13, -2, -1, -2, 0, 3, 2, 13,3.069849306766621,1.6530875198326802
1503510454908,-0.682,-0.726,-0.083,+0.027,+1.000,-0.222,+0.197,+33.250,-55.500,-11.312,29, 23, 4, 2, 0, 3, 6, 10,3.0567823592383867,1.6395973215395825
1503510454930,-0.688,-0.720,-0.087,+0.021,+0.986,-0.280,+0.146,+39.250,-52.500,-15.125,1, -2, 2, 0, -1, -2, 1, -3,3.0439023972388974,1.6233664139557218
1503510454953,-0.693,-0.716,-0.089,+0.016,+0.980,-0.253,+0.142,+29.125,-46.188,-19.438,-5, -8, -2, -1, 0, 0, -1, 8,3.035208504160095,1.6123618981845433
1503510454968,-0.697,-0.712,-0.089,+0.010,+0.972,-0.182,+0.155,+22.812,-39.188,-24.375,8, -5, -3, 0, -2, 1, -1, -5,3.027633635867764,1.6007949553869627
1503510454990,-0.700,-0.709,-0.088,+0.004,+1.002,-0.151,+0.149,+16.875,-35.938,-26.375,-10, -13, -5, -3, -3, -4, -11, 13,3.021222851790005,1.591813580540403
1503510455012,-0.704,-0.705,-0.086,+0.001,+1.065,-0.069,+0.130,+5.562,-38.875,-16.750,-3, -5, 2, 0, 0, -1, 2, -7,3.020545025489343,1.579705194461196
1503510455028,-0.707,-0.702,-0.085,-0.002,+1.100,+0.009,+0.077,+2.875,-30.812,-7.250,-19, -5, -5, -4, 0, 1, -1, -12,3.0182323347869007,1.5708547375391844
1503510455050,-0.711,-0.699,-0.083,-0.005,+1.063,+0.014,+0.040,+6.562,-28.438,-6.812,8, -6, 0, 1, -1, -1, 1, 4,3.0176227584175006,1.5617294989964698
1503510455072,-0.715,-0.695,-0.082,-0.008,+1.094,+0.004,+0.039,+4.438,-35.812,-5.000,-6, 5, 4, 3, 3, 1, -5, -25,3.015387888577723,1.55019756981693
1503510455088,-0.719,-0.690,-0.081,-0.009,+1.143,+0.001,+0.083,-0.562,-42.750,-3.875,8, -2, -5, -3, -1, -1, 2, 2,3.0157834001248096,1.535911855164049
1503510455112,-0.724,-0.685,-0.079,-0.010,+1.119,-0.001,+0.105,-5.562,-51.438,-2.312,-6, -14, 5, 0, 0, -3, 0, 18,3.0178765412687967,1.5214454135363669
1503510455132,-0.730,-0.680,-0.077,-0.011,+1.088,+0.002,+0.046,-7.938,-52.062,+0.938,-4, 10, 12, 0, -2, 0, -6, -9,3.020265399188827,1.5071895544306353
1503510455149,-0.734,-0.675,-0.075,-0.011,+1.028,-0.014,-0.017,-10.625,-36.438,+1.688,-1, -26, -18, -6, -2, -4, -6, -6,3.023413605067855,1.4928727217519344
1503510455170,-0.737,-0.672,-0.072,-0.010,+1.017,-0.039,-0.023,-13.875,-28.750,-1.625,-4, 11, 1, 0, 1, 1, -2, 6,3.0293755020759843,1.4838519693100816
1503510455192,-0.740,-0.669,-0.070,-0.009,+1.060,-0.056,-0.035,-14.812,-26.125,+0.750,-11, -1, -3, -1, -1, 1, 1, -17,3.0339844664244326,1.4751840507846665
1503510455208,-0.743,-0.666,-0.068,-0.006,+1.115,-0.069,-0.095,-17.375,-20.500,+8.438,0, -6, 1, -1, -2, -3, 4, 13,3.0415534306808416,1.4665408328355325
1503510455230,-0.745,-0.664,-0.066,-0.002,+1.081,-0.085,-0.070,-25.875,-18.500,+11.688,15, -6, -9, -1, -1, -2, -2, -5,3.050472258226355,1.4606005018087147
1503510455252,-0.748,-0.660,-0.064,+0.003,+1.065,-0.063,-0.086,-29.562,-23.688,+17.188,2, 14, 3, -1, -3, 1, 3, 1,3.060984668562397,1.4491996651391665
1503510455268,-0.751,-0.657,-0.062,+0.009,+1.008,-0.074,-0.080,-28.062,-24.250,+20.625,6, -19, -4, -2, -1, 0, -1, -2,3.0731533560273445,1.4406502144483366
1503510455290,-0.754,-0.654,-0.061,+0.014,+0.999,-0.103,-0.085,-27.500,-18.312,+20.375,11, 2, -6, -3, 0, -2, -3, 5,3.0825398531802275,1.432405122417921
1503510455314,-0.755,-0.653,-0.060,+0.020,+1.029,-0.104,-0.084,-31.250,-10.688,+23.062,-6, 0, -2, -2, -3, -3, -5, -17,3.0931246976067635,1.4294339042286517
1503510455328,-0.755,-0.652,-0.058,+0.028,+1.045,-0.116,-0.075,-34.312,-5.000,+29.625,-4, -1, -4, -1, 1, -1, -3, 2,3.107925268292221,1.4260219138913721
1503510455357,-0.756,-0.652,-0.058,+0.037,+1.021,-0.147,-0.085,-35.000,-1.125,+35.562,9, 14, 10, 1, 0, -1, -1, -11,3.1217740503080003,1.426059730067075
1503510455381,-0.755,-0.652,-0.057,+0.045,+0.991,-0.174,-0.084,-36.500,+4.375,+34.000,-10, 9, 0, 2, -2, 1, 0, -2,3.1351519969034554,1.4255176707297859
1503510455395,-0.755,-0.652,-0.056,+0.053,+1.019,-0.159,-0.031,-35.688,-1.312,+26.688,1, 4, 1, 1, -2, 0, -2, 0,-3.1345178477215696,1.425173601629548
1503510455410,-0.755,-0.651,-0.055,+0.060,+1.020,-0.167,-0.075,-31.312,-5.750,+27.438,12, 11, 4, 2, -1, 2, 4, 9,-3.1223676022985387,1.4220200653801602
1503510455432,-0.756,-0.649,-0.054,+0.067,+0.927,-0.207,-0.093,-30.125,-9.312,+23.375,-8, 2, 8, 1, 1, -2, 2, 0,-3.1099311690480826,1.4162301720182966
1503510455457,-0.756,-0.648,-0.053,+0.073,+0.911,-0.226,-0.108,-28.625,+1.312,+19.062,-16, 5, -1, -2, 2, -3, 1, 28,-3.0992039300204826,1.4130962296548812
1503510455471,-0.754,-0.650,-0.051,+0.078,+0.952,-0.195,-0.092,-25.625,+13.500,+16.250,9, 0, 0, 0, -4, 6, 3, -3,-3.0893770973065267,1.4179239478006767
1503510455492,-0.753,-0.651,-0.049,+0.082,+1.000,-0.189,-0.087,-24.000,+13.812,+7.812,-29, -6, -1, -3, -1, 2, 2, -12,-3.0808557301982957,1.4201562718228937
1503510455520,-0.752,-0.653,-0.046,+0.085,+1.005,-0.170,-0.129,-22.188,+15.375,+1.812,6, -4, -3, -4, 0, -5, -2, 5,-3.0728232346168656,1.425113849698402
1503510455530,-0.751,-0.653,-0.043,+0.087,+0.989,-0.133,-0.112,-18.250,+7.750,+4.312,1, -6, -6, 1, -2, -1, -3, 9,-3.06576515453726,1.4244339996696538
1503510455552,-0.752,-0.652,-0.042,+0.088,+0.980,-0.126,-0.113,-10.375,-6.500,-0.875,1, -2, -1, -3, -1, -2, -5, -17,-3.0626875805021854,1.421623408369093
1503510455575,-0.754,-0.650,-0.040,+0.087,+0.951,-0.125,-0.130,-3.000,-12.688,-11.125,14, -1, -2, 2, -1, -4, 0, 0,-3.0611217728684514,1.4160691546936692
1503510455591,-0.756,-0.649,-0.038,+0.084,+0.916,-0.149,-0.150,+2.875,-10.562,-20.000,4, 2, 0, -2, 2, 0, -3, -26,-3.0629262582824355,1.413416140503704
1503510455612,-0.757,-0.648,-0.036,+0.081,+0.976,-0.156,-0.130,+1.188,-6.625,-19.250,-5, -2, 10, 5, -1, 1, 1, -5,-3.064680528533837,1.4105801776411635
1503510455635,-0.758,-0.646,-0.035,+0.081,+1.010,-0.135,-0.122,-3.562,-14.750,-6.375,-21, -8, -1, -2, -2, -1, 2, 1,-3.0628988679340057,1.4050078401380806
1503510455650,-0.762,-0.642,-0.035,+0.079,+0.985,-0.154,-0.137,+3.938,-28.562,-10.312,3, 11, -1, 0, 1, 0, 0, 14,-3.0651844984326546,1.394591763360574
1503510455672,-0.766,-0.637,-0.034,+0.076,+0.957,-0.179,-0.149,+7.000,-40.000,-16.938,5, 4, -1, -1, -1, -1, -3, -22,-3.0675028451510267,1.381330787449987
1503510455695,-0.770,-0.633,-0.033,+0.073,+0.909,-0.127,-0.164,+1.438,-32.188,-19.438,-35, -7, -6, -3, -3, -4, -8, 2,-3.070154889867803,1.3709796656871598
1503510455710,-0.772,-0.631,-0.030,+0.069,+0.853,-0.045,-0.199,+2.750,-10.688,-26.875,-4, -4, -1, 1, -2, 3, 0, 0,-3.0722144571284167,1.3656293221068092
1503510455732,-0.773,-0.630,-0.028,+0.064,+0.873,-0.026,-0.246,+13.750,+1.562,-27.375,10, -2, -1, 4, 2, 1, 0, -2,-3.0773000487789024,1.3629664909696861
1503510455755,-0.773,-0.631,-0.026,+0.058,+1.034,-0.080,-0.083,+14.625,-0.625,-25.688,-6, -3, -1, -2, -2, -1, 4, 18,-3.0843050460250936,1.3656771381527244
1503510455770,-0.772,-0.632,-0.025,+0.056,+1.165,-0.058,-0.154,+4.438,+4.500,-14.750,4, -21, -6, -3, 1, 0, -3, -6,-3.0862766012061593,1.3681683757067686
1503510455793,-0.771,-0.634,-0.021,+0.057,+1.145,+0.018,-0.203,-18.562,+18.000,+6.750,-18, -5, -2, -1, 17, 0, -1, 17,-3.0799601236016487,1.3732438075727542
1503510455818,-0.768,-0.636,-0.018,+0.064,+1.110,+0.119,-0.231,-33.500,+25.000,+35.500,-3, -6, -4, -3, -5, -1, -3, 0,-3.065465577777508,1.3779021308841937
1503510455830,-0.767,-0.637,-0.018,+0.073,+1.196,+0.123,-0.144,-32.750,+5.438,+58.250,32, -2, 1, -3, 1, -15, 0, -2,-3.0517144549658695,1.3804079148339572
1503510455852,-0.766,-0.637,-0.019,+0.083,+1.226,-0.007,-0.083,-27.250,-3.562,+61.125,-8, 4, 2, 1, -2, 7, 6, 23,-3.0374582425414647,1.3801374246192353
1503510455874,-0.765,-0.637,-0.021,+0.093,+1.007,-0.091,-0.091,-25.938,+3.188,+56.000,22, 33, 38, 6, -1, -1, -2, -10,-3.024475873509742,1.3799079850090106
1503510455890,-0.762,-0.639,-0.023,+0.102,+0.887,-0.055,-0.148,-23.750,+19.812,+55.250,15, 1, -11, 4, -2, -1, -2, -7,-3.013400704097962,1.3848648173467335
1503510455912,-0.759,-0.641,-0.024,+0.110,+0.974,-0.123,-0.125,-19.812,+23.688,+43.812,-21, -17, -7, -2, 1, 3, 3, 10,-3.0026350412853295,1.389812777144842
1503510455935,-0.756,-0.643,-0.026,+0.117,+1.000,-0.247,-0.116,-18.312,+18.625,+37.375,-14, 6, -1, 34, -6, -6, -7, -22,-2.994747604834492,1.394863524093971
1503510455952,-0.754,-0.645,-0.028,+0.124,+0.957,-0.250,-0.115,-18.812,+13.438,+34.000,4, -1, -7, -22, -2, -1, 3, 0,-2.9871470215995983,1.400182553684677
1503510455972,-0.752,-0.645,-0.029,+0.129,+0.836,-0.233,-0.165,-12.250,+13.125,+26.375,-3, -7, -14, -11, -3, 1, -5, -38,-2.980390405819957,1.399755619202643
1503510455995,-0.752,-0.646,-0.031,+0.131,+0.764,-0.245,-0.210,+3.875,+10.812,+11.625,-9, -25, -7, 4, -3, -3, -2, 5,-2.980444753375743,1.4027517340758113
1503510456010,-0.753,-0.644,-0.034,+0.131,+0.813,-0.295,-0.210,+17.312,-3.375,-0.188,-7, 14, 5, 1, -1, -3, 0, -3,-2.983609827560872,1.3975014879830514
1503510456032,-0.755,-0.642,-0.037,+0.128,+0.830,-0.293,-0.200,+21.438,-15.062,-9.438,3, 18, 2, -11, -2, 2, -1, 6,-2.9915718501771247,1.3925587377179094
1503510456056,-0.758,-0.639,-0.039,+0.124,+0.825,-0.261,-0.149,+21.188,-26.938,-20.625,0, 0, -1, 3, -1, -2, -1, 4,-2.9995181699344693,1.3849510767391005
1503510456070,-0.762,-0.636,-0.039,+0.118,+0.828,-0.235,-0.137,+18.000,-27.625,-32.562,-3, 6, -6, 5, 2, 2, 3, 3,-3.008177111779368,1.3774562621996782
1503510456092,-0.765,-0.633,-0.037,+0.112,+0.857,-0.173,-0.122,+14.688,-25.875,-34.875,6, -8, 4, -1, 0, -3, -1, 1,-3.0141593597550322,1.36955479677922
1503510456115,-0.768,-0.631,-0.037,+0.106,+0.887,-0.188,-0.128,+13.750,-20.188,-29.312,-1, -10, 1, -2, -2, -3, 3, 11,-3.0231682684386603,1.3647488801111396
1503510456130,-0.771,-0.628,-0.036,+0.102,+0.950,-0.191,-0.147,+12.125,-21.375,-24.625,6, -3, -3, -7, -3, 0, 2, -6,-3.0274608324476238,1.3570138657929656
1503510456154,-0.775,-0.624,-0.036,+0.097,+0.972,-0.193,-0.149,+14.438,-36.750,-26.312,2, 2, -1, 10, 3, -5, -5, -12,-3.034431492315497,1.346898806310566
1503510456175,-0.779,-0.619,-0.037,+0.091,+0.954,-0.231,-0.133,+18.312,-43.000,-28.125,5, 2, -7, -3, -1, 2, -2, -9,-3.0439737128000197,1.3341658791753135
1503510456190,-0.783,-0.615,-0.037,+0.086,+0.935,-0.224,-0.170,+19.375,-33.438,-27.562,20, -12, -6, 4, -1, -1, 3, 20,-3.0510981167054045,1.3242143082687883
1503510456212,-0.785,-0.613,-0.038,+0.081,+0.969,-0.169,-0.167,+16.875,-19.125,-21.812,3, -8, -2, 2, -2, -1, -3, -9,-3.0598817179610207,1.319420152566345
1503510456235,-0.786,-0.613,-0.038,+0.078,+1.069,-0.138,-0.204,+13.000,-9.438,-12.250,-7, 8, -1, -1, -3, -1, -1, -3,-3.064725168009547,1.3197859529365152
1503510456250,-0.787,-0.611,-0.039,+0.076,+1.141,-0.120,-0.240,+13.625,-15.062,-5.250,-5, -2, -2, -5, -8, -2, -1, 32,-3.0686883384057944,1.3146536628917624
1503510456272,-0.790,-0.608,-0.039,+0.073,+1.114,-0.115,-0.174,+10.375,-28.750,-10.625,3, 11, 2, 1, 6, 4, 0, -14,-3.072927030085949,1.3072849987007695
1503510456295,-0.792,-0.606,-0.038,+0.072,+1.091,-0.112,-0.067,-0.688,-30.062,-3.375,-30, 15, 3, -2, -2, -5, -9, -37,-3.0729524256401395,1.302263361236113
1503510456310,-0.790,-0.608,-0.036,+0.077,+1.068,-0.021,-0.193,-22.812,+15.375,+26.688,-5, -3, 11, 6, 3, -1, -6, -5,-3.062887930484582,1.3068853466864903
1503510456333,-0.785,-0.613,-0.034,+0.086,+1.016,+0.073,-0.281,-34.625,+49.250,+49.000,-4, -3, 0, -2, 0, 1, 2, 0,-3.0470207956922524,1.3189328854620215
1503510456357,-0.781,-0.617,-0.033,+0.091,+1.184,+0.039,-0.260,-16.062,+33.250,+39.938,-48, -10, -5, -5, 0, -3, -4, -29,-3.038605614421612,1.328761032765211
1503510456371,-0.782,-0.616,-0.034,+0.092,+1.209,-0.111,-0.117,+1.125,-16.062,+10.375,-11, -2, 1, 2, 2, 1, 10, 48,-3.0380899608626275,1.326325107112384
1503510456393,-0.784,-0.613,-0.036,+0.091,+0.982,-0.159,-0.187,+10.625,-23.938,+2.875,-19, -9, -2, -1, -2, 1, 6, 29,-3.0414526197377474,1.318720052759361
1503510456415,-0.785,-0.612,-0.036,+0.087,+0.703,-0.180,-0.239,+17.625,-0.438,-20.000,16, -12, -9, -7, -4, -16, -10, -7,-3.047604050421573,1.3163004741196
1503510456431,-0.784,-0.615,-0.037,+0.081,+0.796,-0.216,-0.215,+24.250,+18.562,-34.188,15, 11, 4, -5, -2, 1, -3, -3,-3.0591051227269515,1.324609549415669
1503510456455,-0.782,-0.617,-0.038,+0.075,+0.882,-0.304,-0.225,+27.812,+16.938,-31.062,7, 10, 5, 3, 1, -1, -2, -27,-3.0701923527186468,1.3298324856251718
1503510456475,-0.784,-0.616,-0.040,+0.070,+0.866,-0.293,-0.214,+25.938,-8.375,-27.375,-43, -17, -9, -1, 0, 1, 7, 3,-3.080468192490569,1.3279593407889456
1503510456491,-0.785,-0.614,-0.043,+0.065,+0.778,-0.258,-0.193,+25.625,-13.438,-23.500,19, -5, 2, 49, 48, 37, 7, 2,-3.0917112117246086,1.3231556615994273
1503510456514,-0.785,-0.614,-0.045,+0.061,+0.823,-0.223,-0.121,+20.062,-2.562,-18.312,-14, 6, 0, -41, -30, -5, -6, -6,-3.1005489329199185,1.3235256686766215
1503510456535,-0.784,-0.616,-0.044,+0.060,+0.907,-0.109,-0.120,+5.312,+9.938,-10.188,-20, 2, 3, 1, -7, -6, -6, 13,-3.1012673980253496,1.3286963354456254
1503510456551,-0.784,-0.617,-0.042,+0.058,+0.937,-0.081,-0.173,-1.188,+1.375,-7.062,14, -1, 1, 2, 0, -7, -7, -13,-3.102129559877753,1.3312535128349983
1503510456573,-0.786,-0.615,-0.043,+0.057,+0.955,-0.124,-0.258,+5.375,-12.812,-3.188,34, 1, -4, 0, -2, -7, 5, 12,-3.104601021957508,1.32642196504646
1503510456595,-0.788,-0.612,-0.042,+0.057,+1.060,-0.082,-0.196,-2.812,-20.562,-3.875,-20, -5, -4, -5, -8, 8, 1, 1,-3.1028381715318107,1.3185221599116166
1503510456611,-0.790,-0.610,-0.039,+0.057,+1.056,-0.044,-0.198,-12.875,-18.062,+1.062,14, 0, 0, -9, -6, 3, 4, -23,-3.098813448447996,1.3131836656051936
1503510456640,-0.791,-0.608,-0.036,+0.060,+1.021,-0.004,-0.259,-19.875,-12.000,+8.875,8, 10, 4, 6, -3, -5, -9, -9,-3.090013816761908,1.3075271638467265
1503510456662,-0.792,-0.606,-0.033,+0.063,+1.102,+0.016,-0.230,-23.312,-11.875,+13.750,-12, 8, 19, 8, 5, 2, 9, 4,-3.081205093279144,1.3019245075303285
1503510456671,-0.793,-0.604,-0.030,+0.067,+1.122,-0.026,-0.195,-25.750,-13.062,+15.625,-3, -14, -12, -7, -1, -6, -2, 9,-3.070790636177437,1.2963599236717467
1503510456694,-0.795,-0.602,-0.027,+0.071,+1.088,-0.069,-0.188,-29.875,-17.312,+13.375,34, -6, -10, -7, -6, -12, -15, -22,-3.0604832808169418,1.2911885195404922
1503510456715,-0.796,-0.601,-0.023,+0.075,+1.011,-0.060,-0.164,-31.438,-13.875,+7.375,-71, -13, -4, -4, -1, 1, -8, -6,-3.0491418694947714,1.28847038294118
1503510456733,-0.797,-0.599,-0.018,+0.075,+0.981,-0.057,-0.196,-23.875,-12.938,-9.625,-38, 12, -2, 5, 2, 0, 6, 1,-3.0427417848301577,1.2830841452567223
1503510456753,-0.799,-0.597,-0.014,+0.074,+0.968,-0.119,-0.253,-14.500,-14.875,-19.062,54, -2, -1, 4, 2, 2, 4, -9,-3.0393494239015646,1.2781739896841753
1503510456775,-0.800,-0.595,-0.013,+0.074,+0.940,-0.212,-0.294,-10.562,-10.938,-14.125,64, 3, -4, -5, -6, -4, 5, 65,-3.0377921781419652,1.2729889463660369
1503510456791,-0.802,-0.592,-0.012,+0.075,+0.913,-0.268,-0.276,-10.000,-17.500,-14.688,-8, -2, 0, -2, -1, 3, 3, -10,-3.0345505835528215,1.2654079530685203
1503510456813,-0.804,-0.589,-0.011,+0.073,+0.852,-0.273,-0.205,-2.750,-20.438,-22.562,12, 11, 7, 13, -2, -11, -1, -5,-3.0361488129430536,1.257878822854514
1503510456835,-0.807,-0.587,-0.010,+0.069,+0.866,-0.167,-0.250,+9.438,-20.875,-28.875,-52, -2, -1, -6, 0, 5, 2, 19,-3.041462339144282,1.2535084292263625
1503510456851,-0.810,-0.583,-0.010,+0.064,+0.906,-0.111,-0.294,+12.312,-27.875,-26.375,16, -13, 3, 0, -1, -6, -4, -19,-3.049093218447655,1.2436844433594403
1503510456873,-0.814,-0.578,-0.010,+0.061,+0.930,-0.109,-0.301,+12.500,-33.875,-17.500,12, -8, -5, -5, -2, 1, 0, -18,-3.05348680039801,1.2315504678949878
1503510456895,-0.816,-0.575,-0.011,+0.060,+0.956,-0.102,-0.268,+5.250,-24.625,-3.875,80, 6, -4, -3, -3, -36, -12, 36,-3.0559284315312425,1.2241460700423878
1503510456911,-0.817,-0.574,-0.010,+0.060,+0.964,-0.015,-0.213,-7.812,-11.812,+1.375,-5, -2, -1, 2, -7, 13, 4, 0,-3.0547232015931423,1.2218141340994195
1503510456934,-0.816,-0.575,-0.007,+0.062,+0.990,+0.037,-0.214,-11.875,-0.188,+7.000,-20, -7, 0, -4, -1, -3, 6, 19,-3.048072133994074,1.2241642602154155
1503510456955,-0.816,-0.575,-0.005,+0.064,+1.060,+0.101,-0.348,-13.062,+5.438,+18.125,0, -10, -6, 8, 12, 9, 4, -13,-3.0425205118285947,1.2241966696343551
1503510456971,-0.814,-0.576,-0.002,+0.069,+1.077,+0.139,-0.356,-26.125,+14.688,+26.062,15, 10, 0, -3, 0, 1, 9, 20,-3.030768039121807,1.2262257724927381
1503510456993,-0.812,-0.579,+0.001,+0.076,+1.038,+0.146,-0.298,-28.688,+22.625,+41.000,8, 2, 0, 2, 2, 2, -1, 16,-3.0163063263915153,1.2337812845753324
1503510457015,-0.805,-0.587,+0.001,+0.085,+1.008,+0.035,-0.255,-28.562,+57.938,+56.125,-7, 1, -3, -3, -1, -4, -1, 21,-3.002399470798582,1.2530691665874467
1503510457032,-0.795,-0.599,+0.001,+0.094,+1.042,-0.082,-0.293,-22.438,+90.375,+50.500,21, -10, 0, 0, -6, -17, -10, -18,-2.9893069534135677,1.282601205126995
1503510457053,-0.787,-0.609,-0.000,+0.100,+1.099,-0.167,-0.246,-6.125,+72.938,+32.188,2, -10, -5, -1, -6, 3, -7, -11,-2.982420330424338,1.3076434978610163
1503510457075,-0.783,-0.613,-0.001,+0.103,+1.128,-0.219,-0.125,-6.688,+25.750,+15.562,8, -6, -3, -2, -2, -1, 4, 31,-2.9793120307992385,1.31747821984495
1503510457093,-0.782,-0.614,-0.001,+0.106,+0.896,-0.220,-0.119,-11.500,+6.625,+7.062,2, -4, -1, -2, -5, -4, 0, 12,-2.9747356074194253,1.3199591902186447
1503510457113,-0.780,-0.617,-0.002,+0.107,+0.736,-0.203,-0.243,-0.250,+24.875,+2.125,-3, -4, -6, -1, -4, 9, 6, -29,-2.9750295457417013,1.32768603282521
1503510457135,-0.778,-0.619,-0.006,+0.104,+0.815,-0.270,-0.312,+31.375,+25.250,-6.375,-2, -4, 0, -33, -7, -3, 4, -23,-2.9848407563556436,1.3325537002913557
1503510457151,-0.777,-0.621,-0.011,+0.099,+0.872,-0.287,-0.232,+41.688,+16.688,-21.062,12, 7, 4, 41, 15, 9, 7, -14,-2.9993311493750543,1.3378154212502145
1503510457173,-0.775,-0.625,-0.013,+0.094,+0.782,-0.207,-0.095,+29.250,+21.188,-21.562,-43, 3, -4, -10, -4, 1, -1, 15,-3.010591492140237,1.3485038442139257
1503510457195,-0.771,-0.630,-0.014,+0.091,+0.803,-0.152,-0.091,+19.250,+35.062,-10.625,1, 13, 7, -9, -1, -4, 3, 32,-3.0173912135019307,1.3614956623475611
1503510457211,-0.766,-0.636,-0.015,+0.090,+0.971,-0.121,-0.115,+9.125,+40.000,+6.625,-18, -11, -7, -19, -5, -4, -1, -23,-3.0212612838981445,1.3771366734973258
1503510457233,-0.763,-0.640,-0.017,+0.091,+1.069,-0.092,-0.152,+9.562,+33.688,+14.688,20, 6, 3, -1, 1, -6, 7, 3,-3.0230845057242477,1.3877493639278253
1503510457255,-0.761,-0.642,-0.019,+0.090,+0.964,-0.104,-0.197,+15.000,+16.188,+8.375,18, -8, -3, -28, -1, 14, 6, 0,-3.0275090300192855,1.393018471696344
1503510457271,-0.760,-0.644,-0.021,+0.091,+0.999,-0.128,-0.126,+7.938,+12.625,+10.500,-17, 1, -2, -26, -5, -7, -2, -11,-3.029065892440175,1.398535137644473
1503510457297,-0.755,-0.648,-0.022,+0.095,+1.065,-0.126,-0.038,-6.250,+29.500,+26.625,17, 4, 2, 5, -1, 2, -13, -5,-3.024825582613399,1.4088043290266468
1503510457315,-0.751,-0.653,-0.023,+0.100,+1.069,-0.086,-0.090,-13.125,+37.125,+34.062,8, 47, 25, 14, -2, 1, 7, 37,-3.019688348412352,1.4222138558174036
1503510457331,-0.748,-0.655,-0.024,+0.103,+1.024,-0.128,-0.186,-1.125,+23.250,+21.812,6, -10, -8, -9, -7, -1, -10, -10,-3.0167179536114253,1.4273702762751352
1503510457353,-0.748,-0.655,-0.026,+0.102,+1.019,-0.175,-0.136,+10.188,+5.125,+1.375,2, -10, -6, -1, 4, 1, 5, 4,-3.0208673865831406,1.427519047491505
1503510457375,-0.749,-0.654,-0.027,+0.100,+0.929,-0.229,-0.048,+11.500,-13.625,-7.688,16, -9, -12, 11, 5, -14, -11, -1,-3.0249968102861247,1.4249530924325875
1503510457391,-0.750,-0.654,-0.028,+0.099,+0.889,-0.249,-0.042,+6.688,-7.938,-11.000,2, -19, -12, 1, -5, -4, -7, 24,-3.027975201736801,1.4252350658859128
1503510457413,-0.749,-0.655,-0.029,+0.099,+0.937,-0.230,-0.095,+7.750,+9.375,-0.812,-11, -11, -6, -5, -1, 4, 8, -3,-3.0295071146961092,1.427976823065111
1503510457435,-0.748,-0.656,-0.030,+0.097,+0.947,-0.168,-0.094,+12.500,+11.250,-3.000,7, 7, 4, 55, -5, -1, 0, -20,-3.0340635630176176,1.4307452684689235
1503510457451,-0.748,-0.656,-0.030,+0.093,+0.963,-0.131,-0.081,+18.062,-5.312,-18.000,-16, 22, 16, -25, -2, -5, -3, -3,-3.0401051907644256,1.4307792659575491
1503510457473,-0.750,-0.655,-0.031,+0.088,+0.985,-0.172,-0.077,+20.875,-12.750,-17.812,8, -38, -10, -5, -1, 7, 7, -9,-3.048893326542006,1.4284476533281782
1503510457497,-0.751,-0.654,-0.033,+0.086,+0.972,-0.204,-0.093,+14.250,-12.812,-5.500,14, 15, -1, -21, -6, 1, 4, -20,-3.0543578031300718,1.42601942119617
1503510457511,-0.752,-0.653,-0.035,+0.087,+0.986,-0.202,-0.114,+8.125,-4.688,+8.375,-32, 12, -2, -1, 2, 1, 3, 6,-3.0552700481159776,1.4235814770792454
1503510457536,-0.751,-0.653,-0.037,+0.089,+1.007,-0.163,-0.117,-0.375,+5.312,+17.625,5, 38, 12, -2, 0, 0, 4, 10,-3.054786209803971,1.4236023537879556
1503510457555,-0.750,-0.654,-0.037,+0.091,+1.022,-0.111,-0.095,-4.062,+4.062,+10.938,-3, -15, -7, 6, 2, -2, -5, -18,-3.0519709477044743,1.426235558234252
1503510457571,-0.750,-0.654,-0.036,+0.090,+1.013,-0.065,-0.072,-1.250,-2.062,+1.250,-4, 2, 0, -11, -5, -2, -1, 7,-3.052165214408729,1.4261260074830777
1503510457593,-0.752,-0.653,-0.035,+0.088,+0.974,-0.112,-0.073,+2.938,-11.000,-10.438,-10, 13, 3, -1, -1, -22, -4, -7,-3.0537528860623797,1.4235710700314013
1503510457615,-0.753,-0.651,-0.031,+0.086,+1.029,-0.150,-0.075,-5.875,-14.500,-23.000,-19, 0, 11, 2, 0, 2, -5, 12,-3.051017822162835,1.4176815564953513
1503510457631,-0.755,-0.650,-0.026,+0.084,+1.021,-0.175,-0.092,-16.062,-13.438,-28.812,28, -5, -5, -7, -1, 3, -1, -4,-3.0474199763499925,1.414829565512604
1503510457653,-0.757,-0.648,-0.021,+0.082,+1.004,-0.155,+0.001,-18.562,-21.375,-35.438,-5, -12, -8, 6, 1, -1, -5, 6,-3.043589930988507,1.4092605329459058
1503510457675,-0.759,-0.646,-0.015,+0.080,+1.005,-0.035,-0.078,-20.562,-15.750,-21.062,-28, -3, 4, 1, 5, 27, 11, 6,-3.038533241776541,1.403778333464307
1503510459032,-0.809,-0.576,+0.010,+0.113,+0.903,-0.108,-0.297,-0.750,-29.500,-6.062,13, -8, -7, -3, -1, -1, 1, 3,-2.944344218750024,1.2253109457723736
1503510459055,-0.811,-0.574,+0.010,+0.113,+0.880,-0.100,-0.280,-0.875,-19.688,+3.562,-5, -6, -3, -1, -3, -8, -2, 10,-2.9443084080056785,1.2206343858437925
1503510459079,-0.812,-0.572,+0.009,+0.114,+0.895,-0.101,-0.302,+1.688,-12.500,+7.688,1, 1, 3, 4, 2, 5, 2, -16,-2.943386140834404,1.2154649569863845
1503510459092,-0.814,-0.570,+0.007,+0.115,+0.951,-0.117,-0.319,+3.125,-13.562,+8.125,-6, -11, -3, -6, -3, -1, -4, 2,-2.9439982834485767,1.2105992180970888
1503510459115,-0.815,-0.568,+0.006,+0.116,+0.956,-0.104,-0.296,+2.188,-14.938,+6.625,-2, -12, -7, -3, 0, 0, 3, 2,-2.943055396111064,1.2054536356645063
1503510459130,-0.816,-0.566,+0.005,+0.116,+0.943,-0.103,-0.275,+3.562,-17.625,+6.688,2, 17, 2, 0, -2, -3, -6, -4,-2.943715394017703,1.2003131296134166
1503510459152,-0.817,-0.564,+0.003,+0.118,+0.939,-0.145,-0.295,+2.500,-13.062,+10.625,20, -11, -2, -1, -3, -4, 2, -3,-2.9422553086353496,1.195088189689595
1503510459175,-0.818,-0.563,+0.001,+0.119,+0.969,-0.140,-0.322,+4.625,-7.938,+12.812,-12, -13, -4, -1, 1, 1, 1, -6,-2.9428396983064298,1.1925961465998582
1503510459197,-0.818,-0.563,-0.001,+0.121,+0.989,-0.151,-0.284,+5.875,-10.938,+13.000,-8, -11, -6, -4, -2, -1, -2, -6,-2.94183162410803,1.1924172830861997
1503510459220,-0.819,-0.561,-0.003,+0.122,+0.953,-0.172,-0.271,+5.500,-15.500,+9.438,12, 12, 4, 4, 1, 0, -1, 2,-2.941943019886208,1.1872276994313071
1503510459235,-0.820,-0.560,-0.006,+0.122,+0.930,-0.171,-0.312,+8.250,-11.562,+8.125,8, -12, -5, -1, -1, 0, 1, 6,-2.945226111693237,1.1847051596297875
1503510459250,-0.820,-0.559,-0.008,+0.123,+0.935,-0.174,-0.315,+10.562,-8.750,+8.188,-3, -3, -6, -3, -2, 0, -1, 3,-2.9453637895636438,1.1818438961705369
1503510459273,-0.821,-0.558,-0.011,+0.123,+0.939,-0.163,-0.320,+12.562,-8.812,+7.875,-30, -2, 3, 1, 0, -4, -3, -5,-2.9486302829047406,1.1793747188656876
1503510459294,-0.822,-0.556,-0.015,+0.122,+0.898,-0.188,-0.346,+18.375,-13.875,+4.250,14, 18, 4, 4, 2, -1, -5, -13,-2.9541727409853005,1.1741880812389032
1503510459317,-0.823,-0.554,-0.018,+0.120,+0.898,-0.190,-0.324,+16.688,-18.375,+0.938,16, -6, 2, -3, 0, 0, 1, 9,-2.960253399556209,1.1691074025023078
1503510459332,-0.825,-0.552,-0.020,+0.118,+0.865,-0.157,-0.337,+19.000,-16.375,-2.500,-22, -11, 4, 8, 1, -1, -2, -2,-2.9655945290992594,1.1645328576922778
1503510459355,-0.827,-0.550,-0.023,+0.116,+0.884,-0.162,-0.344,+20.000,-19.750,-4.875,-8, -10, -6, -3, -3, -1, 2, 4,-2.9720257383588558,1.1599807833246167
1503510459378,-0.829,-0.548,-0.025,+0.113,+0.902,-0.186,-0.370,+18.500,-15.938,-7.938,7, 6, -6, -5, 1, 1, -1, 0,-2.9790004992369257,1.1555000757011509
1503510459392,-0.831,-0.544,-0.028,+0.110,+0.936,-0.165,-0.394,+17.750,-23.875,-8.688,8, 9, 7, 0, 1, 1, -3, -1,-2.9862691785088145,1.1456532435755402
1503510459415,-0.834,-0.541,-0.029,+0.109,+0.916,-0.146,-0.335,+10.062,-30.750,-4.125,-16, 8, -3, -1, -3, -4, -3, -5,-2.9887360151720497,1.138952593707282
1503510459437,-0.836,-0.538,-0.030,+0.107,+0.873,-0.142,-0.352,+8.312,-18.125,-4.062,2, -1, -7, -7, -4, -2, -5, -8,-2.9925805439451794,1.1318505220905832
1503510459452,-0.837,-0.536,-0.030,+0.106,+0.885,-0.135,-0.425,+7.438,-9.750,-3.500,10, -5, -2, 2, -2, -2, -1, 0,-2.9937808766235086,1.1269555418883779
1503510459476,-0.838,-0.535,-0.030,+0.103,+0.923,-0.101,-0.388,+7.000,-14.062,-10.188,-9, 0, 7, 7, 4, 0, 2, -2,-2.998727278758419,1.1248111865729533
1503510459497,-0.841,-0.531,-0.030,+0.100,+0.937,-0.120,-0.387,+9.750,-24.875,-11.938,-29, -11, -9, -7, -4, -1, 0, 1,-3.0031460488660655,1.1155639496365368
1503510459513,-0.843,-0.528,-0.031,+0.098,+0.864,-0.125,-0.380,+6.938,-27.375,-8.188,3, 6, -5, -4, -2, -2, 1, 4,-3.007057711292378,1.1085576432617117
1503510459534,-0.845,-0.525,-0.031,+0.096,+0.848,-0.109,-0.437,+6.562,-12.688,-9.562,-26, -1, -3, -2, -3, -6, -3, -14,-3.0099274750888663,1.1015554631139313
1503510459557,-0.846,-0.524,-0.031,+0.094,+0.919,-0.134,-0.439,+5.688,-8.250,-8.312,-2, 14, 2, 3, 0, -3, -2, 5,-3.013236291403566,1.0994256828699565
1503510459572,-0.848,-0.521,-0.031,+0.092,+0.894,-0.158,-0.410,+7.062,-22.500,-10.000,18, 35, 4, -2, -2, -1, 1, 2,-3.016140129866095,1.092459721795274
1503510459594,-0.850,-0.518,-0.030,+0.089,+0.817,-0.114,-0.391,+5.125,-21.312,-18.500,25, 18, -3, -1, -3, -2, -1, 3,-3.0197319461449768,1.085523498685647
1503510459617,-0.850,-0.518,-0.029,+0.088,+0.892,-0.131,-0.352,-2.875,-1.500,-12.875,3, -18, -2, 0, 2, 2, -3, -1,-3.0203984188421176,1.0855292631916773
1503510459632,-0.850,-0.519,-0.027,+0.088,+0.894,-0.147,-0.398,-9.312,+2.875,-6.000,-7, -12, -6, -3, -1, -6, -4, -3,-3.018630414059827,1.088147124073319
1503510459654,-0.850,-0.519,-0.025,+0.087,+0.907,-0.116,-0.437,-9.250,+0.688,-7.938,-36, -11, 0, 0, 0, 1, 0, -6,-3.0182539598025526,1.0881494842758843
1503510459679,-0.851,-0.518,-0.023,+0.087,+0.909,-0.120,-0.460,-4.250,-5.438,-4.062,18, -6, -3, -3, 1, 2, 5, 15,-3.016123556519291,1.0859781778084179
1503510459692,-0.852,-0.516,-0.023,+0.087,+0.881,-0.125,-0.420,-1.125,-11.562,-3.438,-9, 2, 15, 13, 7, 4, -2, -5,-3.01576548933476,1.081173868624666
1503510459715,-0.852,-0.515,-0.022,+0.086,+0.885,-0.151,-0.420,-3.125,-3.750,-5.938,6, -12, -3, 1, 1, 1, 2, 7,-3.0161334177704062,1.078553550737761
1503510459730,-0.852,-0.516,-0.020,+0.087,+0.899,-0.151,-0.420,-11.188,+3.812,-6.000,0, 0, -6, -4, -6, -6, -3, -8,-3.0126709283823425,1.0811918106544565
1503510459752,-0.851,-0.517,-0.018,+0.087,+0.924,-0.144,-0.455,-12.375,+12.188,-5.188,18, 1, 3, -2, -4, -3, 0, 8,-3.0106427329739414,1.0833763653805368
1503510459774,-0.851,-0.518,-0.016,+0.088,+0.972,-0.100,-0.450,-8.000,+3.875,-2.438,17, -21, -6, 1, 0, -3, -9, -18,-3.0071863353744943,1.0860483046667266
1503510459790,-0.851,-0.518,-0.015,+0.089,+0.925,-0.075,-0.407,-9.750,+0.500,+3.562,-15, 30, 0, -3, -2, 2, 2, 4,-3.0044577061396307,1.0860615688476787
1503510459812,-0.850,-0.520,-0.012,+0.091,+0.893,-0.097,-0.411,-17.625,+13.438,+3.438,-1, -7, -4, -5, -3, 0, 0, 0,-2.9983126311133246,1.09094888101762
1503510459835,-0.848,-0.522,-0.008,+0.092,+0.966,-0.057,-0.444,-21.438,+20.688,+0.562,5, 1, 4, 2, 2, 1, -1, -4,-2.9925001850147837,1.0954655514990803
1503510459857,-0.846,-0.525,-0.005,+0.095,+0.964,-0.064,-0.398,-21.062,+16.312,+4.312,17, -2, 0, 1, 0, 0, 4, 9,-2.9846634599079422,1.1026286442329503
1503510459872,-0.845,-0.527,-0.002,+0.096,+0.904,-0.052,-0.365,-16.438,+14.938,+3.312,-9, -6, -4, -3, -1, -5, -11, -15,-2.9801917437130707,1.1076781497602501
1503510459894,-0.843,-0.529,+0.001,+0.098,+0.893,-0.089,-0.383,-14.062,+20.688,+2.625,-30, -26, -3, 0, 0, 0, 3, 8,-2.9736786922518474,1.112299501913596
1503510459918,-0.840,-0.533,+0.003,+0.101,+0.908,-0.108,-0.386,-17.562,+23.562,+5.875,-5, -2, -5, -4, -4, 1, 4, 2,-2.9668743224035765,1.1217337972437633
1503510459932,-0.838,-0.536,+0.006,+0.104,+0.902,-0.106,-0.409,-22.062,+25.500,+7.375,0, -1, -2, -4, -3, -3, -3, -2,-2.9590498193993855,1.1291329982821754
1503510459955,-0.835,-0.539,+0.009,+0.107,+0.872,-0.090,-0.352,-25.375,+27.812,+6.062,7, -4, -2, -2, -1, 0, -5, -8,-2.950816219266684,1.136140442998782
1503510459980,-0.832,-0.543,+0.014,+0.110,+0.887,-0.073,-0.293,-29.750,+29.125,+6.188,-6, 2, 0, -3, -1, 1, 1, 2,-2.940828771979255,1.1461775642565664
1503510459992,-0.829,-0.546,+0.018,+0.114,+0.863,-0.099,-0.340,-32.875,+28.438,+5.812,13, 9, 5, 2, 1, -5, -2, 6,-2.9298514588932534,1.1535323077476063
1503510460014,-0.827,-0.550,+0.024,+0.119,+0.873,-0.087,-0.393,-37.062,+33.062,+5.938,-22, -14, -7, -4, -3, 1, 3, 1,-2.9160430509529762,1.1644946855233023
1503510460037,-0.824,-0.553,+0.028,+0.121,+0.876,-0.052,-0.409,-23.938,+32.312,+4.125,-7, -22, -10, -4, -3, -1, -3, -6,-2.908312172887985,1.1720544914035256
1503510460053,-0.823,-0.554,+0.029,+0.124,+0.926,-0.098,-0.346,-12.750,+7.000,+6.375,-10, 6, 2, -6, -3, -1, 0, -4,-2.902342608375371,1.1745804908367525
1503510460074,-0.823,-0.554,+0.030,+0.125,+0.840,-0.126,-0.341,-10.812,+4.125,+3.562,-7, 0, -5, 0, 2, 8, 6, 0,-2.8996604561959254,1.17480901621081
1503510460097,-0.822,-0.554,+0.030,+0.127,+0.858,-0.128,-0.431,-1.938,+11.250,+3.438,27, 1, 8, 5, 2, 6, -4, -4,-2.8959042362370573,1.1744262356637054
1503510460114,-0.821,-0.555,+0.028,+0.127,+0.912,-0.140,-0.380,+3.375,+10.500,+4.688,-6, -7, -3, -1, 1, -1, 2, -3,-2.897999683724316,1.1762778435291554
1503510460134,-0.821,-0.556,+0.027,+0.127,+0.957,-0.115,-0.300,+7.875,+4.250,+0.750,-13, -5, 1, 2, 0, -4, -4, -6,-2.8995677042894505,1.1787727868803193
1503510460157,-0.821,-0.556,+0.025,+0.126,+0.961,-0.097,-0.303,+11.438,-3.875,+1.938,-16, -11, 2, -2, -1, -7, -6, -1,-2.9033420043984663,1.1783652910858837
1503510460172,-0.822,-0.555,+0.023,+0.125,+0.948,-0.097,-0.343,+15.188,-12.500,+2.000,0, 7, 0, -2, -2, 0, 2, 4,-2.9071722780613336,1.1757071982116316
1503510460194,-0.824,-0.553,+0.020,+0.123,+0.984,-0.105,-0.342,+17.000,-19.625,-1.062,-3, -2, -5, -5, 0, 1, 2, 1,-2.9137393496855957,1.1706187610952299
1503510460217,-0.826,-0.550,+0.018,+0.121,+0.960,-0.104,-0.332,+18.875,-21.938,-4.688,2, 7, 5, 0, 1, 1, 2, 1,-2.9187641533280555,1.1630531198564602
1503510460233,-0.828,-0.548,+0.015,+0.118,+0.953,-0.101,-0.322,+21.812,-22.250,-5.125,-15, -5, -7, -6, -5, -6, -8, 9,-2.926949998763758,1.1580475821537473
1503510460255,-0.829,-0.547,+0.011,+0.116,+0.955,-0.103,-0.333,+24.688,-15.688,+0.375,0, 1, 1, -9, 1, 4, 6, 5,-2.934548284567736,1.1552124662584415
1503510460277,-0.830,-0.546,+0.008,+0.115,+0.952,-0.105,-0.340,+21.500,-8.500,+3.250,-38, -13, -5, -9, -3, 0, -2, -13,-2.939434018976065,1.1525760837020658
1503510460293,-0.830,-0.546,+0.005,+0.114,+0.961,-0.105,-0.329,+17.562,-8.188,+4.562,1, -3, -4, 0, -1, -4, 0, -3,-2.944302131193671,1.1522180953342562
1503510460316,-0.831,-0.545,+0.002,+0.113,+0.955,-0.092,-0.337,+15.938,-8.125,+7.750,-5, 7, -3, -1, -3, -1, -2, -1,-2.9491798332664287,1.1496568564531118
1503510460337,-0.831,-0.545,-0.001,+0.113,+0.922,-0.121,-0.343,+16.062,-3.188,+9.750,-18, -5, 8, 7, -1, -2, 0, -1,-2.9524124892770196,1.1493720467715016
1503510460353,-0.830,-0.546,-0.004,+0.113,+0.915,-0.123,-0.364,+15.000,+4.875,+7.688,-18, -2, -4, -7, -2, -16, -9, 2,-2.9556685344049147,1.1513634826471877
1503510460375,-0.829,-0.548,-0.006,+0.112,+0.938,-0.143,-0.364,+15.500,+10.688,+6.750,-8, -5, -6, -4, -3, 5, -2, -4,-2.9599221599388197,1.1561653457037255
1503510460397,-0.829,-0.549,-0.009,+0.112,+0.955,-0.138,-0.352,+13.188,+0.750,+6.938,0, -8, -3, 1, 2, 6, 0, -3,-2.9635959757033614,1.1586750676845143
1503510460413,-0.829,-0.548,-0.011,+0.112,+0.911,-0.136,-0.334,+10.312,-3.812,+4.750,5, 6, 6, 2, -1, -4, 2, 2,-2.965364083396712,1.15586680218619
1503510460435,-0.828,-0.549,-0.012,+0.112,+0.876,-0.122,-0.342,+8.938,+4.812,+3.438,6, -2, -3, -4, -4, -2, 1, -1,-2.9665033383863424,1.1580752670066845
1503510460458,-0.828,-0.550,-0.013,+0.110,+0.921,-0.099,-0.354,+11.375,+4.062,+0.938,-4, -7, 5, 0, 0, 1, 1, -3,-2.971300008432487,1.1607565443097314
1503510460479,-0.828,-0.550,-0.015,+0.109,+0.911,-0.130,-0.366,+15.125,-0.562,+0.875,6, -3, -8, -1, -2, 0, -4, -3,-2.9751392128659484,1.16069517619332
1503510460502,-0.829,-0.549,-0.018,+0.108,+0.933,-0.171,-0.370,+18.062,-7.000,+2.062,7, 20, 13, 4, 0, -2, -3, 2,-2.980010951871018,1.158367248257035
1503510460520,-0.830,-0.548,-0.021,+0.107,+0.917,-0.159,-0.379,+18.375,-10.688,+5.250,7, 0, -3, -3, 0, -1, -1, -1,-2.9848725834975802,1.1560782966548309
1503510460533,-0.830,-0.546,-0.025,+0.107,+0.916,-0.196,-0.336,+12.875,-12.312,+8.062,-2, -14, -9, -3, 1, 1, 0, -5,-2.98847306574717,1.150655990752109
1503510460555,-0.831,-0.546,-0.026,+0.107,+0.919,-0.154,-0.348,+8.688,-4.688,+7.000,-5, 0, -3, 8, -3, -11, -2, -1,-2.989863161366932,1.1511129150882864
1503510460577,-0.830,-0.546,-0.028,+0.108,+0.931,-0.159,-0.327,+6.438,-0.938,+9.750,-2, 13, 0, -6, 2, 3, 2, -4,-2.9900939575965624,1.1506617082672959
1503510460593,-0.830,-0.546,-0.029,+0.109,+0.925,-0.155,-0.336,+3.125,-1.500,+10.312,26, -7, -10, -3, -1, 1, 2, 4,-2.9895241463029545,1.1506539233215105
1503510460614,-0.829,-0.547,-0.030,+0.110,+0.887,-0.154,-0.324,+0.375,+4.688,+7.812,-12, 1, -5, -2, -4, -2, -3, -7,-2.989060728540911,1.1529086266740893
1503510460637,-0.828,-0.549,-0.030,+0.112,+0.912,-0.151,-0.326,-4.250,+11.062,+6.000,-11, -5, -2, -3, -1, 2, 0, -3,-2.9862459553698693,1.1578395822989733
1503510460653,-0.826,-0.551,-0.028,+0.113,+0.925,-0.165,-0.316,-8.500,+15.562,+2.125,5, -2, 2, 2, -2, 4, 1, 3,-2.982596902764767,1.1623267081960302
1503510460674,-0.825,-0.553,-0.026,+0.114,+0.936,-0.149,-0.315,-14.250,+13.125,+0.000,14, 4, 9, -8, -1, -2, -2, 0,-2.9792462458818747,1.1672840991347264
1503510460697,-0.824,-0.554,-0.023,+0.116,+0.917,-0.138,-0.325,-17.625,+11.250,-1.750,0, 9, 6, -2, -3, 1, 0, 4,-2.972721752576712,1.1695266158302318
1503510460712,-0.823,-0.555,-0.019,+0.117,+0.908,-0.126,-0.334,-19.125,+9.875,-5.250,-14, 8, -5, 2, 2, 0, 0, -4,-2.9667300512861634,1.1718480860334475
1503510460734,-0.823,-0.556,-0.015,+0.118,+0.900,-0.143,-0.308,-22.062,+10.062,-6.812,-9, -3, 2, 3, 1, -2, -2, 1,-2.961090895891569,1.1746696971761688
1503510460757,-0.822,-0.557,-0.010,+0.119,+0.896,-0.141,-0.332,-24.812,+12.000,-8.625,-8, -7, 5, 5, 3, -2, -3, -4,-2.953988157480305,1.177173180979357
1503510460772,-0.821,-0.558,-0.005,+0.120,+0.905,-0.134,-0.344,-26.938,+10.500,-11.000,-3, -5, -8, -7, -1, 2, 1, 1,-2.9468747155685526,1.1797758993343046
1503510460794,-0.820,-0.559,+0.000,+0.121,+0.904,-0.131,-0.329,-28.750,+10.438,-11.500,8, -6, -18, -17, -4, -1, -3, 6,-2.9397515338437867,1.1824777785166487
1503510460819,-0.819,-0.560,+0.006,+0.122,+0.914,-0.129,-0.330,-28.438,+13.250,-12.250,7, -3, 4, -1, -2, 1, -2, -5,-2.9315134384203625,1.185391854759418
1503510460833,-0.818,-0.561,+0.011,+0.124,+0.897,-0.097,-0.360,-25.625,+15.312,-9.250,-4, 3, -1, 1, 1, -2, -1, -4,-2.92276243190081,1.1883188679591763
1503510460855,-0.817,-0.562,+0.015,+0.126,+0.908,-0.134,-0.331,-26.125,+16.375,-5.438,-19, -4, -1, 4, -2, 1, 2, -5,-2.9151206688378264,1.1912001347528505
1503510460877,-0.815,-0.565,+0.019,+0.128,+0.927,-0.111,-0.329,-24.625,+22.688,-2.188,-3, -4, -2, 1, -2, 0, 1, 2,-2.9079515446882658,1.199164774002723
1503510460893,-0.813,-0.568,+0.022,+0.130,+0.954,-0.125,-0.295,-18.625,+20.938,+1.875,1, -4, 1, 0, 0, -2, -3, -4,-2.9018995409663244,1.2070339704469109
1503510460914,-0.812,-0.569,+0.023,+0.131,+0.990,-0.101,-0.372,-7.625,+15.000,+3.000,0, 7, 1, 3, 2, 1, -2, 1,-2.899181875030527,1.2095401750290506
1503510460937,-0.811,-0.569,+0.023,+0.131,+0.969,-0.116,-0.353,-0.562,+4.438,+2.688,-1, -7, -2, -2, -1, 1, 1, 1,-2.8986528522102253,1.2091351928077965
1503510460953,-0.811,-0.570,+0.022,+0.133,+0.972,-0.126,-0.308,+2.125,+4.062,+8.062,4, 5, 4, 3, -1, -1, 3, -1,-2.8971059726728665,1.2117100219774388
1503510460974,-0.809,-0.573,+0.021,+0.134,+0.963,-0.114,-0.273,+4.125,+15.125,+15.125,-2, -6, -1, -1, 0, -4, -3, -7,-2.897127716005413,1.2189219803108131
1503510460997,-0.806,-0.576,+0.019,+0.136,+0.977,-0.104,-0.289,+6.000,+22.000,+19.875,-10, -10, -3, -2, -1, 0, -1, -1,-2.8962093395404387,1.225618920077307
1503510461013,-0.803,-0.579,+0.016,+0.138,+0.994,-0.122,-0.277,+6.938,+20.250,+22.562,6, 0, -4, -3, -2, -1, -3, 3,-2.8964855765906234,1.2322114472320937
1503510461035,-0.801,-0.582,+0.014,+0.140,+0.983,-0.126,-0.266,+7.812,+19.562,+20.312,1, -3, -1, 0, 0, 1, 0, 0,-2.896208913652737,1.2394019052153178
1503510461057,-0.798,-0.586,+0.012,+0.142,+0.950,-0.116,-0.255,+8.125,+22.375,+16.375,7, 0, -4, -2, -2, -1, 1, 4,-2.8960300054385733,1.2490150908067075
1503510461073,-0.795,-0.590,+0.010,+0.143,+0.939,-0.125,-0.231,+8.000,+27.125,+15.688,26, 2, 1, 1, -1, 0, 0, 4,-2.8974889537828354,1.2586921045398962
1503510461096,-0.791,-0.594,+0.009,+0.144,+0.948,-0.147,-0.219,+7.062,+32.188,+12.000,-8, 0, -1, -3, 2, -3, -1, -2,-2.8973600615243837,1.2682041891530655
1503510461117,-0.788,-0.599,+0.009,+0.144,+0.952,-0.128,-0.235,+4.500,+33.562,+9.812,-7, 4, 8, 4, 0, -3, -1, -2,-2.898720626572453,1.2810352762398134
1503510461133,-0.785,-0.603,+0.009,+0.145,+0.952,-0.132,-0.235,+1.000,+28.625,+8.375,20, 0, 0, 2, 1, 2, 0, 2,-2.898000243197548,1.2911476627002874
1503510461155,-0.782,-0.605,+0.009,+0.146,+0.950,-0.156,-0.214,-2.062,+20.562,+2.000,-2, -9, -2, 0, -1, -4, 0, -2,-2.8961612394276335,1.2957261879093411
1503510461177,-0.781,-0.607,+0.010,+0.146,+0.959,-0.146,-0.221,-2.875,+13.812,-2.750,-21, 45, 5, -6, 0, -1, 2, -1,-2.895643363311673,1.301099049814961
1503510461193,-0.781,-0.608,+0.011,+0.145,+0.945,-0.136,-0.247,+0.688,+5.562,-4.812,26, -14, -1, -4, 1, 0, -1, 2,-2.896561499162061,1.304005169057996
1503510461215,-0.781,-0.607,+0.011,+0.143,+0.933,-0.158,-0.225,+4.312,-1.375,-9.562,-1, 15, 2, -1, -2, -1, -1, -1,-2.899059851727409,1.3012010805829444
1503510461237,-0.782,-0.606,+0.012,+0.142,+0.930,-0.175,-0.212,+3.438,-6.562,-12.875,12, -5, -6, -1, -2, -4, -3, 2,-2.899316904569396,1.298854228391463
1503510461254,-0.783,-0.606,+0.013,+0.140,+0.933,-0.178,-0.183,-0.125,-3.812,-13.750,-10, -7, 0, 5, -1, -1, -2, -2,-2.9016821293999846,1.2992951659310807
1503510461275,-0.783,-0.607,+0.014,+0.139,+0.931,-0.151,-0.201,-2.750,+3.688,-10.375,-12, -12, -7, -3, -2, -1, 1, -2,-2.9025831280819205,1.3022010809540872
1503510461297,-0.783,-0.607,+0.016,+0.138,+0.955,-0.142,-0.214,-1.000,+3.062,-9.500,16, -14, 0, 5, 1, -2, -2, -1,-2.9017384173324494,1.3024582995677116
1503510461313,-0.783,-0.606,+0.016,+0.137,+0.979,-0.167,-0.230,+1.688,-6.125,-11.875,-11, 18, 0, 0, 0, 0, 0, -2,-2.902725478756054,1.2996662018365455
1503510461335,-0.785,-0.604,+0.016,+0.135,+0.990,-0.172,-0.225,+3.250,-16.125,-12.000,-6, -18, -5, 0, 0, 0, -3, -3,-2.905675892035344,1.294745304105286
1503510461357,-0.787,-0.602,+0.016,+0.134,+0.964,-0.165,-0.221,+5.562,-18.062,-8.688,-13, -3, 2, 1, -1, -2, -1, 1,-2.9070989596370143,1.2898500518233942
1503510461373,-0.788,-0.601,+0.014,+0.133,+0.958,-0.188,-0.188,+7.812,-13.438,-2.312,-1, -7, -1, -4, -3, -3, 0, 1,-2.9109498819656543,1.2871377476038206
1503510461395,-0.788,-0.600,+0.012,+0.134,+0.971,-0.191,-0.196,+6.750,-5.938,+6.250,15, 7, 2, -1, 0, 0, 0, 1,-2.9112336243723287,1.2841159641024154
1503510461417,-0.788,-0.601,+0.010,+0.135,+0.994,-0.166,-0.208,+5.188,+0.375,+14.562,17, -2, -3, -1, -2, -2, -2, -4,-2.9125780819650737,1.2866618616973862
1503510461440,-0.787,-0.601,+0.007,+0.137,+1.000,-0.180,-0.223,+6.875,+0.812,+17.812,-1, 2, 2, 2, -1, 0, -1, 0,-2.9125718867099666,1.2859996222543202
1503510461457,-0.787,-0.602,+0.004,+0.139,+1.007,-0.177,-0.215,+10.375,-2.000,+20.562,-7, -3, 0, 0, 0, -1, -3, -1,-2.913567154809283,1.2884916495287246
1503510461477,-0.787,-0.601,-0.001,+0.140,+0.999,-0.173,-0.214,+14.750,-7.562,+21.312,-9, -22, -7, -3, -1, 0, -1, -11,-2.9174067277980047,1.2852795611616463
1503510461494,-0.787,-0.601,-0.005,+0.141,+0.984,-0.175,-0.208,+16.312,-9.250,+20.125,-8, 2, 1, 1, -1, 0, -1, 2,-2.92060750949599,1.2850030630780107
1503510461516,-0.787,-0.600,-0.009,+0.142,+0.951,-0.172,-0.208,+12.562,-6.938,+18.000,-2, 5, 0, -2, -3, 0, -1, 2,-2.923266537403754,1.2819864477340357
1503510461537,-0.787,-0.601,-0.011,+0.143,+0.962,-0.158,-0.192,+9.812,-1.812,+12.625,3, 6, 2, -2, -2, -1, -1, 0,-2.9246362952251124,1.2846925159968827
1503510461553,-0.786,-0.601,-0.012,+0.143,+0.964,-0.159,-0.210,+7.000,-0.375,+6.125,7, 9, 3, -3, -2, -3, -1, 3,-2.9254273822523618,1.2843095606848727
1503510461575,-0.787,-0.601,-0.013,+0.142,+0.963,-0.143,-0.219,+5.688,-3.875,-0.188,12, 3, 2, 1, -1, 0, -2, -1,-2.928586769180095,1.284629401645483
1503510461597,-0.788,-0.600,-0.013,+0.140,+0.953,-0.167,-0.230,+5.625,-9.375,-6.562,-3, 5, -1, -2, -2, 0, 0, 2,-2.9315719289976627,1.2821917695214633
1503510461614,-0.789,-0.598,-0.013,+0.139,+0.925,-0.181,-0.230,+5.438,-10.375,-7.812,-3, 8, 0, 0, -1, -1, -1, 0,-2.932465467389229,1.2769550228939552
1503510461635,-0.790,-0.597,-0.013,+0.138,+0.921,-0.198,-0.244,+4.875,-9.250,-6.188,0, 3, -3, -2, -2, -1, -1, -2,-2.933898728371037,1.2745211250568518
1503510461660,-0.791,-0.596,-0.014,+0.137,+0.920,-0.201,-0.263,+5.125,-6.625,-3.688,-6, -4, -5, 1, -3, -1, -1, -4,-2.936523880947298,1.2720621393363745
1503510461673,-0.792,-0.595,-0.015,+0.136,+0.940,-0.197,-0.262,+6.438,-6.750,-2.500,7, 0, -6, -3, 0, -1, 1, 2,-2.9391493007242473,1.2696113214005775
1503510461696,-0.793,-0.594,-0.016,+0.135,+0.956,-0.181,-0.237,+7.500,-11.812,-0.750,2, -13, -2, -2, -2, 0, -2, -1,-2.9417748885276755,1.2671686810299294
1503510461717,-0.794,-0.593,-0.018,+0.135,+0.947,-0.191,-0.239,+8.125,-11.250,+5.438,-4, -4, 2, 0, 1, 1, 0, -1,-2.9439996419476415,1.2647089345425142
1503510461733,-0.794,-0.592,-0.020,+0.137,+0.938,-0.209,-0.253,+8.188,-3.062,+13.125,-19, -3, 3, 2, 1, -1, -2, -4,-2.9426819664012065,1.2618750041578743
1503510461762,-0.793,-0.593,-0.023,+0.138,+0.962,-0.213,-0.267,+10.188,+2.188,+15.625,-8, -5, -4, 1, 0, -1, 0, -6,-2.944806711862478,1.2642855761155647
1503510461784,-0.793,-0.592,-0.026,+0.138,+0.993,-0.196,-0.253,+13.375,-4.250,+14.750,11, 1, 4, 0, -1, -1, 0, 0,-2.947852009776883,1.2615174496914485
1503510461793,-0.794,-0.591,-0.030,+0.138,+0.973,-0.203,-0.247,+14.938,-14.000,+12.188,-12, 0, -3, -3, 1, 0, -2, -2,-2.952431238539944,1.259178350275977
1503510461815,-0.795,-0.589,-0.033,+0.138,+0.935,-0.210,-0.233,+13.250,-16.188,+9.812,3, -6, -1, -3, 0, 1, -1, 1,-2.955295618586799,1.2540557979224938
1503510461837,-0.796,-0.588,-0.035,+0.138,+0.945,-0.200,-0.226,+9.438,-11.000,+6.625,-26, -8, -2, -1, -3, -3, -3, 1,-2.957478330816849,1.2517196754757318
1503510461853,-0.797,-0.588,-0.036,+0.138,+0.945,-0.199,-0.223,+6.125,-7.938,+3.000,-4, -11, -7, -4, -3, -1, -1, 0,-2.9589791623489554,1.2521468710323915
1503510461875,-0.797,-0.587,-0.036,+0.137,+0.945,-0.206,-0.240,+4.438,-3.562,-1.688,9, 8, 4, 0, 0, -1, -2, -2,-2.9600758723174225,1.2493711429981582
1503510461897,-0.797,-0.588,-0.036,+0.136,+0.953,-0.210,-0.248,+3.875,+0.312,-3.750,-11, 4, 2, -1, -2, 1, 0, 1,-2.962186002959265,1.2521930634868417
1503510461913,-0.796,-0.588,-0.036,+0.135,+0.949,-0.203,-0.259,+3.938,+2.875,-3.812,3, 1, -5, 0, -1, -2, 0, -4,-2.9634851667462674,1.2518385904026645
1503510461936,-0.796,-0.589,-0.036,+0.134,+0.932,-0.207,-0.254,+4.750,+2.562,-3.750,-18, -18, 0, -2, -3, -2, -1, 0,-2.9655900906371104,1.2546622170923263
1503510461961,-0.796,-0.590,-0.036,+0.134,+0.943,-0.216,-0.247,+2.625,+5.250,-5.062,7, -11, -6, -1, 1, 3, 2, 3,-2.9660845010952186,1.257462118872627
1503510461973,-0.795,-0.591,-0.035,+0.133,+0.929,-0.202,-0.248,-3.188,+8.500,-4.562,2, -17, 2, 3, 2, -1, 0, 3,-2.9666914727912674,1.259859142445387
1503510461996,-0.794,-0.592,-0.033,+0.133,+0.923,-0.205,-0.232,-7.688,+9.562,-6.312,-6, 6, 3, -2, 0, -2, 0, -1,-2.9644989255691407,1.26219221601078
1503510462017,-0.793,-0.594,-0.031,+0.134,+0.929,-0.191,-0.234,-10.312,+11.500,-6.938,3, -10, -7, -4, -2, -1, -1, 4,-2.9611988039815857,1.2673252044613177
1503510462033,-0.792,-0.595,-0.028,+0.134,+0.938,-0.193,-0.267,-10.875,+14.750,-7.000,-11, -4, 0, -1, -1, 0, 1, -3,-2.9577980912899506,1.269664371009213
1503510462056,-0.791,-0.596,-0.025,+0.134,+0.929,-0.213,-0.263,-12.750,+12.125,-8.750,-15, 0, 1, 2, -2, -1, -3, -7,-2.954385559093566,1.272038754622232
1503510462077,-0.791,-0.597,-0.022,+0.134,+0.941,-0.176,-0.252,-13.000,+10.812,-11.062,9, -2, 2, 1, 1, 0, -1, -2,-2.9513035649809995,1.2748037382523756
1503510462099,-0.790,-0.598,-0.019,+0.133,+0.931,-0.167,-0.264,-8.750,+8.875,-12.875,-7, 6, 7, 0, -1, 0, -2, -3,-2.9494579566806634,1.2772574032038684
1503510462115,-0.790,-0.599,-0.017,+0.132,+0.958,-0.168,-0.278,-5.250,+9.500,-11.812,-6, 26, 6, 0, 0, 0, -1, -4,-2.949146423533803,1.2800795382999588
1503510462137,-0.790,-0.599,-0.015,+0.132,+0.973,-0.176,-0.291,-0.875,+6.938,-7.562,-3, 0, -6, -5, -1, 0, -1, 1,-2.9467574515207153,1.2801087296800597
1503510462162,-0.790,-0.599,-0.016,+0.131,+0.976,-0.189,-0.280,+4.438,-2.062,-2.312,-20, 15, 6, 1, -1, -2, -1, -1,-2.949527509433968,1.2801015157343179
1503510462175,-0.791,-0.598,-0.017,+0.131,+0.970,-0.187,-0.257,+7.750,-6.250,+3.375,24, 5, 3, -2, -1, -3, -1, -1,-2.9505757982444325,1.2776456093747854
1503510462198,-0.790,-0.598,-0.019,+0.131,+0.964,-0.191,-0.233,+7.500,-0.438,+9.812,-3, -5, 1, 1, -1, -4, -2, -4,-2.9526203111739084,1.277279799579165
1503510462213,-0.789,-0.599,-0.021,+0.133,+0.952,-0.185,-0.230,+5.938,+6.312,+14.562,10, 19, 5, -1, 1, -1, 2, 6,-2.952012961040413,1.279705515473275
1503510462237,-0.788,-0.600,-0.023,+0.134,+0.957,-0.172,-0.234,+4.250,+6.750,+14.125,-11, -5, -5, -3, -1, 2, 0, -2,-2.953002752109162,1.2821630488900393
1503510462257,-0.788,-0.600,-0.024,+0.136,+0.965,-0.170,-0.239,+1.438,+2.562,+11.500,8, -12, -8, -2, 1, -1, 0, 1,-2.9510454680285245,1.2821492695429382
1503510462273,-0.788,-0.600,-0.024,+0.136,+0.946,-0.155,-0.227,-0.938,+2.188,+6.312,-3, -3, 1, -2, -1, -1, -3, -3,-2.9510454680285245,1.2821492695429382
1503510462296,-0.787,-0.602,-0.023,+0.137,+0.923,-0.146,-0.217,-4.250,+9.250,+0.062,-23, 0, 3, 0, 0, 0, -3, -6,-2.9489548567868247,1.2873900775892289
1503510462317,-0.786,-0.603,-0.020,+0.136,+0.921,-0.151,-0.219,-7.188,+14.625,-7.062,9, 1, -2, -2, 0, 0, -1, 1,-2.947084935996286,1.2898470148810788
1503510462339,-0.785,-0.605,-0.017,+0.135,+0.961,-0.177,-0.209,-8.375,+12.438,-16.250,10, -4, -2, -1, -1, -2, 0, 2,-2.9457128847399674,1.2951416774530404
1503510462355,-0.785,-0.606,-0.012,+0.133,+0.953,-0.145,-0.233,-12.438,+6.812,-22.438,8, -2, -3, -2, -3, 1, 1, 1,-2.9433205561456104,1.2980456591436036
1503510462377,-0.785,-0.605,-0.007,+0.131,+0.923,-0.116,-0.231,-13.875,-0.062,-25.500,1, 3, -3, -1, -1, -1, 0, -2,-2.939913995441641,1.2954342695628696
1503510462399,-0.786,-0.604,-0.003,+0.129,+0.947,-0.143,-0.256,-11.375,-1.000,-25.438,5, -7, 2, 2, 2, -1, 0, -2,-2.9381087568506024,1.2931898185185906
1503510462415,-0.787,-0.604,+0.000,+0.127,+0.967,-0.134,-0.255,-9.625,+3.938,-18.688,16, -4, 1, -1, 2, -1, -2, 2,-2.9380247097190577,1.293721858988192
1503510462439,-0.787,-0.604,+0.002,+0.127,+0.995,-0.159,-0.268,-4.250,-0.500,-7.875,14, -10, 2, 1, -3, 0, 2, 5,-2.9356329503390866,1.2938701627897675
1503510462459,-0.788,-0.602,+0.001,+0.127,+0.996,-0.199,-0.276,+2.250,-12.312,+1.312,-21, -28, 0, 1, 0, 0, -3, -8,-2.936235930128341,1.2885600360006533
1503510462475,-0.790,-0.600,-0.002,+0.128,+0.980,-0.214,-0.237,+5.500,-19.188,+9.250,24, 36, 23, 3, 0, -2, 1, 6,-2.9380474025761845,1.2834640454224415
1503510462498,-0.791,-0.598,-0.005,+0.130,+0.980,-0.216,-0.200,+4.562,-12.438,+15.500,-2, -4, -10, -4, -1, 0, -1, -2,-2.9378723275546004,1.278057012056941
1503510462519,-0.790,-0.599,-0.007,+0.133,+0.984,-0.225,-0.195,+1.000,+1.625,+18.688,-9, 16, 1, 0, -2, 0, -1, -2,-2.9356562527833123,1.2803765997850585
1503510462536,-0.788,-0.601,-0.009,+0.136,+0.995,-0.199,-0.176,-2.750,+8.688,+19.062,1, 1, -2, -2, -1, -3, 0, -2,-2.9335904587877133,1.2851591551098116
1503510462558,-0.786,-0.603,-0.009,+0.138,+0.993,-0.175,-0.173,-2.500,+9.312,+13.938,-9, 1, -5, 1, -4, -2, -4, -3,-2.930732126177964,1.290057002669555
1503510462579,-0.785,-0.604,-0.010,+0.139,+0.979,-0.181,-0.176,-0.562,+5.875,+5.250,-8, -5, -5, -3, -1, 0, 1, 0,-2.9305096840926437,1.2924720827874239
1503510462599,-0.784,-0.605,-0.009,+0.138,+0.971,-0.175,-0.192,+0.562,+5.250,-4.625,0, -3, -4, -1, 0, -2, -1, -1,-2.9310087142720693,1.294982599996875
1503510462617,-0.784,-0.606,-0.008,+0.137,+0.941,-0.167,-0.205,+0.062,+7.125,-10.312,2, 4, -1, -2, -1, -2, 0, 0,-2.931893672418991,1.2978311322494487
1503510462633,-0.783,-0.607,-0.006,+0.135,+0.930,-0.183,-0.208,-0.438,+5.562,-14.812,-7, 4, 1, -3, -2, -1, -2, -6,-2.9327315276111268,1.300402310788042
1503510462656,-0.783,-0.607,-0.004,+0.133,+0.951,-0.177,-0.214,-1.625,+5.125,-17.750,11, 15, 9, 0, 0, 0, 0, 2,-2.9334311953466194,1.3005139222656805
1503510462678,-0.783,-0.608,-0.001,+0.131,+0.937,-0.148,-0.222,-3.312,+7.188,-18.438,0, -6, -8, -3, -1, -1, 1, 2,-2.9334364178789825,1.3034981138542847
1503510462693,-0.782,-0.609,+0.000,+0.130,+0.920,-0.155,-0.218,-1.312,+11.625,-13.562,2, -2, -5, 1, -1, -2, -2, -3,-2.933895849137393,1.3060382398010897
1503510462716,-0.781,-0.611,+0.001,+0.129,+0.937,-0.172,-0.226,+0.625,+14.375,-8.188,6, 8, 4, -4, -3, -2, -2, 7,-2.934856559835351,1.3113822193301818
1503510462738,-0.780,-0.613,+0.002,+0.128,+0.985,-0.176,-0.208,+0.188,+14.250,-4.125,-9, -17, -8, 0, 1, 1, 0, -7,-2.935806431501287,1.3167336559760785
1503510462753,-0.778,-0.615,+0.002,+0.129,+0.995,-0.181,-0.174,-0.312,+12.812,+2.188,9, 7, -3, 0, -1, 1, 3, 9,-2.934491296789033,1.3217149372662296
1503510462776,-0.776,-0.617,+0.001,+0.130,+1.000,-0.216,-0.151,+3.250,+13.312,+6.625,-31, -14, -2, 0, 0, -1, -2, -8,-2.9344113401704632,1.3266441999186693
1503510462799,-0.773,-0.620,-0.002,+0.131,+1.014,-0.253,-0.142,+6.500,+16.938,+11.375,26, -11, 0, 1, -1, -2, -1, 3,-2.936950843760015,1.3339953205796382
1503510462819,-0.770,-0.624,-0.004,+0.133,+1.028,-0.255,-0.125,+5.875,+19.938,+14.938,-20, 7, 3, -1, -1, 1, 0, -2,-2.9373107130032357,1.3442927087287748
1503510462837,-0.767,-0.628,-0.008,+0.136,+0.992,-0.252,-0.117,+6.688,+25.625,+21.312,-15, -6, -3, -2, -1, 0, -3, -3,-2.9387180792322267,1.35459805967001
1503510462858,-0.762,-0.633,-0.012,+0.139,+0.972,-0.286,-0.081,+10.562,+34.812,+27.438,-8, -1, -2, -1, -2, -2, -1, -4,-2.9400945006559507,1.3673442356963674
1503510462880,-0.756,-0.639,-0.016,+0.141,+0.990,-0.301,-0.065,+13.188,+40.625,+23.500,-1, -1, -2, 0, 0, 1, 0, 3,-2.9433944996454846,1.3829025452461554
1503510462895,-0.751,-0.645,-0.018,+0.142,+0.992,-0.241,-0.057,+12.812,+38.625,+13.062,-18, 3, -1, 2, 1, -1, -4, -16,-2.9461472652443113,1.3989018273491391
1503510462918,-0.746,-0.651,-0.021,+0.142,+0.966,-0.235,-0.066,+16.062,+39.562,+7.125,33, 0, -5, -2, -1, -1, -1, -1,-2.951820512224807,1.415108484517246
1503510462940,-0.741,-0.657,-0.023,+0.141,+0.954,-0.262,-0.068,+17.688,+41.688,+4.500,-3, -3, -4, -2, -1, 0, -1, -16,-2.957786200327215,1.4314593740989916
1503510462956,-0.736,-0.662,-0.025,+0.140,+0.971,-0.271,-0.069,+19.000,+40.125,+2.062,2, 2, 4, 1, 1, 0, 2, 5,-2.9632962878500106,1.4450890009482946
1503510462978,-0.731,-0.668,-0.026,+0.139,+0.959,-0.278,-0.058,+14.750,+42.062,+1.312,3, 6, 8, -2, -1, -1, 2, 6,-2.968067121619489,1.4616778286651337
1503510463001,-0.725,-0.674,-0.027,+0.138,+0.955,-0.275,-0.029,+12.562,+45.188,+1.688,-6, -12, -2, 0, -1, 0, -2, -3,-2.9726581032663724,1.4782735111312892
1503510463015,-0.720,-0.680,-0.027,+0.138,+0.945,-0.226,-0.030,+7.000,+49.625,+0.750,-7, -6, -6, -2, 0, -1, 0, -6,-2.9746906567768563,1.4950555637205225
1503510463039,-0.714,-0.686,-0.026,+0.137,+0.953,-0.180,-0.016,+6.250,+50.812,-5.875,-3, 4, 10, 0, -1, 0, -2, -3,-2.9766127620025755,1.5117832357728074
1503510463060,-0.709,-0.692,-0.024,+0.135,+0.989,-0.160,+0.014,+5.938,+46.188,-9.500,14, 8, 0, 1, 1, 0, 4, 22,-2.9787694852180557,1.5286372717131362
1503510463075,-0.704,-0.697,-0.022,+0.132,+1.058,-0.135,-0.015,+9.062,+42.750,-7.750,-15, 12, 18, 4, 1, 0, -2, 1,-2.9817912717971944,1.5427031670389872
1503510463098,-0.701,-0.701,-0.021,+0.130,+1.029,-0.119,-0.068,+12.438,+36.125,-2.625,8, -5, -10, 1, -1, 0, 0, 3,-2.9846328917492504,1.5541036189132793
1503510463120,-0.698,-0.705,-0.022,+0.127,+0.993,-0.103,-0.024,+16.812,+31.312,-1.000,2, 4, 0, -1, 1, 0, 0, -9,-2.9916896800590234,1.5657053829089367
1503510463136,-0.695,-0.708,-0.022,+0.124,+0.992,-0.126,+0.003,+20.562,+25.750,-5.750,5, 2, 2, 1, 1, 0, -2, -2,-2.996823583980024,1.5743685284183406
1503510463158,-0.693,-0.710,-0.022,+0.120,+1.028,-0.142,+0.033,+18.562,+20.250,-12.562,10, 3, -1, -2, -1, -2, 1, 6,-3.003041178427867,1.5801628155790497
1503510463180,-0.693,-0.711,-0.020,+0.116,+1.038,-0.074,+0.010,+12.500,+7.500,-14.438,4, 4, 0, -3, 0, 0, -1, 1,-3.0062132110012305,1.5828694835931834
1503510463195,-0.693,-0.712,-0.019,+0.113,+0.980,-0.027,+0.009,+9.562,+8.812,-7.250,7, 1, -4, -3, -1, -1, -1, -2,-3.009400249404404,1.5856648849103612
1503510463218,-0.692,-0.714,-0.018,+0.110,+0.958,-0.037,+0.024,+10.812,+14.188,-5.500,-17, -13, -3, -1, -1, -1, 1, 3,-3.0128364819875504,1.591358020104154
1503510463241,-0.690,-0.716,-0.017,+0.107,+0.991,-0.079,+0.055,+9.625,+15.438,-9.188,12, 3, -3, 0, 1, -1, -1, 11,-3.016102630905468,1.5970894284416417
1503510463256,-0.689,-0.717,-0.016,+0.104,+0.992,-0.087,+0.082,+7.250,+11.812,-9.625,-8, -3, -3, 0, -1, 1, -2, -13,-3.0190857105644366,1.5999239231216191
1503510463278,-0.688,-0.718,-0.014,+0.102,+0.975,-0.103,+0.064,+3.375,+7.250,-15.688,25, 10, -1, -1, -2, -1, -2, 3,-3.019221001980714,1.602700650193985
1503510463300,-0.689,-0.718,-0.009,+0.099,+0.988,-0.083,+0.076,-4.500,+0.375,-24.625,-26, -1, 1, -2, -2, -1, 3, -5,-3.016297078570156,1.6023869729184501
1503510463315,-0.690,-0.717,-0.004,+0.097,+1.010,-0.053,+0.063,-11.625,-3.188,-25.188,-53, -5, 0, -1, -1, 0, -4, -22,-3.011640782137215,1.5993214655119923
1503510463339,-0.690,-0.718,+0.001,+0.096,+1.020,-0.016,+0.083,-15.812,+2.438,-15.188,-10, -4, -4, -2, -2, -1, 1, -12,-3.0062279662784057,1.6021170572138248
1503510463360,-0.690,-0.717,+0.005,+0.097,+1.033,-0.004,+0.074,-19.375,+2.375,-4.250,0, 6, 3, 2, -2, -4, 1, 15,-2.9987201115654596,1.599289365766338
1503510463375,-0.690,-0.717,+0.009,+0.099,+1.046,-0.012,+0.083,-26.312,+0.938,+0.688,-9, -8, 5, 1, 0, 0, -2, -2,-2.990240322634839,1.599378935258636
1503510463398,-0.690,-0.716,+0.013,+0.103,+1.059,-0.053,+0.056,-32.375,-0.062,+6.625,3, 2, -1, -1, -2, -2, -3, -6,-2.9785973698569927,1.5966798136098788
1503510463420,-0.690,-0.715,+0.015,+0.108,+1.044,-0.062,+0.048,-33.000,-4.375,+15.188,-26, -13, -4, 0, -1, -2, 0, 1,-2.968420407790601,1.5939249169544294
1503510463437,-0.691,-0.714,+0.017,+0.115,+1.020,-0.115,+0.060,-33.438,-7.812,+22.250,-24, -4, 3, -1, -2, -2, -2, 1,-2.9557717899844755,1.5911537191706642
1503510463457,-0.691,-0.712,+0.018,+0.122,+0.992,-0.180,+0.072,-34.562,-6.125,+22.812,-8, -2, 3, -1, 0, 0, 2, 15,-2.9437346532699165,1.585502220217146
1503510463479,-0.690,-0.712,+0.018,+0.130,+0.963,-0.229,+0.098,-33.625,-2.188,+22.188,3, 0, -1, 0, -1, 1, 3, 6,-2.9324664574886747,1.5855191395906443
1503510463494,-0.689,-0.712,+0.018,+0.138,+0.952,-0.270,+0.107,-33.188,+1.312,+24.062,12, -4, 8, 1, 1, -1, -5, -8,-2.9212202654930843,1.5855360979382014
1503510463517,-0.687,-0.712,+0.019,+0.145,+0.950,-0.269,+0.113,-31.375,+2.375,+21.062,1, -6, -1, -1, -2, -4, -2, -6,-2.909596830041093,1.5856458447948851
1503510463540,-0.685,-0.712,+0.019,+0.150,+0.936,-0.282,+0.115,-24.500,+4.125,+14.875,-24, 49, 21, 2, 0, -1, 0, -5,-2.9020851143361077,1.5856860675899982
1503510463554,-0.684,-0.713,+0.019,+0.154,+0.901,-0.312,+0.103,-12.875,+2.375,+6.562,23, -14, -11, -3, -2, -1, 0, 2,-2.896956418466778,1.5885883336190127
1503510463577,-0.684,-0.713,+0.019,+0.155,+0.901,-0.280,+0.084,-5.438,+1.312,-6.562,-9, -7, -3, -1, -2, -3, -3, 1,-2.8956048362971782,1.588587644765955
1503510463599,-0.683,-0.713,+0.021,+0.153,+0.902,-0.240,+0.098,-2.625,+4.000,-19.250,14, -2, -3, -2, -3, 2, 3, 14,-2.8951131772865546,1.5887669415818582
1503510463614,-0.683,-0.715,+0.024,+0.151,+0.923,-0.244,+0.092,+2.562,+7.500,-24.312,13, -11, -6, -1, -3, -1, -7, -26,-2.8949115074550087,1.5947790114548517
1503510463639,-0.683,-0.714,+0.026,+0.148,+0.978,-0.258,+0.076,+4.500,-1.000,-25.188,6, -13, -8, -1, 1, 3, 2, 19,-2.8954746124136235,1.5920988758629515
1503510463659,-0.685,-0.714,+0.027,+0.145,+0.983,-0.240,+0.040,+5.438,-5.438,-24.250,-12, 10, -4, -2, -2, -1, -5, -15,-2.898879199862116,1.592141752215324
1503510463674,-0.686,-0.713,+0.029,+0.143,+0.972,-0.202,+0.070,+5.000,-9.688,-23.500,-17, -3, -8, -2, -2, -2, -3, -3,-2.898513591792439,1.589465662638198
1503510463697,-0.688,-0.712,+0.031,+0.139,+0.987,-0.145,+0.082,+7.750,-9.250,-21.688,7, -8, -7, -2, 0, 1, 0, -1,-2.9012596995548896,1.5867916437908671
1503510463719,-0.689,-0.711,+0.032,+0.136,+0.970,-0.147,+0.065,+10.562,-7.562,-21.750,-26, -13, 0, -2, -3, -1, 1, -13,-2.903690455318666,1.5840383481124902
1503510463742,-0.691,-0.710,+0.032,+0.132,+0.980,-0.174,+0.043,+13.812,-7.625,-20.188,-28, -12, -4, -1, 0, 1, -2, 6,-2.9092847614016173,1.5811509444447849
1503510463757,-0.692,-0.710,+0.032,+0.128,+1.038,-0.147,+0.042,+15.812,-4.938,-19.375,3, 2, 6, 1, 2, 0, 2, 12,-2.9151029207970214,1.581138781015502
1503510463779,-0.693,-0.710,+0.033,+0.124,+1.058,-0.138,+0.068,+16.062,-4.375,-17.562,14, -15, -6, 2, -2, 0, -3, 1,-2.919524756440733,1.581255066376346
1503510463794,-0.694,-0.709,+0.033,+0.120,+1.039,-0.105,+0.079,+15.188,-8.250,-18.312,-9, 12, -4, -3, 0, -2, -5, 3,-2.924791731203274,1.5783968949408484
1503510463817,-0.696,-0.708,+0.034,+0.116,+1.041,-0.078,+0.078,+12.188,-11.250,-18.938,15, -21, -2, 2, 0, 1, 0, -3,-2.929055396594067,1.5756683267719862
1503510463839,-0.699,-0.706,+0.036,+0.112,+1.021,-0.062,+0.022,+10.188,-20.688,-20.562,21, 6, 1, 1, -1, 1, 2, -15,-2.931797423466584,1.5702576615310129
1503510463854,-0.703,-0.702,+0.037,+0.109,+1.002,-0.049,+0.000,+9.812,-24.125,-21.000,1, 0, 1, -4, -1, 2, -1, 3,-2.9339549692324365,1.5590852175021768
1503510463877,-0.706,-0.699,+0.038,+0.106,+1.056,-0.059,+0.065,+3.125,-26.875,-13.312,2, 9, 0, -2, -1, -7, -6, -6,-2.936331162098104,1.550789831064288
1503510463899,-0.708,-0.697,+0.040,+0.106,+1.066,-0.017,+0.046,-6.312,-22.250,-3.562,-28, 3, 11, 1, -4, -3, -6, -28,-2.9333370723632517,1.545504162003212
1503510463915,-0.711,-0.694,+0.040,+0.108,+1.020,-0.003,-0.016,-12.438,-21.188,+8.438,-3, 43, -4, 0, -1, -4, 0, 20,-2.9301907909757086,1.5371297648522304
1503510463937,-0.712,-0.692,+0.041,+0.111,+1.018,-0.019,-0.004,-14.062,-15.312,+13.938,-24, -17, -8, -1, -3, -6, -6, 2,-2.9240093652678096,1.5316914767756957
1503510463959,-0.714,-0.690,+0.041,+0.114,+1.028,-0.056,+0.015,-10.125,-17.250,+10.750,27, -6, -2, -1, 0, 1, 5, 16,-2.919574299585005,1.5261498017168007
1503510463975,-0.716,-0.687,+0.041,+0.116,+1.018,-0.096,+0.013,-10.438,-18.562,+9.188,27, -8, 2, -1, -2, 1, 2, 13,-2.9159961335184543,1.517790339820945
1503510463997,-0.717,-0.686,+0.042,+0.119,+0.974,-0.099,+0.012,-15.312,-11.688,+4.625,-12, -10, -1, 1, 1, 1, 2, -6,-2.9103231723526326,1.5152242521399188
1503510464019,-0.718,-0.684,+0.043,+0.120,+0.947,-0.108,+0.005,-13.188,-14.312,-0.938,2, -3, -2, -2, 1, 2, -3, -30,-2.9069069666339544,1.5098268335120746
1503510464034,-0.720,-0.682,+0.045,+0.122,+1.016,-0.117,-0.029,-10.125,-13.000,-2.750,-17, -5, 5, 2, 1, -1, -1, -18,-2.901195406758549,1.5047314513276524
1503510464057,-0.721,-0.681,+0.047,+0.123,+0.994,-0.098,-0.049,-12.625,-7.688,-5.062,-38, 4, -3, -2, -1, -2, -5, -10,-2.897023703261485,1.502402298335823
1503510464080,-0.723,-0.679,+0.048,+0.123,+0.976,-0.069,-0.084,-5.562,-10.000,-2.250,14, -1, -2, -1, -3, 0, 0, 4,-2.8954888334570206,1.4971506723906567
1503510464094,-0.724,-0.677,+0.047,+0.124,+0.979,-0.106,-0.057,-2.062,-13.438,+3.688,0, 3, 3, 0, -1, 0, -1, 14,-2.8947252367776035,1.491399251757405
1503510464117,-0.725,-0.676,+0.046,+0.126,+0.949,-0.140,-0.002,-4.062,-8.312,+11.000,-2, 7, 2, 0, -1, 1, 2, 17,-2.893114966819821,1.4884895879917388
1503510464140,-0.721,-0.679,+0.047,+0.128,+0.919,-0.100,+0.051,-8.062,+22.812,+5.375,3, -4, -4, -3, 1, 9, -3, -3,-2.88883870420998,1.4967755292177094
1503510464154,-0.718,-0.683,+0.048,+0.127,+0.990,-0.080,-0.028,+0.375,+32.875,-4.938,0, -8, -2, 0, -1, 1, -4, -3,-2.8898563685083865,1.5080236630997428
1503510464177,-0.717,-0.684,+0.049,+0.125,+1.102,-0.057,-0.079,+6.312,+11.500,-10.062,-2, -12, 3, 1, -3, -6, 1, 4,-2.891436362895091,1.5109688664674277
1503510464199,-0.718,-0.684,+0.049,+0.122,+1.034,-0.098,-0.017,+11.688,-5.125,-11.500,-26, -1, -2, -3, -2, 2, 1, -19,-2.896094189396942,1.5110333434474252
1503510464214,-0.719,-0.683,+0.049,+0.118,+0.919,-0.140,-0.004,+13.750,-10.000,-22.000,-3, 9, 0, -2, -6, -7, 1, 5,-2.9015912678176243,1.5082646216130142
1503510464237,-0.721,-0.681,+0.050,+0.115,+0.963,-0.118,-0.029,+10.875,-11.188,-23.438,29, 37, 12, 2, 1, -3, -5, 2,-2.9042877245928462,1.5029811369437835
1503510464259,-0.722,-0.680,+0.052,+0.113,+0.989,-0.115,+0.009,+1.500,-8.562,-19.188,35, 7, 0, -1, -1, -2, -1, 9,-2.904363574317377,1.500675025731046
1503510464277,-0.723,-0.680,+0.055,+0.111,+0.994,-0.065,+0.028,-7.188,-7.625,-20.375,-36, -12, -6, -1, 1, 4, 4, 3,-2.9036672301471875,1.5014444485816538
1503510464297,-0.726,-0.677,+0.059,+0.108,+1.033,+0.016,+0.046,-8.125,-24.375,-26.000,15, -10, -8, 0, 1, 2, -1, 6,-2.9024397347239868,1.4942400854390179
1503510464319,-0.731,-0.672,+0.063,+0.105,+1.086,+0.083,-0.072,-4.188,-36.312,-25.688,3, -4, -5, -4, 0, 4, -6, -8,-2.9012584549539984,1.481753967931145
1503510464344,-0.736,-0.666,+0.067,+0.102,+1.022,+0.079,-0.066,-4.938,-43.188,-24.375,10, -2, -4, 1, 0, -1, -4, -27,-2.899756598506705,1.4666395019014955
1503510464357,-0.742,-0.660,+0.070,+0.100,+0.958,+0.055,-0.092,-3.500,-44.312,-18.750,-3, 9, -2, 0, 0, -2, 5, 7,-2.898824096420802,1.4515785705427997
1503510464380,-0.746,-0.654,+0.072,+0.099,+0.959,+0.023,-0.114,-8.000,-37.375,-15.562,-24, -12, -7, -4, -3, -4, -5, 6,-2.8968394663152117,1.4360652541244334
1503510464395,-0.750,-0.649,+0.075,+0.099,+0.992,+0.043,-0.117,-12.062,-32.562,-13.000,-7, 1, 6, 4, 1, 2, 7, 16,-2.892726714874534,1.4237914564861405
1503510464417,-0.754,-0.644,+0.077,+0.099,+1.011,+0.068,-0.091,-6.000,-38.500,-9.062,28, -24, -6, -6, -2, 1, 2, 10,-2.889962464685569,1.4113046026770313
1503510464439,-0.758,-0.640,+0.078,+0.098,+1.023,+0.023,-0.163,+1.062,-29.625,-7.250,2, 13, 0, -3, -2, 0, -1, -12,-2.8904748829767146,1.4013292178739187
1503510464455,-0.762,-0.636,+0.078,+0.097,+0.986,-0.016,-0.167,-0.125,-28.250,-9.062,20, -6, -7, -2, 1, 2, 6, 13,-2.8922789185291946,1.3910815714146518
1503510464479,-0.764,-0.633,+0.078,+0.098,+1.012,-0.016,-0.107,-3.938,-25.750,-1.375,-3, 16, 9, 1, -2, 4, -3, -27,-2.8905033450399276,1.383253725604289
1503510464499,-0.766,-0.631,+0.080,+0.099,+1.003,-0.005,-0.099,-9.188,-18.375,-2.812,-8, 2, 2, 3, -47, -62, -13, -19,-2.886769595417896,1.3789149249215904
1503510464522,-0.768,-0.628,+0.081,+0.100,+1.012,+0.011,-0.131,-10.062,-20.938,-1.250,8, 4, -4, -16, 7, 6, 11, 18,-2.8837960923509485,1.3714913781263844
1503510464537,-0.770,-0.625,+0.082,+0.101,+1.007,+0.015,-0.190,-8.062,-18.812,+1.312,20, 13, 0, 0, 1, 9, 1, 9,-2.8808358009155377,1.3640990324479976
1503510464559,-0.771,-0.623,+0.083,+0.102,+0.962,+0.018,-0.154,-8.312,-14.812,-1.625,-9, 24, 6, 4, 4, 8, -4, -56,-2.8777705373874842,1.359234854712011
1503510464575,-0.771,-0.622,+0.085,+0.103,+0.980,+0.016,-0.088,-11.438,-9.438,-3.500,10, 1, 2, 4, 9, -1, -4, 15,-2.873383627453604,1.3572536375364648
1503510464596,-0.772,-0.621,+0.086,+0.104,+0.990,+0.018,-0.147,-9.062,-10.812,-2.375,14, -4, -3, -2, 8, 12, 11, 31,-2.870820685340721,1.3551745843039356
1503510464620,-0.774,-0.618,+0.088,+0.104,+1.001,+0.025,-0.199,-8.562,-18.812,-5.000,2, 0, 4, 1, 4, 11, 3, -8,-2.8681984205418303,1.3482168275502247
1503510464646,-0.777,-0.615,+0.089,+0.105,+0.980,+0.019,-0.172,-9.188,-23.875,-5.500,-33, -8, -2, 0, 1, -3, -4, 2,-2.8659444301819845,1.341225717903077
1503510464657,-0.778,-0.612,+0.090,+0.106,+0.931,+0.009,-0.175,-10.375,-17.875,-0.688,12, -1, 2, 2, -4, 17, 6, 17,-2.862417900006125,1.3337065906167374
1503510464679,-0.779,-0.611,+0.092,+0.108,+0.906,+0.009,-0.175,-14.375,-3.438,-0.625,7, -5, -10, -5, -2, -9, -7, -14,-2.8572290712752704,1.3321444676763534
1503510464702,-0.779,-0.611,+0.094,+0.109,+0.974,+0.034,-0.187,-12.812,-2.188,-2.250,3, 15, 12, 1, 3, -2, -2, 15,-2.8533940468708123,1.333013437278243
1503510464717,-0.780,-0.609,+0.096,+0.110,+1.006,+0.060,-0.166,-12.500,-12.250,-1.562,20, -22, -2, 2, 1, -5, -3, -18,-2.849217879010774,1.3287116200148277
1503510464739,-0.782,-0.606,+0.098,+0.111,+0.963,+0.051,-0.214,-10.375,-22.438,-4.000,-42, -3, 1, 2, 1, -2, 4, 12,-2.8452336468285373,1.3220014435409118
1503510464755,-0.785,-0.601,+0.100,+0.112,+0.930,+0.034,-0.245,-9.750,-26.188,-5.375,-11, -5, -3, 1, -2, -1, 0, -4,-2.840952701908267,1.310188136056812
1503510464777,-0.787,-0.599,+0.100,+0.113,+0.938,+0.036,-0.232,-8.500,-16.812,+3.250,7, 0, -4, -3, 5, -1, 5, 40,-2.8398458600372787,1.3054121746950746
1503510464799,-0.787,-0.598,+0.101,+0.115,+0.933,+0.023,-0.206,-10.438,-6.438,+6.625,12, -11, 5, 4, -1, -4, -1, 1,-2.835180169605853,1.3032424554062652
1503510464815,-0.787,-0.597,+0.101,+0.117,+0.982,+0.013,-0.238,-8.750,-6.062,+7.875,6, 15, -2, -3, 0, 2, 7, 25,-2.8316475151166514,1.3006270481293014
1503510464837,-0.788,-0.595,+0.100,+0.120,+1.024,+0.022,-0.288,-4.312,-8.938,+12.375,33, 5, 2, -1, 1, 0, 5, 8,-2.8279415213743935,1.295216584556304
1503510464859,-0.790,-0.593,+0.099,+0.122,+1.010,+0.021,-0.256,-0.750,-15.375,+16.000,-9, -10, -4, 1, -2, -2, -2, -8,-2.826470185561089,1.2900923456232543
1503510464875,-0.790,-0.592,+0.097,+0.126,+0.976,-0.029,-0.188,-3.750,-11.812,+19.875,10, -6, -6, -2, -4, -2, -2, -12,-2.8221651811252255,1.2867034626291758
1503510464897,-0.789,-0.593,+0.095,+0.130,+0.961,-0.058,-0.219,-7.188,-0.625,+21.812,28, -10, -7, -6, -1, -2, -1, -10,-2.8182327823453277,1.2884233336366533
1503510464920,-0.788,-0.594,+0.094,+0.134,+1.023,-0.024,-0.243,-6.812,+4.750,+21.188,-37, 5, 10, 0, 0, -3, -6, -1,-2.8132057217862556,1.2905852816475392
1503510464935,-0.787,-0.595,+0.092,+0.137,+1.058,+0.000,-0.205,-4.688,+2.875,+21.250,-23, -10, -10, -4, -1, 2, -4, -5,-2.8108181260353775,1.2922662432386802
1503510464959,-0.786,-0.595,+0.091,+0.140,+1.010,-0.023,-0.221,-1.000,-2.125,+19.562,-47, -1, 2, 1, 0, 0, -4, -28,-2.8067171438807788,1.2916616529849203
1503510464983,-0.786,-0.595,+0.089,+0.142,+0.970,-0.046,-0.236,+0.188,+0.375,+18.812,-6, 4, -4, -3, -3, -4, -5, -24,-2.8059951459250865,1.2909129467671667
1503510464996,-0.785,-0.596,+0.087,+0.145,+0.977,-0.017,-0.205,+0.125,+5.750,+19.438,2, -12, -4, -2, -4, -3, 2, 21,-2.8036473126182804,1.2926189959833496
1503510465017,-0.784,-0.597,+0.085,+0.147,+0.983,+0.007,-0.199,+3.375,+0.312,+18.250,16, -5, 4, 0, 2, 1, -2, 4,-2.80280081302228,1.2942906823087954
1503510465039,-0.784,-0.597,+0.083,+0.148,+0.949,-0.025,-0.282,+7.062,-0.875,+14.562,-15, 3, -1, 2, 2, 2, 4, 6,-2.803575255758577,1.293528097718039
1503510465055,-0.785,-0.596,+0.081,+0.149,+0.924,-0.064,-0.259,+4.312,-0.812,+11.438,17, 7, 1, 0, -1, 0, 1, 35,-2.8044707134667046,1.2903781043898281
1503510465077,-0.784,-0.597,+0.079,+0.151,+0.951,-0.065,-0.220,+5.000,+3.188,+13.312,6, 2, 2, -1, -2, -1, -3, -4,-2.803643275764518,1.2920850612791615
1503510465099,-0.783,-0.598,+0.078,+0.151,+0.932,-0.062,-0.237,+4.562,+4.062,+9.250,6, -9, -6, -2, -1, -1, -1, -1,-2.804663386796138,1.2941042825413658
1503510465115,-0.783,-0.598,+0.076,+0.151,+0.917,-0.031,-0.208,+7.375,+0.250,+5.625,-8, 0, 5, 1, 1, 4, 0, 4,-2.8069284138752186,1.2933448697008199
1503510465136,-0.783,-0.599,+0.074,+0.151,+0.944,-0.044,-0.196,+12.125,+2.875,+8.062,5, -8, -5, 1, 0, 0, 1, 6,-2.8098394484471974,1.2953377326788302
1503510465159,-0.782,-0.600,+0.072,+0.152,+0.921,-0.072,-0.267,+9.750,+7.625,+11.938,-29, 2, 3, -1, 0, -2, 1, 6,-2.8105390153877416,1.29706222230034
1503510465175,-0.781,-0.602,+0.070,+0.154,+0.963,-0.110,-0.222,+1.250,+9.688,+15.750,-4, -1, 2, -3, -1, -4, -6, 5,-2.8104236279489814,1.3015856595857513
1503510465197,-0.779,-0.604,+0.068,+0.158,+1.047,-0.113,-0.172,-2.812,+8.500,+28.188,-27, -2, -6, -4, -2, 0, 4, 10,-2.806667843614607,1.3058845189293256
1503510465220,-0.778,-0.604,+0.065,+0.162,+1.029,-0.108,-0.196,-1.438,+0.062,+27.250,-2, -26, -10, -4, -3, -2, 0, -19,-2.803476420652778,1.3046811278928376
1503510465242,-0.777,-0.604,+0.062,+0.165,+0.945,-0.116,-0.252,+0.562,+0.250,+22.625,5, -5, 1, -1, -1, 0, 1, 16,-2.801760815912852,1.3034636523812761
1503510465257,-0.775,-0.607,+0.061,+0.167,+0.891,-0.140,-0.219,+2.562,+21.062,+15.438,51, 41, 10, 2, -2, -4, -2, 10,-2.8006016064712176,1.3108413023556063
1503510465279,-0.769,-0.614,+0.061,+0.167,+0.937,-0.133,-0.162,+4.625,+47.812,+5.375,1, 1, 0, 0, -1, 0, 0, 8,-2.8012096477982884,1.3283661097262625
1503510465302,-0.764,-0.621,+0.061,+0.165,+1.052,-0.097,-0.134,+8.938,+51.500,-1.625,-15, 1, 1, 0, 2, 3, -2, -1,-2.805538566705499,1.3462948774259516
1503510465317,-0.761,-0.625,+0.061,+0.162,+1.131,-0.079,-0.147,+17.375,+23.500,-10.250,12, 7, 5, 1, 1, 4, 2, 2,-2.8106264010469695,1.35652127685631
1503510465339,-0.764,-0.624,+0.060,+0.156,+1.076,-0.076,-0.184,+26.750,-12.875,-18.000,16, 7, -2, -1, -2, -2, -4, -4,-2.8218727594134223,1.3540833976309288
1503510465362,-0.768,-0.620,+0.058,+0.151,+0.900,-0.096,-0.210,+26.688,-28.625,-24.000,-8, -3, 3, -2, 0, -3, -1, -6,-2.831552474578722,1.343347842848408
1503510465377,-0.770,-0.619,+0.057,+0.146,+0.809,-0.090,-0.189,+21.500,-10.312,-19.312,-14, -12, -2, -1, -2, -2, 0, -9,-2.840749194427736,1.3407147936587114
1503510465399,-0.769,-0.621,+0.057,+0.144,+0.879,-0.077,-0.163,+12.500,+14.875,-8.562,-8, -7, -2, -1, -1, -2, -3, -2,-2.844313812656719,1.3459289850201492
1503510465422,-0.767,-0.623,+0.057,+0.143,+0.987,-0.057,-0.158,+5.688,+18.000,-2.875,-3, 3, -2, -2, -1, -4, -2, 7,-2.8457768360269378,1.350904600070663
1503510465437,-0.767,-0.623,+0.057,+0.142,+1.049,-0.042,-0.191,+6.812,+1.375,+1.250,15, 0, 3, 4, 0, 0, 4, 8,-2.8472506088523795,1.3508796304286192
1503510465459,-0.769,-0.621,+0.056,+0.141,+0.996,-0.067,-0.193,+5.312,-15.688,-1.250,0, -1, -6, -3, -2, -4, -4, 0,-2.8499350757904103,1.345568110642222
1503510465485,-0.771,-0.619,+0.055,+0.141,+0.939,-0.088,-0.157,-0.375,-18.812,+0.375,-32, -7, -4, 1, -1, 2, 2, -4,-2.8511438736997414,1.3403008097783082
1503510465497,-0.771,-0.618,+0.055,+0.143,+0.918,-0.095,-0.140,-4.688,-8.438,+3.312,8, -7, -5, -3, -1, 0, 1, 6,-2.8475696546976867,1.3375783421795953
1503510465520,-0.771,-0.618,+0.057,+0.144,+0.961,-0.072,-0.161,-9.812,-1.375,+1.438,5, -21, -6, -3, 0, 3, 0, -4,-2.8437148724686367,1.3381750198104254
1503510465535,-0.771,-0.618,+0.059,+0.145,+0.990,-0.057,-0.183,-11.688,+1.000,-0.312,-11, 4, 8, -1, -2, 0, 0, 2,-2.8398691926591466,1.3387884891170807
1503510465557,-0.771,-0.617,+0.061,+0.146,+1.003,-0.062,-0.157,-13.125,-3.188,-2.562,-4, -11, -6, -1, 0, 4, 2, 8,-2.835403872164454,1.3366510007891712
1503510465579,-0.771,-0.616,+0.063,+0.146,+1.012,-0.046,-0.174,-11.062,-6.375,-4.938,3, -8, -2, 1, 0, -1, -4, -5,-2.83241243698429,1.3345037753694184
1503510465602,-0.772,-0.615,+0.065,+0.146,+0.999,-0.054,-0.180,-9.750,-6.375,-6.250,-36, 3, -2, -1, 0, -1, -1, -6,-2.8300923949735375,1.3326655049199714
1503510465624,-0.773,-0.614,+0.068,+0.146,+0.995,-0.057,-0.182,-11.000,-8.875,-8.812,9, 10, 4, 1, 0, -2, -2, 11,-2.826618767507177,1.3311808852512539
1503510465639,-0.774,-0.612,+0.070,+0.146,+1.002,-0.053,-0.199,-9.125,-10.375,-10.812,3, 10, 6, 0, 1, -2, 1, 9,-2.8237032993581215,1.3266366547444748
1503510465655,-0.775,-0.610,+0.072,+0.146,+0.989,-0.067,-0.219,-6.938,-7.438,-9.125,-29, -13, -6, 23, -1, -11, -1, -8,-2.820803854052166,1.3221197852397304
1503510465677,-0.776,-0.609,+0.073,+0.146,+0.978,-0.076,-0.219,-5.750,-4.750,-5.500,-7, -5, -2, -6, 0, 4, -2, -15,-2.81971400170786,1.3200231722339768
1503510465699,-0.776,-0.609,+0.074,+0.146,+0.960,-0.087,-0.200,-7.062,+1.500,-3.188,13, -6, -4, -6, -1, -1, -4, -5,-2.8185559144469927,1.3203811883617247
1503510465715,-0.775,-0.610,+0.075,+0.147,+0.968,-0.088,-0.187,-8.125,+4.375,-2.938,-27, -1, -5, -6, -1, -1, -2, -7,-2.8158493454322797,1.3232294198577115
1503510465737,-0.775,-0.610,+0.076,+0.148,+0.999,-0.057,-0.208,-6.125,+4.438,+0.688,-9, 11, 11, 3, -1, -2, 0, 8,-2.8132219019062266,1.32363217322987
1503510465759,-0.775,-0.610,+0.077,+0.148,+1.009,-0.042,-0.209,-3.562,-2.562,+0.750,19, 16, -2, -8, -2, 3, -1, 6,-2.8120661766216695,1.324001828826788
1503510465775,-0.775,-0.609,+0.077,+0.149,+0.979,-0.034,-0.203,-1.500,-5.562,+3.000,-2, -9, -4, -4, -5, 0, 0, -5,-2.8099507745807606,1.3212906739385808
1503510465797,-0.776,-0.609,+0.076,+0.150,+0.938,-0.052,-0.188,-1.438,-3.312,+5.812,11, -10, -4, -4, -1, 4, 1, 0,-2.810363006051851,1.3212588180901643
1503510465820,-0.775,-0.609,+0.076,+0.151,+0.938,-0.062,-0.205,-1.750,+2.188,+6.688,9, -11, -1, -2, 0, -2, 1, -3,-2.8081677121289785,1.3209950024360098
1503510465835,-0.775,-0.609,+0.076,+0.152,+0.969,-0.055,-0.209,-1.688,+3.750,+7.438,-3, -9, 1, 1, -1, -1, -2, -3,-2.8067008477820115,1.3210326530593843
1503510465857,-0.774,-0.610,+0.075,+0.153,+0.991,-0.063,-0.188,-1.938,+1.688,+6.312,-1, -35, -13, -4, -1, -4, -1, 2,-2.8063169050904473,1.3231508218061474
1503510465879,-0.774,-0.609,+0.075,+0.154,+0.998,-0.060,-0.170,-0.438,-5.125,+5.688,-9, 11, 2, 0, 1, 1, 1, 8,-2.8041862104726043,1.3204361342524056
1503510465896,-0.775,-0.608,+0.074,+0.155,+0.985,-0.081,-0.188,-1.312,-7.750,+4.125,9, 3, -1, -2, -2, 0, -3, -3,-2.8039409937910746,1.3176594045518648
1503510465917,-0.775,-0.608,+0.074,+0.156,+0.963,-0.077,-0.188,-2.875,-2.188,+3.312,-13, 17, 2, 0, -2, 2, 2, 1,-2.80247467247348,1.3176965718334774
1503510465939,-0.774,-0.609,+0.075,+0.156,+0.969,-0.071,-0.193,-2.500,+2.188,+3.375,-7, -11, -2, 0, 0, -1, -1, 3,-2.8012562893485757,1.3205106685956491
1503510465956,-0.774,-0.609,+0.075,+0.157,+1.004,-0.061,-0.198,-2.250,+2.375,+1.500,-5, -1, -3, -1, 0, -1, 1, -5,-2.799793602019094,1.3205479194764314
1503510465977,-0.774,-0.609,+0.075,+0.157,+0.999,-0.069,-0.185,-1.500,+2.250,+1.438,10, 10, 5, 2, 1, 0, 3, 6,-2.799793602019094,1.3205479194764314
1503510465999,-0.774,-0.609,+0.075,+0.157,+0.991,-0.069,-0.201,-1.188,-3.125,+0.062,-3, -4, -2, -2, -1, 1, 0, -3,-2.799793602019094,1.3205479194764314
1503510466015,-0.774,-0.608,+0.075,+0.158,+0.968,-0.068,-0.211,+0.125,-3.625,+1.500,1, 3, -2, -1, -2, 0, -2, 0,-2.797651641678963,1.3178343007117612
1503510466037,-0.774,-0.608,+0.075,+0.158,+0.938,-0.085,-0.201,-0.188,-1.812,+0.562,-11, 3, -3, 0, -1, -2, 2, 5,-2.797651641678963,1.3178343007117612
1503510466060,-0.774,-0.608,+0.075,+0.158,+0.937,-0.096,-0.198,+0.812,+3.688,-0.562,-25, -13, 1, -2, -1, 1, 2, -1,-2.797651641678963,1.3178343007117612
1503510466075,-0.773,-0.610,+0.075,+0.158,+0.947,-0.091,-0.196,+0.625,+9.312,-1.438,8, 2, -3, -1, -2, -1, -2, -1,-2.798267805167005,1.3230352922548518
1503510466097,-0.773,-0.611,+0.075,+0.157,+0.955,-0.082,-0.190,+0.938,+7.250,-3.500,3, 7, 3, -1, 0, 1, -3, -5,-2.8004058560018983,1.3257505876106885
1503510466119,-0.772,-0.611,+0.076,+0.157,+0.946,-0.085,-0.198,+1.562,+6.062,-6.188,11, -1, 0, -1, -1, -2, -2, -2,-2.7985099965920504,1.3258235019505265
1503510466142,-0.772,-0.612,+0.077,+0.155,+0.941,-0.080,-0.191,+3.125,+7.500,-9.750,-12, 0, 1, 1, -1, 1, 0, -3,-2.8009488808056617,1.3288758086541699
1503510466157,-0.771,-0.614,+0.078,+0.153,+0.956,-0.054,-0.180,+3.062,+11.688,-12.375,-13, -11, -3, -1, 1, -1, -2, -3,-2.8033086342200035,1.3343918027974264
1503510466179,-0.770,-0.615,+0.079,+0.150,+0.976,-0.035,-0.182,+4.625,+11.125,-13.750,13, 2, -2, -1, -1, 0, 1, 0,-2.8064479488578633,1.3371261191773625
1503510466202,-0.769,-0.616,+0.081,+0.147,+0.947,-0.039,-0.190,+5.188,+11.000,-16.938,2, 0, -4, -1, -2, -1, 0, 5,-2.808416854158055,1.340248975661043
1503510466218,-0.769,-0.618,+0.083,+0.145,+0.961,-0.045,-0.155,+4.562,+12.000,-18.000,-16, -8, -2, 1, -2, -4, -2, -11,-2.8102938715007313,1.3464569221277904
1503510467342,-0.785,-0.590,+0.038,+0.187,+0.942,-0.182,-0.236,+0.062,-21.875,+0.875,-9, -2, 0, 0, 1, -3, 0, -1,-2.7921189021435926,1.2611433820672142
1503510467358,-0.786,-0.587,+0.037,+0.188,+0.942,-0.175,-0.254,+2.500,-18.562,+2.062,20, 5, -3, -3, -1, 1, 0, -1,-2.7902371492325297,1.2529916788651119
1503510467380,-0.788,-0.585,+0.035,+0.188,+0.950,-0.199,-0.245,+4.312,-18.125,+3.438,-7, -4, -2, -1, -1, 0, 0, -1,-2.7924519367022187,1.2477053680010133
1503510467402,-0.789,-0.584,+0.033,+0.189,+0.962,-0.209,-0.246,+5.500,-16.188,+4.750,15, -2, -1, -2, 0, -4, -2, 4,-2.7931654968400044,1.2448428173416801
1503510467418,-0.790,-0.582,+0.031,+0.189,+0.969,-0.208,-0.278,+8.562,-14.188,+7.188,-5, -4, -5, -3, -1, 0, 0, -2,-2.7946312219683964,1.2392171103039948
1503510467442,-0.791,-0.581,+0.027,+0.190,+0.984,-0.232,-0.251,+7.875,-16.250,+10.688,-4, -2, 0, 1, -1, -1, 0, -3,-2.797547835697307,1.2359157715427975
1503510467462,-0.792,-0.579,+0.024,+0.191,+0.958,-0.227,-0.242,+8.875,-16.750,+13.250,-10, 0, 4, 1, -1, 1, -2, -2,-2.7985924088453777,1.2301266460584224
1503510467478,-0.793,-0.578,+0.020,+0.193,+0.950,-0.229,-0.243,+11.250,-14.812,+13.812,-6, -9, -6, -3, -2, -3, -3, -5,-2.799956835425209,1.2269292083978856
1503510467500,-0.793,-0.577,+0.016,+0.194,+0.961,-0.242,-0.274,+13.312,-12.375,+14.938,-11, 0, -4, -4, -3, 0, 2, -1,-2.8021199440610873,1.2233671829619723
1503510467522,-0.794,-0.576,+0.012,+0.195,+0.959,-0.253,-0.287,+16.438,-10.938,+15.688,-9, -6, -1, 2, 2, -2, -1, 1,-2.804979897913891,1.2202546362454527
1503510467538,-0.794,-0.576,+0.007,+0.195,+0.946,-0.250,-0.259,+18.562,-11.812,+14.938,-12, -5, -1, 1, -1, 1, -1, -4,-2.8105418053273543,1.2193866998621408
1503510467560,-0.794,-0.575,+0.003,+0.195,+0.930,-0.259,-0.259,+19.625,-11.750,+13.375,1, 2, 1, -2, 0, -1, 1, 5,-2.8142541936875336,1.2159815292507181
1503510467582,-0.795,-0.575,-0.002,+0.195,+0.928,-0.243,-0.316,+23.125,-9.188,+12.812,17, -1, -2, -2, -1, 2, 3, 2,-2.820506895683673,1.2156866266238933
1503510467599,-0.795,-0.574,-0.007,+0.195,+0.930,-0.249,-0.288,+23.562,-9.062,+13.750,18, 11, 3, -2, -2, -3, -3, -4,-2.8253646381482285,1.2122894391613084
1503510467620,-0.796,-0.574,-0.012,+0.194,+0.929,-0.238,-0.281,+25.250,-9.500,+13.188,-1, 3, -4, 0, -3, 0, -1, 1,-2.8331702011804505,1.2121915296664945
1503510467642,-0.796,-0.573,-0.017,+0.193,+0.921,-0.243,-0.318,+28.938,-10.625,+11.438,-2, -11, -5, -2, -2, -1, -4, -4,-2.8396365746544947,1.2089858487550669
1503510467658,-0.797,-0.572,-0.023,+0.191,+0.914,-0.240,-0.309,+28.812,-11.062,+11.062,15, 6, 1, 2, 1, 3, 5, 5,-2.849435422837345,1.2062557478104472
1503510467680,-0.798,-0.572,-0.028,+0.190,+0.902,-0.259,-0.295,+28.312,-12.125,+11.188,4, 6, 0, 0, 0, -3, -1, 0,-2.857254065108108,1.2064870511263672
1503510467703,-0.799,-0.571,-0.033,+0.189,+0.889,-0.272,-0.306,+27.938,-12.438,+9.000,-21, -7, -1, 0, 0, 0, -1, -3,-2.8643477726985624,1.2040171761417564
1503510467718,-0.799,-0.570,-0.037,+0.187,+0.890,-0.249,-0.302,+25.438,-9.750,+8.750,-6, 6, 5, -1, -2, -3, -4, 3,-2.8713908176346914,1.2012419495414868
1503510467742,-0.800,-0.569,-0.042,+0.186,+0.900,-0.253,-0.298,+23.188,-9.000,+10.125,2, -1, 0, -2, -1, -4, -2, -4,-2.8785109290773025,1.1989525144758144
1503510467762,-0.800,-0.569,-0.045,+0.186,+0.895,-0.278,-0.313,+19.500,-8.625,+9.375,-2, -8, -3, -1, -3, -2, -3, -3,-2.881945935285383,1.1990368002699585
1503510467778,-0.800,-0.568,-0.048,+0.185,+0.892,-0.267,-0.325,+16.000,-6.812,+8.312,-4, -10, -6, -2, -3, -1, 0, 5,-2.8863060813441748,1.1963727129875017
1503510467801,-0.801,-0.567,-0.051,+0.185,+0.890,-0.251,-0.331,+14.000,-4.312,+7.688,-10, -10, -2, 0, 0, 1, -1, -2,-2.8895225078818516,1.1941393102028235
1503510467822,-0.801,-0.567,-0.053,+0.185,+0.895,-0.263,-0.341,+13.000,-5.375,+6.750,-8, 1, -7, -2, 0, 1, 0, -3,-2.89182030540458,1.1942592838915518
1503510467838,-0.802,-0.566,-0.055,+0.185,+0.898,-0.267,-0.322,+9.500,-4.312,+6.688,-18, 22, 5, 0, -2, -3, -2, -9,-2.8938749383317073,1.192008050823887
1503510467860,-0.801,-0.566,-0.056,+0.185,+0.893,-0.281,-0.291,+3.500,-1.375,+4.688,-2, 0, 4, 2, 3, 1, 0, -4,-2.8945781711550986,1.191641949562793
1503510467882,-0.801,-0.567,-0.055,+0.185,+0.897,-0.271,-0.296,-0.812,+3.812,+3.875,14, -11, -4, -2, -1, -2, -2, -3,-2.8941207998698038,1.1943950527016127
1503510467898,-0.801,-0.567,-0.055,+0.186,+0.924,-0.275,-0.300,-0.812,+3.625,+2.062,-7, -3, 0, 0, 0, 0, 1, 1,-2.892495568605518,1.1943527019428302
1503510467920,-0.800,-0.567,-0.055,+0.186,+0.919,-0.296,-0.300,+1.875,+0.750,+1.875,-10, 0, -1, 1, 0, -2, 1, 1,-2.892045305356542,1.193915574514068
