Timestamp,Orientation X,Orientation Y,Orientation Z,Orientation W,Accelerometer X,Accelerometer Y,Accelerometer Z,Gyroscope X,Gyroscope Y,Gyroscope Z,EMG1,EMG2,EMG3,EMG4,EMG5,EMG6,EMG7,EMG8
1503683080397,+0.771,+0.567,-0.136,-0.257,+1.058,-0.123,-0.240,+30.562,-16.812,-20.375,-7, 6, -2, -2, -3, -3, -7, -4
1503683080411,+0.773,+0.566,-0.133,-0.252,+0.957,-0.112,-0.276,+29.562,-14.062,-18.312,-1, -20, -7, -4, -1, -2, -2, 9
1503683080433,+0.776,+0.565,-0.129,-0.248,+0.953,-0.137,-0.261,+29.562,-16.812,-17.625,5, 16, 5, -1, -2, -2, -2, -3
1503683080455,+0.779,+0.566,-0.127,-0.241,+0.929,-0.102,-0.263,+34.688,-3.562,-30.938,-8, -9, -6, -2, 0, 0, 1, 8
1503683080472,+0.780,+0.567,-0.126,-0.232,+0.921,-0.094,-0.249,+35.500,+4.375,-38.188,32, 16, 1, 1, 1, -4, -4, -3
1503683080493,+0.781,+0.570,-0.126,-0.223,+0.902,-0.093,-0.196,+27.875,+13.750,-43.938,-25, -9, 0, -1, 0, 0, 1, 1
1503683080515,+0.781,+0.571,-0.128,-0.216,+0.915,-0.050,-0.229,+14.812,+10.125,-39.812,2, -1, 0, -1, 0, 0, 1, -3
1503683080531,+0.781,+0.573,-0.130,-0.210,+0.938,+0.038,-0.253,+15.125,+19.625,-26.875,-5, -2, 0, 1, 0, -1, -2, -12
1503683080553,+0.780,+0.577,-0.131,-0.203,+0.939,+0.089,-0.369,+25.375,+31.875,-22.875,-3, 0, 1, -2, -2, -2, -10, -4
1503683080575,+0.779,+0.581,-0.132,-0.197,+0.894,+0.071,-0.283,+20.062,+35.312,-23.562,7, -1, -1, -1, -1, -1, 2, 6
1503683080591,+0.775,+0.586,-0.135,-0.192,+0.871,+0.068,-0.208,+8.938,+45.250,-16.500,9, 0, -2, 0, 0, 0, 3, 7
1503683080613,+0.769,+0.595,-0.138,-0.189,+0.927,+0.117,-0.213,+3.438,+65.438,-2.250,-7, 2, -2, 0, -1, 1, 4, 1
1503683080638,+0.763,+0.604,-0.140,-0.185,+1.049,+0.161,-0.188,+7.438,+67.625,+4.000,-9, 0, 5, 20, 16, 3, 1, 3
1503683080651,+0.759,+0.609,-0.140,-0.182,+1.125,+0.094,-0.202,+14.938,+42.125,-1.688,-11, 0, -1, -9, -11, -4, -13, -8
1503683080674,+0.758,+0.612,-0.141,-0.179,+1.134,+0.050,-0.093,+8.875,+9.000,-6.688,36, 9, 2, -2, -2, -2, -5, -2
1503683080699,+0.759,+0.610,-0.141,-0.178,+1.046,+0.110,-0.123,+1.000,-12.812,-2.625,-48, 3, 5, -5, -6, -4, 1, -7
1503683080711,+0.760,+0.609,-0.142,-0.176,+0.930,+0.130,-0.165,+3.125,-8.688,-0.562,17, -10, -7, -3, -10, 0, 4, 4
1503683080737,+0.760,+0.610,-0.142,-0.174,+0.890,+0.095,-0.176,+7.125,+9.062,-1.812,2, -5, -5, -21, -9, 0, 0, 0
1503683080755,+0.759,+0.612,-0.142,-0.172,+0.928,+0.017,-0.181,+8.000,+19.625,-10.062,-23, -15, -5, -9, -9, -1, 1, -6
1503683080771,+0.757,+0.615,-0.144,-0.169,+0.970,+0.048,-0.185,+1.688,+25.750,-10.375,-23, -5, -5, 3, 8, -1, -1, -3
1503683080793,+0.753,+0.619,-0.145,-0.167,+1.037,+0.110,-0.198,+3.250,+38.062,-0.312,0, -3, 1, 5, 14, -1, -1, -2
1503683080815,+0.752,+0.622,-0.144,-0.165,+1.086,+0.053,-0.205,+12.250,+21.688,+0.938,6, 3, 3, 0, -7, 1, 1, 2
1503683080832,+0.753,+0.621,-0.143,-0.164,+1.106,-0.044,-0.143,+10.812,-9.375,-3.812,-5, -13, -3, 0, 15, -1, -1, 1
1503683080853,+0.756,+0.618,-0.141,-0.164,+1.062,-0.049,-0.102,+6.875,-28.062,-4.375,6, 8, -4, 0, -12, -2, -3, -2
1503683080875,+0.759,+0.615,-0.140,-0.164,+0.959,-0.003,-0.082,+0.500,-32.938,-2.688,-5, -16, 1, 2, 5, -2, -3, 0
1503683080891,+0.761,+0.612,-0.139,-0.164,+0.892,+0.051,-0.213,+2.375,-16.062,+1.125,-3, -5, -1, 6, 2, -1, 4, 1
1503683080913,+0.762,+0.611,-0.138,-0.164,+0.882,+0.035,-0.221,+4.812,-6.125,+4.688,-6, -3, -1, -3, -1, -6, -4, 9
1503683080936,+0.763,+0.611,-0.137,-0.164,+0.958,+0.016,-0.153,+0.562,-2.938,+0.625,-14, -7, -1, 1, 2, 1, -1, -3
1503683080951,+0.763,+0.611,-0.137,-0.164,+1.009,+0.058,-0.142,+1.375,-1.812,+2.875,4, -3, -4, -3, -4, -1, 0, -3
1503683080973,+0.763,+0.610,-0.136,-0.164,+1.011,+0.076,-0.194,+1.875,-6.562,+6.625,-13, 3, -2, -2, -1, 1, -3, -7
1503683080995,+0.765,+0.608,-0.135,-0.166,+1.007,+0.030,-0.174,-3.375,-16.125,+11.688,-15, -6, -3, 2, 0, -3, -2, -4
1503683081011,+0.766,+0.606,-0.134,-0.169,+1.014,-0.005,-0.177,-7.000,-19.500,+15.562,11, 4, 0, 1, -4, 1, 1, -2
1503683081034,+0.768,+0.603,-0.132,-0.172,+0.989,-0.001,-0.194,-4.562,-23.938,+19.312,11, -1, 0, -4, -2, 0, 1, 1
1503683081055,+0.770,+0.599,-0.129,-0.175,+0.980,+0.001,-0.229,-2.188,-28.625,+15.312,8, 0, -2, -1, -1, -2, 1, 4
1503683081072,+0.772,+0.596,-0.127,-0.178,+0.978,-0.018,-0.207,-6.688,-26.688,+17.188,-1, -7, -6, -1, 1, 2, 1, -2
1503683087858,+0.712,+0.678,-0.079,-0.163,+0.961,-0.089,+0.033,+41.375,+36.375,-19.938,9, 3, -3, -6, 2, 3, 1, -2
1503683087882,+0.710,+0.682,-0.080,-0.156,+0.958,-0.022,+0.018,+30.500,+29.375,-22.312,18, -7, -2, -1, -15, -3, -3, 1
1503683087902,+0.707,+0.687,-0.081,-0.149,+0.977,+0.028,+0.014,+24.812,+33.062,-23.875,-23, -3, -1, 20, -5, -2, -2, 0
1503683087918,+0.705,+0.690,-0.082,-0.141,+0.990,+0.039,-0.020,+29.188,+26.875,-22.500,60, 5, 2, -5, -7, 1, 1, 5
1503683087940,+0.704,+0.692,-0.082,-0.134,+0.976,+0.001,+0.050,+26.125,+15.875,-23.938,13, 1, -2, -4, 8, 0, -2, 1
1503683087962,+0.704,+0.694,-0.083,-0.128,+0.958,+0.053,+0.063,+22.438,+8.250,-22.312,-33, 2, -2, -9, -7, -3, -4, -1
1503683087978,+0.703,+0.695,-0.084,-0.121,+0.880,+0.070,-0.052,+26.125,+18.438,-21.875,8, -1, -4, 6, -4, -2, -2, 2
1503683088000,+0.702,+0.698,-0.084,-0.115,+0.899,+0.027,-0.022,+25.812,+20.188,-19.750,15, 0, 1, -1, 6, 0, 4, 6
1503683088022,+0.701,+0.700,-0.084,-0.109,+0.970,+0.008,+0.024,+21.062,+19.562,-19.375,4, -3, -2, 1, 8, 2, -7, 1
1503683088037,+0.700,+0.702,-0.084,-0.104,+1.042,-0.002,+0.086,+16.750,+12.500,-16.750,-5, -2, -1, 0, 4, -2, -4, -1
1503683088060,+0.700,+0.702,-0.085,-0.101,+1.012,-0.003,+0.044,+12.875,+1.875,-15.062,-16, -2, 2, 5, 7, 1, 1, 4
1503683088084,+0.701,+0.701,-0.086,-0.097,+1.004,+0.010,+0.050,+8.875,-4.250,-17.000,-18, -4, -3, 6, 22, -2, -2, -4
1503683088097,+0.703,+0.700,-0.086,-0.094,+1.059,+0.007,+0.058,+15.000,-17.500,-16.562,45, 13, -2, -16, -20, -1, -7, -3
1503683088120,+0.708,+0.695,-0.085,-0.090,+1.073,-0.039,+0.021,+17.375,-37.500,-17.750,-6, -11, -8, -4, -2, -2, 5, 15
1503683088142,+0.714,+0.690,-0.084,-0.086,+1.056,-0.033,+0.077,+15.250,-45.688,-23.062,7, -1, 0, 5, -17, -2, 2, -2
1503683088157,+0.718,+0.686,-0.084,-0.083,+0.979,-0.020,+0.050,+14.938,-39.562,-17.375,-14, -8, -4, -7, -3, -1, 1, 1
1503683088180,+0.721,+0.683,-0.083,-0.081,+0.972,-0.039,+0.032,+7.438,-21.500,-9.500,-19, -5, 5, 3, 2, 3, 2, -8
1503683088202,+0.723,+0.682,-0.083,-0.080,+1.055,-0.001,+0.041,+4.688,-18.812,-6.062,41, 1, 1, 3, 1, -2, 1, 3
1503683088218,+0.724,+0.680,-0.082,-0.080,+1.104,+0.007,+0.074,+0.875,-22.375,-0.312,-10, 3, -1, -11, -3, -1, 2, 14
1503683088240,+0.726,+0.677,-0.082,-0.081,+1.070,+0.019,+0.021,-0.875,-21.188,+2.562,8, 2, -1, 3, 4, 0, -1, 0
1503683088262,+0.730,+0.674,-0.081,-0.082,+1.060,+0.032,-0.027,-2.312,-29.375,+3.438,-34, 3, 4, 5, 2, 3, -4, -40
1503683088277,+0.733,+0.670,-0.081,-0.083,+1.041,+0.033,-0.040,-2.875,-33.500,+5.500,2, 1, 3, -4, -7, -2, 1, 8
1503683088300,+0.736,+0.667,-0.080,-0.084,+1.006,+0.003,+0.010,-4.562,-29.250,+1.938,-19, -3, -2, -4, -6, 0, 1, -4
1503683088323,+0.738,+0.664,-0.080,-0.084,+0.999,-0.014,-0.004,-1.562,-24.125,-0.562,5, -2, 0, 19, 14, 0, 7, 5
1503683088337,+0.741,+0.661,-0.080,-0.084,+0.979,+0.003,-0.092,+0.062,-21.562,-3.375,0, -2, -2, 1, 17, 1, -11, -11
1503683088361,+0.744,+0.657,-0.081,-0.084,+0.956,+0.033,-0.037,-6.562,-29.938,-8.250,54, 20, -1, -6, -11, -4, 1, 33
1503683088382,+0.746,+0.655,-0.083,-0.084,+0.962,+0.074,-0.050,-12.938,-19.312,-2.625,-15, -3, 2, -4, -3, -1, 1, 7
1503683088405,+0.747,+0.653,-0.085,-0.086,+0.954,+0.094,-0.076,-15.438,-10.250,+5.938,3, -3, 0, -3, -8, -3, -4, -8
1503683088420,+0.748,+0.652,-0.086,-0.088,+1.001,+0.117,-0.121,-14.125,-10.875,+10.125,5, -5, -5, -3, -2, 0, 2, -4
1503683088442,+0.750,+0.650,-0.087,-0.091,+0.993,+0.088,-0.092,-16.688,-14.688,+10.875,20, 7, 5, 17, 14, -4, -1, -3
1503683088458,+0.751,+0.648,-0.088,-0.094,+0.943,+0.027,-0.119,-14.188,-10.438,+12.438,7, -4, -1, -6, -3, 0, 2, 10
1503683088480,+0.751,+0.647,-0.087,-0.098,+0.974,+0.018,-0.129,-12.875,-1.875,+16.500,-7, -2, -4, -2, -1, -4, -6, -11
1503683088502,+0.750,+0.647,-0.087,-0.102,+1.044,+0.065,-0.120,-15.875,+0.000,+21.438,-27, -3, 0, -4, -4, 1, -8, 14
1503683088517,+0.751,+0.646,-0.087,-0.106,+1.015,+0.045,-0.111,-14.500,-6.688,+23.062,12, -11, -7, 3, -1, 4, 2, 8
1503683088540,+0.752,+0.644,-0.085,-0.110,+1.010,-0.022,-0.090,-11.562,-18.688,+20.562,-29, -11, -4, -10, -9, -3, -1, -8
1503683088562,+0.754,+0.641,-0.084,-0.114,+1.006,-0.014,-0.087,-11.500,-26.812,+18.438,43, 4, 4, 6, 9, 0, -3, -4
1503683088577,+0.756,+0.638,-0.083,-0.117,+0.986,-0.021,-0.086,-9.500,-25.438,+17.312,-20, 0, 2, -10, -15, -1, -1, -16
1503683088600,+0.758,+0.636,-0.082,-0.120,+0.931,-0.058,-0.100,-12.312,-22.250,+13.062,3, 1, -5, -7, -12, -5, -1, -3
1503683088622,+0.759,+0.634,-0.082,-0.123,+0.960,-0.049,-0.101,-12.062,-12.312,+11.125,9, -16, -6, -3, -5, 2, 8, 1
1503683088637,+0.759,+0.634,-0.082,-0.126,+0.993,-0.085,-0.082,-11.250,-5.688,+9.438,-25, -13, -8, -4, -7, -2, 3, -23
1503683100706,+0.698,+0.687,-0.098,-0.175,+0.946,+0.089,-0.026,+19.750,+27.062,-21.062,6, 15, -3, 0, -2, -2, -1, -1
1503683100727,+0.696,+0.690,-0.100,-0.169,+0.945,+0.101,+0.027,+16.062,+23.000,-22.438,-12, -4, 3, 1, 0, -1, -3, -1
1503683100749,+0.695,+0.693,-0.104,-0.163,+0.974,+0.125,+0.070,+12.062,+21.625,-20.562,16, 1, -1, 0, -1, 1, 2, 3
1503683100765,+0.694,+0.694,-0.107,-0.156,+0.960,+0.141,-0.004,+13.188,+16.375,-20.812,-7, -4, -4, -2, 0, -1, -3, -3
1503683100787,+0.694,+0.695,-0.109,-0.151,+0.929,+0.096,+0.032,+13.062,+11.875,-21.750,19, 7, 5, -6, -20, -2, -2, 0
1503683100809,+0.694,+0.697,-0.111,-0.145,+0.896,+0.090,+0.014,+16.438,+14.625,-24.125,-20, -6, 1, 9, 8, 1, -3, -2
1503683100825,+0.692,+0.699,-0.114,-0.139,+0.930,+0.053,+0.043,+14.312,+23.000,-23.125,4, 5, -5, -4, -7, -3, -4, -8
1503683100848,+0.689,+0.703,-0.116,-0.134,+1.031,+0.042,+0.062,+9.625,+32.375,-19.062,-1, 20, 12, 3, 2, 1, 2, 4
1503683100869,+0.687,+0.706,-0.118,-0.129,+1.071,+0.042,+0.076,+11.875,+24.875,-19.188,-1, -4, -9, -28, -32, -2, 1, -2
1503683100886,+0.686,+0.707,-0.118,-0.125,+1.081,-0.003,+0.079,+14.125,+10.625,-16.812,-18, -5, 0, 9, 11, 1, 2, 6
1503683100909,+0.686,+0.708,-0.119,-0.122,+1.022,-0.048,+0.116,+11.625,+6.438,-18.438,14, -2, -6, -22, 3, -4, -3, 0
1503683100929,+0.685,+0.709,-0.120,-0.117,+1.036,+0.002,+0.106,+11.438,+12.438,-18.938,14, -6, 0, 2, 6, 1, -1, -2
1503683100945,+0.683,+0.711,-0.120,-0.115,+1.120,+0.014,+0.085,+8.438,+14.438,-7.812,-12, -9, -2, 2, 14, 2, 2, 0
1503683100967,+0.683,+0.711,-0.120,-0.113,+1.121,-0.007,+0.090,+8.875,+1.625,-5.938,-7, -7, -2, 9, 4, 0, -3, -3
1503683100989,+0.684,+0.711,-0.119,-0.111,+1.062,-0.046,+0.052,+8.375,-2.938,-10.062,6, -8, 0, 23, 14, -3, -3, -13
1503683101007,+0.685,+0.710,-0.117,-0.110,+0.981,-0.066,+0.051,+13.000,-3.375,-6.312,-1, -3, 0, -2, -2, 2, 8, 3
1503683101027,+0.685,+0.711,-0.117,-0.109,+1.034,-0.121,+0.093,+2.000,+4.875,-10.250,-79, -4, 1, 3, -7, 6, -6, -9
1503683101049,+0.684,+0.712,-0.119,-0.109,+1.081,-0.079,+0.200,-5.312,+1.688,-10.625,-10, -11, -1, -5, -6, 1, 2, -1
1503683101065,+0.684,+0.711,-0.120,-0.109,+1.099,-0.025,+0.130,-4.438,-8.250,-8.062,18, 5, 1, 0, 0, -3, -2, 7
1503683101087,+0.688,+0.707,-0.121,-0.109,+1.051,+0.003,+0.185,-8.250,-37.562,-13.438,48, 5, 0, 3, 1, -2, 0, 8
1503683101109,+0.692,+0.702,-0.125,-0.110,+0.973,+0.014,+0.135,-21.688,-43.625,-15.188,41, 9, -4, -4, -5, -5, -2, 0
1503683101125,+0.695,+0.698,-0.128,-0.112,+0.902,+0.071,+0.131,-21.312,-31.562,-8.688,11, 4, 2, 0, 0, -3, -9, -4
1503683101148,+0.699,+0.694,-0.130,-0.113,+0.977,+0.104,-0.010,-12.875,-28.438,-3.312,-33, -8, -3, -10, -9, 4, 3, 1
1503683101170,+0.705,+0.688,-0.132,-0.113,+1.021,+0.146,-0.008,-8.750,-45.125,-9.125,-22, 0, -2, -3, -11, -5, 1, -4
1503683101186,+0.710,+0.682,-0.133,-0.113,+0.936,+0.151,+0.062,-8.250,-50.625,-3.562,8, 8, 1, 0, 3, -3, -1, -4
1503683101210,+0.716,+0.676,-0.134,-0.115,+0.800,+0.135,+0.016,-12.938,-47.500,+3.625,15, 4, -2, 0, 3, -4, -3, 0
1503683101229,+0.717,+0.673,-0.137,-0.117,+0.776,+0.201,-0.068,-17.188,-9.438,+7.688,-33, -12, 1, 10, 13, 1, 6, -2
1503683101246,+0.716,+0.674,-0.137,-0.118,+0.886,+0.206,-0.062,-7.500,+11.938,+16.125,6, 0, -1, 5, 15, 7, -4, 2
1503683101267,+0.714,+0.676,-0.136,-0.120,+1.030,+0.137,-0.011,-4.000,+10.062,+20.062,10, -2, -3, 0, -3, 1, 0, 7
1503683101289,+0.716,+0.675,-0.134,-0.121,+1.080,+0.110,-0.011,+1.250,-10.938,+18.625,3, 7, 5, -4, 2, -6, -4, 0
1503683101312,+0.718,+0.672,-0.131,-0.123,+1.016,+0.047,-0.042,+4.438,-23.625,+18.375,18, 11, 0, -5, -8, -1, -1, 2
1503683101328,+0.721,+0.669,-0.128,-0.125,+0.922,+0.005,-0.038,+1.625,-26.750,+13.312,-76, -10, -11, -6, -4, -4, -4, -13
1503683101349,+0.722,+0.668,-0.125,-0.128,+0.927,-0.041,-0.033,+1.188,-9.188,+19.750,15, -1, -3, -6, -8, -3, 1, 2
1503683101373,+0.721,+0.669,-0.122,-0.131,+1.020,-0.045,-0.004,+0.250,-0.438,+23.812,34, 3, 4, 9, 5, 2, -1, 10
1503683101387,+0.721,+0.669,-0.119,-0.134,+1.096,-0.015,+0.042,-1.688,-11.812,+21.312,7, -4, 4, 20, 48, 14, 5, 4
1503683101409,+0.724,+0.666,-0.116,-0.136,+1.118,-0.005,-0.023,+6.438,-25.562,+16.812,-35, -11, -5, -12, -21, -6, -6, -2
1503683101432,+0.729,+0.661,-0.113,-0.137,+1.048,-0.046,-0.040,+5.812,-45.875,+6.812,-4, -11, 2, 3, -3, 0, 5, 2
1503683101447,+0.733,+0.657,-0.110,-0.140,+1.008,-0.102,-0.024,+1.375,-43.688,+13.250,-8, -6, -3, -4, 3, 4, 4, -6
1503683111714,+0.773,+0.548,-0.151,-0.282,+1.045,-0.091,-0.242,+3.188,+29.188,-5.375,13, -5, -3, -1, -2, -2, 0, 9
1503683111737,+0.770,+0.552,-0.152,-0.281,+1.012,-0.069,-0.260,-2.250,+24.875,-2.688,-5, -1, 1, -1, -2, -1, 0, -4
1503683111763,+0.769,+0.554,-0.154,-0.280,+0.939,-0.056,-0.247,-1.750,+16.812,-3.812,-2, 4, -1, -2, -3, -2, -3, -4
1503683111775,+0.768,+0.556,-0.155,-0.278,+0.939,-0.081,-0.279,+1.438,+15.938,-9.750,-2, -2, 1, 1, 0, -2, -5, -1
1503683111798,+0.766,+0.559,-0.157,-0.276,+0.993,-0.087,-0.248,-1.125,+18.312,-11.125,-5, -4, -4, -2, 0, 1, 1, -1
1503683111819,+0.763,+0.562,-0.159,-0.275,+1.021,-0.062,-0.269,-3.062,+26.688,-2.062,5, -2, -5, -4, -1, -1, -1, 4
1503683111835,+0.762,+0.565,-0.160,-0.275,+0.954,-0.085,-0.285,-4.375,+19.812,-1.812,-17, -7, -3, -1, -1, 0, 0, -5
1503683111857,+0.761,+0.565,-0.161,-0.274,+0.922,-0.077,-0.261,-5.375,+6.188,-8.625,10, -2, -5, 0, -2, -1, -1, -1
1503683111879,+0.761,+0.566,-0.163,-0.274,+0.944,-0.045,-0.237,-6.938,+8.250,-3.938,1, 5, 0, -1, 0, 0, -2, -2
1503683111896,+0.759,+0.568,-0.164,-0.273,+1.017,-0.033,-0.284,-2.000,+15.688,+2.188,-2, 0, 0, -1, -1, -3, -2, -2
1503683111917,+0.758,+0.568,-0.165,-0.273,+0.993,-0.046,-0.260,-2.250,+7.312,-2.812,0, -3, -5, 0, -2, 0, 2, -2
1503683111933,+0.759,+0.568,-0.165,-0.273,+0.967,-0.058,-0.237,-0.812,-6.625,-2.188,-12, 0, 6, 0, -1, -3, -1, -4
1503683111962,+0.760,+0.567,-0.164,-0.272,+0.951,-0.060,-0.263,+0.250,-4.688,-4.438,5, 0, -2, -4, -2, -1, 0, 0
1503683111977,+0.760,+0.567,-0.165,-0.271,+0.930,-0.042,-0.268,+0.875,+0.438,-7.188,-27, -2, 2, -1, -2, -3, -6, -13
1503683111992,+0.759,+0.568,-0.166,-0.271,+0.989,-0.111,-0.237,-3.125,+10.625,-4.000,2, -7, -5, -1, -2, -1, 0, -1
1503683112015,+0.757,+0.570,-0.167,-0.271,+0.987,-0.085,-0.286,-8.250,+19.312,-1.875,25, 12, -2, -2, -1, 0, 2, 6
1503683112038,+0.756,+0.571,-0.170,-0.270,+0.977,-0.024,-0.196,-9.938,+10.812,-8.625,-21, -18, -8, -3, -3, 0, -3, -6
1503683112059,+0.756,+0.572,-0.171,-0.269,+1.100,-0.049,-0.197,-4.500,+1.188,-7.562,18, 9, 2, 1, -1, -3, -1, -1
1503683112075,+0.758,+0.569,-0.172,-0.269,+1.116,-0.088,-0.243,-5.062,-20.812,-8.625,17, 10, 2, -1, -1, 1, 1, 1
1503683112097,+0.763,+0.563,-0.172,-0.269,+1.032,-0.068,-0.209,-8.438,-52.062,-15.688,-23, -7, -1, -5, -12, -1, 0, 1
1503683112119,+0.767,+0.557,-0.173,-0.269,+0.882,-0.029,-0.194,-13.562,-40.750,-17.938,-14, 1, 1, 4, -1, 0, 0, -3
1503683112135,+0.768,+0.554,-0.176,-0.269,+0.833,+0.019,-0.218,-15.812,-11.938,-12.000,-7, -12, -4, 3, 3, 0, 2, 2
1503683112157,+0.769,+0.553,-0.177,-0.269,+0.991,+0.033,-0.175,-5.312,-16.312,-3.250,-30, -8, -10, -3, 0, 0, 3, 1
1503683112179,+0.772,+0.548,-0.177,-0.268,+1.172,+0.008,-0.322,-2.125,-33.812,-7.938,-1, 5, 4, -4, 1, -1, 0, 2
1503683112198,+0.778,+0.539,-0.177,-0.269,+1.021,+0.034,-0.393,-11.875,-57.000,-11.875,-11, -13, -7, -14, -17, -3, -1, -5
1503683112217,+0.784,+0.530,-0.177,-0.270,+0.688,+0.052,-0.438,-10.625,-45.188,-12.375,2, 3, 7, 7, 12, -1, 0, 0
1503683112239,+0.786,+0.527,-0.177,-0.270,+0.693,+0.020,-0.258,-5.188,-23.000,-6.688,15, 18, 2, 0, -2, -4, -4, -7
1503683112255,+0.785,+0.528,-0.177,-0.269,+0.916,-0.003,-0.356,+2.750,+13.062,+1.188,-9, 7, 4, 5, 1, -2, -2, -1
1503683112277,+0.784,+0.530,-0.177,-0.269,+0.992,-0.015,-0.387,-1.250,+15.062,+3.750,-6, -1, -2, 3, 4, 1, 1, 2
1503683112299,+0.784,+0.530,-0.177,-0.271,+0.965,-0.028,-0.328,-6.875,-2.875,+5.062,-15, -3, -3, 24, 30, 1, 0, -4
1503683112315,+0.785,+0.528,-0.177,-0.272,+0.931,-0.037,-0.294,-4.812,-13.750,+1.750,-35, -28, -8, -7, -10, -2, -4, -14
1503683112337,+0.786,+0.527,-0.175,-0.273,+0.938,-0.009,-0.401,+0.375,-9.625,+3.750,-13, -4, -2, 0, -4, -2, -1, 2
1503683112359,+0.787,+0.525,-0.174,-0.273,+0.907,+0.021,-0.356,+1.750,-13.375,+5.875,21, -16, 0, -4, -5, 1, 1, 4
1503683112375,+0.788,+0.523,-0.173,-0.274,+0.921,+0.022,-0.328,+0.625,-15.000,+5.625,11, 28, 7, -1, -1, -1, 3, 4
1503683112399,+0.788,+0.523,-0.172,-0.275,+0.969,+0.015,-0.320,-2.125,-7.562,+7.750,-17, -8, -5, -3, -5, -4, -4, -6
1503683112419,+0.788,+0.523,-0.171,-0.277,+1.006,-0.017,-0.372,-2.812,-2.188,+12.688,23, 6, 6, 2, 1, 1, 6, 11
1503683120339,+0.798,+0.508,-0.173,-0.275,+0.874,-0.026,-0.406,+6.438,+26.562,+18.125,-6, -7, 1, -2, 0, 2, 3, 3
1503683120368,+0.793,+0.515,-0.172,-0.276,+0.960,+0.012,-0.398,+6.312,+48.188,+23.625,5, -1, 0, -1, -2, -2, -4, -3
1503683120391,+0.787,+0.523,-0.171,-0.277,+0.993,+0.050,-0.410,+12.438,+53.375,+28.812,1, -4, 1, 0, 1, 0, -1, 1
1503683120399,+0.782,+0.532,-0.169,-0.277,+0.979,-0.035,-0.343,+16.500,+51.125,+24.250,-24, -2, -1, 0, -4, -2, -2, -5
1503683120421,+0.777,+0.540,-0.167,-0.277,+0.986,-0.083,-0.351,+16.750,+51.750,+18.188,19, 9, -4, 1, -1, -2, -1, 3
1503683120443,+0.772,+0.548,-0.165,-0.276,+0.986,-0.071,-0.327,+17.938,+48.812,+16.625,-6, -11, -1, -1, -1, 0, -1, -1
1503683120459,+0.767,+0.556,-0.163,-0.275,+0.958,-0.044,-0.251,+18.562,+52.375,+16.938,2, -3, -3, 0, 0, -1, -3, -4
1503683120481,+0.760,+0.567,-0.162,-0.273,+0.962,-0.058,-0.209,+19.062,+66.312,+18.062,7, -3, -6, -1, 0, -2, -1, -2
1503683120505,+0.754,+0.578,-0.161,-0.269,+1.046,-0.125,-0.178,+26.750,+65.625,+3.375,-27, -9, -3, -3, -1, -1, 1, -2
1503683120519,+0.748,+0.587,-0.159,-0.267,+1.089,-0.202,-0.192,+21.938,+57.000,+5.250,-8, -2, 0, -3, -4, -1, -2, -2
1503683120541,+0.743,+0.595,-0.157,-0.264,+1.032,-0.198,-0.182,+22.250,+48.688,+3.875,5, -4, -3, 3, 1, 0, 0, -1
1503683120563,+0.739,+0.601,-0.154,-0.262,+0.954,-0.194,-0.197,+22.375,+40.438,-1.000,10, 5, 3, 0, 1, 1, 1, 2
1503683120580,+0.736,+0.606,-0.154,-0.259,+0.978,-0.178,-0.180,+13.625,+32.500,-6.875,-10, -3, -1, -2, -2, -4, -1, 1
1503683120601,+0.733,+0.610,-0.154,-0.256,+1.012,-0.136,-0.160,+8.750,+32.625,-7.250,-1, 18, 4, 1, 1, 0, -1, 0
1503683120623,+0.731,+0.614,-0.155,-0.254,+0.960,-0.104,-0.149,+9.688,+26.688,-9.062,-7, -1, 1, 0, -1, -2, -1, -3
1503683120646,+0.730,+0.616,-0.156,-0.250,+0.932,-0.092,-0.171,+10.750,+20.125,-16.938,-3, -2, 0, -2, 0, 0, 0, -3
1503683120661,+0.729,+0.619,-0.157,-0.246,+0.870,-0.062,-0.164,+10.125,+25.750,-16.188,-1, -14, -4, 0, -2, 0, -2, 0
1503683120683,+0.727,+0.622,-0.159,-0.243,+0.962,-0.059,-0.179,+4.688,+31.438,-10.312,-1, 2, -3, -3, -3, -1, 0, 1
1503683120699,+0.726,+0.625,-0.160,-0.241,+1.045,-0.011,-0.160,+6.125,+20.188,-9.188,-2, -3, -4, -2, -1, -2, 0, -5
1503683120721,+0.726,+0.626,-0.160,-0.237,+1.028,-0.051,-0.111,+11.750,+8.000,-13.750,-6, 10, 5, 1, 3, -1, -2, -2
1503683120744,+0.726,+0.626,-0.161,-0.234,+0.964,-0.041,-0.113,+6.875,+3.875,-13.562,9, 11, 3, -2, -2, -1, -1, -1
1503683120759,+0.725,+0.628,-0.162,-0.232,+0.948,-0.007,-0.127,+5.188,+16.000,-11.250,-5, -7, -4, 1, 1, -2, 0, -2
1503683120781,+0.723,+0.631,-0.164,-0.229,+0.998,-0.023,-0.065,+3.562,+25.750,-8.500,-7, 0, 2, 1, 0, 0, -1, -3
1503683120803,+0.720,+0.634,-0.166,-0.228,+1.056,-0.035,-0.019,-4.812,+17.125,-7.312,1, 6, 4, -1, -1, -2, -3, -4
1503683120819,+0.720,+0.634,-0.169,-0.226,+1.024,-0.021,-0.084,-5.125,+8.938,-13.875,-2, 0, -2, -2, -2, -2, 1, 1
1503683120844,+0.722,+0.632,-0.172,-0.224,+1.001,-0.005,-0.141,-6.375,-7.375,-24.562,8, 4, 5, 0, 0, -2, -1, -2
1503683120863,+0.724,+0.629,-0.174,-0.222,+0.997,-0.012,-0.083,-4.938,-17.062,-18.375,-3, 1, 2, 0, -2, 0, -1, -4
1503683120880,+0.723,+0.629,-0.176,-0.223,+0.990,-0.063,-0.012,-16.188,-2.188,-4.750,-6, -9, -4, -1, -2, 1, -2, 0
1503683120901,+0.723,+0.629,-0.178,-0.224,+1.051,+0.041,-0.111,-14.312,-0.438,+2.438,-2, 7, 1, 1, 0, -1, 1, -3
1503683120923,+0.726,+0.625,-0.178,-0.226,+1.062,+0.060,-0.166,-10.500,-23.938,+2.750,-5, -2, 1, -1, 0, 0, -4, 1
1503683120940,+0.730,+0.620,-0.178,-0.227,+0.931,+0.055,-0.175,-6.375,-31.188,-1.875,-5, -8, -3, 0, 1, -1, -3, -5
1503683120961,+0.733,+0.617,-0.179,-0.225,+0.887,+0.058,-0.142,+1.750,-22.188,-9.375,-25, -19, -3, -3, 0, 1, 1, -3
1503683120983,+0.733,+0.617,-0.177,-0.224,+0.951,+0.001,-0.087,+10.125,+1.125,+0.375,12, 3, -3, -1, -2, -1, 1, 2
1503683121008,+0.732,+0.619,-0.176,-0.224,+0.972,-0.046,-0.047,+4.375,-0.125,+7.312,-1, 14, -2, -1, -1, -1, -1, 0
1503683121021,+0.733,+0.617,-0.176,-0.225,+1.004,+0.042,-0.145,-4.562,-9.250,+2.438,11, 0, -1, 0, 0, 1, -1, 1
1503683129630,+0.779,+0.551,-0.166,-0.248,+0.879,+0.063,-0.391,+15.750,+52.812,+40.188,-1, -1, 0, 1, -1, 0, 1, 0
1503683129645,+0.773,+0.561,-0.164,-0.249,+0.997,+0.086,-0.347,+16.312,+67.625,+39.625,0, -5, -1, 1, -1, -2, -2, -3
1503683129668,+0.766,+0.570,-0.158,-0.250,+1.082,+0.045,-0.308,+29.250,+57.562,+48.938,6, -2, -6, 0, -1, -1, 0, 2
1503683129691,+0.762,+0.578,-0.151,-0.250,+1.128,-0.015,-0.288,+41.188,+35.000,+37.750,11, 3, -1, 0, -1, 1, -1, 1
1503683129705,+0.762,+0.582,-0.142,-0.246,+1.075,-0.042,-0.302,+55.250,+9.938,+22.188,7, -2, -1, 0, 0, 0, 0, -1
1503683129728,+0.765,+0.581,-0.130,-0.244,+1.002,-0.139,-0.298,+62.062,-26.938,+23.312,-1, 1, 3, 0, 0, 0, -1, 0
1503683129752,+0.764,+0.586,-0.120,-0.242,+0.835,-0.172,-0.140,+57.500,+11.312,+23.000,1, 8, 1, -1, -1, 0, -1, 0
1503683129765,+0.762,+0.593,-0.111,-0.237,+0.863,-0.155,-0.177,+57.750,+28.875,+10.500,-5, -5, 0, 0, -1, 0, 1, -2
1503683129788,+0.758,+0.601,-0.104,-0.230,+0.932,-0.183,-0.196,+61.875,+44.625,+2.062,-9, -1, 0, -2, -1, -2, 1, -1
1503683129810,+0.755,+0.609,-0.098,-0.223,+0.926,-0.231,-0.158,+58.750,+41.812,-8.250,-2, -1, -4, -1, -2, -2, -1, -2
1503683129826,+0.752,+0.616,-0.092,-0.216,+0.950,-0.201,-0.158,+52.125,+35.000,-8.938,-5, -6, -4, -2, -2, 0, 0, -1
1503683129848,+0.749,+0.622,-0.087,-0.211,+0.979,-0.193,-0.115,+46.312,+29.625,-3.938,-27, -3, 2, 0, 0, -1, 0, -1
1503683129870,+0.746,+0.628,-0.084,-0.206,+0.972,-0.189,-0.071,+37.250,+31.625,-6.562,4, 7, 2, -3, 0, 0, -4, -1
1503683129887,+0.742,+0.634,-0.082,-0.200,+0.951,-0.177,-0.072,+30.125,+37.250,-13.250,0, -7, 0, 1, -2, -1, -1, -4
1503683129908,+0.739,+0.639,-0.081,-0.194,+0.964,-0.152,-0.096,+28.438,+32.688,-20.062,7, -1, -3, 0, 0, 1, -2, 1
1503683129931,+0.738,+0.643,-0.081,-0.188,+1.012,-0.128,-0.107,+26.625,+18.688,-21.250,7, 2, -2, 0, 0, -1, 0, -1
1503683129945,+0.738,+0.644,-0.080,-0.183,+1.026,-0.130,-0.090,+23.438,+8.062,-18.812,-1, -4, -4, 0, -1, 0, -1, -1
1503683129968,+0.737,+0.646,-0.080,-0.179,+1.015,-0.119,-0.062,+18.062,+9.688,-17.125,-7, -13, -4, -1, -2, -1, 1, 0
1503683129991,+0.738,+0.647,-0.080,-0.174,+1.017,-0.077,-0.098,+17.562,+5.250,-19.375,-7, -4, 0, 0, 0, -1, 1, -2
1503683130005,+0.740,+0.647,-0.080,-0.168,+0.969,-0.054,-0.107,+20.000,-7.938,-24.312,1, 1, 0, -3, -2, -3, -2, 0
1503683130029,+0.742,+0.646,-0.080,-0.162,+0.945,-0.058,-0.132,+25.000,-6.625,-27.938,-3, 1, -1, 0, 2, 1, 1, 2
1503683130054,+0.743,+0.646,-0.080,-0.154,+0.956,-0.037,-0.113,+28.188,-0.250,-31.812,-3, 0, -1, -1, -1, -1, -4, -2
1503683130066,+0.744,+0.647,-0.079,-0.148,+1.065,-0.055,-0.052,+27.375,-2.062,-24.938,-1, -4, 2, -1, -2, 0, -1, -3
1503683130089,+0.745,+0.648,-0.077,-0.143,+1.076,-0.052,-0.083,+24.688,+0.750,-12.312,14, 3, 0, 0, 0, -1, -1, 0
1503683130110,+0.746,+0.647,-0.075,-0.139,+1.056,-0.077,-0.105,+23.562,-9.625,-9.375,1, 5, 3, 0, 2, 1, 0, 1
1503683130126,+0.749,+0.645,-0.072,-0.135,+1.059,-0.065,-0.118,+26.938,-21.188,-9.500,-14, -8, -3, -1, -3, -2, -3, -5
1503683130148,+0.753,+0.641,-0.068,-0.131,+1.050,-0.084,-0.131,+28.938,-30.562,-6.188,4, -4, -2, -1, 0, -1, 1, -1
1503683130171,+0.755,+0.640,-0.064,-0.129,+1.049,-0.099,-0.068,+25.625,-23.312,-1.875,3, 5, 2, -1, -2, 0, -1, -1
1503683130188,+0.757,+0.638,-0.060,-0.127,+1.069,-0.114,-0.077,+22.188,-21.312,+1.250,-15, -5, -2, 0, -1, -1, 0, 1
1503683130208,+0.758,+0.637,-0.056,-0.126,+1.020,-0.159,-0.074,+13.750,-15.375,+3.812,-3, -2, -4, -4, -1, 0, 1, 1
1503683130230,+0.759,+0.637,-0.054,-0.126,+1.015,-0.141,-0.046,+9.188,-13.938,+6.938,5, 0, 2, -1, -1, -2, -1, -2
1503683130245,+0.759,+0.637,-0.051,-0.127,+1.018,-0.107,-0.096,+7.312,-6.750,+8.438,9, -2, -4, -2, -2, -3, -2, 0
1503683130269,+0.760,+0.635,-0.050,-0.127,+1.022,-0.075,-0.091,+3.000,-15.312,+5.000,25, 5, -2, 0, -3, -2, -3, 1
1503683130291,+0.763,+0.632,-0.049,-0.127,+1.031,-0.055,-0.103,-0.938,-27.438,+5.250,4, -2, -6, -1, -3, -1, -1, 2
1503683130305,+0.766,+0.627,-0.048,-0.128,+0.987,-0.032,-0.116,-3.312,-40.125,+6.375,-14, 0, -1, -2, 2, -1, 2, -2
1503683138638,+0.798,+0.538,-0.155,-0.225,+0.980,+0.016,-0.329,-1.688,-1.250,+17.000,5, -1, -2, -2, -1, 0, 1, 3
1503683138654,+0.795,+0.541,-0.155,-0.226,+1.062,-0.007,-0.312,-2.000,+17.938,+11.375,-21, -3, 0, 0, -2, -1, 1, -1
1503683138676,+0.791,+0.547,-0.156,-0.226,+1.093,-0.015,-0.372,-0.875,+43.938,+9.875,6, -2, 1, 0, 0, -2, -1, -9
1503683138700,+0.782,+0.559,-0.155,-0.227,+1.109,-0.067,-0.345,+2.750,+85.312,+23.375,8, -5, -5, -2, 0, -3, -2, 2
1503683138714,+0.771,+0.574,-0.156,-0.227,+1.153,-0.168,-0.305,+5.188,+102.625,+27.688,4, 0, -2, -1, 1, 1, 0, 1
1503683138736,+0.761,+0.587,-0.154,-0.228,+1.124,-0.222,-0.310,+8.250,+92.625,+18.000,9, 4, -2, -1, -2, -1, -1, 1
1503683138757,+0.755,+0.596,-0.151,-0.229,+1.117,-0.250,-0.276,+10.812,+63.125,+17.375,6, -11, -3, -4, -1, -1, 0, 1
1503683138774,+0.744,+0.610,-0.143,-0.234,+0.957,-0.464,-0.199,+20.438,+84.375,+52.688,4, -4, 3, -1, -2, -3, 0, -1
1503683138799,+0.735,+0.621,-0.143,-0.232,+1.045,-0.199,-0.150,+10.562,+81.125,+2.500,-6, -10, 0, 3, 1, 1, -2, -2
1503683138818,+0.728,+0.630,-0.141,-0.230,+1.053,-0.165,-0.173,+19.188,+69.812,+10.375,-1, 2, 0, -1, 0, 0, 0, -5
1503683138834,+0.721,+0.639,-0.139,-0.227,+0.826,-0.166,-0.117,+24.000,+62.938,+3.062,-4, 2, -1, -1, -1, 0, 1, -1
1503683138856,+0.717,+0.646,-0.140,-0.222,+0.846,-0.103,-0.102,+20.875,+55.125,-12.562,17, 13, -3, -2, -3, -2, -2, -1
1503683138878,+0.711,+0.653,-0.141,-0.217,+0.854,-0.027,-0.144,+18.188,+62.812,-8.500,-15, -2, 2, 0, 0, 0, -2, -2
1503683138894,+0.706,+0.661,-0.142,-0.212,+0.839,+0.007,-0.088,+18.375,+61.188,-6.125,-6, 4, 2, -2, 0, 0, 1, 3
1503683138916,+0.702,+0.666,-0.143,-0.207,+0.902,+0.011,-0.062,+18.812,+47.875,-11.062,0, 13, 1, -1, -1, 1, -1, -2
1503683138938,+0.699,+0.671,-0.145,-0.201,+0.925,+0.054,-0.045,+21.188,+44.625,-16.938,2, -5, -2, -2, -1, -1, 0, 1
1503683138954,+0.697,+0.674,-0.146,-0.195,+0.935,+0.103,-0.034,+18.375,+25.562,-16.562,-8, -9, -4, 0, 0, -3, -3, 0
1503683138976,+0.697,+0.675,-0.148,-0.189,+0.958,+0.141,-0.008,+14.938,+11.750,-14.438,-4, -2, -1, -2, -1, -2, 0, 1
1503683139000,+0.698,+0.676,-0.149,-0.184,+0.962,+0.146,+0.012,+17.625,+8.812,-14.562,-3, -8, -3, -2, -1, 0, -3, -5
1503683139014,+0.698,+0.678,-0.150,-0.178,+0.938,+0.151,+0.026,+20.500,+10.250,-13.938,-5, 0, 4, 0, -2, -1, -1, 5
1503683139036,+0.697,+0.680,-0.151,-0.172,+0.896,+0.131,+0.031,+19.812,+15.125,-11.250,-3, 3, -1, -3, 0, 1, 0, -1
1503683139058,+0.695,+0.683,-0.151,-0.168,+0.937,+0.069,+0.065,+17.688,+20.938,-9.312,13, 22, 4, 1, 0, 0, -2, -5
1503683139074,+0.692,+0.686,-0.152,-0.164,+0.988,+0.048,+0.085,+11.375,+25.438,-8.562,-3, -8, -3, 2, 0, -2, 0, 3
1503683139098,+0.690,+0.689,-0.153,-0.161,+1.019,+0.087,+0.079,+4.688,+22.938,-5.312,3, -4, -1, -1, -2, -2, -1, 3
1503683139118,+0.688,+0.691,-0.154,-0.158,+1.030,+0.103,+0.075,+6.938,+16.500,-5.188,-2, -4, -5, -1, -2, -2, -4, -7
1503683139134,+0.688,+0.691,-0.155,-0.155,+1.057,+0.070,+0.077,+8.500,+1.250,-6.062,-1, -10, -1, -1, 0, 1, 0, 0
1503683139156,+0.689,+0.691,-0.155,-0.153,+1.021,+0.025,+0.048,+6.062,-1.875,-8.625,4, -7, -4, -1, -2, -2, -1, -2
1503683139178,+0.690,+0.690,-0.155,-0.151,+1.008,-0.019,+0.016,+4.875,-2.375,-13.750,4, 2, 0, 0, 0, 1, 0, -4
1503683139194,+0.692,+0.689,-0.156,-0.150,+1.066,-0.028,+0.041,+2.938,-9.875,-12.688,-4, 5, 3, 1, -2, -1, 2, 6
1503683139223,+0.693,+0.687,-0.156,-0.149,+1.063,-0.053,+0.055,+2.312,-13.562,-12.625,-14, 0, 2, 0, 1, -1, 1, -2
1503683139238,+0.694,+0.687,-0.157,-0.148,+1.021,-0.060,+0.020,-1.062,-4.000,-14.000,-1, 0, 0, -1, 0, 2, -1, -2
1503683139254,+0.694,+0.687,-0.159,-0.146,+0.983,-0.006,+0.104,-1.688,+1.812,-18.562,6, 12, 5, 2, 1, -1, -1, -1
1503683139277,+0.695,+0.686,-0.160,-0.143,+1.085,+0.029,+0.084,+6.125,-5.312,-15.500,-5, -1, -5, -2, -1, 0, 0, 4
1503683139300,+0.698,+0.684,-0.160,-0.141,+1.131,-0.008,+0.099,+5.875,-25.875,-16.750,4, -11, -4, -1, 0, 1, 0, 0
1503683139314,+0.703,+0.678,-0.161,-0.141,+1.047,+0.033,+0.082,-1.062,-48.375,-14.688,3, 1, 0, -2, -1, -2, -1, 0
1503683139339,+0.708,+0.673,-0.161,-0.140,+0.910,+0.126,-0.019,+0.875,-41.125,-9.562,-3, -9, -2, -1, -2, 0, 0, 1
1503683139358,+0.712,+0.669,-0.163,-0.138,+0.827,+0.153,-0.016,-0.125,-24.000,-11.312,-8, 9, -2, -1, -1, -1, -4, -5
1503683139375,+0.711,+0.670,-0.163,-0.137,+0.901,+0.138,+0.012,-0.750,+8.938,+2.938,3, -6, -5, -1, 1, 0, 1, 1
1503683139399,+0.708,+0.673,-0.163,-0.138,+0.983,+0.103,+0.032,-0.125,+20.312,+11.938,3, -2, -1, -2, 6, 7, -1, -3
1503683139418,+0.707,+0.674,-0.162,-0.139,+1.076,+0.104,-0.020,-1.875,+8.000,+13.188,6, -6, 0, -1, -2, -1, -2, 2
1503683139434,+0.709,+0.672,-0.161,-0.140,+1.042,+0.135,+0.010,-0.312,-18.438,+12.375,0, 5, 0, -1, -2, -1, -1, 4
1503683139456,+0.712,+0.669,-0.159,-0.141,+0.964,+0.108,+0.031,+0.812,-28.875,+14.250,3, 3, 2, 2, -1, -3, -1, -2
1503683139478,+0.713,+0.668,-0.157,-0.144,+0.948,+0.055,+0.004,-3.812,-16.688,+16.750,-3, -3, -4, -1, -4, -1, -1, -1
1503683139494,+0.713,+0.668,-0.155,-0.147,+0.992,+0.038,-0.012,-3.875,-5.750,+23.375,5, 8, -2, -2, -2, -3, -1, -1
1503683139516,+0.713,+0.668,-0.153,-0.150,+1.063,+0.035,-0.010,-3.625,-3.625,+21.875,-7, -12, -2, -3, -2, -2, 0, -1
1503683148200,+0.804,+0.519,-0.144,-0.252,+0.911,+0.057,-0.410,-7.062,+6.375,+35.562,13, -3, -1, -3, -2, 0, -1, 1
1503683148222,+0.800,+0.522,-0.143,-0.258,+0.948,+0.034,-0.378,-11.688,+22.812,+42.438,-12, -7, -2, 1, 0, 0, -1, 2
1503683148245,+0.794,+0.528,-0.143,-0.264,+0.967,+0.019,-0.334,-11.625,+35.875,+50.500,12, 3, 1, 0, -2, 0, 1, 4
1503683148261,+0.789,+0.534,-0.142,-0.269,+0.950,-0.012,-0.353,-8.312,+42.812,+42.625,-7, -8, -2, 1, 2, 1, 0, -2
1503683148283,+0.783,+0.541,-0.142,-0.273,+0.963,-0.002,-0.324,-6.812,+45.250,+34.938,2, 2, -3, -2, 0, -1, -2, -2
1503683148305,+0.776,+0.549,-0.146,-0.274,+0.910,+0.084,-0.250,-14.000,+62.375,+22.500,-3, 6, 0, -2, -1, -2, 1, 4
1503683148321,+0.768,+0.559,-0.148,-0.274,+0.870,+0.000,-0.270,+1.375,+71.000,+18.938,-3, -3, 0, -2, -2, -2, -1, -2
1503683148345,+0.761,+0.569,-0.150,-0.273,+0.915,-0.096,-0.245,+5.188,+70.000,+10.000,12, 16, -3, -2, -1, 0, -1, 0
1503683148366,+0.755,+0.578,-0.152,-0.271,+0.964,-0.085,-0.219,+6.250,+69.750,-0.688,-3, -2, 0, -2, -2, 0, 0, -4
1503683148381,+0.749,+0.587,-0.154,-0.266,+0.936,-0.120,-0.259,+12.250,+68.188,-11.562,-8, -8, -1, -3, -1, -1, 2, -2
1503683148403,+0.745,+0.593,-0.155,-0.262,+0.932,-0.178,-0.249,+11.312,+52.750,-18.875,-4, 4, 3, 0, 0, -1, -2, 0
1503683148424,+0.742,+0.598,-0.157,-0.258,+0.945,-0.176,-0.237,+8.812,+41.062,-21.688,1, 1, -1, 1, 1, 0, 1, -1
1503683148441,+0.740,+0.603,-0.158,-0.254,+0.963,-0.148,-0.208,+12.062,+36.875,-18.938,5, 5, 3, -1, -2, -1, -2, -1
1503683148463,+0.738,+0.607,-0.159,-0.250,+0.973,-0.153,-0.232,+13.062,+34.625,-19.188,-11, -10, -5, -3, -2, -1, -2, -6
1503683148485,+0.736,+0.610,-0.159,-0.246,+0.957,-0.139,-0.183,+11.375,+28.000,-17.125,-12, -9, 1, 1, 0, 1, -1, 0
1503683148501,+0.734,+0.613,-0.159,-0.244,+0.967,-0.158,-0.161,+10.750,+21.562,-10.250,-7, -2, 1, -1, -2, -2, -1, -5
1503683148523,+0.731,+0.618,-0.159,-0.241,+0.948,-0.157,-0.177,+10.500,+35.375,-11.938,-4, 0, -2, -1, -2, -4, -2, 0
1503683148545,+0.728,+0.622,-0.160,-0.238,+0.957,-0.114,-0.182,+10.375,+37.500,-13.438,-1, -2, 1, 0, 0, -3, -2, 0
1503683148561,+0.726,+0.626,-0.160,-0.235,+1.039,-0.082,-0.179,+12.875,+32.875,-8.125,0, -1, -2, 1, 0, -2, -3, -5
1503683148583,+0.724,+0.630,-0.160,-0.232,+1.088,-0.091,-0.112,+13.188,+26.062,-5.000,-3, 0, 1, -2, 0, -2, -2, 0
1503683148605,+0.722,+0.633,-0.159,-0.229,+1.078,-0.096,-0.080,+12.875,+17.125,-9.938,13, 11, -1, 0, -1, 0, 1, 2
1503683148628,+0.723,+0.634,-0.159,-0.225,+1.014,-0.082,-0.066,+13.250,+3.125,-17.062,12, 8, -6, -3, -2, -1, 1, 5
1503683148646,+0.724,+0.633,-0.159,-0.222,+0.940,-0.076,-0.097,+14.750,-4.125,-17.562,9, -6, 0, -1, -1, -1, -1, -2
1503683148664,+0.724,+0.635,-0.159,-0.218,+0.928,-0.042,-0.090,+14.625,+14.062,-15.312,-6, -3, -1, 0, 1, 2, 1, 3
1503683148681,+0.721,+0.640,-0.159,-0.213,+1.038,-0.010,-0.118,+19.000,+35.062,-13.062,2, -4, -2, -2, -3, 0, 0, 2
1503683148703,+0.719,+0.643,-0.159,-0.208,+1.161,-0.019,-0.098,+20.250,+25.500,-13.688,-12, -11, -5, -3, 0, -1, -5, -6
1503683148732,+0.721,+0.643,-0.157,-0.204,+1.184,-0.080,-0.074,+22.125,-3.938,-11.250,7, 1, 5, 3, 1, -1, -2, -3
1503683148741,+0.724,+0.641,-0.155,-0.203,+1.138,-0.139,-0.028,+14.000,-26.688,-7.750,-21, -9, -3, 0, -2, 2, 1, 0
1503683148763,+0.726,+0.639,-0.153,-0.204,+1.089,-0.140,-0.047,+0.812,-26.688,-1.500,-2, 7, 5, 0, -2, -1, -1, 0
1503683148785,+0.726,+0.638,-0.152,-0.207,+1.036,-0.100,+0.011,-9.000,-16.562,+9.812,-4, -4, -4, -2, -1, -2, -3, -7
1503683148801,+0.727,+0.637,-0.150,-0.210,+1.073,-0.112,+0.040,-6.938,-23.812,+15.000,12, 3, 1, -1, -3, 0, -1, 0
1503683148823,+0.730,+0.632,-0.148,-0.212,+1.129,-0.082,+0.003,-5.625,-46.938,+6.438,-8, -4, 0, 2, 0, -1, -3, -5
1503683148847,+0.738,+0.622,-0.147,-0.214,+1.121,-0.050,-0.057,-10.375,-81.375,-3.500,8, -2, 4, 1, 1, 2, 3, 4
1503683148867,+0.749,+0.609,-0.146,-0.218,+0.984,-0.002,-0.078,-19.125,-103.438,-7.875,7, 7, 1, 0, 1, 0, -1, 0
1503683148883,+0.758,+0.596,-0.146,-0.221,+0.767,+0.046,-0.233,-19.062,-81.688,-4.750,-16, -5, 1, -1, -2, 0, 0, -2
1503683148904,+0.763,+0.588,-0.147,-0.222,+0.725,+0.058,-0.228,-13.875,-51.562,-3.500,10, 13, 1, 2, 0, -1, 0, 1
1503683148921,+0.765,+0.585,-0.149,-0.223,+0.834,+0.050,-0.213,-13.625,-17.438,-1.062,3, 0, 1, 1, -2, -3, -3, 3
1503683148943,+0.765,+0.585,-0.151,-0.225,+0.916,+0.035,-0.197,-18.500,+0.500,+5.562,20, 26, 2, -2, 0, 1, 0, 3
1503683148964,+0.764,+0.584,-0.154,-0.227,+0.954,+0.070,-0.240,-16.500,+4.875,+5.625,-9, 7, -1, -5, -1, -2, -1, -2
1503683148981,+0.765,+0.583,-0.155,-0.227,+0.945,+0.062,-0.275,-10.250,-6.062,+1.438,7, -8, -2, 1, -1, -1, -1, -2
1503683149003,+0.766,+0.580,-0.156,-0.228,+0.948,+0.015,-0.232,-8.875,-14.500,+0.375,-12, -11, -5, -1, -3, -2, -3, -4
1503683149025,+0.767,+0.579,-0.156,-0.229,+0.938,-0.012,-0.197,-9.688,-10.875,+1.250,7, 3, 0, 1, 0, -1, -2, -4
1503683149041,+0.767,+0.578,-0.157,-0.230,+0.966,-0.015,-0.228,-8.500,-5.062,+1.688,-8, -14, -4, -2, -3, -2, -1, -1
1503683149063,+0.767,+0.577,-0.158,-0.232,+0.992,-0.019,-0.231,-9.500,-4.750,+4.188,-8, -5, -1, 0, 1, 0, 1, -4
1503683149087,+0.767,+0.577,-0.158,-0.233,+0.985,-0.042,-0.214,-9.438,-2.250,+2.000,-4, -1, 1, 0, 1, -1, -4, -5
1503683156569,+0.791,+0.546,-0.158,-0.225,+0.992,+0.042,-0.294,+2.375,+2.312,+2.625,14, 0, -2, 0, 0, -1, 0, -1
1503683156586,+0.792,+0.546,-0.158,-0.225,+0.963,+0.021,-0.313,+2.625,-4.125,+0.188,-10, -3, 1, 1, 0, -1, -1, 0
1503683156607,+0.792,+0.545,-0.157,-0.224,+0.918,+0.000,-0.323,+1.500,-2.688,-0.812,1, -2, -2, -3, -1, 1, 0, 5
1503683156629,+0.792,+0.546,-0.157,-0.224,+0.903,+0.005,-0.307,+1.500,+8.500,+1.750,-2, -3, -2, -3, -3, -2, -1, 0
1503683156645,+0.791,+0.548,-0.157,-0.224,+0.943,+0.028,-0.303,+1.750,+11.188,+4.125,-11, -8, -5, -1, -2, -1, 1, -1
1503683156667,+0.790,+0.549,-0.156,-0.224,+0.997,+0.046,-0.300,+3.562,+4.250,+4.375,-2, 1, 2, -1, -1, 1, -1, -3
1503683156689,+0.790,+0.549,-0.156,-0.223,+0.976,+0.043,-0.294,+5.000,-0.375,+0.062,-13, -5, -1, -1, 0, -2, -1, -2
1503683156705,+0.790,+0.550,-0.155,-0.222,+0.903,+0.000,-0.257,+6.250,+5.062,-0.312,11, 7, 1, -2, 0, -1, 0, 0
1503683156727,+0.788,+0.553,-0.154,-0.221,+0.877,+0.010,-0.298,+7.688,+17.500,+6.000,11, 3, -3, -3, -3, 0, -2, 1
1503683156749,+0.786,+0.557,-0.154,-0.221,+0.960,+0.044,-0.310,+3.938,+27.312,+7.812,-7, -1, -6, -3, 0, -1, -2, -1
1503683156765,+0.782,+0.562,-0.154,-0.221,+1.037,+0.065,-0.248,+3.500,+31.250,+14.000,-3, 0, 0, 1, 0, -1, -1, -3
1503683156787,+0.779,+0.566,-0.153,-0.222,+0.998,+0.042,-0.276,+4.250,+24.000,+19.438,-4, -6, 1, -3, -1, 0, 1, -5
1503683156809,+0.777,+0.569,-0.151,-0.224,+0.957,+0.030,-0.320,+1.938,+21.750,+25.250,-3, 6, 2, 0, 0, -1, 2, 5
1503683156825,+0.773,+0.574,-0.149,-0.226,+0.942,+0.042,-0.306,+4.062,+38.938,+26.750,-3, -2, 1, 2, -1, 0, -1, 0
1503683156847,+0.768,+0.581,-0.148,-0.226,+0.988,+0.035,-0.264,+12.625,+49.812,+26.562,10, -2, -3, -2, -1, -3, -4, -3
1503683156869,+0.762,+0.589,-0.145,-0.227,+1.019,-0.014,-0.220,+15.438,+50.375,+30.188,-6, 0, 0, -2, 1, -1, -3, -7
1503683156888,+0.757,+0.596,-0.142,-0.227,+1.046,-0.028,-0.214,+15.438,+44.125,+26.562,-1, 0, 0, -1, -1, 0, 1, 1
1503683156907,+0.753,+0.602,-0.139,-0.226,+0.958,-0.043,-0.201,+19.812,+40.500,+15.250,9, -5, -4, -1, -3, -1, -2, 0
1503683156930,+0.750,+0.608,-0.135,-0.224,+0.944,-0.132,-0.159,+27.750,+27.375,+11.938,-5, 0, 1, 1, -2, -3, -2, -4
1503683156945,+0.748,+0.612,-0.131,-0.223,+1.001,-0.160,-0.123,+23.125,+18.188,+4.812,-10, -7, -3, -3, 0, 0, 1, 1
1503683156967,+0.746,+0.615,-0.129,-0.220,+1.017,-0.122,-0.139,+19.938,+16.438,-1.625,-1, -2, -3, -1, -2, 0, 1, 0
1503683156990,+0.746,+0.617,-0.127,-0.217,+0.971,-0.133,-0.149,+17.938,+7.500,-9.688,0, -4, -4, -1, 0, 1, 2, 1
1503683157005,+0.747,+0.617,-0.126,-0.214,+0.943,-0.143,-0.182,+12.188,+0.438,-13.750,-3, 1, -3, 0, 0, 0, -2, -3
1503683157029,+0.746,+0.618,-0.126,-0.212,+0.918,-0.142,-0.139,+6.250,+10.188,-11.938,6, 1, -2, -4, -3, -1, -2, 0
1503683157049,+0.743,+0.622,-0.127,-0.211,+0.939,-0.142,-0.126,+0.375,+28.188,-9.562,-1, -1, 4, -1, -1, -2, 0, 1
1503683157065,+0.740,+0.626,-0.129,-0.209,+1.054,-0.093,-0.156,+0.812,+31.688,-12.312,-5, -1, 0, 0, -2, -2, -1, 0
1503683157089,+0.741,+0.626,-0.131,-0.206,+1.080,-0.049,-0.140,+3.000,+2.938,-15.625,6, 2, -2, 2, 1, 1, 2, 1
1503683157109,+0.742,+0.625,-0.131,-0.204,+1.011,-0.054,-0.122,+3.625,-11.375,-13.812,-1, 3, 2, 1, 1, -1, 1, 1
1503683157126,+0.743,+0.624,-0.132,-0.202,+0.942,-0.053,-0.169,+2.250,+2.062,-11.250,-1, -2, -3, -2, -2, 1, -1, 1
1503683157147,+0.742,+0.626,-0.133,-0.200,+0.982,-0.024,-0.158,-0.062,+13.062,-8.375,0, -4, -3, -2, -1, -2, -1, -1
1503683157169,+0.743,+0.625,-0.133,-0.199,+1.028,-0.037,-0.129,+0.875,-6.125,-5.438,-3, 8, 2, 0, -2, 1, 0, -3
1503683157194,+0.743,+0.625,-0.133,-0.200,+1.041,-0.095,-0.061,-4.438,-9.500,-0.688,8, 0, -2, 0, 0, -2, -2, 0
1503683157207,+0.743,+0.624,-0.135,-0.201,+1.013,-0.065,-0.091,-10.812,-3.812,-2.438,1, -2, -2, -1, 0, 3, 2, 5
1503683157230,+0.745,+0.622,-0.137,-0.201,+1.022,-0.025,-0.144,-12.875,-14.625,-8.562,-11, -6, 2, -1, 1, 1, -2, -4
1503683157245,+0.747,+0.618,-0.137,-0.202,+1.021,-0.026,-0.155,-8.125,-27.812,-5.938,-7, 1, -2, -1, -2, -2, -1, -4
1503683164174,+0.801,+0.528,-0.155,-0.235,+0.903,+0.061,-0.297,+8.938,-1.312,+8.375,1, -2, -2, 1, -1, -1, 0, -3
1503683164191,+0.801,+0.529,-0.153,-0.235,+0.938,+0.058,-0.327,+13.875,-4.312,+13.250,3, 4, 2, -2, -4, 0, 0, 5
1503683164213,+0.800,+0.531,-0.150,-0.236,+0.918,+0.029,-0.380,+12.812,+10.250,+20.000,-2, -2, -2, -3, 0, 0, -2, -2
1503683164235,+0.798,+0.534,-0.148,-0.237,+0.953,+0.026,-0.457,+5.250,+26.625,+19.875,2, 0, 3, 0, -2, -2, -1, 0
1503683164258,+0.792,+0.542,-0.148,-0.238,+0.994,+0.053,-0.423,+6.375,+60.875,+24.312,-4, -2, 1, 1, -1, -1, -1, 0
1503683164272,+0.784,+0.554,-0.146,-0.239,+1.044,-0.026,-0.424,+13.875,+85.125,+36.375,0, 1, -3, -1, 1, -1, 1, -1
1503683164296,+0.774,+0.568,-0.142,-0.241,+1.144,-0.149,-0.418,+20.625,+90.812,+40.188,-2, 0, -1, 0, -2, -3, -3, 0
1503683164316,+0.766,+0.580,-0.136,-0.241,+1.151,-0.184,-0.390,+30.500,+77.750,+34.312,0, 1, 2, -1, -1, -2, -2, -6
1503683164334,+0.761,+0.588,-0.127,-0.241,+1.110,-0.170,-0.399,+46.938,+52.438,+35.812,-11, -6, -3, -3, -2, 2, -3, 1
1503683164354,+0.759,+0.595,-0.114,-0.240,+1.124,-0.250,-0.327,+65.375,+25.000,+44.062,-2, -3, 2, 0, -1, -1, -3, 0
1503683164376,+0.759,+0.598,-0.099,-0.238,+1.042,-0.312,-0.219,+74.125,-6.312,+34.125,0, 1, -1, -3, 0, -1, 0, -1
1503683164399,+0.757,+0.604,-0.086,-0.234,+0.915,-0.321,-0.144,+71.312,+15.438,+21.875,1, -6, -5, -1, 0, 2, 0, 2
1503683164414,+0.753,+0.611,-0.077,-0.229,+0.806,-0.286,-0.143,+64.562,+31.812,+9.188,-3, -2, 1, 0, -2, 0, 2, -1
1503683164436,+0.749,+0.620,-0.069,-0.224,+0.831,-0.241,-0.178,+58.562,+50.438,+5.750,5, 0, 0, -2, -1, -2, -2, -2
1503683164452,+0.743,+0.629,-0.063,-0.218,+0.889,-0.187,-0.125,+58.250,+53.812,+10.062,2, 2, 0, 0, 0, 0, 2, 3
1503683164474,+0.738,+0.638,-0.056,-0.212,+0.957,-0.198,-0.085,+56.562,+50.562,+5.812,-2, -1, -2, 0, -1, -2, -2, 3
1503683164496,+0.733,+0.646,-0.052,-0.207,+0.947,-0.198,-0.039,+46.562,+39.438,-0.688,-4, 1, 1, 1, 1, 1, -3, 0
1503683164512,+0.729,+0.652,-0.049,-0.202,+0.935,-0.177,-0.057,+32.875,+42.188,-2.750,1, -2, 0, -2, -1, -1, 1, 1
1503683164534,+0.724,+0.658,-0.049,-0.198,+0.933,-0.111,-0.092,+21.812,+43.688,-3.062,-5, 2, 3, 2, 1, -2, -2, -1
1503683164558,+0.722,+0.662,-0.049,-0.194,+0.950,-0.042,-0.063,+23.500,+26.625,-5.000,1, -2, 1, -2, -1, -1, 0, 0
1503683164572,+0.722,+0.664,-0.048,-0.188,+0.965,-0.067,-0.039,+25.062,+5.938,-14.812,-2, -2, -1, 0, -1, 0, 0, -2
1503683164595,+0.723,+0.664,-0.048,-0.183,+0.916,-0.090,-0.037,+19.125,-4.500,-15.625,1, -5, -4, -1, 0, -1, -2, 1
1503683164616,+0.723,+0.665,-0.048,-0.180,+0.870,-0.068,-0.068,+12.500,+8.688,-4.562,-10, 4, -1, -2, -1, 0, 0, -4
1503683164633,+0.720,+0.669,-0.048,-0.178,+0.863,-0.046,-0.040,+7.500,+29.062,-0.250,2, -4, -3, -2, -1, -2, -1, -2
1503683164654,+0.715,+0.674,-0.049,-0.177,+1.036,-0.084,+0.038,+4.688,+33.812,+0.250,2, 2, -2, -1, -1, -3, -3, -2
1503683164677,+0.715,+0.675,-0.050,-0.176,+1.104,-0.077,-0.041,+0.688,+5.812,+2.188,-1, 1, -1, -1, -3, -3, -1, -3
1503683164693,+0.719,+0.671,-0.051,-0.173,+0.984,-0.052,-0.073,+2.062,-27.062,-12.062,1, -4, -3, 0, 0, -2, -1, -1
1503683164715,+0.724,+0.667,-0.053,-0.169,+0.855,-0.039,-0.064,+5.750,-33.500,-23.125,-5, -1, -1, 0, 0, 0, 0, 1
1503683164740,+0.727,+0.664,-0.054,-0.164,+0.863,-0.065,-0.061,+10.000,-23.438,-29.125,2, -8, -2, -2, 0, 0, -1, -2
1503683164752,+0.730,+0.662,-0.056,-0.158,+0.954,-0.091,-0.076,+13.812,-12.688,-35.625,1, 7, 1, -1, -2, -3, -1, -3
1503683164774,+0.732,+0.662,-0.059,-0.150,+0.977,-0.071,-0.025,+19.125,-8.875,-41.875,0, -1, -1, -2, -2, -1, 1, 2
1503683164797,+0.733,+0.662,-0.060,-0.143,+0.970,-0.058,-0.018,+22.188,-5.438,-34.000,0, 0, 1, 1, 0, 0, 0, 3
1503683171381,+0.786,+0.549,-0.156,-0.236,+0.992,-0.007,-0.354,+6.000,+7.625,+15.562,6, 1, 3, 2, 2, 0, 1, 0
1503683171396,+0.783,+0.554,-0.153,-0.237,+1.021,+0.000,-0.477,+16.375,+40.562,+22.000,-2, -4, -2, -1, -2, -2, 0, -2
1503683171418,+0.777,+0.564,-0.150,-0.237,+1.057,-0.128,-0.410,+18.938,+64.812,+25.375,-2, -4, -2, -1, -1, 1, 1, -1
1503683171441,+0.768,+0.575,-0.145,-0.240,+1.065,-0.252,-0.306,+13.938,+75.250,+38.375,-6, -2, 1, -1, 0, 0, -4, -3
1503683171457,+0.760,+0.587,-0.141,-0.242,+1.073,-0.243,-0.334,+18.188,+78.000,+33.312,-8, -3, -2, -2, -3, 0, 1, -2
1503683171479,+0.752,+0.598,-0.134,-0.242,+1.121,-0.257,-0.319,+33.312,+69.875,+28.688,5, 4, 1, -1, -1, 1, 1, 1
1503683171501,+0.746,+0.607,-0.123,-0.244,+1.098,-0.408,-0.336,+47.188,+52.625,+46.000,1, 0, -4, -1, 0, -1, 1, -2
1503683171516,+0.742,+0.615,-0.114,-0.243,+1.052,-0.335,-0.218,+47.438,+40.812,+26.375,0, -1, -1, 0, -2, -2, -3, -3
1503683171538,+0.736,+0.623,-0.107,-0.242,+0.978,-0.312,-0.117,+37.688,+42.875,+18.312,-7, -1, 1, 0, 0, -3, -4, -5
1503683171562,+0.731,+0.631,-0.101,-0.240,+0.898,-0.282,-0.152,+36.188,+49.750,+20.188,-2, 1, -2, -2, -2, 0, 1, -1
1503683171583,+0.725,+0.639,-0.096,-0.239,+0.878,-0.235,-0.140,+29.312,+54.625,+19.312,-3, -1, 0, 0, -1, 0, 0, 1
1503683171599,+0.718,+0.648,-0.094,-0.238,+0.892,-0.220,-0.085,+19.812,+59.625,+13.000,-5, -5, -1, -2, -1, -2, -1, -3
1503683171621,+0.710,+0.656,-0.094,-0.236,+0.928,-0.166,-0.018,+13.562,+63.750,+8.000,0, 0, -2, 2, -1, 0, 1, 2
1503683171636,+0.703,+0.664,-0.095,-0.234,+0.980,-0.105,-0.009,+7.562,+58.250,+4.562,-6, -1, 1, -2, 0, 1, 1, 2
1503683171661,+0.699,+0.669,-0.098,-0.231,+1.018,-0.042,-0.003,+3.125,+37.812,-5.000,8, 0, 1, 0, -2, -2, 1, 2
1503683171681,+0.698,+0.671,-0.101,-0.229,+0.991,-0.007,-0.003,-0.188,+12.812,-7.125,4, -1, -1, -1, -1, 0, -1, -1
1503683171697,+0.698,+0.671,-0.103,-0.226,+0.894,+0.022,-0.034,+1.375,+6.812,-6.625,3, 1, -1, -1, 0, -1, -1, -2
1503683171718,+0.698,+0.672,-0.105,-0.224,+0.871,+0.018,-0.015,+1.000,+11.750,-10.062,2, -1, 2, -1, -2, 0, -2, 1
1503683171741,+0.696,+0.674,-0.109,-0.220,+0.901,+0.046,-0.005,+1.125,+20.250,-13.375,3, -1, -2, -1, -2, -2, 1, 2
1503683171756,+0.695,+0.676,-0.113,-0.216,+0.952,+0.061,+0.042,-1.250,+17.000,-15.188,1, 1, 3, 0, 2, 1, 0, -2
1503683171778,+0.695,+0.677,-0.116,-0.213,+0.947,+0.077,-0.005,+0.062,+7.938,-10.188,-2, 0, -3, 2, 1, 1, 0, 3
1503683171801,+0.696,+0.677,-0.118,-0.210,+0.933,+0.051,-0.016,+1.562,+2.188,-9.875,-5, -3, -2, 0, 0, 0, -1, -2
1503683171816,+0.695,+0.677,-0.120,-0.207,+0.896,+0.030,+0.016,+4.938,+8.062,-10.000,-4, -4, -6, -2, -3, 0, 0, 2
1503683171838,+0.694,+0.679,-0.122,-0.204,+0.936,+0.003,-0.005,+6.938,+14.625,-8.875,-2, -7, -1, -2, 1, -2, 0, -1
1503683171861,+0.693,+0.681,-0.123,-0.202,+1.028,-0.017,-0.004,+6.062,+15.562,-4.750,2, 3, 0, -1, -3, -1, -3, -4
1503683171876,+0.693,+0.682,-0.123,-0.200,+1.050,-0.044,+0.001,+6.188,+6.688,-1.750,0, 3, 1, 0, 0, -1, -2, -1
1503683171899,+0.693,+0.682,-0.122,-0.198,+1.008,-0.078,+0.014,+7.312,+0.250,-3.375,0, 0, -2, -4, -2, -3, -1, -1
1503683171921,+0.694,+0.682,-0.121,-0.197,+0.999,-0.118,-0.015,+8.688,-1.125,-4.688,-6, 1, 2, 2, 0, 0, -1, -4
1503683171937,+0.695,+0.682,-0.121,-0.196,+1.023,-0.133,-0.025,+4.938,-3.562,-5.188,4, 1, -4, -2, -1, -3, -3, -2
1503683171958,+0.695,+0.681,-0.120,-0.195,+1.040,-0.114,-0.024,+4.438,-4.250,-5.062,-3, -2, -1, 0, 1, -1, 1, 0
1503683171981,+0.697,+0.680,-0.120,-0.194,+1.021,-0.142,-0.025,+3.938,-6.750,-8.438,-15, -4, 0, 2, 1, 1, 0, -5
1503683171996,+0.698,+0.679,-0.120,-0.193,+0.993,-0.143,-0.000,+4.125,-8.125,-8.812,2, 1, -1, 0, -2, -1, 2, 3
1503683172018,+0.699,+0.679,-0.120,-0.190,+0.938,-0.113,-0.003,+8.938,-2.250,-14.500,-5, -2, -1, -3, 0, -1, -3, -1
1503683172041,+0.701,+0.678,-0.121,-0.186,+0.963,-0.081,-0.026,+12.438,-3.875,-23.312,-4, -3, -1, -4, -2, -1, 0, 2
1503683172056,+0.702,+0.678,-0.121,-0.183,+0.991,-0.065,-0.030,+11.250,-3.000,-13.375,0, 0, -4, -1, -3, -1, -1, 0
1503683172078,+0.701,+0.679,-0.120,-0.180,+0.978,-0.051,+0.039,+13.875,+6.812,-8.500,4, 2, -1, -2, -2, -1, 0, -1
1503683172101,+0.701,+0.681,-0.120,-0.176,+1.038,-0.059,+0.020,+14.875,+9.250,-12.125,2, 1, -1, -3, -1, -3, -2, 3
1503683172116,+0.701,+0.681,-0.120,-0.173,+1.094,-0.041,+0.010,+11.625,-1.938,-11.000,2, -1, 0, -1, -1, 1, -2, -1
1503683172138,+0.703,+0.680,-0.120,-0.170,+1.026,-0.007,+0.014,+13.375,-7.688,-10.000,2, -1, -2, 1, 0, -2, -1, -3
1503683172163,+0.705,+0.679,-0.119,-0.166,+0.973,-0.016,-0.021,+18.438,-13.125,-13.375,-4, -6, -2, -2, -1, -3, -3, -2
1503683172176,+0.707,+0.678,-0.119,-0.163,+0.976,-0.086,+0.000,+10.938,-10.312,-17.562,-5, -2, -4, -4, -1, -2, -1, -2
1503683172198,+0.707,+0.678,-0.120,-0.161,+0.958,-0.042,+0.056,+4.375,+1.000,-12.312,11, 3, 0, -1, 0, -1, 2, 1
1503683172231,+0.706,+0.679,-0.121,-0.159,+1.024,-0.005,+0.102,+0.875,+0.125,-6.312,-7, -2, -2, -1, 0, -1, -3, -6
1503683172236,+0.705,+0.680,-0.122,-0.160,+1.088,-0.009,+0.114,-8.188,+0.625,+2.688,0, -1, -1, 0, -3, -1, 0, 3
1503683172258,+0.707,+0.678,-0.122,-0.161,+1.115,+0.021,+0.082,-9.250,-19.812,+5.188,-4, -2, -3, -3, -2, -1, 0, -1
1503683179084,+0.806,+0.516,-0.134,-0.256,+0.971,+0.016,-0.428,+12.062,-17.250,+29.312,-3, -3, -3, 1, -1, -2, -4, -1
1503683179106,+0.808,+0.513,-0.128,-0.260,+0.882,-0.025,-0.455,+11.125,-22.938,+29.938,-3, -1, -2, -3, -1, 0, 0, 1
1503683179122,+0.807,+0.513,-0.124,-0.265,+0.799,-0.107,-0.370,+1.500,-4.688,+31.812,1, 0, 2, -1, 1, 0, 1, 0
1503683179144,+0.803,+0.518,-0.124,-0.269,+0.936,-0.037,-0.329,-6.938,+24.938,+35.625,11, 1, 0, 3, 2, 0, 0, 0
1503683179173,+0.798,+0.523,-0.123,-0.272,+1.114,+0.007,-0.380,+0.500,+29.625,+37.438,-1, 1, -3, -11, -10, -3, -1, -1
1503683179182,+0.793,+0.530,-0.121,-0.275,+1.045,-0.079,-0.389,+9.625,+40.312,+34.250,-1, 0, 1, 4, 3, 0, -1, 1
1503683179204,+0.789,+0.535,-0.118,-0.279,+0.986,-0.127,-0.396,+2.125,+27.938,+37.000,-13, 0, 0, -3, -3, -1, 0, -4
1503683179237,+0.785,+0.539,-0.115,-0.284,+1.002,-0.120,-0.358,-0.812,+25.625,+40.875,6, -1, -1, -2, -2, -2, -3, -2
1503683179242,+0.779,+0.544,-0.115,-0.289,+0.883,-0.045,-0.343,-4.375,+39.750,+42.625,1, -1, -2, -1, -2, -1, -1, -1
1503683179266,+0.771,+0.555,-0.114,-0.292,+0.786,-0.025,-0.315,+7.562,+72.125,+42.562,11, 3, 2, -4, -5, 1, 1, 1
1503683179286,+0.761,+0.568,-0.112,-0.293,+0.888,-0.137,-0.310,+20.688,+88.938,+37.188,-8, -4, -3, -3, -1, -1, 1, 2
1503683179303,+0.752,+0.580,-0.109,-0.292,+1.055,-0.218,-0.195,+23.875,+76.812,+30.000,-14, -5, -4, 0, -1, -1, -2, -2
1503683179324,+0.745,+0.590,-0.106,-0.292,+1.098,-0.273,-0.141,+23.625,+52.250,+22.188,-6, -5, 1, 2, -1, -3, -2, -2
1503683179346,+0.741,+0.597,-0.104,-0.290,+0.992,-0.231,-0.171,+20.812,+38.625,+9.188,-5, 2, 6, 1, 1, 3, 1, 1
1503683179362,+0.738,+0.602,-0.103,-0.287,+0.890,-0.215,-0.251,+20.562,+39.625,-2.000,10, 3, -1, 0, -1, 0, -1, 1
1503683179384,+0.734,+0.608,-0.102,-0.285,+0.884,-0.226,-0.254,+18.688,+41.500,-2.812,2, -1, -2, -1, -2, 0, 0, 2
1503683179406,+0.730,+0.615,-0.102,-0.282,+0.867,-0.259,-0.206,+16.125,+50.688,-6.250,-4, -1, -1, -3, -2, -1, 0, -3
1503683179422,+0.725,+0.622,-0.104,-0.279,+0.891,-0.258,-0.137,+13.438,+51.500,-12.812,-5, -2, -2, -1, -1, 0, -2, -3
1503683179444,+0.721,+0.627,-0.105,-0.276,+0.967,-0.229,-0.146,+10.250,+41.625,-7.688,-4, -2, -1, -1, 1, -1, -1, -3
1503683179466,+0.717,+0.632,-0.106,-0.274,+0.985,-0.235,-0.163,+5.938,+39.188,-7.750,5, 0, -1, -2, -2, 0, 3, 3
1503683179482,+0.714,+0.636,-0.108,-0.271,+1.016,-0.205,-0.146,+6.000,+33.875,-14.375,-2, 0, -2, -2, -1, -2, -3, -2
1503683179504,+0.714,+0.638,-0.110,-0.267,+1.037,-0.184,-0.133,+8.750,+16.750,-17.188,1, 1, -2, 0, 0, 0, -1, 1
1503683179525,+0.713,+0.640,-0.111,-0.265,+0.961,-0.209,-0.115,+6.062,+12.312,-15.500,-2, -3, -3, 2, 0, -2, 0, 2
1503683179542,+0.711,+0.642,-0.112,-0.262,+0.888,-0.200,-0.142,+5.375,+25.188,-17.375,-5, -1, -3, 2, 0, -3, -2, -4
1503683179564,+0.710,+0.645,-0.114,-0.258,+0.963,-0.223,-0.135,+9.438,+25.438,-18.125,9, 2, -3, -1, -2, -1, -2, 2
1503683179585,+0.709,+0.648,-0.115,-0.255,+1.033,-0.235,-0.134,+10.375,+22.625,-20.062,-4, -2, -1, -1, -1, 1, 1, -1
1503683179602,+0.709,+0.649,-0.116,-0.251,+1.023,-0.182,-0.152,+11.625,+11.250,-22.875,-1, 1, 2, 3, -2, -1, -4, -4
1503683179624,+0.711,+0.648,-0.117,-0.246,+1.000,-0.168,-0.140,+15.062,-1.812,-26.438,4, 0, -1, 0, -2, 0, -1, 1
1503683179646,+0.714,+0.646,-0.118,-0.241,+0.993,-0.178,-0.104,+11.312,-14.625,-34.312,-5, -3, -1, -2, -1, -2, -1, -1
1503683179662,+0.718,+0.644,-0.119,-0.237,+0.944,-0.198,-0.122,+7.438,-19.438,-32.688,-2, -1, 0, -3, 0, -1, 1, 0
1503683179684,+0.719,+0.643,-0.121,-0.234,+0.969,-0.185,-0.022,+0.125,-8.375,-27.562,2, 3, 4, 3, 0, -3, -1, -2
1503683179706,+0.721,+0.641,-0.123,-0.232,+1.066,-0.127,-0.096,-2.500,-10.500,-21.938,1, 0, 1, 1, -1, -1, -1, -2
1503683179722,+0.723,+0.639,-0.125,-0.230,+1.073,-0.114,-0.086,-5.812,-15.438,-14.688,0, 1, 1, -1, -1, 0, 1, 4
1503683179744,+0.727,+0.635,-0.125,-0.229,+1.066,-0.135,+0.054,-0.125,-43.188,-17.812,5, -3, 0, 0, -2, 0, 0, 0
1503683189794,+0.798,+0.532,-0.143,-0.244,+0.939,-0.023,-0.356,-1.875,-1.875,+1.062,-4, -6, -2, 0, -1, -2, 0, 3
1503683189809,+0.799,+0.532,-0.143,-0.244,+0.919,-0.019,-0.346,-2.125,-0.625,+0.000,7, -3, -2, -1, -1, -2, -4, -4
1503683189831,+0.799,+0.532,-0.143,-0.244,+0.926,-0.008,-0.349,-1.750,+0.312,+1.312,-4, 3, -6, -3, -1, -1, 1, -1
1503683189853,+0.798,+0.532,-0.143,-0.244,+0.928,-0.016,-0.341,-1.438,+3.062,+1.250,6, -7, -3, -1, 0, -1, -2, 0
1503683189869,+0.798,+0.532,-0.143,-0.244,+0.940,-0.016,-0.342,-1.688,+0.500,+1.812,4, 1, 3, 0, -1, -1, 0, -1
1503683189891,+0.798,+0.533,-0.143,-0.244,+0.934,-0.028,-0.341,-1.000,+1.062,+1.812,-4, -3, -1, 0, -1, -1, -1, 1
1503683189912,+0.798,+0.533,-0.143,-0.244,+0.932,-0.033,-0.339,-0.812,+2.125,+0.875,1, -12, -4, -4, -2, -1, -1, 0
1503683189929,+0.798,+0.533,-0.142,-0.244,+0.944,-0.022,-0.354,+0.312,+1.625,-0.125,-7, 0, 1, 1, 0, -2, -4, -7
1503683189952,+0.798,+0.533,-0.142,-0.243,+0.940,-0.030,-0.343,-0.250,+0.250,-1.375,6, -7, -4, -1, -3, 0, 0, 4
1503683189972,+0.798,+0.533,-0.142,-0.243,+0.915,-0.021,-0.332,-0.062,+0.250,-0.562,-1, 5, -1, -1, 0, 0, -1, -5
1503683189989,+0.797,+0.534,-0.142,-0.243,+0.926,-0.022,-0.331,+0.250,+1.562,+1.688,-6, 0, -3, -1, -1, 1, 1, 5
1503683190011,+0.797,+0.534,-0.142,-0.243,+0.931,-0.036,-0.324,-0.375,+1.688,+4.188,-5, 2, 1, 0, -1, 2, 0, -3
1503683190033,+0.797,+0.535,-0.141,-0.244,+0.935,-0.010,-0.341,+0.625,+1.750,+5.438,1, 1, -1, -2, 1, -2, -2, 0
1503683190049,+0.797,+0.535,-0.141,-0.244,+0.927,+0.011,-0.333,+0.000,-1.062,+7.000,-2, -1, 3, 0, -1, 0, 0, -2
1503683190071,+0.796,+0.536,-0.140,-0.245,+0.920,-0.013,-0.280,+3.062,+1.875,+7.875,-2, 9, 5, 1, 0, 0, -1, -3
1503683190093,+0.795,+0.537,-0.138,-0.245,+0.910,+0.006,-0.299,+6.438,+3.500,+12.812,1, 0, 0, 1, 0, -1, -2, -1
1503683190109,+0.794,+0.538,-0.136,-0.246,+0.948,+0.015,-0.323,+7.500,+2.188,+18.188,-12, -5, -1, -1, -2, -3, 2, -4
1503683190131,+0.794,+0.539,-0.133,-0.248,+0.937,+0.005,-0.319,+7.938,-0.500,+23.062,6, 3, 0, -1, -2, -1, -1, 1
1503683190153,+0.793,+0.540,-0.129,-0.250,+0.933,-0.038,-0.341,+15.250,+0.250,+22.688,-3, -4, -1, -1, -1, -1, 0, -2
1503683190169,+0.792,+0.543,-0.125,-0.250,+0.964,-0.068,-0.306,+17.188,+8.125,+19.875,-3, -1, -5, -2, 0, -2, -3, -1
1503683190192,+0.791,+0.544,-0.122,-0.251,+0.962,-0.077,-0.331,+14.938,+2.688,+20.062,-3, -7, -2, -1, 0, -2, 0, -1
1503683190213,+0.791,+0.545,-0.118,-0.252,+0.946,-0.083,-0.363,+11.562,+0.375,+17.562,4, -1, -1, -2, -2, 0, -2, 1
1503683190235,+0.790,+0.547,-0.115,-0.253,+0.962,-0.064,-0.385,+12.688,+7.750,+17.125,1, -4, -1, -2, -3, -3, 0, -1
1503683190256,+0.788,+0.551,-0.113,-0.252,+0.974,-0.070,-0.361,+16.438,+25.750,+9.000,-13, -2, 2, -1, 0, 0, 0, 1
1503683190273,+0.782,+0.560,-0.113,-0.249,+1.012,-0.101,-0.331,+20.000,+58.812,-1.188,4, 2, 0, 2, 0, 1, 1, 0
1503683190296,+0.776,+0.570,-0.114,-0.245,+1.077,-0.093,-0.325,+17.188,+70.188,-2.250,4, 1, 0, 1, 0, -1, -2, 0
1503683190311,+0.771,+0.578,-0.115,-0.241,+1.065,-0.035,-0.298,+17.750,+62.500,-2.312,6, -1, -2, -1, -2, -2, -1, -1
1503683190335,+0.766,+0.587,-0.116,-0.236,+0.943,-0.009,-0.281,+20.750,+64.562,-9.625,-1, 2, 3, 1, 2, 2, -2, 1
1503683190355,+0.761,+0.595,-0.114,-0.231,+0.851,-0.053,-0.296,+33.750,+63.188,+0.812,4, 12, 2, 1, 0, 0, 0, 1
1503683190371,+0.757,+0.603,-0.111,-0.225,+0.874,-0.137,-0.243,+42.688,+50.812,-8.562,-2, -8, 0, 1, -2, -2, 1, -3
1503683190394,+0.754,+0.610,-0.108,-0.220,+0.964,-0.191,-0.099,+34.250,+35.562,-12.625,-6, 2, 0, -2, -1, -1, 0, -2
1503683190423,+0.751,+0.615,-0.107,-0.216,+0.926,-0.158,-0.111,+24.000,+28.312,-8.188,-4, -4, -4, -1, -1, -2, -2, -1
1503683190431,+0.748,+0.619,-0.106,-0.213,+0.872,-0.127,-0.147,+15.750,+33.250,-9.188,-5, 1, -1, -2, -1, 1, 0, 2
1503683190455,+0.746,+0.624,-0.107,-0.209,+0.893,-0.118,-0.188,+9.625,+35.438,-14.062,0, -5, -1, -1, -1, -1, -1, -1
1503683197480,+0.784,+0.540,-0.163,-0.261,+0.955,-0.011,-0.297,-0.938,+1.688,-0.062,-2, -3, 2, 1, -1, 0, -2, 1
1503683197495,+0.784,+0.540,-0.163,-0.260,+0.931,-0.011,-0.315,+0.625,-0.500,+0.500,0, -2, 0, 1, 0, 1, -2, -2
1503683197517,+0.784,+0.540,-0.162,-0.260,+0.919,-0.037,-0.325,+1.688,+3.312,+1.125,1, 2, 1, 0, 1, 0, -2, 1
1503683197540,+0.783,+0.541,-0.162,-0.260,+0.950,-0.051,-0.341,+1.250,+7.562,+0.625,0, 5, -1, -1, -1, -1, -1, 0
1503683197557,+0.782,+0.543,-0.162,-0.259,+0.954,-0.012,-0.316,+0.500,+9.938,-1.500,3, -7, -5, -2, -1, -1, -1, -1
1503683197577,+0.781,+0.544,-0.163,-0.259,+0.934,-0.015,-0.281,-2.125,+8.250,+0.875,-8, -2, -1, -3, -2, -1, -2, -2
1503683197600,+0.780,+0.545,-0.163,-0.259,+0.921,+0.002,-0.287,-1.562,+11.125,+4.438,-5, -2, -3, -1, 0, -1, 0, -1
1503683197615,+0.779,+0.547,-0.163,-0.260,+0.934,+0.019,-0.310,-0.562,+9.625,+6.750,-3, 2, 0, -1, -2, -3, -2, -3
1503683197637,+0.778,+0.548,-0.163,-0.260,+0.947,+0.031,-0.285,-0.875,+7.188,+10.250,-1, -3, -5, -1, -1, -1, -4, -1
1503683197661,+0.776,+0.550,-0.162,-0.261,+0.920,+0.022,-0.242,+3.375,+10.375,+13.812,5, -3, 0, -1, 0, -2, 0, 0
1503683197675,+0.775,+0.552,-0.161,-0.262,+0.931,+0.019,-0.264,+7.250,+10.000,+18.500,-5, 0, 0, 0, -1, 1, -1, 0
1503683197697,+0.774,+0.554,-0.158,-0.263,+0.984,+0.002,-0.267,+8.438,+5.812,+19.625,-2, -1, -1, 0, 0, -1, -1, -1
1503683197720,+0.772,+0.557,-0.156,-0.264,+1.005,-0.008,-0.231,+9.875,+11.688,+18.500,-1, 1, -3, -2, 0, 0, 1, 0
1503683197735,+0.771,+0.559,-0.156,-0.261,+1.034,+0.063,-0.253,+10.375,+9.812,+0.562,1, 3, 0, 0, -1, -1, -1, 0
1503683197757,+0.770,+0.562,-0.154,-0.258,+1.078,+0.034,-0.268,+24.500,+13.125,+3.500,-1, 2, 0, -2, -3, -1, -1, -1
1503683197780,+0.768,+0.568,-0.150,-0.256,+1.003,-0.020,-0.356,+31.938,+34.625,+11.562,-3, -1, -3, -2, 0, -2, -2, -5
1503683197799,+0.764,+0.574,-0.147,-0.253,+1.012,+0.004,-0.430,+29.312,+47.812,+16.000,1, -2, -3, -1, 1, 0, 0, 0
1503683197817,+0.761,+0.581,-0.146,-0.249,+1.009,+0.139,-0.327,+32.938,+49.250,+8.625,1, 6, 3, 1, 0, -2, -2, -1
1503683197840,+0.762,+0.584,-0.139,-0.243,+1.031,+0.054,-0.423,+56.812,+20.125,+8.750,0, 3, 2, 0, 0, 0, 2, 1
1503683197855,+0.765,+0.585,-0.127,-0.237,+1.000,-0.050,-0.382,+76.688,-10.625,+11.938,-4, -1, 1, 0, 1, 2, 1, 0
1503683197879,+0.770,+0.584,-0.112,-0.231,+0.915,-0.146,-0.347,+86.438,-33.375,+14.438,0, -2, -2, -2, -1, 0, -1, -1
1503683197900,+0.773,+0.585,-0.098,-0.226,+0.842,-0.182,-0.281,+85.750,-13.125,+17.062,-4, -6, -3, -1, 0, -1, -3, 1
1503683197915,+0.772,+0.590,-0.085,-0.218,+0.806,-0.167,-0.263,+85.875,+17.250,+7.812,1, 7, -1, 0, -2, -2, -2, -2
1503683197937,+0.770,+0.598,-0.073,-0.210,+0.809,-0.207,-0.223,+92.438,+33.625,+2.188,-2, -5, -3, 1, 1, 0, 1, 2
1503683197961,+0.766,+0.608,-0.061,-0.200,+0.880,-0.295,-0.100,+93.312,+41.875,-5.438,-1, -5, -5, -3, -1, -2, -3, -2
1503683197975,+0.761,+0.618,-0.052,-0.190,+0.934,-0.339,-0.078,+80.062,+46.688,-12.375,-3, -2, 1, 1, -1, -2, 0, -1
1503683197998,+0.758,+0.625,-0.045,-0.182,+0.930,-0.299,-0.128,+65.250,+40.625,-17.062,6, 1, -2, -2, -1, -1, -3, -3
1503683198020,+0.755,+0.631,-0.040,-0.174,+0.952,-0.259,-0.122,+51.188,+28.312,-19.375,0, -3, 5, 2, 0, -1, 1, 3
1503683198035,+0.753,+0.636,-0.037,-0.166,+0.927,-0.197,-0.095,+45.500,+30.375,-22.750,-4, -5, -3, -3, -3, -1, 0, 1
1503683198059,+0.749,+0.643,-0.034,-0.158,+0.942,-0.185,+0.005,+43.938,+35.562,-25.188,2, -5, -2, 2, 0, 1, 1, 2
1503683198080,+0.744,+0.650,-0.033,-0.151,+1.035,-0.195,-0.019,+32.688,+40.250,-23.000,-6, -2, -5, -5, -2, 1, -2, -4
1503683206285,+0.709,+0.675,-0.114,-0.167,+1.013,+0.004,-0.011,+8.750,+10.000,-18.062,-2, -2, -2, -2, -1, -2, -3, 0
1503683206300,+0.708,+0.677,-0.115,-0.163,+1.045,-0.048,-0.002,+6.125,+11.375,-16.938,-6, -7, -3, -3, -3, -1, 0, -6
1503683206323,+0.707,+0.678,-0.117,-0.161,+1.048,-0.062,+0.003,+3.250,+12.375,-17.062,2, 2, -1, -2, -2, 0, 2, 3
1503683206345,+0.708,+0.678,-0.118,-0.158,+1.096,-0.061,-0.042,+3.500,+4.938,-14.750,-2, -1, -2, -1, -2, -1, -2, -2
1503683206360,+0.710,+0.677,-0.118,-0.156,+1.118,-0.083,-0.003,+5.312,-15.875,-13.062,3, 5, 4, -2, -1, 0, -1, 1
1503683206384,+0.713,+0.673,-0.118,-0.153,+1.067,-0.076,+0.026,+10.875,-28.875,-20.438,-2, -4, -2, 0, 0, 0, -2, 0
1503683206406,+0.716,+0.671,-0.119,-0.149,+1.008,-0.073,+0.009,+9.125,-20.688,-28.562,0, -2, -1, 1, -2, -3, -5, -5
1503683206421,+0.718,+0.669,-0.121,-0.147,+1.018,-0.049,+0.016,+0.875,-14.938,-20.562,1, 1, -1, 0, 0, 0, 1, 2
1503683206443,+0.720,+0.667,-0.122,-0.147,+1.092,-0.014,+0.010,-7.125,-17.188,-9.250,0, -4, -1, -2, 0, 0, 1, 3
1503683206468,+0.723,+0.664,-0.123,-0.148,+1.125,+0.016,+0.120,-9.188,-37.500,-0.688,1, -4, -4, -1, -1, -1, 0, 2
1503683206487,+0.728,+0.658,-0.123,-0.148,+1.025,+0.063,-0.038,-4.125,-46.000,-5.062,0, 4, -1, -1, 1, 1, 2, 0
1503683206503,+0.734,+0.651,-0.126,-0.145,+0.840,+0.099,-0.074,-4.500,-49.938,-25.000,0, -4, -2, 0, -1, 0, -3, -4
1503683206525,+0.738,+0.647,-0.128,-0.144,+0.810,+0.098,-0.101,-1.750,-23.375,-10.875,-1, -1, 0, -1, 0, -1, -1, 5
1503683206547,+0.737,+0.648,-0.128,-0.145,+0.944,+0.051,-0.080,-5.500,+6.312,+5.188,-1, 0, -2, -1, -3, -3, -3, -2
1503683206563,+0.735,+0.650,-0.128,-0.146,+1.043,+0.078,-0.014,-5.188,+7.125,+12.875,-2, -5, 0, -2, 1, -1, 0, -4
1503683206585,+0.736,+0.648,-0.128,-0.146,+1.053,+0.093,-0.084,-1.812,-13.000,+9.312,-1, 5, 2, -3, -2, -1, -1, -2
1503683206608,+0.739,+0.644,-0.128,-0.148,+0.987,+0.034,-0.096,-6.438,-27.062,+1.812,2, -3, 0, 0, -1, -1, 0, 0
1503683206623,+0.742,+0.642,-0.127,-0.149,+0.974,+0.047,-0.085,-4.875,-22.688,+10.125,0, -2, -3, 1, 1, 0, 1, 1
1503683206646,+0.743,+0.640,-0.125,-0.151,+0.994,+0.064,-0.110,-0.375,-13.562,+16.625,0, -1, 0, 0, -1, -1, -4, -7
1503683206670,+0.745,+0.638,-0.123,-0.152,+1.058,+0.042,-0.079,+4.500,-21.312,+16.625,1, 2, -1, -1, -2, -2, 1, 3
1503683206683,+0.747,+0.636,-0.120,-0.154,+1.015,-0.042,-0.081,+6.812,-25.938,+10.312,-2, -4, -1, -2, -1, -2, -2, -4
1503683206705,+0.749,+0.633,-0.117,-0.154,+0.975,-0.070,-0.134,+6.312,-21.250,+5.875,-3, -1, 2, 0, 1, -2, -2, -3
1503683206727,+0.751,+0.632,-0.115,-0.155,+0.958,-0.031,-0.158,+4.688,-10.250,+3.688,4, 10, 5, -1, -2, 1, 1, 4
1503683206744,+0.751,+0.632,-0.113,-0.154,+0.995,-0.010,-0.143,+9.812,-1.438,+8.312,-3, -6, -5, 0, 1, -3, -3, -2
1503683206765,+0.750,+0.634,-0.111,-0.154,+0.973,-0.064,-0.096,+13.625,+6.625,+4.938,0, -5, -2, -2, -3, -1, -2, -3
1503683206787,+0.748,+0.637,-0.109,-0.152,+0.905,-0.109,-0.089,+13.375,+18.062,-3.250,-2, -1, -3, -1, 0, -1, 2, 0
1503683206803,+0.745,+0.641,-0.107,-0.149,+0.917,-0.114,-0.109,+19.000,+28.875,-4.688,-3, 1, -1, 0, -1, -1, -1, -1
1503683206825,+0.742,+0.646,-0.106,-0.145,+0.868,-0.109,-0.097,+18.688,+41.938,-14.500,-2, 0, -3, -1, -1, 0, -1, 0
1503683206847,+0.737,+0.653,-0.106,-0.141,+0.892,-0.070,-0.053,+15.812,+50.500,-15.062,-3, -1, -3, -2, -1, -1, -2, -4
1503683206863,+0.730,+0.661,-0.108,-0.137,+0.907,-0.056,-0.071,+8.875,+64.312,-15.438,3, -1, -1, -2, -1, 2, 1, 0
1503683206885,+0.723,+0.669,-0.111,-0.135,+1.098,-0.030,-0.020,-3.250,+63.250,-9.812,1, 0, 0, -3, -1, -1, -3, 4
1503683206907,+0.719,+0.673,-0.110,-0.134,+1.164,+0.070,-0.080,+5.125,+38.688,+15.875,0, 3, 0, 1, -1, 0, 1, -1
1503683206923,+0.718,+0.675,-0.106,-0.133,+1.134,-0.008,-0.082,+20.875,+9.938,+11.938,-4, -1, -2, -2, -2, -4, 0, -2
1503683206945,+0.719,+0.674,-0.102,-0.130,+1.052,-0.036,-0.053,+25.062,-6.125,-1.125,-2, -9, -5, 2, -1, 1, -2, -2
1503683206967,+0.721,+0.673,-0.099,-0.129,+0.961,-0.080,-0.062,+20.312,-12.250,+2.875,-3, -3, 1, -2, 0, -3, -2, -4
1503683206983,+0.721,+0.675,-0.096,-0.128,+0.885,-0.085,-0.080,+14.125,+11.938,+5.750,4, 3, 0, -1, -2, 1, 1, 3
1503683207006,+0.717,+0.679,-0.095,-0.126,+0.934,-0.015,-0.041,+11.312,+35.312,+5.000,0, 1, 0, 1, 0, -1, -2, 1
1503683207027,+0.712,+0.685,-0.094,-0.123,+1.063,+0.043,+0.007,+15.625,+44.812,+3.188,1, 2, 0, -2, 0, -1, -1, 1
1503683219110,+0.812,+0.509,-0.136,-0.251,+0.885,-0.020,-0.407,+1.688,-0.250,+1.250,0, -6, -4, -1, -3, -2, -2, -3
1503683219132,+0.812,+0.509,-0.136,-0.250,+0.873,-0.017,-0.409,+3.250,+4.062,+1.938,-2, -7, -3, -2, -2, -3, -4, -6
1503683219154,+0.811,+0.511,-0.135,-0.250,+0.910,-0.013,-0.398,+5.000,+8.062,+2.312,-4, -6, -2, 0, 0, 0, -2, -3
1503683219170,+0.811,+0.513,-0.135,-0.249,+0.941,-0.021,-0.368,+5.312,+8.750,+2.375,0, 0, 3, 0, -2, -2, 0, -3
1503683219191,+0.810,+0.514,-0.134,-0.249,+0.919,-0.003,-0.375,+5.688,+4.188,+3.125,-3, -4, -4, -1, 2, -1, -3, -4
1503683219214,+0.810,+0.515,-0.133,-0.248,+0.875,+0.000,-0.358,+9.938,+4.938,+5.188,-2, -3, -3, -2, -3, 0, -1, 1
1503683219231,+0.809,+0.517,-0.131,-0.247,+0.893,+0.003,-0.404,+13.062,+11.875,+7.188,-3, 4, 2, -4, -1, -1, -3, -1
1503683219251,+0.808,+0.520,-0.129,-0.246,+0.896,-0.024,-0.363,+13.312,+18.188,+5.375,0, -10, -4, 0, -1, -2, -1, -3
1503683219274,+0.806,+0.524,-0.127,-0.245,+0.940,-0.061,-0.332,+14.188,+18.375,+5.625,-2, -6, -4, -1, -2, -2, -1, -5
1503683219289,+0.805,+0.526,-0.125,-0.244,+0.928,-0.055,-0.376,+16.812,+11.250,+8.250,-3, -1, -3, 0, -2, -1, 1, 0
1503683219311,+0.805,+0.528,-0.122,-0.243,+0.891,-0.025,-0.380,+20.062,+4.625,+6.062,-3, 0, 1, -1, 0, 0, 0, 1
1503683219334,+0.804,+0.530,-0.118,-0.242,+0.890,-0.008,-0.374,+23.562,+7.188,+9.875,1, 0, -1, -2, -1, -2, -2, -1
1503683219349,+0.803,+0.533,-0.115,-0.241,+0.892,-0.042,-0.322,+19.875,+17.375,+15.250,1, 0, -2, 1, 0, -2, -2, 1
1503683219372,+0.799,+0.538,-0.113,-0.242,+0.952,-0.040,-0.315,+10.688,+25.688,+22.500,0, 0, 0, -2, 0, -2, 0, 0
1503683219394,+0.797,+0.542,-0.110,-0.244,+1.028,+0.010,-0.347,+10.312,+19.562,+26.688,2, 0, -1, -2, -2, -1, 0, 1
1503683219410,+0.794,+0.545,-0.107,-0.246,+0.968,-0.038,-0.356,+15.062,+18.812,+30.688,0, 0, 2, -1, 1, -1, 2, 2
1503683219440,+0.790,+0.551,-0.103,-0.248,+0.965,-0.117,-0.356,+12.000,+33.250,+30.125,-2, 10, 4, 2, -1, 1, 1, -2
1503683219454,+0.784,+0.559,-0.102,-0.250,+1.033,-0.124,-0.321,+6.375,+52.750,+29.000,-3, -7, -1, 1, -1, 1, 0, -1
1503683219485,+0.777,+0.568,-0.101,-0.252,+1.075,-0.092,-0.303,+6.125,+58.062,+27.938,-3, 0, -1, -1, -2, -1, -2, -3
1503683219495,+0.771,+0.575,-0.103,-0.252,+1.011,-0.068,-0.260,-1.500,+53.188,+16.375,-1, -4, -1, -1, 0, 0, -2, -2
1503683219514,+0.766,+0.584,-0.106,-0.249,+0.899,-0.019,-0.303,+6.438,+69.562,-5.125,-1, -4, -3, -1, -1, -2, -2, 0
1503683219537,+0.760,+0.592,-0.105,-0.247,+0.856,-0.153,-0.296,+18.188,+63.062,+4.750,0, -15, -3, -2, 0, -2, -2, -2
1503683219551,+0.753,+0.601,-0.104,-0.245,+0.906,-0.209,-0.205,+18.688,+65.812,+1.062,1, 2, 0, -1, 0, 0, 1, 2
1503683219575,+0.746,+0.612,-0.105,-0.241,+0.983,-0.194,-0.104,+20.938,+67.500,-7.000,0, -2, -4, 1, -3, 1, 0, 0
1503683219597,+0.741,+0.620,-0.105,-0.235,+1.016,-0.181,-0.134,+26.750,+55.812,-14.625,-8, 7, 3, -1, -1, -1, -1, -5
1503683219611,+0.738,+0.626,-0.105,-0.228,+0.978,-0.190,-0.185,+27.500,+42.188,-26.938,1, 3, -2, 1, -1, -1, -3, 0
1503683219634,+0.737,+0.630,-0.105,-0.222,+0.938,-0.210,-0.193,+23.938,+30.625,-28.750,-1, -1, -1, -4, -1, 0, 0, -2
1503683219656,+0.735,+0.633,-0.105,-0.218,+0.914,-0.213,-0.162,+17.625,+28.375,-23.188,3, 4, 1, 1, 1, 1, 4, 6
1503683219671,+0.733,+0.638,-0.106,-0.213,+0.900,-0.184,-0.103,+12.562,+32.625,-22.375,-2, -2, -2, 0, -3, 0, 0, 2
1503683219694,+0.729,+0.643,-0.108,-0.209,+0.934,-0.175,-0.098,+9.938,+42.438,-21.250,4, 6, 11, 2, 1, -2, 1, 2
1503683219716,+0.724,+0.650,-0.111,-0.205,+1.006,-0.143,-0.093,+8.812,+54.688,-22.312,-5, -4, -5, -2, -2, -2, -3, -9
1503683219734,+0.720,+0.654,-0.114,-0.200,+1.058,-0.054,-0.102,+9.875,+40.500,-22.562,-4, -4, -2, -1, -2, -2, 0, -1
1503683226702,+0.787,+0.546,-0.151,-0.244,+0.937,-0.027,-0.328,-0.500,-0.875,+0.125,1, -1, -5, -2, -2, 1, -1, 1
1503683226721,+0.787,+0.546,-0.151,-0.244,+0.958,-0.029,-0.314,-2.688,+0.625,+0.750,1, 3, 3, 0, 0, -3, -2, -1
1503683226737,+0.787,+0.546,-0.151,-0.244,+0.953,-0.019,-0.301,-3.688,-0.625,+0.062,4, 5, -1, 0, 0, -2, -1, -1
1503683226759,+0.787,+0.546,-0.151,-0.245,+0.943,-0.014,-0.282,-3.750,-2.875,+1.625,-4, -7, 0, 0, 0, 0, 0, -1
1503683226781,+0.787,+0.546,-0.151,-0.245,+0.947,-0.010,-0.299,-1.312,-2.625,+3.188,-4, -2, 0, 1, -1, -2, -2, 1
1503683226797,+0.787,+0.546,-0.151,-0.245,+0.952,-0.031,-0.322,-0.438,-2.312,+1.875,-8, 1, 1, -2, -1, -1, 2, -3
1503683226819,+0.787,+0.546,-0.151,-0.245,+0.947,+0.000,-0.315,-2.312,+2.875,-0.875,1, -1, 2, 0, 0, 0, -1, -2
1503683226842,+0.787,+0.546,-0.152,-0.244,+0.940,+0.018,-0.310,-0.562,+2.000,-2.250,3, 3, -1, -2, -1, -1, -1, -1
1503683226857,+0.787,+0.546,-0.152,-0.244,+0.913,-0.002,-0.310,+0.562,+3.875,-0.438,0, -1, -2, -2, 0, -1, -2, -3
1503683226880,+0.786,+0.548,-0.152,-0.243,+0.913,-0.011,-0.304,+1.688,+8.375,+1.562,0, -9, -3, -1, 0, -1, 0, 0
1503683226904,+0.785,+0.549,-0.151,-0.243,+0.950,-0.040,-0.306,+2.562,+11.500,+3.875,0, 0, -2, -1, -1, 0, 0, 1
1503683226918,+0.784,+0.551,-0.151,-0.244,+0.985,-0.046,-0.299,-0.750,+8.188,+4.188,-3, -3, 1, 2, -3, -1, -1, -2
1503683226939,+0.783,+0.551,-0.151,-0.244,+0.966,-0.021,-0.298,+0.312,+2.938,+3.188,-3, 2, 7, 0, -2, -1, -2, -2
1503683226961,+0.784,+0.551,-0.150,-0.244,+0.942,-0.017,-0.287,+1.375,-4.312,+5.000,2, -6, -2, -1, -1, 0, 0, 1
1503683226979,+0.783,+0.551,-0.149,-0.245,+0.902,-0.009,-0.282,+1.250,-0.812,+9.312,-2, -3, -4, -3, -3, -2, -2, -2
1503683226999,+0.783,+0.552,-0.147,-0.246,+0.920,+0.001,-0.284,+2.875,+2.500,+12.938,-4, -1, -1, 1, -2, -2, -1, -1
1503683227021,+0.782,+0.554,-0.146,-0.247,+0.940,+0.020,-0.265,+3.500,+6.438,+16.875,1, -5, -4, -1, -1, -2, -3, -1
1503683227038,+0.780,+0.556,-0.144,-0.248,+0.974,+0.022,-0.248,+6.750,+5.938,+18.125,0, 1, 1, 1, -1, 0, -2, -6
1503683227059,+0.779,+0.558,-0.142,-0.250,+0.963,-0.004,-0.211,+5.375,+5.062,+23.062,-2, 7, 2, 0, -1, 2, 0, 1
1503683227081,+0.777,+0.559,-0.140,-0.252,+1.010,+0.028,-0.219,+4.312,+0.812,+25.750,-2, -4, -3, -2, -2, 0, -1, 2
1503683227097,+0.775,+0.562,-0.139,-0.252,+1.068,+0.033,-0.214,+7.000,+10.062,+15.000,-1, -7, -6, -2, -2, -2, -2, -2
1503683227119,+0.773,+0.567,-0.138,-0.250,+1.061,+0.005,-0.250,+17.750,+27.375,+9.688,1, 7, -1, 1, 0, 2, -1, 0
1503683227143,+0.769,+0.574,-0.135,-0.248,+1.084,-0.010,-0.326,+26.062,+42.938,+16.312,-2, 2, 2, -1, 0, -3, -3, -3
1503683227157,+0.764,+0.581,-0.135,-0.246,+1.081,+0.063,-0.286,+17.062,+48.562,+13.938,-9, -7, 0, -2, -1, 0, 0, -5
1503683227179,+0.759,+0.589,-0.138,-0.242,+0.912,+0.178,-0.227,+9.062,+64.000,+3.375,1, 15, 7, 3, 1, 0, -1, -3
1503683227201,+0.753,+0.597,-0.136,-0.241,+0.882,+0.120,-0.276,+23.062,+60.250,+27.188,-2, -7, -5, -1, 0, -2, 1, 2
1503683227217,+0.748,+0.606,-0.131,-0.237,+0.901,+0.040,-0.271,+44.000,+62.062,+27.625,2, -3, -1, 0, -2, -1, -3, -3
1503683227239,+0.743,+0.615,-0.124,-0.233,+0.979,-0.046,-0.157,+57.562,+44.750,+21.375,2, 1, 3, 1, 1, 1, 0, 0
1503683227261,+0.742,+0.620,-0.116,-0.227,+1.021,-0.148,-0.175,+58.625,+22.375,+11.125,-4, -2, 2, -2, -1, -1, 0, -1
1503683227278,+0.741,+0.623,-0.111,-0.222,+0.898,-0.141,-0.132,+43.938,+13.188,-6.250,-2, 0, -5, 0, 0, -1, -3, -4
1503683227299,+0.740,+0.627,-0.106,-0.218,+0.815,-0.224,-0.206,+34.562,+22.688,-4.875,2, -3, -1, -1, -1, 1, 1, 1
1503683227321,+0.737,+0.632,-0.102,-0.216,+0.862,-0.261,-0.193,+27.312,+37.875,+1.938,5, 4, 7, -1, 0, 0, 1, 2
1503683227339,+0.733,+0.638,-0.100,-0.213,+0.925,-0.271,-0.147,+24.688,+41.188,-6.938,-5, -9, -2, -2, -1, 1, -2, 1
1503683235503,+0.786,+0.548,-0.154,-0.241,+0.932,-0.001,-0.308,-0.688,+1.000,+3.000,0, 2, 0, 0, 1, 1, 0, 1
1503683235526,+0.786,+0.548,-0.153,-0.241,+0.930,-0.005,-0.296,+1.875,+1.250,+4.812,1, -2, -3, -3, -2, -3, 0, -1
1503683235549,+0.786,+0.549,-0.152,-0.241,+0.929,-0.000,-0.289,+8.938,+4.812,+6.062,-1, 2, -2, 0, 0, -1, -1, -1
1503683235571,+0.786,+0.550,-0.150,-0.240,+0.979,-0.032,-0.313,+8.188,+1.812,+2.938,1, 0, -3, -3, -1, 1, -1, 1
1503683235588,+0.786,+0.550,-0.149,-0.240,+0.996,-0.032,-0.317,+6.125,-1.188,+0.312,1, 1, 4, 5, 1, 0, -2, 0
1503683235601,+0.787,+0.550,-0.148,-0.239,+0.931,-0.006,-0.291,+5.500,-4.688,-2.188,-2, -3, 0, -5, -2, -2, -1, -1
1503683235623,+0.787,+0.550,-0.148,-0.238,+0.938,-0.021,-0.291,+4.125,-0.125,-1.688,-5, -8, -2, -1, -1, 1, 0, -1
1503683235647,+0.787,+0.551,-0.147,-0.237,+0.946,-0.027,-0.314,+2.938,+4.250,-1.500,2, 1, -1, -1, -1, 1, 2, 3
1503683235661,+0.786,+0.551,-0.147,-0.237,+0.954,-0.028,-0.298,+1.562,+1.438,-0.062,3, 0, -2, 0, -2, -2, -3, -2
1503683235684,+0.787,+0.551,-0.147,-0.237,+0.953,-0.015,-0.318,+1.688,-0.125,+1.188,-6, -2, 0, -3, 0, -3, -1, -2
1503683235706,+0.787,+0.551,-0.146,-0.237,+0.931,-0.026,-0.308,+2.375,+0.250,+2.000,0, 6, 0, 1, -1, 0, 0, 1
1503683235721,+0.786,+0.552,-0.145,-0.237,+0.941,-0.014,-0.302,+2.375,+3.312,+4.125,3, 5, 0, 1, -1, 1, 1, -2
1503683235743,+0.786,+0.552,-0.145,-0.237,+0.921,-0.012,-0.293,+1.062,+3.562,+6.938,-9, -6, -2, 0, 0, -2, -3, -5
1503683235765,+0.785,+0.554,-0.144,-0.238,+0.931,-0.010,-0.277,+1.438,+5.312,+11.000,-4, -1, 1, 1, 2, -1, -1, -3
1503683235781,+0.784,+0.556,-0.142,-0.239,+0.947,-0.006,-0.252,+6.375,+6.562,+14.062,5, 2, -1, 0, 0, -2, 0, -3
1503683235803,+0.783,+0.558,-0.140,-0.239,+0.906,+0.008,-0.291,+13.250,+10.688,+15.000,2, 3, -3, 0, -1, 0, 0, 3
1503683235825,+0.781,+0.560,-0.136,-0.239,+0.981,+0.014,-0.279,+15.938,+7.938,+20.312,9, 1, -2, -3, -2, 0, 0, 1
1503683235848,+0.780,+0.563,-0.133,-0.240,+0.974,-0.006,-0.212,+15.250,+9.750,+22.375,-5, -4, 1, -2, -3, -1, -5, -2
1503683235863,+0.778,+0.566,-0.131,-0.239,+0.997,-0.010,-0.325,+14.438,+16.625,+12.250,-3, -5, -1, -1, -1, -1, -1, -4
1503683235886,+0.774,+0.572,-0.130,-0.239,+1.081,-0.001,-0.375,+8.625,+45.438,+17.688,-4, 1, 0, 0, -1, 0, 0, 0
1503683235908,+0.767,+0.580,-0.129,-0.240,+1.095,-0.024,-0.391,+11.562,+65.312,+30.938,-1, -2, -1, -1, -1, -2, 0, 3
1503683235925,+0.763,+0.587,-0.127,-0.239,+1.148,+0.023,-0.380,+18.062,+49.750,+22.562,1, 4, 0, -1, 0, -1, -1, 0
1503683235947,+0.763,+0.590,-0.120,-0.236,+1.156,-0.086,-0.397,+48.625,+11.250,+14.562,3, 0, -2, -2, -2, -1, -2, -1
1503683235968,+0.767,+0.589,-0.105,-0.234,+1.064,-0.209,-0.424,+71.812,-23.375,+27.875,-5, -3, -2, -2, -1, -1, -2, -1
1503683235984,+0.772,+0.586,-0.087,-0.231,+0.964,-0.266,-0.379,+86.438,-46.812,+29.375,-2, -3, -3, -1, 0, -2, 1, -1
1503683236006,+0.775,+0.585,-0.069,-0.227,+0.847,-0.292,-0.322,+92.188,-31.125,+33.750,-1, 1, -1, 0, -1, -1, 1, -5
1503683236030,+0.774,+0.591,-0.054,-0.222,+0.797,-0.289,-0.260,+92.562,+17.312,+21.625,2, -4, -2, -1, 0, -1, -2, -1
1503683236053,+0.770,+0.599,-0.040,-0.214,+0.820,-0.288,-0.259,+94.625,+39.875,+10.188,-3, -1, -2, -4, -3, -3, -2, -3
1503683236065,+0.765,+0.609,-0.028,-0.204,+0.901,-0.276,-0.171,+95.438,+49.688,+0.375,-1, 0, 3, 3, 0, 0, 0, 1
1503683236089,+0.760,+0.620,-0.018,-0.194,+0.904,-0.288,-0.107,+90.562,+52.875,-4.375,-3, 0, 1, 1, 0, -1, 0, -1
1503683236104,+0.755,+0.629,-0.008,-0.184,+0.949,-0.268,-0.093,+87.000,+39.375,-7.375,-4, -3, 0, 3, -2, 1, -1, -3
1503683236126,+0.752,+0.635,+0.002,-0.174,+0.897,-0.237,-0.094,+85.625,+27.250,-9.438,2, 1, -2, 0, -2, -4, -1, -1
1503683236150,+0.750,+0.640,+0.009,-0.163,+0.862,-0.235,-0.027,+72.938,+17.438,-21.125,-1, 0, 0, -1, 1, 1, 1, 1
1503683243131,+0.795,+0.541,-0.144,-0.234,+0.926,-0.009,-0.314,+1.250,+1.375,+3.688,-1, -5, -1, 0, 0, 1, -1, 0
1503683243156,+0.794,+0.542,-0.144,-0.234,+0.914,-0.008,-0.301,+3.062,+6.938,+4.938,-3, -4, -4, -2, -1, -2, -2, -1
1503683243169,+0.793,+0.543,-0.143,-0.234,+0.951,-0.007,-0.309,+3.438,+5.625,+6.438,0, -2, -2, -1, 1, -1, 1, 1
1503683243191,+0.793,+0.544,-0.142,-0.235,+0.968,-0.020,-0.313,+2.125,+1.188,+8.500,-3, -3, -6, -1, -4, -2, -2, 0
1503683243213,+0.793,+0.544,-0.141,-0.235,+0.949,-0.005,-0.316,+3.625,-3.812,+7.688,-3, -1, 2, 0, -1, -1, 1, 0
1503683243229,+0.793,+0.544,-0.138,-0.236,+0.902,-0.017,-0.296,+8.750,-4.750,+7.938,0, 3, 0, 1, -1, 1, -1, 0
1503683243251,+0.793,+0.545,-0.136,-0.236,+0.923,-0.002,-0.292,+12.625,-3.438,+12.562,2, 1, 0, 0, 2, 2, 0, -2
1503683243272,+0.793,+0.545,-0.133,-0.237,+0.936,-0.015,-0.302,+9.375,-2.062,+14.250,-4, -7, -1, 0, 0, -1, -2, -3
1503683243289,+0.792,+0.547,-0.130,-0.237,+0.941,-0.021,-0.298,+12.688,+4.625,+14.812,-3, 0, 0, 0, -1, -2, 0, 2
1503683243311,+0.791,+0.550,-0.128,-0.237,+1.013,-0.050,-0.286,+13.750,+9.875,+12.625,2, -1, -1, 0, -1, 0, 0, 1
1503683243333,+0.789,+0.554,-0.126,-0.235,+1.070,-0.054,-0.311,+17.688,+23.062,+3.562,-2, -1, 0, -2, -2, 1, 1, -2
1503683243358,+0.787,+0.558,-0.124,-0.233,+1.043,-0.066,-0.425,+18.125,+29.750,+3.375,-3, -1, -1, -1, 0, -2, -3, -6
1503683243371,+0.783,+0.564,-0.122,-0.233,+1.009,-0.071,-0.461,+16.250,+45.875,+16.125,0, -1, 1, 0, 0, 1, -4, -4
1503683243394,+0.776,+0.574,-0.119,-0.233,+1.015,-0.132,-0.349,+18.562,+68.500,+22.938,2, 4, 3, 2, -1, -1, 0, 5
1503683243409,+0.769,+0.585,-0.116,-0.231,+1.063,-0.208,-0.334,+26.875,+78.125,+16.312,1, -3, -3, -2, 0, 0, 0, 5
1503683243431,+0.762,+0.595,-0.111,-0.229,+1.085,-0.206,-0.345,+33.000,+68.812,+12.562,-1, -3, 3, 1, 0, -2, 1, -1
1503683243455,+0.759,+0.602,-0.105,-0.226,+1.109,-0.171,-0.332,+44.438,+44.000,+12.188,-1, 1, -1, 1, -1, -1, -1, -4
1503683243469,+0.757,+0.607,-0.095,-0.222,+1.037,-0.233,-0.301,+61.500,+20.688,+14.875,-1, 3, -1, -3, -1, -2, 0, 2
1503683243492,+0.756,+0.612,-0.087,-0.216,+0.915,-0.202,-0.213,+58.375,+24.312,+4.938,0, -4, -4, 2, 1, 1, 0, 0
1503683243513,+0.752,+0.619,-0.079,-0.211,+0.833,-0.236,-0.176,+57.750,+39.875,+5.875,-3, -2, -2, -4, -2, -1, -2, -4
1503683243529,+0.747,+0.628,-0.072,-0.207,+0.829,-0.245,-0.193,+53.562,+55.938,+6.750,0, -1, 0, 0, 1, 0, -2, 1
1503683243553,+0.739,+0.640,-0.067,-0.200,+0.873,-0.190,-0.119,+54.812,+79.938,+2.188,1, 0, 0, -1, -2, -1, 0, 2
1503683243573,+0.730,+0.652,-0.063,-0.193,+0.929,-0.156,-0.104,+55.000,+85.125,-1.938,0, 0, 1, 0, -3, -1, 1, 0
1503683243593,+0.723,+0.662,-0.060,-0.185,+0.960,-0.140,-0.076,+52.312,+69.750,-6.125,-5, -13, -7, -1, -1, 1, -3, -5
1503683243611,+0.717,+0.672,-0.056,-0.178,+0.961,-0.158,-0.004,+46.625,+59.688,-7.938,-3, 0, 0, -1, -1, -2, -1, -3
1503683243633,+0.710,+0.680,-0.054,-0.172,+0.932,-0.130,+0.021,+40.750,+59.875,-9.938,3, 3, 0, -1, 0, 0, -1, 0
1503683243649,+0.705,+0.688,-0.053,-0.164,+0.951,-0.100,+0.021,+37.625,+56.312,-13.688,-1, -2, -5, -3, -2, 0, -1, -2
1503683243671,+0.700,+0.695,-0.053,-0.157,+0.958,-0.051,+0.008,+33.875,+46.625,-17.438,0, 0, 1, 0, 3, 1, -2, 5
1503683243693,+0.696,+0.700,-0.053,-0.150,+0.943,-0.043,+0.059,+30.312,+36.000,-16.688,1, 4, 1, -2, -2, -1, -1, 0
1503683243709,+0.693,+0.704,-0.053,-0.144,+0.950,-0.053,+0.083,+25.688,+32.250,-15.750,0, -3, -1, 1, -2, 1, 1, 0
1503683243731,+0.689,+0.709,-0.054,-0.140,+0.940,-0.065,+0.113,+17.125,+36.438,-14.312,2, -2, -2, 1, -1, 1, 1, 2
1503683243754,+0.684,+0.715,-0.056,-0.136,+0.935,-0.035,+0.133,+8.938,+38.562,-13.062,-1, -4, -2, -1, -1, -2, -2, -3
1503683243769,+0.680,+0.719,-0.059,-0.132,+0.947,+0.012,+0.123,+6.750,+35.500,-14.812,0, -3, -1, 0, 0, -1, -1, -3
1503683243792,+0.676,+0.723,-0.061,-0.128,+0.987,+0.016,+0.145,+4.812,+34.688,-14.000,-1, -10, 1, 0, -1, -3, 0, 2
1503683243813,+0.672,+0.727,-0.064,-0.124,+1.018,+0.019,+0.130,+2.312,+31.250,-14.688,-3, 1, -2, -1, 0, -1, 0, -3
1503683243830,+0.672,+0.728,-0.067,-0.121,+1.053,-0.005,+0.142,+2.375,+7.562,-16.562,6, 5, 0, -1, -1, -2, -2, 1
1503683243851,+0.674,+0.726,-0.070,-0.118,+0.963,-0.026,+0.129,-0.500,-14.125,-21.125,-1, 1, -3, -3, -3, 0, -1, -2
1503683243873,+0.674,+0.725,-0.073,-0.117,+0.862,-0.004,+0.134,-8.562,-5.188,-19.938,-4, 2, 0, 1, 0, 0, 0, -2
1503683243889,+0.672,+0.728,-0.077,-0.115,+0.933,+0.069,+0.094,-9.438,+22.750,-8.875,0, -2, -3, 0, 2, -2, 0, -1
1503683243911,+0.670,+0.730,-0.078,-0.115,+1.074,+0.043,+0.053,-4.188,+24.875,+2.062,2, 1, 1, -2, -3, -1, -3, 2
1503683243933,+0.669,+0.730,-0.079,-0.115,+1.127,-0.069,+0.116,-3.375,+6.250,-2.000,1, 2, 2, 2, 0, 0, 1, 1
1503683243949,+0.670,+0.729,-0.079,-0.115,+1.063,-0.110,+0.101,-2.875,-4.688,-5.062,-4, -1, 0, -3, 0, -2, -1, -3
1503683243971,+0.671,+0.728,-0.080,-0.115,+0.987,-0.117,+0.076,-5.000,-4.938,-8.188,0, 0, 0, 1, 1, 1, 0, -4
1503683243994,+0.672,+0.727,-0.081,-0.114,+0.994,-0.102,+0.133,-4.500,-8.312,-14.750,1, -2, -2, 1, 0, 1, 3, 3
1503683244009,+0.673,+0.727,-0.082,-0.113,+1.086,-0.152,+0.161,+0.750,-8.812,-17.562,-4, -5, 0, -2, 1, -1, -2, 1
1503683244032,+0.676,+0.724,-0.083,-0.111,+1.123,-0.140,+0.101,+3.312,-22.000,-17.250,0, 0, 2, -1, 0, -2, 1, -1
1503683244056,+0.680,+0.720,-0.083,-0.111,+1.056,-0.112,+0.083,+1.125,-31.750,-11.688,0, -2, -1, 1, -2, -1, 0, -3
1503683249921,+0.801,+0.532,-0.131,-0.241,+0.874,-0.007,-0.359,+0.625,+5.875,+12.375,-9, -6, 0, -1, -1, -2, 0, 2
1503683249932,+0.800,+0.533,-0.130,-0.243,+0.897,-0.003,-0.357,-1.000,+6.875,+17.438,4, 0, -2, -4, -2, -1, -1, 1
1503683249957,+0.798,+0.535,-0.130,-0.245,+0.943,-0.012,-0.318,-2.188,+10.312,+21.938,5, -1, 2, -1, 0, -1, -3, 2
1503683249978,+0.796,+0.537,-0.127,-0.249,+0.941,-0.016,-0.287,+0.688,+7.938,+31.000,1, 3, -6, 10, 9, 1, 0, 0
1503683249994,+0.795,+0.538,-0.124,-0.253,+1.011,-0.015,-0.326,+2.375,-5.688,+35.188,2, -1, -1, -3, -3, 0, -1, -1
1503683250015,+0.794,+0.537,-0.121,-0.258,+1.016,-0.028,-0.336,-4.438,-9.375,+36.688,0, -5, -4, -3, -2, 0, 1, 1
1503683250037,+0.792,+0.537,-0.121,-0.262,+0.979,-0.006,-0.360,-10.188,+0.938,+28.062,1, 0, -1, -3, -4, -2, -3, -3
1503683250053,+0.789,+0.540,-0.121,-0.266,+0.983,-0.046,-0.362,-12.438,+20.562,+35.188,-4, -5, -3, 0, 0, 1, 0, -1
1503683250075,+0.784,+0.546,-0.121,-0.271,+1.066,-0.052,-0.333,-11.125,+36.250,+38.312,1, 0, 1, -4, -10, 0, -1, 1
1503683250097,+0.778,+0.551,-0.121,-0.275,+1.057,-0.046,-0.322,-7.062,+36.375,+37.438,-14, 0, -1, 7, 9, 1, -1, -1
1503683250112,+0.773,+0.556,-0.125,-0.277,+0.953,+0.085,-0.310,-15.812,+43.625,+18.875,-1, 0, 3, 6, 5, -1, 0, -4
1503683250135,+0.768,+0.563,-0.125,-0.278,+0.867,+0.083,-0.341,+7.625,+50.312,+30.250,2, 0, -1, -4, -3, -2, 1, 3
1503683250158,+0.762,+0.572,-0.119,-0.279,+0.894,-0.099,-0.292,+31.250,+52.812,+39.875,2, 1, -1, 1, -1, -1, -1, 2
1503683250172,+0.756,+0.582,-0.113,-0.278,+0.992,-0.228,-0.205,+39.375,+53.312,+32.500,-5, -1, -2, -1, -4, -2, -1, -2
1503683250195,+0.749,+0.593,-0.109,-0.276,+0.992,-0.208,-0.125,+33.000,+61.500,+19.625,0, 2, 2, 4, 1, 0, -2, -1
1503683250219,+0.744,+0.601,-0.106,-0.272,+0.968,-0.172,-0.161,+35.875,+46.375,+7.125,-1, -2, -4, -3, 19, 43, 0, 0
1503683250232,+0.741,+0.607,-0.102,-0.268,+0.920,-0.206,-0.249,+37.562,+37.688,-1.125,2, 2, -1, 4, 21, 2, 1, 1
1503683250257,+0.738,+0.613,-0.099,-0.264,+0.874,-0.245,-0.214,+34.312,+37.062,-6.312,2, -1, 0, 2, -12, -17, -1, -1
1503683250277,+0.734,+0.620,-0.097,-0.259,+0.843,-0.280,-0.185,+31.750,+50.938,-9.500,-2, 1, 2, 2, 3, 2, -4, -6
1503683250293,+0.729,+0.628,-0.096,-0.255,+0.869,-0.262,-0.157,+27.938,+49.812,-10.125,-1, 2, 0, 1, -2, -5, 3, 2
1503683250315,+0.724,+0.636,-0.095,-0.250,+0.913,-0.237,-0.175,+27.000,+58.750,-10.938,1, 0, -3, -11, -39, -14, 0, 1
1503683250339,+0.719,+0.643,-0.096,-0.245,+0.968,-0.205,-0.129,+25.750,+53.562,-16.125,2, -1, -3, 6, -2, -5, -8, -8
1503683250354,+0.717,+0.648,-0.095,-0.239,+1.010,-0.225,-0.090,+27.375,+33.375,-19.125,-3, -2, 1, 0, 1, -2, 0, 4
1503683250375,+0.716,+0.651,-0.094,-0.234,+0.964,-0.278,-0.075,+23.812,+18.625,-17.688,2, 3, 0, -3, 3, -2, 0, 0
1503683250398,+0.714,+0.654,-0.093,-0.232,+0.912,-0.298,-0.120,+13.938,+21.000,-14.500,5, 5, 1, -2, 1, -2, -2, 1
1503683250412,+0.711,+0.658,-0.094,-0.231,+0.905,-0.226,-0.085,+4.062,+29.688,-7.188,13, -5, 1, 5, 0, -3, 2, -1
1503683250435,+0.708,+0.661,-0.094,-0.229,+0.964,-0.179,-0.076,+4.250,+28.250,-5.062,-16, -7, -3, -2, -1, 0, 2, 0
1503683250458,+0.706,+0.664,-0.095,-0.228,+1.027,-0.205,-0.074,+2.375,+23.125,-7.062,1, 1, 2, -1, 0, -1, 0, 1
1503683250472,+0.705,+0.665,-0.096,-0.227,+1.042,-0.207,-0.037,+0.875,+8.250,-4.062,-1, -3, -3, -3, -2, -3, -3, -2
1503683250496,+0.705,+0.665,-0.096,-0.227,+0.996,-0.226,-0.061,-0.562,-0.062,-6.250,0, -1, -1, -1, -2, 0, -1, 0
1503683250519,+0.705,+0.665,-0.097,-0.226,+0.950,-0.228,-0.036,-5.688,+3.250,-10.125,-4, -4, -6, -4, -2, -4, -4, 3
1503683250532,+0.705,+0.665,-0.098,-0.226,+0.967,-0.145,-0.082,-2.000,+2.500,-6.250,-8, -1, 0, -1, 0, -1, -2, -2
1503683250556,+0.705,+0.665,-0.098,-0.225,+1.063,-0.127,-0.090,-0.500,+2.438,+1.062,-1, 0, 0, -1, 1, -3, -1, 2
1503683250578,+0.706,+0.664,-0.097,-0.225,+1.067,-0.149,-0.064,+1.625,-6.250,+0.500,-5, 0, 2, -1, 1, 3, 0, -3
1503683250593,+0.708,+0.662,-0.096,-0.225,+1.048,-0.194,-0.069,+3.875,-18.562,-2.500,0, 1, -3, -1, -3, -2, -5, -5
1503683258438,+0.811,+0.528,-0.135,-0.211,+0.925,+0.020,-0.356,+0.438,-3.312,+3.000,1, -1, 1, -2, -1, -1, -2, 2
1503683258461,+0.811,+0.528,-0.135,-0.211,+0.900,+0.009,-0.363,+1.812,+0.250,+2.562,-3, -1, 1, 1, 0, 0, -2, -5
1503683258483,+0.811,+0.529,-0.134,-0.211,+0.911,+0.008,-0.327,+1.688,+1.250,+4.188,-8, -15, -1, -1, -2, -1, -1, 2
1503683258498,+0.811,+0.530,-0.133,-0.212,+0.940,+0.014,-0.327,+6.250,-0.562,+6.812,1, 3, 0, 1, 1, 0, 1, -1
1503683258521,+0.811,+0.530,-0.131,-0.212,+0.936,+0.031,-0.350,+8.812,-4.875,+9.000,-2, -4, -3, -1, 0, -2, -1, -3
1503683258543,+0.812,+0.529,-0.129,-0.213,+0.893,+0.045,-0.341,+6.375,-10.562,+13.125,0, 29, 10, -2, -1, -3, -4, -2
1503683258572,+0.812,+0.528,-0.126,-0.214,+0.880,+0.056,-0.335,+9.625,-8.250,+21.750,-3, -8, -3, 0, 0, 1, -1, -2
1503683258581,+0.811,+0.529,-0.123,-0.216,+0.902,+0.053,-0.364,+10.250,+1.188,+27.125,-6, -9, 0, 1, -1, -1, -1, -3
1503683258603,+0.810,+0.531,-0.119,-0.220,+0.900,+0.029,-0.354,+8.188,+8.312,+35.000,-1, 0, -2, -1, -1, -1, -2, -3
1503683258624,+0.807,+0.535,-0.115,-0.224,+0.937,-0.022,-0.316,+5.562,+15.875,+39.625,2, -3, 3, 1, 3, -1, -3, 1
1503683258641,+0.802,+0.540,-0.112,-0.228,+1.059,-0.037,-0.290,+3.812,+24.688,+41.875,-2, 0, -3, -1, -2, -2, 0, -2
1503683258664,+0.797,+0.546,-0.110,-0.232,+1.124,-0.067,-0.399,+2.438,+35.375,+37.625,2, -7, -6, -4, -2, 0, -1, 0
1503683258684,+0.792,+0.553,-0.110,-0.235,+1.124,-0.116,-0.359,-6.562,+45.438,+25.562,2, 1, 3, -1, 1, 1, 0, -1
1503683258701,+0.787,+0.558,-0.112,-0.237,+1.092,-0.076,-0.319,-10.438,+40.438,+14.375,-1, -2, -2, 1, 0, 0, 1, 2
1503683258723,+0.782,+0.564,-0.118,-0.236,+0.926,+0.056,-0.269,-18.938,+51.188,-7.500,-5, -5, -3, 0, 0, -2, -2, -4
1503683258744,+0.776,+0.573,-0.123,-0.234,+0.832,+0.023,-0.273,-4.750,+71.000,-1.500,3, 7, 2, -2, 0, -1, -1, -1
1503683258762,+0.768,+0.583,-0.123,-0.234,+0.835,-0.078,-0.273,+7.688,+77.500,+14.125,0, 1, 0, 0, -1, 0, -1, 0
1503683258783,+0.760,+0.594,-0.124,-0.232,+0.935,-0.066,-0.201,+9.875,+80.562,+7.688,-1, -2, -2, -2, -2, -1, -2, 0
1503683258806,+0.754,+0.603,-0.125,-0.228,+1.003,-0.061,-0.137,+15.750,+63.750,-3.375,-1, 9, 5, 1, 0, 0, -3, -1
1503683258821,+0.750,+0.609,-0.125,-0.225,+0.978,-0.117,-0.120,+13.625,+35.312,-8.750,1, 9, 3, -1, 0, 2, -1, -3
1503683258843,+0.749,+0.611,-0.125,-0.222,+0.936,-0.124,-0.125,+9.000,+14.062,-13.125,-3, 5, 3, 2, -2, -2, -1, -3
1503683258866,+0.749,+0.613,-0.126,-0.220,+0.871,-0.164,-0.166,+2.250,+11.812,-14.750,-6, -7, -1, -1, -1, -1, -1, -2
1503683258888,+0.748,+0.614,-0.127,-0.219,+0.854,-0.138,-0.267,+0.750,+17.375,-12.812,-1, 3, -2, -2, -1, -1, 3, -2
1503683258904,+0.747,+0.616,-0.128,-0.217,+0.859,-0.126,-0.274,+3.125,+24.500,-13.062,-2, -1, -4, -3, -2, 0, -2, -2
1503683258930,+0.745,+0.618,-0.129,-0.215,+0.927,-0.132,-0.202,-2.500,+28.062,-10.750,-3, 2, 0, -1, -2, 1, 1, 1
1503683258941,+0.741,+0.622,-0.131,-0.215,+1.018,-0.101,-0.157,-5.750,+30.438,-5.938,0, 1, 0, 0, 1, -1, 0, 1
1503683258964,+0.740,+0.624,-0.133,-0.213,+1.044,-0.044,-0.197,-0.375,+24.438,-10.250,-1, -11, -1, 1, -1, -2, -3, 2
1503683258984,+0.741,+0.624,-0.134,-0.210,+1.075,-0.051,-0.205,+9.062,+0.562,-14.938,1, 0, 3, -1, 0, 0, 3, 2
1503683259001,+0.743,+0.622,-0.133,-0.207,+1.064,-0.163,-0.127,+8.375,-16.750,-19.062,2, 4, 0, 2, 0, 0, 1, 1
1503683259023,+0.745,+0.620,-0.133,-0.206,+1.003,-0.179,-0.114,+0.438,-16.562,-20.938,1, -3, 0, -3, 0, -2, 0, -1
1503683267789,+0.797,+0.553,-0.129,-0.207,+0.936,-0.018,-0.304,-1.375,+2.812,+1.750,-2, 1, -2, 0, -2, -1, 1, 0
1503683267807,+0.796,+0.554,-0.129,-0.207,+0.949,-0.004,-0.303,-0.562,+2.688,+1.938,1, 0, 1, 1, -1, 1, 2, -1
1503683267828,+0.796,+0.554,-0.129,-0.207,+0.934,-0.002,-0.306,+1.188,+3.375,+2.188,1, -3, 0, -5, -2, -1, -2, 0
1503683267850,+0.796,+0.555,-0.128,-0.206,+0.948,-0.008,-0.302,+2.062,+3.688,+1.875,-2, -3, 0, -1, -1, -1, -1, -1
1503683267866,+0.795,+0.556,-0.128,-0.206,+0.946,-0.014,-0.295,+3.500,+7.500,+1.375,3, 2, -1, 1, 0, -1, 1, 3
1503683267889,+0.795,+0.557,-0.127,-0.206,+0.941,-0.014,-0.307,+2.375,+3.812,+3.438,-3, -2, 0, -1, -2, 0, -2, -5
1503683267909,+0.794,+0.557,-0.127,-0.206,+0.921,+0.003,-0.291,+1.062,+4.062,+6.312,-1, -2, -1, 0, 1, -1, -1, 0
1503683267925,+0.793,+0.559,-0.126,-0.207,+0.937,-0.012,-0.286,+1.750,+9.188,+10.375,1, 2, -2, 0, 0, 0, 0, 1
1503683267947,+0.791,+0.561,-0.125,-0.207,+0.948,-0.025,-0.273,+3.625,+13.750,+8.188,-3, 0, 1, 0, 2, -1, 0, -2
1503683267969,+0.790,+0.564,-0.124,-0.207,+0.988,-0.022,-0.264,+6.750,+12.000,+5.562,1, -1, -2, -3, -1, 0, -2, -3
1503683267985,+0.789,+0.565,-0.123,-0.206,+0.979,-0.030,-0.261,+7.375,+5.375,+5.875,2, 1, 1, 0, 0, -2, 0, 1
1503683268009,+0.789,+0.566,-0.121,-0.206,+0.907,-0.005,-0.252,+7.938,+3.438,+8.250,0, 0, -1, -1, -3, -1, -3, -1
1503683268029,+0.788,+0.568,-0.119,-0.206,+0.937,-0.002,-0.275,+12.188,+12.250,+11.875,-1, -4, -1, 0, 1, 1, 2, 0
1503683268052,+0.785,+0.572,-0.117,-0.206,+0.951,-0.043,-0.300,+9.750,+21.250,+14.688,-1, -2, 0, 1, -1, -2, 0, 1
1503683268067,+0.781,+0.577,-0.116,-0.207,+0.965,-0.031,-0.292,+5.562,+41.125,+14.125,-2, -1, 2, -2, -2, 0, -2, -5
1503683268089,+0.775,+0.586,-0.117,-0.207,+1.034,+0.025,-0.281,+1.250,+62.750,+17.250,1, 1, -2, 0, 0, -2, 1, 3
1503683268112,+0.766,+0.597,-0.117,-0.206,+1.133,+0.028,-0.246,+9.250,+79.938,+21.500,-1, 0, -1, -1, -2, -1, -2, -1
1503683268127,+0.759,+0.606,-0.115,-0.206,+1.160,-0.067,-0.268,+17.312,+67.250,+23.188,-3, -3, -2, 2, 0, 0, -1, -3
1503683268150,+0.755,+0.612,-0.110,-0.207,+1.073,-0.103,-0.297,+20.500,+40.750,+27.562,-2, -2, -3, -2, -1, -1, -1, -2
1503683268171,+0.753,+0.617,-0.105,-0.206,+0.945,-0.045,-0.306,+32.312,+32.188,+25.125,0, -2, -3, -3, -1, 0, -4, -2
1503683268187,+0.752,+0.620,-0.098,-0.200,+0.941,+0.081,-0.256,+56.125,+18.875,+14.750,1, 0, -1, 0, -2, 0, 0, 0
1503683268210,+0.756,+0.620,-0.087,-0.191,+1.017,-0.149,-0.228,+85.375,-18.438,-8.000,1, 4, -1, 0, 0, -1, -1, 0
1503683268231,+0.757,+0.622,-0.073,-0.186,+0.872,-0.311,-0.133,+76.062,-5.812,+18.188,-3, 1, 3, -3, -1, -3, -1, -1
1503683268247,+0.752,+0.630,-0.064,-0.181,+0.787,-0.236,-0.083,+61.375,+42.125,+5.500,-2, -2, -4, -2, -3, -3, -4, -5
1503683268269,+0.747,+0.639,-0.058,-0.174,+0.846,-0.165,-0.136,+56.000,+59.500,-0.188,-6, -3, -3, -4, 0, -1, 0, -1
1503683268292,+0.740,+0.650,-0.051,-0.168,+0.934,-0.208,-0.124,+61.688,+67.000,+0.625,0, -2, -2, -1, -2, -1, -1, 1
1503683268310,+0.734,+0.658,-0.045,-0.161,+0.980,-0.264,-0.039,+55.625,+53.875,-6.562,-2, -2, 2, 0, -2, 1, 1, -1
1503683268329,+0.729,+0.665,-0.041,-0.155,+1.017,-0.241,+0.000,+46.312,+42.125,-9.812,0, 0, -3, 0, -1, -1, -2, 2
1503683268352,+0.725,+0.672,-0.037,-0.149,+1.032,-0.228,+0.033,+36.312,+35.312,-8.750,-2, 2, -2, -5, -2, -3, -4, -7
1503683268367,+0.722,+0.676,-0.035,-0.144,+1.037,-0.151,+0.009,+30.938,+22.375,-14.062,0, 0, -3, 0, 0, -1, 0, 1
1503683268389,+0.722,+0.677,-0.034,-0.138,+0.984,-0.115,-0.015,+27.688,+7.125,-17.125,4, 4, 4, -1, -1, 0, 1, 2
1503683268412,+0.722,+0.678,-0.032,-0.134,+0.949,-0.154,-0.019,+21.438,-1.375,-10.625,-6, -6, -3, 0, 0, -1, -2, -2
1503683268427,+0.720,+0.680,-0.032,-0.133,+0.917,-0.174,+0.015,+6.812,+15.625,-3.875,-3, -3, 1, 1, -1, 0, -2, 1
1503683268449,+0.717,+0.684,-0.033,-0.132,+0.937,-0.116,+0.011,-0.125,+30.562,-5.625,1, -2, 0, 0, 0, -1, -2, -2
1503683268471,+0.713,+0.688,-0.035,-0.130,+1.036,-0.073,+0.025,+0.875,+30.750,-13.688,5, -1, -1, -1, 0, -2, -3, -4
1503683268488,+0.712,+0.690,-0.039,-0.126,+1.118,-0.046,+0.061,+0.500,+11.812,-19.688,-2, -2, 1, 0, 2, 1, 0, 1
1503683268511,+0.714,+0.688,-0.041,-0.123,+1.039,-0.021,+0.000,+0.312,-11.750,-21.062,-1, 2, -1, 0, -2, -1, 0, -1
1503683268531,+0.716,+0.686,-0.045,-0.119,+0.928,+0.027,+0.034,-5.000,-16.625,-23.062,-1, -1, -5, 0, -1, -2, -2, 0
1503683268548,+0.716,+0.687,-0.050,-0.115,+0.914,+0.116,-0.016,-1.688,+4.750,-23.938,1, -6, -3, -3, -1, -1, 1, 2
1503683268570,+0.715,+0.688,-0.054,-0.110,+0.990,+0.128,-0.015,+3.250,+13.188,-19.625,0, 4, -1, 0, 0, -2, -2, -1
1503683268591,+0.715,+0.689,-0.056,-0.106,+1.032,+0.054,+0.078,+6.250,+5.125,-20.688,0, -4, -1, 0, -2, -1, -1, -1
1503683268608,+0.715,+0.689,-0.059,-0.102,+1.047,-0.000,+0.043,+2.625,+1.250,-20.062,-5, -3, 1, -3, -1, 1, -3, -3
1503683277360,+0.732,+0.658,-0.064,-0.165,+0.894,+0.045,-0.031,+23.812,+40.125,-3.938,-7, -2, 4, 2, 1, 1, 0, -1
1503683277373,+0.727,+0.664,-0.065,-0.160,+0.943,+0.056,+0.002,+21.625,+42.750,-5.938,4, -1, -1, -1, 1, -3, -1, 2
1503683277398,+0.722,+0.671,-0.066,-0.155,+1.018,+0.043,+0.059,+17.688,+42.125,-7.688,3, 1, -2, 0, 1, 0, -1, 3
1503683277419,+0.718,+0.676,-0.068,-0.151,+1.025,+0.045,+0.056,+11.812,+33.562,-7.312,-4, -3, 1, 0, 0, 2, 0, 1
1503683277433,+0.717,+0.677,-0.069,-0.147,+1.012,+0.075,+0.018,+7.125,+9.750,-6.188,0, -4, -3, -4, -2, 0, -2, -5
1503683277456,+0.718,+0.677,-0.070,-0.144,+0.922,+0.037,-0.019,+12.125,-2.812,-8.250,-1, -2, -1, 0, -2, -3, 1, -3
1503683277479,+0.717,+0.679,-0.070,-0.140,+0.896,-0.058,-0.023,+14.188,+13.438,-12.438,3, -3, -3, 0, -1, 0, -2, -2
1503683277494,+0.713,+0.684,-0.070,-0.137,+0.964,-0.104,-0.047,+12.250,+38.812,-11.688,1, -1, -4, -1, 0, -1, -2, 0
1503683277517,+0.710,+0.687,-0.070,-0.135,+1.107,-0.076,-0.048,+9.125,+31.750,-5.875,-7, 0, 0, -1, -2, 0, -2, -2
1503683277539,+0.709,+0.689,-0.069,-0.132,+1.137,-0.052,+0.023,+12.562,+7.188,-1.438,1, -2, -3, -1, -1, 0, 0, -3
1503683277555,+0.711,+0.688,-0.068,-0.130,+1.058,-0.101,+0.014,+12.688,-8.500,-3.562,-5, 0, 1, 2, 0, -3, -2, -1
1503683277576,+0.713,+0.686,-0.066,-0.128,+0.929,-0.075,-0.075,+14.688,-15.625,-4.438,0, -1, 0, -3, -1, 0, 0, 0
1503683277599,+0.715,+0.685,-0.063,-0.125,+0.884,-0.096,-0.066,+21.688,-9.750,-5.250,-2, 6, 2, 0, 1, -1, 0, -2
1503683277614,+0.714,+0.686,-0.061,-0.124,+0.977,-0.188,+0.045,+15.000,+8.438,-5.500,2, -2, 1, -2, -2, -2, -2, 0
1503683277636,+0.711,+0.690,-0.060,-0.122,+1.016,-0.165,+0.016,+9.250,+29.750,-5.688,-2, 0, -2, -2, -2, -2, -2, -1
1503683277659,+0.708,+0.694,-0.061,-0.120,+1.028,-0.106,-0.005,+6.625,+26.938,-8.438,1, 1, -2, -1, 0, 0, -1, 0
1503683277673,+0.706,+0.696,-0.062,-0.117,+1.051,-0.056,+0.028,+5.812,+18.125,-11.688,-1, -2, -2, -1, 0, 0, 0, 2
1503683277696,+0.706,+0.697,-0.063,-0.114,+1.057,-0.034,+0.027,+7.312,+5.625,-14.000,-3, -1, 2, 2, 1, 1, -1, -1
1503683277719,+0.707,+0.695,-0.063,-0.111,+1.018,-0.041,+0.086,+11.750,-15.562,-16.250,-6, -1, 0, 1, 1, 1, 1, 1
1503683277734,+0.712,+0.691,-0.063,-0.107,+1.011,-0.076,+0.100,+11.000,-38.875,-20.938,3, 1, -4, -3, -3, -2, 0, 0
1503683277764,+0.716,+0.688,-0.065,-0.104,+0.926,-0.059,+0.093,+4.688,-37.438,-24.938,-2, -5, -3, -3, -2, -1, -4, -2
1503683277779,+0.718,+0.685,-0.067,-0.101,+0.865,-0.015,+0.009,+1.500,-19.438,-20.250,1, -1, 0, -2, 0, 1, 1, 3
1503683277794,+0.718,+0.685,-0.069,-0.100,+0.906,+0.035,-0.035,-4.500,+5.375,-10.000,-3, -3, -3, -4, -3, 0, -1, -2
1503683277816,+0.716,+0.688,-0.071,-0.100,+1.062,+0.058,+0.021,-10.688,+19.938,+0.625,0, 2, 1, 0, -2, 0, -1, -2
1503683277839,+0.716,+0.687,-0.071,-0.101,+1.188,+0.083,+0.032,-5.125,-8.938,+13.312,3, -5, 0, -2, 0, -1, -1, 2
1503683277854,+0.722,+0.681,-0.069,-0.101,+1.174,+0.054,+0.038,+6.562,-51.750,+8.062,-1, 0, 5, -1, -2, -1, -1, -1
1503683277876,+0.731,+0.672,-0.066,-0.100,+1.052,-0.027,+0.069,+10.688,-82.875,-1.812,5, 3, -1, 0, 0, 0, 1, 1
1503683277899,+0.740,+0.662,-0.065,-0.100,+0.868,-0.033,-0.040,+2.750,-82.312,-4.938,-1, -2, -2, 0, 0, -1, -2, -3
1503683277914,+0.745,+0.656,-0.065,-0.102,+0.757,+0.011,-0.131,-9.312,-39.188,+6.062,-4, -4, 1, -3, -1, 0, 0, -3
1503683277937,+0.744,+0.657,-0.065,-0.105,+0.821,-0.005,-0.141,-12.000,+9.938,+17.688,0, -1, 3, 2, 1, -1, 1, -1
1503683277961,+0.740,+0.661,-0.064,-0.107,+0.962,-0.023,-0.106,-4.562,+38.062,+20.562,9, 1, -4, -2, -2, 0, -1, 1
1503683277974,+0.735,+0.667,-0.062,-0.109,+1.035,-0.088,-0.080,-1.688,+41.438,+16.000,3, 0, -1, -1, 0, -1, 0, -3
1503683277996,+0.731,+0.671,-0.062,-0.110,+1.070,-0.120,-0.015,-2.438,+30.125,+8.062,-2, -4, -4, -4, -2, -1, 0, 2
1503683278018,+0.728,+0.674,-0.061,-0.110,+1.039,-0.106,-0.050,+2.500,+28.062,+0.188,-4, 1, -1, 2, 0, -2, -1, -3
1503683278035,+0.725,+0.677,-0.062,-0.109,+1.000,-0.113,-0.069,+0.625,+22.750,-8.688,-2, -1, 3, -1, -2, 0, -1, 1
1503683278059,+0.723,+0.679,-0.063,-0.108,+0.997,-0.062,-0.062,-2.875,+21.688,-9.250,-7, -1, -5, -2, 0, 0, -2, -1
1503683278078,+0.720,+0.682,-0.065,-0.106,+0.947,-0.038,-0.007,+1.438,+27.500,-9.688,4, 0, -1, -3, -1, 0, -1, -1
1503683278096,+0.717,+0.686,-0.066,-0.103,+0.986,-0.043,+0.019,+5.875,+29.312,-11.688,-3, -5, -1, 1, 0, 1, -2, 0
1503683278116,+0.714,+0.689,-0.067,-0.101,+1.000,-0.024,-0.042,+5.188,+29.625,-12.875,3, -6, -2, -2, -1, 0, 1, 3
1503683278139,+0.711,+0.693,-0.069,-0.099,+0.998,-0.015,-0.046,-0.312,+37.125,-7.875,2, 1, -2, 0, -2, -1, -1, -1
1503683286044,+0.799,+0.536,-0.133,-0.236,+0.935,-0.031,-0.341,-0.688,+2.312,+0.625,-36, -7, -3, -4, 1, 0, 2, 1
1503683286059,+0.799,+0.537,-0.132,-0.236,+0.912,-0.031,-0.338,-0.562,+2.062,+1.812,11, -8, -4, 1, -1, -3, -2, -2
1503683286082,+0.799,+0.537,-0.132,-0.236,+0.922,-0.034,-0.341,-1.688,+4.188,+3.562,2, 2, -1, 0, 0, 1, -1, 2
1503683286104,+0.798,+0.538,-0.132,-0.237,+0.964,-0.028,-0.324,-3.062,+0.062,+5.000,-5, -5, -5, 0, -3, -3, 0, -1
1503683286120,+0.798,+0.537,-0.132,-0.238,+0.954,-0.029,-0.333,-2.250,-4.062,+5.250,7, 0, 1, 0, 0, 0, -2, 0
1503683286142,+0.799,+0.537,-0.131,-0.238,+0.921,-0.045,-0.346,-1.875,-4.750,+3.938,5, 3, 3, -2, 1, -1, 0, 0
1503683286167,+0.799,+0.536,-0.131,-0.239,+0.927,-0.039,-0.355,-1.750,-0.562,+2.500,-4, 0, 1, 0, -1, -1, 1, -1
1503683286179,+0.799,+0.536,-0.131,-0.239,+0.944,-0.042,-0.348,-2.000,+0.375,+1.312,-1, 0, -2, -5, -3, 1, -1, -3
1503683286203,+0.798,+0.537,-0.131,-0.239,+0.910,-0.028,-0.336,-1.500,+2.125,+1.562,-7, -2, 0, -1, 0, -1, -1, -1
1503683286224,+0.798,+0.537,-0.131,-0.239,+0.933,-0.043,-0.335,-1.375,+2.375,+3.125,-4, -2, -5, 0, -1, -1, 0, -2
1503683286241,+0.798,+0.538,-0.131,-0.240,+0.947,-0.038,-0.336,-1.625,+2.938,+4.125,1, 3, 2, 2, 1, 1, -1, -2
1503683286262,+0.797,+0.538,-0.131,-0.240,+0.936,-0.041,-0.331,-1.750,-1.500,+5.125,-4, -1, -1, -2, -1, -1, -2, -2
1503683286284,+0.797,+0.538,-0.130,-0.241,+0.916,-0.048,-0.344,-1.750,-0.062,+5.938,4, -2, -1, 0, -1, -1, -1, 2
1503683286301,+0.797,+0.538,-0.130,-0.242,+0.926,-0.038,-0.339,-1.062,+2.438,+5.188,5, 2, 2, 2, -1, 2, 0, 0
1503683286322,+0.796,+0.539,-0.129,-0.242,+0.951,-0.035,-0.333,+0.375,+2.250,+4.688,3, -2, -1, -3, -2, -1, -1, -1
1503683286344,+0.796,+0.539,-0.129,-0.242,+0.897,-0.017,-0.302,+5.000,+1.375,+4.938,-7, 0, 1, -2, -1, 0, -1, 0
1503683286360,+0.796,+0.541,-0.127,-0.241,+0.857,-0.026,-0.369,+10.750,+10.562,+6.688,0, -6, -3, -1, 0, -3, -2, -1
1503683286382,+0.794,+0.544,-0.126,-0.241,+0.944,-0.043,-0.349,+6.625,+18.625,+8.000,-3, -2, -2, 0, -1, -1, -2, -3
1503683286405,+0.792,+0.547,-0.125,-0.241,+0.981,-0.054,-0.314,+8.875,+19.500,+10.812,1, -1, 0, -2, -1, 0, 0, 2
1503683286419,+0.791,+0.549,-0.122,-0.242,+0.952,-0.078,-0.308,+8.188,+6.750,+11.625,4, 1, -2, -2, -1, 1, 0, 3
1503683286441,+0.790,+0.550,-0.120,-0.242,+0.881,-0.062,-0.301,+7.000,+5.625,+13.438,-3, -2, -3, -3, -1, 0, 0, -4
1503683286465,+0.789,+0.552,-0.118,-0.243,+0.896,-0.052,-0.343,+6.250,+9.188,+14.312,-2, 0, 1, -1, -2, -2, 0, -1
1503683286486,+0.787,+0.554,-0.117,-0.245,+0.931,-0.065,-0.305,+5.688,+14.812,+16.938,-1, -2, -2, 0, -1, 2, 1, 0
1503683286507,+0.785,+0.557,-0.114,-0.246,+0.983,-0.085,-0.321,+9.250,+13.938,+20.312,-1, 1, 1, 0, 0, -1, -1, 1
1503683286524,+0.784,+0.558,-0.111,-0.248,+0.957,-0.136,-0.311,+9.000,+3.812,+19.125,1, -3, -2, -1, -2, 0, 0, -3
1503683286546,+0.783,+0.559,-0.108,-0.250,+0.892,-0.125,-0.281,+4.750,-1.375,+17.875,-4, -4, -2, 0, -1, -1, -1, -3
1503683286561,+0.783,+0.560,-0.105,-0.251,+0.955,-0.065,-0.292,+7.875,-1.625,+18.562,-3, -1, -2, 0, -2, -2, 1, -1
1503683286583,+0.781,+0.562,-0.102,-0.252,+0.969,-0.072,-0.326,+12.562,+10.500,+22.125,-1, 3, -2, -3, -1, -3, -1, 0
1503683286607,+0.780,+0.564,-0.098,-0.253,+0.926,-0.138,-0.290,+14.250,+11.500,+23.188,3, -1, 1, -1, -1, 0, -2, 0
1503683286622,+0.778,+0.566,-0.095,-0.255,+0.912,-0.170,-0.240,+11.312,+6.062,+19.875,-5, -4, -4, -1, -1, -1, -2, -3
1503683286645,+0.777,+0.568,-0.092,-0.256,+0.948,-0.139,-0.270,+10.312,+4.125,+17.375,2, -4, -1, 0, 0, 0, 1, 3
1503683286669,+0.776,+0.569,-0.089,-0.257,+0.976,-0.147,-0.295,+8.375,+2.062,+16.250,-2, 2, 2, 1, 0, 0, -2, -1
1503683286681,+0.775,+0.571,-0.086,-0.257,+0.954,-0.116,-0.328,+12.438,+11.250,+16.312,2, -2, -1, -1, -1, -1, 0, -4
1503683286704,+0.774,+0.573,-0.083,-0.257,+0.950,-0.200,-0.285,+18.500,+7.125,+13.125,-1, -2, -2, -3, -1, 0, -1, -1
1503683286726,+0.773,+0.575,-0.080,-0.257,+0.913,-0.204,-0.221,+12.500,+6.062,+7.562,-2, 3, 0, -1, -2, -1, -1, 0
1503683286748,+0.772,+0.576,-0.078,-0.257,+0.924,-0.128,-0.243,+8.625,+3.062,+11.250,2, 10, 2, -1, 0, 1, 1, -1
1503683286764,+0.771,+0.578,-0.076,-0.257,+0.947,-0.126,-0.302,+12.875,+8.000,+12.562,-4, 3, -3, -2, -3, 0, -1, -1
1503683286786,+0.769,+0.581,-0.074,-0.257,+0.945,-0.149,-0.301,+13.812,+22.250,+13.688,-2, 2, -2, -1, 1, -1, 0, -1
1503683286803,+0.766,+0.585,-0.071,-0.257,+0.934,-0.178,-0.269,+14.062,+27.000,+16.125,1, -7, -1, 0, -1, -3, -3, -3
1503683286823,+0.763,+0.589,-0.068,-0.258,+0.914,-0.265,-0.242,+14.062,+18.562,+16.250,-2, -4, 0, -1, -1, 0, -2, -2
1503683286846,+0.761,+0.591,-0.065,-0.259,+0.981,-0.222,-0.237,+7.875,+9.312,+15.000,-2, 4, 2, 0, 0, 0, 0, 1
1503683295007,+0.798,+0.529,-0.145,-0.250,+0.933,-0.031,-0.347,-2.500,+0.875,+0.625,-13, -10, -6, -5, -5, -3, 2, -1
1503683295028,+0.798,+0.529,-0.145,-0.250,+0.932,-0.031,-0.347,-2.062,-0.188,+0.250,2, -4, -3, -2, 0, -4, -4, -4
1503683295058,+0.797,+0.530,-0.145,-0.250,+0.929,-0.027,-0.347,-1.375,+3.062,-0.750,-5, -6, 2, 3, 1, -1, -4, -5
1503683295067,+0.797,+0.530,-0.145,-0.250,+0.924,-0.019,-0.354,-2.250,+3.188,-0.938,2, 2, -4, -4, -2, -2, -1, 3
1503683295089,+0.797,+0.530,-0.146,-0.250,+0.914,-0.009,-0.334,-0.938,-0.312,+0.875,-2, -14, -5, -1, -2, -2, -1, -4
1503683295112,+0.798,+0.529,-0.145,-0.249,+0.916,+0.001,-0.354,+4.438,-7.562,-0.125,-1, -3, -2, 0, -2, -3, -2, 0
1503683295126,+0.799,+0.529,-0.143,-0.247,+0.870,+0.008,-0.417,+11.125,+3.125,-1.750,-4, 12, 6, 1, 1, -1, 1, 0
1503683295149,+0.797,+0.533,-0.143,-0.246,+0.890,-0.075,-0.276,+5.250,+20.250,-0.688,-2, 2, 0, 0, 0, 1, 1, -1
1503683295170,+0.793,+0.538,-0.144,-0.246,+0.979,-0.031,-0.276,-0.062,+31.688,+6.250,-2, 0, -1, -1, -1, -3, -1, 0
1503683295187,+0.792,+0.539,-0.144,-0.246,+1.013,+0.022,-0.350,-0.188,+9.750,+7.500,-2, 2, 0, 1, 3, 2, 0, 0
1503683295211,+0.793,+0.538,-0.143,-0.247,+0.932,+0.024,-0.342,+4.438,-13.062,+6.188,1, -4, -2, -2, 1, -2, 0, 0
1503683295230,+0.794,+0.538,-0.140,-0.247,+0.853,-0.042,-0.361,+9.750,-2.688,+6.938,2, 4, -2, 1, -1, 1, -1, 3
1503683295247,+0.792,+0.540,-0.139,-0.247,+0.922,-0.088,-0.312,+3.562,+11.750,+8.812,0, -7, -2, 0, -1, 1, 1, 2
1503683295268,+0.791,+0.542,-0.138,-0.248,+0.980,-0.024,-0.295,+1.938,+12.875,+12.062,-4, -2, -1, -3, -1, -1, 0, -1
1503683295291,+0.791,+0.542,-0.136,-0.249,+0.989,-0.031,-0.342,+7.250,-5.500,+9.875,0, 5, 2, 0, -2, -1, -3, 0
1503683295307,+0.792,+0.542,-0.134,-0.249,+0.930,-0.063,-0.350,+9.938,-9.062,+5.562,-3, -3, 0, 0, -1, 1, -1, 1
1503683295328,+0.792,+0.542,-0.132,-0.249,+0.906,-0.086,-0.342,+8.312,-0.500,+4.250,-4, 3, 4, 0, 0, -2, -2, -6
1503683295351,+0.791,+0.543,-0.130,-0.248,+0.941,-0.086,-0.319,+5.312,+6.500,+1.938,4, -5, -4, -3, 0, -1, -1, -1
1503683295366,+0.791,+0.545,-0.130,-0.247,+0.974,-0.042,-0.312,+5.250,+8.375,+1.625,1, 14, 1, 0, -2, 0, 0, -2
1503683295389,+0.791,+0.545,-0.129,-0.246,+0.960,-0.031,-0.328,+7.375,-0.062,+0.250,-1, 1, 0, 0, -2, -1, -1, -2
1503683295412,+0.791,+0.545,-0.128,-0.246,+0.915,-0.071,-0.321,+7.438,-1.000,+0.812,2, 1, 1, 4, 1, -1, 0, 2
1503683295426,+0.791,+0.547,-0.127,-0.245,+0.881,-0.061,-0.323,+5.312,+6.438,+2.938,-1, -9, -3, -1, -1, -1, -2, -2
1503683295449,+0.789,+0.548,-0.126,-0.245,+0.944,-0.037,-0.307,+4.625,+10.688,+5.375,-3, -4, -6, -2, -2, 0, -1, -4
1503683295470,+0.789,+0.549,-0.125,-0.245,+0.984,-0.070,-0.325,+5.750,+1.125,+7.312,-4, -14, -4, 0, 1, 0, -1, -3
1503683295488,+0.790,+0.549,-0.123,-0.246,+0.961,-0.096,-0.343,+5.062,-6.875,+5.375,0, 7, 3, 1, 1, -1, -2, -4
1503683295509,+0.790,+0.548,-0.121,-0.246,+0.919,-0.074,-0.333,+5.250,-4.062,+2.500,-7, -5, -4, -1, -2, -1, -1, -6
1503683295530,+0.790,+0.548,-0.121,-0.245,+0.929,-0.061,-0.309,+4.938,-1.062,+2.500,4, 2, 3, 0, -3, 0, -1, 1
1503683295547,+0.790,+0.549,-0.119,-0.245,+0.944,-0.062,-0.315,+4.812,-2.312,+5.125,-4, 0, -1, -2, 0, -1, -2, -3
1503683295569,+0.791,+0.548,-0.118,-0.245,+0.934,-0.038,-0.312,+6.375,-3.688,+6.750,4, 0, 2, 0, 0, 1, 3, 3
1503683295591,+0.791,+0.549,-0.116,-0.245,+0.905,-0.064,-0.339,+6.938,+1.562,+7.188,3, 2, 3, 0, 2, -1, -1, 2
1503683295606,+0.790,+0.550,-0.115,-0.246,+0.932,-0.117,-0.343,+5.188,+6.000,+5.938,2, 14, 1, -2, 0, 0, -3, -1
1503683295629,+0.789,+0.551,-0.114,-0.246,+0.966,-0.144,-0.341,+3.125,+7.562,+3.000,0, -4, -5, -2, -1, 0, -1, 3
1503683295651,+0.789,+0.552,-0.113,-0.246,+0.975,-0.086,-0.322,+1.125,+1.000,+0.750,-2, -1, -1, -1, -1, -1, 1, 1
1503683295673,+0.790,+0.551,-0.113,-0.245,+0.940,-0.055,-0.324,+4.375,-5.438,-0.500,-3, -1, -3, -2, 0, -2, 1, 1
1503683295689,+0.791,+0.550,-0.112,-0.244,+0.893,-0.054,-0.327,+5.188,-6.562,+2.062,2, -5, -2, 1, 0, 2, 0, 3
1503683295714,+0.790,+0.551,-0.111,-0.244,+0.865,-0.057,-0.314,+4.250,+8.562,+6.125,-5, -1, -1, -1, -1, -1, 0, -5
1503683295726,+0.788,+0.554,-0.110,-0.245,+0.925,-0.053,-0.302,+0.250,+13.500,+12.125,-1, -1, -1, -1, -1, -1, -1, -3
1503683295751,+0.786,+0.555,-0.110,-0.247,+0.942,-0.047,-0.304,-1.125,+11.375,+15.875,-3, -5, 0, 1, -2, 0, -1, -4
1503683295771,+0.785,+0.557,-0.109,-0.248,+0.952,-0.075,-0.308,+0.438,+11.062,+15.438,4, 4, 1, -1, 2, 1, 0, 3
1503683295786,+0.783,+0.560,-0.108,-0.249,+0.971,-0.148,-0.304,+3.625,+16.750,+10.438,-4, 2, 0, -1, -1, -1, -2, -4
1503683295809,+0.781,+0.562,-0.107,-0.249,+1.021,-0.173,-0.282,+3.750,+12.500,+3.938,1, -2, -4, -2, -3, -3, -1, -1
1503683295831,+0.781,+0.563,-0.106,-0.249,+0.991,-0.135,-0.297,+3.000,-0.375,-0.625,0, 3, -1, 0, -2, -1, -2, -1
