Timestamp,Orientation X,Orientation Y,Orientation Z,Orientation W,Accelerometer X,Accelerometer Y,Accelerometer Z,Gyroscope X,Gyroscope Y,Gyroscope Z,EMG1,EMG2,EMG3,EMG4,EMG5,EMG6,EMG7,EMG8,Roll,Yaw,Window
1503683080397,+0.771,+0.567,-0.136,-0.257,+1.058,-0.123,-0.240,+30.562,-16.812,-20.375,-7, 6, -2, -2, -3, -3, -7, -4,-2.55697266125193,1.2440113744354502,0
1503683080411,+0.773,+0.566,-0.133,-0.252,+0.957,-0.112,-0.276,+29.562,-14.062,-18.312,-1, -20, -7, -4, -1, -2, -2, 9,-2.56783145379845,1.239629883514838,0
1503683080433,+0.776,+0.565,-0.129,-0.248,+0.953,-0.137,-0.261,+29.562,-16.812,-17.625,5, 16, 5, -1, -2, -2, -2, -3,-2.579660140007717,1.2351012772654317,0
1503683080455,+0.779,+0.566,-0.127,-0.241,+0.929,-0.102,-0.263,+34.688,-3.562,-30.938,-8, -9, -6, -2, 0, 0, 1, 8,-2.5955077384101837,1.236991185418095,0
1503683080472,+0.780,+0.567,-0.126,-0.232,+0.921,-0.094,-0.249,+35.500,+4.375,-38.188,32, 16, 1, 1, 1, -4, -4, -3,-2.610687940401689,1.2386391443943432,0
1503683080493,+0.781,+0.570,-0.126,-0.223,+0.902,-0.093,-0.196,+27.875,+13.750,-43.938,-25, -9, 0, -1, 0, 0, 1, 1,-2.6268067844944274,1.2462567220579734,0
1503683080515,+0.781,+0.571,-0.128,-0.216,+0.915,-0.050,-0.229,+14.812,+10.125,-39.812,2, -1, 0, -1, 0, 0, 1, -3,-2.6352644681099213,1.2495995074560675,0
1503683080531,+0.781,+0.573,-0.130,-0.210,+0.938,+0.038,-0.253,+15.125,+19.625,-26.875,-5, -2, 0, 1, 0, -1, -2, -12,-2.6432439818614566,1.2556945684904972,0
1503683080553,+0.780,+0.577,-0.131,-0.203,+0.939,+0.089,-0.369,+25.375,+31.875,-22.875,-3, 0, 1, -2, -2, -2, -10, -4,-2.654194042973216,1.2660854093927127,0
1503683080575,+0.779,+0.581,-0.132,-0.197,+0.894,+0.071,-0.283,+20.062,+35.312,-23.562,7, -1, -1, -1, -1, -1, 2, 6,-2.663729216867918,1.2765927868796954,0
1503683080591,+0.775,+0.586,-0.135,-0.192,+0.871,+0.068,-0.208,+8.938,+45.250,-16.500,9, 0, -2, 0, 0, 0, 3, 7,-2.6673724031464827,1.2901561662745171,0
1503683080613,+0.769,+0.595,-0.138,-0.189,+0.927,+0.117,-0.213,+3.438,+65.438,-2.250,-7, 2, -2, 0, -1, 1, 4, 1,-2.669435319518785,1.3141338658014805,0
1503683080638,+0.763,+0.604,-0.140,-0.185,+1.049,+0.161,-0.188,+7.438,+67.625,+4.000,-9, 0, 5, 20, 16, 3, 1, 3,-2.6739751989186504,1.3376546433748702,0
1503683080651,+0.759,+0.609,-0.140,-0.182,+1.125,+0.094,-0.202,+14.938,+42.125,-1.688,-11, 0, -1, -9, -11, -4, -13, -8,-2.678093614113957,1.3499034201501325,0
1503683080674,+0.758,+0.612,-0.141,-0.179,+1.134,+0.050,-0.093,+8.875,+9.000,-6.688,36, 9, 2, -2, -2, -2, -5, -2,-2.682551373430105,1.3582172204821827,0
1503683080699,+0.759,+0.610,-0.141,-0.178,+1.046,+0.110,-0.123,+1.000,-12.812,-2.625,-48, 3, 5, -5, -6, -4, 1, -7,-2.6832757668912484,1.3529963648044776,0
1503683080711,+0.760,+0.609,-0.142,-0.176,+0.930,+0.130,-0.165,+3.125,-8.688,-0.562,17, -10, -7, -3, -10, 0, 4, 4,-2.685110156485177,1.351057378260994,0
1503683080737,+0.760,+0.610,-0.142,-0.174,+0.890,+0.095,-0.176,+7.125,+9.062,-1.812,2, -5, -5, -21, -9, 0, 0, 0,-2.688657706865234,1.3536440023056664,0
1503683080755,+0.759,+0.612,-0.142,-0.172,+0.928,+0.017,-0.181,+8.000,+19.625,-10.062,-23, -15, -5, -9, -9, -1, 1, -6,-2.691997013068164,1.3586846895823945,0
1503683080771,+0.757,+0.615,-0.144,-0.169,+0.970,+0.048,-0.185,+1.688,+25.750,-10.375,-23, -5, -5, 3, 8, -1, -1, -3,-2.6942861546508095,1.3674004327622649,0
1503683080793,+0.753,+0.619,-0.145,-0.167,+1.037,+0.110,-0.198,+3.250,+38.062,-0.312,0, -3, 1, 5, 14, -1, -1, -2,-2.6951123937524524,1.3778177492869423,0
1503683080815,+0.752,+0.622,-0.144,-0.165,+1.086,+0.053,-0.205,+12.250,+21.688,+0.938,6, 3, 3, 0, -7, 1, 1, 2,-2.700376422467529,1.3850101124133005,0
1503683080832,+0.753,+0.621,-0.143,-0.164,+1.106,-0.044,-0.143,+10.812,-9.375,-3.812,-5, -13, -3, 0, 15, -1, -1, 1,-2.703047256052404,1.3818403534029144,0
1503683080853,+0.756,+0.618,-0.141,-0.164,+1.062,-0.049,-0.102,+6.875,-28.062,-4.375,6, 8, -4, 0, -12, -2, -3, -2,-2.7058580321339916,1.373148595748469,0
1503683080875,+0.759,+0.615,-0.140,-0.164,+0.959,-0.003,-0.082,+0.500,-32.938,-2.688,-5, -16, 1, 2, 5, -2, -3, 0,-2.707559646551766,1.3651176054140652,0
1503683080891,+0.761,+0.612,-0.139,-0.164,+0.892,+0.051,-0.213,+2.375,-16.062,+1.125,-3, -5, -1, 6, 2, -1, 4, 1,-2.7082981786478886,1.3568660947992766,0
1503683080913,+0.762,+0.611,-0.138,-0.164,+0.882,+0.035,-0.221,+4.812,-6.125,+4.688,-6, -3, -1, -3, -1, -6, -4, 9,-2.7096140924647467,1.3538007731569492,0
1503683080936,+0.763,+0.611,-0.137,-0.164,+0.958,+0.016,-0.153,+0.562,-2.938,+0.625,-14, -7, -1, 1, 2, 1, -1, -3,-2.7116983916189894,1.3534564453776823,0
1503683080951,+0.763,+0.611,-0.137,-0.164,+1.009,+0.058,-0.142,+1.375,-1.812,+2.875,4, -3, -4, -3, -4, -1, 0, -3,-2.7116983916189894,1.3534564453776823,0
1503683080973,+0.763,+0.610,-0.136,-0.164,+1.011,+0.076,-0.194,+1.875,-6.562,+6.625,-13, 3, -2, -2, -1, 1, -3, -7,-2.7120389183761753,1.3501379789476935,0
1503683080995,+0.765,+0.608,-0.135,-0.166,+1.007,+0.030,-0.174,-3.375,-16.125,+11.688,-15, -6, -3, 2, 0, -3, -2, -4,-2.710778631783739,1.344768654498799,0
1503683081011,+0.766,+0.606,-0.134,-0.169,+1.014,-0.005,-0.177,-7.000,-19.500,+15.562,11, 4, 0, 1, -4, 1, 1, -2,-2.7071471585560123,1.33920563365489,0
1503683081034,+0.768,+0.603,-0.132,-0.172,+0.989,-0.001,-0.194,-4.562,-23.938,+19.312,11, -1, 0, -4, -2, 0, 1, 1,-2.704802636746246,1.330637723721052,0
1503683081055,+0.770,+0.599,-0.129,-0.175,+0.980,+0.001,-0.229,-2.188,-28.625,+15.312,8, 0, -2, -1, -1, -2, 1, 4,-2.702736834840455,1.318813625326879,0
1503683081072,+0.772,+0.596,-0.127,-0.178,+0.978,-0.018,-0.207,-6.688,-26.688,+17.188,-1, -7, -6, -1, 1, 2, 1, -2,-2.7003382714683415,1.310328937928602,0
1503683087858,+0.712,+0.678,-0.079,-0.163,+0.961,-0.089,+0.033,+41.375,+36.375,-19.938,9, 3, -3, -6, 2, 3, 1, -2,-2.7929445123890737,1.502151112016229,1
1503683087882,+0.710,+0.682,-0.080,-0.156,+0.958,-0.022,+0.018,+30.500,+29.375,-22.312,18, -7, -2, -1, -15, -3, -3, 1,-2.802846827878954,1.5135286333469347,1
1503683087902,+0.707,+0.687,-0.081,-0.149,+0.977,+0.028,+0.014,+24.812,+33.062,-23.875,-23, -3, -1, 20, -5, -2, -2, 0,-2.81276806803385,1.5276913663572798,1
1503683087918,+0.705,+0.690,-0.082,-0.141,+0.990,+0.039,-0.020,+29.188,+26.875,-22.500,60, 5, 2, -5, -7, 1, 1, 5,-2.823123876970658,1.5363208632069658,1
1503683087940,+0.704,+0.692,-0.082,-0.134,+0.976,+0.001,+0.050,+26.125,+15.875,-23.938,13, 1, -2, -4, 8, 0, -2, 1,-2.833331106481013,1.5418736978570398,1
1503683087962,+0.704,+0.694,-0.083,-0.128,+0.958,+0.053,+0.063,+22.438,+8.250,-22.312,-33, 2, -2, -9, -7, -3, -4, -1,-2.8414345946083936,1.5478135953423497,1
1503683087978,+0.703,+0.695,-0.084,-0.121,+0.880,+0.070,-0.052,+26.125,+18.438,-21.875,8, -1, -4, 6, -4, -2, -2, 2,-2.8496115129061637,1.550911189021203,1
1503683088000,+0.702,+0.698,-0.084,-0.115,+0.899,+0.027,-0.022,+25.812,+20.188,-19.750,15, 0, 1, -1, 6, 0, 4, 6,-2.859028404275295,1.5593089284374309,1
1503683088022,+0.701,+0.700,-0.084,-0.109,+0.970,+0.008,+0.024,+21.062,+19.562,-19.375,4, -3, -2, 1, 8, 2, -7, 1,-2.867781423260949,1.5649066986625828,1
1503683088037,+0.700,+0.702,-0.084,-0.104,+1.042,-0.002,+0.086,+16.750,+12.500,-16.750,-5, -2, -1, 0, 4, -2, -4, -1,-2.875159045883321,1.570516402941498,1
1503683088060,+0.700,+0.702,-0.085,-0.101,+1.012,-0.003,+0.044,+12.875,+1.875,-15.062,-16, -2, 2, 5, 7, 1, 1, 4,-2.8778558772303766,1.5708543285348837,1
1503683088084,+0.701,+0.701,-0.086,-0.097,+1.004,+0.010,+0.050,+8.875,-4.250,-17.000,-18, -4, -3, 6, 22, -2, -2, -4,-2.8818881151856766,1.5683890941247107,1
1503683088097,+0.703,+0.700,-0.086,-0.094,+1.059,+0.007,+0.058,+15.000,-17.500,-16.562,45, 13, -2, -16, -20, -1, -7, -3,-2.886474830631634,1.5655902896671445,1
1503683088120,+0.708,+0.695,-0.085,-0.090,+1.073,-0.039,+0.021,+17.375,-37.500,-17.750,-6, -11, -8, -4, -2, -2, 5, 15,-2.8932687777391695,1.5512874855965249,1
1503683088142,+0.714,+0.690,-0.084,-0.086,+1.056,-0.033,+0.077,+15.250,-45.688,-23.062,7, -1, 0, 5, -17, -2, 2, -2,-2.900705200183379,1.5371132535193086,1
1503683088157,+0.718,+0.686,-0.084,-0.083,+0.979,-0.020,+0.050,+14.938,-39.562,-17.375,-14, -8, -4, -7, -3, -1, 1, 1,-2.904979715039967,1.5260871910403715,1
1503683088180,+0.721,+0.683,-0.083,-0.081,+0.972,-0.039,+0.032,+7.438,-21.500,-9.500,-19, -5, 5, 3, 2, 3, 2, -8,-2.9092176105498093,1.5175138481316224,1
1503683088202,+0.723,+0.682,-0.083,-0.080,+1.055,-0.001,+0.041,+4.688,-18.812,-6.062,41, 1, 1, 3, 1, -2, 1, 3,-2.9111681741751805,1.5148500796557713,1
1503683088218,+0.724,+0.680,-0.082,-0.080,+1.104,+0.007,+0.074,+0.875,-22.375,-0.312,-10, 3, -1, -11, -3, -1, 2, 14,-2.912076955709915,1.5089845336604557,1
1503683088240,+0.726,+0.677,-0.082,-0.081,+1.070,+0.019,+0.021,-0.875,-21.188,+2.562,8, 2, -1, 3, 4, 0, -1, 0,-2.9102930111392644,1.500756666567726,1
1503683088262,+0.730,+0.674,-0.081,-0.082,+1.060,+0.032,-0.027,-2.312,-29.375,+3.438,-34, 3, 4, 5, 2, 3, -4, -40,-2.910843641483323,1.492421037576073,1
1503683088277,+0.733,+0.670,-0.081,-0.083,+1.041,+0.033,-0.040,-2.875,-33.500,+5.500,2, 1, 3, -4, -7, -2, 1, 8,-2.9091156147612818,1.4815681405987602,1
1503683088300,+0.736,+0.667,-0.080,-0.084,+1.006,+0.003,+0.010,-4.562,-29.250,+1.938,-19, -3, -2, -4, -6, 0, 1, -4,-2.9091521153932085,1.4732215886740483,1
1503683088323,+0.738,+0.664,-0.080,-0.084,+0.999,-0.014,-0.004,-1.562,-24.125,-0.562,5, -2, 0, 19, 14, 0, 7, 5,-2.9088101200362964,1.4650945505787725,1
1503683088337,+0.741,+0.661,-0.080,-0.084,+0.979,+0.003,-0.092,+0.062,-21.562,-3.375,0, -2, -2, 1, 17, 1, -11, -11,-2.9090001296905474,1.457136043959117,1
1503683088361,+0.744,+0.657,-0.081,-0.084,+0.956,+0.033,-0.037,-6.562,-29.938,-8.250,54, 20, -1, -6, -11, -4, 1, 33,-2.9074735248586507,1.4467621916237265,1
1503683088382,+0.746,+0.655,-0.083,-0.084,+0.962,+0.074,-0.050,-12.938,-19.312,-2.625,-15, -3, 2, -4, -3, -1, 1, 7,-2.9050758413454765,1.4422004999888116,1
1503683088405,+0.747,+0.653,-0.085,-0.086,+0.954,+0.094,-0.076,-15.438,-10.250,+5.938,3, -3, 0, -3, -8, -3, -4, -8,-2.899253213388567,1.437545254036398,1
1503683088420,+0.748,+0.652,-0.086,-0.088,+1.001,+0.117,-0.121,-14.125,-10.875,+10.125,5, -5, -5, -3, -2, 0, 2, -4,-2.8951695612602415,1.4353399750385445,1
1503683088442,+0.750,+0.650,-0.087,-0.091,+0.993,+0.088,-0.092,-16.688,-14.688,+10.875,20, 7, 5, 17, 14, -4, -1, -3,-2.8897369194921185,1.4305669501675844,1
1503683088458,+0.751,+0.648,-0.088,-0.094,+0.943,+0.027,-0.119,-14.188,-10.438,+12.438,7, -4, -1, -6, -3, 0, 2, 10,-2.8837383397283745,1.4256353089705398,1
1503683088480,+0.751,+0.647,-0.087,-0.098,+0.974,+0.018,-0.129,-12.875,-1.875,+16.500,-7, -2, -4, -2, -1, -4, -6, -11,-2.878687688855655,1.422581853858645,1
1503683088502,+0.750,+0.647,-0.087,-0.102,+1.044,+0.065,-0.120,-15.875,+0.000,+21.438,-27, -3, 0, -4, -4, 1, -8, 14,-2.8722913565747996,1.4224934764757498,1
1503683088517,+0.751,+0.646,-0.087,-0.106,+1.015,+0.045,-0.111,-14.500,-6.688,+23.062,12, -11, -7, 3, -1, 4, 2, 8,-2.866582887366355,1.4200081751989826,1
1503683088540,+0.752,+0.644,-0.085,-0.110,+1.010,-0.022,-0.090,-11.562,-18.688,+20.562,-29, -11, -4, -10, -9, -3, -1, -8,-2.8628145257216726,1.4140043994065612,1
1503683088562,+0.754,+0.641,-0.084,-0.114,+1.006,-0.014,-0.087,-11.500,-26.812,+18.438,43, 4, 4, 6, 9, 0, -3, -4,-2.8578449232714918,1.405816103512597,1
1503683088577,+0.756,+0.638,-0.083,-0.117,+0.986,-0.021,-0.086,-9.500,-25.438,+17.312,-20, 0, 2, -10, -15, -1, -1, -16,-2.854297049124416,1.3976291950358475,1
1503683088600,+0.758,+0.636,-0.082,-0.120,+0.931,-0.058,-0.100,-12.312,-22.250,+13.062,3, 1, -5, -7, -12, -5, -1, -3,-2.851296792364271,1.3922447232144672,1
1503683088622,+0.759,+0.634,-0.082,-0.123,+0.960,-0.049,-0.101,-12.062,-12.312,+11.125,9, -16, -6, -3, -5, 2, 8, 1,-2.8464285335879644,1.3870164857861205,1
1503683088637,+0.759,+0.634,-0.082,-0.126,+0.993,-0.085,-0.082,-11.250,-5.688,+9.438,-25, -13, -8, -4, -7, -2, 3, -23,-2.842074173259743,1.3871064065207346,1
1503683100706,+0.698,+0.687,-0.098,-0.175,+0.946,+0.089,-0.026,+19.750,+27.062,-21.062,6, 15, -3, 0, -2, -2, -1, -1,-2.750232128398747,1.5337126901532983,2
1503683100727,+0.696,+0.690,-0.100,-0.169,+0.945,+0.101,+0.027,+16.062,+23.000,-22.438,-12, -4, 3, 1, 0, -1, -3, -1,-2.756568827010619,1.542843678539106,2
1503683100749,+0.695,+0.693,-0.104,-0.163,+0.974,+0.125,+0.070,+12.062,+21.625,-20.562,16, 1, -1, 0, -1, 1, 2, 3,-2.7609980767786526,1.5528776010878764,2
1503683100765,+0.694,+0.694,-0.107,-0.156,+0.960,+0.141,-0.004,+13.188,+16.375,-20.812,-7, -4, -4, -2, 0, -1, -3, -3,-2.7662827610719694,1.5569208146562463,2
1503683100787,+0.694,+0.695,-0.109,-0.151,+0.929,+0.096,+0.032,+13.062,+11.875,-21.750,19, 7, 5, -6, -20, -2, -2, 0,-2.770986478380168,1.5605839465905453,2
1503683100809,+0.694,+0.697,-0.111,-0.145,+0.896,+0.090,+0.014,+16.438,+14.625,-24.125,-20, -6, 1, 9, 8, 1, -3, -2,-2.77775808797332,1.5670549449688727,2
1503683100825,+0.692,+0.699,-0.114,-0.139,+0.930,+0.053,+0.043,+14.312,+23.000,-23.125,4, 5, -5, -4, -7, -3, -4, -8,-2.78174473236962,1.5739931674961243,2
1503683100848,+0.689,+0.703,-0.116,-0.134,+1.031,+0.042,+0.062,+9.625,+32.375,-19.062,-1, 20, 12, 3, 2, 1, 2, 4,-2.7865190810962823,1.586127854653168,2
1503683100869,+0.687,+0.706,-0.118,-0.129,+1.071,+0.042,+0.076,+11.875,+24.875,-19.188,-1, -4, -9, -28, -32, -2, 1, -2,-2.791180452873923,1.5954992432382704,2
1503683100886,+0.686,+0.707,-0.118,-0.125,+1.081,-0.003,+0.079,+14.125,+10.625,-16.812,-18, -5, 0, 9, 11, 1, 2, 6,-2.7963837382215035,1.5983490220543115,2
1503683100909,+0.686,+0.708,-0.119,-0.122,+1.022,-0.048,+0.116,+11.625,+6.438,-18.438,14, -2, -6, -22, 3, -4, -3, 0,-2.799654431325943,1.601623852609609,2
1503683100929,+0.685,+0.709,-0.120,-0.117,+1.036,+0.002,+0.106,+11.438,+12.438,-18.938,14, -6, 0, 2, 6, 1, -1, -2,-2.8048085342189335,1.6049651905498274,2
1503683100945,+0.683,+0.711,-0.120,-0.115,+1.120,+0.014,+0.085,+8.438,+14.438,-7.812,-12, -9, -2, 2, 14, 2, 2, 0,-2.80744634069035,1.6106640205003602,2
1503683100967,+0.683,+0.711,-0.120,-0.113,+1.121,-0.007,+0.090,+8.875,+1.625,-5.938,-7, -7, -2, 9, 4, 0, -3, -3,-2.810031381036409,1.6106831683783218,2
1503683100989,+0.684,+0.711,-0.119,-0.111,+1.062,-0.046,+0.052,+8.375,-2.938,-10.062,6, -8, 0, 23, 14, -3, -3, -13,-2.814640534630639,1.6101767572089243,2
1503683101007,+0.685,+0.710,-0.117,-0.110,+0.981,-0.066,+0.051,+13.000,-3.375,-6.312,-1, -3, 0, -2, -2, 2, 8, 3,-2.8186161709365174,1.6064148447251572,2
1503683101027,+0.685,+0.711,-0.117,-0.109,+1.034,-0.121,+0.093,+2.000,+4.875,-10.250,-79, -4, 1, 3, -7, 6, -6, -9,-2.820594268649745,1.609213712604343,2
1503683101049,+0.684,+0.712,-0.119,-0.109,+1.081,-0.079,+0.200,-5.312,+1.688,-10.625,-10, -11, -1, -5, -6, 1, 2, -1,-2.8179149494450204,1.6129830550050315,2
1503683101065,+0.684,+0.711,-0.120,-0.109,+1.099,-0.025,+0.130,-4.438,-8.250,-8.062,18, 5, 1, 0, 0, -3, -2, 7,-2.8158858082489213,1.6106647382141785,2
1503683101087,+0.688,+0.707,-0.121,-0.109,+1.051,+0.003,+0.185,-8.250,-37.562,-13.438,48, 5, 0, 3, 1, -2, 0, 8,-2.8145109022877133,1.5997911110812821,2
1503683101109,+0.692,+0.702,-0.125,-0.110,+0.973,+0.014,+0.135,-21.688,-43.625,-15.188,41, 9, -4, -4, -5, -5, -2, 0,-2.8072122505465007,1.5876684519373794,2
1503683101125,+0.695,+0.698,-0.128,-0.112,+0.902,+0.071,+0.131,-21.312,-31.562,-8.688,11, 4, 2, 0, 0, -3, -9, -4,-2.7999932735351654,1.5779801630398835,2
1503683101148,+0.699,+0.694,-0.130,-0.113,+0.977,+0.104,-0.010,-12.875,-28.438,-3.312,-33, -8, -3, -10, -9, 4, 3, 1,-2.7961845262233753,1.5678671400609256,2
1503683101170,+0.705,+0.688,-0.132,-0.113,+1.021,+0.146,-0.008,-8.750,-45.125,-9.125,-22, 0, -2, -3, -11, -5, 1, -4,-2.7938778343732515,1.5523328001892762,2
1503683101186,+0.710,+0.682,-0.133,-0.113,+0.936,+0.151,+0.062,-8.250,-50.625,-3.562,8, 8, 1, 0, 3, -3, -1, -4,-2.792239977015542,1.5363842093586735,2
1503683101210,+0.716,+0.676,-0.134,-0.115,+0.800,+0.135,+0.016,-12.938,-47.500,+3.625,15, 4, -2, 0, 3, -4, -3, 0,-2.7887866052707517,1.5206447935106784,2
1503683101229,+0.717,+0.673,-0.137,-0.117,+0.776,+0.201,-0.068,-17.188,-9.438,+7.688,-33, -12, 1, 10, 13, 1, 6, -2,-2.7810243173932165,1.514090832391717,2
1503683101246,+0.716,+0.674,-0.137,-0.118,+0.886,+0.206,-0.062,-7.500,+11.938,+16.125,6, 0, -1, 5, 15, 7, -4, 2,-2.779584251151623,1.516803741646461,2
1503683101267,+0.714,+0.676,-0.136,-0.120,+1.030,+0.137,-0.011,-4.000,+10.062,+20.062,10, -2, -3, 0, -3, 1, 0, 7,-2.7779914879477925,1.5216799765411224,2
1503683101289,+0.716,+0.675,-0.134,-0.121,+1.080,+0.110,-0.011,+1.250,-10.938,+18.625,3, 7, 5, -4, 2, -6, -4, 0,-2.7800528534281472,1.5179561513476603,2
1503683101312,+0.718,+0.672,-0.131,-0.123,+1.016,+0.047,-0.042,+4.438,-23.625,+18.375,18, 11, 0, -5, -8, -1, -1, 2,-2.7806081526753146,1.5081938484049915,2
1503683101328,+0.721,+0.669,-0.128,-0.125,+0.922,+0.005,-0.038,+1.625,-26.750,+13.312,-76, -10, -11, -6, -4, -4, -4, -13,-2.781919601815424,1.498573269221112,2
1503683101349,+0.722,+0.668,-0.125,-0.128,+0.927,-0.041,-0.033,+1.188,-9.188,+19.750,15, -1, -3, -6, -8, -3, 1, 2,-2.7816963484573702,1.494382477308168,2
1503683101373,+0.721,+0.669,-0.122,-0.131,+1.020,-0.045,-0.004,+0.250,-0.438,+23.812,34, 3, 4, 9, 5, 2, -1, 10,-2.7813349042735904,1.4955769542989192,2
1503683101387,+0.721,+0.669,-0.119,-0.134,+1.096,-0.015,+0.042,-1.688,-11.812,+21.312,7, -4, 4, 20, 48, 14, 5, 4,-2.7810426520322347,1.4941289456828646,2
1503683101409,+0.724,+0.666,-0.116,-0.136,+1.118,-0.005,-0.023,+6.438,-25.562,+16.812,-35, -11, -5, -12, -21, -6, -6, -2,-2.7822213766005537,1.4846816092424377,2
1503683101432,+0.729,+0.661,-0.113,-0.137,+1.048,-0.046,-0.040,+5.812,-45.875,+6.812,-4, -11, 2, 3, -3, 0, 5, 2,-2.784825917325684,1.4699831251489737,2
1503683101447,+0.733,+0.657,-0.110,-0.140,+1.008,-0.102,-0.024,+1.375,-43.688,+13.250,-8, -6, -3, -4, 3, 4, 4, -6,-2.7846212533435972,1.458090568827301,2
1503683111714,+0.773,+0.548,-0.151,-0.282,+1.045,-0.091,-0.242,+3.188,+29.188,-5.375,13, -5, -3, -1, -2, -2, 0, 9,-2.494306974405787,1.2081286514127951,3
1503683111737,+0.770,+0.552,-0.152,-0.281,+1.012,-0.069,-0.260,-2.250,+24.875,-2.688,-5, -1, 1, -1, -2, -1, 0, -4,-2.4947663027011067,1.2180651379501166,3
1503683111763,+0.769,+0.554,-0.154,-0.280,+0.939,-0.056,-0.247,-1.750,+16.812,-3.812,-2, 4, -1, -2, -3, -2, -3, -4,-2.495000191702855,1.2243438903395194,3
1503683111775,+0.768,+0.556,-0.155,-0.278,+0.939,-0.081,-0.279,+1.438,+15.938,-9.750,-2, -2, 1, 1, 0, -2, -5, -1,-2.497347624956444,1.2297606336075733,3
1503683111798,+0.766,+0.559,-0.157,-0.276,+0.993,-0.087,-0.248,-1.125,+18.312,-11.125,-5, -4, -4, -2, 0, 1, 1, -1,-2.498490424704478,1.23821604482106,3
1503683111819,+0.763,+0.562,-0.159,-0.275,+1.021,-0.062,-0.269,-3.062,+26.688,-2.062,5, -2, -5, -4, -1, -1, -1, 4,-2.49700984578142,1.2464488336741193,3
1503683111835,+0.762,+0.565,-0.160,-0.275,+0.954,-0.085,-0.285,-4.375,+19.812,-1.812,-17, -7, -3, -1, -1, 0, 0, -5,-2.4980143239779298,1.2547495360025962,3
1503683111857,+0.761,+0.565,-0.161,-0.274,+0.922,-0.077,-0.261,-5.375,+6.188,-8.625,10, -2, -5, 0, -2, -1, -1, -1,-2.496936566682,1.2550802272777288,3
1503683111879,+0.761,+0.566,-0.163,-0.274,+0.944,-0.045,-0.237,-6.938,+8.250,-3.938,1, 5, 0, -1, 0, 0, -2, -2,-2.496228913842505,1.2592800913866586,3
1503683111896,+0.759,+0.568,-0.164,-0.273,+1.017,-0.033,-0.284,-2.000,+15.688,+2.188,-2, 0, 0, -1, -1, -3, -2, -2,-2.4959596491538925,1.2645337325002581,3
1503683111917,+0.758,+0.568,-0.165,-0.273,+0.993,-0.046,-0.260,-2.250,+7.312,-2.812,0, -3, -5, 0, -2, 0, 2, -2,-2.4936542920790754,1.2649843763428144,3
1503683111933,+0.759,+0.568,-0.165,-0.273,+0.967,-0.058,-0.237,-0.812,-6.625,-2.188,-12, 0, 6, 0, -1, -3, -1, -4,-2.4950514368658046,1.2653268889665958,3
1503683111962,+0.760,+0.567,-0.164,-0.272,+0.951,-0.060,-0.263,+0.250,-4.688,-4.438,5, 0, -2, -4, -2, -1, 0, 0,-2.4974644110207103,1.2621504670544708,3
1503683111977,+0.760,+0.567,-0.165,-0.271,+0.930,-0.042,-0.268,+0.875,+0.438,-7.188,-27, -2, 2, -1, -2, -3, -6, -13,-2.497773696523854,1.2628436067619957,3
1503683111992,+0.759,+0.568,-0.166,-0.271,+0.989,-0.111,-0.237,-3.125,+10.625,-4.000,2, -7, -5, -1, -2, -1, 0, -1,-2.496571153752521,1.2659238119518528,3
1503683112015,+0.757,+0.570,-0.167,-0.271,+0.987,-0.085,-0.286,-8.250,+19.312,-1.875,25, 12, -2, -2, -1, 0, 2, 6,-2.4950824962175235,1.2713020451718835,3
1503683112038,+0.756,+0.571,-0.170,-0.270,+0.977,-0.024,-0.196,-9.938,+10.812,-8.625,-21, -18, -8, -3, -3, 0, -3, -6,-2.4932681706317714,1.2759117553083075,3
1503683112059,+0.756,+0.572,-0.171,-0.269,+1.100,-0.049,-0.197,-4.500,+1.188,-7.562,18, 9, 2, 1, -1, -3, -1, -1,-2.4946717804132628,1.2792519010741268,3
1503683112075,+0.758,+0.569,-0.172,-0.269,+1.116,-0.088,-0.243,-5.062,-20.812,-8.625,17, 10, 2, -1, -1, 1, 1, 1,-2.4932468890496655,1.272851476590949,3
1503683112097,+0.763,+0.563,-0.172,-0.269,+1.032,-0.068,-0.209,-8.438,-52.062,-15.688,-23, -7, -1, -5, -12, -1, 0, 1,-2.4937292600023464,1.2588471104367953,3
1503683112119,+0.767,+0.557,-0.173,-0.269,+0.882,-0.029,-0.194,-13.562,-40.750,-17.938,-14, 1, 1, 4, -1, 0, 0, -3,-2.4920481462962387,1.2454343554795004,3
1503683112135,+0.768,+0.554,-0.176,-0.269,+0.833,+0.019,-0.218,-15.812,-11.938,-12.000,-7, -12, -4, 3, 3, 0, 2, 2,-2.4876231782114853,1.240499620829785,3
1503683112157,+0.769,+0.553,-0.177,-0.269,+0.991,+0.033,-0.175,-5.312,-16.312,-3.250,-30, -8, -10, -3, 0, 0, 3, 1,-2.487121536913897,1.2391085223654854,3
1503683112179,+0.772,+0.548,-0.177,-0.268,+1.172,+0.008,-0.322,-2.125,-33.812,-7.938,-1, 5, 4, -4, 1, -1, 0, 2,-2.4873967825317203,1.2271426685368672,3
1503683112198,+0.778,+0.539,-0.177,-0.269,+1.021,+0.034,-0.393,-11.875,-57.000,-11.875,-11, -13, -7, -14, -17, -3, -1, -5,-2.4855485300206497,1.2063267751061792,3
1503683112217,+0.784,+0.530,-0.177,-0.270,+0.688,+0.052,-0.438,-10.625,-45.188,-12.375,2, 3, 7, 7, 12, -1, 0, 0,-2.4839683054354404,1.185745188299007,3
1503683112239,+0.786,+0.527,-0.177,-0.270,+0.693,+0.020,-0.258,-5.188,-23.000,-6.688,15, 18, 2, 0, -2, -4, -4, -7,-2.483916138580799,1.1788912463761638,3
1503683112255,+0.785,+0.528,-0.177,-0.269,+0.916,-0.003,-0.356,+2.750,+13.062,+1.188,-9, 7, 4, 5, 1, -2, -2, -1,-2.484676810255683,1.1809048137602314,3
1503683112277,+0.784,+0.530,-0.177,-0.269,+0.992,-0.015,-0.387,-1.250,+15.062,+3.750,-6, -1, -2, 3, 4, 1, 1, 2,-2.485211009330734,1.1856121570873224,3
1503683112299,+0.784,+0.530,-0.177,-0.271,+0.965,-0.028,-0.328,-6.875,-2.875,+5.062,-15, -3, -3, 24, 30, 1, 0, -4,-2.4827279823312325,1.1858781322346128,3
1503683112315,+0.785,+0.528,-0.177,-0.272,+0.931,-0.037,-0.294,-4.812,-13.750,+1.750,-35, -28, -8, -7, -10, -2, -4, -14,-2.4809490349914904,1.1813084043179798,3
1503683112337,+0.786,+0.527,-0.175,-0.273,+0.938,-0.009,-0.401,+0.375,-9.625,+3.750,-13, -4, -2, 0, -4, -2, -1, 2,-2.4818544688371547,1.177578982278057,3
1503683112359,+0.787,+0.525,-0.174,-0.273,+0.907,+0.021,-0.356,+1.750,-13.375,+5.875,21, -16, 0, -4, -5, 1, 1, 4,-2.482155034998733,1.1720346920664526,3
1503683112375,+0.788,+0.523,-0.173,-0.274,+0.921,+0.022,-0.328,+0.625,-15.000,+5.625,11, 28, 7, -1, -1, -1, 3, 4,-2.4812153325766286,1.1666359578054044,3
1503683112399,+0.788,+0.523,-0.172,-0.275,+0.969,+0.015,-0.320,-2.125,-7.562,+7.750,-17, -8, -5, -3, -5, -4, -4, -6,-2.4807964633708712,1.1659210905860078,3
1503683112419,+0.788,+0.523,-0.171,-0.277,+1.006,-0.017,-0.372,-2.812,-2.188,+12.688,23, 6, 6, 2, 1, 1, 6, 11,-2.479134743614819,1.1653433723093622,3
1503683120339,+0.798,+0.508,-0.173,-0.275,+0.874,-0.026,-0.406,+6.438,+26.562,+18.125,-6, -7, 1, -2, 0, 2, 3, 3,-2.480211193909527,1.1330346533800568,4
1503683120368,+0.793,+0.515,-0.172,-0.276,+0.960,+0.012,-0.398,+6.312,+48.188,+23.625,5, -1, 0, -1, -2, -2, -4, -3,-2.479055487638399,1.1478496430438982,4
1503683120391,+0.787,+0.523,-0.171,-0.277,+0.993,+0.050,-0.410,+12.438,+53.375,+28.812,1, -4, 1, 0, 1, 0, -1, 1,-2.4776307710483914,1.1649304225053982,4
1503683120399,+0.782,+0.532,-0.169,-0.277,+0.979,-0.035,-0.343,+16.500,+51.125,+24.250,-24, -2, -1, 0, -4, -2, -2, -5,-2.481100340933079,1.184195298805802,4
1503683120421,+0.777,+0.540,-0.167,-0.277,+0.986,-0.083,-0.351,+16.750,+51.750,+18.188,19, 9, -4, 1, -1, -2, -1, 3,-2.483818885909133,1.2011150475910233,4
1503683120443,+0.772,+0.548,-0.165,-0.276,+0.986,-0.071,-0.327,+17.938,+48.812,+16.625,-6, -11, -1, -1, -1, 0, -1, -1,-2.488032692549382,1.2181247126507135,4
1503683120459,+0.767,+0.556,-0.163,-0.275,+0.958,-0.044,-0.251,+18.562,+52.375,+16.938,2, -3, -3, 0, 0, -1, -3, -4,-2.492504195513954,1.2353544386109758,4
1503683120481,+0.760,+0.567,-0.162,-0.273,+0.962,-0.058,-0.209,+19.062,+66.312,+18.062,7, -3, -6, -1, 0, -2, -1, -2,-2.4980638823679473,1.2606728974346049,4
1503683120505,+0.754,+0.578,-0.161,-0.269,+1.046,-0.125,-0.178,+26.750,+65.625,+3.375,-27, -9, -3, -3, -1, -1, 1, -2,-2.5078044078496546,1.286518760349381,4
1503683120519,+0.748,+0.587,-0.159,-0.267,+1.089,-0.202,-0.192,+21.938,+57.000,+5.250,-8, -2, 0, -3, -4, -1, -2, -2,-2.5141286303732517,1.306819003472194,4
1503683120541,+0.743,+0.595,-0.157,-0.264,+1.032,-0.198,-0.182,+22.250,+48.688,+3.875,5, -4, -3, 3, 1, 0, 0, -1,-2.52213587610616,1.3249560554222035,4
1503683120563,+0.739,+0.601,-0.154,-0.262,+0.954,-0.194,-0.197,+22.375,+40.438,-1.000,10, 5, 3, 0, 1, 1, 1, 2,-2.5291442962848847,1.3375826518823826,4
1503683120580,+0.736,+0.606,-0.154,-0.259,+0.978,-0.178,-0.180,+13.625,+32.500,-6.875,-10, -3, -1, -2, -2, -4, -1, 1,-2.5346587011136674,1.350030335153402,4
1503683120601,+0.733,+0.610,-0.154,-0.256,+1.012,-0.136,-0.160,+8.750,+32.625,-7.250,-1, 18, 4, 1, 1, 0, -1, 0,-2.539084632917806,1.3598554294285994,4
1503683120623,+0.731,+0.614,-0.155,-0.254,+0.960,-0.104,-0.149,+9.688,+26.688,-9.062,-7, -1, 1, 0, -1, -2, -1, -3,-2.5425544959996302,1.37076652003266,4
1503683120646,+0.730,+0.616,-0.156,-0.250,+0.932,-0.092,-0.171,+10.750,+20.125,-16.938,-3, -2, 0, -2, 0, 0, 0, -3,-2.547417110047304,1.3764090961645408,4
1503683120661,+0.729,+0.619,-0.157,-0.246,+0.870,-0.062,-0.164,+10.125,+25.750,-16.188,-1, -14, -4, 0, -2, 0, -2, 0,-2.5533969332395685,1.3847803166836994,4
1503683120683,+0.727,+0.622,-0.159,-0.243,+0.962,-0.059,-0.179,+4.688,+31.438,-10.312,-1, 2, -3, -3, -3, -1, 0, 1,-2.555898435427257,1.3937190574857865,4
1503683120699,+0.726,+0.625,-0.160,-0.241,+1.045,-0.011,-0.160,+6.125,+20.188,-9.188,-2, -3, -4, -2, -1, -2, 0, -5,-2.5594157168596205,1.402243698588337,4
1503683120721,+0.726,+0.626,-0.160,-0.237,+1.028,-0.051,-0.111,+11.750,+8.000,-13.750,-6, 10, 5, 1, 3, -1, -2, -2,-2.5653798773687937,1.4047427795294387,4
1503683120744,+0.726,+0.626,-0.161,-0.234,+0.964,-0.041,-0.113,+6.875,+3.875,-13.562,9, 11, 3, -2, -2, -1, -1, -1,-2.5679890423836955,1.405295766773347,4
1503683120759,+0.725,+0.628,-0.162,-0.232,+0.948,-0.007,-0.127,+5.188,+16.000,-11.250,-5, -7, -4, 1, 1, -2, 0, -2,-2.5703727493162747,1.4111312219094163,4
1503683120781,+0.723,+0.631,-0.164,-0.229,+0.998,-0.023,-0.065,+3.562,+25.750,-8.500,-7, 0, 2, 1, 0, 0, -1, -3,-2.572816655702801,1.4201684961051002,4
1503683120803,+0.720,+0.634,-0.166,-0.228,+1.056,-0.035,-0.019,-4.812,+17.125,-7.312,1, 6, 4, -1, -1, -2, -3, -4,-2.571644887433298,1.4291575717581144,4
1503683120819,+0.720,+0.634,-0.169,-0.226,+1.024,-0.021,-0.084,-5.125,+8.938,-13.875,-2, 0, -2, -2, -2, -2, 1, 1,-2.570866207556657,1.43124709576086,4
1503683120844,+0.722,+0.632,-0.172,-0.224,+1.001,-0.005,-0.141,-6.375,-7.375,-24.562,8, 4, 5, 0, 0, -2, -1, -2,-2.5702940982858085,1.4283017871310633,4
1503683120863,+0.724,+0.629,-0.174,-0.222,+0.997,-0.012,-0.083,-4.938,-17.062,-18.375,-3, 1, 2, 0, -2, 0, -1, -4,-2.5697637791592496,1.4219471602456228,4
1503683120880,+0.723,+0.629,-0.176,-0.223,+0.990,-0.063,-0.012,-16.188,-2.188,-4.750,-6, -9, -4, -1, -2, 1, -2, 0,-2.5652300353623585,1.423330572335048,4
1503683120901,+0.723,+0.629,-0.178,-0.224,+1.051,+0.041,-0.111,-14.312,-0.438,+2.438,-2, 7, 1, 1, 0, -1, 1, -3,-2.5619085025132913,1.4249147359126693,4
1503683120923,+0.726,+0.625,-0.178,-0.226,+1.062,+0.060,-0.166,-10.500,-23.938,+2.750,-5, -2, 1, -1, 0, 0, -4, 1,-2.5588146588457064,1.4147979644721778,4
1503683120940,+0.730,+0.620,-0.178,-0.227,+0.931,+0.055,-0.175,-6.375,-31.188,-1.875,-5, -8, -3, 0, 1, -1, -3, -5,-2.5571320852947523,1.4021992194185993,4
1503683120961,+0.733,+0.617,-0.179,-0.225,+0.887,+0.058,-0.142,+1.750,-22.188,-9.375,-25, -19, -3, -3, 0, 1, 1, -3,-2.55904916563135,1.3954313596246486,4
1503683120983,+0.733,+0.617,-0.177,-0.224,+0.951,+0.001,-0.087,+10.125,+1.125,+0.375,12, 3, -3, -1, -2, -1, 1, 2,-2.5623379165614097,1.3938094928686544,4
1503683121008,+0.732,+0.619,-0.176,-0.224,+0.972,-0.046,-0.047,+4.375,-0.125,+7.312,-1, 14, -2, -1, -1, -1, -1, 0,-2.564258728927411,1.3982010292406652,4
1503683121021,+0.733,+0.617,-0.176,-0.225,+1.004,+0.042,-0.145,-4.562,-9.250,+2.438,11, 0, -1, 0, 0, 1, -1, 1,-2.5621435747618575,1.3930972350219857,4
1503683129630,+0.779,+0.551,-0.166,-0.248,+0.879,+0.063,-0.391,+15.750,+52.812,+40.188,-1, -1, 0, 1, -1, 0, 1, 0,-2.5352153393238597,1.2261818949775307,5
1503683129645,+0.773,+0.561,-0.164,-0.249,+0.997,+0.086,-0.347,+16.312,+67.625,+39.625,0, -5, -1, 1, -1, -2, -2, -3,-2.537562842077742,1.2486285394357728,5
1503683129668,+0.766,+0.570,-0.158,-0.250,+1.082,+0.045,-0.308,+29.250,+57.562,+48.938,6, -2, -6, 0, -1, -1, 0, 2,-2.5417068751365095,1.2653332551130634,5
1503683129691,+0.762,+0.578,-0.151,-0.250,+1.128,-0.015,-0.288,+41.188,+35.000,+37.750,11, 3, -1, 0, -1, 1, -1, 1,-2.5514352976901074,1.279993507647908,5
1503683129705,+0.762,+0.582,-0.142,-0.246,+1.075,-0.042,-0.302,+55.250,+9.938,+22.188,7, -2, -1, 0, 0, 0, 0, -1,-2.5694081507778557,1.2839728200516665,5
1503683129728,+0.765,+0.581,-0.130,-0.244,+1.002,-0.139,-0.298,+62.062,-26.938,+23.312,-1, 1, 3, 0, 0, 0, -1, 0,-2.586489843883954,1.2741774794187348,5
1503683129752,+0.764,+0.586,-0.120,-0.242,+0.835,-0.172,-0.140,+57.500,+11.312,+23.000,1, 8, 1, -1, -1, 0, -1, 0,-2.602977993963142,1.2809167196858526,5
1503683129765,+0.762,+0.593,-0.111,-0.237,+0.863,-0.155,-0.177,+57.750,+28.875,+10.500,-5, -5, 0, 0, -1, 0, 1, -2,-2.6235066829890936,1.2936394388615187,5
1503683129788,+0.758,+0.601,-0.104,-0.230,+0.932,-0.183,-0.196,+61.875,+44.625,+2.062,-9, -1, 0, -2, -1, -2, 1, -1,-2.643743401455224,1.3099560098532355,5
1503683129810,+0.755,+0.609,-0.098,-0.223,+0.926,-0.231,-0.158,+58.750,+41.812,-8.250,-2, -1, -4, -1, -2, -2, -1, -2,-2.664261277527846,1.3275717211552456,5
1503683129826,+0.752,+0.616,-0.092,-0.216,+0.950,-0.201,-0.158,+52.125,+35.000,-8.938,-5, -6, -4, -2, -2, 0, 0, -1,-2.6840332055099867,1.3428295063942308,5
1503683129848,+0.749,+0.622,-0.087,-0.211,+0.979,-0.193,-0.115,+46.312,+29.625,-3.938,-27, -3, 2, 0, 0, -1, 0, -1,-2.699223997263514,1.356186485710802,5
1503683129870,+0.746,+0.628,-0.084,-0.206,+0.972,-0.189,-0.071,+37.250,+31.625,-6.562,4, 7, 2, -3, 0, 0, -4, -1,-2.712260245196829,1.3706280956935482,5
1503683129887,+0.742,+0.634,-0.082,-0.200,+0.951,-0.177,-0.072,+30.125,+37.250,-13.250,0, -7, 0, 1, -2, -1, -1, -4,-2.7247199207315074,1.3853695000049184,5
1503683129908,+0.739,+0.639,-0.081,-0.194,+0.964,-0.152,-0.096,+28.438,+32.688,-20.062,7, -1, -3, 0, 0, 1, -2, 1,-2.736024106229324,1.3980888633615203,5
1503683129931,+0.738,+0.643,-0.081,-0.188,+1.012,-0.128,-0.107,+26.625,+18.688,-21.250,7, 2, -2, 0, 0, -1, 0, -1,-2.7468853935939452,1.4089015051355094,5
1503683129945,+0.738,+0.644,-0.080,-0.183,+1.026,-0.130,-0.090,+23.438,+8.062,-18.812,-1, -4, -4, 0, -1, 0, -1, -1,-2.7558017764778966,1.4111897191615628,5
1503683129968,+0.737,+0.646,-0.080,-0.179,+1.015,-0.119,-0.062,+18.062,+9.688,-17.125,-7, -13, -4, -1, -2, -1, 1, 0,-2.762193170573715,1.4164852489694437,5
1503683129991,+0.738,+0.647,-0.080,-0.174,+1.017,-0.077,-0.098,+17.562,+5.250,-19.375,-7, -4, 0, 0, 0, -1, 1, -2,-2.7706675097570486,1.4193597057733132,5
1503683130005,+0.740,+0.647,-0.080,-0.168,+0.969,-0.054,-0.107,+20.000,-7.938,-24.312,1, 1, 0, -3, -2, -3, -2, 0,-2.780470365544513,1.4196063393358704,5
1503683130029,+0.742,+0.646,-0.080,-0.162,+0.945,-0.058,-0.132,+25.000,-6.625,-27.938,-3, 1, -1, 0, 2, 1, 1, 2,-2.789530045676584,1.4170621995069272,5
1503683130054,+0.743,+0.646,-0.080,-0.154,+0.956,-0.037,-0.113,+28.188,-0.250,-31.812,-3, 0, -1, -1, -1, -1, -4, -2,-2.8014595587400786,1.4170640437964532,5
1503683130066,+0.744,+0.647,-0.079,-0.148,+1.065,-0.055,-0.052,+27.375,-2.062,-24.938,-1, -4, 2, -1, -2, 0, -1, -3,-2.812533937276266,1.4195448462958975,5
1503683130089,+0.745,+0.648,-0.077,-0.143,+1.076,-0.052,-0.083,+24.688,+0.750,-12.312,14, 3, 0, 0, 0, -1, -1, 0,-2.823406425005665,1.421705644799304,5
1503683130110,+0.746,+0.647,-0.075,-0.139,+1.056,-0.077,-0.105,+23.562,-9.625,-9.375,1, 5, 3, 0, 2, 1, 0, 1,-2.8315479984596594,1.418332317271704,5
1503683130126,+0.749,+0.645,-0.072,-0.135,+1.059,-0.065,-0.118,+26.938,-21.188,-9.500,-14, -8, -3, -1, -3, -2, -3, -5,-2.841604963087032,1.4122617535494546,5
1503683130148,+0.753,+0.641,-0.068,-0.131,+1.050,-0.084,-0.131,+28.938,-30.562,-6.188,4, -4, -2, -1, 0, -1, 1, -1,-2.852318123835048,1.4005754791757439,5
1503683130171,+0.755,+0.640,-0.064,-0.129,+1.049,-0.099,-0.068,+25.625,-23.312,-1.875,3, 5, 2, -1, -2, 0, -1, -1,-2.860751782664526,1.3969600088151166,5
1503683130188,+0.757,+0.638,-0.060,-0.127,+1.069,-0.114,-0.077,+22.188,-21.312,+1.250,-15, -5, -2, 0, -1, -1, 0, 1,-2.8685975483159356,1.390630010765979,5
1503683130208,+0.758,+0.637,-0.056,-0.126,+1.020,-0.159,-0.074,+13.750,-15.375,+3.812,-3, -2, -4, -4, -1, 0, 1, 1,-2.8749916650192984,1.3869506470131174,5
1503683130230,+0.759,+0.637,-0.054,-0.126,+1.015,-0.141,-0.046,+9.188,-13.938,+6.938,5, 0, 2, -1, -1, -2, -1, -2,-2.8780113905009284,1.3866580769224381,5
1503683130245,+0.759,+0.637,-0.051,-0.127,+1.018,-0.107,-0.096,+7.312,-6.750,+8.438,9, -2, -4, -2, -2, -3, -2, 0,-2.880241224431218,1.3859166886853527,5
1503683130269,+0.760,+0.635,-0.050,-0.127,+1.022,-0.075,-0.091,+3.000,-15.312,+5.000,25, 5, -2, 0, -3, -2, -3, 1,-2.880893180182195,1.380322604782603,5
1503683130291,+0.763,+0.632,-0.049,-0.127,+1.031,-0.055,-0.103,-0.938,-27.438,+5.250,4, -2, -6, -1, -3, -1, -1, 2,-2.8820680377851846,1.3724418518053507,5
1503683130305,+0.766,+0.627,-0.048,-0.128,+0.987,-0.032,-0.116,-3.312,-40.125,+6.375,-14, 0, -1, -2, 2, -1, 2, -2,-2.880650480941593,1.359048836009253,5
1503683138638,+0.798,+0.538,-0.155,-0.225,+0.980,+0.016,-0.329,-1.688,-1.250,+17.000,5, -1, -2, -2, -1, 0, 1, 3,-2.588860329973881,1.188709806256849,6
1503683138654,+0.795,+0.541,-0.155,-0.226,+1.062,-0.007,-0.312,-2.000,+17.938,+11.375,-21, -3, 0, 0, -2, -1, 1, -1,-2.586244464106427,1.1954083707222374,6
1503683138676,+0.791,+0.547,-0.156,-0.226,+1.093,-0.015,-0.372,-0.875,+43.938,+9.875,6, -2, 1, 0, 0, -2, -1, -9,-2.585465147620491,1.2101905746152641,6
1503683138700,+0.782,+0.559,-0.155,-0.227,+1.109,-0.067,-0.345,+2.750,+85.312,+23.375,8, -5, -5, -2, 0, -3, -2, 2,-2.584426232752038,1.2375566068870247,6
1503683138714,+0.771,+0.574,-0.156,-0.227,+1.153,-0.168,-0.305,+5.188,+102.625,+27.688,4, 0, -2, -1, 1, 1, 0, 1,-2.583650297712324,1.2739772228803394,6
1503683138736,+0.761,+0.587,-0.154,-0.228,+1.124,-0.222,-0.310,+8.250,+92.625,+18.000,9, 4, -2, -1, -2, -1, -1, 1,-2.584522732579425,1.3039458742306107,6
1503683138757,+0.755,+0.596,-0.151,-0.229,+1.117,-0.250,-0.276,+10.812,+63.125,+17.375,6, -11, -3, -4, -1, -1, 0, 1,-2.587886243644546,1.3241804605423948,6
1503683138774,+0.744,+0.610,-0.143,-0.234,+0.957,-0.464,-0.199,+20.438,+84.375,+52.688,4, -4, 3, -1, -2, -3, 0, -1,-2.590967330676095,1.3537673757989703,6
1503683138799,+0.735,+0.621,-0.143,-0.232,+1.045,-0.199,-0.150,+10.562,+81.125,+2.500,-6, -10, 0, 3, 1, 1, -2, -2,-2.5946321237296552,1.3812925292361957,6
1503683138818,+0.728,+0.630,-0.141,-0.230,+1.053,-0.165,-0.173,+19.188,+69.812,+10.375,-1, 2, 0, -1, 0, 0, 0, -5,-2.6009327314488955,1.4029265398181747,6
1503683138834,+0.721,+0.639,-0.139,-0.227,+0.826,-0.166,-0.117,+24.000,+62.938,+3.062,-4, 2, -1, -1, -1, 0, 1, -1,-2.6087796028193804,1.4248535466763423,6
1503683138856,+0.717,+0.646,-0.140,-0.222,+0.846,-0.103,-0.102,+20.875,+55.125,-12.562,17, 13, -3, -2, -3, -2, -2, -1,-2.61705176089225,1.4438499679830652,6
1503683138878,+0.711,+0.653,-0.141,-0.217,+0.854,-0.027,-0.144,+18.188,+62.812,-8.500,-15, -2, 2, 0, 0, 0, -2, -2,-2.623244753169928,1.4626881114433132,6
1503683138894,+0.706,+0.661,-0.142,-0.212,+0.839,+0.007,-0.088,+18.375,+61.188,-6.125,-6, 4, 2, -2, 0, 0, 1, 3,-2.631569441377882,1.4846222044888147,6
1503683138916,+0.702,+0.666,-0.143,-0.207,+0.902,+0.011,-0.062,+18.812,+47.875,-11.062,0, 13, 1, -1, -1, 1, -1, -2,-2.6377752290412007,1.4985172872816914,6
1503683138938,+0.699,+0.671,-0.145,-0.201,+0.925,+0.054,-0.045,+21.188,+44.625,-16.938,2, -5, -2, -2, -1, -1, 0, 1,-2.6450150210909373,1.5131815192856806,6
1503683138954,+0.697,+0.674,-0.146,-0.195,+0.935,+0.103,-0.034,+18.375,+25.562,-16.562,-8, -9, -4, 0, 0, -3, -3, 0,-2.652330834576771,1.5218478044273647,6
1503683138976,+0.697,+0.675,-0.148,-0.189,+0.958,+0.141,-0.008,+14.938,+11.750,-14.438,-4, -2, -1, -2, -1, -2, 0, 1,-2.658358513837293,1.5257448062398429,6
1503683139000,+0.698,+0.676,-0.149,-0.184,+0.962,+0.146,+0.012,+17.625,+8.812,-14.562,-3, -8, -3, -2, -1, 0, -3, -5,-2.6652998146793436,1.5291130917323466,6
1503683139014,+0.698,+0.678,-0.150,-0.178,+0.938,+0.151,+0.026,+20.500,+10.250,-13.938,-5, 0, 4, 0, -2, -1, -1, 5,-2.6734796722035945,1.5351754090788587,6
1503683139036,+0.697,+0.680,-0.151,-0.172,+0.896,+0.131,+0.031,+19.812,+15.125,-11.250,-3, 3, -1, -3, 0, 1, 0, -1,-2.6806984331279957,1.5412029429299197,6
1503683139058,+0.695,+0.683,-0.151,-0.168,+0.937,+0.069,+0.065,+17.688,+20.938,-9.312,13, 22, 4, 1, 0, 0, -2, -5,-2.6866389156549624,1.5493818710807499,6
1503683139074,+0.692,+0.686,-0.152,-0.164,+0.988,+0.048,+0.085,+11.375,+25.438,-8.562,-3, -8, -3, 2, 0, -2, 0, 3,-2.69042782922674,1.5581879164289598,6
1503683139098,+0.690,+0.689,-0.153,-0.161,+1.019,+0.087,+0.079,+4.688,+22.938,-5.312,3, -4, -1, -1, -2, -2, -1, 3,-2.6938691252167954,1.567056665840468,6
1503683139118,+0.688,+0.691,-0.154,-0.158,+1.030,+0.103,+0.075,+6.938,+16.500,-5.188,-2, -4, -5, -1, -2, -2, -4, -7,-2.6963791936488177,1.5731915677419182,6
1503683139134,+0.688,+0.691,-0.155,-0.155,+1.057,+0.070,+0.077,+8.500,+1.250,-6.062,-1, -10, -1, -1, 0, 1, 0, 0,-2.6988628328710673,1.573811737141153,6
1503683139156,+0.689,+0.691,-0.155,-0.153,+1.021,+0.025,+0.048,+6.062,-1.875,-8.625,4, -7, -4, -1, -2, -2, -1, -2,-2.702255204625663,1.5738094385573087,6
1503683139178,+0.690,+0.690,-0.155,-0.151,+1.008,-0.019,+0.016,+4.875,-2.375,-13.750,4, 2, 0, 0, 0, 1, 0, -4,-2.704759707056516,1.5710465745349405,6
1503683139194,+0.692,+0.689,-0.156,-0.150,+1.066,-0.028,+0.041,+2.938,-9.875,-12.688,-4, 5, 3, 1, -2, -1, 2, 6,-2.705669968724373,1.5689110378980011,6
1503683139223,+0.693,+0.687,-0.156,-0.149,+1.063,-0.053,+0.055,+2.312,-13.562,-12.625,-14, 0, 2, 0, 1, -1, 1, -2,-2.706066595487151,1.5633966200668825,6
1503683139238,+0.694,+0.687,-0.157,-0.148,+1.021,-0.060,+0.020,-1.062,-4.000,-14.000,-1, 0, 0, -1, 0, 2, -1, -2,-2.70697924498144,1.564032619324922,6
1503683139254,+0.694,+0.687,-0.159,-0.146,+0.983,-0.006,+0.104,-1.688,+1.812,-18.562,6, 12, 5, 2, 1, -1, -1, -1,-2.7070046372434478,1.5652962942534776,6
1503683139277,+0.695,+0.686,-0.160,-0.143,+1.085,+0.029,+0.084,+6.125,-5.312,-15.500,-5, -1, -5, -2, -1, 0, 0, 4,-2.7095821127078663,1.5631831445558364,6
1503683139300,+0.698,+0.684,-0.160,-0.141,+1.131,-0.008,+0.099,+5.875,-25.875,-16.750,4, -11, -4, -1, 0, 1, 0, 0,-2.713122632833105,1.5577088646488475,6
1503683139314,+0.703,+0.678,-0.161,-0.141,+1.047,+0.033,+0.082,-1.062,-48.375,-14.688,3, 1, 0, -2, -1, -2, -1, 0,-2.7113812873625385,1.5419759672754338,6
1503683139339,+0.708,+0.673,-0.161,-0.140,+0.910,+0.126,-0.019,+0.875,-41.125,-9.562,-3, -9, -2, -1, -2, 0, 0, 1,-2.713102558431712,1.5284389456963805,6
1503683139358,+0.712,+0.669,-0.163,-0.138,+0.827,+0.153,-0.016,-0.125,-24.000,-11.312,-8, 9, -2, -1, -1, -1, -4, -5,-2.7136716042839812,1.5189805622615078,6
1503683139375,+0.711,+0.670,-0.163,-0.137,+0.901,+0.138,+0.012,-0.750,+8.938,+2.938,3, -6, -5, -1, 1, 0, 1, 1,-2.714852091479382,1.5216461480076335,6
1503683139399,+0.708,+0.673,-0.163,-0.138,+0.983,+0.103,+0.032,-0.125,+20.312,+11.938,3, -2, -1, -2, 6, 7, -1, -3,-2.713230078405234,1.5297314414483192,6
1503683139418,+0.707,+0.674,-0.162,-0.139,+1.076,+0.104,-0.020,-1.875,+8.000,+13.188,6, -6, 0, -1, -2, -1, -2, 2,-2.7130678302108033,1.5317808753857325,6
1503683139434,+0.709,+0.672,-0.161,-0.140,+1.042,+0.135,+0.010,-0.312,-18.438,+12.375,0, 5, 0, -1, -2, -1, -1, 4,-2.7132007123070423,1.525745584987341,6
1503683139456,+0.712,+0.669,-0.159,-0.141,+0.964,+0.108,+0.031,+0.812,-28.875,+14.250,3, 3, 2, 2, -1, -3, -1, -2,-2.7146555490947577,1.5163975918452925,6
1503683139478,+0.713,+0.668,-0.157,-0.144,+0.948,+0.055,+0.004,-3.812,-16.688,+16.750,-3, -3, -4, -1, -4, -1, -1, -1,-2.7132986231352367,1.512479149451063,6
1503683139494,+0.713,+0.668,-0.155,-0.147,+0.992,+0.038,-0.012,-3.875,-5.750,+23.375,5, 8, -2, -2, -2, -3, -1, -1,-2.7118378733040887,1.5112537929670982,6
1503683139516,+0.713,+0.668,-0.153,-0.150,+1.063,+0.035,-0.010,-3.625,-3.625,+21.875,-7, -12, -2, -3, -2, -2, 0, -1,-2.7103790767915767,1.5100439925599523,6
1503683148200,+0.804,+0.519,-0.144,-0.252,+0.911,+0.057,-0.410,-7.062,+6.375,+35.562,13, -3, -1, -3, -2, 0, -1, 1,-2.5533247920239757,1.1373607068460754,7
1503683148222,+0.800,+0.522,-0.143,-0.258,+0.948,+0.034,-0.378,-11.688,+22.812,+42.438,-12, -7, -2, 1, 0, 0, -1, 2,-2.5434933907974986,1.143296058146266,7
1503683148245,+0.794,+0.528,-0.143,-0.264,+0.967,+0.019,-0.334,-11.625,+35.875,+50.500,12, 3, 1, 0, -2, 0, 1, 4,-2.5330578670920554,1.1568505156912254,7
1503683148261,+0.789,+0.534,-0.142,-0.269,+0.950,-0.012,-0.353,-8.312,+42.812,+42.625,-7, -8, -2, 1, 2, 1, 0, -2,-2.5264436290965384,1.170064794014352,7
1503683148283,+0.783,+0.541,-0.142,-0.273,+0.963,-0.002,-0.324,-6.812,+45.250,+34.938,2, 2, -3, -2, 0, -1, -2, -2,-2.5201280176039527,1.186181125772722,7
1503683148305,+0.776,+0.549,-0.146,-0.274,+0.910,+0.084,-0.250,-14.000,+62.375,+22.500,-3, 6, 0, -2, -1, -2, 1, 4,-2.5139845868667776,1.2072886839276789,7
1503683148321,+0.768,+0.559,-0.148,-0.274,+0.870,+0.000,-0.270,+1.375,+71.000,+18.938,-3, -3, 0, -2, -2, -2, -1, -2,-2.511856430514377,1.2319189047295618,7
1503683148345,+0.761,+0.569,-0.150,-0.273,+0.915,-0.096,-0.245,+5.188,+70.000,+10.000,12, 16, -3, -2, -1, 0, -1, 0,-2.5126374361836237,1.2571325919262468,7
1503683148366,+0.755,+0.578,-0.152,-0.271,+0.964,-0.085,-0.219,+6.250,+69.750,-0.688,-3, -2, 0, -2, -2, 0, 0, -4,-2.5151252153090806,1.2802284199470062,7
1503683148381,+0.749,+0.587,-0.154,-0.266,+0.936,-0.120,-0.259,+12.250,+68.188,-11.562,-8, -8, -1, -3, -1, -1, 2, -2,-2.5214425343187963,1.3033151426810616,7
1503683148403,+0.745,+0.593,-0.155,-0.262,+0.932,-0.178,-0.249,+11.312,+52.750,-18.875,-4, 4, 3, 0, 0, -1, -2, 0,-2.526862415349094,1.3185589389981125,7
1503683148424,+0.742,+0.598,-0.157,-0.258,+0.945,-0.176,-0.237,+8.812,+41.062,-21.688,1, 1, -1, 1, 1, 0, 1, -1,-2.531517461102622,1.3322586213034298,7
1503683148441,+0.740,+0.603,-0.158,-0.254,+0.963,-0.148,-0.208,+12.062,+36.875,-18.938,5, 5, 3, -1, -2, -1, -2, -1,-2.538434232747022,1.345575549485173,7
1503683148463,+0.738,+0.607,-0.159,-0.250,+0.973,-0.153,-0.232,+13.062,+34.625,-19.188,-11, -10, -5, -3, -2, -1, -2, -6,-2.544234328337453,1.3562564461263908,7
1503683148485,+0.736,+0.610,-0.159,-0.246,+0.957,-0.139,-0.183,+11.375,+28.000,-17.125,-12, -9, 1, 1, 0, 1, -1, 0,-2.549948301003818,1.3635618755385008,7
1503683148501,+0.734,+0.613,-0.159,-0.244,+0.967,-0.158,-0.161,+10.750,+21.562,-10.250,-7, -2, 1, -1, -2, -2, -1, -5,-2.553234398226449,1.3710362997785184,7
1503683148523,+0.731,+0.618,-0.159,-0.241,+0.948,-0.157,-0.177,+10.500,+35.375,-11.938,-4, 0, -2, -1, -2, -4, -2, 0,-2.5587470893226656,1.3836639349195894,7
1503683148545,+0.728,+0.622,-0.160,-0.238,+0.957,-0.114,-0.182,+10.375,+37.500,-13.438,-1, -2, 1, 0, 0, -3, -2, 0,-2.562154721933824,1.394371761373938,7
1503683148561,+0.726,+0.626,-0.160,-0.235,+1.039,-0.082,-0.179,+12.875,+32.875,-8.125,0, -1, -2, 1, 0, -2, -3, -5,-2.5678206601492928,1.4046367699164974,7
1503683148583,+0.724,+0.630,-0.160,-0.232,+1.088,-0.091,-0.112,+13.188,+26.062,-5.000,-3, 0, 1, -2, 0, -2, -2, 0,-2.573494527080869,1.4149462150704777,7
1503683148605,+0.722,+0.633,-0.159,-0.229,+1.078,-0.096,-0.080,+12.875,+17.125,-9.938,13, 11, -1, 0, -1, 0, 1, 2,-2.579165028422802,1.421877739321293,7
1503683148628,+0.723,+0.634,-0.159,-0.225,+1.014,-0.082,-0.066,+13.250,+3.125,-17.062,12, 8, -6, -3, -2, -1, 1, 5,-2.5862971183651164,1.424600149956049,7
1503683148646,+0.724,+0.633,-0.159,-0.222,+0.940,-0.076,-0.097,+14.750,-4.125,-17.562,9, -6, 0, -1, -1, -1, -1, -2,-2.5900749138205006,1.4219232210570647,7
1503683148664,+0.724,+0.635,-0.159,-0.218,+0.928,-0.042,-0.090,+14.625,+14.062,-15.312,-6, -3, -1, 0, 1, 2, 1, 3,-2.597129097594961,1.4271848140895713,7
1503683148681,+0.721,+0.640,-0.159,-0.213,+1.038,-0.010,-0.118,+19.000,+35.062,-13.062,2, -4, -2, -2, -3, 0, 0, 2,-2.6051749114416287,1.4400740632508964,7
1503683148703,+0.719,+0.643,-0.159,-0.208,+1.161,-0.019,-0.098,+20.250,+25.500,-13.688,-12, -11, -5, -3, 0, -1, -5, -6,-2.61227705520593,1.4477406614513193,7
1503683148732,+0.721,+0.643,-0.157,-0.204,+1.184,-0.080,-0.074,+22.125,-3.938,-11.250,7, 1, 5, 3, 1, -1, -2, -3,-2.621680112236851,1.4465443879102444,7
1503683148741,+0.724,+0.641,-0.155,-0.203,+1.138,-0.139,-0.028,+14.000,-26.688,-7.750,-21, -9, -3, 0, -2, 2, 1, 0,-2.6264009118442244,1.4401867699154198,7
1503683148763,+0.726,+0.639,-0.153,-0.204,+1.089,-0.140,-0.047,+0.812,-26.688,-1.500,-2, 7, 5, 0, -2, -1, -1, 0,-2.6275295179349967,1.4337762167447292,7
1503683148785,+0.726,+0.638,-0.152,-0.207,+1.036,-0.100,+0.011,-9.000,-16.562,+9.812,-4, -4, -4, -2, -1, -2, -3, -7,-2.6238552226993597,1.4305095001718044,7
1503683148801,+0.727,+0.637,-0.150,-0.210,+1.073,-0.112,+0.040,-6.938,-23.812,+15.000,12, 3, 1, -1, -3, 0, -1, 0,-2.622360250493045,1.4267718951847446,7
1503683148823,+0.730,+0.632,-0.148,-0.212,+1.129,-0.082,+0.003,-5.625,-46.938,+6.438,-8, -4, 0, 2, 0, -1, -3, -5,-2.620263160600468,1.412469092075047,7
1503683148847,+0.738,+0.622,-0.147,-0.214,+1.121,-0.050,-0.057,-10.375,-81.375,-3.500,8, -2, 4, 1, 1, 2, 3, 4,-2.617606053127372,1.38635574103801,7
1503683148867,+0.749,+0.609,-0.146,-0.218,+0.984,-0.002,-0.078,-19.125,-103.438,-7.875,7, 7, 1, 0, 1, 0, -1, 0,-2.613060804486404,1.3533669276418756,7
1503683148883,+0.758,+0.596,-0.146,-0.221,+0.767,+0.046,-0.233,-19.062,-81.688,-4.750,-16, -5, 1, -1, -2, 0, 0, -2,-2.606896692039299,1.3210410536116308,7
1503683148904,+0.763,+0.588,-0.147,-0.222,+0.725,+0.058,-0.228,-13.875,-51.562,-3.500,10, 13, 1, 2, 0, -1, 0, 1,-2.602765498253827,1.301859287138167,7
1503683148921,+0.765,+0.585,-0.149,-0.223,+0.834,+0.050,-0.213,-13.625,-17.438,-1.062,3, 0, 1, 1, -2, -3, -3, 3,-2.5989570657196133,1.2959302586292913,7
1503683148943,+0.765,+0.585,-0.151,-0.225,+0.916,+0.035,-0.197,-18.500,+0.500,+5.562,20, 26, 2, -2, 0, 1, 0, 3,-2.5943378609721455,1.2974910665072965,7
1503683148964,+0.764,+0.584,-0.154,-0.227,+0.954,+0.070,-0.240,-16.500,+4.875,+5.625,-9, 7, -1, -5, -1, -2, -1, -2,-2.5865667241049857,1.296804036116801,7
1503683148981,+0.765,+0.583,-0.155,-0.227,+0.945,+0.062,-0.275,-10.250,-6.062,+1.438,7, -8, -2, 1, -1, -1, -1, -2,-2.585833823280887,1.2951771124815916,7
1503683149003,+0.766,+0.580,-0.156,-0.228,+0.948,+0.015,-0.232,-8.875,-14.500,+0.375,-12, -11, -5, -1, -3, -2, -3, -4,-2.581880172780614,1.2883311523748804,7
1503683149025,+0.767,+0.579,-0.156,-0.229,+0.938,-0.012,-0.197,-9.688,-10.875,+1.250,7, 3, 0, 1, 0, -1, -2, -4,-2.5808556052436855,1.2860874731217329,7
1503683149041,+0.767,+0.578,-0.157,-0.230,+0.966,-0.015,-0.228,-8.500,-5.062,+1.688,-8, -14, -4, -2, -3, -2, -1, -1,-2.577609663736475,1.2842527179593302,7
1503683149063,+0.767,+0.577,-0.158,-0.232,+0.992,-0.019,-0.231,-9.500,-4.750,+4.188,-8, -5, -1, 0, 1, 0, 1, -4,-2.5730706347326393,1.2825157393443665,7
1503683149087,+0.767,+0.577,-0.158,-0.233,+0.985,-0.042,-0.214,-9.438,-2.250,+2.000,-4, -1, 1, 0, 1, -1, -4, -5,-2.5717786032512566,1.2826055807481624,7
1503683156569,+0.791,+0.546,-0.158,-0.225,+0.992,+0.042,-0.294,+2.375,+2.312,+2.625,14, 0, -2, 0, 0, -1, 0, -1,-2.584063252437954,1.2089691690895095,8
1503683156586,+0.792,+0.546,-0.158,-0.225,+0.963,+0.021,-0.313,+2.625,-4.125,+0.188,-10, -3, 1, 1, 0, -1, -1, 0,-2.585354202192271,1.2093554815019731,8
1503683156607,+0.792,+0.545,-0.157,-0.224,+0.918,+0.000,-0.323,+1.500,-2.688,-0.812,1, -2, -2, -3, -1, 1, 0, 5,-2.5867436575058145,1.2058928476637376,8
1503683156629,+0.792,+0.546,-0.157,-0.224,+0.903,+0.005,-0.307,+1.500,+8.500,+1.750,-2, -3, -2, -3, -3, -2, -1, 0,-2.5876259467922833,1.2084961258672948,8
1503683156645,+0.791,+0.548,-0.157,-0.224,+0.943,+0.028,-0.303,+1.750,+11.188,+4.125,-11, -8, -5, -1, -2, -1, 1, -1,-2.588108683617379,1.213319924311816,8
1503683156667,+0.790,+0.549,-0.156,-0.224,+0.997,+0.046,-0.300,+3.562,+4.250,+4.375,-2, 1, 2, -1, -1, 1, -1, -3,-2.5886478977947798,1.2148013848145183,8
1503683156689,+0.790,+0.549,-0.156,-0.223,+0.976,+0.043,-0.294,+5.000,-0.375,+0.062,-13, -5, -1, -1, 0, -2, -1, -2,-2.5899935324044177,1.2146926147062662,8
1503683156705,+0.790,+0.550,-0.155,-0.222,+0.903,+0.000,-0.257,+6.250,+5.062,-0.312,11, 7, 1, -2, 0, -1, 0, 0,-2.593162730776427,1.2164571133045239,8
1503683156727,+0.788,+0.553,-0.154,-0.221,+0.877,+0.010,-0.298,+7.688,+17.500,+6.000,11, 3, -3, -3, -3, 0, -2, 1,-2.5955781888704896,1.222703480092764,8
1503683156749,+0.786,+0.557,-0.154,-0.221,+0.960,+0.044,-0.310,+3.938,+27.312,+7.812,-7, -1, -6, -3, 0, -1, -2, -1,-2.5966214649157817,1.2324375709926971,8
1503683156765,+0.782,+0.562,-0.154,-0.221,+1.037,+0.065,-0.248,+3.500,+31.250,+14.000,-3, 0, 0, 1, 0, -1, -1, -3,-2.596114447607643,1.244110942369147,8
1503683156787,+0.779,+0.566,-0.153,-0.222,+0.998,+0.042,-0.276,+4.250,+24.000,+19.438,-4, -6, 1, -3, -1, 0, 1, -5,-2.595653056145724,1.2529518172124194,8
1503683156809,+0.777,+0.569,-0.151,-0.224,+0.957,+0.030,-0.320,+1.938,+21.750,+25.250,-3, 6, 2, 0, 0, -1, 2, 5,-2.5952209059128424,1.2589256152753745,8
1503683156825,+0.773,+0.574,-0.149,-0.226,+0.942,+0.042,-0.306,+4.062,+38.938,+26.750,-3, -2, 1, 2, -1, 0, -1, 0,-2.59427782730805,1.2695478058630798,8
1503683156847,+0.768,+0.581,-0.148,-0.226,+0.988,+0.035,-0.264,+12.625,+49.812,+26.562,10, -2, -3, -2, -1, -3, -4, -3,-2.595814088998977,1.2857819378174864,8
1503683156869,+0.762,+0.589,-0.145,-0.227,+1.019,-0.014,-0.220,+15.438,+50.375,+30.188,-6, 0, 0, -2, 1, -1, -3, -7,-2.5980148665270475,1.3032458222108596,8
1503683156888,+0.757,+0.596,-0.142,-0.227,+1.046,-0.028,-0.214,+15.438,+44.125,+26.562,-1, 0, 0, -1, -1, 0, 1, 1,-2.6020114285018145,1.318494075939194,8
1503683156907,+0.753,+0.602,-0.139,-0.226,+0.958,-0.043,-0.201,+19.812,+40.500,+15.250,9, -5, -4, -1, -3, -1, -2, 0,-2.6076912432621695,1.3314661813626756,8
1503683156930,+0.750,+0.608,-0.135,-0.224,+0.944,-0.132,-0.159,+27.750,+27.375,+11.938,-5, 0, 1, 1, -2, -3, -2, -4,-2.61700523815209,1.3441892938367144,8
1503683156945,+0.748,+0.612,-0.131,-0.223,+1.001,-0.160,-0.123,+23.125,+18.188,+4.812,-10, -7, -3, -3, 0, 0, 1, 1,-2.624274545572885,1.3519801907220586,8
1503683156967,+0.746,+0.615,-0.129,-0.220,+1.017,-0.122,-0.139,+19.938,+16.438,-1.625,-1, -2, -3, -1, -2, 0, 1, 0,-2.631104261629776,1.3582503156864885,8
1503683156990,+0.746,+0.617,-0.127,-0.217,+0.971,-0.133,-0.149,+17.938,+7.500,-9.688,0, -4, -4, -1, 0, 1, 2, 1,-2.639138930389884,1.362360803464475,8
1503683157005,+0.747,+0.617,-0.126,-0.214,+0.943,-0.143,-0.182,+12.188,+0.438,-13.750,-3, 1, -3, 0, 0, 0, -2, -3,-2.6452193951308054,1.3618736008037509,8
1503683157029,+0.746,+0.618,-0.126,-0.212,+0.918,-0.142,-0.139,+6.250,+10.188,-11.938,6, 1, -2, -4, -3, -1, -2, 0,-2.647762821070062,1.364246785952867,8
1503683157049,+0.743,+0.622,-0.127,-0.211,+0.939,-0.142,-0.126,+0.375,+28.188,-9.562,-1, -1, 4, -1, -1, -2, 0, 1,-2.6486789471991288,1.3749776617493263,8
1503683157065,+0.740,+0.626,-0.129,-0.209,+1.054,-0.093,-0.156,+0.812,+31.688,-12.312,-5, -1, 0, 0, -2, -2, -1, 0,-2.6498180811236436,1.3862952950147547,8
1503683157089,+0.741,+0.626,-0.131,-0.206,+1.080,-0.049,-0.140,+3.000,+2.938,-15.625,6, 2, -2, 2, 1, 1, 2, 1,-2.652562835065966,1.3875585017282797,8
1503683157109,+0.742,+0.625,-0.131,-0.204,+1.011,-0.054,-0.122,+3.625,-11.375,-13.812,-1, 3, 2, 1, 1, -1, 1, 1,-2.6552736663120253,1.3849557760669846,8
1503683157126,+0.743,+0.624,-0.132,-0.202,+0.942,-0.053,-0.169,+2.250,+2.062,-11.250,-1, -2, -3, -2, -2, 1, -1, 1,-2.65689290926525,1.3829482392275088,8
1503683157147,+0.742,+0.626,-0.133,-0.200,+0.982,-0.024,-0.158,-0.062,+13.062,-8.375,0, -4, -3, -2, -1, -2, -1, -1,-2.659250143122205,1.3886857528600878,8
1503683157169,+0.743,+0.625,-0.133,-0.199,+1.028,-0.037,-0.129,+0.875,-6.125,-5.438,-3, 8, 2, 0, -2, 1, 0, -3,-2.660666927551468,1.386131156974406,8
1503683157194,+0.743,+0.625,-0.133,-0.200,+1.041,-0.095,-0.061,-4.438,-9.500,-0.688,8, 0, -2, 0, 0, -2, -2, 0,-2.6593485831509365,1.3861800517679934,8
1503683157207,+0.743,+0.624,-0.135,-0.201,+1.013,-0.065,-0.091,-10.812,-3.812,-2.438,1, -2, -2, -1, 0, 3, 2, 5,-2.6548926624544635,1.3847001115847446,8
1503683157230,+0.745,+0.622,-0.137,-0.201,+1.022,-0.025,-0.144,-12.875,-14.625,-8.562,-11, -6, 2, -1, 1, 1, -2, -4,-2.65291489964795,1.3809299049880115,8
1503683157245,+0.747,+0.618,-0.137,-0.202,+1.021,-0.026,-0.155,-8.125,-27.812,-5.938,-7, 1, -2, -1, -2, -2, -1, -4,-2.649992605755061,1.3705668139825788,8
1503683164174,+0.801,+0.528,-0.155,-0.235,+0.903,+0.061,-0.297,+8.938,-1.312,+8.375,1, -2, -2, 1, -1, -1, 0, -3,-2.570545575518552,1.1653061760758514,9
1503683164191,+0.801,+0.529,-0.153,-0.235,+0.938,+0.058,-0.327,+13.875,-4.312,+13.250,3, 4, 2, -2, -4, 0, 0, 5,-2.57320731937544,1.1663777500380519,9
1503683164213,+0.800,+0.531,-0.150,-0.236,+0.918,+0.029,-0.380,+12.812,+10.250,+20.000,-2, -2, -2, -3, 0, 0, -2, -2,-2.57498259466797,1.1690103464902244,9
1503683164235,+0.798,+0.534,-0.148,-0.237,+0.953,+0.026,-0.457,+5.250,+26.625,+19.875,2, 0, 3, 0, -2, -2, -1, 0,-2.5754742971695714,1.174583493736361,9
1503683164258,+0.792,+0.542,-0.148,-0.238,+0.994,+0.053,-0.423,+6.375,+60.875,+24.312,-4, -2, 1, 1, -1, -1, -1, 0,-2.573537329230523,1.1930085298550523,9
1503683164272,+0.784,+0.554,-0.146,-0.239,+1.044,-0.026,-0.424,+13.875,+85.125,+36.375,0, 1, -3, -1, 1, -1, 1, -1,-2.574885538525919,1.2198832761305116,9
1503683164296,+0.774,+0.568,-0.142,-0.241,+1.144,-0.149,-0.418,+20.625,+90.812,+40.188,-2, 0, -1, 0, -2, -3, -3, 0,-2.576831468701201,1.2504506590639664,9
1503683164316,+0.766,+0.580,-0.136,-0.241,+1.151,-0.184,-0.390,+30.500,+77.750,+34.312,0, 1, 2, -1, -1, -2, -2, -6,-2.584671529394165,1.2755223229271284,9
1503683164334,+0.761,+0.588,-0.127,-0.241,+1.110,-0.170,-0.399,+46.938,+52.438,+35.812,-11, -6, -3, -3, -2, 2, -3, 1,-2.5957256671192814,1.2895323775183138,9
1503683164354,+0.759,+0.595,-0.114,-0.240,+1.124,-0.250,-0.327,+65.375,+25.000,+44.062,-2, -3, 2, 0, -1, -1, -3, 0,-2.615089855226136,1.2999790226188213,9
1503683164376,+0.759,+0.598,-0.099,-0.238,+1.042,-0.312,-0.219,+74.125,-6.312,+34.125,0, 1, -1, -3, 0, -1, 0, -1,-2.6364205008628203,1.299904570095622,9
1503683164399,+0.757,+0.604,-0.086,-0.234,+0.915,-0.321,-0.144,+71.312,+15.438,+21.875,1, -6, -5, -1, 0, 2, 0, 2,-2.6595738499370905,1.3092277532846703,9
1503683164414,+0.753,+0.611,-0.077,-0.229,+0.806,-0.286,-0.143,+64.562,+31.812,+9.188,-3, -2, 1, 0, -2, 0, 2, -1,-2.679183063706628,1.3232167817656126,9
1503683164436,+0.749,+0.620,-0.069,-0.224,+0.831,-0.241,-0.178,+58.562,+50.438,+5.750,5, 0, 0, -2, -1, -2, -2, -2,-2.6999951530697506,1.3437845536264463,9
1503683164452,+0.743,+0.629,-0.063,-0.218,+0.889,-0.187,-0.125,+58.250,+53.812,+10.062,2, 2, 0, 0, 0, 0, 2, 3,-2.718477774132468,1.365072664476404,9
1503683164474,+0.738,+0.638,-0.056,-0.212,+0.957,-0.198,-0.085,+56.562,+50.562,+5.812,-2, -1, -2, 0, -1, -2, -2, 3,-2.739315906197572,1.3868280976673126,9
1503683164496,+0.733,+0.646,-0.052,-0.207,+0.947,-0.198,-0.039,+46.562,+39.438,-0.688,-4, 1, 1, 1, 1, 1, -3, 0,-2.7545027233285544,1.4071220232600337,9
1503683164512,+0.729,+0.652,-0.049,-0.202,+0.935,-0.177,-0.057,+32.875,+42.188,-2.750,1, -2, 0, -2, -1, -1, 1, 1,-2.767545525937332,1.4224826971669091,9
1503683164534,+0.724,+0.658,-0.049,-0.198,+0.933,-0.111,-0.092,+21.812,+43.688,-3.062,-5, 2, 3, 2, 1, -2, -2, -1,-2.774855426060695,1.438603656473902,9
1503683164558,+0.722,+0.662,-0.049,-0.194,+0.950,-0.042,-0.063,+23.500,+26.625,-5.000,1, -2, 1, -2, -1, -1, 0, 0,-2.7824728917583834,1.449631428306474,9
1503683164572,+0.722,+0.664,-0.048,-0.188,+0.965,-0.067,-0.039,+25.062,+5.938,-14.812,-2, -2, -1, 0, -1, 0, 0, -2,-2.793696109241231,1.4550258343627378,9
1503683164595,+0.723,+0.664,-0.048,-0.183,+0.916,-0.090,-0.037,+19.125,-4.500,-15.625,1, -5, -4, -1, 0, -1, -2, 1,-2.8012481274900622,1.4551253520657674,9
1503683164616,+0.723,+0.665,-0.048,-0.180,+0.870,-0.068,-0.068,+12.500,+8.688,-4.562,-10, 4, -1, -2, -1, 0, 0, -4,-2.8062096339349756,1.4579410931145855,9
1503683164633,+0.720,+0.669,-0.048,-0.178,+0.863,-0.046,-0.040,+7.500,+29.062,-0.250,2, -4, -3, -2, -1, -2, -1, -2,-2.810308676677818,1.4688810792293208,9
1503683164654,+0.715,+0.674,-0.049,-0.177,+1.036,-0.084,+0.038,+4.688,+33.812,+0.250,2, 2, -2, -1, -1, -3, -3, -2,-2.811332481225975,1.4827156031584134,9
1503683164677,+0.715,+0.675,-0.050,-0.176,+1.104,-0.077,-0.041,+0.688,+5.812,+2.188,-1, 1, -1, -1, -3, -3, -1, -3,-2.8122019078862137,1.4857902971657115,9
1503683164693,+0.719,+0.671,-0.051,-0.173,+0.984,-0.052,-0.073,+2.062,-27.062,-12.062,1, -4, -3, 0, 0, -2, -1, -1,-2.814315990445274,1.4750979123888115,9
1503683164715,+0.724,+0.667,-0.053,-0.169,+0.855,-0.039,-0.064,+5.750,-33.500,-23.125,-5, -1, -1, 0, 0, 0, 0, 1,-2.817250249404675,1.4648603452122009,9
1503683164740,+0.727,+0.664,-0.054,-0.164,+0.863,-0.065,-0.061,+10.000,-23.438,-29.125,2, -8, -2, -2, 0, 0, -1, -2,-2.822511345405501,1.456990320952839,9
1503683164752,+0.730,+0.662,-0.056,-0.158,+0.954,-0.091,-0.076,+13.812,-12.688,-35.625,1, 7, 1, -1, -2, -3, -1, -3,-2.828723976490311,1.4522348083368342,9
1503683164774,+0.732,+0.662,-0.059,-0.150,+0.977,-0.071,-0.025,+19.125,-8.875,-41.875,0, -1, -1, -2, -2, -1, 1, 2,-2.837340577134663,1.4532399594209098,9
1503683164797,+0.733,+0.662,-0.060,-0.143,+0.970,-0.058,-0.018,+22.188,-5.438,-34.000,0, 0, 1, 1, 0, 0, 0, 3,-2.846514523635237,1.4535700921089045,9
1503683171381,+0.786,+0.549,-0.156,-0.236,+0.992,-0.007,-0.354,+6.000,+7.625,+15.562,6, 1, 3, 2, 2, 0, 1, 0,-2.5674645985267173,1.2145754064813357,10
1503683171396,+0.783,+0.554,-0.153,-0.237,+1.021,+0.000,-0.477,+16.375,+40.562,+22.000,-2, -4, -2, -1, -2, -2, 0, -2,-2.5696997831253343,1.224375565662159,10
1503683171418,+0.777,+0.564,-0.150,-0.237,+1.057,-0.128,-0.410,+18.938,+64.812,+25.375,-2, -4, -2, -1, -1, 1, 1, -1,-2.5743322551494527,1.24624076083343,10
1503683171441,+0.768,+0.575,-0.145,-0.240,+1.065,-0.252,-0.306,+13.938,+75.250,+38.375,-6, -2, 1, -1, 0, 0, -4, -3,-2.5746323166213467,1.2689157442321055,10
1503683171457,+0.760,+0.587,-0.141,-0.242,+1.073,-0.243,-0.334,+18.188,+78.000,+33.312,-8, -3, -2, -2, -3, 0, 1, -2,-2.5781850492196376,1.2956991505695983,10
1503683171479,+0.752,+0.598,-0.134,-0.242,+1.121,-0.257,-0.319,+33.312,+69.875,+28.688,5, 4, 1, -1, -1, 1, 1, 1,-2.586957159883414,1.3182014020485529,10
1503683171501,+0.746,+0.607,-0.123,-0.244,+1.098,-0.408,-0.336,+47.188,+52.625,+46.000,1, 0, -4, -1, 0, -1, 1, -2,-2.5982265802960325,1.3341905277103305,10
1503683171516,+0.742,+0.615,-0.114,-0.243,+1.052,-0.335,-0.218,+47.438,+40.812,+26.375,0, -1, -1, 0, -2, -2, -3, -3,-2.6130153335171067,1.3497339948958376,10
1503683171538,+0.736,+0.623,-0.107,-0.242,+0.978,-0.312,-0.117,+37.688,+42.875,+18.312,-7, -1, 1, 0, 0, -3, -4, -5,-2.623923267558939,1.3663888796377426,10
1503683171562,+0.731,+0.631,-0.101,-0.240,+0.898,-0.282,-0.152,+36.188,+49.750,+20.188,-2, 1, -2, -2, -2, 0, 1, -1,-2.6364732947130025,1.3842417275694023,10
1503683171583,+0.725,+0.639,-0.096,-0.239,+0.878,-0.235,-0.140,+29.312,+54.625,+19.312,-3, -1, 0, 0, -1, 0, 0, 1,-2.6459454063867485,1.4027944450339613,10
1503683171599,+0.718,+0.648,-0.094,-0.238,+0.892,-0.220,-0.085,+19.812,+59.625,+13.000,-5, -5, -1, -2, -1, -2, -1, -3,-2.652408540146576,1.4256898357725218,10
1503683171621,+0.710,+0.656,-0.094,-0.236,+0.928,-0.166,-0.018,+13.562,+63.750,+8.000,0, 0, -2, 2, -1, 0, 1, 2,-2.6560815883153417,1.4467742972896347,10
1503683171636,+0.703,+0.664,-0.095,-0.234,+0.980,-0.105,-0.009,+7.562,+58.250,+4.562,-6, -1, 1, -2, 0, 1, 1, 2,-2.6596749459950364,1.4687456367504657,10
1503683171661,+0.699,+0.669,-0.098,-0.231,+1.018,-0.042,-0.003,+3.125,+37.812,-5.000,8, 0, 1, 0, -2, -2, 1, 2,-2.6616642086316706,1.4836472278235195,10
1503683171681,+0.698,+0.671,-0.101,-0.229,+0.991,-0.007,-0.003,-0.188,+12.812,-7.125,4, -1, -1, -1, -1, 0, -1, -1,-2.661818595424085,1.490483091939096,10
1503683171697,+0.698,+0.671,-0.103,-0.226,+0.894,+0.022,-0.034,+1.375,+6.812,-6.625,3, 1, -1, -1, 0, -1, -1, -2,-2.66317236371269,1.4913319265529033,10
1503683171718,+0.698,+0.672,-0.105,-0.224,+0.871,+0.018,-0.015,+1.000,+11.750,-10.062,2, -1, 2, -1, -2, 0, -2, 1,-2.664332337854343,1.4950325274020966,10
1503683171741,+0.696,+0.674,-0.109,-0.220,+0.901,+0.046,-0.005,+1.125,+20.250,-13.375,3, -1, -2, -1, -2, -2, 1, 2,-2.6648294982253424,1.5022684349561748,10
1503683171756,+0.695,+0.676,-0.113,-0.216,+0.952,+0.061,+0.042,-1.250,+17.000,-15.188,1, 1, 3, 0, 2, 1, 0, -2,-2.666183379675447,1.5096559393837818,10
1503683171778,+0.695,+0.677,-0.116,-0.213,+0.947,+0.077,-0.005,+0.062,+7.938,-10.188,-2, 0, -3, 2, 1, 1, 0, 3,-2.667325894963468,1.5138835218742734,10
1503683171801,+0.696,+0.677,-0.118,-0.210,+0.933,+0.051,-0.016,+1.562,+2.188,-9.875,-5, -3, -2, 0, 0, 0, -1, -2,-2.6695361584241257,1.5149098923968682,10
1503683171816,+0.695,+0.677,-0.120,-0.207,+0.896,+0.030,+0.016,+4.938,+8.062,-10.000,-4, -4, -6, -2, -3, 0, 0, 2,-2.6699510859006237,1.5157983995145181,10
1503683171838,+0.694,+0.679,-0.122,-0.204,+0.936,+0.003,-0.005,+6.938,+14.625,-8.875,-2, -7, -1, -2, 1, -2, 0, -1,-2.672402501450175,1.5223072119787562,10
1503683171861,+0.693,+0.681,-0.123,-0.202,+1.028,-0.017,-0.004,+6.062,+15.562,-4.750,2, 3, 0, -1, -3, -1, -3, -4,-2.674807712502883,1.5283281316607296,10
1503683171876,+0.693,+0.682,-0.123,-0.200,+1.050,-0.044,+0.001,+6.188,+6.688,-1.750,0, 3, 1, 0, 0, -1, -2, -1,-2.678305256999928,1.531102851452702,10
1503683171899,+0.693,+0.682,-0.122,-0.198,+1.008,-0.078,+0.014,+7.312,+0.250,-3.375,0, 0, -2, -4, -2, -3, -1, -1,-2.6820281275425444,1.5305750262425284,10
1503683171921,+0.694,+0.682,-0.121,-0.197,+0.999,-0.118,-0.015,+8.688,-1.125,-4.688,-6, 1, 2, 2, 0, 0, -1, -4,-2.6853858648825004,1.5301163707546999,10
1503683171937,+0.695,+0.682,-0.121,-0.196,+1.023,-0.133,-0.025,+4.938,-3.562,-5.188,4, 1, -4, -2, -1, -3, -3, -2,-2.6875094322302067,1.5301621735552058,10
1503683171958,+0.695,+0.681,-0.120,-0.195,+1.040,-0.114,-0.024,+4.438,-4.250,-5.062,-3, -2, -1, 0, 1, -1, 1, 0,-2.6890139225653,1.526855995295255,10
1503683171981,+0.697,+0.680,-0.120,-0.194,+1.021,-0.142,-0.025,+3.938,-6.750,-8.438,-15, -4, 0, 2, 1, 1, 0, -5,-2.69103496231443,1.5241725896595197,10
1503683171996,+0.698,+0.679,-0.120,-0.193,+0.993,-0.143,-0.000,+4.125,-8.125,-8.812,2, 1, -1, 0, -2, -1, 2, 3,-2.692195206036856,1.5214321156391304,10
1503683172018,+0.699,+0.679,-0.120,-0.190,+0.938,-0.113,-0.003,+8.938,-2.250,-14.500,-5, -2, -1, -3, 0, -1, -3, -1,-2.6968566651934114,1.5214637219409899,10
1503683172041,+0.701,+0.678,-0.121,-0.186,+0.963,-0.081,-0.026,+12.438,-3.875,-23.312,-4, -3, -1, -4, -2, -1, 0, 2,-2.7014802112602085,1.5192633966522755,10
1503683172056,+0.702,+0.678,-0.121,-0.183,+0.991,-0.065,-0.030,+11.250,-3.000,-13.375,0, 0, -4, -1, -3, -1, -1, 0,-2.7061585910615897,1.519295928691683,10
1503683172078,+0.701,+0.679,-0.120,-0.180,+0.978,-0.051,+0.039,+13.875,+6.812,-8.500,4, 2, -1, -2, -2, -1, 0, -1,-2.7112994401989825,1.521479361502343,10
1503683172101,+0.701,+0.681,-0.120,-0.176,+1.038,-0.059,+0.020,+14.875,+9.250,-12.125,2, 1, -1, -3, -1, -3, -2, 3,-2.718239873893409,1.5270149813085723,10
1503683172116,+0.701,+0.681,-0.120,-0.173,+1.094,-0.041,+0.010,+11.625,-1.938,-11.000,2, -1, 0, -1, -1, 1, -2, -1,-2.722087059622852,1.5269833815618883,10
1503683172138,+0.703,+0.680,-0.120,-0.170,+1.026,-0.007,+0.014,+13.375,-7.688,-10.000,2, -1, -2, 1, 0, -2, -1, -3,-2.726715129666471,1.52428467482966,10
1503683172163,+0.705,+0.679,-0.119,-0.166,+0.973,-0.016,-0.021,+18.438,-13.125,-13.375,-4, -6, -2, -2, -1, -3, -3, -2,-2.7339063678019726,1.5210869860298017,10
1503683172176,+0.707,+0.678,-0.119,-0.163,+0.976,-0.086,+0.000,+10.938,-10.312,-17.562,-5, -2, -4, -4, -1, -2, -1, -2,-2.7385770643409746,1.5184024830866356,10
1503683172198,+0.707,+0.678,-0.120,-0.161,+0.958,-0.042,+0.056,+4.375,+1.000,-12.312,11, 3, 0, -1, 0, -1, 2, 1,-2.739933117011018,1.5188723834361426,10
1503683172231,+0.706,+0.679,-0.121,-0.159,+1.024,-0.005,+0.102,+0.875,+0.125,-6.312,-7, -2, -2, -1, 0, -1, -3, -6,-2.741317136639802,1.522063649900312,10
1503683172236,+0.705,+0.680,-0.122,-0.160,+1.088,-0.009,+0.114,-8.188,+0.625,+2.688,0, -1, -1, 0, -3, -1, 0, 3,-2.738792493661401,1.5252974038305678,10
1503683172258,+0.707,+0.678,-0.122,-0.161,+1.115,+0.021,+0.082,-9.250,-19.812,+5.188,-4, -2, -3, -3, -2, -1, 0, -1,-2.7374359526608067,1.5198732322440052,10
1503683179084,+0.806,+0.516,-0.134,-0.256,+0.971,+0.016,-0.428,+12.062,-17.250,+29.312,-3, -3, -3, 1, -1, -2, -4, -1,-2.5565611816525413,1.1238325308914323,11
1503683179106,+0.808,+0.513,-0.128,-0.260,+0.882,-0.025,-0.455,+11.125,-22.938,+29.938,-3, -1, -2, -3, -1, 0, 0, 1,-2.556276215464316,1.113322391502828,11
1503683179122,+0.807,+0.513,-0.124,-0.265,+0.799,-0.107,-0.370,+1.500,-4.688,+31.812,1, 0, 2, -1, 1, 0, 1, 0,-2.5516075013158104,1.1106827346125674,11
1503683179144,+0.803,+0.518,-0.124,-0.269,+0.936,-0.037,-0.329,-6.938,+24.938,+35.625,11, 1, 0, 3, 2, 0, 0, 0,-2.5455613405837463,1.1221352181582804,11
1503683179173,+0.798,+0.523,-0.123,-0.272,+1.114,+0.007,-0.380,+0.500,+29.625,+37.438,-1, 1, -3, -11, -10, -3, -1, -1,-2.540496024244695,1.1324146431733977,11
1503683179182,+0.793,+0.530,-0.121,-0.275,+1.045,-0.079,-0.389,+9.625,+40.312,+34.250,-1, 0, 1, 4, 3, 0, -1, 1,-2.5384729265848622,1.1472921652345347,11
1503683179204,+0.789,+0.535,-0.118,-0.279,+0.986,-0.127,-0.396,+2.125,+27.938,+37.000,-13, 0, 0, -3, -3, -1, 0, -4,-2.5355801052409657,1.1569621946749695,11
1503683179237,+0.785,+0.539,-0.115,-0.284,+1.002,-0.120,-0.358,-0.812,+25.625,+40.875,6, -1, -1, -2, -2, -2, -3, -2,-2.5305321425707805,1.1641970320619446,11
1503683179242,+0.779,+0.544,-0.115,-0.289,+0.883,-0.045,-0.343,-4.375,+39.750,+42.625,1, -1, -2, -1, -2, -1, -1, -1,-2.5213544407856836,1.1752265888318874,11
1503683179266,+0.771,+0.555,-0.114,-0.292,+0.786,-0.025,-0.315,+7.562,+72.125,+42.562,11, 3, 2, -4, -5, 1, 1, 1,-2.519820842901912,1.2006093260903787,11
1503683179286,+0.761,+0.568,-0.112,-0.293,+0.888,-0.137,-0.310,+20.688,+88.938,+37.188,-8, -4, -3, -3, -1, -1, 1, 2,-2.5219561008472158,1.2301816339392786,11
1503683179303,+0.752,+0.580,-0.109,-0.292,+1.055,-0.218,-0.195,+23.875,+76.812,+30.000,-14, -5, -4, 0, -1, -1, -2, -2,-2.5284141496530266,1.2572934096495996,11
1503683179324,+0.745,+0.590,-0.106,-0.292,+1.098,-0.273,-0.141,+23.625,+52.250,+22.188,-6, -5, 1, 2, -1, -3, -2, -2,-2.534383975812061,1.2802886228475268,11
1503683179346,+0.741,+0.597,-0.104,-0.290,+0.992,-0.231,-0.171,+20.812,+38.625,+9.188,-5, 2, 6, 1, 1, 3, 1, 1,-2.542319793533762,1.2968760539429822,11
1503683179362,+0.738,+0.602,-0.103,-0.287,+0.890,-0.215,-0.251,+20.562,+39.625,-2.000,10, 3, -1, 0, -1, 0, -1, 1,-2.549440292772101,1.3089521267075386,11
1503683179384,+0.734,+0.608,-0.102,-0.285,+0.884,-0.226,-0.254,+18.688,+41.500,-2.812,2, -1, -2, -1, -2, 0, 0, 2,-2.5554127843683814,1.3236477764091885,11
1503683179406,+0.730,+0.615,-0.102,-0.282,+0.867,-0.259,-0.206,+16.125,+50.688,-6.250,-4, -1, -1, -3, -2, -1, 0, -3,-2.562897597171461,1.3417541888153033,11
1503683179422,+0.725,+0.622,-0.104,-0.279,+0.891,-0.258,-0.137,+13.438,+51.500,-12.812,-5, -2, -2, -1, -1, 0, -2, -3,-2.5672102295955748,1.3607985717666984,11
1503683179444,+0.721,+0.627,-0.105,-0.276,+0.967,-0.229,-0.146,+10.250,+41.625,-7.688,-4, -2, -1, -1, 1, -1, -1, -3,-2.571369188515545,1.3741272526847181,11
1503683179466,+0.717,+0.632,-0.106,-0.274,+0.985,-0.235,-0.163,+5.938,+39.188,-7.750,5, 0, -1, -2, -2, 0, 3, 3,-2.574338000675077,1.387593424234358,11
1503683179482,+0.714,+0.636,-0.108,-0.271,+1.016,-0.205,-0.146,+6.000,+33.875,-14.375,-2, 0, -2, -2, -1, -2, -3, -2,-2.577372939618516,1.3990567510350147,11
1503683179504,+0.714,+0.638,-0.110,-0.267,+1.037,-0.184,-0.133,+8.750,+16.750,-17.188,1, 1, -2, 0, 0, 0, -1, 1,-2.5824880362829035,1.4055693955249222,11
1503683179525,+0.713,+0.640,-0.111,-0.265,+0.961,-0.209,-0.115,+6.062,+12.312,-15.500,-2, -3, -3, 2, 0, -2, 0, 2,-2.585139263706536,1.411415693497782,11
1503683179542,+0.711,+0.642,-0.112,-0.262,+0.888,-0.200,-0.142,+5.375,+25.188,-17.375,-5, -1, -3, 2, 0, -3, -2, -4,-2.587944716159117,1.417035967134536,11
1503683179564,+0.710,+0.645,-0.114,-0.258,+0.963,-0.223,-0.135,+9.438,+25.438,-18.125,9, 2, -3, -1, -2, -1, -2, 2,-2.593100539466056,1.4261739481209597,11
1503683179585,+0.709,+0.648,-0.115,-0.255,+1.033,-0.235,-0.134,+10.375,+22.625,-20.062,-4, -2, -1, -1, -1, 1, 1, -1,-2.5981094608271826,1.4348220793984123,11
1503683179602,+0.709,+0.649,-0.116,-0.251,+1.023,-0.182,-0.152,+11.625,+11.250,-22.875,-1, 1, 2, 3, -2, -1, -4, -4,-2.6030594789041936,1.4380264410580208,11
1503683179624,+0.711,+0.648,-0.117,-0.246,+1.000,-0.168,-0.140,+15.062,-1.812,-26.438,4, 0, -1, 0, -2, 0, -1, 1,-2.60904472027039,1.4359593216161641,11
1503683179646,+0.714,+0.646,-0.118,-0.241,+0.993,-0.178,-0.104,+11.312,-14.625,-34.312,-5, -3, -1, -2, -1, -2, -1, -1,-2.614998507451116,1.4312907787679283,11
1503683179662,+0.718,+0.644,-0.119,-0.237,+0.944,-0.198,-0.122,+7.438,-19.438,-32.688,-2, -1, 0, -3, 0, -1, 1, 0,-2.620802641356525,1.4268663348566577,11
1503683179684,+0.719,+0.643,-0.121,-0.234,+0.969,-0.185,-0.022,+0.125,-8.375,-27.562,2, 3, 4, 3, 0, -3, -1, -2,-2.622270660337832,1.4252661415814405,11
1503683179706,+0.721,+0.641,-0.123,-0.232,+1.066,-0.127,-0.096,-2.500,-10.500,-21.938,1, 0, 1, 1, -1, -1, -1, -2,-2.6224672918646985,1.421138237732976,11
1503683179722,+0.723,+0.639,-0.125,-0.230,+1.073,-0.114,-0.086,-5.812,-15.438,-14.688,0, 1, 1, -1, -1, 0, 1, 4,-2.6227076581251447,1.4170434777610261,11
1503683179744,+0.727,+0.635,-0.125,-0.229,+1.066,-0.135,+0.054,-0.125,-43.188,-17.812,5, -3, 0, 0, -2, 0, 0, 0,-2.62394689645608,1.4067625203773244,11
1503683189794,+0.798,+0.532,-0.143,-0.244,+0.939,-0.023,-0.356,-1.875,-1.875,+1.062,-4, -6, -2, 0, -1, -2, 0, 3,-2.568742188969139,1.166586434371846,12
1503683189809,+0.799,+0.532,-0.143,-0.244,+0.919,-0.019,-0.346,-2.125,-0.625,+0.000,7, -3, -2, -1, -1, -2, -4, -4,-2.570060551660058,1.1670047419139582,12
1503683189831,+0.799,+0.532,-0.143,-0.244,+0.926,-0.008,-0.349,-1.750,+0.312,+1.312,-4, 3, -6, -3, -1, -1, 1, -1,-2.570060551660058,1.1670047419139582,12
1503683189853,+0.798,+0.532,-0.143,-0.244,+0.928,-0.016,-0.341,-1.438,+3.062,+1.250,6, -7, -3, -1, 0, -1, -2, 0,-2.568742188969139,1.166586434371846,12
1503683189869,+0.798,+0.532,-0.143,-0.244,+0.940,-0.016,-0.342,-1.688,+0.500,+1.812,4, 1, 3, 0, -1, -1, 0, -1,-2.568742188969139,1.166586434371846,12
1503683189891,+0.798,+0.533,-0.143,-0.244,+0.934,-0.028,-0.341,-1.000,+1.062,+1.812,-4, -3, -1, 0, -1, -1, -1, 1,-2.5696553573140966,1.1691724134813042,12
1503683189912,+0.798,+0.533,-0.143,-0.244,+0.932,-0.033,-0.339,-0.812,+2.125,+0.875,1, -12, -4, -4, -2, -1, -1, 0,-2.5696553573140966,1.1691724134813042,12
1503683189929,+0.798,+0.533,-0.142,-0.244,+0.944,-0.022,-0.354,+0.312,+1.625,-0.125,-7, 0, 1, 1, 0, -2, -4, -7,-2.5705512312938974,1.1684568613354356,12
1503683189952,+0.798,+0.533,-0.142,-0.243,+0.940,-0.030,-0.343,-0.250,+0.250,-1.375,6, -7, -4, -1, -3, 0, 0, 4,-2.5718944511253126,1.1683456036146445,12
1503683189972,+0.798,+0.533,-0.142,-0.243,+0.915,-0.021,-0.332,-0.062,+0.250,-0.562,-1, 5, -1, -1, 0, 0, -1, -5,-2.5718944511253126,1.1683456036146445,12
1503683189989,+0.797,+0.534,-0.142,-0.243,+0.926,-0.022,-0.331,+0.250,+1.562,+1.688,-6, 0, -3, -1, -1, 1, 1, 5,-2.5714944336758423,1.170517666853435,12
1503683190011,+0.797,+0.534,-0.142,-0.243,+0.931,-0.036,-0.324,-0.375,+1.688,+4.188,-5, 2, 1, 0, -1, 2, 0, -3,-2.5714944336758423,1.170517666853435,12
1503683190033,+0.797,+0.535,-0.141,-0.244,+0.935,-0.010,-0.341,+0.625,+1.750,+5.438,1, 1, -1, -2, 1, -2, -2, 0,-2.5719677008798003,1.1725073298202946,12
1503683190049,+0.797,+0.535,-0.141,-0.244,+0.927,+0.011,-0.333,+0.000,-1.062,+7.000,-2, -1, 3, 0, -1, 0, 0, -2,-2.5719677008798003,1.1725073298202946,12
1503683190071,+0.796,+0.536,-0.140,-0.245,+0.920,-0.013,-0.280,+3.062,+1.875,+7.875,-2, 9, 5, 1, 0, 0, -1, -3,-2.5711403984859764,1.174086167531189,12
1503683190093,+0.795,+0.537,-0.138,-0.245,+0.910,+0.006,-0.299,+6.438,+3.500,+12.812,1, 0, 0, 1, 0, -1, -2, -1,-2.5725683509228974,1.1748623522103532,12
1503683190109,+0.794,+0.538,-0.136,-0.246,+0.948,+0.015,-0.323,+7.500,+2.188,+18.188,-12, -5, -1, -1, -2, -3, 2, -4,-2.5726701911931897,1.1757616744335877,12
1503683190131,+0.794,+0.539,-0.133,-0.248,+0.937,+0.005,-0.319,+7.938,-0.500,+23.062,6, 3, 0, -1, -2, -1, -1, 1,-2.5736515891219165,1.1765090319617935,12
1503683190153,+0.793,+0.540,-0.129,-0.250,+0.933,-0.038,-0.341,+15.250,+0.250,+22.688,-3, -4, -1, -1, -1, -1, 0, -2,-2.574268541339925,1.1761967426699096,12
1503683190169,+0.792,+0.543,-0.125,-0.250,+0.964,-0.068,-0.306,+17.188,+8.125,+19.875,-3, -1, -5, -2, 0, -2, -3, -1,-2.5795012092857794,1.1809745475328886,12
1503683190192,+0.791,+0.544,-0.122,-0.251,+0.962,-0.077,-0.331,+14.938,+2.688,+20.062,-3, -7, -2, -1, 0, -2, 0, -1,-2.5806118536056153,1.1813270552835935,12
1503683190213,+0.791,+0.545,-0.118,-0.252,+0.946,-0.083,-0.363,+11.562,+0.375,+17.562,4, -1, -1, -2, -2, 0, -2, 1,-2.583928259837429,1.1814942259414318,12
1503683190235,+0.790,+0.547,-0.115,-0.253,+0.962,-0.064,-0.385,+12.688,+7.750,+17.125,1, -4, -1, -2, -3, -3, 0, -1,-2.586045231109309,1.184553897032411,12
1503683190256,+0.788,+0.551,-0.113,-0.252,+0.974,-0.070,-0.361,+16.438,+25.750,+9.000,-13, -2, 2, -1, 0, 0, 0, 1,-2.5906546240729664,1.1929677219719097,12
1503683190273,+0.782,+0.560,-0.113,-0.249,+1.012,-0.101,-0.331,+20.000,+58.812,-1.188,4, 2, 0, 2, 0, 1, 1, 0,-2.596131835350156,1.2141725703182493,12
1503683190296,+0.776,+0.570,-0.114,-0.245,+1.077,-0.093,-0.325,+17.188,+70.188,-2.250,4, 1, 0, 1, 0, -1, -2, 0,-2.6031478601309277,1.2388341178566988,12
1503683190311,+0.771,+0.578,-0.115,-0.241,+1.065,-0.035,-0.298,+17.750,+62.500,-2.312,6, -1, -2, -1, -2, -2, -1, -1,-2.609508972225594,1.2587609332731644,12
1503683190335,+0.766,+0.587,-0.116,-0.236,+0.943,-0.009,-0.281,+20.750,+64.562,-9.625,-1, 2, 3, 1, 2, 2, -2, 1,-2.6182679690968627,1.2815150045538797,12
1503683190355,+0.761,+0.595,-0.114,-0.231,+0.851,-0.053,-0.296,+33.750,+63.188,+0.812,4, 12, 2, 1, 0, 0, 0, 1,-2.6292446273585623,1.3000672558417588,12
1503683190371,+0.757,+0.603,-0.111,-0.225,+0.874,-0.137,-0.243,+42.688,+50.812,-8.562,-2, -8, 0, 1, -2, -2, 1, -3,-2.643869561036487,1.3185811770387268,12
1503683190394,+0.754,+0.610,-0.108,-0.220,+0.964,-0.191,-0.099,+34.250,+35.562,-12.625,-6, 2, 0, -2, -1, -1, 0, -2,-2.657369184519602,1.3349620556755049,12
1503683190423,+0.751,+0.615,-0.107,-0.216,+0.926,-0.158,-0.111,+24.000,+28.312,-8.188,-4, -4, -4, -1, -1, -2, -2, -1,-2.6655265052108295,1.3471159136325503,12
1503683190431,+0.748,+0.619,-0.106,-0.213,+0.872,-0.127,-0.147,+15.750,+33.250,-9.188,-5, 1, -1, -2, -1, 1, 0, 2,-2.6714503076343155,1.3566570732896683,12
1503683190455,+0.746,+0.624,-0.107,-0.209,+0.893,-0.118,-0.188,+9.625,+35.438,-14.062,0, -5, -1, -1, -1, -1, -1, -1,-2.6784188140539107,1.3702461709669909,12
1503683197480,+0.784,+0.540,-0.163,-0.261,+0.955,-0.011,-0.297,-0.938,+1.688,-0.062,-2, -3, 2, 1, -1, 0, -2, 1,-2.5173432000845395,1.198700264317178,13
1503683197495,+0.784,+0.540,-0.163,-0.260,+0.931,-0.011,-0.315,+0.625,-0.500,+0.500,0, -2, 0, 1, 0, 1, -2, -2,-2.518614903635069,1.1985817352431212,13
1503683197517,+0.784,+0.540,-0.162,-0.260,+0.919,-0.037,-0.325,+1.688,+3.312,+1.125,1, 2, 1, 0, 1, 0, -2, 1,-2.519492175671999,1.1977868965815976,13
1503683197540,+0.783,+0.541,-0.162,-0.260,+0.950,-0.051,-0.341,+1.250,+7.562,+0.625,0, 5, -1, -1, -1, -1, -1, 0,-2.5190845888802444,1.1999787126234864,13
1503683197557,+0.782,+0.543,-0.162,-0.259,+0.954,-0.012,-0.316,+0.500,+9.938,-1.500,3, -7, -5, -2, -1, -1, -1, -1,-2.5209561652286463,1.2046467555378284,13
1503683197577,+0.781,+0.544,-0.163,-0.259,+0.934,-0.015,-0.281,-2.125,+8.250,+0.875,-8, -2, -1, -3, -2, -1, -2, -2,-2.5196737224077257,1.207641422049354,13
1503683197600,+0.780,+0.545,-0.163,-0.259,+0.921,+0.002,-0.287,-1.562,+11.125,+4.438,-5, -2, -3, -1, 0, -1, 0, -1,-2.5192789850881794,1.2098472307543362,13
1503683197615,+0.779,+0.547,-0.163,-0.260,+0.934,+0.019,-0.310,-0.562,+9.625,+6.750,-3, 2, 0, -1, -2, -3, -2, -3,-2.5186327829380724,1.2147660075995415,13
1503683197637,+0.778,+0.548,-0.163,-0.260,+0.947,+0.031,-0.285,-0.875,+7.188,+10.250,-1, -3, -5, -1, -1, -1, -4, -1,-2.518250885294809,1.2169811424755552,13
1503683197661,+0.776,+0.550,-0.162,-0.261,+0.920,+0.022,-0.242,+3.375,+10.375,+13.812,5, -3, 0, -1, 0, -2, 0, 0,-2.5171315004496595,1.2207442127395391,13
1503683197675,+0.775,+0.552,-0.161,-0.262,+0.931,+0.019,-0.264,+7.250,+10.000,+18.500,-5, 0, 0, 0, -1, 1, -1, 0,-2.517431309428961,1.2248989483031225,13
1503683197697,+0.774,+0.554,-0.158,-0.263,+0.984,+0.002,-0.267,+8.438,+5.812,+19.625,-2, -1, -1, 0, 0, -1, -1, -1,-2.5195518596794,1.2275124712228178,13
1503683197720,+0.772,+0.557,-0.156,-0.264,+1.005,-0.008,-0.231,+9.875,+11.688,+18.500,-1, 1, -3, -2, 0, 0, 1, 0,-2.5204739832466565,1.2331779888751861,13
1503683197735,+0.771,+0.559,-0.156,-0.261,+1.034,+0.063,-0.253,+10.375,+9.812,+0.562,1, 3, 0, 0, -1, -1, -1, 0,-2.524970824932274,1.23774040435519,13
1503683197757,+0.770,+0.562,-0.154,-0.258,+1.078,+0.034,-0.268,+24.500,+13.125,+3.500,-1, 2, 0, -2, -3, -1, -1, -1,-2.53236704245297,1.2434382218618745,13
1503683197780,+0.768,+0.568,-0.150,-0.256,+1.003,-0.020,-0.356,+31.938,+34.625,+11.562,-3, -1, -3, -2, 0, -2, -2, -5,-2.54219217832306,1.255377287260765,13
1503683197799,+0.764,+0.574,-0.147,-0.253,+1.012,+0.004,-0.430,+29.312,+47.812,+16.000,1, -2, -3, -1, 1, 0, 0, 0,-2.5498761201496247,1.2674321740157293,13
1503683197817,+0.761,+0.581,-0.146,-0.249,+1.009,+0.139,-0.327,+32.938,+49.250,+8.625,1, 6, 3, 1, 0, -2, -2, -1,-2.5593825793631235,1.2839964714675858,13
1503683197840,+0.762,+0.584,-0.139,-0.243,+1.031,+0.054,-0.423,+56.812,+20.125,+8.750,0, 3, 2, 0, 0, 0, 2, 1,-2.5782676486585276,1.2870457683762662,13
1503683197855,+0.765,+0.585,-0.127,-0.237,+1.000,-0.050,-0.382,+76.688,-10.625,+11.938,-4, -1, 1, 0, 1, 2, 1, 0,-2.6026710602927796,1.2824949608622584,13
1503683197879,+0.770,+0.584,-0.112,-0.231,+0.915,-0.146,-0.347,+86.438,-33.375,+14.438,0, -2, -2, -2, -1, 0, -1, -1,-2.630643714672388,1.2721508182545014,13
1503683197900,+0.773,+0.585,-0.098,-0.226,+0.842,-0.182,-0.281,+85.750,-13.125,+17.062,-4, -6, -3, -1, 0, -1, -3, 1,-2.6560850878168694,1.268034980372293,13
1503683197915,+0.772,+0.590,-0.085,-0.218,+0.806,-0.167,-0.263,+85.875,+17.250,+7.812,1, 7, -1, 0, -2, -2, -2, -2,-2.6844440575629243,1.274561949263036,13
1503683197937,+0.770,+0.598,-0.073,-0.210,+0.809,-0.207,-0.223,+92.438,+33.625,+2.188,-2, -5, -3, 1, 1, 0, 1, 2,-2.7138996868705907,1.290308117787747,13
1503683197961,+0.766,+0.608,-0.061,-0.200,+0.880,-0.295,-0.100,+93.312,+41.875,-5.438,-1, -5, -5, -3, -1, -2, -3, -2,-2.7465905975598432,1.3118208237466522,13
1503683197975,+0.761,+0.618,-0.052,-0.190,+0.934,-0.339,-0.078,+80.062,+46.688,-12.375,-3, -2, 1, 1, -1, -2, 0, -1,-2.7755511090299656,1.3349967913856358,13
1503683197998,+0.758,+0.625,-0.045,-0.182,+0.930,-0.299,-0.128,+65.250,+40.625,-17.062,6, 1, -2, -2, -1, -1, -3, -3,-2.798679157723636,1.3516287165919674,13
1503683198020,+0.755,+0.631,-0.040,-0.174,+0.952,-0.259,-0.122,+51.188,+28.312,-19.375,0, -3, 5, 2, 0, -1, 1, 3,-2.8187890418717694,1.366317235583146,13
1503683198035,+0.753,+0.636,-0.037,-0.166,+0.927,-0.197,-0.095,+45.500,+30.375,-22.750,-4, -5, -3, -3, -3, -1, 0, 1,-2.836420397193062,1.379106462583885,13
1503683198059,+0.749,+0.643,-0.034,-0.158,+0.942,-0.185,+0.005,+43.938,+35.562,-25.188,2, -5, -2, 2, 0, 1, 1, 2,-2.8542615932855857,1.3972046412323966,13
1503683198080,+0.744,+0.650,-0.033,-0.151,+1.035,-0.195,-0.019,+32.688,+40.250,-23.000,-6, -2, -5, -5, -2, 1, -2, -4,-2.8676026038878986,1.4156599182449265,13
1503683206285,+0.709,+0.675,-0.114,-0.167,+1.013,+0.004,-0.011,+8.750,+10.000,-18.062,-2, -2, -2, -2, -1, -2, -3, 0,-2.738663596858913,1.5078206676297727,14
1503683206300,+0.708,+0.677,-0.115,-0.163,+1.045,-0.048,-0.002,+6.125,+11.375,-16.938,-6, -7, -3, -3, -3, -1, 0, -6,-2.743539447130799,1.5137448198880554,14
1503683206323,+0.707,+0.678,-0.117,-0.161,+1.048,-0.062,+0.003,+3.250,+12.375,-17.062,2, 2, -1, -2, -2, 0, 2, 3,-2.743688812639105,1.5173989042908171,14
1503683206345,+0.708,+0.678,-0.118,-0.158,+1.096,-0.061,-0.042,+3.500,+4.938,-14.750,-2, -1, -2, -1, -2, -1, -2, -2,-2.7471595837416487,1.5179206670003513,14
1503683206360,+0.710,+0.677,-0.118,-0.156,+1.118,-0.083,-0.003,+5.312,-15.875,-13.062,3, 5, 4, -2, -1, 0, -1, 1,-2.750552913089085,1.5152569832589553,14
1503683206384,+0.713,+0.673,-0.118,-0.153,+1.067,-0.076,+0.026,+10.875,-28.875,-20.438,-2, -4, -2, 0, 0, 0, -2, 0,-2.7536636329624042,1.5043212086943667,14
1503683206406,+0.716,+0.671,-0.119,-0.149,+1.008,-0.073,+0.009,+9.125,-20.688,-28.562,0, -2, -1, 1, -2, -3, -5, -5,-2.7585296794007803,1.499459617805388,14
1503683206421,+0.718,+0.669,-0.121,-0.147,+1.018,-0.049,+0.016,+0.875,-14.938,-20.562,1, 1, -1, 0, 0, 0, 1, 2,-2.7587410327407005,1.4950615159742264,14
1503683206443,+0.720,+0.667,-0.122,-0.147,+1.092,-0.014,+0.010,-7.125,-17.188,-9.250,0, -4, -1, -2, 0, 0, 1, 3,-2.7575588113647,1.4902222529996987,14
1503683206468,+0.723,+0.664,-0.123,-0.148,+1.125,+0.016,+0.120,-9.188,-37.500,-0.688,1, -4, -4, -1, -1, -1, 0, 2,-2.75510224935765,1.482770093419896,14
1503683206487,+0.728,+0.658,-0.123,-0.148,+1.025,+0.063,-0.038,-4.125,-46.000,-5.062,0, 4, -1, -1, 1, 1, 2, 0,-2.7545880855649956,1.4667803316591075,14
1503683206503,+0.734,+0.651,-0.126,-0.145,+0.840,+0.099,-0.074,-4.500,-49.938,-25.000,0, -4, -2, 0, -1, 0, -3, -4,-2.754704231607889,1.4497968619452528,14
1503683206525,+0.738,+0.647,-0.128,-0.144,+0.810,+0.098,-0.101,-1.750,-23.375,-10.875,-1, -1, 0, -1, 0, -1, -1, 5,-2.754059331608995,1.4404553177141668,14
1503683206547,+0.737,+0.648,-0.128,-0.145,+0.944,+0.051,-0.080,-5.500,+6.312,+5.188,-1, 0, -2, -1, -3, -3, -3, -2,-2.752589581343597,1.4430789168301685,14
1503683206563,+0.735,+0.650,-0.128,-0.146,+1.043,+0.078,-0.014,-5.188,+7.125,+12.875,-2, -5, 0, -2, 1, -1, 0, -4,-2.751029632133636,1.448303642933976,14
1503683206585,+0.736,+0.648,-0.128,-0.146,+1.053,+0.093,-0.084,-1.812,-13.000,+9.312,-1, 5, 2, -3, -2, -1, -1, -2,-2.7503755881812824,1.4429463705062013,14
1503683206608,+0.739,+0.644,-0.128,-0.148,+0.987,+0.034,-0.096,-6.438,-27.062,+1.812,2, -3, 0, 0, -1, -1, 0, 0,-2.7472078948579957,1.4324940371983468,14
1503683206623,+0.742,+0.642,-0.127,-0.149,+0.974,+0.047,-0.085,-4.875,-22.688,+10.125,0, -2, -3, 1, 1, 0, 1, 1,-2.7481121032499707,1.4270166706681644,14
1503683206646,+0.743,+0.640,-0.125,-0.151,+0.994,+0.064,-0.110,-0.375,-13.562,+16.625,0, -1, 0, 0, -1, -1, -4, -7,-2.7470982687365,1.4206885469168522,14
1503683206670,+0.745,+0.638,-0.123,-0.152,+1.058,+0.042,-0.079,+4.500,-21.312,+16.625,1, 2, -1, -1, -2, -2, 1, 3,-2.748304900689095,1.414538019357125,14
1503683206683,+0.747,+0.636,-0.120,-0.154,+1.015,-0.042,-0.081,+6.812,-25.938,+10.312,-2, -4, -1, -2, -1, -2, -2, -4,-2.7492956695083426,1.4079312667055106,14
1503683206705,+0.749,+0.633,-0.117,-0.154,+0.975,-0.070,-0.134,+6.312,-21.250,+5.875,-3, -1, 2, 0, 1, -2, -2, -3,-2.7522838703690264,1.3985398265634186,14
1503683206727,+0.751,+0.632,-0.115,-0.155,+0.958,-0.031,-0.158,+4.688,-10.250,+3.688,4, 10, 5, -1, -2, 1, 1, 4,-2.7541947466311196,1.3952443322522887,14
1503683206744,+0.751,+0.632,-0.113,-0.154,+0.995,-0.010,-0.143,+9.812,-1.438,+8.312,-3, -6, -5, 0, 1, -3, -3, -2,-2.7579279209320298,1.394198191140795,14
1503683206765,+0.750,+0.634,-0.111,-0.154,+0.973,-0.064,-0.096,+13.625,+6.625,+4.938,0, -5, -2, -2, -3, -1, -2, -3,-2.7609162708221096,1.398498166442143,14
1503683206787,+0.748,+0.637,-0.109,-0.152,+0.905,-0.109,-0.089,+13.375,+18.062,-3.250,-2, -1, -3, -1, 0, -1, 2, 0,-2.7666202290163278,1.4053003511182927,14
1503683206803,+0.745,+0.641,-0.107,-0.149,+0.917,-0.114,-0.109,+19.000,+28.875,-4.688,-3, 1, -1, 0, -1, -1, -1, -1,-2.7736760169442243,1.4146870984433424,14
1503683206825,+0.742,+0.646,-0.106,-0.145,+0.868,-0.109,-0.097,+18.688,+41.938,-14.500,-2, 0, -3, -1, -1, 0, -1, 0,-2.7816775849349242,1.4273617964827232,14
1503683206847,+0.737,+0.653,-0.106,-0.141,+0.892,-0.070,-0.053,+15.812,+50.500,-15.062,-3, -1, -3, -2, -1, -1, -2, -4,-2.7883536948043472,1.4457883083288732,14
1503683206863,+0.730,+0.661,-0.108,-0.137,+0.907,-0.056,-0.071,+8.875,+64.312,-15.438,3, -1, -1, -2, -1, 2, 1, 0,-2.7917805857285303,1.4677794105594342,14
1503683206885,+0.723,+0.669,-0.111,-0.135,+1.098,-0.030,-0.020,-3.250,+63.250,-9.812,1, 0, 0, -3, -1, -1, -3, 4,-2.791227287868582,1.4905195423624709,14
1503683206907,+0.719,+0.673,-0.110,-0.134,+1.164,+0.070,-0.080,+5.125,+38.688,+15.875,0, 3, 0, 1, -1, 0, 1, -1,-2.793748782633048,1.5007763931069356,14
1503683206923,+0.718,+0.675,-0.106,-0.133,+1.134,-0.008,-0.082,+20.875,+9.938,+11.938,-4, -1, -2, -2, -2, -4, 0, -2,-2.8008736875121008,1.5044494726441322,14
1503683206945,+0.719,+0.674,-0.102,-0.130,+1.052,-0.036,-0.053,+25.062,-6.125,-1.125,-2, -9, -5, 2, -1, 1, -2, -2,-2.810059610128285,1.4999722003585143,14
1503683206967,+0.721,+0.673,-0.099,-0.129,+0.961,-0.080,-0.062,+20.312,-12.250,+2.875,-3, -3, 1, -2, 0, -3, -2, -4,-2.8159522518586275,1.4960968227733664,14
1503683206983,+0.721,+0.675,-0.096,-0.128,+0.885,-0.085,-0.080,+14.125,+11.938,+5.750,4, 3, 0, -1, -2, 1, 1, 3,-2.822495731834569,1.5004484607032476,14
1503683207006,+0.717,+0.679,-0.095,-0.126,+0.934,-0.015,-0.041,+11.312,+35.312,+5.000,0, 1, 0, 1, 0, -1, -2, 1,-2.826542892501538,1.5108577443749733,14
1503683207027,+0.712,+0.685,-0.094,-0.123,+1.063,+0.043,+0.007,+15.625,+44.812,+3.188,1, 2, 0, -2, 0, -1, -1, 1,-2.832667303139616,1.5268834754459006,14
1503683219110,+0.812,+0.509,-0.136,-0.251,+0.885,-0.020,-0.407,+1.688,-0.250,+1.250,0, -6, -4, -1, -3, -2, -2, -3,-2.5634390276819197,1.1094739390779014,15
1503683219132,+0.812,+0.509,-0.136,-0.250,+0.873,-0.017,-0.409,+3.250,+4.062,+1.938,-2, -7, -3, -2, -2, -3, -4, -6,-2.5648013056559096,1.109352755444861,15
1503683219154,+0.811,+0.511,-0.135,-0.250,+0.910,-0.013,-0.398,+5.000,+8.062,+2.312,-4, -6, -2, 0, 0, 0, -2, -3,-2.5660777619634385,1.113292798561602,15
1503683219170,+0.811,+0.513,-0.135,-0.249,+0.941,-0.021,-0.368,+5.312,+8.750,+2.375,0, 0, 3, 0, -2, -2, 0, -3,-2.5692104381727012,1.118281413834403,15
1503683219191,+0.810,+0.514,-0.134,-0.249,+0.919,-0.003,-0.375,+5.688,+4.188,+3.125,-3, -4, -4, -1, 2, -1, -3, -4,-2.569622904394588,1.1196876664277715,15
1503683219214,+0.810,+0.515,-0.133,-0.248,+0.875,+0.000,-0.358,+9.938,+4.938,+5.188,-2, -3, -3, -2, -3, 0, -1, 1,-2.5727392712907826,1.121433281423706,15
1503683219231,+0.809,+0.517,-0.131,-0.247,+0.893,+0.003,-0.404,+13.062,+11.875,+7.188,-3, 4, 2, -4, -1, -1, -3, -1,-2.5762976397903143,1.1246169659870766,15
1503683219251,+0.808,+0.520,-0.129,-0.246,+0.896,-0.024,-0.363,+13.312,+18.188,+5.375,0, -10, -4, 0, -1, -2, -1, -3,-2.580774207453197,1.1304049403538319,15
1503683219274,+0.806,+0.524,-0.127,-0.245,+0.940,-0.061,-0.332,+14.188,+18.375,+5.625,-2, -6, -4, -1, -2, -2, -1, -5,-2.5848848092139804,1.1383772237206349,15
1503683219289,+0.805,+0.526,-0.125,-0.244,+0.928,-0.055,-0.376,+16.812,+11.250,+8.250,-3, -1, -3, 0, -2, -1, 1, 0,-2.5885460545055317,1.1416755222461368,15
1503683219311,+0.805,+0.528,-0.122,-0.243,+0.891,-0.025,-0.380,+20.062,+4.625,+6.062,-3, 0, 1, -1, 0, 0, 0, 1,-2.5944035018363487,1.1447950346474303,15
1503683219334,+0.804,+0.530,-0.118,-0.242,+0.890,-0.008,-0.374,+23.562,+7.188,+9.875,1, 0, -1, -2, -1, -2, -2, -1,-2.599937899963855,1.1468970727716008,15
1503683219349,+0.803,+0.533,-0.115,-0.241,+0.892,-0.042,-0.322,+19.875,+17.375,+15.250,1, 0, -2, 1, 0, -2, -2, 1,-2.605505970013861,1.15230368403262,15
1503683219372,+0.799,+0.538,-0.113,-0.242,+0.952,-0.040,-0.315,+10.688,+25.688,+22.500,0, 0, 0, -2, 0, -2, 0, 0,-2.605575745286211,1.162508237931779,15
1503683219394,+0.797,+0.542,-0.110,-0.244,+1.028,+0.010,-0.347,+10.312,+19.562,+26.688,2, 0, -1, -2, -2, -1, 0, 1,-2.6068415717155786,1.1705142894502951,15
1503683219410,+0.794,+0.545,-0.107,-0.246,+0.968,-0.038,-0.356,+15.062,+18.812,+30.688,0, 0, 2, -1, 1, -1, 2, 2,-2.606068529402453,1.1755332182475946,15
1503683219440,+0.790,+0.551,-0.103,-0.248,+0.965,-0.117,-0.356,+12.000,+33.250,+30.125,-2, 10, 4, 2, -1, 1, 1, -2,-2.6079874225924975,1.18756847644245,15
1503683219454,+0.784,+0.559,-0.102,-0.250,+1.033,-0.124,-0.321,+6.375,+52.750,+29.000,-3, -7, -1, 1, -1, 1, 0, -1,-2.6068112530102012,1.20597771726554,15
1503683219485,+0.777,+0.568,-0.101,-0.252,+1.075,-0.092,-0.303,+6.125,+58.062,+27.938,-3, 0, -1, -1, -2, -1, -2, -3,-2.605738226140323,1.2268891845772771,15
1503683219495,+0.771,+0.575,-0.103,-0.252,+1.011,-0.068,-0.260,-1.500,+53.188,+16.375,-1, -4, -1, -1, 0, 0, -2, -2,-2.6038111631124496,1.244566701312401,15
1503683219514,+0.766,+0.584,-0.106,-0.249,+0.899,-0.019,-0.303,+6.438,+69.562,-5.125,-1, -4, -3, -1, -1, -2, -2, 0,-2.6081617111711077,1.268556057474611,15
1503683219537,+0.760,+0.592,-0.105,-0.247,+0.856,-0.153,-0.296,+18.188,+63.062,+4.750,0, -15, -3, -2, 0, -2, -2, -2,-2.613211492700891,1.2875446668781907,15
1503683219551,+0.753,+0.601,-0.104,-0.245,+0.906,-0.209,-0.205,+18.688,+65.812,+1.062,1, 2, 0, -1, 0, 0, 1, 2,-2.6184111080750445,1.309202972490021,15
1503683219575,+0.746,+0.612,-0.105,-0.241,+0.983,-0.194,-0.104,+20.938,+67.500,-7.000,0, -2, -4, 1, -3, 1, 0, 0,-2.6264323916469516,1.3376362448561638,15
1503683219597,+0.741,+0.620,-0.105,-0.235,+1.016,-0.181,-0.134,+26.750,+55.812,-14.625,-8, 7, 3, -1, -1, -1, -1, -5,-2.6372974746223488,1.3580438625676996,15
1503683219611,+0.738,+0.626,-0.105,-0.228,+0.978,-0.190,-0.185,+27.500,+42.188,-26.938,1, 3, -2, 1, -1, -1, -3, 0,-2.649527192357155,1.373572134069108,15
1503683219634,+0.737,+0.630,-0.105,-0.222,+0.938,-0.210,-0.193,+23.938,+30.625,-28.750,-1, -1, -1, -4, -1, 0, 0, -2,-2.6604146620722426,1.384168380667291,15
1503683219656,+0.735,+0.633,-0.105,-0.218,+0.914,-0.213,-0.162,+17.625,+28.375,-23.188,3, 4, 1, 1, 1, 1, 4, 6,-2.6666909043710296,1.3918703141345203,15
1503683219671,+0.733,+0.638,-0.106,-0.213,+0.900,-0.184,-0.103,+12.562,+32.625,-22.375,-2, -2, -2, 0, -3, 0, 0, 2,-2.675085528622643,1.405618540303274,15
1503683219694,+0.729,+0.643,-0.108,-0.209,+0.934,-0.175,-0.098,+9.938,+42.438,-21.250,4, 6, 11, 2, 1, -2, 1, 2,-2.679096552961493,1.4195401610381377,15
1503683219716,+0.724,+0.650,-0.111,-0.205,+1.006,-0.143,-0.093,+8.812,+54.688,-22.312,-5, -4, -5, -2, -2, -2, -3, -9,-2.682914831003519,1.4394432243988478,15
1503683219734,+0.720,+0.654,-0.114,-0.200,+1.058,-0.054,-0.102,+9.875,+40.500,-22.562,-4, -4, -2, -1, -2, -2, 0, -1,-2.686050824270203,1.4512747480131831,15
1503683226702,+0.787,+0.546,-0.151,-0.244,+0.937,-0.027,-0.328,-0.500,-0.875,+0.125,1, -1, -5, -2, -2, 1, -1, 1,-2.560000521110902,1.2042906907528752,16
1503683226721,+0.787,+0.546,-0.151,-0.244,+0.958,-0.029,-0.314,-2.688,+0.625,+0.750,1, 3, 3, 0, 0, -3, -2, -1,-2.560000521110902,1.2042906907528752,16
1503683226737,+0.787,+0.546,-0.151,-0.244,+0.953,-0.019,-0.301,-3.688,-0.625,+0.062,4, 5, -1, 0, 0, -2, -1, -1,-2.560000521110902,1.2042906907528752,16
1503683226759,+0.787,+0.546,-0.151,-0.245,+0.943,-0.014,-0.282,-3.750,-2.875,+1.625,-4, -7, 0, 0, 0, 0, 0, -1,-2.5586854675054806,1.20439894073946,16
1503683226781,+0.787,+0.546,-0.151,-0.245,+0.947,-0.010,-0.299,-1.312,-2.625,+3.188,-4, -2, 0, 1, -1, -2, -2, 1,-2.5586854675054806,1.20439894073946,16
1503683226797,+0.787,+0.546,-0.151,-0.245,+0.952,-0.031,-0.322,-0.438,-2.312,+1.875,-8, 1, 1, -2, -1, -1, 2, -3,-2.5586854675054806,1.20439894073946,16
1503683226819,+0.787,+0.546,-0.151,-0.245,+0.947,+0.000,-0.315,-2.312,+2.875,-0.875,1, -1, 2, 0, 0, 0, -1, -2,-2.5586854675054806,1.20439894073946,16
1503683226842,+0.787,+0.546,-0.152,-0.244,+0.940,+0.018,-0.310,-0.562,+2.000,-2.250,3, 3, -1, -2, -1, -1, -1, -1,-2.559087929454377,1.2050315354889602,16
1503683226857,+0.787,+0.546,-0.152,-0.244,+0.913,-0.002,-0.310,+0.562,+3.875,-0.438,0, -1, -2, -2, 0, -1, -2, -3,-2.559087929454377,1.2050315354889602,16
1503683226880,+0.786,+0.548,-0.152,-0.243,+0.913,-0.011,-0.304,+1.688,+8.375,+1.562,0, -9, -3, -1, 0, -1, 0, 0,-2.5609769524793164,1.2097442745684583,16
1503683226904,+0.785,+0.549,-0.151,-0.243,+0.950,-0.040,-0.306,+2.562,+11.500,+3.875,0, 0, -2, -1, -1, 0, 0, 1,-2.561527951936664,1.21122681078062,16
1503683226918,+0.784,+0.551,-0.151,-0.244,+0.985,-0.046,-0.299,-0.750,+8.188,+4.188,-3, -3, 1, 2, -3, -1, -1, -2,-2.560809822974987,1.2161694557709817,16
1503683226939,+0.783,+0.551,-0.151,-0.244,+0.966,-0.021,-0.298,+0.312,+2.938,+3.188,-3, 2, 7, 0, -2, -1, -2, -2,-2.5594952086483174,1.215786351800393,16
1503683226961,+0.784,+0.551,-0.150,-0.244,+0.942,-0.017,-0.287,+1.375,-4.312,+5.000,2, -6, -2, -1, -1, 0, 0, 1,-2.5617311589285148,1.2154351847361784,16
1503683226979,+0.783,+0.551,-0.149,-0.245,+0.902,-0.009,-0.282,+1.250,-0.812,+9.312,-2, -3, -4, -3, -3, -2, -2, -2,-2.5600295601718632,1.214423627783209,16
1503683226999,+0.783,+0.552,-0.147,-0.246,+0.920,+0.001,-0.284,+2.875,+2.500,+12.938,-4, -1, -1, 1, -2, -2, -1, -1,-2.5615303441439337,1.2156895784057804,16
1503683227021,+0.782,+0.554,-0.146,-0.247,+0.940,+0.020,-0.265,+3.500,+6.438,+16.875,1, -5, -4, -1, -1, -2, -3, -1,-2.5617777525962744,1.2199245484596957,16
1503683227038,+0.780,+0.556,-0.144,-0.248,+0.974,+0.022,-0.248,+6.750,+5.938,+18.125,0, 1, 1, 1, -1, 0, -2, -6,-2.561680488403934,1.2230794271194012,16
1503683227059,+0.779,+0.558,-0.142,-0.250,+0.963,-0.004,-0.211,+5.375,+5.062,+23.062,-2, 7, 2, 0, -1, 2, 0, 1,-2.561607244420427,1.2267356062226047,16
1503683227081,+0.777,+0.559,-0.140,-0.252,+1.010,+0.028,-0.219,+4.312,+0.812,+25.750,-2, -4, -3, -2, -2, 0, -1, 2,-2.5592824635587843,1.227401347494448,16
1503683227097,+0.775,+0.562,-0.139,-0.252,+1.068,+0.033,-0.214,+7.000,+10.062,+15.000,-1, -7, -6, -2, -2, -2, -2, -2,-2.5606513380659828,1.2338703102279216,16
1503683227119,+0.773,+0.567,-0.138,-0.250,+1.061,+0.005,-0.250,+17.750,+27.375,+9.688,1, 7, -1, 1, 0, 2, -1, 0,-2.5666711917664062,1.2454902937942707,16
1503683227143,+0.769,+0.574,-0.135,-0.248,+1.084,-0.010,-0.326,+26.062,+42.938,+16.312,-2, 2, 2, -1, 0, -3, -3, -3,-2.5741928884277994,1.2604526907629343,16
1503683227157,+0.764,+0.581,-0.135,-0.246,+1.081,+0.063,-0.286,+17.062,+48.562,+13.938,-9, -7, 0, -2, -1, 0, 0, -5,-2.577730252454464,1.2772528957960272,16
1503683227179,+0.759,+0.589,-0.138,-0.242,+0.912,+0.178,-0.227,+9.062,+64.000,+3.375,1, 15, 7, 3, 1, 0, -1, -3,-2.5820015818325395,1.2987339206344013,16
1503683227201,+0.753,+0.597,-0.136,-0.241,+0.882,+0.120,-0.276,+23.062,+60.250,+27.188,-2, -7, -5, -1, 0, -2, 1, 2,-2.586348167279463,1.3170253837500743,16
1503683227217,+0.748,+0.606,-0.131,-0.237,+0.901,+0.040,-0.271,+44.000,+62.062,+27.625,2, -3, -1, 0, -2, -1, -3, -3,-2.6001089890694997,1.336496073498145,16
1503683227239,+0.743,+0.615,-0.124,-0.233,+0.979,-0.046,-0.157,+57.562,+44.750,+21.375,2, 1, 3, 1, 1, 1, 0, 0,-2.616321811280382,1.355198687162247,16
1503683227261,+0.742,+0.620,-0.116,-0.227,+1.021,-0.148,-0.175,+58.625,+22.375,+11.125,-4, -2, 2, -2, -1, -1, 0, -1,-2.6367679892710894,1.363792553720239,16
1503683227278,+0.741,+0.623,-0.111,-0.222,+0.898,-0.141,-0.132,+43.938,+13.188,-6.250,-2, 0, -5, 0, 0, -1, -3, -4,-2.6507874968348046,1.3688709230780243,16
1503683227299,+0.740,+0.627,-0.106,-0.218,+0.815,-0.224,-0.206,+34.562,+22.688,-4.875,2, -3, -1, -1, -1, 1, 1, 1,-2.664571820029692,1.3769221810313264,16
1503683227321,+0.737,+0.632,-0.102,-0.216,+0.862,-0.261,-0.193,+27.312,+37.875,+1.938,5, 4, 7, -1, 0, 0, 1, 2,-2.673689279105254,1.3880111617871205,16
1503683227339,+0.733,+0.638,-0.100,-0.213,+0.925,-0.271,-0.147,+24.688,+41.188,-6.938,-5, -9, -2, -2, -1, 1, -2, 1,-2.6819816636377105,1.4027365102499598,16
1503683235503,+0.786,+0.548,-0.154,-0.241,+0.932,-0.001,-0.308,-0.688,+1.000,+3.000,0, 2, 0, 0, 1, 1, 0, 1,-2.5617732878716266,1.2110155123380935,17
1503683235526,+0.786,+0.548,-0.153,-0.241,+0.930,-0.005,-0.296,+1.875,+1.250,+4.812,1, -2, -3, -3, -2, -3, 0, -1,-2.5626911070343863,1.2102707213507335,17
1503683235549,+0.786,+0.549,-0.152,-0.241,+0.929,-0.000,-0.289,+8.938,+4.812,+6.062,-1, 2, -2, 0, 0, -1, -1, -1,-2.564553716764021,1.2121375569989195,17
1503683235571,+0.786,+0.550,-0.150,-0.240,+0.979,-0.032,-0.313,+8.188,+1.812,+2.938,1, 0, -3, -3, -1, 1, -1, 1,-2.5686579436489625,1.2131728208850858,17
1503683235588,+0.786,+0.550,-0.149,-0.240,+0.996,-0.032,-0.317,+6.125,-1.188,+0.312,1, 1, 4, 5, 1, 0, -2, 0,-2.569582533561745,1.212444354895807,17
1503683235601,+0.787,+0.550,-0.148,-0.239,+0.931,-0.006,-0.291,+5.500,-4.688,-2.188,-2, -3, 0, -5, -2, -2, -1, -1,-2.5731260419777344,1.2120017832716405,17
1503683235623,+0.787,+0.550,-0.148,-0.238,+0.938,-0.021,-0.291,+4.125,-0.125,-1.688,-5, -8, -2, -1, -1, 1, 0, -1,-2.5744520277342744,1.2118978289845068,17
1503683235647,+0.787,+0.551,-0.147,-0.237,+0.946,-0.027,-0.314,+2.938,+4.250,-1.500,2, 1, -1, -1, -1, 1, 2, 3,-2.5776394009167354,1.2136894433424865,17
1503683235661,+0.786,+0.551,-0.147,-0.237,+0.954,-0.028,-0.298,+1.562,+1.438,-0.062,3, 0, -2, 0, -2, -2, -3, -2,-2.5763558300449363,1.2133038409225672,17
1503683235684,+0.787,+0.551,-0.147,-0.237,+0.953,-0.015,-0.318,+1.688,-0.125,+1.188,-6, -2, 0, -3, 0, -3, -1, -2,-2.5776394009167354,1.2136894433424865,17
1503683235706,+0.787,+0.551,-0.146,-0.237,+0.931,-0.026,-0.308,+2.375,+0.250,+2.000,0, 6, 0, 1, -1, 0, 0, 1,-2.578570430973658,1.212974578558284,17
1503683235721,+0.786,+0.552,-0.145,-0.237,+0.941,-0.014,-0.302,+2.375,+3.312,+4.125,3, 5, 0, 1, -1, 1, 1, -2,-2.579156876544941,1.2144954848875076,17
1503683235743,+0.786,+0.552,-0.145,-0.237,+0.921,-0.012,-0.293,+1.062,+3.562,+6.938,-9, -6, -2, 0, 0, -2, -3, -5,-2.579156876544941,1.2144954848875076,17
1503683235765,+0.785,+0.554,-0.144,-0.238,+0.931,-0.010,-0.277,+1.438,+5.312,+11.000,-4, -1, 1, 1, 2, -1, -1, -3,-2.579359944756253,1.2187467999944435,17
1503683235781,+0.784,+0.556,-0.142,-0.239,+0.947,-0.006,-0.252,+6.375,+6.562,+14.062,5, 2, -1, 0, 0, -2, 0, -3,-2.5805231909441564,1.222310399656055,17
1503683235803,+0.783,+0.558,-0.140,-0.239,+0.906,+0.008,-0.291,+13.250,+10.688,+15.000,2, 3, -3, 0, -1, 0, 0, 3,-2.583037600005588,1.2258029164173094,17
1503683235825,+0.781,+0.560,-0.136,-0.239,+0.981,+0.014,-0.279,+15.938,+7.938,+20.312,9, 1, -2, -3, -2, 0, 0, 1,-2.5862368634557718,1.2275922745989878,17
1503683235848,+0.780,+0.563,-0.133,-0.240,+0.974,-0.006,-0.212,+15.250,+9.750,+22.375,-5, -4, 1, -2, -3, -1, -5, -2,-2.5894033450205542,1.2332310301377365,17
1503683235863,+0.778,+0.566,-0.131,-0.239,+0.997,-0.010,-0.325,+14.438,+16.625,+12.250,-3, -5, -1, -1, -1, -1, -1, -4,-2.5930865868978534,1.239035038350993,17
1503683235886,+0.774,+0.572,-0.130,-0.239,+1.081,-0.001,-0.375,+8.625,+45.438,+17.688,-4, 1, 0, 0, -1, 0, 0, 0,-2.5950034431508127,1.252881397817941,17
1503683235908,+0.767,+0.580,-0.129,-0.240,+1.095,-0.024,-0.391,+11.562,+65.312,+30.938,-1, -2, -1, -1, -1, -2, 0, 3,-2.594127760100104,1.2712363482541005,17
1503683235925,+0.763,+0.587,-0.127,-0.239,+1.148,+0.023,-0.380,+18.062,+49.750,+22.562,1, 4, 0, -1, 0, -1, -1, 0,-2.599687137296986,1.2873547507112841,17
1503683235947,+0.763,+0.590,-0.120,-0.236,+1.156,-0.086,-0.397,+48.625,+11.250,+14.562,3, 0, -2, -2, -2, -1, -2, -1,-2.6137302207040167,1.2909736708683153,17
1503683235968,+0.767,+0.589,-0.105,-0.234,+1.064,-0.209,-0.424,+71.812,-23.375,+27.875,-5, -3, -2, -2, -1, -1, -2, -1,-2.6353027751472693,1.2809695555463192,17
1503683235984,+0.772,+0.586,-0.087,-0.231,+0.964,-0.266,-0.379,+86.438,-46.812,+29.375,-2, -3, -3, -1, 0, -2, 1, -1,-2.66057611039958,1.2652486106905911,17
1503683236006,+0.775,+0.585,-0.069,-0.227,+0.847,-0.292,-0.322,+92.188,-31.125,+33.750,-1, 1, -1, 0, -1, -1, 1, -5,-2.6872642786003715,1.2554528513166672,17
1503683236030,+0.774,+0.591,-0.054,-0.222,+0.797,-0.289,-0.260,+92.562,+17.312,+21.625,2, -4, -2, -1, 0, -1, -2, -1,-2.7150698551363988,1.265761340402569,17
1503683236053,+0.770,+0.599,-0.040,-0.214,+0.820,-0.288,-0.259,+94.625,+39.875,+10.188,-3, -1, -2, -4, -3, -3, -2, -3,-2.7457998233815233,1.281954494567556,17
1503683236065,+0.765,+0.609,-0.028,-0.204,+0.901,-0.276,-0.171,+95.438,+49.688,+0.375,-1, 0, 3, 3, 0, 0, 0, 1,-2.778844732654003,1.3051016503756934,17
1503683236089,+0.760,+0.620,-0.018,-0.194,+0.904,-0.288,-0.107,+90.562,+52.875,-4.375,-3, 0, 1, 1, 0, -1, 0, -1,-2.8109079849671894,1.332564186506751,17
1503683236104,+0.755,+0.629,-0.008,-0.184,+0.949,-0.268,-0.093,+87.000,+39.375,-7.375,-4, -3, 0, 3, -2, 1, -1, -3,-2.841779589766575,1.3552588953895186,17
1503683236126,+0.752,+0.635,+0.002,-0.174,+0.897,-0.237,-0.094,+85.625,+27.250,-9.438,2, 1, -2, 0, -2, -4, -1, -1,-2.8718831152399056,1.3707088711869895,17
1503683236150,+0.750,+0.640,+0.009,-0.163,+0.862,-0.235,-0.027,+72.938,+17.438,-21.125,-1, 0, 0, -1, 1, 1, 1, 1,-2.8996764930463432,1.3842493842504608,17
1503683243131,+0.795,+0.541,-0.144,-0.234,+0.926,-0.009,-0.314,+1.250,+1.375,+3.688,-1, -5, -1, 0, 0, 1, -1, 0,-2.585549446131881,1.188308986336512,18
1503683243156,+0.794,+0.542,-0.144,-0.234,+0.914,-0.008,-0.301,+3.062,+6.938,+4.938,-3, -4, -4, -2, -1, -2, -2, -1,-2.5851678290707785,1.190508437948316,18
1503683243169,+0.793,+0.543,-0.143,-0.234,+0.951,-0.007,-0.309,+3.438,+5.625,+6.438,0, -2, -2, -1, 1, -1, 1, 1,-2.5857138972214453,1.192004631635127,18
1503683243191,+0.793,+0.544,-0.142,-0.235,+0.968,-0.020,-0.313,+2.125,+1.188,+8.500,-3, -3, -6, -1, -4, -2, -2, 0,-2.586195205049529,1.1940140975561384,18
1503683243213,+0.793,+0.544,-0.141,-0.235,+0.949,-0.005,-0.316,+3.625,-3.812,+7.688,-3, -1, 2, 0, -1, -1, 1, 0,-2.587120330934003,1.1933144655345456,18
1503683243229,+0.793,+0.544,-0.138,-0.236,+0.902,-0.017,-0.296,+8.750,-4.750,+7.938,0, 3, 0, 1, -1, 1, -1, 0,-2.588549214132475,1.191338338793716,18
1503683243251,+0.793,+0.545,-0.136,-0.236,+0.923,-0.002,-0.292,+12.625,-3.438,+12.562,2, 1, 0, 0, 2, 2, 0, -2,-2.5913154964180385,1.1925822013967669,18
1503683243272,+0.793,+0.545,-0.133,-0.237,+0.936,-0.015,-0.302,+9.375,-2.062,+14.250,-4, -7, -1, 0, 0, -1, -2, -3,-2.592753234169913,1.1906551273352757,18
1503683243289,+0.792,+0.547,-0.130,-0.237,+0.941,-0.021,-0.298,+12.688,+4.625,+14.812,-3, 0, 0, 0, -1, -2, 0, 2,-2.596136423103779,1.1934942370069002,18
1503683243311,+0.791,+0.550,-0.128,-0.237,+1.013,-0.050,-0.286,+13.750,+9.875,+12.625,2, -1, -1, 0, -1, 0, 0, 1,-2.5995289653567064,1.1996576497681861,18
1503683243333,+0.789,+0.554,-0.126,-0.235,+1.070,-0.054,-0.311,+17.688,+23.062,+3.562,-2, -1, 0, -2, -2, 1, 1, -2,-2.6053669710343974,1.207919101769212,18
1503683243358,+0.787,+0.558,-0.124,-0.233,+1.043,-0.066,-0.425,+18.125,+29.750,+3.375,-3, -1, -1, -1, 0, -2, -3, -6,-2.611265708986302,1.2162549100938234,18
1503683243371,+0.783,+0.564,-0.122,-0.233,+1.009,-0.071,-0.461,+16.250,+45.875,+16.125,0, -1, 1, 0, 0, 1, -4, -4,-2.613998664451925,1.229378451745236,18
1503683243394,+0.776,+0.574,-0.119,-0.233,+1.015,-0.132,-0.349,+18.562,+68.500,+22.938,2, 4, 3, 2, -1, -1, 0, 5,-2.618168338855546,1.2516234788076623,18
1503683243409,+0.769,+0.585,-0.116,-0.231,+1.063,-0.208,-0.334,+26.875,+78.125,+16.312,1, -3, -3, -2, 0, 0, 0, 5,-2.6263924021860747,1.2767995185817345,18
1503683243431,+0.762,+0.595,-0.111,-0.229,+1.085,-0.206,-0.345,+33.000,+68.812,+12.562,-1, -3, 3, 1, 0, -2, 1, -1,-2.6361478009774015,1.298586721432276,18
1503683243455,+0.759,+0.602,-0.105,-0.226,+1.109,-0.171,-0.332,+44.438,+44.000,+12.188,-1, 1, -1, 1, -1, -1, -1, -4,-2.650064702552127,1.3133078424977493,18
1503683243469,+0.757,+0.607,-0.095,-0.222,+1.037,-0.233,-0.301,+61.500,+20.688,+14.875,-1, 3, -1, -3, -1, -2, 0, 2,-2.6689799510380237,1.3211646170224833,18
1503683243492,+0.756,+0.612,-0.087,-0.216,+0.915,-0.202,-0.213,+58.375,+24.312,+4.938,0, -4, -4, 2, 1, 1, 0, 0,-2.6896699514856164,1.3306695076577326,18
1503683243513,+0.752,+0.619,-0.079,-0.211,+0.833,-0.236,-0.176,+57.750,+39.875,+5.875,-3, -2, -2, -4, -2, -1, -2, -4,-2.7082723430564477,1.3453152381949842,18
1503683243529,+0.747,+0.628,-0.072,-0.207,+0.829,-0.245,-0.193,+53.562,+55.938,+6.750,0, -1, 0, 0, 1, 0, -2, 1,-2.725619846971871,1.3662039978419154,18
1503683243553,+0.739,+0.640,-0.067,-0.200,+0.873,-0.190,-0.119,+54.812,+79.938,+2.188,1, 0, 0, -1, -2, -1, 0, 2,-2.7453136927841895,1.395959100312312,18
1503683243573,+0.730,+0.652,-0.063,-0.193,+0.929,-0.156,-0.104,+55.000,+85.125,-1.938,0, 0, 1, 0, -3, -1, 1, 0,-2.7634141214575756,1.4264994557090793,18
1503683243593,+0.723,+0.662,-0.060,-0.185,+0.960,-0.140,-0.076,+52.312,+69.750,-6.125,-5, -13, -7, -1, -1, 1, -3, -5,-2.7816621079871786,1.4525977488425836,18
1503683243611,+0.717,+0.672,-0.056,-0.178,+0.961,-0.158,-0.004,+46.625,+59.688,-7.938,-3, 0, 0, -1, -1, -2, -1, -3,-2.8005770930462406,1.478983734472864,18
1503683243633,+0.710,+0.680,-0.054,-0.172,+0.932,-0.130,+0.021,+40.750,+59.875,-9.938,3, 3, 0, -1, 0, 0, -1, 0,-2.813412268787118,1.5004293699649203,18
1503683243649,+0.705,+0.688,-0.053,-0.164,+0.951,-0.100,+0.021,+37.625,+56.312,-13.688,-1, -2, -5, -3, -2, 0, -1, -2,-2.8288727398756834,1.522534350322863,18
1503683243671,+0.700,+0.695,-0.053,-0.157,+0.958,-0.051,+0.008,+33.875,+46.625,-17.438,0, 0, 1, 0, 3, 1, -2, 5,-2.8407994279277835,1.5421756098407047,18
1503683243693,+0.696,+0.700,-0.053,-0.150,+0.943,-0.043,+0.059,+30.312,+36.000,-16.688,1, 4, 1, -2, -2, -1, -1, 0,-2.8517316291952497,1.5562744758334246,18
1503683243709,+0.693,+0.704,-0.053,-0.144,+0.950,-0.053,+0.083,+25.688,+32.250,-15.750,0, -3, -1, 1, -2, 1, 1, 0,-2.861074574769101,1.5676177556920265,18
1503683243731,+0.689,+0.709,-0.054,-0.140,+0.940,-0.065,+0.113,+17.125,+36.438,-14.312,2, -2, -2, 1, -1, 1, 1, 2,-2.8665001335782088,1.5820787346281828,18
1503683243754,+0.684,+0.715,-0.056,-0.136,+0.935,-0.035,+0.133,+8.938,+38.562,-13.062,-1, -4, -2, -1, -1, -2, -2, -3,-2.870673040418623,1.5997024948402472,18
1503683243769,+0.680,+0.719,-0.059,-0.132,+0.947,+0.012,+0.123,+6.750,+35.500,-14.812,0, -3, -1, 0, 0, -1, -1, -3,-2.872534727559055,1.611928079516233,18
1503683243792,+0.676,+0.723,-0.061,-0.128,+0.987,+0.016,+0.145,+4.812,+34.688,-14.000,-1, -10, 1, 0, -1, -3, 0, 2,-2.8757241173847086,1.6240129356342896,18
1503683243813,+0.672,+0.727,-0.064,-0.124,+1.018,+0.019,+0.130,+2.312,+31.250,-14.688,-3, 1, -2, -1, 0, -1, 0, -3,-2.8774431224792556,1.6364146023229227,18
1503683243830,+0.672,+0.728,-0.067,-0.121,+1.053,-0.005,+0.142,+2.375,+7.562,-16.562,6, 5, 0, -1, -1, -2, -2, 1,-2.8777557155267597,1.6400027498661256,18
1503683243851,+0.674,+0.726,-0.070,-0.118,+0.963,-0.026,+0.129,-0.500,-14.125,-21.125,-1, 1, -3, -3, -3, 0, -1, -2,-2.877131690979172,1.6349706008015623,18
1503683243873,+0.674,+0.725,-0.073,-0.117,+0.862,-0.004,+0.134,-8.562,-5.188,-19.938,-4, 2, 0, 1, 0, 0, 0, -2,-2.873594122972707,1.6329738398274642,18
1503683243889,+0.672,+0.728,-0.077,-0.115,+0.933,+0.069,+0.094,-9.438,+22.750,-8.875,0, -2, -3, 0, 2, -2, 0, -1,-2.871480519729475,1.6427759362227905,18
1503683243911,+0.670,+0.730,-0.078,-0.115,+1.074,+0.043,+0.053,-4.188,+24.875,+2.062,2, 1, 1, -2, -3, -1, -3, 2,-2.870343952013263,1.6489072012884591,18
1503683243933,+0.669,+0.730,-0.079,-0.115,+1.127,-0.069,+0.116,-3.375,+6.250,-2.000,1, 2, 2, 2, 0, 0, 1, 1,-2.86843742933962,1.6493170484467796,18
1503683243949,+0.670,+0.729,-0.079,-0.115,+1.063,-0.110,+0.101,-2.875,-4.688,-5.062,-4, -1, 0, -3, 0, -2, -1, -3,-2.868303045821324,1.6463924220308561,18
1503683243971,+0.671,+0.728,-0.080,-0.115,+0.987,-0.117,+0.076,-5.000,-4.938,-8.188,0, 0, 0, 1, 1, 1, 0, -4,-2.86676590543609,1.6437725469272098,18
1503683243994,+0.672,+0.727,-0.081,-0.114,+0.994,-0.102,+0.133,-4.500,-8.312,-14.750,1, -2, -2, 1, 0, 1, 3, 3,-2.866531339321856,1.641173178377814,18
1503683244009,+0.673,+0.727,-0.082,-0.113,+1.086,-0.152,+0.161,+0.750,-8.812,-17.562,-4, -5, 0, -2, 1, -1, -2, 1,-2.8669384221672196,1.641391722838987,18
1503683244032,+0.676,+0.724,-0.083,-0.111,+1.123,-0.140,+0.101,+3.312,-22.000,-17.250,0, 0, 2, -1, 0, -2, 1, -1,-2.8678027377534336,1.633015742517598,18
1503683244056,+0.680,+0.720,-0.083,-0.111,+1.056,-0.112,+0.083,+1.125,-31.750,-11.688,0, -2, -1, 1, -2, -1, 0, -3,-2.867396291614357,1.621451314502052,18
1503683249921,+0.801,+0.532,-0.131,-0.241,+0.874,-0.007,-0.359,+0.625,+5.875,+12.375,-9, -6, 0, -1, -1, -2, 0, 2,-2.587506683100008,1.159174813843697,19
1503683249932,+0.800,+0.533,-0.130,-0.243,+0.897,-0.003,-0.357,-1.000,+6.875,+17.438,4, 0, -2, -4, -2, -1, -1, 1,-2.5853122948893503,1.1608803424753262,19
1503683249957,+0.798,+0.535,-0.130,-0.245,+0.943,-0.012,-0.318,-2.188,+10.312,+21.938,5, -1, 2, -1, 0, -1, -3, 2,-2.581860529780773,1.1654350612980504,19
1503683249978,+0.796,+0.537,-0.127,-0.249,+0.941,-0.016,-0.287,+0.688,+7.938,+31.000,1, 3, -6, 10, 9, 1, 0, 0,-2.578469266513678,1.1681968862147998,19
1503683249994,+0.795,+0.538,-0.124,-0.253,+1.011,-0.015,-0.326,+2.375,-5.688,+35.188,2, -1, -1, -3, -3, 0, -1, -1,-2.5754725507809875,1.1687962593100918,19
1503683250015,+0.794,+0.537,-0.121,-0.258,+1.016,-0.028,-0.336,-4.438,-9.375,+36.688,0, -5, -4, -3, -2, 0, 1, 1,-2.569246820112489,1.1642857306089534,19
1503683250037,+0.792,+0.537,-0.121,-0.262,+0.979,-0.006,-0.360,-10.188,+0.938,+28.062,1, 0, -1, -3, -4, -2, -3, -3,-2.561304223074475,1.1638169512076102,19
1503683250053,+0.789,+0.540,-0.121,-0.266,+0.983,-0.046,-0.362,-12.438,+20.562,+35.188,-4, -5, -3, 0, 0, 1, 0, -1,-2.5550403017320216,1.1707672640875777,19
1503683250075,+0.784,+0.546,-0.121,-0.271,+1.066,-0.052,-0.333,-11.125,+36.250,+38.312,1, 0, 1, -4, -10, 0, -1, 1,-2.547994623147225,1.1848751858274773,19
1503683250097,+0.778,+0.551,-0.121,-0.275,+1.057,-0.046,-0.322,-7.062,+36.375,+37.438,-14, 0, -1, 7, 9, 1, -1, -1,-2.5401152571468137,1.1959443642021326,19
1503683250112,+0.773,+0.556,-0.125,-0.277,+0.953,+0.085,-0.310,-15.812,+43.625,+18.875,-1, 0, 3, 6, 5, -1, 0, -4,-2.532592564086073,1.2099806329534712,19
1503683250135,+0.768,+0.563,-0.125,-0.278,+0.867,+0.083,-0.341,+7.625,+50.312,+30.250,2, 0, -1, -4, -3, -2, 1, 3,-2.5323135717431313,1.2266860234942358,19
1503683250158,+0.762,+0.572,-0.119,-0.279,+0.894,-0.099,-0.292,+31.250,+52.812,+39.875,2, 1, -1, 1, -1, -1, -1, 2,-2.5388321771922544,1.2446392485678732,19
1503683250172,+0.756,+0.582,-0.113,-0.278,+0.992,-0.228,-0.205,+39.375,+53.312,+32.500,-5, -1, -2, -1, -4, -2, -1, -2,-2.5495051384409164,1.2656082725587279,19
1503683250195,+0.749,+0.593,-0.109,-0.276,+0.992,-0.208,-0.125,+33.000,+61.500,+19.625,0, 2, 2, 4, 1, 0, -2, -1,-2.5598892739505357,1.29060167789775,19
1503683250219,+0.744,+0.601,-0.106,-0.272,+0.968,-0.172,-0.161,+35.875,+46.375,+7.125,-1, -2, -4, -3, 19, 43, 0, 0,-2.571181525743554,1.3089467285441287,19
1503683250232,+0.741,+0.607,-0.102,-0.268,+0.920,-0.206,-0.249,+37.562,+37.688,-1.125,2, 2, -1, 4, 21, 2, 1, 1,-2.5837760638415923,1.3221396862843713,19
1503683250257,+0.738,+0.613,-0.099,-0.264,+0.874,-0.245,-0.214,+34.312,+37.062,-6.312,2, -1, 0, 2, -12, -17, -1, -1,-2.5954715227932006,1.3360758628965095,19
1503683250277,+0.734,+0.620,-0.097,-0.259,+0.843,-0.280,-0.185,+31.750,+50.938,-9.500,-2, 1, 2, 2, 3, 2, -4, -6,-2.6075354904515673,1.3531610779407879,19
1503683250293,+0.729,+0.628,-0.096,-0.255,+0.869,-0.262,-0.157,+27.938,+49.812,-10.125,-1, 2, 0, 1, -2, -5, 3, 2,-2.617407882014782,1.3735172008762084,19
1503683250315,+0.724,+0.636,-0.095,-0.250,+0.913,-0.237,-0.175,+27.000,+58.750,-10.938,1, 0, -3, -11, -39, -14, 0, 1,-2.6286858945989136,1.394063025368207,19
1503683250339,+0.719,+0.643,-0.096,-0.245,+0.968,-0.205,-0.129,+25.750,+53.562,-16.125,2, -1, -3, 6, -2, -5, -8, -8,-2.636687068799611,1.412941770002453,19
1503683250354,+0.717,+0.648,-0.095,-0.239,+1.010,-0.225,-0.090,+27.375,+33.375,-19.125,-3, -2, 1, 0, 1, -2, 0, 4,-2.649019751041921,1.4259770890256191,19
1503683250375,+0.716,+0.651,-0.094,-0.234,+0.964,-0.278,-0.075,+23.812,+18.625,-17.688,2, 3, 0, -3, 3, -2, 0, 0,-2.65886783141029,1.4336553502359284,19
1503683250398,+0.714,+0.654,-0.093,-0.232,+0.912,-0.298,-0.120,+13.938,+21.000,-14.500,5, 5, 1, -2, 1, -2, -2, 1,-2.663939529143791,1.441268023944823,19
1503683250412,+0.711,+0.658,-0.094,-0.231,+0.905,-0.226,-0.085,+4.062,+29.688,-7.188,13, -5, 1, 5, 0, -3, 2, -1,-2.665524815211559,1.4524675018359834,19
1503683250435,+0.708,+0.661,-0.094,-0.229,+0.964,-0.179,-0.076,+4.250,+28.250,-5.062,-16, -7, -3, -2, -1, 0, 2, 0,-2.6685443933270494,1.4604366479839808,19
1503683250458,+0.706,+0.664,-0.095,-0.228,+1.027,-0.205,-0.074,+2.375,+23.125,-7.062,1, 1, 2, -1, 0, -1, 0, 1,-2.6699975338343584,1.4690394827029087,19
1503683250472,+0.705,+0.665,-0.096,-0.227,+1.042,-0.207,-0.037,+0.875,+8.250,-4.062,-1, -3, -3, -3, -2, -3, -3, -2,-2.6702345726046253,1.47214226022258,19
1503683250496,+0.705,+0.665,-0.096,-0.227,+0.996,-0.226,-0.061,-0.562,-0.062,-6.250,0, -1, -1, -1, -2, 0, -1, 0,-2.6702345726046253,1.47214226022258,19
1503683250519,+0.705,+0.665,-0.097,-0.226,+0.950,-0.228,-0.036,-5.688,+3.250,-10.125,-4, -4, -6, -4, -2, -4, -4, 3,-2.670306861774076,1.4725577045083378,19
1503683250532,+0.705,+0.665,-0.098,-0.226,+0.967,-0.145,-0.082,-2.000,+2.500,-6.250,-8, -1, 0, -1, 0, -1, -2, -2,-2.6691057462519123,1.4729960031029636,19
1503683250556,+0.705,+0.665,-0.098,-0.225,+1.063,-0.127,-0.090,-0.500,+2.438,+1.062,-1, 0, 0, -1, 1, -3, -1, 2,-2.670379156269816,1.4729766022080477,19
1503683250578,+0.706,+0.664,-0.097,-0.225,+1.067,-0.149,-0.064,+1.625,-6.250,+0.500,-5, 0, 2, -1, 1, 3, 0, -3,-2.6714256192399906,1.4698481602530653,19
1503683250593,+0.708,+0.662,-0.096,-0.225,+1.048,-0.194,-0.069,+3.875,-18.562,-2.500,0, 1, -3, -1, -3, -2, -5, -5,-2.6723219257624793,1.4640439465599138,19
1503683258438,+0.811,+0.528,-0.135,-0.211,+0.925,+0.020,-0.356,+0.438,-3.312,+3.000,1, -1, 1, -2, -1, -1, -2, 2,-2.6346723402451664,1.152542132527095,20
1503683258461,+0.811,+0.528,-0.135,-0.211,+0.900,+0.009,-0.363,+1.812,+0.250,+2.562,-3, -1, 1, 1, 0, 0, -2, -5,-2.6346723402451664,1.152542132527095,20
1503683258483,+0.811,+0.529,-0.134,-0.211,+0.911,+0.008,-0.327,+1.688,+1.250,+4.188,-8, -15, -1, -1, -2, -1, -1, 2,-2.6363874693751286,1.1544696691749847,20
1503683258498,+0.811,+0.530,-0.133,-0.212,+0.940,+0.014,-0.327,+6.250,-0.562,+6.812,1, 3, 0, 1, 1, 0, 1, -1,-2.6366855525913984,1.1565097772705304,20
1503683258521,+0.811,+0.530,-0.131,-0.212,+0.936,+0.031,-0.350,+8.812,-4.875,+9.000,-2, -4, -3, -1, 0, -2, -1, -3,-2.6385386335940173,1.1552022271102413,20
1503683258543,+0.812,+0.529,-0.129,-0.213,+0.893,+0.045,-0.341,+6.375,-10.562,+13.125,0, 29, 10, -2, -1, -3, -4, -2,-2.6393698047846916,1.151849085773654,20
1503683258572,+0.812,+0.528,-0.126,-0.214,+0.880,+0.056,-0.335,+9.625,-8.250,+21.750,-3, -8, -3, 0, 0, 1, -1, -2,-2.639931996695124,1.1474406701899016,20
1503683258581,+0.811,+0.529,-0.123,-0.216,+0.902,+0.053,-0.364,+10.250,+1.188,+27.125,-6, -9, 0, 1, -1, -1, -1, -3,-2.6394798325218654,1.147913469411559,20
1503683258603,+0.810,+0.531,-0.119,-0.220,+0.900,+0.029,-0.354,+8.188,+8.312,+35.000,-1, 0, -2, -1, -1, -1, -2, -3,-2.6379515625003322,1.150592772141784,20
1503683258624,+0.807,+0.535,-0.115,-0.224,+0.937,-0.022,-0.316,+5.562,+15.875,+39.625,2, -3, 3, 1, 3, -1, -3, 1,-2.6358018493204596,1.1576677456751845,20
1503683258641,+0.802,+0.540,-0.112,-0.228,+1.059,-0.037,-0.290,+3.812,+24.688,+41.875,-2, 0, -3, -1, -2, -2, 0, -2,-2.6313744201260243,1.1671831478785937,20
1503683258664,+0.797,+0.546,-0.110,-0.232,+1.124,-0.067,-0.399,+2.438,+35.375,+37.625,2, -7, -6, -4, -2, 0, -1, 0,-2.627069330836119,1.1800196339625089,20
1503683258684,+0.792,+0.553,-0.110,-0.235,+1.124,-0.116,-0.359,-6.562,+45.438,+25.562,2, 1, 3, -1, 1, 1, 0, -1,-2.62335266454812,1.1966987327677976,20
1503683258701,+0.787,+0.558,-0.112,-0.237,+1.092,-0.076,-0.319,-10.438,+40.438,+14.375,-1, -2, -2, 1, 0, 0, 1, 2,-2.617417402130311,1.2092831717524979,20
1503683258723,+0.782,+0.564,-0.118,-0.236,+0.926,+0.056,-0.269,-18.938,+51.188,-7.500,-5, -5, -3, 0, 0, -2, -2, -4,-2.61266360441285,1.2267945955106694,20
1503683258744,+0.776,+0.573,-0.123,-0.234,+0.832,+0.023,-0.273,-4.750,+71.000,-1.500,3, 7, 2, -2, 0, -1, -1, -1,-2.61189913170899,1.2514581997338763,20
1503683258762,+0.768,+0.583,-0.123,-0.234,+0.835,-0.078,-0.273,+7.688,+77.500,+14.125,0, 1, 0, 0, -1, 0, -1, 0,-2.6122081508171293,1.275447013873274,20
1503683258783,+0.760,+0.594,-0.124,-0.232,+0.935,-0.066,-0.201,+9.875,+80.562,+7.688,-1, -2, -2, -2, -2, -1, -2, 0,-2.615447324467567,1.3029513669916997,20
1503683258806,+0.754,+0.603,-0.125,-0.228,+1.003,-0.061,-0.137,+15.750,+63.750,-3.375,-1, 9, 5, 1, 0, 0, -3, -1,-2.6218214807242126,1.3258653890657972,20
1503683258821,+0.750,+0.609,-0.125,-0.225,+0.978,-0.117,-0.120,+13.625,+35.312,-8.750,1, 9, 3, -1, 0, 2, -1, -3,-2.6272803399077187,1.3408672289367571,20
1503683258843,+0.749,+0.611,-0.125,-0.222,+0.936,-0.124,-0.125,+9.000,+14.062,-13.125,-3, 5, 3, 2, -2, -2, -1, -3,-2.6320992670846275,1.3458738259413026,20
1503683258866,+0.749,+0.613,-0.126,-0.220,+0.871,-0.164,-0.166,+2.250,+11.812,-14.750,-6, -7, -1, -1, -1, -1, -1, -2,-2.635600543974969,1.3518053139974042,20
1503683258888,+0.748,+0.614,-0.127,-0.219,+0.854,-0.138,-0.267,+0.750,+17.375,-12.812,-1, 3, -2, -2, -1, -1, 3, -2,-2.6357379562816656,1.3548016453203044,20
1503683258904,+0.747,+0.616,-0.128,-0.217,+0.859,-0.126,-0.274,+3.125,+24.500,-13.062,-2, -1, -4, -3, -2, 0, -2, -2,-2.6381507436604967,1.360479086610229,20
1503683258930,+0.745,+0.618,-0.129,-0.215,+0.927,-0.132,-0.202,-2.500,+28.062,-10.750,-3, 2, 0, -1, -2, 1, 1, 1,-2.639496420400274,1.3659151466248602,20
1503683258941,+0.741,+0.622,-0.131,-0.215,+1.018,-0.101,-0.157,-5.750,+30.438,-5.938,0, 1, 0, 0, 1, -1, 0, 1,-2.6369615416631875,1.3770571613710876,20
1503683258964,+0.740,+0.624,-0.133,-0.213,+1.044,-0.044,-0.197,-0.375,+24.438,-10.250,-1, -11, -1, 1, -1, -2, -3, 2,-2.638266052730698,1.383392649493354,20
1503683258984,+0.741,+0.624,-0.134,-0.210,+1.075,-0.051,-0.205,+9.062,+0.562,-14.938,1, 0, 3, -1, 0, 0, 3, 2,-2.6421270513623245,1.3840804882530386,20
1503683259001,+0.743,+0.622,-0.133,-0.207,+1.064,-0.163,-0.127,+8.375,-16.750,-19.062,2, 4, 0, 2, 0, 0, 1, 1,-2.647336145132234,1.3783311227946151,20
1503683259023,+0.745,+0.620,-0.133,-0.206,+1.003,-0.179,-0.114,+0.438,-16.562,-20.938,1, -3, 0, -3, 0, -2, 0, -1,-2.648857823706025,1.3732997608539455,20
1503683267789,+0.797,+0.553,-0.129,-0.207,+0.936,-0.018,-0.304,-1.375,+2.812,+1.750,-2, 1, -2, 0, -2, -1, 1, 0,-2.6496841901305936,1.2077964809659352,21
1503683267807,+0.796,+0.554,-0.129,-0.207,+0.949,-0.004,-0.303,-0.562,+2.688,+1.938,1, 0, 1, 1, -1, 1, 2, -1,-2.6493625301616377,1.210039391846153,21
1503683267828,+0.796,+0.554,-0.129,-0.207,+0.934,-0.002,-0.306,+1.188,+3.375,+2.188,1, -3, 0, -5, -2, -1, -2, 0,-2.6493625301616377,1.210039391846153,21
1503683267850,+0.796,+0.555,-0.128,-0.206,+0.948,-0.008,-0.302,+2.062,+3.688,+1.875,-2, -3, 0, -1, -1, -1, -1, -1,-2.6525628095349023,1.2119591764545155,21
1503683267866,+0.795,+0.556,-0.128,-0.206,+0.946,-0.014,-0.295,+3.500,+7.500,+1.375,3, 2, -1, 1, 0, -1, 1, 3,-2.6522494322067898,1.214208981455398,21
1503683267889,+0.795,+0.557,-0.127,-0.206,+0.941,-0.014,-0.307,+2.375,+3.812,+3.438,-3, -2, 0, -1, -2, 0, -2, -5,-2.6540508996489356,1.216227910357195,21
1503683267909,+0.794,+0.557,-0.127,-0.206,+0.921,+0.003,-0.291,+1.062,+4.062,+6.312,-1, -2, -1, 0, 1, -1, -1, 0,-2.6529241171853846,1.2158408061891717,21
1503683267925,+0.793,+0.559,-0.126,-0.207,+0.937,-0.012,-0.286,+1.750,+9.188,+10.375,1, 2, -2, 0, 0, 0, 0, 1,-2.6530317624271103,1.2202137579331636,21
