Timestamp,Orientation X,Orientation Y,Orientation Z,Orientation W,Accelerometer X,Accelerometer Y,Accelerometer Z,Gyroscope X,Gyroscope Y,Gyroscope Z,EMG1,EMG2,EMG3,EMG4,EMG5,EMG6,EMG7,EMG8
1503602230225,-0.797,-0.309,-0.253,-0.453,+0.831,-0.149,-0.569,-16.938,+7.562,-3.875,14, 1, 1, 0, 1, 0, -1, -18
1503602230247,-0.798,-0.311,-0.252,-0.451,+0.805,-0.140,-0.672,-13.375,+7.125,+2.625,13, -3, -2, -2, -2, -4, -7, 8
1503602230262,-0.799,-0.310,-0.250,-0.451,+0.753,-0.112,-0.677,-6.688,-10.688,+5.750,-7, 4, -1, 1, 2, 0, -3, -18
1503602230285,-0.800,-0.308,-0.248,-0.451,+0.701,-0.082,-0.611,-3.500,-16.562,+1.188,-11, -2, -1, -2, -3, 2, 1, 6
1503602230308,-0.800,-0.307,-0.246,-0.452,+0.702,-0.086,-0.572,-4.438,-11.188,-6.312,-2, -2, 1, 1, 0, -1, 1, -4
1503602230322,-0.800,-0.308,-0.245,-0.453,+0.726,-0.120,-0.591,-8.562,-6.062,-8.250,-2, -2, 0, 0, -2, 2, -1, -6
1503602230345,-0.800,-0.308,-0.242,-0.453,+0.725,-0.116,-0.640,-12.312,-3.938,-5.625,4, 2, -3, -1, 0, 1, -1, 3
1503602230367,-0.801,-0.309,-0.240,-0.454,+0.671,-0.074,-0.708,-8.188,+0.188,-4.938,-7, -2, -2, -2, -9, -5, -9, -13
1503602230390,-0.800,-0.309,-0.239,-0.455,+0.679,-0.089,-0.709,+0.312,+1.750,-6.750,9, -2, 0, 1, 1, -1, -4, 10
1503602230405,-0.800,-0.308,-0.239,-0.456,+0.726,-0.135,-0.701,+1.938,+0.062,-5.750,-4, -1, -1, -1, 1, -1, 4, -3
1503602230427,-0.800,-0.308,-0.239,-0.456,+0.739,-0.145,-0.679,-1.438,-4.125,-3.188,-6, -2, 0, -1, -1, -1, -1, -4
1503602230442,-0.800,-0.307,-0.239,-0.456,+0.734,-0.155,-0.668,+1.062,-2.375,-4.688,6, -1, -2, -1, 1, -1, 4, 8
1503602230466,-0.800,-0.307,-0.240,-0.457,+0.735,-0.174,-0.671,+3.438,+2.562,-6.500,1, 1, 2, -1, 2, 3, 4, -4
1503602230487,-0.799,-0.307,-0.241,-0.457,+0.734,-0.181,-0.688,+0.000,+7.688,-5.000,-3, -1, -2, -1, -2, -2, 0, -5
1503602230502,-0.799,-0.309,-0.241,-0.457,+0.756,-0.159,-0.680,-2.312,+8.438,-4.312,6, -2, -6, -6, -2, -3, -3, 1
1503602230525,-0.798,-0.309,-0.242,-0.457,+0.747,-0.149,-0.699,+2.250,+6.188,-4.375,1, 0, -3, -2, 0, -1, -1, 0
1503602230547,-0.798,-0.309,-0.243,-0.458,+0.726,-0.153,-0.681,+4.062,+2.688,-4.062,-1, 16, 1, 3, 0, 0, 0, -4
1503602230563,-0.797,-0.309,-0.244,-0.458,+0.728,-0.146,-0.641,+3.000,+5.188,-4.750,0, -11, -7, 0, -3, -1, -1, 0
1503602230585,-0.796,-0.311,-0.245,-0.458,+0.749,-0.145,-0.634,+0.812,+9.500,-4.875,-4, -3, -3, -5, -3, -2, -3, -1
1503602230607,-0.795,-0.312,-0.246,-0.458,+0.752,-0.134,-0.645,-1.500,+9.312,-4.125,-3, -18, -4, -3, 1, 0, -2, 3
1503602230622,-0.795,-0.313,-0.246,-0.458,+0.753,-0.104,-0.657,-1.125,+7.375,-3.625,0, -2, 2, -3, -4, -2, -1, -2
1503602230645,-0.794,-0.314,-0.246,-0.458,+0.723,-0.087,-0.678,+0.688,+5.125,-1.875,-20, -3, -1, -2, 0, -1, 0, -2
1503602230669,-0.794,-0.314,-0.246,-0.459,+0.716,-0.097,-0.645,+2.062,+5.062,-4.938,-20, -4, -2, -1, 0, 0, -2, -2
1503602230682,-0.793,-0.315,-0.246,-0.460,+0.739,-0.101,-0.650,+2.938,+5.250,-5.812,-5, -5, -2, -1, 1, 0, 2, 1
1503602230705,-0.793,-0.315,-0.247,-0.460,+0.749,-0.130,-0.643,+2.938,+2.000,-3.000,-4, -4, 0, 3, 1, 2, -1, 0
1503602230727,-0.793,-0.315,-0.247,-0.460,+0.737,-0.132,-0.627,+0.188,-0.938,-1.250,-2, -1, 1, -4, -8, -2, 2, 0
1503602230749,-0.793,-0.315,-0.247,-0.460,+0.732,-0.099,-0.621,-1.938,-0.125,-2.750,-2, 0, -1, 0, -3, 0, -1, -1
1503602230765,-0.792,-0.316,-0.246,-0.460,+0.743,-0.081,-0.643,-2.000,+2.938,-2.875,2, 8, 6, 3, 5, 1, -1, 2
1503602230787,-0.792,-0.317,-0.246,-0.460,+0.759,-0.078,-0.642,-1.750,+4.562,-1.312,-14, -8, -3, -2, -1, 1, 2, 2
1503602230810,-0.792,-0.317,-0.246,-0.460,+0.753,-0.091,-0.639,-0.062,+3.125,-1.000,4, -3, -6, -1, 3, 0, -1, -1
1503602230826,-0.791,-0.318,-0.246,-0.460,+0.765,-0.100,-0.621,+0.812,+1.812,-1.562,1, 2, 5, 4, -6, -2, -1, -1
1503602230847,-0.791,-0.318,-0.247,-0.461,+0.762,-0.097,-0.618,+0.250,+2.000,-2.375,2, -2, -4, -5, 7, -2, -2, 0
1503602230870,-0.791,-0.319,-0.247,-0.461,+0.755,-0.094,-0.605,-0.250,+1.938,-0.875,-3, -4, -2, -2, -4, -1, -3, -2
1503602230885,-0.791,-0.319,-0.247,-0.460,+0.750,-0.094,-0.614,-0.375,+2.500,-0.875,-4, 4, 5, 5, 1, 0, -1, -6
1503602230909,-0.790,-0.320,-0.247,-0.460,+0.737,-0.085,-0.615,+0.688,+3.000,-0.500,-7, 0, -5, 0, -3, 0, 0, 2
1503602230929,-0.790,-0.321,-0.248,-0.460,+0.745,-0.092,-0.636,+1.375,+6.312,+1.125,3, -2, -2, -2, 1, 0, 0, -1
1503602230946,-0.790,-0.321,-0.249,-0.459,+0.757,-0.114,-0.648,-0.062,+9.312,+4.438,2, 0, -2, 2, 0, -1, -1, 1
1503602230968,-0.790,-0.322,-0.250,-0.458,+0.774,-0.131,-0.649,+0.500,+4.125,+5.938,-1, -22, 2, -3, -1, -1, -1, 0
1503602230989,-0.791,-0.320,-0.250,-0.457,+0.788,-0.153,-0.640,+1.375,-5.250,+5.375,-7, -8, -9, -3, -1, -2, 1, 0
1503602231005,-0.792,-0.319,-0.250,-0.456,+0.795,-0.172,-0.623,-0.250,-11.375,+6.250,-5, 6, 3, 0, 0, 1, -1, -1
1503602231027,-0.794,-0.317,-0.250,-0.456,+0.777,-0.160,-0.626,-1.125,-12.375,+6.688,8, 11, 2, 0, 1, 1, 2, 3
1503602231049,-0.795,-0.314,-0.250,-0.455,+0.755,-0.141,-0.653,-1.000,-12.812,+6.812,4, 8, 1, -2, -5, -1, 0, -4
1503602231065,-0.796,-0.312,-0.249,-0.455,+0.737,-0.132,-0.665,+0.188,-11.062,+5.438,-1, 0, -2, -2, -1, 2, -1, 0
1503602231087,-0.797,-0.311,-0.249,-0.455,+0.738,-0.120,-0.661,+1.562,-8.562,+3.000,5, -31, -14, -5, -3, -2, -4, -2
1503602231110,-0.797,-0.310,-0.249,-0.455,+0.767,-0.111,-0.643,+4.625,-8.750,-0.188,-10, -3, 2, 1, 2, -3, 2, 0
1503602231125,-0.797,-0.308,-0.249,-0.456,+0.766,-0.102,-0.625,+7.375,-12.562,+0.188,10, 16, 10, 2, -1, -1, -1, 2
1503602231147,-0.798,-0.305,-0.248,-0.457,+0.724,-0.071,-0.665,+7.438,-16.188,+4.875,-3, 6, -3, -1, -2, -1, -1, -4
1503602231172,-0.799,-0.302,-0.247,-0.458,+0.664,-0.017,-0.698,+8.312,-17.062,+6.062,18, 9, 5, 0, 0, -1, 0, 1
1503602231185,-0.800,-0.298,-0.246,-0.459,+0.647,+0.005,-0.709,+15.312,-14.688,+7.000,6, 5, 5, 7, 2, -1, -1, 2
1503602231215,-0.801,-0.294,-0.248,-0.460,+0.710,-0.008,-0.711,+24.750,-12.500,+11.625,-2, 3, -1, -3, -5, -3, 0, -4
1503602231229,-0.801,-0.288,-0.252,-0.460,+0.750,-0.089,-0.737,+37.188,-17.750,+20.312,-7, 3, 2, -1, -1, -1, -3, -3
1503602231246,-0.803,-0.280,-0.257,-0.459,+0.759,-0.138,-0.744,+43.625,-27.938,+26.812,-1, -4, -1, -1, -2, -4, -4, -2
1503602231267,-0.804,-0.271,-0.262,-0.460,+0.743,-0.122,-0.758,+52.625,-30.625,+26.812,-1, -3, -2, 1, -1, -1, -1, -1
1503602231289,-0.805,-0.260,-0.269,-0.461,+0.752,-0.148,-0.775,+65.188,-32.875,+28.688,-2, -1, -1, -3, 0, 1, 0, -3
1503602231313,-0.806,-0.248,-0.277,-0.461,+0.739,-0.187,-0.776,+76.688,-35.625,+33.375,-2, -1, 3, 2, -1, -2, -1, 0
1503602231326,-0.806,-0.235,-0.287,-0.462,+0.727,-0.226,-0.772,+86.438,-33.375,+34.562,1, -8, -22, -13, -1, -1, 0, 0
1503602231349,-0.805,-0.221,-0.299,-0.463,+0.721,-0.271,-0.768,+96.562,-33.188,+33.625,-2, 15, 45, 5, 7, 3, 2, -2
1503602231364,-0.803,-0.206,-0.311,-0.464,+0.704,-0.333,-0.735,+103.812,-37.938,+34.938,-4, -7, -20, -3, -5, -1, -4, -2
1503602231386,-0.802,-0.191,-0.325,-0.465,+0.687,-0.375,-0.699,+110.250,-38.000,+36.000,-4, 3, 8, 2, 0, -1, -4, -4
1503602231409,-0.799,-0.174,-0.339,-0.465,+0.651,-0.416,-0.685,+116.750,-37.062,+35.500,-1, -8, -17, -8, -6, -1, -1, 0
1503602231424,-0.796,-0.158,-0.353,-0.466,+0.629,-0.468,-0.666,+120.812,-35.562,+35.000,4, 0, -5, 2, -1, -3, 0, -1
1503602231447,-0.791,-0.142,-0.369,-0.467,+0.600,-0.495,-0.676,+123.562,-30.375,+32.438,-2, 6, 19, 7, 1, -2, -2, -5
1503602231469,-0.786,-0.126,-0.384,-0.467,+0.580,-0.501,-0.641,+128.688,-29.250,+30.000,1, -7, -10, -1, -2, -2, -2, -3
1503602231484,-0.780,-0.110,-0.400,-0.468,+0.588,-0.556,-0.588,+133.625,-29.438,+28.062,-2, -1, -1, 5, -4, 0, 1, 3
1503602231508,-0.774,-0.093,-0.416,-0.469,+0.564,-0.615,-0.546,+130.625,-31.938,+25.250,7, 4, 0, 3, 0, -1, -1, 1
1503602231529,-0.767,-0.078,-0.430,-0.470,+0.538,-0.632,-0.516,+125.375,-28.312,+21.250,3, -1, -5, -10, -6, -1, 1, -1
1503602231546,-0.759,-0.064,-0.445,-0.471,+0.503,-0.640,-0.487,+124.000,-20.312,+15.688,-1, 0, 4, 2, -5, -1, 2, -1
1503602231567,-0.750,-0.051,-0.459,-0.472,+0.518,-0.672,-0.474,+123.500,-19.438,+10.938,-7, -1, -7, 0, -5, -2, -1, -3
1503602231589,-0.742,-0.038,-0.473,-0.474,+0.535,-0.716,-0.417,+117.125,-25.625,+6.438,-11, -4, -5, -3, 0, -1, -1, -2
1503602231604,-0.733,-0.025,-0.485,-0.477,+0.522,-0.735,-0.376,+111.312,-27.000,+3.312,-1, 3, -6, -2, 7, -2, -1, -1
1503602231626,-0.725,-0.014,-0.496,-0.478,+0.496,-0.731,-0.363,+101.375,-20.625,+3.375,3, -6, -8, 6, -1, 1, 4, 3
1503602231650,-0.717,-0.004,-0.508,-0.479,+0.487,-0.747,-0.370,+94.625,-14.312,+2.375,7, -8, -25, 4, 0, 1, 0, 4
1503602231671,-0.709,+0.005,-0.517,-0.480,+0.510,-0.773,-0.332,+85.500,-16.812,+0.312,-7, -3, 17, -6, -1, -4, -2, -4
1503602231694,-0.701,+0.013,-0.526,-0.481,+0.522,-0.747,-0.326,+76.750,-17.188,-2.062,-4, 1, -3, -1, 3, 4, 2, -1
1503602231711,-0.695,+0.020,-0.533,-0.483,+0.495,-0.747,-0.316,+65.812,-17.938,-4.125,1, 3, 10, 9, 1, -1, 0, 2
1503602231732,-0.689,+0.026,-0.539,-0.483,+0.476,-0.748,-0.311,+55.312,-11.375,-1.000,-28, -6, 3, -1, -4, 1, 0, -4
1503602231746,-0.685,+0.031,-0.544,-0.484,+0.490,-0.758,-0.324,+46.250,-7.812,+2.250,-4, 6, 12, 6, 7, -2, 2, -2
1503602231769,-0.682,+0.035,-0.548,-0.484,+0.492,-0.771,-0.322,+38.312,-8.750,+2.500,9, -3, -18, -13, -6, -1, 0, 4
1503602231786,-0.679,+0.039,-0.551,-0.484,+0.499,-0.757,-0.327,+31.875,-9.688,+1.062,17, 9, -2, 0, 1, 0, -2, 0
1503602231808,-0.676,+0.042,-0.553,-0.485,+0.492,-0.760,-0.337,+28.250,-7.750,+0.312,-20, -8, -2, 2, 1, -3, -4, -2
1503602231829,-0.674,+0.045,-0.555,-0.485,+0.501,-0.765,-0.316,+25.812,-8.062,+2.812,9, 4, -5, -2, -4, 2, 1, 1
1503602231845,-0.672,+0.048,-0.558,-0.486,+0.518,-0.754,-0.310,+24.500,-9.125,+4.312,12, -1, 13, 3, -2, -2, -5, -1
1503602231867,-0.670,+0.052,-0.560,-0.486,+0.508,-0.773,-0.318,+24.750,-10.250,+5.750,2, -1, 1, -4, -1, -1, -2, -4
1503602235189,-0.746,-0.270,-0.324,-0.516,+0.770,-0.195,-0.598,-9.312,-6.625,+11.312,32, 8, -2, -4, -2, -1, 1, 2
1503602235211,-0.748,-0.269,-0.322,-0.515,+0.760,-0.193,-0.609,-10.625,-11.938,+12.125,-4, 3, 4, 0, 2, 0, -2, -4
1503602235228,-0.750,-0.268,-0.320,-0.513,+0.744,-0.190,-0.607,-10.375,-11.375,+13.438,4, 2, -2, 0, 0, -2, 0, 0
1503602235249,-0.752,-0.267,-0.319,-0.511,+0.741,-0.202,-0.618,-9.812,-5.688,+13.875,-3, -2, -3, -3, -3, -4, -5, -5
1503602235272,-0.755,-0.266,-0.317,-0.509,+0.748,-0.212,-0.622,-10.375,-6.625,+13.500,8, 3, 1, -1, 0, -1, 0, 4
1503602235287,-0.757,-0.265,-0.316,-0.507,+0.754,-0.208,-0.629,-10.125,-9.625,+13.500,-3, -2, 2, 4, -1, -2, -1, -1
1503602235310,-0.759,-0.264,-0.314,-0.506,+0.745,-0.225,-0.624,-10.000,-10.062,+12.812,-7, 11, 7, 3, 0, 0, 0, 1
1503602235333,-0.761,-0.263,-0.313,-0.504,+0.737,-0.225,-0.633,-9.688,-8.562,+12.750,1, -10, 0, -2, 2, 0, 2, 1
1503602235347,-0.763,-0.262,-0.312,-0.503,+0.739,-0.229,-0.631,-8.375,-8.688,+12.125,-1, 3, 2, 7, 1, 1, 1, 4
1503602235371,-0.765,-0.261,-0.310,-0.501,+0.728,-0.232,-0.634,-8.375,-10.625,+11.125,7, 1, -1, -5, 0, 0, 0, -4
1503602235394,-0.767,-0.259,-0.308,-0.500,+0.714,-0.229,-0.632,-8.438,-12.875,+9.562,14, -3, -8, -4, -1, -1, -3, 16
1503602235407,-0.768,-0.257,-0.307,-0.499,+0.712,-0.228,-0.648,-7.875,-12.250,+7.438,9, 14, 6, 2, 3, 2, 1, -3
1503602235430,-0.770,-0.256,-0.305,-0.499,+0.711,-0.231,-0.653,-6.688,-10.562,+6.438,-19, -6, -3, -2, -1, 0, 0, 3
1503602235452,-0.771,-0.255,-0.304,-0.498,+0.705,-0.240,-0.663,-4.625,-7.438,+5.375,-11, 6, 6, 0, -2, -2, -1, -7
1503602235471,-0.772,-0.254,-0.304,-0.498,+0.712,-0.273,-0.666,-2.188,-6.125,+3.125,13, -17, -10, -2, -3, -1, -1, -2
1503602235489,-0.773,-0.253,-0.304,-0.497,+0.723,-0.279,-0.680,-1.375,-4.750,+3.312,-4, -6, 1, 1, 0, -1, 0, -5
1503602235512,-0.774,-0.251,-0.303,-0.497,+0.718,-0.281,-0.687,-0.625,-7.938,+3.875,-23, -9, 3, -3, 2, 0, 1, -6
1503602235536,-0.774,-0.249,-0.303,-0.497,+0.710,-0.265,-0.672,+0.188,-9.750,+4.125,14, 19, 3, -6, -3, -2, -3, -1
1503602235550,-0.775,-0.247,-0.303,-0.496,+0.713,-0.253,-0.670,+2.062,-6.688,+4.625,-7, -2, -1, 0, -1, -3, -4, 12
1503602235572,-0.775,-0.246,-0.304,-0.496,+0.715,-0.261,-0.662,+4.188,-3.625,+3.875,-6, -11, -5, 1, 0, 0, -2, -12
1503602235587,-0.776,-0.245,-0.305,-0.496,+0.713,-0.257,-0.656,+5.938,-3.438,+2.438,-2, -2, 1, 1, -1, -1, -2, -6
1503602235610,-0.775,-0.245,-0.306,-0.496,+0.721,-0.250,-0.654,+6.938,-0.562,+1.375,16, 4, 0, -1, 0, -1, -3, 7
1503602235632,-0.775,-0.244,-0.307,-0.496,+0.733,-0.248,-0.655,+7.812,+0.125,+2.000,-6, 9, 5, 2, 1, 1, 1, -3
1503602235647,-0.775,-0.243,-0.308,-0.496,+0.731,-0.257,-0.662,+7.750,-0.312,+2.000,-12, -2, 1, -3, -4, -2, 0, -3
1503602235671,-0.775,-0.242,-0.309,-0.496,+0.734,-0.259,-0.649,+7.688,-4.375,+1.750,-1, -3, -3, -4, -1, -2, 1, 1
1503602235692,-0.775,-0.240,-0.309,-0.496,+0.714,-0.265,-0.650,+6.562,-12.062,+1.375,7, -2, 0, -1, 2, 4, 0, 2
1503602235707,-0.775,-0.237,-0.308,-0.497,+0.674,-0.236,-0.637,+3.688,-16.562,+0.750,3, 16, 3, 1, -2, -1, 2, 1
1503602235731,-0.776,-0.236,-0.307,-0.498,+0.664,-0.214,-0.632,+2.000,-12.188,+1.062,-1, -2, 0, 2, -1, -2, 0, 7
1503602235752,-0.776,-0.235,-0.307,-0.498,+0.651,-0.195,-0.664,+0.875,-0.625,+3.312,14, -1, -4, -1, -4, -3, -3, -2
1503602235767,-0.777,-0.236,-0.307,-0.497,+0.680,-0.190,-0.649,+0.250,+4.875,+5.875,-9, -5, -3, 0, -4, -2, -2, -3
1503602235790,-0.776,-0.237,-0.308,-0.496,+0.709,-0.188,-0.621,+0.875,+5.000,+4.438,5, -1, -1, -1, -1, 0, 0, -1
1503602235811,-0.776,-0.238,-0.308,-0.496,+0.718,-0.196,-0.626,+0.312,+0.750,+2.500,-5, -7, -3, -3, 0, -1, 0, -1
1503602235827,-0.777,-0.238,-0.307,-0.496,+0.689,-0.200,-0.629,-1.750,-4.062,+1.625,2, 0, 0, 3, 2, -3, -3, 1
1503602235850,-0.777,-0.237,-0.306,-0.496,+0.671,-0.192,-0.625,-3.250,-5.438,+0.750,-9, 6, 10, 2, -4, -1, -1, -2
1503602235873,-0.777,-0.238,-0.305,-0.496,+0.667,-0.187,-0.641,-4.938,+0.438,-0.625,-16, -6, 0, 3, 1, 2, 0, -4
1503602235887,-0.777,-0.240,-0.304,-0.496,+0.677,-0.193,-0.654,-5.938,+6.688,-1.125,22, 2, -3, 0, 0, 2, -4, -2
1503602235910,-0.777,-0.241,-0.303,-0.496,+0.701,-0.223,-0.664,-6.250,+3.938,-1.438,-17, -5, -5, -4, -2, -1, -1, 0
1503602235932,-0.778,-0.242,-0.302,-0.496,+0.710,-0.233,-0.666,-6.875,-0.500,-1.000,14, -2, 1, -2, 0, 1, 0, -2
1503602235947,-0.778,-0.242,-0.301,-0.496,+0.705,-0.232,-0.664,-6.562,-5.500,-0.562,-8, -3, -1, 1, 1, 3, 1, -5
1503602235970,-0.779,-0.241,-0.300,-0.496,+0.682,-0.244,-0.669,-4.750,-8.625,-2.375,22, 2, 2, 6, 0, -1, 0, 2
1503602235991,-0.779,-0.240,-0.298,-0.497,+0.668,-0.256,-0.676,-3.938,-10.750,-4.000,-8, -1, -3, -3, -2, -3, 0, 1
1503602236014,-0.779,-0.239,-0.297,-0.498,+0.663,-0.246,-0.687,-3.188,-7.562,-3.938,-6, -9, -3, -6, 0, -1, -3, -1
1503602236033,-0.779,-0.238,-0.296,-0.498,+0.659,-0.237,-0.688,-2.625,-3.312,-4.000,-3, -5, -6, -5, -3, -1, 2, 0
1503602236051,-0.780,-0.238,-0.295,-0.498,+0.657,-0.235,-0.690,-1.812,-1.188,-3.312,0, -9, -6, -4, -3, -1, 0, -1
1503602236067,-0.780,-0.238,-0.295,-0.499,+0.661,-0.239,-0.700,-1.750,-0.875,-2.438,4, 7, 4, 3, 4, 1, -1, 1
1503602236090,-0.780,-0.237,-0.294,-0.499,+0.651,-0.228,-0.700,-1.562,-5.000,-3.000,2, 2, 0, 2, 1, 0, -3, 0
1503602236112,-0.780,-0.236,-0.292,-0.500,+0.649,-0.204,-0.702,-2.000,-11.938,-2.312,7, -4, -3, -3, -3, -1, -3, -4
1503602236127,-0.781,-0.234,-0.290,-0.501,+0.639,-0.187,-0.698,-0.562,-16.812,-2.188,0, -6, -3, -4, -8, -5, -2, -2
1503602236150,-0.782,-0.231,-0.288,-0.503,+0.647,-0.202,-0.687,+0.688,-19.062,-1.625,19, 6, -1, -2, 1, 0, -1, 3
1503602236172,-0.783,-0.228,-0.286,-0.504,+0.636,-0.216,-0.709,-1.750,-19.188,-2.062,-13, -3, -8, -7, -5, -1, 3, -1
1503602236193,-0.784,-0.226,-0.283,-0.505,+0.628,-0.198,-0.688,-4.438,-22.000,-1.500,-11, -6, -7, -1, 1, -1, 0, -2
1503602236210,-0.785,-0.222,-0.280,-0.506,+0.653,-0.216,-0.658,-2.750,-29.438,-1.750,-8, 0, 5, -5, -2, -1, -2, -5
1503602236234,-0.786,-0.219,-0.278,-0.507,+0.706,-0.303,-0.673,-2.750,-30.000,-1.375,13, -6, -10, -5, -2, 2, 3, 5
1503602236254,-0.787,-0.215,-0.277,-0.507,+0.714,-0.353,-0.668,-7.375,-29.250,+3.062,15, 5, 0, 0, 2, 1, 0, 0
1503602236270,-0.789,-0.212,-0.274,-0.507,+0.740,-0.343,-0.696,-12.312,-34.438,+5.188,4, 6, 7, 0, 2, -1, 0, -1
1503602236292,-0.791,-0.208,-0.270,-0.508,+0.694,-0.304,-0.708,-14.062,-34.062,+3.438,19, 5, 5, 3, 2, -1, -1, 2
1503602236314,-0.793,-0.205,-0.267,-0.508,+0.685,-0.275,-0.701,-14.562,-32.688,+1.125,3, -2, 0, -3, -3, -1, -1, 3
1503602236332,-0.794,-0.203,-0.263,-0.508,+0.709,-0.280,-0.727,-14.812,-27.375,+1.625,-10, -3, -7, -4, -5, -2, -1, 0
1503602236353,-0.796,-0.202,-0.260,-0.508,+0.690,-0.255,-0.724,-17.125,-22.562,+1.938,-8, 0, 0, 1, -2, 1, 0, -1
1503602236374,-0.798,-0.200,-0.256,-0.508,+0.653,-0.241,-0.725,-18.188,-29.562,+0.000,-17, -10, -2, 1, 1, 0, -2, -4
1503602236390,-0.799,-0.198,-0.251,-0.509,+0.621,-0.242,-0.740,-18.438,-32.062,-1.688,1, -4, -4, -2, -1, 1, -4, -14
1503602236412,-0.801,-0.195,-0.246,-0.510,+0.601,-0.234,-0.773,-19.688,-28.375,-3.062,-17, -9, -6, -5, -3, -4, -6, -12
1503602236435,-0.802,-0.194,-0.242,-0.511,+0.588,-0.193,-0.814,-17.125,-19.438,-3.688,16, 5, -2, -3, 1, 2, 2, -8
1503602236450,-0.803,-0.193,-0.238,-0.511,+0.593,-0.151,-0.849,-9.688,-14.250,-1.125,-3, 6, 10, -2, -6, -10, -29, -50
1503602236473,-0.803,-0.192,-0.237,-0.512,+0.565,-0.150,-0.853,-0.375,-10.250,+2.438,-6, -12, 1, 5, 2, 2, 11, 19
1503602236494,-0.804,-0.190,-0.236,-0.512,+0.543,-0.198,-0.804,+3.625,-7.375,+0.938,10, 4, 1, -2, 0, 0, 0, 2
1503602236510,-0.804,-0.189,-0.236,-0.512,+0.562,-0.206,-0.778,+1.625,-6.250,-0.562,-22, -11, 1, 1, 4, 2, 2, 2
1503602236535,-0.804,-0.188,-0.236,-0.512,+0.572,-0.195,-0.783,-1.875,-5.125,-0.438,10, 32, 19, 4, 1, -1, -1, 4
1503602236553,-0.805,-0.188,-0.235,-0.512,+0.573,-0.189,-0.785,-4.938,-4.188,+1.250,13, -11, -10, -1, 0, 0, 3, 10
1503602236570,-0.805,-0.189,-0.234,-0.511,+0.583,-0.192,-0.791,-6.812,-0.750,+3.562,-7, -9, 1, 0, 2, -1, -1, -5
1503602236591,-0.806,-0.189,-0.233,-0.511,+0.583,-0.199,-0.795,-7.375,+0.812,+3.875,3, -4, 2, 2, -2, -1, 0, -1
1503602236614,-0.806,-0.190,-0.232,-0.510,+0.568,-0.206,-0.802,-7.438,-0.312,+2.875,-13, -7, 2, 3, -2, 1, 0, 2
1503602236628,-0.807,-0.190,-0.232,-0.509,+0.565,-0.207,-0.799,-7.250,+0.750,+1.188,-22, -8, -2, -2, -4, 0, -3, -2
1503602236651,-0.807,-0.191,-0.231,-0.509,+0.562,-0.202,-0.793,-8.125,+4.000,+0.250,2, -10, -1, 1, 0, 0, 0, -1
1503602236676,-0.807,-0.193,-0.230,-0.508,+0.565,-0.186,-0.780,-9.062,+5.875,+0.312,4, 2, 5, 3, 1, 0, -3, 6
1503602236688,-0.807,-0.194,-0.230,-0.508,+0.569,-0.181,-0.795,-9.188,+6.688,+0.062,4, -2, -5, -3, -2, 0, 1, 3
1503602236712,-0.808,-0.196,-0.229,-0.507,+0.558,-0.179,-0.795,-8.375,+6.125,-0.250,-4, -9, -5, -2, 1, -1, -2, -9
1503602236736,-0.808,-0.197,-0.228,-0.507,+0.564,-0.176,-0.790,-7.125,+6.688,-0.688,14, 8, 9, 3, 1, 1, 1, 4
1503602236749,-0.808,-0.199,-0.228,-0.506,+0.581,-0.170,-0.775,-5.812,+5.500,-0.062,0, -3, -4, 0, 3, -1, 0, 2
1503602236771,-0.808,-0.200,-0.228,-0.506,+0.591,-0.158,-0.779,-4.688,+3.875,+1.125,19, 10, 0, -2, -2, -3, -2, -1
1503602236793,-0.808,-0.201,-0.228,-0.505,+0.586,-0.167,-0.775,-3.312,+2.312,+1.875,-2, 1, 1, 2, 2, 1, -1, -2
1503602236816,-0.808,-0.201,-0.228,-0.505,+0.595,-0.181,-0.765,-2.438,-0.188,+2.188,-9, -9, -2, -4, -2, -2, 0, -3
1503602236831,-0.809,-0.201,-0.227,-0.504,+0.600,-0.176,-0.774,-2.125,-1.688,+2.375,-13, -5, -2, -1, 1, 0, 2, 2
1503602236853,-0.809,-0.201,-0.227,-0.504,+0.583,-0.170,-0.777,-2.188,-1.438,+2.000,0, 5, 1, 1, -3, -3, -2, -2
1503602236869,-0.809,-0.201,-0.227,-0.504,+0.580,-0.171,-0.779,-2.125,-2.312,+2.000,-2, -2, -1, -2, -2, 0, -1, -2
1503602236891,-0.810,-0.200,-0.226,-0.503,+0.578,-0.172,-0.793,-2.125,-2.250,+2.812,2, 3, 0, -2, 0, -1, 3, 3
1503602236913,-0.810,-0.200,-0.226,-0.503,+0.580,-0.175,-0.791,-2.062,-2.125,+2.812,-2, 1, 1, 0, -1, -1, -3, -2
1503602236928,-0.810,-0.200,-0.226,-0.502,+0.579,-0.183,-0.784,-2.312,-1.062,+2.812,22, -2, 0, 0, 0, 5, 3, 4
1503602236951,-0.811,-0.200,-0.226,-0.502,+0.576,-0.182,-0.784,-2.812,-0.625,+3.125,-1, -2, -1, -2, 0, -3, -5, -8
1503602236974,-0.811,-0.200,-0.225,-0.501,+0.575,-0.183,-0.785,-2.750,-1.250,+2.875,-8, -1, -2, -2, -1, -8, 0, 3
1503602236988,-0.812,-0.200,-0.225,-0.501,+0.575,-0.183,-0.778,-2.438,-1.625,+2.250,-13, -7, -3, -2, -2, -1, -1, -2
1503602237012,-0.812,-0.200,-0.225,-0.500,+0.581,-0.180,-0.782,-2.188,-3.375,+1.875,-1, -4, -1, -3, -2, -4, 2, 4
1503602237036,-0.812,-0.199,-0.224,-0.500,+0.586,-0.177,-0.780,-1.500,-4.812,+2.250,3, 4, 0, 1, 2, 3, 0, -21
1503602237048,-0.813,-0.198,-0.224,-0.500,+0.585,-0.179,-0.783,-1.188,-6.125,+3.125,-14, -15, -4, -1, -4, -1, 1, 16
1503602237073,-0.813,-0.197,-0.224,-0.500,+0.580,-0.184,-0.791,-0.875,-6.000,+3.312,5, 1, 0, 0, -3, 0, 1, -3
1503602237093,-0.814,-0.197,-0.223,-0.499,+0.566,-0.181,-0.801,-1.500,-4.500,+2.688,7, 0, -2, -3, -1, 1, -1, 1
1503602237109,-0.814,-0.196,-0.223,-0.499,+0.555,-0.181,-0.792,-2.312,-2.062,+1.938,5, 9, 1, 0, -2, 0, -3, -4
1503602237131,-0.814,-0.196,-0.223,-0.499,+0.563,-0.175,-0.784,-2.000,-0.938,+1.438,-14, -10, -1, -2, -2, 3, -3, -6
1503602237154,-0.815,-0.196,-0.222,-0.498,+0.577,-0.176,-0.784,-1.875,-1.438,+1.500,-8, -8, -2, 0, -1, -1, -1, 1
1503602237172,-0.815,-0.196,-0.222,-0.498,+0.573,-0.178,-0.789,-1.688,-2.062,+1.500,-3, 4, 2, 0, -2, -3, 0, 1
1503602237191,-0.815,-0.196,-0.222,-0.498,+0.571,-0.171,-0.794,-1.125,-3.438,+1.875,5, 1, -1, -1, 0, -4, -2, 4
1503602237214,-0.816,-0.195,-0.221,-0.498,+0.567,-0.180,-0.804,-1.625,-2.562,+2.125,6, 3, -1, 0, -7, -2, 1, 7
1503602237228,-0.816,-0.195,-0.221,-0.497,+0.557,-0.179,-0.808,-2.062,-0.312,+1.750,-6, -1, -2, -1, 0, -2, -3, -4
1503602237251,-0.816,-0.196,-0.221,-0.497,+0.569,-0.176,-0.800,-1.625,+1.625,+1.688,-12, -5, -3, -2, -1, -3, -3, -8
1503602237274,-0.816,-0.196,-0.221,-0.496,+0.567,-0.179,-0.793,-1.000,+2.375,+1.875,-3, 0, -1, 0, 0, 0, -4, -4
1503602237289,-0.816,-0.196,-0.222,-0.496,+0.565,-0.185,-0.782,-0.750,+2.312,+1.625,2, 3, -2, -1, -3, -6, -1, 2
1503602237311,-0.816,-0.197,-0.222,-0.496,+0.574,-0.183,-0.787,-1.062,+1.938,+1.562,-23, -11, -4, -1, -2, -3, -2, -3
1503602237334,-0.817,-0.197,-0.222,-0.495,+0.570,-0.174,-0.792,-0.812,+2.000,+1.500,2, -1, -1, 0, 1, 0, 0, -1
1503602237350,-0.817,-0.197,-0.222,-0.495,+0.564,-0.182,-0.789,-0.688,+0.438,+2.000,-7, -1, -2, -1, 0, 0, -1, -1
1503602237371,-0.817,-0.197,-0.222,-0.494,+0.562,-0.189,-0.789,-1.250,+0.125,+1.875,2, 4, 0, -1, -2, -2, -1, 0
1503602237394,-0.817,-0.197,-0.222,-0.494,+0.572,-0.185,-0.787,-1.062,+1.750,+1.188,1, -3, -3, 0, -1, 1, 1, 0
1503602237409,-0.817,-0.198,-0.223,-0.494,+0.570,-0.173,-0.788,-0.562,+2.312,+0.625,5, 2, 1, -1, -1, -1, 0, 0
1503602237431,-0.817,-0.198,-0.223,-0.494,+0.576,-0.177,-0.786,-0.062,+0.938,+1.062,1, -1, 0, 0, -2, -2, 1, 1
1503602237454,-0.817,-0.198,-0.223,-0.493,+0.577,-0.182,-0.788,-0.312,-0.500,+2.438,3, 0, 0, 0, 1, 1, -2, 0
1503602237468,-0.818,-0.198,-0.223,-0.493,+0.572,-0.182,-0.786,-0.875,+0.125,+2.875,-7, 2, 0, -1, -2, -2, -2, -1
1503602237491,-0.818,-0.198,-0.223,-0.492,+0.580,-0.182,-0.783,-0.688,+0.188,+3.000,-2, -3, 0, -1, 0, -2, 0, -2
1503602237514,-0.818,-0.198,-0.223,-0.492,+0.579,-0.184,-0.783,-0.250,-1.000,+2.500,5, 0, -1, 1, -2, -1, -2, -5
1503602237529,-0.818,-0.197,-0.223,-0.491,+0.568,-0.194,-0.787,-0.375,-2.375,+2.375,-7, -4, -1, -2, -3, -1, 1, 0
1503602237551,-0.819,-0.197,-0.223,-0.491,+0.559,-0.192,-0.784,-0.625,-1.562,+2.125,-1, 2, -1, -2, 1, 1, -2, -4
1503602237582,-0.819,-0.197,-0.223,-0.491,+0.564,-0.189,-0.792,-0.812,-1.375,+1.625,-6, -2, -2, -1, 1, -1, -4, -7
1503602237588,-0.819,-0.196,-0.223,-0.491,+0.565,-0.182,-0.783,-0.750,-1.625,+1.250,21, 8, 0, -1, 1, 1, 1, 1
1503602237612,-0.819,-0.196,-0.223,-0.490,+0.567,-0.185,-0.793,-1.000,-2.062,+1.188,-10, -5, -1, -2, -3, 0, -2, -3
1503602237633,-0.820,-0.196,-0.223,-0.490,+0.565,-0.183,-0.798,-1.375,-2.188,+1.062,-9, -5, -1, 0, -3, -2, 0, -2
1503602237649,-0.820,-0.196,-0.222,-0.490,+0.565,-0.191,-0.792,-1.625,-1.688,+1.125,-5, 1, -1, -1, -2, 0, -1, -3
1503602237673,-0.820,-0.196,-0.222,-0.490,+0.565,-0.187,-0.797,-1.562,-1.375,+1.062,5, 3, 1, -1, 1, -1, -1, -1
1503602237693,-0.820,-0.195,-0.222,-0.490,+0.562,-0.187,-0.791,-1.562,-2.312,+0.938,7, 1, -2, 0, -3, -2, -1, -1
1503602237710,-0.821,-0.195,-0.222,-0.490,+0.564,-0.193,-0.789,-1.688,-2.438,+1.000,8, -2, -1, -6, -4, -1, 0, 2
1503602237731,-0.821,-0.195,-0.221,-0.489,+0.562,-0.192,-0.796,-2.062,-2.062,+0.688,1, -1, -2, 0, 0, -1, 0, -1
1503602237753,-0.821,-0.195,-0.221,-0.489,+0.559,-0.184,-0.798,-2.500,-1.125,+0.625,18, 15, 1, 4, 2, 1, 2, 2
1503602237768,-0.821,-0.195,-0.221,-0.489,+0.560,-0.183,-0.794,-2.188,-0.250,+0.312,-18, -13, -4, -3, -3, -3, -1, -3
1503602237791,-0.821,-0.195,-0.221,-0.489,+0.560,-0.185,-0.792,-1.812,-0.312,+0.000,3, 4, 1, 1, 0, -3, -1, -2
1503602237814,-0.821,-0.195,-0.220,-0.489,+0.564,-0.187,-0.783,-1.938,+0.062,+0.062,1, 2, -3, -3, -1, -1, -4, 0
1503602237828,-0.821,-0.195,-0.220,-0.489,+0.569,-0.181,-0.785,-2.312,-0.375,+0.312,-11, -5, -2, -1, 4, -2, -5, -2
1503602237851,-0.822,-0.195,-0.220,-0.488,+0.567,-0.176,-0.787,-2.125,-1.750,+0.750,-13, -10, -3, -6, -4, 1, -1, -1
1503602237874,-0.822,-0.195,-0.220,-0.488,+0.561,-0.187,-0.796,-1.812,-2.438,+0.562,9, 7, 0, 0, -3, -3, 0, 0
1503602237889,-0.822,-0.195,-0.219,-0.488,+0.558,-0.186,-0.796,-1.875,-2.500,+0.188,-2, -4, 0, 1, 0, -1, -2, 0
1503602237911,-0.822,-0.195,-0.219,-0.488,+0.559,-0.185,-0.793,-1.875,-1.938,-0.125,7, 2, -1, 0, -1, -1, 1, -1
1503602237933,-0.822,-0.195,-0.219,-0.488,+0.565,-0.185,-0.787,-2.000,-1.250,+0.062,13, 2, -1, -2, -2, 3, 2, 3
1503602237949,-0.822,-0.195,-0.218,-0.488,+0.565,-0.184,-0.791,-1.812,-2.625,+0.438,-14, -5, 1, 1, 2, 0, -1, -3
1503602237971,-0.823,-0.194,-0.218,-0.488,+0.566,-0.188,-0.791,-1.438,-4.062,+0.562,7, 0, -3, -1, -1, -1, -1, 0
1503602237993,-0.823,-0.194,-0.218,-0.488,+0.565,-0.185,-0.795,-1.562,-4.438,+0.625,1, -1, 0, -3, -2, 0, 0, -1
1503602238012,-0.823,-0.193,-0.217,-0.488,+0.559,-0.186,-0.805,-1.188,-4.188,+0.812,-8, -4, -3, -3, -3, -2, -2, -1
1503602238033,-0.823,-0.193,-0.217,-0.488,+0.551,-0.178,-0.796,-1.125,-3.562,+1.000,2, 2, 2, -1, 1, 0, -1, 1
1503602238053,-0.824,-0.192,-0.217,-0.488,+0.554,-0.180,-0.799,-0.812,-2.938,+1.125,0, -2, 0, -1, 0, 0, -1, -1
1503602238078,-0.824,-0.192,-0.217,-0.487,+0.559,-0.182,-0.789,-0.562,-3.438,+1.875,-7, -7, -1, -2, -1, -2, -2, -2
1503602238099,-0.824,-0.191,-0.216,-0.487,+0.559,-0.183,-0.797,-0.562,-4.438,+2.812,17, 9, 0, -1, -2, -1, 0, 1
1503602238113,-0.825,-0.191,-0.216,-0.487,+0.553,-0.184,-0.810,-1.188,-3.625,+3.062,-2, -3, -1, -2, -2, -2, 0, -1
1503602238129,-0.825,-0.190,-0.216,-0.486,+0.548,-0.187,-0.809,-1.812,-2.250,+2.688,-3, -3, -1, -1, -1, 0, 0, -2
1503602238151,-0.826,-0.190,-0.216,-0.486,+0.541,-0.186,-0.803,-1.750,-0.562,+2.125,0, 2, 0, 2, -4, 1, 0, 0
1503602238176,-0.826,-0.190,-0.216,-0.485,+0.555,-0.184,-0.795,-1.688,+0.500,+1.938,-6, -8, -2, -2, -1, 0, 1, 0
1503602238189,-0.826,-0.190,-0.216,-0.485,+0.554,-0.191,-0.801,-1.062,-0.875,+1.812,6, 4, 0, -2, -3, -2, -2, 1
1503602238215,-0.826,-0.190,-0.216,-0.485,+0.552,-0.192,-0.810,-0.688,-0.938,+1.250,-3, -3, -1, -1, 1, 0, 1, -1
1503602238233,-0.826,-0.190,-0.216,-0.485,+0.546,-0.187,-0.804,-1.062,+0.000,+0.375,1, -5, 0, 1, 0, 2, 2, 2
1503602238250,-0.826,-0.190,-0.215,-0.485,+0.544,-0.179,-0.804,-1.250,+0.438,-0.188,-4, 0, -1, -2, -1, -3, -1, -3
1503602238271,-0.826,-0.190,-0.215,-0.484,+0.551,-0.182,-0.797,-1.188,+0.500,+0.312,-2, 0, 1, 1, 1, -2, -1, 0
1503602238293,-0.826,-0.191,-0.215,-0.484,+0.557,-0.191,-0.797,-1.125,-0.375,+1.062,1, -1, -1, 0, 1, -1, 1, 0
1503602238310,-0.827,-0.190,-0.215,-0.484,+0.550,-0.189,-0.795,-1.188,-1.000,+1.375,1, -3, -2, 0, -2, -1, -3, 0
1503602238332,-0.827,-0.190,-0.215,-0.484,+0.553,-0.186,-0.807,-1.125,-0.750,+1.062,11, 3, 1, -2, 0, 0, 1, 4
1503602238354,-0.827,-0.190,-0.215,-0.483,+0.551,-0.191,-0.809,-1.062,-0.062,+0.750,-3, -1, -2, 0, 1, -2, -4, -1
1503602238369,-0.827,-0.190,-0.215,-0.483,+0.545,-0.186,-0.803,-1.312,+0.625,+0.312,-5, 1, 0, 1, 0, 2, 1, -1
1503602238392,-0.827,-0.191,-0.215,-0.483,+0.555,-0.187,-0.793,-1.438,+0.812,+0.750,-5, -6, -2, -1, -2, 3, 2, -5
1503602238413,-0.827,-0.191,-0.215,-0.483,+0.556,-0.187,-0.792,-1.312,+0.000,+1.188,-4, -1, 1, -2, -2, -2, 0, -3
1503602238429,-0.827,-0.191,-0.215,-0.483,+0.555,-0.186,-0.802,-1.000,-1.125,+1.188,-4, -7, -2, -3, -3, -3, -4, -3
1503602238452,-0.828,-0.191,-0.215,-0.482,+0.545,-0.187,-0.810,-0.938,-0.562,+0.875,-5, -3, 1, -1, -1, -2, -3, -4
1503602238473,-0.828,-0.191,-0.215,-0.482,+0.541,-0.191,-0.809,-1.125,+0.812,+0.625,-4, -2, 1, 2, 0, -2, 0, 1
1503602238489,-0.828,-0.191,-0.215,-0.482,+0.545,-0.192,-0.805,-1.188,+0.688,+0.500,-2, -1, 0, -1, -5, -2, 1, 1
1503602238512,-0.828,-0.191,-0.215,-0.482,+0.553,-0.188,-0.794,-1.125,+1.312,+0.188,-3, 0, 0, -3, -1, -2, -2, -1
1503602238533,-0.828,-0.191,-0.215,-0.482,+0.556,-0.181,-0.804,-0.750,+1.625,+0.188,-3, 0, -3, -1, 0, 1, -2, -6
1503602238549,-0.828,-0.192,-0.216,-0.482,+0.567,-0.181,-0.801,+0.562,+0.375,-0.938,-3, 0, -1, 0, 0, 1, -1, -2
1503602238571,-0.827,-0.192,-0.216,-0.482,+0.565,-0.194,-0.794,+1.875,+1.438,-2.062,-3, 0, 0, -1, -1, 1, 1, 1
1503602238593,-0.827,-0.192,-0.217,-0.482,+0.577,-0.201,-0.799,+3.562,+1.438,-2.312,0, -3, -3, -1, -1, -3, -1, -2
1503602238611,-0.826,-0.192,-0.218,-0.483,+0.574,-0.197,-0.809,+4.812,+4.000,-4.688,3, -2, -1, -2, 1, 2, 4, 3
1503602238631,-0.825,-0.193,-0.220,-0.484,+0.574,-0.185,-0.797,+6.375,+7.250,-6.938,0, -1, 0, -2, -5, -11, -5, -1
1503602238654,-0.824,-0.194,-0.221,-0.484,+0.576,-0.183,-0.784,+9.375,+7.312,-6.000,4, 0, 1, -1, -1, 2, 0, -1
1503602238669,-0.823,-0.194,-0.223,-0.485,+0.559,-0.184,-0.790,+9.312,+4.625,-5.688,4, 0, -1, 0, -1, 2, 0, 4
1503602238691,-0.822,-0.194,-0.224,-0.486,+0.550,-0.196,-0.798,+7.062,+4.125,-3.750,6, 4, -3, -3, -1, 1, 1, 0
1503602238713,-0.821,-0.195,-0.226,-0.486,+0.571,-0.192,-0.804,+7.562,+10.938,-2.562,-3, -2, 0, 0, 1, 1, 3, -4
1503602238730,-0.821,-0.196,-0.229,-0.486,+0.590,-0.186,-0.815,+9.500,+15.875,-0.500,-2, -1, 0, -1, 0, 4, 5, 1
1503602238753,-0.820,-0.198,-0.232,-0.485,+0.596,-0.175,-0.783,+14.000,+15.438,+2.125,3, 2, 0, -1, 0, 0, -2, -2
1503602238773,-0.819,-0.198,-0.236,-0.485,+0.616,-0.191,-0.779,+19.312,+15.125,+4.562,-4, -1, 0, 0, -1, -3, -1, -3
1503602238789,-0.818,-0.199,-0.240,-0.484,+0.610,-0.210,-0.806,+19.812,+13.562,+6.000,-5, -3, 1, 1, 3, 9, 5, 0
1503602238812,-0.817,-0.198,-0.244,-0.483,+0.590,-0.198,-0.829,+20.875,+11.000,+8.438,-3, -3, -3, -1, 0, -2, -3, -1
1503602238833,-0.817,-0.197,-0.248,-0.482,+0.589,-0.172,-0.846,+27.438,+12.812,+13.250,-2, 2, -1, -2, -2, -3, -7, -3
1503602238850,-0.817,-0.196,-0.254,-0.480,+0.600,-0.181,-0.850,+36.062,+19.188,+19.188,1, 0, 2, 0, 0, 2, 3, -2
1503602238871,-0.816,-0.195,-0.263,-0.477,+0.641,-0.222,-0.828,+43.938,+23.938,+23.188,1, -2, 1, -1, 1, 4, 2, 1
1503602238893,-0.814,-0.193,-0.273,-0.475,+0.697,-0.251,-0.806,+52.875,+20.625,+25.125,1, 1, -1, -2, -6, -2, 0, -1
1503602238909,-0.813,-0.189,-0.283,-0.473,+0.690,-0.267,-0.788,+61.500,+10.625,+25.812,4, 7, 1, 0, -1, 1, 3, -1
1503602238931,-0.812,-0.183,-0.293,-0.471,+0.658,-0.294,-0.764,+68.375,-0.875,+28.438,0, -2, -2, 0, 7, -5, -5, -1
1503602238955,-0.811,-0.175,-0.304,-0.469,+0.637,-0.321,-0.756,+74.375,-2.812,+32.062,-4, -3, 0, 0, 1, 1, 0, 0
1503602238969,-0.809,-0.167,-0.315,-0.467,+0.601,-0.350,-0.751,+80.000,+1.062,+34.125,6, -2, -1, -1, -5, -2, -1, -1
1503602238991,-0.808,-0.159,-0.328,-0.464,+0.597,-0.377,-0.754,+84.750,+2.125,+36.812,0, 2, 1, -1, 0, 2, 1, 1
1503602239018,-0.806,-0.149,-0.341,-0.461,+0.598,-0.415,-0.720,+88.750,-0.438,+40.250,-2, 4, 0, -2, -3, -7, -4, -3
1503602239029,-0.804,-0.139,-0.354,-0.457,+0.606,-0.462,-0.692,+92.625,-3.250,+43.688,-5, -6, -4, -1, -1, -2, -2, 1
1503602239055,-0.801,-0.128,-0.368,-0.454,+0.591,-0.502,-0.659,+95.438,-7.938,+43.375,-2, -1, -4, -3, -6, -2, 2, -1
1503602239073,-0.799,-0.117,-0.382,-0.451,+0.577,-0.550,-0.641,+96.312,-11.312,+43.562,-2, -2, 1, 0, 1, 0, 0, -1
1503602239090,-0.796,-0.105,-0.395,-0.447,+0.537,-0.570,-0.631,+96.125,-10.500,+43.438,-14, -6, -2, -3, -2, 0, -1, -2
1503602239113,-0.793,-0.093,-0.408,-0.443,+0.501,-0.592,-0.600,+97.000,-7.062,+42.688,15, 4, -1, -1, -3, 0, 1, -1
1503602239133,-0.789,-0.082,-0.422,-0.439,+0.499,-0.624,-0.566,+95.312,-4.062,+40.875,5, 2, 0, -2, -2, -1, -1, -2
1503602239156,-0.785,-0.072,-0.435,-0.435,+0.486,-0.642,-0.546,+94.250,-0.125,+37.375,7, 1, -6, -7, -5, -2, 1, 1
1503602239171,-0.781,-0.062,-0.448,-0.432,+0.500,-0.681,-0.523,+94.500,-3.125,+34.562,-3, 15, 11, 2, 2, -1, 0, 0
1503602239193,-0.775,-0.051,-0.461,-0.429,+0.471,-0.710,-0.507,+95.188,-9.250,+30.500,-6, -2, -1, -4, -2, 3, 0, 0
1503602239216,-0.770,-0.041,-0.473,-0.427,+0.448,-0.719,-0.469,+92.750,-8.812,+25.688,6, 2, -1, -8, -4, -3, -2, -3
1503602239231,-0.765,-0.031,-0.484,-0.425,+0.413,-0.726,-0.464,+87.750,-8.750,+20.688,0, 2, 3, 6, 13, 2, 0, 0
1503602239253,-0.759,-0.022,-0.494,-0.423,+0.402,-0.745,-0.438,+81.812,-7.188,+16.625,2, -2, -3, -3, -4, -1, -2, -1
1503602239276,-0.754,-0.014,-0.503,-0.422,+0.420,-0.752,-0.430,+75.875,-7.375,+12.812,2, 1, -2, -7, -4, -1, -3, -2
1503602239292,-0.749,-0.006,-0.511,-0.422,+0.393,-0.754,-0.433,+71.562,-10.312,+9.938,4, 11, 11, 10, -1, 0, -1, -3
1503602239315,-0.743,+0.002,-0.519,-0.422,+0.404,-0.764,-0.387,+68.500,-15.875,+8.562,-6, -1, 2, 1, 4, 0, 1, -1
1503602239343,-0.738,+0.009,-0.526,-0.422,+0.412,-0.764,-0.352,+62.750,-15.938,+8.688,-2, -4, -5, 1, -2, -3, -3, -1
1503602244938,-0.770,-0.365,-0.276,-0.445,+0.838,-0.081,-0.503,-9.062,-2.312,-0.438,34, 4, 3, -3, -2, 0, 0, 11
1503602244954,-0.771,-0.366,-0.274,-0.444,+0.835,-0.084,-0.510,-10.188,-3.500,-0.125,0, 11, 19, 10, 3, 0, 0, 5
1503602244977,-0.771,-0.366,-0.273,-0.444,+0.808,-0.078,-0.545,-9.812,-3.125,+1.125,-7, -10, -10, -3, 1, 1, 4, 8
1503602244998,-0.772,-0.366,-0.271,-0.443,+0.814,-0.076,-0.563,-7.250,-4.250,+2.062,15, 3, -3, 0, -1, -2, 0, 1
1503602245014,-0.773,-0.365,-0.270,-0.443,+0.833,-0.092,-0.549,-5.000,-8.625,+2.688,6, -4, -5, -3, -1, -3, -2, 3
1503602245036,-0.774,-0.364,-0.269,-0.443,+0.843,-0.106,-0.521,-5.375,-10.062,+1.062,2, 0, -6, -5, -2, -1, -3, 0
1503602245058,-0.775,-0.364,-0.268,-0.442,+0.830,-0.105,-0.538,-6.750,-8.750,+1.812,2, -1, -5, -1, 0, 0, -2, 4
1503602245078,-0.776,-0.363,-0.266,-0.442,+0.821,-0.097,-0.564,-5.688,-6.500,+1.938,-3, -7, 11, 14, 1, 0, 5, 0
1503602245096,-0.777,-0.362,-0.266,-0.442,+0.804,-0.101,-0.588,-3.312,-3.938,+1.250,-3, 3, -6, -4, 0, -2, -3, -3
1503602245120,-0.777,-0.362,-0.265,-0.442,+0.815,-0.123,-0.561,-1.812,-5.625,+0.062,19, -1, -1, -3, -2, -3, -2, 5
1503602245134,-0.778,-0.361,-0.265,-0.442,+0.833,-0.123,-0.553,-2.062,-4.875,-0.062,12, -2, 0, 7, 1, 1, -1, 4
1503602245156,-0.778,-0.361,-0.264,-0.441,+0.826,-0.118,-0.560,-2.250,-4.812,+0.500,-11, -4, -2, -5, -1, -1, 0, 4
1503602245182,-0.779,-0.360,-0.264,-0.441,+0.800,-0.106,-0.582,-2.688,-6.062,-0.125,-7, 3, 1, -5, -2, -1, -2, -3
1503602245194,-0.779,-0.359,-0.263,-0.441,+0.807,-0.106,-0.576,-3.250,-3.500,-0.938,13, -4, -6, -2, 1, 2, 2, 1
1503602245217,-0.779,-0.360,-0.263,-0.441,+0.804,-0.097,-0.588,-1.750,+3.000,-1.188,-20, -6, -2, -2, -1, -1, 5, -8
1503602245238,-0.779,-0.360,-0.263,-0.441,+0.825,-0.090,-0.585,+0.750,+6.062,+0.375,5, 5, 3, 2, -3, -1, -1, -1
1503602245254,-0.778,-0.361,-0.264,-0.441,+0.841,-0.101,-0.567,+3.125,+5.625,+1.688,-2, -1, 0, 1, 5, -2, -2, -1
1503602245279,-0.778,-0.360,-0.265,-0.441,+0.837,-0.115,-0.552,+3.688,-2.688,-0.188,-9, -3, -4, -5, -5, -2, -3, -5
1503602245298,-0.779,-0.359,-0.264,-0.442,+0.814,-0.116,-0.561,+2.062,-6.875,-3.000,-8, -3, -4, -3, 2, 1, -3, -3
1503602245314,-0.779,-0.359,-0.264,-0.442,+0.775,-0.102,-0.557,+0.438,-4.625,-4.188,14, 9, 4, 0, 2, 2, -1, 1
1503602245336,-0.778,-0.359,-0.264,-0.443,+0.776,-0.088,-0.551,+0.000,+4.188,-3.750,-10, -5, -1, 2, 5, -1, -1, -2
1503602245358,-0.777,-0.361,-0.265,-0.442,+0.800,-0.081,-0.562,+0.438,+14.750,-2.062,8, 3, 4, 0, -2, -2, 0, 2
1503602245374,-0.776,-0.363,-0.266,-0.442,+0.839,-0.093,-0.562,+1.250,+13.562,-0.938,-4, -2, -6, 0, -5, -2, -3, -8
1503602245396,-0.776,-0.364,-0.266,-0.442,+0.850,-0.105,-0.551,+1.312,+4.938,-2.125,5, 2, 1, 3, 0, -2, -2, -7
1503602245418,-0.776,-0.364,-0.266,-0.442,+0.843,-0.104,-0.543,+0.250,-3.438,-2.312,25, 0, -8, -4, -4, -2, 0, 6
1503602245434,-0.776,-0.363,-0.266,-0.442,+0.833,-0.095,-0.531,-0.938,-5.688,-0.312,-32, -8, -2, -2, -2, -3, -6, -12
1503602245457,-0.776,-0.363,-0.266,-0.442,+0.833,-0.092,-0.523,-1.688,-4.125,+2.438,-25, -2, 4, 3, 1, 2, 2, 5
1503602245479,-0.777,-0.362,-0.265,-0.441,+0.840,-0.087,-0.537,-2.188,-5.938,+5.688,6, -1, -1, -3, -4, 2, 3, 14
1503602245494,-0.778,-0.361,-0.265,-0.440,+0.839,-0.086,-0.538,-1.500,-13.062,+7.375,7, 0, -4, -4, 0, 0, -1, -2
1503602245517,-0.780,-0.358,-0.263,-0.440,+0.825,-0.096,-0.542,-0.938,-19.938,+6.062,-2, 0, 5, 1, -1, -1, -3, 0
1503602245539,-0.782,-0.356,-0.262,-0.440,+0.803,-0.079,-0.549,-2.438,-21.062,+6.125,-27, -12, -4, -5, -7, -5, -3, 9
1503602245555,-0.784,-0.353,-0.260,-0.440,+0.786,-0.064,-0.563,-2.500,-18.188,+8.500,6, -5, -2, 3, 1, 0, 1, 5
1503602245578,-0.785,-0.351,-0.259,-0.439,+0.787,-0.073,-0.578,-1.625,-13.188,+10.625,-8, 4, -3, -3, -3, -3, 0, 11
1503602245599,-0.787,-0.349,-0.259,-0.438,+0.799,-0.084,-0.580,-0.812,-12.688,+11.125,58, 17, 0, 1, -1, 0, -4, 14
1503602245615,-0.789,-0.347,-0.258,-0.437,+0.801,-0.086,-0.578,-1.125,-14.438,+11.812,3, 2, -6, -3, 0, 1, 2, -6
1503602245637,-0.790,-0.345,-0.258,-0.436,+0.788,-0.091,-0.587,+0.125,-14.000,+11.125,-14, -8, -4, 0, 0, 0, 0, -10
1503602245659,-0.792,-0.343,-0.257,-0.436,+0.772,-0.103,-0.596,+1.562,-10.125,+8.938,5, -4, 1, 1, 1, 1, 0, -6
1503602245674,-0.793,-0.341,-0.257,-0.435,+0.774,-0.097,-0.590,+1.812,-8.312,+9.250,-2, 5, 3, -2, -1, 1, 1, 0
1503602245697,-0.794,-0.339,-0.258,-0.434,+0.780,-0.090,-0.596,+3.125,-8.500,+9.750,-1, 0, 0, 2, 0, -2, 0, -6
1503602245719,-0.795,-0.338,-0.258,-0.434,+0.765,-0.101,-0.592,+3.812,-9.438,+9.188,-4, -5, -2, 4, -1, 0, 1, 0
1503602245734,-0.796,-0.335,-0.258,-0.433,+0.753,-0.104,-0.590,+4.188,-11.500,+8.500,-11, 3, 7, -3, -1, -1, -3, -12
1503602245756,-0.797,-0.333,-0.258,-0.433,+0.743,-0.105,-0.606,+4.562,-10.312,+8.812,1, -3, 5, 1, 0, -3, -4, -8
1503602245781,-0.798,-0.331,-0.258,-0.432,+0.744,-0.102,-0.609,+4.625,-10.812,+9.500,-8, -10, -9, -4, -1, 0, 1, -1
1503602245794,-0.799,-0.329,-0.258,-0.432,+0.752,-0.097,-0.604,+6.375,-10.938,+11.438,2, -4, 0, 10, 2, 0, -1, -2
1503602245817,-0.801,-0.326,-0.259,-0.431,+0.749,-0.086,-0.600,+9.312,-13.688,+14.500,4, 6, 0, -5, -4, -1, -1, -3
1503602245839,-0.802,-0.322,-0.259,-0.430,+0.750,-0.079,-0.621,+11.875,-16.812,+18.062,-7, -10, -9, -2, -2, 1, 1, 0
1503602245861,-0.804,-0.317,-0.260,-0.430,+0.749,-0.094,-0.630,+16.125,-21.938,+17.562,-44, -9, 2, -4, -1, 0, -2, -6
1503602245877,-0.806,-0.312,-0.262,-0.430,+0.740,-0.124,-0.616,+19.500,-24.938,+17.812,18, 0, -3, 0, -1, 0, -2, 2
1503602245899,-0.808,-0.307,-0.264,-0.429,+0.730,-0.128,-0.618,+19.625,-23.125,+20.938,-2, -1, 2, -1, 1, 0, 0, 0
1503602245923,-0.809,-0.302,-0.266,-0.428,+0.729,-0.136,-0.635,+19.875,-17.750,+21.562,0, 4, -3, -5, -7, -4, -2, 0
1503602245937,-0.810,-0.297,-0.269,-0.427,+0.734,-0.188,-0.650,+21.938,-13.625,+17.812,2, 6, 2, -2, 1, -2, -2, -2
1503602245959,-0.811,-0.294,-0.272,-0.426,+0.733,-0.228,-0.645,+20.625,-9.875,+16.688,16, -1, 0, 1, -2, -2, -3, -1
1503602245982,-0.813,-0.290,-0.275,-0.425,+0.742,-0.210,-0.640,+16.438,-13.125,+20.812,-5, -2, 0, 0, 0, 1, 2, -1
1503602245997,-0.814,-0.286,-0.276,-0.423,+0.726,-0.190,-0.646,+13.812,-15.625,+22.188,-1, -4, 2, 3, 1, 0, 1, 1
1503602246019,-0.816,-0.281,-0.277,-0.422,+0.724,-0.194,-0.641,+12.625,-22.625,+21.312,11, 1, -2, -6, -1, -2, -1, 2
1503602246041,-0.818,-0.276,-0.279,-0.421,+0.732,-0.249,-0.625,+13.750,-24.375,+18.125,-2, 3, 6, 5, 1, 0, 2, 5
1503602246057,-0.819,-0.272,-0.280,-0.420,+0.729,-0.284,-0.613,+11.938,-21.188,+16.188,-24, -10, -8, -5, -3, -1, -1, -3
1503602246079,-0.821,-0.268,-0.281,-0.419,+0.708,-0.286,-0.629,+7.688,-17.938,+16.500,23, 3, 4, 3, 0, 0, -1, 0
1503602246101,-0.823,-0.265,-0.282,-0.417,+0.681,-0.274,-0.656,+3.625,-13.312,+15.375,-1, 6, 2, -1, -1, 0, -1, 1
1503602246117,-0.824,-0.261,-0.282,-0.416,+0.667,-0.301,-0.667,+0.438,-15.312,+13.438,5, 4, 6, 7, 3, 1, 0, -2
1503602246139,-0.826,-0.258,-0.281,-0.414,+0.684,-0.323,-0.653,-3.812,-17.062,+12.750,-4, 0, 2, -2, 0, -3, -2, 1
1503602246161,-0.828,-0.256,-0.281,-0.413,+0.688,-0.327,-0.639,-7.188,-18.000,+11.500,0, 1, 0, -2, -2, -1, -1, 6
1503602246177,-0.830,-0.253,-0.279,-0.411,+0.683,-0.330,-0.640,-8.500,-15.875,+8.938,-7, -3, 0, -5, -1, -1, 0, 2
1503602246198,-0.831,-0.252,-0.278,-0.410,+0.660,-0.344,-0.668,-12.188,-11.938,+6.812,-3, 4, 2, 1, -2, -1, 0, 0
1503602246221,-0.833,-0.251,-0.276,-0.408,+0.646,-0.358,-0.678,-16.750,-8.688,+6.188,-12, -6, -9, -8, -3, 0, -1, -2
1503602246237,-0.835,-0.250,-0.274,-0.406,+0.646,-0.352,-0.680,-20.875,-6.125,+5.375,-4, -14, -11, -8, -3, -2, -2, -3
1503602246259,-0.836,-0.251,-0.271,-0.405,+0.675,-0.341,-0.682,-22.938,-4.562,+3.562,-14, -6, 0, 4, 3, 0, -3, -2
1503602246283,-0.838,-0.252,-0.269,-0.404,+0.679,-0.345,-0.696,-22.625,-3.250,-0.125,-7, -4, 2, -5, -5, -1, 0, -5
1503602246297,-0.839,-0.252,-0.266,-0.403,+0.669,-0.350,-0.703,-21.688,-7.438,-0.625,-1, -5, -9, -4, -1, -2, -1, 0
1503602246319,-0.841,-0.251,-0.263,-0.402,+0.649,-0.308,-0.713,-22.438,-13.250,-0.062,1, -4, -7, -3, 1, 0, -1, -4
1503602246341,-0.843,-0.250,-0.258,-0.401,+0.617,-0.270,-0.721,-23.125,-15.188,+0.000,-7, -4, -2, 5, 2, -2, -2, 0
1503602246358,-0.844,-0.249,-0.254,-0.401,+0.600,-0.235,-0.724,-22.938,-13.750,-0.938,-10, 0, 3, -4, -4, 0, -1, -1
1503602246382,-0.846,-0.249,-0.250,-0.401,+0.614,-0.228,-0.729,-20.188,-9.375,-2.188,20, 3, 5, -2, -1, 1, 2, 0
1503602246401,-0.846,-0.249,-0.247,-0.401,+0.639,-0.230,-0.748,-17.875,-3.812,-2.562,3, -3, -6, -6, -2, -2, 0, -1
1503602246418,-0.847,-0.249,-0.244,-0.400,+0.655,-0.208,-0.751,-14.562,-4.875,+0.812,-11, -2, 2, -2, -1, -1, -1, -3
1503602246439,-0.849,-0.249,-0.242,-0.400,+0.655,-0.187,-0.749,-10.625,-10.000,+4.562,-12, -3, -4, 1, -2, -1, -3, -3
1503602246461,-0.850,-0.247,-0.239,-0.399,+0.637,-0.191,-0.734,-10.375,-14.062,+5.562,-8, -4, -12, -1, 3, 4, 4, 1
1503602246476,-0.851,-0.246,-0.237,-0.398,+0.628,-0.194,-0.710,-13.375,-14.125,+5.062,1, 1, 4, 3, -1, -1, -1, 0
1503602246499,-0.853,-0.244,-0.233,-0.398,+0.618,-0.186,-0.705,-16.000,-19.375,+4.875,5, 0, -5, -7, -3, -2, 0, 1
1503602246521,-0.855,-0.242,-0.229,-0.397,+0.622,-0.202,-0.706,-18.750,-25.062,+5.312,7, -5, -1, -6, -6, -4, -3, -6
1503602246536,-0.857,-0.240,-0.225,-0.396,+0.620,-0.217,-0.694,-23.500,-24.125,+6.562,7, 9, -13, 3, 1, -1, 0, 3
1503602246559,-0.860,-0.239,-0.220,-0.394,+0.621,-0.218,-0.703,-29.312,-22.812,+6.938,-1, 1, 1, 7, 4, 2, 1, 3
1503602246584,-0.862,-0.239,-0.214,-0.392,+0.651,-0.201,-0.750,-34.188,-13.188,+9.250,-7, 0, 7, 1, -2, 0, 1, -1
1503602246596,-0.864,-0.240,-0.210,-0.388,+0.719,-0.191,-0.843,-30.250,-5.625,+17.250,-2, 1, 1, 11, 2, -1, -2, 0
1503602246619,-0.866,-0.241,-0.209,-0.384,+0.751,-0.165,-0.875,-14.938,+0.000,+25.250,16, 0, 4, -4, -5, -2, -3, 1
1503602246641,-0.868,-0.239,-0.209,-0.382,+0.700,-0.209,-0.837,-2.500,-17.750,+20.312,0, -1, 4, 0, 1, 1, -1, 0
1503602246657,-0.870,-0.235,-0.209,-0.381,+0.668,-0.264,-0.720,+1.375,-26.500,+8.812,-1, -2, 2, -7, -3, -3, -1, -4
1503602246679,-0.871,-0.233,-0.208,-0.380,+0.598,-0.261,-0.708,-4.500,-12.875,+4.562,-11, -7, -11, 1, 1, 0, 0, -1
1503602246701,-0.872,-0.233,-0.207,-0.379,+0.527,-0.196,-0.767,-12.875,+0.750,+5.812,-11, -9, -8, -5, -1, -3, -4, -4
1503602246719,-0.872,-0.234,-0.205,-0.377,+0.540,-0.151,-0.785,-12.875,+4.125,+7.188,-10, 0, 8, 6, 8, 1, -2, -3
1503602246739,-0.873,-0.234,-0.204,-0.376,+0.584,-0.169,-0.783,-6.312,-1.062,+6.125,-7, -2, 0, -3, -5, 0, -1, -3
1503602246755,-0.874,-0.232,-0.203,-0.375,+0.609,-0.202,-0.791,-1.938,-11.375,+6.625,-5, -9, -2, -3, 2, -3, 2, 1
1503602246776,-0.875,-0.230,-0.202,-0.375,+0.567,-0.217,-0.782,-1.688,-17.438,+6.688,0, 1, 5, 5, 0, -2, -1, 1
1503602246799,-0.876,-0.228,-0.202,-0.374,+0.551,-0.210,-0.788,-2.688,-11.688,+3.375,0, -1, 0, -5, -4, -4, 0, -1
1503602246814,-0.877,-0.227,-0.201,-0.374,+0.565,-0.194,-0.800,-3.688,-3.625,+3.312,19, 1, -2, 2, 2, 1, -1, 2
1503602246837,-0.877,-0.227,-0.200,-0.373,+0.571,-0.178,-0.799,-3.562,+1.000,+2.938,-4, 0, 0, -7, -7, -1, -2, -4
1503602246860,-0.877,-0.227,-0.200,-0.373,+0.575,-0.176,-0.788,-2.500,-0.625,+2.562,4, -3, -1, 6, -1, -2, 0, 2
1503602246881,-0.878,-0.227,-0.200,-0.372,+0.581,-0.186,-0.779,-1.250,-2.125,+2.688,-9, 6, -1, -8, -6, -1, -2, -2
1503602246897,-0.878,-0.227,-0.200,-0.372,+0.578,-0.199,-0.790,-1.312,-2.312,+1.938,-7, -4, -7, -2, -1, 0, 0, 0
1503602246919,-0.878,-0.227,-0.199,-0.372,+0.575,-0.203,-0.803,-2.125,-0.125,+1.438,-4, -3, 0, 0, 3, 1, -2, -3
1503602246941,-0.878,-0.227,-0.199,-0.371,+0.569,-0.199,-0.791,-3.625,+2.500,+1.500,-4, -1, -2, -4, -3, -1, -1, -4
1503602246957,-0.878,-0.228,-0.199,-0.370,+0.575,-0.194,-0.784,-3.750,+3.250,+1.625,14, 2, -9, -5, 1, 0, 0, 3
1503602246979,-0.878,-0.229,-0.199,-0.370,+0.577,-0.191,-0.782,-3.250,+4.000,+1.688,-9, -2, 2, 6, 2, 0, -1, -1
1503602247001,-0.878,-0.229,-0.199,-0.369,+0.578,-0.191,-0.792,-3.062,+3.188,+1.312,-6, -3, 2, 0, -6, -1, 1, 0
1503602247020,-0.878,-0.230,-0.199,-0.369,+0.573,-0.188,-0.790,-2.562,+4.438,-0.250,3, 0, 1, 1, 2, 0, 0, -1
1503602247039,-0.878,-0.231,-0.198,-0.369,+0.584,-0.183,-0.778,-2.312,+3.688,-0.188,-1, -3, -4, -1, 1, -1, -2, -5
1503602247063,-0.878,-0.232,-0.199,-0.368,+0.596,-0.187,-0.762,-2.375,+3.062,+0.750,5, 0, 0, -1, 0, 1, -1, 1
1503602247076,-0.878,-0.232,-0.198,-0.368,+0.593,-0.183,-0.768,-2.188,+1.875,+1.375,-17, 5, 2, -4, -2, -4, -9, -9
1503602247098,-0.878,-0.232,-0.198,-0.368,+0.594,-0.186,-0.766,-1.500,-1.438,+1.938,-6, -7, -4, -1, -4, 1, 2, -1
1503602247123,-0.879,-0.232,-0.198,-0.367,+0.593,-0.192,-0.776,-0.312,-2.875,+1.812,-4, -4, -4, -2, -5, -2, 0, 0
1503602247135,-0.879,-0.231,-0.198,-0.367,+0.578,-0.189,-0.788,-0.125,-3.250,+1.062,1, -7, -3, 6, 1, -1, -2, -3
1503602247159,-0.879,-0.231,-0.198,-0.367,+0.574,-0.195,-0.780,-0.188,-3.125,+0.812,-10, -14, -6, -3, -3, -1, -1, 4
1503602247180,-0.879,-0.231,-0.198,-0.367,+0.568,-0.196,-0.786,-1.000,-0.688,+0.688,-2, -1, 2, -2, 0, -1, 5, 2
1503602247196,-0.879,-0.231,-0.198,-0.367,+0.574,-0.192,-0.784,-1.562,-0.312,+0.812,22, 9, 0, -3, -1, 0, -1, 0
1503602247220,-0.879,-0.231,-0.198,-0.367,+0.582,-0.193,-0.773,-1.625,-0.688,+1.188,-19, -4, 6, 2, 2, 0, -1, -1
1503602247241,-0.880,-0.231,-0.198,-0.366,+0.586,-0.187,-0.770,-1.438,-1.312,+1.312,-15, -10, -8, -8, -7, -3, -1, -2
1503602247256,-0.880,-0.230,-0.198,-0.366,+0.581,-0.193,-0.784,-0.625,-3.312,+1.438,24, 3, -9, -8, -2, -1, 0, 2
1503602247278,-0.880,-0.230,-0.198,-0.366,+0.578,-0.197,-0.784,-0.312,-2.562,+0.625,1, -6, -11, -7, 1, 0, -1, 1
1503602247301,-0.880,-0.230,-0.197,-0.366,+0.578,-0.194,-0.786,-1.125,-1.750,+0.750,-1, 1, 2, 2, 0, -3, -2, -2
1503602247315,-0.880,-0.230,-0.197,-0.366,+0.578,-0.191,-0.782,-1.500,-0.938,+1.062,-27, 3, 6, 1, 0, 2, 2, 5
1503602247338,-0.880,-0.230,-0.197,-0.365,+0.577,-0.190,-0.789,-1.500,+0.500,+0.875,9, -5, -9, -2, -3, -2, -1, -2
1503602247362,-0.880,-0.230,-0.197,-0.365,+0.582,-0.191,-0.789,-1.500,+0.562,+0.625,-8, -10, -9, -2, -2, -1, -3, -3
1503602247382,-0.880,-0.230,-0.197,-0.365,+0.579,-0.188,-0.779,-1.625,+0.125,+0.812,4, -1, -1, -2, -3, -2, -3, -3
1503602247398,-0.881,-0.230,-0.197,-0.365,+0.583,-0.190,-0.781,-1.312,-0.688,+1.250,3, 1, 1, 0, -1, 0, 0, 4
1503602247422,-0.881,-0.230,-0.197,-0.364,+0.581,-0.194,-0.776,-1.000,-1.250,+1.562,-1, -1, -2, -2, -1, 0, -1, -2
1503602247435,-0.881,-0.230,-0.197,-0.364,+0.571,-0.191,-0.779,-1.188,-2.125,+1.000,-1, -4, -4, 1, -2, -2, -2, 0
1503602247458,-0.881,-0.229,-0.197,-0.364,+0.579,-0.187,-0.784,-0.625,-2.688,+1.062,4, -1, -2, -2, -4, -2, 0, 0
1503602247481,-0.881,-0.229,-0.196,-0.364,+0.578,-0.185,-0.776,-0.250,-3.375,+1.562,0, 6, 2, -2, -1, -1, -3, -7
1503602247497,-0.882,-0.228,-0.196,-0.363,+0.581,-0.184,-0.776,+0.250,-4.938,+2.562,6, -5, -2, -1, 0, 0, 1, 1
1503602247518,-0.882,-0.227,-0.196,-0.363,+0.577,-0.194,-0.775,+0.625,-5.438,+3.250,5, 7, -2, -3, -1, 0, 3, 8
1503602247541,-0.882,-0.226,-0.196,-0.363,+0.576,-0.203,-0.790,+0.188,-6.312,+2.938,-6, -4, -3, -1, 0, 0, 2, -2
1503602247557,-0.883,-0.225,-0.196,-0.363,+0.562,-0.201,-0.800,-0.250,-6.250,+2.188,11, 4, 2, 0, -3, 0, -1, 0
1503602247578,-0.883,-0.224,-0.196,-0.362,+0.558,-0.202,-0.798,-0.812,-5.812,+1.938,-5, -2, -1, -2, -4, -2, -1, -2
1503602247601,-0.884,-0.223,-0.195,-0.362,+0.561,-0.201,-0.800,-0.562,-4.562,+1.938,-15, -4, -1, -2, -3, -2, 0, 0
1503602247615,-0.884,-0.223,-0.195,-0.362,+0.567,-0.204,-0.795,-0.562,-3.188,+1.875,4, -1, -1, -1, 0, 0, -1, -2
1503602247638,-0.884,-0.223,-0.195,-0.362,+0.567,-0.197,-0.791,-0.375,-2.375,+1.562,-4, -4, -1, 1, 0, 0, 0, -2
1503602247661,-0.884,-0.222,-0.195,-0.361,+0.567,-0.196,-0.790,+0.312,-2.438,+1.062,-12, -15, -1, 0, 1, 0, 0, -2
1503602247675,-0.884,-0.222,-0.195,-0.361,+0.570,-0.199,-0.791,+0.312,-3.062,+0.625,-4, -4, -4, 0, 1, -1, -1, 0
1503602247699,-0.884,-0.221,-0.195,-0.361,+0.570,-0.199,-0.790,+0.375,-3.625,+0.312,-11, -4, -1, 1, 2, 1, -1, 0
1503602247723,-0.885,-0.221,-0.195,-0.362,+0.563,-0.198,-0.793,+0.312,-4.000,+0.250,11, 5, -1, -3, -2, 1, -1, -1
1503602247736,-0.885,-0.220,-0.195,-0.362,+0.553,-0.196,-0.787,+0.375,-4.312,+0.000,-6, 6, -1, -2, -4, -2, -3, -3
1503602247758,-0.885,-0.219,-0.195,-0.362,+0.561,-0.191,-0.797,+1.375,-4.500,+0.438,11, 5, 0, 1, -1, 1, -1, 0
1503602247783,-0.885,-0.219,-0.195,-0.362,+0.565,-0.190,-0.802,+2.062,-6.125,+0.438,-5, -5, -1, -2, 0, -2, -2, -4
1503602247797,-0.885,-0.217,-0.195,-0.362,+0.564,-0.196,-0.801,+2.438,-6.188,+1.375,6, -2, 0, -2, -3, -1, -3, 1
1503602247818,-0.886,-0.217,-0.196,-0.362,+0.562,-0.212,-0.804,+2.062,-4.625,+2.938,10, 0, 0, 0, 1, 0, 2, 3
1503602247841,-0.886,-0.216,-0.196,-0.361,+0.554,-0.229,-0.799,+1.500,-2.688,+2.188,-4, -2, 0, -1, -1, 0, 0, 0
1503602247859,-0.886,-0.216,-0.196,-0.361,+0.574,-0.213,-0.796,+1.188,-0.562,+1.000,-27, -9, -1, 0, 1, 0, -1, -5
1503602247878,-0.886,-0.216,-0.196,-0.361,+0.568,-0.196,-0.793,+1.125,-1.688,+1.875,5, 1, 1, -1, -2, -2, -1, 0
1503602247901,-0.886,-0.215,-0.196,-0.361,+0.550,-0.200,-0.798,+0.188,-5.000,+3.938,11, 8, -1, -1, 2, 0, -1, -1
1503602247915,-0.887,-0.214,-0.196,-0.360,+0.536,-0.204,-0.801,-1.000,-4.688,+5.688,-22, -10, -2, 0, -1, 0, 0, -4
1503602247938,-0.887,-0.213,-0.196,-0.359,+0.522,-0.209,-0.806,-2.062,-2.062,+5.625,3, -3, 1, 0, -2, -3, -2, 0
1503602247963,-0.888,-0.213,-0.196,-0.358,+0.522,-0.212,-0.803,-3.125,+0.812,+4.375,-6, -2, -3, 0, -2, -1, 0, 1
1503602247975,-0.888,-0.214,-0.196,-0.357,+0.535,-0.217,-0.801,-2.938,+2.938,+2.625,7, -1, -3, -3, -1, 0, -1, 0
1503602247999,-0.888,-0.214,-0.196,-0.357,+0.548,-0.216,-0.793,-2.562,+2.938,+1.750,3, 1, 0, 0, -1, 0, -2, -2
1503602248021,-0.888,-0.215,-0.196,-0.356,+0.546,-0.212,-0.785,-2.750,+2.125,+0.812,-5, -1, 1, -1, 0, -1, 0, 1
1503602248035,-0.888,-0.215,-0.195,-0.356,+0.545,-0.208,-0.793,-2.312,+1.562,+0.188,4, 3, -2, -1, 0, -1, 1, 0
1503602248058,-0.888,-0.215,-0.195,-0.356,+0.546,-0.207,-0.800,-1.812,+0.750,+0.125,11, 4, 2, 0, 0, 0, -1, 1
1503602248081,-0.888,-0.215,-0.195,-0.356,+0.547,-0.212,-0.808,-1.688,+0.375,+0.188,4, 2, -2, -1, 0, -3, -2, 0
1503602248096,-0.888,-0.215,-0.195,-0.356,+0.555,-0.213,-0.811,-1.250,+0.438,+0.188,-8, -7, -6, -2, -1, 1, 0, -1
1503602248118,-0.888,-0.216,-0.195,-0.355,+0.565,-0.225,-0.789,-1.312,+0.938,-0.500,-3, 0, -2, -1, -2, 1, -1, 2
1503602248140,-0.888,-0.216,-0.195,-0.355,+0.566,-0.212,-0.788,-1.000,+1.562,-0.250,1, -3, -1, 0, 1, -2, -1, -1
1503602248155,-0.888,-0.217,-0.196,-0.355,+0.572,-0.199,-0.804,-0.062,+2.562,-0.625,-1, -1, -2, -1, 0, -2, -1, -1
1503602248178,-0.888,-0.218,-0.196,-0.356,+0.584,-0.195,-0.807,+1.312,+3.000,-2.000,-2, -1, 0, 0, -1, 0, 0, 0
1503602248201,-0.887,-0.218,-0.197,-0.357,+0.606,-0.206,-0.797,+5.688,+0.188,-6.625,-3, -2, -1, -2, -1, -3, -2, -1
1503602248216,-0.885,-0.219,-0.199,-0.359,+0.627,-0.234,-0.790,+11.562,+3.312,-12.750,1, 0, -3, -2, -2, 0, 0, -2
1503602248238,-0.883,-0.220,-0.202,-0.361,+0.611,-0.237,-0.792,+15.562,+10.750,-13.062,0, 1, 2, 0, 0, 1, -3, -2
1503602248261,-0.882,-0.222,-0.205,-0.362,+0.595,-0.189,-0.814,+16.938,+16.188,-3.688,1, -2, -2, -1, 0, 0, 1, 0
1503602248283,-0.881,-0.224,-0.208,-0.361,+0.589,-0.152,-0.831,+18.188,+17.062,+6.375,1, 1, -2, 0, -3, -1, -1, -1
1503602248298,-0.880,-0.225,-0.213,-0.360,+0.600,-0.154,-0.836,+22.562,+21.188,+10.812,3, 1, 0, -2, -1, 0, 0, 1
1503602248321,-0.879,-0.227,-0.218,-0.358,+0.592,-0.174,-0.853,+30.562,+26.062,+14.500,-3, -1, 0, 0, -1, 0, -1, 0
1503602248343,-0.878,-0.227,-0.226,-0.356,+0.622,-0.211,-0.841,+37.625,+22.250,+21.000,-19, -13, -3, -2, 0, 0, 0, -2
1503602248360,-0.878,-0.226,-0.234,-0.353,+0.651,-0.220,-0.809,+42.938,+15.438,+28.062,3, 3, -1, 1, -1, -1, -1, 0
1503602248381,-0.877,-0.224,-0.242,-0.349,+0.646,-0.234,-0.792,+50.062,+8.062,+33.750,3, 2, -1, -2, -2, 0, -1, 0
1503602248396,-0.877,-0.219,-0.252,-0.346,+0.628,-0.253,-0.785,+56.938,+1.750,+36.938,3, 1, -2, 0, -2, -1, 0, -1
1503602248418,-0.876,-0.214,-0.262,-0.343,+0.609,-0.266,-0.781,+63.062,+0.750,+38.625,2, 0, -1, -1, 0, -2, -1, -1
1503602248441,-0.876,-0.209,-0.273,-0.339,+0.588,-0.279,-0.771,+69.312,+1.250,+40.625,2, 1, -1, -3, 0, -2, 0, -1
1503602248456,-0.874,-0.203,-0.285,-0.336,+0.590,-0.310,-0.762,+75.375,+0.875,+42.000,-5, -2, -2, -4, 1, 0, 0, -2
1503602248478,-0.873,-0.196,-0.298,-0.333,+0.576,-0.359,-0.735,+80.688,-3.875,+44.750,2, 2, 0, 0, -1, -1, 0, 1
1503602248503,-0.872,-0.187,-0.311,-0.329,+0.555,-0.420,-0.712,+84.188,-10.500,+44.688,1, -3, 1, 0, -1, 0, 0, -1
1503602248516,-0.870,-0.178,-0.325,-0.326,+0.550,-0.466,-0.682,+86.625,-11.312,+45.000,0, -2, -3, -3, -2, -3, -1, 0
1503602248538,-0.868,-0.170,-0.339,-0.322,+0.516,-0.505,-0.676,+88.000,-6.812,+46.250,1, 3, 3, -3, -1, -2, 0, -1
1503602248562,-0.865,-0.161,-0.353,-0.318,+0.503,-0.535,-0.652,+89.625,-7.688,+46.938,2, 2, -1, -1, -1, -1, -1, -2
1503602248576,-0.862,-0.152,-0.368,-0.313,+0.497,-0.577,-0.657,+90.375,-5.000,+45.938,-1, -4, 0, -2, 2, 0, 0, 0
1503602248598,-0.859,-0.144,-0.382,-0.309,+0.473,-0.610,-0.619,+87.812,+0.562,+41.688,2, 0, -2, 1, -2, 1, -2, 0
1503602248620,-0.855,-0.137,-0.396,-0.305,+0.472,-0.622,-0.585,+86.125,+0.125,+41.812,-3, -5, -6, -4, -2, 0, 0, -1
1503602248637,-0.852,-0.129,-0.409,-0.301,+0.471,-0.629,-0.563,+87.938,-3.250,+43.062,-1, -1, 2, -2, -1, 0, -1, -3
1503602248658,-0.847,-0.120,-0.423,-0.297,+0.469,-0.690,-0.538,+90.000,-10.625,+40.750,1, -1, 0, 0, -1, -1, -1, 0
1503602248680,-0.843,-0.111,-0.436,-0.294,+0.430,-0.729,-0.517,+85.750,-11.125,+37.125,-9, -3, -1, -1, 0, -1, -1, -2
1503602253263,-0.819,-0.469,-0.166,-0.285,+0.903,-0.009,-0.471,-1.562,+6.938,+0.000,-5, 7, -4, -5, -6, -5, -5, -2
1503602253278,-0.818,-0.470,-0.167,-0.285,+0.897,-0.005,-0.473,-0.625,+8.438,+0.125,-24, -1, 8, 2, 1, 0, 0, -2
1503602253300,-0.818,-0.471,-0.167,-0.284,+0.883,-0.011,-0.463,+0.062,+6.188,+0.625,7, -2, 2, -1, -2, -3, 0, 0
1503602253324,-0.818,-0.472,-0.167,-0.284,+0.883,-0.012,-0.453,-0.062,+4.375,-0.562,-19, -12, 1, 0, 2, 0, -1, -4
1503602253338,-0.817,-0.473,-0.167,-0.284,+0.881,-0.007,-0.445,-1.188,+5.375,+0.562,-8, -11, 2, 2, 2, 2, 2, -2
1503602253361,-0.817,-0.474,-0.167,-0.283,+0.900,-0.000,-0.448,-1.812,+6.562,+1.875,-18, 2, -3, -2, -3, -2, -2, -1
1503602253386,-0.817,-0.475,-0.168,-0.283,+0.903,-0.003,-0.457,-1.312,+5.875,+2.938,4, -6, 0, -1, -1, -1, -3, -4
1503602253405,-0.817,-0.475,-0.168,-0.282,+0.885,-0.013,-0.451,-0.812,+3.688,+2.062,1, 10, 9, 1, -6, -1, -2, -1
1503602253428,-0.816,-0.476,-0.168,-0.281,+0.871,-0.014,-0.446,-1.375,+3.750,+1.375,-6, -18, -6, -1, -1, -2, -1, -4
1503602253452,-0.816,-0.476,-0.168,-0.281,+0.870,-0.004,-0.451,-2.562,+7.062,+2.375,-25, -11, -8, -3, 5, 1, -2, -5
1503602253465,-0.816,-0.478,-0.169,-0.280,+0.873,-0.005,-0.435,-2.062,+8.500,+3.562,7, -5, -4, 2, 4, 1, 1, 2
1503602253480,-0.815,-0.479,-0.169,-0.279,+0.912,-0.031,-0.440,-1.938,+7.875,+3.750,5, 5, 1, -3, -6, 0, -1, 3
1503602253503,-0.815,-0.480,-0.169,-0.277,+0.919,-0.028,-0.446,-3.875,+5.438,+4.500,0, 4, -4, -2, -3, -3, -1, 2
1503602253525,-0.816,-0.479,-0.169,-0.276,+0.896,-0.019,-0.429,-4.875,-2.625,+4.875,-12, -8, -2, -2, -4, -2, -2, -4
1503602253540,-0.817,-0.479,-0.169,-0.275,+0.890,-0.005,-0.426,-4.312,-7.375,+5.125,22, 3, 1, 1, 1, -2, -1, 3
1503602253563,-0.818,-0.478,-0.168,-0.274,+0.881,-0.008,-0.431,-3.188,-6.625,+4.875,5, 5, -1, 0, 2, 1, 0, -2
1503602253585,-0.818,-0.477,-0.168,-0.273,+0.891,-0.018,-0.423,-3.250,-6.875,+5.750,-6, -2, 1, 2, 8, 2, -1, -2
1503602253600,-0.819,-0.476,-0.168,-0.273,+0.898,-0.031,-0.446,-2.625,-8.062,+3.500,5, 4, -1, -1, -7, -3, 0, -2
1503602253623,-0.820,-0.474,-0.167,-0.273,+0.897,-0.024,-0.451,-1.625,-12.375,+1.000,22, 6, 5, 5, 19, 18, 4, 2
1503602253645,-0.822,-0.472,-0.166,-0.273,+0.891,-0.022,-0.462,-0.625,-13.625,+0.688,0, 0, 1, -5, -9, -10, -2, 0
1503602253660,-0.823,-0.471,-0.166,-0.273,+0.881,-0.024,-0.459,-1.750,-11.125,+1.938,-7, -1, 0, -3, -11, -8, -6, -2
1503602253683,-0.824,-0.470,-0.165,-0.272,+0.876,-0.025,-0.456,-4.312,-9.000,+4.812,10, -1, -4, -3, 0, 0, 3, 1
1503602253705,-0.825,-0.468,-0.164,-0.271,+0.862,-0.009,-0.456,-4.875,-9.688,+5.312,19, 14, 2, 4, 24, 6, -3, -3
1503602253721,-0.826,-0.467,-0.164,-0.271,+0.851,-0.002,-0.464,-2.500,-10.125,+3.625,25, 26, 6, -6, -25, -12, -7, -3
1503602253743,-0.827,-0.465,-0.163,-0.270,+0.859,-0.010,-0.471,-1.188,-9.938,+3.562,35, 11, 6, 4, 28, 20, 7, 7
1503602253765,-0.828,-0.464,-0.163,-0.270,+0.871,-0.021,-0.469,-0.562,-9.625,+4.438,-13, 2, 3, -1, -9, -7, -3, -3
1503602253780,-0.829,-0.463,-0.163,-0.269,+0.872,-0.024,-0.463,-0.500,-8.750,+4.812,1, -12, -2, 8, 22, 11, -1, 6
1503602253803,-0.830,-0.461,-0.163,-0.268,+0.872,-0.037,-0.469,-1.000,-8.625,+4.688,-1, -6, -1, 2, 15, 11, 5, -1
1503602253828,-0.831,-0.460,-0.163,-0.268,+0.866,-0.029,-0.481,-0.875,-9.500,+4.312,1, 7, -5, -3, -1, -4, -2, -5
1503602253840,-0.832,-0.459,-0.162,-0.268,+0.869,-0.026,-0.488,-0.500,-8.562,+3.438,1, 7, 0, -4, -12, -6, -4, -12
1503602253864,-0.833,-0.458,-0.162,-0.267,+0.869,-0.033,-0.482,-1.000,-6.875,+4.125,-10, -12, -6, -4, 0, 3, 15, 17
1503602253888,-0.833,-0.457,-0.162,-0.266,+0.879,-0.040,-0.479,-1.562,-7.812,+4.688,12, -9, -5, -3, -9, -3, 0, 12
1503602253901,-0.834,-0.455,-0.162,-0.266,+0.877,-0.042,-0.483,-1.875,-8.562,+4.250,-5, 2, 3, 0, -4, -4, -8, -8
1503602253924,-0.835,-0.454,-0.162,-0.265,+0.855,-0.033,-0.502,-2.375,-8.750,+3.312,11, 4, 2, 1, 1, -1, 2, -1
1503602253945,-0.836,-0.453,-0.161,-0.265,+0.850,-0.019,-0.500,-2.312,-7.500,+3.188,14, 5, -3, 0, 0, -1, -5, -4
1503602253961,-0.837,-0.452,-0.161,-0.264,+0.850,-0.027,-0.495,-1.250,-5.062,+3.375,-4, 9, 2, -1, -5, -4, -9, -7
1503602253983,-0.837,-0.452,-0.161,-0.264,+0.866,-0.035,-0.490,-1.625,-3.438,+3.562,-13, -2, 0, -2, -2, -2, 1, 4
1503602254005,-0.837,-0.452,-0.161,-0.263,+0.863,-0.033,-0.497,-2.062,-1.438,+3.875,3, -5, -6, -1, 1, 0, -4, -12
1503602254022,-0.838,-0.451,-0.160,-0.263,+0.861,-0.032,-0.493,-1.312,-4.812,+2.062,-8, 1, 8, 1, 1, 0, 4, 3
1503602254043,-0.839,-0.450,-0.160,-0.262,+0.862,-0.033,-0.503,-0.062,-6.625,+1.188,-14, 1, 0, -1, -3, -3, 0, 2
1503602254065,-0.839,-0.449,-0.160,-0.262,+0.860,-0.051,-0.497,+0.625,-6.500,+1.750,4, 6, 4, 1, -2, -2, -5, -7
1503602254081,-0.840,-0.448,-0.160,-0.262,+0.855,-0.051,-0.505,-1.312,-6.250,+3.188,-10, -8, -2, -1, -2, -2, 2, 8
1503602254103,-0.840,-0.447,-0.160,-0.261,+0.849,-0.042,-0.511,-2.375,-3.688,+2.875,2, 0, -3, -2, -1, -2, -2, 0
1503602254129,-0.841,-0.447,-0.160,-0.261,+0.851,-0.039,-0.512,-2.500,-2.375,+2.375,-54, -15, -2, -2, -5, -1, -7, -11
1503602254141,-0.841,-0.447,-0.159,-0.260,+0.871,-0.036,-0.495,-1.750,-5.250,+3.062,23, 4, -1, -2, -1, 0, 1, -1
1503602254164,-0.842,-0.446,-0.159,-0.260,+0.869,-0.046,-0.513,-1.500,-7.438,+3.000,14, 6, 4, 2, 2, 0, -3, -1
1503602254185,-0.843,-0.444,-0.159,-0.259,+0.861,-0.048,-0.514,-2.812,-9.062,+2.875,-5, -7, -4, -4, 0, -1, 0, 3
1503602254201,-0.844,-0.443,-0.158,-0.259,+0.856,-0.035,-0.509,-3.188,-9.625,+3.688,-10, -8, -6, -2, 0, -1, 0, -4
1503602254223,-0.845,-0.442,-0.157,-0.258,+0.855,-0.030,-0.509,-3.000,-11.375,+4.000,27, 9, 2, 0, 4, -1, 1, 2
1503602254245,-0.846,-0.440,-0.157,-0.258,+0.842,-0.035,-0.512,-2.750,-10.812,+3.250,-8, -2, 0, -2, -6, 1, 0, -3
1503602254261,-0.847,-0.439,-0.156,-0.257,+0.841,-0.043,-0.522,-2.000,-9.500,+2.625,3, 0, -2, -2, -1, 0, 2, 0
1503602254283,-0.848,-0.438,-0.156,-0.257,+0.842,-0.042,-0.526,-2.812,-8.188,+3.188,24, 10, 2, -2, -4, -4, -6, -1
1503602254305,-0.849,-0.436,-0.155,-0.256,+0.849,-0.051,-0.528,-2.562,-9.312,+3.250,-17, -6, -1, 3, 4, 0, 0, -2
1503602254324,-0.849,-0.435,-0.155,-0.256,+0.847,-0.055,-0.526,-2.625,-10.188,+2.875,-36, -17, -3, -3, -1, -1, -4, -7
1503602254345,-0.850,-0.434,-0.154,-0.255,+0.825,-0.051,-0.539,-4.125,-8.250,+2.062,16, 5, 0, -1, -3, -2, 2, 3
1503602254365,-0.851,-0.433,-0.153,-0.255,+0.826,-0.052,-0.547,-4.312,-5.188,+1.000,5, 0, 1, 3, 5, 1, -1, 1
1503602254381,-0.852,-0.432,-0.153,-0.254,+0.822,-0.043,-0.542,-3.938,-4.375,+1.125,-6, -5, 1, -1, 2, 2, 0, -1
1503602254403,-0.852,-0.432,-0.152,-0.254,+0.830,-0.050,-0.543,-2.250,-1.438,-0.625,7, 7, -1, -1, -3, -3, -4, -7
1503602254426,-0.852,-0.433,-0.152,-0.254,+0.825,-0.062,-0.558,-2.250,+4.312,-3.062,-21, -4, 1, -3, -2, -2, -3, 0
1503602254441,-0.851,-0.434,-0.152,-0.254,+0.836,-0.058,-0.545,-3.125,+8.125,-5.750,4, -2, -1, 0, -1, 0, 1, 1
1503602254463,-0.850,-0.436,-0.151,-0.255,+0.838,-0.021,-0.520,-3.000,+7.688,-6.938,0, -3, -2, 1, -1, -1, 1, 1
1503602254485,-0.849,-0.437,-0.150,-0.256,+0.848,-0.014,-0.513,-1.500,+3.812,-6.000,-12, -4, -2, -1, -1, 0, -1, -1
1503602254501,-0.849,-0.437,-0.150,-0.256,+0.830,-0.013,-0.520,-0.438,+1.812,-4.875,-30, -14, 9, 4, 3, -1, -1, -2
1503602254527,-0.849,-0.438,-0.149,-0.256,+0.840,-0.026,-0.521,-1.625,+0.875,-2.125,-13, -12, 1, -1, 2, 0, -1, -2
1503602254545,-0.849,-0.438,-0.149,-0.256,+0.838,-0.031,-0.530,-2.062,-0.500,+0.125,18, 5, 1, 0, 0, 1, -1, -2
1503602254562,-0.849,-0.438,-0.149,-0.256,+0.844,-0.040,-0.521,-2.188,-1.125,+1.312,26, 12, -4, -3, -1, -1, -1, 2
1503602254583,-0.850,-0.437,-0.148,-0.255,+0.842,-0.040,-0.541,-3.062,-3.625,+2.125,0, 1, -1, 0, 4, 2, 0, -1
1503602254605,-0.850,-0.437,-0.148,-0.255,+0.845,-0.037,-0.538,-3.188,-4.812,+2.312,1, 13, -3, -3, -3, -1, 1, 4
1503602254621,-0.851,-0.436,-0.147,-0.254,+0.834,-0.029,-0.532,-2.438,-6.438,+2.500,4, -5, -12, -2, -1, -1, -2, -3
1503602254642,-0.851,-0.435,-0.147,-0.254,+0.820,-0.025,-0.527,-0.938,-5.188,+1.062,3, -5, -3, -3, -2, 1, 2, -2
1503602254666,-0.851,-0.435,-0.147,-0.254,+0.816,-0.030,-0.532,+0.875,+0.062,-1.312,15, 7, 1, -1, 0, 0, 1, 6
1503602254682,-0.851,-0.436,-0.148,-0.254,+0.828,-0.043,-0.528,+1.625,+6.562,-3.062,-7, -15, -5, 2, -2, -2, -2, 0
1503602254703,-0.850,-0.437,-0.148,-0.255,+0.838,-0.034,-0.535,+1.875,+8.812,-3.688,19, -4, -2, 1, 1, 0, -4, -8
1503602254726,-0.849,-0.438,-0.148,-0.255,+0.832,-0.039,-0.541,+2.062,+8.625,-3.250,-17, -10, -1, -3, 0, 0, 1, 1
1503602254741,-0.849,-0.439,-0.149,-0.255,+0.831,-0.047,-0.546,+0.438,+8.312,-3.688,-2, 3, 1, 0, -3, -2, -4, -2
1503602254763,-0.848,-0.440,-0.149,-0.255,+0.849,-0.040,-0.533,-0.812,+7.750,-1.938,1, 0, 1, 0, 0, 1, 1, -3
1503602254785,-0.848,-0.441,-0.149,-0.255,+0.858,-0.026,-0.513,-1.625,+3.625,+0.125,1, 0, 4, 0, -1, 0, -3, -3
1503602254801,-0.848,-0.441,-0.148,-0.255,+0.853,-0.027,-0.511,-2.250,+0.250,+0.625,-20, 1, 1, -1, -1, -1, 0, -3
1503602254828,-0.848,-0.441,-0.148,-0.254,+0.851,-0.025,-0.521,-2.000,-2.250,+1.812,3, 1, 1, 0, -2, -2, 1, 6
1503602254845,-0.848,-0.441,-0.148,-0.254,+0.843,-0.024,-0.522,-1.312,-3.500,+2.500,2, 0, 0, -2, 0, -1, 1, 2
1503602254861,-0.848,-0.441,-0.148,-0.253,+0.833,-0.020,-0.510,-1.062,-1.938,+1.688,-5, -2, 0, 1, 3, 1, -6, -11
1503602254883,-0.848,-0.441,-0.148,-0.253,+0.840,-0.017,-0.511,-0.562,-0.062,+1.438,6, 3, 1, -1, -3, -1, 0, 1
1503602254905,-0.848,-0.441,-0.148,-0.253,+0.840,-0.024,-0.527,+1.000,+1.250,+1.125,10, 1, -4, -3, -2, -2, 0, 1
1503602254921,-0.848,-0.441,-0.148,-0.253,+0.848,-0.039,-0.519,+0.625,+2.500,+0.188,-8, 0, 13, 3, 3, 1, -3, -9
1503602254943,-0.848,-0.442,-0.148,-0.253,+0.846,-0.045,-0.528,+0.250,+4.000,-0.750,-1, -2, -6, -4, -5, -2, -1, 5
1503602254965,-0.848,-0.442,-0.149,-0.253,+0.859,-0.041,-0.513,+0.125,+2.688,-0.250,-1, -3, -4, -2, -5, -2, 1, 4
1503602254982,-0.848,-0.442,-0.149,-0.253,+0.861,-0.041,-0.513,-0.312,-0.812,+0.250,21, 3, -1, 0, -1, 0, 1, 0
1503602255003,-0.848,-0.442,-0.149,-0.252,+0.853,-0.035,-0.523,-0.562,-2.688,+0.875,0, 0, 0, 0, 4, 0, 0, 3
1503602255027,-0.848,-0.441,-0.149,-0.252,+0.837,-0.047,-0.535,-1.625,-2.500,+1.250,0, 3, 0, 1, 3, 2, 1, 3
1503602255041,-0.849,-0.441,-0.148,-0.252,+0.831,-0.032,-0.528,-2.125,-2.312,+1.062,-2, -2, -3, 1, 0, 1, 0, -1
1503602255064,-0.849,-0.441,-0.148,-0.251,+0.836,-0.027,-0.519,-2.562,-2.000,+1.500,3, -2, -2, 0, -2, 0, 0, 1
1503602255086,-0.849,-0.441,-0.148,-0.251,+0.842,-0.026,-0.515,-2.000,-1.750,+1.375,5, -3, -2, -1, -1, -2, 0, 0
1503602255102,-0.849,-0.441,-0.147,-0.251,+0.840,-0.031,-0.519,-0.938,-1.312,+1.250,16, 6, 1, 1, 1, 0, 1, 1
1503602255123,-0.850,-0.441,-0.147,-0.250,+0.845,-0.032,-0.525,-1.500,-1.562,+1.188,22, 3, 1, -1, 0, -1, -2, -6
1503602255145,-0.850,-0.440,-0.147,-0.250,+0.843,-0.034,-0.516,-0.500,-1.562,+0.875,4, 3, 0, -1, 0, 1, 0, 0
1503602255162,-0.850,-0.441,-0.147,-0.250,+0.834,-0.046,-0.521,-0.875,+0.875,+0.812,-4, -6, -6, -2, -1, -2, -4, -5
1503602255183,-0.850,-0.441,-0.147,-0.249,+0.852,-0.043,-0.527,-1.438,+2.188,+0.000,2, 0, -1, -1, -2, -2, -1, -2
1503602255205,-0.850,-0.441,-0.147,-0.249,+0.855,-0.035,-0.522,-1.250,+0.062,+0.312,-2, -3, -1, 0, 1, -1, -2, -5
1503602255221,-0.850,-0.441,-0.147,-0.249,+0.849,-0.033,-0.519,-1.500,-1.875,+0.438,-23, -5, -1, 1, 4, -1, -1, -1
1503602255243,-0.850,-0.441,-0.147,-0.249,+0.847,-0.036,-0.519,-1.188,-1.500,+0.250,-12, -6, -2, -2, -2, -2, -2, 0
1503602255265,-0.850,-0.441,-0.147,-0.248,+0.836,-0.030,-0.527,-0.938,-1.375,+0.875,1, -3, -4, -2, -3, -3, -1, 1
1503602255281,-0.850,-0.441,-0.147,-0.248,+0.834,-0.031,-0.520,-0.875,-0.500,+0.750,2, -3, -1, -1, 2, -1, 2, 3
1503602255303,-0.850,-0.441,-0.146,-0.248,+0.835,-0.028,-0.523,-0.812,+0.188,+1.125,-5, -2, -1, 0, -2, -1, -2, -1
1503602255328,-0.850,-0.441,-0.146,-0.248,+0.844,-0.030,-0.526,-1.188,-0.312,+1.250,-13, 0, 1, -2, -1, -3, -1, 0
1503602255341,-0.851,-0.440,-0.146,-0.247,+0.840,-0.036,-0.527,-0.438,-1.688,+0.625,-5, 0, 2, 1, 0, 0, -4, -1
1503602255364,-0.851,-0.440,-0.146,-0.247,+0.836,-0.035,-0.522,-0.625,-2.875,+0.750,1, 13, -2, -1, -2, 0, 0, 1
1503602255385,-0.851,-0.440,-0.146,-0.247,+0.846,-0.041,-0.518,-0.688,-1.750,+1.000,3, -1, -1, 0, 0, -3, -1, -1
1503602255403,-0.851,-0.440,-0.146,-0.247,+0.839,-0.042,-0.525,-1.062,-0.562,+1.438,16, -12, -8, -3, -2, -1, -1, -1
1503602255423,-0.851,-0.440,-0.146,-0.246,+0.840,-0.038,-0.525,-1.000,+0.188,+1.062,-4, -4, 0, 0, 0, -1, 0, -2
1503602255445,-0.851,-0.440,-0.146,-0.246,+0.847,-0.031,-0.528,-0.438,-1.125,+0.938,10, 1, 4, -1, 1, 1, 0, -1
1503602255463,-0.852,-0.440,-0.146,-0.246,+0.835,-0.035,-0.521,-0.875,-2.250,+1.438,-13, 4, -7, -5, -4, -1, -1, -4
1503602255490,-0.852,-0.439,-0.146,-0.245,+0.832,-0.036,-0.529,-0.375,-1.625,+1.375,13, -5, -1, -2, 0, 1, 3, 0
1503602255505,-0.852,-0.439,-0.146,-0.245,+0.831,-0.037,-0.531,+0.312,-1.125,+1.875,7, 0, 1, 4, 0, -1, -4, -7
1503602255521,-0.852,-0.439,-0.146,-0.245,+0.833,-0.036,-0.531,+0.125,-0.250,+2.312,5, 0, 2, -1, 3, -1, -1, 3
1503602255543,-0.852,-0.438,-0.147,-0.245,+0.844,-0.042,-0.535,+1.375,-2.000,+2.125,-2, -3, -2, 0, 1, 0, -2, 1
1503602255565,-0.853,-0.438,-0.147,-0.244,+0.841,-0.034,-0.528,+1.562,-5.625,+2.500,6, 0, 1, -1, -3, -2, -1, 3
1503602255581,-0.854,-0.436,-0.147,-0.244,+0.843,-0.032,-0.528,+2.000,-9.188,+2.938,-1, -4, -3, 1, 2, 0, -2, -4
1503602255604,-0.854,-0.435,-0.147,-0.244,+0.829,-0.029,-0.527,+2.812,-10.500,+3.812,6, -4, -5, -2, -2, -1, 0, 1
1503602255625,-0.855,-0.433,-0.147,-0.244,+0.826,-0.032,-0.532,+3.625,-11.250,+4.188,-14, 4, 8, 1, -2, -1, -1, -2
1503602255641,-0.856,-0.431,-0.148,-0.244,+0.822,-0.033,-0.511,+5.688,-8.562,+3.562,1, -9, -5, -5, -2, -1, 1, 2
1503602255665,-0.856,-0.430,-0.149,-0.245,+0.843,-0.021,-0.512,+7.250,-8.188,+2.375,-17, -9, -1, 0, 1, 1, -1, -7
1503602255685,-0.857,-0.429,-0.150,-0.245,+0.845,-0.016,-0.526,+10.312,-10.375,+1.750,-11, 0, -3, -2, -1, -1, 0, 3
1503602255702,-0.857,-0.427,-0.151,-0.247,+0.835,-0.024,-0.535,+12.250,-13.062,+1.438,2, 8, 8, 0, -1, 1, 1, 1
1503602255723,-0.858,-0.424,-0.152,-0.247,+0.816,-0.060,-0.558,+12.250,-12.938,+1.750,18, -2, -3, -2, -3, -2, 3, 8
1503602255745,-0.858,-0.422,-0.154,-0.248,+0.820,-0.093,-0.552,+10.562,-7.188,+2.188,3, -2, 1, 0, -1, 1, -1, 0
1503602255763,-0.859,-0.421,-0.155,-0.248,+0.814,-0.089,-0.555,+8.500,-3.688,+2.000,-4, 2, -2, -3, -4, -2, -1, -1
1503602255783,-0.859,-0.420,-0.157,-0.248,+0.835,-0.064,-0.554,+8.500,-3.312,+2.688,-24, -3, -2, -1, -2, 1, 0, -1
1503602255806,-0.859,-0.419,-0.158,-0.248,+0.833,-0.048,-0.561,+8.875,-8.500,+3.625,9, -1, 0, 1, 2, 1, -1, -1
1503602255830,-0.860,-0.416,-0.158,-0.249,+0.824,-0.048,-0.581,+9.312,-17.875,+6.188,2, 4, 2, 1, 3, 0, -3, -1
1503602255844,-0.862,-0.411,-0.159,-0.249,+0.806,-0.062,-0.583,+10.188,-24.062,+8.562,3, -3, -3, -1, 1, -2, -2, -1
1503602255867,-0.864,-0.408,-0.161,-0.249,+0.784,-0.086,-0.573,+10.938,-19.812,+8.062,9, 0, 1, 3, 0, -3, 0, -1
1503602255888,-0.864,-0.406,-0.162,-0.249,+0.772,-0.073,-0.552,+10.188,-8.562,+6.938,-23, 7, 3, -3, -6, -3, -5, -7
1503602255905,-0.864,-0.408,-0.160,-0.248,+0.806,+0.091,-0.543,-7.000,+5.438,+5.312,-2, -5, -2, 0, 2, -1, 0, 1
1503602255926,-0.865,-0.406,-0.162,-0.248,+0.798,+0.005,-0.619,+14.375,-4.812,+13.062,-3, -3, -3, 0, 0, 2, -3, -1
1503602255948,-0.866,-0.402,-0.165,-0.247,+0.815,-0.045,-0.598,+17.938,-19.125,+17.625,-3, -8, -3, -1, -2, -2, 0, -2
1503602255965,-0.868,-0.397,-0.168,-0.247,+0.816,-0.043,-0.595,+22.812,-23.688,+17.562,5, -1, 0, 0, 1, 1, 3, 0
1503602255986,-0.869,-0.393,-0.172,-0.247,+0.795,-0.047,-0.596,+27.375,-17.250,+19.750,3, 0, 5, 0, -1, -1, 0, -2
1503602256008,-0.870,-0.389,-0.176,-0.245,+0.796,-0.068,-0.631,+29.625,-15.312,+26.250,3, 4, 3, 3, 7, 1, 0, 0
1503602256024,-0.872,-0.384,-0.182,-0.244,+0.812,-0.105,-0.650,+32.750,-15.562,+31.125,-16, -5, 2, 0, -3, -2, -2, -6
1503602256046,-0.873,-0.379,-0.189,-0.242,+0.822,-0.136,-0.640,+36.812,-17.188,+31.188,0, 1, 3, 1, 0, 0, 0, -3
1503602256068,-0.874,-0.374,-0.196,-0.240,+0.830,-0.158,-0.638,+40.125,-18.125,+32.812,9, -5, -4, 1, 1, 1, 0, 2
1503602256084,-0.875,-0.369,-0.204,-0.238,+0.816,-0.161,-0.630,+43.562,-18.188,+36.688,-7, -3, -3, -4, -4, -1, -2, -1
1503602256107,-0.876,-0.363,-0.212,-0.236,+0.803,-0.173,-0.639,+47.000,-19.500,+40.750,3, 3, -1, -1, 0, -1, 3, 7
1503602256127,-0.877,-0.356,-0.221,-0.233,+0.792,-0.206,-0.639,+50.438,-18.500,+43.000,-17, 2, -3, -2, -3, -3, -1, 1
1503602256144,-0.878,-0.349,-0.231,-0.231,+0.778,-0.255,-0.634,+53.250,-22.438,+45.125,6, 0, -1, -3, 0, 1, -1, -4
1503602256172,-0.879,-0.342,-0.242,-0.227,+0.758,-0.298,-0.623,+56.125,-21.125,+47.750,2, 8, 7, 1, -2, -2, -2, 0
1503602256188,-0.880,-0.335,-0.253,-0.224,+0.740,-0.317,-0.641,+59.562,-13.750,+49.375,5, 7, 4, 3, 2, 1, -1, 0
1503602256204,-0.880,-0.328,-0.264,-0.220,+0.729,-0.323,-0.632,+62.500,-14.688,+51.750,-9, -8, -5, -2, 0, -2, -3, -1
1503602256226,-0.880,-0.320,-0.276,-0.217,+0.722,-0.335,-0.625,+66.250,-23.812,+55.188,1, 0, -1, -2, 0, -2, -2, -4
1503602256247,-0.880,-0.311,-0.289,-0.214,+0.716,-0.371,-0.610,+70.625,-26.875,+55.000,9, 2, -1, 1, 0, -2, -1, -1
1503602256266,-0.880,-0.302,-0.301,-0.211,+0.679,-0.426,-0.617,+72.938,-26.438,+51.562,1, -1, -2, -3, -2, 0, -1, 0
1503602256286,-0.879,-0.292,-0.314,-0.208,+0.642,-0.459,-0.606,+74.875,-25.812,+50.250,8, 5, 4, 0, -2, -1, -1, 0
1503602256308,-0.878,-0.283,-0.328,-0.206,+0.638,-0.491,-0.598,+77.938,-20.375,+50.500,-14, 3, -2, -3, -1, -3, -1, 3
1503602256324,-0.876,-0.275,-0.342,-0.203,+0.640,-0.529,-0.567,+80.250,-17.688,+48.562,-3, -1, 0, 3, 1, -1, 0, 1
1503602256346,-0.873,-0.266,-0.356,-0.201,+0.630,-0.553,-0.555,+80.500,-19.375,+47.312,0, -1, 0, -2, -6, -1, -1, -5
1503602256368,-0.870,-0.258,-0.369,-0.199,+0.621,-0.582,-0.552,+81.312,-17.688,+44.000,-2, -2, -3, 0, 0, 0, 2, -1
1503602256384,-0.867,-0.250,-0.383,-0.197,+0.603,-0.624,-0.533,+83.125,-17.438,+38.312,-1, -8, -1, 1, 4, 1, 0, 0
1503602256407,-0.863,-0.242,-0.397,-0.196,+0.599,-0.664,-0.500,+82.562,-17.062,+36.062,-1, -11, -1, 1, -1, -1, -1, -2
1503602256428,-0.859,-0.234,-0.410,-0.195,+0.587,-0.671,-0.479,+81.938,-17.812,+37.125,3, 2, -1, -2, -1, -1, 0, 0
1503602256444,-0.855,-0.227,-0.424,-0.194,+0.584,-0.700,-0.469,+81.250,-16.562,+34.625,1, 1, 1, 0, 0, 0, 1, 3
1503602256468,-0.851,-0.220,-0.437,-0.193,+0.561,-0.714,-0.449,+79.938,-12.875,+29.312,7, 1, 1, 0, 1, -2, 0, 0
1503602256487,-0.846,-0.214,-0.449,-0.193,+0.545,-0.732,-0.445,+77.625,-11.750,+25.812,9, 3, -1, -2, -1, 0, 0, 1
1503602256506,-0.841,-0.207,-0.461,-0.193,+0.538,-0.747,-0.409,+74.438,-12.875,+26.812,1, 21, 9, 2, -1, -3, 0, 2
1503602256526,-0.837,-0.200,-0.472,-0.193,+0.544,-0.757,-0.396,+75.438,-17.438,+25.812,-3, 5, 3, 0, 0, 0, 0, 0
1503602256547,-0.832,-0.193,-0.483,-0.194,+0.529,-0.748,-0.405,+75.812,-19.875,+22.375,-12, -1, 2, 0, -1, -1, -1, -2
1503602256564,-0.827,-0.186,-0.494,-0.195,+0.484,-0.751,-0.394,+75.875,-19.688,+17.625,-1, -8, -2, 2, 2, -1, 0, -4
1503602256586,-0.821,-0.180,-0.505,-0.196,+0.478,-0.778,-0.353,+74.562,-17.375,+15.188,1, -1, -5, -5, -4, 0, 0, 0
1503602258781,-0.870,-0.420,-0.139,-0.218,+0.801,-0.078,-0.565,-1.812,+5.500,+1.562,6, 14, 13, 0, 0, -1, -2, 0
1503602258798,-0.870,-0.421,-0.139,-0.217,+0.823,-0.089,-0.568,-2.688,+6.875,+1.000,6, 0, -9, -3, -1, 0, 0, -1
1503602258806,-0.869,-0.422,-0.139,-0.217,+0.822,-0.081,-0.570,-3.938,+7.000,+0.750,13, -5, -2, -2, -2, 1, 3, 3
1503602258841,-0.869,-0.423,-0.139,-0.216,+0.817,-0.075,-0.554,-2.562,+1.625,+1.500,0, -12, -5, 1, 0, -1, 0, 5
1503602258868,-0.869,-0.423,-0.139,-0.216,+0.824,-0.071,-0.550,-2.188,+0.438,+0.562,14, 11, 7, 6, 8, 3, 1, 1
1503602258869,-0.869,-0.424,-0.139,-0.215,+0.818,-0.079,-0.560,-1.312,+6.000,+0.500,0, -3, 2, 0, 0, -2, -2, -2
1503602258905,-0.868,-0.425,-0.140,-0.214,+0.816,-0.092,-0.560,-1.938,+9.250,+0.812,-5, -8, -5, -2, -2, -3, -3, -6
1503602258906,-0.868,-0.426,-0.140,-0.214,+0.831,-0.092,-0.560,-3.312,+9.375,+1.125,-18, -8, -1, 3, 3, 1, -3, -8
1503602258927,-0.867,-0.428,-0.140,-0.213,+0.836,-0.083,-0.550,-3.625,+6.375,+2.438,-1, -12, -7, -4, -1, -1, 2, 1
1503602258948,-0.867,-0.428,-0.140,-0.212,+0.828,-0.082,-0.551,-3.500,+1.312,+2.188,1, 2, 0, 2, -1, 1, 0, -1
1503602258964,-0.868,-0.428,-0.140,-0.211,+0.819,-0.086,-0.553,-3.562,-1.750,+2.062,1, -4, 6, -1, -4, 0, -2, -4
1503602258987,-0.868,-0.427,-0.139,-0.210,+0.823,-0.083,-0.553,-4.125,-1.375,+2.500,5, 16, 6, 1, 1, 1, -8, -4
1503602259009,-0.868,-0.427,-0.139,-0.210,+0.816,-0.074,-0.544,-4.062,-1.812,+2.750,-2, -3, -5, -5, -4, 0, 3, 6
1503602259024,-0.869,-0.427,-0.139,-0.209,+0.813,-0.079,-0.545,-2.250,-0.625,+1.938,7, -6, 6, 5, 2, 1, 1, 3
1503602259047,-0.869,-0.427,-0.139,-0.208,+0.825,-0.089,-0.542,-2.125,-0.938,+1.312,-5, -8, -1, -1, 1, -2, 0, 0
1503602259068,-0.869,-0.427,-0.139,-0.208,+0.824,-0.083,-0.551,-2.375,-1.938,+1.188,1, -3, -4, -3, -3, -1, 2, 8
1503602259083,-0.869,-0.427,-0.139,-0.208,+0.821,-0.077,-0.552,-1.812,-3.250,+1.625,-1, 13, 3, 0, 2, 0, 3, 4
1503602259106,-0.870,-0.426,-0.139,-0.207,+0.809,-0.069,-0.555,-1.688,-1.750,+2.188,15, -1, -9, -5, -3, -3, -6, -20
1503602259128,-0.870,-0.426,-0.138,-0.207,+0.810,-0.065,-0.559,-1.188,+1.188,+1.125,4, 0, -3, -1, -1, 0, 1, 2
1503602259143,-0.870,-0.427,-0.138,-0.206,+0.814,-0.066,-0.556,-1.125,+3.188,+0.188,-3, 4, 4, -1, -2, 0, 2, 4
1503602259165,-0.869,-0.427,-0.139,-0.206,+0.828,-0.078,-0.548,-0.438,+1.875,+0.250,-11, -8, -6, -2, 2, -1, -3, -1
1503602259188,-0.870,-0.427,-0.139,-0.206,+0.837,-0.080,-0.555,-0.812,-1.125,+1.000,-20, -10, -13, -5, -3, -5, -2, -6
1503602259203,-0.870,-0.427,-0.139,-0.205,+0.827,-0.083,-0.543,-1.062,-1.125,+2.000,-7, -4, -5, -1, -5, -2, -2, 1
1503602259226,-0.870,-0.427,-0.139,-0.205,+0.818,-0.076,-0.547,-2.062,-1.125,+1.750,8, -8, -7, 0, 4, 3, 1, 4
1503602259247,-0.870,-0.427,-0.139,-0.204,+0.816,-0.074,-0.552,-1.375,-1.438,+1.688,-25, -11, 2, 0, -2, -2, 1, -3
1503602259264,-0.870,-0.427,-0.139,-0.204,+0.828,-0.088,-0.550,-1.125,-1.062,+1.750,17, 6, 2, 2, 1, 0, -4, -14
1503602259286,-0.870,-0.426,-0.139,-0.203,+0.831,-0.083,-0.561,-1.375,-2.312,+2.875,7, 6, 2, 4, 8, 4, 0, -1
1503602259307,-0.871,-0.426,-0.138,-0.203,+0.805,-0.071,-0.558,-1.312,-5.062,+2.312,11, -5, -5, -2, -4, -3, -3, -5
1503602259324,-0.872,-0.425,-0.138,-0.203,+0.808,-0.063,-0.538,-1.062,-6.750,+2.938,1, -3, -1, -1, 1, 0, 3, 14
1503602259347,-0.872,-0.423,-0.138,-0.202,+0.818,-0.062,-0.562,-1.312,-10.000,+4.375,-3, -1, -1, -2, -4, -5, -18, -16
1503602259367,-0.873,-0.422,-0.138,-0.201,+0.814,-0.087,-0.570,-1.438,-9.938,+3.812,14, 19, 6, 0, -7, -1, 0, -9
1503602259383,-0.874,-0.420,-0.138,-0.201,+0.808,-0.104,-0.571,-1.938,-8.625,+3.500,3, -1, 1, -2, -2, -6, -5, -17
1503602259405,-0.875,-0.419,-0.138,-0.200,+0.810,-0.092,-0.566,-2.188,-6.188,+3.750,4, -6, 4, 0, -1, 1, 7, 14
1503602259428,-0.876,-0.418,-0.138,-0.199,+0.824,-0.084,-0.571,-1.625,-8.312,+4.375,1, -8, -7, -1, -1, 3, -1, -7
1503602259443,-0.876,-0.417,-0.138,-0.199,+0.812,-0.097,-0.571,-1.688,-9.438,+4.500,5, 16, 18, 3, 0, -3, 1, 6
1503602259465,-0.877,-0.416,-0.137,-0.198,+0.801,-0.099,-0.570,-2.938,-6.438,+3.688,-3, -9, -4, -2, -1, 0, 1, 2
1503602259489,-0.878,-0.415,-0.137,-0.197,+0.802,-0.104,-0.573,-2.000,-3.438,+2.500,-1, 7, 2, 1, -1, -3, -7, -13
1503602259503,-0.878,-0.415,-0.137,-0.197,+0.806,-0.095,-0.583,-1.438,-2.938,+2.375,10, 2, -2, -1, -1, -1, -2, -4
1503602259525,-0.878,-0.414,-0.137,-0.196,+0.802,-0.098,-0.582,-0.938,-3.562,+1.250,6, -11, -10, -3, -2, -4, -2, 2
1503602259550,-0.878,-0.414,-0.137,-0.196,+0.791,-0.104,-0.577,-0.875,-0.812,+0.688,-8, -2, -2, -2, -2, 1, 1, 0
1503602259564,-0.878,-0.414,-0.138,-0.196,+0.789,-0.108,-0.573,-0.688,+1.688,-0.125,-8, 7, 14, 4, 5, 2, -1, 0
1503602259586,-0.878,-0.414,-0.138,-0.196,+0.799,-0.097,-0.590,+0.062,+3.688,-0.688,-8, 0, -1, -1, -1, -1, -2, 2
1503602259607,-0.878,-0.415,-0.138,-0.195,+0.813,-0.089,-0.586,-0.562,+3.938,-0.250,-20, -9, -3, -2, 1, 0, -2, -6
1503602259624,-0.878,-0.416,-0.138,-0.195,+0.811,-0.086,-0.580,-1.938,+4.125,-0.188,5, 6, -3, -2, 0, -1, 2, 3
1503602259645,-0.878,-0.416,-0.138,-0.195,+0.810,-0.084,-0.568,-1.312,+1.375,-0.562,-13, -10, -4, -1, -1, 0, -2, -1
1503602259667,-0.878,-0.416,-0.138,-0.195,+0.814,-0.083,-0.568,-0.250,-1.000,-1.062,11, 4, -1, -1, -1, -2, -1, 0
1503602259684,-0.878,-0.416,-0.137,-0.195,+0.813,-0.093,-0.573,-0.500,-2.688,-0.688,4, -6, -4, -2, 0, -2, 1, 1
1503602259706,-0.878,-0.415,-0.137,-0.195,+0.808,-0.093,-0.574,-1.625,-2.188,-0.125,12, 7, 5, -2, -3, -4, -9, -8
1503602259728,-0.878,-0.415,-0.137,-0.195,+0.805,-0.092,-0.576,-1.500,-0.688,-0.438,-6, 4, -1, -1, 0, 0, 1, 1
1503602259744,-0.878,-0.416,-0.137,-0.195,+0.804,-0.096,-0.575,-0.812,+0.938,-0.750,3, -4, -3, 0, -2, -4, -8, 0
1503602259766,-0.878,-0.416,-0.137,-0.194,+0.799,-0.092,-0.565,-1.125,+0.375,-0.750,1, -3, -2, 0, 1, 0, 2, 1
1503602259788,-0.878,-0.416,-0.137,-0.194,+0.797,-0.078,-0.552,-0.250,-0.938,-0.375,-5, 0, 0, -1, -2, -1, -1, 1
1503602259803,-0.878,-0.415,-0.137,-0.195,+0.800,-0.076,-0.562,+2.000,-2.688,-0.438,0, 1, 1, 0, 0, 0, 0, 0
1503602259826,-0.878,-0.414,-0.137,-0.195,+0.797,-0.089,-0.592,+2.500,-6.312,-0.750,4, 8, 3, 2, 1, 2, 2, 3
1503602259851,-0.879,-0.413,-0.137,-0.195,+0.784,-0.094,-0.594,+2.000,-6.500,-0.375,-4, -8, -3, 0, 0, -1, -1, -3
1503602259864,-0.879,-0.412,-0.138,-0.195,+0.786,-0.092,-0.584,+1.500,-2.625,-0.250,-5, -1, 1, -1, -1, -2, -5, -6
1503602259886,-0.879,-0.413,-0.138,-0.195,+0.795,-0.099,-0.582,+1.250,+3.500,-0.750,-5, -3, -3, -3, -2, 0, 0, -2
1503602259907,-0.878,-0.414,-0.138,-0.195,+0.819,-0.101,-0.585,+1.188,+6.125,-0.938,1, -3, -3, 0, -1, -1, -1, 0
1503602259930,-0.878,-0.414,-0.139,-0.195,+0.834,-0.095,-0.583,+0.250,+4.000,+0.000,-3, 5, 1, 0, -1, -2, -4, -4
1503602259945,-0.878,-0.414,-0.139,-0.195,+0.830,-0.088,-0.572,-0.312,-0.812,+0.875,2, -1, 0, -2, -2, -1, -2, -2
1503602259967,-0.878,-0.414,-0.139,-0.195,+0.821,-0.076,-0.562,+0.938,-3.625,-0.375,1, 3, 1, -1, 1, -2, -3, -8
1503602259990,-0.878,-0.414,-0.139,-0.195,+0.820,-0.077,-0.563,+0.812,-4.062,-0.750,-14, -1, -1, 1, 0, -1, 0, -3
1503602260005,-0.879,-0.413,-0.138,-0.195,+0.818,-0.085,-0.576,-0.438,-6.562,+1.062,6, 7, 2, 0, -2, -1, -3, 1
1503602260027,-0.879,-0.412,-0.138,-0.195,+0.799,-0.084,-0.582,-1.938,-6.312,+2.562,3, 1, -4, -1, -2, -1, -4, 0
1503602260051,-0.880,-0.411,-0.138,-0.195,+0.785,-0.077,-0.574,-1.375,-5.438,+1.938,-2, -11, -3, -1, 2, -2, 4, 10
1503602260065,-0.880,-0.411,-0.138,-0.194,+0.793,-0.085,-0.586,-0.625,-4.000,+0.938,-2, -5, -3, 0, -1, 1, 0, 2
1503602260088,-0.880,-0.410,-0.138,-0.194,+0.802,-0.095,-0.576,+0.062,-3.188,+0.875,2, 0, -3, 0, 0, -1, -2, -4
1503602260110,-0.881,-0.410,-0.138,-0.194,+0.812,-0.101,-0.580,-0.375,-5.000,+1.125,9, 4, 2, -2, -3, 0, 0, -1
1503602260127,-0.881,-0.409,-0.138,-0.194,+0.806,-0.100,-0.595,-0.188,-4.625,+0.812,-1, 10, 6, 1, 0, 0, 0, -1
1503602260147,-0.881,-0.408,-0.138,-0.194,+0.781,-0.100,-0.600,+0.188,-3.812,-0.625,-3, 1, 1, 0, 0, 0, -3, -3
1503602260170,-0.882,-0.408,-0.138,-0.194,+0.792,-0.104,-0.590,-0.188,-2.125,-0.875,-4, -4, -1, -2, 1, 0, -1, -2
1503602260190,-0.882,-0.408,-0.138,-0.194,+0.798,-0.098,-0.583,-0.750,+0.125,+0.062,-1, -6, -8, -3, -2, -2, -1, -1
1503602260208,-0.881,-0.408,-0.138,-0.193,+0.805,-0.094,-0.579,-0.812,+1.875,+0.688,5, 2, 0, 1, 1, -2, -4, -10
1503602260230,-0.881,-0.409,-0.138,-0.193,+0.805,-0.093,-0.588,-1.000,+1.812,+0.688,-8, -4, 1, -2, -1, -1, 1, 8
1503602260245,-0.881,-0.409,-0.138,-0.193,+0.800,-0.087,-0.594,-1.125,+1.312,-0.250,-1, 2, 1, -1, -2, 1, 2, 0
1503602260267,-0.881,-0.409,-0.137,-0.193,+0.808,-0.085,-0.586,-1.938,+0.000,+0.000,-4, 3, 3, 2, -1, -2, -7, -11
1503602260290,-0.881,-0.409,-0.137,-0.192,+0.804,-0.090,-0.577,-2.188,-1.125,+0.875,1, -3, -2, -2, 1, -3, -3, 2
1503602260305,-0.882,-0.409,-0.137,-0.192,+0.788,-0.101,-0.578,-1.812,-0.500,+1.000,19, 6, -2, -1, -1, 0, 3, 3
1503602260329,-0.882,-0.409,-0.137,-0.192,+0.771,-0.103,-0.590,-0.562,+0.000,+0.188,-1, 8, 6, 1, -1, -2, 0, 1
1503602260350,-0.882,-0.409,-0.137,-0.192,+0.790,-0.098,-0.599,-0.438,+1.125,-1.375,-1, -7, -5, 0, -1, 0, 2, 5
1503602260365,-0.882,-0.409,-0.137,-0.192,+0.792,-0.095,-0.585,-0.688,+2.562,-0.688,2, 4, 3, -3, -2, -4, 0, -2
1503602260388,-0.882,-0.409,-0.137,-0.191,+0.793,-0.092,-0.587,-1.188,+0.062,+1.312,-3, -11, -10, -3, -1, -1, -1, -3
1503602260410,-0.882,-0.409,-0.137,-0.191,+0.795,-0.086,-0.579,-1.312,-0.750,+1.812,18, 12, 12, 3, 1, -1, -2, 0
1503602260426,-0.882,-0.409,-0.137,-0.191,+0.790,-0.090,-0.586,-1.000,-0.312,+1.500,0, -5, -4, -1, -1, -1, -5, -8
1503602260448,-0.882,-0.409,-0.137,-0.190,+0.803,-0.095,-0.586,-1.562,-1.688,+2.125,-1, 1, 0, 0, 0, -2, 0, 6
1503602260470,-0.882,-0.409,-0.137,-0.190,+0.811,-0.100,-0.584,-1.562,-2.688,+2.062,-15, -3, -1, -2, -3, -2, -4, -3
1503602260491,-0.883,-0.408,-0.137,-0.189,+0.798,-0.099,-0.574,-1.438,-3.500,+1.500,20, 10, 5, -2, -1, -2, 1, 6
1503602260508,-0.883,-0.408,-0.136,-0.189,+0.792,-0.099,-0.586,-1.312,-2.938,+0.000,-8, -4, -4, -4, -1, -1, 0, 2
1503602260530,-0.883,-0.408,-0.136,-0.189,+0.796,-0.098,-0.594,-1.375,-2.125,+0.500,-2, 8, 4, 1, 0, 4, 1, 0
1503602260546,-0.883,-0.407,-0.136,-0.188,+0.792,-0.095,-0.584,-1.875,-1.250,+1.750,4, 2, 1, 0, 0, -2, -1, -1
1503602260568,-0.883,-0.408,-0.136,-0.188,+0.789,-0.097,-0.576,-1.688,+0.562,+1.938,10, -2, -5, -1, 0, 1, -2, -2
1503602260591,-0.883,-0.408,-0.136,-0.187,+0.791,-0.099,-0.590,-2.062,+1.688,+1.938,-10, -9, 0, 0, 0, -1, 1, 2
1503602260606,-0.883,-0.408,-0.136,-0.187,+0.797,-0.095,-0.598,-2.750,+3.062,+2.062,-1, -2, -1, 1, -2, -1, -1, -2
1503602260628,-0.883,-0.409,-0.136,-0.186,+0.798,-0.099,-0.607,-3.125,+2.750,+2.875,-2, 4, -3, 0, 2, -1, 3, 2
1503602260650,-0.884,-0.408,-0.136,-0.185,+0.796,-0.105,-0.598,-2.938,-1.312,+2.188,-1, -5, -5, 0, -2, -1, -4, -2
1503602260666,-0.884,-0.408,-0.135,-0.185,+0.808,-0.104,-0.587,-2.688,-3.562,+2.188,4, 0, 0, 0, -1, 0, -1, -2
1503602260691,-0.884,-0.408,-0.135,-0.184,+0.797,-0.092,-0.590,-3.875,-2.812,+2.062,-27, -7, -3, -1, -1, -1, 2, 5
1503602260710,-0.884,-0.408,-0.135,-0.184,+0.786,-0.092,-0.573,-2.938,-1.500,+1.500,7, 2, 1, -1, -1, -1, -2, -1
1503602260726,-0.884,-0.408,-0.134,-0.183,+0.799,-0.087,-0.576,-2.500,+0.062,+2.500,13, 0, -3, -2, 0, 0, -1, -4
1503602260748,-0.884,-0.408,-0.134,-0.182,+0.799,-0.083,-0.576,-2.812,+1.812,+2.500,4, -6, -1, -1, -1, 0, 0, -3
1503602260771,-0.884,-0.409,-0.134,-0.182,+0.801,-0.083,-0.579,-2.688,+4.000,+1.938,1, 5, -3, -2, -2, 0, -2, -2
1503602260787,-0.884,-0.410,-0.134,-0.181,+0.799,-0.089,-0.586,-2.000,+3.438,+1.188,8, -3, -3, 0, -1, -2, -1, -1
1503602260831,-0.884,-0.410,-0.134,-0.181,+0.799,-0.100,-0.601,-1.125,+3.062,+0.625,-7, 1, 5, -1, -1, -2, -2, -4
1503602260845,-0.884,-0.410,-0.134,-0.181,+0.792,-0.116,-0.604,-0.875,+2.750,-0.312,4, -5, -1, 1, -1, -2, -1, 1
1503602260847,-0.884,-0.411,-0.134,-0.180,+0.796,-0.117,-0.588,-1.438,+1.188,-0.438,2, -4, -1, 0, 0, 0, 2, 0
1503602260868,-0.884,-0.411,-0.134,-0.180,+0.802,-0.101,-0.586,-3.000,+2.125,+1.438,1, -2, 6, 0, 0, 0, 0, 1
1503602260891,-0.884,-0.411,-0.133,-0.179,+0.800,-0.087,-0.581,-3.438,+2.875,+2.500,11, -1, -4, -1, -2, -2, -1, -1
1503602260906,-0.884,-0.412,-0.133,-0.178,+0.800,-0.088,-0.585,-2.688,+2.438,+2.438,-8, -4, 0, -1, -2, 0, -1, -1
1503602260928,-0.884,-0.412,-0.133,-0.178,+0.807,-0.095,-0.575,-2.375,+2.188,+1.625,-26, -7, -2, -1, -3, -1, -2, -6
1503602260950,-0.883,-0.413,-0.133,-0.177,+0.809,-0.091,-0.575,-2.500,+1.625,+1.250,-34, 0, 4, 0, 0, 0, 0, 0
1503602260966,-0.883,-0.413,-0.133,-0.177,+0.808,-0.089,-0.573,-2.062,+0.938,+1.312,7, 7, 0, -2, 0, 1, -2, -4
1503602260990,-0.883,-0.414,-0.133,-0.176,+0.790,-0.103,-0.586,-1.938,+2.312,+1.062,-3, -7, -1, -1, -3, -2, -1, -2
1503602261010,-0.883,-0.414,-0.133,-0.176,+0.784,-0.100,-0.577,-2.062,+4.375,+0.062,14, 5, -5, -2, -1, -1, -2, 0
1503602261026,-0.883,-0.415,-0.133,-0.176,+0.803,-0.094,-0.569,-1.625,+3.688,-0.062,-6, -5, 1, 0, 0, -2, -1, -1
1503602261048,-0.883,-0.415,-0.132,-0.175,+0.813,-0.086,-0.566,-2.188,+1.625,+1.312,-6, -6, -8, -2, -2, -2, 0, 1
1503602261070,-0.883,-0.416,-0.132,-0.175,+0.819,-0.095,-0.560,-2.938,-0.562,+2.375,15, 19, 13, 5, 4, 0, 0, 5
1503602261087,-0.883,-0.415,-0.132,-0.174,+0.812,-0.097,-0.575,-2.250,-3.312,+2.250,-8, -7, -6, -4, 1, 2, 1, 1
1503602261109,-0.884,-0.414,-0.132,-0.174,+0.801,-0.097,-0.574,-1.500,-6.562,+1.438,7, 2, -1, -2, -2, -3, -2, -1
1503602261133,-0.884,-0.413,-0.131,-0.174,+0.797,-0.085,-0.581,-1.375,-8.312,+1.500,-4, 1, 1, -2, -3, -3, -1, -2
1503602261146,-0.885,-0.412,-0.131,-0.173,+0.787,-0.079,-0.585,-2.062,-7.000,+1.750,-8, -2, -3, -1, -3, -1, -2, -3
1503602261169,-0.885,-0.411,-0.130,-0.173,+0.794,-0.091,-0.584,-2.188,-3.688,+3.250,-6, -7, -9, -5, -3, -3, -1, -3
1503602261191,-0.886,-0.411,-0.130,-0.172,+0.796,-0.104,-0.585,-1.938,-3.188,+3.625,5, -1, -2, 0, -1, -1, 1, 1
1503602261206,-0.886,-0.410,-0.130,-0.172,+0.800,-0.097,-0.591,-1.188,-5.000,+1.500,-22, -12, -4, -2, -5, -2, 1, 1
1503602261229,-0.887,-0.409,-0.130,-0.172,+0.790,-0.096,-0.595,-0.750,-4.875,+0.562,4, 3, 1, -2, 0, -1, -1, -1
1503602261250,-0.887,-0.409,-0.130,-0.172,+0.787,-0.100,-0.591,-0.500,-5.562,+0.562,2, 0, 0, -1, 0, -2, -3, -1
1503602261266,-0.888,-0.408,-0.130,-0.171,+0.792,-0.102,-0.586,-1.062,-6.688,+1.625,2, 8, 6, 2, -1, -1, -3, -2
1503602261291,-0.888,-0.407,-0.130,-0.171,+0.787,-0.103,-0.594,-1.062,-4.562,+2.625,11, 8, 0, 0, -1, -2, 1, 1
1503602261310,-0.888,-0.406,-0.130,-0.170,+0.787,-0.102,-0.590,-1.562,-3.250,+2.188,-30, -9, -2, -2, -2, -2, -2, -4
1503602261326,-0.889,-0.406,-0.130,-0.170,+0.782,-0.100,-0.600,-1.125,-2.188,+1.750,4, 1, -2, -3, -26, -17, -4, 2
1503602261349,-0.889,-0.406,-0.130,-0.169,+0.793,-0.100,-0.597,-1.312,-2.875,+2.000,-12, -5, -7, -2, 1, 2, 1, -1
1503602261370,-0.889,-0.405,-0.129,-0.169,+0.789,-0.103,-0.598,-1.375,-2.938,+1.938,11, 3, 0, 1, 5, 6, 3, 7
1503602261386,-0.890,-0.404,-0.129,-0.169,+0.786,-0.109,-0.597,-0.438,-5.625,+0.750,-3, -5, -5, -1, -3, -2, -1, -2
1503602261411,-0.890,-0.404,-0.129,-0.169,+0.776,-0.107,-0.601,-0.250,-5.188,+0.125,25, 27, 7, 1, 8, 4, 1, 1
1503602261431,-0.890,-0.403,-0.129,-0.169,+0.768,-0.103,-0.603,-0.125,-3.250,-0.438,1, -6, -3, -2, 7, 6, 1, -3
1503602261447,-0.890,-0.403,-0.129,-0.169,+0.778,-0.107,-0.607,-0.188,-0.438,-0.250,8, -6, 0, 1, 2, 1, -3, -4
1503602261469,-0.890,-0.403,-0.129,-0.168,+0.782,-0.111,-0.604,-1.438,+2.000,+0.875,2, -3, 0, 1, 3, 1, 1, 3
1503602261493,-0.890,-0.404,-0.129,-0.168,+0.779,-0.101,-0.597,-1.375,+2.375,+0.812,2, -2, 2, 1, 3, 2, 3, 4
1503602261506,-0.890,-0.404,-0.129,-0.168,+0.792,-0.099,-0.596,-0.625,+0.812,+0.438,-7, -10, -5, -2, -2, -2, 2, 1
1503602261529,-0.890,-0.404,-0.129,-0.168,+0.793,-0.104,-0.608,-0.375,+0.375,-0.250,-11, 5, -3, -2, -1, -3, -6, -8
1503602261551,-0.890,-0.404,-0.129,-0.168,+0.792,-0.106,-0.599,-0.375,-0.500,-0.625,-3, 3, -1, -1, -2, -2, -2, -5
1503602261574,-0.890,-0.404,-0.129,-0.168,+0.785,-0.095,-0.595,-0.812,-0.812,-0.375,-6, -8, -8, -3, -1, -2, -3, 6
1503602261588,-0.890,-0.404,-0.129,-0.168,+0.788,-0.097,-0.599,-0.812,-0.625,+0.062,6, 6, 4, 1, -2, -1, -2, -4
1503602261626,-0.890,-0.404,-0.129,-0.167,+0.791,-0.105,-0.594,-0.938,-0.688,+0.938,-5, -3, 1, 0, -1, 0, 2, -1
1503602261641,-0.890,-0.404,-0.129,-0.167,+0.784,-0.105,-0.593,-1.562,-0.938,+0.688,3, 5, 2, -1, 0, 0, -3, -5
1503602261649,-0.890,-0.404,-0.129,-0.167,+0.786,-0.106,-0.595,-1.312,-1.250,+0.625,-6, -6, 0, -1, -3, 0, -2, 3
1503602261671,-0.891,-0.403,-0.129,-0.167,+0.782,-0.100,-0.593,-0.875,-1.250,+0.812,1, 1, 0, 1, -2, -2, 0, -1
1503602261686,-0.891,-0.403,-0.129,-0.166,+0.780,-0.101,-0.599,-0.250,-1.312,+0.688,1, -1, 2, 1, 1, 0, 0, -5
1503602261712,-0.891,-0.403,-0.129,-0.166,+0.776,-0.103,-0.608,+0.125,-1.375,+0.625,7, 2, -2, -1, 0, 1, -1, 2
1503602261736,-0.891,-0.403,-0.129,-0.166,+0.773,-0.099,-0.599,+0.250,-1.062,+0.375,7, -1, -2, -1, -1, 1, -6, -4
1503602261747,-0.891,-0.403,-0.129,-0.166,+0.779,-0.114,-0.600,+0.250,+0.062,+0.125,4, -4, 0, 0, -1, -4, -12, -10
1503602261769,-0.891,-0.403,-0.129,-0.166,+0.767,-0.105,-0.608,+0.000,+1.062,+0.062,-4, 2, 3, 1, 2, 2, 5, -1
1503602261794,-0.891,-0.403,-0.129,-0.166,+0.770,-0.111,-0.597,+0.125,+3.125,-0.500,0, -3, -4, -1, -1, -2, -4, -4
1503602261807,-0.890,-0.404,-0.129,-0.166,+0.790,-0.104,-0.600,-0.125,+7.750,+0.125,2, 5, 1, 0, 1, 1, 0, 0
1503602261836,-0.890,-0.405,-0.129,-0.165,+0.800,-0.094,-0.595,-0.750,+5.000,+0.188,0, -1, 0, -2, -1, -3, -1, -3
1503602261851,-0.890,-0.406,-0.129,-0.165,+0.803,-0.092,-0.597,-0.125,+1.000,+0.625,1, -1, 0, 0, 0, 0, 0, 0
1503602261868,-0.890,-0.406,-0.129,-0.165,+0.784,-0.105,-0.588,-0.312,-0.188,-0.062,0, 3, 1, 1, -2, -2, -2, 1
1503602261889,-0.890,-0.406,-0.129,-0.165,+0.790,-0.112,-0.587,-0.062,+0.062,-0.812,3, -1, -3, -3, -1, -2, -3, -1
1503602261911,-0.890,-0.406,-0.130,-0.165,+0.806,-0.112,-0.594,-0.938,+0.812,+1.062,-13, -2, 0, 2, -1, 1, 1, 3
1503602261928,-0.890,-0.406,-0.129,-0.164,+0.795,-0.104,-0.586,-2.000,-0.750,+1.625,-1, -7, -3, -3, -3, -1, -2, -3
1503602261951,-0.890,-0.406,-0.129,-0.164,+0.789,-0.097,-0.591,-1.500,-0.938,+0.438,-3, -1, 2, -1, -4, -1, -2, -1
1503602261972,-0.890,-0.406,-0.129,-0.164,+0.785,-0.103,-0.607,-0.875,-1.062,-0.312,1, 2, 0, 2, 0, 0, -1, -6
1503602261986,-0.890,-0.406,-0.129,-0.164,+0.787,-0.110,-0.599,-1.188,-0.375,-0.250,-2, -2, 0, -1, 0, 0, -2, -1
1503602262009,-0.890,-0.406,-0.129,-0.164,+0.778,-0.101,-0.605,-1.562,-0.062,-0.438,5, 0, -1, -1, -4, 0, 1, 1
1503602262031,-0.890,-0.406,-0.128,-0.164,+0.785,-0.100,-0.591,-1.812,+0.812,-0.750,-7, -7, -1, -2, -1, -4, -2, 2
1503602262046,-0.890,-0.406,-0.128,-0.164,+0.789,-0.106,-0.596,-1.438,+1.062,-0.250,-13, -7, 0, -1, -2, -1, 2, 6
1503602262068,-0.890,-0.406,-0.128,-0.163,+0.792,-0.108,-0.590,-1.562,+1.312,-0.188,9, 6, -1, -2, -2, -3, -3, 1
1503602262091,-0.890,-0.407,-0.128,-0.163,+0.787,-0.108,-0.589,-1.125,+0.625,+0.062,-19, -14, -5, 0, 0, -2, -2, -2
1503602262106,-0.890,-0.407,-0.128,-0.163,+0.790,-0.103,-0.597,-1.375,+0.250,+0.812,10, -2, -3, -1, -2, -2, -2, -4
1503602262129,-0.890,-0.407,-0.128,-0.162,+0.786,-0.098,-0.589,-1.375,-0.188,+1.188,9, 5, 0, -1, 1, 0, -2, -5
1503602262151,-0.890,-0.407,-0.128,-0.162,+0.791,-0.100,-0.598,-1.062,-1.188,+1.125,3, -2, -2, 0, -1, 0, 1, 4
1503602262184,-0.890,-0.406,-0.128,-0.162,+0.793,-0.101,-0.601,-1.000,-2.875,+1.312,3, 6, 3, 1, -2, -2, 0, -4
1503602262188,-0.891,-0.406,-0.127,-0.162,+0.790,-0.101,-0.602,-0.938,-3.688,+1.188,4, 13, 11, 0, 0, 1, 1, 3
1503602262212,-0.891,-0.405,-0.127,-0.161,+0.789,-0.110,-0.596,-1.188,-3.000,+0.812,3, -7, -7, -2, -1, -2, -2, -3
1503602262228,-0.891,-0.405,-0.127,-0.161,+0.783,-0.112,-0.600,-1.250,-1.125,+0.062,-11, -2, -4, -4, -5, -3, 0, -5
1503602262249,-0.891,-0.405,-0.127,-0.161,+0.785,-0.116,-0.602,-1.375,+0.312,-0.438,0, -8, -2, -3, 1, -1, 0, 0
1503602262271,-0.891,-0.405,-0.127,-0.161,+0.788,-0.103,-0.600,-1.688,-0.375,-0.438,-5, -4, 0, -1, -1, 1, 0, -2
1503602262319,-0.891,-0.405,-0.127,-0.161,+0.784,-0.098,-0.596,-1.312,+0.188,+0.062,8, 1, 1, 1, 2, 0, -1, -4
1503602262321,-0.891,-0.405,-0.127,-0.160,+0.786,-0.101,-0.597,-1.375,+0.875,+0.438,4, -1, -1, 2, 0, 0, -1, -3
1503602262331,-0.891,-0.406,-0.126,-0.160,+0.791,-0.100,-0.593,-1.812,+1.125,+0.500,6, -4, -3, 0, -1, 0, -2, 1
1503602262346,-0.891,-0.406,-0.126,-0.160,+0.788,-0.105,-0.601,-1.562,+1.000,+0.250,0, 3, 3, 0, -1, -2, -1, -3
1503602262369,-0.891,-0.406,-0.126,-0.159,+0.795,-0.110,-0.593,-1.562,+0.312,+0.250,-26, -1, 1, -3, -1, 0, -3, -3
1503602262391,-0.891,-0.406,-0.126,-0.159,+0.792,-0.099,-0.595,-1.812,-0.500,+0.625,12, 2, 0, 0, 0, 0, 1, -1
1503602262415,-0.891,-0.406,-0.126,-0.159,+0.788,-0.096,-0.595,-1.312,-1.000,+0.688,4, 1, 1, 2, 0, 0, -2, -1
1503602262431,-0.891,-0.406,-0.126,-0.159,+0.785,-0.105,-0.591,-1.312,-1.188,+0.125,-3, 0, -3, -2, -1, -1, 1, 0
1503602262451,-0.891,-0.406,-0.125,-0.159,+0.780,-0.103,-0.595,-1.562,-1.312,+0.312,-1, -5, -1, 1, -1, -2, -4, -10
1503602262467,-0.891,-0.406,-0.125,-0.158,+0.783,-0.110,-0.594,-1.000,+0.875,+0.438,2, 2, 0, 1, 2, 3, -1, -5
1503602262490,-0.891,-0.406,-0.126,-0.158,+0.784,-0.110,-0.596,-0.875,+2.625,+0.250,-5, -8, -7, -2, -2, -3, 2, 2
1503602262511,-0.891,-0.407,-0.125,-0.158,+0.784,-0.101,-0.603,-1.188,+2.375,+0.125,-13, 0, 0, 0, 0, -1, 2, 1
1503602262526,-0.891,-0.407,-0.125,-0.157,+0.790,-0.099,-0.599,-1.188,+1.250,+0.500,10, 2, -5, 0, 0, 0, 3, 4
1503602262549,-0.891,-0.407,-0.125,-0.157,+0.781,-0.091,-0.598,-1.375,-0.062,+0.875,-1, -2, 3, 1, 0, -3, 1, 0
1503602262571,-0.891,-0.407,-0.125,-0.157,+0.783,-0.095,-0.591,-1.000,-1.188,+0.812,2, -1, 0, -2, -2, -2, 0, 0
1503602262586,-0.891,-0.406,-0.125,-0.157,+0.792,-0.097,-0.591,-1.062,-2.750,+1.188,-10, -8, -2, -2, 1, -1, -2, -8
1503602262609,-0.892,-0.406,-0.125,-0.156,+0.791,-0.105,-0.597,-1.188,-3.812,+1.500,0, -3, -4, 0, -1, -1, -4, -7
1503602262632,-0.892,-0.405,-0.125,-0.156,+0.791,-0.113,-0.599,-1.125,-3.188,+1.125,0, -3, -1, -1, 0, -1, -5, -11
1503602262683,-0.892,-0.405,-0.125,-0.156,+0.782,-0.105,-0.596,-1.750,-2.188,+0.812,-16, -2, 1, 0, -3, -2, -2, -7
1503602262690,-0.892,-0.405,-0.124,-0.155,+0.789,-0.104,-0.589,-1.438,-0.625,+0.875,2, 9, 3, -1, -2, -1, -2, -1
1503602262691,-0.892,-0.405,-0.124,-0.155,+0.786,-0.106,-0.597,-1.250,-0.375,+1.000,4, -8, -4, 0, 1, 2, 0, -3
1503602262706,-0.893,-0.405,-0.124,-0.155,+0.784,-0.098,-0.595,-1.062,-0.938,+0.625,-4, -1, 0, -3, -1, -1, 0, -1
1503602262730,-0.893,-0.405,-0.124,-0.155,+0.785,-0.106,-0.598,-1.062,-0.438,+0.812,2, -2, 0, 0, 1, 3, 2, -3
1503602262751,-0.893,-0.405,-0.124,-0.154,+0.785,-0.108,-0.597,-1.312,-1.062,+0.625,3, 0, -1, -1, -1, -3, -2, 0
1503602262767,-0.893,-0.405,-0.124,-0.154,+0.786,-0.100,-0.593,-0.875,-0.438,+0.750,3, 0, -1, 0, -2, -3, 0, -1
1503602262787,-0.893,-0.405,-0.124,-0.154,+0.783,-0.102,-0.602,-0.750,-1.375,+1.250,-2, -3, -1, -1, 0, 1, -2, -2
1503602262810,-0.893,-0.405,-0.124,-0.154,+0.780,-0.105,-0.601,-0.688,-1.500,+1.125,1, 3, 1, -2, -4, -1, -1, 0
1503602262833,-0.893,-0.404,-0.124,-0.153,+0.782,-0.113,-0.609,-0.812,-0.938,+1.062,1, -1, -1, -1, 1, -1, -2, -3
1503602262847,-0.893,-0.404,-0.124,-0.153,+0.788,-0.107,-0.599,-1.188,-1.750,+1.000,-2, -1, -3, 0, -1, 0, -1, 1
1503602262870,-0.894,-0.404,-0.124,-0.153,+0.787,-0.097,-0.602,-0.688,-4.250,+0.625,-3, -2, -3, -4, -3, -1, 4, 9
1503602262892,-0.894,-0.403,-0.123,-0.153,+0.790,-0.101,-0.600,-0.938,-6.312,+0.875,0, 0, 1, -2, 0, -1, 0, -1
1503602262908,-0.895,-0.401,-0.123,-0.152,+0.774,-0.103,-0.604,-2.125,-9.875,+1.375,-1, 0, -1, 2, 1, -3, -1, -2
1503602262933,-0.896,-0.399,-0.122,-0.152,+0.763,-0.086,-0.615,-2.062,-15.125,+3.125,0, 1, -2, 0, 1, 0, -2, 0
1503602262952,-0.898,-0.395,-0.122,-0.152,+0.778,-0.087,-0.633,-1.062,-28.000,+4.500,-6, -4, -3, -2, 0, -1, -1, 1
1503602262968,-0.901,-0.388,-0.121,-0.152,+0.780,-0.138,-0.645,+1.500,-40.812,+5.375,10, 2, 0, -2, -1, 0, 0, 0
1503602262990,-0.904,-0.381,-0.122,-0.152,+0.746,-0.152,-0.627,+3.125,-46.812,+6.688,-20, -10, 0, -1, -2, -1, -2, -4
1503602263012,-0.907,-0.374,-0.121,-0.151,+0.703,-0.104,-0.633,+2.062,-44.062,+9.438,7, -1, -1, -1, 0, 0, 1, 4
1503602263027,-0.910,-0.368,-0.121,-0.150,+0.680,-0.062,-0.652,+3.750,-33.375,+12.375,-4, 8, 1, -3, -1, -1, 2, -2
1503602263050,-0.912,-0.363,-0.122,-0.150,+0.671,-0.045,-0.667,+6.500,-25.188,+12.438,-5, 0, 0, 0, 0, -2, -2, -7
1503602263075,-0.913,-0.359,-0.123,-0.149,+0.682,-0.078,-0.692,+8.562,-25.312,+14.188,4, -2, 1, 0, -1, -2, 1, 2
1503602263087,-0.915,-0.354,-0.124,-0.148,+0.694,-0.097,-0.690,+11.438,-22.562,+15.625,-5, 0, 1, 0, 0, -1, 0, 1
1503602263111,-0.916,-0.351,-0.127,-0.146,+0.688,-0.072,-0.687,+15.188,-19.812,+17.625,-12, -12, -2, 1, 0, 1, -2, 1
1503602263134,-0.918,-0.347,-0.128,-0.145,+0.696,+0.017,-0.705,+18.000,-18.125,+19.188,1, -4, -2, -1, -1, 0, 4, 19
1503602263147,-0.919,-0.343,-0.132,-0.145,+0.734,+0.019,-0.755,+30.438,-21.812,+21.375,0, -2, -2, -1, -1, -1, 1, -2
1503602263170,-0.920,-0.337,-0.139,-0.144,+0.757,-0.093,-0.783,+42.812,-26.062,+27.938,2, -4, -6, -2, -1, 0, -2, -6
1503602263192,-0.921,-0.331,-0.146,-0.143,+0.742,-0.121,-0.771,+49.188,-30.562,+29.062,-17, 3, 0, -1, -1, -1, -1, -5
1503602263209,-0.922,-0.324,-0.156,-0.143,+0.754,-0.141,-0.784,+59.812,-28.312,+30.500,15, 7, 0, -1, -1, 1, -1, -1
1503602263230,-0.922,-0.318,-0.167,-0.143,+0.756,-0.191,-0.786,+71.062,-28.938,+30.562,-1, -2, 1, 1, -1, -1, -4, -10
1503602263252,-0.922,-0.310,-0.181,-0.144,+0.748,-0.239,-0.777,+80.500,-32.625,+29.000,4, -1, -3, -2, -2, -1, 0, -1
1503602263267,-0.921,-0.303,-0.195,-0.145,+0.737,-0.272,-0.772,+90.250,-27.875,+28.750,3, 3, 1, -2, 0, -1, -5, -9
1503602263290,-0.920,-0.297,-0.212,-0.147,+0.714,-0.316,-0.754,+99.750,-20.875,+28.188,-5, -3, -2, -1, -2, -3, 2, 3
1503602263312,-0.917,-0.290,-0.229,-0.148,+0.702,-0.347,-0.736,+108.562,-18.500,+29.812,-1, 1, -1, -1, 0, 0, 2, 2
1503602263327,-0.914,-0.283,-0.249,-0.150,+0.691,-0.389,-0.718,+117.438,-22.625,+32.750,-4, 0, 1, 1, -1, -1, -1, 1
1503602263350,-0.911,-0.275,-0.269,-0.151,+0.661,-0.463,-0.690,+125.812,-21.000,+32.375,-1, -2, -2, -1, -1, -1, 4, 3
1503602263372,-0.906,-0.267,-0.291,-0.153,+0.619,-0.552,-0.632,+128.688,-17.375,+33.812,2, -1, 1, -3, 0, -1, 0, 1
1503602263387,-0.901,-0.261,-0.312,-0.153,+0.619,-0.614,-0.570,+125.438,-6.438,+36.438,2, 6, 5, 1, 0, 0, -2, 3
1503602263410,-0.895,-0.256,-0.332,-0.152,+0.606,-0.624,-0.542,+119.562,+2.125,+38.688,0, -11, -6, -3, -1, 1, 0, -1
1503602263435,-0.889,-0.252,-0.351,-0.151,+0.581,-0.628,-0.526,+115.312,+8.000,+37.062,-8, -7, -1, -2, -4, -3, 1, 2
1503602263447,-0.882,-0.249,-0.370,-0.150,+0.562,-0.639,-0.506,+111.625,+10.375,+33.188,-2, 5, -1, -2, -2, -3, -1, 11
1503602263470,-0.876,-0.246,-0.387,-0.150,+0.547,-0.655,-0.486,+104.938,+8.250,+28.500,-2, -2, -1, 0, -1, 0, 1, 2
1503602263492,-0.870,-0.242,-0.403,-0.150,+0.533,-0.642,-0.458,+96.562,+2.062,+24.062,2, 0, 0, 2, 0, 1, 1, -1
1503602263507,-0.864,-0.238,-0.417,-0.150,+0.521,-0.645,-0.423,+87.625,-4.562,+22.062,-10, -5, -3, -1, -1, 0, -2, -1
1503602263530,-0.859,-0.234,-0.430,-0.150,+0.506,-0.648,-0.419,+79.875,-4.375,+20.375,7, 2, 0, -1, -1, -2, -1, 1
1503602263552,-0.854,-0.229,-0.442,-0.151,+0.490,-0.666,-0.438,+74.812,-5.938,+17.250,-3, -8, -1, 0, -2, 2, -2, -6
1503602270955,-0.897,-0.401,-0.125,-0.138,+0.784,-0.121,-0.611,-0.312,+0.688,+0.250,-15, -4, -3, -3, -7, -6, 0, -1
1503602270977,-0.897,-0.402,-0.125,-0.138,+0.799,-0.104,-0.604,+2.375,+2.688,-3.438,8, 22, 5, -1, -3, -2, -2, -8
1503602270993,-0.897,-0.400,-0.125,-0.141,+0.868,-0.107,-0.594,+9.562,-17.875,-11.375,-1, 3, -3, -1, -3, 0, -1, 6
1503602271016,-0.899,-0.394,-0.126,-0.142,+0.791,-0.140,-0.627,+8.062,-34.188,+0.875,-4, -6, 1, 10, 25, 1, -2, -3
1503602271043,-0.902,-0.388,-0.126,-0.141,+0.714,-0.148,-0.625,+1.938,-33.875,+13.000,9, 5, -1, -3, 1, -1, 0, 3
1503602271053,-0.903,-0.386,-0.126,-0.140,+0.683,-0.128,-0.622,-0.500,-12.312,+6.625,-15, -8, 0, -1, 4, 0, -1, -3
1503602271077,-0.903,-0.387,-0.126,-0.139,+0.671,-0.107,-0.621,-1.062,+8.750,+3.188,17, 4, 0, 5, 17, 12, -6, -32
1503602271097,-0.902,-0.389,-0.127,-0.137,+0.748,-0.104,-0.613,-0.938,+13.625,+8.562,1, 2, -1, -9, -30, -10, 1, 8
1503602271115,-0.902,-0.390,-0.128,-0.135,+0.793,-0.135,-0.598,-1.938,+7.312,+11.062,-7, -12, -9, -2, -4, 0, 1, 5
1503602271135,-0.902,-0.390,-0.128,-0.133,+0.794,-0.142,-0.600,-3.438,-4.062,+9.938,9, 3, 0, -2, -2, -1, 0, 5
1503602271157,-0.903,-0.388,-0.128,-0.132,+0.780,-0.142,-0.625,-3.625,-8.812,+9.875,-13, -1, 0, -4, -9, -6, -1, 0
1503602271175,-0.904,-0.387,-0.128,-0.130,+0.765,-0.146,-0.631,-5.062,-9.812,+10.062,-15, -11, -1, 3, 2, -1, -1, -1
1503602271196,-0.905,-0.386,-0.127,-0.128,+0.759,-0.149,-0.633,-4.688,-7.000,+7.688,8, 1, 2, 2, -6, -2, 2, 7
1503602271217,-0.905,-0.385,-0.127,-0.127,+0.739,-0.154,-0.627,-3.562,-1.375,+4.812,14, 5, 2, 1, -4, -5, -2, -2
1503602271234,-0.905,-0.386,-0.127,-0.126,+0.746,-0.147,-0.618,-2.688,+4.562,+3.875,-12, 3, 2, -1, 5, 4, -3, -2
1503602271255,-0.904,-0.388,-0.127,-0.125,+0.758,-0.142,-0.616,-3.688,+8.250,+4.000,-11, -7, -1, -2, -10, -9, -4, -3
1503602271279,-0.904,-0.389,-0.127,-0.124,+0.765,-0.149,-0.632,-4.500,+10.688,+3.250,6, -1, -2, -3, 2, 4, 2, 4
1503602271293,-0.903,-0.391,-0.127,-0.123,+0.754,-0.147,-0.637,-4.625,+10.125,+1.375,12, 9, 5, 3, 2, 4, 5, 6
1503602271316,-0.903,-0.392,-0.127,-0.123,+0.774,-0.150,-0.624,-3.812,+5.438,+0.875,6, -7, -13, -6, -3, -2, -2, 2
1503602271345,-0.903,-0.392,-0.126,-0.122,+0.778,-0.153,-0.612,-3.625,+2.438,+1.438,-4, -6, 1, -1, -1, -1, 0, -1
1503602271353,-0.903,-0.392,-0.126,-0.121,+0.771,-0.151,-0.610,-4.812,+0.562,+2.000,-1, 8, 2, 0, 0, -1, -6, -17
1503602271376,-0.903,-0.392,-0.125,-0.120,+0.765,-0.149,-0.622,-5.562,-0.938,+1.812,0, 16, 19, 8, 13, 5, -1, -1
1503602271397,-0.904,-0.392,-0.125,-0.119,+0.754,-0.151,-0.630,-6.000,-2.375,+2.688,11, 1, -1, -1, -5, -3, 0, 4
1503602271413,-0.904,-0.391,-0.124,-0.119,+0.741,-0.138,-0.633,-5.562,-2.875,+2.438,3, 4, 3, 0, -2, -3, 0, -1
1503602271435,-0.904,-0.391,-0.123,-0.118,+0.747,-0.132,-0.625,-4.250,-2.000,+0.938,-4, 2, 2, -1, 0, 0, -2, -2
1503602271457,-0.905,-0.391,-0.123,-0.118,+0.757,-0.142,-0.635,-4.688,-0.938,+0.750,-17, -12, -6, -2, -2, 1, 1, -1
1503602271475,-0.905,-0.391,-0.122,-0.117,+0.765,-0.151,-0.630,-4.875,+0.375,+2.125,-15, -3, -5, -3, -5, -3, -1, 0
1503602271495,-0.905,-0.391,-0.122,-0.116,+0.750,-0.145,-0.624,-4.375,+1.000,+2.000,-13, -2, -1, -2, 0, -1, 0, -2
1503602271517,-0.905,-0.392,-0.121,-0.116,+0.749,-0.124,-0.622,-2.938,+3.062,+0.062,11, 7, -2, -1, -3, -2, -6, -12
1503602271533,-0.905,-0.392,-0.121,-0.116,+0.759,-0.127,-0.620,-1.562,+3.125,-0.438,-28, -14, -3, -2, -1, -1, -4, -5
1503602271555,-0.904,-0.393,-0.121,-0.115,+0.768,-0.129,-0.618,-1.438,+1.625,+0.062,3, -1, 7, 1, -1, -1, 3, 4
1503602271577,-0.904,-0.393,-0.121,-0.115,+0.772,-0.139,-0.610,-1.062,-0.375,+1.312,-3, -3, -4, 0, 1, -1, -2, 0
1503602271593,-0.905,-0.392,-0.121,-0.115,+0.770,-0.136,-0.609,-1.812,-2.938,+3.062,7, -4, -1, 4, 3, 0, 0, -9
1503602271615,-0.905,-0.392,-0.121,-0.114,+0.767,-0.130,-0.615,-2.375,-3.438,+3.875,3, -2, -5, -1, 2, -2, 1, 14
1503602271637,-0.905,-0.391,-0.120,-0.113,+0.766,-0.129,-0.625,-2.375,-3.750,+3.312,24, 14, 2, -1, -3, -2, -1, 3
1503602271653,-0.906,-0.391,-0.120,-0.113,+0.759,-0.130,-0.628,-1.688,-5.000,+2.312,-7, -2, -3, -3, 0, -3, -4, -6
1503602271677,-0.906,-0.390,-0.120,-0.113,+0.754,-0.134,-0.621,+0.250,-4.875,+1.188,24, 15, -3, -7, -4, 0, 3, 10
1503602271697,-0.906,-0.389,-0.121,-0.113,+0.766,-0.147,-0.619,+1.750,-5.750,-0.312,-10, -10, -2, -1, -4, -3, -2, -5
1503602271713,-0.907,-0.388,-0.121,-0.113,+0.757,-0.134,-0.625,+1.125,-5.750,-0.125,2, 1, 0, 2, 2, 2, -3, -8
1503602271735,-0.907,-0.387,-0.121,-0.113,+0.749,-0.133,-0.641,+2.062,-5.312,-0.562,-14, -10, -1, -4, -8, -1, 0, -6
1503602271757,-0.907,-0.387,-0.121,-0.113,+0.740,-0.140,-0.646,+1.062,-2.688,-0.938,-4, 0, -1, -1, -5, -2, 2, 4
1503602271773,-0.907,-0.387,-0.121,-0.113,+0.742,-0.146,-0.636,-0.500,-0.062,-0.188,-4, 7, 5, 1, 3, 4, 0, -2
1503602271795,-0.907,-0.387,-0.121,-0.113,+0.751,-0.149,-0.636,-1.000,+1.688,-0.125,2, 4, 3, -1, -7, -3, 3, 11
1503602271818,-0.907,-0.387,-0.121,-0.113,+0.771,-0.151,-0.623,-1.875,+1.750,+0.750,-7, 1, 1, -3, -5, -2, -2, 1
1503602271833,-0.907,-0.387,-0.121,-0.112,+0.768,-0.153,-0.633,-3.188,-0.438,+2.812,-15, -1, 2, 5, 7, 2, -3, 5
1503602271855,-0.907,-0.387,-0.120,-0.111,+0.759,-0.146,-0.623,-3.750,-3.125,+3.188,-29, -5, 5, 1, 12, -1, 1, -2
1503602271878,-0.908,-0.386,-0.120,-0.110,+0.761,-0.148,-0.634,-4.000,-3.812,+3.125,12, 2, -1, -3, -5, 0, -1, -5
1503602271893,-0.908,-0.386,-0.120,-0.109,+0.756,-0.149,-0.631,-5.062,-3.562,+3.375,1, 2, -2, -5, -21, -5, -1, -13
1503602271916,-0.909,-0.386,-0.119,-0.108,+0.761,-0.140,-0.625,-5.500,-3.250,+3.375,8, 5, 2, -1, -2, -6, 0, 0
1503602271937,-0.909,-0.385,-0.118,-0.107,+0.761,-0.146,-0.643,-5.875,-3.312,+3.562,0, 0, 2, -1, -12, -2, 0, -24
1503602271953,-0.909,-0.385,-0.118,-0.106,+0.759,-0.151,-0.632,-6.375,-4.188,+3.250,-17, -17, -3, -1, -2, -3, -3, 2
1503602271977,-0.910,-0.384,-0.117,-0.105,+0.760,-0.156,-0.635,-6.312,-5.562,+3.688,14, 11, 4, -1, 6, 3, -4, 1
1503602271997,-0.910,-0.383,-0.116,-0.105,+0.752,-0.140,-0.639,-5.625,-7.000,+3.312,12, 2, 6, 2, 0, 3, 4, 2
1503602272014,-0.911,-0.382,-0.115,-0.104,+0.742,-0.131,-0.648,-5.188,-8.125,+2.188,35, 12, 0, 3, 4, 3, -1, -16
1503602272035,-0.912,-0.380,-0.115,-0.103,+0.734,-0.131,-0.652,-5.688,-9.938,+3.000,15, -4, -1, -3, 3, -1, -3, 8
1503602272058,-0.913,-0.378,-0.114,-0.102,+0.735,-0.134,-0.649,-6.438,-11.688,+3.938,-5, -2, -2, 1, 1, 3, 2, 9
1503602272082,-0.914,-0.377,-0.113,-0.102,+0.725,-0.134,-0.648,-6.562,-12.500,+4.375,0, 0, -4, -3, -3, -3, 0, 0
1503602272095,-0.915,-0.375,-0.112,-0.101,+0.722,-0.130,-0.651,-5.750,-12.062,+4.250,-9, -2, -11, -1, -1, -1, 0, -2
1503602272117,-0.916,-0.373,-0.111,-0.100,+0.715,-0.140,-0.656,-4.375,-10.250,+4.312,-7, -8, -4, -1, -2, -2, -3, 0
1503602272133,-0.917,-0.371,-0.111,-0.099,+0.716,-0.141,-0.679,-4.188,-8.750,+4.188,-2, 1, 6, 1, 2, 1, -1, 2
1503602272155,-0.917,-0.370,-0.110,-0.098,+0.710,-0.138,-0.668,-4.000,-8.062,+3.375,-6, 4, 2, -1, -6, -3, 0, 1
1503602272180,-0.918,-0.369,-0.110,-0.098,+0.708,-0.138,-0.693,-3.250,-7.062,+2.750,-6, -4, -3, -1, 0, -2, 4, 1
1503602272194,-0.919,-0.367,-0.109,-0.097,+0.695,-0.148,-0.709,-2.812,-6.125,+1.312,-3, -3, 1, -2, 2, 1, 0, -1
1503602272218,-0.919,-0.365,-0.109,-0.097,+0.692,-0.157,-0.718,-3.375,-8.750,+0.125,-60, -8, -2, 1, 6, 3, -3, -4
1503602272238,-0.921,-0.363,-0.108,-0.097,+0.689,-0.142,-0.688,-4.188,-14.375,+0.750,-4, -2, -4, -4, -5, -1, -6, -9
1503602272253,-0.922,-0.360,-0.107,-0.097,+0.682,-0.112,-0.650,-2.938,-14.625,+1.688,-18, -3, -4, -4, -6, -1, 0, -4
1503602272276,-0.922,-0.359,-0.107,-0.097,+0.675,-0.112,-0.642,-0.438,-7.750,+1.188,-7, -11, -6, -2, 0, -1, -1, -1
1503602272297,-0.922,-0.359,-0.107,-0.097,+0.702,-0.130,-0.640,+2.000,-1.750,+0.312,-37, -17, 3, 0, 1, -1, -4, -8
1503602272313,-0.922,-0.360,-0.108,-0.096,+0.729,-0.149,-0.643,+2.688,+1.938,+1.250,11, 3, -2, -2, -1, -2, -3, -1
1503602272336,-0.921,-0.361,-0.109,-0.096,+0.751,-0.152,-0.644,+1.938,+3.375,+2.375,-1, 3, 3, -1, -3, -2, 0, -8
1503602272357,-0.921,-0.362,-0.110,-0.096,+0.762,-0.150,-0.654,+1.500,+5.562,+1.875,-10, -4, -1, -1, 5, 2, -1, -4
1503602272373,-0.920,-0.364,-0.110,-0.095,+0.770,-0.138,-0.662,+0.500,+6.688,+1.438,15, 1, 1, 1, 0, 0, 1, 1
1503602272395,-0.919,-0.365,-0.110,-0.095,+0.774,-0.141,-0.648,-0.312,+4.938,+0.938,-16, -11, -3, 0, 6, -1, 2, -3
1503602272418,-0.919,-0.367,-0.110,-0.095,+0.768,-0.144,-0.648,-0.188,+3.375,+0.062,11, 7, 1, 5, 3, 1, 1, 3
1503602272433,-0.919,-0.367,-0.110,-0.095,+0.743,-0.134,-0.655,-0.500,+1.250,-0.938,0, -2, -4, -5, 8, 0, -1, -1
1503602272456,-0.919,-0.367,-0.110,-0.095,+0.729,-0.137,-0.667,-0.375,+1.312,-1.188,3, -1, 1, -3, -10, -4, -3, 2
1503602272480,-0.919,-0.368,-0.110,-0.095,+0.720,-0.136,-0.669,-1.000,+3.000,-0.438,8, 5, 2, 2, 5, 4, -1, 0
1503602272493,-0.918,-0.369,-0.110,-0.095,+0.714,-0.136,-0.660,-1.688,+3.938,+0.000,6, -1, 0, 0, 2, 0, -1, 3
1503602272516,-0.918,-0.369,-0.110,-0.094,+0.714,-0.140,-0.668,-1.062,+4.438,-0.125,-12, -3, -2, -5, -9, -1, -1, -1
1503602272537,-0.918,-0.370,-0.110,-0.094,+0.714,-0.153,-0.671,-0.938,+3.938,-0.312,-5, -4, -2, -1, 0, -2, -2, -7
1503602272553,-0.918,-0.370,-0.110,-0.094,+0.720,-0.155,-0.670,-1.750,+0.750,+0.188,-14, 10, 2, -10, -29, -9, 0, -2
1503602272575,-0.918,-0.369,-0.110,-0.093,+0.726,-0.147,-0.669,-1.250,-2.125,+1.250,-18, -6, 0, -7, -6, 0, -1, 1
1503602272597,-0.918,-0.369,-0.109,-0.093,+0.717,-0.146,-0.673,-1.812,-3.812,+2.062,-20, -4, -2, -5, -9, -4, -3, -2
1503602272620,-0.919,-0.368,-0.109,-0.092,+0.708,-0.145,-0.671,-2.000,-4.125,+2.188,5, 4, 4, 4, 15, 8, 2, 7
1503602272642,-0.919,-0.367,-0.109,-0.092,+0.711,-0.146,-0.669,-2.375,-3.562,+2.625,7, 1, -1, -5, -11, -5, -2, -4
1503602272658,-0.919,-0.367,-0.109,-0.091,+0.712,-0.149,-0.660,-2.438,-1.688,+2.688,-5, -2, -1, -2, -1, -1, -1, -4
1503602272673,-0.919,-0.367,-0.109,-0.091,+0.719,-0.146,-0.682,-1.750,+0.000,+1.625,-15, -4, -4, -10, -17, -2, 0, -1
1503602272695,-0.919,-0.367,-0.109,-0.091,+0.718,-0.154,-0.676,-1.125,+0.250,+0.188,-2, -7, -2, -4, -17, -3, -2, 2
1503602272718,-0.919,-0.367,-0.109,-0.090,+0.718,-0.144,-0.672,-0.938,+0.062,-0.625,-7, -10, -5, -3, -4, 0, 5, 5
1503602272740,-0.919,-0.367,-0.109,-0.090,+0.715,-0.134,-0.666,-1.562,+0.625,-0.188,-12, -5, 1, 1, 0, -2, -1, 0
1503602272755,-0.919,-0.367,-0.108,-0.090,+0.720,-0.131,-0.659,-1.375,+0.938,-0.062,5, 3, 0, 1, -3, -1, -2, -8
1503602272778,-0.919,-0.367,-0.108,-0.090,+0.721,-0.145,-0.668,-0.812,+1.125,-0.375,1, -7, -1, 3, 3, 0, -2, -2
1503602272800,-0.919,-0.368,-0.108,-0.090,+0.724,-0.146,-0.667,-1.062,+0.812,-0.688,-9, -3, 0, 2, 4, 1, -1, -4
1503602272816,-0.919,-0.368,-0.108,-0.090,+0.724,-0.140,-0.667,-0.812,+0.312,-0.562,4, 3, 0, 2, 8, -1, 0, 4
1503602272838,-0.919,-0.368,-0.108,-0.090,+0.724,-0.136,-0.666,-1.000,-0.562,-0.125,12, 25, 2, -2, 0, 0, -1, 3
1503602272860,-0.919,-0.368,-0.108,-0.090,+0.718,-0.146,-0.665,-0.938,-0.250,-0.188,-30, -16, -2, -1, 6, 0, -3, -8
1503602272875,-0.919,-0.368,-0.108,-0.090,+0.715,-0.141,-0.665,-0.750,+0.000,-0.125,5, -2, 1, 7, 19, 2, -2, 0
1503602272898,-0.919,-0.368,-0.108,-0.090,+0.719,-0.138,-0.665,-0.312,+0.625,-0.062,23, 5, -2, -6, -14, 0, -1, -3
1503602272920,-0.919,-0.368,-0.108,-0.090,+0.719,-0.150,-0.672,+0.562,+0.812,-0.688,-9, -5, 0, -3, 8, -2, -1, -2
1503602272935,-0.919,-0.368,-0.108,-0.090,+0.722,-0.153,-0.679,+0.000,+2.062,-1.000,6, 7, -2, -5, -16, -7, -3, 1
1503602272958,-0.919,-0.369,-0.108,-0.090,+0.719,-0.142,-0.673,+0.312,+2.812,-0.875,-17, -16, -2, 1, 0, 0, 0, -4
1503602272983,-0.919,-0.369,-0.108,-0.090,+0.715,-0.130,-0.667,+1.000,+3.625,-2.250,3, 2, 0, -1, 1, 0, -2, -3
1503602272995,-0.918,-0.370,-0.108,-0.090,+0.725,-0.128,-0.668,+1.500,+4.688,-3.188,-6, 3, 1, -1, -2, -3, -1, 0
1503602273018,-0.918,-0.371,-0.108,-0.091,+0.712,-0.143,-0.667,+1.812,+6.000,-3.375,-6, -9, -1, 4, 13, 3, 0, -1
1503602273040,-0.917,-0.372,-0.109,-0.091,+0.724,-0.148,-0.666,+1.875,+5.875,-3.500,-3, -4, -3, 0, 1, 0, -1, -2
1503602273056,-0.917,-0.373,-0.109,-0.092,+0.737,-0.146,-0.661,+1.875,+7.500,-4.000,8, 4, 1, -2, -3, 0, 1, 5
1503602273078,-0.916,-0.374,-0.109,-0.092,+0.729,-0.144,-0.656,+1.250,+8.375,-4.062,11, 13, 1, -1, -3, -1, 0, -1
1503602273100,-0.916,-0.376,-0.109,-0.093,+0.717,-0.142,-0.650,+2.312,+8.812,-4.500,10, 1, 1, -1, 0, 0, -1, -2
1503602273126,-0.915,-0.377,-0.110,-0.093,+0.736,-0.146,-0.636,+2.750,+9.062,-4.438,-43, -19, -5, -3, -5, -3, -1, -3
1503602273140,-0.914,-0.379,-0.110,-0.094,+0.744,-0.146,-0.648,+1.062,+9.688,-3.438,1, -2, -4, -1, -2, -2, -2, -5
1503602273161,-0.913,-0.381,-0.110,-0.094,+0.756,-0.139,-0.640,+0.250,+10.062,-3.062,13, 5, 2, 0, -6, -5, -2, 2
1503602273175,-0.913,-0.382,-0.110,-0.094,+0.757,-0.149,-0.647,+0.312,+9.062,-3.500,2, 5, 1, -1, 1, 1, -6, -8
1503602273198,-0.912,-0.383,-0.110,-0.094,+0.758,-0.144,-0.635,+0.062,+5.562,-2.625,3, -1, -3, -3, -1, 1, 6, 11
1503602273221,-0.912,-0.384,-0.110,-0.095,+0.756,-0.138,-0.631,-0.125,+2.875,-2.125,3, 1, 0, 0, -1, 0, 0, -3
1503602273235,-0.912,-0.385,-0.110,-0.095,+0.753,-0.128,-0.628,-0.500,+2.188,-1.625,2, 0, -2, -1, -1, 0, 1, 1
1503602273259,-0.911,-0.385,-0.110,-0.095,+0.756,-0.126,-0.632,-1.312,+1.500,-1.250,-6, 2, 0, -1, 0, -1, 0, 0
1503602273279,-0.911,-0.385,-0.110,-0.095,+0.759,-0.129,-0.634,-1.625,+0.562,-0.750,-9, -1, 1, 0, -3, -1, 1, -2
1503602273295,-0.911,-0.385,-0.109,-0.095,+0.750,-0.131,-0.639,-1.875,-0.938,-1.188,6, -2, -2, -1, -4, -2, -1, -3
1503602273318,-0.912,-0.385,-0.109,-0.095,+0.745,-0.130,-0.631,-1.375,-2.812,-1.125,-7, 1, 0, -2, -2, -2, -1, -6
1503602273339,-0.912,-0.385,-0.109,-0.095,+0.744,-0.135,-0.647,-1.375,-2.375,-1.625,-3, -7, -2, -3, -6, 0, 0, 2
1503602273355,-0.912,-0.384,-0.108,-0.095,+0.749,-0.139,-0.644,-1.625,-1.375,-0.938,3, -3, -4, 0, 0, -1, -2, 1
1503602273377,-0.912,-0.384,-0.108,-0.094,+0.751,-0.148,-0.646,-2.875,+0.125,+0.875,-5, 7, -3, -2, -1, -2, -1, 0
1503602273399,-0.912,-0.384,-0.108,-0.094,+0.744,-0.127,-0.647,-3.000,-0.375,+0.875,-3, 0, 2, 1, 6, 0, 0, 0
1503602273414,-0.912,-0.385,-0.107,-0.094,+0.730,-0.127,-0.644,-1.438,+0.875,-1.250,-2, -1, 2, -1, -1, 0, -2, -2
1503602273437,-0.912,-0.385,-0.107,-0.094,+0.739,-0.131,-0.646,-0.188,+1.500,-2.812,10, 2, -1, -3, 0, 0, -1, -2
1503602273460,-0.912,-0.385,-0.107,-0.094,+0.759,-0.142,-0.646,-0.250,+1.062,-2.000,6, 1, 0, 0, -2, -1, -1, 0
1503602273475,-0.912,-0.385,-0.107,-0.094,+0.752,-0.137,-0.637,-1.625,+0.562,+0.250,-4, -8, -4, -1, 0, 0, -1, -3
1503602273498,-0.912,-0.385,-0.107,-0.094,+0.750,-0.125,-0.638,-2.250,+0.562,+1.125,5, 4, 1, 0, 0, 0, -1, 1
1503602273520,-0.912,-0.385,-0.107,-0.094,+0.740,-0.121,-0.640,-1.375,+0.750,-0.188,-7, -7, -7, -2, -2, -1, 0, -2
1503602273534,-0.912,-0.386,-0.107,-0.094,+0.748,-0.128,-0.643,-0.438,+0.500,-1.062,11, 8, 2, 2, 0, -1, -2, 4
1503602273557,-0.912,-0.386,-0.107,-0.094,+0.750,-0.127,-0.633,+0.188,-1.000,-1.062,-16, -7, -5, -4, -2, -2, -1, -2
1503602273579,-0.912,-0.385,-0.107,-0.094,+0.749,-0.129,-0.643,+0.188,-1.312,-1.500,-3, 0, -4, 0, 1, -2, -3, -6
1503602273594,-0.912,-0.385,-0.106,-0.094,+0.749,-0.130,-0.645,-1.125,-2.500,-0.125,-2, -1, -1, 0, 1, -1, -4, -8
1503602273619,-0.912,-0.385,-0.106,-0.094,+0.746,-0.126,-0.642,-2.062,-2.125,+1.562,-7, -3, -1, -2, 0, 0, -2, -1
1503602273639,-0.912,-0.385,-0.106,-0.093,+0.750,-0.128,-0.633,-2.062,-0.875,+0.875,-15, -7, -1, 1, 0, 1, 0, 0
1503602273654,-0.912,-0.385,-0.106,-0.093,+0.751,-0.132,-0.644,-1.562,-1.125,+0.188,-1, -4, 0, -2, -4, -3, -1, 1
1503602273677,-0.912,-0.384,-0.106,-0.093,+0.751,-0.138,-0.645,-1.000,-1.812,+0.312,7, 6, 1, 3, 6, 1, 0, 0
1503602273699,-0.913,-0.384,-0.106,-0.093,+0.740,-0.136,-0.647,-0.938,-2.562,+0.000,4, -2, -1, 0, -1, -1, 0, 1
1503602273714,-0.913,-0.384,-0.105,-0.093,+0.740,-0.124,-0.649,-1.125,-0.562,+0.125,5, 5, -1, -2, -2, -3, 0, 3
1503602273736,-0.913,-0.384,-0.105,-0.092,+0.738,-0.134,-0.644,-1.188,+1.812,+0.375,-14, -12, -5, -3, 2, 0, -1, -3
1503602273759,-0.913,-0.384,-0.105,-0.092,+0.742,-0.129,-0.640,-1.000,+2.312,-0.188,3, -3, -2, -2, 0, 0, 0, -2
1503602273774,-0.912,-0.385,-0.105,-0.092,+0.749,-0.127,-0.642,-0.312,+2.500,+0.000,2, 3, -1, 3, 12, 3, 3, 3
1503602273797,-0.912,-0.385,-0.105,-0.092,+0.749,-0.130,-0.642,-0.375,+2.250,+0.312,-39, -14, -3, -2, -4, -1, -2, -6
1503602273822,-0.912,-0.386,-0.105,-0.091,+0.752,-0.128,-0.640,-0.875,+1.188,+0.438,12, -1, 0, -4, -8, -1, 0, -3
1503602273834,-0.912,-0.386,-0.105,-0.091,+0.751,-0.134,-0.640,-1.062,+0.688,+1.125,21, 6, 1, 3, 5, 2, -3, -5
1503602273857,-0.912,-0.386,-0.105,-0.091,+0.746,-0.131,-0.646,-1.125,+1.000,+0.750,-9, -9, -2, 1, -4, -2, 2, 3
1503602273879,-0.912,-0.386,-0.105,-0.091,+0.742,-0.131,-0.646,-0.625,+2.188,-0.438,-13, -4, -3, -4, -2, -1, -1, -1
1503602273902,-0.912,-0.387,-0.105,-0.090,+0.758,-0.136,-0.641,-1.062,+2.250,+0.188,14, 10, 0, 0, -1, -4, -1, 2
1503602273925,-0.912,-0.387,-0.105,-0.090,+0.754,-0.133,-0.634,-2.312,+2.062,+1.188,-24, -9, -3, 0, 4, 1, -1, -1
1503602273939,-0.912,-0.387,-0.105,-0.090,+0.746,-0.130,-0.627,-2.188,+0.938,+0.562,2, -11, -1, 4, 9, 4, 1, 1
1503602273955,-0.912,-0.388,-0.105,-0.089,+0.752,-0.126,-0.625,-1.250,+1.062,+0.500,1, -4, -1, -3, 2, -2, -3, -7
1503602273977,-0.911,-0.388,-0.105,-0.089,+0.751,-0.133,-0.623,-0.938,+1.250,+1.188,0, 0, 0, 2, 0, 0, 0, 2
1503602273999,-0.911,-0.388,-0.105,-0.089,+0.754,-0.136,-0.635,-0.875,+0.250,+1.375,-11, -6, -1, -1, -2, 0, 0, -2
1503602274014,-0.911,-0.388,-0.105,-0.088,+0.741,-0.127,-0.624,-0.375,-1.000,+2.000,-5, -3, 0, -1, -5, 0, -4, -2
1503602274037,-0.912,-0.388,-0.105,-0.088,+0.752,-0.125,-0.630,+0.562,-2.312,+2.250,-1, 2, -2, -1, 5, 0, 5, 9
1503602274059,-0.912,-0.388,-0.105,-0.088,+0.743,-0.128,-0.638,+0.125,+0.062,+1.688,27, 7, 0, 0, -2, -2, -1, 0
1503602274075,-0.912,-0.388,-0.105,-0.087,+0.751,-0.135,-0.642,-0.062,+1.062,+1.125,8, 2, -1, -3, -9, -3, -2, -1
1503602274098,-0.911,-0.388,-0.106,-0.087,+0.763,-0.140,-0.639,+0.000,+2.000,+1.062,-4, -4, 1, 6, 7, 1, 0, -4
1503602274123,-0.911,-0.388,-0.106,-0.087,+0.763,-0.143,-0.648,-0.875,+2.000,+0.750,-3, -1, -2, 1, 4, -4, -4, -8
1503602274135,-0.911,-0.389,-0.106,-0.086,+0.754,-0.135,-0.646,-1.188,+2.250,-0.312,-8, 1, 3, -4, -4, 0, -5, -9
1503602274157,-0.911,-0.389,-0.105,-0.087,+0.747,-0.136,-0.632,-0.500,+3.000,-1.812,7, 11, 3, 0, 0, -1, 1, 2
1503602274179,-0.911,-0.390,-0.105,-0.087,+0.763,-0.127,-0.627,-0.375,+3.750,-2.125,1, 10, 0, -3, -2, -2, -2, 3
1503602274194,-0.910,-0.391,-0.105,-0.087,+0.768,-0.131,-0.632,-1.688,+4.938,-0.438,3, -2, -2, 0, -3, 1, 2, 4
1503602274217,-0.910,-0.391,-0.105,-0.086,+0.757,-0.130,-0.631,-2.312,+1.812,+1.250,-8, -9, -4, -1, 7, 0, -2, -2
1503602274239,-0.910,-0.391,-0.105,-0.086,+0.750,-0.140,-0.626,-1.938,-0.062,+1.688,-14, -5, 1, -3, -6, 0, 0, -3
1503602274263,-0.910,-0.391,-0.105,-0.085,+0.748,-0.131,-0.636,-3.000,-0.375,+2.750,12, -2, 1, 2, 0, -2, -2, 0
1503602274277,-0.911,-0.391,-0.104,-0.084,+0.752,-0.126,-0.634,-3.562,-0.625,+3.625,-2, -4, -2, 0, 6, -1, -1, -2
1503602274299,-0.911,-0.391,-0.104,-0.083,+0.753,-0.137,-0.636,-3.000,-1.688,+3.812,-15, -6, 2, 4, 6, 3, 1, -2
1503602274314,-0.911,-0.390,-0.104,-0.082,+0.754,-0.143,-0.640,-2.750,-2.688,+3.562,-11, -10, -7, -6, -5, 0, -1, 0
1503602274337,-0.911,-0.390,-0.104,-0.082,+0.748,-0.141,-0.635,-2.438,-3.625,+2.562,-4, 0, 0, 0, 1, -1, -3, -4
1503602274361,-0.912,-0.389,-0.104,-0.081,+0.744,-0.132,-0.631,-2.125,-3.938,+2.625,-6, -1, -3, 0, 3, 0, -1, -1
1503602274374,-0.912,-0.389,-0.104,-0.081,+0.752,-0.134,-0.633,-2.375,-3.188,+2.562,7, 2, 2, 3, 8, 2, 2, 7
1503602274398,-0.912,-0.388,-0.103,-0.080,+0.752,-0.136,-0.625,-1.750,-1.750,+2.125,-11, 8, 0, -7, -9, -1, 1, -1
1503602274419,-0.912,-0.388,-0.104,-0.080,+0.752,-0.136,-0.635,-0.750,-1.250,+1.562,-6, -11, -1, 1, -5, 0, 1, -1
1503602274434,-0.912,-0.388,-0.104,-0.080,+0.755,-0.139,-0.634,+0.438,-0.500,+0.250,13, -3, 1, 3, 7, -1, -4, 2
1503602274457,-0.912,-0.388,-0.104,-0.080,+0.755,-0.144,-0.636,-0.562,-1.250,-0.500,-3, -1, -3, -4, -5, -2, -6, -10
1503602274480,-0.913,-0.388,-0.103,-0.079,+0.757,-0.125,-0.635,-2.750,-2.938,+1.125,-6, -8, -3, 0, 2, -1, 0, -3
1503602274496,-0.913,-0.388,-0.103,-0.079,+0.747,-0.124,-0.628,-3.062,-3.062,+2.875,-1, -4, -2, -3, -9, -6, -2, -3
