Timestamp,Orientation X,Orientation Y,Orientation Z,Orientation W,Accelerometer X,Accelerometer Y,Accelerometer Z,Gyroscope X,Gyroscope Y,Gyroscope Z,EMG1,EMG2,EMG3,EMG4,EMG5,EMG6,EMG7,EMG8,Roll,Yaw
1503602230225,-0.797,-0.309,-0.253,-0.453,+0.831,-0.149,-0.569,-16.938,+7.562,-3.875,14, 1, 1, 0, 1, 0, -1, -18,2.0544227761054947,0.8144350987644056
1503602230247,-0.798,-0.311,-0.252,-0.451,+0.805,-0.140,-0.672,-13.375,+7.125,+2.625,13, -3, -2, -2, -2, -4, -7, 8,2.060364538791856,0.8168228819443157
1503602230262,-0.799,-0.310,-0.250,-0.451,+0.753,-0.112,-0.677,-6.688,-10.688,+5.750,-7, 4, -1, 1, 2, 0, -3, -18,2.0624973092777448,0.8125202013714243
1503602230285,-0.800,-0.308,-0.248,-0.451,+0.701,-0.082,-0.611,-3.500,-16.562,+1.188,-11, -2, -1, -2, -3, 2, 1, 6,2.063774740327736,0.8062192266072903
1503602230308,-0.800,-0.307,-0.246,-0.452,+0.702,-0.086,-0.572,-4.438,-11.188,-6.312,-2, -2, 1, 1, 0, -1, 1, -4,2.062741475579565,0.8018590062929671
1503602230322,-0.800,-0.308,-0.245,-0.453,+0.726,-0.120,-0.591,-8.562,-6.062,-8.250,-2, -2, 0, 0, -2, 2, -1, -6,2.06313087680768,0.8028683714359802
1503602230345,-0.800,-0.308,-0.242,-0.453,+0.725,-0.116,-0.640,-12.312,-3.938,-5.625,4, 2, -3, -1, 0, 1, -1, 3,2.0640113382361625,0.7988531255355611
1503602230367,-0.801,-0.309,-0.240,-0.454,+0.671,-0.074,-0.708,-8.188,+0.188,-4.938,-7, -2, -2, -2, -9, -5, -9, -13,2.067100312925181,0.7989744729917883
1503602230390,-0.800,-0.309,-0.239,-0.455,+0.679,-0.089,-0.709,+0.312,+1.750,-6.750,9, -2, 0, 1, 1, -1, -4, 10,2.0642330931659045,0.797549530972974
1503602230405,-0.800,-0.308,-0.239,-0.456,+0.726,-0.135,-0.701,+1.938,+0.062,-5.750,-4, -1, -1, -1, 1, -1, 4, -3,2.0626062623495693,0.7958740532260163
1503602230427,-0.800,-0.308,-0.239,-0.456,+0.739,-0.145,-0.679,-1.438,-4.125,-3.188,-6, -2, 0, -1, -1, -1, -1, -4,2.0626062623495693,0.7958740532260163
1503602230442,-0.800,-0.307,-0.239,-0.456,+0.734,-0.155,-0.668,+1.062,-2.375,-4.688,6, -1, -2, -1, 1, -1, 4, 8,2.0617423360846234,0.7938648004817311
1503602230466,-0.800,-0.307,-0.240,-0.457,+0.735,-0.174,-0.671,+3.438,+2.562,-6.500,1, 1, 2, -1, 2, 3, 4, -4,2.0606939828911477,0.7955324280815532
1503602230487,-0.799,-0.307,-0.241,-0.457,+0.734,-0.181,-0.688,+0.000,+7.688,-5.000,-3, -1, -2, -1, -2, -2, 0, -5,2.057996843451418,0.7964345521566388
1503602230502,-0.799,-0.309,-0.241,-0.457,+0.756,-0.159,-0.680,-2.312,+8.438,-4.312,6, -2, -6, -6, -2, -3, -3, 1,2.059729937115284,0.8004510588130276
1503602230525,-0.798,-0.309,-0.242,-0.457,+0.747,-0.149,-0.699,+2.250,+6.188,-4.375,1, 0, -3, -2, 0, -1, -1, 0,2.057033420845851,0.8013554282124974
1503602230547,-0.798,-0.309,-0.243,-0.458,+0.726,-0.153,-0.681,+4.062,+2.688,-4.062,-1, 16, 1, 3, 0, 0, 0, -4,2.0559947734625976,0.8030348794125772
1503602230563,-0.797,-0.309,-0.244,-0.458,+0.728,-0.146,-0.641,+3.000,+5.188,-4.750,0, -11, -7, 0, -3, -1, -1, 0,2.053296725654899,0.8039477447748068
1503602230585,-0.796,-0.311,-0.245,-0.458,+0.749,-0.145,-0.634,+0.812,+9.500,-4.875,-4, -3, -3, -5, -3, -2, -3, -1,2.0523498036938843,0.8088810866718227
1503602230607,-0.795,-0.312,-0.246,-0.458,+0.752,-0.134,-0.645,-1.500,+9.312,-4.125,-3, -18, -4, -3, 1, 0, -2, 3,2.050531210099572,0.8118102498382044
1503602230622,-0.795,-0.313,-0.246,-0.458,+0.753,-0.104,-0.657,-1.125,+7.375,-3.625,0, -2, 2, -3, -4, -2, -1, -2,2.051417517080127,0.8138222105276501
1503602230645,-0.794,-0.314,-0.246,-0.458,+0.723,-0.087,-0.678,+0.688,+5.125,-1.875,-20, -3, -1, -2, 0, -1, 0, -2,2.0498978990360435,0.8154031553641234
1503602230669,-0.794,-0.314,-0.246,-0.459,+0.716,-0.097,-0.645,+2.062,+5.062,-4.938,-20, -4, -2, -1, 0, 0, -2, -2,2.049162239468059,0.815742215605667
1503602230682,-0.793,-0.315,-0.246,-0.460,+0.739,-0.101,-0.650,+2.938,+5.250,-5.812,-5, -5, -2, -1, 1, 0, 2, 1,2.046916617548709,0.8176616343454765
1503602230705,-0.793,-0.315,-0.247,-0.460,+0.749,-0.130,-0.643,+2.938,+2.000,-3.000,-4, -4, 0, 3, 1, 2, -1, 0,2.0466266459595595,0.8190169468740137
1503602230727,-0.793,-0.315,-0.247,-0.460,+0.737,-0.132,-0.627,+0.188,-0.938,-1.250,-2, -1, 1, -4, -8, -2, 2, 0,2.0466266459595595,0.8190169468740137
1503602230749,-0.793,-0.315,-0.247,-0.460,+0.732,-0.099,-0.621,-1.938,-0.125,-2.750,-2, 0, -1, 0, -3, 0, -1, -1,2.0466266459595595,0.8190169468740137
1503602230765,-0.792,-0.316,-0.246,-0.460,+0.743,-0.081,-0.643,-2.000,+2.938,-2.875,2, 8, 6, 3, 5, 1, -1, 2,2.04540790352606,0.819242942492532
1503602230787,-0.792,-0.317,-0.246,-0.460,+0.759,-0.078,-0.642,-1.750,+4.562,-1.312,-14, -8, -3, -2, -1, 1, 2, 2,2.0463136681639233,0.8212592310098867
1503602230810,-0.792,-0.317,-0.246,-0.460,+0.753,-0.091,-0.639,-0.062,+3.125,-1.000,4, -3, -6, -1, 3, 0, -1, -1,2.0463136681639233,0.8212592310098867
1503602230826,-0.791,-0.318,-0.246,-0.460,+0.765,-0.100,-0.621,+0.812,+1.812,-1.562,1, 2, 5, 4, -6, -2, -1, -1,2.04481457843717,0.8228427119222843
1503602230847,-0.791,-0.318,-0.247,-0.461,+0.762,-0.097,-0.618,+0.250,+2.000,-2.375,2, -2, -4, -5, 7, -2, -2, 0,2.043797785650755,0.8245351382144814
1503602230870,-0.791,-0.319,-0.247,-0.461,+0.755,-0.094,-0.605,-0.250,+1.938,-0.875,-3, -4, -2, -2, -4, -1, -3, -2,2.044709833792777,0.8265533729290561
1503602230885,-0.791,-0.319,-0.247,-0.460,+0.750,-0.094,-0.614,-0.375,+2.500,-0.875,-4, 4, 5, 5, 1, 0, -1, -6,2.045435200181039,0.8262171409285777
1503602230909,-0.790,-0.320,-0.247,-0.460,+0.737,-0.085,-0.615,+0.688,+3.000,-0.500,-7, 0, -5, 0, -3, 0, 0, 2,2.043945350454477,0.827803073972024
1503602230929,-0.790,-0.321,-0.248,-0.460,+0.745,-0.092,-0.636,+1.375,+6.312,+1.125,3, -2, -2, -2, 1, 0, 0, -1,2.044571540927208,0.8311830331945743
1503602230946,-0.790,-0.321,-0.249,-0.459,+0.757,-0.114,-0.648,-0.062,+9.312,+4.438,2, 0, -2, 2, 0, -1, -1, 1,2.045001715944085,0.8322068225180655
1503602230968,-0.790,-0.322,-0.250,-0.458,+0.774,-0.131,-0.649,+0.500,+4.125,+5.938,-1, -22, 2, -3, -1, -1, -1, 0,2.0463525010044585,0.8352560550663498
1503602230989,-0.791,-0.320,-0.250,-0.457,+0.788,-0.153,-0.640,+1.375,-5.250,+5.375,-7, -8, -9, -3, -1, -2, 1, 0,2.0476513348086236,0.831303794955527
1503602231005,-0.792,-0.319,-0.250,-0.456,+0.795,-0.172,-0.623,-0.250,-11.375,+6.250,-5, 6, 3, 0, 0, 1, -1, -1,2.0498798292098157,0.8293754457423095
1503602231027,-0.794,-0.317,-0.250,-0.456,+0.777,-0.160,-0.626,-1.125,-12.375,+6.688,8, 11, 2, 0, 1, 1, 2, 3,2.0528837158146462,0.8261989497498917
1503602231049,-0.795,-0.314,-0.250,-0.455,+0.755,-0.141,-0.653,-1.000,-12.812,+6.812,4, 8, 1, -2, -5, -1, 0, -4,2.0533576630098582,0.8202360597415754
1503602231065,-0.796,-0.312,-0.249,-0.455,+0.737,-0.132,-0.665,+0.188,-11.062,+5.438,-1, 0, -2, -2, -1, 2, -1, 0,2.0542955451705143,0.8152795416816255
1503602231087,-0.797,-0.311,-0.249,-0.455,+0.738,-0.120,-0.661,+1.562,-8.562,+3.000,5, -31, -14, -5, -3, -2, -4, -2,2.0558294625186955,0.8136976503431271
1503602231110,-0.797,-0.310,-0.249,-0.455,+0.767,-0.111,-0.643,+4.625,-8.750,-0.188,-10, -3, 2, 1, 2, -3, 2, 0,2.054957566580841,0.8116870601878432
1503602231125,-0.797,-0.308,-0.249,-0.456,+0.766,-0.102,-0.625,+7.375,-12.562,+0.188,10, 16, 10, 2, -1, -1, -1, 2,2.052474604586159,0.8080175149650076
1503602231147,-0.798,-0.305,-0.248,-0.457,+0.724,-0.071,-0.665,+7.438,-16.188,+4.875,-3, 6, -3, -1, -2, -1, -1, -4,2.0518508499385875,0.8014250565990703
1503602231172,-0.799,-0.302,-0.247,-0.458,+0.664,-0.017,-0.698,+8.312,-17.062,+6.062,18, 9, 5, 0, 0, -1, 0, 1,2.05125552070574,0.7948494570653483
1503602231185,-0.800,-0.298,-0.246,-0.459,+0.647,+0.005,-0.709,+15.312,-14.688,+7.000,6, 5, 5, 7, 2, -1, -1, 2,2.049850620656978,0.7863013047741879
1503602231215,-0.801,-0.294,-0.248,-0.460,+0.710,-0.008,-0.711,+24.750,-12.500,+11.625,-2, 3, -1, -3, -5, -3, 0, -4,2.0476788953141387,0.781855020395507
1503602231229,-0.801,-0.288,-0.252,-0.460,+0.750,-0.089,-0.737,+37.188,-17.750,+20.312,-7, 3, 2, -1, -1, -1, -3, -3,2.041721844772507,0.7754807554628146
1503602231246,-0.803,-0.280,-0.257,-0.459,+0.759,-0.138,-0.744,+43.625,-27.938,+26.812,-1, -4, -1, -1, -2, -4, -4, -2,2.03976951302669,0.7671458381951716
1503602231267,-0.804,-0.271,-0.262,-0.460,+0.743,-0.122,-0.758,+52.625,-30.625,+26.812,-1, -3, -2, 1, -1, -1, -1, -1,2.0334199161670914,0.7573852897452988
1503602231289,-0.805,-0.260,-0.269,-0.461,+0.752,-0.148,-0.775,+65.188,-32.875,+28.688,-2, -1, -1, -3, 0, 1, 0, -3,2.025521091479443,0.746865176784724
1503602231313,-0.806,-0.248,-0.277,-0.461,+0.739,-0.187,-0.776,+76.688,-35.625,+33.375,-2, -1, 3, 2, -1, -2, -1, 0,2.017973324039734,0.7358530451465426
1503602231326,-0.806,-0.235,-0.287,-0.462,+0.727,-0.226,-0.772,+86.438,-33.375,+34.562,1, -8, -22, -13, -1, -1, 0, 0,2.0067008125708927,0.7264347241736459
1503602231349,-0.805,-0.221,-0.299,-0.463,+0.721,-0.271,-0.768,+96.562,-33.188,+33.625,-2, 15, 45, 5, 7, 3, 2, -2,1.992529058336063,0.7185226661854742
1503602231364,-0.803,-0.206,-0.311,-0.464,+0.704,-0.333,-0.735,+103.812,-37.938,+34.938,-4, -7, -20, -3, -5, -1, -4, -2,1.975892903062362,0.7093096298629104
1503602231386,-0.802,-0.191,-0.325,-0.465,+0.687,-0.375,-0.699,+110.250,-38.000,+36.000,-4, 3, 8, 2, 0, -1, -4, -4,1.9625139829185985,0.70465155223124
1503602231409,-0.799,-0.174,-0.339,-0.465,+0.651,-0.416,-0.685,+116.750,-37.062,+35.500,-1, -8, -17, -8, -6, -1, -1, 0,1.944211541345672,0.6963857822799069
1503602231424,-0.796,-0.158,-0.353,-0.466,+0.629,-0.468,-0.666,+120.812,-35.562,+35.000,4, 0, -5, 2, -1, -3, 0, -1,1.9266128376855742,0.6917728036650214
1503602231447,-0.791,-0.142,-0.369,-0.467,+0.600,-0.495,-0.676,+123.562,-30.375,+32.438,-2, 6, 19, 7, 1, -2, -2, -5,1.903699809752569,0.6917241759641423
1503602231469,-0.786,-0.126,-0.384,-0.467,+0.580,-0.501,-0.641,+128.688,-29.250,+30.000,1, -7, -10, -1, -2, -2, -2, -3,1.8820908162918157,0.6908822978776599
1503602231484,-0.780,-0.110,-0.400,-0.468,+0.588,-0.556,-0.588,+133.625,-29.438,+28.062,-2, -1, -1, 5, -4, 0, 1, 3,1.857284497095996,0.6942881501918139
1503602231508,-0.774,-0.093,-0.416,-0.469,+0.564,-0.615,-0.546,+130.625,-31.938,+25.250,7, 4, 0, 3, 0, -1, -1, 1,1.8328080365545272,0.6981405187084663
1503602231529,-0.767,-0.078,-0.430,-0.470,+0.538,-0.632,-0.516,+125.375,-28.312,+21.250,3, -1, -5, -10, -6, -1, 1, -1,1.8058752419266981,0.703106694307279
1503602231546,-0.759,-0.064,-0.445,-0.471,+0.503,-0.640,-0.487,+124.000,-20.312,+15.688,-1, 0, 4, 2, -5, -1, 2, -1,1.7756125647311565,0.7141083357292389
1503602231567,-0.750,-0.051,-0.459,-0.472,+0.518,-0.672,-0.474,+123.500,-19.438,+10.938,-7, -1, -7, 0, -5, -2, -1, -3,1.7416099740546238,0.7267155064609643
1503602231589,-0.742,-0.038,-0.473,-0.474,+0.535,-0.716,-0.417,+117.125,-25.625,+6.438,-11, -4, -5, -3, 0, -1, -1, -2,1.7105621480313271,0.7428821899682051
1503602231604,-0.733,-0.025,-0.485,-0.477,+0.522,-0.735,-0.376,+111.312,-27.000,+3.312,-1, 3, -6, -2, 7, -2, -1, -1,1.6752176854777303,0.7572245449762302
1503602231626,-0.725,-0.014,-0.496,-0.478,+0.496,-0.731,-0.363,+101.375,-20.625,+3.375,3, -6, -8, 6, -1, 1, 4, 3,1.643711915407403,0.7723257342432714
1503602231650,-0.717,-0.004,-0.508,-0.479,+0.487,-0.747,-0.370,+94.625,-14.312,+2.375,7, -8, -25, 4, 0, 1, 0, 4,1.6116015096876781,0.7941662743489216
1503602231671,-0.709,+0.005,-0.517,-0.480,+0.510,-0.773,-0.332,+85.500,-16.812,+0.312,-7, -3, 17, -6, -1, -4, -2, -4,1.578808354266261,0.8103855763511256
1503602231694,-0.701,+0.013,-0.526,-0.481,+0.522,-0.747,-0.326,+76.750,-17.188,-2.062,-4, 1, -3, -1, 3, 4, 2, -1,1.5452829337511262,0.8297713056440245
1503602231711,-0.695,+0.020,-0.533,-0.483,+0.495,-0.747,-0.316,+65.812,-17.938,-4.125,1, 3, 10, 9, 1, -1, 0, 2,1.5198443875170722,0.8463789915643949
1503602231732,-0.689,+0.026,-0.539,-0.483,+0.476,-0.748,-0.311,+55.312,-11.375,-1.000,-28, -6, 3, -1, -4, 1, 0, -4,1.4937687173752792,0.8597688624466837
1503602231746,-0.685,+0.031,-0.544,-0.484,+0.490,-0.758,-0.324,+46.250,-7.812,+2.250,-4, 6, 12, 6, 7, -2, 2, -2,1.476333235589661,0.8726895864953114
1503602231769,-0.682,+0.035,-0.548,-0.484,+0.492,-0.771,-0.322,+38.312,-8.750,+2.500,9, -3, -18, -13, -6, -1, 0, 4,1.462981436629841,0.8826073620636604
1503602231786,-0.679,+0.039,-0.551,-0.484,+0.499,-0.757,-0.327,+31.875,-9.688,+1.062,17, 9, -2, 0, 1, 0, -2, 0,1.4495051233138103,0.8891997409582981
1503602231808,-0.676,+0.042,-0.553,-0.485,+0.492,-0.760,-0.337,+28.250,-7.750,+0.312,-20, -8, -2, 2, 1, -3, -4, -2,1.4361743035005115,0.894591021773159
1503602231829,-0.674,+0.045,-0.555,-0.485,+0.501,-0.765,-0.316,+25.812,-8.062,+2.812,9, 4, -5, -2, -4, 2, 1, 1,1.4270551351020793,0.8989366089266771
1503602231845,-0.672,+0.048,-0.558,-0.486,+0.518,-0.754,-0.310,+24.500,-9.125,+4.312,12, -1, 13, 3, -2, -2, -5, -1,1.4181871013840741,0.9084610104321836
1503602231867,-0.670,+0.052,-0.560,-0.486,+0.508,-0.773,-0.318,+24.750,-10.250,+5.750,2, -1, 1, -4, -1, -1, -2, -4,1.408998853538891,0.912084123354443
1503602235189,-0.746,-0.270,-0.324,-0.516,+0.770,-0.195,-0.598,-9.312,-6.625,+11.312,32, 8, -2, -4, -2, -1, 1, 2,1.838181446082309,0.8525881923044024
1503602235211,-0.748,-0.269,-0.322,-0.515,+0.760,-0.193,-0.609,-10.625,-11.938,+12.125,-4, 3, 4, 0, 2, 0, -2, -4,1.8433143468840678,0.8476723662802301
1503602235228,-0.750,-0.268,-0.320,-0.513,+0.744,-0.190,-0.607,-10.375,-11.375,+13.438,4, 2, -2, 0, 0, -2, 0, 0,1.8488848813732635,0.8423374872782192
1503602235249,-0.752,-0.267,-0.319,-0.511,+0.741,-0.202,-0.618,-9.812,-5.688,+13.875,-3, -2, -3, -3, -3, -4, -5, -5,1.8543382320049009,0.8386858847342014
1503602235272,-0.755,-0.266,-0.317,-0.509,+0.748,-0.212,-0.622,-10.375,-6.625,+13.500,8, 3, 1, -1, 0, -1, 0, 4,1.8626365987942994,0.8337410756641618
1503602235287,-0.757,-0.265,-0.316,-0.507,+0.754,-0.208,-0.629,-10.125,-9.625,+13.500,-3, -2, 2, 4, -1, -2, -1, -1,1.8681534933685533,0.8301003596641388
1503602235310,-0.759,-0.264,-0.314,-0.506,+0.745,-0.225,-0.624,-10.000,-10.062,+12.812,-7, 11, 7, 3, 0, 0, 0, 1,1.8733985151807877,0.8252515452921897
1503602235333,-0.761,-0.263,-0.313,-0.504,+0.737,-0.225,-0.633,-9.688,-8.562,+12.750,1, -10, 0, -2, 2, 0, 2, 1,1.8789677397045248,0.8216222620751283
1503602235347,-0.763,-0.262,-0.312,-0.503,+0.739,-0.229,-0.631,-8.375,-8.688,+12.125,-1, 3, 2, 7, 1, 1, 1, 4,1.8840852126190484,0.8184321980888807
1503602235371,-0.765,-0.261,-0.310,-0.501,+0.728,-0.232,-0.634,-8.375,-10.625,+11.125,7, 1, -1, -5, 0, 0, 0, -4,1.8898707263740497,0.8131809351622118
1503602235394,-0.767,-0.259,-0.308,-0.500,+0.714,-0.229,-0.632,-8.438,-12.875,+9.562,14, -3, -8, -4, -1, -1, -3, 16,1.8943835512162503,0.8065298529555032
1503602235407,-0.768,-0.257,-0.307,-0.499,+0.712,-0.228,-0.648,-7.875,-12.250,+7.438,9, 14, 6, 2, 3, 2, 1, -3,1.8961052666041502,0.8011399551813277
1503602235430,-0.770,-0.256,-0.305,-0.499,+0.711,-0.231,-0.653,-6.688,-10.562,+6.438,-19, -6, -3, -2, -1, 0, 0, 3,1.9009576353444784,0.7967997024643104
1503602235452,-0.771,-0.255,-0.304,-0.498,+0.705,-0.240,-0.663,-4.625,-7.438,+5.375,-11, 6, 6, 0, -2, -2, -1, -7,1.9035057014872772,0.793272814542089
1503602235471,-0.772,-0.254,-0.304,-0.498,+0.712,-0.273,-0.666,-2.188,-6.125,+3.125,13, -17, -10, -2, -3, -1, -1, -2,1.9053755495837128,0.7917872050968497
1503602235489,-0.773,-0.253,-0.304,-0.497,+0.723,-0.279,-0.680,-1.375,-4.750,+3.312,-4, -6, 1, 1, 0, -1, 0, -5,1.90777145645136,0.789863299058472
1503602235512,-0.774,-0.251,-0.303,-0.497,+0.718,-0.281,-0.687,-0.625,-7.938,+3.875,-23, -9, 3, -3, 2, 0, 1, -6,1.9090580370791748,0.7849271864811596
1503602235536,-0.774,-0.249,-0.303,-0.497,+0.710,-0.265,-0.672,+0.188,-9.750,+4.125,14, 19, 3, -6, -3, -2, -3, -1,1.9075355215435252,0.7812314422860037
1503602235550,-0.775,-0.247,-0.303,-0.496,+0.713,-0.253,-0.670,+2.062,-6.688,+4.625,-7, -2, -1, 0, -1, -3, -4, 12,1.9092152845848105,0.7774595296280316
1503602235572,-0.775,-0.246,-0.304,-0.496,+0.715,-0.261,-0.662,+4.188,-3.625,+3.875,-6, -11, -5, 1, 0, 0, -2, -12,1.9082985582822054,0.7772153632720958
1503602235587,-0.776,-0.245,-0.305,-0.496,+0.713,-0.257,-0.656,+5.938,-3.438,+2.438,-2, -2, 1, 1, -1, -1, -2, -6,1.910053774714932,0.7773355793344796
1503602235610,-0.775,-0.245,-0.306,-0.496,+0.721,-0.250,-0.654,+6.938,-0.562,+1.375,16, 4, 0, -1, 0, -1, -3, 7,1.907219981276292,0.7785842163264765
1503602235632,-0.775,-0.244,-0.307,-0.496,+0.733,-0.248,-0.655,+7.812,+0.125,+2.000,-6, 9, 5, 2, 1, 1, 1, -3,1.9063131310157893,0.7783548075537567
1503602235647,-0.775,-0.243,-0.308,-0.496,+0.731,-0.257,-0.662,+7.750,-0.312,+2.000,-12, -2, 1, -3, -4, -2, 0, -3,1.9054106979374812,0.7781309086990214
1503602235671,-0.775,-0.242,-0.309,-0.496,+0.734,-0.259,-0.649,+7.688,-4.375,+1.750,-1, -3, -3, -4, -1, -2, 1, 1,1.9045126826687515,0.7779125256142655
1503602235692,-0.775,-0.240,-0.309,-0.496,+0.714,-0.265,-0.650,+6.562,-12.062,+1.375,7, -2, 0, -1, 2, 4, 0, 2,1.9030523604429526,0.7742427100309235
1503602235707,-0.775,-0.237,-0.308,-0.497,+0.674,-0.236,-0.637,+3.688,-16.562,+0.750,3, 16, 3, 1, -2, -1, 2, 1,1.9005209459505148,0.767585144179359
1503602235731,-0.776,-0.236,-0.307,-0.498,+0.664,-0.214,-0.632,+2.000,-12.188,+1.062,-1, -2, 0, 2, -1, -2, 0, 7,1.902136231788412,0.7649470427227387
1503602235752,-0.776,-0.235,-0.307,-0.498,+0.651,-0.195,-0.664,+0.875,-0.625,+3.312,14, -1, -4, -1, -4, -3, -3, -2,1.9014236226860064,0.763120391631418
1503602235767,-0.777,-0.236,-0.307,-0.497,+0.680,-0.190,-0.649,+0.250,+4.875,+5.875,-9, -5, -3, 0, -4, -2, -2, -3,1.90534768891123,0.7648414725431992
1503602235790,-0.776,-0.237,-0.308,-0.496,+0.709,-0.188,-0.621,+0.875,+5.000,+4.438,5, -1, -1, -1, -1, 0, 0, -1,1.9037362085920826,0.7674797812231984
1503602235811,-0.776,-0.238,-0.308,-0.496,+0.718,-0.196,-0.626,+0.312,+0.750,+2.500,-5, -7, -3, -3, 0, -1, 0, -1,1.904454340972938,0.7693108682369982
1503602235827,-0.777,-0.238,-0.307,-0.496,+0.689,-0.200,-0.629,-1.750,-4.062,+1.625,2, 0, 0, 3, 2, -3, -3, 1,1.9073014960812429,0.7680475613559361
1503602235850,-0.777,-0.237,-0.306,-0.496,+0.671,-0.192,-0.625,-3.250,-5.438,+0.750,-9, 6, 10, 2, -4, -1, -1, -2,1.9067474340982935,0.764603050321997
1503602235873,-0.777,-0.238,-0.305,-0.496,+0.667,-0.187,-0.641,-4.938,+0.438,-0.625,-16, -6, 0, 3, 1, 2, 0, -4,1.9076253925608868,0.7648267922039005
1503602235887,-0.777,-0.240,-0.304,-0.496,+0.677,-0.193,-0.654,-5.938,+6.688,-1.125,22, 2, -3, 0, 0, 2, -4, -2,1.909230604011083,0.766891674024455
1503602235910,-0.777,-0.241,-0.303,-0.496,+0.701,-0.223,-0.664,-6.250,+3.938,-1.438,-17, -5, -5, -4, -2, -1, -1, 0,1.9101208904405873,0.7671279524622036
1503602235932,-0.778,-0.242,-0.302,-0.496,+0.710,-0.233,-0.666,-6.875,-0.500,-1.000,14, -2, 1, -2, 0, 1, 0, -2,1.9136838944450636,0.7677274763553437
1503602235947,-0.778,-0.242,-0.301,-0.496,+0.705,-0.232,-0.664,-6.562,-5.500,-0.562,-8, -3, -1, 1, 1, 3, 1, -5,1.9138509240168433,0.7661343276915407
1503602235970,-0.779,-0.241,-0.300,-0.496,+0.682,-0.244,-0.669,-4.750,-8.625,-2.375,22, 2, 2, 6, 0, -1, 0, 2,1.9159576642427432,0.763062099001229
1503602235991,-0.779,-0.240,-0.298,-0.497,+0.668,-0.256,-0.676,-3.938,-10.750,-4.000,-8, -1, -3, -3, -2, -3, 0, 1,1.9150294441163935,0.7584974050652306
1503602236014,-0.779,-0.239,-0.297,-0.498,+0.663,-0.246,-0.687,-3.188,-7.562,-3.938,-6, -9, -3, -6, 0, -1, -3, -1,1.9139366271773097,0.7555227850988504
1503602236033,-0.779,-0.238,-0.296,-0.498,+0.659,-0.237,-0.688,-2.625,-3.312,-4.000,-3, -5, -6, -5, -3, -1, 2, 0,1.913383494578709,0.752108599720175
1503602236051,-0.780,-0.238,-0.295,-0.498,+0.657,-0.235,-0.690,-1.812,-1.188,-3.312,0, -9, -6, -4, -3, -1, 0, -1,1.9162167894163629,0.7508906649513893
1503602236067,-0.780,-0.238,-0.295,-0.499,+0.661,-0.239,-0.700,-1.750,-0.875,-2.438,4, 7, 4, 3, 4, 1, -1, 1,1.9156757914294407,0.7513329687028921
1503602236090,-0.780,-0.237,-0.294,-0.499,+0.651,-0.228,-0.700,-1.562,-5.000,-3.000,2, 2, 0, 2, 1, 0, -3, 0,1.9151277667840787,0.7479259270220615
1503602236112,-0.780,-0.236,-0.292,-0.500,+0.649,-0.204,-0.702,-2.000,-11.938,-2.312,7, -4, -3, -3, -3, -1, -3, -4,1.9142045190539059,0.7433982655567636
1503602236127,-0.781,-0.234,-0.290,-0.501,+0.639,-0.187,-0.698,-0.562,-16.812,-2.188,0, -6, -3, -4, -8, -5, -2, -2,1.915245201220343,0.7374075059973384
1503602236150,-0.782,-0.231,-0.288,-0.503,+0.647,-0.202,-0.687,+0.688,-19.062,-1.625,19, 6, -1, -2, 1, 0, -1, 3,1.915062235601879,0.7300442280560595
1503602236172,-0.783,-0.228,-0.286,-0.504,+0.636,-0.216,-0.709,-1.750,-19.188,-2.062,-13, -3, -8, -7, -5, -1, 3, -1,1.9154479398165698,0.7222614633844193
1503602236193,-0.784,-0.226,-0.283,-0.505,+0.628,-0.198,-0.688,-4.438,-22.000,-1.500,-11, -6, -7, -1, 1, -1, 0, -2,1.9166905136024919,0.7147746399725037
1503602236210,-0.785,-0.222,-0.280,-0.506,+0.653,-0.216,-0.658,-2.750,-29.438,-1.750,-8, 0, 5, -5, -2, -1, -2, -5,1.916613587979856,0.7036848563614053
1503602236234,-0.786,-0.219,-0.278,-0.507,+0.706,-0.303,-0.673,-2.750,-30.000,-1.375,13, -6, -10, -5, -2, 2, 3, 5,1.9170816158345112,0.695971911217069
1503602236254,-0.787,-0.215,-0.277,-0.507,+0.714,-0.353,-0.668,-7.375,-29.250,+3.062,15, 5, 0, 0, 2, 1, 0, 0,1.9173379777851618,0.6875566574454115
1503602236270,-0.789,-0.212,-0.274,-0.507,+0.740,-0.343,-0.696,-12.312,-34.438,+5.188,4, 6, 7, 0, 2, -1, 0, -1,1.921261296666831,0.6782645290495959
1503602236292,-0.791,-0.208,-0.270,-0.508,+0.694,-0.304,-0.708,-14.062,-34.062,+3.438,19, 5, 5, 3, 2, -1, -1, 2,1.9241953388263429,0.6661344415957906
1503602236314,-0.793,-0.205,-0.267,-0.508,+0.685,-0.275,-0.701,-14.562,-32.688,+1.125,3, -2, 0, -3, -3, -1, -1, 3,1.928190374321945,0.6569133916127471
1503602236332,-0.794,-0.203,-0.263,-0.508,+0.709,-0.280,-0.727,-14.812,-27.375,+1.625,-10, -3, -7, -4, -5, -2, -1, 0,1.9302715055883184,0.6477084715796464
1503602236353,-0.796,-0.202,-0.260,-0.508,+0.690,-0.255,-0.724,-17.125,-22.562,+1.938,-8, 0, 0, 1, -2, 1, 0, -1,1.935477375489749,0.6421514163613159
1503602236374,-0.798,-0.200,-0.256,-0.508,+0.653,-0.241,-0.725,-18.188,-29.562,+0.000,-17, -10, -2, 1, 1, 0, -2, -4,1.9402477056030756,0.6333657684304335
1503602236390,-0.799,-0.198,-0.251,-0.509,+0.621,-0.242,-0.740,-18.438,-32.062,-1.688,1, -4, -4, -2, -1, 1, -4, -14,1.9419167280692244,0.6232753145366525
1503602236412,-0.801,-0.195,-0.246,-0.510,+0.601,-0.234,-0.773,-19.688,-28.375,-3.062,-17, -9, -6, -5, -3, -4, -6, -12,1.9456888515872541,0.6117845698647957
1503602236435,-0.802,-0.194,-0.242,-0.511,+0.588,-0.193,-0.814,-17.125,-19.438,-3.688,16, 5, -2, -3, 1, 2, 2, -8,1.9477722350807025,0.6050358167989074
1503602236450,-0.803,-0.193,-0.238,-0.511,+0.593,-0.151,-0.849,-9.688,-14.250,-1.125,-3, 6, 10, -2, -6, -10, -29, -50,1.9504544555511987,0.5979242938728613
1503602236473,-0.803,-0.192,-0.237,-0.512,+0.565,-0.150,-0.853,-0.375,-10.250,+2.438,-6, -12, 1, 5, 2, 2, 11, 19,1.9494455684750924,0.59512800237279
1503602236494,-0.804,-0.190,-0.236,-0.512,+0.543,-0.198,-0.804,+3.625,-7.375,+0.938,10, 4, 1, -2, 0, 0, 0, 2,1.9511531272556308,0.5904678936548543
1503602236510,-0.804,-0.189,-0.236,-0.512,+0.562,-0.206,-0.778,+1.625,-6.250,-0.562,-22, -11, 1, 1, 4, 2, 2, 2,1.950615130164739,0.5886789333105056
1503602236535,-0.804,-0.188,-0.236,-0.512,+0.572,-0.195,-0.783,-1.875,-5.125,-0.438,10, 32, 19, 4, 1, -1, -1, 4,1.9500801292402463,0.5868912720330604
1503602236553,-0.805,-0.188,-0.235,-0.512,+0.573,-0.189,-0.785,-4.938,-4.188,+1.250,13, -11, -10, -1, 0, 0, 3, 10,1.9528753276826527,0.5858113835763163
1503602236570,-0.805,-0.189,-0.234,-0.511,+0.583,-0.192,-0.791,-6.812,-0.750,+3.562,-7, -9, 1, 0, 2, -1, -1, -5,1.9541635143466356,0.5858079204813974
1503602236591,-0.806,-0.189,-0.233,-0.511,+0.583,-0.199,-0.795,-7.375,+0.812,+3.875,3, -4, 2, 2, -2, -1, 0, -1,1.9569546081401266,0.5847370930662674
1503602236614,-0.806,-0.190,-0.232,-0.510,+0.568,-0.206,-0.802,-7.438,-0.312,+2.875,-13, -7, 2, 3, -2, 1, 0, 2,1.9582534058955958,0.5847473876194822
1503602236628,-0.807,-0.190,-0.232,-0.509,+0.565,-0.207,-0.799,-7.250,+0.750,+1.188,-22, -8, -2, -2, -4, 0, -3, -2,1.9615174821450332,0.5846761707476863
1503602236651,-0.807,-0.191,-0.231,-0.509,+0.562,-0.202,-0.793,-8.125,+4.000,+0.250,2, -10, -1, 1, 0, 0, 0, -1,1.962201633818067,0.5850892668889138
1503602236676,-0.807,-0.193,-0.230,-0.508,+0.565,-0.186,-0.780,-9.062,+5.875,+0.312,4, 2, 5, 3, 1, 0, -3, 6,1.9640621081824803,0.5869156811392309
1503602236688,-0.807,-0.194,-0.230,-0.508,+0.569,-0.181,-0.795,-9.188,+6.688,+0.062,4, -2, -5, -3, -2, 0, 1, 3,1.9646092204685537,0.5887157673281754
1503602236712,-0.808,-0.196,-0.229,-0.507,+0.558,-0.179,-0.795,-8.375,+6.125,-0.250,-4, -9, -5, -2, 1, -1, -2, -9,1.969122047927387,0.5908888169363433
1503602236736,-0.808,-0.197,-0.228,-0.507,+0.564,-0.176,-0.790,-7.125,+6.688,-0.688,14, 8, 9, 3, 1, 1, 1, 4,1.9698311491009506,0.5913236110522653
1503602236749,-0.808,-0.199,-0.228,-0.506,+0.581,-0.170,-0.775,-5.812,+5.500,-0.062,0, -3, -4, 0, 3, -1, 0, 2,1.9715877190981936,0.5945564191327374
1503602236771,-0.808,-0.200,-0.228,-0.506,+0.591,-0.158,-0.779,-4.688,+3.875,+1.125,19, 10, 0, -2, -2, -3, -2, -1,1.972151701783085,0.5963669381945393
1503602236793,-0.808,-0.201,-0.228,-0.505,+0.586,-0.167,-0.775,-3.312,+2.312,+1.875,-2, 1, 1, 2, 2, 1, -1, -2,1.973359317605268,0.5977967661098733
1503602236816,-0.808,-0.201,-0.228,-0.505,+0.595,-0.181,-0.765,-2.438,-0.188,+2.188,-9, -9, -2, -4, -2, -2, 0, -3,1.973359317605268,0.5977967661098733
1503602236831,-0.809,-0.201,-0.227,-0.504,+0.600,-0.176,-0.774,-2.125,-1.688,+2.375,-13, -5, -2, -1, 1, 0, 2, 2,1.976775072933552,0.5963876454988133
1503602236853,-0.809,-0.201,-0.227,-0.504,+0.583,-0.170,-0.777,-2.188,-1.438,+2.000,0, 5, 1, 1, -3, -3, -2, -2,1.976775072933552,0.5963876454988133
1503602236869,-0.809,-0.201,-0.227,-0.504,+0.580,-0.171,-0.779,-2.125,-2.312,+2.000,-2, -2, -1, -2, -2, 0, -1, -2,1.976775072933552,0.5963876454988133
1503602236891,-0.810,-0.200,-0.226,-0.503,+0.578,-0.172,-0.793,-2.125,-2.250,+2.812,2, 3, 0, -2, 0, -1, 3, 3,1.9796303719387118,0.5931686648663356
1503602236913,-0.810,-0.200,-0.226,-0.503,+0.580,-0.175,-0.791,-2.062,-2.125,+2.812,-2, 1, 1, 0, -1, -1, -3, -2,1.9796303719387118,0.5931686648663356
1503602236928,-0.810,-0.200,-0.226,-0.502,+0.579,-0.183,-0.784,-2.312,-1.062,+2.812,22, -2, 0, 0, 0, 5, 3, 4,1.9802841394114394,0.5927885910050142
1503602236951,-0.811,-0.200,-0.226,-0.502,+0.576,-0.182,-0.784,-2.812,-0.625,+3.125,-1, -2, -1, -2, 0, -3, -5, -8,1.9828914990301052,0.5931249494652866
1503602236974,-0.811,-0.200,-0.225,-0.501,+0.575,-0.183,-0.785,-2.750,-1.250,+2.875,-8, -1, -2, -2, -1, -8, 0, 3,1.9837133329450052,0.5913912771442561
1503602236988,-0.812,-0.200,-0.225,-0.501,+0.575,-0.183,-0.778,-2.438,-1.625,+2.250,-13, -7, -3, -2, -2, -1, -1, -2,1.9863165399177323,0.5917278973428204
1503602237012,-0.812,-0.200,-0.225,-0.500,+0.581,-0.180,-0.782,-2.188,-3.375,+1.875,-1, -4, -1, -3, -2, -4, 2, 4,1.986981278395661,0.5913491889138663
1503602237036,-0.812,-0.199,-0.224,-0.500,+0.586,-0.177,-0.780,-1.500,-4.812,+2.250,3, 4, 0, 1, 2, 3, 0, -21,1.9865883611164974,0.5881814717822048
1503602237048,-0.813,-0.198,-0.224,-0.500,+0.585,-0.179,-0.783,-1.188,-6.125,+3.125,-14, -15, -4, -1, -4, -1, 1, 16,1.98863966362957,0.586698751451929
1503602237073,-0.813,-0.197,-0.224,-0.500,+0.580,-0.184,-0.791,-0.875,-6.000,+3.312,5, 1, 0, 0, -3, 0, 1, -3,1.988091672245833,0.5848817050551827
1503602237093,-0.814,-0.197,-0.223,-0.499,+0.566,-0.181,-0.801,-1.500,-4.500,+2.688,7, 0, -2, -3, -1, 1, -1, 1,1.9915279230736846,0.5834916376421573
1503602237109,-0.814,-0.196,-0.223,-0.499,+0.555,-0.181,-0.792,-2.312,-2.062,+1.938,5, 9, 1, 0, -2, 0, -3, -4,1.9909847616939005,0.5816742186954136
1503602237131,-0.814,-0.196,-0.223,-0.499,+0.563,-0.175,-0.784,-2.000,-0.938,+1.438,-14, -10, -1, -2, -2, 3, -3, -6,1.9909847616939005,0.5816742186954136
1503602237154,-0.815,-0.196,-0.222,-0.498,+0.577,-0.176,-0.784,-1.875,-1.438,+1.500,-8, -8, -2, 0, -1, -1, -1, 1,1.9944255448736503,0.5802885165015361
1503602237172,-0.815,-0.196,-0.222,-0.498,+0.573,-0.178,-0.789,-1.688,-2.062,+1.500,-3, 4, 2, 0, -2, -3, 0, 1,1.9944255448736503,0.5802885165015361
1503602237191,-0.815,-0.196,-0.222,-0.498,+0.571,-0.171,-0.794,-1.125,-3.438,+1.875,5, 1, -1, -1, 0, -4, -2, 4,1.9944255448736503,0.5802885165015361
1503602237214,-0.816,-0.195,-0.221,-0.498,+0.567,-0.180,-0.804,-1.625,-2.562,+2.125,6, 3, -1, 0, -7, -2, 1, 7,1.9966484362336552,0.5774650013652332
1503602237228,-0.816,-0.195,-0.221,-0.497,+0.557,-0.179,-0.808,-2.062,-0.312,+1.750,-6, -1, -2, -1, 0, -2, -3, -4,1.9973324607835434,0.5770893894965157
1503602237251,-0.816,-0.196,-0.221,-0.497,+0.569,-0.176,-0.800,-1.625,+1.625,+1.688,-12, -5, -3, -2, -1, -3, -3, -8,1.9978688678776912,0.5789089025156368
1503602237274,-0.816,-0.196,-0.221,-0.496,+0.567,-0.179,-0.793,-1.000,+2.375,+1.875,-3, 0, -1, 0, 0, 0, -4, -4,1.9985552609411528,0.578533642470759
1503602237289,-0.816,-0.196,-0.222,-0.496,+0.565,-0.185,-0.782,-0.750,+2.312,+1.625,2, 3, -2, -1, -3, -6, -1, 2,1.9983902031824718,0.5798677055985643
1503602237311,-0.816,-0.197,-0.222,-0.496,+0.574,-0.183,-0.787,-1.062,+1.938,+1.562,-23, -11, -4, -1, -2, -3, -2, -3,1.9989288985343865,0.5816891448224372
1503602237334,-0.817,-0.197,-0.222,-0.495,+0.570,-0.174,-0.792,-0.812,+2.000,+1.500,2, -1, -1, 0, 1, 0, 0, -1,2.002210292769381,0.58164677242608
1503602237350,-0.817,-0.197,-0.222,-0.495,+0.564,-0.182,-0.789,-0.688,+0.438,+2.000,-7, -1, -2, -1, 0, 0, -1, -1,2.002210292769381,0.58164677242608
1503602237371,-0.817,-0.197,-0.222,-0.494,+0.562,-0.189,-0.789,-1.250,+0.125,+1.875,2, 4, 0, -1, -2, -2, -1, 0,2.002903809056795,0.5812704019621142
1503602237394,-0.817,-0.197,-0.222,-0.494,+0.572,-0.185,-0.787,-1.062,+1.750,+1.188,1, -3, -3, 0, -1, 1, 1, 0,2.002903809056795,0.5812704019621142
1503602237409,-0.817,-0.198,-0.223,-0.494,+0.570,-0.173,-0.788,-0.562,+2.312,+0.625,5, 2, 1, -1, -1, -1, 0, 0,2.003274489654025,0.5844292949968308
1503602237431,-0.817,-0.198,-0.223,-0.494,+0.576,-0.177,-0.786,-0.062,+0.938,+1.062,1, -1, 0, 0, -2, -2, 1, 1,2.003274489654025,0.5844292949968308
1503602237454,-0.817,-0.198,-0.223,-0.493,+0.577,-0.182,-0.788,-0.312,-0.500,+2.438,3, 0, 0, 0, 1, 1, -2, 0,2.00396988382005,0.5840518436562542
1503602237468,-0.818,-0.198,-0.223,-0.493,+0.572,-0.182,-0.786,-0.875,+0.125,+2.875,-7, 2, 0, -1, -2, -2, -2, -1,2.006557361246113,0.584386989201265
1503602237491,-0.818,-0.198,-0.223,-0.492,+0.580,-0.182,-0.783,-0.688,+0.188,+3.000,-2, -3, 0, -1, 0, -2, 0, -2,2.0072579936357995,0.584009516737737
1503602237514,-0.818,-0.198,-0.223,-0.492,+0.579,-0.184,-0.783,-0.250,-1.000,+2.500,5, 0, -1, 1, -2, -1, -2, -5,2.0072579936357995,0.584009516737737
1503602237529,-0.818,-0.197,-0.223,-0.491,+0.568,-0.194,-0.787,-0.375,-2.375,+2.375,-7, -4, -1, -2, -3, -1, 1, 0,2.007424960979084,0.5818038750600152
1503602237551,-0.819,-0.197,-0.223,-0.491,+0.559,-0.192,-0.784,-0.625,-1.562,+2.125,-1, 2, -1, -2, 1, 1, -2, -4,2.010013611352464,0.5821379974451032
1503602237582,-0.819,-0.197,-0.223,-0.491,+0.564,-0.189,-0.792,-0.812,-1.375,+1.625,-6, -2, -2, -1, 1, -1, -4, -7,2.010013611352464,0.5821379974451032
1503602237588,-0.819,-0.196,-0.223,-0.491,+0.565,-0.182,-0.783,-0.750,-1.625,+1.250,21, 8, 0, -1, 1, 1, 1, 1,2.0094838890465034,0.5803101400016115
1503602237612,-0.819,-0.196,-0.223,-0.490,+0.567,-0.185,-0.793,-1.000,-2.062,+1.188,-10, -5, -1, -2, -3, 0, -2, -3,2.0101913369134685,0.5799313618763396
1503602237633,-0.820,-0.196,-0.223,-0.490,+0.565,-0.183,-0.798,-1.375,-2.188,+1.062,-9, -5, -1, 0, -3, -2, 0, -2,2.012777961336845,0.5802642889784756
1503602237649,-0.820,-0.196,-0.222,-0.490,+0.565,-0.191,-0.792,-1.625,-1.688,+1.125,-5, 1, -1, -1, -2, 0, -1, -3,2.0129481188524685,0.5789370261278222
1503602237673,-0.820,-0.196,-0.222,-0.490,+0.565,-0.187,-0.797,-1.562,-1.375,+1.062,5, 3, 1, -1, 1, -1, -1, -1,2.0129481188524685,0.5789370261278222
1503602237693,-0.820,-0.195,-0.222,-0.490,+0.562,-0.187,-0.791,-1.562,-2.312,+0.938,7, 1, -2, 0, -3, -2, -1, -1,2.0124232455443627,0.5771087906829651
1503602237710,-0.821,-0.195,-0.222,-0.490,+0.564,-0.193,-0.789,-1.688,-2.438,+1.000,8, -2, -1, -6, -4, -1, 0, 2,2.015005218381364,0.577440569771662
1503602237731,-0.821,-0.195,-0.221,-0.489,+0.562,-0.192,-0.796,-2.062,-2.062,+0.688,1, -1, -2, 0, 0, -1, 0, -1,2.015891659081992,0.5757400926312979
1503602237753,-0.821,-0.195,-0.221,-0.489,+0.559,-0.184,-0.798,-2.500,-1.125,+0.625,18, 15, 1, 4, 2, 1, 2, 2,2.015891659081992,0.5757400926312979
1503602237768,-0.821,-0.195,-0.221,-0.489,+0.560,-0.183,-0.794,-2.188,-0.250,+0.312,-18, -13, -4, -3, -3, -3, -1, -3,2.015891659081992,0.5757400926312979
1503602237791,-0.821,-0.195,-0.221,-0.489,+0.560,-0.185,-0.792,-1.812,-0.312,+0.000,3, 4, 1, 1, 0, -3, -1, -2,2.015891659081992,0.5757400926312979
1503602237814,-0.821,-0.195,-0.220,-0.489,+0.564,-0.187,-0.783,-1.938,+0.062,+0.062,1, 2, -3, -3, -1, -1, -4, 0,2.016062170594884,0.5744201160832454
1503602237828,-0.821,-0.195,-0.220,-0.489,+0.569,-0.181,-0.785,-2.312,-0.375,+0.312,-11, -5, -2, -1, 4, -2, -5, -2,2.016062170594884,0.5744201160832454
1503602237851,-0.822,-0.195,-0.220,-0.488,+0.567,-0.176,-0.787,-2.125,-1.750,+0.750,-13, -10, -3, -6, -4, 1, -1, -1,2.0193622271661553,0.5743775124253175
1503602237874,-0.822,-0.195,-0.220,-0.488,+0.561,-0.187,-0.796,-1.812,-2.438,+0.562,9, 7, 0, 0, -3, -3, 0, 0,2.0193622271661553,0.5743775124253175
1503602237889,-0.822,-0.195,-0.219,-0.488,+0.558,-0.186,-0.796,-1.875,-2.500,+0.188,-2, -4, 0, 1, 0, -1, -2, 0,2.0195338965935288,0.5730619747313648
1503602237911,-0.822,-0.195,-0.219,-0.488,+0.559,-0.185,-0.793,-1.875,-1.938,-0.125,7, 2, -1, 0, -1, -1, 1, -1,2.0195338965935288,0.5730619747313648
1503602237933,-0.822,-0.195,-0.219,-0.488,+0.565,-0.185,-0.787,-2.000,-1.250,+0.062,13, 2, -1, -2, -2, 3, 2, 3,2.0195338965935288,0.5730619747313648
1503602237949,-0.822,-0.195,-0.218,-0.488,+0.565,-0.184,-0.791,-1.812,-2.625,+0.438,-14, -5, 1, 1, 2, 0, -1, -3,2.0197056885192706,0.5717491895824063
1503602237971,-0.823,-0.194,-0.218,-0.488,+0.566,-0.188,-0.791,-1.438,-4.062,+0.562,7, 0, -3, -1, -1, -1, -1, 0,2.0217623178432484,0.5702504513838289
1503602237993,-0.823,-0.194,-0.218,-0.488,+0.565,-0.185,-0.795,-1.562,-4.438,+0.625,1, -1, 0, -3, -2, 0, 0, -1,2.0217623178432484,0.5702504513838289
1503602238012,-0.823,-0.193,-0.217,-0.488,+0.559,-0.186,-0.805,-1.188,-4.188,+0.812,-8, -4, -3, -3, -3, -2, -2, -1,2.0214189313917563,0.5671106707531705
1503602238033,-0.823,-0.193,-0.217,-0.488,+0.551,-0.178,-0.796,-1.125,-3.562,+1.000,2, 2, 2, -1, 1, 0, -1, 1,2.0214189313917563,0.5671106707531705
1503602238053,-0.824,-0.192,-0.217,-0.488,+0.554,-0.180,-0.799,-0.812,-2.938,+1.125,0, -2, 0, -1, 0, 0, -1, -1,2.023481815825245,0.5656109726931349
1503602238078,-0.824,-0.192,-0.217,-0.487,+0.559,-0.182,-0.789,-0.562,-3.438,+1.875,-7, -7, -1, -2, -1, -2, -2, -2,2.024213240890168,0.56523911770987
1503602238099,-0.824,-0.191,-0.216,-0.487,+0.559,-0.183,-0.797,-0.562,-4.438,+2.812,17, 9, 0, -1, -2, -1, 0, 1,2.0238768375722245,0.5621048425496248
1503602238113,-0.825,-0.191,-0.216,-0.487,+0.553,-0.184,-0.810,-1.188,-3.625,+3.062,-2, -3, -1, -2, -2, -2, 0, -1,2.026449856798739,0.5624328092658287
1503602238129,-0.825,-0.190,-0.216,-0.486,+0.548,-0.187,-0.809,-1.812,-2.250,+2.688,-3, -3, -1, -1, -1, 0, 0, -2,2.0266854277069917,0.5602323422125236
1503602238151,-0.826,-0.190,-0.216,-0.486,+0.541,-0.186,-0.803,-1.750,-0.562,+2.125,0, 2, 0, 2, -4, 1, 0, 0,2.0292560418534378,0.5605590626545882
1503602238176,-0.826,-0.190,-0.216,-0.485,+0.555,-0.184,-0.795,-1.688,+0.500,+1.938,-6, -8, -2, -2, -1, 0, 1, 0,2.029998011832326,0.5601876226787307
1503602238189,-0.826,-0.190,-0.216,-0.485,+0.554,-0.191,-0.801,-1.062,-0.875,+1.812,6, 4, 0, -2, -3, -2, -2, 1,2.029998011832326,0.5601876226787307
1503602238215,-0.826,-0.190,-0.216,-0.485,+0.552,-0.192,-0.810,-0.688,-0.938,+1.250,-3, -3, -1, -1, 1, 0, 1, -1,2.029998011832326,0.5601876226787307
1503602238233,-0.826,-0.190,-0.216,-0.485,+0.546,-0.187,-0.804,-1.062,+0.000,+0.375,1, -5, 0, 1, 0, 2, 2, 2,2.029998011832326,0.5601876226787307
1503602238250,-0.826,-0.190,-0.215,-0.485,+0.544,-0.179,-0.804,-1.250,+0.438,-0.188,-4, 0, -1, -2, -1, -3, -1, -3,2.0301689985215643,0.5588887197970451
1503602238271,-0.826,-0.190,-0.215,-0.484,+0.551,-0.182,-0.797,-1.188,+0.500,+0.312,-2, 0, 1, 1, 1, -2, -1, 0,2.0309137170398293,0.5585186076991095
1503602238293,-0.826,-0.191,-0.215,-0.484,+0.557,-0.191,-0.797,-1.125,-0.375,+1.062,1, -1, -1, 0, 1, -1, 1, 0,2.0314133804434604,0.5603503692868477
1503602238310,-0.827,-0.190,-0.215,-0.484,+0.550,-0.189,-0.795,-1.188,-1.000,+1.375,1, -3, -2, 0, -2, -1, -3, 0,2.0334822798661,0.5588456923060964
1503602238332,-0.827,-0.190,-0.215,-0.484,+0.553,-0.186,-0.807,-1.125,-0.750,+1.062,11, 3, 1, -2, 0, 0, 1, 4,2.0334822798661,0.5588456923060964
1503602238354,-0.827,-0.190,-0.215,-0.483,+0.551,-0.191,-0.809,-1.062,-0.062,+0.750,-3, -1, -2, 0, 1, -2, -4, -1,2.034232235207103,0.5584755602931049
1503602238369,-0.827,-0.190,-0.215,-0.483,+0.545,-0.186,-0.803,-1.312,+0.625,+0.312,-5, 1, 0, 1, 0, 2, 1, -1,2.034232235207103,0.5584755602931049
1503602238392,-0.827,-0.191,-0.215,-0.483,+0.555,-0.187,-0.793,-1.438,+0.812,+0.750,-5, -6, -2, -1, -2, 3, 2, -5,2.0347290217949774,0.560309100864246
1503602238413,-0.827,-0.191,-0.215,-0.483,+0.556,-0.187,-0.792,-1.312,+0.000,+1.188,-4, -1, 1, -2, -2, -2, 0, -3,2.0347290217949774,0.560309100864246
1503602238429,-0.827,-0.191,-0.215,-0.483,+0.555,-0.186,-0.802,-1.000,-1.125,+1.188,-4, -7, -2, -3, -3, -3, -4, -3,2.0347290217949774,0.560309100864246
1503602238452,-0.828,-0.191,-0.215,-0.482,+0.545,-0.187,-0.810,-0.938,-0.562,+0.875,-5, -3, 1, -1, -1, -2, -3, -4,2.0380442892564545,0.5602678303045728
1503602238473,-0.828,-0.191,-0.215,-0.482,+0.541,-0.191,-0.809,-1.125,+0.812,+0.625,-4, -2, 1, 2, 0, -2, 0, 1,2.0380442892564545,0.5602678303045728
1503602238489,-0.828,-0.191,-0.215,-0.482,+0.545,-0.192,-0.805,-1.188,+0.688,+0.500,-2, -1, 0, -1, -5, -2, 1, 1,2.0380442892564545,0.5602678303045728
1503602238512,-0.828,-0.191,-0.215,-0.482,+0.553,-0.188,-0.794,-1.125,+1.312,+0.188,-3, 0, 0, -3, -1, -2, -2, -1,2.0380442892564545,0.5602678303045728
1503602238533,-0.828,-0.191,-0.215,-0.482,+0.556,-0.181,-0.804,-0.750,+1.625,+0.188,-3, 0, -3, -1, 0, 1, -2, -6,2.0380442892564545,0.5602678303045728
1503602238549,-0.828,-0.192,-0.216,-0.482,+0.567,-0.181,-0.801,+0.562,+0.375,-0.938,-3, 0, -1, 0, 0, 1, -1, -2,2.038365683312534,0.5633986450058288
1503602238571,-0.827,-0.192,-0.216,-0.482,+0.565,-0.194,-0.794,+1.875,+1.438,-2.062,-3, 0, 0, -1, -1, 1, 1, 1,2.0358063760838845,0.5630690595055097
1503602238593,-0.827,-0.192,-0.217,-0.482,+0.577,-0.201,-0.799,+3.562,+1.438,-2.312,0, -3, -3, -1, -1, -3, -1, -2,2.03563156967473,0.5643661978054091
1503602238611,-0.826,-0.192,-0.218,-0.483,+0.574,-0.197,-0.809,+4.812,+4.000,-4.688,3, -2, -1, -2, 1, 2, 4, 3,2.0321419107333463,0.5657106686898419
1503602238631,-0.825,-0.193,-0.220,-0.484,+0.574,-0.185,-0.797,+6.375,+7.250,-6.938,0, -1, 0, -2, -5, -11, -5, -1,2.028985452917976,0.570203605035585
1503602238654,-0.824,-0.194,-0.221,-0.484,+0.576,-0.183,-0.784,+9.375,+7.312,-6.000,4, 0, 1, -1, -1, 2, 0, -1,2.0267476681454615,0.5730190190983449
1503602238669,-0.823,-0.194,-0.223,-0.485,+0.559,-0.184,-0.790,+9.312,+4.625,-5.688,4, 0, -1, 0, -1, 2, 0, 4,2.023090530790394,0.5757007036080852
1503602238691,-0.822,-0.194,-0.224,-0.486,+0.550,-0.196,-0.798,+7.062,+4.125,-3.750,6, 4, -3, -3, -1, 1, 1, 0,2.019608995572586,0.5770738180658914
1503602238713,-0.821,-0.195,-0.226,-0.486,+0.571,-0.192,-0.804,+7.562,+10.938,-2.562,-3, -2, 0, 0, 1, 1, 3, -4,2.017195883606557,0.5812300129308052
1503602238730,-0.821,-0.196,-0.229,-0.486,+0.590,-0.186,-0.815,+9.500,+15.875,-0.500,-2, -1, 0, -1, 0, 4, 5, 1,2.017198452535067,0.5870679869307884
1503602238753,-0.820,-0.198,-0.232,-0.485,+0.596,-0.175,-0.783,+14.000,+15.438,+2.125,3, 2, 0, -1, 0, 0, -2, -2,2.015856172219646,0.5940431608864674
1503602238773,-0.819,-0.198,-0.236,-0.485,+0.616,-0.191,-0.779,+19.312,+15.125,+4.562,-4, -1, 0, 0, -1, -3, -1, -3,2.012574691522392,0.5991220269159283
1503602238789,-0.818,-0.199,-0.240,-0.484,+0.610,-0.210,-0.806,+19.812,+13.562,+6.000,-5, -3, 1, 1, 3, 9, 5, 0,2.010524822068315,0.6056808477250597
1503602238812,-0.817,-0.198,-0.244,-0.483,+0.590,-0.198,-0.829,+20.875,+11.000,+8.438,-3, -3, -3, -1, 0, -2, -3, -1,2.007415329090222,0.6086086883773751
1503602238833,-0.817,-0.197,-0.248,-0.482,+0.589,-0.172,-0.846,+27.438,+12.812,+13.250,-2, 2, -1, -2, -2, -3, -7, -3,2.0069187757689844,0.6119072871533316
1503602238850,-0.817,-0.196,-0.254,-0.480,+0.600,-0.181,-0.850,+36.062,+19.188,+19.188,1, 0, 2, 0, 0, 2, 3, -2,2.0067998570358365,0.617629756508071
1503602238871,-0.816,-0.195,-0.263,-0.477,+0.641,-0.222,-0.828,+43.938,+23.938,+23.188,1, -2, 1, -1, 1, 4, 2, 1,2.004261798747432,0.6269520866543775
1503602238893,-0.814,-0.193,-0.273,-0.475,+0.697,-0.251,-0.806,+52.875,+20.625,+25.125,1, 1, -1, -2, -6, -2, 0, -1,1.9976981705013308,0.6362254781152743
1503602238909,-0.813,-0.189,-0.283,-0.473,+0.690,-0.267,-0.788,+61.500,+10.625,+25.812,4, 7, 1, 0, -1, 1, 3, -1,1.9928408279161387,0.6424566413515367
1503602238931,-0.812,-0.183,-0.293,-0.471,+0.658,-0.294,-0.764,+68.375,-0.875,+28.438,0, -2, -2, 0, 7, -5, -5, -1,1.9871494800519791,0.6453521462624723
1503602238955,-0.811,-0.175,-0.304,-0.469,+0.637,-0.321,-0.756,+74.375,-2.812,+32.062,-4, -3, 0, 0, 1, 1, 0, 0,1.9806173069171455,0.6465193024363269
1503602238969,-0.809,-0.167,-0.315,-0.467,+0.601,-0.350,-0.751,+80.000,+1.062,+34.125,6, -2, -1, -1, -5, -2, -1, -1,1.9715774228170497,0.6478523512150229
1503602238991,-0.808,-0.159,-0.328,-0.464,+0.597,-0.377,-0.754,+84.750,+2.125,+36.812,0, 2, 1, -1, 0, 2, 1, 1,1.9659897410147331,0.6526982983588602
1503602239018,-0.806,-0.149,-0.341,-0.461,+0.598,-0.415,-0.720,+88.750,-0.438,+40.250,-2, 4, 0, -2, -3, -7, -4, -3,1.9571811586750365,0.6543112517127467
1503602239029,-0.804,-0.139,-0.354,-0.457,+0.606,-0.462,-0.692,+92.625,-3.250,+43.688,-5, -6, -4, -1, -1, -2, -2, 1,1.9494047038307596,0.6560099676932977
1503602239055,-0.801,-0.128,-0.368,-0.454,+0.591,-0.502,-0.659,+95.438,-7.938,+43.375,-2, -1, -4, -3, -6, -2, 2, -1,1.9379726076833936,0.6588634955575356
1503602239073,-0.799,-0.117,-0.382,-0.451,+0.577,-0.550,-0.641,+96.312,-11.312,+43.562,-2, -2, 1, 0, 1, 0, 0, -1,1.9299973909074448,0.6629067535944188
1503602239090,-0.796,-0.105,-0.395,-0.447,+0.537,-0.570,-0.631,+96.125,-10.500,+43.438,-14, -6, -2, -3, -2, 0, -1, -2,1.9199518741641977,0.6632548634778868
1503602239113,-0.793,-0.093,-0.408,-0.443,+0.501,-0.592,-0.600,+97.000,-7.062,+42.688,15, 4, -1, -1, -3, 0, 1, -1,1.9103587568688305,0.6644919337598215
1503602239133,-0.789,-0.082,-0.422,-0.439,+0.499,-0.624,-0.566,+95.312,-4.062,+40.875,5, 2, 0, -2, -2, -1, -1, -2,1.8978605864164457,0.6704750824510235
1503602239156,-0.785,-0.072,-0.435,-0.435,+0.486,-0.642,-0.546,+94.250,-0.125,+37.375,7, 1, -6, -7, -5, -2, 1, 1,1.885636165699489,0.677274256065757
1503602239171,-0.781,-0.062,-0.448,-0.432,+0.500,-0.681,-0.523,+94.500,-3.125,+34.562,-3, 15, 11, 2, 2, -1, 0, 0,1.8729076111041758,0.6861845928135712
1503602239193,-0.775,-0.051,-0.461,-0.429,+0.471,-0.710,-0.507,+95.188,-9.250,+30.500,-6, -2, -1, -4, -2, 3, 0, 0,1.853027992245675,0.6945220964213754
1503602239216,-0.770,-0.041,-0.473,-0.427,+0.448,-0.719,-0.469,+92.750,-8.812,+25.688,6, 2, -1, -8, -4, -3, -2, -3,1.836037621155303,0.704788927992348
1503602239231,-0.765,-0.031,-0.484,-0.425,+0.413,-0.726,-0.464,+87.750,-8.750,+20.688,0, 2, 3, 6, 13, 2, 0, 0,1.8189649933542036,0.7139535141444862
1503602239253,-0.759,-0.022,-0.494,-0.423,+0.402,-0.745,-0.438,+81.812,-7.188,+16.625,2, -2, -3, -3, -4, -1, -2, -1,1.7975005595592344,0.7234995356512935
1503602239276,-0.754,-0.014,-0.503,-0.422,+0.420,-0.752,-0.430,+75.875,-7.375,+12.812,2, 1, -2, -7, -4, -1, -3, -2,1.77900650482223,0.7343944544605648
1503602239292,-0.749,-0.006,-0.511,-0.422,+0.393,-0.754,-0.433,+71.562,-10.312,+9.938,4, 11, 11, 10, -1, 0, -1, -3,1.7597665896927763,0.7446628539270502
1503602239315,-0.743,+0.002,-0.519,-0.422,+0.404,-0.764,-0.387,+68.500,-15.875,+8.562,-6, -1, 2, 1, 4, 0, 1, -1,1.7358464105191127,0.7561696203407818
1503602239343,-0.738,+0.009,-0.526,-0.422,+0.412,-0.764,-0.352,+62.750,-15.938,+8.688,-2, -4, -5, 1, -2, -3, -3, -1,1.7156012426103988,0.7673575144902955
1503602244938,-0.770,-0.365,-0.276,-0.445,+0.838,-0.081,-0.503,-9.062,-2.312,-0.438,34, 4, 3, -3, -2, 0, 0, 11,2.0424049143385905,0.9470789329323467
1503602244954,-0.771,-0.366,-0.274,-0.444,+0.835,-0.084,-0.510,-10.188,-3.500,-0.125,0, 11, 19, 10, 3, 0, 0, 5,2.0471819630375134,0.9464443203260569
1503602244977,-0.771,-0.366,-0.273,-0.444,+0.808,-0.078,-0.545,-9.812,-3.125,+1.125,-7, -10, -10, -3, 1, 1, 4, 8,2.047519161909829,0.9450311273464154
1503602244998,-0.772,-0.366,-0.271,-0.443,+0.814,-0.076,-0.563,-7.250,-4.250,+2.062,15, 3, -3, 0, -1, -2, 0, 1,2.0512525052730535,0.9423260625034419
1503602245014,-0.773,-0.365,-0.270,-0.443,+0.833,-0.092,-0.549,-5.000,-8.625,+2.688,6, -4, -5, -3, -1, -3, -2, 3,2.0528820455180896,0.939254971535718
1503602245036,-0.774,-0.364,-0.269,-0.443,+0.843,-0.106,-0.521,-5.375,-10.062,+1.062,2, 0, -6, -5, -2, -1, -3, 0,2.054515478544584,0.9361887703187112
1503602245058,-0.775,-0.364,-0.268,-0.442,+0.830,-0.105,-0.538,-6.750,-8.750,+1.812,2, -1, -5, -1, 0, 0, -2, 4,2.057918840389603,0.9349069594875838
1503602245078,-0.776,-0.363,-0.266,-0.442,+0.821,-0.097,-0.564,-5.688,-6.500,+1.938,-3, -7, 11, 14, 1, 0, 5, 0,2.059900119626672,0.9304605461675495
1503602245096,-0.777,-0.362,-0.266,-0.442,+0.804,-0.101,-0.588,-3.312,-3.938,+1.250,-3, 3, -6, -4, 0, -2, -3, -3,2.061200545505299,0.9287964313395142
1503602245120,-0.777,-0.362,-0.265,-0.442,+0.815,-0.123,-0.561,-1.812,-5.625,+0.062,19, -1, -1, -3, -2, -3, -2, 5,2.06154279929361,0.9274108895244945
1503602245134,-0.778,-0.361,-0.265,-0.442,+0.833,-0.123,-0.553,-2.062,-4.875,-0.062,12, -2, 0, 7, 1, 1, -1, 4,2.062846961408707,0.925748426340823
1503602245156,-0.778,-0.361,-0.264,-0.441,+0.826,-0.118,-0.560,-2.250,-4.812,+0.500,-11, -4, -2, -5, -1, -1, 0, 4,2.063928138624854,0.9240466356735632
1503602245182,-0.779,-0.360,-0.264,-0.441,+0.800,-0.106,-0.582,-2.688,-6.062,-0.125,-7, 3, 1, -5, -2, -1, -2, -3,2.0652379258058016,0.9223851686414841
1503602245194,-0.779,-0.359,-0.263,-0.441,+0.807,-0.106,-0.576,-3.250,-3.500,-0.938,13, -4, -6, -2, 1, 2, 2, 1,2.064559850928281,0.9189093906403906
1503602245217,-0.779,-0.360,-0.263,-0.441,+0.804,-0.097,-0.588,-1.750,+3.000,-1.188,-20, -6, -2, -2, -1, -1, 5, -8,2.0655810110285473,0.9210065990730628
1503602245238,-0.779,-0.360,-0.263,-0.441,+0.825,-0.090,-0.585,+0.750,+6.062,+0.375,5, 5, 3, 2, -3, -1, -1, -1,2.0655810110285473,0.9210065990730628
1503602245254,-0.778,-0.361,-0.264,-0.441,+0.841,-0.101,-0.567,+3.125,+5.625,+1.688,-2, -1, 0, 1, 5, -2, -2, -1,2.063928138624854,0.9240466356735632
1503602245279,-0.778,-0.360,-0.265,-0.441,+0.837,-0.115,-0.552,+3.688,-2.688,-0.188,-9, -3, -4, -5, -5, -2, -3, -5,2.0625600632082626,0.9233306926256261
1503602245298,-0.779,-0.359,-0.264,-0.442,+0.814,-0.116,-0.561,+2.062,-6.875,-3.000,-8, -3, -4, -3, 2, 1, -3, -3,2.0634776186131765,0.9206096791806977
1503602245314,-0.779,-0.359,-0.264,-0.442,+0.775,-0.102,-0.557,+0.438,-4.625,-4.188,14, 9, 4, 0, 2, 2, -1, 1,2.0634776186131765,0.9206096791806977
1503602245336,-0.778,-0.359,-0.264,-0.443,+0.776,-0.088,-0.551,+0.000,+4.188,-3.750,-10, -5, -1, 2, 5, -1, -1, -2,2.0604033777453696,0.920494173134808
1503602245358,-0.777,-0.361,-0.265,-0.442,+0.800,-0.081,-0.562,+0.438,+14.750,-2.062,8, 3, 4, 0, -2, -2, 0, 2,2.060512250078809,0.9253123930519263
1503602245374,-0.776,-0.363,-0.266,-0.442,+0.839,-0.093,-0.562,+1.250,+13.562,-0.938,-4, -2, -6, 0, -5, -2, -3, -8,2.059900119626672,0.9304605461675495
1503602245396,-0.776,-0.364,-0.266,-0.442,+0.850,-0.105,-0.551,+1.312,+4.938,-2.125,5, 2, 1, 3, 0, -2, -2, -7,2.06093678818804,0.9325618185205906
1503602245418,-0.776,-0.364,-0.266,-0.442,+0.843,-0.104,-0.543,+0.250,-3.438,-2.312,25, 0, -8, -4, -4, -2, 0, 6,2.06093678818804,0.9325618185205906
1503602245434,-0.776,-0.363,-0.266,-0.442,+0.833,-0.095,-0.531,-0.938,-5.688,-0.312,-32, -8, -2, -2, -2, -3, -6, -12,2.059900119626672,0.9304605461675495
1503602245457,-0.776,-0.363,-0.266,-0.442,+0.833,-0.092,-0.523,-1.688,-4.125,+2.438,-25, -2, 4, 3, 1, 2, 2, 5,2.059900119626672,0.9304605461675495
1503602245479,-0.777,-0.362,-0.265,-0.441,+0.840,-0.087,-0.537,-2.188,-5.938,+5.688,6, -1, -1, -3, -4, 2, 3, 14,2.0622788992086187,0.9270915011973117
1503602245494,-0.778,-0.361,-0.265,-0.440,+0.839,-0.086,-0.538,-1.500,-13.062,+7.375,7, 0, -4, -4, 0, 0, -1, -2,2.064325060099252,0.9251080929933936
1503602245517,-0.780,-0.358,-0.263,-0.440,+0.825,-0.096,-0.542,-0.938,-19.938,+6.062,-2, 0, 5, 1, -1, -1, -3, 0,2.0666247609194044,0.9169299750242333
1503602245539,-0.782,-0.356,-0.262,-0.440,+0.803,-0.079,-0.549,-2.438,-21.062,+6.125,-27, -12, -4, -5, -7, -5, -3, 9,2.069621930753429,0.9122417932308025
1503602245555,-0.784,-0.353,-0.260,-0.440,+0.786,-0.064,-0.563,-2.500,-18.188,+8.500,6, -5, -2, 3, 1, 0, 1, 5,2.071982068282594,0.9041046653105289
1503602245578,-0.785,-0.351,-0.259,-0.439,+0.787,-0.073,-0.578,-1.625,-13.188,+10.625,-8, 4, -3, -3, -3, -3, 0, 11,2.0734417267976766,0.8986782556714102
1503602245599,-0.787,-0.349,-0.259,-0.438,+0.799,-0.084,-0.580,-0.812,-12.688,+11.125,58, 17, 0, 1, -1, 0, -4, 14,2.076927383620445,0.8950600935386486
1503602245615,-0.789,-0.347,-0.258,-0.437,+0.801,-0.086,-0.578,-1.125,-14.438,+11.812,3, 2, -6, -3, 0, 1, 2, -6,2.0807785822333558,0.8900835638649356
1503602245637,-0.790,-0.345,-0.258,-0.436,+0.788,-0.091,-0.587,+0.125,-14.000,+11.125,-14, -8, -4, 0, 0, 0, 0, -10,2.081974606467358,0.8860322631530706
1503602245659,-0.792,-0.343,-0.257,-0.436,+0.772,-0.103,-0.596,+1.562,-10.125,+8.938,5, -4, 1, 1, 1, 1, 0, -6,2.0850940687724755,0.8813950986824478
1503602245674,-0.793,-0.341,-0.257,-0.435,+0.774,-0.097,-0.590,+1.812,-8.312,+9.250,-2, 5, 3, -2, -1, 1, 1, 0,2.0863357687661557,0.8773513316647085
1503602245697,-0.794,-0.339,-0.258,-0.434,+0.780,-0.090,-0.596,+3.125,-8.500,+9.750,-1, 0, 0, 2, 0, -2, 0, -6,2.0872631052735144,0.8746660847435567
1503602245719,-0.795,-0.338,-0.258,-0.434,+0.765,-0.101,-0.592,+3.812,-9.438,+9.188,-4, -5, -2, 4, -1, 0, 1, 0,2.088682566284336,0.873031811734619
1503602245734,-0.796,-0.335,-0.258,-0.433,+0.753,-0.104,-0.590,+4.188,-11.500,+8.500,-11, 3, 7, -3, -1, -1, -3, -12,2.0890664212207706,0.8669269138491105
1503602245756,-0.797,-0.333,-0.258,-0.433,+0.743,-0.105,-0.606,+4.562,-10.312,+8.812,1, -3, 5, 1, 0, -3, -4, -8,2.089599069561696,0.8632325477238217
1503602245781,-0.798,-0.331,-0.258,-0.432,+0.744,-0.102,-0.609,+4.625,-10.812,+9.500,-8, -10, -9, -4, -1, 0, 1, -1,2.0909480962952602,0.859204230042958
1503602245794,-0.799,-0.329,-0.258,-0.432,+0.752,-0.097,-0.604,+6.375,-10.938,+11.438,2, -4, 0, 10, 2, 0, -1, -2,2.091517153056415,0.8555195407363678
1503602245817,-0.801,-0.326,-0.259,-0.431,+0.749,-0.086,-0.600,+9.312,-13.688,+14.500,4, 6, 0, -5, -4, -1, -1, -3,2.094063029957865,0.8512338664578893
1503602245839,-0.802,-0.322,-0.259,-0.430,+0.750,-0.079,-0.621,+11.875,-16.812,+18.062,-7, -10, -9, -2, -2, 1, 1, 0,2.093752368915375,0.8431132855701883
1503602245861,-0.804,-0.317,-0.260,-0.430,+0.749,-0.094,-0.630,+16.125,-21.938,+17.562,-44, -9, 2, -4, -1, 0, -2, -6,2.093901412477364,0.8351110274053611
1503602245877,-0.806,-0.312,-0.262,-0.430,+0.740,-0.124,-0.616,+19.500,-24.938,+17.812,18, 0, -3, 0, -1, 0, -2, 2,2.093846903377306,0.828514387612188
1503602245899,-0.808,-0.307,-0.264,-0.429,+0.730,-0.128,-0.618,+19.625,-23.125,+20.938,-2, -1, 2, -1, 1, 0, 0, 0,2.0947314513212345,0.8215999987620969
1503602245923,-0.809,-0.302,-0.266,-0.428,+0.729,-0.136,-0.635,+19.875,-17.750,+21.562,0, 4, -3, -5, -7, -4, -2, 0,2.093333605487736,0.8142982253309615
1503602245937,-0.810,-0.297,-0.269,-0.427,+0.734,-0.188,-0.650,+21.938,-13.625,+17.812,2, 6, 2, -2, 1, -2, -2, -2,2.091739245588081,0.8084245319962492
1503602245959,-0.811,-0.294,-0.272,-0.426,+0.733,-0.228,-0.645,+20.625,-9.875,+16.688,16, -1, 0, 1, -2, -2, -3, -1,2.0917839957894895,0.8066174843802141
1503602245982,-0.813,-0.290,-0.275,-0.425,+0.742,-0.210,-0.640,+16.438,-13.125,+20.812,-5, -2, 0, 0, 0, 1, 2, -1,2.0935770647728025,0.8032482560079721
1503602245997,-0.814,-0.286,-0.276,-0.423,+0.726,-0.190,-0.646,+13.812,-15.625,+22.188,-1, -4, 2, 3, 1, 0, 1, 1,2.0944374155567127,0.7962771696857897
1503602246019,-0.816,-0.281,-0.277,-0.422,+0.724,-0.194,-0.641,+12.625,-22.625,+21.312,11, 1, -2, -6, -1, -2, -1, 2,2.0962868527136553,0.7881208214055603
1503602246041,-0.818,-0.276,-0.279,-0.421,+0.732,-0.249,-0.625,+13.750,-24.375,+18.125,-2, 3, 6, 5, 1, 0, 2, 5,2.097974069917022,0.7813994034978093
1503602246057,-0.819,-0.272,-0.280,-0.420,+0.729,-0.284,-0.613,+11.938,-21.188,+16.188,-24, -10, -8, -5, -3, -1, -1, -3,2.0982726904962843,0.7748634244084847
1503602246079,-0.821,-0.268,-0.281,-0.419,+0.708,-0.286,-0.629,+7.688,-17.938,+16.500,23, 3, 4, 3, 0, 0, -1, 0,2.10112630059715,0.7687355135881792
1503602246101,-0.823,-0.265,-0.282,-0.417,+0.681,-0.274,-0.656,+3.625,-13.312,+15.375,-1, 6, 2, -1, -1, 0, -1, 1,2.1055691736876976,0.7641720897131107
1503602246117,-0.824,-0.261,-0.282,-0.416,+0.667,-0.301,-0.667,+0.438,-15.312,+13.438,5, 4, 6, 7, 3, 1, 0, -2,2.1063728150941072,0.7562285578219092
1503602246139,-0.826,-0.258,-0.281,-0.414,+0.684,-0.323,-0.653,-3.812,-17.062,+12.750,-4, 0, 2, -2, 0, -3, -2, 1,2.111504599349504,0.7488121013756173
1503602246161,-0.828,-0.256,-0.281,-0.413,+0.688,-0.327,-0.639,-7.188,-18.000,+11.500,0, 1, 0, -2, -2, -1, -1, 6,2.116139871353556,0.745213465169767
1503602246177,-0.830,-0.253,-0.279,-0.411,+0.683,-0.330,-0.640,-8.500,-15.875,+8.938,-7, -3, 0, -5, -1, -1, 0, 2,2.121648797751921,0.7363885849335827
1503602246198,-0.831,-0.252,-0.278,-0.410,+0.660,-0.344,-0.668,-12.188,-11.938,+6.812,-3, 4, 2, 1, -2, -1, 0, 0,2.1247187927055498,0.7329707306921202
1503602246221,-0.833,-0.251,-0.276,-0.408,+0.646,-0.358,-0.678,-16.750,-8.688,+6.188,-12, -6, -9, -8, -3, 0, -1, -2,2.1314625301041588,0.7281257782507718
1503602246237,-0.835,-0.250,-0.274,-0.406,+0.646,-0.352,-0.680,-20.875,-6.125,+5.375,-4, -14, -11, -8, -3, -2, -2, -3,2.1382246745371494,0.7233021306836196
1503602246259,-0.836,-0.251,-0.271,-0.405,+0.675,-0.341,-0.682,-22.938,-4.562,+3.562,-14, -6, 0, 4, 3, 0, -3, -2,2.143021937526846,0.72112749202325
1503602246283,-0.838,-0.252,-0.269,-0.404,+0.679,-0.345,-0.696,-22.625,-3.250,-0.125,-7, -4, 2, -5, -5, -1, 0, -5,2.149981187496961,0.7207459358833884
1503602246297,-0.839,-0.252,-0.266,-0.403,+0.669,-0.350,-0.703,-21.688,-7.438,-0.625,-1, -5, -9, -4, -1, -2, -1, 0,2.154215168952337,0.7166633339534966
1503602246319,-0.841,-0.251,-0.263,-0.402,+0.649,-0.308,-0.713,-22.438,-13.250,-0.062,1, -4, -7, -3, 1, 0, -1, -4,2.1603141766456537,0.7110256623010301
1503602246341,-0.843,-0.250,-0.258,-0.401,+0.617,-0.270,-0.721,-23.125,-15.188,+0.000,-7, -4, -2, 5, 2, -2, -2, 0,2.1669866594117564,0.7027893978992873
1503602246358,-0.844,-0.249,-0.254,-0.401,+0.600,-0.235,-0.724,-22.938,-13.750,-0.938,-10, 0, 3, -4, -4, 0, -1, -1,2.1699922288726943,0.6959603391367014
1503602246382,-0.846,-0.249,-0.250,-0.401,+0.614,-0.228,-0.729,-20.188,-9.375,-2.188,20, 3, 5, -2, -1, 1, 2, 0,2.1759338081045763,0.6915679767417544
1503602246401,-0.846,-0.249,-0.247,-0.401,+0.639,-0.230,-0.748,-17.875,-3.812,-2.562,3, -3, -6, -6, -2, -2, 0, -1,2.176805371189892,0.6877197886264859
1503602246418,-0.847,-0.249,-0.244,-0.400,+0.655,-0.208,-0.751,-14.562,-4.875,+0.812,-11, -2, 2, -2, -1, -1, -1, -3,2.181053160270161,0.683908952137678
1503602246439,-0.849,-0.249,-0.242,-0.400,+0.655,-0.187,-0.749,-10.625,-10.000,+4.562,-12, -3, -4, 1, -2, -1, -3, -3,2.186375558274318,0.6821737625585605
1503602246461,-0.850,-0.247,-0.239,-0.399,+0.637,-0.191,-0.734,-10.375,-14.062,+5.562,-8, -4, -12, -1, 3, 4, 4, 1,2.1895351687776694,0.6744454711490276
1503602246476,-0.851,-0.246,-0.237,-0.398,+0.628,-0.194,-0.710,-13.375,-14.125,+5.062,1, 1, 4, 3, -1, -1, -1, 0,2.192953921779184,0.6699825148600799
1503602246499,-0.853,-0.244,-0.233,-0.398,+0.618,-0.186,-0.705,-16.000,-19.375,+4.875,5, 0, -5, -7, -3, -2, 0, 1,2.1977640044369138,0.6618617457268767
1503602246521,-0.855,-0.242,-0.229,-0.397,+0.622,-0.202,-0.706,-18.750,-25.062,+5.312,7, -5, -1, -6, -6, -4, -3, -6,2.2035947870059425,0.6534242393299862
1503602246536,-0.857,-0.240,-0.225,-0.396,+0.620,-0.217,-0.694,-23.500,-24.125,+6.562,7, 9, -13, 3, 1, -1, 0, 3,2.209431442932245,0.645049177262595
1503602246559,-0.860,-0.239,-0.220,-0.394,+0.621,-0.218,-0.703,-29.312,-22.812,+6.938,-1, 1, 1, 7, 4, 2, 1, 3,2.2194377840595827,0.6375706224934932
1503602246584,-0.862,-0.239,-0.214,-0.392,+0.651,-0.201,-0.750,-34.188,-13.188,+9.250,-7, 0, 7, 1, -2, 0, 1, -1,2.2279368666016244,0.6306359289965182
1503602246596,-0.864,-0.240,-0.210,-0.388,+0.719,-0.191,-0.843,-30.250,-5.625,+17.250,-2, 1, 1, 11, 2, -1, -2, 0,2.2385258744543615,0.6274274927956759
1503602246619,-0.866,-0.241,-0.209,-0.384,+0.751,-0.165,-0.875,-14.938,+0.000,+25.250,16, 0, 4, -4, -5, -2, -3, 1,2.2482489809173485,0.6277021959291769
1503602246641,-0.868,-0.239,-0.209,-0.382,+0.700,-0.209,-0.837,-2.500,-17.750,+20.312,0, -1, 4, 0, 1, 1, -1, 0,2.253987405445429,0.6238043239975988
1503602246657,-0.870,-0.235,-0.209,-0.381,+0.668,-0.264,-0.720,+1.375,-26.500,+8.812,-1, -2, 2, -7, -3, -3, -1, -4,2.257685143942105,0.6162483748979383
1503602246679,-0.871,-0.233,-0.208,-0.380,+0.598,-0.261,-0.708,-4.500,-12.875,+4.562,-11, -7, -11, 1, 1, 0, 0, -1,2.260421813757026,0.6111762547802589
1503602246701,-0.872,-0.233,-0.207,-0.379,+0.527,-0.196,-0.767,-12.875,+0.750,+5.812,-11, -9, -8, -5, -1, -3, -4, -4,2.2640896055978246,0.6101019668621888
1503602246719,-0.872,-0.234,-0.205,-0.377,+0.540,-0.151,-0.785,-12.875,+4.125,+7.188,-10, 0, 8, 6, 8, 1, -2, -3,2.267429811964272,0.6091925209860216
1503602246739,-0.873,-0.234,-0.204,-0.376,+0.584,-0.169,-0.783,-6.312,-1.062,+6.125,-7, -2, 0, -3, -5, 0, -1, -3,2.2711043806876416,0.6081380093154153
1503602246755,-0.874,-0.232,-0.203,-0.375,+0.609,-0.202,-0.791,-1.938,-11.375,+6.625,-5, -9, -2, -3, 2, -3, 2, 1,2.2738651899136553,0.6030887247832784
1503602246776,-0.875,-0.230,-0.202,-0.375,+0.567,-0.217,-0.782,-1.688,-17.438,+6.688,0, 1, 5, 5, 0, -2, -1, 1,2.2754883513843485,0.5983852890491195
1503602246799,-0.876,-0.228,-0.202,-0.374,+0.551,-0.210,-0.788,-2.688,-11.688,+3.375,0, -1, 0, -5, -4, -4, 0, -1,2.277975089827456,0.5944374979235962
1503602246814,-0.877,-0.227,-0.201,-0.374,+0.565,-0.194,-0.800,-3.688,-3.625,+3.312,19, 1, -2, 2, 2, 1, -1, 2,2.2800517675503884,0.5917364048112097
1503602246837,-0.877,-0.227,-0.200,-0.373,+0.571,-0.178,-0.799,-3.562,+1.000,+2.938,-4, 0, 0, -7, -7, -1, -2, -4,2.281514574522922,0.5903125424604933
1503602246860,-0.877,-0.227,-0.200,-0.373,+0.575,-0.176,-0.788,-2.500,-0.625,+2.562,4, -3, -1, 6, -1, -2, 0, 2,2.281514574522922,0.5903125424604933
1503602246881,-0.878,-0.227,-0.200,-0.372,+0.581,-0.186,-0.779,-1.250,-2.125,+2.688,-9, 6, -1, -8, -6, -1, -2, -2,2.2848856950222634,0.5903581616405947
1503602246897,-0.878,-0.227,-0.200,-0.372,+0.578,-0.199,-0.790,-1.312,-2.312,+1.938,-7, -4, -7, -2, -1, 0, 0, 0,2.2848856950222634,0.5903581616405947
1503602246919,-0.878,-0.227,-0.199,-0.372,+0.575,-0.203,-0.803,-2.125,-0.125,+1.438,-4, -3, 0, 0, 3, 1, -2, -3,2.2851877971672887,0.5892782065681424
1503602246941,-0.878,-0.227,-0.199,-0.371,+0.569,-0.199,-0.791,-3.625,+2.500,+1.500,-4, -1, -2, -4, -3, -1, -1, -4,2.286358264732803,0.5889417531293153
1503602246957,-0.878,-0.228,-0.199,-0.370,+0.575,-0.194,-0.784,-3.750,+3.250,+1.625,14, 2, -9, -5, 1, 0, 0, 3,2.287964107910841,0.5906040248542583
1503602246979,-0.878,-0.229,-0.199,-0.370,+0.577,-0.191,-0.782,-3.250,+4.000,+1.688,-9, -2, 2, 6, 2, 0, -1, -1,2.288398597918981,0.592604270311796
1503602247001,-0.878,-0.229,-0.199,-0.369,+0.578,-0.191,-0.792,-3.062,+3.188,+1.312,-6, -3, 2, 0, -6, -1, 1, 0,2.289574407713976,0.5922685659595397
1503602247020,-0.878,-0.230,-0.199,-0.369,+0.573,-0.188,-0.790,-2.562,+4.438,-0.250,3, 0, 1, 1, 2, 0, 0, -1,2.2900106691026645,0.5942707120389733
1503602247039,-0.878,-0.231,-0.198,-0.369,+0.584,-0.183,-0.778,-2.312,+3.688,-0.188,-1, -3, -4, -1, 1, -1, -2, -5,2.2907588038495437,0.5952006371337976
1503602247063,-0.878,-0.232,-0.199,-0.368,+0.596,-0.187,-0.762,-2.375,+3.062,+0.750,5, 0, 0, -1, 0, 1, -1, 1,2.292067430764836,0.5979448723040919
1503602247076,-0.878,-0.232,-0.198,-0.368,+0.593,-0.183,-0.768,-2.188,+1.875,+1.375,-17, 5, 2, -4, -2, -4, -9, -9,2.292379092713905,0.5968725404130788
1503602247098,-0.878,-0.232,-0.198,-0.368,+0.594,-0.186,-0.766,-1.500,-1.438,+1.938,-6, -7, -4, -1, -4, 1, 2, -1,2.292379092713905,0.5968725404130788
1503602247123,-0.879,-0.232,-0.198,-0.367,+0.593,-0.192,-0.776,-0.312,-2.875,+1.812,-4, -4, -4, -2, -5, -2, 0, 0,2.2957439685509353,0.5969296897119376
1503602247135,-0.879,-0.231,-0.198,-0.367,+0.578,-0.189,-0.788,-0.125,-3.250,+1.062,1, -7, -3, 6, 1, -1, -2, -3,2.295306303553096,0.5949229180513562
1503602247159,-0.879,-0.231,-0.198,-0.367,+0.574,-0.195,-0.780,-0.188,-3.125,+0.812,-10, -14, -6, -3, -3, -1, -1, 4,2.295306303553096,0.5949229180513562
1503602247180,-0.879,-0.231,-0.198,-0.367,+0.568,-0.196,-0.786,-1.000,-0.688,+0.688,-2, -1, 2, -2, 0, -1, 5, 2,2.295306303553096,0.5949229180513562
1503602247196,-0.879,-0.231,-0.198,-0.367,+0.574,-0.192,-0.784,-1.562,-0.312,+0.812,22, 9, 0, -3, -1, 0, -1, 0,2.295306303553096,0.5949229180513562
1503602247220,-0.879,-0.231,-0.198,-0.367,+0.582,-0.193,-0.773,-1.625,-0.688,+1.188,-19, -4, 6, 2, 2, 0, -1, -1,2.295306303553096,0.5949229180513562
1503602247241,-0.880,-0.231,-0.198,-0.366,+0.586,-0.187,-0.770,-1.438,-1.312,+1.312,-15, -10, -8, -8, -7, -3, -1, -2,2.2986700299504608,0.5949784702213753
1503602247256,-0.880,-0.230,-0.198,-0.366,+0.581,-0.193,-0.784,-0.625,-3.312,+1.438,24, 3, -9, -8, -2, -1, 0, 2,2.298238400053664,0.5929714815360574
1503602247278,-0.880,-0.230,-0.198,-0.366,+0.578,-0.197,-0.784,-0.312,-2.562,+0.625,1, -6, -11, -7, 1, 0, -1, 1,2.298238400053664,0.5929714815360574
1503602247301,-0.880,-0.230,-0.197,-0.366,+0.578,-0.194,-0.786,-1.125,-1.750,+0.750,-1, 1, 2, 2, 0, -3, -2, -2,2.298549232412603,0.5919058983284038
1503602247315,-0.880,-0.230,-0.197,-0.366,+0.578,-0.191,-0.782,-1.500,-0.938,+1.062,-27, 3, 6, 1, 0, 2, 2, 5,2.298549232412603,0.5919058983284038
1503602247338,-0.880,-0.230,-0.197,-0.365,+0.577,-0.190,-0.789,-1.500,+0.500,+0.875,9, -5, -9, -2, -3, -2, -1, -2,2.299740509451158,0.5915735275888828
1503602247362,-0.880,-0.230,-0.197,-0.365,+0.582,-0.191,-0.789,-1.500,+0.562,+0.625,-8, -10, -9, -2, -2, -1, -3, -3,2.299740509451158,0.5915735275888828
1503602247382,-0.880,-0.230,-0.197,-0.365,+0.579,-0.188,-0.779,-1.625,+0.125,+0.812,4, -1, -1, -2, -3, -2, -3, -3,2.299740509451158,0.5915735275888828
1503602247398,-0.881,-0.230,-0.197,-0.365,+0.583,-0.190,-0.781,-1.312,-0.688,+1.250,3, 1, 1, 0, -1, 0, 0, 4,2.301912411816006,0.591961560125473
1503602247422,-0.881,-0.230,-0.197,-0.364,+0.581,-0.194,-0.776,-1.000,-1.250,+1.562,-1, -1, -2, -2, -1, 0, -1, -2,2.30310761445172,0.5916292142594413
1503602247435,-0.881,-0.230,-0.197,-0.364,+0.571,-0.191,-0.779,-1.188,-2.125,+1.000,-1, -4, -4, 1, -2, -2, -2, 0,2.30310761445172,0.5916292142594413
1503602247458,-0.881,-0.229,-0.197,-0.364,+0.579,-0.187,-0.784,-0.625,-2.688,+1.062,4, -1, -2, -2, -4, -2, 0, 0,2.3026813246743165,0.5896217417046249
1503602247481,-0.881,-0.229,-0.196,-0.364,+0.578,-0.185,-0.776,-0.250,-3.375,+1.562,0, 6, 2, -2, -1, -1, -3, -7,2.302992656641572,0.5885624769678112
1503602247497,-0.882,-0.228,-0.196,-0.363,+0.581,-0.184,-0.776,+0.250,-4.938,+2.562,6, -5, -2, -1, 0, 0, 1, 1,2.305937606002516,0.5866108395439265
1503602247518,-0.882,-0.227,-0.196,-0.363,+0.577,-0.194,-0.775,+0.625,-5.438,+3.250,5, 7, -2, -3, -1, 0, 3, 8,2.3055183612485775,0.5846047727656561
1503602247541,-0.882,-0.226,-0.196,-0.363,+0.576,-0.203,-0.790,+0.188,-6.312,+2.938,-6, -4, -3, -1, 0, 0, 2, -2,2.3051013708907027,0.5826000685550441
1503602247557,-0.883,-0.225,-0.196,-0.363,+0.562,-0.201,-0.800,-0.250,-6.250,+2.188,11, 4, 2, 0, -3, 0, -1, 0,2.3068564124446906,0.5809793969007554
1503602247578,-0.883,-0.224,-0.196,-0.362,+0.558,-0.202,-0.798,-0.812,-5.812,+1.938,-5, -2, -1, -2, -4, -2, -1, -2,2.3076542363245003,0.5786424390996864
1503602247601,-0.884,-0.223,-0.195,-0.362,+0.561,-0.201,-0.800,-0.562,-4.562,+1.938,-15, -4, -1, -2, -3, -2, 0, 0,2.309720100184892,0.5759694316302097
1503602247615,-0.884,-0.223,-0.195,-0.362,+0.567,-0.204,-0.795,-0.562,-3.188,+1.875,4, -1, -1, -1, 0, 0, -1, -2,2.309720100184892,0.5759694316302097
1503602247638,-0.884,-0.223,-0.195,-0.362,+0.567,-0.197,-0.791,-0.375,-2.375,+1.562,-4, -4, -1, 1, 0, 0, 0, -2,2.309720100184892,0.5759694316302097
1503602247661,-0.884,-0.222,-0.195,-0.361,+0.567,-0.196,-0.790,+0.312,-2.438,+1.062,-12, -15, -1, 0, 1, 0, 0, -2,2.31053078245962,0.5736343990079241
1503602247675,-0.884,-0.222,-0.195,-0.361,+0.570,-0.199,-0.791,+0.312,-3.062,+0.625,-4, -4, -4, 0, 1, -1, -1, 0,2.31053078245962,0.5736343990079241
1503602247699,-0.884,-0.221,-0.195,-0.361,+0.570,-0.199,-0.790,+0.375,-3.625,+0.312,-11, -4, -1, 1, 2, 1, -1, 0,2.3101314109828572,0.5716334786908907
1503602247723,-0.885,-0.221,-0.195,-0.362,+0.563,-0.198,-0.793,+0.312,-4.000,+0.250,11, 5, -1, -3, -2, 1, -1, -1,2.311081194122957,0.5723453710977786
1503602247736,-0.885,-0.220,-0.195,-0.362,+0.553,-0.196,-0.787,+0.375,-4.312,+0.000,-6, 6, -1, -2, -4, -2, -3, -3,2.3106866770754793,0.5703451424979714
1503602247758,-0.885,-0.219,-0.195,-0.362,+0.561,-0.191,-0.797,+1.375,-4.500,+0.438,11, 5, 0, 1, -1, 1, -1, 0,2.310294458165982,0.5683462368459447
1503602247783,-0.885,-0.219,-0.195,-0.362,+0.565,-0.190,-0.802,+2.062,-6.125,+0.438,-5, -5, -1, -2, 0, -2, -2, -4,2.310294458165982,0.5683462368459447
1503602247797,-0.885,-0.217,-0.195,-0.362,+0.564,-0.196,-0.801,+2.438,-6.188,+1.375,6, -2, 0, -2, -3, -1, -3, 1,2.3095169528695276,0.5643523794465799
1503602247818,-0.886,-0.217,-0.196,-0.362,+0.562,-0.212,-0.804,+2.062,-4.625,+2.938,10, 0, 0, 0, 1, 0, 2, 3,2.311385150793667,0.5657746638600418
1503602247841,-0.886,-0.216,-0.196,-0.361,+0.554,-0.229,-0.799,+1.500,-2.688,+2.188,-4, -2, 0, -1, -1, 0, 0, 0,2.312220976140897,0.5634406583659547
1503602247859,-0.886,-0.216,-0.196,-0.361,+0.574,-0.213,-0.796,+1.188,-0.562,+1.000,-27, -9, -1, 0, 1, 0, -1, -5,2.312220976140897,0.5634406583659547
1503602247878,-0.886,-0.216,-0.196,-0.361,+0.568,-0.196,-0.793,+1.125,-1.688,+1.875,5, 1, 1, -1, -2, -2, -1, 0,2.312220976140897,0.5634406583659547
1503602247901,-0.886,-0.215,-0.196,-0.361,+0.550,-0.200,-0.798,+0.188,-5.000,+3.938,11, 8, -1, -1, 2, 0, -1, -1,2.3118429110428527,0.5614449999800231
1503602247915,-0.887,-0.214,-0.196,-0.360,+0.536,-0.204,-0.801,-1.000,-4.688,+5.688,-22, -10, -2, 0, -1, 0, 0, -4,2.314854837928527,0.5594817327487065
1503602247938,-0.887,-0.213,-0.196,-0.359,+0.522,-0.209,-0.806,-2.062,-2.062,+5.625,3, -3, 1, 0, -2, -3, -2, 0,2.3157107274942925,0.5571477995116403
1503602247963,-0.888,-0.213,-0.196,-0.358,+0.522,-0.212,-0.803,-3.125,+0.812,+4.375,-6, -2, -3, 0, -2, -1, 0, 1,2.3191003555235357,0.5571772233895528
1503602247975,-0.888,-0.214,-0.196,-0.357,+0.535,-0.217,-0.801,-2.938,+2.938,+2.625,7, -1, -3, -3, -1, 0, -1, 0,2.3206980834806044,0.5588353558758986
1503602247999,-0.888,-0.214,-0.196,-0.357,+0.548,-0.216,-0.793,-2.562,+2.938,+1.750,3, 1, 0, 0, -1, 0, -2, -2,2.3206980834806044,0.5588353558758986
1503602248021,-0.888,-0.215,-0.196,-0.356,+0.546,-0.212,-0.785,-2.750,+2.125,+0.812,-5, -1, 1, -1, 0, -1, 0, 1,2.3223001951138746,0.5604956235976984
1503602248035,-0.888,-0.215,-0.195,-0.356,+0.545,-0.208,-0.793,-2.312,+1.562,+0.188,4, 3, -2, -1, 0, -1, 1, 0,2.3225996565981957,0.5594571926964782
1503602248058,-0.888,-0.215,-0.195,-0.356,+0.546,-0.207,-0.800,-1.812,+0.750,+0.125,11, 4, 2, 0, 0, 0, -1, 1,2.3225996565981957,0.5594571926964782
1503602248081,-0.888,-0.215,-0.195,-0.356,+0.547,-0.212,-0.808,-1.688,+0.375,+0.188,4, 2, -2, -1, 0, -3, -2, 0,2.3225996565981957,0.5594571926964782
1503602248096,-0.888,-0.215,-0.195,-0.356,+0.555,-0.213,-0.811,-1.250,+0.438,+0.188,-8, -7, -6, -2, -1, 1, 0, -1,2.3225996565981957,0.5594571926964782
1503602248118,-0.888,-0.216,-0.195,-0.355,+0.565,-0.225,-0.789,-1.312,+0.938,-0.500,-3, 0, -2, -1, -2, 1, -1, 2,2.324208175640296,0.5611208557205656
1503602248140,-0.888,-0.216,-0.195,-0.355,+0.566,-0.212,-0.788,-1.000,+1.562,-0.250,1, -3, -1, 0, 1, -2, -1, -1,2.324208175640296,0.5611208557205656
1503602248155,-0.888,-0.217,-0.196,-0.355,+0.572,-0.199,-0.804,-0.062,+2.562,-0.625,-1, -1, -2, -1, 0, -2, -1, -1,2.3242773828595147,0.5641603363049582
1503602248178,-0.888,-0.218,-0.196,-0.356,+0.584,-0.195,-0.807,+1.312,+3.000,-2.000,-2, -1, 0, 0, -1, 0, 0, 0,2.323414161503439,0.5665010276359667
1503602248201,-0.887,-0.218,-0.197,-0.357,+0.606,-0.206,-0.797,+5.688,+0.188,-6.625,-3, -2, -1, -2, -1, -3, -2, -1,2.31973267321932,0.5675071790381888
1503602248216,-0.885,-0.219,-0.199,-0.359,+0.627,-0.234,-0.790,+11.562,+3.312,-12.750,1, 0, -3, -2, -2, 0, 0, -2,2.3127405867535358,0.5715386699155984
1503602248238,-0.883,-0.220,-0.202,-0.361,+0.611,-0.237,-0.792,+15.562,+10.750,-13.062,0, 1, 2, 0, 0, 1, -3, -2,2.3054433642082355,0.5766568459969585
1503602248261,-0.882,-0.222,-0.205,-0.362,+0.595,-0.189,-0.814,+16.938,+16.188,-3.688,1, -2, -2, -1, 0, 0, 1, 0,2.3019329354577143,0.58384657977553
1503602248283,-0.881,-0.224,-0.208,-0.361,+0.589,-0.152,-0.831,+18.188,+17.062,+6.375,1, 1, -2, 0, -3, -1, -1, -1,2.3008276002163175,0.5903692162268808
1503602248298,-0.880,-0.225,-0.213,-0.360,+0.600,-0.154,-0.836,+22.562,+21.188,+10.812,3, 1, 0, -2, -1, 0, 0, 1,2.2987008369741164,0.597102045930492
1503602248321,-0.879,-0.227,-0.218,-0.358,+0.592,-0.174,-0.853,+30.562,+26.062,+14.500,-3, -1, 0, 0, -1, 0, -1, 0,2.2981516789833685,0.6055418103543914
1503602248343,-0.878,-0.227,-0.226,-0.356,+0.622,-0.211,-0.841,+37.625,+22.250,+21.000,-19, -13, -3, -2, 0, 0, 0, -2,2.2958597845334814,0.6133986217078254
1503602248360,-0.878,-0.226,-0.234,-0.353,+0.651,-0.220,-0.809,+42.938,+15.438,+28.062,3, 3, -1, 1, -1, -1, -1, 0,2.296599091447595,0.6193777965232089
1503602248381,-0.877,-0.224,-0.242,-0.349,+0.646,-0.234,-0.792,+50.062,+8.062,+33.750,3, 2, -1, -2, -2, 0, -1, 0,2.2959718675158283,0.622673123941885
1503602248396,-0.877,-0.219,-0.252,-0.346,+0.628,-0.253,-0.785,+56.938,+1.750,+36.938,3, 1, -2, 0, -2, -1, 0, -1,2.2947965900734726,0.6231916400679574
1503602248418,-0.876,-0.214,-0.262,-0.343,+0.609,-0.266,-0.781,+63.062,+0.750,+38.625,2, 0, -1, -1, 0, -2, -1, -1,2.2915341475258773,0.6235562340639687
1503602248441,-0.876,-0.209,-0.273,-0.339,+0.588,-0.279,-0.771,+69.312,+1.250,+40.625,2, 1, -1, -3, 0, -2, 0, -1,2.2916841859975703,0.6253021686348296
1503602248456,-0.874,-0.203,-0.285,-0.336,+0.590,-0.310,-0.762,+75.375,+0.875,+42.000,-5, -2, -2, -4, 1, 0, 0, -2,2.285593603677131,0.6263468862167391
1503602248478,-0.873,-0.196,-0.298,-0.333,+0.576,-0.359,-0.735,+80.688,-3.875,+44.750,2, 2, 0, 0, -1, -1, 0, 1,2.2815683006054064,0.6274426911597976
1503602248503,-0.872,-0.187,-0.311,-0.329,+0.555,-0.420,-0.712,+84.188,-10.500,+44.688,1, -3, 1, 0, -1, 0, 0, -1,2.278754170416812,0.6243802304485313
1503602248516,-0.870,-0.178,-0.325,-0.326,+0.550,-0.466,-0.682,+86.625,-11.312,+45.000,0, -2, -3, -3, -2, -3, -1, 0,2.2724519607398213,0.6234280751170265
1503602248538,-0.868,-0.170,-0.339,-0.322,+0.516,-0.505,-0.676,+88.000,-6.812,+46.250,1, 3, 3, -3, -1, -2, 0, -1,2.267955416484078,0.624520487429158
1503602248562,-0.865,-0.161,-0.353,-0.318,+0.503,-0.535,-0.652,+89.625,-7.688,+46.938,2, 2, -1, -1, -1, -1, -1, -2,2.2611805687572217,0.6238357050624838
1503602248576,-0.862,-0.152,-0.368,-0.313,+0.497,-0.577,-0.657,+90.375,-5.000,+45.938,-1, -4, 0, -2, 2, 0, 0, 0,2.2558484096765876,0.6246942153441798
1503602248598,-0.859,-0.144,-0.382,-0.309,+0.473,-0.610,-0.619,+87.812,+0.562,+41.688,2, 0, -2, 1, -2, 1, -2, 0,2.2498339615737297,0.6274310793184552
1503602248620,-0.855,-0.137,-0.396,-0.305,+0.472,-0.622,-0.585,+86.125,+0.125,+41.812,-3, -5, -6, -4, -2, 0, 0, -1,2.241210701442965,0.6327702159723146
1503602248637,-0.852,-0.129,-0.409,-0.301,+0.471,-0.629,-0.563,+87.938,-3.250,+43.062,-1, -1, 2, -2, -1, 0, -1, -3,2.235949068888907,0.6352674634180168
1503602248658,-0.847,-0.120,-0.423,-0.297,+0.469,-0.690,-0.538,+90.000,-10.625,+40.750,1, -1, 0, 0, -1, -1, -1, 0,2.224943837580447,0.6377746756166284
1503602248680,-0.843,-0.111,-0.436,-0.294,+0.430,-0.729,-0.517,+85.750,-11.125,+37.125,-9, -3, -1, -1, 0, -1, -1, -2,2.2160052201601124,0.6404180237405197
1503602253263,-0.819,-0.469,-0.166,-0.285,+0.903,-0.009,-0.471,-1.562,+6.938,+0.000,-5, 7, -4, -5, -6, -5, -5, -2,2.4688972359580013,1.0413036209821678
1503602253278,-0.818,-0.470,-0.167,-0.285,+0.897,-0.005,-0.473,-0.625,+8.438,+0.125,-24, -1, 8, 2, 1, 0, 0, -2,2.4674761247243686,1.0441409765925642
1503602253300,-0.818,-0.471,-0.167,-0.284,+0.883,-0.011,-0.463,+0.062,+6.188,+0.625,7, -2, 2, -1, -2, -3, 0, 0,2.4696700354707506,1.04642299340868
1503602253324,-0.818,-0.472,-0.167,-0.284,+0.883,-0.012,-0.453,-0.062,+4.375,-0.562,-19, -12, 1, 0, 2, 0, -1, -4,2.4705819333467995,1.048874161488748
1503602253338,-0.817,-0.473,-0.167,-0.284,+0.881,-0.007,-0.445,-1.188,+5.375,+0.562,-8, -11, 2, 2, 2, 2, 2, -2,2.469906855874611,1.0508567846217085
1503602253361,-0.817,-0.474,-0.167,-0.283,+0.900,-0.000,-0.448,-1.812,+6.562,+1.875,-18, 2, -3, -2, -3, -2, -2, -1,2.472102574873787,1.0531462278019235
1503602253386,-0.817,-0.475,-0.168,-0.283,+0.903,-0.003,-0.457,-1.312,+5.875,+2.938,4, -6, 0, -1, -1, -1, -3, -4,2.4722731824572333,1.0564640829679375
1503602253405,-0.817,-0.475,-0.168,-0.282,+0.885,-0.013,-0.451,-0.812,+3.688,+2.062,1, 10, 9, 1, -6, -1, -2, -1,2.4735526969748616,1.0562988552424664
1503602253428,-0.816,-0.476,-0.168,-0.281,+0.871,-0.014,-0.446,-1.375,+3.750,+1.375,-6, -18, -6, -1, -1, -2, -1, -4,2.474168373415353,1.0581252863650554
1503602253452,-0.816,-0.476,-0.168,-0.281,+0.870,-0.004,-0.451,-2.562,+7.062,+2.375,-25, -11, -8, -3, 5, 1, -2, -5,2.474168373415353,1.0581252863650554
1503602253465,-0.816,-0.478,-0.169,-0.280,+0.873,-0.005,-0.435,-2.062,+8.500,+3.562,7, -5, -4, 2, 4, 1, 1, 2,2.47652808074815,1.0637453851790795
1503602253480,-0.815,-0.479,-0.169,-0.279,+0.912,-0.031,-0.440,-1.938,+7.875,+3.750,5, 5, 1, -3, -6, 0, -1, 3,2.4771534576314793,1.0655817266242265
1503602253503,-0.815,-0.480,-0.169,-0.277,+0.919,-0.028,-0.446,-3.875,+5.438,+4.500,0, 4, -4, -2, -3, -3, -1, 2,2.4806372078846333,1.0677220370185792
1503602253525,-0.816,-0.479,-0.169,-0.276,+0.896,-0.019,-0.429,-4.875,-2.625,+4.875,-12, -8, -2, -2, -4, -2, -2, -4,2.482580059185796,1.0655546216049032
1503602253540,-0.817,-0.479,-0.169,-0.275,+0.890,-0.005,-0.426,-4.312,-7.375,+5.125,22, 3, 1, 1, 1, -2, -1, 3,2.485429909988255,1.0658545648498525
1503602253563,-0.818,-0.478,-0.168,-0.274,+0.881,-0.008,-0.431,-3.188,-6.625,+4.875,5, 5, -1, 0, 2, 1, 0, -2,2.4881387632960554,1.0628340970707983
1503602253585,-0.818,-0.477,-0.168,-0.273,+0.891,-0.018,-0.423,-3.250,-6.875,+5.750,-6, -2, 1, 2, 8, 2, -1, -2,2.488543832193559,1.0602050071775335
1503602253600,-0.819,-0.476,-0.168,-0.273,+0.898,-0.031,-0.446,-2.625,-8.062,+3.500,5, 4, -1, -1, -7, -3, 0, -2,2.489208224669293,1.0582076973316008
1503602253623,-0.820,-0.474,-0.167,-0.273,+0.897,-0.024,-0.451,-1.625,-12.375,+1.000,22, 6, 5, 5, 19, 18, 4, 2,2.4897453181027203,1.0529006967417356
1503602253645,-0.822,-0.472,-0.166,-0.273,+0.891,-0.022,-0.462,-0.625,-13.625,+0.688,0, 0, 1, -5, -9, -10, -2, 0,2.491845787440199,1.048075604917228
1503602253660,-0.823,-0.471,-0.166,-0.273,+0.881,-0.024,-0.459,-1.750,-11.125,+1.938,-7, -1, 0, -3, -11, -8, -6, -2,2.4925233513536798,1.0460919716283834
1503602253683,-0.824,-0.470,-0.165,-0.272,+0.876,-0.025,-0.456,-4.312,-9.000,+4.812,10, -1, -4, -3, 0, 0, 3, 1,2.4952630865703176,1.0430989085756883
1503602253705,-0.825,-0.468,-0.164,-0.271,+0.862,-0.009,-0.456,-4.875,-9.688,+5.312,19, 14, 2, 4, 24, 6, -3, -3,2.497146985257897,1.0376605026407684
1503602253721,-0.826,-0.467,-0.164,-0.271,+0.851,-0.002,-0.464,-2.500,-10.125,+3.625,25, 26, 6, -6, -25, -12, -7, -3,2.4978354277602164,1.0356864929302103
1503602253743,-0.827,-0.465,-0.163,-0.270,+0.859,-0.010,-0.471,-1.188,-9.938,+3.562,35, 11, 6, 4, 28, 20, 7, 7,2.499741748613423,1.0302618817480638
1503602253765,-0.828,-0.464,-0.163,-0.270,+0.871,-0.021,-0.469,-0.562,-9.625,+4.438,-13, 2, 3, -1, -9, -7, -3, -3,2.500439311220173,1.0282951361874448
1503602253780,-0.829,-0.463,-0.163,-0.269,+0.872,-0.024,-0.463,-0.500,-8.750,+4.812,1, -12, -2, 8, 22, 11, -1, 6,2.502468278046409,1.0261622179752152
1503602253803,-0.830,-0.461,-0.163,-0.268,+0.872,-0.037,-0.469,-1.000,-8.625,+4.688,-1, -6, -1, 2, 15, 11, 5, -1,2.5036673819825723,1.0215900369172293
1503602253828,-0.831,-0.460,-0.163,-0.268,+0.866,-0.029,-0.481,-0.875,-9.500,+4.312,1, 7, -5, -3, -1, -4, -2, -5,2.504379565888107,1.0196325705499654
1503602253840,-0.832,-0.459,-0.162,-0.268,+0.869,-0.026,-0.488,-0.500,-8.562,+3.438,1, 7, 0, -4, -12, -6, -4, -12,2.505831775946504,1.016843204538494
1503602253864,-0.833,-0.458,-0.162,-0.267,+0.869,-0.033,-0.482,-1.000,-6.875,+4.125,-10, -12, -6, -4, 0, 3, 15, 17,2.5078862630110437,1.014720053491257
1503602253888,-0.833,-0.457,-0.162,-0.266,+0.879,-0.040,-0.479,-1.562,-7.812,+4.688,12, -9, -5, -3, -9, -3, 0, 12,2.508406706106219,1.0121140796797687
1503602253901,-0.834,-0.455,-0.162,-0.266,+0.877,-0.042,-0.483,-1.875,-8.562,+4.250,-5, 2, 3, 0, -4, -4, -8, -8,2.508314313670956,1.0077343074909684
1503602253924,-0.835,-0.454,-0.162,-0.265,+0.855,-0.033,-0.502,-2.375,-8.750,+3.312,11, 4, 2, 1, 1, -1, 2, -1,2.510393988396298,1.0056172100910306
1503602253945,-0.836,-0.453,-0.161,-0.265,+0.850,-0.019,-0.500,-2.312,-7.500,+3.188,14, 5, -3, 0, 0, -1, -5, -4,2.5118607613494346,1.0028458785907424
1503602253961,-0.837,-0.452,-0.161,-0.264,+0.850,-0.027,-0.495,-1.250,-5.062,+3.375,-4, 9, 2, -1, -5, -4, -9, -7,2.513949298754727,1.0007331914386863
1503602253983,-0.837,-0.452,-0.161,-0.264,+0.866,-0.035,-0.490,-1.625,-3.438,+3.562,-13, -2, 0, -2, -2, -2, 1, 4,2.513949298754727,1.0007331914386863
1503602254005,-0.837,-0.452,-0.161,-0.263,+0.863,-0.033,-0.497,-2.062,-1.438,+3.875,3, -5, -6, -1, 1, 0, -4, -12,2.5153050325016353,1.000559322115337
1503602254022,-0.838,-0.451,-0.160,-0.263,+0.861,-0.032,-0.493,-1.312,-4.812,+2.062,-8, 1, 8, 1, 1, 0, 4, 3,2.516775161697972,0.9977971588393634
1503602254043,-0.839,-0.450,-0.160,-0.262,+0.862,-0.033,-0.503,-0.062,-6.625,+1.188,-14, 1, 0, -1, -3, -3, 0, 2,2.5188754893687597,0.9956882871156799
1503602254065,-0.839,-0.449,-0.160,-0.262,+0.860,-0.051,-0.497,+0.625,-6.500,+1.750,4, 6, 4, 1, -2, -2, -5, -7,2.518085980521407,0.9932652218364727
1503602254081,-0.840,-0.448,-0.160,-0.262,+0.855,-0.051,-0.505,-1.312,-6.250,+3.188,-10, -8, -2, -1, -2, -2, 2, 8,2.518833254050158,0.9913346051310111
1503602254103,-0.840,-0.447,-0.160,-0.261,+0.849,-0.042,-0.511,-2.375,-3.688,+2.875,2, 0, -3, -2, -1, -2, -2, 0,2.5194150130092967,0.9887390072485654
1503602254129,-0.841,-0.447,-0.160,-0.261,+0.851,-0.039,-0.512,-2.500,-2.375,+2.375,-54, -15, -2, -2, -5, -1, -7, -11,2.5209489505617664,0.9892306131539694
1503602254141,-0.841,-0.447,-0.159,-0.260,+0.871,-0.036,-0.495,-1.750,-5.250,+3.062,23, 4, -1, -2, -1, 0, 1, -1,2.523045934151938,0.9882354355869559
1503602254164,-0.842,-0.446,-0.159,-0.260,+0.869,-0.046,-0.513,-1.500,-7.438,+3.000,14, 6, 4, 2, 2, 0, -3, -1,2.5237969708240877,0.9863088140122371
1503602254185,-0.843,-0.444,-0.159,-0.259,+0.861,-0.048,-0.514,-2.812,-9.062,+2.875,-5, -7, -4, -4, 0, -1, 0, 3,2.525156452187551,0.9817929381619427
1503602254201,-0.844,-0.443,-0.158,-0.259,+0.856,-0.035,-0.509,-3.188,-9.625,+3.688,-10, -8, -6, -2, 0, -1, 0, -4,2.5266405295390086,0.979057369814107
1503602254223,-0.845,-0.442,-0.157,-0.258,+0.855,-0.030,-0.509,-3.000,-11.375,+4.000,27, 9, 2, 0, 4, -1, 1, 2,2.529504524283051,0.9761516164853468
1503602254245,-0.846,-0.440,-0.157,-0.258,+0.842,-0.035,-0.512,-2.750,-10.812,+3.250,-8, -2, 0, -2, -6, 1, 0, -3,2.5295123006473568,0.9718264317959953
1503602254261,-0.847,-0.439,-0.156,-0.257,+0.841,-0.043,-0.522,-2.000,-9.500,+2.625,3, 0, -2, -2, -1, 0, 2, 0,2.532386892746044,0.968930183060251
1503602254283,-0.848,-0.438,-0.156,-0.257,+0.842,-0.042,-0.526,-2.812,-8.188,+3.188,24, 10, 2, -2, -4, -4, -6, -1,2.53315610922629,0.9670208724155261
1503602254305,-0.849,-0.436,-0.155,-0.256,+0.849,-0.051,-0.528,-2.562,-9.312,+3.250,-17, -6, -1, 3, 4, 0, 0, -2,2.5352967863217133,0.9617291600860801
1503602254324,-0.849,-0.435,-0.155,-0.256,+0.847,-0.055,-0.526,-2.625,-10.188,+2.875,-36, -17, -3, -3, -1, -1, -4, -7,2.534557732121503,0.9593265785108307
1503602254345,-0.850,-0.434,-0.154,-0.255,+0.825,-0.051,-0.539,-4.125,-8.250,+2.062,16, 5, 0, -1, -3, -2, 2, 3,2.537452453194842,0.9564474014003451
1503602254365,-0.851,-0.433,-0.153,-0.255,+0.826,-0.052,-0.547,-4.312,-5.188,+1.000,5, 0, 1, 3, 5, 1, -1, 1,2.538947267746889,0.9537520445453573
1503602254381,-0.852,-0.432,-0.153,-0.254,+0.822,-0.043,-0.542,-3.938,-4.375,+1.125,-6, -5, 1, -1, 2, 2, 0, -1,2.541133077836243,0.9516777480782616
1503602254403,-0.852,-0.432,-0.152,-0.254,+0.830,-0.050,-0.543,-2.250,-1.438,-0.625,7, 7, -1, -1, -3, -3, -4, -7,2.541846308907396,0.9508855979697872
1503602254426,-0.852,-0.433,-0.152,-0.254,+0.825,-0.062,-0.558,-2.250,+4.312,-3.062,-21, -4, 1, -3, -2, -2, -3, 0,2.5425710443691343,0.953284464920933
1503602254441,-0.851,-0.434,-0.152,-0.254,+0.836,-0.058,-0.545,-3.125,+8.125,-5.750,4, -2, -1, 0, -1, 0, 1, 1,2.541796477820993,0.9551835308978324
1503602254463,-0.850,-0.436,-0.151,-0.255,+0.838,-0.021,-0.520,-3.000,+7.688,-6.938,0, -3, -2, 1, -1, -1, 1, 1,2.5410746188781537,0.9588746124712684
1503602254485,-0.849,-0.437,-0.150,-0.256,+0.848,-0.014,-0.513,-1.500,+3.812,-6.000,-12, -4, -2, -1, -1, 0, -1, -1,2.5396316940140093,0.9601656106960538
1503602254501,-0.849,-0.437,-0.150,-0.256,+0.830,-0.013,-0.520,-0.438,+1.812,-4.875,-30, -14, 9, 4, 3, -1, -1, -2,2.5396316940140093,0.9601656106960538
1503602254527,-0.849,-0.438,-0.149,-0.256,+0.840,-0.026,-0.521,-1.625,+0.875,-2.125,-13, -12, 1, -1, 2, 0, -1, -2,2.5410969876593295,0.9617898688189229
1503602254545,-0.849,-0.438,-0.149,-0.256,+0.838,-0.031,-0.530,-2.062,-0.500,+0.125,18, 5, 1, 0, 0, 1, -1, -2,2.5410969876593295,0.9617898688189229
1503602254562,-0.849,-0.438,-0.149,-0.256,+0.844,-0.040,-0.521,-2.188,-1.125,+1.312,26, 12, -4, -3, -1, -1, -1, 2,2.5410969876593295,0.9617898688189229
1503602254583,-0.850,-0.437,-0.148,-0.255,+0.842,-0.040,-0.541,-3.062,-3.625,+2.125,0, 1, -1, 0, 4, 2, 0, -1,2.5439744232374824,0.9589329915448728
1503602254605,-0.850,-0.437,-0.148,-0.255,+0.845,-0.037,-0.538,-3.188,-4.812,+2.312,1, 13, -3, -3, -3, -1, 1, 4,2.5439744232374824,0.9589329915448728
1503602254621,-0.851,-0.436,-0.147,-0.254,+0.834,-0.029,-0.532,-2.438,-6.438,+2.500,4, -5, -12, -2, -1, -1, -2, -3,2.546856141360179,0.9560827110420004
1503602254642,-0.851,-0.435,-0.147,-0.254,+0.820,-0.025,-0.527,-0.938,-5.188,+1.062,3, -5, -3, -3, -2, 1, 2, -2,2.546122719127114,0.9536765335521624
1503602254666,-0.851,-0.435,-0.147,-0.254,+0.816,-0.030,-0.532,+0.875,+0.062,-1.312,15, 7, 1, -1, 0, 0, 1, 6,2.546122719127114,0.9536765335521624
1503602254682,-0.851,-0.436,-0.148,-0.254,+0.828,-0.043,-0.528,+1.625,+6.562,-3.062,-7, -15, -5, 2, -2, -2, -2, 0,2.5461344793199396,0.9568578037294704
1503602254703,-0.850,-0.437,-0.148,-0.255,+0.838,-0.034,-0.535,+1.875,+8.812,-3.688,19, -4, -2, 1, 1, 0, -4, -8,2.5439744232374824,0.9589329915448728
1503602254726,-0.849,-0.438,-0.148,-0.255,+0.832,-0.039,-0.541,+2.062,+8.625,-3.250,-17, -10, -1, -3, 0, 0, 1, 1,2.5432231661298013,0.960839897699631
1503602254741,-0.849,-0.439,-0.149,-0.255,+0.831,-0.047,-0.546,+0.438,+8.312,-3.688,-2, 3, 1, 0, -3, -2, -4, -2,2.543241146799837,0.9640296338622968
1503602254763,-0.848,-0.440,-0.149,-0.255,+0.849,-0.040,-0.533,-0.812,+7.750,-1.938,1, 0, 1, 0, 0, 1, 1, -3,2.5424943923765673,0.9659410838381863
1503602254785,-0.848,-0.441,-0.149,-0.255,+0.858,-0.026,-0.513,-1.625,+3.625,+0.125,1, 0, 4, 0, -1, 0, -3, -3,2.5432410615017123,0.9683549824662765
1503602254801,-0.848,-0.441,-0.148,-0.255,+0.853,-0.027,-0.511,-2.250,+0.250,+0.625,-20, 1, 1, -1, -1, -1, 0, -3,2.543969391663245,0.9675764669427793
1503602254828,-0.848,-0.441,-0.148,-0.254,+0.851,-0.025,-0.521,-2.000,-2.250,+1.812,3, 1, 1, 0, -2, -2, 1, 6,2.5453719311578937,0.967408486242159
1503602254845,-0.848,-0.441,-0.148,-0.254,+0.843,-0.024,-0.522,-1.312,-3.500,+2.500,2, 0, 0, -2, 0, -1, 1, 2,2.5453719311578937,0.967408486242159
1503602254861,-0.848,-0.441,-0.148,-0.253,+0.833,-0.020,-0.510,-1.062,-1.938,+1.688,-5, -2, 0, 1, 3, 1, -6, -11,2.546777145525333,0.9672404236074723
1503602254883,-0.848,-0.441,-0.148,-0.253,+0.840,-0.017,-0.511,-0.562,-0.062,+1.438,6, 3, 1, -1, -3, -1, 0, 1,2.546777145525333,0.9672404236074723
1503602254905,-0.848,-0.441,-0.148,-0.253,+0.840,-0.024,-0.527,+1.000,+1.250,+1.125,10, 1, -4, -3, -2, -2, 0, 1,2.546777145525333,0.9672404236074723
1503602254921,-0.848,-0.441,-0.148,-0.253,+0.848,-0.039,-0.519,+0.625,+2.500,+0.188,-8, 0, 13, 3, 3, 1, -3, -9,2.546777145525333,0.9672404236074723
1503602254943,-0.848,-0.442,-0.148,-0.253,+0.846,-0.045,-0.528,+0.250,+4.000,-0.750,-1, -2, -6, -4, -5, -2, -1, 5,2.5475213315832996,0.9696575229643907
1503602254965,-0.848,-0.442,-0.149,-0.253,+0.859,-0.041,-0.513,+0.125,+2.688,-0.250,-1, -3, -4, -2, -5, -2, 1, 4,2.5467893869030926,0.9704336731913856
1503602254982,-0.848,-0.442,-0.149,-0.253,+0.861,-0.041,-0.513,-0.312,-0.812,+0.250,21, 3, -1, 0, -1, 0, 1, 0,2.5467893869030926,0.9704336731913856
1503602255003,-0.848,-0.442,-0.149,-0.252,+0.853,-0.035,-0.523,-0.562,-2.688,+0.875,0, 0, 0, 0, 4, 0, 0, 3,2.5481942992168123,0.970265257752175
1503602255027,-0.848,-0.441,-0.149,-0.252,+0.837,-0.047,-0.535,-1.625,-2.500,+1.250,0, 3, 0, 1, 3, 2, 1, 3,2.54745253274526,0.9678480012075917
1503602255041,-0.849,-0.441,-0.148,-0.252,+0.831,-0.032,-0.528,-2.125,-2.312,+1.062,-2, -2, -3, 1, 0, 1, 0, -1,2.549663845987294,0.9675730627418272
1503602255064,-0.849,-0.441,-0.148,-0.251,+0.836,-0.027,-0.519,-2.562,-2.000,+1.500,3, -2, -2, 0, -2, 0, 0, 1,2.551073107426994,0.9674050803808821
1503602255086,-0.849,-0.441,-0.148,-0.251,+0.842,-0.026,-0.515,-2.000,-1.750,+1.375,5, -3, -2, -1, -1, -2, 0, 0,2.551073107426994,0.9674050803808821
1503602255102,-0.849,-0.441,-0.147,-0.251,+0.840,-0.031,-0.519,-0.938,-1.312,+1.250,16, 6, 1, 1, 1, 0, 1, 1,2.5518061791655264,0.9666340677453925
1503602255123,-0.850,-0.441,-0.147,-0.250,+0.845,-0.032,-0.525,-1.500,-1.562,+1.188,22, 3, 1, -1, 0, -1, -2, -6,2.5546871936491,0.9669680815858316
1503602255145,-0.850,-0.440,-0.147,-0.250,+0.843,-0.034,-0.516,-0.500,-1.562,+0.875,4, 3, 0, -1, 0, 1, 0, 0,2.553956175640236,0.9645515378182479
1503602255162,-0.850,-0.441,-0.147,-0.250,+0.834,-0.046,-0.521,-0.875,+0.875,+0.812,-4, -6, -6, -2, -1, -2, -4, -5,2.5546871936491,0.9669680815858316
1503602255183,-0.850,-0.441,-0.147,-0.249,+0.852,-0.043,-0.527,-1.438,+2.188,+0.000,2, 0, -1, -1, -2, -2, -1, -2,2.556101828969322,0.9668011150867418
1503602255205,-0.850,-0.441,-0.147,-0.249,+0.855,-0.035,-0.522,-1.250,+0.062,+0.312,-2, -3, -1, 0, 1, -1, -2, -5,2.556101828969322,0.9668011150867418
1503602255221,-0.850,-0.441,-0.147,-0.249,+0.849,-0.033,-0.519,-1.500,-1.875,+0.438,-23, -5, -1, 1, 4, -1, -1, -1,2.556101828969322,0.9668011150867418
1503602255243,-0.850,-0.441,-0.147,-0.249,+0.847,-0.036,-0.519,-1.188,-1.500,+0.250,-12, -6, -2, -2, -2, -2, -2, 0,2.556101828969322,0.9668011150867418
1503602255265,-0.850,-0.441,-0.147,-0.248,+0.836,-0.030,-0.527,-0.938,-1.375,+0.875,1, -3, -4, -2, -3, -3, -1, 1,2.557519123035936,0.9666340677453925
1503602255281,-0.850,-0.441,-0.147,-0.248,+0.834,-0.031,-0.520,-0.875,-0.500,+0.750,2, -3, -1, -1, 2, -1, 2, 3,2.557519123035936,0.9666340677453925
1503602255303,-0.850,-0.441,-0.146,-0.248,+0.835,-0.028,-0.523,-0.812,+0.188,+1.125,-5, -2, -1, 0, -2, -1, -2, -1,2.558255496688143,0.9658696407033383
1503602255328,-0.850,-0.441,-0.146,-0.248,+0.844,-0.030,-0.526,-1.188,-0.312,+1.250,-13, 0, 1, -2, -1, -3, -1, 0,2.558255496688143,0.9658696407033383
1503602255341,-0.851,-0.440,-0.146,-0.247,+0.840,-0.036,-0.527,-0.438,-1.688,+0.625,-5, 0, 2, 1, 0, 0, -4, -1,2.560409650725373,0.9637870240231718
1503602255364,-0.851,-0.440,-0.146,-0.247,+0.836,-0.035,-0.522,-0.625,-2.875,+0.750,1, 13, -2, -1, -2, 0, 0, 1,2.560409650725373,0.9637870240231718
1503602255385,-0.851,-0.440,-0.146,-0.247,+0.846,-0.041,-0.518,-0.688,-1.750,+1.000,3, -1, -1, 0, 0, -3, -1, -1,2.560409650725373,0.9637870240231718
1503602255403,-0.851,-0.440,-0.146,-0.247,+0.839,-0.042,-0.525,-1.062,-0.562,+1.438,16, -12, -8, -3, -2, -1, -1, -1,2.560409650725373,0.9637870240231718
1503602255423,-0.851,-0.440,-0.146,-0.246,+0.840,-0.038,-0.525,-1.000,+0.188,+1.062,-4, -4, 0, 0, 0, -1, 0, -2,2.561833896439866,0.9636203515261418
1503602255445,-0.851,-0.440,-0.146,-0.246,+0.847,-0.031,-0.528,-0.438,-1.125,+0.938,10, 1, 4, -1, 1, 1, 0, -1,2.561833896439866,0.9636203515261418
1503602255463,-0.852,-0.440,-0.146,-0.246,+0.835,-0.035,-0.521,-0.875,-2.250,+1.438,-13, 4, -7, -5, -4, -1, -1, -4,2.5632853683788173,0.9641224096150983
1503602255490,-0.852,-0.439,-0.146,-0.245,+0.832,-0.036,-0.529,-0.375,-1.625,+1.375,13, -5, -1, -2, 0, 1, 3, 0,2.563996309150878,0.961538625226927
1503602255505,-0.852,-0.439,-0.146,-0.245,+0.831,-0.037,-0.531,+0.312,-1.125,+1.875,7, 0, 1, 4, 0, -1, -4, -7,2.563996309150878,0.961538625226927
1503602255521,-0.852,-0.439,-0.146,-0.245,+0.833,-0.036,-0.531,+0.125,-0.250,+2.312,5, 0, 2, -1, 3, -1, -1, 3,2.563996309150878,0.961538625226927
1503602255543,-0.852,-0.438,-0.147,-0.245,+0.844,-0.042,-0.535,+1.375,-2.000,+2.125,-2, -3, -2, 0, 1, 0, -2, 1,2.562546762915074,0.9598845558326351
1503602255565,-0.853,-0.438,-0.147,-0.244,+0.841,-0.034,-0.528,+1.562,-5.625,+2.500,6, 0, 1, -1, -3, -2, -1, 3,2.5654293877107115,0.9602185433604329
1503602255581,-0.854,-0.436,-0.147,-0.244,+0.843,-0.032,-0.528,+2.000,-9.188,+2.938,-1, -4, -3, 1, 2, 0, -2, -4,2.565468557774183,0.9558957591657561
1503602255604,-0.854,-0.435,-0.147,-0.244,+0.829,-0.029,-0.527,+2.812,-10.500,+3.812,6, -4, -5, -2, -2, -1, 0, 1,2.5647651617536598,0.9534853970831952
1503602255625,-0.855,-0.433,-0.147,-0.244,+0.826,-0.032,-0.532,+3.625,-11.250,+4.188,-14, 4, 8, 1, -2, -1, -1, -2,2.5648196094787705,0.9491740525014831
1503602255641,-0.856,-0.431,-0.148,-0.244,+0.822,-0.033,-0.511,+5.688,-8.562,+3.562,1, -9, -5, -5, -2, -1, 1, 2,2.564161653569203,0.9456353266701227
1503602255665,-0.856,-0.430,-0.149,-0.245,+0.843,-0.021,-0.512,+7.250,-8.188,+2.375,-17, -9, -1, 0, 1, 1, -1, -7,2.5613111366266224,0.9441772244711968
1503602255685,-0.857,-0.429,-0.150,-0.245,+0.845,-0.016,-0.526,+10.312,-10.375,+1.750,-11, 0, -3, -2, -1, -1, 0, 3,2.56136939535262,0.9430557917744498
1503602255702,-0.857,-0.427,-0.151,-0.247,+0.835,-0.024,-0.535,+12.250,-13.062,+1.438,2, 8, 8, 0, -1, 1, 1, 1,2.5564125601128116,0.9393976687036955
1503602255723,-0.858,-0.424,-0.152,-0.247,+0.816,-0.060,-0.558,+12.250,-12.938,+1.750,18, -2, -3, -2, -3, -2, 3, 8,2.555121787717804,0.9335145374692553
1503602255745,-0.858,-0.422,-0.154,-0.248,+0.820,-0.093,-0.552,+10.562,-7.188,+2.188,3, -2, 1, 0, -1, 1, -1, 0,2.5509097293941925,0.9305023592275374
1503602255763,-0.859,-0.421,-0.155,-0.248,+0.814,-0.089,-0.555,+8.500,-3.688,+2.000,-4, 2, -2, -3, -4, -2, -1, -1,2.551027817172983,0.9294185722226683
1503602255783,-0.859,-0.420,-0.157,-0.248,+0.835,-0.064,-0.554,+8.500,-3.312,+2.688,-24, -3, -2, -1, -2, 1, 0, -1,2.5489510005201477,0.928635112708752
1503602255806,-0.859,-0.419,-0.158,-0.248,+0.833,-0.048,-0.561,+8.875,-8.500,+3.625,9, -1, 0, 1, 2, 1, -1, -1,2.5475760931471947,0.9270607345009224
1503602255830,-0.860,-0.416,-0.158,-0.249,+0.824,-0.048,-0.581,+9.312,-17.875,+6.188,2, 4, 2, 1, 3, 0, -3, -1,2.545640076685077,0.9206346580810816
1503602255844,-0.862,-0.411,-0.159,-0.249,+0.806,-0.062,-0.583,+10.188,-24.062,+8.562,3, -3, -3, -1, 1, -2, -2, -1,2.5446636894809354,0.9106201086400685
1503602255867,-0.864,-0.408,-0.161,-0.249,+0.784,-0.086,-0.573,+10.938,-19.812,+8.062,9, 0, 1, 3, 0, -3, 0, -1,2.544397450004229,0.9061785253152066
1503602255888,-0.864,-0.406,-0.162,-0.249,+0.772,-0.073,-0.552,+10.188,-8.562,+6.938,-23, 7, 3, -3, -6, -3, -5, -7,2.5424200802962083,0.9022872665188344
1503602255905,-0.864,-0.408,-0.160,-0.248,+0.806,+0.091,-0.543,-7.000,+5.438,+5.312,-2, -5, -2, 0, 2, -1, 0, 1,2.546506679448637,0.9051659050618723
1503602255926,-0.865,-0.406,-0.162,-0.248,+0.798,+0.005,-0.619,+14.375,-4.812,+13.062,-3, -3, -3, 0, 0, 2, -3, -1,2.545392505854426,0.9025905882114529
1503602255948,-0.866,-0.402,-0.165,-0.247,+0.815,-0.045,-0.598,+17.938,-19.125,+17.625,-3, -8, -3, -1, -2, -2, 0, -2,2.5437995048741286,0.8959591197411348
1503602255965,-0.868,-0.397,-0.168,-0.247,+0.816,-0.043,-0.595,+22.812,-23.688,+17.562,5, -1, 0, 0, 1, 1, 3, 0,2.5417763063207532,0.8877512337438228
1503602255986,-0.869,-0.393,-0.172,-0.247,+0.795,-0.047,-0.596,+27.375,-17.250,+19.750,3, 0, 5, 0, -1, -1, 0, -2,2.5382581352708242,0.8822896874507542
1503602256008,-0.870,-0.389,-0.176,-0.245,+0.796,-0.068,-0.631,+29.625,-15.312,+26.250,3, 4, 3, 3, 7, 1, 0, 0,2.5377067485903346,0.876453118418679
1503602256024,-0.872,-0.384,-0.182,-0.244,+0.812,-0.105,-0.650,+32.750,-15.562,+31.125,-16, -5, 2, 0, -3, -2, -2, -6,2.5355422432765504,0.8708316839282866
1503602256046,-0.873,-0.379,-0.189,-0.242,+0.822,-0.136,-0.640,+36.812,-17.188,+31.188,0, 1, 3, 1, 0, 0, 0, -3,2.532758048276633,0.8654954350632149
1503602256068,-0.874,-0.374,-0.196,-0.240,+0.830,-0.158,-0.638,+40.125,-18.125,+32.812,9, -5, -4, 1, 1, 1, 0, 2,2.53013965439512,0.8603097594294935
1503602256084,-0.875,-0.369,-0.204,-0.238,+0.816,-0.161,-0.630,+43.562,-18.188,+36.688,-7, -3, -3, -4, -4, -1, -2, -1,2.527075313654237,0.8562144549964853
1503602256107,-0.876,-0.363,-0.212,-0.236,+0.803,-0.173,-0.639,+47.000,-19.500,+40.750,3, 3, -1, -1, 0, -1, 3, 7,2.5236888152079744,0.8500159416332261
1503602256127,-0.877,-0.356,-0.221,-0.233,+0.792,-0.206,-0.639,+50.438,-18.500,+43.000,-17, 2, -3, -2, -3, -3, -1, 1,2.5209146105376496,0.8424215854811277
1503602256144,-0.878,-0.349,-0.231,-0.231,+0.778,-0.255,-0.634,+53.250,-22.438,+45.125,6, 0, -1, -3, 0, 1, -1, -4,2.516390231857984,0.8363967438052441
1503602256172,-0.879,-0.342,-0.242,-0.227,+0.758,-0.298,-0.623,+56.125,-21.125,+47.750,2, 8, 7, 1, -2, -2, -2, 0,2.5145648471731654,0.8310706489030332
1503602256188,-0.880,-0.335,-0.253,-0.224,+0.740,-0.317,-0.641,+59.562,-13.750,+49.375,5, 7, 4, 3, 2, 1, -1, 0,2.511624710295448,0.8264066185783124
1503602256204,-0.880,-0.328,-0.264,-0.220,+0.729,-0.323,-0.632,+62.500,-14.688,+51.750,-9, -8, -5, -2, 0, -2, -3, -1,2.5087239802609815,0.8212336761373065
1503602256226,-0.880,-0.320,-0.276,-0.217,+0.722,-0.335,-0.625,+66.250,-23.812,+55.188,1, 0, -1, -2, 0, -2, -2, -4,2.5037545006695927,0.8156612331940316
1503602256247,-0.880,-0.311,-0.289,-0.214,+0.716,-0.371,-0.610,+70.625,-26.875,+55.000,9, 2, -1, 1, 0, -2, -1, -1,2.4983360381922557,0.8094563697995935
1503602256266,-0.880,-0.302,-0.301,-0.211,+0.679,-0.426,-0.617,+72.938,-26.438,+51.562,1, -1, -2, -3, -2, 0, -1, 0,2.49394002961989,0.8025031847685872
1503602256286,-0.879,-0.292,-0.314,-0.208,+0.642,-0.459,-0.606,+74.875,-25.812,+50.250,8, 5, 4, 0, -2, -1, -1, 0,2.487287949495645,0.7945497915571721
1503602256308,-0.878,-0.283,-0.328,-0.206,+0.638,-0.491,-0.598,+77.938,-20.375,+50.500,-14, 3, -2, -3, -1, -3, -1, 3,2.479284952497133,0.7913102257637908
1503602256324,-0.876,-0.275,-0.342,-0.203,+0.640,-0.529,-0.567,+80.250,-17.688,+48.562,-3, -1, 0, 3, 1, -1, 0, 1,2.471352634936171,0.790116965029502
1503602256346,-0.873,-0.266,-0.356,-0.201,+0.630,-0.553,-0.555,+80.500,-19.375,+47.312,0, -1, 0, -2, -6, -1, -1, -5,2.4598192991682284,0.7874862975659558
1503602256368,-0.870,-0.258,-0.369,-0.199,+0.621,-0.582,-0.552,+81.312,-17.688,+44.000,-2, -2, -3, 0, 0, 0, 2, -1,2.4490868565536896,0.7864331683877194
1503602256384,-0.867,-0.250,-0.383,-0.197,+0.603,-0.624,-0.533,+83.125,-17.438,+38.312,-1, -8, -1, 1, 4, 1, 0, 0,2.4380447650321297,0.7877823293602376
1503602256407,-0.863,-0.242,-0.397,-0.196,+0.599,-0.664,-0.500,+82.562,-17.062,+36.062,-1, -11, -1, 1, -1, -1, -1, -2,2.4231256987470435,0.790360566899288
1503602256428,-0.859,-0.234,-0.410,-0.195,+0.587,-0.671,-0.479,+81.938,-17.812,+37.125,3, 2, -1, -2, -1, -1, 0, 0,2.4086422017486613,0.792228374329095
1503602256444,-0.855,-0.227,-0.424,-0.194,+0.584,-0.700,-0.469,+81.250,-16.562,+34.625,1, 1, 1, 0, 0, 0, 1, 3,2.3936967274719163,0.7994256744051003
1503602256468,-0.851,-0.220,-0.437,-0.193,+0.561,-0.714,-0.449,+79.938,-12.875,+29.312,7, 1, 1, 0, 1, -2, 0, 0,2.3791142410521546,0.8059329772262671
1503602256487,-0.846,-0.214,-0.449,-0.193,+0.545,-0.732,-0.445,+77.625,-11.750,+25.812,9, 3, -1, -2, -1, 0, 0, 1,2.3603182889926217,0.8144076742086123
1503602256506,-0.841,-0.207,-0.461,-0.193,+0.538,-0.747,-0.409,+74.438,-12.875,+26.812,1, 21, 9, 2, -1, -3, 0, 2,2.341211461991623,0.8216839098902189
1503602256526,-0.837,-0.200,-0.472,-0.193,+0.544,-0.757,-0.396,+75.438,-17.438,+25.812,-3, 5, 3, 0, 0, 0, 0, 0,2.3252442750388402,0.828299974638176
1503602256547,-0.832,-0.193,-0.483,-0.194,+0.529,-0.748,-0.405,+75.812,-19.875,+22.375,-12, -1, 2, 0, -1, -1, -1, -2,2.3042808379850337,0.8366535169521955
1503602256564,-0.827,-0.186,-0.494,-0.195,+0.484,-0.751,-0.394,+75.875,-19.688,+17.625,-1, -8, -2, 2, 2, -1, 0, -4,2.2829192843590245,0.8463676347451224
1503602256586,-0.821,-0.180,-0.505,-0.196,+0.478,-0.778,-0.353,+74.562,-17.375,+15.188,1, -1, -5, -5, -4, 0, 0, 0,2.257499703763801,0.8596840218970838
1503602258781,-0.870,-0.420,-0.139,-0.218,+0.801,-0.078,-0.565,-1.812,+5.500,+1.562,6, 14, 13, 0, 0, -1, -2, 0,2.6216813715282954,0.9152708500927665
1503602258798,-0.870,-0.421,-0.139,-0.217,+0.823,-0.089,-0.568,-2.688,+6.875,+1.000,6, 0, -9, -3, -1, 0, 0, -1,2.62378732826273,0.9174988369449292
1503602258806,-0.869,-0.422,-0.139,-0.217,+0.822,-0.081,-0.570,-3.938,+7.000,+0.750,13, -5, -2, -2, -2, 1, 3, 3,2.6230341106613486,0.9193857412926292
1503602258841,-0.869,-0.423,-0.139,-0.216,+0.817,-0.075,-0.554,-2.562,+1.625,+1.500,0, -12, -5, 1, 0, -1, 0, 5,2.625143175532516,0.921618701636749
1503602258868,-0.869,-0.423,-0.139,-0.216,+0.824,-0.071,-0.550,-2.188,+0.438,+0.562,14, 11, 7, 6, 8, 3, 1, 1,2.625143175532516,0.921618701636749
1503602258869,-0.869,-0.424,-0.139,-0.215,+0.818,-0.079,-0.560,-1.312,+6.000,+0.500,0, -3, 2, 0, 0, -2, -2, -2,2.6272510493518992,0.9238542264517486
1503602258905,-0.868,-0.425,-0.140,-0.214,+0.816,-0.092,-0.560,-1.938,+9.250,+0.812,-5, -8, -5, -2, -2, -3, -3, -6,2.627281113035487,0.9262851031639737
1503602258906,-0.868,-0.426,-0.140,-0.214,+0.831,-0.092,-0.560,-3.312,+9.375,+1.125,-18, -8, -1, 3, 3, 1, -3, -8,2.6278753773688033,0.9286928299304225
1503602258927,-0.867,-0.428,-0.140,-0.213,+0.836,-0.083,-0.550,-3.625,+6.375,+2.438,-1, -12, -7, -4, -1, -1, 2, 1,2.629246973979425,0.9328353275253862
1503602258948,-0.867,-0.428,-0.140,-0.212,+0.828,-0.082,-0.551,-3.500,+1.312,+2.188,1, 2, 0, 2, -1, 1, 0, -1,2.6307628297737633,0.9326682173428141
1503602258964,-0.868,-0.428,-0.140,-0.211,+0.819,-0.086,-0.553,-3.562,-1.750,+2.062,1, -4, 6, -1, -4, 0, -2, -4,2.6336054872217676,0.9330119049840098
1503602258987,-0.868,-0.427,-0.139,-0.210,+0.823,-0.083,-0.553,-4.125,-1.375,+2.500,5, 16, 6, 1, 1, 1, -8, -4,2.6352871404529714,0.9297319162291388
1503602259009,-0.868,-0.427,-0.139,-0.210,+0.816,-0.074,-0.544,-4.062,-1.812,+2.750,-2, -3, -5, -5, -4, 0, 3, 6,2.6352871404529714,0.9297319162291388
1503602259024,-0.869,-0.427,-0.139,-0.209,+0.813,-0.079,-0.545,-2.250,-0.625,+1.938,7, -6, 6, 5, 2, 1, 1, 3,2.63812754095768,0.9300770113907654
1503602259047,-0.869,-0.427,-0.139,-0.208,+0.825,-0.089,-0.542,-2.125,-0.938,+1.312,-5, -8, -1, -1, 1, -2, 0, 0,2.6396527907307283,0.9299104949104495
1503602259068,-0.869,-0.427,-0.139,-0.208,+0.824,-0.083,-0.551,-2.375,-1.938,+1.188,1, -3, -4, -3, -3, -1, 2, 8,2.6396527907307283,0.9299104949104495
1503602259083,-0.869,-0.427,-0.139,-0.208,+0.821,-0.077,-0.552,-1.812,-3.250,+1.625,-1, 13, 3, 0, 2, 0, 3, 4,2.6396527907307283,0.9299104949104495
1503602259106,-0.870,-0.426,-0.139,-0.207,+0.809,-0.069,-0.555,-1.688,-1.750,+2.188,15, -1, -9, -5, -3, -3, -6, -20,2.641912276865125,0.9278430739941168
1503602259128,-0.870,-0.426,-0.138,-0.207,+0.810,-0.065,-0.559,-1.188,+1.188,+1.125,4, 0, -3, -1, -1, 0, 1, 2,2.642661252782723,0.9271501385215177
1503602259143,-0.870,-0.427,-0.138,-0.206,+0.814,-0.066,-0.556,-1.125,+3.188,+0.188,-3, 4, 4, -1, -2, 0, 2, 4,2.6447646174969295,0.9293973541905374
1503602259165,-0.869,-0.427,-0.139,-0.206,+0.828,-0.078,-0.548,-0.438,+1.875,+0.250,-11, -8, -6, -2, 2, -1, -3, -1,2.6427109630683128,0.9295772387748716
1503602259188,-0.870,-0.427,-0.139,-0.206,+0.837,-0.080,-0.555,-0.812,-1.125,+1.000,-20, -10, -13, -5, -3, -5, -2, -6,2.644013625423871,0.9300889881267946
1503602259203,-0.870,-0.427,-0.139,-0.205,+0.827,-0.083,-0.543,-1.062,-1.125,+2.000,-7, -4, -5, -1, -5, -2, -2, 1,2.645544396696984,0.9299224769958578
1503602259226,-0.870,-0.427,-0.139,-0.205,+0.818,-0.076,-0.547,-2.062,-1.125,+1.750,8, -8, -7, 0, 4, 3, 1, 4,2.645544396696984,0.9299224769958578
1503602259247,-0.870,-0.427,-0.139,-0.204,+0.816,-0.074,-0.552,-1.375,-1.438,+1.688,-25, -11, 2, 0, -2, -2, 1, -3,2.6470777084401362,0.9297558914897225
1503602259264,-0.870,-0.427,-0.139,-0.204,+0.828,-0.088,-0.550,-1.125,-1.062,+1.750,17, 6, 2, 2, 1, 0, -4, -14,2.6470777084401362,0.9297558914897225
1503602259286,-0.870,-0.426,-0.139,-0.203,+0.831,-0.083,-0.561,-1.375,-2.312,+2.875,7, 6, 2, 4, 8, 4, 0, -1,2.648048582155477,0.9271744778530507
1503602259307,-0.871,-0.426,-0.138,-0.203,+0.805,-0.071,-0.558,-1.312,-5.062,+2.312,11, -5, -5, -2, -4, -3, -3, -5,2.6500941864000596,0.9269985867790523
1503602259324,-0.872,-0.425,-0.138,-0.203,+0.808,-0.063,-0.538,-1.062,-6.750,+2.938,1, -3, -1, -1, 1, 0, 3, 14,2.6508214894930364,0.9250984224824691
1503602259347,-0.872,-0.423,-0.138,-0.202,+0.818,-0.062,-0.562,-1.312,-10.000,+4.375,-3, -1, -1, -2, -4, -5, -18, -16,2.651249541610873,0.9201104498007
1503602259367,-0.873,-0.422,-0.138,-0.201,+0.814,-0.087,-0.570,-1.438,-9.938,+3.812,14, 19, 6, 0, -7, -1, 0, -9,2.653531849579876,0.9180478985809715
1503602259383,-0.874,-0.420,-0.138,-0.201,+0.808,-0.104,-0.571,-1.938,-8.625,+3.500,3, -1, 1, -2, -2, -6, -5, -17,2.6537240245459577,0.9137497918711621
1503602259405,-0.875,-0.419,-0.138,-0.200,+0.810,-0.092,-0.566,-2.188,-6.188,+3.750,4, -6, 4, 0, -1, 1, 7, 14,2.65601694980444,0.9116913206623567
1503602259428,-0.876,-0.418,-0.138,-0.199,+0.824,-0.084,-0.571,-1.625,-8.312,+4.375,1, -8, -7, -1, -1, 3, -1, -7,2.658313233677626,0.9096339238707012
1503602259443,-0.876,-0.417,-0.138,-0.199,+0.812,-0.097,-0.571,-1.688,-9.438,+4.500,5, 16, 18, 3, 0, -3, 1, 6,2.657779974972374,0.9072330441079924
1503602259465,-0.877,-0.416,-0.137,-0.198,+0.801,-0.099,-0.570,-2.938,-6.438,+3.688,-3, -9, -4, -2, -1, 0, 1, 2,2.6608248671823373,0.9044990631286745
1503602259489,-0.878,-0.415,-0.137,-0.197,+0.802,-0.104,-0.573,-2.000,-3.438,+2.500,-1, 7, 2, 1, -1, -3, -7, -13,2.6631321296772335,0.9024465148424418
1503602259503,-0.878,-0.415,-0.137,-0.197,+0.806,-0.095,-0.583,-1.438,-2.938,+2.375,10, 2, -2, -1, -1, -1, -2, -4,2.6631321296772335,0.9024465148424418
1503602259525,-0.878,-0.414,-0.137,-0.196,+0.802,-0.098,-0.582,-0.938,-3.562,+1.250,6, -11, -10, -3, -2, -4, -2, 2,2.6641750615449484,0.8998788603269248
1503602259550,-0.878,-0.414,-0.137,-0.196,+0.791,-0.104,-0.577,-0.875,-0.812,+0.688,-8, -2, -2, -2, -2, 1, 1, 0,2.6641750615449484,0.8998788603269248
1503602259564,-0.878,-0.414,-0.138,-0.196,+0.789,-0.108,-0.573,-0.688,+1.688,-0.125,-8, 7, 14, 4, 5, 2, -1, 0,2.663436913569492,0.9005555955000302
1503602259586,-0.878,-0.414,-0.138,-0.196,+0.799,-0.097,-0.590,+0.062,+3.688,-0.688,-8, 0, -1, -1, -1, -1, -2, 2,2.663436913569492,0.9005555955000302
1503602259607,-0.878,-0.415,-0.138,-0.195,+0.813,-0.089,-0.586,-0.562,+3.938,-0.250,-20, -9, -3, -2, 1, 0, -2, -6,2.6655198969701868,0.9027813316448875
1503602259624,-0.878,-0.416,-0.138,-0.195,+0.811,-0.086,-0.580,-1.938,+4.125,-0.188,5, 6, -3, -2, 0, -1, 2, 3,2.6660369430754267,0.9051805827443934
1503602259645,-0.878,-0.416,-0.138,-0.195,+0.810,-0.084,-0.568,-1.312,+1.375,-0.562,-13, -10, -4, -1, -1, 0, -2, -1,2.6660369430754267,0.9051805827443934
1503602259667,-0.878,-0.416,-0.138,-0.195,+0.814,-0.083,-0.568,-0.250,-1.000,-1.062,11, 4, -1, -1, -1, -2, -1, 0,2.6660369430754267,0.9051805827443934
1503602259684,-0.878,-0.416,-0.137,-0.195,+0.813,-0.093,-0.573,-0.500,-2.688,-0.688,4, -6, -4, -2, 0, -2, 1, 1,2.666777870595709,0.9045052612173766
1503602259706,-0.878,-0.415,-0.137,-0.195,+0.808,-0.093,-0.574,-1.625,-2.188,-0.125,12, 7, 5, -2, -3, -4, -9, -8,2.6662600351543113,0.9021058539239097
1503602259728,-0.878,-0.415,-0.137,-0.195,+0.805,-0.092,-0.576,-1.500,-0.688,-0.438,-6, 4, -1, -1, 0, 0, 1, 1,2.6662600351543113,0.9021058539239097
1503602259744,-0.878,-0.416,-0.137,-0.195,+0.804,-0.096,-0.575,-0.812,+0.938,-0.750,3, -4, -3, 0, -2, -4, -8, 0,2.666777870595709,0.9045052612173766
1503602259766,-0.878,-0.416,-0.137,-0.194,+0.799,-0.092,-0.565,-1.125,+0.375,-0.750,1, -3, -2, 0, 1, 0, 2, 1,2.668343508956968,0.904335398237045
1503602259788,-0.878,-0.416,-0.137,-0.194,+0.797,-0.078,-0.552,-0.250,-0.938,-0.375,-5, 0, 0, -1, -2, -1, -1, 1,2.668343508956968,0.904335398237045
1503602259803,-0.878,-0.415,-0.137,-0.195,+0.800,-0.076,-0.562,+2.000,-2.688,-0.438,0, 1, 1, 0, 0, 0, 0, 0,2.6662600351543113,0.9021058539239097
1503602259826,-0.878,-0.414,-0.137,-0.195,+0.797,-0.089,-0.592,+2.500,-6.312,-0.750,4, 8, 3, 2, 1, 2, 2, 3,2.66574237260724,0.8997079170100352
1503602259851,-0.879,-0.413,-0.137,-0.195,+0.784,-0.094,-0.594,+2.000,-6.500,-0.375,-4, -8, -3, 0, 0, -1, -1, -3,2.666493704453947,0.8978282956868934
1503602259864,-0.879,-0.412,-0.138,-0.195,+0.786,-0.092,-0.584,+1.500,-2.625,-0.250,-5, -1, 1, -1, -1, -2, -5, -6,2.66524437420394,0.8961093007341661
1503602259886,-0.879,-0.413,-0.138,-0.195,+0.795,-0.099,-0.582,+1.250,+3.500,-0.750,-5, -3, -3, -3, -2, 0, 0, -2,2.6657571224406422,0.898503649674398
1503602259907,-0.878,-0.414,-0.138,-0.195,+0.819,-0.101,-0.585,+1.188,+6.125,-0.938,1, -3, -3, 0, -1, -1, -1, 0,2.6650030283216752,0.9003835449908294
1503602259930,-0.878,-0.414,-0.139,-0.195,+0.834,-0.095,-0.583,+0.250,+4.000,+0.000,-3, 5, 1, 0, -1, -2, -4, -4,2.664264248037837,0.9010623691174604
1503602259945,-0.878,-0.414,-0.139,-0.195,+0.830,-0.088,-0.572,-0.312,-0.812,+0.875,2, -1, 0, -2, -2, -1, -2, -2,2.664264248037837,0.9010623691174604
1503602259967,-0.878,-0.414,-0.139,-0.195,+0.821,-0.076,-0.562,+0.938,-3.625,-0.375,1, 3, 1, -1, 1, -2, -3, -8,2.664264248037837,0.9010623691174604
1503602259990,-0.878,-0.414,-0.139,-0.195,+0.820,-0.077,-0.563,+0.812,-4.062,-0.750,-14, -1, -1, 1, 0, -1, 0, -3,2.664264248037837,0.9010623691174604
1503602260005,-0.879,-0.413,-0.138,-0.195,+0.818,-0.085,-0.576,-0.438,-6.562,+1.062,6, 7, 2, 0, -2, -1, -3, 1,2.6657571224406422,0.898503649674398
1503602260027,-0.879,-0.412,-0.138,-0.195,+0.799,-0.084,-0.582,-1.938,-6.312,+2.562,3, 1, -4, -1, -2, -1, -4, 0,2.66524437420394,0.8961093007341661
1503602260051,-0.880,-0.411,-0.138,-0.195,+0.785,-0.077,-0.574,-1.375,-5.438,+1.938,-2, -11, -3, -1, 2, -2, 4, 10,2.6660034797944245,0.894233125229391
1503602260065,-0.880,-0.411,-0.138,-0.194,+0.793,-0.085,-0.586,-0.625,-4.000,+0.938,-2, -5, -3, 0, -1, 1, 0, 2,2.6675736298901174,0.8940597126971691
1503602260088,-0.880,-0.410,-0.138,-0.194,+0.802,-0.095,-0.576,+0.062,-3.188,+0.875,2, 0, -3, 0, 0, -1, -2, -4,2.667067113514291,0.8916682211105392
1503602260110,-0.881,-0.410,-0.138,-0.194,+0.812,-0.101,-0.580,-0.375,-5.000,+1.125,9, 4, 2, -2, -3, 0, 0, -1,2.668333471215933,0.8921849221502024
1503602260127,-0.881,-0.409,-0.138,-0.194,+0.806,-0.100,-0.595,-0.188,-4.625,+0.812,-1, 10, 6, 1, 0, 0, 0, -1,2.667830871965878,0.8897953670721528
1503602260147,-0.881,-0.408,-0.138,-0.194,+0.781,-0.100,-0.600,+0.188,-3.812,-0.625,-3, 1, 1, 0, 0, 0, -3, -3,2.6673285088736893,0.8874073054354154
1503602260170,-0.882,-0.408,-0.138,-0.194,+0.792,-0.104,-0.590,-0.188,-2.125,-0.875,-4, -4, -1, -2, 1, 0, -1, -2,2.668595637568786,0.8879242188008982
1503602260190,-0.882,-0.408,-0.138,-0.194,+0.798,-0.098,-0.583,-0.750,+0.125,+0.062,-1, -6, -8, -3, -2, -2, -1, -1,2.668595637568786,0.8879242188008982
1503602260208,-0.881,-0.408,-0.138,-0.193,+0.805,-0.094,-0.579,-0.812,+1.875,+0.688,5, 2, 0, 1, 1, -2, -4, -10,2.6689050627796544,0.8872323184218263
1503602260230,-0.881,-0.409,-0.138,-0.193,+0.805,-0.093,-0.588,-1.000,+1.812,+0.688,-8, -4, 1, -2, -1, -1, 1, 8,2.669405329304216,0.889620952763143
1503602260245,-0.881,-0.409,-0.138,-0.193,+0.800,-0.087,-0.594,-1.125,+1.312,-0.250,-1, 2, 1, -1, -2, 1, 2, 0,2.669405329304216,0.889620952763143
1503602260267,-0.881,-0.409,-0.137,-0.193,+0.808,-0.085,-0.586,-1.938,+0.000,+0.000,-4, 3, 3, 2, -1, -2, -7, -11,2.6701371256276154,0.8889481413661264
1503602260290,-0.881,-0.409,-0.137,-0.192,+0.804,-0.090,-0.577,-2.188,-1.125,+0.875,1, -3, -2, -2, 1, -3, -3, 2,2.6717152959177484,0.8887747810657369
1503602260305,-0.882,-0.409,-0.137,-0.192,+0.788,-0.101,-0.578,-1.812,-0.500,+1.000,19, 6, -2, -1, -1, 0, 3, 3,2.6729719141851374,0.8892921118357306
1503602260329,-0.882,-0.409,-0.137,-0.192,+0.771,-0.103,-0.590,-0.562,+0.000,+0.188,-1, 8, 6, 1, -1, -2, 0, 1,2.6729719141851374,0.8892921118357306
1503602260350,-0.882,-0.409,-0.137,-0.192,+0.790,-0.098,-0.599,-0.438,+1.125,-1.375,-1, -7, -5, 0, -1, 0, 2, 5,2.6729719141851374,0.8892921118357306
1503602260365,-0.882,-0.409,-0.137,-0.192,+0.792,-0.095,-0.585,-0.688,+2.562,-0.688,2, 4, 3, -3, -2, -4, 0, -2,2.6729719141851374,0.8892921118357306
1503602260388,-0.882,-0.409,-0.137,-0.191,+0.793,-0.092,-0.587,-1.188,+0.062,+1.312,-3, -11, -10, -3, -1, -1, -1, -3,2.6745501495451167,0.8891188984541842
1503602260410,-0.882,-0.409,-0.137,-0.191,+0.795,-0.086,-0.579,-1.312,-0.750,+1.812,18, 12, 12, 3, 1, -1, -2, 0,2.6745501495451167,0.8891188984541842
1503602260426,-0.882,-0.409,-0.137,-0.191,+0.790,-0.090,-0.586,-1.000,-0.312,+1.500,0, -5, -4, -1, -1, -1, -5, -8,2.6745501495451167,0.8891188984541842
1503602260448,-0.882,-0.409,-0.137,-0.190,+0.803,-0.095,-0.586,-1.562,-1.688,+2.125,-1, 1, 0, 0, 0, -2, 0, 6,2.6761309009107297,0.8889456110913002
1503602260470,-0.882,-0.409,-0.137,-0.190,+0.811,-0.100,-0.584,-1.562,-2.688,+2.062,-15, -3, -1, -2, -3, -2, -4, -3,2.6761309009107297,0.8889456110913002
1503602260491,-0.883,-0.408,-0.137,-0.189,+0.798,-0.099,-0.574,-1.438,-3.500,+1.500,20, 10, 5, -2, -1, -2, 1, 6,2.6784714599206585,0.8868994191278202
1503602260508,-0.883,-0.408,-0.136,-0.189,+0.792,-0.099,-0.586,-1.312,-2.938,+0.000,-8, -4, -4, -4, -1, -1, 0, 2,2.679203699988259,0.8862350106198018
1503602260530,-0.883,-0.408,-0.136,-0.189,+0.796,-0.098,-0.594,-1.375,-2.125,+0.500,-2, 8, 4, 1, 0, 4, 1, 0,2.679203699988259,0.8862350106198018
1503602260546,-0.883,-0.407,-0.136,-0.188,+0.792,-0.095,-0.584,-1.875,-1.250,+1.750,4, 2, 1, 0, 0, -2, -1, -1,2.6803064830357197,0.8836730322450306
1503602260568,-0.883,-0.408,-0.136,-0.188,+0.789,-0.097,-0.576,-1.688,+0.562,+1.938,10, -2, -5, -1, 0, 1, -2, -2,2.6807902566011585,0.8860623644054482
1503602260591,-0.883,-0.408,-0.136,-0.187,+0.791,-0.099,-0.590,-2.062,+1.688,+1.938,-10, -9, 0, 0, 0, -1, 1, 2,2.682379316437876,0.8858896451511641
1503602260606,-0.883,-0.408,-0.136,-0.187,+0.797,-0.095,-0.598,-2.750,+3.062,+2.062,-1, -2, -1, 1, -2, -1, -1, -2,2.682379316437876,0.8858896451511641
1503602260628,-0.883,-0.409,-0.136,-0.186,+0.798,-0.099,-0.607,-3.125,+2.750,+2.875,-2, 4, -3, 0, 2, -1, 3, 2,2.6844505974407937,0.8881088131504031
1503602260650,-0.884,-0.408,-0.136,-0.185,+0.796,-0.105,-0.598,-2.938,-1.312,+2.188,-1, -5, -5, 0, -2, -1, -4, -2,2.6867924979399347,0.8860623644054483
1503602260666,-0.884,-0.408,-0.135,-0.185,+0.808,-0.104,-0.587,-2.688,-3.562,+2.188,4, 0, 0, 0, -1, 0, -1, -2,2.687527867733309,0.8854060854375485
1503602260691,-0.884,-0.408,-0.135,-0.184,+0.797,-0.092,-0.590,-3.875,-2.812,+2.062,-27, -7, -3, -1, -1, -1, 2, 5,2.6891229808519848,0.88523450841664
1503602260710,-0.884,-0.408,-0.135,-0.184,+0.786,-0.092,-0.573,-2.938,-1.500,+1.500,7, 2, 1, -1, -1, -1, -2, -1,2.6891229808519848,0.88523450841664
1503602260726,-0.884,-0.408,-0.134,-0.183,+0.799,-0.087,-0.576,-2.500,+0.062,+2.500,13, 0, -3, -2, 0, 0, -1, -4,2.6914587559603036,0.8844120515038167
1503602260748,-0.884,-0.408,-0.134,-0.182,+0.799,-0.083,-0.576,-2.812,+1.812,+2.500,4, -6, -1, -1, -1, 0, 0, -3,2.6930599632503363,0.8842414770369111
1503602260771,-0.884,-0.409,-0.134,-0.182,+0.801,-0.083,-0.579,-2.688,+4.000,+1.938,1, 5, -3, -2, -2, 0, -2, -2,2.6935290314751867,0.8866354224403686
1503602260787,-0.884,-0.410,-0.134,-0.181,+0.799,-0.089,-0.586,-2.000,+3.438,+1.188,8, -3, -3, 0, -1, -2, -1, -1,2.69559761952247,0.8888613317510178
1503602260831,-0.884,-0.410,-0.134,-0.181,+0.799,-0.100,-0.601,-1.125,+3.062,+0.625,-7, 1, 5, -1, -1, -2, -2, -4,2.69559761952247,0.8888613317510178
1503602260845,-0.884,-0.410,-0.134,-0.181,+0.792,-0.116,-0.604,-0.875,+2.750,-0.312,4, -5, -1, 1, -1, -2, -1, 1,2.69559761952247,0.8888613317510178
1503602260847,-0.884,-0.411,-0.134,-0.180,+0.796,-0.117,-0.588,-1.438,+1.188,-0.438,2, -4, -1, 0, 0, 0, 2, 0,2.697664484185331,0.8910897733131843
1503602260868,-0.884,-0.411,-0.134,-0.180,+0.802,-0.101,-0.586,-3.000,+2.125,+1.438,1, -2, 6, 0, 0, 0, 0, 1,2.697664484185331,0.8910897733131843
1503602260891,-0.884,-0.411,-0.133,-0.179,+0.800,-0.087,-0.581,-3.438,+2.875,+2.500,11, -1, -4, -1, -2, -2, -1, -1,2.700012071085709,0.8902778515482418
1503602260906,-0.884,-0.412,-0.133,-0.178,+0.800,-0.088,-0.585,-2.688,+2.438,+2.438,-8, -4, 0, -1, -2, 0, -1, -1,2.702079291188689,0.8925105274921458
1503602260928,-0.884,-0.412,-0.133,-0.178,+0.807,-0.095,-0.575,-2.375,+2.188,+1.625,-26, -7, -2, -1, -3, -1, -2, -6,2.702079291188689,0.8925105274921458
1503602260950,-0.883,-0.413,-0.133,-0.177,+0.809,-0.091,-0.575,-2.500,+1.625,+1.250,-34, 0, 4, 0, 0, 0, 0, 0,2.702961951930057,0.8942266928680077
1503602260966,-0.883,-0.413,-0.133,-0.177,+0.808,-0.089,-0.573,-2.062,+0.938,+1.312,7, 7, 0, -2, 0, 1, -2, -4,2.702961951930057,0.8942266928680077
1503602260990,-0.883,-0.414,-0.133,-0.176,+0.790,-0.103,-0.586,-1.938,+2.312,+1.062,-3, -7, -1, -1, -3, -2, -1, -2,2.705031638044694,0.8964646666269537
1503602261010,-0.883,-0.414,-0.133,-0.176,+0.784,-0.100,-0.577,-2.062,+4.375,+0.062,14, 5, -5, -2, -1, -1, -2, 0,2.705031638044694,0.8964646666269537
1503602261026,-0.883,-0.415,-0.133,-0.176,+0.803,-0.094,-0.569,-1.625,+3.688,-0.062,-6, -5, 1, 0, 0, -2, -1, -1,2.70549294270274,0.8988713962698942
1503602261048,-0.883,-0.415,-0.132,-0.175,+0.813,-0.086,-0.566,-2.188,+1.625,+1.312,-6, -6, -8, -2, -2, -2, 0, 1,2.707855278056019,0.8980700385120705
1503602261070,-0.883,-0.416,-0.132,-0.175,+0.819,-0.095,-0.560,-2.938,-0.562,+2.375,15, 19, 13, 5, 4, 0, 0, 5,2.7083152712613296,0.9004788751003511
1503602261087,-0.883,-0.415,-0.132,-0.174,+0.812,-0.097,-0.575,-2.250,-3.312,+2.250,-8, -7, -6, -4, 1, 2, 1, 1,2.7094652827715455,0.897904859437282
1503602261109,-0.884,-0.414,-0.132,-0.174,+0.801,-0.097,-0.574,-1.500,-6.562,+1.438,7, 2, -1, -2, -2, -3, -2, -1,2.7101767716229554,0.8960165062729788
1503602261133,-0.884,-0.413,-0.131,-0.174,+0.797,-0.085,-0.581,-1.375,-8.312,+1.500,-4, 1, 1, -2, -3, -3, -1, -2,2.710476736928528,0.8929799765956773
1503602261146,-0.885,-0.412,-0.131,-0.173,+0.787,-0.079,-0.585,-2.062,-7.000,+1.750,-8, -2, -3, -1, -3, -1, -2, -3,2.7128046611761167,0.8909302959694011
1503602261169,-0.885,-0.411,-0.130,-0.173,+0.794,-0.091,-0.584,-2.188,-3.688,+3.250,-6, -7, -9, -5, -3, -3, -1, -3,2.713107940133986,0.8879011435513784
1503602261191,-0.886,-0.411,-0.130,-0.172,+0.796,-0.104,-0.585,-1.938,-3.188,+3.625,5, -1, -2, 0, -1, -1, 1, 1,2.7158855884121653,0.888257147670813
1503602261206,-0.886,-0.410,-0.130,-0.172,+0.800,-0.097,-0.591,-1.188,-5.000,+1.500,-22, -12, -4, -2, -5, -2, 1, 1,2.7154421653943763,0.8858553054705988
1503602261229,-0.887,-0.409,-0.130,-0.172,+0.790,-0.096,-0.595,-0.750,-4.875,+0.562,4, 3, 1, -2, 0, -1, -1, -1,2.7161565492225472,0.8839759756535253
1503602261250,-0.887,-0.409,-0.130,-0.172,+0.787,-0.100,-0.591,-0.500,-5.562,+0.562,2, 0, 0, -1, 0, -2, -3, -1,2.7161565492225472,0.8839759756535253
1503602261266,-0.888,-0.408,-0.130,-0.171,+0.792,-0.102,-0.586,-1.062,-6.688,+1.625,2, 8, 6, 2, -1, -1, -3, -2,2.718493116837962,0.8819324673939557
1503602261291,-0.888,-0.407,-0.130,-0.171,+0.787,-0.103,-0.594,-1.062,-4.562,+2.625,11, 8, 0, 0, -1, -2, 1, 1,2.7180593813517797,0.8795354200899321
1503602261310,-0.888,-0.406,-0.130,-0.170,+0.787,-0.102,-0.590,-1.562,-3.250,+2.188,-30, -9, -2, -2, -2, -2, -2, -4,2.7192542641473003,0.8769728739847472
1503602261326,-0.889,-0.406,-0.130,-0.170,+0.782,-0.100,-0.600,-1.125,-2.188,+1.750,4, 1, -2, -3, -26, -17, -4, 2,2.7204037881350907,0.8774942150644617
1503602261349,-0.889,-0.406,-0.130,-0.169,+0.793,-0.100,-0.597,-1.312,-2.875,+2.000,-12, -5, -7, -2, 1, 2, 1, -1,2.7220316630953048,0.8773273543500348
1503602261370,-0.889,-0.405,-0.129,-0.169,+0.789,-0.103,-0.598,-1.375,-2.938,+1.938,11, 3, 0, 1, 5, 6, 3, 7,2.7223497612022975,0.8743156545813658
1503602261386,-0.890,-0.404,-0.129,-0.169,+0.786,-0.109,-0.597,-0.438,-5.625,+0.750,-3, -5, -5, -1, -3, -2, -1, -2,2.723068809843739,0.8724444304255147
1503602261411,-0.890,-0.404,-0.129,-0.169,+0.776,-0.107,-0.601,-0.250,-5.188,+0.125,25, 27, 7, 1, 8, 4, 1, 1,2.723068809843739,0.8724444304255147
1503602261431,-0.890,-0.403,-0.129,-0.169,+0.768,-0.103,-0.603,-0.125,-3.250,-0.438,1, -6, -3, -2, 7, 6, 1, -3,2.722646512296371,0.8700530954805508
1503602261447,-0.890,-0.403,-0.129,-0.169,+0.778,-0.107,-0.607,-0.188,-0.438,-0.250,8, -6, 0, 1, 2, 1, -3, -4,2.722646512296371,0.8700530954805508
1503602261469,-0.890,-0.403,-0.129,-0.168,+0.782,-0.111,-0.604,-1.438,+2.000,+0.875,2, -3, 0, 1, 3, 1, 1, 3,2.7242818130712214,0.8698859596687979
1503602261493,-0.890,-0.404,-0.129,-0.168,+0.779,-0.101,-0.597,-1.375,+2.375,+0.812,2, -2, 2, 1, 3, 2, 3, 4,2.7247018229350948,0.8722778228452375
1503602261506,-0.890,-0.404,-0.129,-0.168,+0.792,-0.099,-0.596,-0.625,+0.812,+0.438,-7, -10, -5, -2, -2, -2, 2, 1,2.7247018229350948,0.8722778228452375
1503602261529,-0.890,-0.404,-0.129,-0.168,+0.793,-0.104,-0.608,-0.375,+0.375,-0.250,-11, 5, -3, -2, -1, -3, -6, -8,2.7247018229350948,0.8722778228452375
1503602261551,-0.890,-0.404,-0.129,-0.168,+0.792,-0.106,-0.599,-0.375,-0.500,-0.625,-3, 3, -1, -1, -2, -2, -2, -5,2.7247018229350948,0.8722778228452375
1503602261574,-0.890,-0.404,-0.129,-0.168,+0.785,-0.095,-0.595,-0.812,-0.812,-0.375,-6, -8, -8, -3, -1, -2, -3, 6,2.7247018229350948,0.8722778228452375
1503602261588,-0.890,-0.404,-0.129,-0.168,+0.788,-0.097,-0.599,-0.812,-0.625,+0.062,6, 6, 4, 1, -2, -1, -2, -4,2.7247018229350948,0.8722778228452375
1503602261626,-0.890,-0.404,-0.129,-0.167,+0.791,-0.105,-0.594,-0.938,-0.688,+0.938,-5, -3, 1, 0, -1, 0, 2, -1,2.7263372013616864,0.8721111491290698
1503602261641,-0.890,-0.404,-0.129,-0.167,+0.784,-0.105,-0.593,-1.562,-0.938,+0.688,3, 5, 2, -1, 0, 0, -3, -5,2.7263372013616864,0.8721111491290698
1503602261649,-0.890,-0.404,-0.129,-0.167,+0.786,-0.106,-0.595,-1.312,-1.250,+0.625,-6, -6, 0, -1, -3, 0, -2, 3,2.7263372013616864,0.8721111491290698
1503602261671,-0.891,-0.403,-0.129,-0.167,+0.782,-0.100,-0.593,-0.875,-1.250,+0.812,1, 1, 0, 1, -2, -2, 0, -1,2.7270556670929937,0.8702408822872557
1503602261686,-0.891,-0.403,-0.129,-0.166,+0.780,-0.101,-0.599,-0.250,-1.312,+0.688,1, -1, 2, 1, 1, 0, 0, -5,2.728692780612173,0.8700738208882305
1503602261712,-0.891,-0.403,-0.129,-0.166,+0.776,-0.103,-0.608,+0.125,-1.375,+0.625,7, 2, -2, -1, 0, 1, -1, 2,2.728692780612173,0.8700738208882305
1503602261736,-0.891,-0.403,-0.129,-0.166,+0.773,-0.099,-0.599,+0.250,-1.062,+0.375,7, -1, -2, -1, -1, 1, -6, -4,2.728692780612173,0.8700738208882305
1503602261747,-0.891,-0.403,-0.129,-0.166,+0.779,-0.114,-0.600,+0.250,+0.062,+0.125,4, -4, 0, 0, -1, -4, -12, -10,2.728692780612173,0.8700738208882305
1503602261769,-0.891,-0.403,-0.129,-0.166,+0.767,-0.105,-0.608,+0.000,+1.062,+0.062,-4, 2, 3, 1, 2, 2, 5, -1,2.728692780612173,0.8700738208882305
1503602261794,-0.891,-0.403,-0.129,-0.166,+0.770,-0.111,-0.597,+0.125,+3.125,-0.500,0, -3, -4, -1, -1, -2, -4, -4,2.728692780612173,0.8700738208882305
1503602261807,-0.890,-0.404,-0.129,-0.166,+0.790,-0.104,-0.600,-0.125,+7.750,+0.125,2, 5, 1, 0, 1, 1, 0, 0,2.7279749414998298,0.8719444092468905
