,Orientation X,Orientation X,Orientation X,Orientation X,Orientation X,Orientation Y,Orientation Y,Orientation Y,Orientation Y,Orientation Y,Orientation Z,Orientation Z,Orientation Z,Orientation Z,Orientation Z,Orientation W,Orientation W,Orientation W,Orientation W,Orientation W,Accelerometer X,Accelerometer X,Accelerometer X,Accelerometer X,Accelerometer X,Accelerometer Y,Accelerometer Y,Accelerometer Y,Accelerometer Y,Accelerometer Y,Accelerometer Z,Accelerometer Z,Accelerometer Z,Accelerometer Z,Accelerometer Z,Gyroscope X,Gyroscope X,Gyroscope X,Gyroscope X,Gyroscope X,Gyroscope Y,Gyroscope Y,Gyroscope Y,Gyroscope Y,Gyroscope Y,Gyroscope Z,Gyroscope Z,Gyroscope Z,Gyroscope Z,Gyroscope Z,EMG1,EMG1,EMG1,EMG1,EMG1,EMG2,EMG2,EMG2,EMG2,EMG2,EMG3,EMG3,EMG3,EMG3,EMG3,EMG4,EMG4,EMG4,EMG4,EMG4,EMG5,EMG5,EMG5,EMG5,EMG5,EMG6,EMG6,EMG6,EMG6,EMG6,EMG7,EMG7,EMG7,EMG7,EMG7,EMG8,EMG8,EMG8,EMG8,EMG8,Roll,Roll,Roll,Roll,Roll,Yaw,Yaw,Yaw,Yaw,Yaw,Accelerometer X vs Roll,Accelerometer Y vs Roll,Accelerometer Z vs Roll,Accelerometer X vs Accelerometer Y,Accelerometer X vs Accelerometer Z,Accelerometer X vs Accelerometer Z
,mean,std,amin,amax,RMS,mean,std,amin,amax,RMS,mean,std,amin,amax,RMS,mean,std,amin,amax,RMS,mean,std,amin,amax,RMS,mean,std,amin,amax,RMS,mean,std,amin,amax,RMS,mean,std,amin,amax,RMS,mean,std,amin,amax,RMS,mean,std,amin,amax,RMS,mean,std,amin,amax,RMS,mean,std,amin,amax,RMS,mean,std,amin,amax,RMS,mean,std,amin,amax,RMS,mean,std,amin,amax,RMS,mean,std,amin,amax,RMS,mean,std,amin,amax,RMS,mean,std,amin,amax,RMS,mean,std,amin,amax,RMS,mean,std,amin,amax,RMS,corr, corr, corr, corr, corr, corr
0,0.4880099502487565,0.013582894827679446,0.4701492537313432,0.5186567164179103,0.4881964221908377,0.3356896551724137,0.06953458137414262,0.267241379310345,0.5818965517241377,0.3427216584293435,0.41107981220657264,0.07255778263474336,0.1901408450704225,0.48943661971830954,0.41735003142891547,0.3741563786008233,0.026821680225185683,0.34156378600823034,0.44444444444444464,0.3751037271796294,0.6064548286604362,0.048601330196953445,0.5214953271028038,0.7495327102803737,0.6083732850631373,0.7026223091976517,0.09218583721741867,0.43248532289628183,0.8160469667318982,0.7085640607956845,0.5020675743822491,0.04185495302565438,0.443267776096823,0.6142208774583964,0.5037859947546689,0.39812262428189643,0.15689751946610625,0.23806164915003175,0.8104441466224637,0.4275397421973693,0.19259806392694068,0.041616676725181524,0.07363287671232877,0.286641095890411,0.19698443941836,0.5327199583983357,0.13243333481885494,0.29797191887675506,0.8393135725429017,0.5487215089686975,0.5232520325203251,0.11974597350287447,0.13008130081300817,0.7560975609756099,0.5366009688131401,0.3185714285714287,0.08708880214734531,0.16964285714285712,0.6964285714285714,0.3301076921784376,0.39249999999999996,0.10528899882358683,0.22916666666666666,0.7916666666666666,0.4061947968191653,0.4110416666666667,0.02848555179448059,0.34375,0.484375,0.4120143921940106,0.3778531073446331,0.02360634144578508,0.3389830508474576,0.44067796610169496,0.37857997828952444,0.6242735042735044,0.03851770750325231,0.4871794871794871,0.7179487179487178,0.6254448340277581,0.5489430894308943,0.1173402066974828,0.2439024390243903,0.951219512195122,0.5611805917471121,0.633898305084746,0.12486162438004716,0.23728813559322026,0.9152542372881356,0.6459176527201949,0.49227964630195864,0.036330750712677204,0.3637336496989536,0.5303366598645831,0.4936006226001242,0.5634122841638247,0.03176994326124665,0.5347174470566639,0.6380986355434531,0.5642953778984816,-0.22753971695599634,0.8692467936791226,1.0,-0.23397413302448536,0.2534236510135037,-0.14234082335131593
1,0.5278962331201138,0.02608376018153432,0.49253731343283613,0.5783582089552244,0.5285300332830043,0.6977969348659002,0.09918963900076769,0.5991379310344827,1.0,0.704700630612495,0.2568745808182426,0.07937080537304395,0.02464788732394374,0.34507042253521103,0.2686713222233283,0.21484094323600517,0.03265656062685138,0.17695473251028826,0.31275720164609044,0.21726977251707874,0.5195371606586562,0.05458107935826725,0.3719626168224299,0.6953271028037382,0.5223510967914857,0.4838318889199514,0.11710378185740089,0.14677103718199613,0.62426614481409,0.4975830795961967,0.40647888000384197,0.05157541668573051,0.3313161875945536,0.5521936459909228,0.40968632012621453,0.4278856542734656,0.17569602929104058,0.22263760551127415,0.8119019068444194,0.4620229888342939,0.18616516634050875,0.050677343487197574,0.10513972602739724,0.2808219178082192,0.1928338593997076,0.5943964539533959,0.155679898013527,0.35180031201248047,0.96801248049922,0.6141324556186035,0.5244547683572075,0.08017676957779281,0.18699186991869926,0.7235772357723578,0.5304517713198376,0.31462585034013607,0.10153217328039964,0.0982142857142857,0.7946428571428571,0.33035522767110476,0.37169312169312174,0.10124991351980557,0.20833333333333331,0.875,0.3850254521008086,0.408234126984127,0.02923062920122903,0.359375,0.5,0.4092627148202771,0.373419424266882,0.031188617778897487,0.3050847457627119,0.5254237288135594,0.3746990207379234,0.6251526251526254,0.03781608150809311,0.5384615384615384,0.7179487179487178,0.6262772241219784,0.5485869144405728,0.15053479507373932,0.07317073170731714,1.0,0.5685495872685126,0.637072908259349,0.10357452516211806,0.27118644067796605,0.8644067796610169,0.6453055803491465,0.2576861482808867,0.02571317931494586,0.1778139614580727,0.28432901584820636,0.2589456002380872,0.46423889268990565,0.03672422085479529,0.41203269390618924,0.5489783990029194,0.4656662006721794,-0.21261202820914804,0.890817038703035,1.0,0.06048418316197676,0.7273726494540216,-0.17276204408755813
2,0.5514925373134327,0.03355246264788117,0.49626865671641784,0.5820895522388061,0.5524918742453603,0.5931896551724137,0.043348091800880374,0.5474137931034484,0.7198275862068966,0.5947398111149859,0.29964788732394365,0.037061546796024754,0.21478873239436624,0.3556338028169015,0.30188564633582443,0.2058436213991771,0.022439980826470973,0.18518518518518512,0.27572016460905324,0.2070388324818083,0.5465420560747665,0.0332783564247058,0.4672897196261683,0.6242990654205607,0.5475340346358719,0.5809393346379649,0.05127541482018075,0.3835616438356165,0.6536203522504893,0.5831527204183165,0.4234190620272314,0.04357609369972608,0.32677760968229963,0.49016641452344933,0.42561085572539764,0.3721114010956715,0.1161138809854607,0.25202793256683365,0.7479838235639886,0.3894607547824804,0.18975989041095886,0.03859874767581297,0.13561643835616438,0.30547945205479454,0.19356880447137492,0.5663807800312011,0.11816395042171209,0.4040561622464899,0.8354196567862715,0.5783343780067302,0.5482926829268293,0.12550176769310756,0.3333333333333334,0.861788617886179,0.5621926235475821,0.31839285714285714,0.05745773531349168,0.20535714285714285,0.4821428571428571,0.32343372582339025,0.37333333333333335,0.06758508536779646,0.16666666666666666,0.5625,0.3792811182575092,0.41125,0.021043792409629777,0.359375,0.46875,0.4117773025252849,0.37762711864406795,0.02272419991602919,0.3220338983050848,0.42372881355932207,0.3782965796990611,0.6246153846153851,0.037982363067591875,0.5641025641025641,0.7179487179487178,0.6257461029877366,0.5551219512195121,0.13916011643356424,0.12195121951219517,0.9756097560975611,0.5719603202770673,0.6522033898305082,0.10996255476555825,0.44067796610169485,0.9661016949152541,0.6612255212013244,0.2780139294117012,0.021223907789948558,0.25214334440841,0.31628480890831945,0.2788067253915751,0.4901485903578903,0.032597226415616,0.43815728767377904,0.5443795077859769,0.491209698821611,-0.3092765992037433,-0.038478192381510345,1.0,0.3056585144050436,0.5307342638626239,0.1789892551729534
3,0.13942227066912613,0.009728794783522616,0.12313432835820892,0.20149253731343286,0.1397593906254725,0.8054290972491279,0.015173755749369725,0.7456896551724137,0.84051724137931,0.8055712135248216,0.8038653267922136,0.042368761364003964,0.5774647887323943,0.8556338028169013,0.804974838525861,0.3912701715448281,0.01658511089679937,0.3621399176954734,0.44444444444444464,0.391619544622219,0.20089257586894885,0.05143760022501853,0.08037383177570101,0.34392523364485994,0.2073373810028751,0.6971019591459773,0.03405784883101167,0.5538160469667319,0.7808219178082192,0.6979287657145121,0.08619048428496145,0.021190058528140425,0.027231467473525006,0.16036308623298035,0.08874286216596622,0.3599649323863968,0.07287606511098123,0.2718605252639252,0.8412922338999789,0.36722722772137184,0.21462210250885005,0.04010302408165568,0.15205479452054793,0.465413698630137,0.2183159735319001,0.5166656032533438,0.041292710980301045,0.36582839313572546,0.6575725429017161,0.5183038244305057,0.5238421485338447,0.05782415657517119,0.36585365853658547,0.7479674796747968,0.5270061149632504,0.31450642054574635,0.07976649136255502,0.0982142857142857,0.5803571428571428,0.32440905696618216,0.38155430711610483,0.09466274684625231,0.125,0.8541666666666666,0.3930577337013887,0.4106390449438202,0.026573533771504936,0.328125,0.53125,0.4114931479131757,0.37488097505237084,0.02273690744416026,0.3050847457627119,0.44067796610169496,0.3755659836933798,0.6202823393834627,0.03623655642920273,0.5384615384615384,0.6923076923076923,0.621333961468282,0.5493285831734722,0.10592521488671522,0.21951219512195125,0.8292682926829269,0.5593916417709114,0.633403161302609,0.06624098752607864,0.38983050847457623,0.8644067796610169,0.6368381130478467,0.7049011151136814,0.008615295155094745,0.6481419397558326,0.7220780750785876,0.7049534654246544,0.09626293199773336,0.027394091140435478,0.0527503640233562,0.24063451204867914,0.10006384148301342,-0.2041979774987177,0.21889196747688647,1.0,-0.2407272713467715,0.6341459136146694,-0.5019395137204862
4,0.3687633262260127,0.004914129213462649,0.3582089552238803,0.3731343283582089,0.36879513211716286,0.49655172413793097,0.026832698428840004,0.4439655172413792,0.5344827586206895,0.49725550494751836,0.46177062374245476,0.04404632503642523,0.36971830985915477,0.5316901408450704,0.4638068098673238,0.40446796002351554,0.04337464899017138,0.34567901234567966,0.5020576131687244,0.4067209580446367,0.5124165554072095,0.037923914533047796,0.4373831775700934,0.5757009345794393,0.5137780235226099,0.623091976516634,0.03815737030386744,0.5401174168297456,0.6888454011741683,0.6242259178687614,0.3891938621136806,0.042398727024339784,0.31467473524962186,0.5128593040847201,0.39143090434074107,0.32491090532284017,0.023213182523358855,0.2703910089111472,0.36222990289435947,0.3257154470909101,0.15403115459882577,0.02533238506813345,0.07842191780821917,0.20444931506849315,0.15604163285819633,0.43238190327613096,0.05645388488152957,0.32293291731669266,0.5452480499219968,0.43594735127219575,0.5152148664343787,0.0668124787435041,0.3333333333333334,0.6910569105691058,0.519406127901685,0.29770408163265305,0.054264721568067456,0.18749999999999997,0.4553571428571428,0.3024702416512211,0.36309523809523814,0.07221930432947829,0.20833333333333331,0.5208333333333333,0.3700064349504774,0.40714285714285714,0.04466976604986397,0.34375,0.59375,0.40951640142455137,0.3690072639225181,0.05531789210654894,0.23728813559322035,0.4745762711864407,0.3730134038697424,0.608791208791209,0.1619703648359101,0.0,1.0,0.62937395936515,0.5414634146341464,0.12712139406676698,0.07317073170731714,0.7804878048780488,0.5557704276499348,0.6280871670702177,0.09516620943095862,0.38983050847457623,0.8305084745762712,0.6350522314296845,0.5487513884722149,0.01218460952639965,0.533454219070709,0.5783179486731629,0.5488827827602695,0.442837299077403,0.038582717354574025,0.3846966230165688,0.5221188169913035,0.44446705992566193,0.3854339872570494,-0.6886122980700177,1.0,-0.22422608908716274,0.3467491147379888,-0.7058664138452945
5,0.37560182956186805,0.01521230718042424,0.350746268656716,0.39925373134328357,0.3759047966858494,0.8396829810900994,0.025372686387273143,0.7456896551724137,0.8663793103448274,0.8400600564887729,0.5127782825988189,0.05469505238611065,0.3838028169014083,0.5950704225352111,0.5156402477252274,0.1775521040754019,0.026438100089427527,0.1440329218106995,0.2716049382716048,0.1794782689845134,0.3359059391015979,0.0845541979282084,0.17570093457943914,0.5476635514018691,0.3462179937669161,0.5573511773246639,0.06061912559726808,0.3033268101761253,0.6810176125244618,0.560585180188618,0.19657410570494363,0.047581983777718946,0.0907715582450832,0.3343419062027232,0.20216059793188168,0.3082789327860287,0.05843603596040434,0.20058310408878233,0.48640991276950934,0.3136807194555568,0.19396279275298267,0.07444649777313501,0.05136986301369861,0.4496547945205479,0.20754386132500946,0.46784198077600503,0.10923794139534239,0.10296411856474258,0.6965616224648986,0.4802255514220782,0.5382900603199582,0.10574883437801343,0.2276422764227643,0.83739837398374,0.5484146579113465,0.31725230414746536,0.06704411209919886,0.1964285714285714,0.5982142857142856,0.3241472487277983,0.38272849462365577,0.1148691709837998,0.125,0.7708333333333333,0.3993284433209851,0.41481854838709675,0.08958818200653099,0.171875,0.625,0.4242299118934935,0.3769819573537452,0.08877265027972968,0.1016949152542373,0.6101694915254238,0.38712901392619653,0.622001654259719,0.055313477711741756,0.46153846153846145,0.7692307692307692,0.6244167603778005,0.5448465774980333,0.0716139260229956,0.3658536585365854,0.7317073170731708,0.5494575768814054,0.6353198469108803,0.08089279209754578,0.33898305084745756,0.8135593220338982,0.6403666208118988,0.37752098459595307,0.01847955316991487,0.3495525111044926,0.4166574545222237,0.377965712373179,0.23521924789403273,0.036873518913406955,0.17516875861721604,0.32489186188170593,0.23804583809637123,-0.07756767408559158,0.4298000055887834,1.0,-0.23555435736274022,0.5374649045844984,-0.6179519789290945
6,0.8195071155848664,0.024127291324142867,0.7574626865671643,0.8432835820895521,0.8198539509342955,0.40878107457898943,0.024508398983419482,0.3663793103448274,0.4439655172413792,0.4094980582124695,0.20406157877497536,0.03469570144510376,0.14084507042253502,0.25704225352112653,0.20692250838204615,0.06325964207101187,0.03079583854227972,0.016460905349794608,0.12757201646090577,0.07020050250712774,0.6342968919800043,0.08479854800057654,0.4785046728971962,0.7869158878504672,0.6398094350328339,0.7642106221271558,0.028625668943857846,0.7123287671232876,0.8336594911937378,0.7647341024224623,0.5916335362206663,0.04052225198074374,0.5264750378214827,0.6838124054462936,0.5929874423709892,0.3226615005306663,0.05957355737126815,0.226305518327808,0.43497684042228024,0.32798920344371363,0.17362153552086654,0.05758849944655755,0.08630136986301369,0.33013698630136984,0.18271219571647782,0.5071465370242716,0.09640024628400509,0.312786271450858,0.6708268330733229,0.5160179270589544,0.5155984117980715,0.1370362072210141,0.3008130081300814,0.8943089430894311,0.5330890406112787,0.3131229235880399,0.03297276066638094,0.24999999999999997,0.40178571428571425,0.314814047388046,0.3667635658914728,0.05607511299172365,0.22916666666666666,0.5,0.3709269544742679,0.4018895348837209,0.11341013201048512,0.171875,0.703125,0.41722648922851663,0.37012219156484033,0.12747757947903646,0.11864406779661019,0.728813559322034,0.3909770461040217,0.6255217650566491,0.053709208634949275,0.4871794871794871,0.7179487179487178,0.6277699197090397,0.5411230856494611,0.14323610111323098,0.07317073170731714,0.8048780487804879,0.5593332143741098,0.6350019708316909,0.10056874673537756,0.40677966101694907,0.8644067796610169,0.6427335099279047,0.08248823033403792,0.02246272018842621,0.0505537403198244,0.13664502156998193,0.08542334380909355,0.6488923904733309,0.03473550098105275,0.6028098794185427,0.7122305258452853,0.6497998384297531,-0.17517396590675574,-0.5570871518100674,1.0,0.1580556329211411,0.5088439920879234,-0.1739521979726922
7,0.19518317503392116,0.008056550709062945,0.18656716417910424,0.21268656716417933,0.1953463582461314,0.7196708463949841,0.0120770485944064,0.6896551724137929,0.7370689655172413,0.7197703316632783,0.7986555697823304,0.014863235296086977,0.7499999999999999,0.8239436619718309,0.7987913483867738,0.3480733258511039,0.008878994316959045,0.3374485596707819,0.36625514403292225,0.3481844960900634,0.24431605777400173,0.07159840288444795,0.14579439252336446,0.5233644859813087,0.25440806071796673,0.7584415584415584,0.024563140645405525,0.7005870841487281,0.8140900195694716,0.7588319810657699,0.12677760968229956,0.02633643650127607,0.07715582450832081,0.21028744326777604,0.12943554052825548,0.3287578472173239,0.031046674345195025,0.2410006818555877,0.3820742517222732,0.3301940228309225,0.19065972602739728,0.03171977019794518,0.11540821917808218,0.2636986301369863,0.1932329718920324,0.5003123528577506,0.0366669585766736,0.40561622464898595,0.5608486739469578,0.5016298151422646,0.5250554323725054,0.0713873284109656,0.3089430894308944,0.7479674796747968,0.5297987357826076,0.3137987012987012,0.08481565320456157,0.12499999999999997,0.5982142857142856,0.3248577004015821,0.36704545454545456,0.1442535079008945,0.08333333333333331,1.0,0.3938947745710058,0.4082386363636364,0.06206842789342756,0.28125,0.703125,0.41284528420848143,0.3784283513097073,0.057343430957371586,0.1864406779661017,0.576271186440678,0.3826702228270581,0.6163170163170167,0.04440158912471783,0.5384615384615384,0.7179487179487178,0.6178853617329501,0.5277161862527716,0.11520295907034223,0.19512195121951226,0.7317073170731708,0.5399210969941769,0.6335901386748841,0.07660114920945696,0.37288135593220334,0.7966101694915254,0.6381202972606992,0.6652102752886979,0.006975629895741883,0.6504727601312981,0.6752183270342096,0.6652461837887667,0.14635766306584663,0.01335644938715267,0.12461287577045876,0.18632042522464476,0.14695481188990028,-0.2150410682393469,-0.09775636411526444,1.0,0.28432787471446663,0.6379485854434458,0.010187026634946422
8,0.18327114427860688,0.021747429081054568,0.13805970149253755,0.2201492537313432,0.1845355805410749,0.7501436781609192,0.04392099218772151,0.6249999999999998,0.818965517241379,0.75140697398079,0.6336854460093896,0.03129959250987885,0.5915492957746478,0.6901408450704225,0.6344450970997271,0.4371056241426612,0.028732671211854657,0.3909465020576133,0.497942386831276,0.43803325628563616,0.31012461059190044,0.04965678689593764,0.1850467289719624,0.42429906542056073,0.31400951254942244,0.574624918460535,0.07086071390466579,0.4383561643835617,0.7045009784735812,0.5789053034345115,0.1799293998991428,0.02925978142250192,0.11800302571860821,0.25113464447806355,0.18225381983233346,0.3206363201743043,0.04985083609942584,0.20867132209447228,0.47097411299992953,0.3244246249034341,0.22410383561643826,0.05870191348177163,0.11403835616438356,0.3791123287671233,0.2315405188593291,0.47060592823712954,0.070201919957716,0.3361996879875195,0.6053042121684867,0.47572692877838796,0.5219512195121948,0.011671741762219265,0.4959349593495936,0.5447154471544716,0.5220795290120422,0.3171130952380952,0.0868071793537352,0.14285714285714285,0.8839285714285714,0.32858881618072094,0.3795138888888888,0.07011009832179511,0.22916666666666666,0.6458333333333333,0.385829358630835,0.41328125,0.1342704128363413,0.0,1.0,0.43419979230236466,0.38220338983050844,0.15400129054498007,0.0,1.0,0.4115829872528249,0.625641025641026,0.053452546202270426,0.5128205128205128,0.7692307692307692,0.6278823521030049,0.5406504065040649,0.06556390047085663,0.41463414634146345,0.6829268292682927,0.5445455383594782,0.6302259887005648,0.04849400520940455,0.5084745762711864,0.7457627118644068,0.6320579648253529,0.6706065322470243,0.017952750075879244,0.6390141381989007,0.7062296398910402,0.6708427913009214,0.20954957238731978,0.022283405485321393,0.18474111356241163,0.2874212524254053,0.2107114083568601,-0.2045278905461128,-0.3171908641572878,1.0,0.17119225951500197,0.48047790555232595,-0.14043057756958582
9,0.6397073076177555,0.05899614478471097,0.44029850746268684,0.6977611940298507,0.642386785849933,0.5047021943573665,0.035593374215394914,0.4439655172413792,0.5689655172413794,0.5059394629622483,0.25845985000914573,0.07826149484869367,0.11267605633802824,0.3485915492957745,0.2699014857051951,0.17973384640051326,0.12067924833982373,0.06172839506172867,0.4238683127572016,0.21605230941872972,0.5888821458914917,0.07757506909168954,0.41869158878504664,0.7327102803738317,0.593903964173756,0.6292982946603303,0.09127114543723772,0.43444227005870845,0.7534246575342466,0.6357975922833153,0.5132915496001729,0.08851123749151883,0.36006051437216346,0.6928895612708019,0.5207693449959232,0.3941641345182292,0.1397061458171783,0.25496696527238955,0.7626789870917685,0.41788717867898567,0.1970070805906422,0.07841588424727845,0.07294246575342464,0.36095890410958903,0.2118513226326535,0.4302028081123244,0.1240220209942372,0.11779095163806552,0.6014102964118565,0.4474998978284551,0.5253933058811108,0.04105572347193045,0.3577235772357724,0.6666666666666667,0.5269742002635894,0.31470315398886817,0.08074982172760936,0.0714285714285714,0.5446428571428571,0.32476749619323125,0.38474025974025994,0.07966030994562726,0.1875,0.625,0.392795646505177,0.41781655844155846,0.04791892646260741,0.34375,0.640625,0.42052001015015716,0.3761831388950034,0.055198808759596575,0.2711864406779661,0.6949152542372882,0.38015929850164887,0.6213786213786217,0.040305784701786,0.5384615384615384,0.7179487179487178,0.6226675270586309,0.5470383275261327,0.09605941484901658,0.29268292682926833,0.951219512195122,0.5553003749817553,0.6304204270305961,0.07201626278527441,0.40677966101694907,0.8305084745762712,0.634467415893612,0.2236669556528318,0.07499885135234752,0.15609346529627866,0.4702821250503031,0.23575132034568455,0.5630425478792372,0.06574003136456358,0.47376501126239,0.686247079722,0.56681790356374,0.10057689992227799,-0.7529077411969416,1.0,-0.36340201335521377,0.6522984809297463,-0.8279302628383265
10,0.9179104477611943,0.03067648570661739,0.8768656716417915,0.955223880597015,0.918410099419144,0.27887931034482755,0.015623713703571074,0.2543103448275861,0.3189655172413792,0.27930568855207816,0.16566901408450702,0.025861987844550828,0.13028169014084523,0.20774647887323927,0.167625605390771,0.06646090534979443,0.04812284408521309,0.0,0.12757201646090577,0.08170045813637045,0.6877102803738319,0.06769903400702477,0.5383177570093458,0.8336448598130841,0.6909515250415195,0.8327299412915851,0.09504439023444855,0.6810176125244618,0.990215264187867,0.8380016439934047,0.6812783661119516,0.032937968870163474,0.6111951588502269,0.7549167927382754,0.6820542494410763,0.33817303848957236,0.06247012907195885,0.2196985728057182,0.4342479603113024,0.3437527571698594,0.19867301369863008,0.0507131930266366,0.10205479452054793,0.31438356164383563,0.20488655060881633,0.43960592823712946,0.10968761385965681,0.19891419656786274,0.6973478939157567,0.4527515438511478,0.5345528455284553,0.034823097923584546,0.4878048780487806,0.6747967479674798,0.5356576113599426,0.30089285714285713,0.07109008627298441,0.1607142857142857,0.49999999999999994,0.30897243701782634,0.3708333333333333,0.07939407284815915,0.25,0.625,0.3790292791387552,0.406640625,0.023333771530340483,0.359375,0.46875,0.4072928322127398,0.3762711864406781,0.024636515948392813,0.3220338983050848,0.44067796610169496,0.37705674601523703,0.6224358974358977,0.03807055268723271,0.5384615384615384,0.6923076923076923,0.6235700275223262,0.5463414634146342,0.05377779685507433,0.4390243902439025,0.6829268292682927,0.5489159724354585,0.6372881355932203,0.043896971080091725,0.5423728813559321,0.7796610169491525,0.6387604701577415,0.05888447337175392,0.028409019570986283,0.019007380452769507,0.10101334230130599,0.06522481726635086,0.7424823431195233,0.01724063316309473,0.7157711146563407,0.7654871214761859,0.7426774793208188,0.33837868833644996,-0.8960002041998746,1.0,-0.3545783273460018,0.1455095435305213,-0.29774641397143
11,0.18690637720488468,0.004455538440753834,0.17910447761194037,0.1977611940298507,0.18695878649256145,0.7486565158978953,0.040144950787215354,0.6681034482758619,0.8017241379310343,0.7497181242161731,0.880921895006402,0.08491862812143636,0.7077464788732394,0.9577464788732393,0.884952488499283,0.31430709208487007,0.04717201256435094,0.2674897119341564,0.403292181069959,0.3177817619356115,0.19371282922684793,0.08510314669021429,0.0,0.36261682242990667,0.21136022982146868,0.8211299463745645,0.08425600410871846,0.6223091976516635,0.9315068493150684,0.8253855264615829,0.09118415623710625,0.05159250455018611,0.009077155824508187,0.211800302571861,0.10460290731263286,0.30506762523409203,0.041830541205738044,0.1976440713832264,0.4077966659612989,0.30788524736307965,0.19412894502757516,0.053152716278268224,0.07842191780821917,0.2876712328767123,0.20118292047316463,0.4855249711287152,0.07634956827262784,0.28549141965678626,0.5881435257410297,0.4914143359061749,0.5254988913525503,0.045206951570463436,0.3577235772357724,0.6829268292682928,0.5274146491462753,0.31470315398886844,0.11677558822586213,0.04464285714285715,0.7321428571428571,0.33540649254279825,0.37310606060606066,0.1022957989807086,0.14583333333333331,0.625,0.3866997042349673,0.40767045454545453,0.03439945845830833,0.265625,0.484375,0.40910042095273047,0.373321593660577,0.0338954086601594,0.3050847457627119,0.4915254237288136,0.37483728504353414,0.618714618714619,0.037285355657054556,0.5384615384615384,0.6923076923076923,0.6198224928489294,0.5413367120684196,0.04682187325258233,0.41463414634146345,0.6341463414634148,0.5433316228396843,0.6335020911292094,0.04518241125495991,0.5084745762711864,0.7457627118644068,0.635090416720727,0.6642966836464528,0.015333906468228667,0.6465800132078754,0.7034087025012083,0.6644713379611893,0.09155003191221801,0.05825754890110127,0.03047074659317539,0.20028190095678566,0.10831100211063369,0.7221991201148241,-0.32490948792798263,1.0,-0.5714723001995681,0.7797593133338604,-0.8164525028969052
12,0.1470292766934557,0.015183954358884507,0.12686567164179108,0.17537313432835866,0.14779623463954628,0.8346319628647211,0.023469892912280722,0.7931034482758621,0.8836206896551722,0.8349555415177311,0.7268418201516791,0.024318689227329653,0.6795774647887324,0.7746478873239436,0.7272407146992402,0.4013137068692625,0.02155333656406114,0.3621399176954734,0.44032921810699577,0.4018809575672526,0.22275341480948968,0.05971418563950768,0.08037383177570101,0.33271028037383177,0.23046972687815173,0.6076320939334636,0.04759012879388133,0.5068493150684932,0.6966731898238747,0.6094571582145198,0.11218433608751309,0.02777383447881947,0.05748865355521926,0.1770045385779122,0.1155070422146413,0.33827113435810624,0.05520524660781304,0.2417295619665656,0.44158378594437003,0.3426607236471539,0.21641822971549,0.03957214788973646,0.13493150684931504,0.3,0.21993792425296999,0.4881644065762629,0.08100556317769697,0.30187831513260527,0.6599063962558502,0.4947122382807347,0.5237648530331455,0.013113924350903916,0.4959349593495936,0.5447154471544716,0.5239258431046775,0.3178228021978021,0.12700054312190254,0.10714285714285712,0.6785714285714285,0.34180447015838034,0.3802083333333334,0.10685859915055176,0.14583333333333331,0.6458333333333333,0.3946613046727319,0.41015625,0.027480183089320005,0.34375,0.46875,0.4110581316068278,0.3774445893089962,0.026023800032955378,0.3389830508474576,0.44067796610169496,0.37832344938671986,0.6203155818540439,0.037670245075557794,0.5384615384615384,0.6923076923076923,0.6214363837776056,0.5469043151969981,0.03593269375522184,0.48780487804878053,0.6585365853658537,0.5480608164162305,0.63102998696219,0.02994859114176209,0.559322033898305,0.6949152542372881,0.6317266134426028,0.6824968383401462,0.013439232405910061,0.6583943374434158,0.7050735939754547,0.6826265992368405,0.11707534962586018,0.016978149012647922,0.06710856557954126,0.13910668006093163,0.11827658948248121,-0.2861138268220277,-0.5525140068120944,1.0,0.07456666883311017,0.30608973527065336,-0.052351725030928324
13,0.7480946332168945,0.0669424215125657,0.5708955223880596,0.8208955223880601,0.7510203202956581,0.29557960381511356,0.02296253164620243,0.26293103448275845,0.35775862068965525,0.2964512799318609,0.20804614923584056,0.0598088374447553,0.12676056338028174,0.29929577464788726,0.21629652979363725,0.21495490762630257,0.08438597591231584,0.1111111111111116,0.3292181069958846,0.2305972566086153,0.6611652415987272,0.06578952335014873,0.5084112149532709,0.7887850467289719,0.6643610821031193,0.7326060706999207,0.10697682353678202,0.5636007827788649,0.9080234833659492,0.7402109195162977,0.6593169601184538,0.06195711444315239,0.5264750378214827,0.7609682299546142,0.6621599986420654,0.4028976111041907,0.13061038990357393,0.19838470762502647,0.7494533399167667,0.4231106237900419,0.21286796852229672,0.092066329240319,0.09041095890410958,0.39657534246575343,0.23153538850613306,0.39603969860922095,0.1164281375450427,0.1692605304212168,0.6138907956318252,0.41244943805818834,0.5229199100501642,0.016961406219290556,0.4796747967479676,0.5528455284552847,0.5231890677172562,0.31003039513677816,0.11029433049795134,0.15178571428571427,0.7053571428571428,0.32867135390800656,0.3829787234042554,0.09601758354103435,0.16666666666666666,0.5625,0.3945832256771892,0.41123670212765956,0.023291297387571602,0.359375,0.453125,0.4118817396859226,0.3728813559322034,0.02290386185397209,0.3220338983050848,0.4067796610169492,0.3735691784215062,0.6186579378068744,0.02809699616730148,0.5641025641025641,0.6666666666666666,0.6192820751353445,0.5319148936170212,0.06565074150876564,0.3658536585365854,0.6585365853658537,0.5358654414701802,0.6271186440677965,0.04621491148201961,0.5254237288135593,0.7627118644067796,0.6287830856850645,0.22255746897359469,0.06422987348769224,0.1445917381725521,0.38067661155800003,0.23145091822085875,0.7068367049622699,0.04811902953981348,0.6193395146499788,0.7763876006178533,0.7084379322026474,-0.37076358486830063,-0.701436832737421,1.0,-0.21856167938068186,0.5743793089456782,-0.7567418523732904
14,0.97089552238806,0.020603569392417587,0.9365671641791047,1.0,0.971109742677653,0.2325862068965517,0.021542221691187517,0.20258620689655182,0.2758620689655171,0.23356183251466833,0.12267605633802811,0.0451897314208094,0.06690140845070403,0.1901408450704225,0.13057826920287405,0.07539094650205785,0.02583290985511477,0.03292181069958877,0.12345679012345645,0.07961022083518537,0.7026168224299068,0.06945490818489922,0.5607476635514022,0.8355140186915886,0.7059730191353294,0.849393346379648,0.07517509650269488,0.7064579256360078,1.0,0.8526472459965623,0.7372163388804842,0.040892630337300145,0.6671709531013617,0.8411497730711044,0.7383269556124372,0.3202226611177729,0.05398696934612223,0.2417295619665656,0.513601843361313,0.3246518961831944,0.19881523287671235,0.05674647786730785,0.09109589041095889,0.34794520547945207,0.20659926504990114,0.4936823712948517,0.1462189829125,0.21294227769110757,0.7597503900156006,0.5144654263135614,0.5199999999999999,0.03167816130475969,0.46341463414634154,0.6422764227642277,0.5209447531030305,0.30946428571428564,0.0639439103216404,0.14285714285714285,0.4464285714285714,0.31587211229630674,0.3833333333333335,0.08687213999599062,0.2708333333333333,0.6875,0.3928616522107722,0.413125,0.024888142615654203,0.375,0.484375,0.4138590301962735,0.3759322033898306,0.026232942114115775,0.3220338983050848,0.42372881355932207,0.37682811128212845,0.6241025641025647,0.03897614912300703,0.5641025641025641,0.7179487179487178,0.6252941451155964,0.54,0.03553665352168117,0.46341463414634154,0.6341463414634148,0.541144709545099,0.6288135593220339,0.029900941973918797,0.5762711864406779,0.6949152542372881,0.629509870765784,0.03574321138475914,0.021936362338339233,0.0,0.07823659862461652,0.04182292520713616,0.7961500027601933,0.022630754228793033,0.751130209173276,0.8262367998348225,0.7964651498410216,-0.22969884638752588,0.4070130907561433,1.0,-0.372826349151768,0.44787986621124287,-0.6878218428274686
15,0.1982835820895522,0.009886874278795917,0.18283582089552208,0.21641791044776104,0.1985249964201204,0.6543103448275862,0.04717729386546297,0.5991379310344827,0.7155172413793103,0.6559750074993205,0.8019014084507039,0.09865520160174035,0.6690140845070421,0.9119718309859153,0.8078267516629056,0.38263374485596713,0.05846169941671228,0.3168724279835389,0.4691358024691361,0.38698578474566436,0.27663551401869163,0.11257089133248938,0.020560747663551426,0.47102803738317744,0.2982381080282482,0.7816829745596867,0.08802414946526146,0.6340508806262231,0.9412915851272016,0.7865249891693087,0.1616036308623298,0.07268905261440951,0.04841149773071107,0.2950075642965204,0.17690041806188292,0.2995321059932755,0.04496313300063376,0.18368954409724675,0.392360866191719,0.3028212875334475,0.16900679452054795,0.06471209662036405,0.01301369863013696,0.24897534246575342,0.18074069529061232,0.44383725429017146,0.07126142951024661,0.2753447737909516,0.5592761310452418,0.4494086512351152,0.5261788617886176,0.020052257240331925,0.4878048780487806,0.5772357723577237,0.5265531746682278,0.3142857142857143,0.10522765922776957,0.10714285714285712,0.5803571428571428,0.33109955189535684,0.38000000000000006,0.11691239912983901,0.14583333333333331,0.6875,0.3972343626738362,0.409375,0.02603103524484509,0.359375,0.5,0.4101852668307335,0.3806779661016952,0.024021030169948495,0.3220338983050848,0.42372881355932207,0.38141995696074993,0.6200000000000006,0.03263569759322528,0.5641025641025641,0.6923076923076923,0.6208411930455713,0.5473170731707317,0.03489891017574611,0.46341463414634154,0.6341463414634148,0.5484063765466278,0.6332203389830507,0.02960735373875598,0.5423728813559321,0.6779661016949152,0.6338983050847458,0.6938122482595439,0.011738547506875186,0.6744555527087694,0.7151076881707654,0.6939095571200782,0.18172142576520722,0.07279822333873393,0.09540072515427667,0.2713597325809197,0.1954898111845995,0.7215964899304693,-0.9070847728307159,1.0,-0.7229372227523565,0.7942152772130009,-0.902988759562661
16,0.19090909090909092,0.01765940874059657,0.1679104477611939,0.2201492537313432,0.19170932586350128,0.8086990595611285,0.02494779898639251,0.7629310344827587,0.84051724137931,0.8090767858361018,0.7490396927016649,0.022098319268245733,0.7183098591549294,0.788732394366197,0.749359672070704,0.3331088664422001,0.012681956305404281,0.308641975308642,0.3539094650205761,0.3333458034829172,0.22616822429906552,0.05613242679850294,0.1065420560747663,0.3271028037383179,0.2329069059755305,0.6730475004447609,0.03313535831307618,0.5831702544031312,0.7397260273972603,0.673847851567678,0.11376701966717094,0.028696217108102988,0.04387291981845687,0.18003025718608168,0.1172665144282502,0.3438678952892115,0.03591005669129248,0.2490888998612777,0.4276292586583904,0.3457039420410489,0.21731018679950187,0.025592099647464332,0.15479452054794518,0.265413698630137,0.21878474482516294,0.5047365763721459,0.05169726608616741,0.41420280811232446,0.6279188767550702,0.5073293072436099,0.5228381374722836,0.013356587640762658,0.4959349593495936,0.5528455284552847,0.5230056145215002,0.3194805194805194,0.1296459329255621,0.0,0.625,0.34434033893329663,0.38333333333333325,0.10382660541388006,0.1875,0.5625,0.39689848713608,0.409375,0.022178776975932384,0.359375,0.453125,0.40996444378806135,0.3784283513097075,0.02353398300764242,0.3389830508474576,0.42372881355932207,0.3791461399791305,0.622377622377623,0.0360782805477666,0.5384615384615384,0.6923076923076923,0.623403465614022,0.5436807095343683,0.034388330580565514,0.46341463414634154,0.6341463414634148,0.5447474370370687,0.6354391371340523,0.03075037102039788,0.5762711864406779,0.6949152542372881,0.6361692305190779,0.6312576609948882,0.014732512563294138,0.6095855465928781,0.6552297404354968,0.6314264289554337,0.12154546253781273,0.02363455696393836,0.08455607472391413,0.1599771156539581,0.12378099823109914,-0.524282077676084,-0.10284924027649786,1.0,-0.09698336185678864,0.6633272600731098,-0.022152610951252115
17,0.4817578772802656,0.15864936361816395,0.18283582089552208,0.7014925373134329,0.5066566371778197,0.5231800766283525,0.09535728061234475,0.43534482758620685,0.797413793103448,0.531609195402299,0.27723004694835673,0.11910099183909327,0.1901408450704225,0.612676056338028,0.30120810403753595,0.3718335619570189,0.12325446557397272,0.1440329218106995,0.5185185185185186,0.3912981836964609,0.5609968847352026,0.13229175212051011,0.2130841121495326,0.7626168224299066,0.5760466117058031,0.5158077843009351,0.09584546042855971,0.3581213307240705,0.7592954990215265,0.5244424481945744,0.5038493864515046,0.12513989368631356,0.1770045385779122,0.62178517397882,0.5188219322418017,0.5118812683036427,0.11407215217078086,0.25642472549434536,0.7024288166278715,0.5241619244606895,0.3019253576864537,0.16261184834669434,0.09931506849315068,0.6664383561643836,0.3420729764387265,0.32943303865487955,0.1459777024565703,0.09595007800312011,0.5928237129485179,0.35966939313518287,0.5239385727190604,0.014764504756316962,0.5040650406504066,0.5609756097560976,0.5241419410312579,0.31845238095238076,0.08214109258409635,0.15178571428571427,0.5535714285714285,0.32864744203547747,0.3810185185185185,0.08516248004759101,0.20833333333333331,0.6666666666666666,0.39021351784141567,0.4079861111111111,0.024529988346569356,0.359375,0.46875,0.4087065152710439,0.3751412429378531,0.018984151409875433,0.3389830508474576,0.42372881355932207,0.37561062460100936,0.6233618233618238,0.03659912855917588,0.5384615384615384,0.7179487179487178,0.6244114768754615,0.5506775067750679,0.09481856343627323,0.3170731707317074,0.8292682926829269,0.5586022612006872,0.6282485875706213,0.05853539634186142,0.49152542372881347,0.7457627118644068,0.6309092948681676,0.4052122880597494,0.15172007670734652,0.18914223243255268,0.6500162003688534,0.43209310008904955,0.5380157159153091,0.12262171970909676,0.19463829839493008,0.6385618450629337,0.5515096204678801,-0.7037418290330696,-0.6578731243703752,1.0,0.28969339760978563,0.7886107369065887,0.06588217438670224
18,0.7279777582674863,0.21886452213613322,0.2425373134328357,0.9365671641791047,0.7595485810487776,0.2934415145368491,0.1246363412150232,0.15948275862068972,0.607758620689655,0.3183355894400411,0.24088649544324772,0.1267882920974473,0.13380281690140827,0.6338028169014084,0.27163647271216335,0.23489066408456405,0.1253242657176817,0.09876543209876587,0.43621399176954734,0.26565359305528263,0.638006230529595,0.10088449201453203,0.28971962616822444,0.7738317757009345,0.6457786529116437,0.7518130539887189,0.1796275845251458,0.401174168297456,0.990215264187867,0.7725647346651126,0.63519326036012,0.15633891843232622,0.1301059001512861,0.7987897125567323,0.6537836670622026,0.5215771103061619,0.22642641278684184,0.21675954010016224,0.8986151277891422,0.5677202915641438,0.322193284985227,0.14649542683215866,0.1660931506849315,0.673972602739726,0.3533392432405761,0.3063534306078124,0.16691509515867967,0.034321372854914156,0.6060780031201248,0.34809019837087196,0.5222381635581058,0.013168546972681432,0.4959349593495936,0.5528455284552847,0.5224009091660312,0.3333333333333333,0.1129761277535076,0.01785714285714285,0.625,0.3516026873900595,0.3884803921568628,0.0940803004947182,0.25,0.6875,0.3994928872877014,0.4111519607843137,0.021760906945217866,0.375,0.46875,0.41171614844119836,0.3768693918245266,0.01812473468499677,0.3389830508474576,0.4067796610169492,0.37729643943102237,0.6274509803921573,0.030491456074280873,0.5641025641025641,0.6923076923076923,0.6281769111566456,0.5375418460066954,0.03270868454016485,0.46341463414634154,0.5853658536585367,0.5385165890146014,0.63177135260884,0.0342487699110491,0.559322033898305,0.711864406779661,0.63268082051243,0.25896445717590666,0.17694670994335984,0.11447557735674652,0.6562363023158095,0.31266404328375985,0.6888213154572279,0.13570008830481056,0.28889895512091657,0.788556270809135,0.7018035691650949,-0.800577158808692,-0.7142200245335079,1.0,0.49043395423590946,0.8727720696627028,0.45047729981570833
19,0.12633262260127934,0.0059972952493736065,0.11567164179104461,0.13805970149253755,0.12647199315258095,0.7475369458128077,0.012317836350202772,0.7241379310344827,0.771551724137931,0.7476363540755643,0.9324518539810294,0.02710994618241818,0.8908450704225351,0.9753521126760563,0.9328378263191162,0.3880910388846897,0.012408507301120185,0.3744855967078191,0.41563786008230474,0.3882853116583768,0.1622353614342934,0.07504715532348327,0.013084112149532645,0.34205607476635524,0.17843051225921058,0.834737809017932,0.034369969722126935,0.7534246575342466,0.8962818003913895,0.8354306653249167,0.07579733860261194,0.027807141599019213,0.0,0.12405446293494693,0.08063927897544351,0.3241486761876931,0.03610021020814873,0.25202793256683365,0.39455926265547486,0.3261119332669709,0.19278043052837573,0.037089651360836896,0.10890410958904108,0.25821917808219175,0.19624439431837326,0.49078213250979014,0.035093869818260987,0.4173229329173167,0.5429017160686427,0.49200970215038486,0.5282893645262984,0.03510595857215458,0.4146341463414635,0.6178861788617888,0.5294307597791749,0.3132288629737609,0.09461120762312691,0.08928571428571427,0.6428571428571428,0.32692647799109475,0.38392857142857145,0.08068715304598786,0.2708333333333333,0.625,0.39214627242853123,0.4116709183673469,0.025225024956080106,0.359375,0.46875,0.41242727984544664,0.37495676236596337,0.025337105976339414,0.3220338983050848,0.42372881355932207,0.37579441344476927,0.6232339089481951,0.036713884498133446,0.5384615384615384,0.6923076923076923,0.6242923243356613,0.5340965654554506,0.07080261688793185,0.3658536585365854,0.7073170731707318,0.5386741551732045,0.627810446212383,0.05336955758873804,0.47457627118644063,0.7796610169491525,0.6300286797294917,0.7506079350406778,0.006392531393073648,0.7412087794404134,0.7641887457520622,0.7506345999453525,0.06947929741391866,0.017597524949725944,0.042796363141416216,0.10117848543612118,0.07162908486575276,-0.23468629000511582,-0.0727730260548882,1.0,-0.06297293773377019,0.44513332722500615,-0.4110129014449097
20,0.1123985336475517,0.01954279341119645,0.0783582089552235,0.1455223880597014,0.11405547236310443,0.7218693284936483,0.025436581791941245,0.6896551724137929,0.7801724137931034,0.7223094876093209,0.7047195453422288,0.03353292999768245,0.6514084507042253,0.7957746478873239,0.7055029182497274,0.5321637426900587,0.04436433964098749,0.4197530864197532,0.5967078189300412,0.5339774470287014,0.2841777340547631,0.07840126455359728,0.042990654205607326,0.4074766355140187,0.29461144742096873,0.595014934596766,0.07401594929972877,0.4285714285714286,0.7553816046966733,0.5995206598206732,0.17111234970937167,0.03316442087394373,0.07564296520423608,0.24205748865355525,0.1742412663965093,0.34229562997805124,0.04747497017063794,0.21748842021114012,0.44012602572241427,0.34551502060957023,0.2212810382119682,0.04813822609816128,0.13390684931506847,0.3352767123287671,0.22636680961298677,0.5264524180967238,0.16646066351886896,0.2948517940717629,1.0,0.5517020713542672,0.5221794323206387,0.020955249003263184,0.44715447154471555,0.5691056910569107,0.5225923632207734,0.31845238095238093,0.11409639000574064,0.1339285714285714,0.6160714285714286,0.337937153067784,0.3790204678362573,0.13446544324383622,0.125,0.8541666666666666,0.40177140356332913,0.4128289473684211,0.03327000465263669,0.34375,0.53125,0.4141439530112561,0.37704430567945324,0.02057986437885025,0.3220338983050848,0.42372881355932207,0.3775956950203845,0.6279802069275758,0.037573011175791995,0.5384615384615384,0.7435897435897435,0.6290835431388493,0.5421480530594781,0.041488397848339735,0.41463414634146345,0.6585365853658537,0.5437054354813124,0.630389533154921,0.040697961753553565,0.423728813559322,0.711864406779661,0.6316788972925952,0.7850302295795057,0.02396984576746507,0.7284272476120726,0.8226865594157968,0.7853896707836786,0.18786997445210896,0.020929565686113847,0.11392169411509068,0.2119780666975889,0.18901187526257,0.0003281150369532586,-0.7321462713930627,1.0,-0.22360410917886284,0.12749174024466814,-0.2462431061360458
21,0.3850067842605156,0.0236655397011593,0.3432835820895521,0.42910447761194037,0.38572023388388216,0.6920062695924762,0.022608481593163986,0.6508620689655171,0.7370689655172413,0.6923687796818639,0.4131882202304737,0.07616523321474652,0.3098591549295773,0.5176056338028168,0.42002401451005617,0.30048634493078946,0.051065489400487524,0.2510288065843622,0.38683127572016485,0.3047167787592873,0.42599830076465606,0.09501797503212767,0.17383177570093467,0.5794392523364487,0.43627836850232365,0.5220779220779223,0.07924556876120818,0.37573385518591,0.6340508806262231,0.5279498438428609,0.3178379865217989,0.0655309001803399,0.140695915279879,0.4084720121028744,0.32440284584641144,0.31040161080367046,0.04928937340460921,0.19912534386682657,0.38060473536949524,0.3142203536395976,0.18993763387297635,0.06400836674190111,0.07671232876712328,0.36575342465753424,0.20024705634289552,0.45149522053609414,0.1086494438363771,0.2410234009360374,0.7067082683307332,0.4641529972690826,0.5232815964523281,0.022585201549871092,0.46341463414634154,0.5934959349593497,0.5237599126765476,0.31493506493506496,0.07822446513054468,0.08928571428571427,0.5892857142857142,0.3243330176037859,0.37765151515151507,0.07317025408629348,0.20833333333333331,0.5208333333333333,0.38454805888986043,0.4113636363636364,0.036588871644239775,0.328125,0.5625,0.4129581649788841,0.3771956856702621,0.045458075786363766,0.2542372881355932,0.576271186440678,0.3798755722166496,0.6200466200466206,0.04101700677509278,0.5128205128205128,0.6923076923076923,0.6213771937228205,0.5427937915742794,0.07758701786753751,0.3902439024390244,0.878048780487805,0.5482110867155628,0.6335901386748841,0.05193346512537758,0.47457627118644063,0.7288135593220338,0.6356764198242174,0.43140617976381923,0.01952525906336461,0.39551273149554866,0.46327846034933806,0.43183978061425515,0.3667467292968037,0.04876688067421951,0.2832946787853755,0.43310803166068335,0.36991638507007407,-0.5806421124135259,-0.16904947536208412,1.0,-0.2361915340476649,0.7596677223204163,-0.611544579171134
22,0.8477611940298513,0.17020253568072868,0.38059701492537323,0.9888059701492544,0.8644201928587499,0.08885941644562327,0.10379480256723227,0.0,0.4137931034482758,0.136027985778765,0.11776814734561207,0.10971967217071205,0.0,0.471830985915493,0.16038247016808396,0.3318138651471987,0.10904031976138094,0.1440329218106995,0.4897119341563787,0.3490090436806985,0.725549964054637,0.09685731768629742,0.3514018691588785,0.9588785046728971,0.7318878069906208,0.7766972753274125,0.14399449864253855,0.32876712328767127,0.9667318982387476,0.7897303857206626,0.8441289421622253,0.12705540640332225,0.3812405446293494,1.0,0.853491881784641,0.4616209353177682,0.1742517603678411,0.2476076273776775,0.8493804519056689,0.4929405952426252,0.27240775553213914,0.18017648270555914,0.08424657534246574,0.810958904109589,0.3258375526760142,0.3728072962918516,0.10260675303884993,0.22776911076443057,0.6606926677067082,0.38646015896110697,0.5163227016885553,0.06515366002984757,0.3414634146341464,0.6747967479674798,0.520354517623266,0.31318681318681313,0.10333528937407369,0.0625,0.6160714285714286,0.3295449624263684,0.38108974358974357,0.12547236469790715,0.125,0.7916666666666666,0.40091208779076754,0.4115384615384615,0.024748016443922407,0.359375,0.5,0.41227047810313144,0.37574967405475895,0.02444611038582261,0.3050847457627119,0.44067796610169496,0.3765318523440861,0.6201183431952666,0.03594671174204247,0.5641025641025641,0.7179487179487178,0.6211433378650014,0.5429643527204505,0.034567557475698556,0.46341463414634154,0.6341463414634148,0.5440467085016115,0.632333767926988,0.03940029527056474,0.5423728813559321,0.7288135593220338,0.6335412334715486,0.25762811578684985,0.11685222403073027,0.16873612411913896,0.5789728812838377,0.28251835331945185,0.883263985669904,0.11962671677642954,0.4836952843121677,0.9999999999999999,0.8912046102997192,-0.3098664601457577,-0.8961635592411913,1.0,0.27196142801798645,0.40287303384953077,0.5264152507153654
23,0.06358617869556314,0.010226996311470263,0.04477611940298498,0.0783582089552235,0.06439224188534809,0.7777515351913086,0.0324151615626309,0.7327586206896548,0.8232758620689653,0.7784174968845213,0.9169399961412306,0.0631048277062487,0.8063380281690139,0.9999999999999999,0.9190792266471249,0.48554033485540304,0.02960781622461374,0.4526748971193415,0.5432098765432101,0.4864298829449455,0.15580591473562921,0.07559982598408695,0.02616822429906529,0.3009345794392524,0.17295237643096362,0.765943757874701,0.057870496915036214,0.6379647749510764,0.8786692759295499,0.7680969717455054,0.06770563488280523,0.03942699306211753,0.0,0.140695915279879,0.07821282774345269,0.3135603265047929,0.0324684807940814,0.23291246384989778,0.3835437680750512,0.31521395825093634,0.1845046350159503,0.02880873856136425,0.1267123287671233,0.2458904109589041,0.18670976051603516,0.48348017865920123,0.04785501901360233,0.374414976599064,0.5756630265210608,0.4858104720251292,0.5266733489252701,0.07686936545782838,0.3089430894308944,0.6829268292682928,0.5321773877077007,0.3110322896281799,0.09174458580809346,0.1607142857142857,0.5892857142857142,0.3241031500942785,0.3787100456621005,0.10372257568304523,0.0625,0.6875,0.3924694847031237,0.410958904109589,0.026644701686245446,0.34375,0.5,0.41180995105469614,0.3768284188530301,0.025970355221367793,0.3220338983050848,0.42372881355932207,0.377710044129642,0.6262732701088866,0.04356413866274336,0.5384615384615384,0.7179487179487178,0.627765916008385,0.540260608085533,0.03218096122343049,0.4390243902439025,0.6341463414634148,0.5412050927489774,0.6315300673322499,0.02963105794779802,0.5762711864406779,0.7288135593220338,0.6322153099601974,0.8294137176929819,0.006401730311930624,0.8142115689053777,0.8401979746337216,0.8294380843974745,0.060185583722181864,0.045697699338160314,0.0,0.13453741363315774,0.07537889387095063,0.07622829305669315,-0.3523722703956976,1.0,-0.5134724401065868,0.7996435155520876,-0.7672685473380236
24,0.3770064770487186,0.026807028979212603,0.2798507462686568,0.41044776119403004,0.3779403944166069,0.3139232270657124,0.05960454324224832,0.22844827586206895,0.43103448275862055,0.31942677089010085,0.34639914961466906,0.09048106463885044,0.22535211267605626,0.5105633802816902,0.3578054297413014,0.6109946424411834,0.06432546532398463,0.5144032921810697,0.7901234567901236,0.6143078605504018,0.609063657203315,0.08914897318058035,0.433644859813084,0.7981308411214951,0.6154316569458244,0.49643687922312907,0.17702106034403362,0.1819960861056752,0.7651663405088063,0.5264929030623359,0.5623269488767733,0.047171496622868826,0.44629349470499247,0.6611195158850227,0.5642647991525535,0.2865554669779158,0.09574000679142547,0.1521008205779314,0.5525381486445182,0.3018397560787599,0.19404890152494178,0.05965334931744367,0.07911232876712329,0.3089041095890411,0.20284564659291415,0.33763494539781586,0.17304293385536898,0.0,0.7067082683307332,0.3786505445366527,0.5310630464795214,0.1515286435334098,0.27642276422764234,1.0000000000000002,0.551865621375721,0.30946765498652284,0.11800928039866818,0.0714285714285714,0.6339285714285714,0.33080758975010316,0.37853773584905676,0.09989108727935622,0.16666666666666666,0.625,0.3912553875691513,0.408313679245283,0.04123043404442029,0.296875,0.515625,0.41035098982054147,0.37607930924208516,0.04783060315956366,0.1864406779661017,0.5084745762711864,0.3790517748686723,0.6236090953072091,0.04170225605113859,0.5128205128205128,0.7179487179487178,0.6249756548171796,0.5425678785089737,0.07028481134590595,0.3414634146341464,0.7073170731707318,0.5470161339513612,0.6354333226734891,0.05220087549497809,0.5254237288135593,0.7457627118644068,0.6375335482672785,0.6479602045554247,0.025868250433660655,0.6096554310481341,0.7186396348487709,0.6484666277359554,0.6090113378179224,0.01963544317040428,0.5606872353563416,0.6470940440236698,0.609321824390948,-0.33307207563468605,0.35074328558082857,1.0,0.18624954239683694,0.10588983475590208,-0.6885299572157231
25,0.5658549358470806,0.2699901860286416,0.17164179104477606,0.865671641791045,0.6259454086249366,0.42188445251058687,0.24135741425065096,0.14224137931034475,0.797413793103448,0.48499268364113574,0.28274030145787,0.24204107547264467,0.04577464788732377,0.6760563380281689,0.3708074606546424,0.34957764782326195,0.049733110777126874,0.24691358024691334,0.41563786008230474,0.35303614757295304,0.5691752746351861,0.20192790855259699,0.21121495327102813,0.9140186915887849,0.6033407202668382,0.6322655954955885,0.08853759455673205,0.48923679060665365,0.821917808219178,0.6383268474980187,0.550096876078244,0.27851858273727254,0.1043872919818456,0.8366111951588502,0.6154821290481869,0.48001643383340203,0.1745044778196344,0.2483482636194776,0.8075051139169078,0.5102287204771819,0.34106022590723384,0.1726775749337287,0.13801643835616437,0.846235616438356,0.381597310994644,0.3557899115964639,0.10262492334852238,0.12091107644305771,0.562396255850234,0.3700453571538998,0.5238910283839678,0.13640634477932106,0.0,0.821138211382114,0.5410564363757736,0.31578947368421045,0.04952947965755418,0.20535714285714285,0.49999999999999994,0.31958273261557246,0.3859649122807017,0.06624509368506741,0.25,0.5625,0.3915103271400512,0.4136513157894737,0.04156128983765933,0.3125,0.515625,0.4156975434646491,0.37972048765982774,0.03960184338040263,0.2711864406779661,0.4915254237288136,0.38174394639261494,0.6230319388214128,0.04413708086854042,0.5128205128205128,0.7179487179487178,0.6245660107815605,0.5459991442019683,0.09064727464582842,0.1707317073170732,0.7560975609756098,0.5533424231263937,0.6378233719892952,0.06791995279414342,0.5084745762711864,0.7796610169491525,0.641366386641635,0.37938517182096315,0.18915370251763075,0.1897898839146852,0.6636306146870923,0.42318379914450804,0.5978503160504599,0.27650587471824306,0.163077910498452,0.8653908016649933,0.657677105132752,-0.9152448665401883,-0.6430347883669366,1.0,0.5507318192032375,0.9373185989934364,0.5968917260148437
26,0.8272921108742006,0.1521561696510273,0.4664179104477615,0.9477611940298512,0.8408871845179254,0.17980295566502458,0.0960362497,0.06465517241379293,0.3706896551724137,0.2033810227705832,0.13466513365909735,0.0858881018863303,0.08098591549295753,0.408450704225352,0.15925111623856805,0.2680776014109349,0.06098662689415188,0.20164609053497973,0.40740740740740744,0.27478912561327984,0.7138661071905398,0.09096986884186266,0.4056074766355138,0.9551401869158878,0.7195216799580697,0.7700786772634686,0.11872983153357594,0.41878669275929553,0.9608610567514677,0.7789931019136627,0.7767143165889654,0.10273617937032616,0.47806354009077157,0.8698940998487141,0.783341847244753,0.46745711051578714,0.20290869795692867,0.24614986715572174,0.8479109355528909,0.5087709172219494,0.30183125524182275,0.13644534187421467,0.15856438356164382,0.9030794520547947,0.33066522711482643,0.4083871501798847,0.13505186339987754,0.19812792511700467,0.6731731669266771,0.4297055336291411,0.5153476024556165,0.11037934465810958,0.21138211382113825,0.7154471544715448,0.5267998729987651,0.31669096209912534,0.0627678688067372,0.14285714285714285,0.43749999999999994,0.3227267677756223,0.37585034013605445,0.06922175888994067,0.25,0.5416666666666666,0.3820436379130547,0.4103954081632653,0.019341660612434457,0.359375,0.46875,0.41084164368552584,0.3756485645105501,0.025738851846815142,0.3389830508474576,0.44067796610169496,0.3765113707975819,0.6227106227106233,0.04284174712769963,0.5384615384615384,0.7435897435897435,0.624152607523645,0.5440517670482827,0.12358700501935188,0.12195121951219517,0.8048780487804879,0.5576328217555345,0.6271186440677964,0.06265839834129613,0.44067796610169485,0.7288135593220338,0.6301775500943606,0.21734559782928403,0.10970038768063634,0.1253425640952761,0.4961197577854688,0.24295614530963916,0.8195533117089326,0.10276257801046888,0.544310433562072,0.9196518107967221,0.8258403386608021,-0.247222028391945,-0.862251315207217,1.0,0.49734118221821616,0.32510128423641976,0.800736907727685
27,0.1629557132370932,0.012611743637435523,0.13805970149253755,0.18656716417910424,0.16343504237924186,0.5729932165065009,0.027542044981494575,0.5387931034482756,0.6249999999999998,0.5736439269484644,0.6288963287924264,0.04803157079307876,0.5669014084507042,0.7077464788732394,0.6306978705910756,0.581393779936585,0.04200173424850735,0.5144032921810697,0.6378600823045268,0.5828841674019385,0.3940554619273785,0.09169013922555527,0.23738317757009342,0.6224299065420562,0.4044118787766426,0.5971576144493279,0.10687740877904046,0.3718199608610568,0.8727984344422701,0.6064921584862355,0.2732323107065798,0.040997536883331694,0.18608169440242062,0.3494704992435703,0.2762410895911093,0.31159817467760254,0.08497219109880466,0.04187533798876114,0.5011050762972891,0.3227930150841767,0.2015834718167528,0.04241886529127742,0.10170958904109588,0.2811616438356164,0.20592658530457716,0.4649235569422777,0.16737845619956918,0.10843057722308891,0.8931294851794072,0.493670122781887,0.5231240836998535,0.14444636569776567,0.16260162601626021,0.902439024390244,0.5423850241167391,0.3123536299765807,0.07731496390684396,0.17857142857142855,0.6517857142857142,0.3216277355905489,0.3763661202185793,0.054442254658390206,0.2708333333333333,0.5625,0.3802194445939856,0.4082991803278688,0.02758087802536883,0.359375,0.484375,0.4092144363509588,0.3767713253681581,0.0266903758355363,0.288135593220339,0.44067796610169496,0.3777000522692296,0.62547288776797,0.03604325953113201,0.5384615384615384,0.6923076923076923,0.6264935377940329,0.5429828068772491,0.07011246161935868,0.3414634146341464,0.8292682926829269,0.5474171166978589,0.6312864684634619,0.061240624060226644,0.47457627118644063,0.8983050847457626,0.6342014956644739,0.7880759278326321,0.015219505423533402,0.7583498214681703,0.8146805367917169,0.7882204666885049,0.3087800093124492,0.022428191685047796,0.2823496849417514,0.34301249964967984,0.3095801538240865,-0.016807001705463346,-0.5120010402358673,1.0,0.28538952403288287,0.23906213089602926,-0.5484456527763215
28,0.3553555750658473,0.06076289806531164,0.1679104477611939,0.4029850746268657,0.3604127076145906,0.29479377958079767,0.059968521465145586,0.24568965517241392,0.47413793103448243,0.3007142860900775,0.3921568627450979,0.055971345363871355,0.31338028169014076,0.5,0.3960534928713159,0.6244654240296942,0.06540928316796737,0.5061728395061729,0.7448559670781894,0.6278149014164088,0.6051310243723657,0.06640208226343686,0.38504672897196257,0.7121495327102803,0.6086923176520753,0.5619891792333372,0.12205810994773414,0.32485322896281804,0.7416829745596869,0.5748372800712274,0.5493162469223694,0.04183624137832335,0.3857791225416036,0.6308623298033283,0.5508759308451499,0.3782562753534792,0.1432828297253832,0.21821730032211803,0.734758176388987,0.40398667146437967,0.24231136180499593,0.12710986345136122,0.11369863013698629,0.789041095890411,0.2730474521849945,0.3859927197087883,0.09561511277577214,0.20592823712948516,0.7324555382215289,0.3974334782821961,0.5340347521122272,0.09585900529270097,0.3333333333333334,0.7560975609756099,0.5424038070393041,0.32212885154061627,0.1440667886635859,0.10714285714285712,0.9999999999999999,0.3522999731882524,0.388888888888889,0.10388851752755968,0.20833333333333331,0.6875,0.402263306770399,0.40839460784313725,0.040986326779099594,0.296875,0.515625,0.41040601347276556,0.37587238285144575,0.052592199704199614,0.2711864406779661,0.5423728813559322,0.3794624534165411,0.620915032679739,0.034520754027842215,0.5641025641025641,0.6923076923076923,0.6218551229535808,0.5423242467718796,0.036695196214247015,0.46341463414634154,0.6341463414634148,0.543539992426755,0.6334330342306415,0.10778172716327422,0.44067796610169485,0.9152542372881356,0.6423601226711281,0.6879680323020376,0.04823944329346905,0.649270202678975,0.8417108099791606,0.6896241215671384,0.5934983441726766,0.05004241068418764,0.42657238005797293,0.6453518985521199,0.5955631155482,-0.2296598942893518,-0.13820339584018093,1.0,0.10917505211223813,0.18424773090574864,-0.6187444801527612
29,0.18888059701492538,0.11658524666272464,0.11940298507462721,0.49626865671641784,0.22135075620682843,0.6320689655172415,0.0952097092627484,0.4008620689655171,0.6982758620689655,0.6390577189371667,0.7125352112676049,0.17251652672614312,0.25352112676056326,0.816901408450704,0.7327162754094865,0.46633744855967074,0.023017055521799595,0.41152263374485587,0.4814814814814814,0.4668937835066337,0.3182056074766354,0.14284169962570015,0.1065420560747663,0.7850467289719627,0.34821040300153894,0.6945988258317027,0.0696045683442496,0.5009784735812133,0.7632093933463797,0.6980081868162304,0.19909228441754911,0.13643013347835425,0.04689863842662634,0.5854765506807867,0.24057983167568603,0.5005466600832335,0.21494277799143655,0.3262326303167102,0.9676706402388846,0.5438964504158329,0.31140405479452055,0.16806485868135804,0.1636986301369863,0.7674630136986302,0.3530628359535763,0.47329198127925115,0.09706885179577777,0.12792511700468018,0.5702090483619344,0.4829484592504781,0.534959349593496,0.1514154563320071,0.16260162601626021,0.8943089430894311,0.5555624297281104,0.32035714285714284,0.0710320627312769,0.18749999999999997,0.5446428571428571,0.3279837523974849,0.36833333333333335,0.06249149602009806,0.20833333333333331,0.5,0.373492339650732,0.4053125,0.029002399729177942,0.34375,0.46875,0.40632811748942504,0.3786440677966105,0.03898380279905818,0.2711864406779661,0.4576271186440678,0.3806056649875647,0.6246153846153851,0.04295564897954301,0.5128205128205128,0.7179487179487178,0.626061229211563,0.558048780487805,0.12902717070739364,0.2682926829268293,0.926829268292683,0.5724801236454118,0.6169491525423728,0.11999527063790674,0.25423728813559315,0.8813559322033898,0.6282811030889813,0.7239479647948565,0.10600830942130542,0.4402467608575109,0.7872330511631627,0.7315146356455562,0.23996816560553927,0.14330306687816363,0.1521837015426578,0.6123737993997184,0.27876472894044757,-0.8008045470526708,0.8892213298754531,1.0,-0.7027256274061465,0.8805912874939914,-0.8348422486473772
30,0.7116746774601571,0.1678959084865475,0.32835820895522394,0.8992537313432836,0.7308844658028303,0.25511396843950884,0.15687334571876818,0.08620689655172398,0.607758620689655,0.29878968793355215,0.2260682740510862,0.1452839549589508,0.08450704225352101,0.5915492957746478,0.2680607003857812,0.2869498500383624,0.014495851079638987,0.2633744855967084,0.3251028806584366,0.2873095623456479,0.6530967844131158,0.15420204046463556,0.19439252336448587,0.8803738317757008,0.6707537980369026,0.7375037314670466,0.07827658547666934,0.46575342465753433,0.8708414872798435,0.7415761097219103,0.6685812456729661,0.19027940121528492,0.22844175491679275,0.9122541603630863,0.6946894754703682,0.44378138538230755,0.10731591942700483,0.24981777997225557,0.6377700971056406,0.45635887868868136,0.32365349431158585,0.13080211178000795,0.13835616438356163,0.7876712328767124,0.3486700309942961,0.4072424971575134,0.10766076124096673,0.13260530421216848,0.5959438377535101,0.42099980533856063,0.5102659501171285,0.11021293355954309,0.2357723577235773,0.7317073170731708,0.5218355594140196,0.31265133171912834,0.06492675064611397,0.18749999999999997,0.4910714285714285,0.3192097888719217,0.3813559322033898,0.07622858632564329,0.25,0.5625,0.38877327108335424,0.413135593220339,0.02741426966212193,0.359375,0.484375,0.4140287702123601,0.3783395575983915,0.030096688135383905,0.3220338983050848,0.4576271186440678,0.3795145303645287,0.6205997392438075,0.04635472079560284,0.5128205128205128,0.7179487179487178,0.622299266290849,0.5427862753203803,0.08259881949910333,0.21951219512195125,0.7804878048780488,0.5489297486602418,0.6233840850330363,0.07163780788404803,0.44067796610169485,0.7966101694915254,0.6274174928665938,0.2955151115396809,0.09579434956648515,0.19578453670024132,0.5412345033330199,0.31040329200225847,0.7213069441818164,0.1741037541623188,0.3124274188531665,0.9047701935745905,0.7416751716484721,-0.7154536640299902,-0.7467981858253158,1.0,0.6711931086280294,0.7661712861394687,0.7488592729060226
31,0.2252132196162047,0.015612224564032828,0.1977611940298507,0.2425373134328357,0.22574406596398455,0.5947506157635465,0.029595823817232365,0.5560344827586206,0.6594827586206895,0.5954733969194286,0.709507042253521,0.0403933250695774,0.6760563380281689,0.8133802816901408,0.7106354393311707,0.4160787771898882,0.025095563828868888,0.36625514403292225,0.4526748971193415,0.4168214125372032,0.3561415220293725,0.06836854832066114,0.13457943925233629,0.4953271028037385,0.3625294101350703,0.7272155437517471,0.04338581360686722,0.6653620352250489,0.8708414872798435,0.7284855268856031,0.22898206181110872,0.026876812422360792,0.15582450832072614,0.28290468986384265,0.23052602529247385,0.2877634213027808,0.03161360035066898,0.22851567092238603,0.3401989137335121,0.28946391758934636,0.2008131115459882,0.03127335882832765,0.12362739726027397,0.24794520547945204,0.2031907085603351,0.5029115221751725,0.05067472384704909,0.36817472698907955,0.5858096723868955,0.505412772813335,0.5220673635307784,0.1586793322194105,0.13008130081300817,0.9268292682926831,0.5452374117828767,0.3104272959183673,0.0703034576525097,0.08035714285714285,0.4553571428571428,0.31814999908935077,0.37611607142857156,0.09184036941446123,0.20833333333333331,0.6875,0.38697200651903113,0.4087611607142857,0.029311583158618544,0.3125,0.484375,0.4097920364207182,0.37923728813559343,0.029545228542496898,0.288135593220339,0.44067796610169496,0.3803659466559366,0.6227106227106232,0.045003612102232186,0.5384615384615384,0.7435897435897435,0.6243057569966951,0.5304878048780488,0.13449863034248385,0.09756097560975613,0.8048780487804879,0.5469772930286756,0.6395278450363195,0.10891144076363722,0.44067796610169485,0.9661016949152541,0.6485720857392271,0.6861893501566344,0.034672658707853354,0.6318982875891752,0.7347632045265047,0.6870491611183559,0.2594373522195649,0.016852217139691626,0.21987852729068103,0.28203497887099893,0.2599743556011788,-0.061916463449854894,0.6751780921886639,1.0,0.06813317064531905,0.591421581081539,-0.31728154758819543
32,0.17354715782788185,0.049933321281501304,0.0820895522388061,0.2201492537313432,0.18044085693099732,0.48532648569332354,0.1345384271148021,0.3620689655172413,0.7327586206896548,0.5032467259550292,0.36679652382379374,0.1246016897035586,0.267605633802817,0.6760563380281689,0.3869559916242732,0.8364416425882149,0.10714191036349602,0.5925925925925928,0.9506172839506173,0.8431309317619597,0.48649830980314157,0.1011035217796707,0.1962616822429908,0.6280373831775701,0.4966739774268076,0.3198984052962484,0.13703785969472349,0.1154598825831703,0.538160469667319,0.3474403596745775,0.4575916567418803,0.14334616587720717,0.15128593040847216,0.5930408472012104,0.47906268220276865,0.37927504193436884,0.15694746937694581,0.13666502080835158,0.736968328983565,0.4098267556665752,0.29801084232002334,0.13010331492544266,0.10444931506849314,0.628427397260274,0.3246185276140488,0.5716307631028642,0.20577691705750772,0.23712948517940713,0.9508642745709829,0.6067989203838157,0.5211901055180767,0.07266298128530004,0.2276422764227643,0.6666666666666667,0.5261242215038735,0.31174012158054704,0.07913647112150193,0.18749999999999997,0.6785714285714285,0.32142065593090524,0.37810283687943275,0.08720389894825321,0.25,0.6666666666666666,0.3878201605774958,0.4095744680851064,0.03055201662443269,0.359375,0.46875,0.41068821568839686,0.37648755860079347,0.03059354597261687,0.3050847457627119,0.42372881355932207,0.37770217458502175,0.6197490452809606,0.04254406753902433,0.5128205128205128,0.7435897435897435,0.6211765982556263,0.5438505448884277,0.11199148073588995,0.21951219512195125,0.902439024390244,0.5550213094258106,0.6274792643346554,0.058445932097801336,0.49152542372881347,0.7796610169491525,0.630137663412782,0.841583172550167,0.020473813817403697,0.8056207230487784,0.8736450176516315,0.8418268792995081,0.4894430472268742,0.13813553611083063,0.20100655517900867,0.6069379440980202,0.5081632956254893,0.4564955007041637,-0.422310070591559,1.0,-0.5826909530428686,0.8374323232788702,-0.7258450766346735
33,0.42065615319628274,0.24598598107138042,0.1902985074626864,0.8507462686567169,0.48612654825576035,0.460068314899154,0.15710862579913407,0.21982758620689657,0.6551724137931034,0.4856750512674981,0.4034015413234118,0.27613315284931444,0.010563380281690016,0.6760563380281689,0.487384500668343,0.43699044956906596,0.06119350719723265,0.30041152263374515,0.5102880658436217,0.44117416589407266,0.5133133486157643,0.17795570012780823,0.2485981308411216,0.8037383177570094,0.5427350286085566,0.6183953033268103,0.0856322430091046,0.426614481409002,0.7925636007827789,0.6241852897764717,0.46596066565809374,0.2750552257912361,0.08472012102874427,0.8562783661119516,0.5397659300361317,0.5402958019965904,0.24414601132829258,0.26084503068350146,1.0,0.5919477704489585,0.3325080382527785,0.16269830230102417,0.17911232876712327,0.7205479452054795,0.36950356587675376,0.3929741853825096,0.12561250189147374,0.18252730109204368,0.6614664586583463,0.4122008047655885,0.5235465562202792,0.1392407280579969,0.12195121951219517,0.9268292682926831,0.5414085019005823,0.3111522911051214,0.07273437733518785,0.0982142857142857,0.4464285714285714,0.31938412784689796,0.37224842767295613,0.06421755077553529,0.16666666666666666,0.5416666666666666,0.3776439810391453,0.41067216981132076,0.026955059937961018,0.34375,0.484375,0.41153918081599244,0.3744803325871443,0.0315804973345149,0.3220338983050848,0.4576271186440678,0.3757845523708879,0.6221577164973396,0.044454510396235596,0.5384615384615384,0.7179487179487178,0.6237139896085098,0.5499309710078232,0.08388777165415445,0.2439024390243903,0.7073170731707318,0.5561730436979765,0.6335145506875598,0.06273709058634284,0.47457627118644063,0.7796610169491525,0.6365550764870209,0.5247464837951181,0.21377033494418304,0.16131520177318848,0.7160150968699921,0.5658572315913621,0.5064006720304565,0.24852257572983164,0.25622496090921454,0.8717300805318181,0.5630628408779137,-0.9114458222202365,0.4363555803141784,1.0,-0.6256995819403821,0.9749880598747238,-0.6181182723141683
34,0.6555883373828534,0.2040746638039971,0.2761194029850742,0.8582089552238807,0.6859110831573155,0.32367682437850837,0.14634576332389893,0.17672413793103448,0.6422413793103448,0.3545217869156884,0.2554864068129708,0.17798292334792884,0.09154929577464799,0.6056338028169013,0.31018466956377355,0.2942865345966122,0.05022769871997282,0.21399176954732546,0.37037037037037024,0.29844382367718625,0.6214735926972395,0.13324973074069751,0.3495327102803736,0.7981308411214951,0.6352731686236429,0.7157420470577528,0.09987836499614032,0.5146771037181996,0.8649706457925637,0.7225166939118585,0.6148893501741547,0.21212637181161895,0.20272314674735248,0.8335854765506808,0.649646099670427,0.5026257181492241,0.16155774740574846,0.27847922691683713,0.7457854271002329,0.5273770192981273,0.3485032175852182,0.1473748036782263,0.11335890410958903,0.6506849315068493,0.37771513692808756,0.3590323259442005,0.08627207040351764,0.17628705148205925,0.5132605304212169,0.3690176028342675,0.523161278124409,0.11086368096634565,0.3008130081300814,0.788617886178862,0.5345115968404532,0.3199750830564784,0.07390812738407747,0.21428571428571425,0.6517857142857142,0.3282063866679685,0.37403100775193787,0.09171101564854846,0.2708333333333333,0.8125,0.38485647010798624,0.4109738372093023,0.027812183092623826,0.359375,0.484375,0.4118920048012416,0.3740638549467876,0.033776080871476634,0.3050847457627119,0.4576271186440678,0.37555034340868965,0.6165772212283844,0.05336240882692078,0.46153846153846145,0.7435897435897435,0.6188285662425502,0.5087918321043676,0.19113088705587672,0.0,0.8048780487804879,0.5427251476498626,0.6381553015372486,0.17256628781695446,0.0,1.0,0.6605518714005484,0.318937155985439,0.15170784685417668,0.17573617132163077,0.5934449036152754,0.3524215393665141,0.6655926540131921,0.1864229058914696,0.28506339730505437,0.8314843341666399,0.6906220818876336,-0.849378371433679,-0.8133028499694932,1.0,0.5852255799644277,0.8842448180947923,0.7375050377179614
35,0.13705510907003443,0.014119202994442975,0.11940298507462721,0.1604477611940296,0.1377665457400435,0.6076757294429707,0.08131170117011745,0.5043103448275863,0.7198275862068966,0.6129879598220966,0.606784940411701,0.05447646423164322,0.5316901408450704,0.6690140845070421,0.6091786094383517,0.620845204178538,0.06852266243632668,0.5185185185185186,0.6995884773662553,0.6245428948641157,0.38324946081955436,0.08240190016911964,0.2429906542056075,0.6000000000000001,0.3918413506001178,0.5424883335842241,0.04451969244361727,0.45009784735812136,0.6183953033268101,0.5442770247288242,0.27016175957174443,0.07105756990311374,0.1709531013615735,0.39636913767019666,0.27917638688450747,0.32123017057241504,0.048948514347415775,0.231454703627942,0.4232207096000565,0.3248672089416775,0.23659114857744992,0.054494731941933716,0.12225753424657533,0.3126684931506849,0.2426683709189127,0.5341413656546263,0.07830635625259738,0.3580405616224649,0.6419719188767551,0.5397415706236666,0.5218886804252658,0.15348285762260983,0.12195121951219517,0.9918699186991871,0.5435731444323088,0.3143887362637362,0.03430047071993256,0.24107142857142855,0.3928571428571428,0.31621855472510346,0.3814102564102565,0.10210696184614103,0.0,0.625,0.3945872762643818,0.4104567307692308,0.04621837740218493,0.3125,0.546875,0.41300095237015355,0.378096479791395,0.044342836452468413,0.2711864406779661,0.5084745762711864,0.3806381772247432,0.6217948717948723,0.04244496826464943,0.5128205128205128,0.6923076923076923,0.6232140821916222,0.5426829268292684,0.07354836395942232,0.1707317073170732,0.6829268292682927,0.547549171055748,0.6313559322033898,0.06999388812450162,0.35593220338983045,0.7627118644067796,0.6351497801214268,0.8099804904271264,0.031128164020945624,0.7519428590706525,0.8420933557112362,0.8105669149254853,0.2989843112126892,0.07111352428824612,0.20632654697433106,0.3914252459150257,0.30716689132107644,0.7284506364270867,-0.6330177234305232,1.0,-0.6593217622962503,0.8650940984865598,-0.7882100351155287
36,0.05753210690732375,0.040501939194394335,0.0,0.1119402985074629,0.070087098683541,0.6691058540497195,0.03421019651714923,0.5474137931034484,0.6982758620689655,0.6699595243871973,0.3718473632492629,0.12249979139667458,0.21478873239436624,0.5492957746478874,0.39105968735996216,0.9268829553067278,0.04819123414338799,0.8436213991769548,1.0000000000000002,0.9281058122322196,0.3881330145620518,0.0750438594161922,0.23364485981308425,0.5495327102803738,0.3951554767846641,0.20247576571246537,0.15078313948392988,0.0,0.43444227005870845,0.2514025795665601,0.35362206663617496,0.10173779595324922,0.1709531013615735,0.49924357034795763,0.3676389995566473,0.29180138372393766,0.22051487828600824,0.0,0.7119747948555172,0.36420324409077465,0.22188620579802487,0.12394819043008037,0.04075616438356164,0.5065095890410959,0.25345484723170003,0.4789031672894822,0.15322114461854508,0.21840873634945396,0.7262152886115445,0.502273822317203,0.5466061637360561,0.11722466766492927,0.3089430894308944,0.7479674796747968,0.5587489134864229,0.31416112956810627,0.037843413288258514,0.24999999999999997,0.42857142857142855,0.31637957274949996,0.3696705426356589,0.05698067165531773,0.22916666666666666,0.4583333333333333,0.3739352886920395,0.40370639534883723,0.03356912382230315,0.328125,0.53125,0.4050673191789983,0.3756405202995665,0.03158581884391901,0.3050847457627119,0.44067796610169496,0.3769353564680728,0.6249254621347649,0.03957416161293254,0.5641025641025641,0.7179487179487178,0.626148166354964,0.5547362450368691,0.12940004059762086,0.2439024390243903,1.0,0.5692866308802622,0.6342136381553015,0.11627006626522188,0.37288135593220334,0.9322033898305084,0.6445395861396364,0.9290554691287896,0.049814419338148674,0.852604301916617,1.0,0.9303589803614667,0.3713008973128742,0.06701059104429051,0.2719166615866838,0.4547739954304454,0.37716090372857475,-0.6073271878790871,0.7289892572246119,1.0,-0.4318809153717743,0.6173010732757975,-0.8911144820095275
37,0.20461468169357294,0.16113209330614203,0.08582089552238781,0.5783582089552244,0.2594240757138023,0.5776741731175228,0.1298554417196848,0.3275862068965516,0.7241379310344827,0.591798745089502,0.5412474849094567,0.1785142394797058,0.1901408450704225,0.704225352112676,0.5693556181060406,0.5841101872847907,0.056396421662982185,0.4197530864197532,0.6460905349794239,0.5867711291061092,0.40839214190349027,0.14700507905203336,0.23177570093457933,0.7401869158878505,0.43353616269093004,0.5428731179360199,0.08680602917397297,0.39138943248532293,0.7455968688845401,0.5496296275832337,0.31816357405291923,0.19295288432913862,0.09682299546142215,0.6898638426626325,0.3710782435853512,0.48621509688731257,0.2590944969471514,0.20206437657238252,0.9257953022501235,0.5496954426220677,0.3067655577299413,0.1399933202974482,0.1756821917808219,0.6352767123287671,0.3366055188289166,0.37360247062943747,0.1191088605669664,0.07644305772230886,0.5366614664586583,0.3917603830567941,0.5261324041811848,0.08786194572258318,0.2439024390243903,0.7804878048780489,0.5332705531892524,0.3128644314868805,0.04385310311029057,0.20535714285714285,0.5089285714285714,0.3158607292975336,0.37414965986394555,0.060881708742221076,0.25,0.5416666666666666,0.3789708509842038,0.40529336734693877,0.07106141687380181,0.25,0.703125,0.4113506812586299,0.37115185057073696,0.0572943300940902,0.2711864406779661,0.5932203389830508,0.3754588443286784,0.625327053898483,0.05202883777048278,0.5128205128205128,0.7435897435897435,0.6274437659264493,0.543554006968641,0.12761249717351433,0.024390243902439046,0.7804878048780488,0.5580354487124379,0.6271186440677964,0.1070841323221744,0.33898305084745756,0.8644067796610169,0.6360116229220236,0.7389682757573656,0.1475771577409306,0.39045006366349444,0.8472180036657391,0.7532653319502198,0.35464215190926235,0.16978155354714825,0.22666587405370497,0.6981716090609554,0.3924392318492016,-0.9167611197819608,0.38032003205891457,1.0,-0.3201564131759537,0.9361027280089402,-0.5301939403487482
38,0.6219596462133774,0.31485511614037176,0.17910447761194037,0.9813432835820897,0.695795757101611,0.3033205619412514,0.27791341473679554,0.012931034482758674,0.7672413793103445,0.40964488959405904,0.2929055816379759,0.2604197610332358,0.02464788732394374,0.6830985915492956,0.39032836744618404,0.36107300716354224,0.06011657156522169,0.2633744855967084,0.44444444444444464,0.36595189945215956,0.596607822776047,0.24052794151813703,0.05607476635514019,1.0,0.6424353821255826,0.7162064216858737,0.13263920287968062,0.3796477495107632,0.9060665362035225,0.7281613814119887,0.6167423096318709,0.3327581970609371,0.07261724659606661,0.9561270801815431,0.6993200807604453,0.4730884748989191,0.2180738790219028,0.18149114763349086,0.8508499682584469,0.5200848499177795,0.357623033992897,0.21082514155810586,0.0,1.0,0.4141477727966758,0.3485149361530018,0.1327968816387873,0.009360374414976558,0.5616224648985959,0.37251992994016386,0.5280036133694671,0.10912697339675276,0.2439024390243903,0.7723577235772359,0.5389582364530348,0.314484126984127,0.02668256569422621,0.23214285714285712,0.3928571428571428,0.31559315741202465,0.3811728395061728,0.06791645319998064,0.14583333333333331,0.5625,0.387065832705157,0.4074074074074074,0.06704109019313244,0.234375,0.59375,0.41278574558632614,0.381669805398619,0.06390669307455873,0.22033898305084748,0.6610169491525424,0.3868853511463564,0.6244064577397915,0.03926981920815934,0.5384615384615384,0.6923076923076923,0.6256172835001279,0.5451671183378499,0.0649910968359545,0.3902439024390244,0.7317073170731708,0.5489561096081094,0.6396735718769615,0.08517226766546199,0.37288135593220334,0.9661016949152541,0.6452148902242731,0.39295911040062054,0.2057018729538069,0.16317369349092958,0.6791715412894876,0.4426584960042259,0.6599016907747204,0.30801586444369156,0.18298756817035444,0.9654581868397164,0.7270399524914399,-0.8261374501150244,-0.8363810484152978,1.0,0.8108028815270084,0.86457157051896,0.8402935487202917
