,Orientation X,Orientation X,Orientation X,Orientation X,Orientation X,Orientation Y,Orientation Y,Orientation Y,Orientation Y,Orientation Y,Orientation Z,Orientation Z,Orientation Z,Orientation Z,Orientation Z,Orientation W,Orientation W,Orientation W,Orientation W,Orientation W,Accelerometer X,Accelerometer X,Accelerometer X,Accelerometer X,Accelerometer X,Accelerometer Y,Accelerometer Y,Accelerometer Y,Accelerometer Y,Accelerometer Y,Accelerometer Z,Accelerometer Z,Accelerometer Z,Accelerometer Z,Accelerometer Z,Gyroscope X,Gyroscope X,Gyroscope X,Gyroscope X,Gyroscope X,Gyroscope Y,Gyroscope Y,Gyroscope Y,Gyroscope Y,Gyroscope Y,Gyroscope Z,Gyroscope Z,Gyroscope Z,Gyroscope Z,Gyroscope Z,EMG1,EMG1,EMG1,EMG1,EMG1,EMG2,EMG2,EMG2,EMG2,EMG2,EMG3,EMG3,EMG3,EMG3,EMG3,EMG4,EMG4,EMG4,EMG4,EMG4,EMG5,EMG5,EMG5,EMG5,EMG5,EMG6,EMG6,EMG6,EMG6,EMG6,EMG7,EMG7,EMG7,EMG7,EMG7,EMG8,EMG8,EMG8,EMG8,EMG8,Roll,Roll,Roll,Roll,Roll,Yaw,Yaw,Yaw,Yaw,Yaw,Accelerometer X vs Roll,Accelerometer Y vs Roll,Accelerometer Z vs Roll,Accelerometer X vs Accelerometer Y,Accelerometer X vs Accelerometer Z,Accelerometer X vs Accelerometer Z
,mean,std,amin,amax,RMS,mean,std,amin,amax,RMS,mean,std,amin,amax,RMS,mean,std,amin,amax,RMS,mean,std,amin,amax,RMS,mean,std,amin,amax,RMS,mean,std,amin,amax,RMS,mean,std,amin,amax,RMS,mean,std,amin,amax,RMS,mean,std,amin,amax,RMS,mean,std,amin,amax,RMS,mean,std,amin,amax,RMS,mean,std,amin,amax,RMS,mean,std,amin,amax,RMS,mean,std,amin,amax,RMS,mean,std,amin,amax,RMS,mean,std,amin,amax,RMS,mean,std,amin,amax,RMS,mean,std,amin,amax,RMS,mean,std,amin,amax,RMS,corr, corr, corr, corr, corr, corr
0,0.9779155222329446,0.013635776863363789,0.9569816643159379,1.0,0.9780089166401275,0.9725965477300339,0.021196093147757056,0.9363929146537843,1.0,0.9728234356833257,0.39956973608459845,0.030059276910676475,0.37305699481865284,0.5094991364421416,0.4006790263927366,0.42596820303983884,0.020944971195773335,0.3634232121922627,0.4466588511137163,0.42647380396888385,0.5944077060120179,0.10748286903906021,0.32530120481927693,0.8967297762478486,0.6038794676811764,0.7922300016095283,0.043199168142022765,0.6915137614678899,0.8807339449541284,0.7933862891345389,0.6352955281141349,0.10962984818342973,0.3656036446469248,0.8086560364464693,0.6445217274888361,0.3966856269237223,0.0941732310444371,0.25826662961734626,0.7165189175622741,0.40751993156697214,0.3777622509246346,0.1834408036696009,0.11263410836971605,0.9613920194943649,0.41924275369567604,0.5276009673259452,0.12808792405672684,0.2531127358942075,0.9562854807713548,0.5426614629705402,0.49052002202816447,0.07973165863638192,0.27802690582959644,0.7309417040358744,0.49684555011924814,0.5218846084282871,0.07122041709196436,0.38144329896907214,0.7216494845360825,0.5266373550812898,0.41904459945043326,0.028868505900348996,0.3614457831325302,0.5,0.42002041149591274,0.4649122807017545,0.025359983774033576,0.39189189189189194,0.5608108108108109,0.4655913171047392,0.46434267486899083,0.023862541687863805,0.3571428571428572,0.5,0.4649446749453283,0.5794172932330828,0.07114268782952778,0.31250000000000006,0.7232142857142857,0.5836924595260373,0.40935672514619886,0.06327045310966935,0.16666666666666669,0.6083333333333334,0.4141326453604163,0.4671265542497018,0.05440527768839678,0.2815533980582524,0.5776699029126213,0.47022890516711957,0.007862998037772045,0.0034752822006842523,0.0,0.013324141861494498,0.008584429919112119,0.6965883130701941,0.09038932714604707,0.48118780793729843,0.8020733508042821,0.7023262568004766,-0.02873098890497834,0.24863057030316887,1.0,-0.07580845506271508,-0.015239573172449715,-0.29066276244258543
1,0.9517078555221686,0.023145993806000596,0.9090267983074752,0.9767277856135401,0.9519862163200119,0.9203161100609115,0.025929561275814365,0.8896940418679551,0.9814814814814816,0.9206773465871628,0.6051287827588794,0.10614671911139427,0.5250431778929188,0.8981001727115717,0.6142682646374668,0.24027728222641287,0.053380359860674666,0.160609613130129,0.30597889800703404,0.2460724745903582,0.39519568959066065,0.14091666689666485,0.03786574870912207,0.6919104991394147,0.41931050262640857,0.5215646190666131,0.15277427175308297,0.0928899082568807,0.6731651376146788,0.5432457404872595,0.28484946023571345,0.09544524276564707,0.15261958997722092,0.5148063781321185,0.3002498790327581,0.4286490105610048,0.16102869423975455,0.2873981517169671,0.8140064358254977,0.4575897334782547,0.36801766456095725,0.043414417182137205,0.2760432531221444,0.4812248282397536,0.37054193550170267,0.6074063954305455,0.13320623190973963,0.38103863400410865,0.7846303373020256,0.6216860630164328,0.49717293819457986,0.0774516797531638,0.14349775784753366,0.7309417040358744,0.5031048491390874,0.5314320932317349,0.050186315288996364,0.38144329896907214,0.6443298969072165,0.5337708863847561,0.4159900471451022,0.030382340232911236,0.3373493975903615,0.5301204819277109,0.4170860491215623,0.4682726204465335,0.011453425158754867,0.43918918918918926,0.4932432432432433,0.4684111464598835,0.4704968944099378,0.010823544935629857,0.4480519480519481,0.5064935064935066,0.47062002020134647,0.5863742236024845,0.024267003526272358,0.5267857142857143,0.6785714285714286,0.586870698378192,0.4125905797101448,0.03222740865736668,0.30833333333333335,0.5416666666666667,0.41383366603032234,0.46691642043056136,0.12687442276236602,0.11165048543689321,0.8155339805825241,0.4836663045246644,0.053153850433177614,0.015669026679504566,0.0313915073176354,0.07773402504698518,0.0553911683820307,0.2967857777330521,0.12092229920284833,0.12056573563400441,0.5124944168735315,0.3202265812296402,-0.6572249140732905,-0.5359062950904564,1.0,0.8930419559178299,0.6914406205136243,0.48516292681468703
2,0.858393780643428,0.009374835429288375,0.8392101551480958,0.8801128349788434,0.8584443627320373,0.8257131354957442,0.040357721772471114,0.7632850241545894,0.9057971014492755,0.8266870859079851,0.41076568796776075,0.052210665428658855,0.3540587219343696,0.5613126079447324,0.41403134201137964,0.14564841176798954,0.024971675761299737,0.10902696365767872,0.17936694021101995,0.1477485052878372,0.45930661421194974,0.06412322689769218,0.32702237521514643,0.6247848537005163,0.463708318047847,0.6249863477501091,0.09751233018450582,0.3795871559633027,0.7660550458715596,0.632458212962503,0.2811720360125825,0.0948382765490296,0.1446469248291571,0.47494305239179957,0.2965551172206305,0.4537520546793334,0.24114308345765156,0.17422442924625545,1.0,0.5131750696192855,0.4162808809854195,0.10090835425817936,0.16816428063762817,0.6033776694757504,0.4281951046463538,0.5164426892299043,0.08285407464041233,0.36079020417780333,0.6925920199097289,0.5229685699557628,0.5017616912235748,0.04548153087738463,0.36771300448430494,0.5964125560538116,0.503794341573339,0.5213549337260677,0.058696402284751495,0.2577319587628866,0.6597938144329897,0.5246095876656464,0.4105708548479633,0.019759488602033862,0.3373493975903615,0.45783132530120485,0.41104040698724115,0.4675836550836554,0.009826784576274939,0.43243243243243246,0.4864864864864865,0.46768567500500874,0.469078540507112,0.010111028440131752,0.4480519480519481,0.5064935064935066,0.4691862029110749,0.5815263605442179,0.033170480394166396,0.4196428571428572,0.7857142857142857,0.5824603765036666,0.4111111111111111,0.05534263078934993,0.22500000000000003,0.6416666666666667,0.4147754699547582,0.48526352288488184,0.1139034999875665,0.05339805825242716,0.7087378640776698,0.4982973424413327,0.14924150085794718,0.015962265011196394,0.1054335121252909,0.17335443845723114,0.1500825979980857,0.31563754393221843,0.09160821553799131,0.19932919632237445,0.4440693706482173,0.32851060676341926,-0.13326431891525406,0.9162549687975993,1.0,-0.22665497257872178,0.5806740758407133,-0.39806489844479914
3,0.8597637786797873,0.008516753097559296,0.8385049365303243,0.8702397743300423,0.859805638798761,0.8551769492692164,0.02813118765663188,0.8220611916264091,0.9122383252818036,0.8556359841287395,0.45814710806998143,0.05507006996081149,0.41105354058721943,0.6649395509499136,0.4614199115344623,0.1463894830101216,0.028798669788576405,0.10082063305978894,0.18053927315357565,0.14917410331348413,0.4254969715284254,0.08130889207642082,0.19104991394148008,0.5714285714285712,0.43313778641912876,0.5438406050843894,0.07777583534398126,0.2660550458715596,0.6376146788990825,0.5493318742932198,0.28381644612147683,0.08264117733138636,0.12414578587699321,0.4191343963553531,0.29551515223749686,0.4030040740339572,0.13312046661821775,0.25937810922976257,0.7714295958337442,0.4242617907187514,0.41733483488720396,0.049821641375292804,0.32680982840897554,0.5700663349917081,0.4202756384790535,0.5411715356482251,0.10702846530417875,0.3626309705256493,0.7970518286172901,0.5515743648211928,0.4982370862287337,0.04734729501678579,0.25112107623318386,0.5964125560538116,0.5004646318361682,0.5250255764539233,0.02717159605941488,0.4484536082474227,0.6185567010309279,0.5257228506719752,0.41635243263128857,0.029098905991817543,0.32530120481927716,0.536144578313253,0.41736031288979786,0.4684856612337527,0.010817652688891961,0.43918918918918926,0.4932432432432433,0.4686095849388849,0.46911866759195,0.009900172581174612,0.4480519480519481,0.5,0.4692223241773131,0.5830834242093782,0.01722412092543431,0.5089285714285714,0.6517857142857143,0.5833358254644502,0.41234096692111905,0.02553594636320944,0.33333333333333337,0.5083333333333333,0.41312489614328657,0.4735788927592082,0.03865792505380386,0.28640776699029125,0.6359223300970873,0.4751420786822047,0.13791880480210553,0.01249689110036109,0.119697568689699,0.1543014544017473,0.1384795178008346,0.30586274767011795,0.08701473010876695,0.15055263566452948,0.4233209751289029,0.31790845455165634,-0.3542478241578362,0.3480812627017459,1.0,0.5337399716193059,0.5474501135525046,-0.03131599240198199
4,0.858274565115186,0.007315453298581447,0.8476727785613539,0.8702397743300423,0.8583053945770072,0.8431830381105745,0.02777015262344753,0.8115942028985508,0.892109500805153,0.8436351394128534,0.4137401650355019,0.013547743470247363,0.3937823834196892,0.4490500863557858,0.4139594499082873,0.15370587469063424,0.021490255758341747,0.1207502930832356,0.18171160609613135,0.15518439209658924,0.4585197934595523,0.08030747959658495,0.2375215146299483,0.7074010327022375,0.4654224247727604,0.5928007135575942,0.06172517889441963,0.42316513761467883,0.6777522935779816,0.5959700918637253,0.3084029359655785,0.06860678495054261,0.17995444191343962,0.4681093394077449,0.3158590873557423,0.3535119668308987,0.08283933570139419,0.21288419995876767,0.6207255093534595,0.3629832197736087,0.4289305550854948,0.07933608608546402,0.2543574643787863,0.618184587267743,0.43612578452096706,0.5246886855046603,0.08719201702128286,0.3575725446017687,0.7114635565078454,0.5318046566985548,0.4962132536123566,0.11635751870039686,0.06278026905829598,0.7533632286995515,0.5095254960093598,0.520561282932417,0.06571921098241622,0.32989690721649484,0.6804123711340206,0.5246475721169976,0.4151941097724228,0.04686498140261215,0.2530120481927711,0.5421686746987953,0.41780147396102596,0.4685435435435434,0.014683664638413947,0.43918918918918926,0.5270270270270271,0.4687710171680915,0.4691197691197695,0.014963781043019174,0.4220779220779221,0.5,0.4693557122061039,0.5807539682539686,0.026429246252091518,0.5,0.6428571428571429,0.5813483598780336,0.40490740740740727,0.050309504684675876,0.275,0.6416666666666667,0.4079864361700833,0.4728694714131606,0.08623757833248483,0.1553398058252427,0.7475728155339805,0.48058279668304305,0.14282014781147495,0.013119888981831033,0.12358089058227065,0.1602206642017498,0.14341483025025875,0.3423752678996079,0.05926207502639164,0.25864211272836757,0.4315253522305351,0.3474101257237001,-0.09230700138293885,0.6663156920125614,1.0,0.2158532215952348,-0.03677535721993869,-0.6598768131183449
5,0.822163580387339,0.006763119326289781,0.8039492242595203,0.8300423131170662,0.8221910975392078,0.7522120063027032,0.020948330618870067,0.7278582930756845,0.7914653784219002,0.7525005092038304,0.15345330287666906,0.06780893311859947,0.07426597582037986,0.3229706390328152,0.16762018423037042,0.2052591107917664,0.04648943506474513,0.1184056271981242,0.2754982415005862,0.2104027820619316,0.5558084874058441,0.09461375602158296,0.14457831325301185,0.8072289156626504,0.5637185308171085,0.8721268619907271,0.06272399863821304,0.661697247706422,1.0,0.8743553391555564,0.5273960859235314,0.13038838214565068,0.28815489749430523,0.8018223234624147,0.54310676095444,0.40011781760997367,0.09282413556780891,0.252099710477488,0.6750714842734598,0.41063114775815684,0.3736024180174399,0.09160300625338916,0.03913256845026569,0.6811182184316513,0.384551232615076,0.5577659794551474,0.09088883769784493,0.34883258598219613,0.7579392252582596,0.5650441071769805,0.49640773422055073,0.17889850807411958,0.0,0.9103139013452914,0.5273340293229674,0.5192329010087573,0.11317553008919566,0.21134020618556704,0.7989690721649485,0.5312944363885073,0.4166342790516906,0.04522252582076776,0.28313253012048195,0.5120481927710844,0.41905513867385796,0.46817785527462946,0.06493536737462932,0.2837837837837838,0.8243243243243243,0.4726116442702886,0.47102360005585825,0.1436715120951934,0.038961038961038974,1.0,0.4922222907873738,0.5902457757296469,0.14323551385490074,0.0,1.0,0.607195093533132,0.4084229390681003,0.11264077761667504,0.15833333333333338,0.75,0.4235101090001613,0.4735880572084767,0.06655768440508279,0.18932038834951453,0.616504854368932,0.47819236681268346,0.19681954621047393,0.00824902821170013,0.18025164636145613,0.20663035752943165,0.19699047833461258,0.5858506089204323,0.1257824681084799,0.356649825316,0.7771422522571585,0.599059299661493,-0.2521402802910569,-0.0423400296013792,1.0,-0.12595528156297733,0.3057380722949773,0.4180371007195422
6,0.6667450242908634,0.004342967344908887,0.6600846262341326,0.6720733427362482,0.6667589938843127,0.7024015427128688,0.03683598371607344,0.6618357487922706,0.780193236714976,0.7033548643303056,0.3841659736881384,0.039533541310955225,0.3264248704663212,0.49222797927461137,0.3861697828101544,0.014719291389865776,0.015262856466930323,0.0,0.06447831184056274,0.021136138283013233,0.33373706466075925,0.07243735574158003,0.17039586919104988,0.5335628227194493,0.34141297420047134,0.5664571299127873,0.09561719011381578,0.3692660550458715,0.6892201834862385,0.5743722267733269,0.1432689333220844,0.07022513326988745,0.04100227790432798,0.3530751708428246,0.1593633365171811,0.3860270280768117,0.20573310643627246,0.0,0.790468165969004,0.43682998169591225,0.39376070433086935,0.08823212571037574,0.16974650556740106,0.6017954445459777,0.40340586300537845,0.5333144620694413,0.0975615782380708,0.3902424657433383,0.68983087038796,0.5420563324958855,0.49975087194818135,0.08796270180048806,0.2197309417040359,0.6726457399103138,0.5073389862888168,0.5258368333969711,0.03848322070841224,0.4072164948453608,0.6288659793814433,0.5272258057014458,0.4166294808865091,0.015750932564591834,0.3734939759036145,0.46987951807228917,0.4169234382446512,0.467967967967968,0.011594178086697063,0.43243243243243246,0.4932432432432433,0.4681097995578598,0.46889530222863585,0.017324282539220227,0.3961038961038962,0.5,0.469211284923423,0.5824514991181658,0.052676142591901204,0.4017857142857143,0.7142857142857143,0.5847993402266749,0.4077160493827162,0.06836099259549978,0.18333333333333335,0.5833333333333334,0.41333752320988043,0.4815414119621238,0.14288350651112436,0.0,1.0,0.5020416140445094,0.3004348837133596,0.009739018928566413,0.2709697244053648,0.3093024723194464,0.3005907464852211,0.14654685434757447,0.061012796551931904,0.047420856966011726,0.32192974701309773,0.15859566297604452,0.16616425376087537,0.910559969155576,1.0,0.420246089287854,0.4743157055307334,-0.3050067249067705
7,0.7265731324078885,0.022419628574852694,0.6840620592383638,0.7566995768688293,0.7269128821539051,0.7115433511314521,0.012751961576945027,0.6964573268921096,0.7520128824476652,0.7116556050591727,0.06911492894585336,0.01247360241087589,0.05008635578583753,0.10535405872193437,0.07021206803598387,0.18378889780136168,0.004518848444452724,0.16881594372801878,0.18991793669402113,0.18384346793085277,0.5744179726424495,0.06778871433492155,0.4561101549053357,0.7435456110154903,0.5783344167657867,0.7692137453726056,0.09100427441448185,0.5711009174311926,0.9059633027522935,0.7744845186843008,0.620788874235703,0.04426681532634398,0.5227790432801822,0.7266514806378133,0.6223375283777419,0.4105542757604821,0.08141545036141551,0.2571372229144071,0.5378127156853079,0.41841008575068644,0.4136937047665361,0.09146628330433008,0.21416725894337835,0.7006802721088435,0.4235112619452015,0.4371694774845857,0.08945369021548197,0.26415733398128316,0.5895091044303565,0.4460703189261831,0.49594839115726524,0.07100359462942545,0.27802690582959644,0.6681614349775785,0.5009170286484779,0.5176342919153553,0.07676499290068799,0.3350515463917526,0.6907216494845361,0.5231966558765809,0.4097442401183683,0.050944605958941735,0.29518072289156627,0.6265060240963856,0.4128439931498203,0.4666903745851116,0.014095783820768778,0.43918918918918926,0.5067567567567568,0.4668994656698207,0.469583048530417,0.01184431901583058,0.4350649350649351,0.5064935064935066,0.46972977994690135,0.582236842105263,0.03879919795571886,0.3660714285714286,0.6607142857142857,0.5835055337617123,0.4095029239766082,0.03938511134002217,0.21666666666666667,0.4916666666666667,0.4113594753177847,0.47232158065065577,0.03928703693662193,0.33009708737864074,0.5631067961165048,0.47392411668561235,0.2602518574701088,0.006772670585598939,0.25005684835225617,0.27084729474769853,0.2603384214114997,0.6810149838335321,0.0313501412293073,0.6012714845890246,0.7336662688583422,0.6817235487391726,0.2767860030117733,-0.8438894149400661,1.0,-0.16174089831432803,0.0572987823204175,-0.7534930603207081
8,0.647179125528914,0.01407837813199284,0.6036671368124118,0.6600846262341326,0.6473305330515894,0.7691447486133478,0.06068878326113527,0.6835748792270533,0.8647342995169083,0.771508813354822,0.32751871042026476,0.046940840507155766,0.2884283246977547,0.46632124352331594,0.33082845326293125,0.06088315748339203,0.028443746299446942,0.021101992966002348,0.09613130128956637,0.06713282476462328,0.36504111684834567,0.086441602047722,0.17555938037865726,0.5765920826161788,0.3750255240104363,0.4057212028542302,0.1617686030540111,0.09633027522935778,0.6582568807339448,0.4364493187227996,0.3120728929384966,0.10865152647468261,0.11161731207289294,0.46127562642369024,0.33024759852604885,0.3923168473816986,0.23453743103168315,0.053216568217061166,0.8576947554296674,0.4564089366388941,0.39910519210448137,0.06805677233664137,0.21100280908383257,0.5478559583037195,0.4048026865310281,0.48666647031825616,0.1614215924273288,0.28302150751400823,0.8021176176065621,0.5124564980403558,0.5020926756352764,0.044638268756781806,0.3587443946188341,0.6995515695067265,0.5040510790004854,0.5305269186712488,0.03765125488735616,0.4175257731958763,0.6855670103092784,0.5318464789104675,0.4196787148594377,0.04525173788099588,0.3373493975903615,0.5963855421686748,0.4220843411515117,0.4675675675675674,0.013136246061801164,0.43243243243243246,0.5067567567567568,0.4677500121407176,0.4710678210678208,0.022707170679106336,0.4025974025974026,0.5584415584415585,0.47160871343054067,0.5801587301587303,0.022475502671504895,0.5089285714285714,0.6428571428571429,0.5805890867401172,0.40851851851851867,0.02170832130222365,0.35833333333333334,0.5166666666666667,0.4090884929470986,0.47146709816612714,0.011198738254133382,0.4320388349514563,0.5145631067961165,0.4715986036110713,0.2850689095456425,0.016649431809888135,0.263950986221826,0.3087944415830969,0.28554930700206677,0.31308619811691424,0.09897256426554236,0.14603867035502538,0.4324842995273832,0.32819155424668217,0.5446649237321496,0.954906972957386,1.0,0.6647384973448032,-0.19358020916122565,-0.790096005620177
9,0.6990699929478137,0.0048477292137003745,0.6847672778561353,0.7073342736248236,0.6990865385083656,0.6854367954911432,0.00940590386949808,0.673913043478261,0.7037037037037038,0.685500320409089,0.281142055267703,0.022679047047808945,0.23661485319516418,0.31433506044905,0.2820410570564781,0.05658338218053925,0.0120847942365456,0.042203985932004584,0.0808909730363424,0.057839774208974744,0.45481927710843356,0.07032200922039532,0.2943201376936315,0.586919104991394,0.4601396432550737,0.6911195527522936,0.029318221738980643,0.6077981651376146,0.7316513761467889,0.6917314245621262,0.2603573462414578,0.05934246255157216,0.17312072892938496,0.4020501138952164,0.26693154877372643,0.37707324000788817,0.07633888491261663,0.2649892885634126,0.5372480123338382,0.3846047283038247,0.45453588773817977,0.12869493594156348,0.2030663011473246,0.7160202389413477,0.4721297199809579,0.5410666918851658,0.057164479364868515,0.45421277786368025,0.7556419488561479,0.5440311422538551,0.4899103139013452,0.10785736290271491,0.23318385650224216,0.7713004484304933,0.5014614217280827,0.5189271907216495,0.08380358986120794,0.27835051546391754,0.7783505154639175,0.5255461311033869,0.41378012048192786,0.04289158506685509,0.3313253012048193,0.5783132530120483,0.41596265583523145,0.46674408783783794,0.016476210459909383,0.43243243243243246,0.5135135135135136,0.4670302638952678,0.4678368506493506,0.01937474504525397,0.4350649350649351,0.525974025974026,0.4682316032124722,0.5816127232142859,0.05251864216921091,0.4017857142857143,0.6875,0.5839421808565861,0.40742187500000004,0.037004134484072776,0.31666666666666665,0.525,0.40907272555337487,0.47246662621359203,0.04334166473067115,0.3398058252427184,0.6116504854368932,0.4744194992054155,0.2858777670522491,0.004498017380906952,0.2793779453039136,0.29329732591671015,0.2859125980568772,0.2969358879624154,0.04327477847070192,0.23999741856060286,0.38468502770729796,0.3000239440001561,-0.09288201586286797,0.5864862782666589,1.0,-0.3247677842433904,0.5097488518134328,-0.7590504298038407
10,0.5317872379446924,0.06132584653189321,0.4802538787023977,0.6622002820874471,0.5353007401134243,0.6930397890150214,0.04969963790981383,0.5732689210950082,0.7351046698872787,0.694814044144417,0.32117935802627595,0.1495680115445579,0.0,0.4231433506044905,0.3541998183324693,0.052264998058210325,0.05570451667827679,0.014067995310668158,0.18288393903868694,0.07632179512013075,0.2484506802086719,0.18958901115313495,0.06024096385542177,0.9999999999999998,0.3123466854852738,0.38817564688840295,0.23487918192723148,0.056192660550458684,0.9357798165137614,0.45351710382964944,0.24108761116243582,0.19751835931017153,0.003416856492027276,0.7095671981776766,0.31147384109080406,0.3853263544964486,0.04827785082165108,0.2498588241621326,0.5490171472620851,0.3883296723178434,0.4229039874656333,0.11006737405729479,0.0,1.0,0.4369497708460169,0.5480676979836526,0.11362182735599183,0.32674338980804496,1.0,0.5596857622213772,0.49866026183898177,0.04939056468111763,0.24663677130044842,0.7399103139013453,0.5010927381319206,0.5269381762471677,0.05792660299990799,0.3247422680412371,0.8092783505154639,0.5301027677759612,0.41661382371591676,0.03653680301833502,0.30722891566265065,0.6265060240963856,0.41820794247729265,0.4675968538197625,0.010438454949835824,0.4054054054054055,0.5135135135135136,0.4677129907349878,0.4686984841783605,0.012720016699104929,0.4025974025974026,0.525974025974026,0.4688705226080692,0.583729544449359,0.019512856195741134,0.4910714285714286,0.7410714285714286,0.5840545812016036,0.41031991744066115,0.027208537490032596,0.16666666666666669,0.5,0.4112182476452403,0.47183564279058593,0.02338317501988786,0.35922330097087374,0.5728155339805825,0.47241290613862297,0.38127360067629346,0.024430047839411047,0.3281144118904223,0.4067045344986394,0.38205305658737626,0.19645314114291673,0.25137037976549986,0.026600188808406644,0.741297318743168,0.3187244560610211,-0.8963795236113605,-0.9020051556886869,1.0,0.9121869212868737,0.9147817080274371,0.9190771243682146
11,0.459431753740567,0.011800605281873289,0.42313117066290545,0.4753173483779971,0.45958171745508514,0.5908909806265256,0.0541303071732385,0.5265700483091789,0.7173913043478262,0.593339729013193,0.2484731940957569,0.0631739590528456,0.15544041450777213,0.3488773747841105,0.25629813397951,0.08099974619596084,0.03068526073281174,0.041031652989449,0.12661195779601409,0.0865611751645198,0.3916106251219902,0.08420592461642017,0.1376936316695354,0.5834767641996557,0.40047024869619524,0.49284734701598426,0.1422929181154782,0.12958715596330272,0.661697247706422,0.5127738753265223,0.2794894676279268,0.11185465095903005,0.11389521640091116,0.46697038724373574,0.3008269291504264,0.3619785445993208,0.19418235110042628,0.051540385253175336,0.899715855615213,0.41030052703101255,0.4144407878553789,0.10388547029193411,0.20993671100280908,0.6948674992385013,0.4271324125790201,0.4662772743692985,0.14226468468070427,0.17580054928467825,0.7082385338664193,0.48728337252215925,0.4968794785261892,0.039734412624913465,0.3273542600896861,0.6322869955156951,0.49844935870727725,0.5273142735678606,0.041385612054135344,0.4175257731958763,0.6804123711340206,0.5289191380374786,0.4126816544528631,0.026787532125489084,0.34337349397590367,0.5301204819277109,0.41354119764674707,0.4660769016439122,0.011455782585826873,0.41891891891891897,0.5,0.46621621621621634,0.4682688445575043,0.010640086801417191,0.4285714285714286,0.49350649350649356,0.46838846602157164,0.5827503681885128,0.03627982898306918,0.4910714285714286,0.8125,0.5838669782362877,0.40987972508591053,0.032394100456226274,0.2833333333333333,0.5083333333333333,0.4111446806826134,0.47097387648884,0.03646152571952135,0.33009708737864074,0.5922330097087378,0.4723686373969466,0.4426206440420423,0.017360808363011498,0.4172535577334733,0.4643867316281231,0.442957475393255,0.29244453997783193,0.10506630604099024,0.10849814475791919,0.44983879609501365,0.31056228721408635,0.0336271375826466,0.8966584174198939,1.0,0.34420528077299567,0.23586443359157547,-0.6982048546034448
12,0.47216637157518804,0.023103825906144303,0.4076163610719322,0.4887165021156558,0.47271927404393943,0.597920306985987,0.039954594529270325,0.5402576489533012,0.6819645732689212,0.5992254148641114,0.0778304486826149,0.030023585166120435,0.04835924006908465,0.14853195164075994,0.08330555414638448,0.16350303060537272,0.025240814004558645,0.11371629542790151,0.2028135990621336,0.16539886461957126,0.48606584392280355,0.11285308376289249,0.1944922547332184,0.6247848537005163,0.498723218109168,0.45334764786258047,0.15325821744903884,0.1513761467889908,0.6582568807339448,0.47802973195121173,0.5524402655939517,0.06453511779783719,0.4054669703872438,0.6548974943052392,0.5561172683057619,0.32483220529341206,0.06441158767027295,0.21904215555336445,0.4537794788594785,0.33102347463866466,0.4057162083633073,0.09385868097345769,0.20095102717703994,0.5536771922699428,0.41620626926316917,0.3120429514236644,0.1531749874260926,0.0,0.4551331610376032,0.3468921684688885,0.49794866902013163,0.03990075536887206,0.3901345291479821,0.5739910313901345,0.4995108341389641,0.527527966659355,0.08260212933442589,0.28865979381443296,0.6752577319587629,0.533819908571675,0.4227121250961292,0.0832861142025597,0.21686746987951808,0.7530120481927711,0.4306675408960123,0.46722254169062694,0.019265064250279757,0.4256756756756757,0.5202702702702703,0.4676111092683892,0.4696048632218846,0.013614592538343557,0.4415584415584416,0.5,0.46979797884080654,0.5807370820668691,0.015119936849224238,0.5535714285714286,0.6160714285714286,0.5809296918580831,0.4090425531914894,0.02891087562789105,0.275,0.45,0.41004129700339575,0.4707705019624044,0.029605756869815775,0.34466019417475724,0.5339805825242718,0.4716807367316687,0.4259274523782052,0.0070131572250507175,0.417311555773981,0.44029520161554553,0.42598395813411016,0.5914094896913498,0.054105283606316126,0.46757498913769013,0.6462652354974485,0.5938268110263977,-0.08454998316573605,0.5076328548801751,1.0,0.6931086931787813,-0.16423680466833698,-0.7326268581931394
13,0.5076416226343597,0.018995177556428013,0.46191819464033845,0.5275035260930888,0.50799158307625,0.6189943999807727,0.04999155355152703,0.5491143317230275,0.71256038647343,0.6209798078897499,0.10749361998298662,0.05240765490256189,0.05526770293609662,0.2227979274611398,0.11941711419382994,0.13677800913369842,0.033672321720332465,0.0762016412661195,0.18288393903868694,0.14080172679228664,0.5107765818069718,0.07848205846287637,0.3700516351118759,0.7211703958691911,0.5166819313462515,0.5196323428727918,0.11813031884084843,0.15022935779816504,0.68348623853211,0.5326952823203696,0.51305545167103,0.11142932321848,0.285876993166287,0.6890660592255126,0.5248400420654225,0.2903038120085017,0.09815304921456124,0.08963545261421796,0.5428591916674883,0.3062132148969541,0.3820831369601378,0.10274503817419023,0.14224794395370088,0.6298270552001896,0.3954573378727225,0.42594871723861744,0.14072176418613805,0.12333134530567763,0.696737425725078,0.4482626051950253,0.4962853891975104,0.07181419460323199,0.3273542600896861,0.6995515695067265,0.5013775940055266,0.5317741190952455,0.0423506045050157,0.422680412371134,0.6391752577319587,0.5334327677268421,0.4165617694659235,0.031846385837293156,0.34337349397590367,0.5301204819277109,0.4177592163832024,0.4675272287212588,0.012008700918023833,0.43918918918918926,0.5,0.4676791273104998,0.46830781159139373,0.017199618177681987,0.4025974025974026,0.5064935064935066,0.46861884078281385,0.5816897654584222,0.024390259292107603,0.47321428571428575,0.625,0.5821932575275752,0.406592039800995,0.042032167451349974,0.25833333333333336,0.5,0.4087265849283569,0.4687001883784957,0.03933993882398035,0.40776699029126207,0.6067961165048543,0.470323716609897,0.40127104253076656,0.01722383113998872,0.38547051062794785,0.4377627392016899,0.4016350111311423,0.5499405223059172,0.10030836175450074,0.33760178795984186,0.6472125339084835,0.5588793875950118,0.10117654572132322,0.7750786148427984,1.0,0.34088161130754113,-0.22307249124142284,-0.8137148386349828
14,0.43642529184047024,0.005620588581520697,0.42524682651622003,0.44358251057827924,0.4364607132661152,0.4869462431904619,0.003926293931580873,0.48148148148148157,0.49838969404186806,0.48696173519685937,0.21493403887847717,0.010639396753009235,0.1934369602763386,0.23316062176165797,0.2151916108729869,0.11062333191988233,0.007327032088791623,0.10082063305978894,0.12661195779601409,0.11086056432180841,0.4825868824843446,0.10119236738289117,0.25645438898450923,0.7383820998278827,0.49286116123257484,0.6693831739215301,0.030248620634100568,0.5940366972477064,0.7396788990825688,0.6700517479569471,0.3381233945621093,0.04020820059652298,0.224373576309795,0.42369020501138954,0.3404551827861363,0.36668376097390637,0.04391767534713434,0.2873981517169671,0.4711508295761139,0.36924883923457386,0.44597428258908095,0.08495317317049701,0.3236369174535486,0.6932852743087285,0.45382435840896734,0.5100714984981696,0.07171590874618751,0.38426365664553475,0.662219375170271,0.514982209367641,0.5025283846961167,0.04948135494690641,0.3542600896860987,0.5919282511210763,0.5049070094583481,0.5289537179205969,0.05160858184200197,0.3917525773195876,0.634020618556701,0.5314120927904237,0.41861061266341965,0.0344429267609822,0.32530120481927716,0.5240963855421688,0.41999514222105905,0.46923519263944813,0.015421201124309886,0.43918918918918926,0.5135135135135136,0.46948314090602145,0.46919038408400104,0.029894304566511983,0.3961038961038962,0.551948051948052,0.4701215499409555,0.5930851063829787,0.06475374936179644,0.41071428571428575,0.8839285714285714,0.5965348084406185,0.41560283687943267,0.04404848219913705,0.2916666666666667,0.55,0.4178812085889072,0.47572815533980584,0.024017237850323787,0.4126213592233009,0.5194174757281553,0.47632114436259193,0.4864323812072247,0.003505916059147325,0.4791211748258021,0.49186760306390365,0.486444746517204,0.37954463493157464,0.015918676080681992,0.3528955963258862,0.41413192447779723,0.379871218406654,0.04932173923568176,-0.22379493699956932,1.0,-0.05466640901047716,0.5269877771195185,-0.4479565059009495
15,0.29879632004103074,0.009465341196485125,0.271509167842031,0.3081805359661495,0.29894450229991953,0.48563533889620863,0.05470722717053983,0.42270531400966194,0.6264090177133657,0.4886722348174862,0.29620034542314344,0.07496740599296714,0.18480138169257354,0.38860103626943,0.30543557697402,0.18011297026537354,0.03401005100318539,0.14302461899179364,0.25908558030480655,0.18325998334493537,0.345407604443749,0.09366453411252529,0.0,0.49913941480206536,0.3577425952629435,0.4560050041701418,0.1707104468146569,0.0,0.6697247706422018,0.4865711260907215,0.23595723752329673,0.09525091800154548,0.08428246013667418,0.3963553530751709,0.25425470699940245,0.33368233440053846,0.2053072089052731,0.08851500945654023,0.8537776861504263,0.3911725464735444,0.41760440607722044,0.08405658393611212,0.2496023284935865,0.579585067857989,0.4258857351446201,0.4470271790824685,0.16920232098077678,0.14036211555594824,0.7818691877802568,0.4776372995107044,0.49877700774561773,0.09260925461300222,0.20627802690582958,0.7802690582959642,0.5072055969361687,0.5247188378631681,0.06439640668260622,0.34536082474226804,0.7474226804123711,0.5286110405301417,0.4154572836801753,0.04069833445972213,0.31927710843373497,0.536144578313253,0.417423390314077,0.46767506142506154,0.017217241532769167,0.41891891891891897,0.5202702702702703,0.46798827754923605,0.4690082644628099,0.025153622001562355,0.3441558441558442,0.6103896103896105,0.4696746395198279,0.5855316558441557,0.04820025017133455,0.47321428571428575,0.8482142857142857,0.5874897304494615,0.40909090909090917,0.04145802866975147,0.275,0.5333333333333333,0.41116250873086485,0.472032215357458,0.02302916740504861,0.40776699029126207,0.558252427184466,0.4725872705297271,0.5695362556329209,0.012576827031198782,0.5459612121389763,0.5862931424704824,0.5696735254489407,0.23492025666823943,0.07893049588499099,0.07362260141467836,0.3238208463044572,0.2476827697999199,0.5349118424451674,0.9704690276965023,1.0,0.6602382335039781,-0.24898247698474454,-0.8281600983132132
16,0.3905077574047953,0.0032074752560227408,0.38363892806770095,0.39633286318758815,0.3905206662046072,0.36542673107890505,0.005243306262897955,0.35829307568438007,0.37600644122383264,0.36546359353890445,0.056787564766839334,0.03115388647064778,0.003454231433505983,0.10017271157167529,0.06462182960524612,0.27810082063305946,0.021849429732161304,0.24618991793669398,0.30832356389214544,0.2789407034923544,0.581617900172117,0.11465558847847128,0.316695352839931,0.8330464716006885,0.5925895440273818,0.7041055045871559,0.04968821285812524,0.6009174311926605,0.8233944954128439,0.7058215792372937,0.7223462414578588,0.06953047054504528,0.5535307517084282,0.8166287015945332,0.7256182806102852,0.38406622267239143,0.07967472797213516,0.22520907469322266,0.5831951453438864,0.3920815787941637,0.39218228584966325,0.14078530303636147,0.0042305479405692625,0.7392882526144786,0.4162103276641346,0.4863893736240271,0.07051733284015299,0.3672402494606555,0.6382894126482738,0.49137344568123004,0.49210762331838565,0.13695926005748352,0.17937219730941706,0.8878923766816144,0.510443527792501,0.5231958762886598,0.053510345308290255,0.4020618556701031,0.6649484536082474,0.5258707206903336,0.4116867469879519,0.06257596602073641,0.27108433734939763,0.608433734939759,0.41632128715510286,0.46743243243243265,0.04237638627025293,0.3986486486486487,0.6554054054054055,0.469311114124479,0.4714285714285716,0.038360061462217696,0.33766233766233766,0.5909090909090909,0.47295556069070716,0.5830357142857143,0.024150632944848826,0.5446428571428572,0.6607142857142857,0.5835256910735441,0.4136666666666667,0.041879050553748784,0.275,0.5083333333333333,0.4157389672485475,0.46854368932038837,0.09558094212723149,0.043689320388349495,0.6359223300970873,0.47800229180405734,0.5523995888900894,0.0033705799220448947,0.5443540051349605,0.5571710999169168,0.5524096662792664,0.7857831284385128,0.055921441197594644,0.7105089736846333,0.8687838698728243,0.7877307841975708,0.05686321851059211,0.1527000429309852,1.0,0.1426226183282453,0.022928340735489303,-0.6825736255204916
17,0.3625607271587525,0.03143495643016274,0.2983074753173484,0.40197461212976016,0.3639093178000805,0.45250973753389245,0.013086878365294728,0.4363929146537843,0.47665056360708546,0.4526973217648639,0.25398934207224355,0.07628937570793497,0.09844559585492219,0.3246977547495682,0.26510547062259476,0.15024899550104695,0.019734278896805808,0.1277842907385699,0.1981242672919109,0.15152845888006888,0.45880224193477204,0.05810697794358652,0.35628227194492235,0.7056798623063683,0.4624360061586258,0.6247157531561203,0.04883645883140883,0.5298165137614679,0.7098623853211008,0.6266054479013841,0.3098533964137607,0.11058841926592777,0.16514806378132124,0.5398633257403189,0.3288379502928146,0.3401887600053658,0.05009211443060986,0.22520907469322266,0.5109220799010424,0.3438257786117058,0.40359702157854244,0.05077271572392705,0.2670491082004941,0.5642535621213659,0.4067510189582396,0.5521314784198309,0.061282850836501,0.4394866470809128,0.7491919035732957,0.5554931666795141,0.49174044689739765,0.050498359888004274,0.33183856502242154,0.6412556053811659,0.4943045173508773,0.5174464710547186,0.05738305420826332,0.19072164948453607,0.7525773195876289,0.5205915112639354,0.4168983626814953,0.02815056439742624,0.3373493975903615,0.536144578313253,0.4178395935869841,0.46760221760221793,0.016251574470830844,0.4256756756756757,0.5135135135135136,0.4678821328042719,0.4680874680874683,0.028170308631895846,0.24025974025974028,0.525974025974026,0.46892713874449976,0.5805097680097682,0.025226120085871585,0.48214285714285715,0.6607142857142857,0.5810529312717332,0.4108974358974356,0.025272971855235395,0.325,0.5,0.4116673010595247,0.4710397477387771,0.026967271242249458,0.3543689320388349,0.587378640776699,0.47180447432729783,0.5395134279141788,0.0220119147477523,0.506377580608561,0.5748087064679057,0.5399584447496494,0.34333926722155406,0.11752823116754584,0.2038211789555766,0.5841443676071929,0.3627349978847016,-0.8304032414922969,-0.0947712579097148,1.0,0.09991102758674245,0.8050453131247753,-0.18386499834262998
18,0.35613540197461213,0.0021794587601031315,0.34978843441466856,0.3589562764456981,0.35614193740599526,0.2823510466988728,0.02216339510044438,0.25925925925925936,0.33735909822866356,0.2832022339825022,0.14497409326424868,0.04751270679016946,0.06563039723661479,0.21243523316062185,0.1524132404950079,0.30813599062133623,0.013762340537825952,0.2848769050410317,0.3305978898007035,0.3084370319739993,0.5605851979345953,0.078042682670744,0.399311531841652,0.7521514629948363,0.5658839203011932,0.8122477064220186,0.07773346465567034,0.676605504587156,0.9506880733944953,0.81588478248136,0.7230296127562644,0.04768838007548407,0.6070615034168565,0.8109339407744875,0.7245691953739221,0.31754452641108605,0.04681594159249423,0.2050410978550236,0.4139992649892885,0.32090874714331014,0.43133651470538437,0.10668887887069907,0.2421988695975903,0.7599079432768132,0.44407888427100595,0.43067850647581624,0.07104753419269164,0.2848622738618542,0.5876683380825105,0.43638374512899075,0.4991031390134528,0.026041610024571244,0.43946188340807174,0.5605381165919283,0.4997684919207098,0.5277319587628866,0.06411040646500905,0.3917525773195876,0.6855670103092784,0.5315345347505461,0.4154216867469881,0.041965508682671564,0.30120481927710846,0.49397590361445787,0.41749378397807085,0.4672972972972974,0.0142752753261283,0.43918918918918926,0.5067567567567568,0.4675109323612473,0.4684415584415585,0.01271988729718337,0.4480519480519481,0.5064935064935066,0.4686107695063699,0.5825,0.012952553341618506,0.5535714285714286,0.6071428571428572,0.582641110174442,0.41116666666666674,0.015302134779114521,0.375,0.45833333333333337,0.4114456221665264,0.4718446601941746,0.010562792102446471,0.4466019417475728,0.49999999999999994,0.47196051156766883,0.6060228208419479,0.010099225810107412,0.5848295847074835,0.617973744311577,0.6061052828147565,0.7852654407809381,0.03678009587930128,0.7196964896251983,0.8455219874525708,0.7861091097479495,-0.10040660208770236,0.9739907381717979,1.0,-0.1855082771256991,0.3722048747993379,-0.8481559605342797
19,0.1866629055007052,0.009619740981527285,0.1678420310296192,0.1988716502115656,0.18690863915609807,0.3542479871175524,0.03883134668292492,0.30917874396135275,0.4412238325281804,0.35635298072861044,0.3807115716753022,0.07232043180920654,0.24179620034542304,0.46804835924006916,0.38746574520296934,0.3366096131301293,0.03415117773013658,0.30128956623681125,0.4079718640093787,0.33832381555020297,0.3921101549053353,0.07991190863101318,0.19793459552495696,0.5697074010327021,0.4001064850959169,0.5147614678899081,0.11901688891647803,0.29816513761467883,0.7029816513761468,0.5282339145802278,0.2629521640091114,0.1007923340483377,0.11958997722095666,0.4407744874715262,0.2814634299570073,0.40534069539184114,0.10724670744898808,0.24761793784677716,0.5815099988347391,0.41917886486477485,0.4107653568890245,0.050838785982778745,0.27287034216671746,0.557907740210512,0.41387447846308273,0.49712425172848,0.09605140845502973,0.3341064551994287,0.6760251227791154,0.5062455804629471,0.49603587443946207,0.056204870952645446,0.33183856502242154,0.6591928251121076,0.49918463953689,0.5283298969072165,0.08680243721045158,0.24226804123711343,0.7628865979381443,0.53535676493981,0.41561445783132533,0.028794115570748922,0.3373493975903615,0.5301204819277109,0.41660274343935394,0.46513513513513527,0.025777570492727817,0.3378378378378379,0.5608108108108109,0.4658431723365322,0.4683636363636363,0.019757423138502272,0.4090909090909091,0.525974025974026,0.46877684327480384,0.5828571428571427,0.08762569735752762,0.09821428571428575,0.8125,0.5893549742848412,0.4080666666666665,0.07436963287462707,0.22500000000000003,0.8666666666666667,0.4147348550580238,0.4697864077669902,0.030144936353893818,0.3689320388349514,0.5728155339805825,0.47074485273116984,0.6876300001144963,0.007397703290278965,0.6663922887294547,0.6976353076147739,0.6876694738486806,0.27375470467735386,0.1089557164861479,0.11356842786579713,0.41867199550660894,0.2944792279648176,0.4222535540086684,0.8791590134542694,1.0,0.4394429757514927,0.610459780141073,-0.3101419970683957
20,0.3091528828482284,0.016957658178349624,0.2764456981664316,0.34344146685472493,0.30961057821346305,0.2380690967647489,0.015161471231922682,0.21739130434782616,0.2608695652173914,0.23854408850845876,0.14991887789815242,0.061291717847514894,0.05008635578583753,0.2625215889464594,0.1617882112938307,0.40163060854737337,0.012322976395227447,0.37397420867526376,0.42086752637749125,0.4018167500549415,0.5641787930944558,0.07934491567738895,0.36833046471600683,0.7142857142857142,0.5696472049484247,0.7343619683069222,0.05120567147554645,0.6433486238532109,0.8428899082568807,0.7361180569033289,0.8080175329605856,0.09162598935691003,0.662870159453303,1.0,0.8131177366470277,0.3028079799455614,0.15693377848956463,0.06330952018142216,0.7366868944004732,0.34051098196704677,0.3787136519012851,0.13998939798609875,0.16128540968626254,0.7318847937184825,0.4033907993056934,0.5030767572792268,0.07940414425679884,0.2646138440355489,0.6378329025940079,0.5092108711153788,0.5064546813425734,0.18793773914657996,0.04932735426008972,0.8654708520179373,0.5397052691398171,0.5228834739144016,0.20783072604924552,0.0,0.9948453608247423,0.562090997380432,0.40178897407813086,0.15312974717984834,0.0,1.0,0.4295670093638093,0.46201883701883706,0.1900587572927977,0.0,1.0,0.4990354986722664,0.46615505706414806,0.1815236488063819,0.0,0.8831168831168832,0.4997520557492014,0.5888798701298703,0.14980881178278324,0.008928571428571508,0.8928571428571428,0.6073566834443758,0.412121212121212,0.12580664361356905,0.016666666666666663,0.7333333333333334,0.4306174605219781,0.46977052074139436,0.043467159446873294,0.34466019417475724,0.5970873786407767,0.47174686954653383,0.651940786725253,0.015739408610244716,0.6236159872699012,0.6754661100868589,0.6521278746610181,0.878605704621419,0.0705683218016307,0.7205456643796069,1.0000000000000002,0.8813923186561582,0.16668447366327793,0.6194947187938904,1.0,0.0887028802400248,-0.07178288662187049,-0.6986219715647403
21,0.20077665634788341,0.015495422919366229,0.18124118476727785,0.22214386459802538,0.2013659742316578,0.3312733964907879,0.018034770974692443,0.30917874396135275,0.36070853462157815,0.3317575803537628,0.2751048605970885,0.03229176149845566,0.23834196891191717,0.36787564766839376,0.27696913162830583,0.3892754373410883,0.030958011819783048,0.3270808909730364,0.42790152403282533,0.39048856305814766,0.4614971947157833,0.07302433026250525,0.30981067125645434,0.6815834767641995,0.4671648098992729,0.46495591564398897,0.0967236794646243,0.31536697247706413,0.6330275229357798,0.47478202793379715,0.4371061740082245,0.033159902942206304,0.3451025056947608,0.5113895216400911,0.43834587516066875,0.3745411567001162,0.04281589333303848,0.2823516757347866,0.4728270125399998,0.37694889704386175,0.4344684827474958,0.07959808102376996,0.17609232747825498,0.5695332859511965,0.44160664983542514,0.44644942946283767,0.047306248288120176,0.3419260306450782,0.519559983212211,0.4489163739534675,0.5222759303476792,0.14453869342050427,0.17937219730941706,1.0,0.5416569615475458,0.5220913107511045,0.17459590883467951,0.14432989690721648,1.0,0.5501519567612805,0.41237677984665944,0.07071679222667317,0.11445783132530124,0.6325301204819278,0.4183186906709868,0.4655142155142155,0.08827841428037746,0.060810810810810856,0.7635135135135136,0.4737038678994738,0.4616292798110982,0.06376406393290764,0.28571428571428575,0.7662337662337664,0.4659556250389467,0.5754870129870129,0.10645086543463163,0.1785714285714286,0.8482142857142857,0.5851238525361832,0.41201298701298705,0.14967370398762622,0.06666666666666671,1.0,0.43802509202211387,0.47824990543437135,0.06718390107827561,0.35922330097087374,0.7427184466019416,0.4828851099753683,0.6834057191994675,0.005241274805514776,0.6753077594369832,0.690774272259506,0.6834255564656578,0.4668313334166274,0.026198253906605136,0.38157024253835714,0.5038497251010368,0.4675563375148682,-0.6527130273078063,-0.8142450454766188,1.0,0.5188559886854542,0.26134064904773335,-0.2818882394747476
22,0.23139398213446175,0.013619162152046926,0.19252468265162204,0.24823695345557123,0.23178775892211947,0.1669618894256575,0.028918700613972538,0.14412238325281812,0.2520128824476651,0.16940668693521546,0.31891191709844563,0.060442630562375886,0.23316062176165797,0.43177892918825556,0.32449535270973817,0.4949589683470113,0.021902369405129286,0.45603751465416187,0.5193434935521688,0.4954352620705722,0.5531841652323578,0.05224048792979382,0.4853700516351116,0.6987951807228914,0.5556044499161652,0.7142966360856268,0.1008516917624259,0.42431192660550454,0.8692660550458715,0.7212636344123625,0.7521829916476841,0.05697589802195417,0.662870159453303,0.8553530751708429,0.7543019300409782,0.3372345670159461,0.034480050577701295,0.2605075159327017,0.4100821957100472,0.33896343831374526,0.4774085919608305,0.1646312290100508,0.21364267099874779,0.8043286966527905,0.5045499789092192,0.39172747331502394,0.08082323029957131,0.17809782568678995,0.5310684544189438,0.39984238727682364,0.49611360239162944,0.08158672710604907,0.3363228699551569,0.7040358744394619,0.5026670474749783,0.5301546391752578,0.0554264394610028,0.3865979381443299,0.6597938144329897,0.5329960882850673,0.4185742971887549,0.0329111856957118,0.3493975903614458,0.5120481927710844,0.4198446569568634,0.4692567567567569,0.014846373790360587,0.43243243243243246,0.5067567567567568,0.4694876409410025,0.46969696969696983,0.015201222405457926,0.4285714285714286,0.5324675324675325,0.4699387930561732,0.5819940476190477,0.04300857486048607,0.32142857142857145,0.6785714285714286,0.5835546075707111,0.4080555555555556,0.0452802184130716,0.2416666666666667,0.4916666666666667,0.41051852937834965,0.46982200647249195,0.07951010184998208,0.10679611650485438,0.5679611650485437,0.4763918657895299,0.7367937657705742,0.008214561714716722,0.7213125602345828,0.7515745702354035,0.73683879353095,0.8139768408100305,0.05673638672174343,0.7040215517808008,0.9064233428432997,0.8159189081399854,0.3659689957858604,0.956600501348369,1.0,0.34904737405159886,0.10062282132051309,-0.09384607924145016
23,0.0802973921915794,0.0077132294357408985,0.06205923836389282,0.0867418899858956,0.08066307821536632,0.24165724466372013,0.01843669360067524,0.21819645732689225,0.2890499194847022,0.24235205690849984,0.5639767758056812,0.08733732480603998,0.43696027633851475,0.683937823834197,0.5706281320225925,0.5899952607817217,0.02768923439195167,0.5580304806565065,0.630715123094959,0.590637744417112,0.4076610392939538,0.04760552704006462,0.25989672977624756,0.5163511187607572,0.41040187589152005,0.5199590083935192,0.12343728906524891,0.3314220183486238,0.6972477064220183,0.5342584033066562,0.27384529636989297,0.08063760538111307,0.12756264236902048,0.3792710706150342,0.2853497766399621,0.3730479734663803,0.11760895088031112,0.22689422120236993,0.660496759678388,0.3909597272495725,0.4173167308629813,0.058990929988379806,0.3093545876061867,0.5431008224185196,0.4214215978673263,0.4897163042236893,0.10039179867153868,0.35251411867788807,0.6861493376922682,0.4997933109166759,0.4982826066215056,0.07899227391732612,0.1659192825112108,0.7309417040358744,0.504439247847439,0.528844044746655,0.07393013957083862,0.3247422680412371,0.6907216494845361,0.5339321528274101,0.41495770315303754,0.0286376329737266,0.3493975903614458,0.5060240963855422,0.41593423135289503,0.46808510638297873,0.014096835360417741,0.43243243243243246,0.5067567567567568,0.4682950710118876,0.4680851063829788,0.015225930166640431,0.4285714285714286,0.5064935064935066,0.468330043347194,0.5819718844984807,0.027338847379620897,0.4642857142857143,0.6428571428571429,0.582606844900694,0.4038120567375885,0.07174502773575597,0.0,0.575,0.4100692223752959,0.4754699442263993,0.06022585124589409,0.3349514563106796,0.6407766990291262,0.479228791168917,0.8286226365442471,0.007445175279258421,0.8175334995994759,0.8400403375464602,0.8286557275134666,0.2907118645943616,0.07346404484188798,0.1378617935948372,0.3650758392856235,0.29975479907713726,0.2518036152770353,0.9772769789522283,1.0,0.3182250376151685,0.219393468635726,-0.7765061598026616
24,0.08487549243713823,0.010473822197008953,0.06276445698166433,0.09943582510578286,0.08551376772195374,0.22728219223721483,0.031160439000129558,0.1932367149758455,0.2930756843800323,0.22939005516869027,0.49283842534691213,0.14571892157967498,0.2607944732297063,0.6632124352331606,0.5137515604309438,0.6651069248494165,0.046340062661730456,0.6096131301289567,0.7245017584994138,0.6667054153140204,0.38990444536767727,0.10313654223542608,0.09466437177280551,0.5748709122203095,0.40320084737548034,0.4123991616577031,0.19694586484039903,0.05504587155963292,0.6628440366972477,0.4566468720099672,0.39622771188437667,0.12000233303682223,0.19134396355353073,0.5933940774487472,0.4138512013288772,0.34366255713873745,0.12075495910094622,0.137258768588152,0.5848713283077722,0.3640879131442702,0.42197439964148303,0.0690792381094294,0.30248417775070224,0.6425186990218974,0.427543211461681,0.4644639421801326,0.10800252846401179,0.23792273199178282,0.7105358102685311,0.47675018962530247,0.49895623936910477,0.03510262433041148,0.3452914798206278,0.600896860986547,0.5001788686821419,0.5272840383931753,0.07143776943156081,0.20103092783505155,0.7731958762886598,0.532059975573024,0.41789572081429166,0.05355530354730057,0.28313253012048195,0.6987951807228916,0.4212840827812669,0.4679054054054054,0.014986549267213234,0.43243243243243246,0.5202702702702703,0.46814327816218965,0.4681482310792654,0.010167676495724795,0.4415584415584416,0.49350649350649356,0.46825768193045886,0.5827432266009857,0.028681797662714358,0.34821428571428575,0.6875,0.5834425609216324,0.4104166666666662,0.03733053496240993,0.2916666666666667,0.7333333333333334,0.41209634261161504,0.4713759625041848,0.008182714271909291,0.42718446601941745,0.4951456310679611,0.4714463677086701,0.8364464923930618,0.018278105469982247,0.8010475967015486,0.8576593512579966,0.8366444547700289,0.41626960693836973,0.09788124435697323,0.22992341175596187,0.5435003099421896,0.42752605895846374,0.86566187849081,0.9681172513462791,1.0,0.8302894949715413,-0.6656130580707648,-0.9148822742093231
25,0.11053264747365803,0.01725309199140415,0.07122708039492243,0.14245416078984485,0.11186454388293353,0.21627040510245985,0.0067185038179800914,0.2061191626409019,0.23752012882447676,0.21637422478333557,0.5510007111652954,0.08537519123391561,0.4127806563039723,0.6597582037996547,0.5575436996028375,0.5450601107969567,0.02853099433669177,0.5076201641266119,0.6248534583821805,0.5458026673966451,0.4741233842934764,0.06510197492185375,0.33046471600688454,0.6523235800344234,0.478550389043116,0.6154040744738262,0.08894881604775122,0.4059633027522935,0.7396788990825688,0.6217678690408308,0.3462247085622406,0.09577915623987433,0.17767653758542135,0.530751708428246,0.3591660155587032,0.3713364804164987,0.08863114394049057,0.17590957575540278,0.5714260104156396,0.38171685070350025,0.44001871063516595,0.09962663091564782,0.22104612989474398,0.7080921921007209,0.4511022911198305,0.5102862384452209,0.06618081148997071,0.38103863400410865,0.7317119863341507,0.5145390897287967,0.5018684603886399,0.043078199805107444,0.36322869955156956,0.6860986547085202,0.5037048601207469,0.5271123913482925,0.07304400001354307,0.29896907216494845,0.7989690721649485,0.5321247457149291,0.4165190172454526,0.04361467230280378,0.30722891566265065,0.5843373493975904,0.418785155733916,0.4677066772655,0.012266684342357021,0.43918918918918926,0.5270270270270271,0.46786672236640064,0.4687420422714541,0.01020037471764601,0.4350649350649351,0.512987012987013,0.468852471252655,0.5825455182072821,0.014585840278355043,0.5446428571428572,0.625,0.5827271957304362,0.412009803921568,0.025550146272859935,0.23333333333333336,0.5416666666666667,0.41279739395151127,0.47163525604416523,0.028093552158769394,0.3349514563106796,0.5679611650485437,0.4724671348946943,0.8089189752739643,0.01604724260081921,0.7808028187147121,0.843266406258232,0.8090773512031253,0.38278293878123615,0.08766532266980473,0.2582871735838175,0.5448391525671532,0.39264527811836697,-0.37931775205268,0.5068372322040925,1.0,-0.1727209230963949,0.49301628105572054,-0.7880434055800831
26,0.05413720065066856,0.06636075353794414,0.0,0.19181946403385053,0.0855525688049045,0.2094239368894725,0.10251346474874821,0.025764895330112725,0.3075684380032207,0.23308963734132854,0.6475660907608337,0.07793944390354478,0.4749568221070811,0.8048359240069085,0.6522233000405013,0.7538386755497106,0.0630465544684099,0.6506447831184057,0.8264947245017585,0.7564613453908191,0.3024042411557628,0.19694401709671083,0.06540447504302915,0.6815834767641995,0.36069394891836565,0.47808713998018054,0.2573122758879955,0.02178899082568797,0.9254587155963302,0.5427211302696728,0.3099934123324313,0.271159143359779,0.0,0.9066059225512529,0.4115422263878799,0.39773770736435804,0.07857680291088637,0.18935489364753547,0.6532183609261135,0.4053986735623438,0.4237840108047311,0.14855028631458492,0.1015331505736623,0.9587436964835685,0.44898016239318794,0.5297082114675458,0.15807209221258667,0.022089196174151227,0.9645615662712701,0.5527119626526216,0.49702348400806273,0.07239339733880183,0.20627802690582958,0.757847533632287,0.5022498252789416,0.5283774560867843,0.07757015018487319,0.20103092783505155,0.7474226804123711,0.5340214402970748,0.41763569959279656,0.051461534944563125,0.21686746987951808,0.6807228915662651,0.4207833642902163,0.46715792447499643,0.013563182953036703,0.4256756756756757,0.5,0.4673540899106729,0.4685958640662475,0.012891890858251105,0.4155844155844156,0.5194805194805195,0.46877255206854435,0.5817570930811348,0.016289386142412314,0.47321428571428575,0.6339285714285714,0.5819843081279803,0.410336817653891,0.028827157999395496,0.25833333333333336,0.525,0.4113446407487353,0.47369845404417976,0.05762801688644903,0.24271844660194172,0.7864077669902911,0.4771788368171834,0.9046456473287844,0.022041077334233748,0.8515918553348485,0.926815440461043,0.9049131801484437,0.2877305727668221,0.32554997657440804,0.0,0.9376064518096492,0.4340534434237035,-0.8549663627694977,-0.7508827335541716,1.0,0.9345130826459651,0.8946853124733211,0.8733007051691066
27,0.09556749357006555,0.026974859487495013,0.03314527503526088,0.12693935119887173,0.09924761074519213,0.04092071611253204,0.04041092295978367,0.0,0.14653784219001614,0.05730211486395533,0.9132632327542415,0.06433748375505013,0.7720207253886011,1.0,0.9154934035175087,0.9221950210330324,0.04321827172564014,0.8675263774912075,1.0,0.9231922919427099,0.5431051938847825,0.08853948625710381,0.3184165232358003,0.7487091222030982,0.5501701639501246,0.6556428764166221,0.15038937430142005,0.3474770642201835,0.8577981651376146,0.672422443771993,0.6471593193085894,0.13301862663388622,0.3314350797266515,0.8120728929384966,0.6604914339932569,0.38515259908540206,0.06388656604736451,0.24649749468909943,0.4817905578014216,0.390338309602013,0.5656498917975149,0.21266447646104403,0.08038041087081599,0.9021643483263952,0.6037556531936391,0.385954996078085,0.07750487763357497,0.23377732617643376,0.5453307120820541,0.3935478709512508,0.49459245581640743,0.03930045612490916,0.3811659192825112,0.6367713004484306,0.4961285212388678,0.5288053365676169,0.06454282249396148,0.4072164948453608,0.7371134020618557,0.5326721304020527,0.4207122608079376,0.046448499582927856,0.30120481927710846,0.5783132530120483,0.42323107412960986,0.4676073131955486,0.010280908346429524,0.445945945945946,0.4932432432432433,0.46771865695267756,0.46829640947288026,0.007652805166137806,0.4480519480519481,0.48701298701298706,0.46835801615412115,0.5829831932773111,0.01263244857008667,0.5535714285714286,0.6071428571428572,0.5831180289223287,0.4104166666666669,0.012907937188195294,0.38333333333333336,0.43333333333333335,0.4106166154723414,0.472372929754426,0.00703001525809469,0.4514563106796116,0.4902912621359223,0.47242446919927084,0.9928219453290706,0.003965753321953931,0.9880253682796043,0.9999999999999999,0.9928297492742989,0.6975066005044503,0.13250660875521597,0.36374352621450456,0.8426807593061136,0.7097994457652625,-0.6040843229452574,-0.7169142148530142,1.0,0.5971544677087902,0.7087635201000558,0.8426885154623002
