,Orientation X,Orientation X,Orientation X,Orientation X,Orientation X,Orientation Y,Orientation Y,Orientation Y,Orientation Y,Orientation Y,Orientation Z,Orientation Z,Orientation Z,Orientation Z,Orientation Z,Orientation W,Orientation W,Orientation W,Orientation W,Orientation W,Accelerometer X,Accelerometer X,Accelerometer X,Accelerometer X,Accelerometer X,Accelerometer Y,Accelerometer Y,Accelerometer Y,Accelerometer Y,Accelerometer Y,Accelerometer Z,Accelerometer Z,Accelerometer Z,Accelerometer Z,Accelerometer Z,Gyroscope X,Gyroscope X,Gyroscope X,Gyroscope X,Gyroscope X,Gyroscope Y,Gyroscope Y,Gyroscope Y,Gyroscope Y,Gyroscope Y,Gyroscope Z,Gyroscope Z,Gyroscope Z,Gyroscope Z,Gyroscope Z,EMG1,EMG1,EMG1,EMG1,EMG1,EMG2,EMG2,EMG2,EMG2,EMG2,EMG3,EMG3,EMG3,EMG3,EMG3,EMG4,EMG4,EMG4,EMG4,EMG4,EMG5,EMG5,EMG5,EMG5,EMG5,EMG6,EMG6,EMG6,EMG6,EMG6,EMG7,EMG7,EMG7,EMG7,EMG7,EMG8,EMG8,EMG8,EMG8,EMG8,Roll,Roll,Roll,Roll,Roll,Yaw,Yaw,Yaw,Yaw,Yaw,Accelerometer X vs Roll,Accelerometer Y vs Roll,Accelerometer Z vs Roll,Accelerometer X vs Accelerometer Y,Accelerometer X vs Accelerometer Z,Accelerometer X vs Accelerometer Z
,mean,std,amin,amax,RMS,mean,std,amin,amax,RMS,mean,std,amin,amax,RMS,mean,std,amin,amax,RMS,mean,std,amin,amax,RMS,mean,std,amin,amax,RMS,mean,std,amin,amax,RMS,mean,std,amin,amax,RMS,mean,std,amin,amax,RMS,mean,std,amin,amax,RMS,mean,std,amin,amax,RMS,mean,std,amin,amax,RMS,mean,std,amin,amax,RMS,mean,std,amin,amax,RMS,mean,std,amin,amax,RMS,mean,std,amin,amax,RMS,mean,std,amin,amax,RMS,mean,std,amin,amax,RMS,mean,std,amin,amax,RMS,mean,std,amin,amax,RMS,corr, corr, corr, corr, corr, corr
0,0.6090225563909772,,0.6090225563909772,0.6090225563909772,0.6090225563909772,0.0,,0.0,0.0,0.0,0.3694029850746269,,0.3694029850746269,0.3694029850746269,0.3694029850746269,0.0,,0.0,0.0,0.0,0.3306351183063512,,0.3306351183063512,0.3306351183063512,0.3306351183063512,0.9470013947001394,,0.9470013947001394,0.9470013947001394,0.9470013947001394,0.10060711188204663,,0.10060711188204663,0.10060711188204663,0.10060711188204663,0.39434043563520604,,0.39434043563520604,0.39434043563520604,0.39434043563520604,0.473869331283628,,0.473869331283628,0.473869331283628,0.473869331283628,0.4926829268292683,,0.4926829268292683,0.4926829268292683,0.4926829268292683,0.595959595959596,,0.595959595959596,0.595959595959596,0.595959595959596,0.38764044943820225,,0.38764044943820225,0.38764044943820225,0.38764044943820225,0.5211267605633803,,0.5211267605633803,0.5211267605633803,0.5211267605633803,0.6538461538461539,,0.6538461538461539,0.6538461538461539,0.6538461538461539,0.4863636363636364,,0.4863636363636364,0.4863636363636364,0.4863636363636364,0.47058823529411764,,0.47058823529411764,0.47058823529411764,0.47058823529411764,0.3924050632911392,,0.3924050632911392,0.3924050632911392,0.3924050632911392,0.5,,0.5,0.5,0.5,1.0,,1.0,1.0,1.0,0.008256973980464044,,0.008256973980464044,0.008256973980464044,0.008256973980464044,nan,nan,nan,nan,nan,nan
1,0.5323211521450721,0.16140952547959203,0.0,0.6428571428571428,0.5562112479340026,0.21240363841696944,0.3585849921311523,0.0,1.0,0.4164878581955041,0.4177046751536445,0.1793636863722603,0.10074626865671654,1.0,0.4545210546898091,0.09533584600888406,0.2027075947968743,0.0,0.7299771167048053,0.22383868914028418,0.38602712255512417,0.1312676659675865,0.0,1.0,0.4076965347860224,0.868954590204282,0.15403541261200265,0.0,0.9772198977219897,0.8824768396594407,0.23766166267027183,0.25421093142065543,0.0,0.9999999999999998,0.3478325328577092,0.41653406481042277,0.10885620312429309,0.06101003350363615,1.0,0.4304979879384738,0.48141559659990074,0.1025543269856868,0.1122213681783244,1.0,0.4921981645594135,0.47659184002869426,0.10723122449183688,0.0,1.0,0.48848457547209945,0.6129029263220428,0.05491068173484473,0.1363636363636364,0.9393939393939394,0.6153532623192628,0.4569873595505634,0.06310527792204534,0.0561797752808989,1.0,0.46131594653787134,0.5197027754763878,0.05156392311745143,0.0,1.0,0.5222498687744813,0.6691317873303168,0.05297075425180851,0.0,1.0,0.6712213433108165,0.4887032085561507,0.04769462754811867,0.14545454545454545,0.9681818181818181,0.4910207958668833,0.4836721453287204,0.05285623310975547,0.08823529411764708,0.9852941176470589,0.486546390304054,0.41483618763961294,0.0787537275199867,0.050632911392405056,1.0,0.4222319400085333,0.4784384040501448,0.05502321968885252,0.10655737704918034,1.0,0.48158622884906455,0.8872991877417507,0.23316553779156166,0.18568621407518604,1.0,0.9173691071602281,0.15615040529803695,0.29324338993928367,0.0,0.9930795088411293,0.3319887978021101,-0.8984611034571427,0.5935975509960448,1.0,-0.37827877299684565,0.7840578147431,-0.8006655632707833
2,0.7478853383458642,0.04776472710772143,0.6616541353383458,0.8796992481203008,0.7493932099803667,0.8522711463550364,0.04678033125453434,0.7729549248747916,0.93322203672788,0.853540690579312,0.35022154850746284,0.14462244719315742,0.09328358208955223,0.5783582089552239,0.3786197484200798,0.6987986270022885,0.034818800620994655,0.6247139588100683,0.7551487414187642,0.699656516687178,0.7019769613947694,0.049559247297788316,0.5666251556662516,0.805728518057285,0.7037060385906293,0.7627750658608402,0.07235083383692816,0.6285448628544863,0.8860994886099488,0.7661631136533675,0.6827750072275224,0.05901533621485883,0.5143104943625323,0.8421509106678229,0.6852942733842263,0.41287250078409676,0.16130241534657208,0.2063771225564769,0.8491369076407635,0.44295727263422746,0.4490778247501923,0.08802482653136837,0.2617248270561107,0.6967747886241353,0.4575352998183278,0.49015843495934946,0.13519606585497973,0.22164390243902438,0.7792682926829269,0.5082744062008338,0.6110058922558924,0.10815004506395744,0.0,0.9595959595959598,0.6204053471584892,0.4554073033707866,0.05827444781817681,0.29775280898876405,0.6235955056179776,0.45908207235335524,0.5189260563380282,0.04598443686271992,0.40845070422535207,0.6690140845070423,0.5209383779542484,0.6708333333333335,0.039285373868919234,0.5461538461538462,0.8076923076923077,0.6719707026698027,0.4893939393939395,0.041985657292673284,0.34090909090909094,0.6272727272727272,0.49117294396326705,0.4809538398692807,0.027572979966241508,0.37745098039215685,0.5882352941176471,0.4817353483377975,0.4113264767932489,0.021857176984264787,0.33544303797468356,0.45569620253164556,0.41190075294695355,0.4754098360655738,0.0785841988893585,0.18852459016393447,0.6967213114754098,0.48179420987045485,0.20032034883812477,0.0886673908743453,0.02696975761782605,0.3808326306290526,0.21887954108777605,0.7908259860210668,0.021441542861537922,0.7477587705003028,0.8271938738507867,0.7911135765303483,0.6664535304789057,0.9017392199595916,1.0,0.7548084601377114,-0.36529538011660395,-0.5942371603810198
3,0.8218372016999016,0.07344929335221959,0.6804511278195489,0.9699248120300745,0.825089141879655,0.7968474026759581,0.03373497102289514,0.7078464106844744,0.8363939899833056,0.7975560072463513,0.27038719446247045,0.07089145036254137,0.1809701492537314,0.4328358208955224,0.27946093696418955,0.7044904321294729,0.08450130880878093,0.5469107551487413,0.8329519450800913,0.7095036980929068,0.7121618207085745,0.03591194847934657,0.5610211706102116,0.7901618929016188,0.7130601527907235,0.8061771067046669,0.055220351070112805,0.701534170153417,0.8935378893537889,0.8080524229671968,0.6368327111379257,0.04422499358671867,0.5195143104943624,0.7172593235039026,0.6383553706255795,0.40339080782773584,0.07338259741474656,0.2195675304918263,0.5350381202789332,0.40996356870277384,0.4743839855629447,0.06358244553632668,0.3566487317448117,0.7248270561106841,0.4785954429505358,0.4923361965358783,0.09555080116586079,0.2829268292682927,0.7719512195121951,0.5014566052254943,0.6169667691406833,0.04718200894976556,0.4747474747474748,0.7727272727272728,0.6187552058196258,0.4580280084676764,0.05276766894276694,0.25842696629213485,0.6853932584269663,0.4610356888789647,0.520106144111043,0.0459674055891541,0.40845070422535207,0.676056338028169,0.522118848450456,0.6692865105908581,0.03933863886295542,0.5307692307692308,0.9230769230769231,0.6704332537932356,0.48824110671936777,0.03566316153862515,0.38181818181818183,0.75,0.4895324534663315,0.48110258596192035,0.013909684409132091,0.4411764705882353,0.5294117647058824,0.48130216653942964,0.41175931021830864,0.016432725421484728,0.3227848101265823,0.45569620253164556,0.4120847088218042,0.4780826799714896,0.05316846915640599,0.29508196721311475,0.5983606557377049,0.4810087840353681,0.2511605650685466,0.05144758548747339,0.1885522215440849,0.388417286659934,0.2563382597198726,0.7525039417463243,0.041819507560260684,0.6938828144381444,0.8095857699900202,0.7536566728799905,-0.40067302238669467,-0.4335103267088387,1.0,0.7187065581842733,0.3867316051995616,0.21937885571387913
4,0.7012724117987272,0.1694834203329019,0.477443609022556,1.0,0.7211558139103508,0.8439450365994609,0.05190005782944376,0.7195325542570954,0.8931552587646081,0.8455148730550928,0.3935993111366247,0.11454713450727382,0.17537313432835827,0.5466417910447762,0.4096823177835877,0.6321070234113709,0.09707613397748963,0.48741418764302047,0.8123569794050342,0.6394044757960565,0.6810901427339784,0.0421268612323328,0.6046077210460772,0.8026151930261518,0.6823717112496662,0.7313235346708148,0.07833476577963566,0.6429567642956764,0.909809390980939,0.7354427528578745,0.6572419774501298,0.0591861011027907,0.5290546400693841,0.7623590633130961,0.6598606817065622,0.4123967512363471,0.12931204605339247,0.09865545775112333,0.5704851432038621,0.4318974765142233,0.5171352687281974,0.10812468452140062,0.2874711760184474,0.8704873174481169,0.5281476808963214,0.5744887054409007,0.13809148103903263,0.38353658536585367,0.8585365853658536,0.5906040607953984,0.6155400155400157,0.034607336249543035,0.5454545454545455,0.7222222222222223,0.6164971636561077,0.45851339671564384,0.04236468563910402,0.35393258426966295,0.5898876404494382,0.46043641229092214,0.5201516793066089,0.03892949456162688,0.4436619718309859,0.6126760563380281,0.5215840867610492,0.6689940828402366,0.03853284809535307,0.5846153846153846,0.7846153846153847,0.6700858306832612,0.4882517482517483,0.04154254132798432,0.39090909090909093,0.6409090909090909,0.4899887773277912,0.4808446455505275,0.017433068132705835,0.43137254901960786,0.5245098039215687,0.4811557018803643,0.41168451801363193,0.015839815566754987,0.34810126582278483,0.43670886075949367,0.41198444404254003,0.47011349306431277,0.08354564702578207,0.19672131147540983,0.6475409836065574,0.4773669330857254,0.23894543867502174,0.08246714762614557,0.10945895606386813,0.38005890131298825,0.2525690498469928,0.7560012823389836,0.034601126632511726,0.7152384202883006,0.8331005277343388,0.756780521562773,0.09884363639967426,-0.02004067027495983,1.0,0.6663592677856485,-0.2759684411197622,-0.6824324255837885
5,0.693386007391359,0.07157099603334652,0.43984962406014994,0.7894736842105257,0.6970492253522129,0.8406383520556872,0.03501502622378161,0.7746243739565946,0.8898163606010019,0.8413631583095063,0.301627455940636,0.11500987294651537,0.15485074626865675,0.5223880597014926,0.32269437972866266,0.6497821562011139,0.05255227516890192,0.49427917620137274,0.7276887871853546,0.6518918538245179,0.7099999296423721,0.03359684277306299,0.5765877957658778,0.8019925280199253,0.7107898921833555,0.7646581408725942,0.0464953983227909,0.6587633658763365,0.8489074848907484,0.7660624522739268,0.680455309411459,0.030326682176117097,0.6019080659150041,0.7406764960971377,0.6811269629589093,0.39363091092361013,0.08441003574072667,0.18026890844977528,0.6378133821085307,0.40252961832040807,0.4751062068725923,0.06360194478926033,0.37893927747886247,0.8358923904688701,0.47932062433286793,0.504330301777594,0.08154324137989793,0.2780487804878049,0.7292682926829268,0.5108432116001341,0.6141642412828869,0.03204710070266025,0.45959595959595967,0.7323232323232324,0.6149950646793825,0.4568653589792429,0.033469331966629275,0.34269662921348315,0.5842696629213483,0.4580827694047593,0.5197740112994352,0.03801819757763869,0.40845070422535207,0.6408450704225351,0.5211547180653235,0.6720556279878313,0.03948434580408796,0.5923076923076923,0.8230769230769232,0.6732079713487207,0.4894196199280946,0.05415991755528732,0.34545454545454546,0.7545454545454545,0.49239038246353656,0.4807521878808018,0.030608375867172584,0.33333333333333337,0.6372549019607843,0.4817200906745054,0.4109633125938639,0.054217179281577814,0.0,0.620253164556962,0.4145042092288696,0.4728165231082709,0.0792302998875024,0.1311475409836066,0.7213114754098361,0.47937192155921177,0.2747121085971441,0.09931313950066697,0.06868544454644754,0.45162280407953825,0.29201732578800305,0.7906619791750675,0.027280757020761152,0.7288049700624359,0.8324511611482226,0.7911298251694042,0.4414545856488085,0.6584932967624482,1.0,0.6813250627420327,0.17177846594719182,-0.10257763777212552
6,0.7142278773857719,0.028557298795238554,0.6654135338345863,0.7631578947368416,0.7147897828721906,0.8175677411069735,0.03993014981763306,0.7512520868113525,0.8714524207011688,0.8185272742389194,0.2702066590126292,0.08578132277245445,0.13059701492537312,0.3880597014925373,0.2832964299349239,0.6419996479493045,0.05001883257535355,0.6018306636155604,0.7848970251716245,0.643915321344446,0.7124149822779959,0.03350006395990737,0.6656288916562888,0.797011207970112,0.7131900839249883,0.7845438615313093,0.048071796608503956,0.7136215713621571,0.8754067875406787,0.7859926310242416,0.659643738741744,0.040391302474545886,0.5845620121422375,0.7718993928881177,0.6608602121730884,0.4335859578299276,0.07960104088489572,0.29568497788408266,0.56059233725235,0.44072171106408553,0.47151876071660853,0.05952880789137129,0.37432744043043814,0.5960768639508071,0.4752042745374983,0.4831751594746718,0.1159363100129519,0.3192048780487805,0.6722585365853658,0.49668166323112173,0.6107226107226111,0.03858049217819743,0.5353535353535355,0.7171717171717172,0.6119212876885805,0.45289541918755394,0.061314603811459645,0.3146067415730337,0.7247191011235955,0.45696378762208895,0.5169014084507042,0.05228310065939665,0.40845070422535207,0.7605633802816901,0.5194983488701501,0.6697041420118344,0.02579637358825773,0.6000000000000001,0.7538461538461538,0.6701931460268288,0.48391608391608404,0.03716340782434896,0.40454545454545454,0.6,0.48531911890117296,0.4785067873303166,0.0413018587536884,0.37254901960784315,0.5882352941176471,0.48025862335930536,0.40749756572541374,0.055545550933124924,0.20253164556962025,0.5886075949367089,0.4112081079212378,0.4759142496847415,0.10166575008858471,0.2868852459016394,0.7295081967213115,0.4864887291266667,0.30304248253445826,0.06017644724798933,0.1900080120922154,0.3920214529416113,0.3088692930365667,0.7750864170321089,0.02835455919121836,0.7466277591283441,0.8510264497114242,0.7755969094547273,0.217513903029022,0.5956114764411921,1.0,0.7742248998882394,0.08998586808439808,-0.3188791790596787
7,0.7366008604398694,0.05115506105458421,0.6466165413533833,0.9436090225563909,0.7383655423122152,0.8958781569996349,0.04430725007456912,0.7779632721202006,0.9565943238731222,0.8969672828838063,0.2229627264745791,0.08023073112729277,0.11567164179104494,0.4179104477611941,0.23688589091284246,0.8345549994493323,0.11131638751721054,0.6086956521739129,0.9999999999999999,0.8419068365297255,0.7406017541172473,0.03622496427876525,0.6239103362391033,0.8848069738480697,0.7414824265411554,0.8253169151520124,0.049731148108932755,0.696885169688517,0.913993491399349,0.8268058852770962,0.7729151110101062,0.08279888784658412,0.5888985255854291,0.9288811795316564,0.777313812687823,0.4012161885288782,0.061959485981195106,0.16790509941170778,0.5517987319621172,0.40594689128886685,0.48047989411682523,0.07401815309110664,0.33435818601076095,0.7482674865488086,0.48611759672548327,0.4994424938046175,0.09948811734159295,0.24573170731707317,0.7323170731707317,0.5092030638566577,0.6111111111111127,0.0567739651514198,0.4242424242424243,0.7676767676767677,0.6137286341978422,0.45724929399747716,0.04818790383371419,0.3146067415730337,0.5955056179775281,0.45976795606985355,0.5225954658431877,0.03506278822533423,0.4225352112676056,0.6338028169014084,0.5237641126606114,0.6720691073632249,0.035927879565146585,0.5538461538461539,0.8461538461538463,0.6730236213248741,0.48825960136120566,0.03406966630540123,0.38636363636363635,0.6772727272727272,0.48944046962447546,0.48120478137779144,0.01833392300007622,0.36764705882352944,0.5490196078431373,0.4815520499927057,0.41399851079672356,0.023246748931919792,0.2784810126582279,0.47468354430379744,0.4146471854210718,0.4828614008941877,0.08271615917614757,0.12295081967213117,0.680327868852459,0.4898576399577514,0.1677181347515179,0.053967305846236754,0.09435894275829604,0.3190107575982184,0.1761427492643703,0.8906722293872636,0.07676384075812977,0.7653122126679788,1.0000000000000002,0.8939564842614572,-0.5256358728239641,-0.5538282023727333,1.0,0.7125202983520882,0.5628521765864017,0.5542535546232634
8,0.5653717627401836,0.14551633507350079,0.3796992481203003,0.9060150375939848,0.5836301645969075,0.7840382118345389,0.07268989774566388,0.6894824707846413,0.8964941569282139,0.7873695540089732,0.27278537866224445,0.17009208153417948,0.07835820895522394,0.5597014925373135,0.3210534168251768,0.505657259089753,0.13451063927097723,0.3569794050343249,0.7986270022883293,0.5230820651979191,0.6864939347816057,0.04518598423294809,0.5529265255292652,0.7932752179327521,0.6879656898101041,0.7523804604232313,0.07676031494741826,0.6122733612273361,0.900511390051139,0.7562499231540777,0.6375317207927788,0.044019941153171156,0.5351257588898524,0.7476149176062444,0.6390356078171039,0.362351538701797,0.13431263128703197,0.0,0.5364099227042095,0.3862272447275217,0.4837833575312437,0.08813797430514411,0.33551421983089935,0.828205995388163,0.4916733781809122,0.5246612014453477,0.1323926431033379,0.3326195121951219,0.8274390243902439,0.5409573862097556,0.616348671904228,0.05165741839574532,0.43939393939393945,0.792929292929293,0.618489665235476,0.455940491052851,0.041327539000191524,0.34831460674157305,0.5730337078651686,0.4577924009484469,0.5164971309337507,0.037833907717663415,0.40845070422535207,0.6338028169014084,0.5178681657429202,0.6658831908831914,0.04741009179269295,0.5538461538461539,0.8538461538461539,0.6675532402078086,0.4851010101010101,0.050454921785293975,0.29545454545454547,0.65,0.487693672139713,0.4812999273783585,0.03205789569040624,0.3529411764705882,0.6078431372549019,0.4823565205835154,0.4105719643694328,0.03502154047512635,0.22151898734177217,0.5506329113924051,0.4120491350131896,0.46744080145719513,0.10053554309783932,0.05737704918032788,0.7704918032786886,0.4780321237095236,0.43935708985509275,0.19178462459737855,0.16219656099961144,0.6665727119378577,0.4790359346168764,0.7391593665105155,0.025184839204130057,0.6979004695050004,0.7993833921540079,0.7395843239948199,0.32667312161312295,0.3965774359525252,1.0,0.8512713312499043,-0.3062841272615621,-0.47978405446743605
9,0.6589688506981739,0.03600783251183378,0.5789473684210522,0.7105263157894735,0.6599411051272712,0.8414573740116322,0.046627467155099106,0.6994991652754594,0.903171953255426,0.8427340870853987,0.38600951287518465,0.11817951348927437,0.12873134328358227,0.5578358208955224,0.4035049746212545,0.5895088892800561,0.04540509307887705,0.5057208237986268,0.6681922196796337,0.5912357379469263,0.6808602356547562,0.030794239443749906,0.606475716064757,0.7372353673723536,0.6815486225959769,0.7223014084938773,0.04875957419624004,0.6452812645281264,0.8516968851696884,0.7239272715249332,0.6543083975868017,0.0334006176435892,0.5594102341717258,0.7241977450130094,0.655150991037247,0.430622996012245,0.14253296436274068,0.20225292167535763,0.7026662211239987,0.45335257997304745,0.46966840384826547,0.07105966728067876,0.30476863950807076,0.7986164488854728,0.4749551527636209,0.4949173948003216,0.08240662211092019,0.34024390243902436,0.7030487804878048,0.5016567096166108,0.6137751137751144,0.03618816513883072,0.5252525252525253,0.7323232323232324,0.6148293117284969,0.45869860476602087,0.04536610003854694,0.2808988764044944,0.5617977528089888,0.4609120054304711,0.5232936078006503,0.049169212758321236,0.4014084507042253,0.6690140845070423,0.525573253019155,0.6683009298393918,0.04124676250655013,0.5692307692307692,0.7769230769230769,0.6695586103452266,0.4853646353646355,0.04980126803956015,0.34090909090909094,0.6863636363636363,0.48788496696074424,0.4822236586942464,0.031214268748814084,0.35784313725490197,0.6029411764705882,0.48322177170385155,0.4124356656002224,0.03146592803878901,0.23417721518987342,0.4873417721518987,0.41362108579690515,0.48081426769951385,0.06938190683110826,0.27049180327868855,0.8032786885245902,0.4857399608632471,0.28068077201674024,0.10492961620723947,0.1032774191738488,0.524166648538877,0.29945104551638646,0.7551315717181599,0.026247404537901864,0.6998733823257286,0.7832332207956565,0.7555825873009768,0.5734877129784033,0.8911034082865051,1.0,0.7235236677665409,-0.22634079368836987,-0.6654665726864369
10,0.7764692343102648,0.08336681671619851,0.6691729323308264,0.9436090225563909,0.7808864061601971,0.8610609519266813,0.03947984312767049,0.7629382303839736,0.9015025041736231,0.8619563308385529,0.4396131586963145,0.1136769009964767,0.24067164179104483,0.6026119402985075,0.4539276434727277,0.7068369681968895,0.1096744976676531,0.5697940503432493,0.8787185354691074,0.7152092388238906,0.6837560678069485,0.04304329720036643,0.6164383561643836,0.7652552926525528,0.6850957453780668,0.7318570384918264,0.06660095477878565,0.6383077638307764,0.8572756857275685,0.7348504268580218,0.6645928102377113,0.042495328227104695,0.5767562879444925,0.7380745880312227,0.6659362051053874,0.4205866555065645,0.07992084324184841,0.30035877909584147,0.5586709344964342,0.42803656271844764,0.4605208552291017,0.05286224000639298,0.3466564181398924,0.5980015372790162,0.46351414225046755,0.4725700846192135,0.12917858407133,0.22621951219512193,0.6945121951219512,0.4897339225149733,0.610183467326325,0.03564131352114292,0.5202020202020203,0.7070707070707072,0.6112128964199266,0.4468585186883744,0.05597186343695924,0.30898876404494385,0.5898876404494382,0.450314798079041,0.5162402989364762,0.05811070721484106,0.37323943661971826,0.6971830985915493,0.5194674608117082,0.6686813186813184,0.04064762736248544,0.5461538461538462,0.8230769230769232,0.669903034832481,0.48413729128014865,0.029861833561785844,0.40454545454545454,0.6045454545454545,0.48504798384817854,0.48079231692677027,0.01868499232034706,0.3872549019607843,0.5784313725490196,0.4811515545164952,0.4136528028933092,0.02270655868393992,0.310126582278481,0.5126582278481012,0.41426919756202485,0.47189695550351274,0.07297279644967174,0.139344262295082,0.6475409836065574,0.47744887538283737,0.14470304338451745,0.08031040805995787,0.048887030989302804,0.3094246857038505,0.1652964564447304,0.7647054252005773,0.04497307987092929,0.6915826759494921,0.8301944152736687,0.7660132679622064,-0.33582820643762296,-0.0752263597452705,1.0,0.900717633382491,0.30654349067874204,0.013400446438903434
11,0.8228383458646611,0.0598168759405038,0.7142857142857135,0.9248120300751879,0.8249916271800458,0.8512799109627159,0.030760730878079866,0.7913188647746247,0.8948247078464109,0.851830865949813,0.39143345771144294,0.14174942945375488,0.203358208955224,0.6082089552238806,0.41610769246291734,0.7502669717772688,0.06010286130689432,0.6567505720823799,0.8421052631578946,0.7526505031737052,0.6989155251141551,0.037377328821049174,0.6183063511830635,0.7777085927770858,0.6999059463595643,0.7604873702154034,0.0691084788222859,0.6569037656903766,0.8800557880055787,0.7635949333603264,0.6701214223764095,0.03232182939656348,0.5975715524718125,0.738941890719861,0.6708939674378704,0.3943201370629942,0.07886869101459268,0.21819572806655,0.5256949146580606,0.4020656729054112,0.46728803484499115,0.05979672502713971,0.3497309761721753,0.684857801691007,0.47106683046453035,0.48400158536585364,0.10313084437018931,0.3003073170731707,0.723170731707317,0.4947775991341938,0.6136363636363645,0.026450653361938484,0.5303030303030304,0.7020202020202021,0.6142014274904224,0.45566479400749077,0.039029976999870354,0.3370786516853933,0.5842696629213483,0.45731941693958383,0.5197183098591549,0.04269114909516841,0.40845070422535207,0.6549295774647887,0.5214541859347092,0.6705128205128207,0.031366747346138056,0.5846153846153846,0.7538461538461538,0.6712399841865865,0.48693181818181835,0.02994637485638917,0.4,0.6909090909090909,0.4878441428504585,0.4815767973856204,0.014630109524541798,0.4264705882352941,0.5294117647058824,0.4817971235046473,0.41339662447257386,0.015718373371641413,0.3607594936708861,0.4810126582278481,0.4136928540510741,0.4782786885245904,0.05314898323753167,0.30327868852459017,0.6065573770491803,0.48119827326770975,0.13453392464129868,0.05719693246264778,0.0,0.19420076358663962,0.1460945021330413,0.7749660931784296,0.03235612064028734,0.7272514314107688,0.8293977143295674,0.775635635977317,0.6401368986519749,0.7374878586747718,1.0,0.8738857591296755,0.2958038872097779,0.05128317335770418
12,0.6835773644637911,0.1623480256571778,0.4924812030075185,0.966165413533834,0.70239408723653,0.8258852473420614,0.04842496828542504,0.7412353923205345,0.8948247078464109,0.8272887859486889,0.37397879025923025,0.1415447649993039,0.17350746268656725,0.5783582089552239,0.39960500767943213,0.6036854149102736,0.12666037472625205,0.4485125858123571,0.8169336384439359,0.6166928397430813,0.6812479517598476,0.040915002074954805,0.606475716064757,0.797011207970112,0.6824625907150668,0.7354327240695879,0.07872681610885547,0.6378428637842863,0.902370990237099,0.7395904015281586,0.6455836034144334,0.03585208855328268,0.5559410234171724,0.7406764960971377,0.6465678858534103,0.3818934576039462,0.12083825529039899,0.15911149412147482,0.590824752240171,0.4003633260687519,0.48792051458392355,0.07609327902266094,0.32090392006149115,0.7536541122213682,0.4937566873736857,0.547407240051348,0.11054892893324399,0.37225853658536584,0.8073170731707318,0.5583431824175904,0.6150451887293995,0.03908064615374519,0.5202020202020203,0.7323232323232324,0.6162725081272593,0.45517445298639897,0.033886479390982625,0.3370786516853933,0.5337078651685393,0.456420846190372,0.5223128243143066,0.03969972796344019,0.352112676056338,0.6619718309859155,0.5238035554001818,0.6709311740890687,0.04810626204458029,0.5384615384615385,0.8615384615384616,0.6726354827701315,0.48717703349282304,0.04859091925681274,0.36363636363636365,0.65,0.48956887763665397,0.4803921568627453,0.023487220551436077,0.4117647058823529,0.5784313725490196,0.48095994330850694,0.4145902731512324,0.02632118975389898,0.3037974683544304,0.5189873417721519,0.4154161852132718,0.4784296807592754,0.06179203003194158,0.29508196721311475,0.6065573770491803,0.48236192039717846,0.28138132070134536,0.14308953066444216,0.08564562041631385,0.49775653238883155,0.3153324264566319,0.7429509133831076,0.010518687610983,0.7240112225078881,0.7631723267257409,0.7430245876314688,0.1952012649453071,0.09952078555531327,1.0,0.8412860731958138,-0.5587183438939738,-0.696148674156846
13,0.6661215819818597,0.09610098127253784,0.3195488721804507,0.7744360902255636,0.6729873299253527,0.8282339025431027,0.05590619122871553,0.7128547579298833,0.919866444073456,0.8301101636737547,0.3055351047453318,0.1476816852069939,0.11940298507462699,0.6007462686567164,0.33921052198332413,0.6158479646181153,0.07666903593048716,0.402745995423341,0.7025171624713957,0.6205807741283872,0.7009030038700165,0.034206231788944164,0.6176836861768369,0.8026151930261518,0.7017334538078979,0.759227640496755,0.06634749859035408,0.6401673640167364,0.9121338912133891,0.7621081686974912,0.6691726399060354,0.03794150882538183,0.5542064180398958,0.7476149176062444,0.6702425864366622,0.4042074325523574,0.09835406244042535,0.25227094856620264,0.7048646224465569,0.41594926506544316,0.4647509918207101,0.04986393551862866,0.3470376633358955,0.6395080707148347,0.46740640414295825,0.5062123810565458,0.08529758797238954,0.36432682926829263,0.7759170731707317,0.5133166925863568,0.6127191194455783,0.027576214694996902,0.5303030303030304,0.7323232323232324,0.6133365771516228,0.4555348415377648,0.04976166904914969,0.24719101123595508,0.6853932584269663,0.45823259532600996,0.5207162256047494,0.04416701550242705,0.37323943661971826,0.676056338028169,0.5225776164547705,0.6710934805105212,0.03179561410793819,0.5615384615384615,0.7923076923076924,0.6718429036631137,0.48781084386465556,0.03749071636858112,0.36818181818181817,0.6545454545454545,0.48924295628437625,0.4811395410182007,0.03505152275724407,0.36764705882352944,0.6274509803921569,0.48240891131932573,0.41113696997218574,0.03344911037056985,0.19620253164556964,0.5443037974683544,0.41248931359415586,0.4782768506947,0.06552925837669117,0.10655737704918034,0.6967213114754098,0.48272515330476307,0.3055668847545251,0.13147782751416612,0.04363910367495283,0.562183092146231,0.3325357463670121,0.777388633919648,0.0235732524915995,0.7083346838296309,0.820867250916804,0.7777443631812203,0.42521529762689375,0.5975937073003774,1.0,0.835699219451737,-0.1928912702650491,-0.5156186977273065
14,0.6336085612805018,0.0399787681382731,0.5451127819548871,0.7142857142857135,0.6348608550672034,0.8463697163984968,0.05734954444159686,0.7595993322203676,0.9415692821368952,0.84829858502331,0.3187208131123526,0.0798284699985365,0.15671641791044782,0.44589552238805974,0.328506386120767,0.6010866055509538,0.07745672468059873,0.4851258581235698,0.7345537757437068,0.6060262738127721,0.7012086577176079,0.02767692987300798,0.6488169364881693,0.7795765877957658,0.7017513054084464,0.7464840151391986,0.04006848697852249,0.6764295676429568,0.8344955834495583,0.747552017530654,0.6781455685089312,0.061992293959985664,0.5585429314830874,0.8005203816131828,0.6809558573347729,0.40797427325572766,0.09280958379466252,0.25639075264467676,0.6111555676711895,0.4183345338306299,0.46345680293120445,0.04708532428280734,0.3458877786318217,0.6003074558032283,0.4658279022865767,0.48039622923836633,0.08054997164005692,0.35060975609756095,0.7051853658536585,0.48706162801936476,0.6132800396604091,0.04303449959672027,0.5050505050505051,0.7525252525252526,0.6147788329420475,0.45784793547942393,0.08694010392423167,0.2359550561797753,0.7865168539325843,0.4659795510818445,0.5213427806100408,0.06775247464044103,0.2957746478873239,0.880281690140845,0.5257000387714434,0.6709296838131195,0.04497565952273441,0.5538461538461539,0.8692307692307693,0.6724262343886404,0.4868934746235364,0.05462814681606819,0.3318181818181818,0.759090909090909,0.48992977238465923,0.48099362444364197,0.028425805420230172,0.36764705882352944,0.6568627450980392,0.4818277035953394,0.41244078589733624,0.028210710559844,0.26582278481012656,0.4810126582278481,0.413398552951276,0.47269435783968655,0.10530870210833483,0.1639344262295082,0.9098360655737705,0.48421260034966956,0.3075579205930155,0.10230914867663364,0.13859098601573994,0.4459368346098831,0.324029042996521,0.7856534627371785,0.05501615646993289,0.7232789128514441,0.882981326107322,0.7875655984085979,0.024522880032805384,0.4907681590592877,1.0,0.7205298856767548,0.11746739211816383,-0.38661782468761563
15,0.7389077088325202,0.05180847113149934,0.6203007518796992,0.8045112781954886,0.7407118008738364,0.8611421967014619,0.03259234045617793,0.7946577629382306,0.911519198664441,0.8617553637774579,0.2361407249466951,0.0968278777265199,0.1399253731343284,0.47947761194029853,0.25512068788984765,0.7615862398471087,0.10289875417552445,0.5652173913043477,0.8787185354691074,0.7684683322474269,0.7287575438260374,0.03999583164959802,0.6394769613947696,0.8175591531755915,0.7298482272747233,0.8107448107448109,0.06302237733882231,0.6713156671315668,0.9911668991166899,0.8131771916427645,0.72825786529169,0.05683027845555232,0.6053772766695575,0.8300086730268862,0.7304597548195392,0.40502138053998343,0.07349859391291146,0.2192949287278291,0.5842295482724962,0.41160014631321046,0.46924806784299516,0.05916211452666234,0.35857340507302077,0.7302075326671791,0.4729425687590419,0.485191798445457,0.10269089285418442,0.07164390243902446,0.7265219512195122,0.4958815976507681,0.6098623598623614,0.05296465449663335,0.39898989898989906,0.7575757575757577,0.6121453578324992,0.4577108284973459,0.062494119155986204,0.25280898876404495,0.7584269662921348,0.46193425785448333,0.5197724810400866,0.04745865097174587,0.380281690140845,0.7605633802816901,0.5219227722513106,0.669526627218935,0.03451835467853143,0.576923076923077,0.7846153846153847,0.670410974380057,0.48716283716283754,0.03680727251609597,0.32727272727272727,0.6181818181818182,0.4885437149347376,0.4816311139840548,0.02265595925615612,0.37745098039215685,0.5490196078431373,0.4821607638111306,0.41160105717067713,0.022064568638054248,0.31645569620253167,0.5,0.412188792278048,0.48121960007205894,0.061975491989631704,0.2377049180327869,0.7049180327868854,0.4851723002359199,0.22061830691543868,0.06237058822689438,0.13052400588893898,0.33780327545536837,0.22921857145442898,0.8431581624509128,0.052098691213288036,0.760478796124431,0.9115088609761537,0.8447573893979179,-0.24900125296495942,-0.1650751798274761,1.0,0.784403813413278,0.4754285831022607,0.39837505868531364
16,0.5477724924556291,0.18842627212849467,0.2518796992481205,0.8458646616541348,0.5790661763393936,0.8608338159971841,0.04231534800836255,0.7946577629382306,0.9465776293823042,0.8618661535099215,0.2992308863844045,0.13151103480601542,0.17164179104477617,0.5429104477611941,0.3266751008954179,0.5842556702314793,0.1443711006833893,0.3913043478260869,0.8352402745995421,0.6017108223178608,0.699252801992528,0.03742027000627881,0.606475716064757,0.7882938978829389,0.7002465508737176,0.7375686676344182,0.06620377658618996,0.6178521617852162,0.8777312877731287,0.7405137835257924,0.7074298930326681,0.03969905942736729,0.5715524718126624,0.8091934084995662,0.7085353538695024,0.37474720628057256,0.09185325218230164,0.16543409632515232,0.5380631204987733,0.3857655944457904,0.4778008334771265,0.06613663362805408,0.345119139123751,0.7090730207532667,0.4823255490927341,0.525163862618218,0.09336276205683844,0.32286341463414636,0.7277414634146342,0.5333426584326533,0.615268329554045,0.049971936139807153,0.43939393939393945,0.797979797979798,0.6172805877692632,0.4550179622410763,0.04340971387831801,0.2921348314606742,0.5730337078651686,0.4570699401089836,0.523857430296062,0.038874198695824834,0.4014084507042253,0.647887323943662,0.5252880450818517,0.670486656200942,0.033055728945515964,0.5692307692307692,0.7692307692307693,0.6712954671037841,0.48571428571428565,0.03499931263577603,0.36818181818181817,0.5909090909090909,0.486965077008501,0.4817927170868342,0.02600844071000361,0.35784313725490197,0.553921568627451,0.48248943988476134,0.4121673986050117,0.025872788322902667,0.2784810126582279,0.47468354430379744,0.4129731370185356,0.47234303557488583,0.07138139838606108,0.2295081967213115,0.6557377049180328,0.47766995442400695,0.3373795984842726,0.17925736543207038,0.055461853177324105,0.5762692004025556,0.3817585667892072,0.8128747134779837,0.025418137382964442,0.7549182852231155,0.8480410066964565,0.8132693197251907,0.061997539886802774,-0.033100619530330194,1.0,0.8001943921095516,-0.20331430907299933,-0.3830957070933486
17,0.5434697855750485,0.0717741544198746,0.45488721804511245,0.7030075187969924,0.5481539725294396,0.868966796512706,0.05063930744875586,0.7278797996661104,0.9465776293823042,0.8704301452691895,0.3347014925373135,0.11736640131859258,0.08582089552238814,0.5279850746268657,0.3545390319486974,0.5657598101534028,0.07326773546016972,0.45308924485125823,0.6979405034324941,0.5704494365746007,0.6918638439186381,0.029181771477076734,0.6363636363636364,0.74719800747198,0.6924744373185376,0.7227267248652653,0.05254102380868617,0.6448163644816365,0.8321710832171083,0.7246199206693101,0.7025216022614111,0.039106714632963856,0.5862966175195141,0.7857762359063312,0.7036011713783304,0.42565332416192897,0.10991030618129392,0.24869634801572293,0.6378133821085307,0.4395128487922145,0.45904567996128354,0.04797077923176577,0.3470376633358955,0.6026133743274404,0.4615269071868306,0.4848579584462511,0.06698842736328559,0.3686,0.6323170731707317,0.48942971804268526,0.6118967452300796,0.039066833751687374,0.5303030303030304,0.8030303030303031,0.613133377828785,0.4539741989180191,0.05091689779608666,0.34269662921348315,0.6292134831460674,0.4567996276650673,0.5196139801773605,0.043906302213384506,0.3943661971830985,0.676056338028169,0.5214519844061527,0.6707122507122508,0.030270007171848877,0.5923076923076923,0.7692307692307693,0.6713899086073561,0.4878787878787882,0.0293845425070661,0.38636363636363635,0.6045454545454545,0.4887563473394338,0.4801016702977481,0.024856798654605883,0.3284313725490196,0.553921568627451,0.48073994791160085,0.41082981715893113,0.03167830034783921,0.13291139240506328,0.4873417721518987,0.4120403134857686,0.47802064359441393,0.05260535021126509,0.27868852459016397,0.5901639344262295,0.4808851836824833,0.3278585649489126,0.11298538089473092,0.13894997985631719,0.5973782650141641,0.3466444492458877,0.8060246554198136,0.027258043377553987,0.7467635213507349,0.8407777384127821,0.8064820161434587,0.4239885504819919,0.5903995485183412,1.0,0.899015190420572,-0.3135928095697418,-0.5395831849208015
18,0.7023888836014083,0.08384349144879123,0.6127819548872178,0.8421052631578947,0.7073124422260003,0.826377295492488,0.06526747209857874,0.7145242070116863,0.8981636060100169,0.8289181837536276,0.31879368977895345,0.13146286665937182,0.1250000000000001,0.48320895522388063,0.34451870241880933,0.6316368797613187,0.03571661890876686,0.5789473684210524,0.6864988558352401,0.6326331298094136,0.6958478490470859,0.030815480099421238,0.6525529265255292,0.7895392278953922,0.6965212147970486,0.7632422953115712,0.07689394405208676,0.6638772663877266,0.9181775918177592,0.7670571269149687,0.6604564866556143,0.04009674304927456,0.5620121422376407,0.7320034692107544,0.6616571380390035,0.4232223643422199,0.08738277503747245,0.27452756355578223,0.5732375416597051,0.4320373409756507,0.47421189153426263,0.05657903266420672,0.3866256725595696,0.6414327440430438,0.4775328089839327,0.5226536585365855,0.11936630983008364,0.31554634146341465,0.7527463414634146,0.53594291139517,0.6101521544559518,0.03427400493550058,0.5252525252525253,0.686868686868687,0.6111018649026144,0.4517849523538614,0.044223260810142724,0.34831460674157305,0.5674157303370787,0.45391693547873774,0.5178284899269032,0.0382215473499157,0.40845070422535207,0.6126760563380281,0.5192193557883988,0.6709834469328141,0.023851223202608917,0.6307692307692307,0.7384615384615385,0.6714018661596837,0.4860759493670886,0.03096886593014523,0.37272727272727274,0.5727272727272728,0.4870490314898666,0.47977165549764195,0.030343535125243244,0.3480392156862745,0.5343137254901961,0.4807181260688535,0.4108315975004005,0.03233888159426426,0.25949367088607594,0.46835443037974683,0.41208635836619817,0.46721311475409827,0.07228431519452203,0.2213114754098361,0.6475409836065574,0.47270178474335744,0.28184758748497546,0.0594930071951151,0.1804741760927966,0.3649749597927623,0.2879803425894314,0.7686324051277956,0.020295430364960163,0.7334800267990595,0.8207163437992904,0.7688969142383819,0.8130046171152362,0.9404175307821835,1.0,0.8697099545227105,-0.6810289103621121,-0.8163632881312428
19,0.6910087719298246,0.10161344676081367,0.5112781954887216,0.8872180451127818,0.6983783869378318,0.8646772398441851,0.03439465240436327,0.7863105175292157,0.909849749582638,0.8653553391243148,0.3119558457711443,0.09564149528559615,0.1884328358208956,0.48694029850746273,0.32617099482901724,0.6807589626239513,0.06078070837081661,0.5789473684210524,0.7963386727688785,0.6834444190388216,0.7116957243669568,0.031577353401321416,0.6407222914072228,0.7633872976338729,0.712390078482036,0.7633736246706958,0.06181003867708042,0.6276150627615062,0.8935378893537889,0.7658511176354457,0.7039968198901411,0.04821842138163775,0.6235906331309625,0.875975715524718,0.7056324563406209,0.39673790219752186,0.07810923796510794,0.12008987064606613,0.5229469130048628,0.4042909521455861,0.47310381757622333,0.07043485183106601,0.3178293620292083,0.7598032282859339,0.4782749714561595,0.5046341056910569,0.10080774203319816,0.2612829268292683,0.7006097560975609,0.5145222021189457,0.6160353535353545,0.02951804548095189,0.5303030303030304,0.7575757575757577,0.6167362571278223,0.45922284644194783,0.045620297459474164,0.3314606741573034,0.5898876404494382,0.46146450654956445,0.5227699530516433,0.0442267517712396,0.4436619718309859,0.6830985915492958,0.5246218917843753,0.6702564102564105,0.02454768756074418,0.6076923076923078,0.7461538461538462,0.670702037330799,0.48719696969696985,0.01814342138659484,0.42272727272727273,0.5454545454545454,0.4875318736489866,0.48108660130718905,0.008365760171264664,0.45588235294117646,0.5049019607843137,0.4811587271206376,0.4129219409282701,0.010507534803849562,0.37341772151898733,0.44936708860759494,0.4130544970322441,0.4761612021857922,0.04445290974753225,0.30327868852459017,0.5655737704918034,0.47821447539310163,0.23723824697305063,0.05586748760238172,0.130362490333769,0.3612489319017054,0.24367427479408532,0.8136988352075946,0.026145347191773312,0.7783718286723083,0.8576132736599718,0.8141152726148858,0.4131558604127945,0.2876291728155414,1.0,0.7600781442640764,0.11692933124927585,-0.07339461355776292
20,0.5848214285714287,0.18689746488416895,0.29323308270676707,0.8458646616541348,0.613663510916199,0.8314899833055097,0.051142946966380276,0.7412353923205345,0.904841402337229,0.8330449852905891,0.3578785758706467,0.15898440137479602,0.1343283582089554,0.5783582089552239,0.3912669457871645,0.546863081617086,0.12245853906751814,0.354691075514874,0.7208237986270021,0.5602670028798488,0.6772973744292238,0.03706314652130617,0.62453300124533,0.7851805728518056,0.6783001556133785,0.721069657523632,0.07362825284731588,0.6280799628079963,0.8912133891213389,0.7247800360265054,0.6570269586585716,0.033396368728530995,0.5941023417172592,0.7458803122289677,0.6578663420166289,0.3751215074730991,0.13524990286095814,0.1497682885006023,0.5795557470607374,0.39851992966532623,0.4957963745836537,0.09217490733362925,0.35857340507302077,0.7578785549577248,0.5042040820618792,0.5428672764227641,0.09552660132783419,0.3978682926829268,0.7402439024390244,0.5511217250615519,0.6124263468013471,0.039715320910609024,0.49494949494949503,0.7121212121212122,0.6136993618158607,0.4562265917603001,0.050918099786266595,0.29775280898876405,0.6573033707865168,0.4590297910965791,0.5234008215962441,0.04694150323709059,0.4295774647887324,0.7253521126760563,0.5254797537484677,0.6704326923076921,0.03630947852945096,0.5846153846153846,0.8,0.671404974690721,0.48693181818181824,0.04213345891517321,0.35454545454545455,0.6181818181818182,0.48873237252705376,0.4811070261437906,0.02404596358080004,0.4068627450980392,0.5637254901960784,0.4817013140584672,0.41396360759493667,0.03164661057581733,0.26582278481012656,0.5443037974683544,0.41515893823854855,0.4786543715846992,0.06077663448544326,0.27049180327868855,0.6229508196721312,0.48245759363957114,0.34404912457575554,0.17485226265045223,0.12538081134282786,0.640371950999636,0.38551866602935825,0.7545072140581168,0.01263649958992832,0.7300775847989649,0.7786222737047623,0.7546119226745678,0.32997688674308717,0.20362225016296384,1.0,0.8671742477985014,-0.49554862878777695,-0.6831115903570917
21,0.5580618212197157,0.04347461149611371,0.46992481203007497,0.6090225563909772,0.5597382280530808,0.8238089122897133,0.0838127134594524,0.6744574290484142,0.93322203672788,0.8280251541091951,0.2861334353871666,0.16542769005055863,0.026119402985074647,0.539179104477612,0.33015869412383225,0.5412779440239395,0.06950890682184124,0.4324942791762012,0.6361556064073224,0.5456848962945823,0.6961128673457442,0.037568874291804735,0.5952677459526774,0.772104607721046,0.6971172648689504,0.7465341105508467,0.06717608854540351,0.6327289632728963,0.8670385867038586,0.7495246731280814,0.6770520603998488,0.055883377731790924,0.536860364267129,0.7961838681699911,0.6793347867596328,0.43326796001810725,0.15350865030648347,0.1951125141796885,0.7765896639963419,0.45943946439828315,0.4609077304111894,0.06146224697078979,0.3324396617986165,0.6552682551883167,0.46495296160936,0.4945929122368147,0.08103826737088934,0.3088439024390244,0.677439024390244,0.5011319384076269,0.6145644478977823,0.026688941106518923,0.5404040404040404,0.691919191919192,0.6151387422091995,0.45793719389225,0.035833283904008216,0.34269662921348315,0.5617977528089888,0.45932507357985525,0.5244372216203202,0.040344318800990764,0.43661971830985913,0.6830985915492958,0.5259735276815064,0.6731097961867195,0.034410296245164694,0.5846153846153846,0.8230769230769232,0.6739812652935706,0.4877622377622379,0.025409593778576694,0.39090909090909093,0.5681818181818181,0.4884179866553784,0.48181665828724624,0.011406752823272125,0.45098039215686275,0.5441176470588235,0.48195051003967737,0.41333982473222985,0.012698036988689581,0.379746835443038,0.4620253164556962,0.4135331579597377,0.47772173182009275,0.052944402374125746,0.2377049180327869,0.6229508196721312,0.48062168552096374,0.38643380232177216,0.1655870608212844,0.1300291305158816,0.6599337733447035,0.4201378431210219,0.7820035292659403,0.03294736977595336,0.7165369798563113,0.8337778662696431,0.7826913637778313,0.6233129144689178,0.9297130228084038,1.0,0.7639887540281003,-0.3773540505018508,-0.737641859679738
22,0.7031105160160674,0.07251128528458672,0.5864661654135337,0.7894736842105257,0.7067886942952785,0.8096370663434489,0.05022237940592676,0.7495826377295495,0.8797996661101838,0.8111719390538121,0.2730525454917195,0.13135859801862576,0.12126865671641796,0.44589552238805974,0.3026159329853243,0.6270022883295194,0.04670254501270693,0.5377574370709379,0.6773455377574369,0.6287154513922237,0.7037649908732662,0.03524232303142451,0.6419676214196761,0.7602739726027395,0.7046347775412747,0.7811912904478959,0.07372006374060361,0.6741050674105067,0.8735471873547187,0.7846145759794803,0.6547303639107034,0.03300095416693432,0.5585429314830874,0.7320034692107544,0.655550145855881,0.41458530260903853,0.09621902265004542,0.24897334658236528,0.5787335449661006,0.4254553445041053,0.46337363250608077,0.05948429386852393,0.34934973097617217,0.6414327440430438,0.4671242163957478,0.5333568994320081,0.09894744693831609,0.3759170731707317,0.7365853658536585,0.5423339023670852,0.6150546561505471,0.0361095077789782,0.5505050505050506,0.7323232323232324,0.6160992330849827,0.4575188548560874,0.03599680469399151,0.3651685393258427,0.5786516853932584,0.45891341473500247,0.5230561450897164,0.042824459612963696,0.4225352112676056,0.6971830985915493,0.5247823766753433,0.6707060063224448,0.040938560110119086,0.5692307692307692,0.8769230769230769,0.6719371653559528,0.4778331257783315,0.13660320959564473,0.0,1.0,0.49671854257720277,0.47589309696481313,0.12299416273822912,0.0,1.0,0.4913192209769556,0.41434021154846545,0.030097178912688836,0.3607594936708861,0.6075949367088608,0.4154169499610734,0.47810464855153834,0.050176886983799025,0.34426229508196726,0.5737704918032788,0.48069458665464426,0.31702150492652936,0.056410162477117165,0.2167216454967531,0.3808869621499653,0.32193345666072914,0.7677315262842331,0.013012117700451171,0.7449758700222988,0.7994597800755971,0.7678402778386731,0.7476044964395832,0.849501474571192,1.0,0.9034687687648845,-0.41687400938670677,-0.5091438217495354
23,0.7598830409356729,0.07440400154133107,0.5977443609022552,0.8609022556390977,0.7635008756383866,0.8357781487664638,0.03660544519475977,0.7796327212020036,0.8998330550918199,0.8365758287219198,0.212860696517413,0.10337197927328567,0.1250000000000001,0.49067164179104483,0.23653318990573394,0.7496160691584027,0.0675155426267655,0.5720823798627002,0.8192219679633865,0.752636924625701,0.7302781237027814,0.03246661734422543,0.6083437110834371,0.7995018679950185,0.7309962615466045,0.8230569760834755,0.05790900307667829,0.6592282659228266,0.8916782891678289,0.8250826227009425,0.7083704346150137,0.04465819596802676,0.6209887250650477,0.8022549869904595,0.7097705004479622,0.3933206510003702,0.06847491090498414,0.17504990371002205,0.5298147187365347,0.39921060701843797,0.4673738696729011,0.06329309744705995,0.31283627978478096,0.6871637202152191,0.47162118879572174,0.4904282276422764,0.07144554295873404,0.3469512195121951,0.6798780487804879,0.495582107791632,0.6130864197530879,0.04353718003405476,0.4696969696969698,0.792929292929293,0.614623478032325,0.45797752808988856,0.0414914767672472,0.34269662921348315,0.5730337078651686,0.4598448733855902,0.5230672926447575,0.03431620030481785,0.4436619718309859,0.6619718309859155,0.524186761043402,0.6710427350427354,0.02727650457261723,0.576923076923077,0.8076923076923077,0.6715944112739755,0.488,0.02664288958663049,0.34545454545454546,0.6045454545454545,0.4887235299279486,0.4815904139433542,0.010437528312690422,0.45098039215686275,0.5245098039215687,0.4817030045710282,0.41285513361462706,0.013637408872546187,0.37341772151898733,0.46835443037974683,0.4130793067919619,0.47927140255009115,0.04254230846809162,0.3114754098360656,0.5983606557377049,0.4811474634072108,0.24567695560816236,0.04574613050299156,0.13023132713502994,0.3556065856950896,0.24988111982785055,0.8259246964436039,0.03732350639776283,0.7675217711412148,0.8987390472411023,0.8267638459790311,0.2258122558260473,0.3831527433721375,1.0,0.7123944698074065,0.31749970402289407,0.019309682519241804
24,0.6859526865945347,0.17586890292569443,0.4060150375939853,0.9060150375939848,0.7078727044558001,0.8546561342074191,0.0417443447749454,0.7746243739565946,0.91652754590985,0.8556625777475534,0.2747997815799055,0.11791582970485584,0.13619402985074636,0.4645522388059702,0.29874654832000447,0.6951777641346207,0.15295174262510366,0.45766590389016004,0.8947368421052629,0.711604569802295,0.7104000242991222,0.0478873776447689,0.5990037359900373,0.8349937733499376,0.7119925769253443,0.7836570625120477,0.08804115251857263,0.6452812645281264,0.9125987912598791,0.788527176950427,0.7086497577898586,0.0537003184063442,0.5819601040763225,0.8326105810928012,0.7106567638771286,0.3606403910880885,0.11127040573427041,0.13547867990397378,0.5399845232546892,0.37721559593038867,0.46415477775069847,0.10949950354722326,0.20253343581860106,0.7321322059953882,0.47674267456438396,0.5498735871505055,0.1315694625701476,0.32713658536585366,0.7923756097560976,0.5652082637239764,0.6061221975856123,0.06398533907888766,0.4696969696969698,0.7525252525252526,0.6094491887649528,0.4552617155385038,0.0826021975059539,0.16292134831460675,0.7191011235955056,0.46260473824897286,0.5198385434558571,0.06139421986639747,0.24647887323943657,0.6830985915492958,0.5234074846895623,0.6689493433395877,0.06104317689528411,0.5384615384615385,0.8538461538461539,0.6716949092330711,0.4873614190687361,0.07469293802932002,0.33636363636363636,0.7727272727272727,0.4929829112414073,0.48188665710186496,0.02053440508585205,0.4362745098039216,0.5441176470588235,0.4823186393537594,0.41154677369558523,0.025119872993468784,0.2784810126582279,0.46835443037974683,0.4123033588739082,0.4753098760495801,0.05836592416508417,0.29508196721311475,0.6147540983606558,0.47883662736043475,0.25579183269906114,0.1062233317326717,0.13355182070793736,0.4744610334551531,0.27672234367177007,0.8173467587085058,0.03181155905658994,0.7793373963920429,0.9156329628876871,0.8179580417716077,-0.28724684685202184,-0.40292474059997113,1.0,0.7512957435255816,-0.049440127111022344,-0.18208442934886937
25,0.6457366821308594,0.05606176422079435,0.5300751879699246,0.7142857142857135,0.6481485121746167,0.8292662712085148,0.06631663911013831,0.6777963272120202,0.924874791318865,0.8318949780054867,0.26425055573197836,0.14697170629660133,0.03171641791044788,0.5298507462686568,0.3021189208357348,0.6203320512196308,0.06419656633870209,0.49427917620137274,0.7116704805491989,0.6236215395072658,0.709537814754953,0.036124890620094316,0.597758405977584,0.7714819427148193,0.7104503240309136,0.7738574504353901,0.06648454521286151,0.6359832635983262,0.8726173872617387,0.776687967878718,0.6848431166306826,0.038794925140265786,0.6027753686036426,0.7823070251517777,0.6859332813958094,0.42204839987878545,0.11023905552402634,0.2146211275160703,0.6515533903745196,0.4361092892848067,0.47073711983689565,0.0517217028965897,0.3616479631053036,0.6287471176018448,0.4735499952036685,0.4941186645909013,0.08762030752617829,0.2573170731707317,0.6219512195121951,0.5017729804624638,0.6137975499677646,0.03644748025770472,0.43939393939393945,0.7525252525252526,0.614871067585322,0.45967806199697236,0.044844813138992995,0.3595505617977528,0.5898876404494382,0.46184490376021,0.5232244531015883,0.03730917935129436,0.4295774647887324,0.704225352112676,0.5245435454041618,0.6727223131478456,0.02639954367841502,0.6153846153846154,0.7615384615384616,0.6732364396744795,0.48810444874274667,0.025578660620189077,0.42272727272727273,0.6318181818181818,0.48876945543257827,0.4823042692254198,0.010228432722455645,0.446078431372549,0.5245098039215687,0.4824119473616716,0.41224526438639,0.014924211259406657,0.35443037974683544,0.47468354430379744,0.41251340636464895,0.4777932798511802,0.059079290961755994,0.2213114754098361,0.6147540983606558,0.4814063009004614,0.3260267277060267,0.1193918588489111,0.12195641825894077,0.6010587767805546,0.34705438765336166,0.7974028737971735,0.02899860627756925,0.7516528069704822,0.8351119581168585,0.797926248684874,0.47232322010173994,0.7806994572672243,1.0,0.8166160115504746,-0.1473664320375553,-0.502902420330469
26,0.6152145068553734,0.03373386107008053,0.5187969924812026,0.6766917293233079,0.616130911435598,0.8611551465327364,0.03209727975393237,0.7646076794657766,0.911519198664441,0.861748086349693,0.36493477988210216,0.06935989944219957,0.16231343283582095,0.455223880597015,0.3714131962707079,0.5857546679999227,0.010960127853097135,0.5560640732265445,0.6064073226544622,0.5858563356638683,0.6894732986594391,0.020362798547174894,0.647571606475716,0.7627646326276463,0.6897714032411737,0.721856943614266,0.03254970831656027,0.6582984658298465,0.8289167828916782,0.7225842700563282,0.6789595283039493,0.031473827473436085,0.5975715524718125,0.7771032090199478,0.6796825130202643,0.41760846302484794,0.07455590224320048,0.24622094812652234,0.5581213341657947,0.42415645718468586,0.4733141539475132,0.05289933529513024,0.36318524212144504,0.702923904688701,0.4762364040497804,0.5126662430825987,0.05207987286488322,0.4195121951219512,0.6320146341463415,0.5152826383709291,0.615270350564469,0.027924447098476135,0.5454545454545455,0.7626262626262628,0.6158983895907857,0.4544896610329525,0.0483962219053377,0.3146067415730337,0.6404494382022472,0.45703759580100317,0.5211267605633803,0.04401706841162565,0.40845070422535207,0.704225352112676,0.5229668453686205,0.6720749838396902,0.03847282163334709,0.5692307692307692,0.9,0.6731660297467427,0.48857906799083284,0.05104958583271626,0.3090909090909091,0.7454545454545454,0.49121651664700894,0.48154555940023014,0.02273130156043922,0.3480392156862745,0.5588235294117647,0.48207727153483615,0.4129347941708327,0.021055342960469566,0.33544303797468356,0.47468354430379744,0.413466741423286,0.48092023694723784,0.07075357712074033,0.30327868852459017,0.778688524590164,0.486053778070671,0.29164557723858375,0.050591384652130665,0.21610490867440735,0.42461024240954437,0.29596473205373025,0.7816921953256886,0.021112121462987337,0.7525054715538118,0.8576772120994325,0.7819748489212986,0.6264539181167519,0.9470129097487897,1.0,0.6600424764384197,-0.19208741089990325,-0.5883009439993457
27,0.7042229634235961,0.1291607598908587,0.46992481203007497,0.8947368421052628,0.7158820096661295,0.8812431747147502,0.037706946242547626,0.7963272120200336,0.9415692821368952,0.8820434549652221,0.28285265402311743,0.09985895060083154,0.17537313432835827,0.48880597014925375,0.2998373857407872,0.7417456685191238,0.10024232979031251,0.5675057208237986,0.8878718535469105,0.7484381127598432,0.7228298017771704,0.04108551006015409,0.6008717310087173,0.7957658779576587,0.7239877413333161,0.7854189168877566,0.074143560309707,0.5602045560204556,0.8800557880055787,0.7888845350885789,0.7340054385747544,0.051946113019987965,0.6227233304423242,0.8516912402428446,0.7358274891599859,0.39212315781407364,0.07792576669679181,0.19071571153457204,0.532013120059093,0.3997340849585759,0.46213422873093574,0.09204273992208092,0.20753266717909302,0.7617217524980784,0.4711435164540704,0.4962040711534935,0.12533184122830676,0.16402439024390242,0.7554878048780488,0.5116722045043138,0.6109971899445594,0.036744395981864374,0.5353535353535355,0.7373737373737375,0.612092775033064,0.4544648137196929,0.061705843522063444,0.29775280898876405,0.7303370786516854,0.4586035863128098,0.5202266228952662,0.04416992074147923,0.3661971830985915,0.7253521126760563,0.522084334212867,0.6705031810294966,0.02865993429053148,0.5692307692307692,0.7615384615384616,0.6711108192584618,0.48704716336295284,0.030724494555287744,0.38636363636363635,0.6545454545454545,0.48800802882952177,0.481755860238832,0.01129408424161289,0.446078431372549,0.5294117647058824,0.48188723384532317,0.4129627867136195,0.011273675277946102,0.3860759493670886,0.44303797468354433,0.41311548428662875,0.47849131024282027,0.04520713220980423,0.24590163934426232,0.5983606557377049,0.4806061305574222,0.2025996395555707,0.05569129938595653,0.11306485730010873,0.32966692998018665,0.21005907519046882,0.8473240846410718,0.02905250287371821,0.78955839989769,0.8913802943201063,0.8478182624307355,-0.13008498086282366,-0.20417266080698962,1.0,0.6811676083241602,-0.053151977877911524,-0.12445370350009126
28,0.5700475678993395,0.1839223720218192,0.3684210526315792,0.8947368421052628,0.5987917417315528,0.8248781983578081,0.045163438477568235,0.7679465776293826,0.911519198664441,0.8261052611773189,0.3248172403289673,0.15559729910186296,0.15298507462686572,0.6044776119402986,0.3599334128574884,0.539251856348947,0.132638949355656,0.4004576659038901,0.7871853546910753,0.555217051765862,0.6870282359519152,0.04289231772386153,0.5921544209215441,0.7901618929016188,0.68835676258939,0.7337767277994413,0.06913895427206931,0.6229660622966062,0.8921431892143189,0.7370047238142862,0.662147252656483,0.03672635355345925,0.5802254986990458,0.7823070251517777,0.6631580758501562,0.37856829697117717,0.10171536569481257,0.0763988427615438,0.5517987319621172,0.39190507783321477,0.4836623215004683,0.09179006338015747,0.3051498847040738,0.8881598770176787,0.4922370782674278,0.5251866932138709,0.08821210037507411,0.31066829268292684,0.7457317073170732,0.5324936646196429,0.6139627568199008,0.06098558588710411,0.4242424242424243,0.8282828282828284,0.616963700296893,0.4547504395016435,0.09558205325526492,0.0,0.7191011235955056,0.46461999736904264,0.5226597681326055,0.04897442880804748,0.35915492957746475,0.6971830985915493,0.5249337211602843,0.6721088435374153,0.042383884686096586,0.5846153846153846,0.8769230769230769,0.6734348304603115,0.4905071119356836,0.04178163561589057,0.38181818181818183,0.7090909090909091,0.49227132395610634,0.48012538348672784,0.02539874860204762,0.3872549019607843,0.5441176470588235,0.48079215040153833,0.4112632394730043,0.04040045300456534,0.189873417721519,0.6962025316455696,0.4132294100938996,0.47697111631537875,0.05552937027113006,0.2295081967213115,0.6147540983606558,0.480170782635506,0.3710812479824329,0.18395835531618487,0.09097189653438242,0.6007806889662277,0.41389824886223653,0.7598059921728042,0.013136795031074271,0.7342573817273825,0.809324837184499,0.7599187766749721,0.351144490743808,0.2509338095314526,1.0,0.7531875565062964,-0.3696567475290149,-0.480470620302247
29,0.49373932840068213,0.060695783137628176,0.3684210526315792,0.6165413533834583,0.4974412782396514,0.8746316902673115,0.06298118789061882,0.7312186978297164,0.9532554257095162,0.8768873475772606,0.3206130701076292,0.13634249968179504,0.057835820895522416,0.541044776119403,0.3482929185009416,0.5476856874561252,0.05923021088275067,0.4050343249427917,0.6086956521739129,0.5508664567405,0.6917287264391991,0.0380350624904294,0.5915317559153175,0.7627646326276463,0.6927694662370528,0.7197745512603233,0.056945129278842176,0.6132031613203162,0.8177591817759181,0.7220147041971133,0.7179020258946867,0.04930425210585581,0.5975715524718125,0.8074588031222895,0.7195863694942394,0.41563688351965905,0.1088472527271132,0.1953851159436857,0.7518532523149166,0.4295981160094014,0.4526368009897386,0.058381472032616365,0.2817094542659493,0.6199108378170638,0.4563714393110995,0.49672165970265314,0.08154688943251805,0.32286341463414636,0.7115853658536585,0.5033446222893397,0.6138275182099889,0.06434303033208635,0.4191919191919192,0.8282828282828284,0.6171772464523,0.46085321634809145,0.06646686648512176,0.29775280898876405,0.803370786516854,0.4656027602852712,0.5251108243083997,0.04667832862847586,0.40845070422535207,0.7253521126760563,0.5271731816271683,0.6696904688936565,0.04270749164677247,0.49230769230769234,0.8307692307692308,0.6710454435558024,0.4867258239768202,0.0572917763231021,0.15909090909090912,0.7227272727272727,0.4900727479445906,0.4798648543082565,0.029782137965311994,0.27941176470588236,0.5686274509803921,0.48078448433177884,0.4127792626960509,0.03667599621650668,0.26582278481012656,0.6518987341772152,0.41439894948212513,0.4761609300502907,0.06429677151097438,0.1557377049180328,0.7622950819672132,0.48046522841456063,0.3519618159137001,0.1254792166344782,0.16983149388101904,0.6679375416660913,0.37357653091450516,0.8205183588608836,0.036298123471997616,0.7454200641146516,0.87427619505297,0.8213176497416502,0.5878333830611898,0.8164244636574344,1.0,0.8451629526848033,-0.22880222735307842,-0.5681138593131829
30,0.76012105472595,0.06406578441956225,0.5977443609022552,0.8571428571428568,0.7628086323797145,0.8527676117577575,0.025958500189690804,0.8046744574290488,0.903171953255426,0.8531615124893338,0.29119548497068987,0.07545225519836872,0.1921641791044777,0.4776119402985075,0.30078563001555725,0.7279565026165995,0.0551549880140131,0.5995423340961097,0.826086956521739,0.7300371693718736,0.7205031965782904,0.025733642945136626,0.613947696139477,0.7708592777085927,0.7209613249223233,0.7877116169327216,0.04493214482303317,0.6680613668061366,0.8591352859135285,0.7889885077863038,0.6934845999415351,0.03252189605785409,0.6071118820468342,0.7762359063313095,0.6942446383753417,0.39382384194280745,0.05149377633956903,0.24512174746524323,0.5517987319621172,0.39716676772711657,0.46315236404822485,0.04233001139169142,0.35972328977709456,0.6202920830130669,0.4650773602513259,0.4908544330457234,0.0702693695298925,0.3567073170731707,0.6923756097560976,0.49584483909885246,0.6129540530654729,0.0682589469489712,0.2525252525252526,0.8737373737373739,0.6167324999555803,0.45508747770022984,0.048743619993001815,0.2921348314606742,0.6797752808988764,0.457683225201605,0.5220683432068739,0.04129446065643007,0.4154929577464788,0.7183098591549295,0.5236944123326837,0.671287765159633,0.03278810931108908,0.5538461538461539,0.8076923076923077,0.6720858049154106,0.48724993669283384,0.03435638210978863,0.3318181818181818,0.85,0.4884563172743481,0.4820306952864712,0.026499236701478336,0.3284313725490196,0.7843137254901961,0.482756506666323,0.41237967631606776,0.016364274669456964,0.34177215189873417,0.5063291139240507,0.41270333290668704,0.4772592355815335,0.06108528444632051,0.0,0.6721311475409837,0.4811417629124828,0.21073323645382433,0.03292758053586232,0.12210852916264514,0.2676974384329176,0.21328315071599357,0.8087049072189605,0.026179389105899953,0.7517722687682074,0.8499866180467697,0.8091273560398584,0.1497351366062661,0.19109134452052137,1.0,0.819891194061851,0.11826096383295762,-0.12460241104636198
31,0.5827819548872176,0.14537038526734897,0.4323308270676689,0.8308270676691727,0.600521833237998,0.8496716750139124,0.030731632040519003,0.8013355592654426,0.908180300500835,0.8502235543122973,0.29023631840796016,0.11129682005559949,0.16977611940298515,0.5018656716417911,0.3107113174579669,0.5891838291380622,0.12609196005572773,0.4645308924485123,0.8466819221967962,0.6024373596974322,0.7013781652137812,0.037862603298108886,0.612079701120797,0.8032378580323786,0.7023925897879124,0.7479528901286221,0.06695844864442242,0.6392375639237564,0.8856345885634588,0.7509241440636069,0.6949580803700489,0.029078384828540145,0.6244579358196009,0.8013876843018212,0.6955621100372217,0.3733309590599048,0.06046779639869228,0.22918773467934117,0.4954668964728849,0.3781639640392688,0.46205249295413786,0.06045481435305145,0.30284396617986165,0.7163720215219063,0.46596451108756387,0.5159677398373984,0.09299627858555007,0.3856731707317073,0.7692048780487805,0.5242264405751926,0.6127272727272737,0.07073205249334819,0.39898989898989906,1.0,0.6167693089846401,0.4557303370786516,0.06357988628992924,0.2921348314606742,0.6629213483146068,0.4601147603893955,0.5221596244131453,0.03299466669363026,0.45070422535211263,0.6056338028169014,0.5231940975813528,0.6721025641025645,0.04280156355452564,0.5384615384615385,0.8307692307692308,0.6734549853976896,0.4879090909090909,0.05530995162029115,0.32272727272727275,0.75,0.49101331665748776,0.48127450980392117,0.018315677209566422,0.4117647058823529,0.5490196078431373,0.48162057824782833,0.4131223628691983,0.014773129984163467,0.3607594936708861,0.47468354430379744,0.413384659975462,0.47633879781420735,0.039573458955947355,0.3278688524590164,0.5901639344262295,0.4779688991616482,0.33981280083707777,0.11463059327076759,0.15875589845720883,0.4980943667106019,0.35850426967274773,0.7998686597402928,0.023045140485184624,0.7637544585702769,0.8820098690385312,0.8001983571661344,-0.03547459770758204,-0.2184415018468577,1.0,0.8706430698991173,0.10217415160699385,-0.027633589613526306
32,0.563218045112782,0.08354778230661478,0.4436090225563909,0.7105263157894735,0.5693320265131676,0.7598130217028378,0.10621705942087277,0.5642737896494159,0.921535893155259,0.7671425129345387,0.2417164179104477,0.17155303094253604,0.005597014925373234,0.5559701492537313,0.29600984033241945,0.4834050343249426,0.038073922285774275,0.4210526315789471,0.5652173913043477,0.4848901460954392,0.6890261519302618,0.05096832508918825,0.5616438356164384,0.9053549190535491,0.6908936430775157,0.7658354253835425,0.08760527000246565,0.597861459786146,1.0,0.7707899744015478,0.6271361665221161,0.07961405414762467,0.4128360797918473,0.7805724197745011,0.6321293078136258,0.3702877795267279,0.16930053014763782,0.03353001697165814,0.7194312296098277,0.4068739458592057,0.4323443013066872,0.09844152069114612,0.0,0.6541122213681784,0.4433224582675516,0.46478290731707333,0.1295991355831444,0.26432682926829265,0.7128048780487805,0.4823740451044791,0.6113131313131321,0.04834667914471693,0.4848484848484849,0.7474747474747476,0.6132066916538937,0.4572134831460675,0.04802008225760639,0.2865168539325843,0.5842696629213483,0.4597082227284894,0.5232676056338028,0.037756954339914946,0.4295774647887324,0.6619718309859155,0.5246171651842428,0.6698461538461536,0.023151245082789266,0.6076923076923078,0.7461538461538462,0.670242912778776,0.48727272727272747,0.026149907239358092,0.35,0.5681818181818181,0.4879682959488653,0.4811764705882348,0.01734669534570206,0.3529411764705882,0.5441176470588235,0.48148654853947065,0.4134683544303798,0.012342321814565184,0.37341772151898733,0.44936708860759494,0.4136510538604707,0.4793442622950818,0.03794385470384698,0.3278688524590164,0.5901639344262295,0.4808317169406824,0.4755110067654843,0.1290240898619349,0.22066488211279456,0.6647574178720916,0.49256954391609264,0.730930602070647,0.05038662986874562,0.6184414556894726,0.811803673255004,0.7326513816359949,0.699415133339354,0.8514529289963679,1.0,0.7531856286915288,-0.3471487457146499,-0.6015686416151931
33,0.6001909535744121,0.03285813583561204,0.5225563909774436,0.6578947368421049,0.601075453191209,0.7646341786575512,0.05531290209013342,0.6928213689482473,0.8664440734557599,0.7666005351842974,0.2075929874437338,0.14217230055027671,0.06156716417910457,0.44589552238805974,0.25097205182318244,0.5199229958955357,0.008170027280610458,0.5057208237986268,0.5331807780320363,0.51998616471338,0.7039079641819367,0.039180817698947955,0.6264009962640098,0.7777085927770858,0.7049802772196347,0.7838878926745039,0.06973140051275555,0.6545792654579266,0.8837749883774988,0.7869342504072028,0.6417213893363068,0.041720401377415735,0.5446660884648741,0.7363399826539461,0.6430546671785352,0.44495586936164144,0.11580505810851563,0.30585478240223707,0.6554005926889965,0.4595472414663621,0.4293704232397546,0.051908646443038185,0.2943889315910838,0.5630315142198309,0.4324473354838918,0.5234658149438637,0.10628158604809863,0.3564048780487805,0.723170731707317,0.5339784049223442,0.6131954465287799,0.10119580079384251,0.08080808080808088,0.9444444444444445,0.6213587503952589,0.4605849830568931,0.0656365757811964,0.3258426966292135,0.7191011235955056,0.4651648129474773,0.5235859602056786,0.03735326551245334,0.4295774647887324,0.6126760563380281,0.5248955868384935,0.6706959706959706,0.037452193688702576,0.5538461538461539,0.7692307692307693,0.6717242643878019,0.48860028860028887,0.03541535746777272,0.41363636363636364,0.6545454545454545,0.48986179772837146,0.4812480547774662,0.016223115300064685,0.4215686274509804,0.5343137254901961,0.4815170838988988,0.41340164757886266,0.012700287251413997,0.379746835443038,0.43670886075949367,0.4135935918781174,0.4778818631277646,0.055896802996493675,0.29508196721311475,0.5983606557377049,0.481088280054932,0.4614973199968552,0.08866425584128036,0.2999499006533761,0.555459135343989,0.4698045798953495,0.7468393617953449,0.026479043630899406,0.7038211987521796,0.7898570697136205,0.7473011728052344,0.8597998321751359,0.9662036081834926,1.0,0.8744633080291748,-0.30256286114430786,-0.5742853840053979
34,0.6068010936431981,0.08446017021997804,0.4849624060150375,0.7706766917293226,0.6125979410797399,0.8141296099559875,0.04687091261408406,0.7412353923205345,0.8964941569282139,0.8154654698990851,0.2761533242876527,0.0989614566010332,0.12686567164179108,0.4235074626865672,0.29319788159591537,0.5527563969211563,0.053900633904505654,0.48970251716247115,0.6727688787185353,0.5553543923039925,0.6971357409713572,0.03202613289347351,0.6344956413449563,0.7552926525529264,0.6978643064565515,0.757237648451038,0.06191367340225935,0.6708507670850767,0.8605299860529986,0.7597416080333788,0.6568004415359141,0.04742740900745984,0.5923677363399824,0.8161318300086728,0.6584950496454872,0.41261726472509197,0.07958654973775982,0.23028693534062028,0.5454805265610847,0.4201540718098363,0.4730801760883238,0.05909930339818217,0.38009531129900076,0.6352836279784781,0.4767240591791586,0.5200250554323727,0.10493161559789581,0.2661609756097561,0.6859756097560976,0.530411732021669,0.6152433425160705,0.033101992042793654,0.5505050505050506,0.7626262626262628,0.6161251099393322,0.46368743615934627,0.052984470227720716,0.3146067415730337,0.7191011235955056,0.4666774808543525,0.523879641485275,0.04788747077941519,0.40845070422535207,0.6690140845070423,0.5260439537320504,0.6682517482517484,0.031226473641909808,0.5846153846153846,0.7615384615384616,0.6689743098347908,0.4865289256198348,0.04015818706247071,0.32727272727272727,0.6681818181818182,0.48816842864504273,0.4813725490196074,0.017527729102985005,0.4117647058823529,0.5637254901960784,0.48168865392112703,0.41248561565017283,0.01725029830831455,0.310126582278481,0.47468354430379744,0.4128428886426777,0.4768256333830106,0.04383745652615088,0.33606557377049184,0.5819672131147542,0.47881827141451616,0.3831383757624504,0.03820254451803487,0.2885276185885819,0.4383394744142972,0.3850210147563597,0.7638423168502798,0.03728963589217376,0.7243305628795182,0.8542840028476011,0.7647437223626219,0.3503720183784637,0.32180621044511754,1.0,0.8197965482830154,-0.03889828234222661,-0.1296736241967046
35,0.48359105310445905,0.16743842977909607,0.3045112781954882,0.7293233082706765,0.511585388480391,0.8272172698732694,0.0378764570598503,0.7696160267111856,0.9015025041736231,0.8280785076132363,0.27638928001501933,0.11858224227612782,0.11380597014925387,0.5298507462686568,0.3006066260457942,0.4970136580170692,0.1446656205161887,0.3272311212814645,0.7345537757437068,0.5175124099785089,0.6876218896120675,0.04501041638748785,0.5709838107098382,0.7833125778331257,0.6890842175752097,0.7326356908736319,0.07084812495212651,0.6122733612273361,0.8819153881915388,0.736031890233274,0.6745596666066646,0.04244774860190536,0.5819601040763225,0.7935819601040761,0.6758855102951519,0.3741676562237903,0.09042859159751013,0.1635082967665913,0.5704851432038621,0.3848731419477912,0.46222561261535633,0.0712016455410656,0.33012759415833975,0.8070714834742506,0.46764335400088536,0.5183961650559905,0.09454760341396586,0.37469756097560974,0.8045707317073171,0.526894307771777,0.6115558096690186,0.036474562515939626,0.4797979797979799,0.7525252525252526,0.6126357276511175,0.45770616917532364,0.043753853331208216,0.2696629213483146,0.601123595505618,0.4597796175701033,0.52303126937727,0.034813996500050404,0.43661971830985913,0.6267605633802816,0.5241813620941976,0.6703434929850023,0.030115206822500264,0.576923076923077,0.8076923076923077,0.6710153651997768,0.4859919954259577,0.033698231572826955,0.35454545454545455,0.6272727272727272,0.48715156622395567,0.4809162658774195,0.01789312324600597,0.39215686274509803,0.6029411764705882,0.4812469273001118,0.41262638324974127,0.009104560971351058,0.3924050632911392,0.44303797468354433,0.41272618507241454,0.47747190432003295,0.04111794287231773,0.27049180327868855,0.6311475409836066,0.4792279952179696,0.44325027158286406,0.14216342760054887,0.22561844793864205,0.6539481720270386,0.4653537726493246,0.7736232059466686,0.04154254724783358,0.7198828436551328,0.8699652571536578,0.7747307880989692,-0.13887378760996782,-0.23145629223759367,1.0,0.8465664120506735,0.25318038927568826,0.15327322488309414
36,0.4693447905477977,0.06776443177371398,0.3458646616541352,0.5977443609022552,0.47418383621111826,0.8134986882900083,0.08078669208846527,0.632721202003339,0.914858096828047,0.8174774071751267,0.26114072494669516,0.13634280113444508,0.04850746268656725,0.5429104477611941,0.2944106192648189,0.4740503432494279,0.09241166852944736,0.3135011441647597,0.5812356979405033,0.4829232287771543,0.6914748265433193,0.03536926165423258,0.5884184308841842,0.74719800747198,0.6923736505162883,0.7373819485953376,0.05824130537182335,0.604834960483496,0.8484425848442585,0.7396653328531804,0.6670697559162432,0.06539099124839573,0.48135299219427563,0.7831743278404162,0.6702489140709238,0.41186335239870686,0.1381631403496998,0.22121633148374498,0.808189484606794,0.4342941331580796,0.46160532337762145,0.06800877547290814,0.2793973866256726,0.7359692544196772,0.4665600051810101,0.47866547735191667,0.07022070560382114,0.30822926829268293,0.6759170731707317,0.4837596612587754,0.6145743145743164,0.02945351845590649,0.5252525252525253,0.7727272727272728,0.6152756623541621,0.45775280898876475,0.03720621141442946,0.30898876404494385,0.5674157303370787,0.4592537708139337,0.5212072434607649,0.03570152923564768,0.4436619718309859,0.6338028169014084,0.5224215791884854,0.6708131868131869,0.029242600133310974,0.6153846153846154,0.8153846153846154,0.6714466284149513,0.4870389610389612,0.037075287432645765,0.36818181818181817,0.6227272727272727,0.4884400390864397,0.4812044817927168,0.03608739461450282,0.3627450980392157,0.6274509803921569,0.48254804075126906,0.411645569620253,0.04373036223030911,0.25949367088607594,0.6392405063291139,0.41394865851390056,0.4769086651053863,0.056125645683018636,0.27049180327868855,0.6147540983606558,0.48018117669530713,0.4697800164421478,0.15703384489637937,0.23034059492976322,0.7745111053406217,0.49518883279895753,0.7723708895476257,0.053226833939212154,0.6612558071244201,0.8441168217932127,0.7741922873244301,0.3530663922046511,0.7245950955446887,1.0,0.7533614342946338,-0.04142383361471681,-0.5253050921785822
37,0.7155187969924809,0.07165126066361398,0.6127819548872178,0.8646616541353378,0.7190688289579898,0.8042337228714531,0.04848460503193748,0.7228714524207014,0.8781302170283808,0.8056822151899462,0.2687611940298508,0.12011186345724337,0.1175373134328358,0.4944029850746269,0.2941836574005721,0.6315057208237986,0.08321323344718289,0.5377574370709379,0.780320366132723,0.6369211270763082,0.7069090909090905,0.03728551023888431,0.5921544209215441,0.7608966376089663,0.7078838537567451,0.7854913993491396,0.06283009559780023,0.6438865643886564,0.8651789865178986,0.787980189089165,0.6522046834345183,0.03683385773432479,0.5576756287944491,0.7215958369470944,0.653235660619434,0.41539204530465434,0.08460495683263242,0.22616273445950102,0.5954941566492846,0.42385290612814064,0.45710684089162174,0.050479000678276216,0.35280553420445815,0.6072252113758647,0.45986346719794996,0.4841633170731707,0.09677716864319565,0.24451219512195121,0.6655463414634146,0.4936648776315005,0.6126868686868695,0.026835494482718866,0.5252525252525253,0.691919191919192,0.6132695831975845,0.45564044943820287,0.047562270442670196,0.3202247191011236,0.6067415730337079,0.45809637782605445,0.5256901408450704,0.048537492401546,0.4014084507042253,0.6830985915492958,0.5279082924571189,0.6765538461538462,0.04076075570883513,0.576923076923077,0.8,0.6777707978644919,0.49312727272727275,0.03960370873627648,0.38181818181818183,0.6681818181818182,0.494702348107567,0.4835686274509801,0.014308569163008659,0.4264705882352941,0.5147058823529411,0.48377858026694975,0.41341772151898737,0.012046252004513465,0.3860759493670886,0.45569620253164556,0.4135917839558809,0.4788852459016391,0.037953335199252675,0.3524590163934427,0.6065573770491803,0.4803748648189226,0.3171402844680855,0.09295983527984616,0.20607216821207563,0.44588105944750867,0.33037911368600803,0.7627297353360029,0.026498682507807188,0.7218418666556075,0.8108888602477025,0.7631862236040307,0.1668380526128179,0.40924172599367303,1.0,0.8393670529310315,0.0954429049075052,-0.21077304150247003
38,0.7976942355889729,0.07005498837140564,0.6052631578947367,0.8947368421052628,0.8007542918292356,0.8122593210907068,0.041368718990355206,0.7495826377295495,0.8898163606010019,0.8133085952084458,0.17037935323383097,0.09893018650269463,0.0,0.44962686567164184,0.19693573030432604,0.7757513348588858,0.08604655893045905,0.5537757437070936,0.883295194508009,0.7804930901710597,0.7313532586135324,0.03462316136934709,0.6002490660024906,0.8698630136986301,0.7321696226354675,0.8513977994731131,0.05898950210430547,0.6680613668061366,0.9748953974895397,0.8534321151103026,0.7000867302688638,0.054106618267168734,0.5802254986990458,0.8751084128360797,0.7021674996882081,0.3963475174186666,0.05504985320533175,0.23248533666317853,0.5501543277728436,0.40013964972337124,0.4735359057135537,0.07414165247210772,0.2832467332820907,0.7528793235972329,0.47928583887816467,0.490416569105691,0.07978518401939368,0.26006341463414634,0.7612829268292682,0.4968429006474536,0.612861952861953,0.04386811752932605,0.46464646464646475,0.787878787878788,0.6144247474634692,0.45827715355805326,0.05294647748789335,0.2865168539325843,0.6910112359550562,0.46131543928211677,0.5226291079812204,0.04485888421459111,0.38732394366197176,0.7183098591549295,0.5245443701638413,0.6710512820512833,0.0304140702134772,0.5692307692307692,0.7615384615384616,0.6717378621337808,0.48865151515151534,0.030090336209406696,0.35454545454545455,0.6272727272727272,0.48957401227865677,0.4820098039215681,0.01371427293332962,0.43137254901960786,0.5588235294117647,0.4822042154741005,0.4124894514767929,0.016632822189665636,0.2974683544303798,0.47468354430379744,0.4128235412187295,0.4787978142076499,0.049754372874091096,0.3114754098360656,0.6721311475409837,0.48136741980672504,0.25531223768319217,0.05259743963845525,0.1581100558909987,0.3513200664686815,0.2606561100987237,0.8199683924568586,0.048678865734288486,0.7401310044372116,0.9060961171264852,0.821407266722319,-0.227358146972096,0.06698979185586901,1.0,0.6126328861275293,0.4371761788053344,0.2684075824538253
39,0.6618829682902906,0.18097819011967126,0.42481203007518786,0.9060150375939848,0.6859718357195591,0.8239384481382012,0.0444268121353539,0.7562604340567615,0.911519198664441,0.8251249268966155,0.17500000000000016,0.13656951614639737,0.04850746268656725,0.4309701492537314,0.2216168949063572,0.6881106357576362,0.1575545752870888,0.4782608695652171,0.8878718535469105,0.7057647166019311,0.7236450268016678,0.04013080358178706,0.6102117061021171,0.8019925280199253,0.7247472676905053,0.8185151496776021,0.08619524757651752,0.6587633658763365,0.9428172942817293,0.8230018624274744,0.7187224254308228,0.03854845898535904,0.621856027753686,0.8109280138768429,0.7197464740518049,0.3716205123460306,0.10432534643140783,0.10360186072687938,0.5364099227042095,0.3858638899370258,0.47504621862781143,0.08889562501568593,0.33781398923904693,0.7863182167563413,0.4832210934740268,0.5293132131495228,0.12095157248823707,0.29878048780487804,0.7920731707317072,0.5428393402716011,0.6137461572244184,0.06844743787629579,0.38383838383838387,0.8636363636363638,0.6175181436031809,0.4547630679042502,0.0754422611012245,0.2808988764044944,0.8932584269662922,0.4609246045538703,0.5223515003061848,0.04047897148435127,0.380281690140845,0.7464788732394366,0.5239039881205513,0.6723076923076926,0.048014669546330414,0.47692307692307695,0.8692307692307693,0.6740051888504835,0.49055335968379454,0.057867183508844205,0.2772727272727273,0.6727272727272727,0.4939251879266892,0.4839300937766409,0.032822708157424316,0.3627450980392157,0.5882352941176471,0.48503226464330623,0.41282333516785896,0.03378365523757791,0.2848101265822785,0.4810126582278481,0.4141914011239382,0.4759087669280115,0.058498903123435954,0.27049180327868855,0.6065573770491803,0.47945961094327383,0.3301785238870152,0.13715840367930385,0.17375040220206195,0.5550422934539119,0.3573047704806616,0.8314518289680243,0.02706083649541078,0.7931857358108929,0.885883983790249,0.8318882527339736,0.11418657034157875,-0.1871564503730841,1.0,0.6936803093486382,0.0028700925978377206,-0.05047465773244472
