,Orientation X,Orientation X,Orientation X,Orientation X,Orientation X,Orientation Y,Orientation Y,Orientation Y,Orientation Y,Orientation Y,Orientation Z,Orientation Z,Orientation Z,Orientation Z,Orientation Z,Orientation W,Orientation W,Orientation W,Orientation W,Orientation W,Accelerometer X,Accelerometer X,Accelerometer X,Accelerometer X,Accelerometer X,Accelerometer Y,Accelerometer Y,Accelerometer Y,Accelerometer Y,Accelerometer Y,Accelerometer Z,Accelerometer Z,Accelerometer Z,Accelerometer Z,Accelerometer Z,Gyroscope X,Gyroscope X,Gyroscope X,Gyroscope X,Gyroscope X,Gyroscope Y,Gyroscope Y,Gyroscope Y,Gyroscope Y,Gyroscope Y,Gyroscope Z,Gyroscope Z,Gyroscope Z,Gyroscope Z,Gyroscope Z,EMG1,EMG1,EMG1,EMG1,EMG1,EMG2,EMG2,EMG2,EMG2,EMG2,EMG3,EMG3,EMG3,EMG3,EMG3,EMG4,EMG4,EMG4,EMG4,EMG4,EMG5,EMG5,EMG5,EMG5,EMG5,EMG6,EMG6,EMG6,EMG6,EMG6,EMG7,EMG7,EMG7,EMG7,EMG7,EMG8,EMG8,EMG8,EMG8,EMG8,Roll,Roll,Roll,Roll,Roll,Yaw,Yaw,Yaw,Yaw,Yaw,Accelerometer X vs Roll,Accelerometer Y vs Roll,Accelerometer Z vs Roll,Accelerometer X vs Accelerometer Y,Accelerometer X vs Accelerometer Z,Accelerometer X vs Accelerometer Z
,mean,std,amin,amax,RMS,mean,std,amin,amax,RMS,mean,std,amin,amax,RMS,mean,std,amin,amax,RMS,mean,std,amin,amax,RMS,mean,std,amin,amax,RMS,mean,std,amin,amax,RMS,mean,std,amin,amax,RMS,mean,std,amin,amax,RMS,mean,std,amin,amax,RMS,mean,std,amin,amax,RMS,mean,std,amin,amax,RMS,mean,std,amin,amax,RMS,mean,std,amin,amax,RMS,mean,std,amin,amax,RMS,mean,std,amin,amax,RMS,mean,std,amin,amax,RMS,mean,std,amin,amax,RMS,mean,std,amin,amax,RMS,mean,std,amin,amax,RMS,corr, corr, corr, corr, corr, corr
0,0.6661219358893778,0.019919166470492567,0.6418604651162787,0.7069767441860462,0.6664116468565686,0.35765409678453175,0.04210534096935772,0.2806324110671936,0.40711462450592895,0.36005749201599324,0.4198721543119886,0.07266900274916926,0.3153526970954357,0.5352697095435685,0.4259468112761533,0.5724815724815725,0.07411784835525143,0.49216300940438873,0.6802507836990596,0.5771309509175603,0.3777777777777778,0.16985269555391078,0.024691358024691468,0.8049382716049382,0.41326294233882066,0.5463230672532998,0.15051024210875313,0.21705426356589136,0.9999999999999998,0.5661360035804082,0.3034925005434389,0.08355582682863322,0.0790884718498659,0.4490616621983914,0.31448463052199827,0.4565595496281279,0.11115154168960019,0.22146205843872657,0.6771696467509812,0.4695395379579911,0.5932070905709868,0.11523195213178351,0.28249930462487666,0.7427870634940703,0.6039984928331018,0.4429233443970286,0.1774204836314203,0.1703157894736842,0.8589239766081871,0.47624401257130555,0.5371337724278901,0.0898626852088744,0.3445378151260504,0.8319327731092436,0.5443985123647432,0.3882663150955834,0.10015017633070997,0.10569105691056913,0.6341463414634148,0.40063662664965677,0.37700412276683454,0.12014157207731184,0.06779661016949157,0.6271186440677966,0.3951910903451008,0.39579579579579593,0.06432893817218216,0.1333333333333333,0.5111111111111111,0.4008499478366945,0.5616804923735618,0.02443678205459478,0.48514851485148514,0.594059405940594,0.5621974675060948,0.4204633204633207,0.05134699665107487,0.34285714285714286,0.6285714285714286,0.4235028462516305,0.5035252643948296,0.07416720890633778,0.3695652173913043,0.7391304347826086,0.50881214330003,0.41036606226479644,0.04189008396035401,0.3164556962025316,0.5443037974683544,0.41244109607292245,0.5704275287322492,0.04033887252833358,0.5009096813427085,0.6257418138139625,0.5718136157247383,0.34971720769463366,0.05059433559863893,0.2586983209482392,0.4005948683984768,0.35326014313182347,0.050163987036644826,-0.4341140050637166,1.0,-0.3484937445557044,0.2274302261343573,-0.4331267283807457
1,0.19855297157622753,0.030753716258244825,0.14883720930232558,0.2558139534883721,0.20086825534725417,0.5952569169960474,0.016108400168897984,0.5652173913043483,0.6245059288537547,0.5954699921516305,0.6436145689257728,0.04488431840527708,0.5767634854771784,0.7053941908713692,0.6451430433927196,0.9738070358760013,0.024874092822085435,0.9090909090909091,1.0,0.9741176080284254,0.49163237311385466,0.13964289380427714,0.09876543209876565,0.8,0.5106556488361399,0.7605512489233418,0.0562871992563308,0.6356589147286821,0.8728682170542634,0.762585107060245,0.5395889186773906,0.03878733396457271,0.4450402144772118,0.6380697050938338,0.5409502990586122,0.40884152250811656,0.08519172811993694,0.22827627562145664,0.5672972088966419,0.4174299227273338,0.6097471925107396,0.08366579326991659,0.46621741219308666,0.8198346271525021,0.6153340953996025,0.5969450292397661,0.08464771587455876,0.46856140350877196,0.8472280701754387,0.6027846848374312,0.5243697478991596,0.1432878959458878,0.19327731092436978,0.8487394957983193,0.5431747415276772,0.3721770551038843,0.09932939157228049,0.04878048780487804,0.5528455284552846,0.3849192598999386,0.3725047080979285,0.09859746706413601,0.1016949152542373,0.6949152542372882,0.38505218556810705,0.40444444444444444,0.05202951765172061,0.26666666666666666,0.5111111111111111,0.4077035960378842,0.5665566556655665,0.027351318276115005,0.504950495049505,0.6435643564356435,0.5672018285986866,0.4171428571428571,0.08919345883152105,0.19999999999999998,0.6428571428571428,0.4263646890545257,0.5188405797101449,0.12241483847620145,0.2826086956521739,0.7608695652173914,0.5327738085781903,0.4016877637130802,0.06759799668106084,0.15822784810126578,0.5189873417721519,0.40721125287577337,0.058241344203908224,0.04394009075802,0.01886490315472855,0.15682958506244482,0.07266278692956765,0.6256551076279167,0.024332429716180735,0.5804237958616587,0.669341198190188,0.626117579843697,-0.04639182619653535,0.5148314216756912,1.0,-0.17183100225951997,0.09065264804293242,-0.5363293683329021
2,0.27102713178294563,0.028034338818363844,0.2046511627906984,0.29767441860465116,0.2724431259834231,0.6204710144927533,0.015023072886894393,0.5770750988142292,0.6442687747035574,0.6206490720310365,0.8285788381742739,0.059684764127709705,0.7717842323651453,1.0,0.8306810146853039,0.6906347962382445,0.03891338565093071,0.6018808777429466,0.7429467084639498,0.6917073994471102,0.5591563786008231,0.09875092923901586,0.345679012345679,0.7283950617283954,0.5676305491955339,0.4731589147286821,0.05543575592526747,0.3147286821705425,0.5674418604651161,0.4763280993450496,0.6161193029490616,0.02702925432375994,0.5536193029490617,0.6662198391420912,0.6166995667476931,0.44688885557493824,0.14518607467827202,0.2580952900130833,0.7674580244221543,0.4694139961289175,0.6158317160593725,0.05286362422420414,0.5077060206842491,0.7210597516878651,0.6180493873576138,0.6529602826510722,0.14693455917156542,0.4619883040935673,1.0,0.6689522469015001,0.5246848739495801,0.0786951967697148,0.33613445378151263,0.7058823529411764,0.530432023437395,0.3733062330623305,0.07961994188420041,0.2032520325203252,0.6016260162601627,0.3815295654423517,0.37711864406779655,0.08292306013391214,0.2542372881355932,0.6101694915254238,0.3859422893808713,0.40416666666666656,0.05792239584228473,0.19999999999999998,0.5111111111111111,0.4082104879460299,0.565387788778878,0.02511755900658795,0.5148514851485149,0.6237623762376238,0.5659338299590928,0.4160714285714286,0.039495845871140134,0.3,0.5,0.41790292789457345,0.508605072463768,0.1506624810314462,0.10869565217391303,0.9130434782608695,0.5300050974062632,0.40849156118143454,0.04367329301152331,0.2721518987341772,0.5126582278481012,0.41077119602608203,0.2194566458194254,0.046338405082710483,0.1195762322699423,0.2713040432487235,0.22419574672828932,0.7143257951331049,0.016266097787477743,0.6959674970930823,0.7554517062572264,0.714507113556435,0.2995527417316262,-0.2485703824289953,1.0,-0.47131982463625993,0.16163215051022795,0.14824332973082316
3,0.6928903654485051,0.018655392988926822,0.6511627906976742,0.7162790697674422,0.6931342861848657,0.3022021456804067,0.03330966973444667,0.26877470355731226,0.38339920948616624,0.3039802131347306,0.43094250148192076,0.018696397878044578,0.4024896265560166,0.4771784232365145,0.431336304503813,0.606000895656068,0.026575401752231664,0.5391849529780565,0.6426332288401254,0.6065666978051943,0.3427160493827161,0.08862787466512653,0.1802469135802467,0.5283950617283952,0.3536732460238939,0.5503433001107417,0.028746764780295402,0.4961240310077518,0.607751937984496,0.551072149273933,0.26556874760628113,0.03670885844473983,0.20643431635388731,0.339142091152815,0.26802201186169367,0.4808240140801196,0.04470897061431543,0.36541921064108157,0.5638901003052769,0.48283901392491607,0.5823907538588804,0.05121106895230882,0.4832098515690191,0.6795711431967026,0.5845738901881835,0.5235164578111947,0.0453189865680904,0.44005847953216376,0.5840701754385965,0.5254185111332629,0.5320528211284515,0.09634853889640164,0.35294117647058826,0.8151260504201681,0.5404609289087038,0.3721254355400697,0.07687842309462799,0.1869918699186992,0.5121951219512195,0.37976145964206814,0.36949152542372893,0.07374227768100769,0.22033898305084748,0.5084745762711864,0.3765720935414324,0.4000000000000002,0.04604945085963016,0.28888888888888886,0.5111111111111111,0.40256672083846096,0.5612446958981613,0.0851299375845731,0.12871287128712866,0.7128712871287128,0.5674818541308081,0.41510204081632673,0.030978995545050823,0.3571428571428571,0.5,0.41622347664120124,0.5192546583850933,0.1282610243801819,0.13043478260869568,0.8478260869565217,0.5344214303247823,0.4119349005424954,0.09097428902698085,0.0,0.6708860759493671,0.4215806177080402,0.5344500892191721,0.016762680682064462,0.5105477822091657,0.576607827804426,0.5347053928256035,0.3048477648601328,0.0326900544903337,0.2730079397751535,0.3863521498722571,0.306545701064314,0.16139505909314458,0.2909282166269007,1.0,0.431661975074785,0.2520243519310832,0.02028021327418107
4,0.43388704318936877,0.04473387256283434,0.3674418604651164,0.49302325581395356,0.4361323651177075,0.5734989648033126,0.050616148999056136,0.4782608695652175,0.6561264822134387,0.5756753054456809,0.4857735625370478,0.1155533762083054,0.36929460580912865,0.6804979253112032,0.49900963735793114,0.6710703090013437,0.07231571376533698,0.5078369905956113,0.7366771159874608,0.6748632518434428,0.48012933568489125,0.11178317592583452,0.3111111111111111,0.7555555555555558,0.49266839356135594,0.619453672942045,0.14096042977882334,0.25736434108527123,0.7674418604651161,0.6349170057499273,0.4834992978424613,0.1010670559436266,0.31367292225201066,0.707774798927614,0.49370326841602685,0.49257801954187697,0.14416094490049347,0.2717237243785434,0.8977867422590493,0.5127579008126227,0.5504143954089589,0.07369722689107525,0.4085392065137684,0.6866892558221862,0.555209844747526,0.4621269841269842,0.18275375294814933,0.15861988304093566,0.8516023391812866,0.4961502503833808,0.522609043617447,0.08393595668554785,0.31932773109243695,0.7226890756302521,0.5291481015472538,0.3761130468447542,0.07039848306540503,0.21951219512195122,0.5365853658536586,0.38249048576470296,0.3757062146892657,0.08601094997919968,0.16949152542372883,0.5423728813559322,0.38519722635130554,0.40317460317460335,0.07139027665331352,0.3111111111111111,0.6444444444444445,0.409298161860963,0.5671852899575672,0.01739620587988992,0.5346534653465346,0.6039603960396039,0.5674456588037247,0.4210884353741497,0.02946986299034893,0.3571428571428571,0.4857142857142857,0.42209390579126166,0.5093167701863355,0.08958679140023751,0.30434782608695654,0.7391304347826086,0.5169509408757292,0.40265220012055447,0.03199719379205923,0.3227848101265822,0.5,0.40389136905366974,0.4348838973160286,0.018800161703215655,0.3825172721782577,0.4761486771682746,0.43528040943969265,0.5603782239693712,0.07543633393379592,0.47036766459696455,0.6911237406167516,0.5653131016848101,-0.23391168169332738,-0.3441997488419584,1.0,0.17525722214854475,-0.35268422546627876,-0.8276351556071575
5,0.17402369460289616,0.07943425389896899,0.06976744186046524,0.30232558139534893,0.19098427718656194,0.7153404429860539,0.04605203409709121,0.6284584980237156,0.7786561264822136,0.7167933623529433,0.5539027636420581,0.0436301498296047,0.5020746887966806,0.6099585062240664,0.5555861272138621,0.876441710534098,0.040395733156699545,0.7931034482758619,0.9184952978056427,0.8773546023439356,0.5109713487071977,0.1286472203329286,0.214814814814815,0.8691358024691358,0.5266208886130341,0.763522012578616,0.08848532001607165,0.5441860465116277,0.9100775193798448,0.7685361320524241,0.6112094693712379,0.06248993991175227,0.4865951742627345,0.7882037533512064,0.6143356809870069,0.4239497362769381,0.12000394754860273,0.14140863497601402,0.6669483209768862,0.4402983196962484,0.5750145158066039,0.08978177124390574,0.33109970414949297,0.7510873138291148,0.5818508141293789,0.6130007723711794,0.11768510574870147,0.4261754385964912,0.8742690058479532,0.6239859087842682,0.5330585064214367,0.14608607481409525,0.0,1.0,0.552349390766662,0.39039730019941715,0.10705915153796305,0.08130081300813008,0.6504065040650406,0.4045435157789522,0.3917492804605053,0.1247125781955116,0.1864406779661017,0.9491525423728813,0.410764249643595,0.4121593291404609,0.07102104843438231,0.24444444444444444,0.7111111111111111,0.41811975833295534,0.5667849803848309,0.025753239074564838,0.5247524752475247,0.6435643564356435,0.5673587309206202,0.4210242587601077,0.03572568758489755,0.2714285714285714,0.4857142857142857,0.42250878052271407,0.5077932731747333,0.06090752811971082,0.32608695652173914,0.6739130434782609,0.5113645865861776,0.41318366372104137,0.050501554270481336,0.310126582278481,0.5949367088607594,0.4162007040637863,0.2071465109277803,0.05658624619926119,0.14079168957872046,0.3089112586064422,0.2145955849793925,0.7081511550695454,0.05428681009510518,0.6210682529212892,0.7843078482265047,0.710189771338211,-0.009142770365572081,-0.5376928640899814,1.0,0.038960558486295614,-0.10479002697310225,0.401824534146489
6,0.4578073089700998,0.06967879196206725,0.34883720930232576,0.5534883720930237,0.4629297442161644,0.4635798983625071,0.05170940372382418,0.3873517786561267,0.5652173913043483,0.46637301436697437,0.6449318316538236,0.026229181441272068,0.6058091286307055,0.6887966804979254,0.6454497510688881,0.7256605463502014,0.042361535626183486,0.6739811912225706,0.786833855799373,0.7268606859707463,0.4515696649029984,0.12740353901983906,0.14320987654320994,0.7728395061728397,0.4687035974376168,0.5418383167220375,0.07184953309156357,0.4232558139534882,0.6914728682170541,0.5464463569326077,0.4450402144772118,0.08627005044594109,0.32439678284182305,0.646112600536193,0.4530901352175629,0.41822939380723956,0.10026814891310565,0.27428587003924987,0.6822803096380288,0.4297467613737403,0.5592051410798724,0.07995726846410775,0.4113017422307633,0.7103952259336991,0.5647308144058878,0.6254385964912282,0.126438599378953,0.3815789473684211,0.907157894736842,0.6377330115197353,0.5097238895558224,0.06357293247934191,0.2773109243697479,0.6386554621848739,0.513560599532709,0.3765389082462254,0.11328649847329446,0.16260162601626016,0.6829268292682927,0.39274508180423845,0.38256658595641657,0.14948106405326916,0.1864406779661017,1.0,0.4099553199877519,0.4069841269841271,0.06326195463337889,0.26666666666666666,0.6222222222222222,0.41173269183271016,0.5666195190947665,0.020529123786116606,0.504950495049505,0.6039603960396039,0.5669806725621992,0.41551020408163286,0.018777597879654235,0.3714285714285714,0.45714285714285713,0.4159221725807784,0.4962732919254658,0.07613000504627083,0.2826086956521739,0.6086956521739131,0.5019137020437048,0.4063291139240506,0.024164015374303696,0.34177215189873417,0.46202531645569617,0.40702649252165995,0.3011355831097032,0.055255872484818745,0.22117085580444407,0.3691878881443591,0.30602061408701225,0.5092148571812478,0.054295314656002826,0.4292680656110479,0.6140735159466475,0.5120190659864243,-0.36528212294485224,-0.6626903103272097,1.0,0.28796410656927,0.3851900817271349,0.11339622907342072
7,0.6555403556771546,0.0573770000294851,0.5302325581395353,0.7209302325581395,0.6579729865207209,0.36758893280632415,0.07473545876707145,0.27272727272727293,0.5059288537549411,0.3748902988578459,0.4159140834757142,0.030389744820541166,0.3858921161825727,0.5103734439834026,0.41699028595737203,0.5861146966623639,0.020027715035132038,0.554858934169279,0.6238244514106582,0.5864467151231605,0.34567901234567916,0.12373481600996841,0.18271604938271602,0.7802469135802468,0.3665432869254305,0.5652074783401732,0.07468259415123353,0.3193798449612402,0.7178294573643409,0.5699762623312783,0.3042501182778742,0.07779943816559176,0.16621983914209104,0.4959785522788203,0.313756059569069,0.4415516533695903,0.13781367055157492,0.16694832097688617,0.6746075010902748,0.4619543963129043,0.532109039281629,0.07623862331029406,0.2852681619339014,0.6428300503198725,0.5373838540142647,0.5572542139662882,0.08229015685984102,0.43567251461988304,0.7945964912280701,0.5631205573737893,0.5205140879881365,0.07193059478478332,0.33613445378151263,0.7142857142857143,0.5253158568726055,0.37517934002869446,0.07208502646743882,0.2032520325203252,0.5284552845528456,0.3818415342942842,0.3634097706879361,0.09238229799574181,0.1864406779661017,0.6271186440677966,0.3746333354529202,0.3856209150326798,0.09707774399076623,0.08888888888888885,0.5333333333333333,0.39730391316853003,0.5428072218986605,0.1575031951972548,0.009900990099009799,0.7326732673267327,0.5645505393245035,0.4126050420168068,0.04112889161160523,0.34285714285714286,0.4714285714285714,0.4145898622754308,0.506393861892583,0.0870436670976357,0.32608695652173914,0.7391304347826086,0.5136034483610417,0.4179076693968727,0.05409808591786146,0.28481012658227844,0.5759493670886076,0.4212924714314516,0.5599272868357975,0.020880655164654212,0.5170351994996416,0.5994208059855017,0.5603050461331068,0.35783165445368464,0.071355654221134,0.2687959905342323,0.5041054640064007,0.3646715899447321,0.5880602829991981,-0.10113493471571389,1.0,0.29418800976785536,0.12792383215475883,0.028772925137714716
8,0.9891891891891896,0.006762787681317977,0.9813953488372094,0.9999999999999996,0.9892116817025941,0.01719901719901713,0.007638010602183735,0.0,0.02766798418972316,0.018776811850656838,0.2205898844902995,0.006069505020795292,0.21161825726141076,0.2365145228215767,0.22067111361692326,0.3658391934254003,0.015514072217614128,0.34169278996865204,0.39498432601880873,0.36615911410763635,0.0834834834834836,0.044064977516226136,0.00987654320987641,0.16049382716049387,0.09412085464172318,0.49495076471820665,0.019949945059109638,0.4496124031007751,0.5410852713178294,0.49534180425027885,0.046735743786682105,0.013692774733722544,0.012064343163538771,0.07774798927613946,0.04864827308026282,0.476149503188317,0.03347487363213959,0.429295682511993,0.5536687745311818,0.4772930242022432,0.6258728068347004,0.017099098957148173,0.5890965180671099,0.6653475611297949,0.6261000298515832,0.5426745693061481,0.012575424797897559,0.5241169590643275,0.5716374269005848,0.5428163182799802,0.5260049965932321,0.016268151737225595,0.4957983193277311,0.5630252100840336,0.5262497091920036,0.3737640079103494,0.06570031569863807,0.17886178861788618,0.5609756097560976,0.37934074666328305,0.3728813559322034,0.06032247600017692,0.2711864406779661,0.5593220338983051,0.37759894165193725,0.40540540540540565,0.025340157953070614,0.35555555555555557,0.4444444444444444,0.40617522283489715,0.5648916242975648,0.012982079219697648,0.5247524752475247,0.594059405940594,0.5650367480077212,0.41467181467181485,0.02061593688359281,0.3571428571428571,0.45714285714285713,0.4151701383707831,0.5023501762632199,0.03928571705036722,0.43478260869565216,0.5869565217391304,0.503842589028538,0.4057475196715703,0.010203621316112738,0.38607594936708856,0.4240506329113924,0.40587233179748794,0.8838729547258969,0.014882915910397901,0.8540301650075488,0.9046148071563467,0.8839948612765478,0.012722162273556648,0.006253622332762963,0.0,0.022566338582328926,0.014138749514599881,-0.056165378169223394,-0.3561673724997683,1.0,-0.13381948553634093,0.4484529352700921,-0.39556829020271556
9,0.36803816338700085,0.019535451620220023,0.33023255813953556,0.4046511627906977,0.3685429935508696,0.6166007905138341,0.038769551239676764,0.5652173913043483,0.675889328063241,0.6177872388625578,0.5534631343759976,0.09437879311891535,0.41908713692946065,0.6639004149377594,0.5612489678789204,0.695522867936661,0.01944663737799686,0.6677115987460814,0.7398119122257053,0.6957877081536846,0.5121874010762901,0.0741255936751808,0.3604938271604936,0.654320987654321,0.5173873309100455,0.6024647187437884,0.08029996198848842,0.46511627906976727,0.7410852713178293,0.6076565524553228,0.5282532480923903,0.020856154537188535,0.47050938337801607,0.5750670241286864,0.5286542537328897,0.5509102396367987,0.0915483835109904,0.35690143916266903,0.7393425643262101,0.5582726023125995,0.6161558496122433,0.046279836017841594,0.5029648266619465,0.6902419905428983,0.6178470164118898,0.6605940920677764,0.11336753941801318,0.49195321637426903,0.8771929824561403,0.6700053805042192,0.5229476405946996,0.07817863769478192,0.3025210084033614,0.6974789915966386,0.5286108387333296,0.3623097769439234,0.06382024893277491,0.17073170731707318,0.5040650406504066,0.36774578464711033,0.363754889178618,0.07157683126718101,0.16949152542372883,0.5423728813559322,0.37055296109498226,0.40341880341880365,0.035518424156216595,0.3333333333333333,0.4888888888888889,0.40493942973452157,0.5643564356435645,0.0247785167857608,0.4554455445544554,0.594059405940594,0.5648861995131481,0.41758241758241776,0.025272210501794866,0.3714285714285714,0.4714285714285714,0.41832688602193885,0.5089186176142697,0.06667291654909652,0.34782608695652173,0.6304347826086957,0.5131563657146827,0.402304446608244,0.0611012704429155,0.2341772151898734,0.5569620253164557,0.40680032656870857,0.3773856101865675,0.04245277954373841,0.3091069356916485,0.43258370004160795,0.37970505135370325,0.6186386651523876,0.01147776989084425,0.5927742789920103,0.6360239103210632,0.618742401403805,-0.4215081529485304,0.5338365045854744,1.0,-0.21199784074326783,0.3307009692431457,-0.45166310990596703
10,0.27847780126849914,0.04828699983709553,0.2232558139534886,0.38139534883720927,0.2825581830362161,0.515199425080848,0.0429710381031197,0.438735177865613,0.5968379446640315,0.5169558828450472,0.7250848736325919,0.050366917714427334,0.6099585062240664,0.7883817427385892,0.7268003689146549,0.9185522941008833,0.04196019673857846,0.8275862068965516,0.9874608150470219,0.9194927749268579,0.4705723905723908,0.18965892627123657,0.007407407407407529,0.8962962962962961,0.5067098517310411,0.6491895701198025,0.07039084390199098,0.4759689922480619,0.7968992248062015,0.652925631519896,0.49887886912015583,0.07837366823665383,0.3726541554959786,0.7319034852546916,0.5048869946314404,0.4559397672758989,0.14385168932724324,0.20869221543829047,0.7955734845180986,0.4777008875151582,0.5810003976856076,0.10984096538177515,0.37495258805977694,0.9529799984828179,0.5911067039591521,0.5566049973418394,0.13175335811959568,0.1885964912280702,0.8187134502923976,0.5717101129214744,0.5222307104660046,0.10067704101075979,0.3025210084033614,0.773109243697479,0.5316732954146898,0.36156688839615664,0.10757197089628964,0.0,0.5772357723577236,0.37695085705655673,0.36486902927580894,0.11017453971989742,0.0,0.5593220338983051,0.3808505468217025,0.4044444444444441,0.09056041543171138,0.15555555555555556,0.6222222222222222,0.41427935618458994,0.5747974797479747,0.17195973870253878,0.0,1.0,0.5995203543974307,0.43246753246753233,0.1489812861536477,0.0,1.0,0.4569683108332036,0.5205533596837943,0.16689850404614845,0.13043478260869568,1.0,0.5461908589253427,0.40817031070195614,0.10151364956739387,0.18987341772151897,0.860759493670886,0.4203815642579484,0.06572265713682267,0.04180843965717884,0.0,0.1443449407200319,0.07768933297511538,0.5836309069994284,0.05403482453346969,0.48507898025269003,0.675527110607999,0.5860816592257003,-0.1911452357580677,-0.27424564119823436,1.0,0.33207577319060977,0.2212798981711173,-0.4365140569629647
11,0.7482558139534888,0.014333427986837758,0.6930232558139537,0.7674418604651163,0.7483896539197381,0.3616600790513834,0.01497756416492243,0.3399209486166008,0.4189723320158103,0.36196233508758807,0.3706431535269713,0.0086318664461663,0.3609958506224067,0.39004149377593367,0.3707411410226866,0.3303291536050156,0.02041092546107601,0.31034482758620685,0.3730407523510972,0.3309434097434623,0.34246913580246924,0.05661561196423402,0.23456790123456783,0.5061728395061731,0.34700187795950427,0.4474031007751937,0.032725031553557604,0.3875968992248061,0.5271317829457363,0.44856848872963084,0.2962466487935657,0.020793273622631413,0.25201072386058987,0.33109919571045576,0.296957283365243,0.49423074302224157,0.04565134317226164,0.4011938508504143,0.584332751853467,0.4962821489368853,0.6374367840797026,0.05831932399231816,0.572502338989051,0.8478898525804739,0.6400326309337839,0.54793567251462,0.055182645531677454,0.4342105263157895,0.6513216374269006,0.5506382637201365,0.5285714285714287,0.05276457206654397,0.44537815126050423,0.6890756302521008,0.5311329896229118,0.3756097560975611,0.08076118599707482,0.16260162601626016,0.6016260162601627,0.38398176885137664,0.37542372881355934,0.07155489175897473,0.22033898305084748,0.5084745762711864,0.3820144972740558,0.4000000000000002,0.04240327055302349,0.3333333333333333,0.4888888888888889,0.4021853881231305,0.5653465346534652,0.011165731003729652,0.5445544554455445,0.5841584158415841,0.5654540308060492,0.41750000000000015,0.02083738840702758,0.3857142857142857,0.45714285714285713,0.41800668874640595,0.5059782608695651,0.094820993424193,0.32608695652173914,0.7391304347826086,0.5145680185813065,0.4101265822784811,0.0273148315949729,0.3354430379746835,0.45569620253164556,0.4110124827981053,0.8336523197054644,0.019134111076235076,0.7830530425446929,0.8482094250563117,0.8338663870799762,0.3358197657412818,0.014079450580135789,0.31532047869546953,0.3902342482923804,0.3361074087519523,-0.2645977689416882,-0.5468604874062032,1.0,-0.12551272767357088,0.5783158900865542,-0.15365012268756098
12,0.4738870431893689,0.052218573404068554,0.3906976744186048,0.5441860465116282,0.4766736841152687,0.6301524562394126,0.0543919688354091,0.5573122529644265,0.7114624505928855,0.632428712345594,0.4060462359217547,0.055943260621899665,0.31950207468879666,0.4813278008298756,0.4097728341279633,0.5055082848186296,0.04250438042268488,0.43260188087774293,0.5830721003134796,0.5072411956789535,0.4850088183421517,0.09968757189531563,0.25185185185185177,0.6617283950617285,0.49486082294810957,0.5701882613510522,0.07725635790249832,0.4263565891472867,0.7007751937984494,0.5752500920177476,0.5054768288012256,0.07515453495435838,0.3780160857908847,0.6340482573726541,0.5108753774830588,0.5142853249018753,0.08814214905969227,0.36968491059747055,0.7282762756214566,0.5215711469429714,0.6157037376864418,0.16116182120894107,0.3804839810857966,0.9616785091157357,0.6358632995488422,0.5468050125313281,0.2052814097043763,0.312140350877193,0.935672514619883,0.5830370192685845,0.5250900360144058,0.045453674203886615,0.40336134453781514,0.6638655462184874,0.5269976781789425,0.3742160278745643,0.06246345824671652,0.13821138211382114,0.49593495934959353,0.37924641390474517,0.371912832929782,0.08403921389027601,0.1016949152542373,0.5254237288135594,0.38102487648255084,0.4082539682539683,0.09052188143062664,0.19999999999999998,0.5777777777777777,0.41788921175122473,0.5708628005657708,0.06641538007912047,0.396039603960396,0.7425742574257426,0.5746036121814427,0.4216326530612246,0.03418954098466723,0.34285714285714286,0.5,0.4229770927500136,0.5068322981366459,0.06829308144368869,0.32608695652173914,0.6521739130434783,0.5112823758324639,0.40759493670886077,0.02155618527332456,0.36075949367088606,0.4493670886075949,0.4081482883629008,0.6357764556916654,0.03246015099521474,0.5760047185034551,0.6830858013301597,0.6365809126913756,0.590069781992483,0.06313391709683502,0.5029206082217661,0.6837293101367061,0.5933416861258812,-0.09655112265655708,0.08292393945839804,1.0,-0.06268194514594648,0.14004180150263715,-0.7978969899508994
13,0.5107479572595852,0.03648911957570938,0.4279069767441861,0.5627906976744188,0.5120145958848012,0.31235979062066016,0.01855057694178737,0.28458498023715406,0.3715415019762849,0.31289528928281773,0.7471122574857018,0.024933619317946715,0.7095435684647304,0.8174273858921163,0.7475169619147877,0.7905617215962042,0.047935157754084405,0.7147335423197492,0.8495297805642632,0.7919744395228286,0.38471805138471804,0.1724243866934217,0.032098765432098775,0.6962962962962969,0.4206359828918045,0.47362245966897126,0.06955621351934352,0.3364341085271316,0.6279069767441859,0.47856613187606,0.3597565393812042,0.06247469469716542,0.19705093833780163,0.5737265415549597,0.36499639211134766,0.4060746720335686,0.06278212709300832,0.2734272786742259,0.5434474487570867,0.4107696497331109,0.5946706245527901,0.1149686353466452,0.26590512554681767,0.7874364680001011,0.6053872325461795,0.600383752173226,0.17573915049714742,0.3026315789473684,0.9232514619883041,0.6249081448166252,0.522371110606405,0.07899242886288843,0.3025210084033614,0.7815126050420168,0.5281502983691327,0.3755218633267415,0.06703792668076257,0.24390243902439027,0.6504065040650406,0.38129947774781325,0.3563902885936784,0.10047022186025424,0.11864406779661019,0.6101694915254238,0.36991280769739593,0.38978978978978995,0.06363359505485125,0.26666666666666666,0.5777777777777777,0.3948111901604055,0.560877709392561,0.02632168035176131,0.504950495049505,0.6237623762376238,0.561478326021318,0.41389961389961405,0.030949905850945442,0.3571428571428571,0.5,0.4150239727523986,0.5047003525264394,0.06000401143891266,0.2826086956521739,0.6086956521739131,0.508159046875355,0.40951077659938406,0.04281881572652764,0.2341772151898734,0.48101265822784806,0.41168309948558474,0.186067684811395,0.049670182905515455,0.11740921002780613,0.25320661894588703,0.1924100602643832,0.41519994560181156,0.022758070214877243,0.3882662803583332,0.49249351951589926,0.4158063569572181,-0.13364600441692337,-0.5257698279555426,1.0,0.26087130741043835,0.10682892977709865,-0.2708105429062097
14,0.37819767441860463,0.06373453619640909,0.28372093023255873,0.44651162790697674,0.3833648806200262,0.5862154150197627,0.045283064103587144,0.5296442687747038,0.6561264822134387,0.5879072961187808,0.6824429460580914,0.08540830437248384,0.5809128630705394,0.7883817427385892,0.6876008998710563,0.6419474921630094,0.026465030676776125,0.6175548589341693,0.7178683385579937,0.6424757529357253,0.4918981481481481,0.08919751363894884,0.3407407407407408,0.654320987654321,0.49967124537261265,0.4964147286821704,0.043515106301035465,0.4108527131782944,0.5813953488372092,0.49825894215668226,0.5348944369973191,0.07560214713745461,0.42895442359249325,0.660857908847185,0.5400454871926103,0.5205499754688182,0.17010218472383695,0.26490950719581335,0.8100468818142171,0.5468115024114024,0.6888715879207019,0.07105790952407912,0.5634182112423193,0.8664563683718107,0.6924128124334581,0.6498545321637426,0.0749670859739948,0.5109707602339181,0.7492631578947369,0.6540300833706597,0.5252100840336132,0.069558378249964,0.37815126050420167,0.6890756302521008,0.5296534729007604,0.3810975609756097,0.07720470892439389,0.2601626016260163,0.6178861788617886,0.3885996015700554,0.388771186440678,0.08490280692200829,0.23728813559322035,0.6610169491525424,0.3976509233269201,0.41388888888888903,0.07222911464216655,0.3111111111111111,0.7111111111111111,0.4199500264214279,0.5720915841584157,0.017735404964086515,0.5445544554455445,0.6138613861386139,0.5723578388872752,0.42008928571428583,0.02375521840733078,0.3571428571428571,0.45714285714285713,0.420739448677527,0.5095108695652174,0.05351750005714585,0.34782608695652173,0.6086956521739131,0.512226458882772,0.41099683544303794,0.03514492474644407,0.37341772151898733,0.5,0.41244995520716515,0.35338126042058204,0.044115415265568794,0.29287141192425903,0.41851261605413104,0.3560388564078943,0.6308846051228947,0.06922193715596732,0.5470806188139097,0.7307441988151968,0.6345528517558304,-0.3863112238587015,0.3671352654952074,1.0,-0.4552495646576151,0.6010727497708319,-0.45093238667739455
15,0.5011329755515804,0.07699575213566176,0.3953488372093026,0.6232558139534885,0.5068634886872864,0.6566332218506131,0.09421883422972471,0.5019762845849807,0.7786561264822136,0.663186818730471,0.1575699542504522,0.04587571220584586,0.09958506224066394,0.23236514522821572,0.16394788146925748,0.49352945904670037,0.03430829010158562,0.43887147335423193,0.5297805642633229,0.4946900087150827,0.4681861348528017,0.09680413794493074,0.28395061728395077,0.6740740740740743,0.47783785417853025,0.7055853707016496,0.04591456142840838,0.6263565891472866,0.807751937984496,0.7070394665429346,0.4889324259297449,0.0829725248545508,0.33512064343163533,0.6662198391420912,0.4957447255461004,0.49488898766591743,0.06483724556610358,0.3773440907108591,0.6124345835150458,0.4990102073383238,0.537186684068875,0.046845279102772606,0.45041343211874474,0.6203125395099501,0.5391732050025427,0.5533048433048433,0.12646050397333752,0.2997076023391813,0.7229473684210527,0.5672111165739254,0.5102348631760396,0.05610541713227052,0.35294117647058826,0.6386554621848739,0.5132316437575971,0.35084427767354603,0.06806047031719423,0.17886178861788618,0.49593495934959353,0.3572186441507436,0.3355063016079966,0.10756050866619903,0.06779661016949157,0.4915254237288136,0.35190494977102504,0.38917378917378936,0.046966952248952906,0.26666666666666666,0.4666666666666667,0.3919254666175052,0.5615638486925617,0.019400398804152143,0.5247524752475247,0.6138613861386139,0.5618902748571013,0.4153846153846156,0.02439044542390596,0.3571428571428571,0.4714285714285714,0.41608174537980464,0.48439241917502796,0.09100265044786558,0.21739130434782605,0.7826086956521738,0.4926511467971045,0.4034404414151249,0.02051987264228743,0.36708860759493667,0.45569620253164556,0.40394858385638954,0.7787999296860224,0.01669495979980514,0.7441856007676781,0.8019352428018687,0.7789742649483724,0.5650368441840907,0.09259897837474082,0.42614085091565235,0.6927062155810195,0.572382167167986,0.1429514277118578,-0.3164742114767899,1.0,0.39739909495349807,0.12733332834687938,-0.5690853894544593
16,0.14520348837209335,0.06580637827886535,0.07441860465116346,0.28372093023255873,0.15899435516917765,0.9349061264822136,0.04835664477421868,0.8221343873517786,0.9841897233201584,0.936116849820905,0.5235995850622406,0.1480909410846164,0.19917012448132781,0.6473029045643154,0.5435090715390121,0.4805054858934169,0.07502090708665238,0.4075235109717868,0.6363636363636362,0.4861458415004129,0.46180555555555564,0.12323115083105651,0.1802469135802467,0.6839506172839507,0.4774680384961894,0.5921027131782944,0.156342286764517,0.34573643410852706,0.8155038759689921,0.6117717651433784,0.7880361930294906,0.09257676591063708,0.581769436997319,0.9075067024128686,0.7932866268325139,0.45416289045464464,0.1922961669876699,0.13373582642825993,0.7913077845617096,0.4920225504581321,0.5796893964776091,0.19692003200582572,0.27578577388929626,0.8941133335019091,0.6112327695320646,0.3875639619883042,0.24544810892234076,0.052631578947368474,0.9195906432748537,0.45669240152722196,0.5215336134453782,0.097204198071846,0.3445378151260504,0.8067226890756303,0.5302364525118455,0.3722052845528455,0.08357007113088062,0.1951219512195122,0.6097560975609757,0.38118562668106276,0.3638771186440678,0.1299384264980986,0.13559322033898308,0.7966101694915255,0.3856979742230127,0.3875000000000001,0.06532399416340655,0.28888888888888886,0.6,0.3927978149847452,0.5634282178217822,0.04943203669058689,0.396039603960396,0.6831683168316831,0.5655249974084731,0.4196428571428572,0.058817623527247516,0.32857142857142857,0.6428571428571428,0.4236171982016841,0.5081521739130433,0.06167321610299613,0.3695652173913043,0.6304347826086957,0.511764941538128,0.4017009493670886,0.042227628482595814,0.22784810126582275,0.49367088607594933,0.40384539267609254,0.5798519721721905,0.032393400819020805,0.5386972481893091,0.6332631027718589,0.5807278626091408,0.9167164564299102,0.08173513115078933,0.7273247580048521,1.0,0.9202396010899228,0.05486445521460038,0.3608696034044256,1.0,-0.4714143764075325,0.14477304034612126,-0.44862660601407267
17,0.4695160276555628,0.0266501198425461,0.43720930232558164,0.5116279069767438,0.47025135165966303,0.3970729622903536,0.029965969199370217,0.3399209486166008,0.43083003952569165,0.39817160561942644,0.8911068745093642,0.046282101021613016,0.7966804979253114,0.933609958506224,0.8922755190480224,0.623400830297382,0.030187165100017125,0.5924764890282131,0.6677115987460814,0.6241115536265658,0.4246913580246916,0.0727639048734168,0.20740740740740748,0.5506172839506174,0.43071363864910744,0.32478525036664563,0.0508769999639906,0.23875968992248053,0.4527131782945735,0.3286395736305223,0.46985725672052747,0.053240602661607114,0.33646112600536193,0.5415549597855228,0.47278303024441914,0.43079923032496076,0.05462376075076423,0.2666130614914959,0.5161905800261666,0.4341556058070203,0.5925776650294312,0.06449503591874096,0.43658811034971046,0.7040736339039624,0.5959827823580472,0.5283309625414887,0.08100666527147395,0.34941520467836257,0.631578947368421,0.5343391547414574,0.5219168748580514,0.054163261443151096,0.37815126050420167,0.6638655462184874,0.5246442557330078,0.3724456163480554,0.07731507928123954,0.1869918699186992,0.5528455284552846,0.3801733831868489,0.3719651855245076,0.06930363026858988,0.22033898305084748,0.5593220338983051,0.37819476699779125,0.40720720720720743,0.035929382824922126,0.3111111111111111,0.4666666666666667,0.4087465478839837,0.5672999732405672,0.011400446566949593,0.5346534653465346,0.594059405940594,0.5674114178557342,0.4142857142857145,0.02182178902359924,0.3714285714285714,0.45714285714285713,0.4148445172887607,0.5070505287896592,0.052016180162413585,0.3695652173913043,0.6304347826086957,0.509639868119665,0.40643174820390005,0.017148092483504344,0.36708860759493667,0.45569620253164556,0.40678357333521414,0.25992201272822063,0.007991789499255319,0.247631070054684,0.2820869560547097,0.26004152595119273,0.5379244206948359,0.04016696170255179,0.47510692554081646,0.5820500365428662,0.5393815552995477,0.1822703176997552,0.2378632326209047,1.0,-0.20563528234482342,0.48865352375127646,-0.6837742843120813
18,0.32050739957716706,0.01068019529836365,0.30697674418604715,0.344186046511628,0.3206799076845212,0.6224697568571085,0.005050288062468312,0.6126482213438733,0.632411067193676,0.6224896229818327,0.8340248962655606,0.03445170519795772,0.7468879668049794,0.867219917012448,0.8347146100969898,0.5735727177733447,0.04585466560239345,0.5047021943573667,0.664576802507837,0.5753473700764677,0.5033295922184813,0.08831717983479144,0.3580246913580247,0.7679012345679015,0.5107878633207371,0.41226215644820285,0.0676024591851945,0.25736434108527123,0.5286821705426356,0.4176023113873537,0.6139816394508082,0.03156097267868542,0.5469168900804289,0.675603217158177,0.6147677316533992,0.5044655836604158,0.0700987949833995,0.37309201918883556,0.6720589838639337,0.5091664382905456,0.6070195724151777,0.03625383135799066,0.5187688067362884,0.6716691531595317,0.6080684773030575,0.4730189615452773,0.08404755564994906,0.3157894736842105,0.6864093567251461,0.48020502833712964,0.5222816399286988,0.014421195820399772,0.4957983193277311,0.5546218487394958,0.5224746693834573,0.3611727026361173,0.04090521274035854,0.2520325203252033,0.4471544715447155,0.3634119610367674,0.36466358500256807,0.0450671424713198,0.2711864406779661,0.4745762711864407,0.36735409439483796,0.4033670033670036,0.02784503641807334,0.3333333333333333,0.4444444444444444,0.4042978977480056,0.5667566756675667,0.010510421860650905,0.5445544554455445,0.5841584158415841,0.5668511716817429,0.4181818181818183,0.024294307112377202,0.3714285714285714,0.4714285714285714,0.4188655645462478,0.4986824769433465,0.08004816638731772,0.30434782608695654,0.6956521739130435,0.5048739929468355,0.4060222477943996,0.009769363570469375,0.38607594936708856,0.4240506329113924,0.40613620133312284,0.3237685017492738,0.02518304973101259,0.2939941804635886,0.3785994165334925,0.32471681656689366,0.715943383271691,0.01138236228245376,0.6833146294620582,0.7342716109663656,0.7160311167934387,-0.211444259899654,-0.6214391719726128,1.0,0.14425559771360003,0.5542418423399795,-0.3320321330599892
19,0.3059431524547805,0.03501580194215308,0.2232558139534886,0.3674418604651164,0.30789620346969404,0.8205533596837946,0.041131588154477615,0.7470355731225296,0.9090909090909094,0.8215607268542416,0.31931765790686956,0.07861428410541796,0.23236514522821572,0.5020746887966806,0.32864362828580784,0.524068268895855,0.06921858568779436,0.3699059561128527,0.6050156739811912,0.5285189605651845,0.5201646090534979,0.1443988723951013,0.1802469135802467,0.8246913580246915,0.539406060905779,0.6821360895779498,0.10262491128792899,0.4248062015503875,0.8139534883720929,0.6896430058459874,0.6508489722966935,0.07300211304907807,0.5469168900804289,0.8230563002680965,0.6548398767418648,0.4787435794931434,0.05076652472850067,0.4020388137810728,0.6149967291757522,0.4813682404751934,0.5613607437563745,0.0814883342248691,0.3986585581712898,0.7064379093230839,0.5671143358643862,0.4509741390513321,0.1518282700997904,0.0935672514619883,0.6615438596491228,0.47530751619123923,0.524183006535948,0.02405615311253931,0.47058823529411764,0.5714285714285714,0.5247224627142577,0.3897018970189702,0.04934387641598173,0.3008130081300813,0.5528455284552846,0.39274454752442767,0.408662900188324,0.09630166067393328,0.2542372881355932,0.6779661016949152,0.4196108753728192,0.4197530864197531,0.07404039638464337,0.3111111111111111,0.7555555555555555,0.4260901454754975,0.5667766776677667,0.013705494016446164,0.5346534653465346,0.6039603960396039,0.5669386815869432,0.4222222222222222,0.017109153978674917,0.3857142857142857,0.45714285714285713,0.42256102888133407,0.51256038647343,0.037219734861917785,0.41304347826086957,0.5869565217391304,0.5138800188838086,0.40618846694796057,0.012461714605431046,0.37974683544303794,0.430379746835443,0.40637533639150697,0.6653624119534937,0.017669738148558316,0.6315699217660793,0.6967637064360845,0.665591782305377,0.7510694943005926,0.0572006941509615,0.6614736997033042,0.8808195267061305,0.7531962528850283,-0.11446791730194189,-0.8245199267397623,1.0,0.18336863633837377,0.10731815539483633,-0.8748227083915959
20,0.7421586165772215,0.09820798990712157,0.5441860465116282,0.8465116279069766,0.7484630375905815,0.413195500152022,0.13680940683396753,0.2648221343873518,0.6719367588932805,0.43470382657807616,0.2516225130333012,0.039046493483386784,0.2033195020746888,0.3319502074688796,0.2545573111818802,0.2595450526485007,0.0471657016420655,0.2006269592476489,0.3228840125391849,0.2636876877152001,0.39531497309275093,0.18270708833530086,0.05432098765432114,0.832098765432099,0.43451106134939654,0.4994633273703039,0.06983589593497645,0.3364341085271316,0.6759689922480618,0.5041979919874872,0.31824431154189864,0.13387201549092279,0.11930294906166217,0.5536193029490617,0.34458907000550804,0.4903678419269348,0.0965555348330063,0.36712276493676405,0.7274313126907981,0.4995443335247,0.4936142194973458,0.1307576287079934,0.0,0.6376969175917263,0.5102099139040163,0.5616098365572051,0.15683509797122575,0.24341520467836258,0.8494152046783625,0.5825565704787177,0.5251023486317605,0.1482810371252088,0.07563025210084034,0.7478991596638656,0.5451201394729256,0.3798207212841359,0.15601718349803376,0.07317073170731708,0.7804878048780488,0.4098548577092933,0.3815732290308562,0.13452252306018442,0.03389830508474578,0.6101694915254238,0.4040178590050671,0.4205128205128206,0.1294145979078362,0.2222222222222222,1.0,0.43948803274663656,0.565118050266565,0.024818527334645464,0.5148514851485149,0.6138613861386139,0.5656488099589386,0.4230769230769232,0.041664532154971304,0.34285714285714286,0.5714285714285714,0.4250711763589944,0.5161649944258639,0.06667291654909652,0.32608695652173914,0.6739130434782609,0.5203437304222411,0.4130152547874067,0.018916030238857254,0.37974683544303794,0.4683544303797468,0.41343710780812226,0.9563859855352751,0.03062741680889496,0.9232296922520833,1.0,0.9568636996538861,0.35843373378823445,0.12474345981819472,0.21890285191581982,0.5924700206638813,0.37899429291215325,0.5620056443150075,0.302683774323493,1.0,-0.14283048146710908,0.559783169430606,-0.2695666555813729
21,0.33877906976744215,0.020793308051890388,0.29767441860465116,0.37209302325581417,0.33940862577649317,0.6543478260869564,0.032574906193917105,0.5494071146245061,0.7035573122529646,0.6551480275188574,0.5414419087136932,0.053887311920178,0.49377593360995853,0.7676348547717843,0.5440835274732042,0.6942398119122258,0.023821442515904297,0.664576802507837,0.7272727272727273,0.6946432784555082,0.5325925925925925,0.08972914658629903,0.33333333333333326,0.7851851851851854,0.5400051369522018,0.6344186046511626,0.04952671434338614,0.4961240310077518,0.7395348837209301,0.6363247599836572,0.5558981233243967,0.042699010652093326,0.4624664879356568,0.6702412868632708,0.5575151468412051,0.5328874563890101,0.13276569405019426,0.35774640209332753,1.0,0.5489767176979558,0.617233213012365,0.05446286115787272,0.45279035072192575,0.7214580119857384,0.6196014565432367,0.6081685672514622,0.11602243775104105,0.3910877192982456,0.9597894736842105,0.6190007650872648,0.5266806722689077,0.08093174197348456,0.2605042016806723,0.7899159663865546,0.5327857008824047,0.3794715447154472,0.07144986789783199,0.13008130081300812,0.6585365853658537,0.38605689130756693,0.37902542372881365,0.1027706725377365,0.2033898305084746,1.0,0.39254306811799916,0.40333333333333277,0.044458506917330574,0.28888888888888886,0.5333333333333333,0.405745769700227,0.5670792079207924,0.03529564499262861,0.48514851485148514,0.7524752475247525,0.568162862504736,0.414642857142857,0.02650531353464095,0.34285714285714286,0.4857142857142857,0.41547857824392326,0.5046195652173913,0.042461099986740095,0.34782608695652173,0.6086956521739131,0.506380601721296,0.40506329113924056,0.024210752298408116,0.30379746835443033,0.46202531645569617,0.4057771597180185,0.3851369203621072,0.03999373410881102,0.24262001698235824,0.43855359985547526,0.3871820662935912,0.6488693964030151,0.027239501556134988,0.6087288480793449,0.7005273652297888,0.6494337604043058,-0.17368167622085282,0.20949823567941675,1.0,-0.0618168533868016,0.04628661878398986,-0.3207902982973516
22,0.0871794871794874,0.04467255134298928,0.037209302325581284,0.1953488372093024,0.09769713226546757,0.8483835005574138,0.07462920837876992,0.6996047430830041,0.9367588932806326,0.8515757597468294,0.7022023619533997,0.014134243659580551,0.6804979253112032,0.7219917012448133,0.7023409510299012,0.694397556466522,0.0807328055562828,0.5799373040752351,0.8025078369905955,0.698955384559315,0.5500474833808168,0.09790309297925757,0.3259259259259262,0.7777777777777779,0.5584724522815102,0.607751937984496,0.05082041147026613,0.4713178294573642,0.7147286821705425,0.6098187508631789,0.7663779473430951,0.06878108404512995,0.599195710455764,0.8806970509383378,0.7693794201627846,0.5698016957965715,0.06280210403893263,0.4199329481029219,0.7180549498473615,0.5731639782170576,0.5427887492519449,0.0532977793455323,0.43698637064758383,0.6700887551520975,0.5453324145271258,0.5143958614484931,0.09130001557085814,0.2712046783625731,0.6761637426900585,0.522230848767714,0.5324283559577676,0.09300791031785362,0.33613445378151263,0.7983193277310925,0.5402856824413177,0.3846153846153846,0.11609312977130748,0.17073170731707318,0.6829268292682927,0.40132409471246744,0.3959148196436332,0.11359773935007912,0.11864406779661019,0.6440677966101696,0.41148767607092035,0.41994301994302,0.10967432109121661,0.2222222222222222,0.6444444444444445,0.4336728890982712,0.5661335364305661,0.017721883592584066,0.5247524752475247,0.594059405940594,0.5664037369903885,0.42380952380952397,0.055843625975751106,0.32857142857142857,0.7142857142857142,0.4273792943329025,0.49944258639910816,0.06198856602116996,0.3695652173913043,0.6739130434782609,0.5031768592400334,0.40798442064264845,0.0180098225703947,0.36708860759493667,0.4683544303797468,0.4083715519405887,0.2868519138040386,0.06341449261545289,0.2007680697507972,0.38223126632340687,0.293602291477303,0.8834617155233886,0.07662622210143595,0.7338169545160316,0.9753386552257313,0.8866936491422689,0.14726571087864246,-0.4450475269622382,1.0,0.019072954772850946,0.0562202749074081,-0.36945524378325895
23,0.4474739374498799,0.03880266453287718,0.3906976744186048,0.5023255813953487,0.44909537140505557,0.7289082731361589,0.02751667186007064,0.6877470355731223,0.7588932806324113,0.7294095753839238,0.43496923737301496,0.08627220015141866,0.2904564315352698,0.5518672199170125,0.44315288390538227,0.24310885309696248,0.04305221240904877,0.2068965517241379,0.335423197492163,0.24676201874668788,0.5005534269902087,0.06147707764812093,0.37037037037037046,0.6222222222222225,0.5041853222162191,0.42838813151563737,0.08401582885497699,0.34573643410852706,0.6449612403100774,0.43627015560313787,0.59138393269853,0.05677707147560213,0.4369973190348525,0.6689008042895442,0.5940096226851793,0.3835417387250553,0.0705003427608814,0.3040912559965111,0.5587658089838639,0.3897475773832016,0.5689742366786616,0.05116163319274453,0.4354059726401497,0.6357182592864187,0.5711908049470128,0.4336817906836055,0.11188440249997693,0.2712046783625731,0.6279298245614034,0.4473995482780762,0.5256447406548826,0.11165467254350223,0.3025210084033614,0.8151260504201681,0.5369723184667882,0.4011774600504626,0.09617864732125611,0.1951219512195122,0.7235772357723578,0.4121585977274458,0.38983050847457634,0.11224529769006546,0.13559322033898308,0.6271186440677966,0.4051325507520808,0.4114942528735633,0.08881359701246083,0.2222222222222222,0.5777777777777777,0.42064638374978447,0.5701604643222943,0.019893220030868262,0.5445544554455445,0.6336633663366336,0.5704954417569937,0.41674876847290654,0.03583021297814057,0.3142857142857143,0.4714285714285714,0.418233273516953,0.5209895052473763,0.09047291483990667,0.3695652173913043,0.717391304347826,0.5285197815665965,0.40920995198603216,0.021547944966040223,0.36708860759493667,0.48101265822784806,0.40975735248000134,0.853070299343073,0.023384649977383657,0.7992870487176331,0.881717005243968,0.8533797049732142,0.6869917175724134,0.045623401927118966,0.6170049160785185,0.7443453270421667,0.688452859049639,0.12034149188693921,0.5038372769452085,1.0,0.20004608883066066,0.11339569437160082,-0.9236340495300345
24,0.26372093023255827,0.0820356449439314,0.13488372093023315,0.418604651162791,0.27588100679107747,0.8759881422924902,0.08139176429051043,0.7114624505928855,0.9999999999999998,0.8796671127472095,0.2242738589211617,0.09389416388842035,0.09958506224066394,0.37344398340248963,0.2426818389525411,0.5307210031347964,0.054306472154292566,0.4482758620689654,0.6112852664576803,0.5334231399773572,0.5157407407407409,0.1944731584641419,0.12345679012345712,0.9604938271604937,0.5503297427804096,0.7533720930232558,0.10317398685592523,0.531782945736434,0.9705426356589146,0.760229084106162,0.6806970509383379,0.1257733977756234,0.4906166219839142,1.0,0.6919334860045976,0.464247165285652,0.11561202795478177,0.2597988443087658,0.730838421282163,0.47807679085936106,0.6483118188484588,0.21572792134257335,0.24535995145017314,1.0,0.6824099113467027,0.5741593567251463,0.25394244191531584,0.0,0.9488304093567251,0.6265249888278994,0.5224789915966386,0.11219373049912626,0.3445378151260504,1.0,0.5340946021016018,0.3778455284552846,0.12484221802643627,0.16260162601626016,0.8455284552845529,0.3974458243463749,0.37838983050847463,0.12714833783278628,0.11864406779661019,0.7796610169491526,0.39867454916326356,0.4044444444444446,0.06167443035238278,0.3111111111111111,0.5777777777777777,0.40900360709568806,0.566089108910891,0.05689398023731143,0.41584158415841577,0.7425742574257426,0.5688698278957051,0.4192857142857145,0.025173391382561743,0.3714285714285714,0.4714285714285714,0.42002186532005537,0.5097826086956522,0.04616818318996942,0.3913043478260869,0.6086956521739131,0.5118168830149415,0.40901898734177217,0.03381670914592695,0.35443037974683544,0.5189873417721519,0.41037971755206476,0.7137530782298354,0.011750014505061085,0.6918046034466334,0.7312656068988037,0.7138473702076746,0.7878168954794672,0.09713262724689536,0.6058586768783003,0.9368806777906924,0.7936336304598571,0.195258525766679,0.15411647398591374,1.0,0.13081154855540317,-0.010155838907758973,-0.8088668693307991
25,0.1111467522052929,0.052388345549212276,0.009302325581395987,0.20930232558139528,0.1226817820279702,0.8858525282813142,0.057897263130765646,0.7549407114624505,0.9762845849802375,0.8877099752915857,0.4705251108885385,0.04629655116468629,0.41493775933609967,0.6058091286307055,0.4727581791572111,0.7208950383742297,0.04524866000899924,0.6426332288401254,0.8150470219435737,0.7222892750652508,0.5553852703277992,0.10732545706821593,0.345679012345679,0.8518518518518523,0.5654847062738816,0.7556268377439186,0.050263331132310005,0.6263565891472866,0.8713178294573642,0.7572679589896479,0.7335213090505684,0.05945224074051762,0.6126005361930295,0.8793565683646113,0.735885275648809,0.4884426177120772,0.10035839806572558,0.3194232446576537,0.7010194068905364,0.49847201225003757,0.564334624100699,0.07581816178497357,0.3646800010114547,0.7297519407287532,0.569317882540039,0.5186273442226256,0.11447518561582234,0.32894736842105265,0.7514619883040936,0.5308982477532816,0.5347725297015359,0.1205872801032489,0.29411764705882354,0.9411764705882353,0.5479710199571958,0.37468460891505484,0.1288657771757424,0.14634146341463414,0.878048780487805,0.3958644056256697,0.3708357685563998,0.11513337780810888,0.16949152542372883,0.7457627118644068,0.38800298383675547,0.40191570881226035,0.10817040141357093,0.0,0.8,0.41597516053817385,0.5674291567087745,0.024408370466727454,0.5247524752475247,0.6435643564356435,0.5679448428857683,0.41798029556650235,0.03992118486808291,0.34285714285714286,0.6428571428571428,0.4198496765268043,0.5153673163418289,0.07650897680327248,0.2826086956521739,0.7608695652173914,0.5209185826414875,0.4108467917939764,0.09239155899879545,0.19620253164556958,1.0,0.42093243001289177,0.40465007288807103,0.0342460833505643,0.3314486312881,0.46276724086811605,0.40607173642484795,0.8500735803859866,0.06635452929595684,0.7120824506620469,0.9789146921233813,0.8526148621465608,-0.0053933458846979875,-0.45843926629942855,1.0,0.15774323261040676,0.20290997382583537,-0.43999882574550064
26,0.23548172757475103,0.01776797595138106,0.19069767441860508,0.2697674418604654,0.23613200749432658,0.6999435347261433,0.035149136083133525,0.6442687747035574,0.7549407114624505,0.7008003386590783,0.575459395376408,0.023250706738705815,0.5228215767634855,0.6141078838174274,0.5759155020565134,0.7897895208240033,0.034415158934331176,0.7272727272727273,0.8338557993730407,0.790517583787654,0.5077954144620812,0.10094000906833474,0.2987654320987654,0.7555555555555558,0.5174494732504094,0.6954152823920263,0.05091393395533786,0.55968992248062,0.7813953488372092,0.6972234792223234,0.5968977403293758,0.04391886901215758,0.5201072386058981,0.6890080428954424,0.5984652612961986,0.5486741480281602,0.09380876352930996,0.3841583078935892,0.7291212385521151,0.5564098973370388,0.6254342933724428,0.10104841254455885,0.44844109540546684,0.8518345260070296,0.6333143772130058,0.5692775271512115,0.06867628672956805,0.43494736842105264,0.6893333333333334,0.5732875195467837,0.5198079231692676,0.09899327631355842,0.26890756302521013,0.7478991596638656,0.5288855785602159,0.37932636469221837,0.09242294615773863,0.17886178861788618,0.5934959349593496,0.3901107980514429,0.3782082324455205,0.09434842036063554,0.15254237288135594,0.5423728813559322,0.38947241158738893,0.4095238095238097,0.054242178446353706,0.28888888888888886,0.5111111111111111,0.41299866977336364,0.5674681753889674,0.01606773430253673,0.5247524752475247,0.594059405940594,0.5676891101823228,0.41510204081632673,0.022967918839821303,0.3571428571428571,0.45714285714285713,0.4157188442137334,0.508695652173913,0.044800855419070286,0.41304347826086957,0.6086956521739131,0.510608496792826,0.4056057866184449,0.015455257162722091,0.37974683544303794,0.43670886075949367,0.4058917274333039,0.27649116890707137,0.042189548450175904,0.2362326632357412,0.3663269569222365,0.2796005517505574,0.7007117102551829,0.030728414849188746,0.6456132245765853,0.7416044782962188,0.7013659231894148,0.5280887402749155,-0.5478971535058413,1.0,-0.263544168886814,0.3166802859213209,-0.5173999163356569
27,0.5981716118684851,0.10257530098308147,0.4418604651162794,0.7209302325581395,0.6068429831689933,0.49227204579528466,0.12138472569035123,0.34782608695652173,0.6837944664031619,0.5069165643120249,0.31830018600658194,0.12076134144175259,0.21576763485477174,0.5435684647302905,0.3402906632644127,0.5158793643930387,0.08567392781758135,0.3605015673981191,0.664576802507837,0.5228966625190059,0.4049553001277139,0.11871179676039564,0.09876543209876565,0.8197530864197533,0.4218816139637306,0.6030900828655438,0.10121590781484292,0.365891472868217,0.773643410852713,0.6114668063092233,0.3841915503374318,0.1161997826282612,0.2372654155495979,0.6126005361930295,0.4012635255116848,0.47540377761402786,0.06921344290576774,0.291321412996075,0.6899531181857828,0.48038132198581734,0.6023283949347045,0.07477913475576824,0.375742787063494,0.7578071661567249,0.6069207933337377,0.5518603750756205,0.1458211216685682,0.108187134502924,0.956140350877193,0.5706724333713779,0.5152709359605914,0.10267980427607236,0.18487394957983194,0.8739495798319328,0.525332816723186,0.373703392206336,0.10225376934549996,0.08943089430894308,0.902439024390244,0.3873473241115782,0.3772063120981882,0.11341340567629178,0.03389830508474578,0.9152542372881356,0.39377467526944265,0.40490421455938685,0.06088448244380676,0.24444444444444444,0.6666666666666667,0.40942493598154334,0.5664731990440423,0.01949662134795529,0.5148514851485149,0.6435643564356435,0.5668063002243763,0.418029556650246,0.03934053497051561,0.3142857142857143,0.6714285714285714,0.4198639235344163,0.5055472263868063,0.052114707648235455,0.32608695652173914,0.6739130434782609,0.5082078415579362,0.40379746835443014,0.027774884572218377,0.3164556962025316,0.550632911392405,0.40474500535217234,0.6701742490115155,0.03082896376119448,0.5791689759387308,0.7065994975071828,0.6708780771418305,0.44683991702702236,0.1327958547041408,0.2979402965434581,0.6664570386745168,0.4660247113463844,0.15992801106889487,-0.41939196614173935,1.0,-0.29366075895478644,0.4239904975671627,-0.7222024156049397
28,0.9306755260243637,0.023126344631638894,0.8883720930232566,0.958139534883721,0.930955975629958,0.09137963485789571,0.032478977192922254,0.04743083003952564,0.15019762845849804,0.09685042767851236,0.15965224263979463,0.011270329840416394,0.12863070539419086,0.18257261410788383,0.16004010316462558,0.45678459471562904,0.017395838503721228,0.4357366771159874,0.5141065830721003,0.45710783852721787,0.13674309229864795,0.07586895458000528,0.0,0.3185185185185182,0.15594140438534038,0.5858988556662975,0.03282411151179514,0.531782945736434,0.7147286821705425,0.5867957382733733,0.08208859951487295,0.039936493742366276,0.0,0.18498659517426275,0.09107956594608588,0.4586068754802402,0.05532394901962706,0.3500872219799389,0.5613279546445704,0.46185293203226535,0.6216733374513991,0.06843545580920617,0.465825473487243,0.700912837889094,0.6253396199742132,0.6148535226956279,0.09808444879087459,0.464187134502924,0.8421052631578947,0.622443854925895,0.536214485794318,0.050325732948714626,0.4285714285714286,0.6974789915966386,0.5385149508436041,0.3741773132017035,0.05808782349850815,0.22764227642276424,0.5365853658536586,0.37855319173368945,0.3619854721549637,0.056378445688656326,0.2711864406779661,0.4915254237288136,0.3662462722326658,0.4031746031746032,0.05608343862889934,0.3111111111111111,0.5777777777777777,0.4069646463736146,0.5697784064120699,0.01896345612135105,0.5445544554455445,0.6336633663366336,0.5700863819415102,0.41836734693877564,0.025688278424977548,0.34285714285714286,0.4714285714285714,0.41913650881586517,0.5041407867494825,0.04380526425658685,0.41304347826086957,0.6086956521739131,0.5059952034532781,0.40687160940325495,0.014137527856464369,0.37341772151898733,0.430379746835443,0.40711130840355153,0.8124660128965727,0.015783928046180153,0.7664340022593539,0.8265412537466927,0.8126156673195385,0.06619254744536296,0.02718538317958442,0.028713398104907695,0.11706021014044388,0.07143460005493076,-0.5330586209249305,-0.47458999622317416,1.0,-0.08088916230334552,0.8049795517173941,-0.19883406117386232
29,0.13695788812067897,0.08425071093420618,0.0,0.3162790697674418,0.16049836145287857,0.8001816045294309,0.038154469710483335,0.7114624505928855,0.8577075098814231,0.8010784551500914,0.8104743747897275,0.12615092856615373,0.6099585062240664,0.9460580912863071,0.8201022583480533,0.6042107938659662,0.07349928678723516,0.445141065830721,0.7021943573667712,0.60860481974823,0.5402068735402068,0.18543385762520115,0.10617283950617273,0.9999999999999998,0.570740317431703,0.5037712130735387,0.11611154434747373,0.2728682170542635,0.8155038759689921,0.5168028039201821,0.7590029707992171,0.11056290932426376,0.5683646112600536,0.9731903485254692,0.7669057799303491,0.39353872243372895,0.1795172780017768,0.0,0.724024204099433,0.43204593106111244,0.5993210097598547,0.09862981850233958,0.367050598022606,0.7921776620224037,0.6072742844261098,0.5621234392287023,0.2253309685904466,0.11476023391812867,0.9554152046783626,0.6050377431098699,0.5266863502157622,0.09728695918533892,0.17647058823529416,0.8487394957983193,0.5354767612803553,0.3805756976488683,0.08320169671669655,0.2032520325203252,0.6910569105691058,0.38944426607451493,0.38524965643609715,0.10650704665484809,0.15254237288135594,0.728813559322034,0.3995093926793339,0.4135135135135129,0.06750538547695727,0.24444444444444444,0.6666666666666667,0.4189138600661106,0.5702435108375703,0.06577623862370377,0.3564356435643564,0.8217821782178217,0.5739736133484533,0.4239382239382238,0.061210787113785976,0.2857142857142857,0.6285714285714286,0.42827531597897295,0.5167450058754405,0.11855506454306294,0.0,0.717391304347826,0.529991290394992,0.4058330482381116,0.07905027925644652,0.18987341772151897,0.6455696202531646,0.4133581551968613,0.29733758868414506,0.09147313561510295,0.14519831368166258,0.45866677077513174,0.3109081923902819,0.8774526104124584,0.08031553867259286,0.7260748323601978,0.9809950094853948,0.8810712225434291,-0.09631360237441368,0.07441822063266262,1.0,0.28739530981282774,-0.1660641214197387,-0.6098945178396981
30,0.4780361757105946,0.025511896539196877,0.43720930232558164,0.5116279069767438,0.47870134600515546,0.6729029424681596,0.04075657589559637,0.6126482213438733,0.7272727272727273,0.6741087116789946,0.27597971415398764,0.060961469499413494,0.19502074688796678,0.37344398340248963,0.28248631635290433,0.45788923719958197,0.07250003808326205,0.329153605015674,0.567398119122257,0.4634673703584981,0.4737997256515776,0.11060518590426213,0.28395061728395077,0.7407407407407407,0.48625901684391026,0.6312144702842377,0.079885386976016,0.4372093023255813,0.7534883720930231,0.6361380098275499,0.515787905868335,0.06109858618920912,0.4008042895442359,0.6742627345844504,0.5193142061328359,0.4971041091243882,0.0575820103468285,0.3560564762320104,0.5996511120802442,0.5003543756881259,0.5863485922516949,0.055995506511054526,0.49624497433433634,0.7242205477027335,0.5889571212570835,0.45908018193632233,0.10911765249045309,0.23976608187134507,0.672514619883041,0.47158952812900296,0.5157796451914101,0.06583472793990447,0.3613445378151261,0.6554621848739496,0.5198716553032529,0.37091237579042463,0.08336782746314894,0.23577235772357724,0.6260162601626017,0.3799628092330759,0.37175141242937854,0.0991199424895827,0.1864406779661017,0.6779661016949152,0.3844548706619914,0.4019753086419753,0.04043040666090227,0.3333333333333333,0.4888888888888889,0.40395846531662166,0.565016501650165,0.01324998530816215,0.5346534653465346,0.5841584158415841,0.5651683889491877,0.41428571428571437,0.02258769757263129,0.3571428571428571,0.45714285714285713,0.41488735733253723,0.5038647342995171,0.04954876488453507,0.3695652173913043,0.6304347826086957,0.5062412401580051,0.40661040787623065,0.043894118407224764,0.2341772151898734,0.5822784810126582,0.40892041036124077,0.7488316917657389,0.03532677377028421,0.6875565798293355,0.8151954151531804,0.7496460168825455,0.6008781647450459,0.04988820302533046,0.5284218051872167,0.667813063999334,0.602899738159581,0.24240260768038388,-0.8064203836094364,1.0,-0.20382952441749927,0.30132370244478524,-0.8307661119818976
31,0.5840995132504053,0.01999852059066563,0.5581395348837206,0.6604651162790698,0.5844338125534309,0.5281735453626257,0.051542582020760806,0.39920948616600804,0.5849802371541506,0.530624301656805,0.6561806426710417,0.10758924032563776,0.46473029045643155,0.7925311203319504,0.6647400123831834,0.05919661733615222,0.036820493505005054,0.0,0.16614420062695928,0.06948711539187997,0.35480907263853,0.10400635393048091,0.14074074074074105,0.5209876543209877,0.3693984759911371,0.13441499909861176,0.0957126521984889,0.0,0.3767441860465115,0.16436319330463234,0.5000000000000001,0.03839338041239756,0.41420911528150134,0.5750670241286864,0.5014377043944144,0.42809542946683016,0.15531617008764595,0.20955080680331445,0.8679677278674225,0.4547832525504546,0.6522298166267867,0.08037968626629319,0.51560801072142,0.9312526866766127,0.6570497502573707,0.4188089215286278,0.11235236747771071,0.16228070175438597,0.6849356725146198,0.4332786722461161,0.5243306624975574,0.01741009126149789,0.4789915966386555,0.5630252100840336,0.524612910452439,0.3696350916997543,0.05449057621693283,0.17886178861788618,0.5121951219512195,0.3735375111244823,0.37682301931415063,0.06957289762286864,0.1864406779661017,0.5254237288135594,0.38304491747566505,0.4072351421188632,0.06090073075141733,0.28888888888888886,0.6,0.4116589687075578,0.5687312917338244,0.01470179562175265,0.5247524752475247,0.594059405940594,0.5689168642386268,0.41993355481727584,0.014995799503769352,0.3857142857142857,0.45714285714285713,0.42019499620564277,0.5070778564206269,0.04340597775911228,0.3913043478260869,0.5869565217391304,0.5088891977521913,0.40668236679423014,0.0140232250411525,0.36708860759493667,0.430379746835443,0.4069184500935658,0.9172117202458777,0.03834023489456872,0.8567796842431576,0.9668509882408776,0.9179940783770562,0.5489086694943268,0.02668413831710452,0.45209282316428934,0.5805054326552397,0.5495418196449614,0.1855520598866711,0.6679000109911132,1.0,0.21524036511687594,0.488701748230389,-0.26097724748173373
32,0.2740941049215793,0.04008021199653771,0.19069767441860508,0.3162790697674418,0.27694158781749467,0.7553083923154702,0.022422467781093466,0.7233201581027668,0.8102766798418972,0.7556334047051736,0.5488758081636597,0.04163506454405235,0.48962655601659755,0.6182572614107884,0.5504160407647046,0.6203251439819201,0.04405852971175295,0.5454545454545454,0.670846394984326,0.6218515057305352,0.5271317829457366,0.10167862930744373,0.2962962962962965,0.7259259259259261,0.5366246630574621,0.6102037137191272,0.05670127753972719,0.4248062015503875,0.7379844961240308,0.6127714409617614,0.630432071824927,0.044162877844124204,0.5268096514745308,0.7211796246648794,0.6319411363099975,0.433364245580584,0.08829764143739914,0.23935619276057568,0.6064653292629743,0.4420630379190425,0.613005073151111,0.07117747874705901,0.44607049839431556,0.7092067666321086,0.617028065655455,0.6238784169726642,0.09668620261920209,0.4619883040935673,0.7660818713450293,0.6311537850910813,0.5227672464334573,0.041959069555477714,0.33613445378151263,0.5966386554621849,0.5244093955336359,0.36415201361315935,0.05733918952158372,0.22764227642276424,0.5284552845528456,0.3685349530394189,0.36105636578636185,0.06282572432363387,0.23728813559322035,0.5084745762711864,0.3663563545893508,0.40206718346253234,0.03963797177342611,0.3111111111111111,0.5111111111111111,0.403971100469273,0.5675800138153348,0.015538251353878993,0.5247524752475247,0.6039603960396039,0.5677877195905748,0.42026578073089715,0.029447876591672226,0.3714285714285714,0.5,0.42127228365037034,0.5020222446916076,0.09461773053358087,0.19565217391304346,0.6956521739130435,0.5106570777683074,0.4081542537533118,0.03207580036909774,0.35443037974683544,0.5126582278481012,0.40938346928030417,0.4484161009398811,0.042920192997977835,0.39101697910836997,0.5052414979758098,0.45041791928718095,0.7450480568151849,0.03245252003409347,0.698068220970177,0.8182342820099131,0.7457380778710259,-0.07236489195782478,-0.22541329388136294,1.0,-0.2913376285582292,0.5031965568585253,-0.5416908790269722
33,0.3255813953488373,0.02746043630534466,0.246511627906977,0.353488372093024,0.32670533208991986,0.7280412823891087,0.024905567170214343,0.7035573122529646,0.7944664031620554,0.7284553287173723,0.5409174734900879,0.0356550348973243,0.4979253112033195,0.6556016597510373,0.5420587433710974,0.5670498084291188,0.027119963548603278,0.5141065830721003,0.6112852664576803,0.5676799690999303,0.5151577503429355,0.11838933697278797,0.32839506172839505,0.7160493827160492,0.5282179555246787,0.5567614125753659,0.07376119533710851,0.43255813953488365,0.7178294573643409,0.561491632642701,0.6124143580577898,0.056865677562038405,0.4825737265415549,0.707774798927614,0.6149757930952489,0.42258330001938277,0.12893089181063355,0.2427633013519407,0.7018643698211949,0.4412913611901427,0.5851788870064591,0.0824741107748509,0.3492679596429564,0.7080183073305181,0.5908023060944763,0.5275961663417804,0.15523447533434936,0.16959064327485385,0.7777777777777778,0.5493505941922887,0.5252100840336136,0.06621385593884921,0.3445378151260504,0.6974789915966386,0.5292524177366076,0.3766937669376694,0.07354402135304954,0.24390243902439027,0.6666666666666667,0.3836100556799584,0.37664783427495285,0.08595850050712038,0.23728813559322035,0.6271186440677966,0.3860663267581315,0.40679012345679033,0.04276821396102977,0.3333333333333333,0.5333333333333333,0.40897006708930944,0.5665566556655665,0.009790361039070184,0.5445544554455445,0.594059405940594,0.5666388909312056,0.41626984126984146,0.01779467531908617,0.3714285714285714,0.44285714285714284,0.41663945489373616,0.5078502415458936,0.03824137623756162,0.34782608695652173,0.5652173913043478,0.509248120657499,0.41016174402250355,0.020288139130649398,0.37341772151898733,0.4493670886075949,0.41064928013700314,0.5015416406074722,0.021932741423065175,0.4611801820818462,0.5316206556351508,0.5020076693083383,0.716690677860178,0.03291544061170434,0.6896335800441675,0.8142689052666596,0.7174251590160959,-0.07898047827348867,-0.5040897095447385,1.0,0.20525224488227606,0.14489477252464608,-0.4309861386888793
34,0.16046511627907015,0.040931407077345924,0.11627906976744207,0.25116279069767433,0.16542248524532374,0.921372106154715,0.03578135326489146,0.8339920948616604,0.9644268774703562,0.9220418309676883,0.5905453467694131,0.06875915078416071,0.4356846473029047,0.6597510373443983,0.5943927797880093,0.43193013882669057,0.0618858448402513,0.3510971786833856,0.567398119122257,0.43618427525877385,0.5145502645502646,0.14859001211723669,0.28641975308641965,0.8,0.534838696273797,0.5067552602436323,0.10005014403413219,0.3612403100775192,0.711627906976744,0.516191266864547,0.7861451551129834,0.08896580419003434,0.5294906166219839,0.8873994638069704,0.7909844775414622,0.43997988832471496,0.09090559480181414,0.29386993022241603,0.6064653292629743,0.44894430903174454,0.5694833272525637,0.13045300899598877,0.3196386577995802,0.8198346271525021,0.5837135104697313,0.48094277360066834,0.2635292529450018,0.10598830409356724,0.8823157894736842,0.5461440696459058,0.5510204081632653,0.08938540441289934,0.3697478991596639,0.73109243697479,0.5579676446726445,0.38472706155632974,0.15036871472716218,0.17073170731707318,1.0,0.41208996040134804,0.3716707021791768,0.12649384611503237,0.1864406779661017,0.728813559322034,0.3918779792718113,0.39920634920634923,0.09629290456650652,0.24444444444444444,0.7111111111111111,0.41025221304324283,0.565063649222065,0.012903283529848224,0.5346534653465346,0.5841584158415841,0.5652056936707198,0.4168367346938777,0.018258897096572996,0.3857142857142857,0.45714285714285713,0.41722217585277466,0.5085403726708073,0.04321145419512046,0.43478260869565216,0.5869565217391304,0.510307606872747,0.40845388788426756,0.015357156584298941,0.38607594936708856,0.4493670886075949,0.4087321835240408,0.582074391564872,0.017014781506771076,0.5466151707722826,0.6068168761952952,0.582314142641231,0.9195721252647111,0.055328072576403965,0.7899932647519154,0.9837315468987633,0.9211757491185141,-0.4533790132897589,-0.3460722866806549,1.0,0.5901391684633241,-0.17992890627451555,-0.6666726176263155
35,0.5513513513513513,0.005546249658718869,0.5441860465116282,0.5627906976744188,0.5513784926409085,0.6145710928319621,0.005481721017440987,0.6047430830039529,0.6245059288537547,0.6145948789793807,0.01805539979813839,0.008136743620241409,0.0,0.03319502074688796,0.01975891421947709,0.5102939930526137,0.01055679151267079,0.48589341692789967,0.5203761755485893,0.5104002283920952,0.42762762762762757,0.10357925421525128,0.19999999999999996,0.5753086419753088,0.4396636054746664,0.8028493609888956,0.03926205622590501,0.7333333333333332,0.8852713178294572,0.8037828954962664,0.4349322512861387,0.04087018131631534,0.3404825737265415,0.5254691689008043,0.4367966228669967,0.4840687285628411,0.05285995776302218,0.3773440907108591,0.6243594635848233,0.4868687614339926,0.6216235010138467,0.06795620887791455,0.482419652565302,0.7293600020229094,0.6252271677358008,0.5702737474316422,0.058044723998607876,0.4444444444444444,0.685672514619883,0.5731407137911634,0.51374063138769,0.12032046779883443,0.31932773109243695,0.9831932773109244,0.5272714487197767,0.3548670621841354,0.13284961134823303,0.08130081300813008,0.6260162601626017,0.3782891097278647,0.358680714612918,0.14384681809178224,0.03389830508474578,0.6610169491525424,0.3857259666895703,0.4156156156156157,0.09853033413758314,0.15555555555555556,0.6888888888888889,0.4268280475580092,0.5718490767995718,0.024742066613013373,0.48514851485148514,0.6435643564356435,0.5723696282695706,0.43359073359073375,0.06443687837697011,0.3,0.6285714285714286,0.4382246185765133,0.5111633372502938,0.07831815228178693,0.3695652173913043,0.6739130434782609,0.5169680007106332,0.4072870338693123,0.05623888964549872,0.24683544303797467,0.620253164556962,0.4110475145795987,0.8323801890798195,0.008375990263843216,0.8190947650692015,0.8544986207695011,0.8324211916118949,0.5040795765785807,0.0054060797923037845,0.49411659173205247,0.5139379999589957,0.5041077814700075,-0.05088836103699933,-0.19846695081575694,1.0,0.4105256822534646,-0.5022169033533548,-0.6286627513339356
36,0.30671096345514964,0.1035921050201023,0.18139534883720998,0.5209302325581397,0.3232589210873881,0.7408243929983063,0.08079503248952906,0.5731225296442688,0.8379446640316208,0.7450920137136519,0.6812092471843513,0.06066248895473773,0.5560165975103734,0.7551867219917013,0.6838280741109817,0.4536497984773845,0.03801172968298572,0.4012539184952978,0.5266457680250782,0.45519418783098187,0.4998941798941799,0.10523192346074874,0.32098765432098797,0.8296296296296297,0.5105404545476735,0.43805094130675515,0.05290641181633301,0.32403100775193794,0.5736434108527131,0.44114367459639003,0.6683646112600535,0.0990331849877543,0.4745308310991957,0.868632707774799,0.675454372240281,0.5597213569248022,0.17307202709022415,0.14225359790667252,0.8074847361535107,0.5851376739586045,0.7043185504408862,0.10912682494353701,0.4638531367739651,0.8597365160442005,0.7124837099027402,0.4837099415204677,0.12434804202412543,0.13011695906432752,0.6323040935672515,0.4989949490806108,0.5176470588235293,0.07599188544881928,0.35294117647058826,0.6890756302521008,0.5230375233477457,0.3707317073170732,0.10172066372125514,0.07317073170731708,0.6585365853658537,0.3840487742427096,0.3685230024213076,0.08665280572841406,0.22033898305084748,0.6610169491525424,0.3782900706055809,0.40825396825396837,0.04479784797641255,0.35555555555555557,0.4888888888888889,0.410634644529024,0.5697312588401696,0.01669630319670761,0.5346534653465346,0.6039603960396039,0.5699688667653195,0.4220408163265307,0.07819565275485708,0.15714285714285714,0.6857142857142857,0.42902017322953573,0.5024844720496895,0.06052409924887254,0.32608695652173914,0.6086956521739131,0.5060129932505432,0.4037974683544304,0.01413566936718902,0.38607594936708856,0.430379746835443,0.40403775013793103,0.5185798048422033,0.06601063552994031,0.4449734266013614,0.653933863830841,0.5226451193075602,0.7716699510456837,0.0918736406936513,0.574386177429492,0.8798994847978321,0.7769646803185198,-0.13699473883113997,-0.46243143904352557,1.0,0.1982142364022721,0.2829182547271663,0.4372486058865965
37,0.2704114490161003,0.03287714280645996,0.20930232558139528,0.32558139534883734,0.27237222499190344,0.7953177257525088,0.02176709829230227,0.7470355731225296,0.8458498023715417,0.795610961546152,0.6374720714969684,0.0783094344837635,0.49377593360995853,0.7468879668049794,0.6421905210698524,0.4533879913190258,0.03677365031794068,0.3699059561128527,0.5203761755485893,0.45485400668097314,0.544615384615385,0.16601780944420932,0.1753086419753085,0.9037037037037037,0.5689848862499232,0.470793082886106,0.11171376332037242,0.20930232558139522,0.7441860465116278,0.4836673364497238,0.6983089296762218,0.06459439619295557,0.5402144772117963,0.8927613941018766,0.7012443268659687,0.44793728404173244,0.1593422627207697,0.17035542956825117,0.7665994330571303,0.4750233177491043,0.5906526022590449,0.08304572118461034,0.41960199256580777,0.8004779123574481,0.596373194359067,0.5119091318038687,0.17621885608219218,0.16301754385964917,0.8866900584795321,0.5409494474442141,0.5243697478991598,0.03451393600893961,0.4369747899159664,0.6386554621848739,0.5254869341435604,0.3847404627892432,0.054312573137418343,0.2764227642276423,0.6260162601626017,0.38849671416143283,0.3880052151238593,0.07610168765589441,0.1864406779661017,0.576271186440678,0.3952852316203718,0.40410256410256384,0.10385266062411908,0.1333333333333333,0.7777777777777778,0.417035164686379,0.5687738004569689,0.023679127147977895,0.48514851485148514,0.6336633663366336,0.5692589138332061,0.41780219780219763,0.017318808570403254,0.3714285714285714,0.45714285714285713,0.4181554772327124,0.511036789297659,0.02904510664731903,0.41304347826086957,0.5652173913043478,0.5118488443808048,0.4064264849074976,0.009123335101037962,0.38607594936708856,0.430379746835443,0.406527295929098,0.5416975801467431,0.05302298273131388,0.4455415833468255,0.6373750351609102,0.5442466831890569,0.8098786554678551,0.035889402843266915,0.7360536121966503,0.8911143100498067,0.8106612545797214,-0.3375893176260215,-0.1380641544952711,1.0,0.48029084923220633,0.33801862068256533,-0.1363359294519
