,Orientation X,Orientation X,Orientation X,Orientation X,Orientation X,Orientation Y,Orientation Y,Orientation Y,Orientation Y,Orientation Y,Orientation Z,Orientation Z,Orientation Z,Orientation Z,Orientation Z,Orientation W,Orientation W,Orientation W,Orientation W,Orientation W,Accelerometer X,Accelerometer X,Accelerometer X,Accelerometer X,Accelerometer X,Accelerometer Y,Accelerometer Y,Accelerometer Y,Accelerometer Y,Accelerometer Y,Accelerometer Z,Accelerometer Z,Accelerometer Z,Accelerometer Z,Accelerometer Z,Gyroscope X,Gyroscope X,Gyroscope X,Gyroscope X,Gyroscope X,Gyroscope Y,Gyroscope Y,Gyroscope Y,Gyroscope Y,Gyroscope Y,Gyroscope Z,Gyroscope Z,Gyroscope Z,Gyroscope Z,Gyroscope Z,EMG1,EMG1,EMG1,EMG1,EMG1,EMG2,EMG2,EMG2,EMG2,EMG2,EMG3,EMG3,EMG3,EMG3,EMG3,EMG4,EMG4,EMG4,EMG4,EMG4,EMG5,EMG5,EMG5,EMG5,EMG5,EMG6,EMG6,EMG6,EMG6,EMG6,EMG7,EMG7,EMG7,EMG7,EMG7,EMG8,EMG8,EMG8,EMG8,EMG8,Roll,Roll,Roll,Roll,Roll,Yaw,Yaw,Yaw,Yaw,Yaw,Accelerometer X vs Roll,Accelerometer Y vs Roll,Accelerometer Z vs Roll,Accelerometer X vs Accelerometer Y,Accelerometer X vs Accelerometer Z,Accelerometer X vs Accelerometer Z
,mean,std,amin,amax,RMS,mean,std,amin,amax,RMS,mean,std,amin,amax,RMS,mean,std,amin,amax,RMS,mean,std,amin,amax,RMS,mean,std,amin,amax,RMS,mean,std,amin,amax,RMS,mean,std,amin,amax,RMS,mean,std,amin,amax,RMS,mean,std,amin,amax,RMS,mean,std,amin,amax,RMS,mean,std,amin,amax,RMS,mean,std,amin,amax,RMS,mean,std,amin,amax,RMS,mean,std,amin,amax,RMS,mean,std,amin,amax,RMS,mean,std,amin,amax,RMS,mean,std,amin,amax,RMS,mean,std,amin,amax,RMS,mean,std,amin,amax,RMS,corr, corr, corr, corr, corr, corr
0,0.7566128712380407,0.30412490970258155,0.0,1.0,0.8153310278336839,0.2361853641080694,0.2806060277245419,0.0,0.6939130434782608,0.3665532063459956,0.3242522332630727,0.2535551735674019,0.10243902439024388,1.0,0.411457716421943,0.6580654728802882,0.1458341671867076,0.20570570570570576,1.0,0.6739985240439954,0.7320516844528142,0.104490229505515,0.0,1.0,0.7394561591626855,0.5723783498536192,0.09062768192172332,0.0,1.0,0.579494134706761,0.5467461812094576,0.10390542656716709,0.0,1.0,0.5565119133052469,0.6624570587970012,0.0895088540940032,0.0,1.0,0.6684644376884045,0.6162276818788529,0.07250713525258468,0.0,1.0,0.6204700017874908,0.6176471034859893,0.12171352872527107,0.0,1.0,0.62950110854645,0.45342394050971074,0.07757508374415961,0.0,0.9999999999999999,0.45999867494169006,0.5557753006512449,0.07715002437583479,0.0,1.0,0.5610936320274863,0.5300536226462136,0.05690789881354852,0.0,0.9191919191919192,0.5330935079599942,0.4296959151545294,0.07801567058767211,0.01342281879194629,1.0,0.43670642405240945,0.4881810699588472,0.06929036567182555,0.0,1.0,0.4930639237683183,0.49234567901234527,0.06077941421324158,0.0,1.0,0.49607540125357813,0.5881753312945978,0.0691378925965165,0.0,1.0,0.5922165423610598,0.4412280701754386,0.07369796786538432,0.0,1.0,0.447328095113283,0.9207187748900205,0.04910004779590449,0.7791788770088911,0.993293876787719,0.9220243579236265,0.22593410176241052,0.27261153307536634,0.0,1.0,0.353850746174618,-0.7766981515406021,0.43714421542661996,1.0,-0.6315659163546845,0.7720938024284507,-0.7235506120203631
1,0.6572199244740121,0.1712951198633291,0.343373493975903,0.8192771084337349,0.6791115218437431,0.49859052563270617,0.09139377544543663,0.4121739130434782,0.6869565217391302,0.5068731603106303,0.4375718966144887,0.09482456079629448,0.34024390243902436,0.6268292682926829,0.44769858292098486,0.701967639281073,0.07977196339343123,0.6141141141141142,0.8693693693693695,0.7064723186520852,0.8263141917530988,0.02664250567599082,0.7960451977401131,0.9192090395480227,0.8267423103520963,0.536789236501944,0.015395650503196894,0.48325619384699164,0.5807242036482441,0.5370093136420411,0.5888011406756668,0.04542894071415853,0.5423728813559322,0.687211093990755,0.5905458588054181,0.658610017535479,0.0296651905615805,0.5583522847619365,0.7248740287392841,0.6592757782546128,0.6079408810441482,0.026612777118810098,0.50911586401047,0.6836698745283455,0.6085213559126234,0.6171884120215115,0.03147371453097072,0.5435288485831682,0.721793013576586,0.6179880044474071,0.4561534433097676,0.05632391260950629,0.2631578947368421,0.8421052631578947,0.459607307573114,0.5558904506593246,0.04308577551781308,0.33009708737864074,0.7864077669902912,0.5575527201451597,0.529488919041157,0.04180794441535677,0.24747474747474746,0.8181818181818182,0.5311320005225488,0.4284283281578687,0.05193180959034005,0.08053691275167785,0.5771812080536912,0.43155497300965284,0.4878686567164171,0.030631390737111314,0.33599999999999997,0.724,0.4888264594543618,0.4920255863539444,0.03653492522164845,0.13142857142857145,0.7142857142857143,0.49337611809654003,0.5907161440503901,0.05263435324971804,0.38532110091743116,0.8165137614678899,0.5930494652280145,0.44402199528672404,0.04545234372092333,0.12105263157894736,0.7052631578947368,0.44633539063807154,0.9080060332177727,0.03094887427849913,0.8471363891196195,0.9398721448737319,0.9085317440665103,0.40692972700743246,0.10182370842703206,0.30725410752984383,0.5962876422868962,0.4194388165926715,-0.8685650731012701,0.5166978634658913,1.0,-0.3772231538372179,0.9269148607698299,-0.4352223831604105
2,0.5307802639127911,0.17628068923224996,0.09036144578313277,0.6927710843373491,0.5592214070854967,0.5456770186335409,0.1398549069847909,0.3895652173913043,0.8226086956521736,0.5632727879850048,0.49603658536585366,0.06587814421046795,0.4390243902439024,0.6426829268292682,0.5003817450103863,0.7942049192049208,0.02649821057631682,0.6756756756756758,0.8603603603603605,0.7946457934545617,0.8412752219531883,0.027730777639659244,0.8050847457627119,0.9237288135593222,0.8417310521526228,0.5345759921175117,0.017158327352095794,0.4699156003267085,0.5829022597331882,0.5348506320217301,0.6178509061559905,0.059688409732319564,0.5587057010785824,0.7661016949152541,0.6207205215394513,0.6569442121965446,0.025889086150501672,0.535011370857162,0.7260933302119216,0.6574529237134311,0.6079826141320956,0.03041968965499152,0.5058288286708549,0.7159504107200074,0.6087413353579795,0.6199636713454311,0.039102960031572875,0.4766232730077258,0.7652188077603287,0.6211926872528175,0.45321637426900657,0.05810164863914311,0.12719298245614036,0.8157894736842105,0.4569166727723268,0.5559408229311146,0.046411913570214645,0.36893203883495146,0.7669902912621359,0.5578701780832752,0.5309163059163043,0.02929048430633837,0.3939393939393939,0.6818181818181819,0.5317217445829695,0.43171939916906427,0.05202801691622789,0.20134228187919462,0.7651006711409396,0.4348357266008664,0.488933333333333,0.04021666064155891,0.272,0.768,0.4905806083951269,0.49258503401360554,0.03137030537233085,0.20571428571428574,0.6857142857142857,0.4935805594910353,0.5884010484927921,0.04719312004726791,0.33027522935779813,0.7431192660550459,0.5902861014901993,0.44328320802004983,0.047295762712382707,0.22631578947368422,0.7105263157894737,0.4457931872028739,0.8805896069153037,0.013525556381850209,0.8453406754431712,0.8998523428291796,0.8806932274689366,0.4676805659939324,0.12376576019681125,0.336700432292674,0.7403094238735956,0.48374229075415515,-0.7072963135816459,0.044607944496823426,1.0,0.16472630279992992,0.9097768746721946,0.09762797697762166
3,0.6651879256155067,0.14119662004236483,0.35542168674698793,0.8253012048192767,0.6799685924097371,0.5424574669187144,0.0954141729950447,0.386086956521739,0.7391304347826086,0.550762407088771,0.4107933457051962,0.08544681811866972,0.33048780487804874,0.6402439024390243,0.4195622617646142,0.6542099164381767,0.06494146657065733,0.5750750750750752,0.840840840840841,0.6574165715407504,0.83276452345861,0.025144347263055318,0.7892655367231639,0.8926553672316385,0.8331430079475827,0.5405944080777466,0.018538911484703244,0.47862782466648524,0.5793629185951539,0.540911334083862,0.5958531520064313,0.04282509671541098,0.5331278890600925,0.7026194144838213,0.5973859589906435,0.6539497877718695,0.02548787565690032,0.5708936713376364,0.7069328784990468,0.6544449491199054,0.603478031111159,0.02470077116582296,0.5241609850266135,0.6649391930344182,0.6039819568275242,0.6274631880434918,0.032514569204681563,0.5495525444463651,0.7413268087709267,0.6283027747366411,0.4554252479023653,0.06019230183477375,0.2324561403508772,0.7192982456140351,0.4593750365559647,0.5557724778387511,0.04190771157095245,0.39805825242718446,0.7184466019417475,0.557345970629169,0.530851998243301,0.03741345024981589,0.36363636363636365,0.6868686868686869,0.5321652061022409,0.42987671432740077,0.05307282734404402,0.24161073825503354,0.7114093959731543,0.43313168941926233,0.4883478260869564,0.02833602757050615,0.384,0.58,0.48916699380281886,0.4930590062111797,0.022812413924690605,0.36571428571428577,0.5942857142857143,0.49358502376760405,0.5914688871160753,0.04564770817678102,0.38532110091743116,0.7522935779816513,0.5932229727714714,0.4430635011441646,0.046399089425502596,0.10526315789473684,0.6157894736842106,0.4454798439216746,0.9204660027238522,0.02532596103685169,0.8455385778515816,0.9414545271605175,0.9208134032074001,0.4235494431313332,0.09305155487714208,0.2891668279774705,0.5867731719652052,0.43362333177502566,-0.552774293666233,0.5613982152241697,1.0,-0.4835520215532534,0.8949227821832383,-0.6106855150250033
4,0.7112601843404953,0.10772744794616261,0.45783132530120474,0.8554216867469875,0.7193510631658511,0.5319650357588839,0.07002140855425244,0.41043478260869565,0.6852173913043478,0.536541699558769,0.3747564159714711,0.10015954282625844,0.25853658536585367,0.6841463414634146,0.38787641368318904,0.6044229608198283,0.05484977058033812,0.5555555555555557,0.7642642642642643,0.6069001217782894,0.82763051142482,0.01932175574765459,0.782768361581921,0.8940677966101696,0.8278554335956756,0.5464105792107957,0.026537312786946113,0.44786278246664857,0.6041383065613941,0.5470529328369356,0.5856939979965158,0.03312071403476462,0.5272727272727272,0.6671802773497688,0.5866272895163812,0.6578249600240118,0.03792445434880582,0.5042668584105325,0.7509141277326288,0.6589144003655878,0.6080364710561137,0.020625036299277987,0.5023409366616027,0.6588624817276224,0.6083852657422978,0.6206839232602409,0.022930308470872778,0.4901300480034041,0.6916678855896706,0.6211062379310249,0.45248728871787885,0.034688839028509874,0.3157894736842105,0.6271929824561403,0.45381154699757953,0.5553752946842765,0.038917828516647976,0.27184466019417475,0.7572815533980581,0.5567336533386106,0.5309623651660185,0.035678298558386105,0.303030303030303,0.7777777777777778,0.5321566034589844,0.43010846899258787,0.052758773716146894,0.25503355704697983,0.6577181208053691,0.4333238000732908,0.48835509138381156,0.02941024626327527,0.356,0.64,0.48923756956902564,0.4928907124207387,0.0143972438684023,0.4285714285714286,0.56,0.493100389189602,0.5904376362373346,0.03188455572292326,0.4403669724770642,0.7247706422018348,0.5912956729133814,0.44320461728734317,0.029097022678974484,0.31052631578947365,0.5684210526315789,0.4441562326184786,0.9350044763556761,0.02522966445064969,0.8543739011782097,0.9559256071535448,0.9353439179251859,0.4042906422345671,0.06776736886265863,0.28784086099367795,0.5416588760026867,0.4099162707651047,-0.39102806871413276,0.8586771764875487,1.0,-0.20666365508889087,0.6559818996073874,-0.689649140397772
5,0.5571476918911594,0.16456083945746214,0.32530120481927716,0.8042168674698793,0.5808898053189857,0.6135222276502186,0.09108183686718675,0.45217391304347815,0.737391304347826,0.6202312329718778,0.4336667580158942,0.10229836117765885,0.2926829268292683,0.6182926829268293,0.4455426971183762,0.7162162162162165,0.0782169968626819,0.6186186186186187,0.8513513513513514,0.7204650018443318,0.850377705833809,0.0235260788519186,0.7892655367231639,0.9042372881355933,0.8507023423020298,0.5519255300599273,0.020471090041468073,0.4930574462292405,0.5864416008712225,0.5523041866029362,0.6233728640432131,0.045273608242923265,0.5488443759630199,0.7007704160246533,0.6250110568319948,0.6586254771833189,0.02938392468625027,0.5495551988227818,0.735237394513004,0.6592791472255344,0.6076933155441262,0.024208423467260244,0.5126037560197222,0.6862602879264418,0.6081742320770503,0.6195489900220628,0.02803071707598353,0.5291909897211547,0.735090355437948,0.6201813496645634,0.45349891582889895,0.06372634269132942,0.14473684210526316,0.7017543859649122,0.4579445244383208,0.5561906839751283,0.05300736909296904,0.2815533980582524,0.7572815533980581,0.5587052389264592,0.5302122347066144,0.04481548939220862,0.28787878787878785,0.797979797979798,0.5320986079670735,0.4286705376668426,0.054365083583085345,0.18120805369127513,0.7181208053691275,0.43209645967481886,0.4876494382022469,0.037215506805036866,0.308,0.744,0.48906426589945695,0.4921733547351521,0.024653421083692523,0.3485714285714286,0.6057142857142858,0.49278903849368133,0.5910524688176473,0.047365394528872264,0.2844036697247706,0.7798165137614679,0.5929430495122417,0.4435363690124186,0.04767176648219686,0.2210526315789474,0.6631578947368422,0.44608519477335834,0.9037373390644992,0.03037705565542715,0.8520128130771819,0.9430961135581417,0.9042465758294658,0.4864429032302802,0.09340457232179936,0.3254271441161664,0.619439015395959,0.4953095060754534,-0.7298203289058034,0.6510002800615149,1.0,-0.2810759783245582,0.8753133255328118,-0.4431960260992892
6,0.5841499639109431,0.1814230318893009,0.12650602409638578,0.8343373493975901,0.6116123424180729,0.5771749148467248,0.1260664855871338,0.3878260869565217,0.869565217391304,0.5907512351715684,0.4415196133528162,0.08236351707529088,0.3365853658536585,0.673170731707317,0.4491187895894511,0.7207553175295106,0.039891695157288694,0.6246246246246248,0.8288288288288289,0.7218558778528039,0.8417324064672342,0.025129453113269296,0.7878531073446329,0.9262711864406781,0.8421065719172138,0.5453420840333186,0.019178411447102934,0.4739994554859789,0.6166621290498231,0.5456784333209266,0.6138639381394987,0.05573460284711742,0.5405238828967642,0.7799691833590138,0.6163830976134095,0.6574213080328418,0.02887123329458277,0.5381467175010869,0.7443828523014837,0.6580534961154707,0.6099218500652047,0.02983890116934701,0.48918960710203674,0.6997097142893579,0.61064963087614,0.6197001054166688,0.03639187148452658,0.5121537704612849,0.7654282408946451,0.6207652836811123,0.45265381194922905,0.05426029415954184,0.22368421052631576,0.8289473684210527,0.4558869039253739,0.5544718357120495,0.04040819687526663,0.4174757281553398,0.7572815533980581,0.555938914548229,0.5305474095796651,0.02806443499436788,0.3484848484848485,0.6767676767676768,0.5312874471958445,0.4310611449602579,0.040728774481419636,0.2885906040268456,0.6375838926174496,0.43297658316494486,0.4897603686635946,0.027953734390533145,0.388,0.688,0.4905556334332408,0.49303489137590517,0.017910251754383846,0.4,0.6171428571428572,0.4933593437993973,0.5912780619794538,0.04052198324309132,0.4311926605504587,0.7339449541284404,0.5926617873815342,0.44366965801600733,0.044951121458657595,0.21578947368421053,0.7052631578947368,0.4459357722771446,0.9026286508717772,0.021401149645630793,0.8436423582031738,0.9390063290351076,0.9028817393546109,0.46259951029776486,0.1152419920257237,0.28898354367335655,0.7400631131839449,0.4767058033252845,-0.7112685794156878,0.4229619368053848,1.0,0.017565960306410604,0.886875551137182,-0.05308701441877155
7,0.6376957461294804,0.1512590984752531,0.3524096385542168,0.831325301204819,0.6553464465230029,0.5768614464266635,0.11813204721676873,0.4208695652173912,0.808695652173913,0.5888038901367042,0.41740276862228054,0.08580921644855066,0.33780487804878045,0.7,0.426110550711232,0.6357032708384072,0.061245119485958927,0.5465465465465467,0.8228228228228229,0.6386394891377369,0.8383306264662197,0.024901609278358845,0.8019774011299436,0.9107344632768363,0.8386994729060506,0.53836649807246,0.021282949457991016,0.4609311189763137,0.6104002178056086,0.5387859846459707,0.6088315798639375,0.048106620069920704,0.5513097072419106,0.7143297380585516,0.6107245315392725,0.6547548077095579,0.03238542952764405,0.5450263647815569,0.7596234239657537,0.6555532757304089,0.6062100689806473,0.02544258093131362,0.5268502326589757,0.6998101426241764,0.6067424347934122,0.6272629862347029,0.03865494385023746,0.5389545629828597,0.8312899751339707,0.6284499879223182,0.45310142678563814,0.05903385963723576,0.13596491228070173,0.7149122807017543,0.45692158724849113,0.5568569452064599,0.036807209912620854,0.4368932038834951,0.7669902912621359,0.5580690812536379,0.5325987144168941,0.024567650968150993,0.41414141414141414,0.6919191919191919,0.5331636494557198,0.43160793496364,0.03921177903873295,0.24832214765100669,0.7181208053691275,0.4333811201948915,0.4888746928746923,0.0230497752965875,0.396,0.66,0.48941644035366466,0.49241137241137267,0.021172926271857097,0.21714285714285714,0.5657142857142857,0.49286524632036677,0.5892072222347453,0.052739084692992974,0.33944954128440363,0.7798165137614679,0.5915570368561636,0.441587999482736,0.05445760829377846,0.16842105263157897,0.7052631578947368,0.4449250564143826,0.9225622843063834,0.02516294669308499,0.8365841983692666,0.9532786776767701,0.9229045381842585,0.4499222500846944,0.10191800031401015,0.31051132271755066,0.6323452870455872,0.461293603185408,-0.4304261461103574,0.618338338441181,1.0,-0.0499897721529013,0.8794484149176182,-0.2932490978041278
8,0.6976202683072744,0.11434476152488564,0.4457831325301207,0.8524096385542168,0.7069072454906207,0.5669359646417911,0.07928080223243521,0.42782608695652175,0.7217391304347824,0.572439494093023,0.3807905206711645,0.0806651362157559,0.29878048780487804,0.6231707317073171,0.3892208912379162,0.5536529437238649,0.06126722304379579,0.48798798798798804,0.7972972972972974,0.5570245782576005,0.8332064484246238,0.018931661673303072,0.7855932203389832,0.8847457627118644,0.8334209897826494,0.5379199950568946,0.016575804526879144,0.48080588075142944,0.5692894092022871,0.5381747196155613,0.5963588280934116,0.034942430043606046,0.5414483821263482,0.6764252696456086,0.5973792252835047,0.6591128482068046,0.03157396994544741,0.5393660189737244,0.7526559869792537,0.6598668846631014,0.6073035341069811,0.024304865488856152,0.49317485848372344,0.6989126640130205,0.6077885425941696,0.6221348118468559,0.0263217224590527,0.5402045131178278,0.721793013576586,0.6226900667922113,0.4536518601468223,0.057816951416732904,0.20175438596491224,0.7675438596491228,0.4573127020820953,0.556198214326701,0.04122541269880425,0.3786407766990291,0.7087378640776698,0.5577203335543536,0.5311626907371567,0.03307979368942435,0.3787878787878788,0.7777777777777778,0.5321893364663157,0.4306567026829776,0.044586831559147236,0.17449664429530198,0.6510067114093959,0.4329532092326247,0.48836879432624103,0.03323984604553073,0.352,0.712,0.4894960210358503,0.49309017223910834,0.02099605763049514,0.4,0.68,0.4935359259800955,0.5896501615806714,0.04993070330589886,0.2844036697247706,0.7889908256880733,0.5917554346096823,0.44221724524076067,0.04732600336766694,0.23157894736842105,0.7,0.4447364923911908,0.9438394227623006,0.02428168859438657,0.8586448450372065,0.969470189864255,0.9441509744245848,0.4256371478752916,0.0763361284587694,0.30259311125012983,0.5715898556284463,0.4324123151140639,-0.5807819935768539,0.7673680464149569,1.0,-0.593317518785484,0.8693431482788493,-0.7009408863871424
9,0.6908684738955867,0.13707393211463723,0.3734939759036142,0.8373493975903612,0.704313279478721,0.5677478260869573,0.0841726936409621,0.4486956521739129,0.76,0.573943227137767,0.3617784552845522,0.08377042096107092,0.275609756097561,0.6000000000000001,0.37133467159741285,0.5956481481481475,0.07304173395070247,0.5360360360360361,0.7777777777777779,0.6001024241460884,0.8342344632768361,0.02064903994695589,0.7974576271186442,0.8918079096045198,0.8344895517209523,0.5529812142662672,0.014884920403463448,0.48597876395317186,0.5793629185951539,0.5531811772997357,0.5941237801746279,0.03908830040676523,0.5494607087827427,0.6973805855161787,0.59540609243241,0.6588828318636675,0.024679918286849796,0.5591368181666165,0.7523076151299287,0.6593441205678475,0.6071480584652318,0.021853953444551415,0.5006480018746622,0.6933333120786593,0.6075405864525614,0.6189809859092498,0.024032666580973194,0.48784622953871526,0.7539991755648046,0.6194465815266677,0.45325292397660993,0.04504767072264677,0.18859649122807015,0.7105263157894737,0.45548229776412363,0.55443365695793,0.03932054009306535,0.3203883495145631,0.7572815533980581,0.5558239001693763,0.529377104377101,0.03828585914960139,0.24242424242424243,0.792929292929293,0.5307574612172934,0.43038031319910575,0.046916897774332625,0.18120805369127513,0.7718120805369127,0.43292579113203583,0.48836666666666684,0.027613337046802643,0.352,0.748,0.4891454044214937,0.4933428571428568,0.016581417583643617,0.38857142857142857,0.6057142857142858,0.4936209678122954,0.5911314984709478,0.046271606183469045,0.4128440366972477,0.7798165137614679,0.592936709596739,0.4436403508771925,0.039480834857900764,0.20526315789473684,0.7,0.44539072661388796,0.9381748870466932,0.026610456056612487,0.8685343774946788,0.9611807681650952,0.9385515728305319,0.42328925256192007,0.08352550625347081,0.31520761625273075,0.6181132594904843,0.4314379144353642,-0.7934091024523974,0.7062502735289432,1.0,-0.4171845947420072,0.9216985904904613,-0.5066189035703802
10,0.6200803212851393,0.2166699524337793,0.0873493975903612,0.858433734939759,0.6567568480104126,0.574402576489532,0.13198969623607087,0.4139130434782607,0.9078260869565216,0.5893357144144131,0.4234447455585673,0.1156130738465442,0.2682926829268293,0.698780487804878,0.43890640456818986,0.6436658881103333,0.05436411471164404,0.5450450450450451,0.7567567567567568,0.6459519603350009,0.8363555834553945,0.026300895053537218,0.7776836158192091,0.9161016949152543,0.836768003131597,0.540826115161354,0.026417683783725696,0.45548597876395325,0.5861693438606045,0.5414693506209907,0.6112629116018947,0.06513993881548659,0.5251155624036979,0.7842835130970723,0.614715447718016,0.6579576181646339,0.03435551675079611,0.5286528878632821,0.733147163417054,0.6588517393976622,0.6103459526859546,0.036115914516769335,0.45989800944663983,0.7371710772772124,0.6114109261383103,0.6198468819292886,0.030069657410572694,0.4853529779397099,0.7292727683736021,0.620574015553691,0.4546025557721478,0.07245233223061198,0.10087719298245612,0.8421052631578947,0.4603258224625126,0.55560349994007,0.047673399432034434,0.39805825242718446,0.7766990291262136,0.5576400186708496,0.5299413892006467,0.032291068043621994,0.33838383838383834,0.6565656565656566,0.5309218534427875,0.4292650592426882,0.039238278833670676,0.20134228187919462,0.6778523489932886,0.4310502662404627,0.4888790123456786,0.022007597225862444,0.396,0.604,0.489372891730318,0.493319223985891,0.019176128905080633,0.40571428571428575,0.6057142857142858,0.493690867561403,0.5903273303884926,0.052859517615179354,0.39449541284403666,0.8807339449541285,0.592683377971025,0.442157244964262,0.04835260961181874,0.1842105263157895,0.6842105263157895,0.44478672569360367,0.9190488401799931,0.030148160916755963,0.8501900630204612,0.9611515550356708,0.9195419718624407,0.45544463128720425,0.13400976536419265,0.29048529666276696,0.7683195425312921,0.47470421013150915,-0.7515996515454698,0.588191118193462,1.0,-0.23559951207131524,0.8750022350115148,-0.3277999475435725
11,0.6650970972497628,0.17353983959991412,0.3042168674698793,0.858433734939759,0.6873184768891728,0.5832104201064024,0.13376842998799682,0.41913043478260864,0.8591304347826085,0.5983231868667203,0.3739014099001746,0.09399766610736196,0.29024390243902437,0.7146341463414634,0.3855115888458166,0.5935302390998601,0.04974850490236359,0.5045045045045046,0.7297297297297298,0.5956071164189982,0.8352493504016786,0.027932678381643383,0.7799435028248589,0.9118644067796611,0.8357153018843236,0.5495341188579909,0.023684433668074194,0.4568472638170434,0.5995099373808876,0.5500431953431728,0.6036830436959163,0.05662558547323799,0.5368258859784283,0.7263482280431433,0.6063273946467249,0.6549580446227361,0.0302064064522812,0.5403247383030667,0.7529179626099461,0.6556527604268442,0.6066479333619698,0.031818481929262815,0.4594994843084712,0.7252153231321525,0.6074800366648561,0.625802707787658,0.036745119020364425,0.5188024413919657,0.8019959310133904,0.6268782850881198,0.45151380561107507,0.05488473528708163,0.20614035087719296,0.7280701754385964,0.45483040321591606,0.554749907828439,0.04067171118168764,0.39805825242718446,0.7572815533980581,0.5562357040660145,0.5306013723735222,0.02620344879593727,0.41919191919191917,0.6313131313131313,0.531246636249615,0.43006824682128464,0.044307203703054875,0.2885906040268456,0.7046979865771812,0.43233977795598544,0.48844725738396555,0.029526538084169995,0.348,0.7,0.48933700087152726,0.49320072332730536,0.01963978392570125,0.36,0.6342857142857143,0.49359078278023427,0.5909689157279454,0.04867973004889589,0.39449541284403666,0.7981651376146789,0.5929662520525126,0.44119475904952216,0.04203413817604246,0.21578947368421053,0.6473684210526316,0.4431883985549709,0.9361967295005732,0.024613297628682584,0.8495037200233883,0.9669521503444622,0.93651954205891,0.4401049633874242,0.11938857608009802,0.29661490409512165,0.6472027129738942,0.45597800379282,-0.5300484548478543,0.627573540393939,1.0,-0.09488537785144165,0.8728549969009111,-0.34922086950351716
12,0.6725092906005178,0.11132625639508707,0.3734939759036142,0.8463855421686741,0.6816435523897307,0.6247134193217733,0.07334146788514276,0.457391304347826,0.768695652173913,0.628995436763605,0.3386865685945659,0.0790261984835531,0.26097560975609757,0.6121951219512195,0.34776639050198105,0.5323870038997739,0.06441574047722694,0.46846846846846857,0.7702702702702704,0.5362622096549965,0.8438535735295757,0.018008114877546333,0.7968926553672318,0.912994350282486,0.8440453238089568,0.5541644357460087,0.017651132448560262,0.4968690443778928,0.5943370541791452,0.5544449226166486,0.6079390690226159,0.03266705936681957,0.536517719568567,0.6909090909090909,0.6088143821197647,0.6566517877255147,0.02803868463409668,0.5213370790274573,0.738721113006254,0.6572489586336867,0.6057446711230724,0.025611072718253816,0.456810236676109,0.6885510104206353,0.6062847886773471,0.6231626711376387,0.02631360999990206,0.551630254112203,0.7311443692405888,0.6237168912610545,0.45218522731189603,0.04858782440958375,0.2149122807017544,0.6666666666666666,0.4547830454313702,0.5544089877353283,0.048832337560772154,0.21359223300970875,0.8834951456310679,0.5565511998069705,0.5314341846758318,0.04402156527180302,0.22727272727272724,1.0,0.5332507698873132,0.43087512031750685,0.067218093021455,0.20805369127516776,0.9865771812080537,0.43607655815891977,0.48949312377210175,0.04389216442935692,0.32399999999999995,0.856,0.4914532077448992,0.49279820376087546,0.02255246651173292,0.37714285714285717,0.6742857142857143,0.49331296773403144,0.5899497125141941,0.038636627578918496,0.4220183486238532,0.6972477064220184,0.5912110617186147,0.4433977871988413,0.03625900423085465,0.22631578947368422,0.6526315789473685,0.4448749601210991,0.9525433531262156,0.0240137331485793,0.8644735374497015,0.9761041067439677,0.9528454051096514,0.45486840556587754,0.0711253217551052,0.3173293720725975,0.6086182455366389,0.4603847728271252,-0.6263071505644915,0.6003845567321178,1.0,-0.4400912196907811,0.811871546323264,-0.568849387764819
13,0.6552185486130545,0.13877101760786162,0.3132530120481922,0.7861445783132526,0.6697193122004363,0.6233569261880693,0.09110019431212807,0.52,0.8486956521739129,0.6299633340597197,0.34124787294384573,0.07453590701203514,0.275609756097561,0.5487804878048781,0.34927466587124595,0.591752217333613,0.06441283119691987,0.5285285285285286,0.7477477477477479,0.5952394901844305,0.844367363027197,0.019263858928137444,0.8121468926553673,0.9076271186440679,0.8445865716383057,0.5641684447793136,0.01649684739196516,0.5025864416008713,0.6093111897631365,0.5644090246983742,0.6080710932740888,0.03936505236212088,0.5620955315870569,0.713713405238829,0.6093410031214057,0.6593851765088357,0.029103733011025167,0.5357959042618419,0.7409869235142638,0.6600256574133258,0.6093776449789032,0.022739609483836902,0.4898878231441083,0.6753008466268036,0.6098007883768289,0.616773197444807,0.02533268542848648,0.5185963325931147,0.688137441325479,0.6172920132378126,0.45248878008976023,0.047560852931754986,0.2543859649122807,0.75,0.4549756809905639,0.5551140212237531,0.043973341332688855,0.3106796116504854,0.7572815533980581,0.5568489332266506,0.5317359642941016,0.043737559739805705,0.2727272727272727,0.8181818181818182,0.533527563560424,0.4308100515061655,0.04326540934025187,0.20805369127516776,0.738255033557047,0.43297210404186176,0.4890697674418602,0.021336460306417476,0.36,0.592,0.4895338836646702,0.4932890365448502,0.02160474782447481,0.3085714285714286,0.6,0.49376082591028453,0.5890334969063374,0.0473427821755852,0.35779816513761464,0.7431192660550459,0.5909285803593339,0.44248470012239827,0.03155927608419947,0.3368421052631579,0.6052631578947368,0.4436061107541483,0.9411606255911752,0.022582103685812253,0.888115727866222,0.9626113159386945,0.9414308729994697,0.455968611018403,0.08240054867195562,0.3653792464373526,0.6557201461333444,0.46333727920994516,-0.7263483115044043,0.2921865667826365,1.0,0.06029863146247421,0.882966638132744,-0.038570177757301836
14,0.5514663696804029,0.17057913563562424,0.21987951807228878,0.7891566265060241,0.5771749245458327,0.6834928754110333,0.11885154418227688,0.5113043478260868,0.9252173913043475,0.6937208606740168,0.3865648698503782,0.0753143539871004,0.2865853658536585,0.5902439024390244,0.3938131052391531,0.6540195657842723,0.05321579625740397,0.5390390390390392,0.7612612612612614,0.6561749620704954,0.8571404833119689,0.021537691914258736,0.8019774011299436,0.9084745762711866,0.8574102757393562,0.5630053818423635,0.020058559348633022,0.5066702967601416,0.615845358017969,0.5633615879411309,0.6366735291959611,0.051449616916489804,0.5583975346687211,0.7473035439137133,0.6387431652214928,0.6576235931202907,0.02878338555255423,0.538755671493707,0.7273126316845591,0.6582514358745003,0.6096756161213146,0.03107269463630639,0.4905844450856271,0.6932344778443935,0.6104647121074845,0.6252212824813183,0.03508554860196745,0.5194274164594498,0.7257423241094105,0.6262022034622687,0.4502309695808156,0.05302279305999883,0.2763157894736842,0.7149122807017543,0.4533337263397491,0.554594653395339,0.0448542822491931,0.4077669902912621,0.7669902912621359,0.5564004858175167,0.5306567071272937,0.030575198913637,0.35858585858585856,0.7373737373737375,0.5315343497842278,0.4310153591638,0.04020480825559893,0.2885906040268456,0.7651006711409396,0.43288120614823,0.4897927170868344,0.02878224430546762,0.38,0.712,0.4906353052941876,0.4936374549819923,0.027539395328999048,0.37142857142857144,0.6628571428571428,0.4944029033442165,0.5904196541001723,0.050657041829735,0.40366972477064217,0.7522935779816513,0.5925827501530911,0.442414860681114,0.04207731618527783,0.26842105263157895,0.6,0.4444057269023287,0.9222587701966577,0.021017709573170357,0.8690398708751346,0.9580207091377888,0.9224975587728566,0.5145955806710509,0.10420160487992633,0.3610633168246694,0.7145100306193652,0.5250106395221379,-0.6659397602567054,0.18352525422718996,1.0,0.10381862433669117,0.8784832155322893,0.11380627850506825
15,0.6256275100401604,0.13161265765951904,0.37650602409638534,0.7921686746987953,0.639288055072553,0.6634825234441603,0.09810904953735047,0.5234782608695652,0.8730434782608696,0.6706793964969985,0.3386447871831669,0.07312361070720225,0.2804878048780488,0.5841463414634146,0.34643072725147667,0.566058705764587,0.076826274694728,0.47747747747747754,0.7462462462462462,0.571235738107675,0.8513383460728927,0.019373224763593926,0.816949152542373,0.9118644067796611,0.8515582078903372,0.5619351334326265,0.019493130236495453,0.4968690443778928,0.6082221617206645,0.5622723050121008,0.6218405389890935,0.03993875888977261,0.5661016949152542,0.7306625577812018,0.6231186490726647,0.654934954330773,0.026368610523615284,0.5381467175010869,0.7295770487051715,0.655464258254908,0.6069489171728168,0.024346297136799335,0.5164885790665903,0.6862602879264418,0.6074358216651841,0.6269457628802353,0.03140929961885599,0.5302315067218063,0.7249112402430754,0.6277301296702076,0.4541408668730664,0.05234035387326059,0.17105263157894735,0.6842105263157894,0.4571397216563266,0.5545878545592998,0.0407494065729579,0.35922330097087374,0.7378640776699028,0.5560792503529933,0.5302163794810834,0.02832419115138043,0.35858585858585856,0.7171717171717171,0.530970528891539,0.4303197789182794,0.038400739774231626,0.30201342281879195,0.5973154362416107,0.4320255949438472,0.4880980392156858,0.028871488466456454,0.364,0.76,0.4889490931439326,0.49253501400560223,0.023993686898664168,0.37714285714285717,0.6514285714285715,0.49311765939824553,0.588145349883073,0.05585748935043504,0.3119266055045871,0.7614678899082569,0.5907853793907724,0.44336945304437575,0.052875717732026595,0.09473684210526317,0.7263157894736842,0.4465035955799086,0.9458926885137374,0.024214783663166536,0.8734880691765655,0.9716936931234765,0.9462018266655157,0.48372703353444446,0.08269707707479844,0.3665370378938566,0.6423496356244842,0.4907279162101666,-0.5237223612192696,0.3012095320567936,1.0,0.04130151545414533,0.8777158432327142,-0.10569397304577567
16,0.6798764678969043,0.09628991184080446,0.47590361445783147,0.8132530120481927,0.6866442207903265,0.639286736378646,0.07128935787733455,0.5165217391304346,0.7582608695652173,0.6432393315062533,0.3030071009570853,0.08402496410457269,0.23048780487804876,0.5804878048780489,0.31441314208033755,0.490458813243623,0.05815370895342467,0.427927927927928,0.6861861861861863,0.4938857557148492,0.8454008438818571,0.016819336906170428,0.8110169491525425,0.8858757062146894,0.8455677150605176,0.561516643863706,0.020222560183908462,0.49496324530356667,0.6008712224339777,0.561879753999896,0.60850383257592,0.030285860912403862,0.5599383667180277,0.6711864406779661,0.609255139921682,0.6580291685487564,0.03420398357003405,0.526041492480742,0.7684205099049084,0.6589152732705852,0.6072721212576996,0.020873306495532182,0.5046332532563489,0.6659355058798399,0.6076298389280758,0.624593551597137,0.023749535336713194,0.54061673071553,0.7294822015079185,0.6250437722071814,0.45339773484343876,0.06253120908976363,0.12280701754385964,0.8070175438596491,0.4576786634224075,0.5550694359100421,0.04120895920529369,0.36893203883495146,0.7475728155339805,0.5565931708300569,0.529945019818436,0.031996890468555084,0.3939393939393939,0.7424242424242424,0.5309076502827546,0.4301078922776318,0.0481730038552033,0.19463087248322147,0.6308724832214765,0.4327904368932704,0.48916455696202465,0.030015575643519643,0.28,0.6799999999999999,0.4900822560769965,0.492817359855334,0.020271989462667592,0.3942857142857143,0.6285714285714286,0.49323307202863653,0.5898037394030894,0.048675752799877486,0.39449541284403666,0.7339449541284404,0.5918038371145137,0.4431445702864756,0.04932193280288718,0.0368421052631579,0.6368421052631579,0.44587397840025045,0.9649303420958224,0.022990099182845426,0.8862944503795851,0.987146643216364,0.9652034871828066,0.4574788670297164,0.0643033012690519,0.35508931437516406,0.5678405745044226,0.46196467418492027,-0.44822027186780855,0.7461431704387325,1.0,-0.30856304248863375,0.7459108843340769,-0.5645805803898384
17,0.7431423109411772,0.1194883708949497,0.3885542168674694,0.8373493975903612,0.7526696638586665,0.5704155302422604,0.09496748313961242,0.4817391304347826,0.8365217391304347,0.5782525919534344,0.28402934029340393,0.06704791937243683,0.23536585365853657,0.5073170731707317,0.29182151308701276,0.45892756224859416,0.091028154438287,0.38138138138138145,0.7237237237237238,0.4678518400504142,0.8290293326662082,0.022654957483426677,0.6514124293785312,0.9042372881355933,0.8293382509984625,0.5624578679764477,0.011693797933177728,0.5123876939831201,0.5932480261366732,0.5625791907472506,0.5846002080976124,0.03614545942387996,0.5491525423728814,0.7038520801232665,0.5857145098414103,0.6589878800739448,0.02557383054246713,0.5441568286456417,0.7377637871643089,0.6594830097982116,0.6085315567468945,0.024013062674333632,0.4861002402309533,0.7007076212353323,0.6090042847534127,0.6192358905757325,0.030763255803743495,0.5075828091964416,0.7749823810220337,0.6199981612876496,0.4551288276040672,0.03762387693302953,0.3026315789473684,0.6535087719298245,0.45667843621587045,0.557750868770825,0.03961242264809377,0.4077669902912621,0.7864077669902912,0.5591531816443299,0.533210332103318,0.03542640951941011,0.3232323232323232,0.7878787878787878,0.5343837321614109,0.4323163030288025,0.04539774152238466,0.1879194630872483,0.7651006711409396,0.4346890133186523,0.4888118081180804,0.02370844177739434,0.36,0.628,0.489385366455076,0.4932208750658936,0.016667430807456727,0.3942857142857143,0.6057142857142858,0.49350189695518437,0.589711906293376,0.04551393045567494,0.4128440366972477,0.7614678899082569,0.5914624487666219,0.44377549038648306,0.032291961033964756,0.26842105263157895,0.5789473684210527,0.44494666274050737,0.9745264013766183,0.026735218238158102,0.8949484486348611,0.9961265009077582,0.9748923838593521,0.40302557922644233,0.08095662948225096,0.32939169586293515,0.6303893091489366,0.4110614323450417,-0.7527120648622898,0.3152767776827055,1.0,-0.023791626444926484,0.879125531305748,-0.01764448888667524
18,0.5789536885081837,0.14842393213550026,0.27409638554216853,0.7861445783132526,0.5976457503757261,0.7039895998844432,0.1160964370702131,0.5304347826086957,0.9269565217391302,0.7134825506666735,0.3551454501255981,0.04636498094143259,0.2926829268292683,0.5060975609756098,0.35815420038490015,0.5809264413915599,0.044644009279573287,0.4759759759759761,0.6996996996996998,0.582636513699347,0.85856936389061,0.021946172872525437,0.8112994350282486,0.9152542372881357,0.8588493389750972,0.5606798465592049,0.011565769005230746,0.5137489790362103,0.615028586986115,0.5607989257710789,0.6386544082641842,0.04774207323566588,0.5661016949152542,0.7510015408320493,0.6404334255254477,0.6566037062209309,0.01691962355478231,0.5877897060298987,0.7138139192669142,0.6568213038160797,0.607026253453843,0.02462635811816547,0.5066258789471922,0.6816772488375021,0.6075247505179227,0.6222965255989507,0.027701836919695823,0.5082044599284603,0.7502592981662966,0.6229117777053944,0.45308037535699797,0.05085718833749148,0.20175438596491224,0.7456140350877193,0.4559210279255293,0.5552527174789554,0.04751842282810376,0.27184466019417475,0.8155339805825242,0.5572789516430928,0.5314859559045579,0.039646920993132204,0.13131313131313127,0.7676767676767677,0.5329602129375361,0.43019911257776156,0.042891085425119164,0.19463087248322147,0.7516778523489933,0.4323284235191878,0.48875083056478325,0.02509736860953072,0.372,0.64,0.4893937126486873,0.4928618889416231,0.02578694494859625,0.20571428571428574,0.6285714285714286,0.4935349060657446,0.5893352433783413,0.049901631230733656,0.19266055045871555,0.7798165137614679,0.5914406693723637,0.4424462318587158,0.03528640515127083,0.22631578947368422,0.6578947368421053,0.44384876946046986,0.9406291942149274,0.015638020534069718,0.897590928896478,0.9706906560751345,0.9407589608769371,0.5158608146548168,0.09713516801274923,0.37311764032075007,0.7098882836330125,0.5249113713796011,-0.7849855449096733,-0.07088144169359044,1.0,0.17586388565828032,0.8774971548553676,0.17730719530631997
19,0.7101935137811581,0.10216978687365036,0.4819277108433737,0.8343373493975901,0.7174925908604605,0.6267569982132231,0.09275561442975785,0.48695652173913034,0.8243478260869563,0.6335717848980051,0.1939817908453052,0.094579645070239,0.12439024390243901,0.501219512195122,0.21577517728131948,0.3949488872434069,0.08286309613970805,0.3123123123123124,0.6321321321321323,0.40353334296703,0.8408583894435415,0.020268842156958275,0.7796610169491527,0.8963276836158194,0.841102225410716,0.588664411533254,0.02536557896305183,0.50966512387694,0.627007895453308,0.589209725198105,0.6006163328197225,0.03495719675599511,0.5368258859784283,0.6813559322033897,0.6016310267759617,0.6558242299474097,0.023024581508516474,0.5546079841253916,0.7384605308629588,0.6562275856595708,0.6062099600974787,0.021931730641612874,0.5012441954813626,0.6708182358726824,0.6066058793803448,0.62560245611012,0.027070143261633452,0.54061673071553,0.7529619828996184,0.626186849882105,0.4526856524873838,0.03904195140533281,0.2631578947368421,0.6403508771929824,0.45436325102201747,0.5547113977922613,0.03444503451871141,0.36893203883495146,0.7087378640776698,0.5557779805222209,0.5305970665559671,0.02352217484957325,0.398989898989899,0.6565656565656566,0.5311173056194177,0.43136894364254863,0.0373790859588075,0.2348993288590604,0.6778523489932886,0.43298264300937594,0.48881506849315093,0.021588861693554645,0.384,0.7,0.4892907643260737,0.49421722113502914,0.024587659650441754,0.37714285714285717,0.6285714285714286,0.4948274239368826,0.5906748774663827,0.04847757011635421,0.3027522935779816,0.7339449541284404,0.592657457199029,0.4431596971881755,0.038497335254881075,0.26842105263157895,0.6157894736842106,0.44482583590171526,0.3523963479767513,0.4563489461829439,0.000551904359224642,1.0,0.5762646499803361,0.4379968536838703,0.07418925311914094,0.33059702375640326,0.5888870352841034,0.44422501548233445,0.8283388530761636,-0.7773499813210573,1.0,-0.6317582474301418,0.8742397661692107,-0.6823177176490457
20,0.7143602820372433,0.07868058204473026,0.5331325301204819,0.822289156626506,0.7186679758517425,0.6145998023715421,0.07361412355910828,0.5008695652173911,0.7408695652173911,0.6189802591883057,0.19437014966740548,0.12512019816957198,0.09512195121951218,0.552439024390244,0.23106350741325335,0.349760271635273,0.08226013737590097,0.27477477477477485,0.5945945945945947,0.359276709724046,0.8384445621468923,0.017505307574491737,0.78135593220339,0.9059322033898306,0.8386267638411872,0.5806282949285942,0.03508412354617958,0.48216716580451957,0.6359923768037028,0.5816842921498188,0.5979986692814118,0.02914015367117575,0.4979969183359014,0.6699537750385207,0.5987062256770566,0.6579128857236454,0.04323880231650783,0.49703883928073755,0.7785232935353332,0.6593281791947891,0.6076715382621082,0.023895911592275536,0.49108339855861427,0.6733082209359602,0.6081398612195397,0.6220557531856201,0.03522792899899228,0.45439344175099394,0.7340531627727617,0.6230496300174417,0.45434609250398794,0.04315364379794941,0.3114035087719298,0.631578947368421,0.45638505486128295,0.5564596204766109,0.03865473202417345,0.3883495145631068,0.7864077669902912,0.557796784389877,0.5310204315886125,0.03566043183013406,0.3484848484848485,0.7575757575757576,0.5322130705593737,0.43084579011592444,0.055017505376005825,0.2348993288590604,0.9664429530201342,0.43433445815075883,0.48835227272727244,0.027097603377053654,0.352,0.652,0.48910135592087334,0.49301948051948014,0.018332652183634963,0.41714285714285715,0.5714285714285714,0.49335923982188196,0.5918994995829862,0.04624355225416201,0.39449541284403666,0.7155963302752293,0.5936980786088302,0.4434509569377985,0.03151764509767866,0.26315789473684215,0.5789473684210527,0.44456640798709873,0.41358568583872013,0.4668487047624978,0.0008825260461604034,0.9995227568915941,0.623202746326994,0.43318137967599507,0.059739917224780746,0.34470275467541794,0.544602408843912,0.4372697412441308,0.6341118624308738,-0.72518112236019,1.0,-0.3885258632977641,0.5972591345901209,-0.805286646864349
21,0.7062283030426818,0.08757440095925713,0.4427710843373496,0.8192771084337349,0.7116190653553038,0.6250198968312457,0.08210368500951168,0.5043478260869565,0.8121739130434782,0.6303713474044202,0.21473749483257493,0.11696940055834225,0.1097560975609756,0.4926829268292683,0.24443333085535485,0.3773298722451274,0.08247499074112723,0.29729729729729737,0.5945945945945947,0.3862083615595132,0.8405917839701237,0.019486445853327684,0.7768361581920905,0.8929378531073446,0.8408168538143724,0.5775254144997626,0.029457210925934344,0.5088483528450859,0.6180234141029133,0.5782736291931924,0.6004220312867253,0.03123739638844007,0.5315870570107858,0.6847457627118644,0.6012313056353337,0.6614402622817259,0.048632825348367235,0.5074022050544575,0.7689430676788959,0.663219688191845,0.6077332897936739,0.02558864762466006,0.5129018528230723,0.6850647125119358,0.6082699325309879,0.6198924402808487,0.036429913315318176,0.5104916027286146,0.7238740475778892,0.6209583539390108,0.454668450787987,0.04455072002189705,0.2850877192982456,0.618421052631579,0.45683852592996127,0.554517031429982,0.0394333453160153,0.4174757281553398,0.6990291262135921,0.5559126331722622,0.5313131313131312,0.02839818041023922,0.42424242424242425,0.7070707070707071,0.5320689489201741,0.43344329427823947,0.04670137986540975,0.22818791946308722,0.7583892617449663,0.43594347678542184,0.4904271186440677,0.035451902026771544,0.408,0.696,0.491702486869062,0.4933849878934625,0.027275610784370723,0.38857142857142857,0.64,0.4941357944204893,0.591478774685119,0.050014226618534455,0.33944954128440363,0.7522935779816513,0.593582415817483,0.4444424620874219,0.04095366986278287,0.26842105263157895,0.6052631578947368,0.446318966376521,0.4884707547483257,0.4761987263838477,0.0002469977071815066,0.9984652472596633,0.6816158812478036,0.4402649910986081,0.06536348704794369,0.34684601548202265,0.6111472405902154,0.44507433667154883,0.5356841586778859,-0.8412864120757282,1.0,-0.37214822158123934,0.6618205291897661,-0.6558667985035866
22,0.661707700366687,0.14260749513339369,0.2620481927710845,0.7801204819277103,0.6768676146379585,0.6488846880907385,0.11410845003748753,0.5495652173913044,0.9443478260869562,0.6588199836492442,0.20843849416754945,0.14662635914999705,0.09512195121951218,0.5475609756097561,0.2547531304286712,0.3646951299125228,0.13442102778222806,0.24774774774774783,0.6201201201201202,0.38862870458771814,0.8448176123802511,0.022057840187006995,0.8,0.9033898305084747,0.845104898097187,0.5814959930870389,0.032918589624025954,0.48543424993193585,0.6289136945276342,0.5824249889848682,0.6132169893481607,0.049011307453202355,0.5513097072419106,0.7614791987673343,0.6151682390281706,0.6576497732371899,0.040283227115019755,0.4793596646711927,0.7780007357613458,0.6588796816821588,0.6088407499785656,0.023407308603214726,0.5191778266989525,0.7150545262094042,0.6092895615706836,0.6250849295443232,0.03659408359746263,0.4907516987354228,0.7494282142999614,0.6261528447210126,0.452879481311976,0.04133390380426654,0.2543859649122807,0.6885964912280702,0.45475773999451924,0.5538623891937532,0.034969982334603265,0.4077669902912621,0.7572815533980581,0.5549628702448144,0.5300505050505034,0.03423134971238273,0.2676767676767677,0.7676767676767677,0.5311523094631825,0.4282608695652176,0.04782199712077423,0.20134228187919462,0.7919463087248322,0.43091686459602635,0.4875130434782603,0.027070911550130125,0.356,0.6759999999999999,0.48826243834197564,0.491465838509316,0.025175007646245837,0.3371428571428572,0.6342857142857143,0.49210880265125284,0.5894295971280421,0.05152140095726215,0.33944954128440363,0.7339449541284404,0.5916721509191601,0.44423340961098357,0.04324564460013799,0.09473684210526317,0.6684210526315789,0.4463288500312607,0.3621189178609246,0.43848477378786505,0.0010024891523900958,0.9978748213743514,0.5683142015239959,0.4648893111186927,0.09905484901152255,0.38016962012823874,0.7309032156176649,0.4753026452355453,0.7577220418761725,-0.8278264694129763,1.0,-0.5878832100240078,0.8219766355007786,-0.7528138870853773
23,0.607054304173215,0.14266780436137955,0.27409638554216853,0.7650602409638552,0.6235463360635337,0.7036068052930067,0.12528500467890052,0.563478260869565,0.9356521739130432,0.7146421287864121,0.2363343937787205,0.1385076247349543,0.09999999999999998,0.573170731707317,0.27382969332375073,0.3649214431823128,0.13708400705409646,0.22672672672672678,0.6081081081081082,0.3897501956979852,0.8543060673053303,0.026056126348122387,0.793220338983051,0.9262711864406781,0.8547021764719714,0.5712954304225515,0.03234660732843702,0.4802613667301934,0.626191124421454,0.5722077761311992,0.6334472209195864,0.05309837231477367,0.5152542372881355,0.7787365177195685,0.635662368362052,0.6531541122742087,0.04766800030259989,0.4912907037668751,0.7680721380555834,0.6548862087689152,0.6036347525656767,0.030011305904413615,0.480721744966229,0.7066854983078623,0.6043781782335016,0.6249554298153761,0.04501539488242873,0.49511655120141485,0.7857864712843903,0.6265698695677785,0.45305110602593457,0.05190612689231387,0.25,0.7368421052631579,0.45600629521045216,0.5555367947094411,0.03938583222735077,0.3883495145631068,0.7864077669902912,0.5569271745008477,0.5313570487483523,0.02915695213527153,0.41414141414141414,0.7070707070707071,0.5321540913811147,0.43089193658204467,0.06883409108225005,0.0,0.8791946308724832,0.4363396147387106,0.4897275362318837,0.04229390481973228,0.196,0.7,0.4915451650411812,0.49371428571428533,0.024852292649347435,0.37714285714285717,0.6685714285714286,0.4943375791073515,0.5911447945751899,0.05082778743254322,0.4220183486238532,0.7798165137614679,0.5933195966991593,0.44355453852021337,0.04301799183188728,0.2578947368421053,0.6210526315789473,0.44562968074061177,0.5053716830958306,0.4608008009392802,4.089707046867064e-05,0.9991672995926186,0.6834635656420189,0.5050501411380617,0.10288392822326922,0.3886089356253742,0.7188994360478355,0.5153931182050887,0.6495849757455521,-0.6225297652622458,1.0,-0.29003198940278513,0.7049452615570231,-0.5970472437095703
24,0.7051957831325312,0.06449121369375439,0.5542168674698793,0.7801204819277103,0.7081302094384293,0.620879446640317,0.0678699663769695,0.537391304347826,0.7356521739130433,0.6245674770791287,0.1793652993348118,0.11573449453674095,0.08658536585365852,0.5195121951219512,0.21337368945206536,0.27366997679497673,0.06717082337486979,0.20720720720720726,0.48648648648648657,0.28177004411161155,0.8391202812018487,0.015577662448238553,0.7957627118644068,0.9045197740112996,0.839264452068886,0.5742743422518131,0.03453417354199944,0.47291042744350675,0.6351756057718487,0.5753088224743538,0.598986202549376,0.027191300484397985,0.5328197226502311,0.6650231124807395,0.5996013152025512,0.6585453350222393,0.03955662619881543,0.5129761546436574,0.7532663344592712,0.6597289138044105,0.6073259762090628,0.020468082273071387,0.5304369589024936,0.6775931632215497,0.6076698063858197,0.6214235722432494,0.035673879189498665,0.4820286424743694,0.7176375942449105,0.6224437857205993,0.4546202153110049,0.05194489855232076,0.293859649122807,0.6491228070175439,0.45756982757629633,0.5574525595763459,0.04420828119836488,0.4077669902912621,0.7669902912621359,0.5591977969477278,0.5315369605142328,0.029195205348277308,0.3787878787878788,0.6919191919191919,0.5323358704152112,0.4317228492983532,0.035196621367811015,0.28187919463087246,0.6510067114093959,0.43315113002010175,0.4895113636363632,0.02112801535622864,0.404,0.624,0.489965815134077,0.49357142857142855,0.01902929521552993,0.4285714285714286,0.5714285714285714,0.493937081464096,0.5892149708090078,0.0634921749104526,0.40366972477064217,0.8440366972477065,0.5926163056039883,0.44527511961722493,0.0448975865295796,0.30000000000000004,0.6947368421052631,0.4475265341193429,0.17429062889534133,0.3387568191697094,0.0001247154021616903,0.9994403951056956,0.38053566714897263,0.4348667558681566,0.05292631844121237,0.3731605441614574,0.5410230597445582,0.4380665846674147,0.08133756280087359,-0.7201131076796643,1.0,-0.38378628688004124,0.48226430473672505,-0.8381354355844166
25,0.6832837185317154,0.07908666176333512,0.5150602409638552,0.7861445783132526,0.6878365877170378,0.6496159702250051,0.08290513140245154,0.546086956521739,0.8104347826086955,0.6548746425702275,0.19393091012622163,0.1088592831887124,0.08902439024390242,0.4841463414634146,0.2223431723612804,0.31832123952746516,0.08945203393541465,0.22822822822822827,0.49699699699699706,0.3306274496547054,0.8450839763459296,0.018023504735541814,0.7725988700564973,0.8920903954802262,0.8452757785492757,0.5761911773897447,0.029290459543615883,0.48761230601688,0.6321807786550505,0.5769337351859021,0.6084547912682188,0.0311377212073467,0.5288135593220339,0.6767334360554699,0.6092494599096877,0.6578673359657122,0.03323714691129107,0.5374499738024369,0.7731235298707958,0.658704782454324,0.6064297047153254,0.0180864606431153,0.537211886251361,0.6593598411000569,0.6066988300626311,0.6211494493943265,0.03423705925606089,0.49137667380290684,0.7203402789782323,0.6220904550070535,0.452087173185884,0.02910611244575921,0.3333333333333333,0.5833333333333333,0.4530213347718323,0.5542669336254783,0.03867347356323171,0.33009708737864074,0.7572815533980581,0.5556118802431591,0.5294285265102361,0.03222085831145562,0.27777777777777773,0.7777777777777778,0.5304061920645949,0.43134515446687405,0.04492233126180989,0.20805369127516776,0.825503355704698,0.43367353161932715,0.4888715953307389,0.026072680140171122,0.344,0.712,0.4895650098124718,0.492284602556976,0.01902331779887101,0.4228571428571429,0.6228571428571429,0.49265130921899025,0.5898868382536679,0.05671859410032497,0.35779816513761464,0.7247706422018348,0.5926020773747517,0.4438255171001435,0.0338462182492957,0.2947368421052632,0.6210526315789473,0.44511170214948204,0.32970015285357934,0.4386898373928583,0.0009222146547729348,0.9999407070652736,0.5484309895213373,0.4555305109735443,0.06354731319159378,0.37668637451777987,0.5841401239159865,0.4599330939416646,0.5154009656222652,-0.6948747394974727,1.0,-0.4352325953379365,0.7720992635096363,-0.6913962654872131
26,0.6551109701965717,0.12501043058760294,0.3162650602409638,0.762048192771084,0.6669071080748373,0.6524082379862709,0.12097322761149257,0.5443478260869563,0.9530434782608694,0.6635060069596316,0.19009499358151577,0.13763392963221116,0.07317073170731705,0.5134146341463415,0.23460461411321554,0.2808060692271214,0.12583152051867946,0.16966966966966973,0.4939939939939941,0.30765611685122607,0.8446654772524539,0.02142533251138937,0.8056497175141244,0.9494350282485877,0.8449365934347253,0.574123547365556,0.033664808851455064,0.4742717124965969,0.6411652600054453,0.5751076256311768,0.6133770172735389,0.04860202570338039,0.5331278890600925,0.746995377503852,0.6152954975131496,0.658740428208409,0.03831722965224105,0.5072294126171922,0.8090922265699029,0.6598515521507958,0.6098670125808932,0.02275214981832524,0.5202745678791927,0.6886514387554538,0.610290376414782,0.6209330254882042,0.0336928531610722,0.47641716420887464,0.72241798864407,0.6218445469598848,0.45332409972299226,0.05203256333273881,0.06578947368421051,0.6491228070175439,0.4562942332236618,0.5547675012774667,0.03729791205804654,0.3398058252427184,0.7281553398058251,0.5560172533418909,0.5312280701754366,0.02586424539678665,0.3737373737373737,0.7575757575757576,0.5318560081423634,0.4308442246555992,0.034622992407514264,0.28187919463087246,0.6174496644295302,0.4322302324395526,0.4883957894736842,0.018604794512666323,0.388,0.592,0.4887492780988076,0.49243909774436084,0.024740304850714507,0.32000000000000006,0.6971428571428572,0.49305887992841513,0.589666827619508,0.06341944995593907,0.33944954128440363,0.8348623853211009,0.5930603062109944,0.44371191135734056,0.043986095881621355,0.25263157894736843,0.6578947368421053,0.445882230748582,0.4091314425126029,0.44860938858499166,0.0009721494718928914,0.9983583560704039,0.6068074124144273,0.4643625234894351,0.09589441718717814,0.37873703105847234,0.7052282372180687,0.4741402039672426,0.7001638989379928,-0.7616014683469319,1.0,-0.4539096351489475,0.7978027625494906,-0.6376268062834585
27,0.6029564411492112,0.09538215570125694,0.3644578313253013,0.734939759036144,0.6104311856837815,0.7146541806020063,0.1077051694912235,0.5669565217391304,0.9269565217391302,0.7227000123410275,0.2010619136960597,0.12613823562336957,0.052439024390243894,0.4902439024390244,0.23725048187507744,0.28764610764610765,0.12317091319374869,0.1426426426426427,0.47747747747747754,0.3128333052500741,0.8561625380269445,0.021756489760888006,0.8064971751412431,0.9175141242937854,0.8564380771087736,0.5687775660223254,0.032523225430026115,0.4889735910699701,0.6408930029948272,0.5697038047581452,0.6337712457034489,0.041398326485032236,0.5235747303543913,0.7460708782742681,0.6351177371318942,0.6547730630739563,0.04318109545244584,0.49303256301350007,0.7558791233292086,0.6561910041134383,0.6049939197326224,0.025945018440619604,0.47225228872986846,0.6653377181725869,0.6055482769218943,0.6246639199131778,0.045891382936110676,0.4799476084730662,0.7508809488983152,0.6263422002472288,0.4502699055330638,0.042322512740199526,0.3026315789473684,0.6491228070175439,0.45224846217970405,0.5542046303211353,0.03635381724603951,0.45631067961165045,0.7669902912621359,0.5553920289634329,0.5312975912975908,0.021583787442786908,0.4393939393939394,0.6464646464646465,0.5317344797772491,0.430748580278782,0.04101804813657223,0.25503355704697983,0.7248322147651006,0.43269116332869795,0.48759384615384604,0.030388146836984587,0.344,0.66,0.48853695553466236,0.4924835164835161,0.023588226769274707,0.37142857142857144,0.6114285714285714,0.49304635323306095,0.5896400846859562,0.06863945295379462,0.34862385321100914,0.8807339449541285,0.5936095580710683,0.4445829959514166,0.058943316128591765,0.06315789473684214,0.7894736842105263,0.44846144160547574,0.4669768667580834,0.4638722012950792,0.0003058932917821555,0.9998892014440728,0.6577102164745293,0.5071070335278706,0.07977250282533409,0.39691850220894853,0.6791764832825999,0.5133240839782656,0.5055076254572092,-0.5186712595804084,1.0,-0.32891551248922507,0.6371959681758865,-0.6141648932740399
28,0.7086543356524709,0.07695923178236838,0.5451807228915659,0.8072289156626504,0.7128092360988387,0.5965805266380865,0.10028466928288826,0.46782608695652167,0.7982608695652174,0.6049272766519483,0.13779113706630017,0.10962284936947582,0.0573170731707317,0.4768292682926829,0.17598214505265128,0.21770925855432802,0.08249878870543319,0.13663663663663667,0.46396396396396405,0.2327749974243797,0.8345094294581047,0.021218190027205132,0.7737288135593221,0.905084745762712,0.8347783725282214,0.5836960231303422,0.031205749463622378,0.49578001633542074,0.6207459842090934,0.5845272475450163,0.5922003515701295,0.033529250114903125,0.5306625577812019,0.6828967642526964,0.593146103605674,0.6541636186583176,0.0392033494104712,0.5121066185077422,0.7801773630759283,0.6553339707950685,0.6040961289333677,0.025634793525740485,0.44455479162714623,0.6894484890317911,0.6046382592305594,0.6246006162100586,0.03378561051469326,0.450859673151337,0.7635566400276584,0.6255111364688001,0.4541759327897212,0.04916373466452695,0.22368421052631576,0.6140350877192982,0.45682167426227144,0.5569807192670588,0.03936835140854529,0.4077669902912621,0.7087378640776698,0.5583663876927766,0.530758287096314,0.026858046076038467,0.36363636363636365,0.6666666666666667,0.5314354918290067,0.4308157670857365,0.045391592387505425,0.2348993288590604,0.7248322147651006,0.43319374175407177,0.48851830985915473,0.020438182320607252,0.42,0.608,0.488944456651408,0.4929577464788729,0.01632026259102845,0.44,0.5714285714285714,0.4932270678907879,0.5902571391652666,0.05611412816678394,0.35779816513761464,0.7614678899082569,0.5929109679111556,0.4430392883617492,0.043086089136403626,0.2789473684210526,0.631578947368421,0.4451235702388471,0.1407956402141087,0.28255010394391633,0.0006765048182421629,0.9998256677433851,0.3153301245584101,0.41970930660436995,0.07108789001069285,0.32741667312695216,0.5554810931794371,0.42567024206388787,0.013168874573783802,-0.6973134118855552,1.0,-0.5054951345585328,0.7144470565469246,-0.7698614633626231
29,0.669029411057401,0.09046881692109818,0.3855421686746987,0.7530120481927711,0.6751063791391174,0.6346333420116294,0.1000004327969837,0.5269565217391303,0.900869565217391,0.6424481341710161,0.13965970498028293,0.12408807188204299,0.04146341463414632,0.47804878048780486,0.18674032384002462,0.22686159213105425,0.11529675929288481,0.12912912912912916,0.5300300300300301,0.25442678921353207,0.8426322496250427,0.018601379157758325,0.7949152542372881,0.9067796610169493,0.8428371306328419,0.5846232935707673,0.03064098322011539,0.49224067519738646,0.6256466104002179,0.5854241122865592,0.605714303288646,0.03649045376713009,0.5266563944530046,0.7285053929121725,0.606810277297386,0.6603972333584385,0.04017588634706002,0.5235150998294371,0.7960296757076128,0.6616157388628884,0.6089650948711116,0.02018313963618531,0.5170863667738433,0.6811798894650677,0.6092988042043821,0.6192544899695711,0.03474027558133524,0.4755860803425395,0.7259484329082616,0.6202262499599295,0.45260356480022496,0.03784669406296642,0.293859649122807,0.6052631578947368,0.4541800304889198,0.5534949518438863,0.032983856523720455,0.36893203883495146,0.7087378640776698,0.5544749092441544,0.5306961833907919,0.02492511391213938,0.41414141414141414,0.6868686868686869,0.5312800206356029,0.43119130865785243,0.04222037647027976,0.24161073825503354,0.6442953020134228,0.4332492894939277,0.48894211576846297,0.019064696239766615,0.392,0.584,0.489312915975573,0.49239806102081507,0.014443876108897054,0.4285714285714286,0.6,0.4926094392475955,0.5901225072790203,0.0512836926416172,0.36697247706422015,0.7247706422018348,0.5923422500489438,0.4430087194032986,0.028083016550164135,0.2105263157894737,0.5789473684210527,0.4438961670510307,0.208105406347916,0.3469413903102849,0.00047604224853114996,0.9997972788745597,0.40427210182911794,0.4496902779603398,0.07476619989496312,0.374691894342529,0.6617542147500408,0.4558510426496746,0.47504182647862675,-0.6236601157699294,1.0,-0.4210619347852989,0.7430715104716812,-0.6814602279704828
30,0.6297320429258016,0.07762212218149127,0.4457831325301207,0.7439759036144578,0.6344849702405724,0.6931717747683537,0.08261934081171374,0.5721739130434782,0.8730434782608696,0.6980647639439319,0.1617053178728504,0.13106213569676445,0.0475609756097561,0.4768292682926829,0.20803596028911506,0.29262869426803634,0.11257483229338582,0.19669669669669673,0.4909909909909911,0.3134804932338045,0.8547798771263623,0.01632045217418136,0.7903954802259888,0.9025423728813561,0.8549352418443908,0.5841422937132432,0.033237891261714704,0.4895181050912062,0.6335420637081406,0.585084573593605,0.6253706837757962,0.03239405302280476,0.5306625577812019,0.6973805855161787,0.6262068345631024,0.6544736481329491,0.03788994025033932,0.5187256836449171,0.802821533282053,0.6555665344862228,0.6055135330034,0.02499016512496996,0.4916795921653146,0.7063858074039594,0.6060275907054542,0.627061360475025,0.03874930870808102,0.4986503198010718,0.769995877824023,0.6282542130720178,0.45401926948518906,0.04749498079789614,0.17543859649122806,0.6710526315789473,0.4564899855967268,0.556077245477214,0.03851822035217531,0.3883495145631068,0.7572815533980581,0.5574060481723221,0.5322901142573262,0.017410062276522753,0.43434343434343436,0.6212121212121212,0.532573983437436,0.43211574430630517,0.05398087788544772,0.22147651006711408,0.7583892617449663,0.43546525703338507,0.48798907103825123,0.032519749796176146,0.316,0.696,0.4890684800128467,0.4914597970335674,0.02755935725694738,0.3828571428571429,0.6457142857142857,0.4922297990638398,0.5903393994084328,0.05572645267812322,0.4220183486238532,0.7889908256880733,0.592956625074724,0.4413287316652285,0.04210709511775765,0.2894736842105263,0.6210526315789473,0.4433274326835862,0.39336501778355254,0.4484963097903859,0.0016218652407808953,0.9985755069852202,0.5961001508504878,0.49196437586663705,0.06275298745947666,0.39893095742631823,0.6287400131081827,0.4959396386305908,0.6322307428852415,-0.7210530622089656,1.0,-0.4228108212228369,0.6422289788092275,-0.7012310443725489
31,0.601167168674697,0.09573131584164332,0.286144578313253,0.7078313253012047,0.6087282516637776,0.700878881987578,0.11093079630981886,0.5895652173913042,0.975652173913043,0.7095878200942729,0.13283754355400662,0.12963142997157587,0.023170731707317066,0.48902439024390243,0.185526582789988,0.22426533676533592,0.12151984302682313,0.13063063063063068,0.4909909909909911,0.25502086924771433,0.8549137409200974,0.018177919401442668,0.8158192090395481,0.9358757062146894,0.8551066314221445,0.5841269301077359,0.032854338903082626,0.49795807242036494,0.6536890824938744,0.5850485027314423,0.6301579352850541,0.0410638546256874,0.5251155624036979,0.7476117103235747,0.6314920842071621,0.6532778257535581,0.03424100380032904,0.4995652319320424,0.7572726107265085,0.6541729666597127,0.6039531017894687,0.020205792416996132,0.479526169551723,0.6704197107345137,0.6042904054736603,0.6241430278712286,0.03179527119565337,0.5023868728641144,0.7458944457003045,0.6249509206825548,0.45354793233082785,0.05158861962338439,0.17543859649122806,0.7543859649122806,0.45646726073377397,0.5551490984743421,0.0409665281048645,0.3786407766990291,0.7864077669902912,0.5566558910811662,0.5311778499278467,0.02931740535130637,0.35858585858585856,0.7121212121212122,0.5319848528583895,0.4304650047938645,0.058817171052844654,0.10738255033557048,0.7583892617449663,0.43445759557912367,0.4879714285714283,0.03171517762356618,0.308,0.724,0.4889991527892164,0.49293877551020404,0.02412638247908376,0.3828571428571429,0.6685714285714286,0.49352778979535916,0.5916284403669727,0.052184053505738036,0.38532110091743116,0.7706422018348624,0.5939213113519838,0.44563909774436056,0.047817465277210515,0.2368421052631579,0.8263157894736842,0.4481926286435333,0.2817273424220009,0.3961551159480218,0.0030899055393530106,0.997980629385363,0.4858280800522863,0.500111822718575,0.08011138843749478,0.41783133552332685,0.7233877975100788,0.5064762673229856,0.5572919854591458,-0.5524840317048643,1.0,-0.5317689088560912,0.7628645005628378,-0.7655585497745991
32,0.64767469879518,0.0407568741428572,0.5481927710843375,0.725903614457831,0.6489506866921123,0.6528417391304356,0.059015607237808854,0.5530434782608695,0.7652173913043478,0.6554931325962975,0.1471853658536583,0.1192079363912084,0.037804878048780466,0.46341463414634143,0.1892543840753262,0.1674894894894901,0.07188829100511478,0.0930930930930931,0.37687687687687693,0.18220862703931295,0.8456711864406777,0.013784290081849736,0.8121468926553673,0.8918079096045198,0.8457830704160685,0.568254832561939,0.03517864651565697,0.4838007078682277,0.6743806153008441,0.5693383368015784,0.6098983050847453,0.024072451165448792,0.47365177195685665,0.6856702619414483,0.6103712866106483,0.6542353377256053,0.04369940775373061,0.526998818322687,0.7748653891174208,0.6556873315948782,0.6049894964714584,0.0222324475367153,0.5334258974387587,0.6837687087626113,0.6053962301149286,0.6194384532531942,0.04124079468329789,0.46042046194965625,0.7938912011488903,0.6208043148225016,0.45514035087719307,0.03474032298247988,0.293859649122807,0.6096491228070176,0.456458981155347,0.5563495145631067,0.025434366109884882,0.47572815533980584,0.6796116504854368,0.5569282733944279,0.5315353535353541,0.010644750177882441,0.494949494949495,0.5808080808080808,0.53164150470169,0.43183892617449715,0.022216178279736556,0.3422818791946308,0.5637583892617449,0.4324077271541178,0.4892159999999996,0.019967678300364007,0.404,0.604,0.4896216988655632,0.4927542857142852,0.015029600605236386,0.4114285714285715,0.5428571428571429,0.4929825264941666,0.588220183486239,0.042643247803556904,0.38532110091743116,0.7155963302752293,0.5897577104688729,0.4428842105263157,0.02209812569092048,0.35789473684210527,0.5,0.4434329687607063,0.15298346978745245,0.2873948863061129,0.0011426222763233351,0.9974156319734016,0.32506826886119206,0.45827719939062234,0.039819793639494575,0.3866450625901131,0.5401930354226183,0.4599970271457651,-0.2014785230132853,-0.6560627652135129,1.0,-0.039551337168979885,0.15888444690464407,-0.7908536084341754
33,0.5262796151047132,0.07113511252518816,0.43373493975903576,0.689759036144578,0.5310547214189172,0.800614726193949,0.0872935621511336,0.586086956521739,0.8939130434782607,0.8053490289560383,0.2183145086484423,0.08424297546882754,0.04146341463414632,0.3170731707317073,0.23397056848167785,0.29020967276000836,0.10606653700572913,0.0930930930930931,0.43993993993994,0.3089443257351228,0.8697872824479583,0.013967614259231575,0.8129943502824859,0.9079096045197741,0.8698991749069785,0.5611204807315732,0.018652895490036726,0.5268173155458754,0.6346310917506127,0.561429733839029,0.6623371699017242,0.03243910331934703,0.584899845916795,0.7130970724191062,0.6631292995556173,0.6629457404563076,0.014055284353408061,0.6273299109282855,0.6976132347859045,0.663094385332005,0.6102391803090735,0.011718146969520041,0.5848356402625164,0.6583635282546352,0.6103514274255172,0.6211461246682026,0.020836639520682203,0.5493464356475141,0.7178470273792269,0.6214947324388717,0.45177400996899525,0.031533398832247844,0.3157894736842105,0.5921052631578947,0.45287071755304165,0.5542234095697318,0.029753535666774793,0.4368932038834951,0.6893203883495145,0.5550197114729534,0.5305516010213972,0.026128439436518925,0.38383838383838387,0.7828282828282829,0.5311931564046194,0.43038601864780907,0.031472452529658086,0.31543624161073824,0.610738255033557,0.4315326458078433,0.48886800894854554,0.020132254007139683,0.384,0.5640000000000001,0.4892814436458804,0.492860338766379,0.016025826506994426,0.4342857142857143,0.5428571428571429,0.49312023491927215,0.586088705539478,0.05478805585671659,0.35779816513761464,0.7339449541284404,0.588638247604993,0.4417402566819731,0.02594361572412209,0.3473684210526316,0.5473684210526316,0.44249973990747,0.46988845987565886,0.4755792339323508,7.551609267852921e-06,0.9998553893361416,0.6681802053131631,0.5654480811151662,0.06417880698775791,0.41741165778193035,0.6394974152700911,0.5690705027663155,0.5736524781243794,-0.3293889218529327,1.0,-0.6573873978894114,0.8908262281601402,-0.7554643468447714
34,0.6579317269076278,0.09382057192167488,0.4006024096385543,0.771084337349397,0.6645773996831493,0.6287615283267474,0.12626263642288998,0.4834782608695651,0.9130434782608694,0.6412949071456239,0.1317498152254256,0.10607170541824304,0.036585365853658514,0.44634146341463415,0.16909220330755687,0.17516835016834972,0.12438423067154168,0.07207207207207211,0.5165165165165166,0.21478348672438283,0.840465673686013,0.02268329536006374,0.778813559322034,0.9180790960451979,0.8407712536350798,0.5800183979737479,0.02802444143275769,0.48080588075142944,0.6196569561666214,0.5806939997555853,0.6042419573236214,0.04359324128747384,0.5106317411402157,0.7322033898305085,0.6058100645637257,0.6541530822758862,0.02508908373454937,0.5060965073631873,0.7342800686710589,0.6546333045630919,0.6053103233130587,0.01707516201967276,0.4861002402309533,0.6547768020111172,0.6055507467653124,0.6258539109698639,0.031074928431271458,0.5262821961889819,0.7618944722949882,0.6266237355426616,0.452385699096226,0.0556748156265587,0.07017543859649122,0.7719298245614035,0.4557936038924454,0.5553398058252446,0.04014183592578633,0.36893203883495146,0.7378640776699028,0.5567865169527477,0.5313437404346456,0.02888925744846353,0.35858585858585856,0.7676767676767677,0.5321273298430771,0.43106569046166404,0.041948154499258566,0.20134228187919462,0.7114093959731543,0.43309884671545495,0.4891696969696965,0.02696259967798239,0.364,0.6839999999999999,0.48991108655272575,0.49237229437229385,0.025092315127548063,0.3542857142857143,0.6571428571428571,0.4930102905292325,0.589380038921324,0.06083998069395202,0.3119266055045871,0.8532110091743119,0.5925071520171578,0.4440111642743221,0.04472730559329931,0.23157894736842105,0.7526315789473684,0.44625487645177375,0.25151144382163265,0.37218696237161014,0.0,0.9990083582388309,0.4489668782826088,0.4438303417875261,0.08921655615861931,0.339738209144482,0.6591425139239726,0.45269515812883243,0.7094902368618514,-0.4643397998365012,1.0,-0.5561559259576753,0.866447124538967,-0.65135274152418
35,0.6091194044470576,0.12250893629260699,0.2771084337349401,0.7168674698795181,0.6212925103260208,0.6430752916224828,0.1666173165319407,0.4817391304347826,0.9999999999999998,0.66426706631883,0.11170930001982946,0.11285877112742711,0.026829268292682895,0.38658536585365855,0.15871415032115463,0.13688993871920643,0.1672189277255543,0.0015015015015015232,0.4654654654654655,0.21597266362620585,0.843100914059986,0.02705160164374616,0.7824858757062148,0.9127118644067798,0.8435339074773204,0.5832270866950441,0.02437107224728596,0.5061257827389056,0.6229240402940377,0.5837350225946061,0.6125659238102393,0.05877213735588516,0.5377503852080123,0.7583975346687211,0.6153731831044245,0.6524084299779154,0.027551440866901946,0.5376241597270994,0.7215644961706966,0.6529887430505323,0.6028713230758538,0.022738921612084503,0.4836102551676754,0.6948285783970681,0.6032991296291471,0.626275335355177,0.03189519552731789,0.5061300745980879,0.7450633618339694,0.6270853462503566,0.45403651404935164,0.04888125172301866,0.293859649122807,0.6973684210526315,0.45665487668834337,0.5555095114057941,0.034225398288475414,0.4174757281553398,0.7184466019417475,0.5565607013623427,0.5308368235197479,0.021652384774186472,0.3737373737373737,0.696969696969697,0.5312773344243559,0.42917553336607217,0.05137450393301342,0.1409395973154362,0.8657718120805369,0.4322332860654331,0.4873170731707316,0.030088347054689355,0.32399999999999995,0.6719999999999999,0.4882431754504961,0.49191637630662005,0.019596350016785977,0.40571428571428575,0.5885714285714286,0.4923057563043442,0.5906615946893419,0.058897496657159945,0.35779816513761464,0.7981651376146789,0.5935848582241317,0.44301454856653805,0.03797421056177904,0.19473684210526315,0.5947368421052631,0.444635805949585,0.29296626525057967,0.3859096639023408,0.0008542682255338607,0.9999630154184723,0.4842032688861314,0.46061714001046195,0.11894835780133114,0.3487689925817219,0.7321849068599365,0.47569749205844636,0.7148408626307806,-0.4887781326768814,1.0,-0.5802077581515277,0.8801105207875519,-0.6217404813516084
36,0.6568924346032781,0.06727903058984826,0.4698795180722888,0.734939759036144,0.6603226353821364,0.5943439091265198,0.10646757846976226,0.4991304347826087,0.8469565217391304,0.6037877139653336,0.10724236431553513,0.11508219152809178,0.02073170731707316,0.48048780487804876,0.15722904505383092,0.08576955333712129,0.08061405951941954,0.02252252252252257,0.36036036036036045,0.11765769687847301,0.8339201913778194,0.019319750491200636,0.7847457627118645,0.9121468926553673,0.8341435522853159,0.5748537538355134,0.03685745386480736,0.46773754424176434,0.637898175878029,0.5760319978152691,0.5940243479226525,0.034680817355176904,0.4536209553158705,0.700462249614792,0.595034047667742,0.6569579838692898,0.035501603236551445,0.5090576680824499,0.7736460876447833,0.6579148010769671,0.6060357299974526,0.02067547134620734,0.47155566678834965,0.6836698745283455,0.6063876737892188,0.6219908564602254,0.02792073732899907,0.4963631770009175,0.7436106272356156,0.6226160843303541,0.4533270112217492,0.034267463819505906,0.2982456140350877,0.6140350877192982,0.45461799612173687,0.5555672177031412,0.039158460054697565,0.33009708737864074,0.9126213592233009,0.5569430451351548,0.5321230321230297,0.03453392748103278,0.3686868686868687,0.9393939393939394,0.5332404379343286,0.4307515569260544,0.04845426685377283,0.12751677852348992,0.8389261744966443,0.43346336577789224,0.4889801801801797,0.029140602202397576,0.304,0.768,0.4898461608109848,0.49266409266409206,0.02161947496417543,0.36571428571428577,0.6342857142857143,0.49313737207094616,0.5891891891891897,0.043942722673012725,0.35779816513761464,0.7798165137614679,0.5908226335550648,0.4445803698435273,0.036588975601498326,0.22631578947368422,0.8,0.4460807619904303,0.12521450412007185,0.2155310954430875,0.002643622223739872,0.9988631756150577,0.2490956139097426,0.4215377676222837,0.06819642624272586,0.35733239978404696,0.5914892960007918,0.42700873802526407,-0.06072862507752352,-0.5213069291766986,1.0,-0.5012627164971469,0.7428620599552928,-0.7908775399192769
37,0.6779973363892616,0.051425243759878864,0.5240963855421685,0.7560240963855422,0.6799398102060227,0.5819067843970048,0.09669556974163009,0.4643478260869565,0.8017391304347825,0.5898656650965867,0.10601605116308219,0.10558429236456367,0.02073170731707316,0.4036585365853658,0.1495285514229375,0.10348008677057481,0.08918715937183724,0.02552552552552556,0.3693693693693694,0.1365358178497487,0.8320995454083343,0.016083434818309473,0.8033898305084747,0.8872881355932205,0.8322545676445372,0.5785461475632994,0.030983178551996615,0.5031309556221074,0.6104002178056086,0.5793730529260296,0.5888252046850803,0.02754226487293274,0.5343605546995377,0.6711864406779661,0.5894673425720951,0.6533091227614969,0.034786910108876745,0.5216854508767823,0.7613652832123786,0.6542322432642388,0.6043895128230774,0.019108873291320896,0.522267193570036,0.6643414053271652,0.6046907420843375,0.6204041147650157,0.022951164225078816,0.5530829887105567,0.6785766525271598,0.6208274055067732,0.45276913363099375,0.0168331016931477,0.33771929824561403,0.5307017543859649,0.45308113320561727,0.5549704245388979,0.026279665332403567,0.4174757281553398,0.7184466019417475,0.5555906924598671,0.5312248448495215,0.016453726990281223,0.40404040404040403,0.7070707070707071,0.531478941225121,0.4303238384430915,0.027765163470609172,0.24832214765100669,0.5570469798657718,0.4312163360493344,0.48784575835475585,0.020951019554287506,0.2,0.584,0.48829427681594695,0.4923393316195367,0.012031651405789356,0.4228571428571429,0.5371428571428571,0.49248594493631326,0.5889719582085333,0.05203916459301811,0.40366972477064217,0.7798165137614679,0.5912605860160457,0.44316060073061836,0.023698313605932008,0.35789473684210527,0.531578947368421,0.4437921634954894,0.12703359608622558,0.22633140829550222,0.0006401491436933693,0.9988302675104832,0.2592908690659353,0.41166468086505476,0.05928508402390704,0.3310835562550643,0.5566183700242084,0.41590082397907574,-0.060007966062730324,-0.44013227831590684,1.0,-0.6155128614497702,0.8006680422821213,-0.8107185968365778
38,0.6584745093912816,0.04921275440361573,0.5451807228915659,0.734939759036144,0.6603069640199895,0.6062616290108203,0.1023053807755268,0.4886956521739129,0.8052173913043477,0.6148143633362229,0.10498988177654743,0.12777427898047566,0.0,0.45487804878048776,0.16526794841902187,0.12822429416315936,0.10680320446248548,0.033033033033033066,0.3438438438438439,0.16680374141020363,0.8375194286137222,0.018642728270349622,0.7957627118644068,0.9084745762711866,0.8377264385091033,0.5828463816567734,0.03749741961574993,0.475632997549687,0.627552409474544,0.5840487060990062,0.599002832708702,0.03140622919615081,0.5164869029275809,0.6647149460708782,0.5998238001447255,0.6546864356403296,0.03612626290448337,0.5125413865756998,0.7995997904194954,0.655680246998918,0.606303970179822,0.018818296308950988,0.5300384337643249,0.6773923065519126,0.6065953011077019,0.6200989278684244,0.034564040336352866,0.4876367964043988,0.715563208914538,0.6210593729844693,0.453918639393244,0.04047586593595212,0.293859649122807,0.8684210526315789,0.4557157555395472,0.5556662568363939,0.04311370237943865,0.3883495145631068,0.7572815533980581,0.5573326850482302,0.5321115080940384,0.03682911141970684,0.3282828282828283,0.797979797979798,0.5333817384933277,0.4307318073913431,0.048340948725895734,0.18120805369127513,0.7785234899328859,0.4334300807922769,0.489196506550218,0.03177933746537944,0.316,0.744,0.49022540043478036,0.49306300686213306,0.028925015051057084,0.2857142857142857,0.6685714285714286,0.49390885644086663,0.5894595569087778,0.06429345080232009,0.22935779816513757,0.8256880733944953,0.5929478827141983,0.44353022293725564,0.03227046978182443,0.31052631578947365,0.6736842105263158,0.444700087830239,0.14954346343701663,0.26943212483377826,0.00024291597744413584,0.999816918943425,0.30789351387539166,0.4331127782577422,0.06349593652479744,0.35315362317882587,0.5647511796352374,0.4377323494245498,0.12517900417133998,-0.45983358667637486,1.0,-0.37970640780497394,0.706837256862922,-0.7404250334596013
39,0.5790068167406438,0.09149316138675932,0.3343373493975901,0.6957831325301203,0.5861792595468635,0.6862099542334097,0.13661819238619763,0.52,0.9739130434782608,0.6996555820823207,0.1173479621309373,0.10344155481527778,0.017073170731707304,0.45731707317073167,0.1563748718282749,0.12218962383436045,0.13680408929488158,0.0,0.394894894894895,0.18334361505210456,0.8506184024680341,0.022191312496317443,0.8084745762711865,0.9254237288135594,0.850907345725589,0.5733638607477038,0.030553928601662464,0.47046011434794455,0.627007895453308,0.5741760391488632,0.6245494079961068,0.046771896563940284,0.5211093990755007,0.7460708782742681,0.6262954377074812,0.6541790783305658,0.029251124917055067,0.5123672006510372,0.7336711146784388,0.6548316482508627,0.6044590521503279,0.018712849614878856,0.5119055399776506,0.6737067460741288,0.6047481628979655,0.6263058623956068,0.03235223680767438,0.5418666808504979,0.7756073560895177,0.6271395211636849,0.45404836103416596,0.04790569078537634,0.2675438596491228,0.7105263157894737,0.45656444755373804,0.5556974961676047,0.041186717702630354,0.30097087378640774,0.8058252427184466,0.5572192233939571,0.5309177299308852,0.02457103274228532,0.3737373737373737,0.6717171717171717,0.5314850690458982,0.4300600494524914,0.040874057113668476,0.20134228187919462,0.6845637583892618,0.4319948921422656,0.4889671052631573,0.019789640930220457,0.392,0.632,0.48936674977921696,0.4929793233082707,0.018209865695810224,0.4228571428571429,0.6228571428571429,0.49331497749886444,0.5899927571221635,0.05306538591388379,0.35779816513761464,0.7798165137614679,0.5923704560209448,0.4437499999999998,0.04318217928046608,0.2578947368421053,0.7421052631578947,0.44584268096002405,0.19042526095439313,0.31426987133146106,0.00036099917730925135,0.9999603072193644,0.36723955219188015,0.48612007878573193,0.09315343668054055,0.3752938320043394,0.6996987246118321,0.49495052425152836,0.34731236471743476,-0.33708956490191094,1.0,-0.30087839686971213,0.8304056455079817,-0.47401843718872366
