,Orientation X,Orientation X,Orientation X,Orientation X,Orientation X,Orientation Y,Orientation Y,Orientation Y,Orientation Y,Orientation Y,Orientation Z,Orientation Z,Orientation Z,Orientation Z,Orientation Z,Orientation W,Orientation W,Orientation W,Orientation W,Orientation W,Accelerometer X,Accelerometer X,Accelerometer X,Accelerometer X,Accelerometer X,Accelerometer Y,Accelerometer Y,Accelerometer Y,Accelerometer Y,Accelerometer Y,Accelerometer Z,Accelerometer Z,Accelerometer Z,Accelerometer Z,Accelerometer Z,Gyroscope X,Gyroscope X,Gyroscope X,Gyroscope X,Gyroscope X,Gyroscope Y,Gyroscope Y,Gyroscope Y,Gyroscope Y,Gyroscope Y,Gyroscope Z,Gyroscope Z,Gyroscope Z,Gyroscope Z,Gyroscope Z,EMG1,EMG1,EMG1,EMG1,EMG1,EMG2,EMG2,EMG2,EMG2,EMG2,EMG3,EMG3,EMG3,EMG3,EMG3,EMG4,EMG4,EMG4,EMG4,EMG4,EMG5,EMG5,EMG5,EMG5,EMG5,EMG6,EMG6,EMG6,EMG6,EMG6,EMG7,EMG7,EMG7,EMG7,EMG7,EMG8,EMG8,EMG8,EMG8,EMG8,Roll,Roll,Roll,Roll,Roll,Yaw,Yaw,Yaw,Yaw,Yaw,Accelerometer X vs Roll,Accelerometer Y vs Roll,Accelerometer Z vs Roll,Accelerometer X vs Accelerometer Y,Accelerometer X vs Accelerometer Z,Accelerometer X vs Accelerometer Z
,mean,std,amin,amax,RMS,mean,std,amin,amax,RMS,mean,std,amin,amax,RMS,mean,std,amin,amax,RMS,mean,std,amin,amax,RMS,mean,std,amin,amax,RMS,mean,std,amin,amax,RMS,mean,std,amin,amax,RMS,mean,std,amin,amax,RMS,mean,std,amin,amax,RMS,mean,std,amin,amax,RMS,mean,std,amin,amax,RMS,mean,std,amin,amax,RMS,mean,std,amin,amax,RMS,mean,std,amin,amax,RMS,mean,std,amin,amax,RMS,mean,std,amin,amax,RMS,mean,std,amin,amax,RMS,mean,std,amin,amax,RMS,mean,std,amin,amax,RMS,corr, corr, corr, corr, corr, corr
0,0.720217378030164,0.02650931791014853,0.6407766990291259,0.7540453074433655,0.7206958833191414,0.9375057524160147,0.042191560367355115,0.8780487804878048,1.0,0.9384367726506707,0.19848008385744234,0.15389217308597872,0.08611111111111108,0.5833333333333333,0.25026046296704896,0.0847808253379463,0.021631055131240046,0.03780718336483931,0.10396975425330812,0.08744634092486579,0.7021641545928983,0.08397663076285461,0.4835589941972922,0.8433268858800773,0.7070739116243341,0.5322388946664686,0.19344619588609993,0.1279527559055118,0.7362204724409449,0.5656797742259715,0.6915618448637315,0.06904490643062686,0.5416666666666667,0.8214285714285714,0.6949352755634414,0.3972816653283501,0.183474183599057,0.1721206807829385,0.6765899864682002,0.4368756698827864,0.5260624197908419,0.11291975200518617,0.316931982633864,0.7409551374819102,0.5378214921782738,0.5778947829206418,0.2269965102366933,0.25022634676324124,0.9663875056586689,0.6200948156505813,0.5519079448345883,0.11857459631240024,0.0,0.9955156950672646,0.5642668098265201,0.5224056603773585,0.1164983516144432,0.21250000000000002,0.8,0.5349985672701677,0.41263330598851516,0.12717073760705114,0.16304347826086957,0.7826086956521738,0.43143192065245106,0.37368972746331225,0.1572826548083315,0.1527777777777778,1.0,0.4048642912626682,0.42930874016414244,0.13804240554140013,0.0,0.8609865470852018,0.45055760840482606,0.42689888727624553,0.10359885161385554,0.1743589743589744,0.8974358974358975,0.43905908238376773,0.6246018132810585,0.11917130183467393,0.15584415584415579,0.8571428571428572,0.6356581359975223,0.5273769885312615,0.11102878314936034,0.0,0.8529411764705883,0.5387219008382759,0.8888888865215911,0.031233666004384136,0.8015445704957007,0.9132797765821363,0.8894271122598376,0.7615612349774165,0.04788155415896603,0.6896090752767152,0.8939189639145086,0.7630366311191077,0.6481000048275245,0.9437385279346461,1.0,0.48733576198315864,-0.6102610443732093,-0.4284860814361104
1,0.8787878787878783,0.03024229842893252,0.7799352750809061,0.9093851132686082,0.8792986429475557,0.428558758314856,0.04263366037169558,0.36585365853658525,0.526829268292683,0.4306357980069938,0.2652525252525252,0.10877675517610241,0.19444444444444442,0.5944444444444444,0.2863147750166188,0.16480494930400408,0.05121196486589604,0.043478260869565216,0.2268431001890359,0.17244028484103952,0.4882363284684369,0.07807693826694324,0.3268858800773693,0.6866537717601549,0.4943277093296828,0.4709735146743021,0.16887551688407532,0.0019685039370078705,0.6850393700787402,0.4998164318447543,0.3003607503607505,0.06921467290084858,0.18452380952380976,0.5119047619047619,0.3080911361820683,0.3368328311609106,0.19172210763385913,0.07802702548171297,0.7105338390287598,0.3867110121885434,0.5873831337981843,0.11262349223897226,0.30969609261939224,0.8328451519536902,0.5978899378359801,0.6187872957734885,0.2477972755092201,0.2342971933001358,1.0,0.6657212480266042,0.5380350591112922,0.127583213815919,0.21076233183856502,1.0,0.5526872960031388,0.5231818181818182,0.10018553915557005,0.3125,0.7875000000000001,0.5325165383688695,0.3934782608695651,0.18829428137868656,0.08695652173913043,0.7934782608695652,0.4354712925164482,0.3669191919191919,0.11841632448755514,0.1388888888888889,0.6666666666666666,0.38522352745581284,0.4319608642478597,0.059672619669822194,0.26905829596412556,0.6143497757847534,0.43598883881382855,0.4256410256410253,0.050342775182020814,0.24102564102564106,0.6153846153846154,0.42855407804901813,0.6566706021251476,0.1320112967897489,0.3116883116883117,0.922077922077922,0.6695718094040428,0.5162210338680927,0.08962569845216713,0.16666666666666674,0.661764705882353,0.5238042299783285,0.8313081839439175,0.01430915737426536,0.8044459980217991,0.8528853950911512,0.8314290865212358,0.3248168439096197,0.06985557402790687,0.24889254700925134,0.5322010488165945,0.3321100113690927,0.3161928060181401,-0.45556805134368156,1.0,0.0015515947102255428,0.0725183912751289,-0.6165142575140052
2,0.9068070868301243,0.019096590311701366,0.8381877022653721,0.9320388349514559,0.9070047361915826,0.34534931789995865,0.030352495851309155,0.2878048780487805,0.41463414634146334,0.3466580600025571,0.2044726930320151,0.12006323825632945,0.125,0.6,0.23660079938919257,0.20130723142481813,0.026681517624389542,0.14177693761814744,0.2325141776937618,0.2030380226648112,0.43910435039176476,0.10570016160731904,0.14313346228239832,0.9148936170212765,0.45143747062073963,0.5898838916321899,0.18566245453533797,0.0,0.8562992125984252,0.6179395650640066,0.22787193973634667,0.054455861850359895,0.08531746031746068,0.35714285714285743,0.2341811266927225,0.39081785499815713,0.2193297384121898,0.1721206807829385,0.9892698545808001,0.44724577348572697,0.5421531065270181,0.13189058805982737,0.16281331403762667,0.8545643994211287,0.5577008924781619,0.5512855249326715,0.21057031841139845,0.25110344047080124,0.9292666364870982,0.5894947548217374,0.5469331914570191,0.05254003742121352,0.3946188340807175,0.7443946188340808,0.5494083946097662,0.5254237288135591,0.10560698177511435,0.2625,0.8,0.5357554463606364,0.4010685335298452,0.16144512545012762,0.010869565217391297,0.7717391304347826,0.4318318254243899,0.36205273069679844,0.11869094302303348,0.0,0.6666666666666666,0.3806979746426944,0.419320513794938,0.11238368015948484,0.06726457399103142,0.8609865470852018,0.43387292552873213,0.43085614950021695,0.11905638931527164,0.06153846153846154,0.8564102564102565,0.4467339263220705,0.6436275588817962,0.098442609663239,0.2857142857142857,0.8311688311688312,0.6509862737444865,0.5114656031904289,0.05710535959838041,0.2450980392156863,0.6470588235294118,0.514589947220969,0.822591065620229,0.013528537681491369,0.7673313313046732,0.8369230731641573,0.8227004196629243,0.23813794139933644,0.03905181733581781,0.16344729068611552,0.35369839726411456,0.24126515571118706,0.05517614189688976,0.7677077318836699,1.0,0.030947288708739088,0.2902649825609667,-0.2743144217224906
3,0.9162239726445621,0.013739912453085625,0.8705501618122975,0.9385113268608407,0.9163250467263269,0.43626323055683386,0.04497857077548108,0.31707317073170715,0.5073170731707322,0.438532218882838,0.09135220125786161,0.14260380124345606,0.002777777777777754,0.525,0.16821823216135975,0.005849413275314765,0.0029487401005627648,0.0,0.01323251417769376,0.00653809192011662,0.4637786942082406,0.05299247441586037,0.33655705996131524,0.5880077369439072,0.4667396432662604,0.5660005942653394,0.19396569095931976,0.007874015748031482,0.7519685039370079,0.5977202522220227,0.25355645402815236,0.05113234874665033,0.1527777777777779,0.373015873015873,0.25856539203183915,0.42777945791531174,0.27215603736198424,0.1965446263507976,1.0,0.5056348946702234,0.4848852360538458,0.14099609986530456,0.1758263386396527,0.784370477568741,0.5045973641073116,0.530383849944908,0.17633482615620144,0.28559302851969215,0.840849932095971,0.5584033672009875,0.5402318301040697,0.030637048356910133,0.4753363228699552,0.6188340807174888,0.5410834954177962,0.5082547169811321,0.0680666827062249,0.36250000000000004,0.7125,0.5127070451543877,0.4034044298605414,0.12695075855822974,0.06521739130434784,0.8695652173913043,0.42254886618761495,0.3603249475890986,0.08524407961678913,0.16666666666666669,0.5972222222222222,0.3700858227345991,0.432185464083256,0.07558735840065997,0.273542600896861,0.6995515695067265,0.43862275726988664,0.4307692307692305,0.06378223712222539,0.12307692307692308,0.5487179487179488,0.43537747524892295,0.6429796618475864,0.06717527537754946,0.4935064935064935,0.8311688311688312,0.6464133517570323,0.5118386977432484,0.06285983836750896,0.3186274509803922,0.6764705882352942,0.5156119256169528,0.9799843916148492,0.03168982639926333,0.8786783745024505,0.9999999999999998,0.9804869733378611,0.27648281293832994,0.021855951982024342,0.22926011472788588,0.32346043884774556,0.27732907457997963,0.18027577522195798,0.973038907224032,1.0,0.2562120346016856,0.11225919766598236,-0.03616365219277459
4,0.8791801510248106,0.022701215530665828,0.8446601941747569,0.915857605177993,0.8794670811261361,0.5005081300813008,0.04919120898118007,0.41463414634146334,0.5560975609756098,0.5028695172094736,0.21464120370370374,0.05153520344795931,0.1333333333333333,0.325,0.2206159394670148,0.0889256458727158,0.02401276524567405,0.04725897920604915,0.11909262759924383,0.09204548125781631,0.5271598968407479,0.051540793817575745,0.39071566731141205,0.6131528046421666,0.5296212490872675,0.47244094488188976,0.08420279048167408,0.23228346456692905,0.5964566929133859,0.4797320561546394,0.3237020502645504,0.10309012920104664,0.06944444444444442,0.4761904761904763,0.3393953215309633,0.24029565870641076,0.2151933791929165,0.060149802740665864,0.8921934856772571,0.3210692138370445,0.46994066570188125,0.10234553565468006,0.2908827785817656,0.683068017366136,0.48072925533489724,0.46763182341180015,0.16825420655513493,0.1759563150746944,0.8240436849253054,0.4963861596567605,0.5543721973094171,0.09849682920103109,0.24215246636771304,0.7757847533632287,0.562874800748153,0.5463541666666667,0.20354175060067814,0.0,1.0,0.5822963252646085,0.40353260869565216,0.10653790301950412,0.17391304347826086,0.6847826086956521,0.417076043379301,0.38512731481481494,0.142239131658757,0.06944444444444448,0.7222222222222222,0.4100408757728024,0.4382473841554561,0.19594452844391613,0.017937219730941756,1.0,0.47922348394718406,0.4536324786324785,0.17785386798907674,0.035897435897435936,1.0,0.48657519877519073,0.6190476190476191,0.1827892854741568,0.0,0.961038961038961,0.6449308457547411,0.5164419934640524,0.08400542239045702,0.3970588235294118,0.8088235294117647,0.5230891172880049,0.894226849473792,0.02548886649138851,0.8544390010626655,0.9356304097440986,0.8945824755642211,0.36227733765451303,0.054310534266302585,0.27456559134236413,0.4344397251834089,0.36624179553847197,0.27152787883741125,0.4380508663185792,1.0,0.04623770883640176,-0.3552551925942195,-0.17015687500452725
5,0.8934627831715213,0.00938044334940168,0.8705501618122975,0.9093851132686082,0.8935110395376672,0.22370731707317087,0.02961483904634334,0.17560975609756113,0.2780487804878049,0.22562017115050292,0.3108888888888888,0.036290935479598434,0.28611111111111104,0.4527777777777777,0.3129578128000523,0.31587901701323245,0.029013239934328902,0.23629489603024575,0.35160680529300564,0.3171821024567799,0.4175241779497098,0.08044361339664395,0.26305609284332676,0.5764023210831721,0.4250508094453692,0.5184645669291339,0.07099089355099733,0.30118110236220474,0.6771653543307087,0.5232059059193043,0.18500000000000016,0.03750624473450747,0.0992063492063493,0.2876984126984128,0.18868912005254337,0.28632335283691324,0.10571763428607646,0.18701518992166802,0.6581219386685471,0.30485038332735487,0.5462230969609262,0.11266786119716371,0.27279884225759776,0.8256208393632417,0.5574942489940088,0.513630036215482,0.22238838964225896,0.081343368039837,0.9292666364870982,0.5588231187356524,0.535695067264574,0.07743872077910306,0.3452914798206278,0.6591928251121076,0.5411524974145295,0.5130000000000001,0.09764314452878599,0.325,0.675,0.5220272981367929,0.40565217391304353,0.15132288334078417,0.16304347826086957,0.9673913043478262,0.43242840901413426,0.356111111111111,0.10135607365082178,0.05555555555555558,0.5694444444444444,0.3699766425727206,0.4330044843049328,0.06643372041255483,0.26905829596412556,0.6188340807174888,0.43797038010792144,0.4245128205128202,0.09080283903614307,0.0,0.5641025641025641,0.43392555495756807,0.6251948051948051,0.14447461549535343,0.18181818181818177,0.8831168831168832,0.6413454612567631,0.5252941176470589,0.097464099445203,0.23529411764705888,0.7450980392156863,0.5340816189513109,0.7221030180983385,0.012606814899143962,0.7011761410985786,0.7472764719169198,0.7222108569476041,0.1820574926563694,0.03389036774490903,0.13733176010269954,0.27675366270377033,0.18512297674165526,0.4181447701141014,-0.6596854596512192,1.0,-0.11005628545612141,-0.021190837641825902,0.1895721471381568
6,0.7787403534976345,0.02317907672313814,0.7152103559870548,0.8025889967637538,0.7790799330474628,0.5840900562851782,0.030160153062378126,0.5414634146341464,0.653658536585366,0.5848562509727725,0.23380341880341884,0.1073288200131405,0.1472222222222222,0.5333333333333333,0.256916896190107,0.36259997091755125,0.02810596885942705,0.30245746691871456,0.39886578449905474,0.36367091083487335,0.5706591281059366,0.09984115590940532,0.26692456479690496,0.8220502901353965,0.579194905979826,0.7265899454875832,0.16054554226476803,0.34055118110236215,1.0,0.7438489655472027,0.4172771672771673,0.06699176673484167,0.32738095238095255,0.6130952380952381,0.4225388580649132,0.323606906349097,0.13557825280131236,0.1346032895614553,0.6378814156930759,0.350456988426083,0.5470988311254593,0.14304025939598833,0.19102749638205502,0.8111490593342982,0.5652104649249139,0.5283647316920289,0.14194002019413277,0.24049343594386596,0.8284574468085105,0.5468146904156391,0.5481890307002415,0.08536401379541075,0.34080717488789236,0.7713004484304933,0.5546946189666389,0.5311538461538463,0.13293419198625486,0.2375,0.875,0.5472878935821059,0.41020066889632123,0.160593882408047,0.0,0.9782608695652173,0.4400661410755859,0.3724358974358973,0.09219035449167685,0.16666666666666669,0.625,0.3835059378529504,0.42200758882373224,0.171242556258477,0.026905829596412578,0.9372197309417041,0.45493217014856396,0.43526627218934894,0.13417053387393293,0.12307692307692308,0.8769230769230769,0.455171956671421,0.6459540459540462,0.13024048092537813,0.2727272727272727,1.0,0.6587550755346521,0.5169683257918553,0.11253202413249931,0.19607843137254904,0.8627450980392157,0.5288902380649371,0.7018054401599632,0.013801836483298982,0.6597808591381087,0.7173753800319009,0.7019390542649884,0.4648802267132038,0.07105850757428858,0.3932226905578091,0.6373740063942381,0.47019703845541233,-0.13626580394988475,0.7086862834275821,1.0,-0.3407305549915682,0.3026382669137398,-0.7345058271980051
7,0.9838834951456309,0.013117045521195008,0.9611650485436889,1.0,0.9839691802925149,0.19200000000000017,0.0354752431930038,0.1414634146341467,0.2634146341463415,0.1951853555521284,0.05761111111111109,0.03672644237691562,0.013888888888888867,0.18611111111111112,0.06812411512620471,0.11493383742911155,0.019804171879340134,0.09073724007561434,0.15122873345935728,0.11659394540683214,0.32448742746615084,0.07813203299680117,0.17601547388781436,0.5454545454545456,0.333578495818015,0.6855118110236222,0.0602096160313336,0.4940944881889764,0.7716535433070866,0.6880982029901502,0.08829365079365091,0.05205589733512465,0.0,0.2619047619047621,0.10223203455321093,0.28797880653338154,0.1374338496653445,0.15067944881739692,0.6426461339076407,0.3184997563351511,0.5119532272069462,0.1279224655146267,0.211287988422576,0.7677337192474675,0.527383144295759,0.4728884676324128,0.11244190893831674,0.2581767768220914,0.641014033499321,0.48581253796882434,0.5400896860986547,0.02724173348361792,0.47085201793721976,0.6053811659192825,0.5407625530974496,0.5072500000000002,0.049557351850648565,0.375,0.6125,0.5096168904186753,0.3969565217391305,0.10557270591735904,0.17391304347826086,0.7608695652173914,0.41048406115371594,0.35583333333333345,0.06974933071938733,0.18055555555555558,0.5416666666666666,0.3624707310448632,0.43255605381165924,0.12611563292199887,0.1883408071748879,0.7533632286995515,0.45021304901022696,0.431076923076923,0.078085822302441,0.24615384615384617,0.6205128205128205,0.4379529213753722,0.6358441558441558,0.08001259706480712,0.2857142857142857,0.948051948051948,0.6407587423488197,0.5193137254901963,0.10146771264819451,0.25000000000000006,0.7794117647058825,0.5289390591158516,0.9157526346701158,0.015537637494933098,0.8869080254985768,0.9333293315963294,0.9158818033570733,0.062382614173124434,0.03475534806356677,0.013235018958708045,0.12652937665306419,0.07124160361552924,-0.34710904380884394,0.2723482896163682,1.0,-0.29702675708772164,0.3559231545638723,-0.31870895226413937
8,0.9619741100323619,0.02887952361447975,0.9126213592233006,0.9967637540453067,0.9623976621440306,0.19977827050997796,0.07234515955348676,0.102439024390244,0.3219512195121952,0.21219384763997934,0.171969696969697,0.045579884873102536,0.1111111111111111,0.23888888888888887,0.1777748184728443,0.1604657157587214,0.023901684234629957,0.12854442344045366,0.20037807183364836,0.16219603129546803,0.3383154563038509,0.08509086083440251,0.11605415860735002,0.516441005802708,0.3486161883580778,0.557936649964209,0.04709009748502397,0.41929133858267714,0.6220472440944882,0.5598753302687111,0.12982503607503626,0.0733988515261129,0.001984126984127199,0.2777777777777779,0.14872622728852772,0.20518111127089755,0.08941981500052847,0.11017934399359622,0.42286874154262516,0.22341321953222562,0.4702176029469806,0.1589066168491778,0.24674963820549933,0.8451519536903038,0.49576407042578774,0.4106759794641755,0.1463872477279982,0.0406716840199185,0.6109665006790402,0.43542732865065237,0.5381165919282512,0.076407816516963,0.2376681614349776,0.726457399103139,0.5433920643564161,0.5178977272727273,0.06917273454199215,0.21250000000000002,0.6125,0.5223927412745737,0.3972332015810276,0.07488412765683368,0.1956521739130435,0.6195652173913043,0.4040722742509732,0.3519570707070707,0.07482053258575723,0.20833333333333334,0.5416666666666666,0.3596451888969811,0.42478597635548315,0.09354191216753777,0.17937219730941706,0.6457399103139014,0.4347348034993345,0.4257575757575757,0.0868490608322641,0.1743589743589744,0.6871794871794872,0.4343280400033528,0.634297520661157,0.13612088622649052,0.20779220779220775,0.8701298701298701,0.6484143190266661,0.5164884135472373,0.06866075432153548,0.303921568627451,0.6372549019607844,0.5209293976627459,0.8611625111352317,0.02686919539752888,0.8178621689495273,0.8945008963638783,0.8615720609492229,0.0979160572903996,0.07572991814127837,0.0,0.22456480300331783,0.12325677832047711,-0.3448140373755486,0.5145914274524267,1.0,0.10993451350101295,0.393219514340759,-0.43616758629663765
9,0.8550724637681155,0.026694729419425686,0.8025889967637538,0.89967637540453,0.8554800029120545,0.12205726405090153,0.03283569248901508,0.06341463414634174,0.18048780487804894,0.12630407615928338,0.37427536231884057,0.030482149663082228,0.3138888888888889,0.42499999999999993,0.37548769503815577,0.44480973124024004,0.02637145387399462,0.4045368620037807,0.49905482041587906,0.4455738233215325,0.36683205785888484,0.12054580249576456,0.12572533849129575,0.620889748549323,0.38572159850438903,0.5225094145840465,0.0762620231363891,0.3464566929133858,0.655511811023622,0.5279257068720195,0.17658730158730176,0.06150864766045047,0.05158730158730185,0.34325396825396814,0.18677297146026614,0.2004162706426238,0.10582062011479323,0.027997484228782704,0.4627684918713907,0.22610008915965846,0.4703174982696786,0.18067589212680857,0.0,0.8574587554269175,0.5031229271527307,0.46599355157753847,0.15765985777858066,0.0,0.7656886600271615,0.4913921644964063,0.543283291089881,0.08134598580143118,0.3542600896860987,0.7219730941704036,0.5492085690105653,0.5309782608695653,0.10934588121703732,0.22499999999999998,0.75,0.5418805319159984,0.4113894139886579,0.16269636789090147,0.09782608695652173,0.8043478260869565,0.44174191665912005,0.3614130434782608,0.10823789442899219,0.125,0.625,0.376935201685194,0.4326379411191265,0.07649790860605821,0.21076233183856505,0.7040358744394619,0.4392041692047945,0.4293199554069118,0.06203656950186211,0.2,0.5794871794871795,0.4336824832075091,0.6620553359683795,0.11784084552737717,0.2987012987012987,0.8701298701298701,0.672236456232198,0.5220588235294118,0.11155596261553578,0.24019607843137258,0.7254901960784315,0.5335912390121619,0.6182069654192324,0.02574373707440904,0.5665169672331967,0.6610300743053521,0.6187311085602044,0.14372073290331674,0.04436290587644526,0.0602783990121174,0.2263539626375879,0.15026953253992908,-0.24515476207031878,0.29851060731264784,1.0,-0.37157183809136607,0.4417621683146638,-0.5293048467429595
10,0.7176203263788472,0.04114903280873738,0.6569579288025884,0.7928802588996762,0.7187740599718896,0.5365853658536586,0.06305469265515076,0.4292682926829272,0.6341463414634143,0.5401991814313702,0.3123522458628842,0.028825695647261437,0.25833333333333325,0.37222222222222223,0.31365134633965414,0.49756666532598637,0.02823991217895834,0.4404536862003781,0.5311909262759923,0.4983503899416447,0.5607638174410469,0.08524467723071695,0.342359767891683,0.7350096711798841,0.5670697525582328,0.789956441615011,0.08588940298918414,0.5787401574803149,0.9566929133858268,0.7945131918165419,0.43389057750759885,0.07032750484290323,0.2757936507936509,0.5476190476190478,0.4394334512070074,0.19605132595011512,0.06379380680735904,0.05002954125293027,0.283500733766605,0.20595918018003734,0.4194360316531698,0.13823123756902447,0.010848046309696047,0.6780086830680173,0.4411665322257118,0.48062989414676893,0.10905496394794127,0.2095405160706202,0.6463331824354911,0.4925901319268773,0.538116591928251,0.050448972073087864,0.3946188340807175,0.6457399103139013,0.540426141349367,0.5226063829787235,0.06110610303347036,0.42500000000000004,0.6625000000000001,0.526091191229583,0.43963922294172086,0.10598725206971757,0.2282608695652174,0.7065217391304348,0.4519700627454738,0.3838652482269503,0.07419870370023005,0.25,0.5694444444444444,0.390820725196987,0.43974811563782074,0.15275397579144875,0.07174887892376686,0.905829596412556,0.4649900203059502,0.43720676486633914,0.10668675356010414,0.22564102564102567,0.8051282051282052,0.4497662137918964,0.6385741917656812,0.07073577834417964,0.44155844155844154,0.7792207792207793,0.642397143680855,0.515957446808511,0.048531974463521116,0.3921568627450981,0.6127450980392157,0.5181865741010103,0.5907700160786812,0.025906623374700344,0.55901787502566,0.6439825856109871,0.5913257014356424,0.46055154850472346,0.06622254242846898,0.3414028502665709,0.5755838773738748,0.4651879695759782,-0.2746038386104123,-0.22379495831322832,1.0,0.12013199686582371,0.37839846923077686,0.3178986673221939
11,0.9441588933307947,0.021357684923072825,0.8867313915857604,0.9676375404530742,0.9443956916618308,0.25078909612625566,0.044163736991397244,0.18536585365853675,0.37073170731707306,0.25457290225846907,0.026470588235294093,0.03574754131740604,0.0,0.125,0.04419866683057963,0.2501575299306868,0.02342113560531845,0.22873345935727787,0.3043478260869565,0.2512301405080446,0.334016004854553,0.10630803774763602,0.0,0.6653771760154736,0.3502092150873357,0.8432530492511965,0.053492566254367685,0.6929133858267716,0.9822834645669292,0.844914819826298,0.13223622782446334,0.06902346723357869,0.01984126984126977,0.35515873015873023,0.14885309041682787,0.20071291395591564,0.08367956996813894,0.0405001048238007,0.37045684118241246,0.21714199234263823,0.46943911920774084,0.17093745564011031,0.1367641099855283,0.9522431259044862,0.4990188040349735,0.44308876787473706,0.07272672530268948,0.30149388863739246,0.6074298325033951,0.4489021312551677,0.5374131715466456,0.06687103141166324,0.21524663677130046,0.6816143497757847,0.5414766575934271,0.5156862745098038,0.08462576208131387,0.1375,0.7250000000000001,0.5224494534139633,0.4057971014492753,0.09093264574261398,0.1847826086956522,0.6630434782608696,0.41566561239855365,0.36846405228758156,0.08635060518172726,0.2361111111111111,0.5972222222222222,0.37825385707505593,0.4350655060230371,0.05429150923753003,0.31390134529147984,0.5964125560538117,0.4383740036268964,0.43157365510306667,0.02659502306995863,0.38461538461538464,0.5282051282051282,0.432376278832174,0.6541889483065956,0.08278997335670724,0.3506493506493506,0.8311688311688312,0.6593049098063268,0.5219146482122261,0.09796248439030364,0.1225490196078432,0.8431372549019609,0.5308515600344063,0.8270790710178603,0.023450285206569183,0.7693898793285476,0.8465312039941681,0.8274049328640698,0.11012698486259405,0.0457281735391555,0.04901418799035251,0.23825126645764572,0.11907148003982385,-0.09247420518491821,0.009675396513304025,1.0,0.3917426708532071,0.1212181793385979,-0.12313754020107306
12,0.8243527508090613,0.030971584359817162,0.7831715210355985,0.8867313915857604,0.8249198238788298,0.4778048780487805,0.054543277420709226,0.37073170731707306,0.551219512195122,0.4808306316897954,0.2795138888888889,0.04719367119123591,0.20833333333333331,0.3361111111111111,0.2833717974980643,0.3165879017013232,0.020997795686975,0.2703213610586011,0.34593572778827975,0.3172661095070916,0.508220502901354,0.057359900034093275,0.342359767891683,0.5822050290135397,0.5113667800590181,0.60625,0.08975267390593125,0.421259842519685,0.7992125984251969,0.6126934114313887,0.3625496031746033,0.06591178519767746,0.23611111111111116,0.48809523809523825,0.36834490508802814,0.1786328594026949,0.06851417713593043,0.06849758905258341,0.3031504316834702,0.19101449189860253,0.4250005788712012,0.11533253844476972,0.2301013024602026,0.6931982633863965,0.43999380291586787,0.47011267824807607,0.17958751884097682,0.17949298325033947,0.7347498868266183,0.5024453355838332,0.5406950672645737,0.02760368043821289,0.484304932735426,0.6367713004484306,0.541381630514588,0.5106249999999999,0.0533005207556222,0.36250000000000004,0.625,0.5133301203903781,0.3891304347826088,0.1033290568740194,0.15217391304347827,0.6086956521739131,0.4022840624716751,0.3569444444444444,0.07437616463052661,0.1527777777777778,0.5138888888888888,0.36442126027205324,0.4233183856502243,0.017047014307564536,0.34977578475336324,0.4663677130044843,0.4236529137264303,0.42461538461538473,0.01734982817502608,0.35384615384615387,0.46153846153846156,0.4249608405210195,0.6392857142857145,0.09133563886355926,0.2727272727272727,0.9090909090909092,0.6456158830475324,0.5113970588235296,0.01878579401681075,0.4509803921568628,0.5490196078431373,0.5117333633629699,0.7241161430858614,0.023241805127809715,0.6943734121146037,0.774869861116884,0.7244797206585583,0.38690517390853807,0.06581264106372711,0.26398252403209677,0.46624333304953525,0.39232465475405,-0.5582275095286338,-0.06809474741877164,1.0,0.3120256166891818,0.48230762927199744,-0.22008133562252966
13,0.7672060409924484,0.0336914526652715,0.7022653721682843,0.8187702265372163,0.7679290322437561,0.18081300813008147,0.05069843698407045,0.11219512195121983,0.2878048780487805,0.1876341038927046,0.444320987654321,0.022063476203158752,0.4083333333333333,0.48611111111111105,0.44485629066201116,0.5470279353077083,0.023261576017445783,0.5028355387523628,0.5822306238185254,0.5475113135460921,0.4175800558779282,0.07081213418099805,0.2959381044487426,0.584139264990329,0.4234100036947479,0.5569991251093614,0.06799950909944473,0.42322834645669294,0.7066929133858267,0.5610429614017174,0.25114638447971777,0.06846935618942636,0.14087301587301626,0.39484126984126977,0.26011224543361633,0.2055971674279627,0.059678882280405694,0.10661533476910173,0.32876555680497055,0.21389861679561983,0.4407468724875383,0.09046963283143039,0.2481852387843705,0.6353111432706223,0.4497340065412578,0.49299362456616863,0.15260457436018385,0.10786837935717519,0.6984919646899048,0.5155709023967445,0.5424015944195317,0.025366258674240333,0.484304932735426,0.5964125560538117,0.542981250029868,0.5177777777777777,0.05555050482091578,0.375,0.65,0.5206833117271104,0.4065217391304347,0.05316903432157784,0.28260869565217395,0.5217391304347826,0.4099073670592152,0.363888888888889,0.04724821031771163,0.25,0.4583333333333333,0.3668758755945646,0.42471350274040875,0.016576557214420584,0.33183856502242154,0.4394618834080718,0.4250296876535899,0.42678062678062667,0.006640516120970156,0.4102564102564103,0.4358974358974359,0.426831137486957,0.6395382395382393,0.019803608730412352,0.5974025974025974,0.6883116883116883,0.6398379697817611,0.5139433551198257,0.01726650589309303,0.46568627450980393,0.553921568627451,0.5142268753546505,0.5265915976901202,0.023024364023268098,0.488255460200532,0.5678581093082962,0.5270835338182331,0.2439086167519288,0.05739931581295319,0.16050613090123966,0.3610968437150148,0.2504253973505328,-0.616575122317278,-0.6563655994356694,1.0,0.39081796915876527,0.6315780547497591,0.5266527328816755
14,0.6378775620280476,0.04305410426729027,0.5469255663430421,0.6860841423948214,0.6392986956047804,0.5899390243902438,0.0509572076044939,0.5414634146341464,0.7121951219512193,0.592090020943649,0.33564814814814814,0.036928525042637605,0.28611111111111104,0.39722222222222214,0.3376314330270527,0.5899889729048517,0.0265832409752798,0.5538752362948959,0.6332703213610584,0.5905750880163104,0.5820438426821405,0.11919480687619272,0.3346228239845259,1.0,0.593874102187547,0.8459235564304465,0.06823296598437548,0.6830708661417323,0.9783464566929134,0.8486138146628572,0.4688740079365082,0.07529138658525701,0.3392857142857144,0.6805555555555556,0.474756283118421,0.19562602838501467,0.04501840611964151,0.10779698488631381,0.3085155043930702,0.20063393993219386,0.4363393632416786,0.16433688895478293,0.08610130246020259,0.9500781476121563,0.4656565421135741,0.47024836841708173,0.06686959339857927,0.3253734721593481,0.5959285875961973,0.4748809465375068,0.5403587443946188,0.023365309879595574,0.4753363228699552,0.5874439461883408,0.5408531562700684,0.5184895833333333,0.07361259212235112,0.275,0.65,0.5235812924385923,0.4048913043478261,0.10584846412451719,0.10869565217391303,0.6630434782608696,0.41821938162371375,0.3660300925925927,0.1011527977339504,0.08333333333333337,0.8611111111111112,0.37946904067290943,0.42759715994020947,0.04157019048067329,0.33183856502242154,0.6547085201793722,0.4295711934517023,0.4253205128205127,0.03259548899604721,0.26153846153846155,0.558974358974359,0.42654175624724616,0.640151515151515,0.02678458037518316,0.5584415584415584,0.7662337662337663,0.6406999531582233,0.5159313725490197,0.022486354309446923,0.44117647058823534,0.5833333333333334,0.5164109635013578,0.5200842611260207,0.028156279015233546,0.47369861580835315,0.5565482120479983,0.5208300092653225,0.5191348417289248,0.06040832568094897,0.4608352420199944,0.6576809776040735,0.5225649485190815,-0.2059988623900589,-0.17752351309985043,1.0,0.30607609996489143,0.28768436655360935,0.44786304580114455
15,0.7478670197116795,0.03684483434517225,0.7055016181229772,0.8220064724919092,0.7487534759633631,0.6080931263858094,0.07510724036128065,0.45365853658536626,0.6878048780487802,0.6126092891474536,0.20814393939393944,0.04535721985297336,0.13055555555555554,0.27222222222222214,0.21291881221450878,0.42954115827461764,0.009313300501693926,0.4083175803402646,0.44234404536862,0.429639817649402,0.5607086337260415,0.07529056293924646,0.42359767891682765,0.6982591876208897,0.5656270921899659,0.8350930565497495,0.07174557532108342,0.6614173228346457,0.9625984251968505,0.8380995487919939,0.43727453102453107,0.09360645499440118,0.28174603174603186,0.64484126984127,0.44695865995420175,0.22544372521263628,0.08723274188433258,0.09112047113533706,0.37700356400922447,0.2413741497088432,0.4346799105380871,0.14536299891688717,0.2395021707670043,0.7120115774240231,0.45781741959303607,0.41811005596938156,0.03806829054321972,0.3342151425984608,0.5136939791760977,0.41980028275764697,0.5441296371789646,0.034761428414566614,0.4618834080717489,0.6098654708520179,0.5452136794918037,0.5133522727272729,0.1087186779028661,0.08750000000000002,0.65,0.5244822934440816,0.40489130434782616,0.02392051082966896,0.34782608695652173,0.44565217391304346,0.405581255530382,0.365530303030303,0.02216820131122249,0.3194444444444444,0.4027777777777778,0.36618665013691587,0.4265185487158582,0.007186344298330289,0.40358744394618834,0.4439461883408072,0.426577709481096,0.427039627039627,0.006388263894541463,0.4153846153846154,0.44102564102564107,0.4270863208762936,0.6472845336481698,0.027860119892569344,0.5844155844155844,0.7272727272727273,0.6478702132242806,0.5133689839572194,0.04384910462411928,0.43137254901960786,0.5980392156862746,0.5151958452267154,0.663253817747452,0.01718367966179613,0.6384223386127605,0.6961435408507222,0.6634713217015558,0.4740495284590738,0.0822686979599389,0.3111270397258463,0.5692166884480809,0.48097533488009586,-0.707737533358871,0.37207662005611736,1.0,-0.6465290423279596,0.6520963089658507,-0.22800213380633153
16,0.7405494732493284,0.013635701211899465,0.7249190938511325,0.7669902912621356,0.7406723288134932,0.5763362740010379,0.02846146175568673,0.5219512195121951,0.6195121951219513,0.5770236739736484,0.31843971631205664,0.015241233543180526,0.28611111111111104,0.3388888888888889,0.31879649570495416,0.42557213530145205,0.004346879397733238,0.4177693761814744,0.4328922495274102,0.4255938623577519,0.5704761512819455,0.04880358611245491,0.4893617021276597,0.7659574468085106,0.5725156354332582,0.6964734461383817,0.06399992758821617,0.44291338582677164,0.7755905511811024,0.6993454819816931,0.45626477541371163,0.04434898183450658,0.34325396825396814,0.5357142857142858,0.45836942522345775,0.23843825918688366,0.04802618292616588,0.1673559625683737,0.3710571956774476,0.24312598158018364,0.4821728607937926,0.12253252537514245,0.2836468885672938,0.8559999999999999,0.4971774692967387,0.41394157604769644,0.0648236851181889,0.282056360344047,0.5269635581711181,0.41887985381749726,0.5403110390229939,0.015246417154197207,0.5022421524663677,0.5695067264573991,0.5405215317752053,0.5156914893617022,0.09015641921679485,0.1375,0.6875,0.5233478309190356,0.406105457909343,0.047076175828355514,0.2173913043478261,0.5869565217391304,0.4087672403694551,0.3569739952718676,0.031580697039994436,0.20833333333333334,0.4027777777777778,0.35833860204677564,0.42677225455586304,0.013430772345508988,0.36771300448430494,0.484304932735426,0.42697904505025464,0.4262956901254772,0.006470576510394106,0.40512820512820513,0.44102564102564107,0.42634374976508765,0.6394031500414477,0.02543378974328534,0.5714285714285714,0.6753246753246753,0.639898040776145,0.5138715060492285,0.016300294290103434,0.46568627450980393,0.5637254901960784,0.514124470474219,0.6387146462693958,0.005870866620025697,0.6293924589431912,0.6499457878330801,0.638741053238236,0.49502362539878375,0.03140164419557485,0.432512802857997,0.539149139809453,0.4959974525053709,0.08878968620614494,0.08694713020000464,1.0,-0.11791666142227027,0.12110839109393771,0.030830608332735283
17,0.6732200647249188,0.026832157788604233,0.6213592233009706,0.7216828478964397,0.6737412122785177,0.26219512195121963,0.03331883941818502,0.204878048780488,0.326829268292683,0.26425115592686693,0.4768749999999998,0.02729920723634353,0.4277777777777778,0.5222222222222221,0.47763624357123424,0.6416824196597354,0.012955760342719853,0.6181474480151228,0.6672967863894139,0.6418099275745734,0.47833655705996125,0.0971612825107666,0.33849129593810434,0.6692456479690523,0.4878628585664584,0.6183070866141733,0.07797783614795062,0.47834645669291337,0.7716535433070866,0.6230828056641954,0.3155257936507937,0.08668368239796177,0.13095238095238115,0.46825396825396837,0.3269292518775006,0.2194898416207665,0.09128708414915561,0.061350511730736246,0.44192761440088435,0.23727787299673103,0.4829235890014473,0.19131834793578334,0.16931982633863968,0.8820492040520984,0.5185584203486567,0.4170163252602987,0.16932431283132118,0.0035366681756450746,0.6224535989135355,0.44928450938854714,0.5378923766816144,0.03831997360260522,0.4260089686098655,0.6098654708520179,0.5392215859548628,0.5153125000000001,0.08662509018754326,0.2875,0.65,0.5223631698827934,0.4048913043478263,0.020704182591274087,0.3695652173913043,0.44565217391304346,0.4054070977842364,0.36284722222222227,0.025780684180146483,0.3055555555555556,0.4166666666666667,0.3637391019113277,0.4266816143497758,0.00654580924781545,0.4080717488789238,0.43497757847533636,0.4267305665784581,0.4262820512820514,0.007176434027242158,0.4102564102564103,0.44102564102564107,0.4263409444569535,0.6422077922077922,0.021197504937326517,0.5714285714285714,0.6883116883116883,0.6425487913245076,0.5113970588235296,0.021507623748723,0.4558823529411765,0.553921568627451,0.5118378309637636,0.44834896487760884,0.016759925908703944,0.4172236993614067,0.4790655237342518,0.44865428455033945,0.3399483901992502,0.044630625810042665,0.2593179711227396,0.4257305671048015,0.34279294543536454,-0.4087054217013382,0.010782956760065146,1.0,-0.02796510655375576,0.5269003480872585,0.35638393075700336
18,0.4448305229092147,0.0778572650358626,0.33333333333333304,0.566343042071197,0.4515220259263848,0.7177406931964058,0.08720782573020186,0.4829268292682931,0.8634146341463413,0.7229639359958111,0.5510818713450294,0.06461745995433366,0.45000000000000007,0.6666666666666665,0.5548177117822957,0.6924883096209332,0.03242163505449333,0.6162570888468808,0.7240075614366729,0.6932388884891625,0.7089891071973936,0.09293406492567596,0.43326885880077337,0.9671179883945844,0.7149904765037622,0.8005801906340659,0.09311131812727867,0.38188976377952755,0.937007874015748,0.8059200326423201,0.698893065998329,0.13489850592728692,0.4365079365079365,0.9285714285714285,0.7116583245105071,0.24160291139329382,0.1257075651251801,0.08635575292077224,0.5711753606891689,0.27204414670368504,0.43899763881483705,0.15124709150265098,0.18379160636758324,1.0,0.46406229421613204,0.47309407090610167,0.1322296127945099,0.20600384789497508,0.8664837030330466,0.4910383093640842,0.5401935331602546,0.022562390493091704,0.4798206278026906,0.600896860986547,0.5406595566446484,0.5096052631578946,0.07860258558957318,0.275,0.8,0.5155684777632918,0.3946224256292908,0.13421587232750867,0.03260869565217395,0.9565217391304348,0.4165946941454373,0.3568713450292397,0.07282193509219932,0.125,0.5972222222222222,0.3641488290803607,0.42610337502950196,0.022799776216464014,0.36322869955156956,0.5650224215246638,0.4267065081698061,0.42677462887989165,0.011299370413657054,0.38974358974358975,0.47692307692307695,0.4269226108697249,0.6408749145591248,0.03219105387889845,0.5194805194805194,0.7142857142857143,0.6416743816137768,0.5116099071207431,0.026944685825765702,0.44117647058823534,0.6421568627450981,0.5123114979030515,0.3872419398040718,0.03872086138877702,0.34109222844201437,0.44782001213841083,0.3891527243780921,0.7686285567785358,0.11039963262045102,0.6007710555937757,0.9818003524495069,0.7764339261076881,-0.3558703333451889,-0.14902330855655888,1.0,-0.10575419172032412,0.4355859454077254,0.2740497773738625
19,0.5482919813016899,0.02570069910847265,0.5177993527508087,0.6213592233009706,0.5488806284979396,0.686178861788618,0.04366776401638498,0.5804878048780489,0.7268292682926831,0.6875361292401364,0.5413580246913583,0.012773690362694013,0.5055555555555555,0.5583333333333332,0.5415053574307462,0.5820205839109431,0.016117118369602793,0.550094517958412,0.6030245746691871,0.5822387389402187,0.6955082742316785,0.054239384498261496,0.6015473887814313,0.8104448742746615,0.6975731463862689,0.6405074365704287,0.07847383478318377,0.47637795275590555,0.7913385826771654,0.6451907248488866,0.6735008818342152,0.03791508411646868,0.6031746031746033,0.7500000000000001,0.6745435833208924,0.2439669137967181,0.09023643286449042,0.0,0.34126817739998855,0.25977205752334415,0.46354693680656045,0.11835423079619654,0.14327062228654125,0.6548538350217077,0.4780922545029558,0.42127565263316724,0.12568220631410837,0.24933510638297868,0.7002602987777274,0.4392245096597401,0.5451918285999002,0.03305647714290863,0.45739910313901344,0.6771300448430493,0.5461708320197797,0.5172222222222222,0.07646713164636308,0.275,0.7375,0.5227199165051118,0.4043478260869566,0.0193332760496373,0.3695652173913043,0.4565217391304348,0.40479949839450274,0.36327160493827143,0.022150205978520483,0.3055555555555556,0.4305555555555556,0.36393129523897916,0.4263079222720477,0.005768122676175794,0.4125560538116592,0.43497757847533636,0.4263460759409503,0.42655270655270644,0.007518541533095162,0.4102564102564103,0.44102564102564107,0.426617491139397,0.6386724386724386,0.027028320858036685,0.5844155844155844,0.6883116883116883,0.6392313978876126,0.5126361655773419,0.026469946369571735,0.44607843137254904,0.5686274509803922,0.5133039315449659,0.467826545939653,0.014211757966483026,0.4477057046430817,0.501874735801954,0.46803756562671317,0.7299835037994975,0.03845397282425381,0.6139236535385921,0.7714066918307647,0.7309731620702667,-0.5243224068707553,-0.10819318259324141,1.0,0.32118883223963646,0.4898895361053382,0.11896270217469992
20,0.7398867313915855,0.031307077874022544,0.7055016181229772,0.8058252427184462,0.7405369714181069,0.47421602787456446,0.06093898171337172,0.3414634146341462,0.5365853658536586,0.47804611390851254,0.36413690476190486,0.04137533431941415,0.30277777777777776,0.4194444444444444,0.3664383082186669,0.4733661895760194,0.01440907276498632,0.4404536862003781,0.4952741020793951,0.47358152760328437,0.5340909090909091,0.06586434336734226,0.437137330754352,0.6885880077369437,0.5380648145157996,0.6685179977502811,0.06352636572815146,0.515748031496063,0.8051181102362205,0.6714758731244689,0.40486819727891155,0.07442644671292675,0.26587301587301604,0.5218253968253969,0.4115320608879921,0.2244207804336165,0.05216340570050509,0.09946825744725454,0.3299567363586117,0.23029788953849029,0.45008559024188555,0.11747324545171081,0.17945007235890015,0.6975397973950795,0.46489845560352366,0.39146420083424943,0.09214279590510625,0.22722385694884562,0.5543798098687188,0.4019737590492697,0.5430012812299808,0.01908816221905927,0.48878923766816146,0.5829596412556054,0.543330693926426,0.5176339285714288,0.10522640055317212,0.2375,0.8500000000000001,0.528033857308682,0.4054736024844721,0.024605465895922756,0.34782608695652173,0.4565217391304348,0.4062061792149476,0.3655753968253968,0.020703660895477115,0.3194444444444444,0.4166666666666667,0.3661507312906685,0.42729019859064715,0.004890998292444594,0.4125560538116592,0.43497757847533636,0.42731769036605893,0.4265567765567762,0.005275927638889405,0.4153846153846154,0.4358974358974359,0.42658882073727855,0.6410018552875693,0.013661038322080788,0.6103896103896104,0.6753246753246753,0.641144811941332,0.5157563025210087,0.018286930841509463,0.48039215686274517,0.5637254901960784,0.5160746106811993,0.5947430162873915,0.014956952324736074,0.5747824451605286,0.6242474973736254,0.5949277023441499,0.43428743972819384,0.07214986217916364,0.28874827128962055,0.5099261428996853,0.44013432691467436,-0.3690154766850531,-0.35484165816664187,1.0,-0.21428430597389808,0.4710814938559075,0.13163548676980427
21,0.6067225654604292,0.03001567568599248,0.5857605177993528,0.6990291262135924,0.6074477230995249,0.11208425720620854,0.041035645136690495,0.0,0.18048780487804894,0.11919955487059394,0.6126262626262623,0.05569895751158843,0.4888888888888888,0.6694444444444443,0.6150957673649713,0.7235779343529816,0.016382984696986947,0.6956521739130433,0.7466918714555764,0.7237591652064873,0.47142605943379645,0.050120931457652194,0.36750483558994196,0.5512572533849132,0.4740227251145738,0.520758768790265,0.0653368089305113,0.38582677165354334,0.6692913385826772,0.5247490575984102,0.33134920634920645,0.06979621394762674,0.17261904761904767,0.43253968253968256,0.33845692762837565,0.192483353807183,0.07881585988736921,0.05717661857477746,0.30970668394671136,0.20765500430602035,0.3988954084988817,0.08753394562476437,0.16787264833574533,0.5607756874095514,0.4081734898779125,0.41250507994156127,0.12910466644882945,0.2457984382073336,0.7161753055681304,0.43179814422485513,0.5341418671015082,0.028643702651313788,0.47085201793721976,0.6143497757847534,0.5348919040660536,0.5107954545454544,0.029603841316944275,0.45,0.5625,0.5116331360546255,0.4026679841897234,0.024692524422955532,0.34782608695652173,0.4565217391304348,0.40340719994038216,0.36174242424242425,0.02200200670417995,0.3055555555555556,0.4027777777777778,0.3623957336793593,0.42774154097024036,0.005899839851624298,0.4125560538116592,0.4439461883408072,0.42778130264009373,0.4265734265734265,0.006474712533156869,0.4102564102564103,0.44102564102564107,0.42662144506631716,0.6384297520661156,0.014538328770306133,0.6103896103896104,0.6623376623376623,0.6385915029359629,0.5121434937611411,0.03136985276054161,0.44117647058823534,0.5784313725490197,0.5130815341541192,0.35185020758372804,0.017224665469041948,0.3347032962386469,0.4051761936761238,0.352261997301909,0.33419918743578525,0.07451651950231988,0.1472958295980049,0.4296790141162341,0.3422215810973647,-0.5557450509421162,0.24253906257109742,1.0,-0.32648840105261007,0.6592017629230275,-0.5810104451319075
22,0.35871231476750093,0.09169977798520815,0.24919093851132645,0.5016181229773462,0.37004844328381087,0.684124946512623,0.10042943698183202,0.526829268292683,0.8097560975609754,0.6913292020630242,0.6006335282651073,0.09540827281050843,0.4666666666666667,0.7388888888888888,0.6080326279319608,0.778861141511624,0.016939902684989506,0.7485822306238183,0.7996219281663515,0.7790421064798015,0.7031456785096203,0.09419784900706328,0.5454545454545456,0.9497098646034816,0.7093175658187886,0.8342657825666527,0.060617957716300123,0.6712598425196851,0.9448818897637795,0.8364266059860785,0.7163046505151769,0.16552410915505208,0.4543650793650795,1.0,0.7348536673018683,0.18075535328630143,0.0516092358444168,0.090529646076731,0.30136842707122297,0.18785441880327705,0.3676601924492854,0.08646745821919972,0.1888625180897251,0.6063675832127352,0.37751750906077963,0.4169401690055833,0.0885459386367565,0.23342009959257579,0.5605619058397464,0.42607738404678513,0.5459051215482654,0.03946376076380567,0.45291479820627806,0.6591928251121076,0.5473047300567587,0.5125,0.14699368305183347,0.16249999999999998,0.8500000000000001,0.5328079580631643,0.4063691838291381,0.03912366152801693,0.32608695652173914,0.4891304347826087,0.4082152872657641,0.36939571150097456,0.025564025662796572,0.3055555555555556,0.4305555555555556,0.3702637517103531,0.4251435764298639,0.017663644775852447,0.39910313901345296,0.48878923766816146,0.42550392614625,0.4263607737291944,0.009951445780405079,0.40512820512820513,0.4461538461538462,0.4264748565359059,0.6406926406926408,0.03421400457961069,0.4935064935064935,0.7012987012987013,0.641589526986021,0.5148778809769524,0.012835173519101524,0.4852941176470589,0.5392156862745099,0.5150350316179305,0.3090716235338782,0.03796778494177107,0.2628067958165188,0.37076314129898047,0.3113543492054068,0.7813650404125085,0.158445300344257,0.5478323889412176,0.9999999999999998,0.7969917204753872,-0.8046664118686362,0.3104455154506502,1.0,-0.5269388449470639,0.8674939027066502,-0.3634243823784282
23,0.6755041075429422,0.03546934010479716,0.6472491909385107,0.7669902912621356,0.6764167943379329,0.43489681050656664,0.045477712537789365,0.2926829268292681,0.46829268292682924,0.43722269453901946,0.4166666666666667,0.06363856425410909,0.2694444444444444,0.46944444444444444,0.4214060938292531,0.5823396830013086,0.009111433231455978,0.5633270321361058,0.5916824196597352,0.5824095879271315,0.5393914596042255,0.055723519552537945,0.39651837524177935,0.6247582205029014,0.5422071040288127,0.7003709872804362,0.061441586036715595,0.5984251968503937,0.8464566929133859,0.7030092395181076,0.4051816239316241,0.06457857951075255,0.23412698412698418,0.4761904761904763,0.41019792958939333,0.18707200002345697,0.061085882321705295,0.10303226667174903,0.27873601555204025,0.1966104241501673,0.4248162083936323,0.10389736522652933,0.1657076700434154,0.6041910274963821,0.43709939802232156,0.4088434659783402,0.02123400626321025,0.3686905839746491,0.46860853327297414,0.40938391745136066,0.5401862711279751,0.03468372050486595,0.4170403587443946,0.6322869955156951,0.5412772248377452,0.5173076923076922,0.03449156672234956,0.42500000000000004,0.5875,0.5184342180658396,0.40677257525083615,0.030161523993136357,0.3695652173913043,0.5543478260869565,0.4078678106174953,0.36431623931623913,0.02717418628406575,0.2916666666666667,0.4722222222222222,0.36530885279407693,0.4265263884097964,0.007825399751582047,0.4080717488789238,0.4394618834080718,0.42659678767994075,0.4263313609467453,0.010652427270650107,0.3948717948717949,0.45641025641025645,0.4264618638719962,0.6363636363636362,0.042648673859038026,0.41558441558441556,0.7012987012987013,0.6377637556660847,0.5133861236802415,0.019944140860889276,0.44607843137254904,0.553921568627451,0.5137659305004317,0.5046761380674856,0.022726958700833733,0.4840234089093536,0.5549169080029526,0.5051777766414793,0.438449332687365,0.07424938004448081,0.23557335712707794,0.4986034253076359,0.44457256900166,-0.7471325851672741,0.9080097056923202,1.0,-0.7047781378118133,0.7907721098440235,-0.8465643217971778
24,0.7666791137664923,0.011959774423482306,0.7475728155339807,0.7831715210355985,0.7667705973717294,0.29296435272045024,0.025234798507881216,0.2536585365853661,0.3317073170731708,0.2940283336038921,0.3412393162393161,0.007767356373806214,0.33333333333333326,0.3555555555555555,0.34132600625371207,0.5383524792787553,0.009619597529505483,0.5236294896030245,0.551984877126654,0.5384367642083173,0.44807320339235235,0.03504701090728641,0.36170212765957466,0.5241779497098644,0.4494154732016888,0.694086917019988,0.041431774088845325,0.6023622047244095,0.8326771653543307,0.6952986616553267,0.2566391941391942,0.042741000899709114,0.19444444444444486,0.39880952380952417,0.26010639840010075,0.24306916758173686,0.039788945259990646,0.1673559625683737,0.3329394499609293,0.24624243136793958,0.5093505510408549,0.0704598918715775,0.3531114327062229,0.6765499276410999,0.5141080695740972,0.3938792788243897,0.052465197171227156,0.29000679040289723,0.4986702127659574,0.39729151594942774,0.5432045532942396,0.009688379867961837,0.5201793721973095,0.5650224215246636,0.5432892842064803,0.527403846153846,0.066744981338949,0.30000000000000004,0.65,0.53152990363811,0.4094899665551839,0.020160172797136288,0.3695652173913043,0.4565217391304348,0.40997640086432796,0.36645299145299126,0.020793143179178953,0.3194444444444444,0.4027777777777778,0.36703110935269306,0.4274749913763365,0.009917337811851525,0.39910313901345296,0.45291479820627806,0.4275878043470079,0.4277120315581851,0.008013062223217475,0.4102564102564103,0.4461538461538462,0.42778564295002447,0.644105894105894,0.03491035496992713,0.5454545454545454,0.7272727272727273,0.6450330987904659,0.5146116138763198,0.03665066748512411,0.37254901960784315,0.6029411764705883,0.5158900584627181,0.556467789183504,0.007765036240999447,0.5466493871409952,0.5687731384241943,0.556520922025596,0.27364255513290964,0.024036412535024778,0.23679613143520983,0.31408165726011883,0.2746759664533395,-0.3026724265542425,-0.24187044066670196,1.0,-0.04649313253559028,0.20361717293372464,0.1274177075859289
25,0.5472132326501253,0.0173842612799459,0.5210355987055015,0.5760517799352747,0.5474831674977981,0.14536585365853674,0.023500397257184225,0.0926829268292686,0.18048780487804894,0.14721150581385217,0.5258641975308642,0.018232641897908845,0.5027777777777778,0.5583333333333332,0.5261731617624772,0.8165931526990126,0.005791370255141366,0.8052930056710774,0.827977315689981,0.8166132326087371,0.4508489146787019,0.07967253316550772,0.2765957446808509,0.6015473887814313,0.4576804519850977,0.6983814523184603,0.08351326822208527,0.545275590551181,0.8700787401574803,0.7032468491070033,0.28059964726631414,0.06322585913780031,0.16071428571428603,0.375,0.28748015195922527,0.2404859165517839,0.05069564206069041,0.16200041929520287,0.34365053650727095,0.24565506712291754,0.49975880366618414,0.13514708924824753,0.2937771345875543,0.8444225759768451,0.5173178080811222,0.39824801317841163,0.13098873404900233,0.01856043458578538,0.5358052286102308,0.41878185070846463,0.5404085700049824,0.013541703946176405,0.4977578475336323,0.5605381165919283,0.5405744400353933,0.516388888888889,0.07945223614400562,0.2875,0.7250000000000001,0.5223311795318284,0.40555555555555556,0.022206224789288513,0.358695652173913,0.4565217391304348,0.4061495622535059,0.3635802469135801,0.020998689084315673,0.2916666666666667,0.4305555555555556,0.36417268172184863,0.4285999003487794,0.019674549943819925,0.38116591928251126,0.5067264573991032,0.4290412107721096,0.42678062678062667,0.006174101173370299,0.4153846153846154,0.4461538461538462,0.4268242915064715,0.6352092352092351,0.027524867831067962,0.5844155844155844,0.7142857142857143,0.6357920689037458,0.5196078431372549,0.045841732861080724,0.41666666666666674,0.661764705882353,0.5215813224330166,0.305015472526955,0.008574073638951333,0.2907483055589697,0.319363389467924,0.30513328163074294,0.29628228336990375,0.030913367812394187,0.2378532141740033,0.34183512929038096,0.2978549838192319,-0.5621052327188807,-0.07386638199829572,1.0,-0.05025491799080882,0.57623178008019,0.30955131275405534
26,0.309506472491909,0.06210383268624694,0.23948220064724923,0.43365695792880254,0.31559932109128075,0.659329268292683,0.06536504149016434,0.5317073170731712,0.7268292682926831,0.6625211432990369,0.6804166666666667,0.08323001095864184,0.5194444444444445,0.7833333333333333,0.6854250393499652,0.8058128544423442,0.0209704366688379,0.773156899810964,0.8355387523629488,0.8060822654099418,0.7218326885880076,0.07626783126841989,0.5357833655705997,0.8781431334622825,0.7258005942574725,0.7876968503937009,0.07671707060958852,0.6279527559055118,0.9173228346456693,0.7913774498818728,0.7501240079365081,0.12244431887567632,0.515873015873016,0.9126984126984128,0.759928437990938,0.24128056566734638,0.09368057883180843,0.11376241209094892,0.41572166422077794,0.25861682385991264,0.46238335745296666,0.14414703900419698,0.231548480463097,0.8480463096960926,0.4840630211991869,0.4027273016636487,0.07891804107340836,0.20689508827523764,0.5587935717519239,0.41029195214756753,0.5422645739910313,0.016790485809099635,0.4977578475336323,0.5739910313901345,0.5425212112113303,0.5123437500000001,0.11894335939956113,0.16249999999999998,0.9,0.5258011001082062,0.40285326086956513,0.023734999746461212,0.34782608695652173,0.4673913043478261,0.40354313044400153,0.36579861111111095,0.020126153886059574,0.3055555555555556,0.4166666666666667,0.366344950402193,0.42640134529147966,0.008203554174608494,0.4080717488789238,0.4573991031390135,0.4264792660126821,0.42544871794871736,0.013713011029442232,0.38974358974358975,0.4512820512820513,0.42566689757638865,0.6404220779220776,0.038135466569458855,0.5324675324675324,0.7402597402597403,0.6415423390376286,0.5171568627450982,0.07741256261497444,0.24019607843137258,0.6764705882352942,0.5228470299469404,0.2644724417765073,0.027597151385952746,0.23246563490764616,0.3173219591235963,0.26589049473286835,0.8278599153652451,0.1234008685984344,0.5904144015565003,0.9739848396414532,0.8368927450156104,-0.6299600593058212,0.2779055802051108,1.0,-0.5555672207427387,0.8067759865757251,-0.5987166932199394
27,0.5766551478251329,0.02770578622333726,0.5307443365695792,0.6148867313915853,0.577309067791674,0.6276147168251343,0.04011931342280602,0.5609756097560972,0.6878048780487802,0.628874002816739,0.3948210922787194,0.03006599111295984,0.34722222222222215,0.4472222222222222,0.3959448665017144,0.6366665598667134,0.015231584287171127,0.6030245746691871,0.6540642722117201,0.6368456464398288,0.6233157394354654,0.05644888375287037,0.5029013539651839,0.7504835589941972,0.6258234410990415,0.8498932336847728,0.05596804211557552,0.7440944881889764,0.9409448818897638,0.8517029050716813,0.5328557976863063,0.06508448704850753,0.4365079365079365,0.6706349206349207,0.5367490057130035,0.2706296954682846,0.0723624345061349,0.13817682822237892,0.4306161733595075,0.2799785755692716,0.5015940543059677,0.12083522643701311,0.24023154848046313,0.7178002894356006,0.5157036650165673,0.40716641666219067,0.0639968468491967,0.30149388863739246,0.5384506564056134,0.4120809027071265,0.5428289123660409,0.014043619395487794,0.4977578475336323,0.5739910313901345,0.5430074664121549,0.5167372881355933,0.09240005578872978,0.25,0.775,0.5247956624136061,0.40383198231392764,0.032093224581714305,0.33695652173913043,0.5217391304347826,0.40508367999608846,0.3658192090395481,0.027610869417022177,0.3055555555555556,0.4305555555555556,0.36684210834429626,0.428441133997112,0.021414238454535838,0.34977578475336324,0.484304932735426,0.4289669014540301,0.428248587570621,0.0191258056527122,0.3435897435897436,0.4871794871794872,0.428668227488818,0.6427470834250495,0.04728099914808437,0.5194805194805194,0.7272727272727273,0.6444543555768791,0.5135427052176805,0.04804075923624136,0.33333333333333337,0.5931372549019608,0.5157469412750395,0.4715261241083966,0.016196371153785416,0.44961995443429714,0.5073775322364644,0.4717994934420893,0.5849703754004613,0.049794288160619274,0.5235801381491834,0.6682984882461047,0.5870500713696528,-0.02813067754784552,-0.421105343883921,1.0,-0.3140351909151513,0.31140702209933885,-0.013192320301218538
28,0.5692782418905695,0.02064750949826008,0.5436893203883488,0.6051779935275081,0.5696438553412725,0.5398752127056158,0.028036828847572203,0.4926829268292683,0.575609756097561,0.5405858197482879,0.38785529715762274,0.03187981301522625,0.34166666666666656,0.43333333333333335,0.3891329060933438,0.6909042950718775,0.0051912746793873294,0.6824196597353496,0.6994328922495272,0.6909233441944882,0.575502676442805,0.058397925896612926,0.4661508704061894,0.6847195357833653,0.578389435092624,0.8881157297198315,0.048271714836220746,0.7480314960629921,0.9488188976377953,0.8893961536332097,0.46539313399778537,0.051698565846693655,0.3670634920634923,0.5654761904761906,0.46818944253252637,0.22189204079307956,0.03182548900149648,0.1661743124511616,0.32042729992948216,0.22411020635633527,0.47524679433244726,0.09060123935622463,0.31186107091172216,0.6374876989869753,0.48360852223725614,0.40375590870329625,0.04911698302589738,0.31830013580805794,0.5136939791760977,0.4066635067157543,0.5404108874752321,0.019823229056018535,0.484304932735426,0.5829596412556054,0.5407658912115153,0.5084302325581395,0.10428758209161847,0.3125,0.8375,0.5187718894232936,0.4034378159757331,0.033309355038437474,0.34782608695652173,0.5217391304347826,0.40477868256782534,0.36660206718346244,0.03137131579590965,0.2916666666666667,0.4444444444444444,0.3679107876765426,0.4294504119303369,0.02121090474974131,0.3901345291479821,0.5112107623318386,0.4299617377616984,0.4286225402504472,0.014939954042099473,0.4,0.47692307692307695,0.4288767812414964,0.6399879190576864,0.04935761281108087,0.5324675324675324,0.7402597402597403,0.6418442609186698,0.5143638850889194,0.03507876234430407,0.43137254901960786,0.5882352941176471,0.5155309002545286,0.434163510081798,0.010115155247694302,0.4219979717182627,0.45173408366618917,0.43427858616545634,0.5067566793939079,0.04263366709847207,0.4395054204112483,0.5657465280610063,0.5085053502427295,-0.47329298803134456,0.6158689132564508,1.0,-0.5892784027562353,0.5784469662369814,-0.582129067349776
29,0.44481167802795557,0.011934847739504689,0.4271844660194173,0.4757281553398056,0.4449683571331197,0.21276595744680865,0.016822987178005996,0.19024390243902478,0.24390243902439046,0.2134158944287796,0.6760638297872341,0.013290909656045298,0.6444444444444445,0.6944444444444443,0.6761916826995402,0.8400434380404616,0.006590413091351391,0.824196597353497,0.8468809073724006,0.8400687395812206,0.5538911066299026,0.060204197362240155,0.4100580270793037,0.6576402321083172,0.557084181607161,0.6238482157815379,0.05561385997838614,0.46653543307086615,0.781496062992126,0.6262696634376251,0.4327929753461668,0.05795850910593432,0.2777777777777779,0.5416666666666667,0.43657470859535086,0.2568391954235997,0.05844079206094378,0.17867693304617963,0.40380986868436597,0.26326608586780487,0.49418062013116976,0.12052467646452059,0.24239652677279305,0.772793053545586,0.5083616969395685,0.41305695751423105,0.08314757381995794,0.15030839746491623,0.5358052286102308,0.421167986714848,0.5405972712527432,0.029208786866166198,0.4618834080717489,0.6367713004484306,0.5413690152933744,0.5178191489361703,0.10557633883119395,0.2625,0.7625000000000001,0.5282479319974424,0.39824236817761327,0.0863169274374892,0.07608695652173914,0.6304347826086957,0.4072948221070226,0.35904255319148937,0.058063755069866656,0.20833333333333334,0.4583333333333333,0.363608612037133,0.4265814330693637,0.024501264666333174,0.3452914798206278,0.48878923766816146,0.4272695383650114,0.4257501363884341,0.009711815921633865,0.4,0.4512820512820513,0.42585853426718095,0.6402321083172147,0.04782592880413298,0.5194805194805194,0.7402597402597403,0.641978041380441,0.5078222778473093,0.08104307041461244,0.27450980392156865,0.8137254901960784,0.5141125371945676,0.2436256992703657,0.00860658743739956,0.23389766866590578,0.264698575184555,0.24377444218708816,0.47731503377279216,0.01832421012871028,0.4418923210907959,0.5179775386223777,0.4776591608644697,-0.26617269872824006,0.0913857007283167,1.0,0.22962607445606978,0.2638891033156044,0.16267490032497842
30,0.3227419829361573,0.04413411338148499,0.2103559870550158,0.3689320388349513,0.32569125349799766,0.3543237250554326,0.05082754165154607,0.29756097560975614,0.4878048780487805,0.3578851345187324,0.6882828282828282,0.04485309465090531,0.6444444444444445,0.8027777777777776,0.6897162268825783,0.9017700635848084,0.0037271929836101714,0.8960302457466919,0.9092627599243855,0.9017776261163604,0.6192368559873394,0.057224453831612246,0.47582205029013513,0.7543520309477758,0.6218274544072246,0.75,0.028513751655569186,0.6811023622047244,0.812992125984252,0.7505319790631864,0.5330808080808084,0.0827812809315604,0.3908730158730158,0.7579365079365079,0.5393545152637883,0.22236090921219281,0.07263359086664425,0.12923821685185538,0.4175036688330252,0.23371797484886092,0.4375203262728587,0.1579061282134377,0.1165036179450073,0.7424023154848046,0.46465581831721725,0.42539687847236524,0.053084338826015126,0.30415346310547753,0.5393418967858759,0.4286364611673946,0.5401549123522217,0.013883873430702812,0.5112107623318386,0.57847533632287,0.5403300718237922,0.5061363636363638,0.10570729391358,0.2375,0.7375,0.5168606063182185,0.4000000000000001,0.028018282506059724,0.32608695652173914,0.4673913043478261,0.4009622812536639,0.36363636363636365,0.023007428618290287,0.3055555555555556,0.4027777777777778,0.36435027423408883,0.42454137790460644,0.006798295753987875,0.39910313901345296,0.43497757847533636,0.4245948163512936,0.42703962703962667,0.006354327366048444,0.4102564102564103,0.44102564102564107,0.4270860409829457,0.6380165289256197,0.021508159727321004,0.5974025974025974,0.6753246753246753,0.6383723687559355,0.5162210338680928,0.023240034097462142,0.4607843137254902,0.573529411764706,0.5167343950304786,0.19058781172223044,0.0169672527890857,0.15048473529241124,0.2099323118476224,0.19132790523876833,0.5983093335196885,0.08025420874761273,0.5169750129213142,0.808885010425721,0.6035707848055701,-0.637306455271435,0.30186982367044674,1.0,-0.3565517339876558,0.6469435865797818,-0.21848167481208977
31,0.5855162728216401,0.03428946151512564,0.5307443365695792,0.6407766990291259,0.5865005444359768,0.33437643810400364,0.05229869996444319,0.23902439024390287,0.42439024390243896,0.3383654085415752,0.4755765199161426,0.04231812128037758,0.4111111111111111,0.5416666666666666,0.477420213819763,0.7255412490637372,0.006475120716448408,0.7164461247637051,0.7372400756143666,0.7255695970768317,0.5224261888252253,0.12843455962260272,0.23984526112185667,0.8297872340425532,0.5376925926887991,0.7442430545238448,0.07721479160925808,0.5354330708661418,0.8641732283464567,0.7481626529998457,0.37391434561245884,0.07995390357389384,0.1865079365079365,0.505952380952381,0.3822092999306085,0.21680546680393842,0.07213995176475856,0.10601498027406658,0.35914540014103563,0.22827744334489086,0.4342499522158208,0.20958272414261928,0.03256729377713463,0.9609261939218523,0.4813202335408936,0.42735336573366245,0.052662621667335055,0.26878678134902667,0.5048664554096876,0.43052517177722177,0.5403164396311024,0.024853025891216074,0.4663677130044843,0.5919282511210763,0.5408769486916559,0.5009433962264151,0.10614669912153499,0.125,0.7000000000000001,0.5118582037583425,0.40566037735849064,0.08230597104822204,0.25,0.8369565217391304,0.4137714322661423,0.3658280922431865,0.06847308884886198,0.19444444444444445,0.6388888888888888,0.3720622172447079,0.42761654962348766,0.03208580067922533,0.3587443946188341,0.5246636771300448,0.42879597434576994,0.4262215771649731,0.010288921714028898,0.40512820512820513,0.4512820512820513,0.426343403087823,0.6400392060769418,0.025770601821228485,0.5454545454545454,0.6883116883116883,0.6405480298883637,0.51165371809101,0.030388909217664416,0.4509803921568628,0.6029411764705883,0.5125383778599919,0.38604349029189544,0.015737215472073095,0.3605216163281155,0.4089641036149927,0.38635807681256334,0.4011683416148461,0.07054533071440638,0.2792991043279358,0.5174764396300511,0.4072085252817609,-0.42097042021055076,0.4317760602129789,1.0,-0.5836063255007949,0.5779060461996375,-0.37943134445952426
32,0.5514563106796113,0.03194922252469937,0.5016181229773462,0.5987055016181224,0.5523668269535775,0.40060037523452174,0.053509408154879,0.30731707317073176,0.46829268292682924,0.40410378282702125,0.5201282051282051,0.05572247227278989,0.45833333333333326,0.6388888888888887,0.523058863369036,0.722437109204595,0.006561762742710702,0.7051039697542533,0.7296786389413987,0.7224664497919252,0.5681892575509597,0.05453082446218969,0.44680851063829774,0.6750483558994196,0.5707599279505535,0.7244094488188972,0.05113376066086829,0.610236220472441,0.8543307086614174,0.7261841952674278,0.44285714285714284,0.08028377627668712,0.3234126984126984,0.6230158730158731,0.44996530133916846,0.21187470403769545,0.026695905072591012,0.1405591873296613,0.2584859631401399,0.21352423137463042,0.4507958588444841,0.08004003061256301,0.3314037626628076,0.7366136034732271,0.4577387385308228,0.3803272016575547,0.04022597839565512,0.2935434585785423,0.4464972838388411,0.3824160239334226,0.5443256295274231,0.011424319851234769,0.5246636771300448,0.5739910313901345,0.5444436592707448,0.5076923076923078,0.1291440478541456,0.09999999999999998,0.8250000000000001,0.5236153902656767,0.4041806020066888,0.03589077866682523,0.30434782608695654,0.4782608695652174,0.4057465826970882,0.36410256410256403,0.024612681067403778,0.2916666666666667,0.4027777777777778,0.36492073317430845,0.42690582959641254,0.012438390065722116,0.3946188340807175,0.47085201793721976,0.42708420795249075,0.4265877712031553,0.008303314160358975,0.40512820512820513,0.4461538461538462,0.42666733045009814,0.6405594405594405,0.035722231429259996,0.5064935064935064,0.7272727272727273,0.6415394319460603,0.511613876319759,0.030237207181448712,0.43627450980392163,0.5784313725490197,0.5124929084007817,0.37576166099688335,0.011669840497070094,0.3540643198092095,0.3915079086300659,0.3759400429533823,0.4868028401386838,0.08269810322707237,0.36907320183933123,0.6331193855574397,0.4936707064681807,-0.7392639398029298,0.7952224526881583,1.0,-0.6284348412239353,0.7753416104736415,-0.6947711727903298
33,0.33768755516328325,0.023062847117502224,0.2977346278317148,0.37864077669902896,0.3384599075409745,0.28585365853658556,0.05467220251549818,0.19512195121951237,0.3756097560975611,0.290941604910603,0.6639393939393939,0.015479780433776236,0.6333333333333333,0.6916666666666665,0.6641165452193756,0.9203299536002746,0.005710824582651391,0.9073724007561436,0.9300567107750471,0.9203473496665561,0.5888517671883244,0.07416230916798533,0.4061895551257253,0.7253384912959382,0.5934192876435467,0.7550107372942019,0.04238563805846679,0.6692913385826772,0.8700787401574803,0.7561779495181377,0.4736291486291488,0.07013978820774973,0.2976190476190479,0.5734126984126985,0.4787010687601337,0.24769950741476782,0.05129212140189504,0.16557395795612645,0.3758219138920124,0.2528598297048634,0.4560839889488225,0.11967938894522444,0.25832706222865415,0.7141765557163531,0.47124870301474103,0.4281940614840116,0.06438739845729716,0.23165176550475325,0.5366964689904934,0.43292091001989297,0.5412148389726865,0.02157292531546941,0.4977578475336323,0.5964125560538117,0.5416368076251953,0.5134090909090909,0.05130555623916479,0.3375,0.6125,0.5159198537123237,0.40375494071146245,0.0219811589323827,0.358695652173913,0.4565217391304348,0.4043419821924592,0.36338383838383825,0.02134382049098207,0.3194444444444444,0.4166666666666667,0.36399874970493584,0.4278026905829596,0.026621987277600217,0.3721973094170404,0.5112107623318386,0.4286151960358751,0.42741258741258703,0.012015289721943033,0.4,0.45641025641025645,0.4275783696679213,0.6380165289256197,0.028061226425775045,0.5714285714285714,0.7012987012987013,0.6386221156972008,0.5158645276292335,0.02896912802986195,0.46568627450980393,0.6029411764705883,0.5166625231951888,0.18394106074935482,0.005903105221282902,0.17588114495219398,0.19754649447183747,0.18403403735552304,0.5248212871586005,0.05334550938449417,0.42962366524280293,0.6060783869777338,0.5274764317367446,-0.5124479029620013,-0.20452493800240562,1.0,0.20773211206229208,0.703357060658356,0.24520792909514
34,0.23927993527508062,0.047271474896667776,0.15210355987055024,0.2847896440129447,0.24383306637709679,0.3785060975609755,0.02365470471979871,0.3365853658536586,0.41951219512195115,0.3792329996911256,0.7011718750000001,0.05593960003015222,0.6388888888888887,0.7944444444444444,0.7033650139049378,0.9584120982986765,0.012439308431091705,0.939508506616257,0.9792060491493383,0.9584915590673483,0.644100580270793,0.065546037814558,0.4603481624758221,0.7930367504835591,0.6473752475615214,0.8208968996062991,0.052838540562670525,0.7106299212598426,0.9389763779527559,0.822569150610993,0.5722656249999999,0.0743097400190223,0.43253968253968256,0.746031746031746,0.5769953229840744,0.27915456626770097,0.07439071678377769,0.1905887285825916,0.4466923326154491,0.2887469172023203,0.5430432344428364,0.11425173056549748,0.2185238784370478,0.7532619392185239,0.5547480979066802,0.3815591932152558,0.043909034915744036,0.2873472159348121,0.46242643730194655,0.3840381442278989,0.5383968609865468,0.017245451257838967,0.5022421524663677,0.5919282511210763,0.5386686723273634,0.5076171875000001,0.06134315023581014,0.3125,0.6125,0.5112527697052116,0.40183423913043465,0.02040127184171674,0.358695652173913,0.44565217391304346,0.4023437141542921,0.36111111111111094,0.020255810623166087,0.3333333333333333,0.4027777777777778,0.3616699068595253,0.4255184977578474,0.024143660680750727,0.34977578475336324,0.48878923766816146,0.4261922104135376,0.42604166666666615,0.014513520522256827,0.3794871794871795,0.46153846153846156,0.4262849431172395,0.6381899350649347,0.023582681410247285,0.5844155844155844,0.7012987012987013,0.6386187018467725,0.5132506127450981,0.022517530474918966,0.44607843137254904,0.573529411764706,0.5137366136209688,0.14158225329070215,0.026693954799385182,0.09601778961075014,0.17022991410707244,0.14403807762826962,0.6298209858764876,0.06625999706437047,0.5393440488204841,0.751786071346807,0.6332426562236864,-0.6492826633069066,0.5642568940461568,1.0,-0.5020335065092904,0.59941337594114,-0.42362341884639054
35,0.43216725740997547,0.03227268787473317,0.3980582524271843,0.508090614886731,0.43335151158743634,0.4102981029810299,0.0537807856473508,0.2878048780487805,0.46829268292682924,0.4137523359857305,0.6025132275132274,0.02853673862658851,0.5472222222222223,0.6361111111111112,0.603177924547618,0.816335103669697,0.004005834504041316,0.8034026465028354,0.822306238185255,0.8163447761110532,0.6111571643486536,0.061609207181547686,0.4893617021276597,0.7659574468085106,0.6142056046851205,0.7485001874765657,0.03990886456852947,0.6417322834645669,0.8641732283464567,0.7495465074922983,0.5083459309649787,0.06136857874033844,0.37103174603174605,0.6210317460317462,0.5119784258942821,0.23596745107541953,0.023043821812340246,0.19117955364119765,0.28111837465932266,0.23707219752217248,0.4638553740840284,0.09344062710746781,0.26193921852387847,0.662807525325615,0.4730268165397433,0.42922913657691814,0.0433749858183523,0.32891014033499316,0.5145852195563603,0.43138054865464553,0.543027973521247,0.08462776582821008,0.3542600896860987,0.9103139013452914,0.5494793521853777,0.5125000000000001,0.12755454241352043,0.2375,0.9125000000000001,0.5278902866712977,0.39993098688750844,0.06822089065855502,0.2608695652173913,0.5978260869565217,0.4056168262681578,0.36507936507936506,0.08671558317293654,0.041666666666666685,0.625,0.3750775607295193,0.424443020855577,0.03775243830474579,0.3228699551569507,0.547085201793722,0.4260921280534164,0.426455026455026,0.02142722762302971,0.34871794871794876,0.4666666666666667,0.4269844586829286,0.6367759224902081,0.09893277197870676,0.40259740259740256,0.8441558441558441,0.644294892593758,0.5073140367258017,0.14825539186083952,0.09803921568627455,1.0,0.5282029056749659,0.2825399987299242,0.010353452400589228,0.2702451315790624,0.3086739299094907,0.2827266230251842,0.5622511422589075,0.06517955628034953,0.4213486752358542,0.6355468202774006,0.5659569656887116,-0.5933745929599469,-0.00498899583043874,1.0,-0.46885504298688674,0.5305829696110196,-0.014380845406964082
36,0.4790705077192417,0.005727552339824762,0.46925566343042036,0.4886731391585757,0.4791041832813158,0.45533786485405836,0.014631036143793704,0.42439024390243896,0.4780487804878053,0.45556901682382617,0.483151183970856,0.01302763812271168,0.4638888888888889,0.5083333333333332,0.4833239117227567,0.7970807896123211,0.00376311664928453,0.7901701323251417,0.8034026465028354,0.7970895270091107,0.5774487110378286,0.04177766695267359,0.4642166344294003,0.6537717601547388,0.5789333076060241,0.859752162127275,0.050821032703087396,0.7185039370078741,0.9429133858267716,0.8612283187604731,0.4615209471766851,0.03551952829266616,0.39682539682539697,0.5555555555555557,0.46286341289956007,0.2571868353803916,0.03692332985401218,0.17272103527797364,0.3305570908536469,0.2597807746367263,0.5003320443168607,0.06710842343832472,0.39363241678726485,0.7279305354558611,0.5047394045781836,0.41296340789170977,0.03761281949362312,0.32891014033499316,0.5092802172928926,0.41464479768586776,0.541204146144233,0.02661201034930831,0.4753363228699552,0.6322869955156951,0.5418473189721558,0.5116803278688526,0.07443778346080289,0.25,0.675,0.5169786317999081,0.40181753385602276,0.06196501381906963,0.1956521739130435,0.5760869565217391,0.40648991150786823,0.36498178506375223,0.05805329316991027,0.22222222222222224,0.5277777777777778,0.36949511410066344,0.4269646401529074,0.03745683079069287,0.3004484304932736,0.5291479820627802,0.4285776684353047,0.42597730138713696,0.013466424915615264,0.3948717948717949,0.47692307692307695,0.42618661761578214,0.6418990845220353,0.03729926626516875,0.4935064935064935,0.7662337662337663,0.6429641225128142,0.5196882031501127,0.04690275559813,0.3921568627450981,0.7058823529411765,0.5217658800250755,0.33070402353243294,0.0031182026589768952,0.3261951595968102,0.33820213437735713,0.33071848296072104,0.5024444526551527,0.013390900732622666,0.4771922060056393,0.5272726451155767,0.5026199405277939,-0.024848037340523967,-0.13620347736354882,1.0,-0.32378070742568354,0.15612152231510812,0.3559305831182164
37,0.21255663430420696,0.015914048050534983,0.18770226537216805,0.2427184466019412,0.21313965978573768,0.2659512195121951,0.011712293616253292,0.24878048780487827,0.29756097560975614,0.2662038418681107,0.8307777777777775,0.014718317627083987,0.8055555555555554,0.8749999999999999,0.83090553755868,0.9586767485822307,0.00998101749690867,0.9413988657844989,0.9735349716446124,0.9587276654860158,0.6618955512572533,0.04884683484295025,0.5764023210831721,0.825918762088975,0.6636595616600685,0.6631889763779526,0.041553716579699376,0.5708661417322834,0.7440944881889764,0.6644635396495364,0.6011507936507938,0.040128467101235514,0.523809523809524,0.6964285714285716,0.6024619197106454,0.2359602813089634,0.0652675282911514,0.12209113953000819,0.33710381368045894,0.24464649517141393,0.48888567293777124,0.09217115640760008,0.3227206946454414,0.7062228654124457,0.4973276714962294,0.39690244454504287,0.07009412963424003,0.2767372114078769,0.565866908103214,0.40292241654545474,0.5411659192825112,0.03432453139125695,0.45739910313901344,0.6502242152466368,0.5422316499237296,0.5135000000000001,0.0877307453146808,0.3875,0.8375,0.5207926650789159,0.39173913043478265,0.15032403306991846,0.06521739130434784,1.0,0.41905240117894255,0.35472222222222216,0.10685624510369938,0.16666666666666669,0.6527777777777778,0.3701590832514856,0.42860986547085206,0.06032736364438326,0.29596412556053814,0.6053811659192825,0.43275052832681543,0.42851282051282036,0.03521303168426656,0.34871794871794876,0.5128205128205129,0.42992836123270817,0.6368831168831168,0.03935309412560402,0.5324675324675324,0.7142857142857143,0.6380735045961927,0.5122549019607845,0.02284781246649222,0.4754901960784314,0.5588235294117647,0.512754002097172,0.09873627980067524,0.00887116392298329,0.08288757054141005,0.11495268221991473,0.09912606391478836,0.6779175756677053,0.018905873258117416,0.649427867977088,0.7374073805312251,0.6781758789591074,-0.19749343764557506,-0.38290938068695946,1.0,-0.008230795727354362,0.33460865595315864,0.14043787100001143
38,0.06671208766252186,0.04643176981549717,0.0,0.14239482200647258,0.08104683164211086,0.3797175866495506,0.020855125031146872,0.3365853658536586,0.41463414634146334,0.3802798330054748,0.927485380116959,0.06209454954105689,0.8083333333333333,0.9999999999999998,0.9295252653765573,0.9877624117003281,0.00533605405137119,0.9773156899810963,0.9999999999999999,0.9877765718553346,0.7281210763853544,0.05648453719341871,0.5938104448742749,0.8646034816247585,0.7302703821754635,0.6980936593452132,0.05025420692965437,0.6062992125984252,0.8248031496062992,0.6998685132024604,0.7779170147591201,0.09750731867324249,0.5992063492063492,0.9444444444444444,0.7838977979891834,0.3062485016215088,0.062226226842915754,0.18820636947530922,0.44014560978863704,0.3123976895169978,0.5728164115063344,0.13338908999244029,0.30753111432706226,0.8936266280752532,0.587876805867855,0.41340250808097656,0.07505702577241699,0.28381054775916703,0.5667440018107741,0.4200432792820795,0.5408701125009834,0.038442612085828505,0.45291479820627806,0.6412556053811659,0.5422106473512753,0.5140350877192982,0.11312007130735667,0.2875,0.8625,0.5261214005057916,0.40675057208237986,0.0540733507072115,0.30434782608695654,0.6086956521739131,0.41026656965518465,0.36257309941520455,0.08131162915550971,0.1527777777777778,0.6527777777777778,0.3714227252144354,0.4277397529698685,0.024484738839436127,0.36771300448430494,0.48878923766816146,0.4284276848199267,0.42672064777327895,0.017915637807655597,0.36923076923076925,0.46153846153846156,0.4270899791145905,0.644110275689223,0.06680334819880908,0.4935064935064935,0.8571428571428572,0.6475047813096306,0.5247678018575851,0.12978438290653832,0.2205882352941177,0.8529411764705883,0.5403052131765363,0.03840840376818713,0.023555197991979155,0.0,0.0770792392098214,0.044947955107919095,0.8680541984067388,0.07859887264791368,0.7332297916102168,0.9524138620421911,0.8715431670313449,-0.4318602463620571,0.5108156116581193,1.0,-0.2552835652126697,0.5936198951812681,-0.4462809312243018
