,Orientation X,Orientation X,Orientation X,Orientation X,Orientation X,Orientation Y,Orientation Y,Orientation Y,Orientation Y,Orientation Y,Orientation Z,Orientation Z,Orientation Z,Orientation Z,Orientation Z,Orientation W,Orientation W,Orientation W,Orientation W,Orientation W,Accelerometer X,Accelerometer X,Accelerometer X,Accelerometer X,Accelerometer X,Accelerometer Y,Accelerometer Y,Accelerometer Y,Accelerometer Y,Accelerometer Y,Accelerometer Z,Accelerometer Z,Accelerometer Z,Accelerometer Z,Accelerometer Z,Gyroscope X,Gyroscope X,Gyroscope X,Gyroscope X,Gyroscope X,Gyroscope Y,Gyroscope Y,Gyroscope Y,Gyroscope Y,Gyroscope Y,Gyroscope Z,Gyroscope Z,Gyroscope Z,Gyroscope Z,Gyroscope Z,EMG1,EMG1,EMG1,EMG1,EMG1,EMG2,EMG2,EMG2,EMG2,EMG2,EMG3,EMG3,EMG3,EMG3,EMG3,EMG4,EMG4,EMG4,EMG4,EMG4,EMG5,EMG5,EMG5,EMG5,EMG5,EMG6,EMG6,EMG6,EMG6,EMG6,EMG7,EMG7,EMG7,EMG7,EMG7,EMG8,EMG8,EMG8,EMG8,EMG8,Roll,Roll,Roll,Roll,Roll,Yaw,Yaw,Yaw,Yaw,Yaw,Accelerometer X vs Roll,Accelerometer Y vs Roll,Accelerometer Z vs Roll,Accelerometer X vs Accelerometer Y,Accelerometer X vs Accelerometer Z,Accelerometer X vs Accelerometer Z
,mean,std,amin,amax,RMS,mean,std,amin,amax,RMS,mean,std,amin,amax,RMS,mean,std,amin,amax,RMS,mean,std,amin,amax,RMS,mean,std,amin,amax,RMS,mean,std,amin,amax,RMS,mean,std,amin,amax,RMS,mean,std,amin,amax,RMS,mean,std,amin,amax,RMS,mean,std,amin,amax,RMS,mean,std,amin,amax,RMS,mean,std,amin,amax,RMS,mean,std,amin,amax,RMS,mean,std,amin,amax,RMS,mean,std,amin,amax,RMS,mean,std,amin,amax,RMS,mean,std,amin,amax,RMS,mean,std,amin,amax,RMS,mean,std,amin,amax,RMS,corr, corr, corr, corr, corr, corr
0,0.6118022328548645,0.0216058824093719,0.5789473684210522,0.6411483253588512,0.6121751486568231,0.3015338570894128,0.034001699460611934,0.2390572390572392,0.34343434343434365,0.303402523193861,0.6942838792549777,0.0179106917747282,0.6676300578034683,0.7196531791907514,0.6945097329357783,0.7575883575883577,0.019754995563636697,0.7297297297297298,0.8024948024948025,0.7578401592433854,0.5330004161464839,0.056484375823568245,0.4344569288389515,0.7078651685393262,0.5359188638816815,0.563364779874214,0.05755086032650746,0.419811320754717,0.6816037735849056,0.5662317321300057,0.3646630236794172,0.041965793283028026,0.2882513661202186,0.45491803278688525,0.36701650163368016,0.23605282539682548,0.05084406952678076,0.15142857142857144,0.36713904761904764,0.24134748535246053,0.22424874684740312,0.05288039066837883,0.12336248969162761,0.33756032932715063,0.23026440321107947,0.5737198902606313,0.038410519389432726,0.45911111111111114,0.6473827160493827,0.5749757338574265,0.4666666666666665,0.104713224172058,0.24175824175824176,0.7802197802197803,0.4780156624567009,0.5197243755383291,0.09175128070768845,0.2790697674418605,0.813953488372093,0.5275837855375899,0.2619385342789598,0.04715718174967718,0.1595744680851064,0.3829787234042553,0.26605671906128975,0.35325670498084283,0.091574451705391,0.13793103448275862,0.5172413793103448,0.3646777028084082,0.6222222222222223,0.022887987811275677,0.5842696629213483,0.6853932584269663,0.6226336904474301,0.35061728395061736,0.09237347811350063,0.11111111111111105,0.611111111111111,0.362319914115425,0.6233716475095784,0.06061912084985106,0.44827586206896547,0.8620689655172413,0.6262469394930951,0.46076388888888886,0.048460659582247385,0.328125,0.578125,0.4632489712616748,0.9169704849865558,0.0023305482629955867,0.9099912879751577,0.9200141130155836,0.9169733807983091,0.3292954258454884,0.03435969005618733,0.27545386270726935,0.37410658417207054,0.331043547721363,0.23187738585245102,-0.3338956089730468,1.0,-0.42783365472045315,0.2820500964828709,-0.5241163244639536
1,0.37041467304625153,0.030341597698650597,0.33971291866028697,0.4497607655502387,0.37163463107782774,0.400953984287318,0.03625468314061277,0.31649831649831683,0.45791245791245827,0.4025625328625032,0.9132466281310212,0.016370852309708514,0.8526011560693643,0.930635838150289,0.913390903092028,0.8674289674289676,0.020158005592306582,0.8274428274428275,0.8981288981288983,0.8676592570269274,0.6285268414481902,0.06150898163858074,0.4737827715355809,0.803370786516854,0.6314794448985254,0.4663915094339622,0.06225249821913023,0.3443396226415094,0.6037735849056605,0.4704591629968577,0.5237021857923498,0.04295439419578978,0.41393442622950816,0.6092896174863387,0.5254315445911103,0.21357980952380948,0.04399749055270356,0.1261942857142857,0.31333333333333335,0.21799048425312761,0.21630671858030628,0.06753292042061487,0.02576755127147859,0.34727385796752697,0.22643604009633259,0.5854100823045268,0.09101123548111127,0.4344197530864198,0.7754691358024691,0.5923258889309678,0.4503663003663002,0.09945812110780326,0.18681318681318682,0.6703296703296704,0.4610388888828703,0.5094315245478037,0.061605061202324035,0.3178294573643411,0.6744186046511629,0.5130812885980276,0.2531914893617021,0.062087039465363654,0.1276595744680851,0.4574468085106383,0.2605695378978089,0.34770114942528724,0.0914075178206936,0.17241379310344826,0.6206896551724137,0.35932181683541564,0.6183520599250938,0.02516407266002926,0.5168539325842696,0.6629213483146067,0.618855352020081,0.3481481481481482,0.0817435720924491,0.11111111111111105,0.5555555555555555,0.3574601764921203,0.621264367816092,0.05442645429653338,0.48275862068965514,0.8275862068965516,0.6236042679427658,0.4515625,0.0886547964541233,0.203125,0.6875,0.46004061754552356,0.8881808549111937,0.002285664823629058,0.8840464662682354,0.8924708316871262,0.8881837468809044,0.4982535330324647,0.03794854964136259,0.39763775403233925,0.5566285381606679,0.4996725668464151,0.06294827736692761,-0.35403406275340976,1.0,-0.08366399222741941,0.053349015130974384,-0.4598663807169842
2,0.08813397129186555,0.05074781749912323,0.04306220095693725,0.2009569377990421,0.10144669071478482,0.56936026936027,0.037728654884601635,0.47138047138047146,0.6161616161616166,0.5705839979331807,0.9499999999999998,0.04464950929660952,0.8641618497109828,1.0,0.9510277110088954,0.9716424116424114,0.01632021361313872,0.9376299376299376,1.0,0.9717767225485558,0.6972284644194758,0.05052206421439711,0.5973782771535583,0.8089887640449442,0.6990200004218579,0.6750943396226414,0.07918371831560841,0.5188679245283019,0.8325471698113208,0.6796300665890896,0.6923497267759561,0.06043094993450804,0.5314207650273224,0.790983606557377,0.694929497058895,0.20626697142857148,0.04145751205920031,0.11952000000000002,0.27904761904761904,0.21031028101909582,0.2018755154186214,0.07367808822455157,0.04055753085752142,0.3172815638983899,0.2146476536006633,0.5753145679012345,0.06737222823525,0.46451851851851855,0.7145185185185186,0.5791675826857192,0.46021978021978005,0.07422095426744188,0.31868131868131866,0.6373626373626374,0.46604808888875965,0.5105426356589148,0.13020552902025356,0.0,0.8449612403100776,0.5265626202240782,0.273404255319149,0.13957375983425993,0.0,1.0,0.3063349548651028,0.36137931034482756,0.13259195145821256,0.17241379310344826,1.0,0.38447889282114067,0.6193258426966292,0.02219968105248216,0.5842696629213483,0.7078651685393258,0.6197156353957395,0.34666666666666673,0.10321122671116734,0.055555555555555525,0.611111111111111,0.36141013260645755,0.6255172413793101,0.03895053675028728,0.5517241379310345,0.7068965517241379,0.6267045720988919,0.4459375,0.1138265924295929,0.0,0.65625,0.4599539294184799,0.8714977272681472,0.001936324235028817,0.868807270269617,0.8748316989833893,0.8714998353402356,0.6703038214935529,0.05470092276602677,0.5412981326579251,0.7372427523566072,0.672487591142979,-0.0657817975298668,0.3306944176457547,1.0,-0.06321828798519175,-0.028400658543589776,-0.6768969396694103
3,0.5960542701710683,0.06281096723945923,0.5167464114832536,0.6889952153110048,0.5993094914298733,0.4401549744015499,0.061802985935101744,0.3535353535353538,0.5185185185185188,0.4444138692131456,0.6655713041412624,0.060772877469457434,0.5780346820809249,0.7456647398843932,0.6683022593089744,0.5435308859966396,0.030347944198185012,0.501039501039501,0.6403326403326404,0.5443658745203128,0.5996613821763894,0.051455782703809586,0.4925093632958806,0.7378277153558055,0.6018348619161101,0.3753230808994573,0.08930253148658132,0.23113207547169812,0.5353773584905661,0.38565932038934414,0.4845609701324951,0.06913232920177183,0.3784153005464481,0.5997267759562841,0.4894008001036313,0.21264855838225705,0.061413678420324004,0.12857142857142856,0.36523428571428573,0.22122247394694478,0.21490074423995104,0.04862569563353383,0.09505333315307765,0.29150725303843505,0.2202598427115909,0.5373385760189413,0.07799300169301489,0.4205308641975309,0.7037037037037037,0.5428925548209442,0.45054945054945034,0.10540289062225758,0.1758241758241758,0.8351648351648352,0.46254987636003714,0.5124774344271,0.08350653678558552,0.24031007751937988,0.806201550387597,0.5191444281260569,0.2591081317400175,0.07137201771808793,0.07446808510638298,0.4042553191489362,0.2686283836560785,0.3575814832309872,0.0839762849026396,0.13793103448275862,0.5172413793103448,0.36717833624954194,0.621055871940896,0.01698454115798955,0.5730337078651685,0.6741573033707865,0.6212848935900819,0.35159817351598177,0.07115473832951028,0.16666666666666663,0.49999999999999994,0.35862921839435946,0.6251771374586675,0.028305312036652895,0.5689655172413792,0.7068965517241379,0.6258088115995024,0.4471318493150685,0.07125288094325093,0.296875,0.625,0.45269671540524625,0.9467060810536424,0.002996795513420572,0.9375581942687814,0.9516710232125686,0.9467107592411032,0.44668717404458996,0.07148532261266526,0.34992968611808606,0.5390927641257361,0.45229368858265545,-0.2066164097104473,0.13056319636304362,1.0,-0.5613323657062707,0.600216502303651,-0.9098842938360069
4,0.48094984937090196,0.03857809152572408,0.42105263157894735,0.5741626794258377,0.4824660259706625,0.5485721411647342,0.031044661612219915,0.46127946127946173,0.595959595959596,0.549433633358294,0.7061121815457077,0.04347720513963083,0.6387283236994221,0.7890173410404625,0.7074246782115786,0.5596365596365597,0.013696036140251455,0.5343035343035343,0.5841995841995842,0.5598010240773589,0.6492578721043144,0.06165210438844497,0.5505617977528092,0.8164794007490641,0.6521245110481921,0.37687805730258567,0.07797014239364157,0.18632075471698112,0.5023584905660378,0.38471266258493175,0.5896579639749038,0.04021804155994843,0.5163934426229508,0.6721311475409837,0.5910025818990761,0.19039703703703703,0.031842461188032106,0.13238095238095238,0.26571428571428574,0.19299273907869133,0.21239503235339344,0.06515713418258587,0.09336343603401426,0.37895604915572745,0.2219875726686229,0.5558040695016003,0.097266688932876,0.38349382716049385,0.7291728395061728,0.5640955347172915,0.4497354497354494,0.03964167091867424,0.37362637362637363,0.6483516483516484,0.451446935610895,0.5011484352569625,0.09819559798516823,0.35658914728682173,0.806201550387597,0.5105032488785749,0.23955870764381407,0.07378365118275076,0.11702127659574468,0.5212765957446808,0.2504627442787642,0.34035759897828854,0.07955361302205775,0.17241379310344826,0.5517241379310345,0.34936352549553373,0.6177694548481066,0.014394131261207253,0.5842696629213483,0.651685393258427,0.6179340203350581,0.344650205761317,0.07270010388423573,0.16666666666666663,0.49999999999999994,0.3520954322561397,0.6257982120051082,0.02692556982554711,0.5344827586206896,0.689655172413793,0.6263664764231927,0.4574652777777778,0.02239046209540821,0.40625,0.5,0.4580027611538351,0.941627622318213,0.0020443214942987356,0.9386515321447209,0.9453539969391047,0.9416298003830904,0.5601451535194483,0.03976295043919475,0.46041297246342494,0.6219804526408574,0.5615286330662574,-0.22752989875344343,0.5307266762479929,1.0,-0.01635203700887451,0.06803922422905485,-0.7307343194817156
5,0.3875598086124399,0.01654996584115273,0.3732057416267942,0.4306220095693778,0.38790682042711333,0.48650245141473203,0.029900341375644936,0.4410774410774414,0.5319865319865325,0.48740433000006506,0.8016428354122305,0.029532907668434666,0.7514450867052024,0.846820809248555,0.8021771167129677,0.795455374402743,0.0421419457457848,0.7089397089397089,0.8482328482328483,0.7965513413160128,0.6469544648137197,0.051600299034366325,0.5224719101123598,0.7865168539325846,0.6489730027377751,0.5550314465408805,0.08496452424436246,0.37028301886792453,0.7287735849056605,0.5613842074962333,0.5574489502444637,0.039583336324410516,0.4603825136612022,0.6161202185792349,0.5588279558264293,0.22224735171261495,0.04536251968407321,0.13952761904761904,0.29000380952380955,0.2267499559304143,0.22537132079749872,0.04113285005618913,0.14406034960591604,0.31854560694344936,0.22902938880507262,0.546708035520901,0.1051479240523519,0.41127160493827164,0.7623456790123457,0.556553497532603,0.45074224021592413,0.057607818378313545,0.21978021978021978,0.5934065934065934,0.45434458919961057,0.5172038623691011,0.05750399006171514,0.35658914728682173,0.627906976744186,0.5203350187006109,0.25625233296005967,0.0524369238326282,0.14893617021276595,0.4148936170212766,0.26147017036075854,0.3551119177253479,0.0728478989881253,0.2068965517241379,0.5517241379310345,0.3623785154443918,0.6217228464419478,0.015361024312419048,0.5955056179775281,0.651685393258427,0.6219092531776209,0.3479532163742692,0.07823442744833951,0.16666666666666663,0.49999999999999994,0.3564893925858207,0.6212946158499694,0.02544092908470577,0.5517241379310345,0.689655172413793,0.6218061478096083,0.4564144736842105,0.035890988207897996,0.34375,0.5625,0.4577987936544736,0.9049896236978061,0.00400493697141501,0.8988012128708702,0.9131991396721738,0.904998329902189,0.5333656217732262,0.03752438280393808,0.47499636256376565,0.5908950438763119,0.5346608856543165,0.2609425728841215,-0.8363721302142915,1.0,-0.41312498468259445,0.5868387433264609,-0.7649762580054379
6,0.1701609395389295,0.02141290408708718,0.13397129186602807,0.21531100478468845,0.17147863195163995,0.6923171104989283,0.030650834867636454,0.6363636363636369,0.730639730639731,0.6929829534902483,0.8451392538097745,0.0386146064388109,0.7803468208092486,0.893063583815029,0.8460049263879853,0.7710451710451709,0.04336851000960763,0.7130977130977131,0.8336798336798338,0.7722417280787001,0.7186925434116448,0.08433490400746765,0.5786516853932586,0.9382022471910114,0.7235344028182473,0.5794168096054886,0.1347309775545835,0.22641509433962265,0.7971698113207548,0.5945975372212875,0.7650521609538002,0.05214936228443777,0.6721311475409837,0.8661202185792349,0.766795225920368,0.2276101818181818,0.04584432518540113,0.12476190476190477,0.3309485714285714,0.23209886740916244,0.22414230039856992,0.06704437807540392,0.061681244845813804,0.3692425205153511,0.23377979622013023,0.5395407407407408,0.1239792705255988,0.2824197530864198,0.7939876543209876,0.5533494377570423,0.4577422577422574,0.03706808778835092,0.38461538461538464,0.6043956043956045,0.45921349615713525,0.5155743481324878,0.07576059246454568,0.24806201550387602,0.689922480620155,0.5210107659485191,0.2580270793036751,0.054059822612361516,0.13829787234042554,0.46808510638297873,0.2635285608015225,0.35423197492163,0.060259763235895644,0.24137931034482757,0.48275862068965514,0.35922904753606105,0.6181818181818183,0.015365075775796539,0.5842696629213483,0.651685393258427,0.6183692694657164,0.3444444444444446,0.07438207571057812,0.16666666666666663,0.5555555555555555,0.35224149964771895,0.623824451410658,0.02507111238304161,0.5689655172413792,0.7068965517241379,0.6243188916555406,0.459375,0.028936342569445366,0.390625,0.546875,0.460268919973076,0.9048746111787691,0.0027814863720761664,0.9011569615874422,0.9093748234108316,0.9048788084355296,0.7468618314166224,0.04375512707013999,0.6696309186752665,0.7969680875893577,0.7481191730455589,0.09001739100459197,-0.6547548699657344,1.0,-0.07231985875618097,0.41820486222441594,-0.5243731749935671
7,0.5954887218045115,0.029129033362454957,0.545454545454545,0.6794258373205739,0.5961905709956155,0.5063011063011064,0.030246977923094536,0.43097643097643124,0.5622895622895627,0.5071909110045086,0.49636663914120566,0.015627600075890976,0.4653179190751445,0.5144508670520231,0.4966090750806,0.44775764775764804,0.03931453793914647,0.3305613305613306,0.5072765072765073,0.44945574147954215,0.6012841091492778,0.07709890488283615,0.4382022471910114,0.803370786516854,0.6061368684703857,0.519811320754717,0.08619138626793538,0.3231132075471698,0.6509433962264152,0.5268079691140085,0.5068696330991413,0.03674011455278489,0.4016393442622951,0.5983606557377048,0.5081804577153017,0.25270040816326533,0.07485649159891594,0.14095238095238094,0.4933333333333333,0.2634026209082119,0.2760389970315751,0.11068201193547475,0.07646446484338035,0.5171085184333979,0.29710777235622976,0.5418271604938271,0.09679517743988472,0.3526296296296297,0.7052592592592593,0.5502836822862232,0.45290423861852375,0.022981766145992386,0.39560439560439564,0.5054945054945055,0.4534786276865255,0.5126245847176079,0.0708748991886847,0.29457364341085274,0.7209302325581396,0.5174315949558445,0.2541033434650456,0.056220941861080974,0.10638297872340424,0.4148936170212766,0.2601617751698407,0.3536945812807882,0.07464973654705559,0.03448275862068961,0.5517241379310345,0.3613763020218485,0.6210272873194222,0.013379811996606832,0.5955056179775281,0.651685393258427,0.6211693436936715,0.3515873015873016,0.0646511127346932,0.22222222222222218,0.49999999999999994,0.35739849757241465,0.6253694581280785,0.02195086241148337,0.5689655172413792,0.6724137931034482,0.6257490839676011,0.45982142857142855,0.03905764721409396,0.375,0.546875,0.46145363052532157,0.9694672761652011,0.0046785027971993805,0.9617526445971634,0.9857788957739433,0.9694784037060002,0.4760068809977296,0.030639235832460553,0.3998287017506521,0.5318833071252815,0.4769778848467036,-0.3688074680623623,-0.44975647476648767,1.0,0.22001801514184552,0.21972451329564158,-0.3515379431981766
8,0.5554066985645928,0.012927156373992091,0.5263157894736845,0.5789473684210522,0.5555541107353091,0.5300336700336704,0.01580860603607407,0.505050505050505,0.5656565656565662,0.5302646557650901,0.5499421965317919,0.013070044263218328,0.5173410404624278,0.5693641618497111,0.550094381958327,0.49476091476091477,0.01897313587099958,0.4553014553014553,0.5218295218295219,0.4951173023255611,0.6257303370786519,0.049407053830125905,0.5131086142322099,0.7453183520599254,0.6276389810785918,0.49471698113207535,0.0951943853229484,0.3066037735849057,0.7358490566037736,0.5036125723187499,0.5374863387978143,0.04509688477164495,0.44672131147540983,0.6161202185792349,0.5393372032690343,0.21526659047619057,0.061119609291078736,0.13094857142857144,0.3252342857142857,0.2236081382292249,0.23786140139788298,0.060774320689489326,0.09040949586989147,0.35825818924143904,0.2453521835426135,0.567428148148148,0.1280199257065124,0.33411111111111114,0.8348888888888889,0.5814086537549814,0.4514285714285711,0.02841747817641383,0.39560439560439564,0.5054945054945055,0.4523042749152717,0.5226356589147285,0.06377218503759027,0.41085271317829464,0.7674418604651163,0.5264347877201999,0.2534042553191489,0.05741745120795436,0.13829787234042554,0.4042553191489362,0.259700876092103,0.35586206896551714,0.08401578563675999,0.17241379310344826,0.5862068965517241,0.36545217377908334,0.622247191011236,0.02291356860209864,0.5842696629213483,0.7078651685393258,0.6226604995621088,0.34444444444444466,0.06349206349206349,0.22222222222222218,0.49999999999999994,0.35013225014641614,0.6262068965517237,0.02424326068840252,0.5689655172413792,0.689655172413793,0.6266666245013942,0.45375,0.029940683280548597,0.359375,0.515625,0.45471703082796444,0.9600740137537715,0.0019705140714426513,0.95719003508412,0.96405672024407,0.9600759955089325,0.5073384378852137,0.016620228795822384,0.47857708133491794,0.5430732973202066,0.5076051594703603,-0.28442075738687733,-0.15459289885968197,1.0,0.0646930736656595,0.2161382394423258,-0.434687560597963
9,0.5888647237929534,0.07637680026022409,0.5167464114832536,0.803827751196172,0.5937078544567154,0.438138965411693,0.06288096697099896,0.26936026936026947,0.5084175084175089,0.4425470345840152,0.6746190225959013,0.039187213598094885,0.5433526011560694,0.7225433526011561,0.6757355567618173,0.5564543564543567,0.07906914008038513,0.32432432432432434,0.6237006237006237,0.5619427980633801,0.5778685733741913,0.07790726564338127,0.3501872659176031,0.6928838951310863,0.583001950960486,0.4030874785591767,0.1361571314298974,0.07547169811320753,0.5683962264150944,0.4250661258746264,0.49577744659711864,0.04266298211802931,0.3510928961748634,0.5532786885245902,0.497576439679422,0.3067968831168833,0.18448609362630855,0.14666666666666667,0.8047619047619048,0.3571283045223035,0.2815520998354348,0.0981475580598757,0.13308277792048023,0.511193878516676,0.29787477847896676,0.45933468013468004,0.146845864012465,0.17516049382716053,0.6767037037037037,0.4818298337980523,0.4539460539460534,0.02474202184815699,0.4065934065934066,0.5384615384615385,0.4546075859656411,0.5188160676532771,0.06910803552590684,0.4031007751937985,0.7829457364341086,0.5233155813750704,0.2607350096711799,0.05298908406136925,0.14893617021276595,0.4042553191489362,0.2659690519711734,0.3435736677115987,0.06363970939004385,0.17241379310344826,0.48275862068965514,0.349312526490416,0.6204290091930541,0.012918346118671814,0.5842696629213483,0.651685393258427,0.620561040403147,0.3444444444444445,0.06538549470056967,0.22222222222222218,0.49999999999999994,0.3504846732352777,0.6225705329153599,0.019817929591592086,0.5862068965517241,0.6724137931034482,0.6228801472776786,0.4571022727272727,0.019538350981874328,0.421875,0.5,0.45751206982339926,0.9447315551655766,0.011635088229790388,0.9369878700380407,0.9842369191980365,0.9448018973493812,0.44628107453544635,0.06699893544092847,0.2547831394925506,0.52001559270955,0.4511917987403413,-0.8693886104135611,-0.9224513482507158,1.0,0.8503406154906679,0.6604395097085839,0.46250451173538126
10,0.3290802764486972,0.052193687189761015,0.22966507177033435,0.42105263157894735,0.3331027949069892,0.6688365132809581,0.03927981105228934,0.595959595959596,0.7441077441077444,0.6699633559445151,0.6067437379576108,0.03335615733237805,0.5520231213872833,0.6647398843930636,0.6076395902176086,0.6817740817740819,0.008189838572697478,0.6694386694386696,0.7006237006237006,0.6818221773406159,0.6854348730753227,0.09592154493967103,0.4850187265917605,0.9456928838951313,0.6919663594541324,0.7096960167714884,0.05175950740729559,0.6014150943396227,0.7995283018867925,0.7115391404970758,0.6712507589556771,0.06627709240199701,0.5573770491803278,0.8060109289617485,0.6744424511144218,0.21043386243386245,0.07335316810625647,0.13094857142857144,0.4323809523809524,0.22258375255577173,0.22488730263879317,0.13152025718071272,0.010139382714380363,0.5897740945531237,0.2597835374186065,0.6033146776406036,0.0910185812810161,0.4205308641975309,0.7561728395061729,0.6099908892878162,0.45274725274725247,0.02302691885115013,0.4065934065934066,0.5054945054945055,0.4533194577483478,0.5118001722652886,0.040161027388881325,0.3798449612403101,0.6046511627906977,0.5133385647397068,0.25791962174940897,0.041831129393437194,0.2021276595744681,0.425531914893617,0.2612154077789125,0.34865900383141757,0.07060060995447803,0.2068965517241379,0.5172413793103448,0.35557950110937986,0.6204744069912609,0.024298691744585377,0.5280898876404494,0.6629213483146067,0.6209394459724178,0.3370370370370372,0.08895199779913834,0.11111111111111105,0.5555555555555555,0.3483254079867105,0.6233716475095781,0.030078347671419533,0.5689655172413792,0.689655172413793,0.6240807746738232,0.4597222222222222,0.02066694922827364,0.421875,0.5,0.4601762192658131,0.9326939053716273,0.002826003049331645,0.9279917363069972,0.93643247739374,0.9326980915266363,0.6546087319275786,0.04605257539606022,0.571292241485658,0.7432811170130065,0.656190751112295,-0.3013661951900271,0.379559578901455,1.0,-0.3426292707314624,0.20875573762821759,-0.4854420531552418
11,0.6382157740392034,0.015336349491141398,0.607655502392344,0.6746411483253585,0.6383970427887874,0.48593461496687296,0.017155141410377342,0.4410774410774414,0.5218855218855218,0.4862324569007461,0.3955342159239229,0.013412385184131603,0.36705202312138735,0.4104046242774567,0.3957578888130698,0.2736234994299509,0.027768890493714896,0.2079002079002079,0.316008316008316,0.27500635163727905,0.5951129636341672,0.059519967651908035,0.47003745318352075,0.7378277153558055,0.5980342188343692,0.4265063907486307,0.06262472097290953,0.26650943396226423,0.5589622641509434,0.43100614994409714,0.4815353428521065,0.02953686337458714,0.4193989071038251,0.5368852459016393,0.4824257884087473,0.2422270967741935,0.04309344144332451,0.1661942857142857,0.33571809523809526,0.2459696297783255,0.25517413790171045,0.07076711124177582,0.12801308656329005,0.4123348970514676,0.2646526983640308,0.5640866188769413,0.08233522345130119,0.42979012345679013,0.7314814814814815,0.5699679486350957,0.4507266926621761,0.028523714401511843,0.37362637362637363,0.5054945054945055,0.45161380752139463,0.5093773443360842,0.06887051558436269,0.2790697674418605,0.6589147286821706,0.5139376659226114,0.25892244337680165,0.04492614368366408,0.13829787234042554,0.3404255319148936,0.26272920641409014,0.3570634037819801,0.057935601785536785,0.24137931034482757,0.4482758620689655,0.3616582235069489,0.6196085538238493,0.013317390637901482,0.5955056179775281,0.6629213483146067,0.6197493463768603,0.3351254480286739,0.06116303633991148,0.22222222222222218,0.4444444444444444,0.34057252613729433,0.6223581757508339,0.025306772116382898,0.5689655172413792,0.689655172413793,0.6228641923236062,0.4566532258064516,0.020871170250379042,0.40625,0.5,0.45712224676546126,0.6754605676374783,0.4678941039070898,0.00010501311720667594,0.9999514445649452,0.8195369572212132,0.4446699561924044,0.016870735668531294,0.3990040049997152,0.47980124117181044,0.4449847199502661,0.04204096961791953,0.3499500078034133,1.0,0.007243537307075825,0.4463456356777798,-0.02370530394268076
12,0.5815654057957931,0.07085395861662716,0.5119617224880377,0.7894736842105265,0.5857848430446078,0.5382123117972178,0.07958858209187704,0.29292929292929304,0.6060606060606062,0.5439552546627092,0.435380085069255,0.05746369218296295,0.31791907514450873,0.508670520231214,0.43908494744750487,0.25811006943082415,0.04734783280130815,0.15592515592515593,0.32224532224532226,0.26233628565924766,0.5943396226415097,0.08865796937124548,0.3820224719101126,0.7902621722846446,0.6007924069459207,0.34723211107155577,0.1274774023481844,0.14622641509433965,0.7028301886792453,0.3694780292323931,0.5379162800288689,0.07655333779156251,0.30737704918032793,0.6284153005464481,0.5432345386727477,0.2686699011680144,0.1384602504389809,0.09000380952380951,0.54,0.30165051834509876,0.31376262416917644,0.13650379822226894,0.13688166664413476,0.647230596601279,0.341655820677976,0.5192960633589563,0.0971781865780545,0.2893580246913581,0.6828765432098766,0.5281418561671103,0.4513788098693755,0.030995504241977813,0.37362637362637363,0.5494505494505495,0.4524217329722835,0.5046072838964458,0.05690934949751071,0.33333333333333337,0.6356589147286822,0.5077460762663144,0.2533119229225211,0.043013903489829836,0.1595744680851064,0.4042553191489362,0.25687003879716647,0.34743005855562775,0.05529208531780509,0.27586206896551724,0.5172413793103448,0.3517203107449935,0.6273054907780369,0.062159538501368704,0.42696629213483145,1.0,0.6303198275042311,0.35010482180293506,0.051778559177068195,0.22222222222222218,0.4444444444444444,0.35384151844063405,0.6262199089134673,0.017495992964063237,0.5862068965517241,0.6724137931034482,0.6264596622555647,0.4566627358490566,0.029334552604493667,0.390625,0.515625,0.4575862040524725,0.7898052772873325,0.4030411675193875,0.0005661389653862647,0.9992066226428282,0.8849687067363593,0.4982280873559016,0.07920213911860442,0.258601125225534,0.568990138719305,0.5043667790209261,0.557148508724771,0.3627467679195384,1.0,0.3288446481383681,0.7417916782558552,-0.02197511135914763
13,0.620414673046252,0.054962425682151775,0.5311004784688991,0.6985645933014357,0.6227905782545927,0.45394687616909873,0.05538271100844444,0.3737373737373739,0.5319865319865325,0.4572382858745198,0.5027617212588311,0.032680899091645815,0.45953757225433534,0.5606936416184971,0.5037992211987431,0.5354123354123353,0.02609729228170327,0.498960498960499,0.5800415800415801,0.536033863405026,0.5748231377444863,0.07011051382607575,0.4213483146067416,0.773408239700375,0.5789886793835308,0.5829140461215933,0.052550034497540234,0.4669811320754717,0.6886792452830189,0.58522553301163,0.4531572556162721,0.05890801497452595,0.3606557377049181,0.5928961748633881,0.4568856946846825,0.21038086772486772,0.06152860064434238,0.11190095238095239,0.3109561904761905,0.21900171234181487,0.2523108028738767,0.14943874454430484,0.03844853925293032,0.6159674998986062,0.2923976988977605,0.6503668038408777,0.08792501028653744,0.49460493827160495,0.8217654320987654,0.6561524146502348,0.4549450549450548,0.034781880796720205,0.39560439560439564,0.5274725274725275,0.4562432446270174,0.5164513350559862,0.04745026827234644,0.39534883720930236,0.6124031007751938,0.5185783214574065,0.2588652482269503,0.048006474452575845,0.1595744680851064,0.3829787234042553,0.2631817328688856,0.3547892720306513,0.049109584422428916,0.27586206896551724,0.4482758620689655,0.3580971716688736,0.6199750312109863,0.016987703528884592,0.5955056179775281,0.651685393258427,0.6202025543814969,0.34567901234567916,0.07935706228547255,0.11111111111111105,0.49999999999999994,0.35447366263719693,0.6275862068965513,0.020598020690908478,0.5862068965517241,0.689655172413793,0.6279166323112032,0.45694444444444443,0.028879470771998355,0.390625,0.515625,0.4578359043126453,0.9577487477389961,0.0033011949892523765,0.950540498914151,0.961186711261493,0.9577543106186863,0.42803957805016163,0.05689153007178555,0.3468864450242153,0.5065635101103765,0.4317205127166113,-0.3213934434767667,-0.2037823953612459,1.0,0.10430167389841724,0.28947543782820667,-0.39707234041711276
14,0.21990430622009527,0.075324303167495,0.12440191387559763,0.3732057416267942,0.2322028844111476,0.8204713804713806,0.06313922394834466,0.6936026936026938,0.8989898989898992,0.8228487810900593,0.5541618497109826,0.05331714134133875,0.4566473988439307,0.6184971098265897,0.5566697574726812,0.563160083160083,0.03253648759108739,0.5114345114345115,0.6008316008316009,0.5640804285109895,0.7159550561797758,0.06008782269568415,0.5655430711610487,0.8857677902621723,0.7184218662992987,0.6577358490566039,0.12623907279318858,0.4033018867924528,0.8207547169811321,0.6695028189364864,0.819344262295082,0.08484392862770328,0.6229508196721312,0.9781420765027322,0.8236379924070739,0.20699047619047622,0.05330215465712126,0.13856761904761905,0.31952,0.2136102865754127,0.19373034649650533,0.08846649038558106,0.04689802484824729,0.39585502034636133,0.21260583406006353,0.5479533333333333,0.09533718753328989,0.3449135802469136,0.6882716049382717,0.5560218082515592,0.44967032967032944,0.040198193465065556,0.3626373626373627,0.6043956043956045,0.45142771541911414,0.5127131782945739,0.07315695419234998,0.3798449612403101,0.813953488372093,0.5178027658719976,0.25872340425531914,0.04945355073413432,0.14893617021276595,0.46808510638297873,0.2633145277345529,0.35793103448275865,0.047704470122863975,0.27586206896551724,0.4482758620689655,0.36103300068858923,0.6193258426966293,0.015831560842295957,0.5842696629213483,0.651685393258427,0.6195241117052823,0.3411111111111112,0.0701023259586463,0.16666666666666663,0.49999999999999994,0.34809889328490085,0.6231034482758616,0.023108121829229396,0.5689655172413792,0.6724137931034482,0.6235232255833415,0.4609375,0.024298594929773706,0.40625,0.515625,0.4615647215586348,0.9510208890248346,0.0021084544736948772,0.9478357316825949,0.9549160058837234,0.9510231795441418,0.8004955894954519,0.07440882525553473,0.6543311993306606,0.8900627635542655,0.8038775582214378,-0.4750212447074833,-0.16284262177029427,1.0,-0.2069031948036972,0.5836765742145631,-0.7286224392910082
15,0.5154066985645933,0.0529279360790122,0.43540669856459324,0.598086124401914,0.5180811517422755,0.5943883277216621,0.05784166030332561,0.491582491582492,0.6767676767676769,0.5971587167826572,0.27102119460500984,0.026918241844599608,0.2225433526011561,0.31791907514450873,0.272336957546855,0.12501732501732502,0.049558160556287825,0.05197505197505198,0.19750519750519752,0.13435994944615742,0.6394007490636705,0.07456791642723036,0.5243445692883895,0.8277153558052437,0.6436765909533639,0.4061635220125786,0.12022194341187585,0.1273584905660377,0.589622641509434,0.42335494731452916,0.5772677595628416,0.05872652630596611,0.4494535519125683,0.6926229508196722,0.5802076240945492,0.24292723809523806,0.049308303544444584,0.15952000000000002,0.3566704761904762,0.24781552484936423,0.2583115449264783,0.09424731176957267,0.061681244845813804,0.4942949073260421,0.2747525722192324,0.5694610699588479,0.12781491790723007,0.3418271604938272,0.8256296296296296,0.583442149141723,0.4530402930402925,0.037574016108634985,0.3516483516483517,0.5934065934065934,0.45457506499522465,0.5110077519379845,0.05028289335844749,0.3410852713178295,0.6201550387596899,0.51344286957137,0.25787234042553187,0.04326036879638569,0.1702127659574468,0.3723404255319149,0.2614280984735486,0.3554022988505748,0.05101197626358784,0.24137931034482757,0.48275862068965514,0.35899626663930523,0.6208239700374534,0.01611322367958653,0.5842696629213483,0.6741573033707865,0.6210302536409812,0.3474074074074073,0.06717358162139059,0.16666666666666663,0.49999999999999994,0.35375702526142255,0.6262068965517239,0.02047104136096687,0.5862068965517241,0.6724137931034482,0.6265369528683461,0.458125,0.03041103551477787,0.390625,0.546875,0.45911982708765703,0.024120915174050055,0.0068618533952433365,0.016773143222002795,0.03558211705857778,0.02506542998682901,0.5471165777014794,0.05620999111048571,0.44720269035673055,0.6276347258574053,0.5499581667621742,-0.23216834189783542,-0.41117005137630486,1.0,0.054612996760667394,0.18938744251888667,0.07565072020937462
16,0.5106923152035929,0.04446560722538383,0.44019138755980824,0.5741626794258377,0.5125850955821785,0.6189789046931907,0.04635159914337001,0.5488215488215493,0.6902356902356903,0.6206766540289982,0.285832251975935,0.03078659295290864,0.2341040462427746,0.3323699421965318,0.2874518175732893,0.23068437354151652,0.03124549227785665,0.18503118503118504,0.27442827442827444,0.2327480115623324,0.6500420392876254,0.09618375728297711,0.4438202247191012,0.8539325842696632,0.6569757725030488,0.5289276087793608,0.17255960838467527,0.14150943396226418,0.7924528301886793,0.5558179050755386,0.5934537749526039,0.05693072676266113,0.4685792349726776,0.6762295081967213,0.5961227605125851,0.2199612827988339,0.09707420575537405,0.06857142857142859,0.39952,0.2400292753786283,0.2800654769607015,0.07738295139674423,0.13012207816788118,0.42458327137043905,0.2903490761095515,0.5546014109347444,0.08130373675842022,0.4081851851851852,0.6921358024691358,0.5604088851801123,0.4469612020632428,0.06314251334096362,0.3516483516483517,0.6483516483516484,0.45130912495036607,0.5114697041607342,0.07948870932628024,0.29457364341085274,0.7054263565891473,0.5174850385520644,0.26074685193226227,0.06420260687254653,0.13829787234042554,0.3936170212765957,0.26837804229960066,0.3539760731878957,0.06127182496131848,0.2068965517241379,0.5517241379310345,0.35913323412278175,0.6227929373996789,0.01805927108800182,0.5842696629213483,0.6741573033707865,0.623049375478743,0.35147392290249446,0.07639962475234736,0.22222222222222218,0.49999999999999994,0.3595159254890833,0.6249120337790284,0.024006882622682173,0.5862068965517241,0.6724137931034482,0.625363589066339,0.4585459183673469,0.023984718630512717,0.40625,0.5,0.4591599784844458,0.009847181071964474,0.004846585655831035,0.0016916793633301452,0.016787829319626024,0.010953400943352055,0.5726798912021193,0.04621021923769601,0.5021514315677778,0.6434858542315711,0.5745033184208543,-0.25382098618810894,-0.7444954988300007,1.0,0.6065649919599948,0.42330448368729034,0.8255998887289934
17,0.6180737768174106,0.07931208852469465,0.5406698564593304,0.8181818181818183,0.6230603042979379,0.4931573802541547,0.10268472149557999,0.1952861952861955,0.5892255892255893,0.5035655734455664,0.4180962148051463,0.0722134700099821,0.19075144508670522,0.508670520231214,0.42418760076850826,0.3153712024679766,0.11138064676186461,0.002079002079002079,0.40540540540540543,0.33416246455097864,0.5670230759937176,0.14858941238071174,0.27340823970037476,0.9176029962546817,0.5858650632068091,0.4644704808277541,0.16711451851772757,0.12971698113207547,0.6863207547169812,0.4931629042672111,0.4929931253305129,0.08925727639092845,0.191256830601093,0.5833333333333334,0.5008798111798272,0.33011490015361,0.24152551276737824,0.06999619047619049,0.8128533333333333,0.40788422426734494,0.3190706743321855,0.12445194153628142,0.004650596871662471,0.5817437034433344,0.34211777198857557,0.45643628036638795,0.20419530250119336,0.04707407407407416,0.8310246913580247,0.49935687434953363,0.4617157036511873,0.09663309417460969,0.19780219780219782,0.6703296703296704,0.4715598940879398,0.5192548137034259,0.07551731528591407,0.32558139534883723,0.7054263565891473,0.5246298168900689,0.2568634179821552,0.07829014663932929,0.1702127659574468,0.7340425531914894,0.26834549022075693,0.3476084538375975,0.06989157425108045,0.2068965517241379,0.6206896551724137,0.35445406150207376,0.6196085538238493,0.02043106846519213,0.5730337078651685,0.6741573033707865,0.6199398808042789,0.35125448028673845,0.0846281875640567,0.11111111111111105,0.49999999999999994,0.36114557321083274,0.625695216907675,0.02281078540734447,0.5689655172413792,0.6724137931034482,0.6261041797828413,0.45992943548387094,0.03472264683696538,0.359375,0.53125,0.46121719575846953,0.7979026224517175,0.3821754757993194,0.0005909511819363056,0.9972083496467585,0.8833747299437587,0.45593550391573623,0.09970363756382465,0.17486555903817513,0.5474159312935425,0.46653795487935246,0.7226176206845444,0.6159974110407442,1.0,0.6467589417413726,0.6424006699127851,0.414066971357292
18,0.17059256532940703,0.19431083136151486,0.0,0.6650717703349285,0.25716226815211507,0.8677156177156172,0.16591938456885263,0.39393939393939426,1.0,0.8831365845099637,0.553245887060916,0.0837013109863705,0.28612716763005785,0.6589595375722543,0.5594213009732146,0.4060850791620021,0.17287965981381442,0.0,0.5405405405405406,0.44070138535025255,0.6596802074330166,0.15083421830533394,0.3202247191011238,0.8370786516853934,0.6763811196374134,0.5213171262699565,0.21892624192890145,0.021226415094339535,0.7358490566037736,0.5646047642286478,0.8684846574190834,0.17996529892727356,0.29781420765027333,0.9999999999999999,0.886583482973988,0.43088879120879126,0.325953029024126,0.12380952380952381,1.0,0.5383933015834733,0.38715685989036974,0.213981668959906,0.07942516459597943,0.8280495883410619,0.44135931776212084,0.3958542260208928,0.19771083821872507,0.0,0.6998518518518518,0.4416315446172709,0.44209636517328804,0.05605917992970811,0.31868131868131866,0.5714285714285715,0.4455686170834992,0.5093917710196781,0.07261157501280438,0.32558139534883723,0.7364341085271318,0.5144424400412543,0.252454991816694,0.05416773647873434,0.10638297872340424,0.44680851063829785,0.25809153556149095,0.35278514588859405,0.054890840237278866,0.2068965517241379,0.4482758620689655,0.3569487653857339,0.6194900605012966,0.01665504239573978,0.5842696629213483,0.6741573033707865,0.6197096022054356,0.3482905982905983,0.10443759805550892,0.11111111111111105,0.611111111111111,0.36332327020226113,0.628647214854111,0.024964486786103954,0.5862068965517241,0.689655172413793,0.6291331824316875,0.4558293269230769,0.026925175787815222,0.421875,0.515625,0.45660858373226054,0.8164564971762205,0.34190116686413424,0.0035248525728446833,0.9982894993016396,0.8838832569067195,0.8531120248576946,0.18081918744487332,0.348157783627814,1.0000000000000002,0.8717034727354783,0.73317037793779,0.8197729175535329,1.0,0.9124754930037615,0.8520884598079908,0.9193090164423726
19,0.5718660287081336,0.03320900292317489,0.5119617224880377,0.6315789473684212,0.572810209325969,0.5389225589225592,0.03443378938470933,0.4478114478114481,0.6026936026936032,0.539999533934986,0.28601156069364153,0.009734911563261226,0.2716763005780347,0.30924855491329484,0.2861738736913178,0.1314760914760915,0.0467896797875993,0.012474012474012475,0.19750519750519752,0.1393967405708008,0.5964419475655433,0.09346101310642828,0.42509363295880154,0.7584269662921348,0.6035753959260107,0.4098584905660377,0.09500307000793218,0.1674528301886793,0.589622641509434,0.42051046828085537,0.5211748633879782,0.044831831724685946,0.41530054644808745,0.6120218579234973,0.5230611183222782,0.26497112380952376,0.08150793959713473,0.12332952380952382,0.4990476190476191,0.2769844215581532,0.2659395152023145,0.1346239130795265,0.0,0.5268288066622505,0.29746420248397804,0.5058395061728393,0.1190753226632739,0.3055555555555556,0.7978518518518518,0.5193928761767894,0.4527472527472527,0.04740869347108792,0.37362637362637363,0.5494505494505495,0.4551732718454453,0.5148837209302326,0.060272328843797164,0.4031007751937985,0.682170542635659,0.5183293785140212,0.25808510638297877,0.055707329055268845,0.1595744680851064,0.425531914893617,0.263911277737379,0.35310344827586204,0.043817450163422846,0.27586206896551724,0.4482758620689655,0.3557578034904532,0.6208988764044944,0.1083154345206861,0.0,1.0,0.6300896788621922,0.34444444444444444,0.0785674201318386,0.16666666666666663,0.49999999999999994,0.3531166351571267,0.6265517241379306,0.025975589464501937,0.5517241379310345,0.6724137931034482,0.6270791813186606,0.4565625,0.024100941662736172,0.421875,0.515625,0.4571854707747175,0.022665544493521726,0.005697560690746166,0.014845965341193423,0.03907690252852053,0.023356794751336375,0.4918101209698716,0.03375350643710816,0.40017112606263106,0.5545120369535375,0.4929439200368169,-0.5571864910178843,-0.6935914249865306,1.0,0.5820798746384527,0.2542871528125356,0.05706812051362137
20,0.5208711433756804,0.054180398325220556,0.4497607655502387,0.6220095693779903,0.5236331265560656,0.6090792987344714,0.05540342813318017,0.5016835016835022,0.6801346801346804,0.6115506593038231,0.23893761211879597,0.028273197595515397,0.2225433526011561,0.3410404624277457,0.24057592124336905,0.35360957774750856,0.010744989178907562,0.340956340956341,0.38461538461538464,0.3537699784709782,0.6451956605966681,0.05260690798510008,0.42883895131086147,0.7153558052434459,0.6472999396967565,0.7354017566688353,0.04725343649915518,0.5636792452830189,0.804245283018868,0.7368922125496814,0.5925664217071791,0.049914700475760604,0.4795081967213115,0.6557377049180328,0.5946288632019608,0.24631343185550084,0.060205346414747486,0.18237714285714285,0.4114285714285714,0.25344130662180137,0.21391009094676677,0.04532164260720554,0.12336248969162761,0.3569873866079034,0.21857759176109368,0.6128067262664965,0.04851722962329662,0.5216049382716049,0.7114320987654321,0.6146913212931507,0.4568018188707842,0.058406925535834056,0.3516483516483517,0.6373626373626374,0.46045678838318965,0.5196471531676023,0.06516492126783409,0.3875968992248062,0.689922480620155,0.5236472245809998,0.25825385179750554,0.05550379438751046,0.1595744680851064,0.3936170212765957,0.26405038939398934,0.3573127229488704,0.0554508536050856,0.17241379310344826,0.48275862068965514,0.36151648012564447,0.6197210383572261,0.016811395712184967,0.5955056179775281,0.6629213483146067,0.6199450907923703,0.3477011494252875,0.07100896113115242,0.22222222222222218,0.5555555555555555,0.3547554455378838,0.6233650416171223,0.024553871173958165,0.5517241379310345,0.6724137931034482,0.6238401021096056,0.4558189655172414,0.030153165042312986,0.375,0.5,0.45679805887813013,0.9974602300133771,0.0031419078388912813,0.9869740400060361,0.9999457564817027,0.9974650930450996,0.5634813808337269,0.05483707117895229,0.457714504948165,0.6343643924070372,0.5660976278828642,0.6376198674832186,0.7687321091156518,1.0,0.6641431567262179,0.3348984977353563,0.3964454235243928
21,0.6029533080349779,0.218385560853135,0.3492822966507174,0.9138755980861246,0.640642384355002,0.4611053059328921,0.25927991185609867,0.060606060606060996,0.7340067340067344,0.5279063417243092,0.3592286226828783,0.2215927532235481,0.06358381502890176,0.592485549132948,0.4210723716687026,0.265036920209334,0.1809401381630908,0.05197505197505198,0.5072765072765073,0.3200303601278916,0.5479788195789747,0.14502197203737216,0.2921348314606744,0.7921348314606746,0.5665240941145085,0.5450959661678596,0.17233330195260924,0.25943396226415094,0.9457547169811321,0.5712410450835287,0.4721358583003581,0.2502029745445358,0.0806010928961749,0.7377049180327868,0.5333239732715703,0.42091165845648615,0.24624537439753702,0.18761904761904763,0.8642819047619049,0.4865777911460435,0.4018025258484333,0.1633735340682006,0.23447660506428375,1.0,0.4332158737632946,0.5018150276713494,0.1488406034144151,0.24691358024691357,0.8726913580246913,0.5230582088927608,0.4448654793482376,0.053844437570187545,0.3076923076923077,0.5714285714285715,0.44805639328287183,0.5094894413258487,0.04627969516339983,0.35658914728682173,0.6511627906976745,0.5115509488263534,0.2533015407190022,0.02856341161010819,0.2021276595744681,0.3404255319148936,0.25487932892929815,0.34720570749108215,0.056628571635692605,0.24137931034482757,0.4482758620689655,0.3517148118415718,0.6197210383572259,0.016411395460075535,0.5842696629213483,0.651685393258427,0.6199345575103534,0.3563218390804598,0.0925152597675961,0.11111111111111105,0.5555555555555555,0.36793580427353256,0.6239595719381685,0.02511149108471286,0.5689655172413792,0.689655172413793,0.6244559729943918,0.4547413793103448,0.03421885078346902,0.359375,0.53125,0.45600489401109395,0.5179927898664052,0.4697878567766063,0.0011933404826748872,0.9966066164778721,0.6965715881702437,0.4434949144013651,0.24678887411742673,0.07298158385597309,0.7089345970668135,0.5065001536221485,0.6833967036994395,-0.28611955406889256,1.0,0.005443199290038314,0.613577746774671,-0.518882648615319
22,0.12679425837320524,0.04252724601586403,0.07655502392344449,0.2248803827751189,0.13354816602073705,0.8857089412644973,0.034692922680392285,0.8047138047138049,0.922558922558923,0.8863692764404956,0.6148843930635839,0.04417537438653384,0.523121387283237,0.6647398843930636,0.6164252373242852,0.5664703164703168,0.029977558558981147,0.525987525987526,0.6216216216216217,0.5672409636543803,0.7298168955472328,0.07925778733521091,0.5973782771535583,0.9082397003745319,0.7339891031360334,0.6067216981132076,0.10575836420803475,0.3679245283018868,0.8066037735849056,0.6156178691320354,0.897313296903461,0.04659422755398569,0.7937158469945355,0.9767759562841529,0.8984886580660301,0.20753925925925926,0.040187947061094714,0.14095238095238094,0.2895238095238095,0.2112883151929189,0.20501681635399818,0.08424624970442088,0.07435547323878924,0.3683975719558194,0.2212061814857058,0.4984629629629629,0.13974114966066795,0.3395061728395062,0.7993827160493827,0.5171561479176919,0.4511599511599512,0.05497295646009179,0.3516483516483517,0.5934065934065934,0.45440442593306474,0.5167958656330752,0.04807273127425265,0.434108527131783,0.6434108527131783,0.5189650856566376,0.25472813238770686,0.06306248252401528,0.1276595744680851,0.4148936170212766,0.26220760731630294,0.34770114942528735,0.056735853073264696,0.27586206896551724,0.48275862068965514,0.352172728732265,0.6235955056179775,0.01408501506804517,0.5842696629213483,0.651685393258427,0.6237501354776344,0.337962962962963,0.09140776328470424,0.16666666666666663,0.5555555555555555,0.34977456976896476,0.6206896551724135,0.024032139739212754,0.5862068965517241,0.6724137931034482,0.621141810617202,0.4600694444444444,0.024045519415646942,0.390625,0.515625,0.4606799539433833,0.9463485003206854,0.0008014359319201785,0.9447972236722724,0.9478125942338866,0.9463488302508274,0.8804154698173002,0.04491937319632762,0.7772839382296524,0.927792701183831,0.8815288429588695,-0.6223476767291699,-0.33234938853376644,1.0,0.2565674016877118,0.5002478909634773,-0.4653803644566488
23,0.6114149008885854,0.2289240594845145,0.3349282296650715,0.9043062200956937,0.6522926840630436,0.464550264550265,0.2778530905112952,0.09090909090909105,0.7811447811447816,0.5402836270240878,0.26746490503715936,0.11621029378724294,0.10982658959537575,0.3872832369942197,0.2912891718409159,0.14080784080784078,0.06551849439388792,0.06029106029106032,0.23492723492723494,0.1551070509005649,0.5512038523274481,0.1510465550423388,0.30711610486891416,0.8370786516853934,0.5712397212700043,0.47031671159029664,0.1522147528653523,0.10613207547169817,0.6886792452830189,0.49400015156703964,0.473048399687744,0.24630453708882952,0.14480874316939896,0.7800546448087431,0.532516720269312,0.2931494965986394,0.13421143163368002,0.14428190476190478,0.8,0.32201243971584786,0.38344354681401277,0.1578709606705018,0.14491205775392396,0.7841122632454138,0.4142416535398593,0.603346737213404,0.13623599748097756,0.41513580246913584,1.0,0.6183222347044017,0.4610675039246465,0.06780371203723362,0.3076923076923077,0.7142857142857144,0.4659559101540959,0.5095238095238097,0.06540455217528086,0.3178294573643411,0.6666666666666667,0.513644971867563,0.2519756838905775,0.05346960463127937,0.14893617021276595,0.3936170212765957,0.2575070893279041,0.34876847290640406,0.06002603223686649,0.2068965517241379,0.5172413793103448,0.35382354222375434,0.6194221508828253,0.017314071408543526,0.5730337078651685,0.651685393258427,0.619660629331485,0.3499999999999999,0.08264611972587355,0.16666666666666663,0.5555555555555555,0.3594896441245618,0.626847290640394,0.02609601240803313,0.5689655172413792,0.689655172413793,0.6273824982008595,0.4558035714285714,0.029975296074287585,0.375,0.515625,0.4567740996652503,0.02224326643059386,0.015892075337797375,0.002981862691917858,0.041246017394782175,0.02727110169721279,0.43464057767179537,0.25969393967339865,0.08817157825293709,0.7375687771555601,0.5053611896743373,-0.7891788006141535,0.615663190680271,1.0,-0.47489107169945155,0.810009673734056,-0.6504563608227215
24,0.7582627898417371,0.14342875345038067,0.41626794258373145,0.8803827751196174,0.7715035816064474,0.2965552965552968,0.18810664999675225,0.13468013468013496,0.7037037037037037,0.35040659916395245,0.10867052023121387,0.11286349201815556,0.0,0.3872832369942197,0.15604960104107127,0.16491284183591867,0.0892822684125594,0.10602910602910603,0.4178794178794179,0.18720291960827412,0.47571305099395006,0.13393480840658148,0.1685393258426966,0.9925093632958804,0.49392860046731923,0.726378809869376,0.09477208908047566,0.5330188679245284,1.0,0.7324409488444121,0.32669188734762517,0.15149906685395273,0.1721311475409837,0.7062841530054644,0.35961986781571603,0.32909936996336997,0.2027465852126015,0.10190476190476191,0.7066666666666667,0.3857203266487736,0.37630764239073133,0.16449061689020966,0.19560897132582572,0.8698779218321189,0.41018086342459625,0.5564406457739791,0.11703020330972848,0.33641975308641975,0.9297901234567901,0.5684290210836616,0.44970414201183384,0.055400165033947325,0.2857142857142857,0.5494505494505495,0.45305162564647644,0.5062611806797855,0.06913096678556273,0.2713178294573644,0.7054263565891473,0.5108874133913549,0.2572831423895254,0.04953853895645603,0.13829787234042554,0.3829787234042553,0.2619368766044173,0.3501326259946949,0.07009600634263076,0.24137931034482757,0.5172413793103448,0.35697438892873995,0.6203975799481418,0.020400715556713526,0.5730337078651685,0.696629213483146,0.6207277531172912,0.34615384615384615,0.09148194285729765,0.16666666666666663,0.5555555555555555,0.3578584609348758,0.6265251989389917,0.020508574278866806,0.5517241379310345,0.6551724137931034,0.6268556099536462,0.4584134615384615,0.02653331966195813,0.375,0.515625,0.45916890981466135,0.1515579015024692,0.3160608073869687,0.00038208474717177365,0.9975271240140806,0.34832082054953634,0.28547861172629635,0.16848424656129676,0.13545237664582932,0.6599118245249584,0.33082964939383847,0.3164267560581255,-0.30702049025799943,1.0,-0.013221997588277917,0.32704359086721163,-0.6378533734663517
25,0.49867091972355115,0.161763134166066,0.3540669856459324,0.8755980861244019,0.523855556046868,0.5568382235048904,0.13712005757327536,0.17845117845117864,0.6835016835016838,0.5732122419541554,0.5599137535553723,0.1531626600634249,0.1502890173410405,0.6791907514450868,0.5801636406622364,0.48500148500148504,0.15396366618946347,0.1891891891891892,0.632016632016632,0.5084830224567087,0.610011295404554,0.14154658590109717,0.32771535580524347,1.0000000000000002,0.6259642112038525,0.5206274333632824,0.14260705391920794,0.20754716981132076,0.8632075471698113,0.5395061540853181,0.5661592505854801,0.1717200010379368,0.06557377049180346,0.7281420765027322,0.5912326074542746,0.371405956160242,0.2569708372377976,0.0,0.7947657142857143,0.45047556710015846,0.36724425740770417,0.14447323771742684,0.13857156376319812,0.7291906068758536,0.39422018115654933,0.513037428963355,0.2248522521433411,0.1049382716049383,0.8819506172839506,0.5594313383946461,0.4540380254665969,0.09340816556896565,0.1758241758241758,0.6703296703296704,0.4633973678664973,0.5156884459210039,0.07472919504151777,0.3798449612403101,0.8294573643410853,0.5209898115542624,0.25937183383991885,0.07724569273845709,0.14893617021276595,0.574468085106383,0.2704550472529448,0.3524904214559388,0.06825115125809304,0.17241379310344826,0.5172413793103448,0.35893422360068533,0.6195826645264848,0.020466631709626388,0.5730337078651685,0.6629213483146067,0.6199152460284819,0.345679012345679,0.08837465752148331,0.055555555555555525,0.49999999999999994,0.3566231766768014,0.6256157635467979,0.025238794990048267,0.5689655172413792,0.689655172413793,0.6261165780514925,0.45783730158730157,0.03328018756762964,0.390625,0.53125,0.45902612683707644,0.7858729675122614,0.3578784699066092,0.00020417061816746518,0.9962360330307307,0.8623458424829294,0.5442103367919754,0.14632276344749667,0.1651277770512103,0.6651082956324266,0.5632365355081682,0.15306364042293322,0.12731450238407424,1.0,0.41680814302123675,0.43833398607232116,0.1276981337622
26,0.22854525094166683,0.030461221797291434,0.13397129186602807,0.26794258373205704,0.23052348146196272,0.7832939322301032,0.01885712095821945,0.7609427609427613,0.8451178451178456,0.7835160556830609,0.6917353339072685,0.013916699354061281,0.6676300578034683,0.7225433526011561,0.6918723335718983,0.574777723713894,0.01782558055586344,0.5280665280665281,0.6008316008316009,0.5750481913139542,0.7150768985576542,0.09657010180528947,0.5486891385767794,0.919475655430712,0.721430755142429,0.5165596146126055,0.08291767513443939,0.3514150943396227,0.6863207547169812,0.5230324009567264,0.8041506801534704,0.03692419115099147,0.7472677595628415,0.9125683060109289,0.8049799400359035,0.24999003039513681,0.03223016077167286,0.18952380952380954,0.31238095238095237,0.2520152709435844,0.28250923402932177,0.07361668290779397,0.1715245575849343,0.4651408022279604,0.29174573962737926,0.5839472025216706,0.07250891410541561,0.47917283950617284,0.7137407407407408,0.5883366513728295,0.44447042319382746,0.12528999057541046,0.23076923076923078,0.9010989010989012,0.4614298947095538,0.520699323767112,0.08905299960904538,0.39534883720930236,0.8372093023255814,0.5280998862093363,0.2618832050701675,0.05233130525902803,0.1276595744680851,0.3936170212765957,0.26695151480495094,0.3646368305209097,0.08469275398904359,0.10344827586206895,0.5172413793103448,0.3741393679542073,0.6189337795840306,0.03202352497296105,0.5393258426966292,0.7528089887640449,0.6197440684524894,0.3510638297872341,0.11415303583468207,0.055555555555555525,0.611111111111111,0.36878106601608074,0.6247248716067495,0.04332219843791119,0.5172413793103448,0.7586206896551724,0.6261932975469163,0.4471409574468085,0.09014544639707868,0.1875,0.6875,0.4559477376061773,0.9399286401653555,0.0030135906368173294,0.9344401434501488,0.947282483646307,0.9399333684380795,0.7902664248869354,0.022596434425070255,0.765559239435393,0.8628767445164558,0.7905825430320433,-0.27455851928262803,-0.40804695434099664,1.0,0.6662661227015269,0.4109056090132595,0.5776632335698214
27,0.3916746411483247,0.028298513076787102,0.3588516746411483,0.45933014354067003,0.3926752019725452,0.7336700336700334,0.02471659244959298,0.6734006734006737,0.7643097643097647,0.7340779318634103,0.3640462427745665,0.02097960233830559,0.3265895953757226,0.3959537572254336,0.3646381874108451,0.27027027027027034,0.028736985047631444,0.22245322245322247,0.3180873180873181,0.2717633474466345,0.6916479400749067,0.08016457155842092,0.5580524344569291,0.8932584269662922,0.6961858260352217,0.4589150943396226,0.11230253911802152,0.1391509433962264,0.6367924528301887,0.4721892490297216,0.7041803278688525,0.03704773818806607,0.5983606557377048,0.7745901639344261,0.7051347519192618,0.212228419047619,0.046752421520186535,0.10095238095238096,0.3071466666666667,0.21721642431246532,0.23472684502967467,0.06375878439592418,0.08702970163176468,0.4043045059416783,0.24306495163531477,0.5629241975308644,0.10105638831121154,0.4182222222222223,0.8101975308641975,0.5717445215407873,0.45626373626373634,0.07575247445984215,0.2857142857142857,0.6153846153846154,0.4623854081482218,0.5168992248062017,0.06354775344033284,0.3798449612403101,0.689922480620155,0.5207133177029556,0.2574468085106382,0.039688646982372636,0.1595744680851064,0.3191489361702128,0.26042761784729906,0.35310344827586204,0.0719144338557425,0.24137931034482757,0.6206896551724137,0.36020868571587844,0.6206741573033708,0.018380038790753974,0.5730337078651685,0.651685393258427,0.620940801408379,0.348888888888889,0.0744848775025401,0.22222222222222218,0.5555555555555555,0.35659570079736025,0.6268965517241374,0.02692738988909644,0.5862068965517241,0.6724137931034482,0.6274630421015482,0.4559375,0.03055509253540134,0.359375,0.515625,0.4569397611419912,0.5795106520648227,0.49686424348794256,3.5328725664640626e-05,0.9999681028065681,0.7601113015764894,0.6887010148791546,0.02543772111875463,0.626906898101399,0.7202031918908511,0.6891612467327072,0.6111406079846008,0.7291061012527221,1.0,0.5917760069211718,0.2775840372468289,0.16100899913070865
28,0.5262432941858776,0.29094745841782016,0.21052631578947345,0.9952153110047854,0.6002498197086321,0.535659626568718,0.3005206893740007,0.0,0.8316498316498322,0.6130868994411175,0.37147486424943066,0.11077173953269362,0.161849710982659,0.4566473988439307,0.38739906843695593,0.43545643545643553,0.1727388429081971,0.1891891891891892,0.6216216216216217,0.46798388155534565,0.5664226535013053,0.147603349599554,0.252808988764045,0.7565543071161052,0.5850566373931035,0.7277730131503715,0.21907007822930644,0.17688679245283023,0.9551886792452831,0.7595512562613288,0.5267221394270575,0.28346113355674385,0.0,0.842896174863388,0.5971339874026994,0.3337228282828284,0.15776163848393257,0.12285714285714286,0.6480990476190477,0.36862251512241845,0.4251624452012454,0.18325977184578804,0.11998269545350082,0.8229798969838718,0.4624266407984671,0.47429779274223716,0.16061400841090667,0.14353086419753092,0.7484691358024691,0.5003642617008174,0.4503829503829501,0.05213409554506572,0.34065934065934067,0.6153846153846154,0.4533448848751509,0.5189100305379375,0.04721939703427428,0.434108527131783,0.6744186046511629,0.5210216006542445,0.2611218568665376,0.01660516520799593,0.22340425531914893,0.2978723404255319,0.2616413153438079,0.3505747126436782,0.04708004876588948,0.24137931034482757,0.48275862068965514,0.35367439309920357,0.6191692202928158,0.02123920512907721,0.5730337078651685,0.6629213483146067,0.6195278785381211,0.3375420875420874,0.08894795369930678,0.11111111111111105,0.49999999999999994,0.3488932852668595,0.6256530825496341,0.03651381241871173,0.5344827586206896,0.7068965517241379,0.6267015536241192,0.4578598484848485,0.032193648704360416,0.375,0.515625,0.45897316737605914,0.6912045461088602,0.4315255617533231,0.0033484553344645396,0.9999999999999999,0.8131153706958917,0.5056846376161693,0.2871458859925844,0.004778802092584744,0.7947964784437214,0.5804484717211559,0.5613596925290105,0.5084702102092273,1.0,0.6928141761292286,0.7507675384079746,0.6582135424908659
29,0.6450479851757623,0.10890383208354712,0.5071770334928227,0.9665071770334928,0.6541241416202636,0.4256242579942001,0.11389334323388432,0.04713804713804737,0.558922558922559,0.4405141561153889,0.5303885863209591,0.08344372594091787,0.22543352601156075,0.6271676300578035,0.5368749017968529,0.47562279932222157,0.09915298208653144,0.18295218295218296,0.5841995841995842,0.48578959713847547,0.5635405165508431,0.10285711353844987,0.2940074906367043,0.8501872659176033,0.5727969499959624,0.49436961500708926,0.0923774126654494,0.24292452830188682,0.6933962264150944,0.5028772966879416,0.44458131968792436,0.1092568736267803,0.024590163934426368,0.6352459016393442,0.45773421750804233,0.2504291549683459,0.11033783918490299,0.1,0.6142857142857143,0.27353030533342176,0.26602950447058854,0.12122949339755813,0.07562627587232493,0.6928578188159906,0.29220427089728007,0.6060992649682438,0.14849198799467073,0.2986172839506173,0.9583456790123457,0.6239220573074965,0.4528361811598805,0.08514735099341021,0.27472527472527475,0.7142857142857144,0.4607263509086498,0.5136443070305149,0.05495228163068049,0.2790697674418605,0.7364341085271318,0.5165585854287392,0.2538433157053254,0.05305940131145257,0.13829787234042554,0.425531914893617,0.2592980053625718,0.35260115606936443,0.07853637608270912,0.13793103448275862,0.5862068965517241,0.3611923098129178,0.620380593622134,0.02165836465166107,0.5393258426966292,0.6741573033707865,0.6207563565761838,0.3471419396274885,0.08888809539458532,0.16666666666666663,0.611111111111111,0.35827775355232633,0.624775762407814,0.030244879098294587,0.5517241379310345,0.7241379310344827,0.625503172187005,0.4595375722543353,0.04029419470134529,0.3125,0.578125,0.46129059966689173,0.894549299804933,0.24135253179850238,0.0017786058906218982,0.9988800194018164,0.926354566646351,0.4077680677831041,0.11422553088540136,0.04178799692310675,0.5471214322032365,0.42337554262955035,0.31568387566637074,-0.03524534861915561,1.0,0.13097449370541522,0.662310135014667,-0.029387958940725885
30,0.35453607280232635,0.27364448284945064,0.07655502392344449,0.8468899521531092,0.44621616854280544,0.668713276556414,0.2195710421832535,0.21885521885521886,0.8754208754208759,0.7031668126447743,0.6457554119913862,0.18686105889565396,0.16763005780346826,0.7890173410404625,0.6717383860581536,0.45322245322245347,0.1552116732354333,0.1995841995841996,0.6153846153846154,0.47856962885495963,0.6180142468972609,0.15855418971371607,0.3483146067415732,0.9962546816479401,0.63764261967239,0.4405290418054013,0.16250278205404628,0.14150943396226418,0.7216981132075472,0.46899382033510767,0.6852298296367726,0.2778722343544148,0.002732240437158473,0.9631147540983606,0.7384029510207242,0.47672276377217543,0.23758769811417613,0.16428952380952383,0.8633371428571428,0.531606702313702,0.42222536786078124,0.19332785194142424,0.04773621381930268,0.7270748556827862,0.4635914834804968,0.5235473251028807,0.18921560656676714,0.1713086419753087,0.9691358024691358,0.55605965209631,0.4514113337642747,0.0818469074118973,0.23076923076923078,0.6373626373626374,0.458628125178403,0.5085879312965497,0.05970660053663652,0.372093023255814,0.689922480620155,0.5120123655114425,0.2565707133917397,0.05778650779882101,0.14893617021276595,0.3723404255319149,0.26287323059987683,0.34820824881676804,0.07306925093458903,0.2068965517241379,0.5517241379310345,0.35564506384638195,0.6173165895571713,0.021485280875770087,0.5730337078651685,0.6629213483146067,0.6176830398491702,0.3540305010893247,0.1053862878573924,0.055555555555555525,0.6666666666666666,0.3690881945774237,0.6227180527383362,0.027510036828768635,0.5862068965517241,0.689655172413793,0.6233135134706829,0.45496323529411764,0.03375102122637964,0.375,0.53125,0.4561889312474022,0.7816291636676354,0.3601423901744642,0.0016800008889003015,0.9977723122727409,0.8591295034009592,0.6774886046796312,0.2445959721160916,0.19955499981204916,0.9046649203377097,0.7194754456530342,0.29187892196700527,0.31825103813100847,1.0,0.8013006639935336,0.5456851339388324,0.6229992644976604
31,0.7131126341652659,0.19378364946723742,0.4832535885167464,0.9856459330143545,0.738629995977895,0.3798798798798801,0.23931750459539683,0.03030303030303072,0.6498316498316499,0.44811564742549026,0.3174113419778159,0.06365460486145974,0.23699421965317924,0.42485549132947986,0.323646586901488,0.2901612631342362,0.04952811622646382,0.22453222453222454,0.37422037422037424,0.2943016204652578,0.5158163781759288,0.16108243459995755,0.0,0.7584269662921348,0.5400587413917678,0.5724757776644569,0.10906168665764747,0.3113207547169811,0.7405660377358492,0.5826338744684353,0.3986486486486487,0.20711027317053451,0.012295081967213295,0.6639344262295082,0.44859308140408966,0.2452446846846846,0.08782695144062592,0.13904761904761906,0.46905142857142856,0.2602965449003787,0.3291704011870569,0.18380764904756364,0.05280590517649286,0.7063769957684978,0.3764064922509037,0.5783767100433768,0.1298566339829973,0.3318024691358025,0.8726913580246913,0.5925828964560991,0.45574695574695534,0.09453494867391345,0.2857142857142857,0.8901098901098902,0.46531857459383164,0.5182275298554369,0.08534062686105824,0.35658914728682173,0.8837209302325582,0.525113679186589,0.2581943645773433,0.0676340645368804,0.11702127659574468,0.4574468085106383,0.2667899563687751,0.3490214352283319,0.08598510963801766,0.2068965517241379,0.5862068965517241,0.35931809026181094,0.6213179471606438,0.02268101341729525,0.5617977528089888,0.6629213483146067,0.6217262002673098,0.3513513513513512,0.09779754025243872,0.055555555555555525,0.6666666666666666,0.3645310451564897,0.6267474370922645,0.039997437780604696,0.5344827586206896,0.7586206896551724,0.6280051959012697,0.45565878378378377,0.07544757233859964,0.21875,0.71875,0.46177953608764893,0.5003792829628244,0.49549020392043175,0.0006890165057013564,0.9990603555516686,0.701834922877187,0.34851615570479544,0.22332904736488354,0.025529362101020414,0.6053120717468459,0.41311666152570425,0.7625680867171911,-0.04162194376061659,1.0,-0.303193718478022,0.8783993720875805,-0.4025271919858598
32,0.9609975351602144,0.06571293395826816,0.7416267942583739,1.0,0.96320767498858,0.06244260789715351,0.09573952384746887,0.0,0.3670033670033672,0.11369369404110043,0.23800140129619896,0.042526567750192826,0.21965317919075147,0.38150289017341044,0.24171424106284492,0.23933723933723927,0.018979242629572225,0.22661122661122662,0.32224532224532226,0.24007721264642848,0.3285949381455001,0.09156177685079388,0.12359550561797783,0.5898876404494382,0.34092692579790373,0.6193896512292738,0.10856450212344974,0.29952830188679247,0.7995283018867925,0.6286900759585682,0.14338052657724798,0.0696815807692998,0.05601092896174886,0.37431693989071047,0.15918520526211724,0.2584050793650794,0.09339722691787268,0.19952,0.4947580952380952,0.27452515319120147,0.32234152554489465,0.1382762591293862,0.11449390961078296,0.7017263988968352,0.35033509823179493,0.5972630003741116,0.07704329783072504,0.3279382716049383,0.7314814814814815,0.6021368839113829,0.46803196803196806,0.14612908570319555,0.15384615384615385,1.0,0.4899837668050273,0.5196147521728919,0.0906879362891806,0.3023255813953489,0.7596899224806202,0.5273510992033,0.25950999355254684,0.07076061590044462,0.09574468085106383,0.4787234042553191,0.26884314553032185,0.3610240334378266,0.0845127315357213,0.17241379310344826,0.6206896551724137,0.3706380124897899,0.6234252638747021,0.02179110683262685,0.5617977528089888,0.7078651685393258,0.6238002222201064,0.34343434343434337,0.10536829584435935,0.11111111111111105,0.5555555555555555,0.35900056637724737,0.6253918495297803,0.032368252695245375,0.5517241379310345,0.7068965517241379,0.6262162525366836,0.4661458333333333,0.12528762981354094,0.140625,0.734375,0.4824428411052568,0.0721245833409592,0.2364476093223599,0.0011397986163141915,0.9991330059036587,0.24548389879576304,0.05585144704021768,0.08573091272120004,0.0,0.332043118141538,0.10177334173103568,0.47334668135771113,-0.5160228727396248,1.0,-0.7388084945441136,0.6388763680198242,-0.8528484240671921
33,0.7150119617224876,0.22135995276685155,0.3732057416267942,0.9712918660287082,0.7478111365829592,0.3440656565656568,0.22492120443189653,0.05387205387205407,0.65993265993266,0.40977649433581925,0.46007947976878616,0.18384509253278497,0.26300578034682087,0.6965317919075145,0.4947403354724211,0.3652979902979903,0.11861051857013334,0.2577962577962578,0.5738045738045738,0.38368995819062146,0.4946941323345819,0.17094655690814026,0.2415730337078652,0.7865168539325846,0.5228156492565416,0.48638954402515727,0.16422913707178996,0.1320754716981133,0.7051886792452831,0.5128197517678041,0.3812329234972678,0.2391688318346105,0.07786885245901642,0.7049180327868851,0.44871880879739023,0.4019149206349206,0.21124860988969463,0.16476190476190478,0.7685714285714286,0.45302524299761276,0.4247714132496949,0.1474475236480115,0.22179561708283205,0.7439738268734201,0.4491309307866513,0.5153418209876544,0.1832603904166765,0.0941481481481482,0.791679012345679,0.5463166561299876,0.4693223443223444,0.19483074949667156,0.0,0.8901098901098902,0.5073772471181669,0.5166343669250646,0.1185116322151912,0.3178294573643411,1.0,0.529776813145394,0.26041666666666674,0.08042193852985147,0.11702127659574468,0.5212765957446808,0.272304581251537,0.3649425287356321,0.12540991221423192,0.13793103448275862,0.7586206896551724,0.3854647014554936,0.6217228464419476,0.030161107947659714,0.5730337078651685,0.7415730337078652,0.6224387827688986,0.3425925925925926,0.132826723390743,0.11111111111111105,0.9444444444444444,0.36694013371174733,0.624640804597701,0.048537127546246756,0.5344827586206896,0.793103448275862,0.626484562661579,0.4739583333333333,0.1814554655911687,0.109375,1.0,0.5068299789911472,0.5237335787836656,0.48130895220540804,0.0004682173870168005,0.9979998868496813,0.7079046223041574,0.3324871148367136,0.23079031842023187,0.04581471567266959,0.6592223997313778,0.4033635858356494,0.3665035939254614,-0.707604866919466,1.0,-0.016578230491447028,0.6110692823693998,-0.557178166819346
34,0.972546866420895,0.0021221663280993866,0.9712918660287082,0.9760765550239237,0.9725491438203439,0.05056024728155886,0.0004311006058346788,0.05050505050505061,0.05387205387205407,0.05056205500393148,0.222495972709182,0.00037004878593322545,0.21965317919075147,0.2225433526011561,0.22249627539142078,0.2744282744282743,0.0,0.27442827442827444,0.27442827442827444,0.27442827442827444,0.30180512064837023,0.006640069613303228,0.2808988764044944,0.32397003745318376,0.3018769593370179,0.6960640272193009,0.010148595318129311,0.669811320754717,0.7169811320754718,0.6961367937048493,0.13513392457224765,0.006505444217430048,0.12021857923497281,0.14890710382513672,0.13528785825447992,0.2114829039812646,0.004562318854607039,0.1985752380952381,0.22047238095238095,0.2115313031308025,0.25516770539009587,0.00328454773138993,0.24799578201679087,0.26193405345482573,0.25518849752923206,0.6114323011536126,0.004005101083472752,0.600320987654321,0.6203703703703703,0.611445203402715,0.4555935867411273,0.15408894722507763,0.054945054945054916,0.989010989010989,0.4805410323906324,0.51429660693862,0.08819154281487734,0.3410852713178295,0.9147286821705427,0.5216811708921443,0.25723753051970705,0.07156204608605775,0.09574468085106383,0.4787234042553191,0.26684887231435106,0.3453928773318258,0.12786422075318182,0.0,0.7586206896551724,0.3679367853611146,0.6198194879351632,0.035601038509764725,0.5280898876404494,0.7865168539325842,0.620824334221492,0.3424408014571949,0.14493518058383753,0.055555555555555525,0.9999999999999999,0.371385978506688,0.6215375918598075,0.047262163972495226,0.49999999999999994,0.8275862068965516,0.623302552542819,0.45338114754098363,0.08864080555531147,0.21875,0.765625,0.46182556330516306,0.0073981412700095325,1.9701776425843452e-05,0.007379288852272514,0.0075282737905968955,0.007398167073521253,0.04421973672549158,0.0005296064125868227,0.04396899104345753,0.04741752037807956,0.04422285609210307,0.175108832025189,-0.10453710569489115,1.0,0.05318506358160295,0.1429467815751323,0.42999347936288673
35,0.9289851422815402,0.019535981043571626,0.8421052631578947,0.937799043062201,0.9291869313766941,0.11778604761060928,0.026954743588028806,0.10437710437710446,0.2390572390572392,0.12077816267233113,0.21159111651962287,0.01754402974593363,0.16473988439306364,0.2225433526011561,0.21230448344985425,0.32246416456942784,0.008720878383420795,0.30353430353430355,0.3284823284823285,0.3225800007369517,0.35603521913397745,0.05310621035892674,0.2808988764044944,0.5430711610486891,0.35990536037798154,0.7550066203243962,0.03716846811835974,0.6745283018867925,0.8797169811320755,0.755904924577923,0.17733199118013618,0.016380098403186744,0.13251366120218588,0.23360655737704938,0.17807368016727523,0.19491221386800328,0.031609083915504675,0.11714285714285715,0.22476190476190477,0.19741422600961228,0.2859264419210229,0.08168493455935985,0.21419783963552302,0.6531452365180008,0.2971688048464446,0.6184273337665152,0.03551623690643603,0.5216049382716049,0.7639012345679013,0.619428478805171,0.45479082321187575,0.05382510024623064,0.31868131868131866,0.6043956043956045,0.45790938759961825,0.5180198558411534,0.04338718522624981,0.434108527131783,0.6666666666666667,0.5198018790720287,0.2568122433743934,0.0334266204732613,0.18085106382978722,0.32978723404255317,0.25894065896537566,0.34724742891712024,0.05896006122411893,0.24137931034482757,0.5517241379310345,0.35213076858739895,0.6231027005716538,0.026527171000682005,0.550561797752809,0.696629213483146,0.6236572141876764,0.34502923976608196,0.08381924610072608,0.11111111111111105,0.5555555555555555,0.3548909480557548,0.6252268602540832,0.04063450118729937,0.49999999999999994,0.7758620689655171,0.6265228022215037,0.4487390350877193,0.03528058197758815,0.328125,0.53125,0.45009954886951825,0.0013934807991719932,0.0021099258177901085,0.0,0.006602021391403756,0.0025130607172697376,0.10369819896989438,0.025200534701031722,0.09099179505457489,0.21606305526723868,0.10666415467903369,0.5068033472541679,0.47971557358050587,1.0,-0.20516981331455508,0.6439262617774542,0.33438344190983044
36,0.9324827219564048,0.002056100262191614,0.9234449760765555,0.9330143540669855,0.9324849572939866,0.1071361765806213,0.0038045643530299463,0.10437710437710446,0.12121212121212133,0.10720277050800811,0.22178066795118823,0.0012827535165550184,0.21965317919075147,0.2225433526011561,0.22178432604649007,0.37234349734349714,0.0009336601732675572,0.37214137214137216,0.3783783783783784,0.37234465167109043,0.3338014981273407,0.012456559322968914,0.30149812734082415,0.3895131086142325,0.3340306137776803,0.7932717505241088,0.014173954418472658,0.7665094339622642,0.8325471698113208,0.7933966100709019,0.17154295689131763,0.0071514221252901656,0.15300546448087438,0.19535519125683054,0.17168989073393445,0.21312814814814818,0.006280965441640941,0.20285714285714285,0.23380571428571428,0.21321939437104132,0.2582896025512189,0.0117998821360888,0.24376427963065614,0.3075612756695373,0.2585552593822766,0.6106450617283952,0.008455696050626866,0.5655925925925926,0.6242345679012345,0.6107027895549084,0.4571123321123318,0.055901282145469966,0.31868131868131866,0.5824175824175825,0.46047066723612656,0.5205641688199828,0.05325851200872275,0.4031007751937985,0.627906976744186,0.5232438509494755,0.2556146572104019,0.05424407218364991,0.13829787234042554,0.4574468085106383,0.261228645849192,0.3524904214559387,0.0680419514974302,0.17241379310344826,0.5172413793103448,0.35890793094243667,0.6218789013732835,0.037344556826759454,0.550561797752809,0.7752808988764045,0.6229836388158275,0.34645061728395055,0.11476505812667588,0.0,0.611111111111111,0.36471374798576167,0.6302681992337162,0.04131945736948204,0.5172413793103448,0.7586206896551724,0.6316023971269792,0.4576822916666667,0.04100055788814445,0.375,0.5625,0.45948969302345793,0.9940025408892842,0.00013951349962685076,0.9931871778445407,0.9941615853837944,0.9940025505440294,0.09193360654113164,0.003508681301860673,0.08925010954723689,0.10455535755802914,0.09199960800017871,-0.0036473810504783523,-0.2543457593388447,1.0,-0.21923521291001993,-0.07978400084706995,0.16195952024855745
37,0.9119617224880371,0.015932008531839535,0.8373205741626792,0.928229665071771,0.9120987375932894,0.14172494172494204,0.018544547411068982,0.11447811447811485,0.225589225589226,0.14291454989859073,0.33672743441529596,0.0244499696049115,0.3034682080924856,0.46242774566473993,0.3376003097790586,0.36951863105709254,0.02203054690604414,0.35550935550935553,0.4261954261954262,0.3701646888199627,0.38268510515701537,0.05931708055642987,0.19475655430711614,0.5674157303370788,0.387185065231971,0.6089985486211901,0.08185089214097732,0.28773584905660377,0.7995283018867925,0.614390535800881,0.18247162673392192,0.03290050436437236,0.05601092896174886,0.28415300546448097,0.18536905021669478,0.24771422710622712,0.09706910783282889,0.19047619047619047,0.6504761904761904,0.26578147005832936,0.2773906324582959,0.0731485874484947,0.13012207816788118,0.5116197325906799,0.2867297684510711,0.5957924026590692,0.0828864997664131,0.37192592592592594,0.810962962962963,0.601442485993761,0.4512256973795433,0.06009130822150362,0.3076923076923077,0.5824175824175825,0.4551483735956372,0.5121049493142518,0.0702753492543935,0.33333333333333337,0.7131782945736435,0.5168308475538621,0.25744680851063817,0.03877874815261952,0.13829787234042554,0.3829787234042553,0.2603065793822754,0.3501326259946951,0.07140896883804672,0.2068965517241379,0.5172413793103448,0.3572305232724705,0.6210890233362146,0.025707058270453918,0.5617977528089888,0.7191011235955056,0.6216126292047226,0.35128205128205126,0.12270567748009852,0.055555555555555525,0.7222222222222221,0.3717850475173185,0.6241379310344825,0.11178678001218866,0.0,1.0,0.6339181261137494,0.45745192307692306,0.034444586472472206,0.359375,0.53125,0.4587269762090769,0.9890211251548224,0.0036247493775005404,0.9749104284690464,0.9910471592820416,0.9890276652728438,0.12477900199683001,0.018068982660709474,0.0988406584283541,0.209528472203921,0.1260605591743217,-0.5477119738063891,0.3641558547025925,1.0,-0.5565827178963418,0.004893453857856333,-0.5584457221830627
38,0.956778309409888,0.05250215703771718,0.7464114832535884,0.9952153110047854,0.9581937531501464,0.06958473625140321,0.06951812520656174,0.01346801346801385,0.32323232323232354,0.09795028886740775,0.28227360308285177,0.08479604574059879,0.2456647398843931,0.6098265895953758,0.29453169079245606,0.22865557865557856,0.0314540044637176,0.20997920997921,0.3388773388773389,0.2307731327671711,0.3295568039950065,0.06784504996158272,0.23033707865168562,0.5711610486891388,0.3363538642812873,0.5081761006289309,0.18867747973803528,0.0,0.7122641509433962,0.5415245338437743,0.1276639344262296,0.05179020752470766,0.01775956284153024,0.32513661202185795,0.13760669311015628,0.31126234920634915,0.2009346760443906,0.2057142857142857,0.861432380952381,0.3695755425754006,0.31977112033419414,0.13903347052994577,0.1470210493585151,0.6518811934729415,0.3482265118596327,0.5953380658436216,0.05306801561745856,0.4521728395061728,0.7322592592592593,0.5976593427859269,0.45183150183150134,0.04442346312768196,0.31868131868131866,0.5384615384615385,0.45397385319967787,0.5094315245478036,0.07358414680249152,0.34883720930232565,0.7286821705426356,0.5146308007553303,0.2590425531914894,0.056150136015768605,0.1702127659574468,0.5,0.2649591191907004,0.3603448275862071,0.06136525558324607,0.2068965517241379,0.48275862068965514,0.36544675095611884,0.6234082397003745,0.02063442343838517,0.5842696629213483,0.6629213483146067,0.6237439510192546,0.34351851851851845,0.08768706525552601,0.11111111111111105,0.5555555555555555,0.3543527107577973,0.6270114942528732,0.026362137228123847,0.5689655172413792,0.7068965517241379,0.6275562074426496,0.45755208333333336,0.027606998042618486,0.390625,0.515625,0.45837032284451323,0.1275902371820381,0.3159597853981466,0.0020409414017354965,0.9997869679193812,0.3382987016132305,0.06210184241391286,0.066112993285695,0.011193282272144556,0.31455575761164134,0.09030347675686087,0.4287156890093221,-0.9090140813456521,1.0,-0.5970540347628966,-0.09821182504508015,-0.571941080833127
