,Orientation X,Orientation X,Orientation X,Orientation X,Orientation X,Orientation Y,Orientation Y,Orientation Y,Orientation Y,Orientation Y,Orientation Z,Orientation Z,Orientation Z,Orientation Z,Orientation Z,Orientation W,Orientation W,Orientation W,Orientation W,Orientation W,Accelerometer X,Accelerometer X,Accelerometer X,Accelerometer X,Accelerometer X,Accelerometer Y,Accelerometer Y,Accelerometer Y,Accelerometer Y,Accelerometer Y,Accelerometer Z,Accelerometer Z,Accelerometer Z,Accelerometer Z,Accelerometer Z,Gyroscope X,Gyroscope X,Gyroscope X,Gyroscope X,Gyroscope X,Gyroscope Y,Gyroscope Y,Gyroscope Y,Gyroscope Y,Gyroscope Y,Gyroscope Z,Gyroscope Z,Gyroscope Z,Gyroscope Z,Gyroscope Z,EMG1,EMG1,EMG1,EMG1,EMG1,EMG2,EMG2,EMG2,EMG2,EMG2,EMG3,EMG3,EMG3,EMG3,EMG3,EMG4,EMG4,EMG4,EMG4,EMG4,EMG5,EMG5,EMG5,EMG5,EMG5,EMG6,EMG6,EMG6,EMG6,EMG6,EMG7,EMG7,EMG7,EMG7,EMG7,EMG8,EMG8,EMG8,EMG8,EMG8,Roll,Roll,Roll,Roll,Roll,Yaw,Yaw,Yaw,Yaw,Yaw,Accelerometer X vs Roll,Accelerometer Y vs Roll,Accelerometer Z vs Roll,Accelerometer X vs Accelerometer Y,Accelerometer X vs Accelerometer Z,Accelerometer X vs Accelerometer Z
,mean,std,amin,amax,RMS,mean,std,amin,amax,RMS,mean,std,amin,amax,RMS,mean,std,amin,amax,RMS,mean,std,amin,amax,RMS,mean,std,amin,amax,RMS,mean,std,amin,amax,RMS,mean,std,amin,amax,RMS,mean,std,amin,amax,RMS,mean,std,amin,amax,RMS,mean,std,amin,amax,RMS,mean,std,amin,amax,RMS,mean,std,amin,amax,RMS,mean,std,amin,amax,RMS,mean,std,amin,amax,RMS,mean,std,amin,amax,RMS,mean,std,amin,amax,RMS,mean,std,amin,amax,RMS,mean,std,amin,amax,RMS,mean,std,amin,amax,RMS,corr, corr, corr, corr, corr, corr
0,0.24572213163992107,0.30176960630470895,0.0,0.8325581395348838,0.38872641850409395,0.2603648948695055,0.21782741459376023,0.0,0.7494646680942185,0.3392102198792492,0.6059995879146606,0.33252020483440103,0.0,0.9999999999999999,0.6909393467969163,0.3072356810524626,0.26353103466478844,0.021739130434782705,0.9521739130434779,0.40445778769062046,0.3939523385381635,0.1136149206828268,0.0,1.0,0.4099501956980697,0.7303885391795091,0.1761640957443053,0.2264705882352941,0.9852941176470588,0.7512567410472838,0.7663408832008726,0.10063967070149318,0.0,0.9329508784510578,0.772896706309072,0.6195771820288941,0.1494762920080728,0.18875990299110745,0.9999999999999999,0.6372884741399039,0.4278556778177063,0.11495338708853271,0.0,1.0,0.4429740410664306,0.5240403153931005,0.12340091679770972,0.17593465491439608,0.9254253825311332,0.5383213234960892,0.5206488314883151,0.05251485964179496,0.25000000000000006,0.8,0.5232808421783641,0.3818532601569673,0.07260524452535,0.0,1.0,0.38866950191147487,0.527817201248936,0.08182465096437389,0.0,0.9743589743589743,0.5340988350796205,0.4443384883287051,0.03799036386576173,0.15730337078651685,0.6573033707865168,0.44595362342473216,0.5805853296628203,0.0900676623796429,0.0,0.9523809523809523,0.5875045315302948,0.6457564575645773,0.0769878547218115,0.0,1.0,0.6503127408666038,0.5790003354579002,0.045150373179345456,0.3484848484848485,0.7878787878787878,0.5807516012126015,0.5613847442822256,0.0382905656153282,0.3768115942028985,0.7922705314009661,0.5626842705426353,0.7451641364226304,0.2954964405461546,0.1547516281707979,1.0,0.8014147050084214,0.3553348340223959,0.30816190334261473,0.0,0.9643889072685046,0.46997466226145646,-0.5715935972777743,0.5529728256008309,1.0,-0.5804856732632764,0.467634663904847,-0.73047360925021
1,0.738935750886875,0.07448882597257878,0.6395348837209303,0.9093023255813955,0.7426680418397911,0.5809240373099123,0.1253217775267525,0.4325481798715204,0.8008565310492506,0.5942432548219736,0.47572055407381936,0.0937727918788935,0.29695431472081224,0.6091370558375633,0.48484386573899824,0.30608695652173895,0.1428325660738918,0.1304347826086958,0.5826086956521737,0.3376702688580497,0.43493571011104604,0.029591619177687496,0.37130541871921185,0.5406403940886699,0.43593780233316237,0.6300498504486539,0.11941857453303484,0.351470588235294,0.8367647058823529,0.6412294973819506,0.7972203146744778,0.03634185565078811,0.7339548225170313,0.8827536751523845,0.7980454144654726,0.5623391091076005,0.08685702060876278,0.3585254648342764,0.7857720291026676,0.5689849227335909,0.4226433711933149,0.04949725973015186,0.29337539432176657,0.5705272645335737,0.42552214151772605,0.5312653967531045,0.07510127124569872,0.3461074449359537,0.761436378859098,0.5365295922917245,0.5169632768361578,0.05832093379550663,0.32500000000000007,0.6541666666666667,0.5202315167108625,0.38086552525165634,0.03883374038370355,0.23857868020304568,0.5482233502538071,0.38283350905017793,0.5265536723163844,0.05038852370601764,0.2692307692307692,0.8974358974358974,0.5289510056330569,0.44448676442582546,0.01641785806577901,0.38202247191011235,0.5617977528089888,0.44478884439443445,0.5833378172361224,0.007298611307537885,0.566137566137566,0.6296296296296295,0.5833833200987801,0.6493980128579807,0.010942835976200655,0.6068965517241379,0.696551724137931,0.6494898912574422,0.5803287108371857,0.0344981760173155,0.4545454545454546,0.7272727272727273,0.5813497247366027,0.5611070171129124,0.033433318223488995,0.40096618357487923,0.6908212560386473,0.5620988189927971,0.2802604465235491,0.09293387536097648,0.09605939500650063,0.3839163951904031,0.2952174556296497,0.471800962808243,0.11621452394437812,0.3150151965730772,0.6940949716925544,0.4858561326737819,-0.5181528293983206,0.41942735531469494,1.0,-0.12380722619441717,0.6002022687753783,-0.4576892277867637
2,0.636660112550004,0.06749762881792032,0.4604651162790698,0.713953488372093,0.6402177334421284,0.5267104088499868,0.11815256244665981,0.43683083511777304,0.854389721627409,0.5397621541137438,0.45600923473087535,0.08582056769583538,0.25126903553299496,0.6065989847715734,0.46399150768209946,0.30394219799721117,0.08603471956090382,0.21739130434782616,0.5391304347826087,0.3158500476447284,0.4368097344497264,0.026743488324277812,0.3768472906403942,0.5357142857142858,0.43762526561578985,0.6101912193448807,0.1415350694640519,0.2279411764705882,0.7779411764705881,0.6263442321987417,0.8005690828295671,0.02371432833099569,0.7586948727142346,0.869128719971316,0.8009192132730517,0.538308641946212,0.057178012212255255,0.364591754244139,0.6689539207760711,0.5413279851573513,0.42006754809050384,0.0427364454709463,0.25980351509689054,0.630013519603425,0.42222958676284417,0.5344316219983528,0.08241586489038924,0.24227521145516756,0.8133524955994911,0.540730737553804,0.5184645286686103,0.049474445086965455,0.32083333333333336,0.6791666666666667,0.520812876177448,0.3815542170457742,0.040394771893722724,0.27411167512690354,0.5532994923857868,0.38368033685516373,0.528631232712866,0.04820653348337398,0.3974358974358974,0.7435897435897436,0.5308183068990641,0.4443771087889431,0.014347647180653398,0.3539325842696629,0.5786516853932584,0.4446079954689843,0.5832600613941721,0.006548436494986384,0.5608465608465607,0.6137566137566137,0.5832967137037511,0.6498240675580611,0.00944691044895562,0.6206896551724138,0.6827586206896552,0.6498925316602725,0.5789380687339863,0.027454333345815686,0.48484848484848486,0.7272727272727273,0.5795867755176682,0.5612737848762692,0.01960663199942799,0.49275362318840576,0.714975845410628,0.5616151358800991,0.3730986493426831,0.06601047549295347,0.22747131311117086,0.5044412984516826,0.3788763403486422,0.4776270475565665,0.07442623600241483,0.4028745594251666,0.6744222768410102,0.48337429772754603,0.7192966943346971,0.5790185795468747,1.0,0.5593145259296483,0.48895395842317535,-0.07346904444749236
3,0.6297855995530414,0.06180985470945707,0.472093023255814,0.6953488372093024,0.6328024073092029,0.5434277961044571,0.14136988227841127,0.4561027837259101,0.9721627408993576,0.561461661066154,0.5234752519016483,0.03674169583083221,0.42893401015228405,0.6218274111675126,0.5247592187427206,0.2351220786003407,0.055959838429817006,0.1826086956521742,0.4086956521739129,0.24167021216519372,0.4194551694551693,0.024915866411672333,0.33620689655172414,0.5270935960591132,0.4201923075405435,0.5883324500971558,0.17495664053758953,0.0,0.8191176470588234,0.6137206013373818,0.7804803728073719,0.015788737338561572,0.7214055216923629,0.8321979204015777,0.7806395762213174,0.5559269471573435,0.1110771613073687,0.14955537590945833,0.9070331447049311,0.5668825759194189,0.41757173848025636,0.03665196401375003,0.3032897701667418,0.5241099594411898,0.4191723859105663,0.528196249543498,0.08742377727770437,0.12567326138693496,0.6720219926559297,0.535360853222493,0.5147397397397397,0.05888862777245443,0.275,0.6708333333333334,0.5180873055024509,0.37990274538497876,0.04859974695520041,0.22842639593908629,0.5736040609137055,0.38298947564658004,0.5271425271425273,0.05136130939046352,0.3717948717948718,0.7051282051282051,0.5296312926464337,0.44496743934946387,0.010429071080396639,0.38764044943820225,0.5056179775280899,0.44508927304713003,0.5829639162972502,0.00607160990886959,0.566137566137566,0.5978835978835978,0.5829954386163478,0.6493735114424801,0.009119860981802426,0.6,0.6758620689655173,0.6494373560722391,0.5776230776230769,0.02849129462553703,0.42424242424242425,0.696969696969697,0.5783232106468558,0.5596466031248633,0.022136759522741217,0.4251207729468599,0.6956521739130435,0.5600829268344288,0.3721701471035425,0.05442118598863504,0.18772126092262142,0.4974222216730288,0.3761161921389961,0.41312415563602395,0.03846984978277659,0.3704635990092868,0.5265550294829633,0.4149060774199719,0.6540923135540613,0.6621915779137996,1.0,0.5993782723691394,-0.29326272296765604,-0.734912387500066
4,0.6674997587571172,0.07294196498311381,0.4790697674418605,0.7697674418604652,0.6714569094941082,0.5567718375434257,0.13827302660300886,0.40899357601713066,0.942184154175589,0.5736157034404414,0.5582387261200166,0.032768117201412074,0.4593908629441623,0.5989847715736041,0.559195645058943,0.20409525527692504,0.06174907217489666,0.14782608695652133,0.34347826086956523,0.2131947461368909,0.41229585266643465,0.024245343337244037,0.3392857142857143,0.4815270935960592,0.4130051666058936,0.595246521845253,0.16537866432144113,0.1632352941176468,0.8852941176470588,0.6177014153121694,0.7706639450478988,0.0168908891762716,0.7178200071710292,0.8232341340982432,0.7708482564731274,0.5712623433081643,0.13382279804558087,0.22109620048504441,0.9834308811641066,0.5866642113328373,0.4190301713418063,0.03161491324230557,0.31095087877422267,0.5168995042812078,0.4202161823630683,0.5332046359823674,0.11702005809525887,0.10300816813570052,0.7428916123332916,0.5458425208085811,0.5197614107883818,0.056212725427952887,0.3166666666666667,0.6916666666666667,0.5227797654356152,0.38247993765402244,0.05014293473620452,0.19796954314720813,0.7106598984771573,0.38573926916248497,0.527024151505479,0.04746184192285488,0.3589743589743589,0.782051282051282,0.5291481226566994,0.44468273579188,0.011394708895665535,0.3707865168539326,0.4943820224719101,0.4448280973022138,0.5826911677534082,0.015677114333608203,0.4338624338624338,0.6613756613756613,0.5829011486445941,0.649678065531552,0.013914959887826268,0.5448275862068965,0.689655172413793,0.6498264472254557,0.5788381742738599,0.030757907652310967,0.3787878787878788,0.6818181818181819,0.5796514084911759,0.5618096898991725,0.018016590119684123,0.47342995169082125,0.6521739130434783,0.5620973032371442,0.3432742264447251,0.055739828453495004,0.20422036085788525,0.4964150400740547,0.347751680366676,0.38164252966337536,0.04576580465703233,0.3314237521831056,0.490638580211624,0.3843655010736104,0.32687651061610096,0.46244804081859564,1.0,0.5091537602912147,-0.22328802222717561,-0.7009216255275437
5,0.7091392191939395,0.11116689384431333,0.47674418604651164,0.9325581395348839,0.7177802944027112,0.6173709147635328,0.1393468832633573,0.47109207708779444,0.9743040685224841,0.6328668652677351,0.42222707122677217,0.15311953289474867,0.1649746192893402,0.6598984771573604,0.4490748787299437,0.3894845563643525,0.2138083487596476,0.15652173913043477,0.7826086956521738,0.44419455679203657,0.43912160354858126,0.042189289260743966,0.3263546798029557,0.5560344827586208,0.44113908444683164,0.5824860260846413,0.17398107239058333,0.04411764705882337,0.8102941176470587,0.6078576324255289,0.8192949353390585,0.05414056100186202,0.7518823951237004,0.944424524919326,0.8210778037085393,0.5563406577729653,0.08942527673673688,0.18472433306386415,0.7841552142279709,0.5634658065239982,0.4230281219986178,0.05538495581012517,0.2510139702568725,0.6453357368183867,0.42663022080205265,0.5271240549014569,0.10768025229998383,0.08858372833532208,0.8726852004456546,0.5379856623334445,0.5187782805429864,0.06844532964545029,0.13333333333333336,0.875,0.5232638612609894,0.38177871695339605,0.04642393152529136,0.17766497461928935,0.5634517766497462,0.38458457348259145,0.527584406543683,0.05053102854922723,0.3589743589743589,0.7564102564102564,0.5299933150385008,0.4452564949921218,0.013709361574108576,0.3202247191011236,0.550561797752809,0.44546702202171656,0.5838660250424954,0.01498354659975147,0.492063492063492,0.6984126984126984,0.5840578172869464,0.6498829770635056,0.016338045686999567,0.5310344827586206,0.7448275862068965,0.6500878492141183,0.5800082270670491,0.05414242883692136,0.18181818181818182,0.7575757575757576,0.582524088715003,0.561676175486917,0.044545692269721826,0.28985507246376807,0.714975845410628,0.5634358485227718,0.2805328027357284,0.10415315716170716,0.113744422194695,0.40336118310803815,0.2992022574150305,0.5348973046098076,0.17305525091131066,0.34546675993576126,0.8619622303852372,0.5621347617960581,-0.5405398369708557,0.01903487708984736,1.0,0.5438422775952805,0.6255440361189413,0.03939007753745015
6,0.6634285714285705,0.08242799609993116,0.4511627906976744,0.886046511627907,0.6685150943921282,0.5360171306209848,0.14654154432160127,0.4325481798715204,0.9678800856531049,0.5556324621848201,0.5093038433647568,0.152944735452828,0.12182741116751283,0.6294416243654823,0.5317101300708715,0.2652546583850935,0.1972850997437574,0.10869565217391308,0.7304347826086954,0.3304092013634994,0.42032195636875463,0.0367954740718544,0.32450738916256167,0.5461822660098523,0.42192485777963623,0.6181890756302518,0.16458001435712866,0.13529411764705868,0.8367647058823529,0.6396615699904052,0.7872929365363924,0.052905074333208915,0.6877016851918252,0.9354607386159914,0.7890634434690181,0.5330128652269319,0.08962226438727862,0.1754244139046079,0.7202910266774454,0.5404737882363433,0.4242341543809958,0.058838292049700744,0.21654078413699868,0.6295628661559262,0.4282834004305629,0.54198425517207,0.1020862827473309,0.17428652422422486,0.8042877768035495,0.5514877749810229,0.5165119047619042,0.0658122318256307,0.22916666666666669,0.7625000000000001,0.5206759285957508,0.38423495286439463,0.054276155580664315,0.2131979695431472,0.583756345177665,0.38803863622986684,0.5286813186813191,0.04926473137233045,0.3846153846153846,0.7307692307692307,0.5309651741449576,0.4450882825040147,0.016611176215039433,0.34269662921348315,0.5955056179775281,0.44539726315148476,0.5832804232804237,0.0072087400015840245,0.5555555555555555,0.6137566137566137,0.5833248405824224,0.6493793103448308,0.01157457035586907,0.6137931034482759,0.7103448275862069,0.6494821603473646,0.5797835497835492,0.0542143128354218,0.30303030303030304,0.9545454545454546,0.5823055543485858,0.5614630779848163,0.046397553734281116,0.24637681159420288,0.9613526570048309,0.5633714318875394,0.3490100633725718,0.08641256631887707,0.12948753928722112,0.5035734157629951,0.35951887473591115,0.43314081987018643,0.1667922191196696,0.29616804677743147,0.8224743100569554,0.4640594029846967,0.185199973485933,0.5739478495618566,1.0,-0.024934007297535057,0.6114503711927511,-0.5630729376029986
7,0.6167441860465115,0.06754429598497767,0.4279069767441861,0.7232558139534884,0.6204233514728538,0.5088089788082404,0.13874598994161808,0.39614561027837264,0.9571734475374734,0.527345022478975,0.48497578621856596,0.07108021013484714,0.31218274111675126,0.5964467005076142,0.49014517725573414,0.2705947026486753,0.08652533132452433,0.15652173913043477,0.48260869565217357,0.2840614641443985,0.42933157805333766,0.028357306963535847,0.35775862068965514,0.5147783251231528,0.43026490930764383,0.6211967545638941,0.1597705630632597,0.1499999999999998,0.8779411764705881,0.6413683487573524,0.7903108682302803,0.02435762191500593,0.7425600573682325,0.8565794191466476,0.7906852713277178,0.5508561276354547,0.1101310483751717,0.15562166531932092,0.8512530315278899,0.5617325331160458,0.41620110539592753,0.04409211910755461,0.2836845425867508,0.5520504731861199,0.4185247971988958,0.5325858473388453,0.10510345129565299,0.09723971072010129,0.8108802995642342,0.5428342522959466,0.5185249042145594,0.0834545682209671,0.12083333333333335,0.9125000000000001,0.5251825687545493,0.38177256549390276,0.051946426524655004,0.2131979695431472,0.5786802030456852,0.38528238955640964,0.528028293545536,0.05588303935980101,0.3717948717948718,0.8205128205128205,0.5309704452790684,0.4452279478238432,0.014451193324389731,0.3932584269662921,0.5393258426966292,0.445461875391034,0.58336070060208,0.013721015795522559,0.5291005291005291,0.7936507936507935,0.5835216709646505,0.6501149425287377,0.014418777148145136,0.6,0.7448275862068965,0.6502744510588949,0.5781260884709146,0.045474150423115124,0.31818181818181823,0.8787878787878789,0.5799076812200884,0.5610083846965401,0.0501415608434584,0.2657004830917874,0.9710144927536231,0.5632395619169631,0.39297528578068364,0.075206803244377,0.12994599741928609,0.5062165964093268,0.40009078475314286,0.4476277941421337,0.07270916629082809,0.34713797629355514,0.6172945278470297,0.45348110412149933,0.4077336764245476,0.640155641028186,1.0,0.19879812520637188,0.255168840591652,-0.6751061427809634
8,0.6399407204742372,0.1095457854720383,0.4488372093023256,0.9093023255813955,0.6492309873047667,0.5173951379266911,0.14075334869835296,0.39614561027837264,0.9100642398286939,0.536162650537513,0.5528615507116557,0.04153460124173838,0.4390862944162437,0.647208121827411,0.5544164813218413,0.20365728900255853,0.05193852802587953,0.1434782608695655,0.3739130434782605,0.21016329989946872,0.4153023278276823,0.022102271405343408,0.3171182266009852,0.5067733990147785,0.4158888986698677,0.6210841983852362,0.14600876105270189,0.15147058823529402,0.7573529411764705,0.6379830238284264,0.7707351710852863,0.01407906481633754,0.7346719254212981,0.8196486195769094,0.7708634998150918,0.563017788133846,0.09630297039144411,0.260714632174616,0.8904575586095391,0.5711786997373812,0.4141873127800016,0.03144152777507247,0.29315187021180716,0.5236593059936909,0.4153766499995513,0.5303924606358525,0.07127238231983696,0.26906063143183007,0.726001569020417,0.5351504036081036,0.5203758169934635,0.0617475031080253,0.2791666666666667,0.7708333333333334,0.524019340352225,0.3828207425102024,0.047848504593234496,0.20812182741116753,0.6243654822335025,0.3857936120681533,0.5277777777777777,0.0459792781318343,0.34615384615384615,0.8205128205128205,0.5297729055465049,0.4453293677021394,0.011498332850859952,0.3707865168539326,0.5280898876404494,0.4454774945581304,0.5835045129162767,0.017884092367295133,0.4338624338624338,0.7037037037037036,0.5837779802413939,0.6499121027721408,0.013184500594071584,0.5517241379310345,0.7241379310344828,0.6500455611266148,0.5808080808080778,0.030163796739367817,0.42424242424242425,0.7424242424242424,0.5815892857825053,0.5629629629629619,0.030918091897402845,0.34782608695652173,0.8067632850241545,0.5638096768459997,0.3788495347859064,0.10792528444218552,0.11618513730117574,0.5183186250456027,0.3938933841466226,0.3821309969281264,0.03859185822420177,0.3293913020484598,0.503245492774173,0.3840709701039591,0.3225263750351827,0.47251242259676546,1.0,0.4264410131606503,-0.243794005663319,-0.7188812981957793
9,0.6338674480952681,0.07385655406933378,0.4534883720930233,0.8255813953488373,0.638144269135416,0.5572101888157259,0.12908243023104804,0.4561027837259101,0.9164882226980728,0.5719272657769423,0.5098324737006846,0.13528827586296757,0.08883248730964466,0.6598984771573604,0.5274305635262226,0.26274624082060954,0.18603465853324333,0.12608695652173862,0.8695652173913042,0.3217944934299916,0.4191946539177743,0.033650994118640844,0.3165024630541872,0.5886699507389164,0.4205395479403659,0.5809060085160069,0.1613168341310078,0.12499999999999989,0.8147058823529411,0.6028309419926042,0.7866292030064497,0.04694190816829865,0.7310864108999642,0.9688060236643959,0.7880248334562497,0.558068699460989,0.0850288064712658,0.22352789005658846,0.7384769603880355,0.5644919734979746,0.4335008572080998,0.047425416099675065,0.32153943217665615,0.628438035150969,0.43608042073195186,0.5313366202037565,0.08243833894478889,0.1784134434724136,0.7404260088207955,0.537676913810363,0.517582663092047,0.060883352812071474,0.25000000000000006,0.7250000000000001,0.521141687094787,0.38179937670962605,0.03918272373150165,0.17766497461928935,0.532994923857868,0.3837993406026802,0.5280126486560814,0.04296654242164025,0.3333333333333333,0.7051282051282051,0.5297532741899769,0.4448293520498861,0.014123151673364755,0.3595505617977528,0.5730337078651685,0.4450528969727637,0.5833297870831389,0.01543021875699591,0.40211640211640204,0.6984126984126984,0.5835332842554306,0.6495516316908604,0.012703716581629986,0.6,0.7172413793103448,0.6496755143771754,0.578357299536923,0.03156991271491253,0.4090909090909091,0.7272727272727273,0.5792159815711106,0.5604771340871108,0.03708573368879922,0.38647342995169076,0.7681159420289855,0.5616994589706474,0.36365040289733247,0.0747192652844319,0.15023176916462966,0.4393730442772749,0.3712271762516716,0.4300917015418962,0.15112096165218386,0.30348724164464635,0.9161257911491696,0.4558017004395118,-0.3535565881991799,0.2059320541099458,1.0,0.5203932885588529,0.5585764529393745,-0.003123555744698091
10,0.6437895539458629,0.08579318775932875,0.46744186046511627,0.9348837209302326,0.6494623377407666,0.5016744479938214,0.14295054157021828,0.39614561027837264,0.9336188436830836,0.521579437452127,0.5529915952400765,0.09066893386958044,0.2842639593908629,0.6573604060913705,0.5603513240373353,0.20310762651461173,0.12643814610700316,0.07391304347826155,0.5739130434782611,0.23913782143713583,0.4129976580796252,0.029774877636964035,0.330665024630542,0.5233990147783252,0.4140660602103019,0.6479074252651876,0.1591094088399655,0.18088235294117638,0.8264705882352941,0.6670958199982694,0.7704165662526671,0.03289647887747591,0.6920043026174257,0.8641089996414486,0.7711162790094878,0.53177696436381,0.10843919555433099,0.07154729183508485,0.7417105901374292,0.5426852169243431,0.4164991171625083,0.0464251074521359,0.31095087877422267,0.6025236593059937,0.4190700880193284,0.5498988371978675,0.1117122886337033,0.17058152643272,0.8459063729917528,0.5610948669751528,0.5158879781420773,0.058756856335265506,0.3291666666666667,0.7166666666666667,0.5192123408760939,0.38086044769909316,0.047802073163565696,0.18274111675126903,0.6040609137055837,0.38383880326481845,0.5250945775535948,0.04994918252669177,0.3846153846153846,0.7564102564102564,0.5274571604812658,0.44555166697366183,0.019823386140813245,0.33707865168539325,0.5617977528089888,0.4459909933685755,0.5825830514355107,0.019948723948472552,0.38624338624338617,0.7195767195767195,0.5829233728782721,0.6510344827586236,0.013315224367239724,0.5793103448275861,0.7241379310344828,0.6511701863913895,0.5813710879284641,0.04389205799245478,0.393939393939394,0.8181818181818182,0.5830201867848825,0.5614318523798205,0.04335246622598274,0.3188405797101449,0.7439613526570048,0.5630976816753831,0.3818818700899047,0.09734974376762802,0.14237701167436434,0.4895562038003185,0.39405540634996516,0.38125460854545756,0.10457957886853539,0.2634489177280157,0.6691105261128483,0.39529243124964236,-0.22920364191791578,0.48861255740666765,1.0,0.197420505794976,0.42041135811300046,-0.4405935211158404
11,0.574459404324764,0.06446339902455289,0.386046511627907,0.6744186046511629,0.5780544839018145,0.46033534943711946,0.13407452442118717,0.3897216274089936,0.9271948608137045,0.4794080211059177,0.5587095912369757,0.0570022730668552,0.3527918781725885,0.6142131979695431,0.5616014295897687,0.1855453852021354,0.08388327127613138,0.1130434782608698,0.43478260869565233,0.20357533959552068,0.41064586754241933,0.02679410928455942,0.2967980295566503,0.5548029556650247,0.41151652898538815,0.6461386308909527,0.1677631194906249,0.10882352941176465,0.8352941176470587,0.6675007871423907,0.7661762269903277,0.021910291756410644,0.7002509860164935,0.8347077805665114,0.766488530901269,0.5468959139967943,0.11607232160048034,0.10105092966855289,0.8892481810832659,0.5590425122325798,0.4186794114624102,0.04726194860579415,0.23411266336187472,0.573231185218567,0.4213307609301682,0.5480132468841569,0.11184518574254262,0.08446999413265477,0.8496113707832575,0.5592774689726531,0.518323586744639,0.05556457970645052,0.35000000000000003,0.7583333333333333,0.5212846972073515,0.38396117196544677,0.045608935288476864,0.233502538071066,0.5736040609137055,0.38665265312971875,0.5291647923226873,0.045938224715552825,0.3589743589743589,0.7051282051282051,0.5311492515255763,0.44547933504172627,0.010491201769881865,0.37640449438202245,0.5337078651685393,0.44560249262699136,0.5832018317398436,0.007155438521118496,0.5449735449735449,0.6243386243386242,0.5832455976144673,0.6500705787457177,0.00950579433031534,0.6206896551724138,0.6827586206896552,0.6501398720781125,0.5789030657451701,0.028473381549819803,0.48484848484848486,0.6818181818181819,0.5796008302447262,0.5599062067406834,0.03660152104552909,0.31400966183574874,0.8019323671497585,0.5610977762582186,0.44600766322685886,0.051460493758589444,0.2509442350413754,0.5587670832837544,0.44895798784687746,0.36679809159409543,0.06419115508758258,0.3042636053006771,0.5669131871119519,0.372356410083261,0.47988411145090815,0.5482225876706375,1.0,0.2906961650984929,0.05473742973189998,-0.7326219606786162
12,0.6199839615076166,0.11588127107402123,0.40697674418604657,0.9372093023255814,0.6306962117127111,0.48936966206404364,0.1348447411911908,0.35117773019271953,0.8929336188436832,0.5075667149606957,0.5794328723962905,0.03545620690643799,0.48223350253807085,0.6598984771573604,0.5805141740204106,0.17164417791104458,0.055052550767924466,0.09565217391304426,0.3652173913043475,0.1802374540398761,0.40688381178868743,0.018226106642894077,0.3152709359605912,0.4846059113300493,0.4072908832783555,0.6407336037863417,0.15311430575576346,0.11911764705882333,0.776470588235294,0.6587333659507281,0.761364638584257,0.01384510243711631,0.731803513804231,0.8157045536034422,0.7614902225823913,0.5665812319385978,0.10428293611470861,0.23605497170573964,0.9046079223928859,0.5760765776430473,0.41425414989666065,0.03193886231637439,0.30599369085173506,0.5362776025236593,0.41548074154653386,0.5264347811195302,0.07071015114015614,0.21672918575751382,0.6897426938366504,0.531151588687336,0.5174808429118776,0.05393442132051952,0.2666666666666667,0.7708333333333334,0.52027748116501,0.38131746309586345,0.030174626232796122,0.2842639593908629,0.5786802030456852,0.38250676151952934,0.5274683171234903,0.03609000367188253,0.4358974358974359,0.6538461538461539,0.5286987040914668,0.44560247965904914,0.009114023502879813,0.4157303370786517,0.4943820224719101,0.4456954614394279,0.5832025786048779,0.013284498806710066,0.4656084656084655,0.7089947089947088,0.5833535119493003,0.6502417756638931,0.009711831629028776,0.6068965517241379,0.696551724137931,0.6503141315282068,0.5817136886102386,0.02626111987753972,0.43939393939393945,0.7121212121212122,0.5823047969403067,0.5620078849464145,0.027232194033231405,0.34782608695652173,0.7632850241545893,0.5626657536439464,0.40531289198858617,0.100209217300828,0.15284118191126378,0.5791410550098532,0.4174893326133753,0.35074629147264585,0.039224455257499596,0.2870208375000869,0.48672684071307404,0.3529277290853924,0.42448161529086564,0.27101795004710305,1.0,0.456676121027408,-0.262970510381755,-0.8235041769720837
13,0.7393716850265184,0.09691691494989074,0.49767441860465117,0.9279069767441861,0.7456842946571798,0.5995884309870569,0.13740189101106248,0.4325481798715204,0.9379014989293362,0.6151006133245284,0.38278366531105007,0.1986489325137189,0.07106598984771573,0.6827411167512689,0.4311702796041545,0.44377489617764004,0.27927318116996874,0.09565217391304426,1.0,0.5241923636092594,0.4449089678218534,0.051021924836083025,0.2900246305418719,0.6262315270935961,0.44781932955890413,0.6334107327141388,0.15009474815504856,0.1044117647058822,0.8647058823529411,0.6509175636486457,0.832091682934279,0.07211050434042235,0.7081391179634279,1.0,0.8352043805793327,0.5532382847894907,0.11882156121118959,0.19199353274050113,0.9345189975747776,0.5658300465682108,0.4230876033406332,0.08392909988832938,0.12010094637223973,0.7663379900856242,0.4313159894225721,0.5353615531603242,0.10920398031884673,0.05109205139530748,0.8796864596175018,0.5463645809465111,0.5171458739441198,0.06962146301842004,0.20833333333333337,1.0,0.521802217720904,0.38117572555189483,0.04224948231128885,0.2436548223350254,0.6802030456852792,0.3835055057451729,0.5271654920777735,0.04635590351406538,0.3717948717948718,0.8333333333333333,0.5291957454460533,0.4449262982675189,0.013084042618206712,0.28651685393258425,0.4943820224719101,0.44511826445713704,0.5830213393566217,0.008614652046058659,0.5449735449735449,0.6455026455026454,0.5830848563561303,0.6496471062714233,0.01214461856207752,0.5655172413793104,0.696551724137931,0.6497603919434862,0.577765963730874,0.04267139580307002,0.25757575757575757,0.7727272727272727,0.5793365234941655,0.5601792995639927,0.04590417527369945,0.27536231884057966,0.7681159420289855,0.5620533189816347,0.2654417231712146,0.1074376616710709,0.0,0.4069050855942927,0.2863209018932387,0.5766750567609434,0.2264187228451851,0.2685233601325143,1.0,0.6194510687030053,-0.493869064441159,0.1471509704070075,1.0,0.24768505035423966,0.5998651582471527,-0.10220776524857632
14,0.6161494919184347,0.09421145570594765,0.48837209302325585,0.930232558139535,0.6232896325491931,0.500995309173799,0.14357980846717008,0.3661670235546039,0.9464668094218417,0.5211055614698932,0.43150929633654334,0.16988494424018846,0.060913705583756084,0.631979695431472,0.46365561686530393,0.3459773046028308,0.20802499645429914,0.10000000000000009,0.8173913043478263,0.4035440373165205,0.43690139115611853,0.03853572440250701,0.34359605911330054,0.5246305418719213,0.438592604594105,0.6317276177333108,0.15386671274347333,0.1720588235294116,0.8602941176470588,0.6501425384073717,0.8094977230405589,0.05455464101367912,0.7314449623520975,0.9333094299031912,0.8113285675845339,0.5289071042655934,0.10337891797417563,0.053354890864995896,0.7429264349232012,0.5388864303911031,0.418455530019995,0.0644330893070539,0.26137899954934657,0.7176674177557458,0.42337274210140824,0.5451191967747604,0.09582545354966515,0.23526735976055957,0.7742060954465445,0.5534532753868259,0.5164833822091889,0.0653736199131818,0.32500000000000007,0.7416666666666667,0.5205922218054804,0.38234812510234195,0.04355933724085449,0.23857868020304568,0.5685279187817258,0.3848141634097573,0.5296638845025945,0.04438665351890212,0.3717948717948718,0.6794871794871795,0.5315150307542171,0.44558305051237457,0.03939827295057745,0.28651685393258425,0.8651685393258427,0.4473163610232914,0.5829570668280347,0.01037808478056502,0.5291005291005291,0.6666666666666665,0.5830491665023312,0.6501971887956343,0.02017110040397732,0.5379310344827586,0.8068965517241379,0.650509080976155,0.5799342397582861,0.0544444002041796,0.36363636363636365,0.7727272727272727,0.5824767999760688,0.5613498236219128,0.04695197819563409,0.38647342995169076,0.8405797101449275,0.5633042232771655,0.3966472544609898,0.105923192088203,0.13492271952875262,0.5127630997251534,0.4105068387752072,0.5055324781136689,0.174854702069015,0.2888052477966858,0.886819004668518,0.5348341733192536,0.18137336825494674,0.4497667257741961,1.0,0.48666693757035934,0.7238628081149817,0.08003217592280064
15,0.527445758087566,0.026206213718975475,0.43023255813953487,0.6000000000000001,0.5280945701503494,0.4278348665558118,0.14498838871857664,0.3083511777301927,0.9079229122055675,0.45166977567595723,0.5517114255735484,0.09973505899095751,0.23350253807106602,0.6573604060913705,0.560628927147982,0.19568860820986222,0.12523956801944588,0.07391304347826155,0.5521739130434788,0.23223946278140406,0.41144700993477723,0.028401981517998328,0.34605911330049266,0.5240147783251232,0.4124234004795634,0.6581868222149199,0.1526535434213351,0.17058823529411749,0.8955882352941176,0.6756092841178977,0.7683066556363682,0.0346206938278711,0.7106489781283616,0.8698458228755828,0.7690841056169906,0.543090320337092,0.11932915244442482,0.08205012126111555,0.8395343573160872,0.5560096830778963,0.4112721971999067,0.04737524531116314,0.2377178909418657,0.5328995042812078,0.41398425663960975,0.5386866177275595,0.08130628553516371,0.15574835022117917,0.6852070381772993,0.5447710698175123,0.5175279329608943,0.07035031387506241,0.3041666666666667,0.8083333333333333,0.5222743566069576,0.38120693077730217,0.047075415451698056,0.21827411167512692,0.5685279187817258,0.3840945568526453,0.5268228047557654,0.04695117440341651,0.3974358974358974,0.7051282051282051,0.5289050224860786,0.4442125415855899,0.014288339467059288,0.348314606741573,0.4887640449438202,0.4444416367496368,0.5832077089060335,0.0070769060281182265,0.5608465608465607,0.6084656084656084,0.5832505245868422,0.6495472933924127,0.01123734372950077,0.6068965517241379,0.689655172413793,0.6496442191815092,0.5792703572033173,0.0420503014221836,0.2878787878787879,0.7121212121212122,0.5807903540867546,0.5606158745580643,0.03807148955971293,0.3623188405797101,0.714975845410628,0.5619035045391833,0.48963873758522025,0.07638461058680258,0.21143187814335007,0.5886082638374734,0.4955445532833395,0.3740642391044043,0.10978294766417511,0.26106326817045367,0.691180465140917,0.38979826185403915,0.07704823655050548,0.9218221713378248,1.0,0.05280018723138143,0.5540134028082825,-0.5732436567941457
16,0.4980659705742772,0.0475071722289759,0.4,0.6534883720930232,0.5003207820780525,0.42616789756587964,0.14306527822191964,0.33832976445396146,0.8972162740899359,0.44948252167885316,0.5990236196001241,0.0456166926020188,0.4593908629441623,0.6624365482233501,0.6007535860140077,0.14769299023957458,0.06456347083645138,0.06956521739130439,0.34347826086956523,0.1611552895574324,0.39940591384336976,0.020837971382541585,0.32019704433497537,0.4901477832512315,0.3999477432835862,0.6413753001200482,0.15350149055436096,0.12499999999999989,0.8426470588235293,0.6594428513969397,0.7536001492744829,0.01720285345014916,0.7002509860164935,0.8246683399067767,0.7537959725343768,0.5633453549568572,0.12587231696997547,0.11883589329021821,0.9147097817299918,0.5772013610268227,0.41650433638980605,0.04074142443790117,0.26182965299684546,0.5617413249211357,0.41848714621916044,0.5294472351295897,0.08126084402856054,0.10424756241470928,0.678205779005452,0.535631267144054,0.5175914115646266,0.05034677070275903,0.3041666666666667,0.6833333333333333,0.5200280764785338,0.382963845436652,0.0479458307678912,0.17766497461928935,0.6954314720812182,0.3859459098203784,0.5293367346938785,0.04966813302928539,0.3717948717948718,0.9615384615384615,0.5316559121865894,0.44515306122449183,0.014225359870235849,0.37640449438202245,0.5842696629213483,0.4453797172686254,0.58298239930893,0.019921106710782097,0.34391534391534384,0.783068783068783,0.5833217945721498,0.6501583391977513,0.01838865124902676,0.5172413793103448,0.8,0.6504176703586128,0.5799319727891141,0.03721021141387867,0.3484848484848485,0.7575757575757576,0.5811214681579998,0.5622596864832876,0.04172702194306312,0.3381642512077294,0.7342995169082125,0.5638019667487219,0.5135433226616428,0.07288714881341289,0.28368457895150584,0.5901369675123178,0.5186769016676713,0.3246505630147377,0.05149693959150106,0.2564429219202722,0.4587670952498559,0.3286991903143558,0.25195940564071484,0.7635265598812839,1.0,0.3560059374554882,0.03421955082734149,-0.6616030403556756
17,0.6165826193390452,0.11638695355234982,0.39534883720930236,0.8465116279069768,0.6274484295108677,0.5370855404034703,0.15318640693052674,0.3661670235546039,0.8972162740899359,0.5584599813013021,0.48457387122628953,0.1995674814914013,0.11675126903553279,0.6878172588832487,0.5239801233348581,0.30663615560640783,0.2705627754573106,0.047826086956521685,0.8826086956521739,0.4087491079506144,0.42150116670987836,0.0478457566436525,0.2949507389162561,0.5806650246305418,0.4242023462495039,0.6093157894736839,0.1448663156209573,0.10588235294117632,0.8955882352941176,0.6262649592032451,0.7962438904719674,0.07075081856505011,0.6608103262818216,0.9605593402653282,0.7993744261429657,0.5559382887290981,0.12062207192658896,0.09054163298302342,0.9151172190784154,0.5688465823020482,0.425475205996063,0.05842007359375925,0.2708427219468229,0.6913023884632719,0.4294588115907475,0.5289198914801362,0.10090639586092086,0.0,0.762669180615346,0.5384393339341694,0.5162894736842104,0.05710323582804837,0.24583333333333335,0.75,0.5194311651991214,0.38056104728827167,0.03613042955136645,0.19289340101522842,0.5634517766497462,0.3822687149446983,0.5261268556005404,0.03632550814241453,0.3717948717948718,0.6923076923076923,0.5273767464930723,0.4450147841513921,0.011670598781948859,0.3932584269662921,0.550561797752809,0.4451674676414935,0.5831578947368422,0.015874253486824075,0.3756613756613756,0.7248677248677248,0.5833734580938336,0.6493793103448264,0.012959844718168193,0.5517241379310345,0.7103448275862069,0.6495083468933623,0.5788516746411464,0.037277490429295256,0.4090909090909091,0.7272727272727273,0.5800482281932351,0.5621154335113132,0.03281079796464701,0.41062801932367143,0.8115942028985507,0.5630701933479278,0.379611516891977,0.1363635483087594,0.06567733050931301,0.5092458059676489,0.40331225329702747,0.4593736504233523,0.2273418617663908,0.2327525709885243,0.9188522276201321,0.5124447908950801,-0.6983363321076291,0.22562096917537156,1.0,0.16868575525442192,0.7637609731242426,-0.13441792996518154
18,0.516573048453986,0.15285700620934461,0.2651162790697675,1.0,0.5386652350727225,0.5157167647101473,0.13304556294546352,0.40256959314775165,0.961456102783726,0.5325644992270708,0.4959035647580523,0.1745542811178106,0.19796954314720794,0.6852791878172588,0.5256622141360727,0.28929237412896247,0.22656562392591506,0.0608695652173914,0.7347826086956517,0.36729577471800895,0.41794637992193856,0.040429889164062545,0.3429802955665025,0.5332512315270936,0.41989291806364376,0.5526822467135838,0.1313750410218261,0.15588235294117636,0.8529411764705882,0.5680476273709912,0.7901891257738602,0.05922958320715229,0.7117246324847617,0.9100035855145214,0.7924008322549075,0.5328845765715128,0.10319517169670386,0.0,0.7518189167340339,0.5427625415271584,0.41540975995328633,0.05440894215165982,0.25394141505182516,0.7075259125732312,0.4189497812187908,0.5445536155961889,0.09473467172595926,0.2220823142391899,0.8117043649093199,0.5527142475675613,0.5203818660647098,0.06838231213626207,0.2416666666666667,0.9291666666666667,0.5248455692105443,0.38124921222399183,0.04225676376950776,0.1370558375634518,0.5736040609137055,0.38357862965625805,0.5267696938125841,0.04454352012747888,0.3205128205128205,0.7564102564102564,0.5286453978489356,0.44418799299972306,0.033226843029790225,0.1404494382022472,0.702247191011236,0.44542620496709107,0.5830138426075226,0.011615134063921775,0.5343915343915343,0.6719576719576719,0.5831292716637045,0.6496146960379855,0.01575016234879193,0.5793103448275861,0.7310344827586207,0.6498051715325883,0.5799644298515616,0.07543758265087835,0.0,0.8333333333333334,0.5848390570528031,0.5620767494356642,0.05331011275745366,0.35265700483091783,0.8309178743961352,0.5645935043023862,0.45367429311429464,0.14605238076980126,0.04742752815484402,0.6181792162918027,0.47655378526166625,0.4389696989245391,0.1897705336726634,0.23470978310378143,0.8058895844161607,0.4781484695122221,-0.3247253235815715,0.07287191141557177,1.0,-0.13503595978902652,0.7851843097980071,-0.49749536788182647
19,0.48595197579882804,0.04671567826716353,0.3767441860465116,0.5651162790697675,0.4881861972021006,0.46017072590426183,0.12803614183700007,0.34475374732334046,0.8650963597430408,0.4776043597311443,0.5645247823036604,0.08089715272222893,0.29949238578680193,0.6979695431472082,0.5702761118875244,0.1868386944739021,0.09617802295854391,0.04347826086956541,0.491304347826087,0.21008055961333302,0.40498885284419306,0.03524562622150444,0.2758620689655173,0.5326354679802956,0.4065155083798671,0.5913199426111904,0.16453928808977716,0.08529411764705874,0.9147058823529411,0.6137255761417731,0.7647066825634196,0.026948484310935324,0.664037289351022,0.8529939046253139,0.7651800853954182,0.5512310621246878,0.10123013432904823,0.21503637833468064,0.8043654001616813,0.5604243506808179,0.40950963287010045,0.050761663741679695,0.24470482199188826,0.5538530869761153,0.4126353146137237,0.5300794034527998,0.09885115885952302,0.15327615418592233,0.7709098340662021,0.5391931420215553,0.5165424570912376,0.06522540236744123,0.19583333333333336,0.8333333333333334,0.5206332045496274,0.38170112665593653,0.047684521775821435,0.2233502538071066,0.7157360406091371,0.3846601118011549,0.5285942603015779,0.06402385097005756,0.1923076923076923,1.0,0.5324470273846555,0.4445053439298457,0.020636598501765285,0.3651685393258427,0.5674157303370786,0.44498282648080256,0.5834157812477594,0.017369573615826268,0.44444444444444436,0.7936507936507935,0.583673588811157,0.6504812634333266,0.02453166131550404,0.5655172413793104,0.9241379310344827,0.650942428778367,0.5797404943746401,0.04720169178571352,0.393939393939394,0.7727272727272727,0.5816536792504629,0.5610541612662496,0.04652635466715712,0.28985507246376807,0.7729468599033815,0.562974783762627,0.5054843445916978,0.04697106129986424,0.3344255681962337,0.5691250489510833,0.5076561081546418,0.35781831993539165,0.0819847204172564,0.22185970616582562,0.6254571979890757,0.3670657012461839,0.25152456220440994,0.7175852307359502,1.0,0.19753573863719404,0.2583927536007815,-0.5941500636776956
20,0.5446838773913659,0.0859544007002156,0.34418604651162793,0.7627906976744186,0.5514037463886303,0.4516564184167277,0.12078986734583554,0.3019271948608137,0.7730192719486082,0.4674816510047508,0.574193948990204,0.08126088077820473,0.3248730964467006,0.6700507614213198,0.5798981187500198,0.17221114213535454,0.10325624255036527,0.0608695652173914,0.47826086956521774,0.20071353728720012,0.4062721260601678,0.030198673028944613,0.2961822660098522,0.538793103448276,0.4073895082081851,0.6420759129339806,0.13670832306539812,0.23088235294117632,0.8691176470588234,0.6564247787475361,0.7608352165508228,0.027317248713637034,0.7006095374686269,0.8558623162423808,0.7613239630840068,0.5612066284465465,0.12338836278388626,0.17461600646725944,0.8799547291835084,0.5745702822142075,0.42190385232899624,0.049212648562378135,0.22419828751689952,0.5651194231635872,0.42475562269745426,0.5279134570707524,0.10104875661440434,0.14545082966898948,0.7997587136669589,0.5374683651388429,0.516322629969419,0.08434861160546517,0.0,0.8458333333333334,0.5231462405884173,0.38071065989847735,0.04837431643935564,0.20304568527918782,0.5685279187817258,0.38376232861004594,0.5272876970124678,0.05723212154932648,0.3589743589743589,0.7692307692307692,0.5303751637190901,0.4450743909562607,0.018613757362731975,0.3202247191011236,0.5617977528089888,0.4454622609166295,0.5841464006601625,0.022847322295005787,0.4867724867724867,0.7671957671957671,0.584591670492818,0.6503005378044947,0.016168508717729308,0.5586206896551724,0.7172413793103448,0.6505008921526266,0.5788620146418305,0.036705880110380985,0.393939393939394,0.7727272727272727,0.5800210628763666,0.5610365051928674,0.042211812120917146,0.40579710144927533,0.78743961352657,0.5626174083677926,0.4713719681174015,0.08119536712249646,0.22979884672531736,0.5882390494133115,0.4782928588686452,0.349341348056099,0.09155254382812743,0.24848357487069284,0.6290588203890626,0.36110332748167834,-0.483707281677646,0.2145140266227784,1.0,0.25446511537217686,0.48224198143721086,-0.32665889808447796
21,0.63423377678481,0.09225435540338188,0.5186046511627908,0.9116279069767442,0.6408937252217105,0.5592652160496706,0.18265523374686746,0.32548179871520344,0.9057815845824412,0.5882751664512451,0.49200895529004995,0.12723478659099377,0.20304568527918798,0.6243654822335025,0.5081595778077389,0.2913613062464412,0.16688713572479577,0.10434782608695681,0.6869565217391305,0.3356812716168128,0.42357675264052325,0.03367241387649331,0.35406403940886705,0.5431034482758621,0.4249101331096112,0.5849858720780886,0.21598237672434756,0.11764705882352933,0.9367647058823529,0.6235022094692018,0.7947809626401915,0.04354322534747271,0.6991753316600933,0.9125134456794551,0.7959702577883822,0.5565963575773188,0.10017715240441026,0.29183508488278087,0.8488278092158448,0.5655201637814606,0.4191228985085143,0.05016311358066077,0.2744479495268139,0.6088328075709779,0.4221076258853778,0.5303049778757524,0.08725959988093064,0.2970788531647406,0.7878064699018373,0.5374206754097601,0.519141193595342,0.05543439582548649,0.3125,0.7791666666666667,0.5220860480627273,0.381752488196307,0.03892524777351946,0.25888324873096447,0.5380710659898477,0.3837275451620993,0.5263688276788716,0.03971078972898356,0.4230769230769231,0.6666666666666666,0.5278613894362795,0.44455620430793624,0.012416025252757814,0.3539325842696629,0.5056179775280899,0.4447291758845222,0.5830271943809066,0.007074821648915718,0.566137566137566,0.6084656084656084,0.5830700242704875,0.6492998042463484,0.011341389202172042,0.5655172413793104,0.7172413793103448,0.6493986310873794,0.5776763265846218,0.0329298373574756,0.42424242424242425,0.7575757575757576,0.5786120849545596,0.5612724933021108,0.030249870362068366,0.4444444444444444,0.7729468599033815,0.5620852857516905,0.3584928777124439,0.1074680802978705,0.14092925659202837,0.48226789964307404,0.37422094362618713,0.45478832196760177,0.13961788124557448,0.2981676393492543,0.7869054409574083,0.4756921368833989,-0.42376242732650005,0.5080351492893174,1.0,0.3409980494322918,0.63882681292429,-0.2584029184461165
22,0.6195583435332515,0.11498830294940285,0.46744186046511627,0.972093023255814,0.6301157469571733,0.4835690672076334,0.1567022966679503,0.3404710920770878,1.0,0.5082723704074629,0.4980686169739065,0.15092019114015257,0.18274111675126892,0.6598984771573604,0.5203838025505767,0.27053775743706987,0.1952723588636375,0.06956521739130439,0.6478260869565218,0.3335241386709186,0.4240301724137931,0.04387428224757572,0.3214285714285715,0.6120689655172413,0.426289008036375,0.6550664344685243,0.15995911022068335,0.039705882352941035,0.888235294117647,0.6742720807284965,0.7881723626024546,0.05103984247014675,0.6887773395482253,0.9053424166367875,0.7898196160052828,0.5336773319718051,0.10172588788489345,0.15602263540824568,0.7898140662894098,0.54326508962142,0.4205160377283898,0.0794958805415539,0.1989616944569626,0.8003605227579991,0.42794798077435353,0.5423217552441494,0.1086470204242563,0.17305372246797684,0.919656925115534,0.5530742942041119,0.519480994152047,0.06793324223905123,0.20000000000000007,0.7625000000000001,0.5238943674404865,0.37990916377237544,0.04798842500487898,0.16243654822335027,0.5736040609137055,0.38292141681765796,0.5270186684660372,0.04749215952166772,0.3333333333333333,0.782051282051282,0.5291495401532332,0.44506455746107076,0.018717465874018478,0.19662921348314605,0.5617977528089888,0.4454571085295978,0.5832869210062189,0.007488631749673125,0.5608465608465607,0.619047619047619,0.583334885671006,0.6496218995765274,0.012553753488742615,0.5586206896551724,0.689655172413793,0.6497429211074297,0.5782163742690046,0.04324168010786621,0.3787878787878788,0.7727272727272727,0.5798274897231702,0.562590050004237,0.0407829056265392,0.31400966183574874,0.8212560386473429,0.5640630836060359,0.4023567033539878,0.12357126739908468,0.08162914430454615,0.5504893902892991,0.42086492884240884,0.43748568352162,0.16411446506263233,0.25903458055329365,0.7459195146838145,0.46719184079966686,-0.12929072020831162,0.41181733622298855,1.0,0.17374430576575095,0.5943631461922662,-0.32119662685113265
23,0.4825421010425021,0.05405867766857997,0.35348837209302325,0.5744186046511628,0.48555035050252854,0.3992246917226613,0.1610488632589041,0.28051391862955033,0.8715203426124197,0.43038082417333384,0.48561176264659545,0.0969016368597533,0.17766497461928954,0.6192893401015227,0.49515283720022524,0.2703298350824575,0.11990876994547114,0.10869565217391308,0.6347826086956521,0.29564633118840905,0.4270829794462374,0.03266623790923961,0.32943349753694584,0.5233990147783252,0.4283261313939704,0.6593610547667343,0.18145942145579239,0.16176470588235292,0.9691176470588234,0.6837916195743547,0.7879897627378496,0.033114560701063396,0.7059878092506275,0.9042667622803874,0.7886828633994606,0.5472778078220387,0.12586669392679753,0.11762004850444618,0.8209345189975747,0.5615165131357008,0.4086152631660737,0.05155640567855614,0.27152050473186123,0.5324452456061289,0.41184381812090404,0.5413369590692996,0.11454296198535138,0.12567326138693496,0.7667960998635348,0.5532816206098256,0.5177155172413795,0.062023183154189476,0.3041666666666667,0.7666666666666667,0.521404801429775,0.38204095921582365,0.04611174819107133,0.24873096446700507,0.5634517766497462,0.38480417850362286,0.5264809902740936,0.04847566389646239,0.3717948717948718,0.782051282051282,0.5287003121251787,0.4422123208058909,0.026894686162542876,0.2640449438202247,0.5955056179775281,0.4430265980673473,0.5831964969896005,0.007677060330414293,0.5555555555555555,0.6084656084656084,0.5832468500766576,0.6507966706302049,0.01292619436068822,0.593103448275862,0.696551724137931,0.6509245861416352,0.5800417972831774,0.04642128258741022,0.36363636363636365,0.7272727272727273,0.581890016464081,0.5607029818424122,0.04636768235421843,0.3333333333333333,0.8695652173913042,0.5626103288706309,0.5289043846935554,0.08314704569892772,0.26660979581072625,0.6177150700239452,0.5353778478220481,0.4388667069459597,0.10186547094543656,0.2993822644722912,0.7511236299136481,0.4504939282013488,0.22965375735871899,0.7834723288864458,1.0,0.24144160174884577,0.354732956671626,-0.47255517329076574
24,0.4865524958645524,0.07670341479696201,0.33488372093023255,0.6511627906976745,0.49253642330209807,0.452760879109064,0.1637754158413114,0.3083511777301927,0.8865096359743041,0.4813549344565119,0.550357878639849,0.042548355192488604,0.42893401015228405,0.5989847715736041,0.551993281093097,0.20514826268873865,0.06948747687454844,0.1347826086956525,0.36956521739130466,0.21655049332250556,0.41017581466290165,0.029719634628203727,0.3337438423645321,0.5745073891625616,0.411246592669355,0.6000061530888511,0.18987950771166157,0.1044117647058822,0.8470588235294116,0.629214396438249,0.7688858351173389,0.018057421022933177,0.7206884187880962,0.8228755826461098,0.7690969598084264,0.571650592099255,0.16103539833635505,0.12853678253839929,0.9506871463217461,0.5938082983599218,0.41438515973684853,0.04231422350327143,0.3050923839567373,0.5326723749436684,0.4165309862617321,0.5272104170245088,0.11863315656809456,0.10877662555129974,0.728889093989597,0.5403385636394019,0.5181485355648533,0.05103587464598766,0.375,0.7583333333333333,0.5206454333303919,0.3803283563069474,0.050284243918018875,0.21827411167512692,0.583756345177665,0.3836242748809604,0.5244072524407255,0.04049759329967303,0.3974358974358974,0.7051282051282051,0.5259621272681337,0.4448074843683908,0.010469941997001063,0.38764044943820225,0.47752808988764045,0.44493017337081486,0.5832060392729848,0.00866147168228271,0.5079365079365079,0.6084656084656084,0.5832700844723686,0.65006492569615,0.009833964875615454,0.6206896551724138,0.6758620689655173,0.6501389927194625,0.5782299987320918,0.02577284975434327,0.43939393939393945,0.6818181818181819,0.5788016862209494,0.5613162735229323,0.01771715347196725,0.49275362318840576,0.6328502415458936,0.561594643021143,0.5073729680144641,0.07600474704583661,0.3248925519780375,0.6077555308404908,0.5130106040445511,0.3743488005058485,0.048011321991434465,0.3162681422353324,0.4842658740663457,0.3774022612066427,0.4059095129925248,0.5740542652267691,1.0,0.5476480454356486,-0.19554843618321865,-0.5957083803879372
25,0.5943366006790952,0.0939815750888023,0.4162790697674419,0.8186046511627907,0.6017010880051672,0.5110281322078094,0.15238895394460567,0.37044967880085655,0.9186295503211992,0.533205562289925,0.5672274195578293,0.11532126285208509,0.24873096446700504,0.6827411167512689,0.5787998814943269,0.19555635405437766,0.14544790902844612,0.06521739130434812,0.6217391304347823,0.2435961891230184,0.40669910027276795,0.036310563140266594,0.31403940886699516,0.5277093596059115,0.4083123596528851,0.6060889645114244,0.1615791294293344,0.13235294117647056,0.7779411764705881,0.6271999088122664,0.7676161859805392,0.03848052205699799,0.7020437432771603,0.9006812477590536,0.7685774393998275,0.5554782631934096,0.12188455071037899,0.08286499595796276,0.8403362974939368,0.5686572072813076,0.4257234775548514,0.04715674641021624,0.28278323569175307,0.6106354213609735,0.428320104613688,0.5296833059216969,0.09072357847008322,0.13679484728421026,0.7593729192350036,0.537375565104515,0.517929292929293,0.07181259857788098,0.15416666666666673,0.7208333333333334,0.5228705337283045,0.38083651466207974,0.045241238919463675,0.19289340101522842,0.7055837563451777,0.3835069518469117,0.5254291163382074,0.05207237732336067,0.3589743589743589,0.9358974358974359,0.5279960406950127,0.44471786300182825,0.01703590379922202,0.3651685393258427,0.6235955056179775,0.44504314417983754,0.5829580072004312,0.010001007920368647,0.5291005291005291,0.6296296296296295,0.5830435513586385,0.6503847249928788,0.018521918105080522,0.5310344827586206,0.7517241379310344,0.6506476826067117,0.5798480674513725,0.0486197915715665,0.3787878787878788,0.7575757575757576,0.5818772665967064,0.5605860981355051,0.05544397158420497,0.31400966183574874,0.8067632850241545,0.5633137127699259,0.4128569205816776,0.10674882966281454,0.1697413293757964,0.5195859723776665,0.42639741727728747,0.3675878600548869,0.12649841054912953,0.2507901027706707,0.7334569658251773,0.3886883076523474,-0.34037717467802037,0.39791882287555785,1.0,0.4280597659156401,0.5693992842202883,-0.10578759621718732
26,0.6371361196942584,0.13773672854072067,0.4372093023255814,0.972093023255814,0.6518032738636592,0.4985849268504509,0.17825001374392774,0.3533190578158458,0.929336188436831,0.5293854002906795,0.5810762841219693,0.10687946858524883,0.33502538071066,0.7284263959390862,0.5907900874613378,0.18878078443295945,0.16114200657782754,0.008695652173913881,0.5521739130434788,0.2480204387462394,0.4062209342381756,0.038568727789954765,0.32943349753694584,0.5394088669950738,0.40804141084479717,0.6532856849033316,0.18204898483520499,0.13529411764705868,0.8294117647058823,0.6780915413457095,0.7647915010769087,0.042077522270943905,0.6776622445320905,0.876658300466117,0.7659441019930708,0.5211360442306272,0.12719317862046545,0.015359741309620034,0.7675796281325787,0.5363807551397771,0.410980955952565,0.05254423388981958,0.21157999098693106,0.6182965299684543,0.41431460170555595,0.5446754982806199,0.11173868553651731,0.042436069010528266,0.8038724478696262,0.5559795648761952,0.5176282051282057,0.054303565886194026,0.18333333333333335,0.7250000000000001,0.5204589563572959,0.38195307230840225,0.0412725960868612,0.24873096446700507,0.5888324873096447,0.384168739741352,0.5276134122287972,0.03750674814024057,0.4230769230769231,0.6538461538461539,0.5289402141943376,0.44529347057437135,0.04254297646267548,0.2584269662921348,1.0,0.44731404118789636,0.5835460835460833,0.011764075157054438,0.4708994708994708,0.6613756613756613,0.5836642366918162,0.6503978779840872,0.01783923205910544,0.5310344827586206,0.7172413793103448,0.6506416257554365,0.5801546937910581,0.03242084610358819,0.3787878787878788,0.696969696969697,0.5810567139063666,0.5605384953211044,0.03698509878188155,0.40579710144927533,0.7294685990338163,0.5617530769032334,0.386520794769873,0.14572434989899738,0.05642300183533733,0.5227306806341666,0.41298869311614766,0.3585623990037458,0.13207278191759875,0.19458664057304842,0.647084005767196,0.3820330135263471,-0.5904479932989924,0.37716114316621074,1.0,0.0905770285777658,0.543225533989728,-0.5453273876027419
27,0.5388119312436801,0.0819510374953899,0.32558139534883723,0.713953488372093,0.5449951099384254,0.4515920305371945,0.12473033552011013,0.33618843683083516,0.8972162740899359,0.4684647240199193,0.5508221143235489,0.13014822498100284,0.21319796954314718,0.7385786802030456,0.5659564816627121,0.20158790170132299,0.1503734738383189,0.0,0.5826086956521737,0.2513975076048882,0.4098147354893982,0.03897753353429249,0.31403940886699516,0.583743842364532,0.411660130242603,0.6348369565217398,0.16047172592044165,0.18823529411764695,0.9044117647058822,0.6547619073914152,0.7694950660202358,0.041569130760617475,0.6665471495159556,0.8845464324130514,0.7706146201286063,0.5443594390355346,0.11073107492455989,0.08892481810832653,0.8371026677445432,0.5554834963046005,0.413653388717989,0.0666036290490919,0.201218566922037,0.7818837314105453,0.4189696001236492,0.5453451773259647,0.10493568783754713,0.09476751468484446,1.0,0.5553277617535706,0.5190942028985508,0.05973452679824789,0.20000000000000007,0.7958333333333334,0.5225124383097554,0.38255352019421784,0.042645736379646845,0.16243654822335027,0.5736040609137055,0.3849180445733802,0.52845596432553,0.04601469284375818,0.41025641025641024,0.8461538461538461,0.5304511808354214,0.4452979970688836,0.014743401759277127,0.33707865168539325,0.5168539325842696,0.4455414700677021,0.5828847481021391,0.012346774409979912,0.4761904761904761,0.6666666666666665,0.5830152150767173,0.6499400299850073,0.011872152582919616,0.593103448275862,0.696551724137931,0.6500482168079179,0.5798418972332001,0.05530097919218993,0.0757575757575758,1.0,0.5824673173916638,0.5600189035916814,0.05458034916104628,0.0,0.9082125603864734,0.5626666071272242,0.4715557771292891,0.07113868799815873,0.22747825953489448,0.6100008603970237,0.4768800292780765,0.3745831514296594,0.133698857583873,0.18530475876921504,0.7171030218026775,0.3976795975690031,0.025430889767167494,0.3576821162529817,1.0,-0.16492655472222306,0.6436725331544819,-0.5753006366000404
28,0.6122757475083057,0.07876164766096987,0.4023255813953488,0.7441860465116279,0.6173088514965008,0.49500356887937214,0.11969001740090164,0.34261241970021417,0.8629550321199144,0.5092348423454425,0.6012146482958658,0.12876043607235832,0.25126903553299496,0.7538071065989849,0.6148160934934513,0.1540476190476189,0.14008264057383726,0.0,0.5739130434782611,0.20810356399575677,0.398621862538119,0.04087577286210151,0.30911330049261093,0.5314039408866995,0.40070717480051016,0.6271323529411763,0.13636300259606027,0.16764705882352926,0.8426470588235293,0.6417519638350754,0.7564786832624764,0.04049160866520531,0.6977411258515598,0.8755826461097168,0.7575590174130626,0.5549361358124492,0.11898132341684005,0.19846079223928853,0.9535133387227162,0.567518249987061,0.4116167042211204,0.05399470241051372,0.1915277151870212,0.54799459215863,0.4151346740363722,0.5234540298678949,0.0992786645323673,0.12773012848826865,0.726001569020417,0.5327634628488248,0.5174305555555555,0.07860198354186289,0.008333333333333415,0.8666666666666667,0.5233525976511955,0.381327048585932,0.0410645321726724,0.22842639593908629,0.6345177664974619,0.38352652945501947,0.5266178266178266,0.04961633655920338,0.3333333333333333,0.7051282051282051,0.5289444723052266,0.4443017656500824,0.03170522799180175,0.20224719101123595,0.6741573033707865,0.44542887990936336,0.5824011085915848,0.029817179618489856,0.39153439153439146,0.9999999999999999,0.5831620689564634,0.650311986863712,0.021006517946739984,0.5310344827586206,0.7724137931034483,0.6506503695557064,0.5790043290043282,0.052947399711923665,0.393939393939394,0.8333333333333334,0.5814144522760785,0.5613526570048311,0.05610647212651829,0.31400966183574874,1.0,0.5641429310508482,0.4084050739521629,0.07321548589219325,0.24841120705428396,0.5548241927704894,0.4149005286710361,0.3304528547570686,0.1314622976968485,0.17766554915899813,0.6839458411878276,0.35558441545498065,-0.007319010722532794,0.40669939731293414,1.0,-0.06134124057918356,0.7173168252825405,-0.4761646219509928
29,0.572643818849449,0.051764018698477694,0.44651162790697674,0.7232558139534884,0.5749709929280946,0.48277780908373663,0.14989229980466592,0.36402569593147754,0.9164882226980728,0.5054386288872887,0.5556037937483298,0.08198313814793512,0.180203045685279,0.6269035532994924,0.5616001257502157,0.1956378718535471,0.10582048915541942,0.10000000000000009,0.6695652173913036,0.22234054371921266,0.41225369458128086,0.03466109678329296,0.3288177339901478,0.5227832512315271,0.4137034546386877,0.6178405572755427,0.17053627766054205,0.12499999999999989,0.8367647058823529,0.6408696510938353,0.7694113151289841,0.029108430575332984,0.7059878092506275,0.8694872714234494,0.7699599245451778,0.5487222694975106,0.12548636086912981,0.1552142279708973,0.9147097817299918,0.5628420355965125,0.4254739213965516,0.0684589914876415,0.229606128886886,0.7345651194231636,0.430928387027876,0.5366969526584003,0.10480769600601145,0.1573964809113504,0.8038724478696262,0.5468017359221351,0.5162828947368421,0.05312013748138228,0.30000000000000004,0.7166666666666667,0.5189995128463952,0.38164573871226315,0.035543385268680824,0.24873096446700507,0.5177664974619289,0.38329185539930377,0.52614709851552,0.040752389778447265,0.3717948717948718,0.6538461538461539,0.5277177877726028,0.4453171200473114,0.010405279505084868,0.38202247191011235,0.47191011235955055,0.4454382685603183,0.5830896686159849,0.006819525985568962,0.566137566137566,0.6296296296296295,0.5831294149683408,0.650068058076228,0.008296230716789293,0.6137931034482759,0.696551724137931,0.650120820439581,0.5790968899521529,0.021642679883805402,0.5,0.6515151515151516,0.5794998470551471,0.5604341469616066,0.023297513055587173,0.4154589371980676,0.7053140096618357,0.5609165907280624,0.4371610241552203,0.07308288777039033,0.2608871274764038,0.4974539040222304,0.4432079648308399,0.37440422382221544,0.09049622516704067,0.2906201799851782,0.7814956072045978,0.38515081490375447,-0.042133733437793565,0.7352152425661027,1.0,0.16633137204813103,0.3600881162386006,-0.6061440226500178
30,0.5353428741800833,0.13626975287304957,0.38372093023255816,0.9069767441860466,0.5523710931253832,0.4470268489540442,0.1619469678908546,0.31049250535331907,0.9314775160599573,0.47538676447432104,0.5016595080046867,0.14963231566462892,0.07360406091370542,0.6548223350253808,0.5234450133895903,0.26803790412485956,0.1918346281453562,0.0826086956521741,0.8826086956521739,0.3294700021002544,0.4216180371352782,0.040025235426333156,0.32450738916256167,0.5394088669950738,0.42350877318717384,0.6502564102564105,0.16551920121216449,0.14117647058823513,0.8558823529411764,0.6709394587754174,0.78604867106122,0.05121918658463111,0.6873431337396918,0.9487271423449266,0.7877113631729729,0.530838579690317,0.11241828670818313,0.13742926434923197,0.7813290218270007,0.5425818501167571,0.4096052599345978,0.055290337958792145,0.2708427219468229,0.6282109058134295,0.4133105998170055,0.5394829399879276,0.09754151625465154,0.2711174985331637,0.8627964163046273,0.5482078019954908,0.5186858974358975,0.06439099039080272,0.275,0.8500000000000001,0.5226572763879347,0.38084081738904085,0.04471716883878516,0.14720812182741116,0.5583756345177665,0.3834504220032037,0.527087442472058,0.04271928778032983,0.3846153846153846,0.6923076923076923,0.5288113370883287,0.44428118697781843,0.021310683250507393,0.15730337078651685,0.5561797752808989,0.4447906854331549,0.582756749423416,0.009861210251199988,0.5079365079365079,0.6402116402116401,0.5828399635611294,0.6495313881520813,0.012819433834445561,0.5862068965517241,0.7379310344827585,0.6496575564860405,0.5790986790986777,0.043286810184073314,0.3787878787878788,0.7727272727272727,0.5807101028808269,0.5615756224451866,0.046000214514698365,0.38164251207729466,0.8502415458937198,0.5634516605428265,0.4748072683959746,0.14474103156673102,0.15804296194198914,0.6027866905992784,0.4963246825199692,0.4291744970479167,0.16259897633933984,0.2634879859258621,0.9296401591745878,0.4588696821366586,-0.47923998843387333,0.3412129942690606,1.0,0.19435318610432384,0.6891954597178991,-0.17687092326106316
31,0.4115280353830789,0.05437203095298581,0.21395348837209305,0.4930232558139535,0.41509709227678043,0.35281547360999926,0.12426242443213338,0.2740899357601713,0.8265524625267666,0.3740164856664443,0.5497129747853788,0.08628329129179546,0.2741116751269035,0.6370558375634519,0.556429632973174,0.20618831688450384,0.10561995082342963,0.10000000000000009,0.5086956521739134,0.23161688841019018,0.41239032105332096,0.029388061783594006,0.3084975369458128,0.5240147783251232,0.4134339958224527,0.6680199687236857,0.14739743075325878,0.15588235294117636,0.8426470588235293,0.6840557373146582,0.7671461284142128,0.027494781655667454,0.6884187880960919,0.8626747938329151,0.7676376745721688,0.5473869262828298,0.09359131640730944,0.13055456750202094,0.859738075990299,0.5553142072941365,0.4199588569069322,0.051750637262645324,0.2773753943217666,0.6964831004957188,0.42312893213104247,0.5392758576167693,0.07704888584085372,0.08982312261433084,0.7161127848793898,0.5447410772769155,0.5180981595092026,0.054133910009420326,0.2791666666666667,0.8,0.5209128432834611,0.3825791784746659,0.04346041907234938,0.22842639593908629,0.5532994923857868,0.3850347688653508,0.5277646688689633,0.047502817183398514,0.3589743589743589,0.782051282051282,0.5298938089761227,0.4455435307093152,0.014431025532865325,0.38764044943820225,0.5786516853932584,0.4457767001274646,0.5834063686824423,0.007845523686588956,0.5343915343915343,0.6349206349206349,0.583459010888892,0.6497708201114156,0.010349643192730424,0.6,0.6827586206896552,0.6498530716501738,0.5790729379686422,0.03663883919020651,0.42424242424242425,0.696969696969697,0.5802285125890384,0.563063730575067,0.047986774567886664,0.31400966183574874,0.9371980676328502,0.5651006867471894,0.5995484829743681,0.0625483086431474,0.3557361672580717,0.7328462193443248,0.6027957147791174,0.3690941979661939,0.08550025118307905,0.2825267262379074,0.644774241908485,0.37884808360388655,0.36836429945826776,0.6126683672922718,1.0,0.13023228527751118,0.5207856524573408,-0.5030801050890911
32,0.4281554362949708,0.06392228168378207,0.30697674418604654,0.5069767441860465,0.43288066939731107,0.4146946320393862,0.15528706969604691,0.29122055674518205,0.8501070663811564,0.4426992887488218,0.5809796520456426,0.06347027717131529,0.4238578680203047,0.6776649746192893,0.5844216084861319,0.17833519137867004,0.08231596400166735,0.0608695652173914,0.34782608695652195,0.19634256160945296,0.401091006694455,0.03570500417255832,0.2943349753694582,0.5443349753694582,0.4026703303058855,0.6088046757164403,0.18426908792968133,0.15588235294117636,0.8279411764705882,0.6359662905292213,0.7589614878965901,0.02328566035700032,0.6887773395482253,0.8468985299390464,0.7593170911421171,0.5574763316266951,0.14263265352894935,0.16127405012126106,0.9672627324171381,0.5753581438461757,0.4125751262407415,0.058459575735116814,0.2640829202343398,0.6435331230283912,0.41667871555053376,0.5280110375734922,0.09928885324274311,0.2039528766473066,0.744955071957386,0.5372260257949747,0.5171118233618233,0.03792806178877419,0.4208333333333334,0.6583333333333334,0.5184949644248275,0.38153499067204666,0.045770925748530214,0.24873096446700507,0.5279187817258884,0.3842589932000058,0.5276134122287967,0.04240006072481406,0.4358974358974359,0.6794871794871795,0.529307089652248,0.44540478248343596,0.0073919956481745186,0.42696629213483145,0.46629213483146065,0.44546585542291367,0.5836159725048615,0.005752906965984567,0.566137566137566,0.5978835978835978,0.5836442048591933,0.6505747126436806,0.007980522645043868,0.6275862068965516,0.6689655172413793,0.6506234496995811,0.5800310800310812,0.02541126148590377,0.48484848484848486,0.6515151515151516,0.5805850725543719,0.5612742062017434,0.010746940840537464,0.5314009661835748,0.5893719806763285,0.5613766451403417,0.5646585142832556,0.06745585897792465,0.3629089763665707,0.6653770402679773,0.5686563856731276,0.33992098656760555,0.06356655593744279,0.2412692110297039,0.4887894820639038,0.34578854255753705,0.563237717349513,0.5685182386421139,1.0,0.35473008185393223,0.09725467192354312,-0.40358410995641203
33,0.4826930489528453,0.06456653131554786,0.3558139534883721,0.6674418604651163,0.48698039010754873,0.43241212866894635,0.15829189163392976,0.30406852248394006,0.8308351177730193,0.46039912642760056,0.5634868328799393,0.041129354834081006,0.4035532994923856,0.6446700507614211,0.5649817356907473,0.18786932500600462,0.04866671911425153,0.12608695652173862,0.36956521739130466,0.19405357546111954,0.40927183409084744,0.02894412601554366,0.28263546798029554,0.5591133004926108,0.41029121651581973,0.6224853753656163,0.17101701967733174,0.12205882352941155,1.0,0.6454874679187279,0.7650497514901672,0.016386447763510902,0.6747938329150234,0.8472570813911797,0.7652247357276669,0.5393036440863435,0.08577822694127474,0.200485044462409,0.7316087308003233,0.5460640979223417,0.4154981861821186,0.034013707941008456,0.29067147363677337,0.5511491662911221,0.41688425144501395,0.5306628796204976,0.0722836096769114,0.2583411894229565,0.6790298443505376,0.5355497909193416,0.5166781767955799,0.06704898068216351,0.22500000000000003,0.9083333333333334,0.520998546540427,0.38184648175673785,0.036252752281021865,0.21827411167512692,0.5076142131979695,0.3835588183314319,0.5283326250177085,0.04473864448678304,0.41025641025641024,0.6923076923076923,0.5302182379314783,0.4437581476193452,0.03372855118777299,0.0,0.6179775280898876,0.4450345673770155,0.5829167762869425,0.021268887508804464,0.4761904761904761,0.7724867724867723,0.5833035950720354,0.6502190893503554,0.011645037045510714,0.5793103448275861,0.7103448275862069,0.6503230708184433,0.5785200066968015,0.03770814286579694,0.36363636363636365,0.7272727272727273,0.5797442317739327,0.5613606640510304,0.04484788491636014,0.2801932367149758,0.859903381642512,0.563144361382925,0.5203850808648345,0.09057869217716992,0.3288045080912346,0.6025974787787761,0.5281879092709647,0.3605240296482104,0.04260632771511134,0.3096146530641486,0.5337967439078732,0.36302597768835204,0.1394158473769475,0.733217910465769,1.0,0.4451822688066819,0.06510140772683683,-0.49879205169894353
34,0.4123975238413933,0.12196817936394043,0.1581395348837209,0.7232558139534884,0.43001427885495097,0.40077231576623135,0.1425084778981465,0.2826552462526767,0.7858672376873663,0.4252980290571417,0.5024650330497037,0.12409971525048799,0.2258883248730963,0.6040609137055837,0.5175276963934323,0.2704827442393919,0.1635362438278528,0.1347826086956525,0.6739130434782608,0.3159760804822383,0.41957419286245795,0.029260406219360723,0.30357142857142855,0.5190886699507389,0.4205908005645725,0.6110946536888133,0.16548581331687529,0.17941176470588227,0.8485294117647058,0.6330533606133457,0.7830884091579373,0.0400926806249326,0.7059878092506275,0.8802438149874507,0.7841116150559758,0.5351850942851207,0.08214210576896197,0.17340662894098624,0.7069555375909458,0.5414371893842784,0.41866677041422296,0.04566460957331187,0.31726002703920686,0.6149184317260028,0.4211438241281579,0.5449049055467764,0.09236401647066918,0.19406409250627937,0.880101788551425,0.5526590353251124,0.5174460431654673,0.06356905215609904,0.32083333333333336,0.775,0.5213269044214461,0.3797855116921692,0.0377000572901679,0.25888324873096447,0.583756345177665,0.38164763962495724,0.5271475127590244,0.03626865312253634,0.3974358974358974,0.6666666666666666,0.5283907275250465,0.44507315495918087,0.0105616131124995,0.398876404494382,0.5112359550561798,0.4451981507558677,0.5835585499854083,0.01313128139761896,0.4708994708994708,0.6507936507936507,0.5837059176586231,0.6503762507235614,0.01259883338406567,0.5793103448275861,0.7310344827586207,0.6504979765217905,0.5787733449603939,0.04199962074992507,0.2272727272727273,0.7272727272727273,0.5802915843266645,0.5607108516085674,0.0472228518055658,0.13043478260869562,0.826086956521739,0.5626911311970987,0.5745299092587803,0.1155886364156929,0.307057404919431,0.7196341606010048,0.5860147689048112,0.4191997618018504,0.12757831707240103,0.31445823655073935,0.7222690278352961,0.43813883137923376,-0.14977123881730112,0.2791564375178772,1.0,-0.02897353811283446,0.6453639772100229,-0.6116208191520828
35,0.3874514504914891,0.05725504326335191,0.23488372093023258,0.4790697674418605,0.3916503637372798,0.35023289697344334,0.12624041791618879,0.2012847965738758,0.7773019271948609,0.37224570673158186,0.5513893976660215,0.0969757376777657,0.2868020304568528,0.6954314720812182,0.5598349500168414,0.2108561183325871,0.11842797697404067,0.047826086956521685,0.534782608695652,0.24177793625500105,0.40988395713777864,0.028883336622985575,0.31834975369458135,0.5166256157635469,0.41089826643126226,0.655852031534263,0.16711363360181916,0.15294117647058814,0.8691176470588234,0.6767653008458123,0.7668787171990112,0.030525467058620605,0.6841161706704914,0.876658300466117,0.7674847554097086,0.5488685662852426,0.08751261717278368,0.2518156831042845,0.8067906224737267,0.555787163026511,0.4126899179067385,0.04769015204419557,0.27039206849932407,0.5901288868859846,0.41543065553854364,0.5278105436731179,0.06452485900538317,0.25875651835687963,0.689333957425488,0.5317319277548308,0.5188487972508592,0.05041258881167057,0.3375,0.7291666666666667,0.521287121900528,0.3829609084724477,0.04774777513784821,0.19289340101522842,0.5888324873096447,0.3859199485993748,0.5283901665344966,0.04894306659120174,0.3846153846153846,0.782051282051282,0.5306473903069973,0.4448627360129758,0.01340908815916976,0.3707865168539326,0.5224719101123595,0.44506436254663534,0.5830142366224843,0.007399237034395971,0.5502645502645502,0.603174603174603,0.5830610910781588,0.6496125133309633,0.013467886715178758,0.5586206896551724,0.7586206896551724,0.6497518198983148,0.5785379568884708,0.037156065717850094,0.4090909090909091,0.7727272727272727,0.5797274309859741,0.5609741520992078,0.04398316484428334,0.2077294685990338,0.9130434782608695,0.5626922155269344,0.6170645943519967,0.04794902556980632,0.44875088155563625,0.7051681617245391,0.618920901428325,0.3665748997767279,0.09597310471008105,0.22597779982723243,0.6299672379421639,0.3789050046619479,0.6458285949801404,0.5320520147951032,1.0,0.18877369229996707,0.5625976371115159,-0.4319059191099613
36,0.43946266069622986,0.12248152001544318,0.30000000000000004,0.8627906976744186,0.45617769939369224,0.3612681270255051,0.16798293287938512,0.23340471092077086,0.7323340471092077,0.3983396822221519,0.6259419238893971,0.06504597000527391,0.41878172588832463,0.7055837563451777,0.6293055780040585,0.13782518678549008,0.06695838142969404,0.06956521739130439,0.3521739130434782,0.15319897030674445,0.3939599078012019,0.021495730431388648,0.3497536945812808,0.4870689655172414,0.3945446980029527,0.6822676896845697,0.1518973713476523,0.2602941176470587,0.8897058823529411,0.6989379385996595,0.7469302279659744,0.01794596575069734,0.7171029042667624,0.8063822158479743,0.7471453381705111,0.5701931240177347,0.10678607024129033,0.21746160064672587,0.9640291026677444,0.5800860748464787,0.41113401761747115,0.03655050489379381,0.2548427219468229,0.5430374042361424,0.4127521701095885,0.5249823240542685,0.07701189823752692,0.22909016593379788,0.7280584361217507,0.5305892892655444,0.5146135265700477,0.05212557921448697,0.3375,0.8875,0.5172412708989309,0.3806370926212019,0.04983295763950839,0.18781725888324874,0.6345177664974619,0.3838785986341974,0.5278441365397892,0.04616129706928408,0.41025641025641024,0.7564102564102564,0.5298545895781757,0.44549514969642234,0.014786627463897814,0.3932584269662921,0.550561797752809,0.44573996912434793,0.5831388916275041,0.007038792329401283,0.5555555555555555,0.6084656084656084,0.5831812830923199,0.649760833868779,0.009358769397044409,0.6068965517241379,0.6827586206896552,0.6498280899252014,0.5802747976661001,0.029450702953000837,0.48484848484848486,0.6818181818181819,0.5810201278508241,0.5605365019353673,0.02543419791066834,0.41062801932367143,0.7632850241545893,0.5611120468240606,0.5809112674601457,0.13710005847893028,0.16463179777840947,0.7055773412610182,0.5968378428862794,0.30139888350138094,0.05895158097024513,0.24232682687179596,0.49667655233327035,0.30709832409125765,0.3113212567060781,0.708254797140492,1.0,0.2680810494712097,0.5453781630376578,-0.3299525911243277
37,0.4709124800284043,0.11610246632779628,0.29767441860465116,0.7162790697674419,0.48496071694690596,0.46002582669957637,0.17705316428506754,0.28693790149892934,0.8179871520342613,0.4928000974377519,0.5877378230712607,0.02777220519242494,0.5380710659898476,0.6548223350253808,0.5883911115697557,0.17626949883836682,0.04906401316615119,0.10000000000000009,0.304347826086957,0.18294541679709816,0.4014308276614146,0.03157131306276095,0.3054187192118227,0.5917487684729064,0.4026656836936651,0.5786708576560393,0.18531552495241868,0.15294117647058814,0.9044117647058822,0.6075119172074867,0.7601619229305967,0.013714817315859546,0.7013266403728936,0.8092506274650413,0.7602851618722214,0.5258121656062745,0.10008789337869237,0.1891673403395311,0.7453516572352465,0.5352175117071054,0.4207976222010468,0.0333570859596627,0.3145561063542136,0.5328995042812078,0.4221126474125039,0.5287922140997756,0.10865018759323514,0.15369148311984548,0.761436378859098,0.5397971954600844,0.5190680661577609,0.037878546724934584,0.3416666666666667,0.6791666666666667,0.5204430471538541,0.3825899949626072,0.03878506333828525,0.27411167512690354,0.5736040609137055,0.384543422583953,0.5283323546682325,0.03752044942064499,0.3974358974358974,0.641025641025641,0.5296578970355825,0.4457286216656682,0.013746966817794613,0.4044943820224719,0.5674157303370786,0.4459397515073105,0.5834444040550913,0.006498804727987956,0.5608465608465607,0.6084656084656084,0.5834804588723191,0.64980257962622,0.008781408996640077,0.6206896551724138,0.6758620689655173,0.6498616862901491,0.5791117279666905,0.02469179444991632,0.4696969696969697,0.6515151515151516,0.5796358780655596,0.561105579525759,0.014412927462951794,0.4589371980676328,0.608695652173913,0.5612899526812647,0.5180585488085512,0.12301509484575196,0.3011466992903974,0.6461189340010737,0.532409255277206,0.3398719028791594,0.02829396940784351,0.27864196318533496,0.3990885675396969,0.34104311097300405,0.24428630880274685,0.5734107834937869,1.0,0.5461401924043107,-0.25951856332693896,-0.5239188268902927
38,0.43414932680538654,0.1307577542214805,0.2558139534883721,0.7674418604651163,0.4533606362584437,0.41024515532039907,0.17053850674524548,0.2676659528907923,0.835117773019272,0.44418904349491867,0.5739977783089832,0.12769180691259852,0.26395939086294407,0.7157360406091371,0.5879910546122536,0.1990726243526445,0.14818487579107376,0.04347826086956541,0.5478260869565217,0.24804805904703758,0.40268206814677315,0.03562770389427073,0.33497536945812806,0.5283251231527093,0.4042507453710592,0.6287314648851232,0.1795213179588815,0.10882352941176465,0.8705882352941176,0.6537903980383086,0.7635457460998841,0.04203001178580313,0.6726425242022231,0.8745069917533167,0.7646984600909722,0.5291362670386985,0.09580836429732936,0.17704122877930473,0.712607922392886,0.5377164722230164,0.41507549381506276,0.05597509345452334,0.2129355565570077,0.5824713835060839,0.41882239362045953,0.5389685937876846,0.10229498196097557,0.11207288693164213,0.769261703376031,0.548563963038795,0.5180517082179128,0.07049966030261258,0.21250000000000002,0.8375,0.522813548616924,0.38076690524065965,0.04699504009587049,0.20812182741116753,0.5786802030456852,0.38364808366264413,0.526493358903332,0.04543000587299654,0.3717948717948718,0.717948717948718,0.5284443445328627,0.4449095832425555,0.012633257049340305,0.3595505617977528,0.4887640449438202,0.44508841182593695,0.5835788301162262,0.009321139152372971,0.5449735449735449,0.6455026455026454,0.5836530595482491,0.6501098481230329,0.012264270400713139,0.6206896551724138,0.7241379310344828,0.6502251996811264,0.5794510198942321,0.03654685600977879,0.4696969696969697,0.7272727272727273,0.5805992225419648,0.5600786864185626,0.055299143758510506,0.251207729468599,0.8840579710144927,0.5627945090169759,0.5588838653438614,0.13864916848351644,0.2838813473672551,0.6936545567011231,0.5757790512998151,0.35347285392255273,0.13551473760434088,0.20851246537237111,0.6867514765451981,0.37849231443430165,-0.5245222635969148,0.47412757330904826,1.0,0.008433670235464485,0.6236070047807202,-0.5675105837988008
39,0.3481350045303535,0.03324375738113106,0.2558139534883721,0.3906976744186047,0.34971351224000474,0.33176673433632675,0.14646827688382036,0.2226980728051392,0.7687366167023555,0.3625637456924351,0.5974767618168639,0.06194057993996323,0.43147208121827396,0.7055837563451777,0.6006685106994392,0.17332015810276646,0.07024709745018842,0.05652173913043512,0.34347826086956523,0.1869719505668564,0.39881285586334875,0.024722431124614693,0.33497536945812806,0.4772167487684729,0.39957591042447765,0.6601986249045073,0.17449977094793745,0.2044117647058823,0.8676470588235293,0.682798308578877,0.7538055347305972,0.019007702795026494,0.6963069200430263,0.8153460021513088,0.7540443646945226,0.5492750370082629,0.11312845320804132,0.2142279708973322,0.908649959579628,0.5607669400965658,0.4173583982488896,0.04871366945161246,0.3057701667417756,0.6266354213609735,0.4201825193469653,0.5315099043236593,0.07265743273763514,0.2867747400897902,0.7346509588824355,0.5364370801714617,0.5176136363636367,0.052281296371185206,0.35000000000000003,0.7416666666666667,0.5202387298529022,0.3810237985364894,0.048430959847967164,0.1370558375634518,0.6243654822335025,0.3840795197290983,0.527597402597403,0.0462182281662408,0.3205128205128205,0.717948717948718,0.5296113748521869,0.4447322340580787,0.010349522433527372,0.398876404494382,0.47752808988764045,0.4448522505918804,0.5830584759156188,0.014453527701072477,0.4867724867724867,0.6719576719576719,0.5832370123190121,0.6492610837438451,0.012969420941974388,0.5517241379310345,0.7379310344827585,0.6493901867296838,0.5803817394726484,0.05589015541943854,0.09090909090909094,0.8787878787878789,0.5830579139950279,0.5622215948302899,0.06922949248646977,0.10628019323671495,0.9710144927536231,0.5664541318903851,0.6529297884912647,0.05655320508444296,0.44575288137011737,0.6999315074023252,0.6553664545330956,0.3228591525926658,0.058253524091370704,0.21831582973691221,0.478885261107014,0.32805561679723355,0.5145721752898855,0.8402919162900286,1.0,0.34515497785691485,0.2651865702131106,-0.5179369037865872
