,Orientation X,Orientation X,Orientation X,Orientation X,Orientation X,Orientation Y,Orientation Y,Orientation Y,Orientation Y,Orientation Y,Orientation Z,Orientation Z,Orientation Z,Orientation Z,Orientation Z,Orientation W,Orientation W,Orientation W,Orientation W,Orientation W,Accelerometer X,Accelerometer X,Accelerometer X,Accelerometer X,Accelerometer X,Accelerometer Y,Accelerometer Y,Accelerometer Y,Accelerometer Y,Accelerometer Y,Accelerometer Z,Accelerometer Z,Accelerometer Z,Accelerometer Z,Accelerometer Z,Gyroscope X,Gyroscope X,Gyroscope X,Gyroscope X,Gyroscope X,Gyroscope Y,Gyroscope Y,Gyroscope Y,Gyroscope Y,Gyroscope Y,Gyroscope Z,Gyroscope Z,Gyroscope Z,Gyroscope Z,Gyroscope Z,EMG1,EMG1,EMG1,EMG1,EMG1,EMG2,EMG2,EMG2,EMG2,EMG2,EMG3,EMG3,EMG3,EMG3,EMG3,EMG4,EMG4,EMG4,EMG4,EMG4,EMG5,EMG5,EMG5,EMG5,EMG5,EMG6,EMG6,EMG6,EMG6,EMG6,EMG7,EMG7,EMG7,EMG7,EMG7,EMG8,EMG8,EMG8,EMG8,EMG8,Roll,Roll,Roll,Roll,Roll,Yaw,Yaw,Yaw,Yaw,Yaw,Accelerometer X vs Roll,Accelerometer Y vs Roll,Accelerometer Z vs Roll,Accelerometer X vs Accelerometer Y,Accelerometer X vs Accelerometer Z,Accelerometer X vs Accelerometer Z
,mean,std,amin,amax,RMS,mean,std,amin,amax,RMS,mean,std,amin,amax,RMS,mean,std,amin,amax,RMS,mean,std,amin,amax,RMS,mean,std,amin,amax,RMS,mean,std,amin,amax,RMS,mean,std,amin,amax,RMS,mean,std,amin,amax,RMS,mean,std,amin,amax,RMS,mean,std,amin,amax,RMS,mean,std,amin,amax,RMS,mean,std,amin,amax,RMS,mean,std,amin,amax,RMS,mean,std,amin,amax,RMS,mean,std,amin,amax,RMS,mean,std,amin,amax,RMS,mean,std,amin,amax,RMS,mean,std,amin,amax,RMS,mean,std,amin,amax,RMS,corr, corr, corr, corr, corr, corr
0,0.3850345560871878,0.07070278892494439,0.18859649122807065,0.45175438596491224,0.39137546304140625,0.30700694654183025,0.028334364232946458,0.25249169435215946,0.36544850498338877,0.3082919675188251,0.6284452565859603,0.11734048274414613,0.5527638190954773,1.0,0.6391428724491326,0.8668560606060605,0.009711567310534403,0.85,0.884375,0.8669096350490684,0.5021337832473204,0.041415457549078064,0.4268558951965066,0.5862445414847162,0.5038130485760955,0.6373265926394033,0.07461846477841443,0.42204568023833167,0.7298907646474677,0.6416141664726726,0.35924495332689566,0.08238870878136476,0.25341426403641876,0.6145675265553869,0.36843179676283083,0.5496313959264777,0.16298358645970853,0.39387057808455567,0.8761898188093185,0.5729361581416876,0.531774275008146,0.06298276465854706,0.44422043010752693,0.6740591397849462,0.5354349677973691,0.5166556550505831,0.058720300551658514,0.3951686339192138,0.6099341958318301,0.5199316263238489,0.5067640692640693,0.08968401005359365,0.25,0.7321428571428571,0.51452033639258,0.4897989798979898,0.09638907056212381,0.3069306930693069,0.7524752475247525,0.4990522248563727,0.4532134532134529,0.08921395737632497,0.18681318681318682,0.6483516483516484,0.4617802198911618,0.566404788627011,0.08222102875557696,0.382716049382716,0.7407407407407407,0.5722519142809215,0.5544596912521439,0.041792000854146465,0.4528301886792453,0.6792452830188679,0.5560086846055237,0.37494346449570315,0.02874116330789425,0.2985074626865672,0.44776119402985076,0.37602678104031295,0.5878787878787879,0.05737548386801635,0.41428571428571426,0.7285714285714285,0.5906297803319488,0.5693404634581106,0.0708255073423476,0.388235294117647,0.7999999999999999,0.5736626290733834,0.852190896080692,0.009054494911766254,0.8234072586321611,0.8596342534723613,0.8522382677754785,0.41096062862883637,0.08075808087885888,0.34255496056397894,0.6300682357892077,0.4187023880205061,-0.4871931152290269,0.8747293971693955,1.0,-0.29218116512748005,0.4376385818587092,-0.8933471525439068
1,0.6346988605534458,0.06307432959952605,0.46929824561403555,0.7280701754385963,0.6377930702882325,0.1381648799534199,0.060028544405996864,0.03322259136212613,0.2857142857142857,0.15051847552017253,0.5202559187691035,0.03741141632341193,0.48743718592964824,0.7160804020100502,0.5215854734121368,0.7699742268041238,0.026064013983206305,0.728125,0.8312499999999999,0.7704106952375077,0.3946562823571783,0.11306102810240726,0.0,1.0,0.4103712902686069,0.611738449410825,0.11346404635811164,0.0,1.0,0.6220653484386462,0.19551648076592146,0.0654754547192265,0.08345978755690453,0.51896813353566,0.20608137514804029,0.482031612748281,0.11821570688568499,0.34555306298533217,1.0,0.49617069377294354,0.5109777740826957,0.12479859793215596,0.05947849462365595,1.0,0.5258444749518939,0.5044919213609105,0.07695769568647645,0.30523340721268666,1.0,0.5102680952965357,0.503681885125184,0.09755896580614405,0.25,1.0,0.5129474359617677,0.480657344084924,0.1307750878577991,0.18811881188118812,0.9405940594059405,0.4979531056980841,0.45485442392658876,0.09310386059559685,0.27472527472527475,0.7362637362637363,0.46418909035905237,0.5615374824996818,0.08411297771939447,0.3209876543209876,0.7901234567901234,0.5677379670239818,0.557770861700058,0.04440100403005435,0.41509433962264153,0.6792452830188679,0.5595171660479861,0.37698107401138625,0.03175505040459856,0.26865671641791045,0.4626865671641791,0.37830241564866335,0.5867452135493374,0.06445900659957828,0.42857142857142855,0.8142857142857143,0.5902389977621577,0.5676167374166162,0.12333120101458385,0.0,0.8823529411764706,0.5807258695658931,0.8788622514435627,0.00659549022149349,0.8592391337376114,0.8881884474681939,0.8788867441513937,0.19583831467638324,0.06551542562354902,0.09658410388543603,0.38791442374334795,0.20639928845197453,-0.4142396971712688,-0.10411487965830746,1.0,0.28612076547660087,0.693813469485721,-0.044042559225271796
2,0.299391945773525,0.09788696654332968,0.1491228070175441,0.4254385964912286,0.314815041985962,0.3975762609483539,0.096056997907505,0.24916943521594692,0.5348837209302327,0.4088874887398246,0.6902409776153495,0.03410110759970087,0.6482412060301508,0.7587939698492463,0.6910732798412308,0.8700461647727273,0.018405939270346602,0.8390624999999999,0.9,0.870238621114538,0.5533817983326718,0.05732448762648133,0.44759825327510916,0.712882096069869,0.5563094189365501,0.6349869098131262,0.03601472274793265,0.5600794438927508,0.7169811320754716,0.6359958306212066,0.4604083321837495,0.09696264236105008,0.2913505311077391,0.6570561456752655,0.4703942476732335,0.46100713781473074,0.08000908896340028,0.31449180327868853,0.7864572907679034,0.4678207900829433,0.4605288978494624,0.05872687874390926,0.28595161290322585,0.5823279569892473,0.46421602795074074,0.5162312490140308,0.040876585566618044,0.41503015308489255,0.6179836090923149,0.5178287460736184,0.4977678571428571,0.10769944715906088,0.0,0.7946428571428571,0.5091563627831072,0.47063456345634563,0.12095436418762774,0.019801980198019764,0.7425742574257426,0.48575775959895495,0.44705294705294685,0.11584887029874001,0.0,0.7472527472527473,0.46165440244907374,0.5603254769921437,0.10353584735014908,0.1975308641975308,0.765432098765432,0.5697038681648594,0.5643224699828472,0.07751180852545048,0.25471698113207547,0.8113207547169812,0.569560933480191,0.37686567164179086,0.05356381500371072,0.28358208955223885,0.6567164179104478,0.3806103171645091,0.5883116883116887,0.08979204098463836,0.3142857142857143,0.8142857142857143,0.5950475885616722,0.5680481283422459,0.15008991314024103,0.11764705882352938,1.0,0.5873241606706257,0.8479565191058955,0.0058040585798582855,0.8381862182618848,0.8556979316776376,0.847976156847748,0.5244075584595658,0.10317660581798045,0.39201653035796735,0.6908687516968689,0.5343479472842276,-0.729653414417469,-0.5988650369664928,1.0,0.34217540737348984,0.7677532577987927,0.41582849652796167
3,0.2658926728586177,0.08216259937655797,0.06578947368421062,0.34649122807017596,0.2781549681412641,0.21567324604260324,0.06564782564941832,0.03654485049833889,0.31893687707641194,0.22533061145600686,0.7772391368607744,0.05104004184584377,0.7261306532663319,0.9899497487437188,0.7788935188269509,0.935183823529412,0.02787026230448644,0.890625,1.0,0.9355941412059098,0.508245568969946,0.0322003962624332,0.4421397379912664,0.5742358078602621,0.5092526146021893,0.5632338337519714,0.048972307073078404,0.3743793445878848,0.6295928500496524,0.5653339041694504,0.37825582433276805,0.0513976325138189,0.2898330804248861,0.49013657056145665,0.38169111366461506,0.4749122062630057,0.12964942320355932,0.33477135461604834,0.919758412424504,0.4920902599847134,0.4785263124604682,0.043402219353745324,0.40591397849462374,0.5873655913978495,0.4804675041727824,0.5426380892030023,0.04244459762348622,0.46496744154081404,0.6432228579282855,0.5442760743295364,0.5037815126050421,0.08079736359657469,0.23214285714285715,0.7767857142857142,0.5101443167276841,0.4783925451368666,0.08153425720014712,0.2871287128712871,0.693069306930693,0.4852103178159301,0.4439560439560438,0.07299533537213038,0.2857142857142857,0.6703296703296704,0.44984730947897417,0.5708061002178647,0.057644037003047655,0.39506172839506165,0.7160493827160492,0.5736752974213213,0.5593784683684794,0.0449104811369043,0.3113207547169811,0.6792452830188679,0.5611572804047036,0.37892888498683036,0.03485840578279313,0.22388059701492538,0.4626865671641791,0.38051006942984755,0.591932773109244,0.046156821607129174,0.42857142857142855,0.7142857142857143,0.5937085109027557,0.5611072664359863,0.08551403175692852,0.3294117647058823,0.776470588235294,0.5675103372648851,0.8289400712408931,0.006980066294351664,0.8110290673554545,0.8362079739345977,0.8289691127190845,0.4307350074762971,0.06054421696245109,0.3518592820763712,0.5611542688447334,0.4349196755049695,-0.6762193419439371,-0.34594810430690176,1.0,0.38840210833640787,0.6026143383393976,0.371755642492738
4,0.5937921727395418,0.034903758252600725,0.5131578947368425,0.6447368421052633,0.5948039995416521,0.22467842235284097,0.03207273174874357,0.17607973421926915,0.2857142857142857,0.22692700509747327,0.5146244040716405,0.03246755727373963,0.47487437185929654,0.6130653266331658,0.5156344682979009,0.7716947115384617,0.017683015013407997,0.740625,0.796875,0.7718946871191719,0.4343298622774607,0.04814889225517011,0.3755458515283844,0.6189956331877731,0.4369565460015404,0.6388867669900441,0.03937804103706043,0.5511420059582919,0.7626613704071499,0.6400836283468172,0.2469942803781953,0.04035667731918095,0.16236722306525042,0.3232169954476478,0.2502278075461912,0.471128691843101,0.0620929064768996,0.364106988783434,0.7105297670405523,0.4751508638875874,0.5048509098428453,0.06331165438836868,0.38575268817204306,0.7325268817204302,0.5087547714255026,0.5102757611842195,0.047825287360107806,0.32993144683263753,0.5715427039843307,0.5124834502120773,0.5052655677655677,0.03391318545275756,0.4107142857142857,0.6071428571428571,0.5063878485825328,0.47867479055597867,0.08098537557009496,0.3267326732673267,0.8415841584158416,0.48539066859231833,0.44125105663567166,0.07568115946301082,0.25274725274725274,0.7032967032967034,0.44761222238078396,0.5685343463121239,0.05995190825505036,0.419753086419753,0.7407407407407407,0.5716462668044555,0.5578132559264635,0.04615069070284605,0.4339622641509434,0.6886792452830188,0.5596947458263545,0.3744737849215459,0.021806877476085187,0.31343283582089554,0.417910447761194,0.3751000650936671,0.5879120879120883,0.04668024683259039,0.4714285714285714,0.7142857142857143,0.5897386981345606,0.565460030165913,0.07475214951946232,0.16470588235294115,0.6823529411764705,0.5703168330291299,0.8786404407216571,0.0035986920531129855,0.8694012132325046,0.8835123361923841,0.8786477158810045,0.2694898594829505,0.03559777240495806,0.20900531875064987,0.36325152750351786,0.27180091904285064,-0.5708246195560952,-0.2541627824114849,1.0,-0.06744636141629544,0.20017352295051052,-0.2919149813368645
5,0.6489139515455301,0.05360417133542493,0.5745614035087723,0.7192982456140355,0.6510979315484005,0.07882455307704476,0.040424761966288636,0.0,0.16279069767441856,0.08847608290201207,0.5600323043790383,0.05598599192717358,0.41457286432160806,0.6381909547738693,0.5627906347674296,0.7689174107142853,0.0396866683110777,0.6875,0.81875,0.7699287407055986,0.3603659804533168,0.07857349878367322,0.14082969432314407,0.787117903930131,0.3687328803118913,0.5776587695654228,0.07119038192991804,0.4399205561072492,0.958291956305859,0.5819771390379463,0.1843883228556976,0.055523584390798186,0.08649468892261014,0.4218512898330804,0.19247135167232654,0.41347754632482847,0.0762060893840293,0.0,0.5647075064710958,0.42035926781738625,0.4878954813108042,0.10808673625808099,0.0,0.6787634408602151,0.49958549115232914,0.5083658856563604,0.0795244919344734,0.0,0.5954332250914901,0.5144751996727432,0.504251700680272,0.08509390051650684,0.25,0.6785714285714285,0.5112969269392986,0.4817303158887317,0.12499795066952915,0.1782178217821782,1.0,0.4974963106518732,0.44283097854526393,0.07127369702945753,0.25274725274725274,0.6373626373626373,0.4484626405540858,0.5709876543209874,0.07466360182652992,0.419753086419753,0.765432098765432,0.5757909255127389,0.5613207547169811,0.05805334907231237,0.3584905660377359,0.7169811320754716,0.5642792391087011,0.3782871357498222,0.046365952056278845,0.23880597014925375,0.5522388059701493,0.3810844600725272,0.5869047619047623,0.08136432932022901,0.3571428571428571,0.9142857142857143,0.5924512994956229,0.5619047619047621,0.0905897824496089,0.19999999999999996,0.7176470588235293,0.5690744886247836,0.8771792907859212,0.008471016097294119,0.864071794685005,0.8896331275858174,0.8772197056804827,0.1638613444260946,0.052398922097123324,0.0721532755993538,0.2553225430676239,0.17194039944067327,-0.2857679912371189,-0.19581924551739247,1.0,0.18544032162501412,0.5640877276771656,0.10303203623119228
6,0.10273790536948454,0.08823418592832938,0.0,0.2543859649122808,0.13499033338001154,0.6696365649854026,0.054916323678072816,0.5514950166112959,0.7308970099667776,0.6718506067518882,0.6983401857773718,0.039909745995918164,0.6507537688442213,0.7788944723618092,0.6994624148216702,0.8677793560606063,0.019655164898191756,0.8328125,0.8921875,0.8679985500537195,0.6416236601826122,0.0399126423727668,0.5644104803493452,0.7412663755458515,0.6428450852853062,0.7120309349703591,0.03678488998653244,0.5849056603773585,0.7646474677259185,0.7129661131811954,0.6907389524991955,0.06793978701255866,0.5614567526555386,0.7966616084977238,0.6940217421473552,0.42786989829267646,0.03375531523567457,0.36453494391717,0.5198412424503883,0.4291792250475939,0.4621108667318346,0.05553178835675256,0.33232795698924733,0.6098763440860215,0.4653853336082414,0.5150933982888521,0.036446896506266216,0.4257684311805234,0.5900640860436748,0.5163617514035983,0.49986471861471876,0.07053862534406101,0.24107142857142855,0.7321428571428571,0.5047425534097898,0.4764476447644765,0.089917884135483,0.297029702970297,0.693069306930693,0.4847319678610876,0.45021645021645,0.10529654744945945,0.20879120879120877,0.8021978021978022,0.46218418904505554,0.5688365132809575,0.08776087596876737,0.34567901234567894,0.802469135802469,0.5754652497386997,0.5576043453401943,0.059622659602952995,0.3584905660377359,0.7358490566037735,0.5607348802615546,0.37471732247851647,0.04482422122578322,0.22388059701492538,0.4925373134328358,0.377348433130388,0.5919913419913421,0.07417272844146146,0.44285714285714284,0.7571428571428571,0.5965500692797707,0.5655971479500892,0.12546529816080265,0.23529411764705876,0.788235294117647,0.5791400233227187,0.8478363108035751,0.0063295085283028895,0.8392070048744101,0.8563388946934921,0.8478595789309396,0.7759757841184134,0.06967454602818021,0.652435001039506,0.8749627377459549,0.7790503232976894,-0.5674827255664365,-0.41965567420730965,1.0,0.22653464497269912,0.6880046023806606,0.39556119058478806
7,0.3984649122807019,0.07180962684108316,0.26754385964912286,0.5000000000000009,0.40477767368948636,0.17541528239202658,0.03942260217216626,0.11960132890365449,0.23920265780730887,0.1797185591399293,0.619388609715243,0.012330634199601247,0.5929648241206031,0.6432160804020102,0.6195092899296047,0.9132291666666666,0.03850015419754145,0.84375,0.9765625,0.9140268422532103,0.44062954876273663,0.04146527893215769,0.3668122270742358,0.5622270742358079,0.4425439101872557,0.6226249586229726,0.05335636698498282,0.46971201588877853,0.7040714995034756,0.6248690203819761,0.2775417298937785,0.034480834348196376,0.19575113808801192,0.34597875569044,0.2796399905309617,0.4248913431118781,0.05026409930910903,0.29120276100086284,0.49525452976704054,0.4278048914354717,0.4890793010752688,0.05025104924158857,0.3713064516129033,0.6270161290322581,0.4916112738309162,0.5449253045375667,0.027821140557358327,0.47248423620775565,0.5836211191862962,0.5456232245083663,0.5105654761904763,0.05932782758702901,0.3125,0.6964285714285714,0.5139438037552037,0.48151815181518176,0.07199880320426749,0.3366336633663366,0.6435643564356436,0.48678245763651024,0.4452380952380949,0.052662270379618015,0.31868131868131866,0.5714285714285714,0.44829014517470445,0.5701646090534979,0.0568479407035678,0.40740740740740733,0.6790123456790123,0.572944594447544,0.5556603773584905,0.03608894206686563,0.42452830188679247,0.6226415094339622,0.556811601749964,0.3741293532338307,0.02662379049889453,0.2985074626865672,0.44776119402985076,0.37505970911489744,0.5850000000000002,0.0646639398151539,0.37142857142857144,0.7571428571428571,0.5885038102628373,0.56921568627451,0.06812214866101379,0.3294117647058823,0.7999999999999999,0.5732100669506057,0.8435675989493845,0.008004648219731646,0.8296828541121047,0.8582312131753984,0.8436049433732591,0.2886137640916122,0.03422345260298763,0.23446672938707558,0.34473089362729714,0.2906021830373323,-0.13036290674898554,-0.8548078328749874,1.0,0.16774605965158007,0.4590599106108688,-0.023671127274641584
8,0.6605263157894746,0.024214878491113697,0.5921052631578951,0.692982456140351,0.660962632467537,0.18803986710963452,0.035657177603128726,0.15282392026578073,0.292358803986711,0.19133540018856873,0.469849246231156,0.02098084936906103,0.442211055276382,0.5276381909547739,0.4703096571659588,0.7385416666666668,0.010375093594295772,0.725,0.759375,0.7386133236864082,0.4055676855895196,0.046211155444777816,0.32969432314410485,0.554585152838428,0.4081482908215125,0.6396722939424031,0.030719462631594228,0.5789473684210527,0.6991062562065541,0.64039722120897,0.21525037936267066,0.03720110172776558,0.15174506828528078,0.3444613050075873,0.2183886041426396,0.45276870865688806,0.03683404061168764,0.3809352890422778,0.5496117342536669,0.45423962579694266,0.5120124551971326,0.06361016094912032,0.3961666666666667,0.7113602150537636,0.515883290396225,0.5078284194972765,0.03463863120359111,0.4373142277889456,0.5911379138532378,0.5089887436619461,0.49538690476190467,0.07069637713366039,0.2946428571428571,0.625,0.5003227593468123,0.47178217821782176,0.11153865115857425,0.12871287128712872,0.7425742574257426,0.4845739845897515,0.4476190476190473,0.08233041063712593,0.18681318681318682,0.6153846153846154,0.4550034469083354,0.5594650205761317,0.10689235042052332,0.03703703703703698,0.8395061728395061,0.5694178175268446,0.556761006289308,0.10226527887458257,0.0,0.8018867924528301,0.565921109578468,0.3786069651741294,0.05314111175505854,0.16417910447761194,0.5074626865671642,0.382256648785802,0.588095238095238,0.09589162374853637,0.2714285714285714,0.9714285714285714,0.5957331274855154,0.5686274509803924,0.06514999108171042,0.44705882352941173,0.7529411764705882,0.5722857304914271,0.8876900665849362,0.002428844412770263,0.8835068793773885,0.8909662567629819,0.8876933340277655,0.21508705570557102,0.04012061551923346,0.17177795974043641,0.32867528324630946,0.21873563402405694,-0.083499549963442,-0.16845769351476178,1.0,0.054124600434321796,0.3171612713067694,-0.5019571803207651
9,0.8006707946336442,0.035737674610401546,0.7017543859649127,0.8508771929824568,0.8014585935046533,0.12773109243697472,0.0489842293114626,0.07641196013289031,0.292358803986711,0.136698419220222,0.47537688442211057,0.03267665897169692,0.41457286432160806,0.5125628140703518,0.47648545030727296,0.6058823529411765,0.01856250353676788,0.5734375,0.640625,0.6061632935266846,0.36573336758284103,0.05392365188202793,0.24454148471615722,0.5982532751091704,0.36964097101359084,0.561341199836439,0.03037425424729401,0.46077457795431975,0.6276067527308837,0.5621527229252663,0.17802374364009638,0.05278575296387925,0.03490136570561453,0.35204855842185123,0.18559635932692925,0.44771366796934475,0.06035990537984457,0.359358067299396,0.636755823986195,0.45171670779066253,0.5136542061986086,0.09234948325890695,0.37970430107526887,0.935483870967742,0.521793767850605,0.5024098717369531,0.04380508113201047,0.4177190179200385,0.5903346906516846,0.5042935546212267,0.49800420168067233,0.0594394034404641,0.3482142857142857,0.6964285714285714,0.5014974200979961,0.46534653465346526,0.11721980617279233,0.1782178217821782,0.7623762376237624,0.4797147355798854,0.44175824175824147,0.08573977535632843,0.23076923076923075,0.6483516483516484,0.4499057315153166,0.5615105301379808,0.1106957381392858,0.23456790123456783,0.9135802469135801,0.5721918057156444,0.5654827968923418,0.10341923636509405,0.2830188679245283,0.8396226415094339,0.5747525573387239,0.37734855136084255,0.02389078548493138,0.3283582089552239,0.44776119402985076,0.37809520482066067,0.5936134453781512,0.07034918744874348,0.3,0.8428571428571429,0.5977187524938742,0.5673356401384084,0.07289364292404808,0.388235294117647,0.788235294117647,0.5719446653157869,0.9142415049664031,0.004796973904150228,0.9057301866855916,0.9219209231089024,0.914253941552734,0.1557519173583169,0.04998550108551298,0.08889791644380352,0.3216422984406392,0.16348643787766987,-0.2205801701938169,-0.10609240240075696,1.0,0.31182207340234336,0.4022084008602561,-0.030615977358123107
10,0.22414244566640507,0.07175721925611143,0.13157894736842124,0.3728070175438596,0.2351852083955104,0.6567164179104481,0.024850665633661492,0.5847176079734219,0.6877076411960134,0.6571794213820661,0.7421810545263633,0.08668309181318042,0.5728643216080402,0.8467336683417086,0.7471509402197303,0.7672341417910445,0.012661627146561006,0.7515625,0.79375,0.7673370526331634,0.6391351104738318,0.04701214647744404,0.5436681222707423,0.7368995633187774,0.6408360509241279,0.6109324282262965,0.054330919271563076,0.5074478649453823,0.6941410129096326,0.61330760895554,0.7004507055013246,0.10135508335118265,0.49165402124430946,0.8786039453717753,0.707637419583947,0.3933592778128341,0.11566584468709878,0.21095427092320965,0.6259741156169112,0.40976875021927717,0.45899061145883485,0.07293805320283368,0.35853225806451616,0.6172741935483872,0.46466432898406357,0.5073690872476443,0.034744453831569114,0.4477861965878048,0.5884576396405684,0.5085396250031278,0.5059968017057569,0.12583199516391663,0.21428571428571425,0.8125,0.521181475684828,0.47982857987291244,0.13225669516378138,0.20792079207920788,0.9405940594059405,0.49745977459285035,0.44366081679514496,0.15692924035015493,0.10989010989010989,1.0,0.4702064895967996,0.5807997051778145,0.12911523607008624,0.09876543209876537,0.9259259259259258,0.594769051517205,0.5639256547451422,0.12123507337962915,0.24528301886792453,1.0,0.5766200783993392,0.37491646246380045,0.064302700300277,0.20895522388059704,0.5223880597014925,0.38030971208113284,0.5884861407249468,0.11640988100505073,0.32857142857142857,0.8857142857142857,0.5997207188376159,0.5733099209833187,0.14679237308190884,0.04705882352941171,0.8823529411764706,0.5915324626263153,0.8637650704918952,0.008302410987118727,0.8521269100478699,0.8788367216346926,0.8638043749736839,0.7920725346759052,0.07078022250123944,0.6279119993282302,0.8702130277894214,0.7951817190777386,-0.40866001049396367,0.6610255437592942,1.0,-0.2152450558946783,0.4618286996188734,-0.48614158103738514
11,0.34336788942052127,0.06301511992080842,0.24122807017543924,0.4385964912280702,0.3490161136557073,0.4196617336152221,0.025019189424006247,0.3820598006644519,0.46179401993355496,0.42039558306478003,0.6864626161108571,0.03984797433473246,0.6407035175879396,0.7587939698492463,0.6876007023523583,0.8305397727272724,0.023446603709801415,0.7875,0.865625,0.8308656497079315,0.5540227603546382,0.05133781737621965,0.34170305676855905,0.6692139737991267,0.5563603666532319,0.6216334145827691,0.030555969801658547,0.548162859980139,0.7527308838133068,0.6223725756669022,0.4790775739182415,0.055919504553044036,0.3657056145675265,0.590288315629742,0.48228097015068994,0.42190875101315123,0.05119054516216637,0.2782536669542709,0.5051803278688525,0.4249561883012977,0.4798181818181819,0.06627212803605304,0.3030913978494624,0.7348763440860215,0.48430459132619774,0.5186687242509108,0.03313274683072584,0.4461711595622219,0.5846949469958593,0.5197099108298684,0.4990530303030302,0.03769015068282276,0.375,0.5892857142857142,0.5004527460877702,0.48979897989798976,0.0660928029972933,0.2871287128712871,0.6633663366336633,0.49417113794784184,0.45354645354645307,0.056381739583344644,0.3516483516483516,0.6483516483516484,0.456984814761971,0.5781893004115223,0.07618343082167867,0.4320987654320987,0.7777777777777777,0.583111347972298,0.5593196112064037,0.08623797694150614,0.3867924528301887,0.8773584905660377,0.5658292450029225,0.3765264586160107,0.02853536477470967,0.31343283582089554,0.4626865671641791,0.3775898617565142,0.5900432900432901,0.033146806980409546,0.5285714285714286,0.6714285714285714,0.5909595145224215,0.5700534759358293,0.059388484061329336,0.4117647058823529,0.6941176470588235,0.5730920678148526,0.8561265105680006,0.007145791241782835,0.8445747918100613,0.8677571147463541,0.856155879941327,0.5401069232344685,0.04546085797888019,0.4798262770706435,0.6153485606875143,0.5419878823876678,-0.45068379390980795,-0.22365216221083875,1.0,0.2709486824207802,0.6109361213244519,0.10870204309492217
12,0.7005012531328317,0.01272481219946891,0.679824561403509,0.7236842105263164,0.7006153178585641,0.32087845709108176,0.012791783656782135,0.29568106312292375,0.34219269102990035,0.3211300186729013,0.4412321346994714,0.04672420411514441,0.37939698492462315,0.5703517587939699,0.4436672123653126,0.6256290584415583,0.016141264930575938,0.571875,0.6421875,0.6258345432764445,0.4496540577326604,0.0237930993848394,0.3919213973799127,0.5152838427947599,0.4502749505750499,0.6367505384387214,0.04223586594031375,0.4826216484607746,0.7080436941410129,0.6381316082533591,0.29558756872869163,0.033482094254704664,0.22761760242792106,0.3672230652503793,0.29745336159380553,0.4315186177067108,0.03750581782115267,0.364969801553063,0.5358067299396031,0.43312438761143723,0.48826965507610676,0.03631191691320916,0.4233870967741936,0.5678763440860216,0.4896005384832805,0.48822337224996887,0.04297073615010683,0.39570125251275706,0.5761043245193547,0.4900862832834427,0.5000000000000002,0.03883780029135965,0.40178571428571425,0.5982142857142857,0.5014865755424014,0.481033817667481,0.05617748679520897,0.3168316831683168,0.6336633663366337,0.4842607334049783,0.45739974311402853,0.07341498622635925,0.2967032967032967,0.7032967032967034,0.46317846270918916,0.569825236491903,0.13836360033545275,0.0,0.9999999999999999,0.5861711834898213,0.5612594952217596,0.10837310009512936,0.32075471698113206,0.9245283018867925,0.5714931503133209,0.37584803256445043,0.07398495619772623,0.029850746268656747,0.5671641791044776,0.38296792209720637,0.5961038961038961,0.08881111044537818,0.17142857142857143,1.0,0.6025984022127208,0.5581359816653934,0.06738050881724064,0.3529411764705882,0.7411764705882352,0.5621360549121878,0.9113814963428065,0.0017646815663695458,0.9084049583862338,0.9147326064663668,0.9113831826044486,0.32157798344142197,0.025352582680409054,0.2819331703015503,0.3789029197062309,0.3225628705158646,-0.11144477984858335,-0.3030839724878748,1.0,-0.4083576282207202,0.5338562184601038,-0.6454920399026103
13,0.6898391812865501,0.028914366642277207,0.6535087719298249,0.7456140350877196,0.690434792450706,0.320044296788483,0.026869751121497,0.2624584717607975,0.34883720930232587,0.32115152556606397,0.5289782244556116,0.04917175106043136,0.4170854271356784,0.585427135678392,0.5312207877761572,0.6079947916666666,0.004448271000321626,0.6,0.6171875,0.6080107926866413,0.46593886462882117,0.04693346232861275,0.33515283842794763,0.5971615720524018,0.4682574750707602,0.565441906653426,0.0396740323345702,0.477656405163853,0.6425024826216484,0.5668089138567938,0.33029843196762776,0.05443833227830539,0.2352048558421851,0.4582701062215476,0.33468073440394314,0.41173356341673845,0.03164493143799919,0.3330457290767903,0.4685073339085419,0.41292764366347035,0.470922759856631,0.04736217278234154,0.36525268817204304,0.5698924731182796,0.4732589512146663,0.5016630729229307,0.02967351644547719,0.44375719464632407,0.5903346906516846,0.5025253038601609,0.5049107142857143,0.06239018803428944,0.25,0.6160714285714285,0.5086870249679544,0.5006600660066006,0.1117253200056429,0.2871287128712871,0.8217821782178218,0.5127718853173644,0.4461538461538461,0.07165244227290538,0.25274725274725274,0.5824175824175825,0.4517762267393161,0.5765432098765431,0.10584336973625015,0.2962962962962962,0.7901234567901234,0.5860189230078271,0.5630503144654088,0.06025660661211552,0.4056603773584906,0.7075471698113207,0.5662119752789846,0.3820895522388058,0.04575207571793637,0.28358208955223885,0.5074626865671642,0.3847736877984374,0.6007142857142859,0.09162150496990613,0.3,0.7999999999999999,0.6075460845877941,0.558823529411765,0.08654750006308146,0.28235294117647053,0.8117647058823529,0.5653754200782029,0.9100388664745936,0.003013972385931754,0.9049717540953215,0.9151231768551635,0.9100437742896844,0.3544508423936429,0.04378166162197396,0.25803088918408756,0.4025931807255384,0.35709982685009956,-0.4693762897544378,0.6588195946940865,1.0,-0.19163085710091962,0.4757813421227438,-0.6003958278208298
14,0.24193756449948425,0.08879806133982017,0.12280701754386003,0.3771929824561404,0.25749354074224917,0.7203439515341021,0.038841288907240985,0.647840531561462,0.7740863787375417,0.7213749845047386,0.6408882648536808,0.13186592599021796,0.4974874371859297,0.8341708542713568,0.6541182426966674,0.7472196691176467,0.017325484087400297,0.721875,0.7687499999999999,0.7474175486400927,0.6394971744156179,0.04412999790363404,0.5578602620087336,0.7434497816593888,0.640995673722683,0.679201472048601,0.06956916260298077,0.5253227408142999,0.7815292949354518,0.6827029613845166,0.7140944389895565,0.09517991924212182,0.566009104704097,0.8801213960546281,0.7203171947433561,0.3805066233568492,0.06535086651599009,0.2843002588438309,0.49611734253666956,0.38599640054702233,0.4721642947501582,0.05771916610497904,0.34912365591397854,0.5776182795698925,0.4756276176740581,0.4930467754340539,0.029298237136395098,0.42738346820610623,0.5473815782691615,0.493903721520101,0.501313025210084,0.03429567647869403,0.4196428571428571,0.6160714285714285,0.5024675568713697,0.47160745486313344,0.054603809652676645,0.3267326732673267,0.5841584158415841,0.4747118292235464,0.4474789915966381,0.0406252195477863,0.31868131868131866,0.5164835164835165,0.44929231650558504,0.572076978939724,0.06253791263412399,0.382716049382716,0.728395061728395,0.5754350925890891,0.5584073251942288,0.047806387558403114,0.4056603773584906,0.7358490566037735,0.5604200049542899,0.38037752414398573,0.02102759506182932,0.31343283582089554,0.47761194029850745,0.3809497582079138,0.5947478991596642,0.028773741261779878,0.5285714285714286,0.7285714285714285,0.5954333013247837,0.5659169550173014,0.03208338216546609,0.48235294117647054,0.6823529411764705,0.5668123198944459,0.8747461618885437,0.012597815487638176,0.8574825976175389,0.8898081772779786,0.874835538142685,0.7984224982351547,0.08255955495462419,0.6724442563186813,0.9118064930384807,0.802617174828761,-0.5373700588604269,0.7920752162307971,1.0,-0.5531027073190558,0.5437684309031368,-0.5657502373929416
15,0.33552631578947406,0.04733240316945851,0.28508771929824617,0.42105263157894735,0.33879982077851956,0.5379128395544266,0.03381596980100349,0.4418604651162793,0.5747508305647843,0.5389591137584018,0.6980860183269288,0.03825940737904326,0.6457286432160805,0.7437185929648242,0.6991182625471445,0.7691176470588232,0.010872734846291114,0.74375,0.78125,0.769193365093857,0.5838524274338558,0.026920990852836345,0.5316593886462884,0.6681222707423582,0.5844636334550048,0.6142736141129739,0.02305040191360857,0.5561072492552135,0.6732869910625621,0.6146995855531859,0.5677050789966971,0.04603740590862617,0.471927162367223,0.6464339908952959,0.5695413340450476,0.44135461604831744,0.03935252910911374,0.3917169974115617,0.5379672131147542,0.44307984021862,0.5027625711574952,0.06275771401493628,0.413978494623656,0.6676720430107528,0.5066071594999655,0.4987235345661383,0.03675354640579653,0.4026854285861554,0.555972200745666,0.5000561189075456,0.5024947478991597,0.011833590270612326,0.4732142857142857,0.5267857142857143,0.5026320186811435,0.4791788002329646,0.05556626500596373,0.3168316831683168,0.6831683168316831,0.48234274781823655,0.44489334195216484,0.03644606264516511,0.3516483516483516,0.5274725274725275,0.44636181192446445,0.5697167755991285,0.027914285377954807,0.4938271604938271,0.6419753086419753,0.5703901759286648,0.5606270810210878,0.025003316755301253,0.4811320754716981,0.6320754716981132,0.5611761721666093,0.37620719929762925,0.014486490843389956,0.34328358208955223,0.40298507462686567,0.3764819106771683,0.5901260504201682,0.021269108581289498,0.5428571428571428,0.6285714285714286,0.5905035798292134,0.5669550173010386,0.018546841914543113,0.5176470588235293,0.6235294117647059,0.56725383945797,0.8671803634549753,0.004279938607471055,0.8619531660428557,0.8744865431286164,0.8671907698170452,0.6520547030076388,0.0464511397218604,0.573678215436025,0.7122010706456089,0.6536828841955631,-0.4523270400683018,0.01959764110531731,1.0,0.026999909593943505,0.6775317696254249,-0.015865872617645382
16,0.7630193905817174,0.024373486522710222,0.7192982456140355,0.7982456140350878,0.7634044825082933,0.25053331001923407,0.025972526391913657,0.2026578073089701,0.29568106312292375,0.25186188833791207,0.4918540068764878,0.05625394995585195,0.41206030150753775,0.5753768844221107,0.49502682792682606,0.5691118421052628,0.03079746527851257,0.51875,0.6078125,0.5699357759005095,0.4192944150769938,0.02975649559485932,0.33624454148471616,0.5163755458515283,0.4203378819815544,0.5606334605132494,0.056444289663265576,0.44786494538232374,0.6266137040714995,0.5634379278007314,0.26724702499800335,0.027725234899013695,0.20333839150227595,0.3368740515933233,0.2686662791662047,0.437664120612143,0.030004769490355625,0.38266091458153584,0.5120828300258844,0.4386806263862244,0.48437334465195253,0.029207321813929585,0.403225806451613,0.5504032258064517,0.48524388197834495,0.4947328180768399,0.038150648434681814,0.39650877102554855,0.5551689775441129,0.49618616717981606,0.5036654135338345,0.014589681275987473,0.46428571428571425,0.5446428571428571,0.5038744555650733,0.4781657113079729,0.04527709462000567,0.3564356435643564,0.6039603960396039,0.4802820875896753,0.44557547715442414,0.03048772412060136,0.38461538461538464,0.5274725274725275,0.4466063400121008,0.5699805068226121,0.03527241072226385,0.44444444444444436,0.6419753086419753,0.5710593882200493,0.558093346573982,0.02630143399183294,0.4811320754716981,0.6509433962264151,0.5587062440843176,0.3767478397486251,0.01653954616586686,0.34328358208955223,0.4328358208955224,0.3771068970459221,0.5905263157894743,0.019392704054408082,0.5285714285714286,0.6285714285714286,0.5908413051788762,0.5668111455108362,0.027934302421323245,0.4941176470588235,0.6470588235294117,0.5674918378065481,0.9200383603020416,0.004465580418602784,0.9129712535748626,0.9271875203649045,0.9200490834331517,0.27131116538591116,0.027301007864561255,0.21539073964827893,0.31254218615763396,0.27266691723845016,-0.24496654689122024,-0.5520382604264488,1.0,-0.09527422691322887,0.3083804330800331,-0.3152652615297827
17,0.8273524720893154,0.003085642415269843,0.8201754385964919,0.8333333333333335,0.8273581214618523,0.2571428571428571,0.006933544116278354,0.24252491694352163,0.2691029900332226,0.25723461847165624,0.34074920054819546,0.006846717175578059,0.3291457286432161,0.3492462311557789,0.3408167291837049,0.5142329545454547,0.002243672124972239,0.5109375,0.51875,0.5142377602594976,0.4007542675664948,0.011730324983797063,0.3526200873362446,0.4213973799126638,0.4009227876652435,0.643910806174957,0.008875290994963852,0.6276067527308837,0.6653426017874876,0.6439708571845019,0.22963167333425294,0.013174093164871965,0.1836115326251897,0.2610015174506828,0.23000240553542833,0.45539283081025955,0.009146091932818793,0.4339948231233822,0.4745470232959448,0.4554829968547623,0.5005072336265884,0.010158391404188059,0.4663978494623656,0.5235215053763441,0.5006084373975594,0.5095100533711945,0.007846881999411366,0.4928869645894542,0.5240279710667836,0.5095693755753087,0.499512987012987,0.09519806608269975,0.08035714285714285,0.7142857142857142,0.5083415388593283,0.4788478847884789,0.09474426212323522,0.1683168316831683,0.6435643564356436,0.48796369058730255,0.44215784215784193,0.08039058416932661,0.27472527472527475,0.7252747252747254,0.4492757513485451,0.5690235690235689,0.09435968795731567,0.2592592592592592,0.8148148148148147,0.5766538705663489,0.557804459691252,0.07483692138996627,0.330188679245283,0.7735849056603773,0.5627117837788824,0.3777476255088194,0.03457296553043149,0.28358208955223885,0.47761194029850745,0.3792978064511512,0.58987012987013,0.08744603031720073,0.3,0.8285714285714285,0.5962000884388942,0.5662032085561498,0.09936501061044047,0.3529411764705882,0.9764705882352941,0.5746998888570282,0.9381687219888685,0.00025060850668866936,0.937672463505513,0.9385420165344143,0.9381687548522117,0.2273514455640902,0.00801126914596174,0.21052755377742705,0.24056006169632715,0.22748998509042312,0.3556587588361652,-0.2962577494455434,1.0,-0.34307319810672005,0.28394945404132454,-0.020650997720302194
18,0.5977339181286546,0.1292313340384467,0.3991228070175441,0.7763157894736845,0.61143061892961,0.3980343300110743,0.09544872681560482,0.2458471760797344,0.5514950166112959,0.4092259361558869,0.5884212730318261,0.10004981011713901,0.46482412060301515,0.7437185929648242,0.5967965672572183,0.6321875000000005,0.04800519505872303,0.5625,0.7031250000000001,0.6339923735760581,0.507623726346434,0.08522055582062248,0.33296943231441056,0.7281659388646289,0.5146686987678855,0.5595829195630582,0.03964091774723691,0.4587884806355511,0.660377358490566,0.5609735744283275,0.4188922610015174,0.13564446148584064,0.2078907435508346,0.7845220030349013,0.4401327274349358,0.43047857348288715,0.08382602920722071,0.1898188093183779,0.5970664365832614,0.4384974899670537,0.48030071684587805,0.0833699147978215,0.21874731182795704,0.6058440860215054,0.48742322483335665,0.515694816704752,0.036565723322332266,0.43892496950329024,0.5914085184612478,0.5169787751902544,0.5053571428571428,0.09226279220939156,0.0982142857142857,0.7053571428571428,0.5136412442611306,0.47887788778877904,0.14100567585675325,0.0,0.9504950495049505,0.4990400221408402,0.4519230769230767,0.10602265004525997,0.19780219780219777,0.8131868131868132,0.4640922283615105,0.5694444444444444,0.09746738167805626,0.33333333333333326,0.8395061728395061,0.5776570782442856,0.5707547169811323,0.1175314520646397,0.2169811320754717,0.9150943396226414,0.5826315091852066,0.3800995024875621,0.10638514728841061,0.0,1.0,0.3945872734370764,0.5895238095238099,0.11055950274478062,0.0,0.8285714285714285,0.5997164863046355,0.5683333333333332,0.12234605700749265,0.04705882352941171,0.9176470588235294,0.5812457289843206,0.9011246330134564,0.01562626166369762,0.8779822039843026,0.922772545960886,0.9012589802290126,0.45906212197752677,0.13908817726731215,0.25938078015873367,0.6850534283709281,0.4795021795723041,-0.7325420121554878,0.48142286874407414,1.0,-0.34846002496069833,0.78060163369457,-0.6792973482876073
19,0.583395989974937,0.06400230805230421,0.4473684210526323,0.6578947368421058,0.5868463666485725,0.34798291409587073,0.0583100358292086,0.27574750830564787,0.44518272425249183,0.35276563961271296,0.580904522613065,0.015205902063590146,0.5628140703517589,0.620603015075377,0.5811006631512072,0.6940401785714285,0.02635628722575221,0.6625,0.75625,0.6945332963371749,0.4879756706175921,0.034511419072315766,0.4268558951965066,0.5698689956331878,0.48917714412249436,0.5837281883955171,0.024675965670457056,0.5441906653426017,0.6474677259185699,0.584242075334335,0.37184045089963147,0.048698717871219606,0.30197268588770854,0.479514415781487,0.3749706742477267,0.4297855787008505,0.031398895169255515,0.32571527178602244,0.4754098360655738,0.4309146668719821,0.46796244239631346,0.027612947577952466,0.4082634408602151,0.5241935483870969,0.4687647916271726,0.5318457443283481,0.02411838160323739,0.48859165335120186,0.5774487569369277,0.5323845247034762,0.5022959183673471,0.02644651141349538,0.4464285714285714,0.6696428571428571,0.5029817252040205,0.4763790664780765,0.033567124888328255,0.36633663366336633,0.5742574257425742,0.47754337017328585,0.4455259026687593,0.044458259920723456,0.34065934065934067,0.5494505494505495,0.44770708122936564,0.5721340388007055,0.06184943274878313,0.3580246913580246,0.7037037037037036,0.5754199012854052,0.5586253369272236,0.05453547013747939,0.330188679245283,0.7358490566037735,0.5612431711542408,0.3765458422174838,0.018354054383137516,0.34328358208955223,0.417910447761194,0.3769865119022894,0.5908163265306126,0.023710233668845563,0.5142857142857142,0.6428571428571428,0.5912851053440713,0.5662184873949584,0.02956796907858637,0.4941176470588235,0.6235294117647059,0.5669789685395646,0.8901880217381569,0.006282602946839192,0.8751517197134278,0.8974636477205895,0.8902098748458296,0.4091467868289953,0.06228350524462672,0.33426425500525825,0.5218268166845889,0.41379331864449764,-0.7097394087805884,-0.8953061367100861,1.0,0.5534871677747231,0.8162775240663053,0.7432434456821126
20,0.8614825999424809,0.035209120864969655,0.7938596491228069,0.9166666666666674,0.8621959121141174,0.23171395893469857,0.05223970699547782,0.13953488372093015,0.32558139534883723,0.23748258253263474,0.3271686300354231,0.09714921051779948,0.2412060301507538,0.5075376884422111,0.3411743266733202,0.4630122950819671,0.0281124014934024,0.3953125,0.4921875,0.46385796811912405,0.381738134440547,0.04293692993229058,0.3100436681222708,0.5109170305676856,0.38412559394952767,0.6278102463086266,0.08218701499041058,0.45580933465739815,0.6991062562065541,0.633123245794337,0.2160501505012563,0.05196757649310645,0.12139605462822467,0.3368740515933233,0.22216246360456532,0.43242840775682834,0.04767583140296511,0.30716134598792066,0.5232924935289043,0.43502721950620454,0.48078922087079146,0.034232259255153115,0.4143172043010753,0.5782956989247312,0.4819963870935896,0.4965552308018601,0.042960418365974105,0.39892273594144634,0.6268448361768294,0.49839499087985306,0.5031469555035131,0.015819475399680396,0.42857142857142855,0.5535714285714285,0.5033935471947473,0.4775198831358547,0.029436848524312005,0.3168316831683168,0.5841584158415841,0.47841892118955825,0.4461358313817327,0.040914179180878106,0.3626373626373626,0.6373626373626373,0.4479926662733057,0.5690143695608177,0.044300350777445055,0.45679012345679004,0.691358024691358,0.5707221632347451,0.5583049798948345,0.041077240421726335,0.4339622641509434,0.7075471698113207,0.5598017145408859,0.3771715194519205,0.038475162238808494,0.029850746268656747,0.47761194029850745,0.3791128582309555,0.5880562060889933,0.028355777402834348,0.4857142857142857,0.6428571428571428,0.5887338626724388,0.5688524590163936,0.032402079840617465,0.48235294117647054,0.7411764705882352,0.5697669779937178,0.948497950799355,0.0034706508723394065,0.9418151812191986,0.9544007955664562,0.9485042484644561,0.19995554022525028,0.06658203863053386,0.09669306306727754,0.325846012523617,0.21066335346572965,-0.5194139776900983,-0.0016541602775889395,1.0,-0.6712288632882317,0.864177043694649,-0.7678271528816256
21,0.8140196983687296,0.06344264056530564,0.7236842105263164,0.929824561403509,0.8164666136663162,0.37110217403975054,0.07975128178231236,0.18936877076411973,0.4784053156146181,0.3795013816939748,0.33921801992418255,0.11667261371910487,0.19095477386934676,0.484924623115578,0.3585553736163908,0.38481359649122804,0.016139896696695064,0.359375,0.40937500000000004,0.3851489520366559,0.45256837508618736,0.054749162750993036,0.34170305676855905,0.6048034934497817,0.45583912880136257,0.596630603320615,0.07983180303672084,0.4726911618669315,0.7368421052631579,0.6019013947995897,0.316734552618268,0.08622209952781325,0.14719271623672237,0.46130500758725346,0.3281612630187471,0.41677610765481415,0.048527459667437406,0.3101846419327006,0.5030198446937015,0.4195671354030524,0.4648446519524618,0.03338414397448129,0.38037634408602156,0.5416666666666667,0.46603141009222576,0.5051631148210545,0.03285224247308304,0.41234987887222313,0.5852361562118791,0.5062208758357968,0.49976503759398494,0.02699456417177896,0.39285714285714285,0.5982142857142857,0.5004871697994927,0.47741879451103025,0.05048119638805272,0.3069306930693069,0.6138613861386139,0.4800569784758244,0.4418739155581258,0.03905020906971602,0.32967032967032966,0.5714285714285714,0.44358099553306796,0.5737491877842752,0.08100117878370028,0.22222222222222215,0.8271604938271604,0.5793891327430641,0.5609069844422379,0.047810646909971215,0.37735849056603776,0.7547169811320754,0.5629231313140708,0.377716679759099,0.0500022056570367,0.2537313432835821,0.6716417910447761,0.3809831741421339,0.5952380952380956,0.03980568054890193,0.4,0.7999999999999999,0.5965559346550969,0.5646026831785347,0.04835527070678254,0.44705882352941173,0.7176470588235293,0.5666514901142589,0.9622852941346509,0.00845967984001789,0.9509861419375284,0.9739053540132052,0.962322152772798,0.33468755786622617,0.09764097813411109,0.1380562140764583,0.4689509737514438,0.34851957265324535,-0.735918759721922,0.8618207828845053,1.0,-0.5922268627176228,0.6853023830413565,-0.780108345491196
22,0.6925964912280693,0.08196122649979783,0.5614035087719302,0.8157894736842102,0.6973907091219321,0.37910963455149516,0.07917319505891707,0.24916943521594692,0.48504983388704315,0.38722391799458716,0.5250854271356789,0.09298726580473952,0.4045226130653267,0.7085427135678393,0.5331905516222925,0.5512249999999996,0.015444501807721495,0.521875,0.575,0.5514395932466218,0.4835283842794761,0.05550603960147011,0.37227074235807855,0.5840611353711791,0.4866785093598265,0.5515312810327705,0.047855476522299156,0.43396226415094336,0.6335650446871897,0.5535870116050051,0.37698330804248853,0.09817428435675495,0.212443095599393,0.5751138088012139,0.3894579555365983,0.41692504572907685,0.05034141896377849,0.31233822260569455,0.5250181190681622,0.4199291346784278,0.47133608602150534,0.03986368655043414,0.3733172043010753,0.5893817204301076,0.473005398048923,0.5067760768345275,0.016970755523467114,0.4571800422658626,0.5342250399463946,0.5070578808602503,0.5008571428571427,0.012129550176810803,0.46428571428571425,0.5267857142857143,0.5010028208808933,0.47730693069306934,0.02197067189935827,0.4059405940594059,0.5544554455445545,0.4778082825024679,0.44606593406593387,0.03013009152142325,0.38461538461538464,0.5164835164835165,0.44707424145200203,0.5679012345679011,0.039509906235382204,0.40740740740740733,0.6543209876543209,0.569262994276766,0.5599245283018868,0.042160282330309475,0.4056603773584906,0.7169811320754716,0.5614968805657006,0.3768358208955223,0.017233224465179782,0.34328358208955223,0.417910447761194,0.37722651558879816,0.5886857142857147,0.021335897914754716,0.5285714285714286,0.6428571428571428,0.589069137690638,0.5657411764705883,0.026894808585970455,0.4941176470588235,0.6588235294117647,0.5663749842969498,0.9206060706378544,0.00876600651332857,0.9053221679340364,0.9337494618279742,0.9206474707631045,0.4064702598624486,0.11045033128487661,0.23810122515331622,0.5775847201983612,0.4210935212374299,-0.8822992370296197,0.9263365517647828,1.0,-0.7621734523376701,0.8931938725032937,-0.8892211969914726
23,0.5290100250626574,0.04136223616695552,0.4605263157894739,0.5833333333333335,0.5306015460809678,0.5157570004746088,0.01799731364232405,0.4883720930232559,0.5448504983388706,0.5160664294903604,0.5573941134242641,0.0784665678989831,0.47487437185929654,0.7085427135678393,0.5628119071079336,0.64953125,0.012579992013070333,0.628125,0.6671875,0.6496513219587629,0.5538989394884593,0.030078478087929312,0.4901746724890831,0.6168122270742359,0.5547033671366645,0.6144417647893317,0.0492668666701881,0.5253227408142999,0.7110228401191658,0.6163856194284475,0.492998048991979,0.05001922289127927,0.3945371775417299,0.6176024279210924,0.4954929436594218,0.4101994330087513,0.04578220238575849,0.31536151855047456,0.5047454702329595,0.41271011847930483,0.47353079877112125,0.03577141412888503,0.3901236559139786,0.5651881720430109,0.4748607496291183,0.49847240323891007,0.030753223044557472,0.4365067092761542,0.5565091146504476,0.49940663456832995,0.5043367346938775,0.012040778728529272,0.4732142857142857,0.5535714285714285,0.5044783951431228,0.48415841584158414,0.023668322016444886,0.43564356435643564,0.5544554455445545,0.48472833462738096,0.4480376766091045,0.0289941065663598,0.38461538461538464,0.5274725274725275,0.4489614777169494,0.57336860670194,0.030432530774806458,0.4938271604938271,0.7160493827160492,0.5741641468470056,0.5587601078167116,0.027827184228634724,0.46226415094339623,0.6792452830188679,0.5594427120764088,0.3754797441364603,0.015997753264815603,0.3283582089552239,0.40298507462686567,0.37581552688846365,0.5916326530612247,0.017110538400611795,0.5428571428571428,0.6285714285714286,0.5918764940902448,0.5647058823529416,0.02052419708208581,0.5176470588235293,0.6235294117647059,0.5650734098128388,0.8994981657418822,0.006554900207770048,0.8897732646382103,0.9076441381653787,0.8995217079534579,0.5545952940339067,0.04566198505381195,0.4964580547604781,0.6487647034898124,0.5564451195654384,-0.6283336189695069,0.7623194408718659,1.0,-0.519724914686136,0.64647223933662,-0.7929860378928854
24,0.8897660818713452,0.02594521924889065,0.8464912280701751,0.9210526315789473,0.8901400762560936,0.23340716131413805,0.043077412878231254,0.17940199335548168,0.3089700996677741,0.2373056003756955,0.3494416527079847,0.04400065510262721,0.2989949748743719,0.41457286432160806,0.3521704339451103,0.3799305555555555,0.016374092533298256,0.3375,0.40625,0.3802793170039259,0.3812105773896169,0.03782368504375376,0.28711790393013104,0.45633187772925765,0.3830616654826533,0.5732980249365554,0.044714491891994494,0.4528301886792453,0.6405163853028798,0.5750198220789449,0.2185466194570898,0.047431760893038764,0.09559939301972675,0.3490136570561456,0.22357862006802148,0.44149653916211273,0.029585990853139246,0.3753235547886109,0.5086315789473684,0.4424757609728457,0.48858267622461177,0.04139849042602237,0.40188172043010756,0.5957688172043012,0.4903140054140203,0.495569291006382,0.024285057165558472,0.442683366836761,0.5473815782691615,0.4961573674316972,0.5040674603174603,0.014175001819320805,0.4732142857142857,0.5446428571428571,0.5042645165628838,0.4785478547854785,0.046794176942797985,0.36633663366336633,0.6138613861386139,0.48080496500258824,0.4471306471306467,0.048298988162013466,0.34065934065934067,0.5604395604395604,0.4497028885241605,0.5673525377229081,0.04615291473901352,0.4691358024691357,0.6666666666666665,0.569205873051012,0.5575471698113209,0.04289630100171158,0.4528301886792453,0.660377358490566,0.5591766212302421,0.37512437810945254,0.01792720999954804,0.34328358208955223,0.417910447761194,0.3755477505824003,0.5900000000000004,0.023208574430174378,0.5285714285714286,0.6714285714285714,0.5904512283510168,0.5653594771241834,0.023153716497525692,0.5058823529411764,0.6470588235294117,0.5658281332306199,0.9637067385517388,0.0024640232753884743,0.9596425532987646,0.9699616630332244,0.9637098535765896,0.20032737393807748,0.047268692316983996,0.14074981742679837,0.2819489715424234,0.2057682194642042,-0.39884188655724073,-0.06822752971664238,1.0,-0.4799724374181467,0.635300031060115,-0.7519275620410175
25,0.6459176788124158,0.08208199679303865,0.4649122807017547,0.7543859649122813,0.6510127000090522,0.653654485049834,0.07996967330786987,0.5249169435215947,0.7973421926910301,0.6584347734186479,0.3360552763819096,0.10679029499958796,0.2160804020100503,0.5552763819095479,0.35230385320676555,0.35667067307692324,0.034702257096294195,0.321875,0.4453125,0.35832256012055136,0.576503191132012,0.05569168956092497,0.5,0.7314410480349345,0.5791354316604213,0.5983882056374609,0.05908409497891946,0.477656405163853,0.6961271102284011,0.6012422487241667,0.5389868098517566,0.10059304183813882,0.38543247344461307,0.7814871016691957,0.5481159967329305,0.3342819406650296,0.09585871473697896,0.14408973252804141,0.457718723037101,0.3475005029656231,0.42909935897435914,0.0389823422601737,0.3360215053763441,0.4956290322580646,0.4308325189222708,0.5003912037312378,0.054291915860289544,0.3479202102984382,0.6437554765218287,0.5032715808097719,0.5020604395604394,0.016923730143791258,0.4375,0.5446428571428571,0.5023401135467673,0.48457730388423464,0.05163030258393565,0.297029702970297,0.6534653465346535,0.48726747105780266,0.44442096365173245,0.041427686190663796,0.3626373626373626,0.5604395604395604,0.44631070035048565,0.5695631528964864,0.039950662029407676,0.4691358024691357,0.6790123456790123,0.5709356769032415,0.559143686502177,0.03193017212121664,0.4716981132075472,0.660377358490566,0.5600371341147654,0.3777267508610791,0.015510469507060818,0.34328358208955223,0.417910447761194,0.37803894844915753,0.5892857142857146,0.020375624319921348,0.5428571428571428,0.6285714285714286,0.5896311009138129,0.5683257918552042,0.027619040163309475,0.5058823529411764,0.6705882352941176,0.5689836092698806,0.9666043218887381,0.012446185772654276,0.9365163297548986,0.976283258680638,0.9666829074950664,0.6107835972294826,0.10291837680058095,0.4605060054636171,0.8179507918349521,0.6192294396444712,-0.7208473070526485,0.7345733921204415,1.0,-0.5804029766616893,0.8103587344391958,-0.834478727353432
26,0.29665462676298626,0.08707158210135715,0.20175438596491224,0.5000000000000009,0.3090487015767714,0.8779558334961892,0.050747470422669784,0.7541528239202658,0.9534883720930233,0.8794069042420906,0.5399793083062373,0.08431070046346105,0.35929648241206036,0.6331658291457287,0.546457920111489,0.6009191176470589,0.029853020970999476,0.5390625,0.6484375,0.601652932787552,0.6735272711704768,0.03513301335193925,0.5949781659388647,0.7434497816593888,0.6744339940842884,0.6661214634811226,0.038547239025849854,0.5680238331678252,0.7348560079443892,0.6672249442289251,0.812074146805915,0.08346012767770002,0.6358118361153262,0.9529590288315629,0.8163098202863572,0.4142936608638279,0.07566728402983347,0.28472821397756687,0.545297670405522,0.42108032794250094,0.463284577271769,0.048010667615212985,0.3111559139784947,0.5756075268817205,0.4657413718644952,0.5118451208464762,0.028463052504242227,0.43355583045547486,0.5715427039843307,0.5126281600640521,0.5018382352941178,0.01620437679410626,0.42857142857142855,0.5446428571428571,0.5020972235521318,0.4751504562220928,0.053172545409483116,0.3564356435643564,0.6435643564356436,0.47808739453568794,0.44430079724197324,0.03063643116811186,0.3516483516483516,0.5164835164835165,0.4453454698016574,0.5674170902929073,0.03849243177402154,0.4320987654320987,0.7037037037037036,0.568708445084394,0.5589160192378838,0.03231240375052096,0.4339622641509434,0.6320754716981132,0.5598401305786402,0.37591454492244664,0.01715699982299729,0.3283582089552239,0.417910447761194,0.3763020353637651,0.5921568627450986,0.016285422834235664,0.5571428571428572,0.6285714285714286,0.5923785655693313,0.5675893886966554,0.019123718368222277,0.5294117647058822,0.6117647058823529,0.5679083071309712,0.9088967506575001,0.010778493235671807,0.895172619138761,0.9326190010847114,0.9089600322855899,0.9042918859580562,0.0820513510365449,0.7147921000904384,0.9999999999999999,0.9079703932715039,-0.6943129291766111,0.3874502267252152,1.0,-0.28959476583232147,0.6897812681054015,-0.4894388322570704
27,0.670149638802889,0.016049165350379473,0.6491228070175441,0.7017543859649127,0.6703389636728738,0.4478209888606608,0.015300693631172124,0.41860465116279066,0.46843853820598,0.4480784601803504,0.4422480047295299,0.01170870403938791,0.4271356783919598,0.4623115577889448,0.4424006954707119,0.5684972426470587,0.008573523067401067,0.553125,0.58125,0.568560937134125,0.5071281787824301,0.02535729371677948,0.4606986899563319,0.5775109170305679,0.5077524261783977,0.6277527892984403,0.014092232988688596,0.5968222442899702,0.660377358490566,0.6279086199808432,0.39621083638311166,0.02644224592175735,0.33535660091047037,0.4476479514415782,0.39707925782652675,0.4528557072527026,0.02800502830980218,0.41112683347713547,0.5267437446074202,0.4537080996068737,0.4918809297912714,0.03727562380022001,0.43145161290322587,0.5977795698924732,0.49327060302469794,0.5125728813250984,0.018528320996250583,0.4759720289332165,0.5395941789942099,0.5129027284377313,0.5019695378151259,0.026622887661803527,0.3839285714285714,0.5714285714285714,0.5026646713602753,0.47757716948165396,0.05149303821108189,0.297029702970297,0.594059405940594,0.4803045832200602,0.45103425985778867,0.0472915923168223,0.3516483516483516,0.6153846153846154,0.45347051573539643,0.5644517066085692,0.05327594129273398,0.419753086419753,0.7407407407407407,0.5669235529830147,0.5582685904550498,0.04927547885350821,0.4339622641509434,0.6981132075471698,0.5604071599754332,0.37796312554872674,0.015351713566968338,0.34328358208955223,0.417910447761194,0.37827018594329104,0.5878151260504207,0.020981796772699454,0.5285714285714286,0.6285714285714286,0.5881839713505131,0.5674740484429069,0.021808692192370287,0.5176470588235293,0.6352941176470588,0.5678868023765422,0.9221424577158652,0.002048587883431178,0.9194827468086493,0.9260107091676762,0.9221446997723377,0.4393371563322454,0.018259512142234913,0.40602010437354197,0.4660311548322652,0.43971086367375783,-0.45375964592487883,-0.2904395908563146,1.0,-0.0409022048229428,0.6697147431797421,-0.055711865006324836
28,0.9617794486215541,0.03086154755998217,0.9122807017543857,1.0000000000000004,0.9622673935516097,0.11248220218319889,0.06378538351901647,0.03986710963455142,0.21594684385382068,0.1290840751467727,0.2892318736539843,0.043911377118670235,0.23869346733668345,0.35929648241206036,0.29249912809172157,0.3344419642857143,0.021303739915819492,0.2890625,0.3671875,0.33511012107629307,0.30708047411104183,0.03986558767689922,0.24126637554585162,0.3766375545851529,0.30962070162412886,0.5947368421052633,0.03578257843276652,0.5213505461767627,0.6593843098311817,0.5957969561429626,0.1346195534359418,0.053553571167132254,0.0,0.24279210925644912,0.14473920663723985,0.44002839886601763,0.04022900448738855,0.36108369283865405,0.5414184641932701,0.44183735129477175,0.4764685867895546,0.04976853766099385,0.35652150537634414,0.6320591397849463,0.4790238377654755,0.49767470258037777,0.0343211474179764,0.4233544662646256,0.5570460285552291,0.4988398771326279,0.5051020408163264,0.021420559480217007,0.4732142857142857,0.5892857142857142,0.5055495595318593,0.4615275813295614,0.11251416640993163,0.1683168316831683,0.7524752475247525,0.47485397425066617,0.44835164835164787,0.07529271264694883,0.23076923076923075,0.6263736263736264,0.45454065555142886,0.5641975308641973,0.05656915165038537,0.4320987654320987,0.728395061728395,0.5669860734457574,0.5583557951482478,0.04105239907706057,0.44339622641509435,0.6886792452830188,0.5598414219570579,0.37611940298507446,0.019781169386935735,0.3283582089552239,0.417910447761194,0.37663179637467714,0.5873469387755103,0.0329504353064522,0.5,0.7,0.5882572967930961,0.5653781512605045,0.06443439019288899,0.39999999999999997,0.776470588235294,0.5689858814306594,0.975604747914969,0.003675467152887778,0.9692907623782752,0.9826957760347572,0.9756115724131543,0.07394341356484718,0.06437130034786362,0.0,0.17867697982961583,0.09773483265289867,-0.08502186732027575,-0.20655707017467992,1.0,-0.7378026447099143,0.710764969078267,-0.9182368328975314
29,0.7192139001349527,0.0358479979480754,0.679824561403509,0.8201754385964919,0.7200895777938687,0.5763480705341172,0.05481773128642666,0.41528239202657813,0.6279069767441862,0.5788992087785383,0.2559914959412449,0.020086049132567674,0.19849246231155782,0.2788944723618091,0.25676319191478003,0.33828125,0.006360090456333543,0.3296875,0.3546875,0.33833988377536134,0.5403720188108836,0.04236457182075565,0.44104803493449796,0.6310043668122272,0.5419983035975855,0.6401344435108087,0.021909073594588935,0.5998013902681232,0.6911618669314796,0.6405020549233965,0.46320182094081946,0.05065798791888403,0.3186646433990896,0.5417298937784522,0.4659107297031227,0.43095798765514043,0.03219039609385318,0.36669542709232095,0.4922312338222606,0.4321354896163617,0.4496353391232424,0.06149949197468724,0.31619892473118283,0.5453602150537635,0.45374154683736534,0.5091054816101207,0.022809078184119192,0.4633524045152312,0.5540951497345498,0.5096063584449777,0.5037774725274726,0.015650230114930937,0.4732142857142857,0.5357142857142857,0.5040158344161711,0.4826732673267327,0.054684398944948004,0.3465346534653465,0.6435643564356436,0.4857019241315244,0.44442096365173256,0.015141593589746991,0.4175824175824176,0.4725274725274725,0.44467387127234365,0.570750237416904,0.019345743139787867,0.5308641975308641,0.6172839506172838,0.5710717065519255,0.5602322206095791,0.02960696983209288,0.4811320754716981,0.6792452830188679,0.5609989808414889,0.37485648679678507,0.016095172000605434,0.3283582089552239,0.40298507462686567,0.37519522709765746,0.5890109890109892,0.01590673714618216,0.5571428571428572,0.6285714285714286,0.5892216082346905,0.5665158371040729,0.01869399132903702,0.5294117647058822,0.6,0.5668182588050358,0.9752083659874503,0.0013643190432215792,0.971977866860884,0.9788516200960746,0.9752093019771993,0.5160901876808878,0.05621927103406064,0.3514892933604542,0.567377080398879,0.519084682265912,-0.5096434785052375,0.13906893441942442,1.0,-0.3304652924173738,0.6623959500270244,-0.5840631637612292
30,0.3211152882205517,0.04090996685181986,0.2631578947368425,0.3903508771929829,0.32364920128630864,0.93640246796393,0.03454597380178351,0.8803986710963457,0.9867109634551495,0.9370243280995569,0.47595118449389817,0.026206338069900574,0.407035175879397,0.4974874371859297,0.47665495954432446,0.5311011904761904,0.015285213694762005,0.50625,0.553125,0.5313158660149033,0.6862913287585777,0.04413744326872944,0.5895196506550219,0.802401746724891,0.6876754453688666,0.6530004255922827,0.055421022684617,0.5511420059582919,0.7497517378351539,0.6552922362355966,0.8455813281306451,0.06852199535977509,0.6661608497723823,0.9696509863429438,0.8482872475375827,0.4374355561033732,0.07412048388829015,0.2946540120793788,0.5319206212251941,0.44352328689147763,0.4945432667690731,0.07426666766600099,0.3084677419354839,0.5870268817204302,0.49995725647425354,0.4945274666745208,0.035066580380664306,0.4373142277889456,0.5710057900795492,0.49573965205095194,0.5004251700680273,0.012464543565126926,0.4821428571428571,0.5357142857142857,0.5005766839565083,0.4733616218764733,0.03296417915701673,0.38613861386138615,0.5643564356435643,0.47448075815668006,0.4427001569858711,0.02945520093975808,0.37362637362637363,0.5274725274725275,0.4436557004072526,0.5699588477366254,0.03023036826226237,0.4938271604938271,0.6666666666666665,0.5707409257675738,0.5577268643306378,0.033350994205445565,0.4528301886792453,0.6320754716981132,0.5586994370353041,0.376687988628287,0.01574368443125851,0.3283582089552239,0.40298507462686567,0.37700902225546606,0.5894557823129253,0.017865022319997655,0.5571428571428572,0.6285714285714286,0.5897200007633212,0.5663865546218491,0.021673028613298933,0.4941176470588235,0.6352941176470588,0.5667912010715473,0.9259764845913093,0.003723733620847243,0.921502287914004,0.9333459873297687,0.925983793627474,0.9379656732715076,0.03775287042529752,0.8750496150454988,0.9969156423055857,0.9387070619961108,-0.14616029973881142,-0.7125856610680456,1.0,0.46224615117685963,0.1701038733154952,0.6148521469583114
31,0.5500000000000003,0.07452027374366262,0.47368421052631593,0.6710526315789478,0.554948498743181,0.6471760797342194,0.040876108938345646,0.5714285714285715,0.6877076411960134,0.6484458566301672,0.47464244298415154,0.0854106489468553,0.3668341708542714,0.6231155778894473,0.4821495589441598,0.5288701923076922,0.042283336324421626,0.45625000000000004,0.575,0.5305318604834027,0.5890829694323146,0.03575265008287307,0.5174672489082971,0.6462882096069871,0.5901502617536846,0.6150943396226413,0.03081592560295722,0.5491559086395233,0.6762661370407149,0.6158539261452902,0.569861094899031,0.06812178883306028,0.4476479514415782,0.6661608497723823,0.5738561248988246,0.380507227716201,0.035669673901618786,0.3015565142364107,0.4352855910267472,0.3821498419991286,0.4644131513647643,0.022389438175142305,0.414983870967742,0.5137795698924732,0.46494424396432005,0.5124163570738489,0.03724027400694906,0.4432202807415425,0.5661735649365153,0.5137470438217542,0.510989010989011,0.09330743261898605,0.23214285714285715,0.7321428571428571,0.5193092562343511,0.48240670220868237,0.08865235923771815,0.2871287128712871,0.7722772277227723,0.49036165810284477,0.43533389687235824,0.08662982068590219,0.26373626373626374,0.6703296703296704,0.44373964244548997,0.5589743589743588,0.09673126311237679,0.2962962962962962,0.8271604938271604,0.5671554622615719,0.5593613933236575,0.10916427249947093,0.2169811320754717,0.8773584905660377,0.5697531665169453,0.37726750861079217,0.0945624167084089,0.20895522388059704,0.8059701492537313,0.3887611782278053,0.5843956043956047,0.10414628267327876,0.22857142857142854,0.9142857142857143,0.5934625533239669,0.5661538461538463,0.1213303508297603,0.188235294117647,0.8588235294117647,0.5788132287646159,0.9268312460078433,0.012891435333632136,0.9131790422620113,0.9472223429042693,0.9269195169624772,0.6455562015528422,0.06859589256489415,0.533828141076239,0.7331179243847675,0.6491346664021888,-0.7957634222124017,0.4389393993484348,1.0,-0.2735590216154979,0.8295982722991933,-0.44924052986698026
32,0.7972404970760243,0.013668684044061161,0.7807017543859649,0.8333333333333335,0.7973552224378722,0.45971760797342215,0.022266625597279547,0.40863787375415306,0.4883720930232559,0.46024531771125965,0.2876884422110553,0.03668612654013525,0.221105527638191,0.3316582914572865,0.28996977888192377,0.2378255208333334,0.023814473512112997,0.2078125,0.275,0.23899015108934582,0.4831013464337699,0.02514296872439325,0.4312227074235808,0.5534934497816595,0.48374157317463934,0.5609690499834492,0.04950822710280101,0.4667328699106256,0.6246276067527309,0.563104142894888,0.36968892261001507,0.020904020612756438,0.3156297420333838,0.40364188163884673,0.370267165528323,0.42781995973540393,0.023696587148894544,0.37877480586712686,0.4801518550474547,0.4284620726335712,0.4834229390681004,0.045177391786173665,0.403225806451613,0.5833333333333334,0.48548554456406073,0.4879853880670528,0.037494188776380694,0.42416198477741696,0.5546277683280931,0.4893937733188728,0.5031622023809524,0.07338435616551416,0.2589285714285714,0.6428571428571428,0.5083751298404614,0.48968646864686455,0.1172205475611818,0.297029702970297,0.8613861386138614,0.5032367540866431,0.45009157509157505,0.08613943270677016,0.27472527472527475,0.7362637362637363,0.4580915241119717,0.5684156378600823,0.0735890932663447,0.33333333333333326,0.691358024691358,0.5730609671955958,0.5528694968553457,0.0414537226652735,0.4716981132075472,0.6698113207547169,0.5543891155534779,0.3768656716417909,0.03221798134799413,0.28358208955223885,0.47761194029850745,0.3782117235347331,0.5931547619047619,0.04439877550635863,0.4857142857142857,0.7,0.5947795853104249,0.5659313725490198,0.0658054075670954,0.3294117647058823,0.6823529411764705,0.5696652125947307,0.9925315935145419,0.002729582714255665,0.9878052692692479,0.9962020609721327,0.9925352686554885,0.39880049605610673,0.021865066843653483,0.34583746002201277,0.4267796542045107,0.3993869762257602,-0.31301574624915457,-0.683251631391052,1.0,-0.10268392056006244,0.06232551266911766,-0.31283119079633953
33,0.5280536246276072,0.027730469403555922,0.48684210526315796,0.5833333333333335,0.5287675296188461,0.8020435027894437,0.03635521017249483,0.7275747508305649,0.8538205980066448,0.8028515080093854,0.40637148004171825,0.010219759925144248,0.3844221105527639,0.4195979899497488,0.40649754323031523,0.11745283018867926,0.012581375181250219,0.09062500000000001,0.140625,0.11811211495064007,0.5949163714262176,0.027457024801030155,0.5251091703056768,0.6462882096069871,0.5955377006504248,0.4101853066271946,0.018259485962768357,0.3763654419066534,0.4667328699106256,0.4105838572908992,0.6858018152145903,0.04789031959475147,0.6039453717754173,0.8148710166919574,0.6874404259307265,0.47609292330734043,0.02593607500016152,0.4335599654874892,0.544434857635893,0.4767855487895243,0.5183667072428486,0.02764914235751135,0.46740322580645166,0.5729193548387097,0.5190896783725486,0.4964100923281204,0.023027736111285335,0.42442829407418864,0.5457708365548167,0.49693384989974493,0.5028638814016173,0.016774676427889417,0.45535714285714285,0.5446428571428571,0.5031383147273031,0.4791705585652905,0.0402339282738285,0.3465346534653465,0.5742574257425742,0.48082496853750306,0.44785403275969277,0.028745298096856005,0.4065934065934066,0.5164835164835165,0.44875821597340554,0.5683671092476121,0.035745301326986986,0.40740740740740733,0.6419753086419753,0.5694688660436243,0.5624777500889996,0.038331046935973875,0.49056603773584906,0.7075471698113207,0.563757719632098,0.37848493382145865,0.02132861402500674,0.2985074626865672,0.4328358208955224,0.379074097905326,0.5894878706199462,0.022613909008862607,0.5428571428571428,0.6428571428571428,0.5899132899349654,0.5695893451720316,0.022302152620781536,0.5058823529411764,0.6235294117647059,0.5700175642059612,0.07930278260663674,0.2653167584105039,0.0,0.999791264760487,0.2745063644897475,0.7478795643876541,0.04173795794596684,0.6618017954483565,0.8079726650093594,0.7490213821778707,-0.004626557015156145,0.16886573496502413,1.0,-0.09181113499543644,0.3249395710708329,-0.2520531408809933
34,0.5358187134502924,0.07488912745793504,0.3640350877192984,0.6096491228070184,0.5409188791450462,0.8318106312292363,0.0774987181598637,0.7541528239202658,1.0,0.8353381659383878,0.21037479061976572,0.06323867944862643,0.15075376884422112,0.36180904522613067,0.2194843226436295,0.3301757812500001,0.029326005021487016,0.2921875,0.38593750000000004,0.3314485542649854,0.6296169941775835,0.04648412383190699,0.5327510917030568,0.7696506550218343,0.6312949524631573,0.6893619662363452,0.03784891626516314,0.6067527308838133,0.7656405163853028,0.6903786036391336,0.693316894284269,0.10099509007541312,0.5477996965098634,0.9999999999999999,0.7004825650564679,0.3688166522864538,0.06751963678087997,0.24676445211389128,0.48964969801553065,0.3748194862108017,0.43075212813620073,0.05555183216447997,0.34912365591397854,0.5661989247311828,0.4342454492079863,0.5173476882634916,0.01872088024890276,0.47811968455234266,0.5473815782691615,0.517679244728106,0.5022321428571429,0.02183163231057938,0.42857142857142855,0.5357142857142857,0.5026965445488565,0.4768976897689769,0.04843302658646782,0.3366336633663366,0.5742574257425742,0.47929979617316687,0.44139194139194116,0.027327965064577575,0.38461538461538464,0.4945054945054945,0.44221952116427893,0.5643004115226334,0.042075494504058605,0.4814814814814814,0.6543209876543209,0.5658342685347493,0.553262578616352,0.024959127745439316,0.4811320754716981,0.6037735849056604,0.5538135612840818,0.3753109452736317,0.014762394815895292,0.34328358208955223,0.417910447761194,0.37559511947036295,0.5913690476190477,0.017117403426699082,0.5714285714285714,0.6285714285714286,0.5916115716419689,0.5683823529411768,0.0416939590116686,0.44705882352941173,0.6470588235294117,0.5698777666951673,0.9792077863777086,0.009189103120507204,0.9590407905041973,0.98923546405037,0.9792500035027937,0.7730345718395136,0.08829483162943295,0.6876590711666416,0.9723782135090623,0.7779563036302081,-0.5718995386502339,0.3441703038227604,1.0,-0.26744836854702436,0.687469839034871,-0.501431607580986
35,0.6762704174228676,0.038407306011482664,0.6447368421052633,0.7719298245614032,0.6773413950977721,0.6189139649444384,0.050687292090886585,0.4950166112956812,0.6644518272425252,0.6209504014040051,0.31528331311731067,0.05503791818282431,0.20100502512562818,0.41206030150753775,0.31996954989049997,0.32863685344827587,0.09208750148607275,0.1015625,0.42500000000000004,0.3410807538060717,0.5439504592681825,0.07290733180280501,0.27620087336244536,0.6899563318777293,0.5487312046699077,0.609629147690306,0.08107646937286274,0.4289970208540218,0.7457795431976166,0.6149046732805281,0.5014651247972373,0.06954948831128617,0.29893778452200315,0.6145675265553869,0.5061827771628872,0.5481979113980544,0.180541479518777,0.3075893011216566,0.9477963761863676,0.5766751158458557,0.5041713941416389,0.07837177743907564,0.31384408602150543,0.7143817204301076,0.5101225649603934,0.4344442193108899,0.06622528801089583,0.29583526622339057,0.5342250399463946,0.43937677614659987,0.5050800492610839,0.11778915110061848,0.23214285714285715,0.8392857142857142,0.5184022844118864,0.48446568794810496,0.12141582391321921,0.2178217821782178,0.9207920792079207,0.4991939864325732,0.4461917392951874,0.10892072248246741,0.24175824175824176,0.8461538461538463,0.4590710675260836,0.5776926351638993,0.0987318174518906,0.419753086419753,0.8271604938271604,0.5859254935749457,0.5808392973324658,0.12545610539641144,0.2641509433962264,0.9811320754716981,0.5940051831397491,0.38780236747298,0.09257748493748766,0.11940298507462688,0.5970149253731343,0.3985141128360793,0.6014778325123151,0.11339533029244762,0.22857142857142854,0.8571428571428571,0.6118924624833295,0.5726166328600407,0.11959964642677154,0.28235294117647053,0.776470588235294,0.5847625686236132,0.8528417868577649,0.31391945107015035,0.0032601875928498503,0.9998583525010621,0.9078466148943136,0.5653995913567373,0.05669227937115587,0.42712188919019567,0.6114356119324765,0.5681859716702485,0.44555456920575903,0.4187005802737653,1.0,0.6542749615864347,0.4281538113227696,0.415547646708442
36,0.782571182053495,0.019007967994558058,0.7631578947368425,0.8289473684210535,0.7827982082442381,0.44681662218833407,0.0370776768917958,0.3588039867109635,0.504983388704319,0.44832723655231727,0.26682593294340556,0.04530241953941128,0.14572864321608042,0.31658291457286436,0.2705822301886517,0.08429815573770492,0.028811678389954562,0.040624999999999994,0.13124999999999998,0.08900945716987735,0.4614861478989192,0.03787183369227946,0.33842794759825334,0.5524017467248908,0.463012124864971,0.4998127859084768,0.07037148103361883,0.3644488579940417,0.6335650446871897,0.5046620488900656,0.3574218264135922,0.057627557229045015,0.17450682852807287,0.4491654021244308,0.3619625060498178,0.4421351362819842,0.0876885598279343,0.22993615185504743,0.6005176876617774,0.45060704436516785,0.5005783536047949,0.06052932462893096,0.33400537634408606,0.6112204301075269,0.5041650770895751,0.492435816079561,0.04813398615578926,0.4040255656924901,0.5849655516038692,0.4947443096505785,0.5004391100702577,0.02083925699212767,0.4375,0.5446428571428571,0.5008657088118863,0.4776821944489531,0.034707912799212676,0.3564356435643564,0.5643564356435643,0.47892083888745146,0.4451450189155102,0.03330854555664765,0.34065934065934067,0.5164835164835165,0.4463690840734107,0.5685083991094919,0.04407864032715244,0.419753086419753,0.6790123456790123,0.5701867019989918,0.5590782554902569,0.029021339753739835,0.4811320754716981,0.6415094339622641,0.5598186552269956,0.37802789332028364,0.013271924974936991,0.35820895522388063,0.40298507462686567,0.37825698210909103,0.5885245901639347,0.019832576810212447,0.5428571428571428,0.6285714285714286,0.5888531873732978,0.5643201542912253,0.020145630476318423,0.5294117647058822,0.6117647058823529,0.5646737374329005,0.022525404551792465,0.005569510486796965,0.014829457792653877,0.030446800228146886,0.023192774343722636,0.3698485446741132,0.038724275881153285,0.28161640383208153,0.4319260742523773,0.3718372391690008,-0.5058120549407689,-0.08601732139433474,1.0,0.21508813353030312,0.02354580787487152,-0.4907850445493736
37,0.7870276653171395,0.03154899419297973,0.7412280701754388,0.8289473684210535,0.7876476013255261,0.40467671863020716,0.061075583974801784,0.3222591362126247,0.4950166112956812,0.4091720156918969,0.05160417471975261,0.015933329072956214,0.03015075376884424,0.08040201005025127,0.05396276206526658,0.018990384615384614,0.012886133967318516,0.0,0.040624999999999994,0.022879987765386387,0.45782247228753786,0.0551274664852246,0.3504366812227073,0.5513100436681223,0.4610661673366765,0.6289626460927356,0.019073336774912096,0.58987090367428,0.689175769612711,0.6292462207692038,0.3280319831913153,0.05997344987873501,0.23368740515933206,0.42943854324734443,0.333365605864655,0.4388391849737836,0.035731563178055065,0.3748886971527179,0.5116479723899914,0.4402635825215339,0.48544789081885864,0.06951446382002588,0.34744623655913986,0.64247311827957,0.4903049941522732,0.5120279452949158,0.022284142738449964,0.45395855883717334,0.5473815782691615,0.5125033171669291,0.4963942307692308,0.05302179572973631,0.3839285714285714,0.6875,0.49916378023021724,0.4653465346534654,0.1061129093200455,0.24752475247524752,0.7326732673267327,0.47706478527292273,0.4416737109044799,0.06093365107999134,0.31868131868131866,0.5604395604395604,0.44577704587145506,0.5759734093067426,0.06595931868145244,0.419753086419753,0.7530864197530863,0.5796657087966484,0.5598693759071118,0.1157062482763444,0.3679245283018868,1.0,0.5714754532464412,0.37657864523536166,0.055737229496465375,0.1492537313432836,0.4925373134328358,0.3806026428525162,0.5884615384615386,0.055511623183177275,0.4714285714285714,0.7714285714285714,0.5910239099786109,0.5680995475113123,0.07298270717300437,0.37647058823529406,0.7058823529411764,0.5726789145819966,0.04570029336904079,0.002916068425857714,0.041165519090699376,0.04946294482041186,0.045791448340259666,0.341696263530063,0.056693965848926865,0.2656531090567623,0.4256860647491577,0.3462784004594916,-0.3018837841357978,0.1014748025941177,1.0,-0.503576500461381,0.7317844547759133,-0.5006500717582262
38,0.5174966987360885,0.06253886149695186,0.4078947368421053,0.5877192982456148,0.5212215339589092,0.863680205765726,0.07882086111857058,0.7707641196013292,0.9966777408637878,0.8672308933902976,0.10733776408926343,0.0920974463774192,0.0,0.23869346733668345,0.14111035247988254,0.20932459677419352,0.03559057768966403,0.16562500000000002,0.2703125,0.2122966220192072,0.6409940367187867,0.038697402424083586,0.5676855895196506,0.7696506550218343,0.642148535801219,0.67763291369019,0.04101582991610901,0.576961271102284,0.7318768619662364,0.678859760768667,0.7171830893990567,0.09623138528640332,0.5993930197268589,0.9180576631259483,0.7235416285090835,0.4347926187759192,0.10049525688710056,0.2627230371009491,0.5974943917169975,0.4461337505850893,0.4882466181061395,0.06554879250906072,0.3995322580645162,0.6676720430107528,0.49258014963680374,0.5047227177995299,0.03545542376634659,0.4461711595622219,0.6311401474150817,0.5059531518550687,0.5026881720430106,0.035902670524216355,0.3839285714285714,0.6339285714285714,0.5039548986058521,0.4760992228255083,0.09541086686010901,0.26732673267326734,0.7326732673267327,0.48546453965115355,0.43932411674347127,0.07403595835817792,0.1758241758241758,0.6703296703296704,0.4454526503726946,0.5606000265498473,0.06772378509190764,0.34567901234567894,0.7160493827160492,0.5646322551108478,0.5525461554067761,0.041412320432497804,0.4056603773584906,0.660377358490566,0.5540792303364224,0.37971433156796663,0.05383499833007674,0.07462686567164178,0.5373134328358209,0.38347101210742396,0.5881720430107531,0.051362261250052325,0.44285714285714284,0.8999999999999999,0.590386371445281,0.5654648956356738,0.0625135809312762,0.3294117647058823,0.7058823529411764,0.5688729867492559,0.32955999005287506,0.45993568266684864,0.0004595465555342071,1.0,0.5638049189477466,0.805639129573316,0.08171365943873994,0.7101083762061123,0.9479251483309362,0.80972818416199,0.49654337384599717,-0.5409144451955725,1.0,-0.39434223620882747,0.5442791687140215,-0.4963424134196747
