,Orientation X,Orientation X,Orientation X,Orientation X,Orientation X,Orientation Y,Orientation Y,Orientation Y,Orientation Y,Orientation Y,Orientation Z,Orientation Z,Orientation Z,Orientation Z,Orientation Z,Orientation W,Orientation W,Orientation W,Orientation W,Orientation W,Accelerometer X,Accelerometer X,Accelerometer X,Accelerometer X,Accelerometer X,Accelerometer Y,Accelerometer Y,Accelerometer Y,Accelerometer Y,Accelerometer Y,Accelerometer Z,Accelerometer Z,Accelerometer Z,Accelerometer Z,Accelerometer Z,Gyroscope X,Gyroscope X,Gyroscope X,Gyroscope X,Gyroscope X,Gyroscope Y,Gyroscope Y,Gyroscope Y,Gyroscope Y,Gyroscope Y,Gyroscope Z,Gyroscope Z,Gyroscope Z,Gyroscope Z,Gyroscope Z,EMG1,EMG1,EMG1,EMG1,EMG1,EMG2,EMG2,EMG2,EMG2,EMG2,EMG3,EMG3,EMG3,EMG3,EMG3,EMG4,EMG4,EMG4,EMG4,EMG4,EMG5,EMG5,EMG5,EMG5,EMG5,EMG6,EMG6,EMG6,EMG6,EMG6,EMG7,EMG7,EMG7,EMG7,EMG7,EMG8,EMG8,EMG8,EMG8,EMG8,Roll,Roll,Roll,Roll,Roll,Yaw,Yaw,Yaw,Yaw,Yaw,Accelerometer X vs Roll,Accelerometer Y vs Roll,Accelerometer Z vs Roll,Accelerometer X vs Accelerometer Y,Accelerometer X vs Accelerometer Z,Accelerometer X vs Accelerometer Z
,mean,std,amin,amax,RMS,mean,std,amin,amax,RMS,mean,std,amin,amax,RMS,mean,std,amin,amax,RMS,mean,std,amin,amax,RMS,mean,std,amin,amax,RMS,mean,std,amin,amax,RMS,mean,std,amin,amax,RMS,mean,std,amin,amax,RMS,mean,std,amin,amax,RMS,mean,std,amin,amax,RMS,mean,std,amin,amax,RMS,mean,std,amin,amax,RMS,mean,std,amin,amax,RMS,mean,std,amin,amax,RMS,mean,std,amin,amax,RMS,mean,std,amin,amax,RMS,mean,std,amin,amax,RMS,mean,std,amin,amax,RMS,mean,std,amin,amax,RMS,corr, corr, corr, corr, corr, corr
0,0.9268417945690671,0.053704708088503944,0.7535714285714286,0.9728571428571429,0.9283921382628475,0.6338534743493414,0.15420803974328748,0.5265734265734265,1.0,0.6522919871461443,0.6127269078503277,0.13929238743795402,0.3006622516556291,1.0,0.6283177402788355,0.11905770996680097,0.11011410303543938,0.04662004662004671,0.407925407925408,0.16206927983823377,0.374599552579615,0.05540524342960935,0.0,1.0,0.37866358315207244,0.4179458286140253,0.11935771491179267,0.0,1.0,0.43460986396789525,0.6785287138440601,0.12840902264637524,0.0,0.9650283553875236,0.6905394041646163,0.4401249420334539,0.11086734748115089,0.0,1.0,0.4538366140656295,0.6100716591162373,0.05997793086387707,0.0,0.9999999999999999,0.6130047890403629,0.6075382825918746,0.10131157943804675,0.0,1.0,0.615904639827706,0.5272442737231464,0.05339421223233487,0.13145539906103287,0.9577464788732395,0.5299335922918317,0.5010774904469919,0.05730487550799885,0.0,1.0,0.5043346644583678,0.5604300918678173,0.05143962406538063,0.0,0.9559471365638768,0.5627793825670497,0.4777446178961331,0.05885745113795528,0.0,1.0,0.481346627944684,0.5201101928374651,0.07985344931832904,0.0,1.0,0.5261878179354236,0.5781188508461245,0.04763078392229561,0.2678571428571428,0.9999999999999999,0.5800722777737605,0.5698420897284541,0.054359601819860666,0.0,1.0,0.572421901339428,0.496724582980847,0.06459849722762318,0.0,1.0,0.5008959786301822,0.22992066136832084,0.0511055559056101,0.0,0.2665935740014198,0.23551665204010475,0.17497868382578252,0.28611499280618513,0.0,1.0,0.33504300370450923,-0.08475429270015075,0.6196786698405146,1.0,0.1701715504831382,0.22359971971081583,-0.7117208748873235
1,0.9285714285714287,0.03982320166273116,0.8621428571428571,1.0,0.9294174255673102,0.8611114549167649,0.026883547408779775,0.7979020979020979,0.9048951048951048,0.8615272875031954,0.6129051163335874,0.1007225736019699,0.45562913907284774,0.7509933774834437,0.6210538940976659,0.283598407492213,0.046749280396911064,0.20862470862470883,0.3554778554778557,0.28739208632825225,0.421902200238391,0.017553874160758067,0.3909957033439193,0.46217074537642444,0.4222639910940592,0.28099593968776854,0.051988441141807916,0.20224325271643884,0.41044514546091837,0.28572293846817104,0.8145078095811652,0.015392947002135865,0.7753623188405797,0.8399495904221802,0.8146519611754621,0.4273435222688369,0.05428978954815266,0.32688626023657874,0.5530009099181075,0.4307479358678509,0.6078821815476649,0.029233178457853337,0.5517723292469351,0.6893590192644483,0.6085784770449356,0.6212467505590178,0.06633881290964985,0.5083337874553339,0.7522206565825632,0.6247474831549975,0.5277327682911627,0.03421711450537227,0.43661971830985913,0.676056338028169,0.5288310925945062,0.5015343990864973,0.048910257980699264,0.342741935483871,0.7258064516129032,0.5038926440952206,0.5607578651904398,0.024553589532988036,0.5110132158590309,0.6784140969162996,0.5612904122837296,0.47775319567354985,0.01444089344716279,0.4305555555555555,0.5277777777777778,0.47796946544564317,0.5222311611692142,0.021940234833375306,0.44848484848484843,0.6181818181818182,0.5226877649750677,0.5785924989464811,0.008348477342680478,0.5595238095238094,0.5952380952380951,0.5786521927054372,0.5686630847029076,0.011085823094035184,0.53125,0.6026785714285714,0.5687701748570639,0.496411399902446,0.03243365739982573,0.38976377952755903,0.6535433070866141,0.49746046160777985,0.14539211768467603,0.027678261007500954,0.0919851681386174,0.16976996945255657,0.14798031792754893,0.5157107104979155,0.02970746331406815,0.47415650110935675,0.5689764698592514,0.5165580899269127,0.19372364004432369,0.023566074423717897,1.0,0.8212792467645618,-0.08695244437991893,-0.1567129124913323
2,0.844365572315882,0.03472881399662777,0.7914285714285714,0.9099999999999999,0.8450750374898465,0.8188811188811189,0.056214273107046464,0.7286713286713287,0.8909090909090909,0.8207963838585979,0.6271893381596814,0.1848130130422143,0.36291390728476824,0.8860927152317881,0.6536896569134165,0.15915244176113752,0.02897680046432034,0.13170163170163196,0.21911421911421936,0.16175271075147582,0.39961106153976467,0.026271736507083955,0.34765552026900803,0.4412478983747432,0.40046837286083503,0.23763587636856048,0.06727886629563341,0.14230634419908872,0.3459516298633018,0.2469193006165829,0.7841331157267704,0.012961415879119732,0.7482671707624449,0.8071833648393194,0.784239566722601,0.41396376152233266,0.03355899562896537,0.3580527752502275,0.5093248407643313,0.4153133840509541,0.6169516593967214,0.025914076603017488,0.5794640980735551,0.6981155866900175,0.6174922820137846,0.6028438610579129,0.0322812654151435,0.5393509688368507,0.6525966695989972,0.6037021851582364,0.5285043594902744,0.04843228272177118,0.3192488262910798,0.6948356807511737,0.5307051672365237,0.5001252254057299,0.035962402753376636,0.3709677419354839,0.6370967741935484,0.5014085186894844,0.5581579883437774,0.02972280974613497,0.4581497797356828,0.6916299559471366,0.5589439132261373,0.4775707384403042,0.009121648220359962,0.4583333333333333,0.5185185185185185,0.4776573017161423,0.5224543572369654,0.010166610495765912,0.49696969696969695,0.5575757575757575,0.5225526512969566,0.578231292517006,0.030364853295852624,0.3095238095238095,0.7202380952380951,0.5790230782123138,0.5677406832298134,0.03250265675996809,0.4419642857142857,0.7767857142857142,0.5686645271678697,0.49569619015014443,0.06306252408877336,0.20078740157480313,0.7677165354330708,0.49966678270996295,0.21528102567063645,0.04155344731100737,0.1415662461395249,0.26445611207595365,0.21923020827644918,0.40133211671533775,0.042293443445336094,0.3077585737305733,0.47461518028258703,0.4035406957274215,0.7897376250423277,0.8201919557837922,1.0,0.9540948712435106,-0.48976670249557236,-0.6140841033051238
3,0.7875780730897006,0.04435976144572929,0.7514285714285713,0.8807142857142857,0.7888205481241326,0.8342201984062453,0.028698298456064485,0.7671328671328671,0.9027972027972028,0.8347113879067471,0.5860773140304943,0.05314819239018037,0.4158940397350994,0.6582781456953642,0.588471078384337,0.13710630454816541,0.04595091595490717,0.10372960372960383,0.25407925407925436,0.14456764698812669,0.39632633732877404,0.013741896660984442,0.364281711189987,0.43881935363347657,0.39656339601630636,0.21558375924159792,0.03702523230197986,0.028391167192429012,0.3210655450403085,0.21872551050649505,0.7944461540715982,0.02001702288588051,0.7507876496534341,0.8654694391934468,0.7946971179580661,0.42591269018346495,0.04285993305309168,0.31778707916287535,0.5541401273885351,0.4280537927132061,0.6059240825968312,0.014694631808843235,0.5432346760070051,0.7171628721541156,0.6061014120912246,0.6123139238874628,0.034543112374136514,0.5292558367651982,0.6765606875666585,0.6132829837095866,0.528944207882956,0.0350740872337895,0.41314553990610325,0.6619718309859155,0.5301004101364557,0.5027944486121532,0.05657646644619773,0.1653225806451613,0.810483870967742,0.5059528300343625,0.5610900522487464,0.02929880221510563,0.4625550660792952,0.8061674008810573,0.5618509356523793,0.4782945736434114,0.006977687611115614,0.45370370370370366,0.5,0.47834523186161076,0.5221141649048622,0.007742289807714079,0.5030303030303029,0.5393939393939393,0.5221712989440132,0.5787098560354356,0.007776765270176414,0.5535714285714285,0.6011904761904762,0.5787618631676055,0.5681270764119608,0.011268314564202691,0.53125,0.6383928571428571,0.5682382944544724,0.5007141549166823,0.07597427371286603,0.24015748031496065,0.9094488188976377,0.5064187084504821,0.23955409951999626,0.034690907677764504,0.1486119127037564,0.2643177024344983,0.24204137701697073,0.4252669345718939,0.05810434979773652,0.3680623651766664,0.5820756705408052,0.42919969506392164,-0.38836665389492137,-0.31150587279909564,1.0,0.8412740592217989,0.22961731458637225,0.11079849302223495
4,0.7974640967498116,0.04437670732335262,0.705,0.8621428571428571,0.7986913410214576,0.8228549228549233,0.041753423857398685,0.7426573426573426,0.8999999999999999,0.8239079732620437,0.5187287571393532,0.11244284809498994,0.35894039735099337,0.6728476821192053,0.530712748392232,0.15974765974765978,0.0337376146771485,0.08508158508158536,0.1981351981351982,0.16325292976164796,0.4077286434842948,0.025416513007458584,0.3541939099570335,0.4560059779562862,0.40851588447227866,0.24531125687802885,0.06533637806483285,0.001402032947774301,0.3708377146862952,0.2538185741479934,0.8086519772090034,0.0210973807093534,0.7407057340894769,0.8525519848771266,0.8089256855194795,0.4274283114519693,0.04018920744648673,0.3201765241128299,0.5225186533212012,0.4293036081145484,0.6072764110119625,0.02084433575535465,0.5512259194395797,0.7530647985989491,0.6076321476314143,0.6031951055987086,0.036332765408169806,0.5281601052525048,0.6887246697235564,0.6042825669866062,0.5282807958864292,0.04120433324067559,0.4084507042253521,0.6807511737089202,0.5298767907041092,0.5026241679467484,0.05611120924162188,0.28629032258064513,0.7379032258064516,0.5057300302008142,0.5615691210404877,0.03874044634326798,0.41850220264317184,0.7709251101321587,0.5628967569909689,0.4777091906721539,0.008121307542224914,0.4583333333333333,0.5138888888888888,0.47777785373248416,0.5221741221741222,0.010283271675166886,0.4606060606060606,0.5515151515151515,0.5222748319072318,0.5793335852859647,0.01315082564750003,0.5178571428571428,0.6369047619047619,0.5794820378637677,0.5684287603930466,0.014116039525347296,0.49553571428571425,0.6517857142857142,0.5686030811686955,0.49633379160938224,0.07311884272840467,0.055118110236220486,0.7637795275590551,0.5016625461492287,0.23729655192579205,0.02398643520339202,0.18111683926860223,0.2874149978924499,0.23849938879301802,0.47597551003270205,0.06615294203127516,0.31765570851386277,0.5387609988841466,0.4805265271874348,-0.0035864620157498722,0.0022758458485511676,1.0,0.8498266996875659,0.12770588375298036,0.03399379494562759
5,0.7925276967930022,0.04271764185276834,0.7042857142857142,0.8464285714285714,0.7936734208468661,0.7623861852433286,0.057521832959887984,0.6587412587412587,0.8412587412587412,0.764544277049348,0.33663468036221095,0.2067223033027248,0.0768211920529801,0.6582781456953642,0.3948196977910158,0.2026069168926314,0.08925022279434386,0.082750582750583,0.3391608391608394,0.22132024846194226,0.4229388822594236,0.024802398134441943,0.36353446665421263,0.4645992901176911,0.42366253814468835,0.3230326831047877,0.10581780703520571,0.18191377497371192,0.4682790045566071,0.3398555854069923,0.8399727376773013,0.05838779263892295,0.7378701953371141,0.9335223692501575,0.8419913417229122,0.4283727024567788,0.0333855623961635,0.3565732484076434,0.5222929936305732,0.42966640387178945,0.6097876764716395,0.03257650778372326,0.5441103327495621,0.7134395796847635,0.6106536724606665,0.6052301588272488,0.04440525402000525,0.47914023027877894,0.6842230232069316,0.6068503303672705,0.529347513653349,0.08309916347898595,0.27230046948356806,0.8309859154929577,0.5358041392020872,0.49993416721527334,0.0617572282096869,0.24193548387096775,0.6612903225806451,0.5037187306633963,0.5589499235817689,0.03158564592246278,0.4405286343612335,0.7709251101321587,0.5598380105416442,0.4768518518518525,0.011409731841969818,0.4351851851851852,0.5092592592592592,0.4769877768247555,0.5214100185528762,0.014052216133444258,0.47272727272727266,0.5575757575757575,0.5215985681027933,0.5772594752186585,0.0312724073952947,0.24999999999999994,0.6607142857142856,0.5781024766478768,0.5673287172011664,0.027635759535532867,0.4419642857142857,0.8214285714285714,0.5679986718995698,0.503663827735819,0.08402606596433054,0.10236220472440943,0.9291338582677166,0.5105965268725996,0.26743644430613256,0.01684913181053544,0.22147903559242005,0.29872379938724436,0.2679645242153266,0.5631805823632808,0.15203767095382895,0.331944312499486,0.7699017184150274,0.5832610675767463,0.3882415886216872,0.4449821127876069,1.0,0.9017820160304315,0.8039798878857551,0.8082393420131115
6,0.6993669803250646,0.05648319863739363,0.63,0.8021428571428572,0.7016305445138101,0.7290733218876929,0.055227763751315245,0.6538461538461539,0.8272727272727273,0.7311496088149176,0.3640322004996634,0.06747891279706596,0.28079470198675494,0.5059602649006623,0.3701966785137969,0.09855114944935314,0.04106118681423562,0.051282051282051544,0.1864801864801865,0.10671576353039769,0.4175642736570572,0.016525480305984133,0.34690827573323374,0.4425555763123482,0.41788919447103456,0.27806636988903377,0.048631398380847124,0.052926743778478835,0.4002804065895549,0.2822618593040841,0.7905436763523991,0.025288766737298934,0.7142407057340894,0.8651543793320731,0.7909456343342849,0.42076952918548716,0.04473210132348528,0.3400800727934486,0.5193339399454049,0.42312643001597244,0.6079729228058763,0.027732811250349907,0.5274728546409807,0.7313905429071803,0.608601329478447,0.6218089111183096,0.03802016309782751,0.5405673670525406,0.6944407682187259,0.622963240378661,0.5282392960557756,0.06957816532629381,0.352112676056338,0.755868544600939,0.5327747049538216,0.5022213637241648,0.052950422568481516,0.3064516129032258,0.6975806451612903,0.5049883726636193,0.5595505025191916,0.021497133105280487,0.4757709251101322,0.656387665198238,0.559960823964754,0.4778498558438683,0.01256233486988768,0.4305555555555555,0.5277777777777778,0.47801396632714704,0.5227726365450917,0.016171769730523047,0.4666666666666666,0.606060606060606,0.5230212133668722,0.5796621043627018,0.026681816466141754,0.4285714285714285,0.6785714285714285,0.5802721874897421,0.5679533789563732,0.020912971440862627,0.46428571428571425,0.6294642857142857,0.5683359694458495,0.49714743740864725,0.0408841413073356,0.31496062992125984,0.6535433070866141,0.49881567584878517,0.3260962916752001,0.04294445368852825,0.2403065891137599,0.37035175457684993,0.3288950809556868,0.4532154910433834,0.06620849040920679,0.3215308482781209,0.5946827984244074,0.4579973762332297,0.03631335537807005,0.03541555876067807,1.0,0.8413549246919446,0.1355370734093013,-0.040393209715845965
7,0.6633035714285714,0.029191915747216177,0.6107142857142857,0.7021428571428572,0.6639414051306272,0.7340034965034961,0.07552116558729398,0.627972027972028,0.8314685314685315,0.7378530047760176,0.3612757058208435,0.201349185436449,0.08211920529801331,0.5960264900662251,0.413273407968473,0.11273923444976096,0.06288586674976959,0.0,0.2097902097902099,0.1289912784022242,0.40566529344096286,0.031127436416025004,0.35438072109097707,0.4681487016626191,0.40684993934431074,0.2571416053277254,0.08245222122092849,0.15492464072905715,0.4090431125131441,0.2699545292532831,0.8111900142606044,0.05224084613125994,0.7069943289224953,0.8903591682419659,0.8128593916513869,0.4339537498204112,0.04640151064242774,0.3673776160145587,0.5333248407643313,0.43641126479533837,0.6190099778781457,0.04180713341473488,0.5540700525394044,0.7212119089316987,0.6204109043153146,0.5978573158234816,0.053282579405309234,0.45821818096891465,0.6595311125470016,0.6002114006758731,0.5275203854707184,0.050061708992405515,0.3145539906103286,0.6572769953051643,0.5298749322273335,0.5007427843803056,0.03990496475940486,0.38306451612903225,0.6330645161290323,0.5023198841024809,0.5596452585207515,0.028227552164544933,0.49339207048458156,0.7180616740088106,0.5603520036687281,0.477674220272905,0.008901316162490212,0.45370370370370366,0.5092592592592592,0.47775660421410177,0.5224880382775113,0.00950317024073473,0.4848484848484848,0.5515151515151515,0.5225738859160117,0.5785557644110264,0.009880754655350389,0.5535714285714285,0.619047619047619,0.5786395765480258,0.5686677631578951,0.01652056737819234,0.5089285714285714,0.6339285714285714,0.5689061068533283,0.4954931620389558,0.09274301324318725,0.08267716535433073,0.8976377952755905,0.5040418165719466,0.34228638044385157,0.022961049933140562,0.292099989160581,0.38194110430412526,0.34305059038830793,0.4678080715226621,0.15731917655376448,0.26542174478475405,0.6969851593157823,0.49338716095763585,0.6940840341756408,0.7453624678801722,1.0,0.937483977701299,0.8100612572772715,0.700083895906688
8,0.6412869458128077,0.06733738305947819,0.5664285714285714,0.7528571428571428,0.6447822741317278,0.7286411863998076,0.06508933621313594,0.579020979020979,0.8167832167832167,0.7315176536530203,0.24642612468600145,0.06373237474130035,0.13377483443708604,0.3443708609271524,0.2544653903113091,0.15828711518366695,0.05293344150873814,0.09090909090909116,0.2575757575757577,0.16683106823486285,0.4187838595180273,0.021221253973497962,0.3829628245843453,0.465533345787409,0.4193165634191857,0.2771976262131815,0.07974606610470067,0.14125481948825802,0.4616193480546793,0.28834551552151905,0.8444772179127825,0.04480781631961368,0.7882797731568998,0.9322621298046628,0.8456548964383288,0.4281302281070567,0.0620786226318378,0.3094849863512284,0.5492484076433122,0.4325690991941758,0.6002259496346397,0.03177680987110043,0.5338213660245184,0.6661541155866899,0.601059274434838,0.6433289232047034,0.04163742168204815,0.5591772866340218,0.7151214841225974,0.6446633484563175,0.5217338513841672,0.0895108157191061,0.17840375586854457,0.7746478873239436,0.5292913443848895,0.5027461067853171,0.056020693355795806,0.2701612903225806,0.6774193548387096,0.5058309119711998,0.5626993771836544,0.024040166620511474,0.5154185022026432,0.6784140969162996,0.5632082532617886,0.4775303320561944,0.008810677927669854,0.44907407407407407,0.5092592592592592,0.47761090531096023,0.5222570532915359,0.012719763443000496,0.49696969696969695,0.5636363636363636,0.5224105926691093,0.5789203612479471,0.015344653018366036,0.5416666666666666,0.6428571428571428,0.5791219329555043,0.5673491379310344,0.017018027060609727,0.5044642857142857,0.6294642857142857,0.5676021149451598,0.4974205810480586,0.04735552147982389,0.33858267716535434,0.6732283464566929,0.4996503253043643,0.34253832013744795,0.03646564896366097,0.2697506626091667,0.38066509823262756,0.34445722667759904,0.5900623137714301,0.10842106980422782,0.4564235388263352,0.7817658854325382,0.5998560870718809,-0.05236735798774513,-0.21447953585381282,1.0,0.883164900264857,-0.18941633489292234,-0.0714249560970589
9,0.6442463054187197,0.03560871984050815,0.5735714285714285,0.7071428571428571,0.6452262476266132,0.6777839401977331,0.06500348173686463,0.5762237762237762,0.7986013986013986,0.6808832144366188,0.29291162365836976,0.10287307677889246,0.18807947019867555,0.4874172185430464,0.3103926489870873,0.09051121292500623,0.019884821279736932,0.03146853146853168,0.12121212121212133,0.09266241046461508,0.42057305925778043,0.023321127807976454,0.36484214459181774,0.45955538950121433,0.421216924807921,0.2954035074996677,0.07228224323738067,0.16999649491763058,0.41710480196284616,0.30408870193646614,0.7957608152445516,0.018254338034581312,0.7507876496534341,0.829867674858223,0.79596943841979,0.42528932258165786,0.022012899088430276,0.36635486806187445,0.49567606915377616,0.42585667155164814,0.6030099704088405,0.020495537002366,0.537323992994746,0.6710805604203152,0.6033569780341176,0.6040650652580024,0.032725883083866716,0.5111305302328477,0.6789934839980382,0.6049478435720598,0.5280556904646262,0.057497325897334924,0.2863849765258216,0.7089201877934272,0.5311660332850217,0.5000278086763071,0.04934383728010082,0.32661290322580644,0.8951612903225806,0.5024482339662992,0.5598967036305644,0.02792803451834101,0.4713656387665199,0.7004405286343613,0.5605904068739291,0.47803320561941354,0.012357706176872395,0.43981481481481477,0.5694444444444444,0.4781923587642442,0.5235736677115987,0.016161057227785183,0.4424242424242424,0.6181818181818182,0.5238221689388454,0.5801929392446651,0.024560470116763947,0.32738095238095233,0.7678571428571428,0.5807107570763248,0.5673491379310348,0.019824236777537068,0.46428571428571425,0.6294642857142857,0.5676941866015818,0.4961715992397504,0.04031757663416591,0.2874015748031496,0.7559055118110236,0.4978013235029419,0.37042715963398426,0.01396543632833751,0.32683233731125594,0.39349523923963564,0.37068941376486014,0.46435002651278273,0.06357101843794259,0.33047415880398606,0.5419670638295808,0.4686664977131872,0.5191220793257211,0.4994325587792604,1.0,0.9143352859345244,0.5088906541705708,0.2722127369156663
10,0.5546142857142862,0.04433259159155263,0.5071428571428571,0.6799999999999999,0.5563774198629321,0.6982074592074595,0.03980386222134604,0.5517482517482517,0.7594405594405593,0.6993373451936566,0.28461368653421637,0.07799365553887318,0.062251655629139147,0.4529801324503311,0.2950723371749698,0.10521367521367542,0.03323201861236417,0.030303030303030498,0.17832167832167856,0.1103204572574119,0.4060165639205424,0.0136446285452548,0.36708387819914073,0.4515225107416403,0.40624500671354535,0.2346465708610819,0.04942416861405784,0.18541885734314761,0.42271293375394325,0.23977827083629774,0.8072778827977319,0.028540337164871827,0.7350346565847511,0.869880277252678,0.8077805492399452,0.42798325144070387,0.024688200497083427,0.3671519563239309,0.502842584167425,0.4286923594685684,0.60930339171045,0.02187479861072584,0.5591068301225919,0.7126742556917688,0.6096946243336928,0.6117392029250642,0.04461970747746909,0.4375374650650432,0.700038146248044,0.6133588951800167,0.5253051643192488,0.0559226038614975,0.2629107981220657,0.7370892018779343,0.5282635978603677,0.49939516129032274,0.060049529225236035,0.1975806451612903,0.7983870967741935,0.50298056946615,0.5607488986784148,0.04092577947341349,0.4537444933920705,0.7312775330396477,0.5622354166448511,0.47845679012345743,0.01251214212550074,0.42592592592592593,0.5462962962962963,0.47861981976318263,0.5225858585858589,0.015191339844492915,0.4424242424242424,0.6,0.5228058790260194,0.5751984126984144,0.03847690060694341,0.2738095238095237,0.7857142857142856,0.576479618845993,0.5684821428571428,0.02845018582258654,0.4508928571428571,0.8616071428571428,0.5691912348035679,0.49633858267716574,0.0323354253613577,0.31496062992125984,0.6417322834645669,0.4973872566939158,0.40145776326820487,0.015316897315003233,0.35703518829197844,0.4197108577855187,0.4017488780409856,0.47459177338191183,0.0732141408910788,0.337462195150717,0.6589103915428691,0.4801872489839624,0.24884403749342746,-0.023281148366540102,1.0,0.8064365924927626,0.3605872706125839,-0.030315147946603473
11,0.46596753246753225,0.04504003777160987,0.40928571428571425,0.5221428571428571,0.4681195407721091,0.6816401780038144,0.0408137669713752,0.5993006993006993,0.7412587412587412,0.6828498755497021,0.33299217338952447,0.05813167401041097,0.2291390728476821,0.39602649006622515,0.3379827780078479,0.09086670904852738,0.04142835994038274,0.03379953379953404,0.14452214452214474,0.09978709842210022,0.38544231781668764,0.010565631015425646,0.3599850551092846,0.4068746497291239,0.3855857856316946,0.20148169391071596,0.030162878869201902,0.14896600070101645,0.27339642481598325,0.20370665512061875,0.7742968436730249,0.025709574060677063,0.7227473219911783,0.8134845620667926,0.7747196753609104,0.42885078997435705,0.042024077290907576,0.3533885350318472,0.49579071883530484,0.4308862592130093,0.6147321127209043,0.0340218395473579,0.5606374781085813,0.6982259194395796,0.6156643025061923,0.6164451553911124,0.028020153623392687,0.5228079531034697,0.6646399850528987,0.6170758633083981,0.52752880921895,0.014456156376565745,0.49295774647887325,0.5774647887323944,0.5277250469617765,0.5007697947214076,0.02619755481792938,0.43951612903225806,0.5766129032258065,0.5014483622317101,0.5610332398878648,0.013470533324444487,0.5374449339207049,0.6299559471365639,0.5611934621267198,0.4786195286195288,0.006079528784620991,0.4583333333333333,0.4907407407407407,0.47865778781936624,0.5224793388429749,0.006873259370333603,0.509090909090909,0.5454545454545454,0.5225241350810649,0.5785173160173158,0.008162905522993957,0.5595238095238094,0.5952380952380951,0.5785743791455591,0.5680600649350649,0.006926248634129779,0.5491071428571428,0.5848214285714285,0.5681019047466012,0.4971009305654979,0.006801919278899542,0.48425196850393704,0.5196850393700787,0.4971470413006577,0.4602352696003626,0.026030214603605446,0.4162080306343693,0.5015409951856981,0.4609641154258281,0.3549624143983054,0.05091815544592338,0.28980989429022413,0.42737061907253465,0.35856297154930983,0.3354617704854365,0.1941898999055034,1.0,0.7515485618492611,-0.3668708227827875,-0.7988711417908417
12,0.3909577194106345,0.036710506849225874,0.3564285714285714,0.4928571428571428,0.3926736278612997,0.6901423688419214,0.029550067064242683,0.5391608391608391,0.7517482517482517,0.6907732897790798,0.2521307872776406,0.0377908961795515,0.1205298013245033,0.3430463576158941,0.2549409413827829,0.18069187912237258,0.039525167884714406,0.03962703962703984,0.2156177156177157,0.18495483583646724,0.37512220212629493,0.008689206250892754,0.3626004109844947,0.41397347281898,0.37522259999321994,0.1669040063248664,0.02501380163824527,0.15141955835962145,0.3161584297230985,0.16876384300762123,0.8173564075829116,0.01955788085592905,0.7240075614366729,0.8569628229363578,0.8175898422027393,0.4288913892368514,0.02648379386546536,0.3670373066424022,0.537761601455869,0.4297064608226273,0.6057499195024069,0.01463298037569252,0.5658914185639229,0.6752399299474605,0.6059262405548516,0.6137405904670544,0.021797240822001414,0.4914248791386733,0.6608681774656878,0.6141266699985247,0.5276532137518692,0.054594949654446646,0.1971830985915493,0.7887323943661972,0.5304637966267663,0.5005605381165918,0.04274927838660798,0.3588709677419355,0.6814516129032258,0.5023785978589411,0.5607949270065778,0.02965228333781671,0.4713656387665199,0.7577092511013217,0.5615765634650137,0.47779646238166573,0.008894264481325784,0.44907407407407407,0.5185185185185185,0.47787905377096423,0.5227748335371653,0.012227479470750945,0.4363636363636363,0.5939393939393939,0.5229174912039098,0.5788623745462352,0.02390526237132148,0.4464285714285714,0.7916666666666665,0.5793546659261284,0.5677250160153753,0.02114903586211471,0.4419642857142857,0.7232142857142857,0.5681179214333476,0.4975724727234212,0.054625979181076964,0.2125984251968504,0.9330708661417323,0.5005553642066065,0.4832118379756412,0.01993579342878607,0.41672753106870664,0.5111020863317077,0.48362198575709964,0.4507558290699557,0.03941881246818261,0.30340907369494124,0.5670050112828886,0.45247229336671174,-0.0851107817522417,-0.04152407397331933,1.0,0.9066489361019346,-0.5844123121354329,-0.7851684410495157
13,0.45773109243697463,0.0244351088416515,0.40857142857142853,0.48357142857142854,0.4583751772524865,0.5380666392431098,0.08171141308821862,0.42657342657342656,0.637062937062937,0.5441634986252616,0.20881963381379048,0.03529931958439053,0.1205298013245033,0.2450331125827816,0.2117475433435611,0.11050322226792833,0.035202643883489745,0.06876456876456905,0.17832167832167856,0.11591207502657626,0.42122394259403734,0.018015263306058574,0.38184195778068375,0.4642256678498039,0.4216044844336287,0.30626997381497306,0.08178571000653853,0.14686295127935511,0.4286715737819839,0.3168777465410621,0.7872011564550204,0.02856938649477037,0.7309388783868935,0.8547574039067423,0.7877133159341972,0.4506480972006638,0.05881847052997313,0.34167424931756146,0.5589153776160146,0.4544255919980994,0.6037181827547131,0.03543753158848788,0.5571348511383537,0.7140980735551663,0.6047451434255071,0.6305007187339293,0.04908685833034018,0.5149003915829136,0.717067721267701,0.6323862179828226,0.5283623308478322,0.03518929891600486,0.37089201877934275,0.6103286384976526,0.5295190944032574,0.5028462998102466,0.03190100686985771,0.41532258064516125,0.6370967741935484,0.5038453163760257,0.5655351127235034,0.033645768647118976,0.4889867841409692,0.6872246696035242,0.5665233299519887,0.47892156862745083,0.0077437514962138115,0.4629629629629629,0.5046296296296297,0.478983433017406,0.5219251336898392,0.017279479318899543,0.47272727272727266,0.5696969696969697,0.5222077296172815,0.5782212885154059,0.010834584677380216,0.5535714285714285,0.619047619047619,0.5783215936480368,0.5693277310924368,0.016016242340879276,0.5357142857142857,0.6339285714285714,0.5695503204520305,0.49847151459008776,0.025158550563686235,0.41338582677165353,0.5669291338582677,0.49909854440004475,0.49900765146434717,0.02081211084992331,0.4626555349938644,0.5256346963653522,0.49943636668420727,0.45859063803924366,0.04730476723797262,0.3969790729762018,0.5864685637829827,0.4609954315781589,0.7501591356281622,0.8774271994269405,1.0,0.8509633321114641,-0.4218149830727641,-0.6548127302281848
14,0.3882743988684584,0.051237714879488534,0.30571428571428566,0.4814285714285714,0.39162947779117896,0.5595651872879596,0.10408164471614009,0.40279720279720277,0.6874125874125874,0.569131298694116,0.2067929971805127,0.055023951054834076,0.11125827814569533,0.295364238410596,0.21396491926771263,0.16615123050766648,0.05007770623270671,0.059440559440559704,0.2331002331002332,0.17351003305316032,0.40391711504421485,0.03172787093340385,0.35923781057351023,0.4625443676443116,0.40515721802364324,0.25558644192494934,0.09507245906383019,0.14125481948825802,0.421310900806169,0.2726414693990022,0.8011098841453139,0.02477114203484915,0.7315689981096407,0.8421550094517958,0.8014915039095812,0.4267772862818586,0.02870775925219079,0.3568007279344859,0.5046624203821657,0.4277385505287558,0.604034604336091,0.02547156115285975,0.5369947460595446,0.6912206654991243,0.6045696505841862,0.6115528534161758,0.04527920724115568,0.4660031295493293,0.7146349248363214,0.6132212755371507,0.5275569810502175,0.061811525715325104,0.2488262910798122,0.8215962441314554,0.5311538604882617,0.5013707015862878,0.04674706001737266,0.3225806451612903,0.689516129032258,0.5035381374424683,0.5600529215917193,0.03121676260727903,0.46696035242290757,0.709251101321586,0.5609193748880519,0.4776158171372699,0.010178455836158612,0.43981481481481477,0.5277777777777778,0.47772390334328035,0.522292229222922,0.018885236596421686,0.44848484848484843,0.606060606060606,0.5226324213040302,0.5795811724029561,0.02763319232856962,0.4047619047619047,0.7499999999999999,0.5802373726435499,0.5675830975954735,0.02886357150968571,0.3571428571428571,0.8080357142857142,0.5683141111325729,0.49721940698006817,0.02389516598854831,0.38188976377952755,0.6062992125984252,0.4977913551039525,0.5288264387346189,0.019904114450899187,0.4706542394058834,0.5572853929582775,0.5291996490669809,0.4497984283815168,0.06734794590976861,0.3443585637454271,0.5762323808052983,0.4547960010099052,0.34717906681541605,0.37735727418632936,1.0,0.9556977867521435,0.03413010048193888,-0.10462807996192576
15,0.3408090379008747,0.07189213623638531,0.24785714285714283,0.4357142857142857,0.3482334561516746,0.5322391893820463,0.09551106033956659,0.3902097902097902,0.6531468531468532,0.5406550027772902,0.2289228274091094,0.02302895615199947,0.185430463576159,0.262251655629139,0.23006647337460756,0.1821511821511823,0.08023923312769356,0.08041958041958053,0.2843822843822845,0.19887606794393659,0.3972348139704228,0.03195897300923065,0.35008406501027467,0.4573136558938913,0.39850527121016927,0.2562358276643991,0.10981526581187157,0.14511041009463727,0.42972309849281465,0.27855544682810746,0.780673327932307,0.026255863238619812,0.7350346565847511,0.8355387523629489,0.7811102232770591,0.43556667471356175,0.06062080014943387,0.3388298453139218,0.5593703366696998,0.43972231094394265,0.6108690446406234,0.0351924838408703,0.5563695271453589,0.6932994746059544,0.611871606427785,0.6478227286181223,0.06467539546693782,0.5159961230956069,0.7583026476610122,0.6510103776214334,0.5291750503018109,0.11054442698446308,0.2863849765258216,0.9812206572769953,0.540482756065324,0.495967741935484,0.08475359615314372,0.217741935483871,0.8870967741935484,0.5030843621375863,0.5594264137373007,0.03150448920017286,0.4625550660792952,0.7048458149779736,0.5603037723776467,0.47741874527588807,0.01765434623557511,0.42592592592592593,0.537037037037037,0.4777417230209898,0.5233147804576375,0.0317624455323257,0.37575757575757573,0.5878787878787879,0.5242679829760742,0.5824829931972787,0.07201424917378413,0.29166666666666663,0.7797619047619047,0.586872703871383,0.5649599125364433,0.04432935971794541,0.36160714285714285,0.6741071428571428,0.5666786946283118,0.4967459424714766,0.03605237355418989,0.38976377952755903,0.6023622047244095,0.4980391972570546,0.565455820282378,0.02853180368754657,0.5139781469030027,0.6061424326619445,0.5661678565047567,0.3935696712847782,0.030002835722360455,0.3352762677503304,0.4451030691100067,0.3946999758004594,-0.29212021533388244,-0.25367544883859655,1.0,0.9707159631761231,-0.6825983170880207,-0.7682949080798778
16,0.33338847117794507,0.0414761205863313,0.25071428571428567,0.3907142857142857,0.33594955761714856,0.4675377254324622,0.1142879626139823,0.3013986013986014,0.6594405594405595,0.48125609860028623,0.1299872197048914,0.08184148308841722,0.039735099337748436,0.32052980132450337,0.1535291626592334,0.2588516746411482,0.04486536902451067,0.146853146853147,0.308857808857809,0.26269759799153347,0.4145319397878217,0.030698841520984083,0.35120493181393614,0.4773024472258547,0.4156631343312816,0.27502106124055326,0.08576064587985598,0.14230634419908872,0.42481598317560465,0.2880376119219664,0.8385202135774225,0.04932171619882185,0.7161310649023314,0.9149338374291115,0.839964430626046,0.43076986734351796,0.03591109855758834,0.3417870791628754,0.529572338489536,0.43225890467857825,0.6115363320736166,0.02070342936705511,0.5616234676007005,0.6684535901926444,0.6118854577955938,0.6031845971104726,0.03311013340894737,0.5128334877348135,0.6696262446186543,0.6040894739406674,0.5269088213491471,0.06368306707492383,0.20657276995305163,0.784037558685446,0.5307298833749179,0.5016270514997168,0.029969617197173323,0.3790322580645161,0.6088709677419355,0.5025183829967305,0.5604297086328158,0.022777587534386662,0.49339207048458156,0.6475770925110133,0.5608907704681731,0.47815139701104675,0.012315039907383429,0.4444444444444444,0.5925925925925926,0.4783094046017234,0.5225730994152048,0.018497851160926917,0.406060606060606,0.5939393939393939,0.5228992389856276,0.5805346700083552,0.0417817773912482,0.2797619047619047,0.8035714285714285,0.5820310083501968,0.5680451127819552,0.033029824048217034,0.45982142857142855,0.8392857142857142,0.5690012227313268,0.4946401436662525,0.037883500741241846,0.23228346456692917,0.6141732283464567,0.4960836579718825,0.5816519423191635,0.019753324810359185,0.5222671660931621,0.623501713743313,0.5819860881013584,0.5469302081958076,0.1439123643168594,0.2834394018306821,0.74032775918359,0.5654827600173662,0.4895554652475653,0.6187453697114996,1.0,0.9391103328516263,0.7762060161378425,0.7550020860282747
17,0.35826890756302515,0.03255120096624302,0.2821428571428571,0.4007142857142857,0.35973595592210866,0.40944878650761013,0.07330425601888378,0.2909090909090909,0.565034965034965,0.4159209225531283,0.1469341643942346,0.02344022766863135,0.11523178807947032,0.20132450331125817,0.14878125189099925,0.21084601672836992,0.016237140659113906,0.181818181818182,0.2459207459207462,0.21146663248751799,0.4340501752727993,0.016621305074805602,0.38520455819166827,0.4627311787782552,0.4343664320963756,0.3390383703428796,0.06687201382623531,0.19488257974062395,0.46477392218717145,0.3455323106490079,0.8187201156455023,0.020657186251166564,0.7618147448015122,0.8620037807183365,0.8189791431975618,0.43555016860247286,0.0523111662212518,0.31642220200181986,0.5628971792538672,0.438661954890836,0.5987229525084988,0.02597891275912726,0.5444378283712784,0.6946129597197898,0.599282994707552,0.6175067236769137,0.0552393889722359,0.5212256623045004,0.7407865133550793,0.6199580586835919,0.526953880143607,0.1711866884839418,0.0,1.0,0.5539069348291548,0.5014231499051234,0.0858026023462216,0.14516129032258063,0.8508064516129032,0.5086688072199582,0.5599378077222092,0.03949827233815943,0.4493392070484582,0.7048458149779736,0.5613210176860585,0.47742374727668896,0.032327877984304795,0.3472222222222222,0.5648148148148148,0.4785105835407171,0.5208199643493759,0.040920314667225455,0.3818181818181818,0.6606060606060605,0.5224155985239715,0.5814075630252099,0.03415151169725549,0.488095238095238,0.8273809523809523,0.5824038284166819,0.5685661764705882,0.03132182861132363,0.45982142857142855,0.6651785714285714,0.5694232020656692,0.4977304307549791,0.04422133693035677,0.29527559055118113,0.6181102362204725,0.49967950252293064,0.5846534666262403,0.018907912413040122,0.5356774219867861,0.6108572455520073,0.5849573336533943,0.53914529520968,0.04307199835829595,0.4426989797557926,0.6386599931635943,0.5408529684355359,0.4593954643782818,0.5487902494966446,1.0,0.8322687305211981,0.1890567389218282,0.27682919034159986
18,0.2516023166023167,0.04119885557333716,0.1807142857142856,0.3407142857142857,0.254930584411079,0.4542808542808542,0.07336256893626106,0.27062937062937065,0.5587412587412587,0.46012693441347235,0.18722033291569723,0.052994066029377576,0.09933774834437081,0.29271523178807946,0.19452724387969125,0.288044163044163,0.0727107085132684,0.16666666666666685,0.3962703962703964,0.2970194691535043,0.40508101039578737,0.020620149946839274,0.362039977582664,0.45189613300952736,0.40560195100338425,0.2442474019761087,0.05972730733649621,0.17034700315457413,0.41184717840869267,0.25139618312365286,0.7945341371617366,0.03825683405832176,0.7328292375551354,0.8925645872715816,0.7954484215694276,0.43177363942650576,0.03743476465211474,0.3193812556869882,0.4858962693357598,0.4333824738596141,0.6213138282766132,0.03208660748557859,0.5796847635726794,0.6879369527145358,0.6221362127108402,0.6059422091706272,0.05284108972352321,0.48339665091512063,0.6808171082030002,0.6082263357760102,0.5272490800659817,0.09413221207763463,0.32863849765258213,0.812206572769953,0.5355301999095569,0.5017436791630342,0.04334248314355346,0.2782258064516129,0.6290322580645161,0.5035996399709363,0.5611382307417554,0.021319256483502705,0.5154185022026432,0.6519823788546256,0.5615403402060921,0.4779466966966972,0.00803440297627827,0.45370370370370366,0.5,0.47801376586328476,0.5220720720720718,0.014710296183130077,0.4848484848484848,0.6121212121212121,0.5222778754052443,0.577662483912483,0.01524829178716695,0.5059523809523809,0.6309523809523809,0.5778623406194029,0.5677485521235519,0.01770247197998178,0.49107142857142855,0.6205357142857143,0.5680226038961432,0.49787188763566725,0.041544684341342585,0.32677165354330706,0.6181102362204725,0.4995905477464992,0.6328467345795193,0.02580685229300288,0.5857192019354029,0.672855016039996,0.6333691523403282,0.4391200562603975,0.09930674751376803,0.3202941258285866,0.6966520590749206,0.45013511296578934,0.049532555446411886,0.0027392481743954786,1.0,0.8506656618802096,0.5211746634899191,0.28134298452587164
19,0.2455828571428571,0.07151299066674109,0.15642857142857136,0.35,0.255703216041327,0.38267412587412586,0.10348335129605701,0.19930069930069927,0.5083916083916084,0.39631126678032474,0.1467655629139072,0.07145801109101375,0.018543046357615722,0.23311258278145686,0.16311201006586507,0.36690909090909096,0.08422304561129093,0.2505827505827507,0.4790209790209792,0.37637621369114294,0.4134518961330096,0.027980242683431193,0.3579301326359051,0.4698300018681114,0.41439003516585626,0.2791924290220821,0.11143929295865841,0.025236593059936918,0.4928145811426569,0.30044596637374743,0.8342180214240709,0.037486095459968,0.7728418399495904,0.9111531190926276,0.8350530958943283,0.4244476505914465,0.06893055079356045,0.30914285714285716,0.5382165605095541,0.429964204973671,0.6040980315236424,0.0356297521155103,0.5337127845884413,0.711908931698774,0.6051394509471898,0.6373246090009578,0.0657917453304785,0.5169692416681587,0.7637774127501887,0.6406844641177315,0.5269483568075118,0.05290945497645412,0.3474178403755869,0.6713615023474179,0.5295767988541745,0.5001612903225808,0.05052249156902216,0.24193548387096775,0.6370967741935484,0.5026862026296883,0.5607048458149777,0.03364562011042962,0.4625550660792952,0.7048458149779736,0.5617053459341407,0.4773333333333336,0.010448957649492286,0.45370370370370366,0.5138888888888888,0.47744677020726034,0.5220848484848484,0.022997146477599092,0.4606060606060606,0.6484848484848484,0.5225870519000547,0.5790476190476187,0.015355341706020036,0.5357142857142856,0.6249999999999999,0.5792495536048986,0.568107142857143,0.025738605770794166,0.4464285714285714,0.625,0.5686852396411518,0.4978582677165353,0.02311659725725516,0.42125984251968507,0.5669291338582677,0.4983903658638613,0.6533051433935699,0.04811377321787642,0.560797825869363,0.7220736221945,0.6550603224714255,0.5563631359206537,0.08442033885848582,0.4421848564964855,0.7092160081659278,0.5626808316226364,0.19031185710290674,0.14413160161041197,1.0,0.8873510913922718,-0.16253575094009792,-0.04525433565990854
20,0.2274530703149857,0.05280299548106982,0.15499999999999997,0.33928571428571425,0.23348842760443128,0.31091625523696825,0.08783793114257588,0.19090909090909092,0.513986013986014,0.3230591836979047,0.15961297364267918,0.06856270264173694,0.0,0.32980132450331134,0.17368556636180416,0.40658079856298146,0.05706596150510637,0.2960372960372962,0.49300699300699313,0.41055720293922626,0.4256918148847284,0.018769171716100538,0.3680179338688586,0.48029142536895203,0.42610446896830906,0.3007103061131292,0.0587347184431516,0.17805818436733267,0.45110410094637227,0.30638011053297115,0.8450986088247643,0.06533464376447924,0.7205419029615626,1.0,0.847614751744115,0.42979554200923736,0.04195494272903544,0.2951537761601456,0.5525459508644223,0.4318338857069919,0.6088430604690712,0.027512205369412655,0.4753712784588441,0.7033695271453589,0.6094629668255251,0.6077932458791742,0.03012766530586162,0.47694876725339225,0.6701128039049301,0.6085378249562884,0.5289480012965697,0.05739179817632166,0.19248826291079812,0.835680751173709,0.5320455531952959,0.5020385803577843,0.06347726538584901,0.1935483870967742,0.75,0.5060268029518078,0.5631506136985763,0.05203913227146255,0.3524229074889868,0.894273127753304,0.5655445638121536,0.479068712364927,0.024002552972668102,0.34259259259259256,0.625,0.47966829225254837,0.5238577309846794,0.034575015097013335,0.3454545454545454,0.7272727272727273,0.5249949443090303,0.5760817690105011,0.03808955999602723,0.1547619047619047,0.744047619047619,0.577336806339317,0.5684755806554247,0.03226319598335627,0.2232142857142857,0.7678571428571428,0.5693883396444009,0.498088490609053,0.025287365803129173,0.3425196850393701,0.6141732283464567,0.49872855460632876,0.6896014984855388,0.027029465311067456,0.6190585469254767,0.7280725407306574,0.6901298367371455,0.5836953986714373,0.1587126747410128,0.30948714602355903,0.8727723108149423,0.6048420700833318,0.3405434021261086,0.1595279173796669,1.0,0.8070021982972588,0.6219609488644291,0.7139760592155067
21,0.2065465838509316,0.03941218313326873,0.1428571428571428,0.26714285714285707,0.21024106246836285,0.30747339616904834,0.08142334768439448,0.17342657342657342,0.40349650349650346,0.317981132772754,0.18862078894327683,0.08224595390672525,0.051655629139072734,0.30993377483443707,0.20562922485071694,0.4108239586500458,0.052456495195233314,0.3426573426573428,0.49184149184149195,0.4141305122821525,0.42518701418952404,0.021170397641308666,0.3702596674761816,0.45899495609938357,0.4257091560025712,0.30478062756213903,0.08538261461042038,0.13985278654048372,0.4388363126533474,0.31641433098190863,0.8280841620777513,0.0292441064433524,0.7747321991178324,0.9017013232514177,0.8285958970267069,0.429835455156862,0.058207259212103665,0.3295031847133758,0.5443566878980892,0.43372473059070416,0.596818990329704,0.02483539629106382,0.5530858143607705,0.6751313485113835,0.5973310143259926,0.632491024462001,0.05550892789003866,0.5223213938171938,0.7126886876912177,0.6349010503218877,0.5066748315982852,0.17267980622031706,0.08920187793427231,0.9765258215962441,0.5350499142618782,0.5003155680224404,0.1408479574570543,0.15725806451612906,0.939516129032258,0.5195972566308568,0.5559471365638767,0.08714055154128553,0.4096916299559472,1.0,0.5626763404949737,0.47729468599033814,0.0859783772872224,0.19907407407407407,0.7407407407407407,0.48491052569321785,0.513728590250329,0.11564941863270385,0.006060606060605989,0.8545454545454545,0.526474643231812,0.5674430641821946,0.11129665594676194,0.0,0.8095238095238094,0.578161624584993,0.5605201863354033,0.09335044215885592,0.24107142857142855,0.8526785714285714,0.5681737478756533,0.49181787059226273,0.06940275797303493,0.28346456692913385,0.7086614173228346,0.4966484429936809,0.7007745877471996,0.031166840921113253,0.6370196424541765,0.7281908320315134,0.7014612947928425,0.5541231553838091,0.05684194909807372,0.46098665340446526,0.664919122121987,0.5570057295891954,0.43769474286912763,0.43002475564855625,1.0,0.8480902566582132,-0.22618956822537253,-0.17219198860765822
22,0.15107142857142855,0.023820734816635998,0.10999999999999999,0.2042857142857143,0.1529255409944178,0.32494172494172485,0.07183666752628584,0.19930069930069927,0.44125874125874126,0.3327359734544952,0.2272406181015452,0.0657722933463802,0.14966887417218544,0.3602649006622517,0.23650677183412958,0.4628904428904431,0.07990091781176395,0.32400932400932414,0.5734265734265735,0.4696904914324165,0.41227473690765293,0.020381416502983172,0.3698860452082945,0.45694003362600416,0.412774867795208,0.26107021848346773,0.06821104248365353,0.17840869260427622,0.4027339642481599,0.26977655010570195,0.7996471329552617,0.03047088492564095,0.7476370510396975,0.8623188405797101,0.8002236076494704,0.42831797391568094,0.039962583338105574,0.3454267515923567,0.5007952684258417,0.43016583793444346,0.6128354232340923,0.03032246872441767,0.5676427320490367,0.698663747810858,0.6135801320115587,0.6185254788392123,0.04943859691201159,0.5095482394338785,0.7103765579628346,0.6204850105673847,0.5298591549295776,0.06567823434977964,0.3755868544600939,0.7370892018779343,0.5338872511996722,0.5023655913978493,0.06410922959179619,0.3024193548387097,0.8548387096774193,0.5064126585936666,0.5602349486049928,0.016417726798523002,0.5066079295154186,0.6255506607929516,0.5604738552748453,0.4780246913580252,0.010151327057225627,0.4212962962962963,0.5092592592592592,0.47813174752643667,0.522343434343434,0.011043991503405072,0.4848484848484848,0.5575757575757575,0.5224593955690388,0.5792857142857136,0.01794773017486453,0.5059523809523809,0.6666666666666666,0.5795618278669528,0.5699999999999996,0.02458457577936208,0.49553571428571425,0.7410714285714285,0.5705263990595082,0.49614173228346486,0.025925133601946895,0.3346456692913386,0.547244094488189,0.49681410035864243,0.7346976733551744,0.02232385326987402,0.6830944553386185,0.7573344578920985,0.7350344912284658,0.4655128863891585,0.06750481515508581,0.3819950712749945,0.6300398506525586,0.4703496232906895,0.39389271407860194,0.23394308857260557,1.0,0.8759153536472413,-0.012781951443398668,-0.4301164451938612
23,0.1495082815734989,0.05694313380946717,0.06642857142857139,0.21857142857142853,0.1599116950752128,0.25236140670923285,0.0774912982264619,0.09999999999999998,0.34055944055944054,0.2639084445779313,0.2403589595930512,0.12340104128595068,0.04768211920529797,0.41854304635761586,0.2699812955505993,0.5437316306881524,0.10039867963132616,0.4265734265734267,0.6713286713286715,0.5528570686588439,0.41974160500545543,0.02307415958620101,0.37100691201195596,0.46702783485895766,0.420370757451226,0.2926819975921608,0.09889393883241131,0.07676130389064145,0.47458815282159134,0.30882340132574204,0.8303060190131779,0.038870550975624335,0.7652804032766225,0.9054820415879017,0.8312087922110435,0.42186725745407533,0.06496573219629362,0.31062238398544134,0.5373066424021838,0.426804341124068,0.6024057844107717,0.027218181037393104,0.5427968476357268,0.7137688266199649,0.6030159120136951,0.6334111433302679,0.04667889694134622,0.5482316489299588,0.700038146248044,0.6351163725203917,0.5268762332448796,0.04680083094708469,0.4084507042253521,0.6948356807511737,0.5289357343455812,0.4966690042075734,0.050157247783541616,0.18951612903225806,0.6370967741935484,0.49917694175200455,0.5587052288833554,0.017660596400645753,0.48017621145374456,0.6387665198237886,0.5589822620853607,0.4775899087493292,0.010498426944231616,0.4351851851851852,0.5138888888888888,0.47770444757591735,0.5219587176108914,0.01767262961131756,0.43030303030303024,0.5757575757575757,0.5222556476723494,0.5797532781228427,0.01625025790219306,0.5059523809523809,0.6547619047619047,0.5799793279238109,0.5693258281573499,0.03038469443867639,0.4732142857142857,0.8035714285714285,0.5701301940725576,0.49734679904142426,0.01199789938731479,0.44881889763779526,0.547244094488189,0.49749044713792245,0.7642245390806757,0.050954391865834205,0.6717267718103686,0.8397844404512125,0.7659090559933912,0.553227519282012,0.09170153914584997,0.4223779442162046,0.7107842806621234,0.560721788716668,0.06680913008252828,0.10433009271985755,1.0,0.8291642225531787,-0.07966427682964772,-0.05639839301861192
24,0.08623809523809509,0.01467439952125164,0.05142857142857138,0.12428571428571428,0.08747256615609234,0.2949504662004661,0.06120812849843363,0.17692307692307696,0.4013986013986014,0.3012085695333775,0.24314017660044185,0.08349795698668804,0.14569536423841056,0.4874172185430464,0.2570214089879622,0.648761655011655,0.07171461768938596,0.5407925407925409,0.7354312354312356,0.6526968992525067,0.39775904477240165,0.016736012603142954,0.3652157668597049,0.44031384270502527,0.39810951352270113,0.21786423647622394,0.046534887090890396,0.1545741324921136,0.34104451454609186,0.2227583855954943,0.8030560806553251,0.03459596210016086,0.7205419029615626,0.850346565847511,0.8037978366907023,0.43283771610555094,0.03847989520047001,0.3330300272975433,0.495221110100091,0.4345377097848325,0.6082927831290134,0.01982067836885669,0.5692854640980735,0.6764448336252189,0.6086142722481375,0.6156581671246808,0.031235558902305317,0.5207391030182246,0.6639101461234848,0.6164467321972582,0.526975743348983,0.044766821913231385,0.352112676056338,0.6807511737089202,0.5288659113023415,0.5011424731182793,0.04934541446827556,0.29838709677419356,0.7580645161290323,0.5035559577486038,0.5603157121879606,0.021545979972751764,0.49779735682819387,0.643171806167401,0.5607280912252677,0.47818287037037094,0.009264887197880291,0.4444444444444444,0.5138888888888888,0.4782722425476316,0.5224242424242426,0.01193208610010327,0.4545454545454545,0.5757575757575757,0.5225599205099982,0.5788194444444442,0.01757676266082311,0.49404761904761896,0.6547619047619047,0.5790851445097146,0.5677269345238096,0.02696566717383602,0.5,0.78125,0.5683643106405493,0.4941601049868763,0.03337159234622235,0.35433070866141736,0.6181102362204725,0.49528096296257035,0.8025229537515416,0.02829415029573804,0.7328161293647282,0.8456483020756091,0.8030194982544339,0.4554229803971626,0.07583926098476522,0.3071563102937975,0.5358635115195807,0.46166840871734466,0.7106523897592404,0.6982593547119924,1.0,0.8603414670980694,-0.17148795349868837,-0.5836851589561572
25,0.07118877551020404,0.015834031915097947,0.039999999999999925,0.09214285714285708,0.07291616756736027,0.28399600399600405,0.06041494325857675,0.1825174825174825,0.37622377622377623,0.29030608755833676,0.28890255439924306,0.078143913596609,0.17615894039735103,0.49933774834437084,0.29921152972260845,0.6464285714285715,0.027216336315113065,0.6095571095571096,0.7156177156177157,0.6469971684640058,0.400560433401831,0.019087110890885658,0.36353446665421263,0.4371380534279844,0.401011691025596,0.23380651945320713,0.05092966370840069,0.15141955835962145,0.35576586049772174,0.23925047925243645,0.7848928796471331,0.025313187011555927,0.7394454946439823,0.8333333333333333,0.7852980409491784,0.4363542831145198,0.04248091107351088,0.3314358507734304,0.49738307552320293,0.43840255245540055,0.6049739054290718,0.031078691508606496,0.5395131348511383,0.7170525394045534,0.6057659714253918,0.6121871701823122,0.04002277012251499,0.5332689777584019,0.6983332425089331,0.6134847283164239,0.5349094567404424,0.03964231953306001,0.40375586854460094,0.7089201877934272,0.5363659341456192,0.5029665898617512,0.03267101483709061,0.42338709677419356,0.6088709677419355,0.5040190090424573,0.5602265575833864,0.03616492215286374,0.46696035242290757,0.7268722466960353,0.5613843204630927,0.4785052910052914,0.009409116196268573,0.44907407407407407,0.5,0.47859712976576413,0.5230303030303027,0.012543336429904081,0.4606060606060606,0.5636363636363636,0.5231796148105095,0.5784863945578221,0.015088661970213408,0.5178571428571428,0.6488095238095237,0.5786817348167824,0.5683673469387756,0.020264882297137896,0.5044642857142857,0.6428571428571428,0.5687259209813319,0.4985095613048368,0.020287434178435405,0.43700787401574803,0.5708661417322834,0.4989192548307247,0.8202672244632161,0.0214001242861051,0.7774763877347859,0.8618734443229537,0.8205443398544625,0.40876317467772044,0.062156449870169606,0.3076073683931289,0.5103197781956188,0.4134285444251482,0.6923691811367946,0.8443882382786962,1.0,0.8879223435095686,0.029466630023573755,-0.32632169901461044
26,0.060048701298701206,0.010848974077624734,0.04214285714285715,0.0814285714285714,0.06101539162246109,0.2345875715193899,0.05442461374464183,0.13636363636363635,0.3384615384615385,0.24078317534236485,0.33561860325105336,0.09264535541517513,0.20662251655629127,0.5245033112582782,0.3481009060071016,0.7163329095147278,0.07570698007024239,0.5955710955710957,0.8076923076923077,0.7202998115216991,0.40596288402425157,0.01751616569526517,0.3541939099570335,0.4429291985802354,0.4063384500547295,0.2458755536436924,0.05635000198747184,0.16964598668068703,0.3715387311601823,0.2522143314666993,0.7892482242080541,0.03152742127766936,0.7155009451795841,0.8282923755513547,0.7898740976282562,0.4314812329390356,0.04250558286001253,0.33052593266606006,0.5183111919927207,0.43355797014046926,0.6098927917529051,0.03160816886034415,0.5664395796847636,0.7082959719789842,0.6107066539679674,0.6158692947827396,0.04384593424814043,0.484492382427814,0.6823993990019696,0.617419250675173,0.5250746905676482,0.12775157018245223,0.09389671361502344,0.8497652582159625,0.5403065467412898,0.5031616568914956,0.0564135779162706,0.32661290322580644,0.8225806451612903,0.5062964175258299,0.559921906287546,0.029564988649443152,0.4757709251101322,0.696035242290749,0.5606974792901093,0.47653619528619584,0.013595588358103003,0.4212962962962963,0.5092592592592592,0.4767289955658703,0.521418732782369,0.024041572523488736,0.4424242424242424,0.6666666666666666,0.5219695470338479,0.5797145562770561,0.03037780697135595,0.45833333333333326,0.7202380952380951,0.5805054131278072,0.5664823457792207,0.039865487751452516,0.4330357142857143,0.7633928571428571,0.5678754047528612,0.502930386542591,0.09850817394026415,0.2125984251968504,0.7716535433070866,0.5124331160950192,0.8521767174739218,0.022738497779646264,0.7944088540201242,0.8709833126398143,0.852478304335491,0.4348200133706058,0.06650438463367611,0.33711777963492545,0.5482216056530529,0.4398478685513506,0.5552861656706398,0.470129518967439,1.0,0.7748465504342348,-0.2389370657656336,-0.6926460079346966
27,0.024803767660910518,0.0144507304169958,0.0035714285714285587,0.04571428571428571,0.028686287966393838,0.24122031814339515,0.04664081835462781,0.10629370629370627,0.2979020979020979,0.24566370359069703,0.3759551706571573,0.08919071682780982,0.2728476821192053,0.6357615894039735,0.38633349014677537,0.8491572530034066,0.10983981154511627,0.7086247086247086,1.0,0.8561930474521968,0.3914658104831839,0.011720199677422934,0.35550158789463854,0.4188305623015132,0.3916402547179418,0.21385817127142037,0.026985167452518957,0.14160532772520157,0.29828250963897657,0.21554469510323873,0.7662117340756284,0.010666827259635917,0.7347195967233774,0.7898550724637681,0.7662855717469295,0.4155767180953712,0.03147940800601321,0.363852593266606,0.49010373066424023,0.4167607430575965,0.6158836242566541,0.023321470978634087,0.5779334500875656,0.6799474605954465,0.6163225950944711,0.6118155479624265,0.0256680843539589,0.5487182082162347,0.6695055779156578,0.6123507942552006,0.5251767012330383,0.036761648324829845,0.3427230046948357,0.676056338028169,0.5264547092843047,0.5001107763204533,0.05017244675330897,0.3467741935483871,0.6693548387096774,0.5026074331194933,0.5601975117393632,0.02504678244810887,0.5110132158590309,0.656387665198238,0.5607540874034673,0.47812372812372866,0.005822240341044482,0.46759259259259256,0.4907407407407407,0.47815898153451253,0.5226440226440227,0.008119176079833751,0.5030303030303029,0.5393939393939393,0.5227067373033685,0.5794740973312388,0.008318456784327145,0.5595238095238094,0.6071428571428571,0.5795334727169359,0.5679454474097336,0.009274622786038175,0.5267857142857143,0.6116071428571428,0.568020754225972,0.4975123301894958,0.025085425635271,0.3779527559055118,0.5787401574803149,0.4981408833806685,0.908785272021896,0.04818734393741787,0.8503334837107992,0.9939577426198396,0.9100549062597101,0.34708952650899155,0.023713001483581478,0.30092316536675895,0.43844557890479957,0.3478941739319239,0.20318297184563153,0.33841333733215045,1.0,0.8767862988589631,-0.250953172487367,-0.4811112298196409
28,0.03716964285714282,0.025597344033525312,0.0,0.0892857142857143,0.04504016065056349,0.1318531468531468,0.08720189887507064,0.0,0.24405594405594408,0.1577795023534516,0.5968708609271525,0.22394021851792387,0.2794701986754967,0.8635761589403974,0.6370064213376522,0.8745337995337993,0.02462792106660022,0.8356643356643357,0.9184149184149185,0.8748761737193933,0.42130814496544,0.023895853365819373,0.3741827012889969,0.4539510554829068,0.42197680881145583,0.32974500525762357,0.10944951868378444,0.1657903960743078,0.46757798808272,0.3472192760608358,0.790863264020164,0.03517305289639655,0.7274732199117833,0.869880277252678,0.7916352580141023,0.4746565514103729,0.05770803544754072,0.3694267515923567,0.5582347588717016,0.4781081796362226,0.5642900612959721,0.030313944477281706,0.5121488616462346,0.6386812609457092,0.5650935513849112,0.6534841537371645,0.035756236880381556,0.6017531704203093,0.7250940032541084,0.654449437546917,0.525880281690141,0.01805975209764129,0.48826291079812206,0.596244131455399,0.5261864198012499,0.5041330645161292,0.03029700987578084,0.42338709677419356,0.5725806451612903,0.5050312680277765,0.5628303964757704,0.021424253358313525,0.5022026431718062,0.6255506607929516,0.5632329148284352,0.47905092592592596,0.0074750413834245135,0.46759259259259256,0.49537037037037035,0.479108513200428,0.5229545454545454,0.008581495164463446,0.5030303030303029,0.5454545454545454,0.523024070330503,0.579389880952381,0.009420768971449904,0.5535714285714285,0.6011904761904762,0.5794655085955741,0.5693080357142857,0.011627880869026063,0.5401785714285714,0.625,0.5694252866243242,0.496948818897638,0.00835693908175128,0.47244094488188976,0.5196850393700787,0.4970182029404838,0.9526787416519967,0.046000094965161435,0.8778336378908738,1.0000000000000002,0.9537747865315085,0.4567994082093568,0.08860558574328296,0.3452104064318629,0.6379951541877258,0.46520803119950244,0.9390696224851046,0.9506941411701871,1.0,0.9368000734997455,0.2383633787211127,0.3358565023481284
