,Orientation X,Orientation X,Orientation X,Orientation X,Orientation X,Orientation Y,Orientation Y,Orientation Y,Orientation Y,Orientation Y,Orientation Z,Orientation Z,Orientation Z,Orientation Z,Orientation Z,Orientation W,Orientation W,Orientation W,Orientation W,Orientation W,Accelerometer X,Accelerometer X,Accelerometer X,Accelerometer X,Accelerometer X,Accelerometer Y,Accelerometer Y,Accelerometer Y,Accelerometer Y,Accelerometer Y,Accelerometer Z,Accelerometer Z,Accelerometer Z,Accelerometer Z,Accelerometer Z,Gyroscope X,Gyroscope X,Gyroscope X,Gyroscope X,Gyroscope X,Gyroscope Y,Gyroscope Y,Gyroscope Y,Gyroscope Y,Gyroscope Y,Gyroscope Z,Gyroscope Z,Gyroscope Z,Gyroscope Z,Gyroscope Z,EMG1,EMG1,EMG1,EMG1,EMG1,EMG2,EMG2,EMG2,EMG2,EMG2,EMG3,EMG3,EMG3,EMG3,EMG3,EMG4,EMG4,EMG4,EMG4,EMG4,EMG5,EMG5,EMG5,EMG5,EMG5,EMG6,EMG6,EMG6,EMG6,EMG6,EMG7,EMG7,EMG7,EMG7,EMG7,EMG8,EMG8,EMG8,EMG8,EMG8,Roll,Roll,Roll,Roll,Roll,Yaw,Yaw,Yaw,Yaw,Yaw,Accelerometer X vs Roll,Accelerometer Y vs Roll,Accelerometer Z vs Roll,Accelerometer X vs Accelerometer Y,Accelerometer X vs Accelerometer Z,Accelerometer X vs Accelerometer Z
,mean,std,amin,amax,RMS,mean,std,amin,amax,RMS,mean,std,amin,amax,RMS,mean,std,amin,amax,RMS,mean,std,amin,amax,RMS,mean,std,amin,amax,RMS,mean,std,amin,amax,RMS,mean,std,amin,amax,RMS,mean,std,amin,amax,RMS,mean,std,amin,amax,RMS,mean,std,amin,amax,RMS,mean,std,amin,amax,RMS,mean,std,amin,amax,RMS,mean,std,amin,amax,RMS,mean,std,amin,amax,RMS,mean,std,amin,amax,RMS,mean,std,amin,amax,RMS,mean,std,amin,amax,RMS,mean,std,amin,amax,RMS,mean,std,amin,amax,RMS,corr, corr, corr, corr, corr, corr
0,0.04569465229681709,0.0560026160272709,0.008213552361396426,0.24537987679671458,0.07223840987030974,0.6525423728813565,0.11634787453623784,0.319047619047619,0.9174603174603173,0.6628143655882504,0.33197991910989344,0.13998143959285023,0.04363974001857013,0.4215413184772516,0.36023404672701714,0.09646425632248323,0.010546815950030902,0.0790884718498659,0.13337801608579086,0.09703802652470386,0.42452961692298075,0.1487227447693161,0.0,1.0,0.44978016420911654,0.8671767625746739,0.15062744787389298,0.0,0.9966887417218544,0.8801371697010653,0.28640763432364885,0.13624486009938064,0.0,1.0,0.3171072956750554,0.48691131422420464,0.08497988750196822,0.2341750944315828,1.0,0.49425763447279547,0.38527197702534965,0.08526937581900217,0.13277052954719876,1.0,0.3945778376354535,0.6095459141652527,0.09270000666996378,0.0,1.0,0.616541425606987,0.3913626352580678,0.03207338509740249,0.2768361581920904,0.615819209039548,0.39267222592867934,0.6642063058137422,0.05356414502458259,0.0,0.913978494623656,0.6663585604464312,0.5672944130571245,0.05573854576906761,0.0,0.9833333333333333,0.5700209520273416,0.353321086501911,0.048087492520564566,0.0,1.0,0.3565723521089142,0.5002621764336621,0.04309161701382202,0.21176470588235297,0.9294117647058824,0.5021111785887812,0.4420679759662815,0.05098583857379236,0.0,0.9999999999999999,0.44499298368042767,0.4885315563281662,0.07443587052555325,0.0,1.0,0.4941592313093642,0.4970422067131939,0.07801715964223564,0.0,1.0,0.503116457476835,0.8367423214984674,0.019722498311418365,0.7766752168122343,0.85332462858679,0.8369742869345986,0.14673371125068368,0.2521959614567675,0.0,0.8838786865613715,0.2915712703654638,-0.8456491223682262,0.7329052985425457,1.0,-0.5377382276774193,0.7909755243626946,-0.7766021206912289
1,0.20324154513066223,0.027308701724697158,0.15605749486652987,0.242299794661191,0.2050524732733927,0.5321530321530313,0.0644310539359324,0.4746031746031745,0.657142857142857,0.5360062766661227,0.09373933607916897,0.05313115291983092,0.00371402042711233,0.1522748375116063,0.10763760970415504,0.03700648472766433,0.022683591749589404,0.0,0.08042895442359249,0.04335467014276218,0.6955806026803003,0.040809226475945225,0.5913897280966767,0.809667673716012,0.6967664843136072,0.7344823682572028,0.07305207714607413,0.6172185430463577,0.8741721854304637,0.7380754319439049,0.49463274925016354,0.04076811455882331,0.42084432717678105,0.6042216358839051,0.496295668258862,0.46212612044752277,0.09858548125615588,0.26130132813451934,0.7486901425612281,0.47243685197947816,0.3538903910108824,0.08612268702987623,0.21910667689946275,0.5874873369148119,0.364132025379253,0.5808390231217454,0.10214620379573391,0.40576285858220346,0.8527710963054415,0.589676724614296,0.39127915399101837,0.040101837735815785,0.2768361581920904,0.5028248587570622,0.39331131283343634,0.670113041080783,0.04292644185170917,0.5483870967741936,0.8172043010752689,0.6714748080456304,0.571937321937322,0.03926403723471667,0.4666666666666666,0.7083333333333333,0.5732720019538035,0.3521052907555975,0.02943283395654784,0.26993865030674846,0.4723926380368098,0.35332283154377053,0.48862074744427664,0.13529564611836126,0.0,0.9411764705882353,0.5068517480027873,0.4424094424094422,0.03625605989282062,0.369047619047619,0.5476190476190476,0.4438799179431202,0.4902476440937977,0.07730251196089809,0.20512820512820507,0.6666666666666666,0.4962533191032636,0.49341377576671686,0.12860466596027328,0.13725490196078433,0.9725490196078431,0.509759702095339,0.76560306482596,0.01604628857024471,0.7354703864444425,0.7916131610999031,0.7657697666630351,0.6051361420259435,0.04699532796265114,0.5209459468509001,0.7025845030036038,0.6069426946985155,0.04299602884363906,0.26862487781403355,1.0,0.4367489185897955,-0.03086937702594254,-0.6641842481980521
2,0.20204853756730104,0.017309087145059868,0.16632443531827523,0.2227926078028748,0.20278278265263677,0.515335583052118,0.14197231936077645,0.37142857142857133,0.7460317460317459,0.5343858090039264,0.08604391024938036,0.04437254308111728,0.0,0.12813370473537605,0.09673145167468289,0.048273205125498694,0.010010070854964854,0.028150134048257336,0.06501340482573725,0.04929213794587407,0.7024347598544132,0.06425856893732843,0.5249244712990936,0.8376132930513596,0.7053447684882508,0.7199979141680138,0.09777651311946825,0.56158940397351,0.8476821192052981,0.7265548605524954,0.5193058816196789,0.03436852496334055,0.4360158311345647,0.5864116094986808,0.5204329865034641,0.4556396426518942,0.0850176538900771,0.2722523455586694,0.6247029974412086,0.4634420913463663,0.3894253479251393,0.06662276585253692,0.21258633921719108,0.5560276285495012,0.39503891578657063,0.5953055251860734,0.1042662681511573,0.36274363722798136,0.7853650922043183,0.6042967160145147,0.3904088260153923,0.03620968279709328,0.25988700564971756,0.4745762711864407,0.3920712545100584,0.6686140038946741,0.03370257593466132,0.5376344086021506,0.7795698924731184,0.669456201719449,0.5698162729658794,0.03504106204705011,0.49166666666666664,0.6666666666666666,0.5708842200051762,0.35128737742138083,0.020598533723417835,0.294478527607362,0.4110429447852761,0.3518860329502726,0.49396325459317564,0.0941505824399408,0.12549019607843137,0.8941176470588235,0.5027864667738489,0.44160104986876586,0.032323025712121624,0.369047619047619,0.5119047619047619,0.44277312321100426,0.4948516050878254,0.07211358415913155,0.23076923076923073,0.6666666666666666,0.5000375308821453,0.49887293500077196,0.08163938777803362,0.18823529411764706,0.8862745098039215,0.5054569365234749,0.7698368047086461,0.015132309515627369,0.7369636369277333,0.7853026504882719,0.7699843437562185,0.6371552780143633,0.06902353057496545,0.5357466802646806,0.7316575953360749,0.6408537916815363,0.7237820134713089,0.8189714474454582,1.0,0.9122867234917823,0.4641671977800204,0.4041130817218908
3,0.124770344753053,0.03374287418326424,0.09445585215605745,0.20533880903490764,0.1292235652649995,0.4270363408521301,0.14657625641706581,0.3031746031746031,0.7222222222222221,0.45133500784663905,0.14507892293407618,0.07048731650821687,0.0018570102135562205,0.22469823584029713,0.16119450493001425,0.12270265979963309,0.03644491973617585,0.038873994638069675,0.1601876675603217,0.1279665445611126,0.6991970106535225,0.058770864085802725,0.5317220543806647,0.8345921450151055,0.7016464568376554,0.7301585918438482,0.093181672107947,0.5801324503311259,0.8728476821192054,0.7360416220690295,0.5078114150812388,0.027832755696139775,0.42348284960422167,0.5804749340369393,0.5085685785752195,0.4426382995821923,0.10786400442207615,0.1853867125624467,0.706333008407457,0.45550715032815087,0.3946788787009735,0.1034401764742752,0.23177283192632386,0.726016884113584,0.40792265629576235,0.6157938055936146,0.08571146465429846,0.4722819415767329,0.87893172126553,0.6216913496573067,0.39161462979482586,0.03547320605960061,0.2824858757062147,0.5310734463276836,0.393207436361435,0.6681522354272779,0.04415794284017652,0.5215053763440861,0.8440860215053765,0.6696002577475089,0.5675986842105263,0.04012660865708741,0.44166666666666665,0.7666666666666666,0.5690059911656961,0.3494914433322575,0.017141567364415324,0.294478527607362,0.4110429447852761,0.34990880123276225,0.4995872033023736,0.06956823817518083,0.06666666666666665,0.807843137254902,0.5043761226238904,0.44110275689223033,0.02846972443263925,0.369047619047619,0.5595238095238094,0.4420145189295302,0.4907219973009445,0.06864048663009416,0.30769230769230765,0.7692307692307692,0.4954680597388607,0.49855521155830773,0.09174795018540073,0.01568627450980392,0.9843137254901961,0.5068723762641085,0.820514430122701,0.03387456882814326,0.7469365260238641,0.844486781753689,0.8212087841713301,0.6244704829601827,0.04321230940400083,0.5334386883423967,0.6960271585748923,0.6259539942199372,0.7363374207785507,0.8249366162244165,1.0,0.6776622376027576,0.32058795120999084,-0.14453673477024417
4,0.10160904837243748,0.022100970355584903,0.06570841889117052,0.1427104722792608,0.1039720272974023,0.3626854020296643,0.12307574027027698,0.24285714285714277,0.6190476190476191,0.3828910611534453,0.16655250620271844,0.07066958748693307,0.01764159702878365,0.23026926648096566,0.18084976433213196,0.16138897434770505,0.024462526047135814,0.11796246648793568,0.20576407506702413,0.1632223826357821,0.7128629917620064,0.05550772986760356,0.5740181268882174,0.8240181268882174,0.7150090324204199,0.7442478196359423,0.09838337467970658,0.5609271523178809,0.9344370860927154,0.7506871606467042,0.5237935608518245,0.03425671618580941,0.4294195250659631,0.679419525065963,0.5249064719565238,0.45876383515072083,0.1004222740803748,0.23322316315340563,0.7125167539904959,0.469567654644994,0.37478870534160347,0.07841820110356781,0.13584036838066,0.5755947812739831,0.38286079005210116,0.5970059637156797,0.11440129317186279,0.36806516386754373,0.8736101946259677,0.6078093939272732,0.3913124015930347,0.03454762380718046,0.24293785310734464,0.5649717514124294,0.3928261853338694,0.6681649920676889,0.038255511185656225,0.5430107526881721,0.7741935483870969,0.6692532731184956,0.5691712204007289,0.04451984861319174,0.42499999999999993,0.7916666666666666,0.5709002227705304,0.3513024238157502,0.02469700352534947,0.26993865030674846,0.4723926380368098,0.3521647369423159,0.5003964427300974,0.0874234865280193,0.16470588235294115,1.0,0.5079347414762911,0.44424928441321865,0.030101638748677717,0.369047619047619,0.5595238095238094,0.4452623765192785,0.4927840829480176,0.06813882799161784,0.30769230769230765,0.8205128205128205,0.49744716427917607,0.5021322190078218,0.11866458281684897,0.0,1.0,0.5158886524028234,0.8437905493851069,0.02547316409269709,0.7886765267130924,0.8753037041777254,0.8441728658969971,0.65328701321927,0.04360193139184679,0.5728871896730721,0.7586742418258046,0.6547325113221102,0.668621665683942,0.7665999219618349,1.0,0.7484602663286142,0.1791773875707598,-0.07791276756608619
5,0.11492025752265671,0.031195538634495628,0.06878850102669398,0.1652977412731007,0.11904835242466813,0.431614751163623,0.06809635512638221,0.3587301587301588,0.5809523809523809,0.43691365449924374,0.13315321730510124,0.05196047967778244,0.027855153203342642,0.18941504178272983,0.14286136913575656,0.13308069100364853,0.039035565000799716,0.0663538873994638,0.18833780160857908,0.13864627184145537,0.6927969470504054,0.048315645151403526,0.5483383685800604,0.7885196374622356,0.6944670327072997,0.712831748244784,0.09039955999737687,0.5596026490066226,0.8821192052980134,0.7184982515911518,0.5042702402444105,0.029540957314308062,0.4360158311345647,0.5943271767810027,0.5051282826574569,0.47479340371459894,0.10206164207506901,0.24511849640550748,0.6694437675155355,0.48555847727408447,0.36555308455328644,0.08331641321543197,0.23023791250959325,0.6435180353031467,0.3748579593266043,0.5634776504683665,0.10262836908047712,0.37605454919574,0.8669618340109411,0.5726783149120899,0.3902552992651118,0.03420808109260174,0.2994350282485876,0.5084745762711864,0.39174046634773946,0.6648880265179076,0.04267198066382406,0.5430107526881721,0.838709677419355,0.6662456714896867,0.5699248120300755,0.036480741114892974,0.4833333333333333,0.6749999999999999,0.5710824191746692,0.3513077171456251,0.015874492218789543,0.31288343558282206,0.39263803680981596,0.35166349952215387,0.5030517470145954,0.04797667332743878,0.37254901960784315,0.7372549019607844,0.5053172418223426,0.4423558897243104,0.035346899016462,0.13095238095238093,0.5238095238095237,0.4437552731340969,0.49816849816849823,0.06837259953460932,0.30769230769230765,0.6923076923076923,0.5028036554853302,0.4956803774141235,0.07736641795598452,0.05098039215686273,0.7725490196078431,0.5016369154582498,0.8240779494606093,0.019443625343262366,0.7995065105964125,0.8570306037473358,0.8243055737031958,0.6151823263680223,0.026430198402311783,0.5692615704686688,0.6780135931629454,0.6157455625231983,0.0035242046715928095,-0.19968922882733886,1.0,0.6499141884878307,-0.25169781141966996,-0.5485017127141351
6,0.13867826047055848,0.023324551676433707,0.08932238193018482,0.1724845995893225,0.14061527419873626,0.34255564423162205,0.15616717776697672,0.203174603174603,0.6539682539682539,0.37629285131343554,0.1455366915132558,0.056896824172566154,0.01949860724233987,0.22376973073351905,0.15620528797013827,0.1343964832926445,0.011558448234940339,0.11394101876675605,0.15683646112600536,0.13488982945730538,0.7307254130871401,0.08496394557617842,0.552870090634441,0.9410876132930512,0.7356209434791277,0.7625550334825558,0.1275446381187128,0.5390728476821193,0.9874172185430464,0.7730892142318128,0.5606860158311343,0.053399280197144246,0.4505277044854881,0.7427440633245382,0.5632089855469612,0.4590138170644628,0.0840963736219122,0.24035884001462166,0.6339862312659924,0.4666115888133541,0.3790630817580397,0.11559991742633496,0.0,0.6281688411358404,0.3962038683873162,0.591840571580717,0.1446177486592412,0.246564067633056,0.9689577612692196,0.609157381773618,0.3926711485654764,0.03979831337565648,0.23728813559322037,0.5706214689265536,0.3946716204996458,0.6650747882501354,0.0381216565428204,0.5698924731182796,0.8172043010752689,0.6661603529846877,0.5662942271880821,0.037806397350115054,0.44999999999999996,0.7916666666666666,0.5675477868678958,0.349624704390445,0.01750987513199718,0.26993865030674846,0.39877300613496935,0.35006044738295217,0.4983240223463688,0.033857389064298575,0.29411764705882354,0.6627450980392157,0.49946646534453,0.443335993615323,0.04894383762305154,0.2738095238095238,0.8333333333333333,0.44601448384422676,0.49362555507806916,0.0683736205432567,0.20512820512820507,0.6923076923076923,0.498312174808245,0.5022017745645742,0.13405978764754437,0.0,1.0,0.5196905296965819,0.8271030105595312,0.01316208331264865,0.791970549464842,0.8378945112169521,0.8272071461792975,0.7073134256624705,0.09952384700881188,0.5276707439471668,0.8451123116989647,0.7142422159687414,0.6920465190577674,0.7636250587345847,1.0,0.8354311127460582,0.5178384428488741,0.4799011301441867
7,0.0642069753439039,0.013482107589673177,0.0420944558521561,0.10266940451745377,0.06560197841863959,0.25840195727413806,0.12531099104610227,0.15396825396825387,0.5904761904761904,0.28708079481245,0.2377217416801054,0.08100993720611903,0.030640668523676917,0.3156917363045497,0.2510967242472,0.2448446854401418,0.032920746029162645,0.1581769436997319,0.2855227882037533,0.2470397157611339,0.7302262453717374,0.06250463713170366,0.5430513595166162,0.8648036253776434,0.7328864248729887,0.7674052681372309,0.09621245014615581,0.5264900662251657,0.9099337748344372,0.7733905100233682,0.5450656654829684,0.032732415054902965,0.4485488126649077,0.6391820580474934,0.5460439202324601,0.45908301619468456,0.09224419987098625,0.16492019008163766,0.6939579017911538,0.4682245395907578,0.3752357947824279,0.09781757810322016,0.16384957789716037,0.7286999232540292,0.38772955690771393,0.6185188006735377,0.10891831254469145,0.3126361423898622,0.8665148257732178,0.6280000852726504,0.3909986831485494,0.037446450010355306,0.2824858757062147,0.5593220338983051,0.39278102713349494,0.6669698439647502,0.037063687108665484,0.5645161290322581,0.8225806451612904,0.667995003956764,0.569548872180451,0.03763229790596623,0.41666666666666663,0.6916666666666667,0.5707861102249517,0.35036210157295056,0.018933034482981795,0.294478527607362,0.4294478527607362,0.3508713644915115,0.497936016511868,0.026988134153949975,0.3764705882352941,0.6235294117647059,0.4986641131379336,0.4421768707482988,0.037307754118922454,0.19047619047619047,0.7023809523809523,0.4437420657924429,0.49007133217659576,0.07678776263910966,0.17948717948717946,0.6923076923076923,0.49602833018256076,0.49828984225268996,0.05678597827975578,0.1843137254901961,0.7450980392156863,0.5015030323807425,0.8947881543650552,0.029430468162716234,0.8164118636733748,0.9196737551883826,0.8952702035899872,0.6896780514588944,0.054600457343783354,0.5406071853421031,0.7813422126553533,0.6918278810875683,0.7792487379916904,0.9036607902448547,1.0,0.7767130662089858,0.3031393386628017,-0.007069853075106209
8,0.03888090349075981,0.014891843215106206,0.02053388090349073,0.0728952772073923,0.04162190307553657,0.28494444444444444,0.09700926469370663,0.19999999999999996,0.4904761904761904,0.3009270341278508,0.24273444753946158,0.0953019897378781,0.04735376044568246,0.3259052924791086,0.2606857666311036,0.28210120643431635,0.01937416851802934,0.2406166219839142,0.3163538873994638,0.2827623954585066,0.7036631419939583,0.05691401469101317,0.5687311178247734,0.804380664652568,0.7059495919991143,0.7316490066225169,0.11520106002698252,0.5059602649006624,0.8986754966887418,0.7406181179946243,0.5225164907651709,0.030666891957959432,0.4432717678100264,0.6022427440633246,0.5234111568285481,0.45059592801876464,0.08356034714263473,0.22298799805044472,0.65064122090898,0.45824023208751125,0.3780332770529548,0.06429129958939651,0.22448503453568688,0.5410590943975442,0.3834343006386818,0.595754982722777,0.10388143359919873,0.4328175000177385,0.8864740983560031,0.6046994252721,0.39090395480225965,0.032296073598598256,0.3107344632768362,0.536723163841808,0.3922291716179252,0.6662903225806454,0.03541950440683527,0.5483870967741936,0.7956989247311829,0.6672263952741858,0.5676249999999995,0.03385456690267214,0.4833333333333333,0.6833333333333333,0.5686286500578971,0.34929447852760764,0.01807911650725347,0.3006134969325153,0.4171779141104294,0.3497597073867825,0.4986470588235292,0.04453802414061571,0.3333333333333333,0.7333333333333334,0.5006222195325876,0.4428571428571428,0.03815352086221686,0.3452380952380952,0.619047619047619,0.4444894393323697,0.49551282051282014,0.07931002199765066,0.17948717948717946,0.6923076923076923,0.5017883861588388,0.5003725490196078,0.0600439593806795,0.25098039215686274,0.8431372549019608,0.5039443803488611,0.9122627124082292,0.024681332697336654,0.8554748906858198,0.9372703211791846,0.9125948601615156,0.6430253681411322,0.028372156377331578,0.5616615101865694,0.689047456762722,0.6436478683521382,0.7838541895041438,0.8599032379576325,1.0,0.8806901080080853,-0.40251825475826714,-0.5178381419861965
9,0.0361464750171116,0.01633741028001394,0.005133470225872738,0.05852156057494862,0.03964466199026624,0.31534391534391537,0.06074227248125482,0.2587301587301587,0.446031746031746,0.3211024931692517,0.224822036521201,0.0795822789401882,0.07428040854224699,0.3017641597028784,0.2384031563676232,0.27256478999106337,0.03914948075330677,0.21246648793565684,0.3331099195710456,0.27534347405952986,0.6864501510574021,0.052694920727862825,0.5536253776435045,0.7960725075528701,0.68845628246058,0.7138454746136866,0.1149473720074309,0.5211920529801325,0.8675496688741723,0.722980064710624,0.5047185576077398,0.03619226345955847,0.43931398416886547,0.6068601583113457,0.5060058989725988,0.46280644571707086,0.09519120055623898,0.21727641038138173,0.6256549287193858,0.472430695195444,0.368068518802763,0.07240776816878208,0.21296699923254025,0.5966968534151957,0.37507648134600846,0.5674516982765347,0.10626812524725335,0.29178994870048325,0.8226157786812548,0.5772512955587014,0.3919774011299431,0.028355842342617208,0.3163841807909605,0.4632768361581921,0.39299488092456236,0.6691039426523295,0.04714879154066912,0.467741935483871,0.8010752688172044,0.6707520216590326,0.5698333333333335,0.03351001831344825,0.4833333333333333,0.6749999999999999,0.5708112323377694,0.35169734151329274,0.016539872332003974,0.31288343558282206,0.39263803680981596,0.3520834611590903,0.4993464052287581,0.03468993968246237,0.3803921568627451,0.7725490196078431,0.5005419080529503,0.4418253968253963,0.039676759992436895,0.3095238095238095,0.7738095238095237,0.4435915143404571,0.49179487179487175,0.06609834135091278,0.20512820512820507,0.641025641025641,0.496187525083223,0.5007058823529409,0.03800831192771954,0.2823529411764706,0.7176470588235294,0.5021368155392792,0.9055947209202848,0.018225400295042084,0.8763258274812674,0.9380749852243786,0.9057768761344208,0.6103525203365978,0.027644777462261315,0.5614136056645469,0.6761911714086035,0.6109740893938973,0.2236137148464284,0.13640947775504053,1.0,0.8190628761475492,-0.5503039336985083,-0.69606317855073
10,0.0495169488672704,0.02566265280190602,0.0,0.09342915811088304,0.05573958397072221,0.24735016046491476,0.12475142021245814,0.09206349206349196,0.45873015873015865,0.27687537894438385,0.2513610464201815,0.09171118372006602,0.06499535747446611,0.34540389972144847,0.2674833741550235,0.28381605356070266,0.014239419201172946,0.2620643431635389,0.31032171581769435,0.28417108461986135,0.7152113978175088,0.07337122127963527,0.5551359516616314,0.8512084592145013,0.7189445476133166,0.747895632034162,0.13489055482585222,0.5125827814569537,0.9807947019867551,0.759897301906055,0.5472879449803192,0.051982598037863044,0.4340369393139841,0.6800791556728232,0.5497376821278014,0.4535049506252489,0.08246758295093153,0.23393520774948215,0.6230352138418422,0.460901810670312,0.38442202735176034,0.08745191285571063,0.11665387567152724,0.6112847275518035,0.39419074154018996,0.5872400220987786,0.08329848067108919,0.4186267623122389,0.7379183606859803,0.5930864729431531,0.39310302244450585,0.03323633224717699,0.2937853107344633,0.519774011299435,0.39449791339979273,0.6678418238439392,0.03731923706242659,0.5483870967741936,0.7634408602150539,0.6688780281998427,0.567987249544627,0.03170474606780048,0.45833333333333326,0.7083333333333333,0.5688666045057653,0.350598410942372,0.015468437888255806,0.294478527607362,0.39877300613496935,0.3509376167150404,0.4988963891567554,0.023642722264643857,0.3803921568627451,0.5882352941176471,0.49945323194811236,0.4436638043195412,0.02526737397555423,0.369047619047619,0.5119047619047619,0.4443788054202347,0.49670729998598845,0.06575036901791505,0.1538461538461538,0.6666666666666666,0.5010165958606997,0.5000964320154289,0.025473847116872443,0.3333333333333333,0.6039215686274509,0.5007412627371335,0.9149582950775601,0.017908377755208642,0.8704984173583309,0.9314940896061392,0.9151325801278362,0.6817891511245018,0.09632927735922864,0.5273263310940606,0.838893105394311,0.6885238336819401,0.658787014819906,0.754978852445636,1.0,0.8851200165466958,0.47260612332282487,0.40410630452696866
11,0.029926230131568945,0.011385853051847611,0.0030800821355237984,0.054414784394250626,0.03200650976286272,0.22690574172055672,0.10729970918184108,0.12222222222222212,0.4269841269841269,0.2508552847961336,0.3132558432775085,0.12660254067386242,0.08356545961002787,0.44289693593314766,0.33772546117520563,0.38345248733988674,0.045761346532705006,0.29624664879356566,0.43230563002680966,0.3861566836599607,0.7071071575099772,0.07413963669411802,0.5083081570996978,0.8950151057401812,0.7109594135899417,0.7237265963535282,0.11976048803098484,0.5152317880794702,0.9344370860927154,0.7335081637939886,0.5397936414866935,0.033387740087964905,0.4439313984168865,0.6352242744063324,0.5408188564197821,0.44710451650728783,0.12690112143854093,0.1458815645180943,0.6784871146582185,0.4646578704236553,0.3879389822157794,0.11164098236767603,0.13123561013046814,0.7252494244052188,0.40358818911319916,0.61219376804118,0.10532655700978312,0.38536367313054776,0.8257164548699064,0.6211331690640314,0.39314361442421686,0.036318844807595306,0.2824858757062147,0.5254237288135594,0.3948073171996044,0.666135669719899,0.03909314705553089,0.5322580645161291,0.8548387096774195,0.6672747341454304,0.5684670781893002,0.03429914396267317,0.4833333333333333,0.75,0.5694945024670488,0.35060213587820993,0.01701522601390538,0.3006134969325153,0.4110429447852761,0.35101223404752613,0.49929799080125886,0.030227092532013215,0.26666666666666666,0.6431372549019607,0.500206478125656,0.44451793062904155,0.03026165978589642,0.369047619047619,0.5476190476190476,0.44554046484523363,0.4931940487496045,0.07176205708552215,0.20512820512820507,0.6666666666666666,0.4983556698929981,0.49927378358750896,0.04104483886142835,0.27058823529411763,0.6588235294117647,0.500947692402224,0.8006011478730993,0.36020405967175867,0.0002496612007674148,1.0,0.8774441608392102,0.6676216893735419,0.05807767649068757,0.5398850285057499,0.7403012375500815,0.6701275367711674,-0.17751384358097477,-0.2398558223938817,1.0,0.7672397712803457,0.16446603347086824,-0.0901654484851861
12,0.023198797140965694,0.009322019006237584,0.008213552361396426,0.04928131416837789,0.02499218604969918,0.21884812212681085,0.05813194580925832,0.15396825396825387,0.338095238095238,0.22639646073961722,0.3356114688138982,0.11167967566609531,0.1290622098421541,0.4317548746518106,0.35360889841533855,0.4286247967301016,0.029295786272703375,0.36461126005361927,0.47587131367292224,0.4296193310505099,0.7006628365773533,0.05635500327260171,0.5392749244712991,0.804380664652568,0.7029131826790693,0.7126406832410526,0.10925681946502673,0.5158940397350995,0.8841059602649007,0.7209220250583702,0.5263131334976997,0.026446577156769343,0.4591029023746703,0.6015831134564644,0.5269735419927426,0.44685701630155816,0.07666823801651905,0.23203134519312782,0.5944772754965273,0.4533509583287664,0.3802911985372135,0.06500332755693054,0.22755487336914812,0.6826523407521106,0.3857767987875258,0.6025065030218709,0.0819179006062542,0.43636518444411343,0.7853650922043183,0.6080197027996392,0.38859559754252687,0.029324685333846585,0.3050847457627119,0.4745762711864407,0.3896944655613482,0.6660790880780306,0.042118639708100605,0.5376344086021506,0.8225806451612904,0.667402155755414,0.5668488160291435,0.03229798070319286,0.4833333333333333,0.7083333333333333,0.5677631896008188,0.35106775285795744,0.01649582297450673,0.3067484662576687,0.43558282208588955,0.35145297312807394,0.4980177863495121,0.03244893730726513,0.28627450980392155,0.6588235294117647,0.4990680267435395,0.44281811085089745,0.024754249775067825,0.3928571428571428,0.5357142857142857,0.4435056974761327,0.4930643127364441,0.057472284987548417,0.33333333333333326,0.7435897435897435,0.4963843576387168,0.4993464052287581,0.040071112568051646,0.2196078431372549,0.6745098039215687,0.5009428632018134,0.37834844338924845,0.4623030214540216,0.000714212138795578,0.9996548121808486,0.5964090350532285,0.6473531144404725,0.02762949301734173,0.5939621512427795,0.6945463536412231,0.647939250343901,-0.736624330158258,-0.8814968860822681,1.0,0.7936117532825211,-0.2914124829185829,-0.5091713006858978
13,0.026452470105085158,0.009502481589067996,0.012320328542094527,0.052361396303901464,0.028095664813845435,0.20960550887021484,0.05113360657252955,0.14920634920634912,0.2952380952380952,0.21570788055532708,0.31883909552679035,0.09859315364963693,0.1559888579387187,0.4215413184772516,0.33362779217233374,0.41606706355464423,0.025604811405754973,0.3706434316353887,0.4597855227882037,0.4168483982301676,0.699523502754576,0.06890636293240573,0.5294561933534743,0.8421450151057401,0.702884275934009,0.7075233735878458,0.13006619701085056,0.4933774834437087,0.8841059602649007,0.7192928113687634,0.5362311811268043,0.028829497569049005,0.47229551451187335,0.616754617414248,0.5369999145434904,0.46907108082053334,0.09800943354151401,0.2341750944315828,0.6323184476666259,0.4791272239000416,0.3682538485847142,0.07563147826182365,0.23829930928626247,0.6108979278587874,0.37588423456156467,0.5654444476443169,0.1340877982031932,0.2656293237403947,0.8217288575746611,0.5810118402547536,0.39078597540711174,0.03761801960137624,0.3107344632768362,0.5932203389830508,0.3925791496161413,0.6663899430740042,0.049193770808772096,0.5161290322580646,0.8064516129032259,0.6681899348237358,0.5703431372549022,0.039723383897573794,0.44999999999999996,0.7666666666666666,0.5717146481321681,0.35154276434500203,0.017580884700436658,0.27607361963190186,0.39877300613496935,0.3519788771615697,0.5000288350634369,0.022846523783140886,0.4,0.5647058823529412,0.500546662735718,0.44336484593837494,0.028560268379217744,0.29761904761904756,0.5357142857142857,0.4442770282505416,0.4950980392156861,0.06890922521420913,0.17948717948717946,0.7179487179487178,0.49983560742610056,0.4994809688581314,0.02764248512992448,0.3686274509803922,0.6313725490196078,0.5002396693605065,0.9827754806655721,0.012547218767535456,0.9530988278980832,0.9987790039367389,0.982854984472721,0.6565516730479005,0.036362599026344415,0.5846139436718325,0.703692520984379,0.6575504662360465,0.5631337801877778,0.6068082547062276,1.0,0.8644221666407769,-0.14459328933693294,-0.2809640906006921
14,0.04978532760873624,0.024585195493476583,0.005133470225872738,0.08418891170431209,0.055491868407041144,0.14025012025012049,0.10690851352859092,0.01904761904761909,0.30634920634920626,0.17615407239326983,0.3565515883064629,0.10491138157414985,0.17641597028783662,0.4531104921077066,0.3715760052335623,0.4243277276789342,0.015661502920129546,0.39343163538873993,0.45241286863270774,0.4246149038708204,0.732655863773688,0.0887788822846927,0.5460725075528701,0.9048338368580058,0.7379827483375695,0.7470038129640784,0.13026968332432776,0.5350993377483444,0.980132450331126,0.7582097581392262,0.5877348684736549,0.058135935774554365,0.46437994722955145,0.695910290237467,0.5905857931667333,0.4601745645808639,0.08724713062832092,0.25654167174363346,0.6325545266236139,0.46832313415222926,0.39977454359403714,0.1095851632100226,0.13929086722947043,0.701458173445894,0.4144343282608324,0.5971039284477204,0.12306889093656155,0.25942087599423863,0.8088720492134784,0.6095795761310232,0.3897962677623692,0.042077871431462854,0.25988700564971756,0.5028248587570622,0.3920471234892504,0.6677745193874225,0.04981394566948738,0.5430107526881721,0.870967741935484,0.6696186966935136,0.568232323232323,0.043715751972466285,0.45833333333333326,0.725,0.5699012703200949,0.3509202453987734,0.022956952766401778,0.2638036809815951,0.4662576687116564,0.35166581613836734,0.49946524064171105,0.023152127883065303,0.44705882352941173,0.592156862745098,0.499998299019627,0.4443001443001438,0.03160626325595384,0.3095238095238095,0.5714285714285714,0.44541611985208956,0.49432789432789437,0.08402621835980734,0.17948717948717946,0.7435897435897435,0.5013757893505754,0.49841948900772437,0.13039510483244407,0.0,1.0,0.5150939939554915,0.41025042596189687,0.47914893379247636,0.0,0.9998356643020606,0.6296806304692689,0.7463207193528772,0.11330322936401548,0.5702361590602065,0.8901824934188194,0.7548207960511693,-0.6878366144653703,-0.7127379691533721,1.0,0.7884142967903816,0.7255277701390315,0.7066394195700301
15,0.060168461635167377,0.022234368552144022,0.002053388090349051,0.09753593429158114,0.06412950253490134,0.15319727891156476,0.05782413292315064,0.09047619047619038,0.2936507936507936,0.16370518972657053,0.4506736399295096,0.11435551339877616,0.20798514391829157,0.5533890436397401,0.46489841569213036,0.5289051813754991,0.037371859616627985,0.4403485254691689,0.5884718498659517,0.5302184890597121,0.7302916332696218,0.07365686104890971,0.566465256797583,0.9720543806646524,0.7339816473087941,0.7474712799026896,0.10458432762323983,0.5211920529801325,0.9245033112582782,0.7547228308784227,0.5600156157449788,0.03492627972509293,0.4604221635883905,0.6358839050131926,0.5610992389358734,0.4567317471645658,0.08263416023117165,0.2394069087364445,0.6815827951748507,0.46411681963336443,0.38740408789763064,0.10571876216219117,0.0771327705295472,0.6722947045280123,0.4015130954307697,0.6182183876339015,0.12302625601578909,0.3055407735371124,0.8470025614281559,0.6302917238005891,0.39082209154848363,0.04917794338498976,0.192090395480226,0.5988700564971752,0.39389149019915937,0.6692780337941632,0.04623778893908047,0.5752688172043011,0.8655913978494625,0.6708668223930131,0.5689795918367347,0.04211212201273639,0.45833333333333326,0.75,0.5705295507280651,0.3510204081632654,0.020869596226377837,0.27607361963190186,0.5030674846625767,0.3516377244825718,0.49914365746298545,0.028484877825331874,0.34901960784313724,0.7176470588235294,0.4999524650018383,0.4431000971817294,0.044648373060118755,0.1547619047619047,0.7142857142857142,0.4453347467890553,0.4892726321297749,0.07208341679831529,0.1282051282051282,0.7435897435897435,0.4945326271216022,0.4979431772709081,0.04460822502139565,0.3764705882352941,0.6862745098039216,0.4999291744986916,0.19882955632705993,0.32783009572183963,0.0007843606554036042,0.9998207207765801,0.3828408292912425,0.7092913000102734,0.06594712765083878,0.5490548433690421,0.7949808079732177,0.7123379961778953,-0.5892734361805696,-0.6940490528569275,1.0,0.7912024140126332,0.41836952897601687,0.28482474499168725
16,0.07338443510326069,0.015589395575036778,0.037987679671458,0.10266940451745377,0.07501354654558327,0.14283221141859906,0.04292314495627488,0.06666666666666654,0.2238095238095238,0.1491099961013886,0.46740752623877646,0.10793854807771884,0.25441039925719594,0.5812441968430827,0.4796452096691341,0.5592619625787795,0.01608332815817266,0.5214477211796247,0.5831099195710456,0.5594919677000585,0.7293185808512989,0.06791615681337076,0.5626888217522659,0.8444108761329305,0.7324575393633573,0.7405880517319093,0.11514288428214427,0.513907284768212,1.0,0.7494392124546755,0.5665950627857822,0.049022247387091905,0.4261213720316623,0.6992084432717678,0.5687007682551488,0.4580203888329271,0.10407303833508069,0.210136925795053,0.6818188741318386,0.46963514141900664,0.3822753934737799,0.08273939525649428,0.1830422102839601,0.5970836531082118,0.3910811195375151,0.5949695989448631,0.11258710265929624,0.31130221304554523,0.915742494873596,0.6054736275158931,0.3919898245925397,0.05386228564775737,0.18644067796610173,0.615819209039548,0.39565386280710696,0.6693970613072118,0.04190307219718623,0.5537634408602151,0.8064516129032259,0.6707004548402697,0.5701134380453756,0.03930278980307591,0.44999999999999996,0.6833333333333333,0.571459494665237,0.35184530883628323,0.022744709407293923,0.294478527607362,0.4723926380368098,0.35257585661101437,0.49929165383430874,0.021777798616127088,0.44313725490196076,0.5764705882352941,0.4997638892507175,0.4439665918723508,0.030942512787738997,0.3571428571428571,0.5595238095238094,0.4450379321206514,0.49335481272654014,0.08191033495421986,0.20512820512820507,0.7692307692307692,0.5000731416223627,0.49869623241966926,0.05643348077299942,0.18823529411764706,0.7294117647058823,0.501862526955425,0.06766824821150899,0.021943002412010713,0.01621035455864528,0.09245192273055292,0.07111938028962053,0.7160618362640654,0.07041459318890375,0.5687752293811663,0.8199490281049553,0.7194976087849991,0.7599072156420072,0.8483910627883449,1.0,0.77116018488846,0.4387731446008795,0.14227511505931714
17,0.06356605065023958,0.015176184019037767,0.030800821355236097,0.10061601642710483,0.06534082883546852,0.17137566137566138,0.027557016912987342,0.1317460317460316,0.22063492063492063,0.1735625071798257,0.4422222222222222,0.0745322744965999,0.30362116991643456,0.5162488393686165,0.4484177962969942,0.5704468275245757,0.03421454092292234,0.5160857908847185,0.6253351206434317,0.5714651464537002,0.6990735146022148,0.06514886370721869,0.5453172205438066,0.8247734138972809,0.7020825146882806,0.7094172185430466,0.10768972485079915,0.5437086092715233,0.890066225165563,0.7174904549596489,0.5317106420404575,0.03498760844345315,0.44063324538258575,0.5923482849604221,0.5328528677962647,0.484088532147354,0.09067538311814419,0.2929549469964664,0.6708716644328012,0.49245194543174564,0.37278080327449475,0.08109911755025523,0.20491174213353797,0.617424405218726,0.38144298007036137,0.5834989155911275,0.11246975295651122,0.35166067107998616,0.8408012090508525,0.5941684106300047,0.39276836158192047,0.048696351628718035,0.23728813559322037,0.5649717514124294,0.39575562108951534,0.6721146953405017,0.04336554731048796,0.5645161290322581,0.8172043010752689,0.673502930393207,0.5725555555555558,0.03513777435576434,0.49166666666666664,0.6916666666666667,0.5736255715153366,0.35100204498977555,0.017155940434520258,0.31288343558282206,0.4478527607361963,0.351418268881849,0.4997385620915033,0.025322789042473873,0.44313725490196076,0.6431372549019607,0.5003754581597106,0.44547619047619025,0.043028801140124126,0.33333333333333326,0.5952380952380951,0.4475356643038462,0.4943589743589742,0.08114496875756376,0.1282051282051282,0.7179487179487178,0.500930538874961,0.49728104575163407,0.07145105387031037,0.3333333333333333,0.8431372549019608,0.5023541146863988,0.0693069978018953,0.012161796982241967,0.0496405946430295,0.09338851019196881,0.07035895954397191,0.6523112897256363,0.05248774724091206,0.5658758827070118,0.7255716053569816,0.6544055439021585,-0.13620519823634503,-0.14134021542627334,1.0,0.8039675307735964,0.3573257804213376,0.0685407647816308
18,0.10098676705452891,0.021355492505492558,0.06160164271047219,0.1303901437371664,0.10320984839151422,0.0754923574368017,0.05223378518563278,0.0,0.16666666666666663,0.09173239891877809,0.5041438839024727,0.1028709619953926,0.298050139275766,0.5896007428040855,0.5144846914576977,0.5525736024227977,0.012745590486508671,0.5308310991957105,0.5810991957104558,0.5527198965910937,0.7652176345529815,0.07566830453852917,0.5830815709969788,0.9667673716012084,0.7689325150543578,0.7750214618592102,0.11936120828274874,0.5370860927152319,0.9589403973509935,0.7841169591316529,0.6313275676732137,0.054298759050575456,0.525065963060686,0.7697889182058048,0.6336475385779206,0.4619733598858701,0.0684514108116107,0.24892622151821614,0.5882935299134885,0.4669938846643734,0.38088547795685174,0.10474536119980897,0.07828089025326168,0.6354566385264773,0.3949614457259617,0.5919690542057271,0.11471010055874846,0.2864684220609209,0.8505502458545308,0.6029302196404718,0.39037978656622696,0.042051438461728194,0.23728813559322037,0.4915254237288136,0.3926277047706022,0.669056152927121,0.043392487863527826,0.5376344086021506,0.860215053763441,0.670455312907538,0.569945987654321,0.0419700233167819,0.45833333333333326,0.7583333333333333,0.5714820703112587,0.35148261758691235,0.020164279740492303,0.2883435582822086,0.4785276073619632,0.35205787343025097,0.49871096586782854,0.01725544507920478,0.43529411764705883,0.5843137254901961,0.4990080153541623,0.44334215167548474,0.029558903265319434,0.3571428571428571,0.5952380952380951,0.44432189589748033,0.4886039886039885,0.07301404011400268,0.2564102564102564,0.7179487179487178,0.49400427826711196,0.49787581699346395,0.03442162697441411,0.4,0.6352941176470588,0.49905880629560995,0.07053587356585019,0.016457292899858113,0.03043074916403199,0.08470965451266843,0.07242166836572153,0.8221514176373099,0.09398179528854773,0.6567023038596893,0.9352531350407236,0.8274808999636162,0.7287110078745889,0.8550018956196411,1.0,0.7961212128010483,0.6019260453885227,0.6138955792312355
19,0.13905252409645322,0.04737039782157625,0.045174537987679786,0.1919917864476386,0.1468580845593133,0.1484864255356059,0.0368445029423635,0.10793650793650778,0.23809523809523814,0.15296508698901842,0.5459812979791061,0.12106389616438587,0.3249767873723306,0.669452181987001,0.55917077419523,0.6530860399361255,0.04320105113642342,0.564343163538874,0.7050938337801609,0.6545055445522788,0.732504581249071,0.07360019851990217,0.5468277945619335,0.9055891238670695,0.7361727716637212,0.7204755184019109,0.0910847167237808,0.5503311258278146,0.8933774834437087,0.7261790843710828,0.5785284830658765,0.046574464846110955,0.4439313984168865,0.6510554089709762,0.5803899835863333,0.45571956932673074,0.11364345097587414,0.16492019008163766,0.7182283416595588,0.46960045459298044,0.3865564879701737,0.11604083258809579,0.12970069071373752,0.8069808135072909,0.40350689137846696,0.6253291640480684,0.12786591154875085,0.3725068647693651,0.8909087038889717,0.638198176250639,0.38865734308912947,0.07326236122518336,0.12994350282485878,1.0,0.39546500982913735,0.6649333098301895,0.06200811944573633,0.4731182795698925,0.9623655913978495,0.6678025924121485,0.5653916211293262,0.04348467797726081,0.42499999999999993,0.7083333333333333,0.5670522635357843,0.3498608736464519,0.01853291173700184,0.3067484662576687,0.4294478527607362,0.35034871606347584,0.49838208507446696,0.023670126340947555,0.38823529411764707,0.592156862745098,0.49894079407560804,0.4426880041634138,0.03691175660943274,0.2857142857142857,0.5595238095238094,0.444215827692387,0.4874597169679136,0.08388643510104501,0.1538461538461538,0.6923076923076923,0.49458614666120243,0.4957462766527375,0.07724290092280557,0.16470588235294115,0.8941176470588235,0.5016953586790328,0.12303824272091007,0.03832199969265633,0.04817260743071439,0.16124515923648797,0.12883695055644767,0.7352390772493902,0.08131522155723407,0.5702762461916919,0.8235129458993726,0.7396975962654287,0.7445983644863468,0.8083124837804772,1.0,0.7375459182926566,0.5481615790139165,0.30626975805070644
20,0.1729086688688511,0.025598544312916263,0.12012320328542092,0.21252566735112932,0.1747830996030712,0.17329192546583838,0.0338760722835727,0.10158730158730145,0.265079365079365,0.17655436220107829,0.5903072140809814,0.11370773576896363,0.3686165273909007,0.6982358402971216,0.6011004803061175,0.7016224210280925,0.01673756886652294,0.6581769436997318,0.7231903485254692,0.7018209496496413,0.7257610337580449,0.06760860100194137,0.5611782477341389,0.8534743202416917,0.7288862456368235,0.726238122660524,0.10702202730702981,0.5364238410596027,0.9529801324503312,0.734039015779781,0.5695695193300448,0.039383006269800805,0.45250659630606865,0.6655672823218998,0.5709220866893794,0.4718430316643797,0.11409501596330816,0.22703180212014135,0.7082368709638114,0.4853686959177328,0.3898152090493509,0.08395279668331146,0.1830422102839601,0.6880306983883346,0.3987049843400789,0.6061447899477753,0.11767938321043225,0.3410176178008615,0.9933516393849735,0.6174015552035722,0.3922869073937605,0.04924816806515759,0.2090395480225989,0.5988700564971752,0.39534948886536825,0.6682152875175317,0.060241559391304066,0.467741935483871,0.9193548387096775,0.6709105699545838,0.5690217391304347,0.04671715469113591,0.44999999999999996,0.825,0.5709258890372259,0.3514603894371837,0.018620071086767068,0.2883435582822086,0.4294478527607362,0.35195060464954725,0.4991261722080134,0.02240400147075621,0.4117647058823529,0.5647058823529412,0.4996260072634784,0.4440346790890265,0.03094587221404909,0.2738095238095238,0.5357142857142857,0.44510587351492437,0.4903846153846157,0.08590595738808895,0.10256410256410253,0.7179487179487178,0.4978120094270931,0.49950980392156885,0.044174933341855405,0.3529411764705882,0.6392156862745098,0.5014487644618393,0.15397609330182122,0.025561973175443356,0.09618337186262393,0.17422382851731572,0.15607210069548358,0.7197869051736528,0.07096619296211265,0.5483317860044061,0.816014583647168,0.723257919934426,0.8500046350478415,0.8875285304734579,1.0,0.816547551567954,0.45188193257559445,0.25916620496670073
21,0.1701292426621574,0.030491148173374207,0.10061601642710483,0.21252566735112932,0.17282562776936358,0.1851965028435615,0.04075643699717582,0.10158730158730145,0.2857142857142857,0.18960471777666887,0.5659511715549724,0.08870197770631506,0.3955431754874652,0.648096564531105,0.5728234408163689,0.712323120815472,0.029120473613698575,0.6588471849865951,0.7567024128686327,0.7129149287690745,0.7001470184338501,0.06959893134506856,0.5558912386706947,0.850453172205438,0.7035793877472103,0.7019300917236255,0.11845751027402948,0.49470198675496696,0.9198675496688743,0.7118026390808271,0.5421458101110438,0.030872804591729915,0.4564643799472296,0.6042216358839051,0.5430194402893037,0.48033273327386466,0.10129301181923879,0.2841476788107713,0.672299561350067,0.4908410548446936,0.3671513783494281,0.0878109249746668,0.10821181887950881,0.5966968534151957,0.3774515322076166,0.5924502088182232,0.11358857172776538,0.36274363722798136,0.8235026997878485,0.6031837339973396,0.3935768452219101,0.04482367419418098,0.24858757062146894,0.536723163841808,0.3961074988971028,0.6636191133344834,0.04669367916449689,0.467741935483871,0.8225806451612904,0.6652510562939514,0.5646167557932263,0.03399151105888186,0.41666666666666663,0.6666666666666666,0.5656335607218282,0.3506446638889805,0.01563794679856807,0.2822085889570552,0.4233128834355828,0.3509913360249586,0.4981650414176364,0.019064379721065797,0.43137254901960786,0.5686274509803921,0.49852774795273586,0.4413674560733381,0.03654679002524054,0.2857142857142857,0.6071428571428571,0.4428699092655949,0.4945838475250239,0.08851229882508792,0.1538461538461538,0.8205128205128205,0.5023999541641856,0.49898290867149014,0.060925391174112005,0.2588235294117647,0.7019607843137254,0.5026688737984146,0.15542702587921925,0.016382153625928177,0.12440666642253573,0.1849149736836801,0.1562833969776793,0.6680132530480222,0.04693566263967463,0.5725548079082676,0.7361246737793545,0.6696513138638429,0.33301354041434816,0.20676484199629752,1.0,0.7805219405807486,0.08046056900507675,-0.2594825147684387
22,0.1782888432580424,0.019575785715648275,0.13655030800821366,0.21252566735112932,0.1793531942121464,0.16469841269841254,0.04070658230433899,0.09365079365079354,0.2682539682539682,0.1696217738066781,0.5854658000619005,0.09988759957227678,0.42896935933147634,0.6973073351903436,0.5938696984244752,0.70659964253798,0.020689714302343367,0.675603217158177,0.7493297587131367,0.7069004635384398,0.7192698892245717,0.07695435333384919,0.4977341389728096,0.8481873111782476,0.7233475417982093,0.7162163355408393,0.1134927326059884,0.5218543046357615,0.9013245033112584,0.7250934898210663,0.57089709762533,0.054166034420723645,0.4459102902374671,0.6635883905013193,0.573443890571106,0.47659330449616155,0.09407478560698469,0.2843875654928719,0.6841987023272815,0.4857285689995233,0.3978410437452034,0.07715924539288833,0.1845771297006907,0.5541059094397545,0.4052053243853155,0.6012932965320203,0.13652148292516747,0.3166237396851076,0.8128596465087238,0.6164961392031828,0.3935216572504706,0.075458969480188,0.0,0.5875706214689266,0.4006437200635192,0.672293906810036,0.06176426672303211,0.4516129032258065,0.870967741935484,0.6751062802355217,0.5708333333333336,0.043454378349745894,0.41666666666666663,0.7749999999999999,0.5724739198329379,0.351901840490798,0.0194301403992695,0.3067484662576687,0.4539877300613497,0.3524342758979416,0.4992418300653596,0.027736922443738786,0.3411764705882353,0.6039215686274509,0.5000066127974858,0.4473809523809522,0.04394741697143064,0.3095238095238095,0.7142857142857142,0.449519984177966,0.4977777777777777,0.08543956318428142,0.23076923076923073,0.7948717948717948,0.5050088800012559,0.4976209150326799,0.1104871742078139,0.07450980392156864,0.8705882352941177,0.509659305783082,0.1559003531539435,0.01452946832152822,0.12337165237953024,0.17147538921901445,0.15657144756808591,0.716475913983098,0.09636613860565452,0.5755181760229688,0.8585087220588317,0.722884678518329,0.5758710930315264,0.6350685006946287,1.0,0.8687688639757811,0.5733704736428812,0.48914573231465835
23,0.2411729353433166,0.0459432613152642,0.17145790554414786,0.2967145790554415,0.2454750642384674,0.19567686153051983,0.058223121190421646,0.08253968253968236,0.2730158730158728,0.20408773985253506,0.6098995251790958,0.12617689479944688,0.44661095636026,0.7780872794800372,0.6227106902496274,0.7640205758625952,0.022524363453257902,0.7225201072386058,0.799597855227882,0.7643498299328935,0.7010168742170799,0.07567174081664628,0.5581570996978851,0.9131419939577039,0.7050562500420018,0.6752867065094493,0.11330867281659826,0.5317880794701988,0.8847682119205299,0.6846507214530279,0.565748546667525,0.049798189541305535,0.4597625329815304,0.6774406332453826,0.5679182302736746,0.4529065201627404,0.119127872782002,0.20585323504325576,0.638030035335689,0.4681884112583449,0.418808228665556,0.10159392891233024,0.20146124328472756,0.6818910207214122,0.43085698969278236,0.6146143485317863,0.14151948963326327,0.29178994870048325,0.802216593229599,0.6305677885856499,0.388911855220247,0.07352598605430122,0.14124293785310738,0.7514124293785311,0.395745562151252,0.6666666666666671,0.049820133312623326,0.5483870967741936,0.860215053763441,0.6685105166671163,0.5664634146341466,0.03859531843374845,0.475,0.7583333333333333,0.5677660505579869,0.35094019651853,0.01273772259630419,0.31901840490797545,0.39263803680981596,0.35116940642253147,0.4972421488920771,0.0153857367516698,0.4627450980392157,0.5568627450980392,0.4974781914517229,0.4413472706155629,0.03945922261176518,0.3095238095238095,0.5595238095238094,0.44309342665674784,0.4861371690639982,0.07709091777300381,0.23076923076923073,0.6923076923076923,0.4921626149936605,0.49861310377809676,0.06390893247093629,0.1764705882352941,0.7411764705882353,0.5026591019745186,0.1906115100136053,0.03206466401763494,0.1405213911809643,0.23022340813376457,0.19326803032230916,0.6987764824635232,0.0894320509808433,0.574169235614056,0.8376716752997964,0.7044300100440185,0.8066549630101516,0.8345453755058709,1.0,0.848826581756459,0.49447205975885566,0.3148280731649349
24,0.2971844220930636,0.025266841204418727,0.25154004106776184,0.3470225872689938,0.298250544248684,0.22699309478970492,0.07575548799649431,0.08412698412698394,0.3206349206349205,0.2392328069351453,0.6658220942249075,0.10943934443856274,0.47818012999071496,0.7855153203342619,0.6747061321578317,0.8041342906045048,0.017237292853861934,0.7640750670241288,0.824396782841823,0.8043179737658335,0.7146679297455065,0.06892914271275968,0.5490936555891238,0.8814199395770392,0.7179656213448236,0.69389755677779,0.10688341750646535,0.5258278145695365,0.8940397350993379,0.7020351426390892,0.5671108924764843,0.032352329276775435,0.503957783641161,0.6563324538258575,0.5680277494692875,0.45942322473098957,0.10015108699223597,0.22869958571950774,0.6504051419519922,0.47015239191572106,0.38853642398463345,0.06786744718256535,0.2260199539524175,0.5844174980813507,0.39438625813444017,0.6108292806550703,0.10501659535830588,0.3152969057096434,0.8243896208944422,0.6197407422299132,0.3920010214178553,0.04779902734597137,0.27118644067796616,0.5536723163841808,0.39488813559365876,0.6688232792661445,0.045281066027086515,0.5268817204301076,0.8172043010752689,0.6703457091603228,0.5692561205273071,0.047813251399158464,0.3833333333333333,0.7666666666666666,0.5712492642519105,0.3508023985303807,0.022504356393363196,0.2638036809815951,0.4478527607361963,0.3515194270508967,0.5001218566522655,0.031727161269616735,0.3254901960784314,0.6313725490196078,0.5011215393353041,0.4426957223567391,0.02950166877298355,0.3571428571428571,0.5595238095238094,0.4436721017039565,0.49007677821237133,0.08317045479593158,0.1538461538461538,0.6923076923076923,0.4970447587132504,0.49817215021601835,0.03389713581534582,0.403921568627451,0.6313725490196078,0.4993175497141603,0.22247452601089657,0.0280699572218813,0.16628551296475858,0.2539248763086666,0.22422842300357942,0.7093214290862978,0.05775753924294925,0.6008715010869994,0.8297463832182097,0.7116557988377633,0.7498166750590596,0.9122356397079366,1.0,0.8631897473678662,0.29891381798789196,0.15631963750298342
25,0.281358091117724,0.030871914023323344,0.21457905544147848,0.3388090349075976,0.2830377251440439,0.25107376283846844,0.06250482432425655,0.11269841269841274,0.4015873015873015,0.25869672434590374,0.6651075725301515,0.07802986233200239,0.5088207985143919,0.743732590529248,0.6696448183749972,0.8054472337314161,0.023789129015152354,0.7680965147453083,0.8485254691689008,0.8057965888861216,0.7042061812365704,0.07624806734421702,0.5128398791540785,0.9312688821752264,0.7083000944502849,0.7137550023019437,0.1146513688171013,0.5046357615894039,0.899337748344371,0.7228560340104349,0.5377294597378407,0.034026818165444096,0.4452506596306069,0.6464379947229552,0.5387992248048676,0.48893190011917553,0.09379713003218797,0.2872433593274034,0.6960978433044961,0.49780041879680215,0.3616519672824131,0.08591563469681793,0.08825786646201073,0.6500383729854182,0.3716640532556637,0.5991782121028858,0.16460923171343153,0.25099157779717185,0.8820394928230344,0.6212614824398176,0.39076709266140924,0.03470344917094115,0.288135593220339,0.519774011299435,0.3922968389208907,0.669282962451843,0.04626706170915496,0.5161290322580646,0.8333333333333335,0.670871729579838,0.5706773618538323,0.036888606636383735,0.44166666666666665,0.6666666666666666,0.5718619971556508,0.35208818608313414,0.020957336471332584,0.2883435582822086,0.4294478527607362,0.35270802658142525,0.4989199958058087,0.021808921255010164,0.4235294117647059,0.5490196078431373,0.49939388040938154,0.44385026737967886,0.03721847946233778,0.24999999999999994,0.5595238095238094,0.44539967164167793,0.4930755518990811,0.06362136175818697,0.2564102564102564,0.6923076923076923,0.49714136039702617,0.49883611198490097,0.0393800876900458,0.30196078431372547,0.6352941176470588,0.5003798206613146,0.2232074266307841,0.011088416741080995,0.20055188263628726,0.2513828657583657,0.22348120902295737,0.6626082163534461,0.05421537132269934,0.5769110764018615,0.7412629926373102,0.6648106772986144,0.05162877144291505,0.1645186079037221,1.0,0.8354191873816704,0.14554971068296613,-0.05270466669727853
26,0.3116437203352747,0.02510259875969915,0.24743326488706374,0.34086242299794667,0.31264757395250176,0.21680111024373316,0.052737901437883095,0.09841269841269829,0.36825396825396817,0.2230892408106644,0.7316366551491443,0.12107956476858671,0.5171773444753947,0.8495821727019499,0.7415337790326927,0.7874968868574108,0.024175770745346856,0.7513404825737265,0.8404825737265416,0.7878658647813297,0.7493891667904841,0.0976961405932271,0.4735649546827794,0.9350453172205437,0.7556960389309579,0.7579633047443277,0.13385813612419878,0.5079470198675498,0.9509933774834438,0.7696287802401661,0.6291722537018618,0.08438729362348768,0.4426121372031663,0.7922163588390502,0.6347755716853243,0.47829030728799377,0.09595877521344787,0.2089451078347752,0.6584965578164981,0.4877698096165028,0.40446435086748117,0.13476658483445825,0.1124359171143515,0.8246385264773599,0.4262091005973165,0.6090132276673942,0.18837013896089522,0.012856808361182748,0.8288242264274108,0.6373276416892952,0.3913741471396374,0.0600782535766683,0.17514124293785313,0.6045197740112994,0.39593357539323487,0.6675480345496208,0.050467760831633734,0.5053763440860215,0.903225806451613,0.6694426452726135,0.5685336976320579,0.04712350877461947,0.42499999999999993,0.7583333333333333,0.5704726600452803,0.35120185054812475,0.02219430767514243,0.294478527607362,0.4294478527607362,0.35189861521148885,0.4995392692596163,0.021575920969563907,0.4156862745098039,0.6039215686274509,0.5000024580649396,0.44197241738225296,0.033742319873136056,0.3214285714285714,0.5357142857142857,0.44325155422671614,0.4918032786885243,0.07989581245829724,0.20512820512820507,0.6666666666666666,0.4982157405513938,0.4974606235936999,0.07887346658293107,0.13725490196078433,0.8392156862745098,0.5036408453370773,0.22828598792760924,0.014953011460090992,0.19100335067714336,0.24324978629917104,0.228772513686823,0.8084318546743459,0.1467243063693698,0.5638225971140507,1.0,0.8215670674186379,0.6797183146564812,0.7881275311001313,1.0,0.8542956725907855,0.6883181467365769,0.6065499615590924
27,0.39677893898066136,0.0679551802891413,0.29466119096509247,0.4702258726899385,0.4025133177395914,0.3130063965884859,0.11345430926477539,0.12063492063492076,0.43174603174603166,0.3327894616539352,0.715849720755554,0.11341407220073156,0.5478180129990715,0.8430826369545033,0.7247120695794177,0.8651914689288144,0.026951612577514182,0.8190348525469169,0.8967828418230563,0.8656080212839742,0.6971299093655586,0.07168244181335474,0.5173716012084592,0.8564954682779455,0.7007782366292425,0.6872936641296823,0.10699906471968201,0.5278145695364238,0.86158940397351,0.6955112808566332,0.5433879415586973,0.036736265071810305,0.44920844327176784,0.5963060686015831,0.5446190750520041,0.4620224032906019,0.1447498512192223,0.1199433410503229,0.6742034239064213,0.48400501907018195,0.40136135897641484,0.11603274936054775,0.23215963161934,0.7275518035303146,0.4176769861803798,0.6420310165047807,0.1357767250369737,0.33436216181698214,0.8762780533146016,0.6561261831446791,0.3905894257525928,0.06967779018606263,0.23728813559322037,0.6497175141242938,0.3967100485910625,0.6653827636013485,0.06797138130373509,0.36021505376344093,1.0,0.6688197457844286,0.5667910447761194,0.05966511488498604,0.19999999999999996,0.7749999999999999,0.5698995067213114,0.35019686841864345,0.021778910562097537,0.27607361963190186,0.4601226993865031,0.3508683911197324,0.4988586479367865,0.024136234334878187,0.396078431372549,0.596078431372549,0.49943784496457583,0.443230277185501,0.04121123868793541,0.2738095238095238,0.5952380952380951,0.44512781359239556,0.4925373134328358,0.0911346445781719,0.1538461538461538,0.7692307692307692,0.5008358484052415,0.4985367281240855,0.04332160530956737,0.3529411764705882,0.6705882352941177,0.500401463919252,0.2733880954053767,0.039544382464960934,0.21171933172776247,0.31727925917010524,0.2762121269182735,0.6698288960129679,0.0632725186233727,0.5653316294202753,0.7538492522177243,0.672788440255055,0.7757586850528504,0.7699648659124589,1.0,0.7950245782023414,0.14028730747517046,-0.12060649093608895
28,0.4441321825079177,0.020023099336159363,0.404517453798768,0.4774127310061603,0.4445794893840226,0.37562550443906345,0.11482532233873362,0.1603174603174602,0.538095238095238,0.3926418701296865,0.7361157011787294,0.08285762316289325,0.6016713091922006,0.841225626740947,0.7407250029553301,0.899736447493979,0.012253881728649859,0.8733243967828419,0.9175603217158177,0.8998191818606248,0.682030569921655,0.06685930101020966,0.5203927492447129,0.8481873111782476,0.685272195317601,0.703445953530138,0.1042702707963248,0.5443708609271524,0.8675496688741723,0.711067057923751,0.5091789275971559,0.04070848302981921,0.4228232189973615,0.6147757255936676,0.5107898951587321,0.47786579072639507,0.15192433067389105,0.11470391129523583,0.6882463141220908,0.5012395779298394,0.3914727161569781,0.09697066568501193,0.19761780506523405,0.6112847275518035,0.403205293158325,0.6209911917610024,0.1488713051966112,0.24256937496895786,0.8101988831889426,0.6384394306090806,0.3902135401704492,0.05195791851631216,0.27118644067796616,0.5649717514124294,0.3936284466961492,0.6675323491889921,0.047466819356708365,0.5268817204301076,0.8225806451612904,0.6692035879273248,0.5680790960451977,0.05284302180422598,0.4083333333333333,0.7583333333333333,0.5705108062409201,0.35088905063949277,0.026056368456151103,0.24539877300613497,0.4478527607361963,0.3518469930452496,0.4988035892323028,0.019124311014159148,0.44705882352941173,0.5568627450980392,0.4991669664725827,0.4428974979822436,0.04647484002718461,0.24999999999999994,0.5714285714285714,0.4453086571649458,0.49239461103867876,0.0922101977424896,0.1538461538461538,0.7948717948717948,0.500882338073202,0.4979395147889665,0.04968765333029344,0.3686274509803922,0.7725490196078431,0.5003915474054782,0.30120587287062817,0.022056146906346864,0.2573301842823625,0.3257530096322028,0.3020055112251193,0.6147543817228794,0.050418903118376907,0.5430253542317676,0.7039828006765816,0.616800999276673,0.7086267266734533,0.8767220320714424,1.0,0.7180905998713428,0.10653433218438034,-0.26486608543106727
29,0.4530376863117679,0.03270826697694109,0.404517453798768,0.51129363449692,0.45421102299087396,0.36269446418700113,0.11116406044240003,0.15238095238095228,0.4809523809523809,0.37926671728940264,0.7212498325457203,0.05522645817883061,0.6193129062209842,0.7985143918291551,0.7233506125603875,0.9064029717364915,0.015601938839222187,0.8853887399463807,0.9396782841823056,0.9065365721365269,0.6677676571823664,0.0521869954727466,0.5354984894259818,0.8308157099697884,0.66979368227174,0.6776745412012786,0.10547672434785564,0.48211920529801333,0.8463576158940398,0.6857935354203601,0.5004856981582853,0.04622205921386942,0.40963060686015834,0.6286279683377309,0.5026049975591214,0.46509930092440216,0.07875866670061614,0.2784360911417083,0.6168514682588034,0.4716878490745811,0.3681936594846183,0.07254919806861528,0.20146124328472756,0.5683069838833461,0.3752382856590939,0.5971589154704,0.09686370980927862,0.39423288419648506,0.8155204098285049,0.6049253417653123,0.3932315822019844,0.03845162876229701,0.2768361581920904,0.5084745762711864,0.3950977716161845,0.6657037393676783,0.050856282439640306,0.5376344086021506,0.8763440860215055,0.6676338536965614,0.5677446102819239,0.043726727206533325,0.4666666666666666,0.7833333333333333,0.5694176469041503,0.3503036962427131,0.018958990660271263,0.3006134969325153,0.49079754601226994,0.3508138176482006,0.4989952199785383,0.01922579711260384,0.43137254901960786,0.5725490196078431,0.4993636168910185,0.44373371239042825,0.0373812390870509,0.20238095238095233,0.5833333333333333,0.4452976673220079,0.49240974614108923,0.06277174496180818,0.2564102564102564,0.6666666666666666,0.4963749053061286,0.4981952980197051,0.03362237038398073,0.38823529411764707,0.6235294117647059,0.4993229361457565,0.3026844652239046,0.015758235745875232,0.2702670961126854,0.3323876069866445,0.3030923490438164,0.5907974095781933,0.04710920258987321,0.5033928502920622,0.6779237743484121,0.592663323442584,0.301801664192764,0.5244953589135017,1.0,0.7559875000005769,-0.3411784372699833,-0.6714471384026646
30,0.4833022213925706,0.026972678767291165,0.4312114989733061,0.5297741273100617,0.48405088128133905,0.35229437229437194,0.06377044009850322,0.203174603174603,0.419047619047619,0.3579937274889236,0.7850257449143245,0.0844485694150857,0.6397400185701021,0.8922934076137419,0.7895343975209334,0.8951285644650249,0.017989523054138205,0.8652815013404827,0.9343163538873995,0.8953084936755437,0.7183706399340837,0.07700125582698589,0.5513595166163141,0.8731117824773411,0.7224670365069622,0.7048765803732696,0.09816558131514942,0.52317880794702,0.8788079470198676,0.7116485598423411,0.5698908611177742,0.05495559304157693,0.44788918205804745,0.6800791556728232,0.5725224737830167,0.47112404737640806,0.06199415274334572,0.3357918545144389,0.5994768185695137,0.4751669954436986,0.3887236168282984,0.07745659515631388,0.2060660015349194,0.590176515732924,0.39633105334939495,0.6049735955523649,0.1204874635777129,0.21019320689386045,0.8248366291321655,0.6168016640630517,0.392732408834104,0.05028244107869477,0.23728813559322037,0.6214689265536724,0.39592370028604446,0.6673020527859238,0.04816006386805621,0.5322580645161291,0.8225806451612904,0.6690298040553219,0.5687500000000003,0.044600835481204956,0.44166666666666665,0.7916666666666666,0.5704881725772281,0.3513385387618518,0.02176031169131032,0.19631901840490798,0.4662576687116564,0.3520087039559381,0.49939393939393945,0.016946729653919523,0.43529411764705883,0.5490196078431373,0.49968009059075824,0.4418831168831165,0.025653321494297242,0.3571428571428571,0.5476190476190476,0.44262375733646203,0.4907925407925408,0.07545792380542791,0.20512820512820507,0.7179487179487178,0.4965333171166599,0.4994295900178255,0.04755929995821073,0.3529411764705882,0.7333333333333334,0.501678703049358,0.3105238421034038,0.013201805899160996,0.27638567228771227,0.32753391082531796,0.3108030758807513,0.7117924868126967,0.10651500062053984,0.5504015286866475,0.8715232619349924,0.719682165566181,0.4254069317736258,0.5474408793690771,1.0,0.8679134691386625,0.7435757267692288,0.690662832062847
31,0.5955152434638171,0.06049697284382359,0.4938398357289529,0.6694045174537989,0.598560755111577,0.4897179253867155,0.15102734349649702,0.21587301587301588,0.6349206349206349,0.5123354594672399,0.8308109930273406,0.09339029102543968,0.6768802228412256,0.9322191272051996,0.8360102272506497,0.9340900940899228,0.009843053436939739,0.910857908847185,0.9483914209115281,0.9341416233481457,0.7157956010545153,0.07471749720059735,0.5438066465256797,0.8685800604229608,0.7196599809981388,0.727835660353482,0.11228162903094782,0.5417218543046358,0.890066225165563,0.736390937132582,0.5520940120666185,0.04288632820480762,0.4544854881266491,0.6279683377308707,0.5537466211367976,0.4618242573335331,0.12219737109016264,0.15087729986596815,0.6446935542829292,0.47761776833027386,0.38886501019206027,0.11115631929966935,0.16116653875671527,0.7371481197237145,0.40434270683640666,0.632648033685738,0.1428690886857376,0.264742402633801,0.841241121919723,0.6484790675009569,0.3938248947425238,0.04546972500493797,0.21468926553672318,0.5084745762711864,0.3964244882034173,0.6699198685021571,0.05290799294242311,0.5268817204301076,0.849462365591398,0.6719926013557693,0.570594479830149,0.047904453195909226,0.39999999999999997,0.7333333333333333,0.5725891024589772,0.3512953772810757,0.01658663639518878,0.3067484662576687,0.4049079754601227,0.3516842422849227,0.49856375671287617,0.014464044958984772,0.44705882352941173,0.5490196078431373,0.49877218804319906,0.44441916894146144,0.025976920123005235,0.369047619047619,0.5238095238095237,0.44517288777519964,0.493222276661767,0.07339832245479085,0.1538461538461538,0.7179487179487178,0.4986193075226275,0.49968777319845126,0.03136980690798814,0.3333333333333333,0.6078431372549019,0.5006652250165793,0.3614000198096356,0.03369813758592751,0.30110963380937145,0.39794410941443537,0.3629577191635531,0.6880266291531425,0.07668745255206998,0.576192094238664,0.794429242125462,0.6922601746630758,0.8135745229267906,0.8287810398550753,1.0,0.8696080317080391,0.3114481348558823,0.1530632669602398
32,0.6680443113302558,0.03760190529460486,0.5924024640657085,0.7207392197125257,0.6690949853564236,0.501536750581337,0.1425763101797623,0.2317460317460317,0.6523809523809523,0.5212846042942835,0.8384992518732738,0.0642108040169205,0.7288765088207985,0.9173630454967503,0.8409386192962138,0.9523360256826214,0.011699101094876685,0.9262734584450402,0.9711796246648793,0.9524074248988941,0.7066118883137371,0.06029430361236808,0.5521148036253776,0.8549848942598186,0.7091633156903838,0.6954865651495337,0.09053366452132672,0.5463576158940397,0.9165562913907286,0.7013171184990399,0.5463043880140496,0.03934865875936431,0.45580474934036946,0.6339050131926122,0.5477106347499465,0.4697459020146696,0.12551426495262977,0.13112662970634825,0.6273227123187523,0.4861221043065537,0.38281066231284017,0.0795012284312689,0.11933691481197234,0.6239447429009977,0.3909273473280676,0.6098389084629178,0.12730436623072935,0.3042068441927954,0.8363595081490312,0.6229018144526159,0.39159379610637274,0.04526041171022727,0.25988700564971756,0.5649717514124294,0.3941841678904301,0.6681734127799465,0.04047088980801761,0.5752688172043011,0.838709677419355,0.6693901478426919,0.5678874734607215,0.037432456819736455,0.4333333333333333,0.6916666666666667,0.5691119806923648,0.35055292876401906,0.012589411004826571,0.31901840490797545,0.38650306748466257,0.3507774787856382,0.49873860372174333,0.014052017615562728,0.4666666666666667,0.5529411764705883,0.4989352626739043,0.4441158629056714,0.022702532952044573,0.369047619047619,0.5357142857142857,0.4446920528326069,0.4884860362567368,0.052564197041651835,0.23076923076923073,0.5897435897435896,0.49128810664964223,0.49676533033595616,0.02388377599885735,0.40784313725490196,0.5686274509803921,0.4973354952518077,0.3839375142333448,0.027526714119672575,0.32847286975688383,0.41260461528692594,0.38491675539515047,0.6768181902686002,0.051411499182619856,0.5760986410455791,0.7504933193031995,0.6787556037527235,0.7383245005597723,0.8707832490422228,1.0,0.8182977262401799,-0.02973994743166904,-0.13394313702793223
33,0.6641560574948668,0.05116206248959024,0.575975359342916,0.7464065708418892,0.6661080129319927,0.5119999999999999,0.11505674513288568,0.3031746031746031,0.7253968253968253,0.5246676568683925,0.8163045496750239,0.0273375192392221,0.7567316620241411,0.851439182915506,0.816758519428253,0.9631367292225206,0.010350134572897546,0.9416890080428953,0.9798927613941019,0.9631918954501463,0.6802235649546831,0.051567782159503646,0.5249244712990936,0.8194864048338368,0.6821598497326361,0.6984105960264905,0.09523957677220418,0.5483443708609272,0.8589403973509935,0.7048229373466472,0.5038047493403692,0.039267742130587396,0.4215039577836412,0.6015831134564644,0.5053205372685445,0.5042779943950287,0.11623422051376596,0.22536782624588764,0.6461214512001949,0.5173959861627916,0.3715644021488871,0.08931835482754168,0.18649270913277052,0.6066799693016116,0.3820655065630576,0.6044263749050993,0.16262125867580757,0.25898096312536817,0.8474495696658791,0.6257518286541697,0.39096045197740126,0.04072173292977959,0.25988700564971756,0.5084745762711864,0.3930586069111267,0.6689892473118279,0.04278435036215538,0.5698924731182796,0.8010752688172044,0.6703450377601602,0.5696000000000001,0.0464493789287584,0.475,0.7999999999999999,0.5714756726619642,0.35249079754601254,0.023664682376865965,0.294478527607362,0.4171779141104294,0.3532779350724946,0.49807058823529404,0.02695630921401687,0.3803921568627451,0.5882352941176471,0.4987936851350887,0.43847619047619035,0.03785011383025043,0.2738095238095238,0.5476190476190476,0.4400937850987442,0.4873846153846154,0.06834559563594864,0.23076923076923073,0.6923076923076923,0.49211534704060933,0.49941960784313716,0.03134983364867279,0.4235294117647059,0.6901960784313725,0.5003947384529878,0.3857527554658238,0.015709555937049466,0.3610295248175177,0.4109611832178379,0.38606994725830857,0.6078345698106573,0.03088657892702302,0.5591816477607519,0.681078188134068,0.6086125312287448,0.08964332279727075,0.1337102371677586,1.0,0.6935141191822423,-0.4634703414831788,-0.7586130055833762
34,0.6591946155601188,0.03112500323132875,0.6149897330595484,0.7217659137577003,0.6599231912820879,0.46656588561350465,0.14226072976874518,0.2412698412698412,0.6412698412698412,0.48760765056597766,0.8459860576852217,0.08422928201538749,0.743732590529248,0.9740018570102136,0.8501356807122221,0.940912379250181,0.019265754435089693,0.9088471849865952,0.9718498659517426,0.9411080325510681,0.7037716395722435,0.08722585014265358,0.5460725075528701,0.8919939577039273,0.7091138737026808,0.6904814464417112,0.13553889625386434,0.5092715231788081,0.9417218543046358,0.7035549874304703,0.5781871675671149,0.06950108915054184,0.42018469656992086,0.6965699208443272,0.5823164651745659,0.47692143853195396,0.10853518211128332,0.2470223589618618,0.643741623004752,0.4890198903219834,0.4212897708584584,0.0891667552577413,0.23867996930161167,0.6911005372217959,0.4305492775492957,0.6039828557868534,0.19289328528489258,0.1325911577513358,0.8385803585999418,0.6338042358943463,0.3925656891758587,0.04204078752233707,0.24858757062146894,0.5141242937853108,0.3947926302867499,0.6698242020822667,0.05214009358348522,0.4516129032258065,0.8172043010752689,0.6718344103631615,0.5671957671957675,0.0486226516913217,0.44166666666666665,0.7166666666666666,0.5692595518652022,0.3490602785081315,0.02342021614316302,0.2883435582822086,0.4539877300613497,0.3498388648077627,0.4986305633364457,0.021433831681772233,0.4,0.5647058823529412,0.49908736883384824,0.4426492819349961,0.028626961652409293,0.3452380952380952,0.5476190476190476,0.4435666643690449,0.49430199430199423,0.06459412665283294,0.23076923076923073,0.6666666666666666,0.49847141189214517,0.49937752878929326,0.03957844048912224,0.3803921568627451,0.6941176470588235,0.5009310701533402,0.3771166299849454,0.015901804165868838,0.34541271180779687,0.3948776515831361,0.37744908676932504,0.7171133014051175,0.11208202983897213,0.530936793733503,0.8933954616829971,0.7257507609539149,0.6412483913815312,0.7388398199295036,1.0,0.8344811966738404,0.46893618083268185,0.25322398462933954
35,0.7430184804928129,0.0687231896405123,0.6273100616016427,0.8172484599589324,0.7461687833881282,0.6128042328042328,0.17511885909474115,0.2841269841269841,0.7714285714285714,0.6371743862198875,0.8846301454658,0.08159756442719554,0.7483751160631384,0.9740018570102136,0.8883604386943154,0.9569839142091161,0.008656401922685823,0.9470509383378016,0.9765415549597855,0.957022803173442,0.7210422960725069,0.07839029628701497,0.5438066465256797,0.8587613293051357,0.7252627553885554,0.7377041942604857,0.12311531604255951,0.5198675496688743,0.9033112582781458,0.7478394279969534,0.5642568161829373,0.05697366957097197,0.4426121372031663,0.649736147757256,0.5671067920945683,0.4662730494293489,0.14012408545011018,0.11184811746070433,0.7198961252589252,0.48673855153653645,0.39546953184957795,0.12980234198525786,0.22333077513430544,0.7586369915579432,0.41609190605716306,0.6462453909666493,0.16335422903013483,0.20265792517224018,0.8647409835600304,0.6664381532645929,0.39178907721280554,0.035011161128740934,0.2824858757062147,0.5084745762711864,0.3933399173117583,0.6696774193548387,0.03953479810880079,0.5430107526881721,0.860215053763441,0.6708356179076338,0.5712777777777774,0.0354808329991798,0.475,0.7833333333333333,0.5723712049852755,0.3509611451942744,0.018305776962709453,0.294478527607362,0.43558282208588955,0.3514350479057024,0.49884967320261436,0.015029662257635254,0.4588235294117647,0.5607843137254902,0.49907452475919517,0.4415079365079362,0.02792550015802991,0.3571428571428571,0.5714285714285714,0.4423843268789913,0.4902564102564102,0.06534976683088616,0.2564102564102564,0.7692307692307692,0.4945639182237762,0.49947712418300655,0.023649370338214407,0.396078431372549,0.6,0.5000329605950038,0.4173049031083033,0.03218869024926618,0.35760092809155564,0.4532906535855742,0.4185362427870818,0.7100092200252622,0.0951050366278672,0.5548154453350389,0.8312952059030405,0.7163084256982153,0.8278674919083959,0.6583155401921342,1.0,0.8017758820683799,0.39256258123324544,0.012086666629742188
36,0.8459017796030117,0.028637217768634128,0.8008213552361397,0.9014373716632444,0.8463823467509967,0.6374999999999995,0.17873144313510378,0.3412698412698413,0.8539682539682538,0.6618798765829393,0.8737465181058497,0.04625006347459912,0.8059424326833797,0.9377901578458682,0.8749595537530512,0.9759830205540659,0.010688012227724746,0.9577747989276139,0.995308310991957,0.9760410534749585,0.6911568479355487,0.06491850954682958,0.5422960725075527,0.8247734138972809,0.6941736679121708,0.6899889624724064,0.10855446085889377,0.5271523178807949,0.8761589403973511,0.69840578370649,0.5328551011433599,0.04646733686017328,0.42546174142480214,0.616754617414248,0.534860522720101,0.4821773397201575,0.14872325873022207,0.1435017363226514,0.7029974412087242,0.504409826327974,0.3860832949603479,0.07172344983489724,0.28050345356868767,0.5786646201074443,0.3926343020248268,0.6349618978692612,0.15232456488732776,0.22527796107480658,0.8793787295032532,0.6528292490166269,0.39161958568738237,0.04853986816728409,0.24858757062146894,0.5819209039548023,0.39459141446857005,0.6651881720430112,0.04878436208790907,0.5537634408602151,0.8064516129032259,0.6669598080796999,0.5652777777777778,0.04732988769826139,0.44999999999999996,0.7666666666666666,0.5672392940079756,0.3482617586912068,0.02145556950519728,0.294478527607362,0.4601226993865031,0.3489165485479701,0.4973529411764705,0.017718589580915763,0.4235294117647059,0.5411764705882353,0.4976658319362667,0.4386904761904759,0.030071419779311864,0.29761904761904756,0.488095238095238,0.4397113694633951,0.4873931623931622,0.0748108946824311,0.17948717948717946,0.6666666666666666,0.493053877172093,0.4993790849673203,0.02453761260889616,0.42745098039215684,0.5725490196078431,0.49997654693169125,0.4491258234092917,0.024898847081086917,0.40448562675231636,0.4800087582828301,0.44980972818236387,0.6528472600776792,0.05314104455808875,0.5603128888391768,0.732940599556307,0.6549885361738671,0.8155442503862911,0.8797687803948849,1.0,0.7932329872042262,-0.15294893600105122,-0.5333427688079072
37,0.7665803789522854,0.07103371992766098,0.6755646817248461,0.8726899383983574,0.7698489157410758,0.6331753554502368,0.13397117840573894,0.3365079365079364,0.8523809523809522,0.6471276879182929,0.8902119719952295,0.042331739333131495,0.818941504178273,0.9507892293407614,0.891213127405908,0.9636513220588797,0.018111734811567845,0.9316353887399463,1.0,0.9638207046830646,0.7150241262295784,0.07467033056328519,0.4879154078549849,0.8564954682779455,0.7188941051616075,0.7509023571137131,0.13005366334368954,0.5013245033112583,0.9496688741721855,0.7620289655532906,0.5489877327464391,0.05578736175691179,0.43337730870712404,0.6523746701846966,0.551801604323447,0.4893369079510783,0.09548941187043433,0.23750304618009016,0.6882463141220908,0.498523442691333,0.36176991485198223,0.09659343206943961,0.10974673829623943,0.6834259401381427,0.3743842184464704,0.6047944449785587,0.16505860897455457,0.09090586574143067,0.9223979508574753,0.6268106133098852,0.3917851500789888,0.0386691696487082,0.288135593220339,0.5536723163841808,0.3936798467685289,0.670004586454671,0.0516556459259334,0.49462365591397855,0.9623655913978495,0.6719834861270595,0.5702211690363349,0.05591238000272073,0.4083333333333333,1.0,0.5729428939853419,0.35126333847003777,0.022306250047809107,0.2883435582822086,0.4294478527607362,0.3519675320230287,0.4971285196543072,0.026870780389998895,0.3411764705882353,0.6313725490196078,0.4978507626864025,0.44397427217332425,0.027342499748393666,0.38095238095238093,0.5357142857142857,0.444811447085283,0.49240490946652077,0.06957669121285161,0.23076923076923073,0.7435897435897435,0.49727313228968234,0.4985410277855215,0.03791063295152631,0.3529411764705882,0.7019607843137254,0.49997356032650614,0.426973543979053,0.01805465748219462,0.4029157128446449,0.47620150853202137,0.42735328831097324,0.6892033347443249,0.07987155799888243,0.5454119787319143,0.8243805892802558,0.6937942547794006,-0.3327539302076782,-0.12935931002107365,1.0,0.7485720924061902,0.16694834335536865,-0.1710898462405439
38,0.8166023507753314,0.04355947171286877,0.7453798767967147,0.9045174537987681,0.8177533061586646,0.6461001642036119,0.17388677828959206,0.36031746031746026,0.8238095238095238,0.6688956371531287,0.8784618832644956,0.06178309531739167,0.7938718662952646,0.9860724233983287,0.8806131527195195,0.9723872145696589,0.01598010406228442,0.9443699731903485,0.9959785522788204,0.9725173815274211,0.6934250963642048,0.09402872762045732,0.4947129909365558,0.9259818731117824,0.6997167619159652,0.7186800639415394,0.14416809428748933,0.4801324503311259,0.9026490066225167,0.7328753628794509,0.5408004276226002,0.07153311053551423,0.4116094986807388,0.6642480211081794,0.5454704175958901,0.4763331502123922,0.13206180061658485,0.18205495308882663,0.7168042524674059,0.4941490074807396,0.41102088019689276,0.11682699694800397,0.13123561013046814,0.6673031465848043,0.42716396299772935,0.6257879835279789,0.21798673228020268,0.11795341180811292,0.9166294159801898,0.6623587970200524,0.39158386908240794,0.0668417727613668,0.14689265536723167,0.615819209039548,0.39719923640344956,0.6690304041527626,0.051320313690253846,0.5268817204301076,0.8333333333333335,0.6709789499862497,0.569755747126437,0.05156406563910619,0.3833333333333333,0.7583333333333333,0.5720642823175103,0.3517558705309924,0.03299265616272625,0.26993865030674846,0.4785276073619632,0.35328646175671496,0.49898580121703834,0.028258116615365404,0.4,0.611764705882353,0.4997784180692481,0.4447865353037764,0.03601996690290032,0.33333333333333326,0.5595238095238094,0.4462301146188405,0.49624226348364275,0.08448551300503915,0.17948717948717946,0.641025641025641,0.503321620040335,0.4999999999999999,0.044540457614119795,0.40784313725490196,0.8156862745098039,0.5019628972234097,0.4424500836614289,0.01551874951860498,0.4098272093736617,0.4615418452151985,0.44271981205301764,0.6598384143686903,0.10057471886873952,0.533419482991925,0.8467139667152335,0.6673940414129659,0.6660467195946541,0.665282968954103,1.0,0.7815223820989083,0.1645888596373933,-0.20841841242047113
39,0.9154559911071309,0.049143880814412635,0.8388090349075976,1.0000000000000002,0.916764219344739,0.7382623224728486,0.23625529755842212,0.37142857142857133,0.9999999999999999,0.774872988935397,0.9081966755328436,0.06611947915738514,0.8226555246053854,1.0,0.9105822952403057,0.9669817976576831,0.017290582728213554,0.9436997319034853,0.9959785522788204,0.9671352094722091,0.7080162642255181,0.09241285627030581,0.4697885196374622,0.9282477341389728,0.7139768587727425,0.7177812079868545,0.14556094761449098,0.49470198675496696,0.9178807947019869,0.7322831035999602,0.5672674430138671,0.06352190468685205,0.4485488126649077,0.6550131926121372,0.5707863397885853,0.46738568922916535,0.16402099875840198,0.0,0.6515931521871572,0.49512623963620506,0.40031663194825146,0.1420344852658336,0.22064159631619337,0.898695318495779,0.4245886458089918,0.6252156285261785,0.1767101022801959,0.08425040975755138,0.8514442623299773,0.6495277184122813,0.39008538294889744,0.04332863034651344,0.2090395480225989,0.5028248587570622,0.39246638153174535,0.6702643706039291,0.06150560493124897,0.5376344086021506,0.967741935483871,0.6730593010911975,0.5691102756892232,0.04364955948737556,0.4666666666666666,0.75,0.5707691867073499,0.3505696757230502,0.01903163662351216,0.2822085889570552,0.4049079754601227,0.3510820095032766,0.4997788589119859,0.019232373790274624,0.44313725490196076,0.6274509803921569,0.500145989619784,0.4433404940923736,0.0296770209407521,0.3452380952380952,0.5357142857142857,0.44432521566664035,0.49508386350491607,0.0673372267408772,0.2564102564102564,0.641025641025641,0.499608087915994,0.5016364440513047,0.03876762785743751,0.403921568627451,0.6549019607843137,0.50312101004859,0.47835109993062525,0.03329963407517492,0.42184094611389467,0.517499865469758,0.4795000553689426,0.7054155716684669,0.10624676111189432,0.5600997873327143,0.8639075532218938,0.7133124336535722,0.8210188588425325,0.8345729913886373,1.0,0.831851091153354,0.25393984950042275,0.05574566748713051
