,Orientation X,Orientation X,Orientation X,Orientation X,Orientation X,Orientation Y,Orientation Y,Orientation Y,Orientation Y,Orientation Y,Orientation Z,Orientation Z,Orientation Z,Orientation Z,Orientation Z,Orientation W,Orientation W,Orientation W,Orientation W,Orientation W,Accelerometer X,Accelerometer X,Accelerometer X,Accelerometer X,Accelerometer X,Accelerometer Y,Accelerometer Y,Accelerometer Y,Accelerometer Y,Accelerometer Y,Accelerometer Z,Accelerometer Z,Accelerometer Z,Accelerometer Z,Accelerometer Z,Gyroscope X,Gyroscope X,Gyroscope X,Gyroscope X,Gyroscope X,Gyroscope Y,Gyroscope Y,Gyroscope Y,Gyroscope Y,Gyroscope Y,Gyroscope Z,Gyroscope Z,Gyroscope Z,Gyroscope Z,Gyroscope Z,EMG1,EMG1,EMG1,EMG1,EMG1,EMG2,EMG2,EMG2,EMG2,EMG2,EMG3,EMG3,EMG3,EMG3,EMG3,EMG4,EMG4,EMG4,EMG4,EMG4,EMG5,EMG5,EMG5,EMG5,EMG5,EMG6,EMG6,EMG6,EMG6,EMG6,EMG7,EMG7,EMG7,EMG7,EMG7,EMG8,EMG8,EMG8,EMG8,EMG8,Roll,Roll,Roll,Roll,Roll,Yaw,Yaw,Yaw,Yaw,Yaw,Accelerometer X vs Roll,Accelerometer Y vs Roll,Accelerometer Z vs Roll,Accelerometer X vs Accelerometer Y,Accelerometer X vs Accelerometer Z,Accelerometer X vs Accelerometer Z
,mean,std,amin,amax,RMS,mean,std,amin,amax,RMS,mean,std,amin,amax,RMS,mean,std,amin,amax,RMS,mean,std,amin,amax,RMS,mean,std,amin,amax,RMS,mean,std,amin,amax,RMS,mean,std,amin,amax,RMS,mean,std,amin,amax,RMS,mean,std,amin,amax,RMS,mean,std,amin,amax,RMS,mean,std,amin,amax,RMS,mean,std,amin,amax,RMS,mean,std,amin,amax,RMS,mean,std,amin,amax,RMS,mean,std,amin,amax,RMS,mean,std,amin,amax,RMS,mean,std,amin,amax,RMS,mean,std,amin,amax,RMS,mean,std,amin,amax,RMS,corr, corr, corr, corr, corr, corr
0,0.8798635707726655,0.15835675790850653,0.5454545454545452,1.0000000000000002,0.8939670347009324,0.3249260425613131,0.3849588876676067,0.0,1.0,0.5034058373030214,0.13258264063406153,0.16082832936119607,0.0,0.5399188092016237,0.20828423608121482,0.10903783431180684,0.11747398487933913,0.0,0.35753424657534244,0.16017655560505334,0.4686007871983486,0.20985999893343268,0.0,0.8692411924119241,0.5133449686805658,0.8469317057076876,0.09520674771679712,0.0,0.9976905311778291,0.8522535169877574,0.7159848408794294,0.08998065411740275,0.0,0.8886156008432887,0.7216034458485173,0.4531302114616937,0.05735458458256358,0.27017908123540096,1.0,0.4567370191411323,0.5066351310105791,0.0824890432356711,0.18631178707224333,1.0,0.5132907530582034,0.6190564639705167,0.07900587069042073,0.0,0.9368635437881873,0.6240656787989882,0.4813702623906708,0.0678581953298878,0.17142857142857143,1.0,0.4861184017639203,0.49949523809523805,0.09369718388745524,0.0,1.0,0.5081867298355515,0.4664542812430143,0.07636274103780809,0.0,0.8591549295774648,0.47264889795364395,0.4684190476190477,0.08413908033242504,0.0,0.896,0.47589802829317623,0.4964799253034548,0.11651798790403918,0.019607843137254888,1.0,0.5099376754798599,0.4838345864661647,0.09818785764908054,0.0,0.9068825910931174,0.4936737870628812,0.4660164065626249,0.07802891641622114,0.0,1.0,0.472488419462289,0.5036694677871144,0.08992021985542102,0.0,1.0,0.5116144321477387,0.23448462499151274,0.3740600415675105,0.0006194381019875572,0.9993534998679072,0.44110181253300695,0.25090434174475046,0.30672416920793855,0.0,0.8145735053403276,0.39599078948747474,0.7918897485961351,-0.2903910235069883,1.0,-0.585759052420595,0.9284054695427344,-0.5645389160993797
1,0.721832451394257,0.09205845575430183,0.5068870523415978,0.809917355371901,0.7276581356764393,0.738203024754544,0.0923338408696277,0.6392785571142285,0.9158316633266532,0.743934524352116,0.370673961507384,0.08485541723754148,0.3044654939106901,0.6021650879566982,0.3802285190569301,0.3773627673203899,0.06086069994815067,0.2520547945205479,0.4575342465753424,0.38222160996949467,0.7189516679339456,0.038829170391544876,0.638888888888889,0.8448509485094852,0.7199956818626844,0.7583766704880901,0.04526689050267264,0.6335642802155504,0.8314087759815243,0.7597215903764318,0.7998200174926816,0.0462211318688327,0.7431482782853127,0.9181307097680955,0.8011496542757859,0.43916779786656013,0.04055645441104281,0.26875266026472877,0.5208928107967816,0.44102977681454913,0.4698843528110698,0.04912096364546366,0.2596414991852254,0.5708853883758827,0.47243570430376564,0.6243876784519433,0.08068731045050972,0.42599864222674805,0.8744059742023081,0.6295609551218888,0.4833064160916168,0.09897228151097548,0.0,0.9265306122448981,0.4933004851875872,0.4949352517985614,0.05059319008313623,0.292,0.772,0.4975051425929935,0.4706994967406357,0.061330926613401296,0.20657276995305163,0.6901408450704225,0.4746640583384665,0.4654676258992802,0.05936977098032851,0.32000000000000006,0.72,0.4692251074259016,0.4936944561997461,0.06579646106092046,0.18039215686274512,0.8549019607843137,0.49804399183317366,0.48204351498558246,0.05418373466177211,0.29554655870445345,0.9392712550607287,0.48506831140835527,0.4621999879088322,0.041244453341410164,0.32352941176470584,0.6218487394957983,0.4640299717387547,0.4923120327267595,0.12395604864155886,0.019607843137254888,0.8705882352941177,0.5076228613954675,0.9475261690117661,0.011363953370396166,0.9270557623609943,0.9790031252801354,0.9475940670286893,0.6027034268780699,0.10517165010617795,0.5039029595423923,0.8326042529437478,0.6117783166421555,-0.022495293957419667,0.13320961479023352,1.0,-0.33729673067748295,0.6389418320466741,-0.7855949208344306
2,0.7752192774136347,0.08734709746226754,0.5371900826446281,0.8732782369146006,0.7801133920096863,0.6608481330477057,0.06341029602299746,0.49699398797595185,0.7795591182364728,0.6638764020697442,0.3569253262408043,0.12598100205407065,0.2665764546684709,0.7185385656292287,0.37845794461710636,0.35072586994174115,0.05395571159350857,0.20410958904109588,0.421917808219178,0.35484244701403844,0.6786530853814277,0.037929432480678496,0.5223577235772358,0.7940379403794038,0.6797097504989897,0.7555679435109246,0.06588018524214477,0.5846805234795998,0.8483448806774443,0.7584280708151179,0.7777497758499535,0.04289557693262514,0.7094167252283907,0.9033731553056922,0.7789290817525142,0.43847459421081086,0.03932314025506226,0.24902777056838823,0.5400986244484817,0.44023030835426863,0.4800839024268419,0.06319623535074698,0.20993807713199347,0.7278652906029331,0.48421600186781566,0.6289589000476008,0.06114153592386185,0.43890291921249147,0.8190794297352342,0.6319169182733145,0.48121979826413275,0.05688618761501193,0.04489795918367351,0.8081632653061226,0.4845627858329013,0.4970850574712638,0.026786055113745252,0.364,0.636,0.4978045778226124,0.4697210080405809,0.04875730481360611,0.323943661971831,0.676056338028169,0.47223895981575775,0.4656919540229878,0.047088961836274944,0.28800000000000003,0.672,0.4680611807931914,0.4981023213883257,0.07087251555695373,0.1215686274509804,0.9607843137254901,0.5031076317313347,0.4830192191353714,0.04814112115458668,0.2793522267206478,0.8866396761133604,0.4854068457064447,0.4630928233362303,0.02457910570626628,0.32352941176470584,0.5924369747899159,0.46374314728375354,0.4975974757719178,0.06498756643431217,0.15294117647058825,0.9686274509803922,0.501813633490944,0.9558620596328271,0.014291558579692434,0.9163851485379584,0.9847553424240829,0.9559686481025557,0.5352994560992077,0.08784277431509835,0.38971283753676433,0.747363119878858,0.542442736108572,-0.27240379996722514,0.4817335708655566,1.0,0.33393613404048494,0.06439384564226101,-0.7335425538657356
3,0.7610597958191545,0.10725062418658533,0.4517906336088158,0.8842975206611572,0.768561328923984,0.6758762623285787,0.07704316619243178,0.5350701402805611,0.7935871743486973,0.6802424738839606,0.32309493486163054,0.21220761618407094,0.17591339648173207,0.8619756427604871,0.3864091569481494,0.27683319903303794,0.03375827872486614,0.22602739726027396,0.3684931506849315,0.2788789132933296,0.6808610978266646,0.05291088922457197,0.486449864498645,0.8008130081300814,0.6829088775672867,0.7591105148756965,0.09218351240509441,0.5230946882217091,0.8367975365665897,0.7646736204506523,0.7892656359803232,0.049376874608868075,0.6725228390723823,0.9420238931834153,0.7908048711342868,0.43554934530261646,0.057834906111220837,0.2268362315079159,0.6196480664417336,0.4393630734734619,0.48869368736087554,0.043268926586905614,0.32428028245518736,0.6404128191200433,0.4906007861274202,0.6379746016532888,0.06142399197657641,0.4029164969450101,0.8173794976238967,0.6409175078155112,0.48153261304521805,0.04611975312135638,0.28571428571428575,0.7020408163265307,0.48373078849843437,0.4967450980392158,0.03153834257025595,0.352,0.672,0.4977428267374904,0.4714167357083679,0.04624452144348347,0.3145539906103286,0.6384976525821596,0.4736739943370607,0.4649607843137253,0.04731553792479875,0.22400000000000003,0.632,0.46735618528224154,0.49560745866974265,0.0686148868246412,0.17254901960784313,0.8666666666666667,0.5003231121592819,0.4806104628086047,0.04072677091479323,0.29149797570850206,0.7449392712550608,0.4823287483272392,0.46263799637501996,0.024074066898496636,0.3487394957983193,0.5714285714285714,0.46326240500932336,0.49639561707035756,0.08302247257440985,0.0,0.9294117647058824,0.5032737283532857,0.9728608623445051,0.03572005322084873,0.8691210049916247,0.9980388448259694,0.973514793120009,0.5598034686049007,0.08497060649045383,0.41712527900517177,0.7987953637458549,0.5661998157375879,0.6078714058311732,0.943339866312437,1.0,0.7044583911312284,-0.44050130218453293,-0.8628266202056404
4,0.7942928947713639,0.12499996348298653,0.4628099173553719,0.9559228650137743,0.8040441736477548,0.6108357065007209,0.1084804651002795,0.3987975951903807,0.785571142284569,0.6203698718360927,0.3549265586157545,0.18471348463938952,0.15696887686062244,0.8457374830852503,0.40000802737106034,0.2551687437772512,0.04788957343676195,0.13972602739726026,0.33835616438356164,0.2596126945027168,0.6428197865938557,0.06465549872048294,0.49119241192411933,0.8014905149051491,0.6460550553358532,0.7377267263617079,0.07983523676668705,0.5350269438029254,0.8352578906851424,0.7420231894760015,0.7713759099082912,0.05976939053999454,0.6535488404778637,0.9262122276879831,0.7736822481477262,0.4407189320303095,0.06994357170223703,0.15403685439916942,0.6282107448741241,0.4462208190594321,0.489570520543618,0.06050705281784216,0.2593720803910918,0.6838674633351438,0.49328614649937697,0.6314172260250079,0.07929088927476835,0.4134419551934826,0.8536972165648335,0.6363638907400244,0.48039486471280257,0.04404913861631977,0.2612244897959184,0.6857142857142857,0.4824051095099474,0.49749373433583927,0.025948815792725944,0.32,0.608,0.49816831409969464,0.4693776695259275,0.04453340002828326,0.35211267605633806,0.7699530516431925,0.4714802751782525,0.46538345864661546,0.05328835775692302,0.30400000000000005,0.76,0.4684167970294707,0.4979900732222718,0.06778260066673097,0.07450980392156864,0.8745098039215686,0.502570471666622,0.4816393209745011,0.04407965817978905,0.17004048582995956,0.6761133603238867,0.48364716690897197,0.4632484572776472,0.02367614276104997,0.361344537815126,0.588235294117647,0.46385157970469754,0.49773453240945487,0.06272803476438901,0.11372549019607842,0.8509803921568627,0.5016618476904761,0.7673077247411147,0.3924746434416404,0.0,1.0,0.8616330043514205,0.5026670289694791,0.1286270348275156,0.28254399930037705,0.7908208968774446,0.5188232744889391,0.5287078667208914,-0.26404411143040274,1.0,0.07371354303360174,0.18947761696176177,-0.8352326105872736
5,0.7703504792693209,0.1488391960272501,0.4517906336088158,0.9614325068870528,0.7845527920850851,0.5562860737247363,0.12758106034608338,0.34869739478957906,0.7174348697394789,0.5706836041156017,0.4117124770023434,0.16680931854985284,0.18809201623815966,0.8078484438430311,0.44412243283700603,0.4134307074024462,0.11871802887810735,0.2054794520547945,0.5684931506849314,0.43008657236607933,0.6278136834996112,0.08032894805559214,0.46409214092140927,0.7892953929539296,0.6329157964837889,0.7414244881405985,0.07188255232089515,0.5542725173210162,0.8398768283294843,0.7448899737132487,0.7645009543528907,0.07047625015421623,0.6307097680955727,0.9465917076598734,0.7677323378510447,0.4424206497292862,0.08004978089058776,0.13651699974046194,0.6339205813651699,0.44958178824241524,0.4826103629730787,0.07574465139140242,0.13307984790874522,0.6431287343834872,0.4884996582148088,0.6228637365320236,0.08609949178748849,0.4069898167006109,0.8547182620502375,0.6287678200482775,0.48173565956351,0.059240122247087336,0.18775510204081636,0.7918367346938777,0.48535303351421555,0.49756466876971583,0.035161468603233034,0.348,0.612,0.4988015922099358,0.4701944580204682,0.04839883034714904,0.33333333333333337,0.6572769953051644,0.4726710121322416,0.46629652996845417,0.05946406547535649,0.30400000000000005,0.672,0.4700609263148234,0.49883095193913524,0.07446768899793124,0.21176470588235297,0.7960784313725491,0.5043414139509212,0.48211343695321734,0.05510428517714295,0.23076923076923078,0.7004048582995952,0.4852424852868767,0.4622246374890643,0.031204367415865557,0.2941176470588235,0.5504201680672268,0.46327341430230196,0.49738355910187404,0.08655669762761052,0.05490196078431375,0.8156862745098039,0.5048354509187752,0.9353984256174467,0.03344289767992822,0.8878423960028997,0.9990517836568955,0.9359941847525908,0.4858016786958009,0.1692257890489607,0.2560088405497489,0.8315429450452746,0.5143445343382177,-0.6885485357446565,0.3775164012820114,1.0,-0.12593329338123502,0.4392728689612899,-0.7905748771621897
6,0.7815016422970962,0.19759482374689374,0.42975206611570216,1.0000000000000002,0.8060363988071519,0.5398778325882536,0.24618430540059844,0.24248496993987972,0.8837675350701402,0.5932361225799426,0.341986962631415,0.1808864666865226,0.17050067658998647,0.8660351826792964,0.3867768643561554,0.4120554531085353,0.11246587986907287,0.2657534246575342,0.5835616438356164,0.4270923381950556,0.6048164868667916,0.14135050731400173,0.426829268292683,0.8705962059620597,0.6210756153155491,0.7810122061348957,0.0823689720489007,0.5392609699769053,0.8737490377213242,0.7853333078630738,0.759064679171847,0.08605689425009622,0.6328179901616303,0.9532677442023892,0.7639156850312161,0.43997278344546686,0.0696996328305451,0.13197404619776798,0.5903181936153645,0.4454463054191154,0.4909826808172812,0.0951444679287747,0.16268549701249319,0.8139576317218902,0.500094692928566,0.6290356415478618,0.08874986044984562,0.39545417515274944,0.8733903598099116,0.6352506923116796,0.48142660910518037,0.05206645974945305,0.28163265306122454,0.6734693877551021,0.4842271982858865,0.49845192307692254,0.03089083142572215,0.38,0.6759999999999999,0.49940591629532055,0.47189869989165817,0.058190189634130994,0.2018779342723005,0.8497652582159625,0.47546434300589935,0.466865384615384,0.054445384628282266,0.29600000000000004,0.744,0.4700217670900587,0.4990290346907991,0.061540677965782345,0.1764705882352941,0.8705882352941177,0.5028002869235922,0.48309521955776974,0.036509902633548245,0.2550607287449393,0.7044534412955465,0.48446956549187487,0.4638918067226886,0.027024843940896378,0.31932773109243695,0.5840336134453781,0.4646764410901483,0.4988499245852183,0.08258956503206961,0.06666666666666665,0.9058823529411765,0.5056242545498627,0.9429895102041495,0.035265325467035744,0.8782172692977146,0.9825402327385089,0.9436471109522251,0.45405913658403396,0.24170709965016085,0.16383306840666573,0.8302879577189389,0.5142485617506789,-0.8116389616315102,0.36762525082061076,1.0,0.059533948700269415,0.7371556277646972,-0.4802424089767866
7,0.8615024053287277,0.1728763738630992,0.4573002754820934,0.9862258953168046,0.8786258716704222,0.46454102234319494,0.1752968948086327,0.29859719438877746,0.7915831663326651,0.4964228383213558,0.29723103023448505,0.1896310635741302,0.15561569688768606,0.7510148849797023,0.35241861826699555,0.3401512983030056,0.04998326654597635,0.2726027397260274,0.4726027397260274,0.34379321543550645,0.5678255066132757,0.10206384943891356,0.45392953929539304,0.8062330623306233,0.5768983790173754,0.7807486815345906,0.07831843434498838,0.5219399538106235,0.8633564280215551,0.7846553199295148,0.7332532698419365,0.0771470190218536,0.6539002108222065,0.9223471539002108,0.7372884470280282,0.43416525057040234,0.05622404568246973,0.19231767453931997,0.5363342849727485,0.43777982121960524,0.4809326274656048,0.08124396675842417,0.10021510048886478,0.7384595328625747,0.4877264305585272,0.6456394200079025,0.06473644505097453,0.34555329260013573,0.7898818737270875,0.6488671344068745,0.48300944258300343,0.05316212761025325,0.24081632653061227,0.7346938775510206,0.4859175825005947,0.4970985074626867,0.029574818815088333,0.376,0.66,0.49797488397973183,0.47124938686847495,0.03848946553778112,0.15023474178403756,0.6431924882629108,0.47281391833939806,0.46555223880597,0.04436622345765861,0.31200000000000006,0.752,0.4676551861514301,0.4989991220368747,0.06229582917691017,0.18039215686274512,0.792156862745098,0.5028611237084815,0.4816363526497072,0.04542879831210409,0.14574898785425106,0.805668016194332,0.4837677039502205,0.463589614950457,0.03008389729349192,0.3109243697478991,0.6008403361344538,0.4645618046629776,0.49930348258706464,0.1031293799657891,0.0,0.9058823529411765,0.5098116205717476,0.9625056964566668,0.034721077482825026,0.8744889752099699,0.9870734848306377,0.9631298823454553,0.3816019764155033,0.21256779281991048,0.20536959006118954,0.8349692401882912,0.43665805174403016,-0.781721509470509,0.8165718032785576,1.0,-0.6960233052042789,0.8500900055144599,-0.8455879547626723
8,0.8360988873385563,0.14304706719608493,0.4407713498622592,0.9752066115702485,0.8482161656007868,0.5175650001301305,0.15300680275374168,0.32865731462925846,0.723446893787575,0.539651557066444,0.3360279774352852,0.17602940880132148,0.15696887686062244,0.8322056833558863,0.3792369580473935,0.34912293186265714,0.03613787450244984,0.2465753424657534,0.41232876712328764,0.3509834404334044,0.5994474360328013,0.08967824898314979,0.4627371273712737,0.7818428184281843,0.606101087365877,0.7634264119252571,0.07621638148503264,0.5577367205542726,0.8706697459584296,0.7672116625053317,0.7461709758969064,0.06926452480249148,0.6289529163738581,0.9293745607870695,0.7493705614946852,0.44241456379073807,0.07440999215975762,0.14754632753698416,0.6140669608097585,0.4486124293493868,0.48718649519953156,0.07907580821674039,0.21510048886474742,0.8117848995111352,0.4935457658966309,0.6394150360162573,0.07736390034204131,0.27019687712152063,0.8102484725050916,0.6440661576699337,0.4813888152663656,0.04358967916913886,0.2775510204081633,0.7428571428571429,0.48335320043681007,0.4963844155844154,0.0245945828688658,0.404,0.632,0.4969917608870501,0.46882507164197357,0.03966981763273442,0.2863849765258216,0.6431924882629108,0.4704960730049856,0.4653506493506486,0.048778454899039835,0.24800000000000003,0.672,0.4678935609896594,0.49897631779984697,0.04336689450980509,0.2901960784313725,0.7254901960784313,0.5008524417049586,0.48228613491771494,0.029559461716490727,0.34817813765182193,0.6356275303643725,0.48318879146740035,0.4634399214231139,0.02799805693394677,0.3361344537815126,0.6218487394957983,0.46428268961885744,0.4981105169340467,0.07306576937789079,0.12549019607843137,0.9058823529411765,0.5034270823309908,0.9575944837856762,0.02444119444618477,0.8818862105335135,0.9810887568537476,0.9579055359205113,0.426825705524936,0.17603120927636282,0.23142581571385035,0.8349146065924848,0.4616131322401642,-0.4826364489265392,0.8587777225735692,1.0,-0.33695966433691205,0.5635966579779753,-0.8894663116103564
9,0.8193231011412833,0.15456153883897966,0.4517906336088158,0.9669421487603305,0.8337333856197281,0.47430289149728116,0.1337495205016227,0.32665330661322645,0.6993987975951903,0.49274847120658327,0.3636226560989763,0.18449641277553647,0.19079837618403248,0.8565629228687416,0.4076310933678816,0.43469667318982363,0.09294893561134983,0.29452054794520544,0.6136986301369863,0.44449523958602416,0.585965931087882,0.09216637884205457,0.44308943089430897,0.7757452574525745,0.5931495961227472,0.7653458704497962,0.0749770643097533,0.5377213240954581,0.8914549653579678,0.7689992197568033,0.739466920991869,0.07099572006383373,0.6148981026001406,0.9465917076598734,0.7428575357279564,0.4468599547662303,0.08842364432215835,0.08837165844796263,0.6532572021801193,0.4554999679355044,0.4879275176534496,0.07737300422863225,0.2237914177077675,0.7460640956002171,0.49400682155962167,0.6287206594898649,0.07892729227621569,0.34691106585200265,0.8112695179904955,0.6336413705828355,0.4804198250728859,0.03918322097304728,0.33061224489795926,0.6244897959183674,0.4820105252861015,0.49672000000000044,0.023394129011491415,0.416,0.688,0.4972690217578412,0.4703554661301148,0.04092471558321788,0.2863849765258216,0.647887323943662,0.47212743155717085,0.46585142857142775,0.04529180379262914,0.28800000000000003,0.664,0.46804170754324914,0.49875630252100867,0.05577243565293053,0.196078431372549,0.7137254901960784,0.5018560815171219,0.4823828802776169,0.031426220244503124,0.3238866396761134,0.7125506072874495,0.483402553539583,0.4633733493397356,0.025585517179703327,0.2941176470588235,0.5798319327731092,0.4640771587016166,0.4991148459383751,0.06381388884781339,0.06274509803921569,0.8627450980392157,0.5031661822433712,0.936333824026959,0.032436377382704856,0.8698674639170049,0.977603702984913,0.9368938800854563,0.4088037353513254,0.174896591006906,0.23222123775709697,0.8049757676108459,0.444546864752721,-0.6970862393749497,0.5881617020651176,1.0,-0.2656562772875994,0.47296737210751955,-0.796067181168465
10,0.78572284105881,0.1747833059883438,0.4738292011019285,0.9614325068870528,0.8048733059284541,0.5206645174406781,0.16875818133870488,0.32264529058116226,0.8376753507014028,0.5472552555489391,0.3252338647996702,0.20704301808517617,0.12855209742895804,0.8525033829499323,0.38538244189802223,0.47171729203891144,0.089396113201085,0.3602739726027397,0.6383561643835616,0.4800892671341947,0.6066866973017554,0.10398747365762998,0.4207317073170732,0.8116531165311653,0.6155085703608271,0.7966841829277813,0.0923737784797246,0.5531177829099307,0.958044649730562,0.8020061528386889,0.750548443276605,0.07388734207293034,0.6198172874209417,0.9304286718200984,0.7541660830689743,0.4422287229600874,0.07628787309221956,0.10303659486114713,0.5899299247339734,0.4487418120607995,0.49894677908194196,0.08773693663615523,0.166483432916893,0.7387289516567083,0.5065800489849391,0.6349261942009307,0.08874269538803821,0.3961276306856754,0.8706748133061778,0.641080112941655,0.48137237503697156,0.04524748377424804,0.33061224489795926,0.6734693877551021,0.4834881218115935,0.4967999999999998,0.03091864794420472,0.364,0.616,0.49775840714553243,0.4696060420493982,0.04614080918832746,0.29107981220657275,0.7042253521126761,0.4718608248858284,0.46518260869565176,0.05822723868234072,0.29600000000000004,1.0,0.46880213681068167,0.4972776356919582,0.058269157126688606,0.2196078431372549,0.8470588235294118,0.5006700512291558,0.48192219679633863,0.038306108797893104,0.2793522267206478,0.7489878542510122,0.48343780212632864,0.463098282791377,0.023374979646129414,0.3067226890756302,0.5336134453781513,0.463686128172491,0.4981074168797955,0.0632736429711653,0.22745098039215683,0.8352941176470587,0.5020985442534779,0.9307404029836955,0.03310512680743107,0.8661847684147744,0.9634865548244893,0.9313272628363253,0.4403991290067682,0.18815079466133944,0.23443521047243415,0.7583935701173539,0.4788000663894741,-0.7416193631318381,0.5978871186002528,1.0,-0.11635804394958066,0.5891060352513032,-0.6485801366344397
11,0.7751618553757585,0.12180077170651833,0.4407713498622592,0.9118457300275484,0.7846462732959337,0.6048399319647692,0.09350776230080811,0.44488977955911824,0.8256513026052104,0.6120053535290999,0.27007880283371805,0.22888523806502759,0.06359945872801082,0.8606224627875507,0.3538138855096862,0.43998311653428473,0.03763185327306313,0.37671232876712324,0.5698630136986301,0.4415850228340991,0.6489243393834505,0.06410297792656071,0.4979674796747968,0.8252032520325203,0.6520739832888459,0.8201827305209988,0.10634691783675332,0.546189376443418,1.0,0.8270294424256921,0.7679499065965105,0.05771287468823921,0.6809557273366127,0.9406184118060436,0.770109411085123,0.438739945082627,0.07925793585805088,0.10576278224759922,0.5983659486114715,0.4458216725014847,0.4868897034098813,0.0752030742559275,0.264256382400869,0.6988028245518739,0.4926471799581826,0.6485239863766278,0.09833778591101505,0.2929368635437881,0.9283747454175152,0.6559166054554759,0.4837249185388439,0.06033179093494006,0.21224489795918372,0.7551020408163266,0.48746233284684504,0.4976918767506996,0.030379717992241765,0.4,0.612,0.49861562973746365,0.4704830288923079,0.05120603935969519,0.3051643192488263,0.6995305164319249,0.4732536257029617,0.4652549019607836,0.045161812816342274,0.328,0.68,0.46743555705572953,0.4959191519745156,0.07005152654721696,0.0,0.8235294117647058,0.5008285894021982,0.4816906519692909,0.04748248459608195,0.10526315789473689,0.8097165991902835,0.4840187549776437,0.46437398488807224,0.026868001497975146,0.26890756302521,0.5840336134453781,0.46514843356274005,0.5004888229801724,0.05912667100576286,0.2588235294117647,0.7843137254901961,0.5039595544666546,0.942576139279671,0.030390353052248218,0.8556131014098634,0.9683724310063162,0.9430645602805938,0.4967733985116416,0.12436070875339969,0.342169430860098,0.8065704545578981,0.512060615925105,-0.2287325101564925,0.9048901122327271,1.0,-0.04535976166935655,0.18511676033984803,-0.8008405294564109
12,0.8097694977510064,0.1361776105165913,0.4517906336088158,0.9118457300275484,0.8211081511884716,0.5177247149666576,0.11925849793092155,0.4248496993987976,0.785571142284569,0.5312450404568799,0.322137106947089,0.1961436800079412,0.17320703653585925,0.8565629228687416,0.37700925710608885,0.45882284652890654,0.02759000790707172,0.37671232876712324,0.5164383561643835,0.4596492823083709,0.609053710593604,0.07333582167191387,0.49593495934959353,0.787940379403794,0.6134406023687333,0.7913486254093766,0.08643988006600777,0.5511932255581217,0.8683602771362587,0.7960423310817932,0.746363217678891,0.06558995793200023,0.667955024595924,0.9388615600843289,0.7492315680901669,0.44631959541394806,0.08120758854979271,0.1535177783545289,0.6781728523228652,0.45362674598215275,0.4919474370659523,0.06949397282259755,0.3079847908745247,0.7721368821292776,0.49681792508615946,0.6380861994239043,0.0872406925549584,0.29192124915139167,0.8845892735913101,0.6440057736593815,0.48029516891502344,0.04277763816245413,0.2979591836734694,0.6612244897959184,0.48219104753869074,0.4973107344632766,0.025224646161309882,0.40800000000000003,0.6,0.4979482422676086,0.47043844990849043,0.042421912932576356,0.14553990610328638,0.6807511737089202,0.4723418996664679,0.46467796610169415,0.03865959849280524,0.32000000000000006,0.648,0.4662788380382059,0.4986041874376873,0.047566029499548676,0.25098039215686274,0.803921568627451,0.500861529340276,0.4816784464420515,0.031212346372602683,0.20647773279352227,0.7651821862348178,0.4826858029046038,0.4624578645017321,0.02088245825740711,0.34453781512605036,0.5462184873949579,0.4629277715219361,0.4971419076105019,0.054505542315618834,0.019607843137254888,0.6980392156862745,0.5001125255403893,0.9340867281099715,0.025371167778688343,0.8528028028276746,0.9535106415181248,0.9344302507062393,0.434054783109045,0.1545832657305741,0.3047411815718636,0.7835761914034315,0.4606864855824777,-0.27596912162802134,0.9072551315835772,1.0,-0.2232091265060186,0.50321182877301,-0.8968688011568617
13,0.8375603406879494,0.12596703257941472,0.49586776859504167,0.9283746556473831,0.8469584545880676,0.4233145189461499,0.10546255080734042,0.3547094188376753,0.6993987975951903,0.4362247374888329,0.3434501123511831,0.16844087638318408,0.20433017591339647,0.8700947225981056,0.3824463810288527,0.49756189518662725,0.05612534646469928,0.38082191780821917,0.6780821917808219,0.500710164827731,0.5651105765644813,0.07168758398040387,0.43563685636856375,0.7818428184281843,0.5696290779912317,0.777505279290351,0.07311243185581066,0.5396458814472671,0.8645111624326405,0.7809274145917661,0.7240840194188534,0.05797256786546346,0.6539002108222065,0.9118060435699227,0.7263957444142141,0.44617406191291376,0.072772606531466,0.12808305216714244,0.6480664417337139,0.45205641167349014,0.4855551280965171,0.05973271170005218,0.3003802281368821,0.7561108093427484,0.4892071092991799,0.6319663546279504,0.07793909041303733,0.2976945010183299,0.8370672097759673,0.636743310017893,0.4800131061598955,0.03276216554491406,0.26530612244897966,0.6326530612244898,0.4811273009742513,0.4973027522935776,0.02409616923325804,0.4,0.62,0.4978848472296759,0.47020502218202054,0.03108233105530721,0.295774647887324,0.6525821596244131,0.47122888105188687,0.46647706422018276,0.03686510890191279,0.328,0.664,0.4679281682504288,0.4994873178629256,0.047943582756217185,0.17254901960784313,0.7490196078431373,0.5017777355010662,0.4832485235672131,0.025233972206189174,0.3238866396761134,0.680161943319838,0.483905392034147,0.46321602035309395,0.018687332433545933,0.34453781512605036,0.5462184873949579,0.4635919509118002,0.4984529591653177,0.03956533188313718,0.1333333333333333,0.7686274509803921,0.5000171772901326,0.9259465917033455,0.023269293034931776,0.8559301512305484,0.9464336432294846,0.9262382570400849,0.36079309667649884,0.1349118584038125,0.25980173168421616,0.6836692855210957,0.3851377964494694,-0.4728164869636482,0.6904422031486923,1.0,-0.13119249555181098,0.47184510972204924,-0.8483580467648779
14,0.7757421150278268,0.1855645810871258,0.3994490358126723,0.9283746556473831,0.797572692862454,0.4594137254100038,0.18432274288053824,0.3106212424849699,0.8917835671342684,0.49492340219707764,0.3652653889702035,0.17081626851543544,0.21921515561569688,0.8497970230040596,0.4031408783434972,0.5531241263628736,0.0730416009850624,0.42739726027397257,0.7150684931506849,0.5579137610354665,0.5841439217963612,0.10671414954312329,0.42411924119241196,0.8346883468834689,0.5937869822539574,0.7838221316240124,0.07520526195696145,0.554657428791378,0.8652809853733642,0.7874125585156954,0.7387086422763062,0.07707652147304034,0.6208713984539704,0.9290231904427266,0.7427086193515885,0.4415112316403328,0.06690117296465692,0.13898364910459376,0.5973277965221905,0.4465383710676996,0.4948265361549291,0.0993910402868507,0.15752308527973924,0.9587180879956545,0.5046847325965365,0.6321437992712353,0.08889898795799706,0.31839782756279694,0.9063136456211811,0.638348378415783,0.4797167846730531,0.03678605977411735,0.3591836734693878,0.6734693877551021,0.481121560121486,0.49622448979591854,0.030144928908018037,0.396,0.624,0.4971369457776629,0.4688488071284849,0.03749997977363583,0.3192488262910798,0.7089201877934272,0.4703422850013032,0.46461224489795855,0.04053393833054436,0.328,0.672,0.4663725409356515,0.4984193677470989,0.04108398291329308,0.0980392156862745,0.6823529411764706,0.5001054428280949,0.4821531851607062,0.029772504464498847,0.29149797570850206,0.6639676113360324,0.48306918216033257,0.46296732978905725,0.022796129323059577,0.2647058823529411,0.5462184873949579,0.4635267913420964,0.49734893957583015,0.0610126579591664,0.07058823529411762,0.8235294117647058,0.5010678754835822,0.910471250598799,0.026260171042793178,0.854098180137286,0.93792495866436,0.910848909301198,0.40225485375096737,0.20213441053047562,0.22813840323388224,0.7797147004285184,0.4500700577451853,-0.7870831070648533,0.39633685002493685,1.0,0.007789813358852062,0.7098475148841183,-0.5009002994945811
15,0.7425190805220601,0.13665256893460778,0.39393939393939426,0.9008264462809918,0.7549485304002325,0.5806695357928983,0.08025145098905903,0.42084168336673344,0.8016032064128255,0.5861708705328257,0.2937509705184223,0.24781350563546037,0.10284167794316644,0.8944519621109608,0.38405704910265714,0.5236559622726256,0.041633852315220495,0.4452054794520548,0.658904109589041,0.525303018530102,0.6405415611533158,0.05300881167906106,0.508130081300813,0.8252032520325203,0.6427240564827288,0.8250356516361889,0.11501318614423782,0.5488837567359508,0.9603541185527329,0.8329876882990784,0.7675126435722267,0.06164984714534162,0.6721714687280393,0.9476458186929022,0.7699765583268231,0.43770955057374916,0.08138697535080942,0.11315857773163768,0.5779911757072411,0.4451873458588278,0.4933250175866644,0.06849508897675334,0.20097772949483972,0.7129255839217816,0.49804193394777774,0.6516554461175467,0.09995177774348503,0.405632043448744,0.9714867617107943,0.6592514111149287,0.4808832385413184,0.04091403318369375,0.35102040816326535,0.6122448979591837,0.4826149177492263,0.49572459016393433,0.0319765984320118,0.352,0.6,0.4967514667035527,0.470022319710614,0.05376384167916763,0.2723004694835681,0.755868544600939,0.47307721830894617,0.4654426229508191,0.054789706999558756,0.264,0.8,0.46864582033560537,0.4959048537447768,0.06783996531945928,0.20392156862745098,0.9058823529411765,0.5005085368724418,0.48166191013473186,0.056885612106924936,0.18623481781376522,0.7935222672064778,0.48499851421661117,0.4625568260090914,0.026175902905347822,0.3361344537815126,0.5840336134453781,0.46329445139740294,0.49479909996785626,0.056665698123395725,0.2,0.6588235294117647,0.4980227131362122,0.9205037150277618,0.033687579510022984,0.8309489442462552,0.943259332532301,0.9211179194672098,0.4917096482954474,0.13426863388344737,0.31812994479187595,0.8330458423372399,0.5096541335636332,-0.24623901226794806,0.88975699058929,1.0,-0.017564496310888644,0.17219085088671204,-0.8542648145888443
16,0.7826841920168798,0.13071274247118717,0.4600550964187329,0.9146005509641875,0.7934953840218867,0.5225291007547008,0.13342772963538727,0.3927855711422845,0.8096192384769538,0.5392515849544279,0.33942504246681754,0.18153512317097978,0.19079837618403248,0.8633288227334236,0.38480737274537274,0.5169921305741764,0.03086789493704486,0.4287671232876712,0.5657534246575342,0.5179103743885372,0.6175798593092315,0.07804559001102408,0.49119241192411933,0.7926829268292683,0.6224787522261158,0.7931489853078467,0.08251519997091693,0.5600461893764435,0.8718244803695151,0.7974183110021805,0.7485122830101223,0.0638794028019096,0.6352775825720308,0.915671117357695,0.7512259069800635,0.4432043502990211,0.07641830897607534,0.09927225538541395,0.642356605242668,0.4497269424880002,0.48985797496735084,0.06838869448189515,0.24280282455187396,0.7726757197175447,0.49459620935291565,0.6442174026086578,0.0821177182692639,0.35132111337406646,0.9602878479293957,0.6494162356430694,0.48118758141554524,0.03030652181807483,0.37959183673469393,0.616326530612245,0.4821384977299486,0.4973829787234049,0.03132150916175996,0.388,0.624,0.4983655840034993,0.46863450204774687,0.04353656388895702,0.26291079812206575,0.6431924882629108,0.4706470948186048,0.46489361702127596,0.043507661997426006,0.24000000000000002,0.72,0.4669196477412451,0.5001668752607428,0.034720284533694086,0.33725490196078434,0.8156862745098039,0.5013673255748459,0.4829981049185997,0.014389341971373744,0.40485829959514175,0.5789473684210527,0.48321182916400396,0.46368228142320644,0.01681546646619203,0.3067226890756302,0.5336134453781513,0.4639862778113839,0.4997183979974966,0.05227793159454751,0.25098039215686274,0.8745098039215686,0.5024382458168263,0.9203243716328815,0.021420855741471463,0.8492945469624152,0.944156170554365,0.9205729638264802,0.44221920246665286,0.1527041927600457,0.28701561343305765,0.7578024994464777,0.46777598916793633,-0.26596685829679767,0.8724399521396763,1.0,-0.02511552542892717,0.49584488020981937,-0.7747160698828363
17,0.7710690678384112,0.1411965705827038,0.3994490358126723,0.8925619834710747,0.783855252908536,0.5023380093520389,0.0907596909052949,0.42084168336673344,0.7515030060120239,0.5104489247586681,0.3698170038433308,0.17727935190647282,0.21244925575101486,0.8687415426251691,0.41000732495664777,0.5454620929091667,0.057808899859977766,0.45479452054794517,0.736986301369863,0.5485084843951337,0.6158536585365848,0.06500264261886571,0.4722222222222222,0.809620596205962,0.6192652357556208,0.7823267315184171,0.07354180416447335,0.5588914549653581,0.8702848344880678,0.7857662582746078,0.7457830718866932,0.06444431669016117,0.6496837666900913,0.9451862262825017,0.7485546201195712,0.44580098224059234,0.07892754825108445,0.1042055541136776,0.6448211783026213,0.4527150453907513,0.4854658280997719,0.063865083535762,0.18957088538837585,0.7015230852797392,0.48963719520148374,0.6342727702875811,0.07797183611866788,0.38017651052274265,0.8621860149355056,0.6390342761751694,0.4789115646258507,0.03848253321291686,0.28163265306122454,0.6816326530612246,0.48045094699226676,0.4965619834710744,0.02790974776604704,0.388,0.66,0.4973435548695163,0.46935423375884266,0.04176341625578816,0.29107981220657275,0.727699530516432,0.47120353858288466,0.4652782369146003,0.052241230146979546,0.2,0.672,0.46819383332626124,0.4978015448603688,0.07867329892870864,0.10196078431372546,0.8941176470588235,0.5039631088667741,0.481268332942976,0.045266619978681914,0.19028340080971662,0.8785425101214575,0.48338662617582834,0.4627404680880607,0.019047811929926023,0.3529411764705882,0.5210084033613445,0.46313125617249706,0.49490628207205756,0.05248738034113673,0.07058823529411762,0.6901960784313725,0.49767415424565825,0.9108720749272798,0.026687468948283128,0.8386958288361077,0.9382272644606482,0.9112618700680254,0.4396135324946699,0.1501069703279541,0.3070228517336416,0.8411999068268348,0.46446753232670035,-0.43344879765372835,0.7286995723657074,1.0,-0.14590229465716675,0.41129554760984827,-0.8500707548751096
18,0.6902741562440136,0.22198942012125736,0.25344352617079924,0.8898071625344353,0.7250006555740908,0.5117882824472485,0.19582757605699797,0.3366733466933867,0.913827655310621,0.547880597995633,0.40862055241582373,0.18494483665199066,0.22868741542625168,0.871447902571042,0.4484237865355573,0.6135631089297479,0.08258110869887761,0.4835616438356164,0.7753424657534246,0.6190808459508531,0.6240924307638801,0.11250212012994339,0.45663956639566405,0.8733062330623306,0.6341247887083169,0.7835408150243096,0.08083902573807854,0.548498845265589,0.8687451886066205,0.7876888241990146,0.7610897741834866,0.08225067384041923,0.6567111735769501,0.9082923401264933,0.7655094571689396,0.4436843740067813,0.07529553402774557,0.11484453672463019,0.6348300025953801,0.4500112024296065,0.4985701563031018,0.09423748248661389,0.25828571428571423,0.9769125475285171,0.5073747714126566,0.6364534381795667,0.10238304893458819,0.31975560081466387,0.9938900203665987,0.6446140241802198,0.47853323147440774,0.04355958428962256,0.24489795918367352,0.6489795918367347,0.48050641790389886,0.4960641711229947,0.029655323810005327,0.376,0.608,0.49694743048244194,0.46927016645326425,0.06205697451110538,0.13145539906103287,1.0,0.4733447583263769,0.4649839572192511,0.048143382356533544,0.28800000000000003,0.768,0.46746301292101977,0.49826989619377166,0.05060444150722665,0.2431372549019608,0.8117647058823529,0.5008261693132503,0.4827989348113209,0.04075540297831703,0.28744939271255066,0.7894736842105263,0.48451147885547446,0.46353300678560116,0.022547637258944382,0.3529411764705882,0.5378151260504201,0.46407961060384123,0.49739960155185065,0.057644012234748236,0.06274509803921569,0.7529411764705882,0.5007197930904346,0.8916777082504934,0.03214001695477554,0.837841122995616,0.9280672223260776,0.8922552068215979,0.4691702192732233,0.2094566413013433,0.27815331229416496,0.8654471056969314,0.5136881098479171,-0.7864571660478086,0.34427069628788204,1.0,0.1627537230427769,0.7166271991930564,-0.39452444504135803
19,0.74571382271917,0.22153105806430282,0.23691460055096414,0.9173553719008265,0.7778308131441989,0.4484969939879759,0.16392771262058303,0.3206412825651302,0.8336673346693385,0.4774335685931657,0.389282018626125,0.19898091982054436,0.21109607577807848,0.9377537212449255,0.43705542587046137,0.5861925866236917,0.0641945596947436,0.4671232876712328,0.7643835616438356,0.5896868403575031,0.5870277379244382,0.11056246135199865,0.44715447154471544,0.89159891598916,0.597318733877937,0.7784574106778966,0.0710105741174791,0.5200153964588146,0.8956889915319477,0.7816799927007622,0.742926088214626,0.08739488988841378,0.6085734364019677,0.9708362614195362,0.7480338060638964,0.4378264759316653,0.08741895472907651,0.0,0.6104334284972748,0.44644329985505576,0.49920057513499716,0.1133897941069467,0.0,0.8400304182509506,0.5118795211717871,0.6408610518749237,0.1114208546510587,0.3126300067888662,0.9999999999999999,0.6504467550167699,0.4807322929171669,0.05136585521605106,0.20408163265306128,0.6408163265306124,0.48346067925450953,0.49671764705882365,0.03207517415084787,0.372,0.62,0.49774914541835824,0.4714305440486045,0.06101876091898241,0.2863849765258216,0.863849765258216,0.4753515501137138,0.46792941176470565,0.05755608540549453,0.272,0.68,0.4714455367459183,0.49805074971164937,0.07279754056867777,0.11372549019607842,0.792156862745098,0.503327373078075,0.48404381995713414,0.05850358468841056,0.18623481781376522,0.9635627530364372,0.48755617356907516,0.46361838853188264,0.0322248113082217,0.2436974789915966,0.6470588235294117,0.4647336811744708,0.49806228373702466,0.0681795413454646,0.16078431372549018,0.7647058823529411,0.5026935611563674,0.898075206137715,0.03835541387751567,0.7980598971265307,0.935751636614886,0.898891476640651,0.41853818783011887,0.23851816302393256,0.2299716519840186,0.9999999999999999,0.48155768350895706,-0.6965120801504081,0.6287209370961934,1.0,-0.29601637003187875,0.7083605684029274,-0.6520569184225561
20,0.7783287419651048,0.12947749310121798,0.4435261707988978,0.8898071625344353,0.7889975070260519,0.44972509120805615,0.12805916957973182,0.34268537074148286,0.7715430861723445,0.4675572258779026,0.3854758682904818,0.1737581592552573,0.23410013531799728,0.891745602165088,0.4227364756195483,0.5669617140850002,0.027764779251625994,0.4726027397260274,0.6493150684931506,0.5676394027744219,0.5915207421304979,0.0774445371558854,0.43360433604336046,0.7825203252032521,0.5965560041604787,0.7702650954383056,0.07655884340913134,0.544264819091609,0.8645111624326405,0.774050737931238,0.7384642413103405,0.06312454886248854,0.6595221363316937,0.9086437104708363,0.7411504079209795,0.4399831180498707,0.07464123539201467,0.10939631456008303,0.6537762782247598,0.4462534848818176,0.48435299655984065,0.07185531418964847,0.20749592612710482,0.7604562737642585,0.48964045228603603,0.6448664403711234,0.07440878167811998,0.38187644263408005,0.9090291921249151,0.6491341896143139,0.47936159079016233,0.04222543216920994,0.24897959183673474,0.6204081632653062,0.48121299866576805,0.4976820512820511,0.027552827238607507,0.404,0.628,0.49844220918521354,0.4725051161670872,0.05335944342865272,0.24413145539906103,0.9389671361502347,0.4755008038025011,0.4658051282051278,0.04388185791820696,0.192,0.6880000000000001,0.46786226331677705,0.499034690799397,0.021036579864021517,0.3568627450980392,0.5764705882352941,0.49947675181292767,0.4828298557043518,0.010898424888813641,0.43724696356275305,0.5263157894736843,0.4829525242418277,0.4623572505925429,0.01732966170018594,0.3487394957983193,0.5168067226890756,0.4626810719125027,0.49777777777777776,0.04802685096638133,0.20784313725490194,0.7803921568627451,0.500083373208413,0.9054220122122527,0.021965084498594172,0.8313646601103496,0.9265250229006017,0.9056877210418242,0.40592010222595043,0.15068633524728117,0.2749677678102724,0.7292807937826409,0.4329194839178104,-0.2328260470101788,0.8643151617125044,1.0,-0.057429473161311494,0.47590040554487567,-0.7939974401222653
21,0.7364613880742904,0.15335976849632937,0.3719008264462811,0.8705234159779616,0.7522092303810719,0.45213006658478255,0.10451562117818004,0.3386773547094188,0.6953907815631262,0.46401495130527076,0.4133397354751407,0.18956528891710303,0.2665764546684709,0.8944519621109608,0.45460842087893427,0.6092885550154663,0.048639741367658085,0.5342465753424657,0.758904109589041,0.6112206933844798,0.6020653029110933,0.07965645634807834,0.481029810298103,0.7764227642276423,0.607295078012498,0.768093322406814,0.07444930256371278,0.5658198614318708,0.9006928406466513,0.7716813920946194,0.744920998345159,0.07069142466810377,0.6595221363316937,0.943078004216444,0.748256941863612,0.44857297288246273,0.0799232162894831,0.14650817544770312,0.638463534907864,0.4556147791201023,0.4877180354295528,0.07409128335462833,0.20505377512221618,0.7085801195002716,0.49329574519647884,0.6303155027045967,0.07391493526680133,0.3628676171079429,0.8180583842498301,0.6346206951221517,0.4800131665569455,0.03196571730410359,0.35102040816326535,0.6122448979591837,0.481072916509454,0.49496774193548376,0.025164165036900887,0.388,0.58,0.49560494152552237,0.4666212327729822,0.0548573023028469,0.2723004694835681,0.9906103286384977,0.4698244257113376,0.4631741935483869,0.06876244444119742,0.184,0.736,0.4682342948126609,0.4928526249209362,0.09199754329593124,0.06666666666666665,0.9686274509803922,0.5013381654096266,0.4805668016194336,0.05061768953535544,0.1336032388663968,0.7489878542510122,0.4832166556639328,0.46280834914610924,0.022947886903566556,0.34453781512605036,0.5840336134453781,0.4633750908553721,0.49895003162555324,0.056827736222227206,0.18823529411764706,0.8,0.502165419230568,0.891455086950953,0.02933237152301547,0.8156465579633876,0.918558350036906,0.8919359756309153,0.42945989264758694,0.17127955389512825,0.26337876037710284,0.8218124005426781,0.4622530156805583,-0.44328195269447246,0.8422078133100495,1.0,-0.3165772163649893,0.5205689977759329,-0.8896824726051656
22,0.6518831122312737,0.1997723558988981,0.2286501377410468,0.8016528925619835,0.6817376611936247,0.4270479493265489,0.19656282261579705,0.22645290581162325,0.8897795591182365,0.4700165464825307,0.4361142301429647,0.18291641584384344,0.28687415426251694,0.9012178619756428,0.4728371167855882,0.7123481978043341,0.04765084861110252,0.5986301369863013,0.8082191780821917,0.7139364050332266,0.5945338176786026,0.11380758325101833,0.38008130081300817,0.8482384823848239,0.605303235239281,0.7749760226542686,0.07654401325756491,0.5554272517321016,0.8722093918398769,0.7787380629094441,0.7487037507745922,0.08517652369293353,0.6310611384399156,0.9416725228390723,0.7535218611408115,0.4434857465767668,0.0590799304508628,0.2156760965481443,0.5826628601090059,0.4473944500906591,0.4987755498283776,0.10043401204706492,0.015752308527973935,0.966322650733297,0.508763396451218,0.6354273535137582,0.07512415539940315,0.3279022403258655,0.8340149355057704,0.6398423386916936,0.48039754909055815,0.0499608588571275,0.32244897959183677,0.7224489795918368,0.48298239271641735,0.4974089834515361,0.03780845481634038,0.376,0.728,0.4988404521390653,0.47215840353389066,0.04911223407154436,0.15962441314553993,0.6901408450704225,0.47469976554474985,0.4666855791962167,0.04630225194980751,0.32000000000000006,0.712,0.4689714917212784,0.49696379733926693,0.04366214236002794,0.2980392156862745,0.807843137254902,0.49887362300135263,0.4826810616284314,0.02613183940749096,0.35627530364372473,0.680161943319838,0.48338624921331835,0.46353576891749465,0.020123830364605372,0.3487394957983193,0.542016806722689,0.463971357135354,0.4989477587725398,0.07695935232074883,0.10588235294117648,0.9215686274509804,0.5048342362992493,0.8656478212969019,0.024081275240182203,0.8082254562826785,0.8874169701942618,0.865981920938767,0.4274064661087212,0.22675714368295244,0.24123914422141512,0.8395747805438903,0.48370810622808497,-0.7088655926907642,0.5576198980618523,1.0,-0.06932123450474519,0.7864238455844851,-0.488407792007071
23,0.6798656669790692,0.14818063928759664,0.2947658402203859,0.7988980716253444,0.6957860558368051,0.5569179596306013,0.09110958481245202,0.3667334669338677,0.7615230460921842,0.5643023799224746,0.3586973201456413,0.2087976645519169,0.18267929634641406,0.9255751014884979,0.41490706209887435,0.6444852421974315,0.052332420773087314,0.5246575342465754,0.795890410958904,0.646600998464128,0.6501271198278994,0.060198301618300844,0.4437669376693767,0.8075880758807589,0.6529010397228555,0.8137405458600186,0.0923859723436604,0.5204003079291764,0.9272517321016167,0.818954727690774,0.763803058733183,0.05771526445351454,0.6946591707659873,0.9427266338721011,0.7659749206705012,0.4407129589742625,0.07421228265754866,0.0881141967298209,0.6030376330132364,0.4469017572275714,0.4906719790342536,0.05672293245328595,0.31151765344921234,0.6357935904399782,0.4939313611958082,0.6463017056151614,0.0901739843111765,0.18228377460964007,0.8598126272912423,0.652546002245491,0.4822848727119715,0.05222347553580392,0.24897959183673474,0.7102040816326531,0.4850968570732064,0.4973814432989692,0.03180932965670079,0.4,0.64,0.49839494958636577,0.46961666908668415,0.04920785258055499,0.3051643192488263,0.7464788732394366,0.47218109649279505,0.46544329896907183,0.05267715901218612,0.2,0.68,0.4684070835035363,0.4982110369921164,0.11067917710667932,0.06666666666666665,1.0,0.5103259211224432,0.4819483283943421,0.08092335025564751,0.17408906882591096,1.0,0.4886777077512179,0.46349519189118793,0.03156215783033045,0.30252100840336127,0.6092436974789915,0.4645658137069507,0.4970891449363253,0.07642548892825163,0.1568627450980392,0.8509803921568627,0.5029149228453326,0.8881584914525753,0.03408485297293329,0.7919230782327595,0.9129261286610697,0.8888106034866822,0.49127361459971713,0.13561085980216625,0.3732219562445664,0.8692551143401095,0.5096005023585538,-0.4396120556198718,0.8160350758031565,1.0,-0.18573994285444437,0.4137560765522004,-0.835914543327156
24,0.7048138232517223,0.112943712430498,0.32782369146005563,0.7851239669421488,0.713784885872443,0.5471788647717946,0.05776577429582764,0.3867735470941884,0.659318637274549,0.5502124695700015,0.3451307756325948,0.20219511231925574,0.17050067658998647,0.9431664411366711,0.3998776645069532,0.6331211010354352,0.02956608484500734,0.510958904109589,0.6602739726027397,0.6338094587067661,0.638707584258941,0.04169036771148572,0.5182926829268293,0.7560975609756098,0.640063578821622,0.8170712754845734,0.09429090469064358,0.535796766743649,0.9130100076982295,0.8224812299172569,0.7579487230244906,0.05778613488714436,0.6967673928320449,0.949402670414617,0.7601431875207724,0.44293146855873505,0.07195075991236365,0.10952504541915392,0.6140669608097585,0.4487237962447781,0.4855693858971317,0.05110781602562037,0.26398696360673546,0.6879391634980988,0.4882453337239709,0.6412665410885751,0.08828359574554429,0.240325865580448,0.866601493550577,0.6473009147518657,0.48061703554661267,0.03552862014388248,0.30612244897959184,0.6081632653061225,0.4819253620651882,0.4963192488262906,0.02151117806053535,0.384,0.588,0.49678409929722456,0.46958275474442773,0.0340982592457043,0.295774647887324,0.6854460093896714,0.47081623327439837,0.4660657276995298,0.04109301241944305,0.28800000000000003,0.648,0.4678695697224822,0.4989505661419496,0.034967083061840314,0.32156862745098036,0.7333333333333334,0.5001714647705465,0.48234209575944426,0.017206775995619136,0.3603238866396762,0.6032388663967612,0.4826481901700276,0.46304296366433756,0.016478798374364636,0.38655462184873945,0.5336134453781513,0.46333540718547933,0.49767099327994124,0.049741396650118806,0.1411764705882353,0.7058823529411764,0.500144795130743,0.8921841593655069,0.02534663002756933,0.8057689959100351,0.9110658509999412,0.8925432862186689,0.4740010896317695,0.12274062473392215,0.3841998497717858,0.8756164750735059,0.48959874332950654,0.03278957403707927,0.9568314842517716,1.0,-0.044419251523090515,-0.018916080741310414,-0.9533781998337589
25,0.6375368659860651,0.11569288125583128,0.3471074380165289,0.7300275482093663,0.6479248448060214,0.5687186136979853,0.08514956198578484,0.31262525050100193,0.6553106212424848,0.5750428241405169,0.3816763511900026,0.20734022719862671,0.19350473612990526,0.9215155615696888,0.43424146969438504,0.685334407735697,0.05896457114815173,0.5616438356164384,0.8493150684931505,0.687860371240161,0.661284871672246,0.043702440190355955,0.48035230352303526,0.7703252032520326,0.6627239929948996,0.8140777974007155,0.09858352233266668,0.5427251732101617,0.972671285604311,0.8200112825695229,0.7698524244553767,0.04988836155888079,0.6939564300773015,0.9276177090653548,0.7714633808188509,0.44619501748064916,0.0736282322826121,0.12834051388528422,0.6074477030885024,0.452214942969794,0.4864863264849664,0.03805588940958129,0.2927756653992395,0.6360673546985334,0.4879690450498288,0.6310976207020463,0.08742917217440598,0.207060420909708,0.8180583842498301,0.6371107293474196,0.4795870348139256,0.040037942510301044,0.28979591836734697,0.6285714285714287,0.48125148202440093,0.49628235294117645,0.0335766553858993,0.356,0.664,0.4974142267177091,0.47138359569179744,0.047186035024610266,0.2723004694835681,0.7417840375586855,0.47373386760248626,0.46548705882352875,0.05103652453731491,0.256,0.728,0.46827000758109677,0.4998016147635523,0.0731943685891609,0.06274509803921569,0.8509803921568627,0.5051202470993139,0.48231483686592264,0.04005607076079703,0.22672064777327938,0.6437246963562753,0.4839713993595249,0.4622837370242206,0.02139699738657542,0.36974789915966383,0.5546218487394957,0.462777492715083,0.49945098039215685,0.06079920574678216,0.0980392156862745,0.8274509803921568,0.5031293347489328,0.8767654124017407,0.030202722997668133,0.7983847997100593,0.9016939442583538,0.8772842449839149,0.5106857223129703,0.09720230649435678,0.42862570297472163,0.7853062606893401,0.5198326308489571,-0.13265717059221793,0.8335278144108391,1.0,0.13030832696993236,-0.13416544758938242,-0.9285338796589967
26,0.6260926440183808,0.11120681242343142,0.3085399449035815,0.7796143250688707,0.6358726844375294,0.6001822558598072,0.14684275825257775,0.18436873747494986,0.8276553106212424,0.6178496176202186,0.31218978281052967,0.22268373831201643,0.15832205683355885,0.9566982408660352,0.38334153578346397,0.6941401835671565,0.05298976608806191,0.5767123287671232,0.8561643835616437,0.696155772815051,0.6563527506502432,0.057495070256320835,0.44783197831978316,0.8285907859078591,0.6588611121595113,0.853672458151527,0.11201045984127794,0.5138568129330254,0.9953810623556583,0.8609748920666567,0.7739882725728932,0.049504758302154034,0.6496837666900913,0.932185523541813,0.7755666548702095,0.4422355780151964,0.07364983759581802,0.09434310926550737,0.6322346223721775,0.44831427699626086,0.49415946411767725,0.05563291489701332,0.3661053775122216,0.7474198804997283,0.4972749438591565,0.6407261600833788,0.09440691910475678,0.20638153428377454,0.9833699932111337,0.6476300994083825,0.4807210610602385,0.04757427137529463,0.2571428571428572,0.7795918367346939,0.48306469121381784,0.4977062374245468,0.035043553277866644,0.33599999999999997,0.632,0.4989359462604643,0.47229858021367543,0.050462579926238996,0.15023474178403756,0.8262910798122066,0.47498136506457256,0.46646277665995906,0.04923924398200869,0.31200000000000006,0.8,0.4690491945215212,0.5012111887008326,0.0478075456075653,0.28627450980392155,0.8470588235294118,0.503481497555567,0.48262856491174,0.034133450255728025,0.17408906882591096,0.7975708502024292,0.48383166478101525,0.46328390511133927,0.021520589566103813,0.3571428571428571,0.5378151260504201,0.46378247125970473,0.49635065293723146,0.07547270863986746,0.10196078431372546,0.8117647058823529,0.5020444595800274,0.8818722390725113,0.031869789949906586,0.7882113257190878,0.9030539284437077,0.8824467609603553,0.5093446047723221,0.09406489241622748,0.33406389000358133,0.7605721454871028,0.517940466818933,0.14055426683967825,0.8860480407772898,1.0,0.4439001347392035,-0.1457974903303611,-0.7475195351920232
27,0.56725181476343,0.15368941057981883,0.1460055096418731,0.691460055096419,0.5876543079329799,0.6630389733237763,0.11208648076211629,0.3086172344689378,0.7935871743486973,0.6724235952755923,0.33988522663295323,0.2550324952571026,0.16102841677943167,0.9824086603518267,0.4247414377199559,0.6935139819351407,0.05280839544109759,0.6410958904109589,0.836986301369863,0.6955167751719975,0.6940224450906308,0.04367512426500005,0.5460704607046071,0.8285907859078591,0.6953919970849703,0.8522567425064007,0.11336611148557259,0.5423402617397999,0.9403387220939184,0.8597454045306424,0.7989016043347644,0.05559944137135936,0.7002810962754743,1.0,0.8008292888521441,0.43847025890022756,0.07266352590588386,0.10887723851544245,0.5853890474954581,0.4444359450483093,0.48978920004070575,0.0544595098598921,0.3370429114611624,0.6863139598044541,0.49280024608285417,0.6469061170823378,0.09203349364469626,0.1680217243720299,0.8482661235573659,0.6534042237387058,0.48117582799543207,0.03959181188850859,0.28571428571428575,0.6653061224489797,0.4827979651147507,0.4965255474452552,0.03515368633314761,0.368,0.636,0.49776540072667186,0.46747312749163245,0.049925437530614396,0.032863849765258246,0.6619718309859155,0.47012509999208113,0.4658102189781017,0.05388617626886105,0.24000000000000002,0.76,0.4689091757314608,0.49765755450598675,0.0673056019692984,0.18823529411764706,0.8745098039215686,0.5021773228734308,0.4825300196026288,0.049394957136981756,0.19838056680161947,0.8178137651821863,0.48504550838544336,0.462512012104111,0.024164906277615226,0.34453781512605036,0.5378151260504201,0.46314132103587197,0.4972281856781637,0.08008290378177456,0.0,0.8666666666666667,0.5036204285412409,0.8770296771228492,0.044883786624903915,0.7592705384248905,0.9071696693490554,0.8781746450815018,0.5845077256179396,0.12295276113414925,0.46030420847180237,0.9790459937094319,0.5972686839501283,-0.25055842596166494,0.9248446107883211,1.0,-0.03636403755006507,0.05210250153569717,-0.9308300628855455
28,0.515773571492047,0.11721987244702453,0.14325068870523427,0.6060606060606062,0.5288982190242525,0.7028939599629377,0.11919798583006826,0.3567134268537074,0.7815631262525048,0.7129077945961187,0.3794956858294412,0.23661623171039706,0.20162381596752368,0.9986468200270636,0.44708367673505495,0.71955810870526,0.027448376743663825,0.6191780821917808,0.7547945205479452,0.7200803183989347,0.7170148905790136,0.03256847672483161,0.5779132791327913,0.7947154471544716,0.7177525882229437,0.8459998178913472,0.11052315442551981,0.554657428791378,0.949576597382602,0.8531733645212327,0.8127097832082756,0.051146584597236144,0.7519325368938861,0.977160927617709,0.8143141525785784,0.44351641089613186,0.07031661094529186,0.14936516999740457,0.6019994809239553,0.4490440950901243,0.486483507677571,0.04218481746819103,0.3359565453557849,0.6208582292232482,0.4883051659145871,0.6342311747658571,0.09020523896288368,0.15478615071283092,0.8129640190088254,0.6406002414052491,0.4806583278472681,0.03443548644643027,0.326530612244898,0.6734693877551021,0.4818876225245293,0.4966795698924728,0.04000499041913771,0.32799999999999996,0.708,0.49828461012575126,0.4709273562522082,0.0506301885019889,0.23004694835680753,0.9765258215962442,0.47363538521935555,0.46757849462365475,0.0426355188493883,0.24800000000000003,0.624,0.4695141391712503,0.49922833649588866,0.055652721193346334,0.10588235294117648,0.7764705882352941,0.5023141413865856,0.48310478429324083,0.03398340467301791,0.2510121457489879,0.6639676113360324,0.4842960053571922,0.46349507544953383,0.02621466946587367,0.2983193277310924,0.5588235294117646,0.464234225356751,0.4943369175627239,0.06601783913060541,0.1333333333333333,0.8745098039215686,0.49871632251437165,0.8674180845444938,0.03792358542778652,0.7549918341881253,0.8946949591450479,0.8682449186876355,0.6281955305808496,0.10959539755471447,0.5373298043663796,0.9885410774565021,0.6376636616385769,0.29105756789458653,0.963245317975998,1.0,0.25080745001474314,-0.4203399934759032,-0.9279785190728187
29,0.54957103502558,0.14939509411483143,0.1625344352617082,0.7024793388429751,0.5694589084522955,0.5992442026910957,0.11007694094362701,0.29859719438877746,0.7414829659318636,0.6092420927496968,0.4153489271215923,0.2367989383520282,0.19215155615696886,0.9851150202976996,0.4779416886901359,0.7351115459882583,0.04919769094124386,0.6534246575342465,0.8589041095890411,0.7367513029334075,0.6864982578397211,0.05214086460209056,0.5589430894308943,0.8116531165311653,0.6884698687310404,0.8186099197184651,0.10562501128224118,0.544264819091609,0.9541955350269439,0.8253768639518339,0.7903152293946393,0.059727821657106196,0.7150386507378776,0.9697821503865073,0.7925625413084737,0.44774537392013647,0.08922925032031893,0.11523488191019982,0.6443021022579808,0.45652495091803624,0.4886483308760771,0.05663568383173415,0.30934492123845736,0.7058685497012492,0.4919101822260683,0.634126831539131,0.0963111885833007,0.22606924643584514,0.8703326544467074,0.6413783447465077,0.4808979591836736,0.035334914419686586,0.24897959183673474,0.6122448979591837,0.482190663556135,0.49629714285714294,0.042048447195872966,0.312,0.704,0.49807014996455506,0.4699396378269619,0.05387435547414776,0.23943661971830987,0.7370892018779343,0.47300889703611915,0.4663542857142856,0.04725435861922287,0.32000000000000006,0.6880000000000001,0.4687354416786879,0.5015910364145658,0.07644599014932586,0.16862745098039217,0.9372549019607843,0.507366593410277,0.48335454019664587,0.04279745341638621,0.3319838056680162,0.8421052631578948,0.48524014708376095,0.46320528211284484,0.02256557980028516,0.38235294117647056,0.5588235294117646,0.4637530419268595,0.4982857142857143,0.046617883421936006,0.18039215686274512,0.7490196078431373,0.5004554634488559,0.8592753083250285,0.03989436698725125,0.755094936117529,0.8943481678769303,0.8601982728991169,0.5666655781582807,0.1299161576767317,0.40570027045748586,0.9390160281669834,0.5813259516342295,-0.17702185358846023,0.9241287063242344,1.0,-0.02802206100116967,0.08572917347523437,-0.9170778268196265
30,0.5755621983861838,0.18885528886075734,0.17355371900826433,0.746556473829201,0.6056846100076628,0.4923653453479079,0.14324681458359773,0.12224448897795591,0.7515030060120239,0.5127326529267461,0.41754719335118334,0.22932887526249765,0.20568335588633285,0.9594046008119079,0.47624894894002917,0.7634638427410202,0.06988450238347751,0.6479452054794521,0.9068493150684931,0.766648118184966,0.6358264941987479,0.08536178624782616,0.47018970189701903,0.8441734417344173,0.6415175283576279,0.8081639449876888,0.10366261963387959,0.5180908391070054,0.9260969976905312,0.8147695972340883,0.7652854406416705,0.06711529070004325,0.6595221363316937,0.9406184118060436,0.7682158674857933,0.443945900741125,0.07405654316182526,0.14871528678951468,0.6219818323384375,0.4500659606685105,0.4913745459028203,0.061506467356228785,0.3446474741988049,0.760186854970125,0.4952000065809839,0.6338674100715943,0.10010795940631546,0.24609911744738622,0.953498981670061,0.6417053882844063,0.47895981087470496,0.042650355058959546,0.32244897959183677,0.653061224489796,0.4808505514799689,0.49599054373522466,0.03878094887538489,0.33599999999999997,0.632,0.49750077990363817,0.46905071088469313,0.05259294810476402,0.16431924882629106,0.8215962441314555,0.4719831019450712,0.4652104018912527,0.04626618518469255,0.24800000000000003,0.776,0.46749996523431936,0.5021740138135627,0.051446387824871875,0.2784313725490196,0.807843137254902,0.5047962102898511,0.4844230051396914,0.028322199955247512,0.3724696356275304,0.7449392712550608,0.4852482855098451,0.46368476468601566,0.022978166312479745,0.32352941176470584,0.542016806722689,0.464252419391882,0.49802067399063643,0.06576296220757896,0.14901960784313728,0.7411764705882353,0.5023336887811463,0.8529520812577237,0.037130924486515185,0.7707176655265449,0.8880092190223811,0.853757986272405,0.4833752660970054,0.15303505915762222,0.3253789618063694,0.7828366744652739,0.5069674658351815,-0.5210985597592509,0.773567510283205,1.0,0.022286343009729714,0.38938835243558556,-0.7928392298991676
31,0.5855647382920111,0.16808241773162622,0.26997245179063367,0.7355371900826448,0.6091527990854384,0.5018937875751512,0.13430001032199246,0.19238476953907813,0.7334669338677353,0.5195082054665611,0.42765223274695524,0.22098471906736314,0.2516914749661705,0.972936400541272,0.4812469144000654,0.7495821917808182,0.06315954668794818,0.6328767123287671,0.9095890410958903,0.7522317580054194,0.6417462737127372,0.07631222256254976,0.4722222222222222,0.8170731707317073,0.6462563548997708,0.7998460354118546,0.1022572461445223,0.5234795996920709,0.8929946112394149,0.8063399304215013,0.7681623330990874,0.06861923202397231,0.6886858749121574,0.9564300773014757,0.7712134578041817,0.4386941759667792,0.07259565711252092,0.11627303399948091,0.5953802232026991,0.444645402692068,0.4881320586637695,0.05790676525868689,0.2906029331884845,0.6846800651819662,0.49154625130744073,0.6479581534283753,0.09754929105078258,0.30584114052953154,0.9806544467073998,0.6552418203368596,0.4798163265306127,0.050689959490867596,0.24489795918367352,0.7346938775510206,0.4824797980418804,0.4967799999999998,0.041285989540409795,0.344,0.696,0.49848835492917953,0.46840375586854466,0.057028433466335536,0.10328638497652581,0.7464788732394366,0.4718539923851709,0.46499999999999986,0.05332192860517553,0.30400000000000005,0.8240000000000001,0.468039656439494,0.4980686274509798,0.026600978766134053,0.33725490196078434,0.7372549019607844,0.4987767042395234,0.48240890688259164,0.015903022043556966,0.38866396761133604,0.5910931174089069,0.4826703090977304,0.4636029411764701,0.019689028096748655,0.37815126050420167,0.5378151260504201,0.4640198010325631,0.5012254901960784,0.08920304874584706,0.18039215686274512,0.8313725490196078,0.5090818038076873,0.8550764977220262,0.03452718579410933,0.7723300664190969,0.8828075550034984,0.8557715601718902,0.4945289464182273,0.15381043498967442,0.3540056098466728,0.8279203222780863,0.517839149381788,-0.3517902955225861,0.8091967821859882,1.0,0.08194304407185765,0.2847312847216632,-0.845543693478609
32,0.5587082322195239,0.12116036194509146,0.225895316804408,0.6749311294765843,0.5716682417815891,0.5662248521684046,0.13372061918282493,0.20841683366733466,0.7454909819639277,0.5817689147388716,0.4417590783927456,0.2009301393601433,0.2516914749661705,0.972936400541272,0.48522273542234085,0.7483615088183165,0.024493430040636636,0.6602739726027397,0.7726027397260273,0.7487614066648597,0.6788923946734328,0.05591049026965496,0.5013550135501356,0.8319783197831978,0.6811860594665156,0.8005376114623003,0.09640175837188972,0.53387220939184,0.9014626635873749,0.8063092977471084,0.7828581776938274,0.05688490821980567,0.6858749121574139,0.9402670414617006,0.7849179413299033,0.44397382449793754,0.06921476922467641,0.11964702828964441,0.630548663379185,0.44932572148065153,0.49044296299105394,0.04660420781437809,0.31640195545898964,0.67680608365019,0.49264773649403754,0.6404431303504121,0.07761838045513017,0.2644236252545824,0.8557393075356414,0.6451198689615476,0.4803419519758619,0.04380011050826282,0.2571428571428572,0.689795918367347,0.482330696915292,0.4970102669404514,0.042639626574998826,0.324,0.644,0.4988322462073428,0.47129594817364184,0.05831406476880231,0.15492957746478875,0.8075117370892019,0.47488253106072553,0.4653634496919916,0.04627469131596555,0.30400000000000005,0.728,0.46765381464185274,0.4988927809316745,0.03020235914744204,0.22352941176470587,0.6823529411764706,0.49980427799202887,0.48302006002211406,0.015040505317301023,0.417004048582996,0.5627530364372471,0.4832536918359569,0.4629527375631975,0.022017088450597872,0.2983193277310924,0.542016806722689,0.4634749119604417,0.49841768329508385,0.06457051389428814,0.11764705882352944,0.8823529411764706,0.5025743497131342,0.8547669302216601,0.030212591859043517,0.7599617872857252,0.8772686830538188,0.8552996149732005,0.5460147163694775,0.1210931706821872,0.4223539694091562,0.8402404239314256,0.5592544291346151,0.13632881207202427,0.9326679386453323,1.0,0.14198158496823945,0.10030416785973655,-0.8925195176775416
33,0.4500002664236897,0.1136465478309974,0.17355371900826433,0.5426997245179066,0.4641021395311121,0.6605008857172754,0.11382393656189424,0.29058116232464926,0.7354709418837674,0.6702180606504405,0.43918149624538627,0.19520427758691708,0.28010825439783493,0.9742895805142083,0.4805324059120464,0.8051323494343039,0.04620964875249839,0.6863013698630137,0.921917808219178,0.8064547733804726,0.721497538959917,0.037905257966751565,0.5670731707317073,0.8184281842818428,0.7224906422784251,0.8336944204960511,0.09197686399956852,0.5635103926096998,0.9368745188606621,0.8387429684576724,0.8051274244213936,0.043525372616727384,0.7403373155305693,0.9553759662684469,0.8063007895865628,0.44585270388920406,0.0611044900806592,0.20503503763301323,0.6105621593563456,0.4500124112765233,0.4870183368932657,0.04440036216002391,0.30879739272134704,0.6846800651819662,0.4890341905149207,0.631377735407546,0.07920650743498941,0.21758587915818056,0.788866259334691,0.6363170442700771,0.48119843682153746,0.03442864121599701,0.326530612244898,0.6081632653061225,0.48242613343905444,0.496618955512573,0.03368417883158344,0.316,0.664,0.4977577887362313,0.46972875291724486,0.04815105683329749,0.1220657276995305,0.7417840375586855,0.47218549429042184,0.46523791102514445,0.04514729847918713,0.24800000000000003,0.768,0.46741913728824624,0.49895702962035876,0.08405983769078322,0.09019607843137256,0.9215686274509804,0.505974807969565,0.48333189766560664,0.046235954113297076,0.23481781376518224,0.8178137651821863,0.48553408924072583,0.46309510264453824,0.018052921105600188,0.37815126050420167,0.5210084033613445,0.4634461691188078,0.4975234194257978,0.05873354217749577,0.0039215686274509665,0.8862745098039215,0.5009715655178246,0.8424923101940444,0.032270432418964184,0.75360356743547,0.8673279442544023,0.8431089249132538,0.6142372724166217,0.08905393782527571,0.521890964289429,0.910831326327575,0.6206469938771407,-0.04899167492053661,0.9007895095495522,1.0,0.12888796908627292,-0.1905376690680429,-0.9152853365215609
34,0.4063099016434661,0.1933283402973727,0.10468319559228623,0.6198347107438018,0.4498805692536681,0.6013890899670081,0.11436155918854048,0.3026052104208416,0.7775551102204408,0.612145848272324,0.48943696393749636,0.18256012724029527,0.2760487144790257,0.9404600811907983,0.5223154029217205,0.8485467993124631,0.07196759816519316,0.6945205479452055,0.9547945205479451,0.8515874348322989,0.7125735468381288,0.07119227668853138,0.5514905149051491,0.8733062330623306,0.7161143514032507,0.8164843093693008,0.07737892266635289,0.5792917628945343,0.9060816012317168,0.8201358070733448,0.7994129576832536,0.05887994364750579,0.7066057624736471,0.932536893886156,0.8015742845865812,0.4428290394428713,0.05611799316937199,0.20944718401245782,0.5811056319750842,0.44636397726919974,0.48734717245339054,0.06447992755258805,0.3142292232482346,0.762898424769147,0.4915862317609329,0.6375357706137578,0.07692088213726839,0.3699932111337406,0.8896836388323149,0.642150630467356,0.4797392721347099,0.03614330735352389,0.3102040816326531,0.6244897959183674,0.48109627348505385,0.4967756653992396,0.02413310425504711,0.404,0.6,0.49736039369528495,0.4695728235063094,0.04697151670468316,0.24413145539906103,0.812206572769953,0.47191181954479866,0.46544486692015197,0.04971396088559669,0.28,0.776,0.4680872818418089,0.49708491761723683,0.09177457737945804,0.0,1.0,0.5054700543844457,0.4822662828466328,0.05622929392354147,0.10931174089068829,0.8623481781376519,0.48552702310547596,0.4633910598459907,0.020064134704895806,0.34033613445378147,0.542016806722689,0.46382440481866644,0.4981212256765823,0.041388461443404675,0.25098039215686274,0.8,0.4998344761490423,0.8262997576323333,0.033335212141041265,0.765228310243129,0.8654917194597357,0.8269706241548553,0.5966223869684155,0.13928190393699794,0.4285640948328929,0.8395539854142685,0.6126343447072676,-0.6849080207490547,0.6132642869068633,1.0,0.03564695234560472,0.568685480635711,-0.646763595644451
35,0.5100795551092915,0.1692779420775825,0.14876033057851257,0.6556473829201102,0.5373725181187582,0.5376407019646767,0.0949103534158729,0.2805611222444889,0.719438877755511,0.5459344767676811,0.4410513070200946,0.204064961854488,0.2449255751014885,0.9580514208389715,0.48587186428093876,0.8120471130457048,0.059960069419964644,0.689041095890411,0.9657534246575342,0.8142526166414954,0.668640617480941,0.057926226623098154,0.5528455284552846,0.8042005420054201,0.6711392428139912,0.8133161382227878,0.09003926983467495,0.5500384911470362,0.9141647421093149,0.8182733461706992,0.7752173898765934,0.06256236429288184,0.7059030217849613,0.9501054111033028,0.7777318985471154,0.4389133846426261,0.06294134844290915,0.1655852582403322,0.5598235141448221,0.44339295941220547,0.48713550640397574,0.054763186103080876,0.32672677892449753,0.7254231395980445,0.4901969003645007,0.6453009244278632,0.08552300444739855,0.24405702647657834,0.8642226748133061,0.6509303942369988,0.4803738317757013,0.06107208794572664,0.17142857142857143,0.7387755102040817,0.48423145673852236,0.4964579439252337,0.031723270774672956,0.38,0.596,0.4974680941255404,0.46810144355227973,0.07238309364039842,0.1267605633802817,0.7793427230046949,0.4736518049336796,0.46325233644859765,0.05616204281430861,0.264,0.68,0.46663640311304544,0.4996151731720721,0.09806710876655436,0.07450980392156864,0.9686274509803922,0.5091267122148282,0.48393809830110907,0.061331161465271324,0.1619433198380567,0.902834008097166,0.48779996492006134,0.463038953899316,0.025397426613256852,0.3655462184873949,0.542016806722689,0.4637333231815406,0.4992028587135793,0.08278570778525995,0.1568627450980392,0.8352941176470587,0.5060048959970312,0.8394782204367244,0.034683949827671756,0.7537009082591565,0.8722177339044592,0.8401927447144446,0.5254775486697194,0.14355503637616698,0.40207033112991303,0.8757312201964453,0.5446894096445642,-0.5747185396937026,0.7974102888910558,1.0,-0.14513939492070393,0.4474272500809742,-0.8876734841113441
36,0.45534487022435455,0.09450098033412864,0.15426997245179042,0.5399449035812671,0.4650276789705608,0.6143393258332948,0.11503696231902848,0.28857715430861713,0.7635270541082163,0.6249949460680604,0.4551741477649927,0.18850695141663656,0.3085250338294993,0.972936400541272,0.49258927108910333,0.8237681242314177,0.03253564640852813,0.6904109589041095,0.8520547945205479,0.8244090494604603,0.7064019439776859,0.03988799601822002,0.5176151761517616,0.8523035230352304,0.707524866750025,0.8221130434363365,0.09219976808141236,0.5577367205542726,0.9337952270977675,0.8272562519892696,0.7952457171696129,0.04902453743180688,0.7364722417427969,0.9543218552354181,0.7967522440504804,0.44153292367143804,0.05825608532740743,0.1911487152867895,0.5799366727225538,0.44535155668933674,0.4871993731282007,0.04901342130661439,0.3101575230852797,0.654535578489951,0.4896534788728818,0.6366723500390447,0.07826987083191102,0.23252138492871688,0.7980285132382892,0.6414554267287281,0.48020109922883597,0.04318426992042105,0.22040816326530616,0.7224489795918368,0.4821349225984783,0.49858872651357034,0.028733590154844134,0.372,0.672,0.4994142706998921,0.4708949591774731,0.03799610104240764,0.3427230046948357,0.6291079812206573,0.4724222182306751,0.4659540709812102,0.03984979616400745,0.29600000000000004,0.632,0.46765145917139583,0.4977199230422862,0.05683793626938922,0.13725490196078433,0.7294117647058823,0.5009480296669894,0.48319288666503335,0.03626498514573783,0.20242914979757087,0.680161943319838,0.48454903699958074,0.46228136348485055,0.04745367526760443,0.04201680672268904,0.7394957983193277,0.46470550800575283,0.4970977117360517,0.0645295993415082,0.10196078431372546,0.9450980392156862,0.5012599235419657,0.8359537965432516,0.026861002115190283,0.7492900011174336,0.8542080915670275,0.8363843357563642,0.5873096862771593,0.10321328177416537,0.48719653744876995,0.8957119783993611,0.5962913793478912,0.1568798379897719,0.9478969606040717,1.0,0.0826198354725954,-0.05225215850907166,-0.912122679089786
37,0.4339940027791994,0.1501902016709433,0.1404958677685948,0.6363636363636365,0.4591746410877633,0.5655854481825009,0.11815562527171915,0.3186372745490981,0.7134268537074147,0.5777598712445318,0.5029957568427394,0.19988006686240287,0.2733423545331529,0.9661705006765899,0.5411459321680431,0.8354507617084903,0.04296782542841978,0.7205479452054794,0.9397260273972602,0.8365517097844489,0.7000983284169127,0.06287749603851898,0.5365853658536586,0.8373983739837398,0.7029079502209404,0.7993021634522586,0.0902198878510593,0.5800615858352579,0.956120092378753,0.8043628322845172,0.7963057398781501,0.06461463283691887,0.6784961349262122,0.959943780744905,0.7989152435368447,0.4472497682149377,0.07303655448402617,0.17609550999221385,0.5831819361536464,0.4531566593883739,0.49135645466504513,0.0825462403343352,0.17218902770233568,0.6624139054861488,0.49822178534066863,0.6386861561198923,0.07446928568489804,0.3275655125594025,0.7942973523421588,0.6430002500837487,0.48038047077237944,0.02069606656198878,0.38775510204081637,0.5673469387755102,0.48082477095991183,0.4958230088495574,0.039661488502197986,0.356,0.608,0.49740210047558353,0.46905424681817587,0.03455855778579378,0.2018779342723005,0.5915492957746479,0.47032186572973256,0.46600589970501466,0.04590638751627758,0.24800000000000003,0.72,0.4682549289287588,0.5006188906240963,0.11632906521678393,0.011764705882352955,1.0,0.5139180930150021,0.4839907802180732,0.07519717024391538,0.15384615384615385,0.9311740890688259,0.48978057277753406,0.46279219652462683,0.01095072374004721,0.39495798319327724,0.49579831932773105,0.462921355926764,0.49779628665625514,0.022113588271681535,0.34901960784313724,0.5647058823529412,0.4982857727101111,0.8262007102289007,0.03135303408573991,0.748401346239854,0.8598637366314539,0.8267936420815695,0.58740376369795,0.14556694047606128,0.35641923968565864,0.9053808501165889,0.6051201609396578,-0.2711021100640478,0.8576341893913354,1.0,-0.06536749243381597,0.3292036717005293,-0.7588851349939691
38,0.3925281127218525,0.1941421746709725,0.057851239669421295,0.5840220385674935,0.43782675481312894,0.5883324025099389,0.10734561694733423,0.25851703406813625,0.7294589178356713,0.598025488126584,0.48727234410701126,0.2053388098684147,0.26522327469553447,1.0,0.5286889089770833,0.8626094767572393,0.06272163108138573,0.7630136986301369,0.9821917808219177,0.8648821023210875,0.710179816962105,0.06400668850857502,0.48983739837398377,0.8448509485094852,0.7130524759069854,0.8198519668345128,0.08258679077862377,0.565050038491147,0.9688221709006929,0.8239926267505351,0.7991500869785603,0.061457185916598156,0.7101194659170765,0.9694307800421644,0.8015049017278879,0.4424990320508181,0.06385257219894773,0.14897482481183494,0.5711123799636646,0.44707291298484925,0.48824867988708853,0.05414183545702586,0.3006539923954372,0.6635002715915264,0.4912352846826727,0.6344502353844587,0.08109319539195926,0.29836795655125586,0.8367304820095043,0.6396012288063032,0.48172465707594553,0.04886937831417876,0.04489795918367351,0.8,0.4841920770585013,0.4964262295081962,0.030672923276148775,0.364,0.6799999999999999,0.4973709899454769,0.47121526976064065,0.04968802414018344,0.26291079812206575,0.6948356807511737,0.4738224044700331,0.46729508196721264,0.05001415627519219,0.31200000000000006,0.744,0.4699584913655221,0.4985936997749919,0.05320045660343116,0.2784313725490196,0.8392156862745098,0.5014181551025478,0.4826524855644794,0.027395264182940835,0.3643724696356275,0.6558704453441295,0.48342774476684974,0.46353664416586227,0.026869832610238602,0.2815126050420168,0.6428571428571428,0.46431317976732245,0.4979267116682739,0.056722583311791266,0.19215686274509802,0.7215686274509804,0.5011405676176204,0.8214560656121803,0.03945665125327453,0.7287615335052019,0.8627186012433115,0.8224011824159959,0.5960663298814594,0.143370102413456,0.44246017283321887,0.9482422264476348,0.6130317569350727,-0.576204537113228,0.8325569084423532,1.0,-0.13383682265852834,0.4618405859180453,-0.8552786347826533
39,0.3977927631023005,0.22673581661431805,0.0,0.647382920110193,0.457701339513978,0.5752425095589938,0.1190361717749128,0.28456913827655306,0.7334669338677353,0.5873926199167141,0.49201374764438766,0.23029245953947317,0.27740189445196206,0.9810554803788903,0.5430924984915777,0.847386334986133,0.08066415776853467,0.7534246575342465,0.9999999999999998,0.8512052325073016,0.7100686651038292,0.06837245198401198,0.5074525745257453,1.0,0.71334280784157,0.814659223470627,0.09389319272077312,0.5677444187836798,0.9865280985373365,0.8200356939121456,0.8026074697455046,0.06772375437781358,0.6739283204497539,0.9718903724525649,0.8054509223774688,0.4316455888885882,0.07184053322637023,0.13911237996366466,0.5708549182455229,0.4375650181882009,0.46787814038116116,0.06265729174013046,0.1529082020640956,0.6124410646387832,0.47204220966523375,0.6439885713809705,0.09518707287576007,0.2535614392396469,0.8170373387644263,0.6509639511718954,0.4804432202328781,0.015351273563504178,0.42040816326530617,0.5306122448979592,0.48068766010728486,0.49707975460122666,0.02554826059895081,0.384,0.588,0.4977338584675854,0.4712693337941771,0.03780421224403254,0.23004694835680753,0.6525821596244131,0.47277855230174254,0.46569325153374164,0.04538604750541986,0.24800000000000003,0.896,0.46789291418133727,0.49349212077469035,0.098245262939296,0.0,0.8941176470588235,0.5031470929964641,0.4808251161173334,0.055229381036674075,0.10931174089068829,0.7732793522267207,0.4839769830456103,0.46303552095684924,0.011922111729919267,0.407563025210084,0.5084033613445378,0.4631885085076984,0.4985324191026106,0.02487822629512134,0.3764705882352941,0.6,0.499150879487795,0.8227982162351517,0.047831765190125705,0.7326062234002083,0.8676376886442454,0.8241830891076382,0.5997729020561147,0.15409766299696384,0.4119275430198804,0.931514349017292,0.619193655503561,-0.5121073735750702,0.8151118802618637,1.0,-0.06434902795196018,0.4010834047213413,-0.8597972596667479
