,Orientation X,Orientation X,Orientation X,Orientation X,Orientation X,Orientation Y,Orientation Y,Orientation Y,Orientation Y,Orientation Y,Orientation Z,Orientation Z,Orientation Z,Orientation Z,Orientation Z,Orientation W,Orientation W,Orientation W,Orientation W,Orientation W,Accelerometer X,Accelerometer X,Accelerometer X,Accelerometer X,Accelerometer X,Accelerometer Y,Accelerometer Y,Accelerometer Y,Accelerometer Y,Accelerometer Y,Accelerometer Z,Accelerometer Z,Accelerometer Z,Accelerometer Z,Accelerometer Z,Gyroscope X,Gyroscope X,Gyroscope X,Gyroscope X,Gyroscope X,Gyroscope Y,Gyroscope Y,Gyroscope Y,Gyroscope Y,Gyroscope Y,Gyroscope Z,Gyroscope Z,Gyroscope Z,Gyroscope Z,Gyroscope Z,EMG1,EMG1,EMG1,EMG1,EMG1,EMG2,EMG2,EMG2,EMG2,EMG2,EMG3,EMG3,EMG3,EMG3,EMG3,EMG4,EMG4,EMG4,EMG4,EMG4,EMG5,EMG5,EMG5,EMG5,EMG5,EMG6,EMG6,EMG6,EMG6,EMG6,EMG7,EMG7,EMG7,EMG7,EMG7,EMG8,EMG8,EMG8,EMG8,EMG8,Roll,Roll,Roll,Roll,Roll,Yaw,Yaw,Yaw,Yaw,Yaw,Accelerometer X vs Roll,Accelerometer Y vs Roll,Accelerometer Z vs Roll,Accelerometer X vs Accelerometer Y,Accelerometer X vs Accelerometer Z,Accelerometer X vs Accelerometer Z
,mean,std,amin,amax,RMS,mean,std,amin,amax,RMS,mean,std,amin,amax,RMS,mean,std,amin,amax,RMS,mean,std,amin,amax,RMS,mean,std,amin,amax,RMS,mean,std,amin,amax,RMS,mean,std,amin,amax,RMS,mean,std,amin,amax,RMS,mean,std,amin,amax,RMS,mean,std,amin,amax,RMS,mean,std,amin,amax,RMS,mean,std,amin,amax,RMS,mean,std,amin,amax,RMS,mean,std,amin,amax,RMS,mean,std,amin,amax,RMS,mean,std,amin,amax,RMS,mean,std,amin,amax,RMS,mean,std,amin,amax,RMS,mean,std,amin,amax,RMS,corr, corr, corr, corr, corr, corr
0,0.8048375437156844,0.0011800777058492647,0.8037825059101655,0.8061465721040189,0.8048384016985878,0.4676838313201953,0.001071585206406167,0.4649572649572648,0.47008547008546997,0.4676850488129275,0.015017133642410762,0.00054471297137011,0.01371951219512195,0.01524390243902439,0.015026927925829941,0.7361111111111129,0.0,0.7361111111111112,0.7361111111111112,0.7361111111111114,0.5846652753844775,0.0032702251763458904,0.5766505035434538,0.5930622901902274,0.5846743454521207,0.8396929953804235,0.0035408690355055025,0.8315962698848053,0.8513439385628085,0.8397003993250671,0.16261100191811312,0.0013094669266495351,0.15959885386819478,0.16647564469914033,0.16261623067006614,0.455003696990179,0.0008838153903988263,0.4527583643122676,0.45724907063197023,0.4550045482726056,0.44771629453821604,0.0023155932362656016,0.4416167625334045,0.4529499714896088,0.4477222331460076,0.5153483419399573,0.0010066370436625453,0.5128315091679708,0.5178226810896632,0.5153493169529486,0.4522988044612051,0.008282775103435296,0.42718446601941745,0.4805825242718446,0.45237401108180314,0.45586145180818016,0.034180214271855386,0.39490445859872614,0.6114649681528663,0.45713050109074427,0.4305110473941638,0.022290490691438975,0.37755102040816324,0.5102040816326531,0.4310829636778881,0.28410588094382583,0.00820460089771784,0.2608695652173913,0.30434782608695654,0.2842233465718659,0.382318705622163,0.007466007547817291,0.3661971830985915,0.4014084507042253,0.3823909952727284,0.33965145526410384,0.012415514086313294,0.31521739130434784,0.3695652173913043,0.3398764218469904,0.5149678604224057,0.02849845652457755,0.4444444444444444,0.5777777777777777,0.5157493065525813,0.47980917825707164,0.005723241463033398,0.46341463414634154,0.49186991869918706,0.47984302883965946,0.8664963202764053,0.0001073277627186789,0.8662917328369997,0.8666596428301166,0.8664963268684962,0.39498077672511345,0.0006622673242411767,0.3932523443460447,0.3966678882232592,0.3949813273505544,0.03480441801018572,-0.0051829054799804155,1.0,0.12503376323789853,0.1548979523557068,-0.00540698849141723
1,0.8003677436301537,0.007121223144015745,0.7848699763593383,0.8085106382978726,0.800399203333738,0.47407407407407376,0.009110581021701194,0.4632478632478632,0.5008547008547007,0.4741610000708601,0.017710450542005422,0.007627271995323527,0.0,0.0350609756097561,0.019272554099151615,0.7379329561042529,0.005209046623252395,0.7314814814814815,0.7499999999999999,0.7379512134550428,0.5871384019229969,0.021224725095619953,0.4778067885117493,0.6889220440134278,0.5875192452784436,0.8408110867312732,0.029883435478444575,0.7756445419637961,1.0,0.8413382802181378,0.1643206781279847,0.005968953901453026,0.14670487106017183,0.18567335243553,0.16442830124890243,0.4560229244114002,0.010254991058234566,0.4160495662949194,0.494270136307311,0.45613741582875,0.44819844035167783,0.017125374700597013,0.41205529702046706,0.5391695987260979,0.44852322541463735,0.5143314175414903,0.007131096658459903,0.48944964801744634,0.5394936743511249,0.5143805074720031,0.45216423948220036,0.008985352136252133,0.4320388349514563,0.48543689320388345,0.4522528887127446,0.452671620665251,0.036224511951552976,0.3694267515923567,0.5987261146496815,0.45410868612681093,0.42984693877551,0.023396054478471828,0.36734693877551017,0.5102040816326531,0.43047876245178834,0.28406803542673087,0.010088299187250885,0.2536231884057971,0.32608695652173914,0.2842458720356894,0.38155320813771526,0.007973177833323724,0.3661971830985915,0.4014084507042253,0.3816359269457539,0.3398248792270538,0.014428476850989674,0.30434782608695654,0.3695652173913043,0.34012892229994096,0.5185185185185187,0.033757978902788886,0.4222222222222222,0.6444444444444445,0.519608642431434,0.480408762420957,0.01544859652698531,0.39837398373983746,0.5406504065040652,0.48065536592280744,0.866064834656502,0.0014394367626565589,0.8628018781279592,0.8679712671535418,0.8660660225514278,0.4000807839036171,0.008010634180667045,0.38890389933688974,0.4237990245074161,0.4001604156861396,-0.024076798530168756,0.07257133439598037,1.0,-0.36036914346034066,0.062189694992405224,0.06203241558780557
2,0.5669449976126426,0.210571471827388,0.2458628841607564,0.8510638297872342,0.6046061112178474,0.5228327228327224,0.2062756985540082,0.0,0.7914529914529914,0.5618666350864604,0.4936321038087226,0.3375330559412967,0.019817073170731697,1.0000000000000002,0.5975282364133248,0.6083211701027799,0.2083681759343114,0.0,0.8441358024691358,0.6428515104037104,0.647982610708819,0.14240582149132655,0.0,0.9627004848936963,0.6633709242684864,0.618954843556202,0.20393805898325207,0.0,0.9665386725178278,0.6515296998685634,0.28268945756348196,0.112287199861805,0.0,1.0,0.30407175838998274,0.4957939458311208,0.13378625698019156,0.20833457249070628,1.0,0.5134415526965457,0.4570042318297693,0.11178321704159935,0.05583832374665959,1.0,0.47041131087200555,0.5097518345953825,0.15939917961307273,0.0,1.0,0.5339755315443503,0.4541824094887369,0.07433135013742043,0.10679611650485438,1.0,0.46019516861486837,0.45207241693075195,0.06996168172360497,0.0,0.694267515923567,0.45742758503104824,0.43535739418920305,0.08382961811937431,0.0,1.0,0.44331574277398844,0.2877846790890265,0.06921514987846286,0.0,1.0,0.29595127774948293,0.38333448969680145,0.07637616335287772,0.0,1.0,0.390832334590351,0.34204326408224467,0.07130334164235759,0.021739130434782594,1.0,0.34936043834138647,0.510782703886152,0.11034893335280932,0.0444444444444444,1.0,0.5225092085464834,0.4808963114261686,0.05433136007612438,0.2642276422764228,0.8130081300813009,0.48394071710078534,0.8250751875554456,0.10768569818460375,0.0,1.0,0.8320385511068403,0.6534292771583282,0.24076286661600454,0.0,0.9652412200599942,0.696168821233098,0.04188033200870394,0.25846514799511205,1.0,0.21556426147318825,0.0467117978963864,-0.6446687853897527
3,0.42960789108991615,0.2585950487153029,0.009456264775413725,0.7115839243498818,0.5012885595262718,0.564275714706749,0.10938198533292856,0.31794871794871793,0.7333333333333332,0.5747570926382926,0.5188150494112702,0.11860059933814666,0.35365853658536583,0.7713414634146342,0.5321699378804049,0.8139866698595151,0.08317694529782389,0.7114197530864197,0.9614197530864197,0.8182162260577073,0.7060243540109847,0.05737709005841141,0.4654979485266691,0.8728086534875046,0.7083469656965015,0.6530160591673447,0.06633960318627719,0.4788809654415799,0.8003291278113002,0.6563698893844223,0.26681404999505987,0.0581953106847619,0.10888252148997124,0.40343839541547266,0.2730734929475566,0.4576245192923982,0.057979607912209685,0.19501363073110284,0.6197348203221809,0.46127496213037406,0.44853958205479033,0.0787262717584168,0.09311993020866449,0.7679411818805297,0.45538140624265344,0.5145903698510944,0.034632170390019215,0.4073279893424337,0.7117210418501098,0.5157519278520889,0.45530632741881466,0.046845975058969556,0.15048543689320387,0.8300970873786406,0.4577047820846666,0.4554689215901604,0.051535034749694855,0.2802547770700637,0.8598726114649682,0.4583689283812395,0.43178219563687625,0.035765600928397874,0.3163265306122449,0.6530612244897959,0.43325775911018705,0.28520114942528646,0.020297377492461365,0.2028985507246377,0.3695652173913044,0.2859209528366727,0.3823761534725592,0.015520715064270827,0.28873239436619713,0.4788732394366197,0.38269033979903266,0.33993159670164763,0.0282895649161752,0.08695652173913043,0.5869565217391304,0.3411041851632881,0.5177203065134095,0.058612392233383284,0.3111111111111111,0.7555555555555555,0.5210204644669528,0.4805333613680957,0.05085287088482481,0.0,1.0000000000000002,0.48321087793828504,0.7977106502854889,0.037284284717114986,0.7240669450215634,0.8393788023950369,0.7985796162700638,0.6982396562422571,0.13681559710467683,0.44648287799547093,0.9290481385282006,0.7114891310126835,-0.5750903966446148,-0.6476785014942333,1.0,0.4791039650894982,0.6201713789914151,0.5989498955650666
4,0.5211087541871111,0.2367132148129796,0.0,0.7565011820330969,0.5722046795757033,0.5350737211764399,0.11700344129026616,0.28717948717948716,0.7743589743589743,0.5476790423587963,0.47169515879448815,0.12649008042629956,0.32317073170731714,0.8048780487804876,0.48831109519647337,0.7787195554063631,0.10912362323194894,0.6249999999999999,1.0,0.7863053703199739,0.6929506170196227,0.05658281729996649,0.5091383812010443,0.9369638194703468,0.6952499552592295,0.6426344808613672,0.0666790347800275,0.4777838727372464,0.8134942402633023,0.6460740958775293,0.2482215046875405,0.05581953697006154,0.08853868194842396,0.3661891117478509,0.2544018921731654,0.45190898370377014,0.08130868792873705,0.05901610904584881,0.6363073110285006,0.459143614966852,0.4491633809545951,0.07511455124752635,0.09279146948074302,0.6556076129313675,0.45538213918739834,0.522454098672274,0.04443522014830631,0.3353301062563018,0.6494157956448148,0.524334634356875,0.45280556125890964,0.0427996341650959,0.1407766990291262,0.6601941747572815,0.4548177116455026,0.452364000230916,0.036998626445682095,0.3184713375796179,0.5987261146496815,0.45386997192939965,0.4292804735187135,0.03343698850351995,0.29591836734693877,0.5510204081632653,0.4305767984969093,0.2842725163098198,0.02247527525175694,0.16666666666666669,0.48550724637681164,0.28515693123276864,0.3818560912301605,0.018573304986879223,0.3028169014084507,0.5492957746478873,0.38230615986320404,0.3395507684224337,0.023890163139895594,0.19565217391304346,0.45652173913043476,0.3403876318866542,0.5149378986236992,0.07293929736385577,0.0444444444444444,0.8,0.520062599698428,0.4807678137204328,0.03355930642479285,0.3373983739837399,0.7439024390243903,0.4819341399596058,0.8120506331282209,0.04148469514946284,0.7107438209828367,0.8544593234559963,0.8131063960887573,0.6526178416381597,0.12604982774429077,0.511439027053782,0.8844730536368273,0.66464321602629,-0.40353965782747947,-0.27784989714910857,1.0,0.3503477258609104,0.531827285093473,0.17547394213200312
5,0.5504201902888181,0.19388114855320226,0.1678486997635935,0.7375886524822697,0.5834965226172277,0.5219564427618115,0.13088680153029855,0.2957264957264957,0.7504273504273503,0.5380813672455498,0.4384855677415834,0.1314006133240035,0.2850609756097561,0.8185975609756097,0.4577085181971951,0.7888150081475958,0.045656814044836264,0.6851851851851852,0.8765432098765432,0.7901322663559079,0.6813544980962232,0.05885816615087591,0.5800074599030212,0.9246549794852665,0.683886310524752,0.6530413643219074,0.05507593031614938,0.4530992868897422,0.8513439385628085,0.655354557151767,0.238366569873656,0.06010266423419701,0.09799426934097416,0.3664756446991403,0.24581063973241368,0.45927666475387324,0.06652483907896514,0.11586121437422553,0.6728624535315986,0.46405894930839486,0.4497827047847117,0.06441090640313368,0.14895825395532408,0.7139107059803502,0.45436105140511546,0.5161466837756512,0.045997754652460386,0.3577128205596135,0.6879103231487269,0.518187668019057,0.4521187637106058,0.028603317457453963,0.3495145631067961,0.5776699029126213,0.4530206352431365,0.4516023311816927,0.041480479690684316,0.19745222929936307,1.0,0.45349911404494997,0.4288681915719307,0.03337989843472215,0.2755102040816326,0.7142857142857142,0.43016235389074176,0.2840028531595486,0.01869155754498562,0.2173913043478261,0.3840579710144928,0.2846159049107824,0.3817783659451113,0.015967180877356803,0.323943661971831,0.45774647887323944,0.3821113727815646,0.33970430891936465,0.024653723932488544,0.22826086956521738,0.45652173913043476,0.3405957484422331,0.5154859557544117,0.06757949723273986,0.0,0.9111111111111111,0.5198870473957585,0.48016587548425665,0.016447610383332693,0.394308943089431,0.5731707317073171,0.48044686144050713,0.8151698044569903,0.027720336541623928,0.7347778857352132,0.8440102499926337,0.8156399377805175,0.6248743788595936,0.14385994157154672,0.46591993036136864,0.8769500758292357,0.6411843518657403,-0.582617625885867,-0.00041015359391410183,1.0,0.3167886141143527,0.6821930398433453,0.07234611609878637
6,0.5721451331072049,0.22476048377741606,0.02127659574468077,0.7423167848699765,0.6145900271903746,0.4825418060200668,0.09889741179246968,0.31282051282051276,0.7487179487179486,0.4925433410035202,0.4301829268292681,0.1411826476708625,0.2850609756097561,0.833841463414634,0.4526942843249508,0.7911343710860625,0.06801746481189666,0.7191358024691357,0.9506172839506172,0.7940444312814376,0.6709101622258619,0.047324963237444735,0.5639686684073106,0.8168593808280491,0.6725723798804182,0.6446802928760526,0.056372274424343054,0.45693911135490956,0.7800329127811301,0.647133141042431,0.22713840787342687,0.056509876655487644,0.1277936962750716,0.3750716332378223,0.23404265926770204,0.4544159043154998,0.07108760410955245,0.15086988847583638,0.6624857496902106,0.4599267483840432,0.4412836024369235,0.06591417070641566,0.12071063135407278,0.6007572990542959,0.4461651066705553,0.5223135654863698,0.04634525537299226,0.4067577000460795,0.7235534041708679,0.5243597216031455,0.4520472773322075,0.03376305945608849,0.21359223300970873,0.5825242718446602,0.45330274755538064,0.452857010984953,0.031026779165315474,0.33757961783439494,0.694267515923567,0.453915568252276,0.4297840875480629,0.026919583977166116,0.3469387755102041,0.5816326530612245,0.430623879314255,0.28454106280193114,0.01703672254060905,0.21014492753623187,0.37681159420289856,0.28504916248127765,0.38142478056746243,0.015511325506752128,0.23943661971830985,0.43661971830985913,0.381739134822559,0.339287964713294,0.02077063717288887,0.16304347826086957,0.46739130434782605,0.33992130247593294,0.5131078904991939,0.04499361125978877,0.19999999999999996,0.7111111111111111,0.5150711256205518,0.4800636267232228,0.018428524784986768,0.394308943089431,0.6178861788617886,0.48041618608251563,0.8154017582866765,0.03510769104826745,0.730846879466288,0.8447207237654748,0.8161550127145777,0.5966242384695671,0.13212225922581247,0.4490739072883584,0.9143585344793799,0.611036967266536,-0.6785805737546735,-0.14432579770435458,1.0,0.4032958987264259,0.6509195764809473,0.14016767675670164
7,0.6397011046133846,0.1477326859686443,0.20330969267139465,0.7541371158392438,0.6564896298602457,0.43432798520517824,0.07230009655888504,0.2358974358974359,0.7128205128205127,0.4402871996552974,0.41843620738838955,0.12046390169387658,0.29268292682926833,0.7896341463414634,0.43538256720662527,0.7695563497220415,0.058785861182732324,0.6759259259259258,0.9058641975308641,0.771791842571563,0.6564212969324968,0.04318905325393602,0.5363670272286459,0.7877657590451324,0.6578364229126802,0.6177915074759488,0.058156165888238846,0.40263302249040056,0.8464070213933078,0.6205147839037035,0.21231589001156193,0.04271696159824546,0.12005730659025782,0.36160458452722055,0.2165581687814993,0.45700976832829704,0.07901556388249983,0.10285006195786867,0.6970260223048327,0.46377055960259217,0.4543431674398443,0.06589064490167902,0.21185979719520812,0.7658075009919514,0.45908234143232773,0.5156946215676287,0.04491489885060979,0.30638678388773066,0.6730828014435164,0.5176411809098769,0.4534150911258728,0.025813462663357635,0.3349514563106796,0.6116504854368932,0.45414714726377803,0.4544455618877344,0.029124303262688587,0.36305732484076436,0.7261146496815287,0.45537513499291843,0.43089867525957803,0.024947168184039425,0.36734693877551017,0.5612244897959183,0.43161812956741025,0.2843885075006344,0.014393431287888614,0.2318840579710145,0.32608695652173914,0.28475145004006047,0.381826043983197,0.011545511294377149,0.3380281690140845,0.4225352112676056,0.38200004834063,0.33943554538520043,0.015306501791154647,0.22826086956521738,0.3804347826086956,0.3397794776211259,0.5166341780376864,0.045025113074429815,0.37777777777777777,0.8222222222222222,0.5185867401514056,0.48119621547092506,0.028576868363606456,0.33333333333333337,0.902439024390244,0.48204154111481196,0.8230662823649181,0.028402829209305855,0.7518053946408327,0.8459322854056135,0.8235547747664534,0.5573525516254411,0.09650114222051763,0.4714295416513074,0.8823271768288975,0.5656209930753052,-0.5087592505255308,0.14402277908797734,1.0,0.24711502506685074,0.40154939543220286,-0.18929240718003307
8,0.6081886611843538,0.25004099271571073,0.05910165484633567,0.7754137115839244,0.6574360538962293,0.47803995595406684,0.10736951430580961,0.31111111111111106,0.7418803418803418,0.48991330812245437,0.43116396079604863,0.13969023134532987,0.2835365853658537,0.8185975609756097,0.45316207353206805,0.7504544421722344,0.08877553784192352,0.6373456790123456,0.9367283950617283,0.7556710863554922,0.6677745919364402,0.05084214266269208,0.567325624766878,0.8217083177918686,0.6697013512703347,0.6290985330591722,0.06630556477631766,0.4470652770159079,0.8518924849149754,0.6325724513779379,0.2270079279976091,0.05591807449883428,0.12349570200573057,0.38968481375358155,0.23377305003596785,0.4484963699530946,0.07619745819494095,0.08163073110285002,0.6408004956629492,0.45490354639095065,0.44252406375836234,0.05908118816335327,0.18853645782695638,0.7125968630686641,0.4464386032575499,0.5251093548968654,0.038980615930719484,0.45181055445806556,0.7090110271138343,0.5265497716371376,0.45284114598844444,0.020291153730005076,0.33009708737864074,0.5145631067961165,0.4532941334735544,0.45328435778203285,0.026104622098698745,0.356687898089172,0.6050955414012739,0.4540331154920206,0.4298234631275824,0.024666370401216803,0.3469387755102041,0.5612244897959183,0.430528480979586,0.2838090157375288,0.013458378394014715,0.2391304347826087,0.33333333333333337,0.2841269606279846,0.38153460641147463,0.011664730974045384,0.30985915492957744,0.4154929577464789,0.38171233207488253,0.33959055748199357,0.015155821792583284,0.2826086956521739,0.3913043478260869,0.3399275526743654,0.5149284253578732,0.04047918800911827,0.26666666666666666,0.7111111111111111,0.5165121698773881,0.48034814703975176,0.011544132353929287,0.4146341463414635,0.5284552845528456,0.4804864207882205,0.824727284062594,0.041583332420180065,0.728531259910169,0.8569719956587941,0.8257717374669181,0.5919910074962625,0.13443972906355295,0.47806281698993425,0.8953305734921857,0.6070189056893762,-0.6524611707557623,-0.23403109458713253,1.0,0.4837647751614418,0.662215952182139,0.25738441210731744
9,0.6080161694909139,0.15275987185874193,0.3191489361702129,0.749408983451537,0.6268414262948654,0.5204671494747839,0.11237014988985114,0.30427350427350425,0.7487179487179486,0.5324142272884035,0.45041658908955523,0.1334302643308395,0.3292682926829268,0.8292682926829267,0.4696922251426418,0.7303152389030245,0.03105905073912712,0.6790123456790123,0.7978395061728395,0.7309728660358868,0.6822878554487192,0.04463338477677434,0.5971652368519208,0.8172323759791122,0.6837406329488794,0.6243609016259587,0.057393866725201415,0.4152495885902359,0.8063631376851345,0.626983268265002,0.23981167567094627,0.05135181729805703,0.17478510028653285,0.37707736389684804,0.245227616730945,0.454274288903393,0.09097974801037441,0.07729368029739775,0.6863395291201982,0.4632611048891286,0.44426769635577873,0.06152881789576408,0.233207116824284,0.6561016178661614,0.44849206442927886,0.517484155622006,0.04532044166551593,0.3628454242268019,0.6432863262875992,0.5194573652164763,0.4523271325872675,0.032122434161188845,0.25728155339805825,0.5631067961165048,0.4534619579295676,0.4535663927651095,0.03475611614383257,0.35031847133757965,0.6496815286624205,0.45489103048491314,0.4302461442592309,0.02852743076998212,0.3469387755102041,0.5918367346938775,0.43118725954600723,0.28429582918464325,0.015581809792850204,0.2318840579710145,0.34782608695652173,0.28472088893887354,0.3820825717664765,0.017027451761505656,0.2535211267605634,0.5070422535211268,0.3824603497650722,0.3392797875871218,0.01589354956606058,0.2717391304347826,0.40217391304347827,0.3396504306519626,0.5149279050042405,0.04489492838933281,0.3111111111111111,0.7555555555555555,0.5168738811264023,0.48040402159746726,0.01531074072380473,0.410569105691057,0.5406504065040652,0.4806470097903016,0.8265542016426246,0.027306731923439385,0.7447145433646304,0.8528109261493891,0.8270034219034458,0.6297303251364211,0.11946815827277761,0.5167044435536889,0.8654066049156072,0.6409200008652491,-0.3659960374067742,0.4925406210424889,1.0,0.2722715239459797,0.5520314436759246,-0.27912476178630974
10,0.5796434732604945,0.15402217014291875,0.25531914893617014,0.7541371158392438,0.5996983785726041,0.5169117835784507,0.09780066500307942,0.2529914529914529,0.7059829059829058,0.5260551667301063,0.4570286750164791,0.11843941344839896,0.28658536585365857,0.7423780487804879,0.47208153812189685,0.7597597597597597,0.06181055425112787,0.6851851851851852,0.8827160493827161,0.7622623984298862,0.6856703775763826,0.04746826225660867,0.5591197314434911,0.8500559492726594,0.6873065808888797,0.6292370263845857,0.05939443479168929,0.4273176083379046,0.7383433900164564,0.6320255853738809,0.24023077518779518,0.04111565995889628,0.14412607449856724,0.34269340974212026,0.2437134511514167,0.4616729740893308,0.06651213179124431,0.24457992565055758,0.6129194547707558,0.4664252499640231,0.44822993756547513,0.05953650807042307,0.23370112175907798,0.7216308469294177,0.45215487201992804,0.5149015188821381,0.04466154867853383,0.3433141564052613,0.6524109550292674,0.5168290221395809,0.4525787923846176,0.03042676180292688,0.3203883495145631,0.5825242718446602,0.45359736662208033,0.4531856697461794,0.025930508599489165,0.3694267515923567,0.5605095541401274,0.45392468906912253,0.4312986455843603,0.027556331466872613,0.35714285714285715,0.5714285714285714,0.43217541895886336,0.28458893676284863,0.016194272372511264,0.2318840579710145,0.3840579710144928,0.2850479430456573,0.3817620437338746,0.019018032933448836,0.16197183098591547,0.4436619718309859,0.3822340349441032,0.33868651259955485,0.03139982795135667,0.11956521739130435,0.5434782608695652,0.3401345942473795,0.5159159159159155,0.05369622790585034,0.2222222222222222,0.6888888888888889,0.5186943788720766,0.48055372445616334,0.028891359722279995,0.38211382113821146,0.8333333333333335,0.4814188260928873,0.8197436520161112,0.028059763496476046,0.7668046851473496,0.8502397418344949,0.8202223118964714,0.630114459492234,0.09385380227523464,0.49796514430584987,0.8186538672602658,0.6370449875809742,-0.4721182284173748,0.1621754986263264,1.0,0.35286900154850875,0.4808082823407797,-0.10560565306518237
11,0.41173196538823503,0.25255683676913143,0.0,0.7234042553191489,0.4828595543917586,0.5289270599950218,0.1398962322902232,0.30085470085470084,0.7538461538461536,0.5470715568223703,0.5605871122424815,0.10153945560714385,0.3262195121951219,0.8109756097560974,0.569686884658503,0.8166801510248115,0.08979147055727146,0.6882716049382716,0.9907407407407407,0.8215895618057248,0.7020049394697677,0.053697569395555506,0.5721745617306975,0.8612458038045505,0.7040506838182635,0.6231073819427062,0.08974354604267694,0.4432254525507406,0.8173340647284696,0.6295213778554237,0.272232036053078,0.05634643052575673,0.11575931232091685,0.3925501432664755,0.2779883011378859,0.4577781547382732,0.07380197475084864,0.09371251548946713,0.6513333333333333,0.4636748324102477,0.4504940291707313,0.06902770623533955,0.07702535454050968,0.6400070421980066,0.45573910238122206,0.5159082309953812,0.044435267649542066,0.41545347123688914,0.6883391806995853,0.5178136762978599,0.45363606371948323,0.035105064866299135,0.34466019417475724,0.7087378640776698,0.4549890687781232,0.4547956217920976,0.04663558211586989,0.28662420382165604,0.8471337579617835,0.45717464528516466,0.43030513176144275,0.03660185717827931,0.2857142857142857,0.8163265306122449,0.4318552427375813,0.2839454059378065,0.01659672604068119,0.2246376811594203,0.391304347826087,0.28442885981788507,0.38164911800902446,0.01377467558366549,0.33098591549295775,0.45774647887323944,0.38189701547200633,0.3401224145208932,0.024210571669703175,0.21739130434782608,0.46739130434782605,0.3409809172689879,0.5147249190938509,0.053386748606517063,0.17777777777777776,0.7111111111111111,0.5174794386596,0.48153958481332304,0.017706956102749343,0.4227642276422765,0.5772357723577237,0.4818642412819084,0.7908630199085163,0.0350399485471393,0.7215628952240306,0.843045088609871,0.7916369964578363,0.7038584751558347,0.13376955052011297,0.5135776787453016,0.9286226475963415,0.7164269767016793,-0.5406782960808113,-0.6401705056468254,1.0,0.6683574504099674,0.5951146428324495,0.6632900210562211
12,0.6102984633569738,0.2602290814581606,0.042553191489361764,0.8203309692671394,0.663318177945562,0.49327408702408704,0.094270329594885,0.31282051282051276,0.7025641025641024,0.5021762371025339,0.4448361280487807,0.12430993289678757,0.32317073170731714,0.7804878048780486,0.4618313975698777,0.7274393237934916,0.12827221360265065,0.5540123456790124,0.9722222222222222,0.7386304806498771,0.6743296683734026,0.04680789387515746,0.5867213726221558,0.8064155165982841,0.6759476726830655,0.620206452899816,0.06460669059266855,0.451453647833242,0.7778387273724631,0.6235528932366906,0.2327013870799686,0.047803808847120724,0.14555873925501422,0.34040114613180505,0.23754714822960263,0.44748704517291865,0.06370009404614042,0.14157620817843858,0.5772936802973977,0.45198543119953494,0.4481378874552609,0.05610497270138864,0.2192488497305308,0.625883230897381,0.4516263849821761,0.5266427818276384,0.03975431239695635,0.4371244644983508,0.6629590258546356,0.5281368527355104,0.4512632391879967,0.034775836746366154,0.3398058252427184,0.6019417475728155,0.45259743059962565,0.45286262304574393,0.029347372315456734,0.356687898089172,0.5859872611464968,0.45380984655344214,0.4299049165120596,0.02719991840546828,0.35714285714285715,0.5306122448979591,0.43076208166101765,0.28423501317522937,0.014632823099600716,0.2391304347826087,0.33333333333333337,0.28461035457713096,0.3821622919334189,0.012505810549034182,0.323943661971831,0.4225352112676056,0.38236627514527155,0.339735671936757,0.01764520925832941,0.2391304347826087,0.41304347826086957,0.34019229219569086,0.5125,0.05833352175914336,0.0,0.8444444444444444,0.5157997505971182,0.4796978935698444,0.020700435348244263,0.36178861788617894,0.5609756097560976,0.4801430617707743,0.8280894354029584,0.047328352620730575,0.7387740359969808,0.8714371158768853,0.8294369912345552,0.6058657937208143,0.11684611736382126,0.4846953495048916,0.850185625336748,0.6169988558896312,-0.672820247683384,-0.425412826140033,1.0,0.5417426793398568,0.6998273543260941,0.3786359984927573
13,0.6832931520102367,0.12049672406256064,0.4349881796690309,0.8203309692671394,0.6938018975776227,0.5469013568023471,0.1076062825293709,0.3145299145299145,0.7743589743589743,0.5573526632400874,0.40199126619979125,0.12079120578862146,0.2774390243902439,0.7881097560975608,0.41968957573499793,0.6667939942142365,0.03343842084328093,0.6018518518518517,0.7793209876543209,0.6676291399551748,0.6795122257470062,0.04538531165746323,0.5128683327116746,0.8511749347258485,0.6810212135804484,0.6331655107364825,0.0596132013132072,0.37410861217772917,0.8826110806363139,0.6359564208833078,0.23380048606579842,0.04509534667715297,0.06504297994269337,0.34756446991404,0.23809566576781904,0.45238624085456886,0.08340193324668106,0.08194052044609662,0.7132912019826518,0.4599850396219343,0.43977504962705577,0.06155566934742923,0.11332157881875005,0.6153724876038922,0.4440480710704034,0.5177057473160528,0.045290796582315974,0.34445473499796986,0.6468494938112206,0.5196765602146299,0.45277003428498214,0.0332585436628123,0.34466019417475724,0.6650485436893203,0.4539858853274379,0.4533013810935234,0.029889680799892772,0.35031847133757965,0.6114649681528663,0.4542824965016872,0.43082777665521715,0.03083771104367074,0.336734693877551,0.6224489795918366,0.4319263815323701,0.28397187544841335,0.016053959403168498,0.2318840579710145,0.34057971014492755,0.2844238124092774,0.38190861339655074,0.013390147902484549,0.34507042253521125,0.4859154929577465,0.3821425039316513,0.3394317692638815,0.025919711219280057,0.20652173913043478,0.5543478260869565,0.34041671543838187,0.5180784745141178,0.04676108255152083,0.3555555555555555,0.7111111111111111,0.5201775543969961,0.480533419195577,0.016640154607952477,0.426829268292683,0.5731707317073171,0.480820494431265,0.8474648779676522,0.023518370612247676,0.772248927844319,0.872531303858137,0.8477900728877643,0.614988636986589,0.09691520985370292,0.4972298678028367,0.8472375878171822,0.6225532772242724,-0.22452696600005953,0.6121763759031945,1.0,0.25009556286058787,0.3970371196176203,-0.36070725000736015
14,0.717860353611028,0.1005685752477711,0.49881796690307323,0.7943262411347518,0.7248543189772064,0.5086393001885962,0.08140246484319595,0.29743589743589743,0.7076923076923076,0.5150968298681333,0.3875887438451851,0.08801105126719479,0.3125,0.7454268292682927,0.3974327572443169,0.6689959717150646,0.040066608409297384,0.6157407407407407,0.7777777777777778,0.6701918940817067,0.6670738092611371,0.03525398433637167,0.5654606490115628,0.7941066766132039,0.6680025396216362,0.6235516959868554,0.05011908635323688,0.42292923752057054,0.7383433900164564,0.6255579460390007,0.22006941361636864,0.03251488096766553,0.11260744985673343,0.3189111747851002,0.22245287717314408,0.4537716401673157,0.05943386447185185,0.14993804213135065,0.6545873605947955,0.4576382782115105,0.4442490745642121,0.03582845681875367,0.25554244632294787,0.6083092681106677,0.4456881255315057,0.5191800285181062,0.03514695540355765,0.3443110220952886,0.6747936693325791,0.5203655548756573,0.45117142987374037,0.0316860392360549,0.1844660194174757,0.6067961165048543,0.45228012049762045,0.4515863760055025,0.02850949525126778,0.3439490445859873,0.6560509554140128,0.45248330173877294,0.4282360831656601,0.025802834951250905,0.30612244897959184,0.5204081632653061,0.4290109163389318,0.2832891066203974,0.01500478333464791,0.2028985507246377,0.34057971014492755,0.2836852709373209,0.38171989684586294,0.014570058011957319,0.2676056338028169,0.43661971830985913,0.38199720930022396,0.33907430087772866,0.017365939291153872,0.2391304347826087,0.3913043478260869,0.3395176717619577,0.5149713093375061,0.047074415847059424,0.3555555555555555,0.8,0.5171133804000052,0.48034276117408853,0.013213493783461696,0.38211382113821146,0.5731707317073171,0.48052404183304764,0.8502918789628325,0.018811207485050968,0.7883176337856085,0.8648610442059504,0.850499447557921,0.577808704423104,0.07095219508204029,0.5056559891678764,0.7367569471325139,0.5821385535165502,-0.3666100932866328,0.24660865815182842,1.0,0.2996226682497047,0.4582839837571867,-0.18455920750529797
15,0.6716327922953649,0.14746926585397532,0.3593380614657211,0.8085106382978726,0.6875789517787877,0.5331096196868003,0.09382795895081938,0.34188034188034183,0.7282051282051281,0.5412762787277975,0.41546795711245715,0.10863530613764685,0.30335365853658536,0.7286585365853658,0.42938985822030995,0.6795664512387105,0.06916176019418291,0.5987654320987654,0.8086419753086419,0.6830650475726121,0.6781076879557618,0.03605862723739491,0.589332338679597,0.7650130548302871,0.6790625139802374,0.6245255442205677,0.06295747798420141,0.433351618211739,0.7454744925946243,0.6276802518792673,0.23304744139535763,0.03770149032522324,0.1653295128939827,0.32607449856733517,0.23606724149497252,0.44878668196901306,0.06516860032663206,0.18045353159851296,0.59727385377943,0.4534778725396328,0.4388132598387827,0.046479507731863434,0.26457643018370147,0.6002632941195019,0.4412597558929225,0.5227331475073089,0.03367446758748,0.4158823287877475,0.6293119573697346,0.5238130468044138,0.45277578679872293,0.030433050426222623,0.3398058252427184,0.6407766990291262,0.4537939793723072,0.45340486470311636,0.028877499558439785,0.356687898089172,0.6305732484076434,0.45432046284705163,0.43021503903574876,0.02556524301300491,0.336734693877551,0.5204081632653061,0.4309714239202302,0.2846756152125269,0.015223112470600191,0.2391304347826087,0.3695652173913044,0.28508099092772815,0.3818177521504865,0.017127632260941664,0.3169014084507042,0.4788732394366197,0.38220042808548055,0.34034870148818086,0.037398736539703485,0.05434782608695654,0.717391304347826,0.3423904358931284,0.5125279642058166,0.06113458843121933,0.1111111111111111,1.0,0.5161490194291612,0.480438697004419,0.014547120538828893,0.4146341463414635,0.5365853658536586,0.4806581427224102,0.8435811416731277,0.028505480856101252,0.7833338242848673,0.874631811180739,0.8440610039006542,0.6113163956115031,0.08618638171706763,0.5132706000626559,0.7920826801874801,0.6173418027741012,-0.5072818180321749,0.11874777911040035,1.0,0.38475120474160374,0.5257608462618967,0.07407956753051342
16,0.4737364835564509,0.20692970516939918,0.18912529550827406,0.8557919621749408,0.5168360210267141,0.7155565670358566,0.17256206598583834,0.3384615384615384,0.923076923076923,0.7360100322958005,0.49494876605570803,0.12501226660221917,0.2545731707317074,0.7850609756097562,0.5104469717189681,0.6756337205055152,0.09317264222929948,0.5169753086419753,0.8611111111111112,0.6820090774280299,0.7227752163482233,0.05529403199724495,0.5430809399477806,0.8705706825811264,0.7248809541510391,0.6683907467695814,0.07488257536204253,0.44651673066374115,0.8326933625891388,0.672560034880863,0.30409284345806264,0.06488262086274743,0.10859598853868185,0.42836676217765035,0.3109176049011828,0.4572484913808904,0.08682441177618813,0.056847583643122646,0.6638810408921932,0.4653948411398769,0.45335340677989894,0.07654508630527966,0.21120287573936505,0.716866852531644,0.45975115759768,0.5124152317265611,0.052725957537940266,0.36327428177766025,0.7064447252802403,0.5151127753928392,0.45391221922215236,0.0321007241059796,0.34466019417475724,0.5533980582524272,0.4550425370879874,0.45418912297893194,0.032839075805326044,0.3694267515923567,0.6114649681528663,0.4553712483074428,0.4306545103248402,0.03582081421475919,0.19387755102040816,0.6836734693877551,0.43213729502250736,0.2848383500557402,0.014695608659707675,0.2246376811594203,0.34057971014492755,0.2852160718450861,0.3816776398033165,0.013861861529420287,0.323943661971831,0.45070422535211263,0.3819285318435922,0.3393040905582694,0.026934070747394658,0.16304347826086957,0.5108695652173914,0.3403682766535138,0.5170282708744246,0.05206700143748259,0.3555555555555555,0.6888888888888889,0.5196356270435858,0.48125030066868674,0.020105965567686245,0.402439024390244,0.6544715447154472,0.48166887561854477,0.8305048163087364,0.03400879236316415,0.7565475749167399,0.8839443036737177,0.8311987884871818,0.7824816839199076,0.1491163843827395,0.4815544208601137,0.9588273570312192,0.796522125040105,-0.35443282701726303,-0.09252650189714007,1.0,0.45498988731229556,0.6586964583997108,0.2965790422475755
17,0.6474242674143718,0.19743420747160093,0.3735224586288415,0.8605200945626479,0.6767253096736381,0.597312661498708,0.15243096977729054,0.3726495726495726,0.8461538461538461,0.6163680275887904,0.4145419739081113,0.13434646324747224,0.2621951219512195,0.795731707317073,0.4356719770778132,0.642355727820845,0.08105658742902934,0.5077160493827161,0.7546296296296297,0.6474260517603172,0.6890365448504978,0.0637282778126368,0.5061544199925401,0.8791495710555762,0.6919637012125461,0.6435316179566015,0.07712176644547285,0.43444871091607246,0.8688974218321449,0.6481149945323017,0.25041513960151923,0.06057604581481842,0.08252148997134662,0.3710601719197707,0.25760460443250616,0.447929984726665,0.09941153063947296,0.07574473358116479,0.7033779429987608,0.45877876783487354,0.43389726933944656,0.08283553332192928,0.0,0.626377235832175,0.44169746537449817,0.5297007832644971,0.049999959773309434,0.34929991285979556,0.6505563742375233,0.5320444416400644,0.4531271167306392,0.03365256118582737,0.2621359223300971,0.5728155339805825,0.4543692456284509,0.45412531476818274,0.038174244974836805,0.3439490445859873,0.6815286624203822,0.4557195370826689,0.43198860939724765,0.032938862633489364,0.3469387755102041,0.5510204081632653,0.4332367493122454,0.28500168520390906,0.01798035054614841,0.2246376811594203,0.3695652173913044,0.2855656665049775,0.38250900753357336,0.018041164317351276,0.3028169014084507,0.4859154929577465,0.38293225324721536,0.3399393326592518,0.020413802460045753,0.2608695652173913,0.41304347826086957,0.34054887310288434,0.512454780361757,0.0637690456370972,0.3111111111111111,0.7333333333333334,0.5163888836764512,0.4816411419928151,0.02593935269306062,0.4065040650406505,0.5934959349593497,0.4823358893378245,0.850417698962104,0.034674326144682306,0.7687859665041583,0.8914324426117392,0.8511210134094909,0.6558729626025617,0.1354235513528012,0.48018503091585024,0.8462274321284498,0.6696443691662827,-0.37876984971093147,0.05760706300659506,1.0,0.47968322924844864,0.4907018117204982,0.23303467863512833
18,0.7230335829194156,0.1357390530434597,0.4444444444444444,0.8628841607565014,0.7356211345718303,0.5416837904642783,0.08979774746608458,0.2905982905982905,0.7025641025641024,0.5490508792552513,0.39572533355995565,0.13857649730884353,0.2667682926829269,0.8064024390243903,0.4192076743897048,0.6181442766808637,0.06853770760204754,0.5401234567901234,0.7854938271604939,0.6219191240416753,0.6743934280073881,0.039840318763202466,0.5557627750839238,0.8071615069004102,0.6755651088144072,0.619360437002223,0.07366235066981924,0.3582007679648931,0.727921009325288,0.6237103385482689,0.23175424058784164,0.04032180710627774,0.08338108882521489,0.3338108882521489,0.2352237470637398,0.4491132123535787,0.08692965497766234,0.06939281288723664,0.6840148698884758,0.4574200610311558,0.4401398199866746,0.04932661101526277,0.22598098081001045,0.6086403565244125,0.4428856488317196,0.5211131907175056,0.04715517912821729,0.30567506284588053,0.6482752170521062,0.523234957438012,0.4507120868712152,0.03784341502036143,0.17475728155339804,0.6359223300970873,0.4522925152298065,0.451563505625957,0.03708031314574087,0.3121019108280255,0.6305732484076434,0.45307809312628794,0.43010026310175686,0.031157771176675512,0.326530612244898,0.5408163265306122,0.4312234460498867,0.28402262283492313,0.019339320531901502,0.2173913043478261,0.36231884057971014,0.28467798726334204,0.38219561270059343,0.0160566565816204,0.30985915492957744,0.47183098591549294,0.38253157291105366,0.3389637933646407,0.02537942719890101,0.2391304347826087,0.5,0.33990928824147115,0.5152148664343784,0.050980417065832,0.28888888888888886,0.6666666666666666,0.5177222283810918,0.4794623381773882,0.01587943318647582,0.4227642276422765,0.5406504065040652,0.47972430784267134,0.8583096272020274,0.029763734625177844,0.7890457090167728,0.888488842811801,0.8588237359068381,0.6070132356094252,0.08219775084493192,0.5083521570180938,0.7616526047210307,0.6125340780240902,-0.3106931108319324,0.4230274690206649,1.0,0.29865869096664804,0.2826818605064455,-0.4673428981341234
19,0.6139479905437357,0.22187361513955411,0.16312056737588643,0.8581560283687943,0.6526984359130859,0.5932327802916032,0.12520685084555466,0.3675213675213675,0.8461538461538461,0.6062637866529379,0.45832137733142075,0.13709591886729383,0.2789634146341463,0.7195121951219512,0.4783288571908232,0.6518609295570079,0.09178805405530954,0.5324074074074073,0.8024691358024691,0.6582726933426429,0.6941670140641117,0.05060157345295912,0.5908243192838493,0.8496829541215962,0.6960034710485787,0.624579716691943,0.06262954627483762,0.4317059791552387,0.7986834887547999,0.6277027528395304,0.2595179504466542,0.060591611850706946,0.1558739255014326,0.40945558739255006,0.26647722597212103,0.4602137765143234,0.06993622360273248,0.1982651796778191,0.6183395291201983,0.465481911517072,0.45630911230435556,0.05862458161536595,0.27705793784471955,0.6283480001997042,0.4600486269776359,0.5132499874536355,0.04004226037667626,0.4010548070825369,0.6388654436622611,0.514805027564812,0.4536836093660765,0.03760402013660704,0.3058252427184466,0.6504854368932038,0.4552347973639656,0.4541775946047206,0.033838831183696766,0.2356687898089172,0.5923566878980892,0.4554327459616553,0.43016206482593056,0.027636886260029452,0.326530612244898,0.5102040816326531,0.4310463467357943,0.28442028985507134,0.016463003313239126,0.2318840579710145,0.3840579710144928,0.2848949536423384,0.38187655343827637,0.01528764662473358,0.28873239436619713,0.49295774647887325,0.38218153646738984,0.34005754475703154,0.02610489576120339,0.18478260869565216,0.5869565217391304,0.3410551202054407,0.5164052287581701,0.05367451969169469,0.3111111111111111,0.7111111111111111,0.5191790066620622,0.4812051649928257,0.019221808848662616,0.410569105691057,0.6056910569105692,0.48158779267271506,0.8422048643046242,0.0372710346122673,0.7880746532001721,0.891711007862455,0.8430267361139311,0.6753221323429129,0.14252085307523268,0.5135823601480218,0.972370546798882,0.6901539206928424,-0.63577806897433,-0.21270585417602988,1.0,0.49762060100311495,0.6929025722406262,0.2909826949187169
20,0.5649689671673341,0.31251255362662544,0.009456264775413725,0.8817966903073289,0.6454137993132697,0.615085082758799,0.14533448194888232,0.4017094017094016,0.8598290598290597,0.63197148483902,0.46790490752339625,0.15268409303786556,0.29268292682926833,0.8749999999999999,0.4921148285129291,0.6552767520793706,0.1306199709777762,0.44907407407407407,0.8888888888888887,0.6681299672104399,0.6971594897967234,0.06181513864014712,0.5643416635583737,0.9347258485639686,0.6998863632302255,0.6431863416930028,0.08423917363186297,0.4421283598464071,0.8206253428414702,0.6486628320845724,0.27062993966360516,0.07343856996807523,0.14154727793696265,0.43868194842406866,0.28038811329034274,0.4501653657386087,0.0842251977828243,0.0,0.6727087980173482,0.45795339149152686,0.44762574812338973,0.07725231224519055,0.23780556701518538,0.8324850287600214,0.4542231832053799,0.5259455716998238,0.057642602557035405,0.41017943582420496,0.7925584090297326,0.5290854144118663,0.4528788900947409,0.05399554333829606,0.2524271844660194,0.6844660194174756,0.45607674746718413,0.4537494948717454,0.055474374070527056,0.2484076433121019,0.8726114649681529,0.45711783270317474,0.430852703619212,0.04389105440542781,0.10204081632653061,0.7346938775510203,0.4330758095977369,0.2849949647532718,0.02005282901750019,0.2028985507246377,0.391304347826087,0.28569744667131125,0.3822816050380835,0.017437546456381656,0.3169014084507042,0.4436619718309859,0.38267789973081945,0.34024037830027437,0.03271714793175156,0.14130434782608695,0.48913043478260865,0.34180505104853176,0.5158778113460889,0.07987804389892263,0.15555555555555556,0.9111111111111111,0.5220068406597492,0.4803134134060369,0.030408314551417865,0.3577235772357724,0.5975609756097562,0.4812721134036065,0.8389060272722125,0.05018789417347573,0.7402054268143994,0.8958858092768043,0.8404014145471518,0.6975609924847815,0.1690554920652416,0.4809711766073877,0.9966882031486427,0.7176940531659675,-0.5576291140363479,-0.45621624952226797,1.0,0.5448412564685321,0.573899404772285,0.4340328265366626
21,0.7423091341703197,0.14795883991715603,0.4775413711583927,0.8912529550827426,0.7568644671761743,0.5425109949381801,0.149642054263485,0.4051282051282051,0.8512820512820511,0.5627063671263335,0.38005663430420666,0.08559678581480085,0.3125,0.7057926829268292,0.38954607386300116,0.603614806824084,0.05075176151368178,0.5354938271604939,0.7160493827160493,0.605737765523717,0.6683433341903771,0.05914739478660098,0.5356210369265199,0.8694516971279372,0.6709470209618592,0.6202319516711139,0.07000522508149316,0.4476138233680747,0.8283049917718048,0.6241574684643706,0.22929405328214683,0.04955734609894243,0.11719197707736384,0.35702005730659014,0.2345714079499274,0.4542962668880304,0.055063367945233886,0.22738537794299876,0.6411102850061957,0.4576103805451715,0.4343868933344173,0.055707863195400095,0.16094575668154815,0.5951708389938065,0.437932981021971,0.5234565930411004,0.03992945995294322,0.3360418272981519,0.6846300191160972,0.5249723867247634,0.4536557011342569,0.037606428699196115,0.34466019417475724,0.6067961165048543,0.45520672425984904,0.45470286315008385,0.044791424386559815,0.3057324840764331,0.7197452229299364,0.4568965667049735,0.43035466613830037,0.037557789449615374,0.26530612244897955,0.6428571428571428,0.4319851400304205,0.2841095633413056,0.019553992293071427,0.2246376811594203,0.37681159420289856,0.2847795027561952,0.3817858607958431,0.015163017531306958,0.3169014084507042,0.47183098591549294,0.3820858758656102,0.3382580554382988,0.029119834944316456,0.021739130434782594,0.44565217391304346,0.33950512902380736,0.5139877741819485,0.05921324280304491,0.28888888888888886,0.7555555555555555,0.5173763554511465,0.4794906201489193,0.024595454528321237,0.37804878048780494,0.6788617886178863,0.48011897845359913,0.865618754994123,0.020817707380997263,0.8064164902273785,0.8894484030368259,0.8658682367564964,0.5921379786597132,0.12468074557478723,0.4702359707136371,0.8165183459884253,0.6050804621799201,-0.5558319574441632,-0.20009282526526442,1.0,0.5775058705765937,0.6350879655843534,0.4565498905584182
22,0.7381175406065006,0.18166073999422996,0.3427895981087472,0.91016548463357,0.7600849806015193,0.5275278180938552,0.18481485153425192,0.3606837606837606,0.9008547008547008,0.5588828697443248,0.4096459798829793,0.1265213003262948,0.23475609756097557,0.7820121951219513,0.4286890726324083,0.5787203420851222,0.039342156066832626,0.49691358024691357,0.7114197530864197,0.5800524697002138,0.6620100919820113,0.06412525477195943,0.5404699738903394,0.8425960462513986,0.6651002379321943,0.5968701808132981,0.06147829020016506,0.4064728469555678,0.7471201316511246,0.6000195041516709,0.23557565319472654,0.06899570163266777,0.13295128939828077,0.39455587392550134,0.2454454398366631,0.45948690868645947,0.07482051156250337,0.12732589838909536,0.6502503097893433,0.465522543989289,0.4425578636072834,0.06440870812974898,0.20611042061366974,0.6920693814164803,0.44720773968286487,0.5118054126928773,0.0470027484939419,0.3900778787063102,0.674081948290729,0.5139533869461409,0.4528171041268672,0.02367522621394908,0.35922330097087374,0.5825242718446602,0.4534339370850182,0.4530362078733674,0.02637232444059468,0.3312101910828026,0.6178343949044587,0.4538010913153081,0.4293965564662523,0.025713881465695945,0.336734693877551,0.5918367346938775,0.43016371788528557,0.28329231610609673,0.016659845132413177,0.2246376811594203,0.3695652173913044,0.28378044099303307,0.3811738354656236,0.013955662197364412,0.33098591549295775,0.49295774647887325,0.3814285364127928,0.3387437009258153,0.021405864621870035,0.2391304347826087,0.46739130434782605,0.339417546521891,0.51434561245882,0.05371907750748344,0.26666666666666666,0.7777777777777778,0.5171357366019873,0.4806061402932076,0.014948654149582548,0.39837398373983746,0.5487804878048781,0.48083793738043057,0.8657231643860417,0.02479253175871987,0.7966017114071661,0.8917092675568725,0.8660771387088626,0.600649542778994,0.1747116034612178,0.4335812587004599,0.97509125802953,0.6254772116574779,-0.6133998947344367,0.11980350094733933,1.0,0.4354425366349741,0.7930740993153012,0.1750366484357082
23,0.610146690801903,0.20564601152076878,0.281323877068558,0.8368794326241138,0.6437331120612602,0.6139970675535527,0.10896453713008797,0.429059829059829,0.8153846153846153,0.6235511128695778,0.44335518930503126,0.13671211598877445,0.2637195121951219,0.820121951219512,0.46387048284738497,0.6544436696110328,0.10873980991585062,0.5231481481481481,0.8472222222222222,0.6633787671476643,0.6993081642239902,0.052683653321570593,0.546810891458411,0.8418500559492725,0.7012815858306988,0.6388430491832627,0.0758009476114379,0.39605046626439944,0.83927591881514,0.6433056693460344,0.26116339571519326,0.052868539452313235,0.12464183381088817,0.3825214899713466,0.26643893638056204,0.4480979400952958,0.07910825059953373,0.11524163568773232,0.634448574969021,0.45499856554462537,0.4428384715237519,0.08160569086424212,0.183281086180212,0.7196600825618886,0.45026385228344346,0.5274352865771961,0.06472117498844315,0.3058164945913764,0.7298265864307647,0.5313749011114842,0.4507251086647437,0.045818263951607874,0.2378640776699029,0.6067961165048543,0.45303824690050093,0.45137648908669364,0.04120775320360761,0.29936305732484075,0.7261146496815287,0.45324574889521296,0.4291264623004018,0.032901144008502824,0.2857142857142857,0.5510204081632653,0.4303806184023924,0.28409435449639125,0.019143054431521367,0.2318840579710145,0.37681159420289856,0.28473588726881066,0.38140137898520843,0.016722171172155992,0.323943661971831,0.4859154929577465,0.3817662542660218,0.3392304893578311,0.03892093007255469,0.07608695652173914,0.5760869565217391,0.34144666563025494,0.515853091585309,0.07479428029740924,0.2222222222222222,0.9111111111111111,0.5212247018649302,0.48066129196856844,0.032722441752546835,0.38211382113821146,0.6219512195121952,0.48176919331909707,0.843257763315157,0.038175449333705314,0.7791168315244841,0.8858294442367166,0.8441178368935768,0.6813609507897441,0.11801273496605248,0.4800209162658981,0.8702343347501045,0.6914632881688325,-0.4479403023097015,-0.13017143079531485,1.0,0.512020318344709,0.4285800279211168,0.050202534818598356
24,0.6594267139479907,0.2138312452533404,0.27186761229314427,0.8794326241134753,0.693092256972677,0.6108903133903131,0.12635898530385065,0.3811965811965812,0.8393162393162392,0.6237684191185093,0.4414697662601625,0.14062626036621842,0.2789634146341463,0.7698170731707318,0.46323741287643655,0.5907793209876536,0.10802020138182353,0.4429012345679013,0.7777777777777778,0.6005330564009445,0.6937352356086044,0.04956511797713019,0.557627750839239,0.8343901529280118,0.6954962557707828,0.615782135673798,0.09359328614641316,0.38014262205156346,0.8145913329676359,0.6228248895663099,0.26029250238777446,0.0535621027368789,0.1028653295128939,0.3676217765042979,0.26572378874251906,0.45463391160677374,0.09028765562630403,0.07915241635687731,0.6353804213135068,0.46347587666983936,0.4508567131679467,0.07049080233821499,0.24634554594114508,0.6597146858732983,0.45631132470185665,0.5197035332083259,0.05780810388969443,0.3441673091926073,0.6950389393531551,0.5228954151971744,0.4537621359223299,0.039085304768177793,0.21844660194174756,0.5825242718446602,0.45543536510820765,0.45599787685774934,0.0344952971034364,0.3057324840764331,0.6114649681528663,0.45729534351228673,0.43214285714285733,0.028363602440859934,0.3469387755102041,0.5510204081632653,0.43306880615546267,0.28562801932367066,0.016850362035612597,0.2463768115942029,0.3840579710144928,0.2861225560179448,0.38204225352112664,0.012026218612755699,0.323943661971831,0.4225352112676056,0.3822307036135339,0.3402173913043474,0.019766814558427232,0.22826086956521738,0.41304347826086957,0.34078875021739286,0.5161111111111111,0.06115188192397804,0.15555555555555556,0.8222222222222222,0.5197063114930982,0.4813516260162594,0.02034418017385489,0.38211382113821146,0.5569105691056911,0.48177956475117506,0.8572054313719935,0.039533762264226835,0.7975302614154954,0.9031226039703937,0.8581127884914556,0.6759187136254355,0.12185919097706496,0.5403599410797739,0.9130937638027016,0.6867706285661963,-0.4314368780049931,-0.11476382492929438,1.0,0.4186649851608614,0.49297444194010237,0.21886496472239536
25,0.7843181338184099,0.12906829883137108,0.5673758865248228,0.9148936170212767,0.794836809183228,0.5791078597995025,0.12677501902964203,0.39487179487179486,0.8273504273504272,0.5927828455692044,0.37782473465945016,0.110748216215701,0.22560975609756093,0.7301829268292683,0.3936767090033544,0.5094415981783902,0.06884859762932223,0.38117283950617276,0.6450617283950617,0.5140595403596894,0.6745343203910108,0.04742614053727426,0.5490488623647891,0.8302872062663185,0.6761947250869453,0.6021173573028586,0.06252632797483464,0.41250685682940214,0.7454744925946243,0.605345840792391,0.23672080790731848,0.04477703776252619,0.14813753581661884,0.33782234957020046,0.2409065087492857,0.4578693278196183,0.07265727201445754,0.19129615861214372,0.6641883519206939,0.46358190975264957,0.44712293051093954,0.05961928019227013,0.1982273631435531,0.6180001734272643,0.45106887518745653,0.5179148214329222,0.03850205241853938,0.3782432352283667,0.6046480858810058,0.5193398677465987,0.45292521194146773,0.0389987807757668,0.27184466019417475,0.6019417475728155,0.45459627088546856,0.4540098019420325,0.037491565677717914,0.3439490445859873,0.6815286624203822,0.4555507293216923,0.43089454802093746,0.032973930764351705,0.2857142857142857,0.5714285714285714,0.43215073556821004,0.28461345696027945,0.01849293965882499,0.2173913043478261,0.37681159420289856,0.28521189165523125,0.38214880058448675,0.014011084724192172,0.2816901408450704,0.45070422535211263,0.38240482547558546,0.3394937977697016,0.026028854170578163,0.10869565217391303,0.48913043478260865,0.34048727952797503,0.5150176112712133,0.05855459041444544,0.3333333333333333,0.7555555555555555,0.5183260548834348,0.4807994189451974,0.022605149627183366,0.39024390243902446,0.6666666666666667,0.4813289950190079,0.8840854001493401,0.026244761390548425,0.8080195798714933,0.9121580498589505,0.8844737402994377,0.6135381123906266,0.10883124764864283,0.4949730687756539,0.8349722063766306,0.623088374600899,-0.3359698997674261,0.23089655191904387,1.0,0.4401994239237394,0.5818452656282399,0.05667740599291009
26,0.7202185792349723,0.1821801286458461,0.39007092198581583,0.9078014184397165,0.7428660659698512,0.6137845032927002,0.13142137839802015,0.4598290598290598,0.9196581196581196,0.6276740245691698,0.3977334066373454,0.09332820704931909,0.2820121951219513,0.7210365853658536,0.40851895677560146,0.5540123456790121,0.09474537595832991,0.4429012345679013,0.7993827160493827,0.5620423912403081,0.6869696284112241,0.05158718560366008,0.4945915703095859,0.8377471092875792,0.688900678903118,0.6206145517656896,0.06700343504500342,0.48217224355458044,0.7893582007679649,0.6242151250972386,0.24925689323124628,0.05218806180696146,0.14326647564469908,0.3888252148997134,0.25465295543268107,0.4584886342860625,0.05363529019607262,0.21592565055762075,0.6356877323420074,0.46161006937626964,0.443366736676545,0.052346270303915324,0.22680344647272593,0.63212398472789,0.44644115310558385,0.5143348665451992,0.03960663812591586,0.39064816800266444,0.6512703764365588,0.5158550853792824,0.45170300811714026,0.02901935469542375,0.10679611650485438,0.6116504854368932,0.4526326876835036,0.4528349169886186,0.03612922375279036,0.3184713375796179,0.6751592356687899,0.45427155202905944,0.4307962529274005,0.027879184886495198,0.3163265306122449,0.5714285714285714,0.4316959419633429,0.2843549536707078,0.021116585644965085,0.18840579710144928,0.4565217391304348,0.2851366669968275,0.38230200877395426,0.03268760382911903,0.176056338028169,0.8591549295774648,0.3836946100104157,0.340413399857448,0.03399889240910249,0.13043478260869565,0.6847826086956521,0.34210424219680813,0.5160291438979976,0.05824104445417369,0.2222222222222222,0.9333333333333333,0.5193000442171185,0.4804211648673864,0.020765281316789678,0.3292682926829269,0.7195121951219513,0.4808689901423519,0.8724440092238289,0.03084827382715592,0.8076413650838291,0.9048571387632396,0.872988319052688,0.6468768694231329,0.12461091405869258,0.49832392554072996,0.8861856755159819,0.6587504144639248,-0.6225330287146225,-0.4106613909314083,1.0,0.5561744225856035,0.7239029799221992,0.49309215732844863
27,0.6213019516596939,0.22586385897008437,0.30260047281323876,0.8841607565011824,0.6609611705366772,0.6383617784248696,0.12794955124544277,0.45128205128205123,0.894017094017094,0.6510185896024838,0.4283873201508045,0.12512091985258667,0.24237804878048777,0.7667682926829269,0.4462303833460249,0.6237440121509522,0.13450383326730417,0.4598765432098766,0.8580246913580247,0.6380366788595957,0.6986952229557929,0.05297957813544042,0.5378590078328981,0.8392390898918314,0.700694652405284,0.6448430586390856,0.08940456978523446,0.4306088864509052,0.8359846407021394,0.6509919602451192,0.2634910017806619,0.054887426660328476,0.13896848137535806,0.3848137535816618,0.26912940021734144,0.45602676892646715,0.07162270218403023,0.14560099132589838,0.6431226765799256,0.4615994400723362,0.45499414527559756,0.07357964739606117,0.11135081445122091,0.7206428370598299,0.4608867084149857,0.5175884846839871,0.058890810922272364,0.32007372700023273,0.7110070396510743,0.5209174854263373,0.45496309454534317,0.05324531749706208,0.2087378640776699,0.6699029126213591,0.45805844366696136,0.45375635435713046,0.03849734788017442,0.3439490445859873,0.6178343949044587,0.45538137828632885,0.43008433657374645,0.03187790623280203,0.336734693877551,0.5510204081632653,0.4312603990523308,0.2847803227723667,0.018432070067703896,0.2173913043478261,0.36231884057971014,0.2853743185826142,0.38250322122006464,0.017078276970516712,0.33098591549295775,0.5070422535211268,0.3828830914275493,0.3411740501988737,0.029737838695088645,0.13043478260869565,0.5760869565217391,0.34246354822997943,0.5165790396074305,0.07021507791571766,0.2444444444444444,0.9111111111111111,0.5213142131020205,0.4826498422712926,0.03550027757689892,0.38211382113821146,0.7479674796747968,0.4839495473066593,0.8521538052068072,0.04009205976528614,0.7990709070027145,0.9035659392120897,0.853093435918111,0.6855865487744379,0.12916940575827562,0.49111247754087695,0.9308723895528869,0.6976109359877769,-0.5804697820612644,-0.42524366001299646,1.0,0.529646720444643,0.5939419677950185,0.32994481060207304
28,0.6956085679489938,0.23791647472707314,0.30260047281323876,0.9219858156028369,0.7350537400241537,0.6190934990934981,0.14718299945754654,0.4461538461538461,0.8769230769230768,0.636297061908673,0.3910984848484843,0.1267986442450922,0.19512195121951217,0.763719512195122,0.41108052755591795,0.5632903105125333,0.13515248918307754,0.3533950617283951,0.7623456790123457,0.5792295029974033,0.68587704723475,0.056109130494151255,0.5453189108541588,0.8082804923535993,0.6881613316248216,0.6371764823218466,0.07951024910532377,0.347229840921558,0.9007131102578169,0.6421032565916349,0.25051402274897966,0.06193740511027244,0.08567335243552998,0.3538681948424068,0.2580346735798366,0.4538589989110436,0.0828966683438847,0.016574969021065644,0.6005278810408922,0.46134480023521823,0.4492750174999896,0.0691360571682961,0.08178934893828349,0.6725246542622378,0.45454741394593473,0.523599151741332,0.03766100352427158,0.36740773859763587,0.648131504149425,0.5249477353573392,0.4530450132391879,0.038111355814805514,0.30097087378640774,0.6310679611650485,0.45464036118915524,0.45323296660876294,0.03205708977315254,0.3312101910828026,0.6687898089171975,0.45436182158448113,0.430890538033396,0.022961885617703837,0.3469387755102041,0.5204081632653061,0.4315000651634223,0.2841458058849352,0.014074577459098037,0.2391304347826087,0.32608695652173914,0.2844931149406251,0.38169014084507025,0.014195376807214166,0.2816901408450704,0.4225352112676056,0.3819532192671446,0.3397891963109337,0.02336023105352053,0.2391304347826087,0.48913043478260865,0.34058882055485157,0.5141414141414139,0.05853687345789085,0.26666666666666666,0.6888888888888889,0.5174529696093897,0.48045084996304455,0.0244097712697176,0.3373983739837399,0.6382113821138212,0.4810686547647718,0.8701744944592761,0.042945804054841843,0.7890718833797892,0.9125436063178983,0.8712303966104268,0.6516271564688709,0.14899136283051817,0.4801687119951698,0.875959971033257,0.6683929303094288,-0.638093216612001,-0.40512478234913246,1.0,0.5157607753502618,0.6907788653688558,0.40178957118041214
29,0.7368498817966908,0.15578248336955766,0.5106382978723405,0.9078014184397165,0.7530843916070231,0.6371682411156092,0.13888578335312837,0.49572649572649563,0.8529914529914528,0.6520806520577989,0.34897003369704765,0.115900161372156,0.2621951219512195,0.7515243902439025,0.36765302232752567,0.5459561809616632,0.07128410893640082,0.3966049382716049,0.6450617283950617,0.5505750271361385,0.6878496829541215,0.04581813597269931,0.6038791495710555,0.8183513614323012,0.6893689740094072,0.6493778329532005,0.07739762602157046,0.4399341744377401,0.8195282501371367,0.6539589109464274,0.24702816317297516,0.04778875026571856,0.16618911174785092,0.34498567335243546,0.2515932544184158,0.4530416177525602,0.06982964199099789,0.20089962825278807,0.6586121437422552,0.45837413349170836,0.4422099798954376,0.051157078907287844,0.26753257673499525,0.6988015124959599,0.44514953030990173,0.5243090539969115,0.041357858630722194,0.3554316633741965,0.6552624015110387,0.5259323435761257,0.4536120337250894,0.04092459601287462,0.27184466019417475,0.6116504854368932,0.45544834000608186,0.4550997318136105,0.03761848673802366,0.36305732484076436,0.6751592356687899,0.45664675772505403,0.43125671321160053,0.025585511316899845,0.36734693877551017,0.5204081632653061,0.4320125203387685,0.2846348207475199,0.01672046004387744,0.2246376811594203,0.34782608695652173,0.28512389467641386,0.3817642698295034,0.013100262823854781,0.3028169014084507,0.4225352112676056,0.3819882329015876,0.3387800343249414,0.026005847378296934,0.17391304347826086,0.43478260869565216,0.3397734407962761,0.513230994152047,0.05576759758242993,0.28888888888888886,0.6888888888888889,0.5162420439611795,0.48095849379546385,0.018046458846695465,0.4146341463414635,0.5650406504065042,0.4812958301633496,0.8795846645846107,0.02686558310840563,0.8057798176125198,0.9121492653487402,0.8799935042482484,0.64399610878021,0.11643026356956891,0.4999519623580576,0.8154724571606368,0.6544023244709836,-0.4809036180570623,0.050939977266921746,1.0,0.5782268830042091,0.6683965887189381,0.2794987738424461
30,0.6523768944600219,0.20088672477882924,0.22695035460992896,0.9078014184397165,0.6825488116834374,0.6776253892532955,0.09170441536309112,0.49914529914529904,0.8222222222222221,0.6837905893546232,0.4021849593495928,0.12044047937778646,0.21951219512195122,0.739329268292683,0.41979821149321267,0.5772591874820552,0.13513086209346203,0.3935185185185185,0.8271604938271605,0.5928348261932529,0.7067275024649492,0.04399728288087674,0.5923162998881014,0.8448340171577768,0.7080930533246523,0.6510905016435123,0.06528302612520509,0.42292923752057054,0.8332419089413056,0.6543488789519688,0.2664023455720665,0.04445014370517989,0.12063037249283659,0.3676217765042979,0.27007812925584834,0.46405366800188297,0.06315799814869053,0.19021065675340765,0.6528822800495663,0.46832361570431685,0.4513276810385393,0.05890690680310662,0.28313314746835605,0.7111201036359289,0.4551482994460859,0.5114251050296046,0.04657445872501101,0.32905692399640496,0.6531226760711174,0.5135373544567745,0.4527827952133656,0.028863038663711493,0.3398058252427184,0.6262135922330097,0.4537000332330785,0.45301930578185934,0.03598504419099751,0.3121019108280255,0.6433121019108281,0.45444351164366087,0.4311224489795919,0.0306048138394936,0.326530612244898,0.6224489795918366,0.4322052815759659,0.28433602965958915,0.019760528496588135,0.2028985507246377,0.39855072463768115,0.2850205247132041,0.3819194235178509,0.019631416204301675,0.29577464788732394,0.5211267605633803,0.3824226610410268,0.3397792382878324,0.02160788553358375,0.16304347826086957,0.46739130434782605,0.3404642810080684,0.5160206718346254,0.05968324196688458,0.28888888888888886,0.9555555555555555,0.5194540594300507,0.4809352744690224,0.015771718514310508,0.4065040650406505,0.5487804878048781,0.4811933117422323,0.8651739466904583,0.04143093048703039,0.7845898937945665,0.920536988181376,0.8661634680820596,0.6973594824231628,0.10415464140198064,0.5304890837088224,0.9034119266489591,0.7050797213282715,-0.5573585114609604,-0.36962812937879586,1.0,0.49951603683830087,0.5900573043599705,0.2689972257213303
31,0.6203890340508486,0.24490765528673974,0.27895981087470445,0.9314420803782506,0.6668222086071276,0.5636527215474579,0.1495270446961331,0.2905982905982905,0.8085470085470083,0.5830817072227676,0.4530273855370132,0.11343969821822394,0.2804878048780488,0.7408536585365854,0.4669659776881308,0.6618691791206424,0.12395635902565874,0.4521604938271605,0.8425925925925926,0.6733365253008019,0.6849696041670756,0.06525655974176786,0.5065274151436031,0.8508019395747854,0.6880601975136473,0.6214048560787596,0.093018953629396,0.1760833790455294,0.7860669226549644,0.628304194760112,0.25194188910672094,0.0604144055021302,0.09799426934097416,0.36189111747850994,0.2590594704132555,0.4467039022587448,0.06670273179611315,0.22909045848822795,0.620817843866171,0.45163925792960585,0.43506084314324506,0.08074731651936097,0.06848537561454998,0.7111201036359289,0.4424649011114171,0.5231037280591703,0.056495629923651855,0.36370085817133324,0.6765045372216418,0.5261350276928054,0.45251234883324837,0.05973246322176236,0.0,0.7378640776699028,0.45642400662771443,0.4554251871717509,0.05070141841143116,0.21019108280254778,0.6496815286624205,0.45822888949905277,0.43272466881489474,0.03403101121441717,0.26530612244897955,0.5612244897959183,0.43405608529583345,0.2845410628019315,0.0215071196476029,0.2173913043478261,0.3840579710144928,0.28534987228277275,0.381714850506548,0.01600105336108586,0.3380281690140845,0.47183098591549294,0.3820489005899779,0.3392067124332562,0.033031966401975275,0.0,0.5760869565217391,0.34080562804213893,0.5178947368421053,0.08741383819761497,0.06666666666666665,0.7777777777777778,0.525194560522504,0.4794608472400514,0.04440350220015558,0.27642276422764234,0.6585365853658538,0.4815054069269635,0.8422671219184561,0.04037202788827938,0.7869492880679521,0.9054902829189442,0.8432307432435163,0.6476669302570575,0.15142339256684853,0.4216923825383868,0.9158326132333963,0.665072209297406,-0.6917401287750278,-0.5798634420084182,1.0,0.5458249241814455,0.6219457347350154,0.5059158205447302
32,0.6485767026134266,0.2584895830407502,0.1678486997635935,0.8912529550827426,0.6980584100278684,0.6767544783983145,0.1235392281046909,0.5145299145299145,0.8923076923076922,0.687907516586508,0.38549532241897627,0.14707427893546124,0.2545731707317074,0.7987804878048781,0.41252663495379127,0.5769660071029935,0.12757624978028598,0.43672839506172845,0.8009259259259259,0.590864520768354,0.7007025593598792,0.050423457298107544,0.6046251398731816,0.867213726221559,0.7025095272786948,0.6670398785683697,0.0776332695510503,0.40427866154690084,0.8453099286889743,0.6715300529534477,0.26717274404364705,0.06427487387659821,0.12206303724928358,0.4214899713467048,0.27477484610627706,0.4442714128091527,0.06435879379659606,0.12469144981412633,0.648545229244114,0.4488961956670097,0.4351675936218362,0.051327343741120676,0.23534342539868564,0.6398414979911342,0.4381758927146587,0.5214135724852698,0.051486657711829906,0.34602188998435135,0.7430869531495938,0.5239424842675263,0.4537837478388089,0.03578189586210839,0.2961165048543689,0.6601941747572815,0.45518845117395595,0.45273536340633447,0.03770080794499068,0.267515923566879,0.7388535031847134,0.4542981026663681,0.4297735532569195,0.0301695500351148,0.24489795918367346,0.5714285714285714,0.430828289606168,0.284236648798887,0.017017918700627414,0.2318840579710145,0.3695652173913044,0.2847442512615185,0.3818251977619133,0.01242148452222371,0.323943661971831,0.4225352112676056,0.38202663807953446,0.34032162001191013,0.01996473596562014,0.25,0.42391304347826086,0.3409051241921173,0.5151293759512939,0.05430916578532832,0.37777777777777777,0.7333333333333334,0.5179765232847018,0.48122285332442377,0.01990094347507643,0.37804878048780494,0.5569105691056911,0.4816330522826632,0.8668019857487054,0.04442994482060959,0.7918880804797084,0.9135496107653104,0.8679368031260666,0.6925755729592785,0.14448475207051703,0.5455234406173084,1.0,0.7074458097612494,-0.6234335995133772,-0.28295217440980536,1.0,0.5821825762755486,0.5877876344969455,0.2302005120926317
33,0.614534719925526,0.037794064925299735,0.5248226950354611,0.7210401891252958,0.6156897858062165,0.7665028120986668,0.09987363846896022,0.5299145299145298,0.9076923076923074,0.7729486541850956,0.38878269935549103,0.13475170328112895,0.24847560975609753,0.7439024390243902,0.4113586340921528,0.5714993923111367,0.03928320127171583,0.4691358024691358,0.6342592592592592,0.5728409287185912,0.7260070385924355,0.055545154316260836,0.5766505035434538,0.9999999999999999,0.7281177778553901,0.6744050545846256,0.09561844351862107,0.4410312671420736,0.8047174986286342,0.6811150357465726,0.2924031652241044,0.026891517380208275,0.1567335243553008,0.35673352435530076,0.29363075082437445,0.45616684323054135,0.082929390072919,0.17193556381660463,0.6685254027261462,0.46360526205629576,0.4376207331436777,0.07478616716809736,0.23140189666362732,0.7212997585156729,0.4439323121305659,0.5159473689523068,0.05784295155608038,0.3272023432046609,0.6608215815718999,0.5191629404972301,0.454877005885608,0.03541694817905103,0.3495145631067961,0.6262135922330097,0.45624659059112993,0.454341440876539,0.03584505729306635,0.33757961783439494,0.6433121019108281,0.4557459332591753,0.4320080363751718,0.027208646886879274,0.36734693877551017,0.5918367346938775,0.4328595824890863,0.28497409326424805,0.015393534572658067,0.2391304347826087,0.34782608695652173,0.2853873980429092,0.3818871779902208,0.01965723028602365,0.21830985915492956,0.45070422535211263,0.38239014279736033,0.34027934219418865,0.019134045577135494,0.2391304347826087,0.40217391304347827,0.34081409224449993,0.5144502014968333,0.08423344873882825,0.17777777777777776,0.8666666666666667,0.5212653073334516,0.4786216774084835,0.03351739235853071,0.2357723577235773,0.6585365853658538,0.479787770654545,0.8673638429519472,0.018402159260218296,0.8132801455586641,0.8849658633965278,0.8675580216430363,0.7588601998122682,0.03793648250421237,0.7005255647652172,0.8764784375984735,0.7598029499085861,0.33897191450087055,0.8028282387967766,1.0,0.24134712063966557,-0.0786566152070995,-0.47820191500676873
34,0.7050228310502284,0.07156910605802093,0.5319148936170213,0.8179669030732859,0.7086362226079952,0.7176864535768637,0.06885617396250426,0.5008547008547007,0.7982905982905981,0.7209729737141781,0.40639408620113665,0.0986187025907499,0.2972560975609756,0.6585365853658536,0.41815685596150215,0.48341789277862374,0.06452939227481684,0.3641975308641975,0.5910493827160493,0.4876940569561563,0.7152718521508532,0.044106940691863154,0.5747855277881386,0.897799328608728,0.7166267611334544,0.6148558375100506,0.06899710953928868,0.44377399890290736,0.7750959956116292,0.6187045007935165,0.27807434156297806,0.024865000226890612,0.17851002865329504,0.3587392550143266,0.2791807905039105,0.45308732155285086,0.06717749822631314,0.2160793060718711,0.6321263940520445,0.4580268260044347,0.44443205072628716,0.07115346030768444,0.14862979322740255,0.7810796109973908,0.4500764289548375,0.5188648324371303,0.03857554422410792,0.4211563642004317,0.629740814920593,0.5202929079287273,0.4526000797978454,0.03710064488084479,0.2766990291262136,0.6504854368932038,0.4541139933609086,0.4533461303551179,0.03979215449163347,0.356687898089172,0.7197452229299364,0.45508437826652043,0.4316745876432768,0.027910428048306405,0.3163265306122449,0.5816326530612245,0.43257347050667744,0.28423664879888716,0.017361990885854797,0.2246376811594203,0.3695652173913044,0.28476496517025307,0.382095311595601,0.013307542351307267,0.30985915492957744,0.4436619718309859,0.3823263431243218,0.34014294222751446,0.01768549766028226,0.25,0.41304347826086957,0.34060114658037843,0.5186605783866057,0.06644115268860973,0.17777777777777776,0.8,0.522887299542645,0.4805212161710653,0.027412064196452778,0.3577235772357724,0.6585365853658538,0.4813003238785921,0.8835950299515649,0.02154442846478131,0.8389235743478245,0.916737054622338,0.8838569271523403,0.7230011144247019,0.04296422760537839,0.6575262188806216,0.8401083287799681,0.7242730693493449,0.0397613276167417,0.25956192206855017,1.0,0.34322989528379483,0.04908951255798651,-0.2226977831446606
35,0.6614087936937152,0.1173736081605851,0.4255319148936172,0.8037825059101655,0.671708330157879,0.7187491067089724,0.06411372572747437,0.5794871794871794,0.8598290598290597,0.7215934454361623,0.4211344726323519,0.07658918206393697,0.31859756097560976,0.6265243902439025,0.4280193084949645,0.5334602997646478,0.10061430131407648,0.4012345679012346,0.7191358024691357,0.5428344794427401,0.7180593274361008,0.0338650798282545,0.6135770234986944,0.8481909735173443,0.7188547876673903,0.6289294906958101,0.06915179360508934,0.4064728469555678,0.8030718595721339,0.6327071057077837,0.2798775287251678,0.026793669259323936,0.19742120343839534,0.3530085959885386,0.2811528601881157,0.46220949633847613,0.052940967167328955,0.26797026022304826,0.5774473358116481,0.46522144273197813,0.45388562977240793,0.06150008583898935,0.32320535627478236,0.6702254291667871,0.4580194054526892,0.5122702529488994,0.04439049664166936,0.3932121886790732,0.6410051691021822,0.5141835643943374,0.4524466668831379,0.0444915195444243,0.12135922330097088,0.587378640776699,0.4546216683126491,0.4536565622137483,0.05499027824461549,0.2484076433121019,0.7770700636942676,0.456966184372991,0.4311992355470618,0.037409017343814376,0.29591836734693877,0.673469387755102,0.4328135105698454,0.2840143473413786,0.02285634375810316,0.18840579710144928,0.3695652173913044,0.2849294908339767,0.3816948513825429,0.01599838061569125,0.29577464788732394,0.4436619718309859,0.3820288624440283,0.3404100625272636,0.021061213238790295,0.20652173913043478,0.44565217391304346,0.34105879529117983,0.5155704199182461,0.07365733979534307,0.0444444444444444,0.8,0.520787976471719,0.480055469451015,0.0288244897254939,0.35365853658536595,0.6219512195121952,0.48091717186142174,0.8718391650045914,0.025540776185306462,0.8309016757380713,0.9051462525525131,0.8722119462459752,0.7302023318518845,0.05905340744549428,0.6549899230307399,0.9011015734613143,0.7325783829363648,-0.2086367179913458,-0.4401850431336191,1.0,0.3133788272833119,0.3171176871299166,0.24887876438835665
36,0.7214201283350212,0.24649827723686013,0.2529550827423168,0.9999999999999998,0.7622685869655753,0.6780525030525022,0.1577635078037308,0.3811965811965812,0.9623931623931622,0.6961185445854937,0.35783894350423134,0.1231094552333345,0.21646341463414634,0.7225609756097561,0.37837281132371525,0.4855245338876294,0.13177636903123954,0.31481481481481477,0.7330246913580246,0.5030455108072213,0.6927804504867973,0.05906322796095569,0.464751958224543,0.9227900037299513,0.6952872200240064,0.644970165795337,0.08369908032527987,0.42512342292923766,0.8453099286889743,0.6503646512134053,0.26204315537103096,0.06637990098615985,0.12234957020057302,0.416618911174785,0.2702992156718606,0.4496466568039852,0.06318472698678024,0.1559801734820322,0.634448574969021,0.454053126005991,0.4408626032955361,0.07165927413830775,0.1386104271828843,0.6904244500910494,0.44663383988810634,0.5226536831889792,0.047146395952959774,0.3645562921158646,0.6710867889062764,0.5247704115500922,0.45143154349118275,0.04305637812629828,0.24757281553398056,0.6990291262135921,0.45347498381131557,0.45229429351358375,0.04867888422076034,0.3121019108280255,0.8598726114649682,0.4548996776541238,0.43054977092877983,0.031707301633744765,0.326530612244898,0.6224489795918366,0.43171274424987255,0.2838842058562544,0.01998109886479967,0.2318840579710145,0.4492753623188406,0.28458472932695195,0.38078470824949684,0.01747638156664494,0.27464788732394363,0.4788732394366197,0.3811845206808418,0.33906388642413327,0.024981109251157315,0.13043478260869565,0.43478260869565216,0.33998056255810455,0.5180272108843531,0.07813647335267107,0.022222222222222143,0.8222222222222222,0.5238720501402178,0.48062883690061325,0.042494710116707066,0.2357723577235773,0.8983739837398375,0.4824989871644265,0.8902050440043748,0.04111424817286466,0.8208939536600225,0.9406351553020138,0.8911515525297559,0.6742589355840635,0.15608064551153178,0.40262218066407435,0.9666211704987031,0.692043448261569,-0.6369606342935308,-0.40243925567140315,1.0,0.4815479765312203,0.645847995150342,0.4584356621900219
37,0.6843330217897271,0.09384777180770547,0.5555555555555556,0.9007092198581559,0.6907133643989121,0.8035513151792213,0.1070796659037308,0.5829059829059827,0.9504273504273502,0.8106271207548201,0.36720079410096407,0.11067805151673805,0.25762195121951226,0.7271341463414634,0.38345609277420356,0.4258182601205858,0.07077303650751808,0.2330246913580247,0.5246913580246912,0.43163711530307264,0.7259237412859367,0.042835050914533365,0.599403207758299,0.8265572547556881,0.7271815508938094,0.6382294284487193,0.08330810540326425,0.40756993965990135,0.7844212835984641,0.6436226717628667,0.2969947357899646,0.03404128949999026,0.1962750716332377,0.3587392550143266,0.29893174968294406,0.4604580367520628,0.08088296951647075,0.1539677819083023,0.6683717472118959,0.4674808034197549,0.45930460189062594,0.06467509663135723,0.3161447644673812,0.7183462396502025,0.46381825403387633,0.5112554417535163,0.06332595901377698,0.29583643190517694,0.7234096912681867,0.5151473192064212,0.45328140287499097,0.027256906777466918,0.34466019417475724,0.5825242718446602,0.45409700456069496,0.4541549400088876,0.04404349602524431,0.33757961783439494,0.7515923566878981,0.45627735025688765,0.43137952855560896,0.0268956829136685,0.35714285714285715,0.5714285714285714,0.4322139188254891,0.28420963936636245,0.01661065233534997,0.2391304347826087,0.391304347826087,0.2846927527116616,0.3817556501801507,0.01281246572866201,0.34507042253521125,0.4436619718309859,0.38196976247635916,0.3401584091675085,0.018112433579945037,0.25,0.41304347826086957,0.340638418306276,0.5194659776055122,0.052975652596091924,0.3333333333333333,0.7555555555555555,0.5221498291310955,0.481470977500472,0.03156479120082743,0.2804878048780488,0.8414634146341464,0.482500545544979,0.8988743897427838,0.02273716818791263,0.8298450788751515,0.9331052276939391,0.899160799611951,0.7696164666167252,0.06942147567348299,0.5754165491096912,0.8625520977417968,0.7727290387677398,0.10832163952998072,0.20095935380729543,1.0,0.3992948285139058,0.22498484309811748,0.0758895626303205
38,0.8176826166322538,0.05276595313947679,0.6666666666666667,0.9290780141843975,0.8193779936322556,0.6553499945905007,0.06301551446290603,0.48547008547008547,0.7743589743589743,0.6583631248477578,0.3399872645878357,0.10188380788960293,0.16615853658536586,0.6676829268292682,0.3548785726255456,0.4181610407876232,0.03393209410701816,0.2854938271604939,0.5154320987654321,0.41953116620019487,0.6910679464964421,0.03663702256288341,0.526669153301007,0.7963446475195821,0.6920353534341354,0.6090739287722974,0.05393155440378663,0.4179923203510697,0.7432803071859573,0.6114494736283634,0.24592415944289284,0.027899247410400032,0.09169054441260738,0.31174785100286523,0.2474966606115474,0.45977664580490335,0.07572396936283692,0.14033705080545222,0.6519529120198265,0.46595121806447976,0.4470088653130404,0.05800283225118744,0.1763860385796832,0.643948570933065,0.45074450369170177,0.5165641464576837,0.03948345457096693,0.38936387650727466,0.6119204149881152,0.5180661417482361,0.45369915202162964,0.034236694510701327,0.2669902912621359,0.5922330097087378,0.4549850134419404,0.4536402483270177,0.036330810727616666,0.3312101910828026,0.6305732484076434,0.4550881515965775,0.4304443296305866,0.026001771372779675,0.3469387755102041,0.5204081632653061,0.4312264758727594,0.28469546872133444,0.01848054674827344,0.2173913043478261,0.3840579710144928,0.2852927614320287,0.3822205384203958,0.02797003124200306,0.2535211267605634,0.732394366197183,0.38323933375043195,0.3414281783159039,0.02770542297892288,0.20652173913043478,0.6413043478260869,0.3425468761013834,0.5159634317862165,0.059601308392244916,0.26666666666666666,0.6888888888888889,0.5193836129456416,0.4807039209632598,0.018080669883162526,0.36991869918699194,0.5447154471544716,0.4810427587289797,0.9063251071644685,0.015158807383388758,0.8566523224497544,0.9289656742099998,0.9064514670605345,0.644100593073879,0.04887029365690666,0.48660374072166523,0.7469754101805486,0.6459460671535311,0.12846612984475925,0.7200980570216406,1.0,0.2801915543935854,0.10964397702508225,-0.5530199181106635
39,0.700743633479965,0.1777997869933047,0.39243498817966893,0.9739952718676126,0.7228792179364109,0.6576165747051814,0.11256358924371113,0.5008547008547007,0.8547008547008546,0.6671506758119975,0.43128183853041063,0.1150353093426199,0.15396341463414634,0.7240853658536586,0.44631297278044396,0.504756602594155,0.11680550342748898,0.3179012345679012,0.6820987654320987,0.5180536437274825,0.6986210983054697,0.05138321227039093,0.5598657217456172,0.9052592316299887,0.7005021900952807,0.6025382420130958,0.07247290007332315,0.44651673066374115,0.795940756993966,0.6068673933105211,0.2679763156940261,0.05126576332974558,0.118051575931232,0.3750716332378223,0.27282076028445607,0.4517320518250122,0.08987129101461037,0.10316232961586114,0.6646542750929367,0.46055741872875805,0.44187508234385703,0.06800861641234462,0.22450422137727524,0.6705538898947087,0.44706165534829223,0.5241480339918982,0.053911450992894856,0.3950667694708172,0.6910469142786754,0.5269045534785235,0.45399102863463187,0.029070739971607824,0.2815533980582524,0.5631067961165048,0.454917891065045,0.4549907280496656,0.03233396864933258,0.3885350318471338,0.7324840764331211,0.45613456308557937,0.4308964091965901,0.027414175841177217,0.3469387755102041,0.5612244897959183,0.4317648367037359,0.28460374243258024,0.01587101457549052,0.2391304347826087,0.35507246376811596,0.28504452668463914,0.38175254055981434,0.012548826118403817,0.3028169014084507,0.45774647887323944,0.3819580826850347,0.33963951568519396,0.014294015666672402,0.2826086956521739,0.41304347826086957,0.3399392194496045,0.5154008438818563,0.049788495374678596,0.3111111111111111,0.6888888888888889,0.517792506264506,0.4805238242255835,0.015521036899230563,0.4146341463414635,0.5731707317073171,0.4807736326847081,0.8765644469171407,0.03566823235778718,0.8169300196019116,0.939680074364029,0.8772875391666998,0.6928712625968788,0.1174326056291654,0.4940028105332794,0.8880998614015982,0.7027213977372175,-0.5228397974707927,-0.3863473479183044,1.0,0.518827843524923,0.4941136734806079,0.2040041046961621
40,0.6634793314148902,0.23789986670878238,0.30260047281323876,0.99290780141844,0.7047129563135247,0.740733458944321,0.13093546395808445,0.5247863247863247,0.9521367521367519,0.7521804168235022,0.4060624951297434,0.13382035554226443,0.17835365853658539,0.7454268292682927,0.42747798049745717,0.45466019800418084,0.16947496743474275,0.24382716049382713,0.6990740740740741,0.4851246204946223,0.7104354033173925,0.05285911896238237,0.5811264453562103,0.8530399104811637,0.7123928845450603,0.6316993194870653,0.08218615834038079,0.43444871091607246,0.8162369720241361,0.6370062910085776,0.28645056162289323,0.06367994970616658,0.126647564469914,0.4406876790830945,0.2934213771056871,0.4561230210102494,0.09403499581812755,0.10749938042131346,0.6716232961586122,0.46568502196046396,0.4520718710858339,0.07522750766556223,0.11430433331669132,0.651340251154211,0.4582685611036544,0.5159608122557936,0.058184416446668996,0.31037880896221043,0.6936132161122694,0.519220733448093,0.45294519060764876,0.042747853282981994,0.24271844660194172,0.645631067961165,0.45495152091565194,0.45180195763212,0.04662682846776432,0.2802547770700637,0.7515923566878981,0.45419392793273233,0.4305274825585187,0.03347874737987622,0.30612244897959184,0.5510204081632653,0.4318230642854577,0.28420613974162984,0.022737322237645432,0.15217391304347827,0.41304347826086957,0.2851113185713343,0.3813841515546952,0.017135883118721218,0.21126760563380279,0.49295774647887325,0.3817676929825414,0.33799833310181815,0.02229912615363968,0.18478260869565216,0.42391304347826086,0.338730771476988,0.5130990415335459,0.06409443224743822,0.28888888888888886,0.7555555555555555,0.5170740737647114,0.4793371256396259,0.033003562768575856,0.27642276422764234,0.6341463414634148,0.48046834982895364,0.8881976066038622,0.049441724534557877,0.8041530390249775,0.9525818158129598,0.889568245076422,0.7413188685856659,0.14506280855917186,0.49619090240747393,0.9792813851345564,0.7553341330950212,-0.5721509428816972,-0.5273475948432471,1.0,0.5440616986153056,0.5806220898465768,0.4079058791589533
41,0.778895669543865,0.1939826147342663,0.46335697399527187,0.9763593380614657,0.8026272395307436,0.695077188100443,0.17543544952342643,0.5333333333333332,1.0,0.7168196186578726,0.3189678263061697,0.1212777784930448,0.1524390243902439,0.7317073170731707,0.341190222357977,0.4084960283280701,0.07174988360183589,0.2993827160493827,0.5416666666666666,0.41473334627536795,0.690068016195893,0.05921703052138585,0.4800447594181275,0.8724356583364414,0.6925976195106882,0.6382273023000674,0.06988029494113532,0.4284147010422381,0.837081733406473,0.6420317179008396,0.25895248883854205,0.070081759459295,0.1100286532951289,0.4051575931232091,0.26824457756223025,0.4507808100310908,0.07008343952000308,0.15489467162329618,0.679990086741016,0.4561823489414106,0.43517942113792385,0.06547557458690774,0.039580831557455676,0.6978161303121954,0.4400648836235444,0.5187477463257484,0.05285971485343877,0.31280139789312333,0.705874435983886,0.5214270358813398,0.4519204234715635,0.04305128974078359,0.16504854368932037,0.6310679611650485,0.4539611145426082,0.4513076252077881,0.04652840150885291,0.2356687898089172,0.7961783439490446,0.4536935867753776,0.42909877129146257,0.03340575327459355,0.2755102040816326,0.5714285714285714,0.4303937921236195,0.2837508894131734,0.020959801917315248,0.2028985507246377,0.37681159420289856,0.28452195936817287,0.382064999818029,0.015203925349140664,0.3380281690140845,0.47183098591549294,0.3823666121943726,0.3403269295584748,0.026949346344666825,0.19565217391304346,0.5,0.3413895276535249,0.5134654033878835,0.068695443390523,0.2444444444444444,0.7333333333333334,0.518028561428062,0.4803890674565651,0.03003621891228461,0.36991869918699194,0.6991869918699188,0.481324733810985,0.909808570249729,0.028712828911239243,0.8281693654312077,0.9509657271991967,0.9102603642600261,0.6699101022336139,0.16401965185182496,0.49998675750615734,0.9628400499272988,0.6896466311839741,-0.5291090645017757,-0.007502689353218151,1.0,0.45667146663800384,0.6978460830813834,0.1955429881804011
