,Orientation X,Orientation X,Orientation X,Orientation X,Orientation X,Orientation Y,Orientation Y,Orientation Y,Orientation Y,Orientation Y,Orientation Z,Orientation Z,Orientation Z,Orientation Z,Orientation Z,Orientation W,Orientation W,Orientation W,Orientation W,Orientation W,Accelerometer X,Accelerometer X,Accelerometer X,Accelerometer X,Accelerometer X,Accelerometer Y,Accelerometer Y,Accelerometer Y,Accelerometer Y,Accelerometer Y,Accelerometer Z,Accelerometer Z,Accelerometer Z,Accelerometer Z,Accelerometer Z,Gyroscope X,Gyroscope X,Gyroscope X,Gyroscope X,Gyroscope X,Gyroscope Y,Gyroscope Y,Gyroscope Y,Gyroscope Y,Gyroscope Y,Gyroscope Z,Gyroscope Z,Gyroscope Z,Gyroscope Z,Gyroscope Z,EMG1,EMG1,EMG1,EMG1,EMG1,EMG2,EMG2,EMG2,EMG2,EMG2,EMG3,EMG3,EMG3,EMG3,EMG3,EMG4,EMG4,EMG4,EMG4,EMG4,EMG5,EMG5,EMG5,EMG5,EMG5,EMG6,EMG6,EMG6,EMG6,EMG6,EMG7,EMG7,EMG7,EMG7,EMG7,EMG8,EMG8,EMG8,EMG8,EMG8,Roll,Roll,Roll,Roll,Roll,Yaw,Yaw,Yaw,Yaw,Yaw,Accelerometer X vs Roll,Accelerometer Y vs Roll,Accelerometer Z vs Roll,Accelerometer X vs Accelerometer Y,Accelerometer X vs Accelerometer Z,Accelerometer X vs Accelerometer Z
,mean,std,amin,amax,RMS,mean,std,amin,amax,RMS,mean,std,amin,amax,RMS,mean,std,amin,amax,RMS,mean,std,amin,amax,RMS,mean,std,amin,amax,RMS,mean,std,amin,amax,RMS,mean,std,amin,amax,RMS,mean,std,amin,amax,RMS,mean,std,amin,amax,RMS,mean,std,amin,amax,RMS,mean,std,amin,amax,RMS,mean,std,amin,amax,RMS,mean,std,amin,amax,RMS,mean,std,amin,amax,RMS,mean,std,amin,amax,RMS,mean,std,amin,amax,RMS,mean,std,amin,amax,RMS,mean,std,amin,amax,RMS,mean,std,amin,amax,RMS,corr, corr, corr, corr, corr, corr
0,0.5225806451612905,0.024568216738960848,0.49462365591397806,0.580645161290323,0.5231434201431571,0.5598522167487686,0.01722964648876801,0.5369458128078817,0.5862068965517242,0.5601106531737141,0.17351063829787247,0.01938060742574944,0.14893617021276606,0.22127659574468095,0.17456276621353517,0.5816729323308272,0.014769822889501412,0.5451127819548875,0.6015037593984964,0.5818557331356511,0.6074007220216611,0.03594163157520303,0.5333935018050542,0.6768953068592058,0.608436638419084,0.6507812500000001,0.030619303281429693,0.5781249999999999,0.7265624999999999,0.6514831836215472,0.6051435406698562,0.039628563656206775,0.5119617224880382,0.6969696969696969,0.6064073443614184,0.42009287782162097,0.053339694028712505,0.31101449573988027,0.5280075827040169,0.4233816492026445,0.29747929934115525,0.03053611043160537,0.2288832647896236,0.3516017220747425,0.2990034719293214,0.24579294653014783,0.038987892639603,0.1146211604095563,0.2912400455062571,0.248789523376965,0.5495049504950497,0.13398502006648344,0.28712871287128716,0.8118811881188119,0.5652069325306683,0.4735849056603774,0.09922521186024938,0.09433962264150947,0.6698113207547169,0.48361365207295604,0.3156249999999999,0.0657483267763077,0.2222222222222222,0.4722222222222222,0.32223269858448106,0.3785211267605635,0.052813891812653016,0.3098591549295775,0.5211267605633803,0.38209660806303314,0.4796391752577319,0.06925469351127658,0.3402061855670103,0.7010309278350515,0.4844894691331533,0.38031914893617014,0.04433987788053961,0.23404255319148937,0.5212765957446809,0.3828309407541826,0.4657692307692308,0.09635993692920704,0.24615384615384617,0.676923076923077,0.47538834949989756,0.4780898876404492,0.12365965701100504,0.2247191011235955,0.7191011235955056,0.4934362761966686,0.5155982881170332,0.019400603841829286,0.4819539253674199,0.5444468774409139,0.5159540372483843,0.6390917110001076,0.025915135500471437,0.5787623343455754,0.6852792655425448,0.6396037988167774,-0.1098552947545991,-0.0027241220834587766,1.0,-0.31169957283919886,0.5211673886192248,-0.3432844408685423
1,0.8978494623655914,0.03335277289764817,0.8279569892473115,0.9516129032258065,0.898450525440146,0.42784700086931327,0.04274112280251653,0.34482758620689635,0.5172413793103448,0.4299140963195711,0.4230287859824782,0.015039997140340535,0.4085106382978725,0.4553191489361703,0.4232882024083419,0.7314241486068114,0.010879690685157577,0.7142857142857144,0.7481203007518797,0.7315026804001215,0.564822679974517,0.01785042581811412,0.5054151624548737,0.6019855595667871,0.5650963863080077,0.680798100490196,0.031212381926134004,0.6223958333333333,0.7499999999999999,0.6814921959196166,0.4055727554179566,0.03907773045755196,0.27751196172248804,0.4704944178628389,0.4073958948742465,0.38370106498447654,0.02757559401302671,0.33419531644395906,0.4423724797296601,0.38466161175223706,0.28318143275906565,0.016980689340949588,0.24908531972545844,0.3129169360273992,0.2836751433764729,0.2410097035401191,0.018511201542062688,0.20563367463026166,0.2781615472127417,0.24169870378831682,0.5512521840419335,0.10940673718399409,0.3564356435643565,0.8217821782178218,0.5616909742971828,0.47669256381798014,0.08129463994945887,0.3113207547169812,0.6886792452830188,0.48337381173334243,0.3206699346405229,0.05052655389920611,0.19444444444444442,0.4583333333333333,0.32451048269186367,0.3782104391052197,0.045623520566563956,0.3098591549295775,0.5070422535211268,0.38087192220385563,0.4672528805336569,0.08549304015613171,0.28865979381443296,0.7731958762886597,0.4747834684692512,0.3754693366708385,0.07414637202666187,0.25531914893617025,0.6170212765957447,0.38250909879670053,0.4755656108597286,0.0658585752894936,0.2923076923076923,0.6307692307692307,0.47997128351274043,0.478519497686715,0.10518888077621255,0.3033707865168539,0.7528089887640449,0.48961227306263927,0.25652576167248814,0.00460864580290682,0.24845501132294334,0.2660212805413522,0.25656593952275625,0.2649662692026024,0.044950739857636826,0.1642866694577787,0.35437722752105305,0.26864151639032,-0.5583903878019467,0.046520425351275874,1.0,-0.1067961161220951,0.5959132242283632,-0.5404251781407876
2,0.9339477726574504,0.03103925548951783,0.8924731182795695,0.9946236559139789,0.9344511429151898,0.5147783251231527,0.06213253564029124,0.3694581280788176,0.5911330049261085,0.5184257521364422,0.4180344478216818,0.015972061083308717,0.3914893617021278,0.451063829787234,0.418332203315667,0.8616183315431439,0.023370569406368523,0.8082706766917294,0.890977443609023,0.8619276816509485,0.5797017362901843,0.027716501877968695,0.5207581227436824,0.6380866425992782,0.5803481859637671,0.7158978174603173,0.04041243608147173,0.6197916666666666,0.8007812499999999,0.7170104358750783,0.46620338725601873,0.05379743743467561,0.3221690590111642,0.569377990430622,0.46922367149401156,0.379085650311555,0.08134451536765962,0.2305306862553187,0.5434614631734028,0.3875116959471777,0.2843520900100409,0.027702834552218617,0.24435717920856093,0.3436481300634087,0.2856663886191051,0.25187106560485395,0.033983856604021354,0.1897064846416382,0.30688509670079633,0.25409926902650737,0.526166902404526,0.11102148964673078,0.28712871287128716,0.7722772277227723,0.5374792178376463,0.46563342318059286,0.09045910978922547,0.2924528301886793,0.6509433962264151,0.47413342589600505,0.3217592592592593,0.06824276465113906,0.2222222222222222,0.4583333333333333,0.32874794768931304,0.38296445338698876,0.0749320889771398,0.22535211267605637,0.619718309859155,0.39005500173001806,0.48330878743249867,0.1222188569592781,0.30927835051546393,0.9278350515463918,0.4981658152245803,0.38779128672745683,0.07438286995317053,0.11702127659574468,0.574468085106383,0.39469375444870536,0.48608058608058613,0.06492194977010082,0.3230769230769231,0.6153846153846154,0.49029464807124257,0.4852862493311929,0.1036420385471967,0.23595505617977525,0.696629213483146,0.4959724406106105,0.14565261046253372,0.025666960629072436,0.11166798203239381,0.20306287650202792,0.14784380358341137,0.3841507485220225,0.07119309007664856,0.2099691858555608,0.46256304347318045,0.39053754766872883,-0.27151955379975,0.5349260221452166,1.0,0.07644800705300515,0.4059953548544015,-0.6827943032766826
3,0.46060437523173886,0.07793918270726444,0.327956989247312,0.623655913978495,0.4670397987813752,0.5653983353151008,0.21876063467198245,0.26600985221674867,0.8817733990147785,0.6055628668430223,0.4177549523110784,0.1937220228609585,0.17446808510638312,0.7404255319148936,0.4597829749011934,0.42202488981073394,0.04213775872618421,0.3533834586466167,0.4962406015037597,0.42408723713086344,0.5666158346819375,0.030819498587594946,0.509927797833935,0.6362815884476536,0.5674389562129394,0.49247934626436785,0.14301282902274756,0.25,0.6979166666666665,0.5124801884301092,0.5057471264367815,0.11666414146051216,0.3285486443381179,0.7049441786283891,0.518802480363234,0.3615396257034623,0.313167522399809,0.0,0.9999999999999999,0.47654366933129066,0.2852317316507833,0.03074226679506078,0.21512867419501264,0.3653563126693534,0.286855247651689,0.22616562708406884,0.064521604240614,0.13566780432309442,0.35011604095563137,0.2350364903179469,0.5334585182656195,0.06215285404904903,0.4257425742574258,0.7227722772277227,0.5370049952470415,0.4695836044242029,0.061699441900654135,0.33018867924528306,0.6509433962264151,0.47355036461583994,0.3175287356321839,0.08681206704085014,0.15277777777777776,0.6805555555555556,0.3289846442100468,0.38440990772219535,0.04562060874839067,0.295774647887324,0.5633802816901409,0.38706114975579076,0.4767152506221114,0.05637735745544835,0.32989690721649484,0.6494845360824743,0.47998024594605654,0.3873807776962584,0.021832462812331872,0.3297872340425532,0.4468085106382979,0.3879849290200035,0.4785145888594162,0.04290786714809656,0.35384615384615387,0.5846153846153846,0.48040145083937646,0.4779155366137155,0.13057910190469874,0.0786516853932584,0.9213483146067415,0.4951365275603902,0.536600325534059,0.14070775457527954,0.33488413825063335,0.7334972160518665,0.554434148608899,0.44959596684353786,0.15103929469896657,0.2523783988528674,0.6491363697443848,0.4738734816651247,0.2892027266306683,0.9664133195855283,1.0,0.31069341663504285,-0.045736199956175845,-0.890019167613104
4,0.3198924731182797,0.13212002542594475,0.14516129032258096,0.5483870967741931,0.3454714213192138,0.7254926108374382,0.07075562930885256,0.5714285714285716,0.8029556650246308,0.7288489064831216,0.5312765957446809,0.0778078907155236,0.38297872340425543,0.6255319148936169,0.5368030712907815,0.37640977443609047,0.08247943369960199,0.2593984962406015,0.5037593984962407,0.3851195968135747,0.5433889891696753,0.04008880838192292,0.42509025270758116,0.5965703971119134,0.5448288981821603,0.35615234375,0.10760427990845875,0.14973958333333337,0.6028645833333333,0.371663431059434,0.5820175438596492,0.03426841399149021,0.5103668261562999,0.6363636363636362,0.5830003322923354,0.4081326045970141,0.052572990230306496,0.27431668091857864,0.5106271184694476,0.41142076303263403,0.28907017248256617,0.015457067148017412,0.266061923166857,0.3281742156444714,0.2894728182762561,0.19059499431171792,0.06768933475680151,0.09897610921501704,0.40273037542662116,0.20197463144045252,0.5299504950495051,0.06609492060215454,0.39603960396039606,0.6930693069306931,0.5339539795426058,0.4683962264150943,0.07963682157052299,0.25471698113207547,0.6981132075471698,0.4749510476733463,0.3069444444444444,0.12041693160392387,0.08333333333333331,0.6805555555555556,0.3291695967989603,0.3602112676056338,0.1862764888812332,0.02816901408450706,1.0,0.40445471237485875,0.4559278350515464,0.2086749993676051,0.0,0.9381443298969072,0.5003267080137073,0.3779255319148936,0.08500360337774829,0.13829787234042556,0.5638297872340425,0.3871339302433679,0.4957692307692307,0.15531791096602068,0.015384615384615385,1.0,0.5189486413005552,0.47977528089887633,0.13394503585925466,0.19101123595505615,0.7528089887640449,0.497671639715535,0.5214593900562173,0.04132464320886463,0.4738459028219313,0.5929176926686965,0.5230534661587987,0.5480066028529402,0.029591611776805946,0.47053533034384687,0.5828252725004068,0.5487850295614675,-0.7874170327432103,-0.9178398267261779,1.0,0.7786064547652632,-0.5035525867059705,-0.7787693873625167
5,0.7478119529882472,0.07871747952973442,0.6559139784946235,0.908602150537634,0.75184776073549,0.7746591820368883,0.0791402986548005,0.5714285714285716,0.8325123152709359,0.7785977007907231,0.5265710044532409,0.03308028318333627,0.451063829787234,0.5574468085106382,0.5275849494723532,0.8431543976219621,0.03908884043552631,0.7706766917293235,0.8947368421052633,0.8440389459301373,0.5986273192846951,0.015021464566235179,0.5749097472924188,0.6552346570397113,0.5988113761841551,0.5861797480620156,0.05816383271838739,0.5156249999999999,0.7408854166666665,0.5889915562424087,0.6126627350617558,0.04603356287668642,0.4800637958532694,0.6618819776714513,0.6143496030006085,0.39521753912407387,0.07459281681715339,0.2182912129235651,0.4784315341582271,0.4020343196161231,0.2804528235135686,0.02906277390762241,0.22867006863540712,0.3206538932368679,0.2819198257323883,0.22487435510754822,0.023538483030845266,0.16354038680318544,0.2755995449374289,0.22607443607777733,0.5376467879346075,0.08154653707149227,0.29702970297029707,0.712871287128713,0.5436536203284097,0.4760860026327336,0.08971950213917937,0.2358490566037736,0.6509433962264151,0.48427293050638365,0.3336563307493541,0.09210295664708869,0.1388888888888889,0.5416666666666666,0.3458500016737983,0.38617753029806745,0.059694811928813034,0.28169014084507044,0.5633802816901409,0.39065801421409274,0.47950131862862616,0.09336457152250041,0.31958762886597936,0.7938144329896908,0.4882988205725125,0.38668975754576945,0.032656341807599354,0.3191489361702128,0.4787234042553192,0.38803428250413213,0.4776386404293379,0.021220438207376395,0.4307692307692308,0.5384615384615385,0.4780988449820171,0.47452312516331324,0.07572468512449058,0.19101123595505615,0.6067415730337078,0.4803884575152553,0.09929351779207665,0.02413721980998567,0.06884194470316363,0.14353388422992275,0.10211884788496103,0.6569352986431894,0.08543944865698297,0.4308615350590079,0.7240748952796676,0.662339883208166,0.17344051446413905,-0.1606484783042202,1.0,0.16703314325877794,-0.060301889157343955,-0.8921941960157739
6,0.7395598899724933,0.06986590465108676,0.623655913978495,0.854838709677419,0.7427762504090993,0.7272310688509566,0.12654499052323295,0.4926108374384235,0.9605911330049257,0.7379066689094468,0.39099455714992576,0.060445287681380154,0.31063829787234054,0.5063829787234042,0.39553180443427444,0.856530862038818,0.02459640918672532,0.7969924812030078,0.917293233082707,0.8568757387099535,0.6047351187977504,0.03346773171443119,0.5036101083032491,0.6868231046931408,0.6056390050108275,0.6529796511627909,0.06753723187767245,0.5260416666666665,0.7851562499999999,0.6563822257625782,0.6205630354957161,0.07236432925561642,0.47368421052631576,0.7559808612440191,0.6246705498632785,0.30688100200565016,0.06840287074495705,0.1938225688470375,0.4552507134541483,0.31423890475885796,0.2653439655252383,0.030491164721687586,0.22351209716242804,0.34106914432691915,0.26704963953872923,0.2341477895071037,0.033458509054100714,0.1763367463026166,0.32224345847554037,0.23647119260202773,0.5173842965691918,0.12355178732766676,0.2574257425742575,0.7524752475247525,0.5315981127331727,0.45853444493198786,0.09188494601967583,0.28301886792452835,0.7358490566037736,0.4674401943575075,0.3113695090439277,0.07262761163051144,0.06944444444444442,0.4722222222222222,0.3195357132846223,0.376023583360629,0.09289547757523713,0.0,0.5774647887323944,0.3870692668355409,0.4679932869815392,0.06355621568051772,0.3402061855670103,0.6391752577319587,0.47218976042450145,0.38495794161306285,0.07046161934083724,0.06382978723404259,0.5,0.3912058220686377,0.46762075134168163,0.0993719094432843,0.26153846153846155,0.7230769230769232,0.4778224539609755,0.4588450483407368,0.1896836474047621,0.0,0.9999999999999999,0.49566311436553956,0.15903805391579914,0.05085037499275894,0.04280767423765308,0.25060445748582927,0.16678947587281623,0.6922772347888285,0.13078216033135465,0.4274332256875284,0.937969217061414,0.7042399991786393,-0.10553524653710208,0.8716069507973462,1.0,-0.04791822871085735,0.28266714433473644,-0.7328790617498597
7,0.39675428116288325,0.05021110274808045,0.3333333333333335,0.49462365591397806,0.39986050868731365,0.26555373107097247,0.01480211607072196,0.23152709359605916,0.29064039408866993,0.2659583224296356,0.16453900709219862,0.023468034698204993,0.13191489361702136,0.2595744680851064,0.16617350708930895,0.2598858256752996,0.03745930120381788,0.2105263157894739,0.3157894736842106,0.2625221066165206,0.5666532958951737,0.026732151051239758,0.5153429602888088,0.6335740072202166,0.5672718326949282,0.6082658179012347,0.05323054034818455,0.50390625,0.7356770833333333,0.6105475604798499,0.40217969165337597,0.056080638743761436,0.1515151515151515,0.4880382775119616,0.40599913913097424,0.44763156880544563,0.10096538526180246,0.35737613714803784,0.8654173062856082,0.4586711812044158,0.29870704301264267,0.017111792642534585,0.2325351085924928,0.33032337042487936,0.2991877145230881,0.25236143766064123,0.04140291497783328,0.20535153583617746,0.4200819112627986,0.25567313530564256,0.5372203887055372,0.09487313921932873,0.24752475247524758,0.8118811881188119,0.5453805781475946,0.4643605870020963,0.0825829738080256,0.20754716981132076,0.6698113207547169,0.4715128916569178,0.3088991769547325,0.11572996688732444,0.0,0.6666666666666666,0.3294906681012345,0.37663015127803867,0.0644089427169483,0.2535211267605634,0.5352112676056339,0.3819973278167708,0.4791905307369223,0.10560526693752757,0.17525773195876287,0.9278350515463918,0.4904788577361125,0.3782505910165484,0.10373391163707045,0.09574468085106386,0.6170212765957447,0.39196295915990065,0.47264957264957275,0.13127339563870408,0.0,0.7076923076923077,0.49021546158065776,0.4727424053266751,0.16368315677217848,0.011235955056179747,0.8876404494382022,0.49978135839689947,0.8313313828785401,0.0343250166020761,0.733166433299056,0.8732999754499282,0.8320265958968421,0.27214137924979215,0.01605978590639705,0.21496379120155007,0.29401089530734925,0.27260607254373614,-0.36895521855606805,-0.6479593127223059,1.0,0.5488853680610011,0.14799825274128756,-0.24927400982545678
8,0.6565742312771176,0.07877418872212291,0.5483870967741931,0.7634408602150535,0.6612005957319896,0.5976147264713504,0.0711011806853956,0.4778325123152709,0.6748768472906406,0.6017558045835737,0.48727136991414705,0.06075216103831657,0.40000000000000013,0.5872340425531916,0.49097806640602915,0.5896319746735261,0.05586845938529699,0.5037593984962407,0.6541353383458648,0.5922266381461051,0.5750522515675475,0.023774100547208816,0.526173285198556,0.6407942238267149,0.5755348677208197,0.5361385233918128,0.07925509557864557,0.41406249999999994,0.6588541666666665,0.5418631625818239,0.4890735610957218,0.05183719011255804,0.365231259968102,0.6012759170653907,0.4917650866386567,0.40330850409871255,0.06819838415824302,0.2994240853878409,0.602062577913314,0.40893419060408404,0.291657406448876,0.023674549668977345,0.21942698375582856,0.3333321871174505,0.292599887184844,0.24153954853002813,0.05756904843043776,0.1555767918088737,0.4035858930602958,0.24818824521606683,0.5362167795726942,0.0443492632267286,0.4455445544554456,0.6930693069306931,0.5380155997536664,0.47269116186693144,0.08289173773671409,0.2735849056603774,0.6792452830188679,0.47977852195307,0.3265107212475634,0.10182969810458559,0.1388888888888889,0.6944444444444444,0.3417552065186222,0.3832468495181618,0.044198754810298085,0.28169014084507044,0.47887323943661975,0.3857426669912488,0.4735033459938504,0.10467960740661737,0.15463917525773196,0.7525773195876289,0.4847380699041568,0.3846584546472566,0.07270462678947773,0.1595744680851064,0.5425531914893618,0.3913506781640993,0.479622132253711,0.04029926166106832,0.35384615384615387,0.5692307692307692,0.4812825869227286,0.47013601419278533,0.08206834492206165,0.0898876404494382,0.6853932584269662,0.4771214975701332,0.34751631072376354,0.026125010900066907,0.3074802213435479,0.3843618448840722,0.3484797389307719,0.4298076643585574,0.06154600850394378,0.2593566569119208,0.50078017943114,0.4341152898969614,-0.3884834379490753,-0.4749556902546417,1.0,0.47730223742051303,-0.049616341878173285,-0.5397508375994647
9,0.9621769477457085,0.025823345410441553,0.8870967741935489,1.0,0.962517337456005,0.5742805289084782,0.042924100270995004,0.49753694581280783,0.6847290640394088,0.5758543913918683,0.5463979096677865,0.022021308152669773,0.523404255319149,0.6085106382978724,0.5468337096573759,0.891109352328189,0.033156202783815134,0.7819548872180453,0.9248120300751881,0.8917151591355891,0.5806099182975495,0.023926792268370772,0.516245487364621,0.6407942238267149,0.5810940757787627,0.6605217470760232,0.032114577015124435,0.5625,0.7434895833333333,0.6612883112733441,0.4550491060186352,0.032854972126102486,0.354066985645933,0.5438596491228069,0.4562128893144278,0.3797878787714472,0.045653389152466715,0.2955606152704944,0.4810071809031247,0.3824741812595604,0.29572182764243177,0.023986661972434455,0.24242465923001807,0.3554667620318282,0.29667602744829963,0.27349859289862877,0.051260677145227376,0.19908987485779295,0.41296928327645044,0.2781780690365937,0.5386486017022756,0.06399801314984191,0.39603960396039606,0.6930693069306931,0.5423709123980106,0.4725256537570341,0.10513201642104938,0.19811320754716982,0.8962264150943395,0.4838794546171478,0.33114035087719296,0.09872664934182,0.1111111111111111,0.7222222222222221,0.34529680584084466,0.38621200889547813,0.06057667770945671,0.26760563380281693,0.5211267605633803,0.3908514703950687,0.4859829987339482,0.07852372617474919,0.30927835051546393,0.7010309278350515,0.49217606160881705,0.3883911907428145,0.04941465260727345,0.2765957446808511,0.5425531914893618,0.3914673501123258,0.48151147098515507,0.047593384848365373,0.3230769230769231,0.6000000000000001,0.4838167916100785,0.4705302582298442,0.05287512402948913,0.3033707865168539,0.5617977528089887,0.47344002144002706,0.05695732573940613,0.030169866712064935,0.0,0.1237823681176704,0.06433031187423417,0.3708516911196721,0.04638806238837032,0.28126853763712134,0.48038151470720525,0.373691152347988,0.14234892436135643,0.1874367925805514,1.0,0.004067777050747036,0.17690565031855993,-0.2641616176509997
10,0.9116535890729436,0.012057918516424009,0.8924731182795695,0.93010752688172,0.9117311721758807,0.5197710025296232,0.030246947731984393,0.4679802955665022,0.5714285714285716,0.5206265902635506,0.4430132259919493,0.01736600627428774,0.4170212765957446,0.4723404255319148,0.44334427459509984,0.8236130867709818,0.020018348455688242,0.7857142857142858,0.8458646616541354,0.8238497559138074,0.5730559078934531,0.03522743651091289,0.4945848375451264,0.644404332129964,0.5741084445148705,0.6825028153153152,0.040072439925150985,0.6028645833333333,0.7773437499999999,0.6836464680980603,0.45536445536445536,0.04148028944729699,0.36363636363636365,0.5311004784688995,0.457198970394472,0.37549254023090595,0.04733844292691273,0.2691653874287834,0.47070459392353414,0.3783847384889493,0.2944324391238548,0.02020324281339048,0.24156499731785488,0.35955187543842765,0.29510608360283835,0.25530621406389314,0.03544699419473265,0.16638452787258246,0.3248054607508532,0.2576893345953147,0.540808134867541,0.06809210944607692,0.40594059405940597,0.7326732673267327,0.5449629917168689,0.4875063742988272,0.08248512355352562,0.3207547169811321,0.6509433962264151,0.49424930371408154,0.3322072072072072,0.08810772556727345,0.2222222222222222,0.625,0.34338723009132094,0.38523030072325853,0.08160214732371457,0.2535211267605634,0.7746478873239437,0.3935496467925349,0.479799387015882,0.10475731244707226,0.27835051546391754,0.9175257731958764,0.49080031493775544,0.3907418056354226,0.040868594224879644,0.2872340425531915,0.5425531914893618,0.3928158079681074,0.4893970893970895,0.044682801677866334,0.4153846153846154,0.6153846153846154,0.4913777599673845,0.4804129972669298,0.07849124912952353,0.3033707865168539,0.7303370786516854,0.48661176924280525,0.16555212196527935,0.02160614853343118,0.14161277245967696,0.20685783458417717,0.16691828489436297,0.3707498568546121,0.029379877252363778,0.3209749904158268,0.4206858902089188,0.37188076641836076,-0.20719391937554518,0.0665982467465145,1.0,0.16476855325676604,0.4181930010045601,-0.25556403431194563
11,0.31032258064516144,0.034995407752444835,0.26344086021505353,0.370967741935484,0.3122503627712182,0.5367487684729063,0.11026778536688163,0.34482758620689635,0.645320197044335,0.5477362917108047,0.4752340425531915,0.12458725937949397,0.2808510638297872,0.6255319148936169,0.490977535837586,0.2457894736842109,0.011540852302715673,0.22932330827067693,0.26315789473684204,0.2460548573395717,0.5419675090252711,0.027412170665139735,0.4891696750902529,0.592057761732852,0.5426464589376956,0.38585937499999995,0.09680328672574065,0.2421875,0.55859375,0.3975813326476463,0.46322169059011137,0.05291945114696416,0.35566188197767146,0.5534290271132376,0.46617463849577134,0.32297827184406,0.09286737708743659,0.18802221237752798,0.5228562892142217,0.33580772298434963,0.30021807903387765,0.013847230799430966,0.27186636039778284,0.33118303233704255,0.3005308733950441,0.23148696245733785,0.03820978953685918,0.15756996587030717,0.3102980659840728,0.23455703366952568,0.5384158415841584,0.038522826615754485,0.38613861386138615,0.6435643564356436,0.539764713996604,0.47641509433962265,0.060339141254780675,0.25471698113207547,0.5849056603773585,0.48014512164828743,0.32138888888888884,0.07290202044894174,0.1111111111111111,0.5138888888888888,0.3293922105865009,0.3850704225352113,0.04302354786775947,0.295774647887324,0.49295774647887325,0.3874186823956132,0.48288659793814426,0.0749618790955493,0.29896907216494845,0.6907216494845361,0.48855538490478234,0.3914893617021278,0.040779355212762124,0.2872340425531915,0.5638297872340425,0.3935652639922337,0.48338461538461525,0.0317108662188258,0.4153846153846154,0.5538461538461539,0.4844028838127967,0.47617977528089883,0.05786912002323477,0.3033707865168539,0.6179775280898876,0.4796134242676966,0.6886809239003068,0.06575882621095651,0.6246459902411541,0.8005821897068941,0.6917507887269302,0.3291919943265964,0.039470558385602095,0.2364899336260744,0.36917054931692306,0.3315028440427136,0.5842164762011576,0.9537387630657292,1.0,0.6156147012856831,-0.44136179155065036,-0.8321399686328055
12,0.17150537634408622,0.1185938958889759,0.010752688172043445,0.338709677419355,0.20738801601261275,0.7602627257799671,0.06255660501874344,0.6748768472906406,0.8423645320197042,0.7627465481714577,0.6336170212765959,0.0771994631231841,0.5319148936170213,0.727659574468085,0.6381470270930649,0.25112781954887237,0.0642360777340196,0.15037593984962427,0.34586466165413543,0.25894770317176713,0.5183212996389893,0.044158136707116255,0.44494584837545137,0.608303249097473,0.5201364365840119,0.2493923611111111,0.10191287864628247,0.09895833333333337,0.4622395833333333,0.2687686305853934,0.5661881977671451,0.05162450897635233,0.46411483253588515,0.6618819776714513,0.5684587310323904,0.42644639735704293,0.09780393288237188,0.28589678868363844,0.5853208740714793,0.4371536176942287,0.29158872398663055,0.0194651208561006,0.256605642133062,0.3301101742706629,0.2922160933084098,0.18229260523321952,0.061698643368113856,0.09101251422070533,0.3057474402730375,0.1921208623837208,0.534983498349835,0.06056027311329597,0.28712871287128716,0.613861386138614,0.5382867624512047,0.46352201257861636,0.10769868373168404,0.14150943396226418,0.6698113207547169,0.4754629628827224,0.312962962962963,0.13694683096420848,0.09722222222222221,0.8194444444444444,0.34069796430366067,0.3812206572769953,0.10789601835968882,0.16901408450704228,0.7323943661971831,0.3957053052714644,0.4903780068728523,0.18762307123426408,0.07216494845360827,1.0,0.5239270870919506,0.3893617021276596,0.09708445510893694,0.1595744680851064,0.6808510638297872,0.4008911907156615,0.4825641025641027,0.11236424093828856,0.26153846153846155,0.7538461538461538,0.4950484605609309,0.47116104868913855,0.12097656164028601,0.19101123595505615,0.7752808988764044,0.4859426077078902,0.5981899191797903,0.0329447372082183,0.5501792044132872,0.6781210298551104,0.5990662372345693,0.5012411386817368,0.021889025364233004,0.46504732007772587,0.5380897978208492,0.501702937560977,-0.6101660986248286,-0.6925570150248164,1.0,0.6316788231503918,-0.34240988881755163,-0.8113347445634077
13,0.5927803379416282,0.013191414400978294,0.56989247311828,0.6129032258064511,0.5929229044760066,0.672343420126671,0.04101291172970388,0.625615763546798,0.7881773399014773,0.6735574769013022,0.4248024316109423,0.049188398401506975,0.3744680851063831,0.5617021276595745,0.4275599091475221,0.6185821697099895,0.025939414663822137,0.5827067669172934,0.6691729323308273,0.6191102725186616,0.5895822588963385,0.02186030180281823,0.552346570397112,0.6344765342960288,0.5899758124633528,0.5504836309523812,0.030246285351410402,0.4830729166666666,0.6158854166666666,0.5512902388958651,0.5566643882433354,0.024502745436022863,0.5135566188197767,0.6204146730462519,0.5571880040241389,0.33653164881130215,0.13214772711201483,0.12235352296961771,0.5119149418418965,0.36085679840218016,0.3024396713831813,0.01921126003975607,0.263269741276151,0.3445077919755719,0.3030318174874687,0.24615062571103527,0.03610281785516288,0.17918543799772468,0.29949032992036406,0.24870927528045506,0.5425742574257426,0.1306206890869895,0.29702970297029707,0.9405940594059407,0.5576388708252834,0.46981132075471704,0.07932056040890671,0.20754716981132076,0.5943396226415094,0.476271628474671,0.3103174603174603,0.05920823598999198,0.20833333333333331,0.4722222222222222,0.31575683833035345,0.3814889336016097,0.06066362569026722,0.22535211267605637,0.5633802816901409,0.38614600467778243,0.471281296023564,0.12359938912151872,0.22680412371134023,0.8969072164948453,0.4867713926639188,0.38510638297872335,0.12213755830680914,0.0,0.7340425531914894,0.4034827043365058,0.4703296703296704,0.057598501629691545,0.35384615384615387,0.6307692307692307,0.4737433883140319,0.47993579454253593,0.08611426527171545,0.32584269662921345,0.696629213483146,0.48738296787589086,0.34869334908949207,0.04625610158738185,0.23084974835774963,0.39403308390817315,0.35166112442974484,0.5789138806232408,0.02325780383622478,0.548531281775313,0.640398887150297,0.5793675444870837,-0.07803430079767498,0.5108288576655151,1.0,0.12786700779093307,0.08486784371198054,-0.5785334844630249
14,0.7606182795698923,0.019930904983559008,0.7096774193548385,0.790322580645161,0.7608728390243603,0.7439655172413795,0.05102912159728124,0.6798029556650249,0.8423645320197042,0.7456698752222382,0.41478723404255324,0.015745639227109386,0.39574468085106385,0.44680851063829796,0.4150785185365239,0.8828947368421056,0.02867562403683689,0.8458646616541354,0.9285714285714288,0.8833486573669793,0.6034747292418773,0.028814655834339772,0.5406137184115524,0.6597472924187725,0.6041450786976894,0.6547200520833333,0.03037367413573477,0.5937499999999999,0.7369791666666665,0.6554066239202146,0.6286682615629984,0.0530763050766014,0.5247208931419457,0.7368421052631579,0.630848991362602,0.371945025395877,0.06191860233049936,0.260140321234662,0.5016123548623059,0.3769365561980398,0.2872493225864133,0.0281394963857501,0.23705005295517384,0.35847901737204796,0.28859003586710313,0.25758873720136516,0.020361091125267256,0.21416609783845278,0.30261660978384525,0.25837214868094843,0.5356435643564356,0.10376497305905977,0.3366336633663367,0.7920792079207921,0.5453549471945457,0.47523584905660377,0.11628394355009852,0.18867924528301888,0.7830188679245282,0.4889100314658357,0.3142361111111111,0.09075931731762868,0.013888888888888895,0.4583333333333333,0.32676544472174146,0.3725352112676057,0.06825482810856688,0.21126760563380284,0.5633802816901409,0.3785825367807215,0.45824742268041224,0.13333667161191812,0.12371134020618557,0.8350515463917525,0.47678601247296615,0.38430851063829785,0.07550088495338898,0.13829787234042556,0.4893617021276596,0.3914727390088013,0.48846153846153834,0.06071940133664048,0.3384615384615385,0.6307692307692307,0.4921273708222557,0.4735955056179774,0.14842086064117957,0.0,0.8089887640449438,0.4957526964305685,0.12497120235131262,0.032224647233116736,0.0735891537871236,0.16019559273548678,0.12895839875401321,0.6945195505330987,0.06053597635399887,0.6100427513893698,0.8117697021162877,0.6970870787749557,-0.3163857756022563,0.3794207908111819,1.0,-0.07338356327318861,0.5121403901950232,-0.5641780598482389
15,0.19935483870967746,0.038045034061520905,0.12365591397849496,0.26344086021505353,0.20288131466788395,0.5605911330049261,0.07587890960835475,0.3990147783251232,0.6600985221674875,0.5656013394155219,0.2838297872340426,0.06305361052092642,0.17021276595744683,0.40000000000000013,0.29061244082979665,0.25406015037594004,0.01672809484242411,0.21804511278195493,0.27819548872180455,0.2545992784415566,0.5718411552346575,0.022135112785241915,0.5207581227436824,0.621841155234657,0.5722608415519642,0.44552083333333337,0.05832021137488704,0.35026041666666663,0.5885416666666666,0.44924607404822475,0.5510047846889952,0.04398034601081916,0.419457735247209,0.631578947368421,0.5527222251445048,0.35015113895099054,0.06370922006419816,0.19704727857164936,0.4655533004337389,0.35578576072608725,0.2959584886455855,0.017162488816016973,0.24435717920856093,0.33096983618282605,0.29644575726984507,0.23120254835039816,0.021078376763501327,0.18601137656427758,0.2818566552901024,0.2321422632166806,0.5403960396039607,0.07117506514748985,0.3564356435643565,0.7227722772277227,0.5449701383749569,0.47301886792452835,0.06140614888772254,0.3113207547169812,0.5849056603773585,0.47690895381760146,0.3247222222222221,0.0863899916809547,0.15277777777777776,0.5416666666666666,0.3357953061826818,0.3819718309859155,0.0343398935238361,0.3098591549295775,0.47887323943661975,0.38348158155016615,0.47567010309278296,0.01692193762649349,0.422680412371134,0.5154639175257731,0.4759649902144836,0.38638297872340444,0.009716940646289222,0.3617021276595745,0.4042553191489362,0.38650269960762723,0.4799999999999997,0.027450540652300653,0.4307692307692308,0.5384615384615385,0.48076861538422155,0.48426966292134815,0.05510319067021467,0.2921348314606741,0.6404494382022472,0.48733226941744123,0.7689446779862724,0.036337705782763234,0.7376548309591264,0.847480845869633,0.769785644246329,0.5218077426465196,0.04180944790331953,0.406411209525551,0.5636671808371467,0.523446644483616,0.3391429932869956,0.8836754068040943,1.0,0.49906815222262085,-0.11983946712296772,-0.7259661346940314
16,0.6182795698924731,0.038601251973847214,0.5752688172043006,0.693548387096774,0.6194540663803505,0.6204493572029315,0.09020262147710935,0.458128078817734,0.7389162561576352,0.6268137412662607,0.4163985469641929,0.07187938803491031,0.31914893617021267,0.523404255319149,0.42240783677829513,0.6031542270309923,0.008977360977748308,0.5864661654135341,0.6165413533834587,0.6032194036271585,0.579510434093511,0.024250790742146262,0.4891696750902529,0.6173285198555957,0.5800052587275897,0.5567200203252032,0.08612523330363457,0.33203124999999994,0.8372395833333333,0.5631818719091508,0.5363908663010073,0.049807566815066415,0.4401913875598086,0.6331738437001595,0.53864222634275,0.3262480013609467,0.057069321254840946,0.199622925316547,0.5653647630920123,0.3310819068658871,0.28885512491013393,0.015662345275786436,0.25725210789100866,0.32946370851271617,0.28926909461363726,0.23123771469796608,0.027547922353621492,0.12087827076222979,0.30517861205915814,0.23283311461364406,0.5402076793045159,0.025536953018185624,0.4554455445544555,0.5940594059405941,0.5407962342635821,0.47560975609756095,0.044498691473800235,0.39622641509433965,0.5849056603773585,0.4776363446158507,0.31741192411924113,0.06145429016908982,0.2222222222222222,0.5,0.3231638074286749,0.37650291995877727,0.047452916792121096,0.2535211267605634,0.47887323943661975,0.3794091546113894,0.47120945436258493,0.05283160171986107,0.29896907216494845,0.5567010309278351,0.4740901290950427,0.38271925272444207,0.014948191213027892,0.35106382978723405,0.4148936170212766,0.3830039488895905,0.47317073170731694,0.020577602520738782,0.4307692307692308,0.5230769230769231,0.47360706426375954,0.4653329679364208,0.05030996020091708,0.2921348314606741,0.5617977528089887,0.46797877002102267,0.36824714594658203,0.04501377186263254,0.29886908080846464,0.4357392789302943,0.37092152765195224,0.5172880787426548,0.06554276522096465,0.38160539287255446,0.6016814542995923,0.5213233483678553,-0.04329180067758844,0.6726615141865238,1.0,0.15672430762076126,0.3622427920377246,-0.5650465152304445
17,0.7032930107526881,0.07781312904191416,0.5215053763440856,0.8172043010752685,0.7074954407117917,0.7321428571428571,0.05744443152577697,0.5960591133004924,0.8177339901477829,0.7343461573663775,0.49689716312056736,0.05958894982319333,0.4382978723404256,0.6680851063829787,0.5003835106832497,0.7622180451127822,0.06538429059652721,0.5751879699248121,0.8308270676691734,0.7649590767193665,0.5957242779783398,0.02161612279021565,0.548736462093863,0.6389891696750903,0.5961081593313153,0.5711805555555556,0.07283317735872609,0.375,0.6666666666666665,0.5757094621201454,0.5923378522062729,0.032510890160343496,0.507177033492823,0.6363636363636362,0.593210813436052,0.3979028654928585,0.044932672683280994,0.29234620813286216,0.46876770757137115,0.4003792877836874,0.2917460421165565,0.021245677352333882,0.24886868492359332,0.3389199895465112,0.29250252677832833,0.20318638604474773,0.06575332180814704,0.04949260523321958,0.2775881683731513,0.21334979235998233,0.5338283828382838,0.08361036269203738,0.28712871287128716,0.801980198019802,0.5402016249891797,0.4852594339622643,0.0911318604115143,0.14150943396226418,0.7452830188679245,0.4935673338716287,0.32957175925925924,0.09392586312845456,0.15277777777777776,0.6388888888888888,0.34242637046121727,0.3826291079812207,0.07905354905498554,0.22535211267605637,0.591549295774648,0.3905435964575291,0.47809278350515433,0.03729968360817763,0.3917525773195876,0.5773195876288659,0.4795153713077058,0.386081560283688,0.029520758304687558,0.30851063829787234,0.4468085106382979,0.38718508575259464,0.48173076923076913,0.049487490423565726,0.38461538461538464,0.6461538461538462,0.4842133049130644,0.47869850187265905,0.08413774305221375,0.2584269662921348,0.6404494382022472,0.48588469105858023,0.18537794743631028,0.026848741262134865,0.15027448847605385,0.25953241997512144,0.18727204941605805,0.6143852316076506,0.05095710338398853,0.4733039354650299,0.6629535564398217,0.6164509249079333,-0.3649891414344449,-0.8349144357020301,1.0,0.30229027201095204,0.24430184620631687,-0.5640902876614108
18,0.6797973531844497,0.05433403163561226,0.6021505376344081,0.7688172043010755,0.6819236434994465,0.5792913982569154,0.08829492159824248,0.44334975369458096,0.7438423645320191,0.5858537311724848,0.3806873977086743,0.054601822272939214,0.31063829787234054,0.4893617021276596,0.38450867342999046,0.6475563909774436,0.011791714781259838,0.6278195488721807,0.6729323308270678,0.6476616787334278,0.5844209941682871,0.02023680651773103,0.5496389891696751,0.6308664259927798,0.5847645262990243,0.6065454727564102,0.05379188104114961,0.5130208333333333,0.7044270833333333,0.6088803917669561,0.5235247208931418,0.042903664600579136,0.43381180223285476,0.628389154704944,0.5252460940126561,0.34900568148046596,0.043331126360043555,0.2543502673521321,0.41725477267341826,0.35163396420760973,0.2878771667447857,0.01133423712241757,0.2600442897817147,0.31914776556675795,0.2880959173343267,0.23624092062658603,0.02302156479809722,0.19908987485779295,0.2989215017064846,0.23733851954925403,0.5455064737242956,0.0625966288098572,0.3564356435643565,0.6930693069306931,0.5490175754571193,0.4662554426705372,0.060776811536090714,0.3584905660377359,0.6037735849056604,0.4701243703793849,0.31036324786324787,0.07218893858630081,0.041666666666666685,0.48611111111111105,0.3184907726602226,0.3819068255687975,0.05547908081313126,0.2535211267605634,0.619718309859155,0.385838775776859,0.4742268041237108,0.049546824216643456,0.3917525773195876,0.6701030927835052,0.4767585763872191,0.3844108019639937,0.018489652645829024,0.3297872340425532,0.4574468085106383,0.3848466675849958,0.48284023668639026,0.021789923204438566,0.4461538461538462,0.5384615384615385,0.4833222156418105,0.47536732929991365,0.05705588993770298,0.1797752808988764,0.6179775280898876,0.4787137651928066,0.3479475172316269,0.02888404386263331,0.2641384350467484,0.37615839512447957,0.34912135245170384,0.4925855630037146,0.07375416359064559,0.37238929422743317,0.6305219885438329,0.4979714895055286,0.010407605289549196,0.8239630309712683,1.0,0.104035141126518,0.22839905348704173,-0.7366558231542091
19,0.15391705069124423,0.06696142975903169,0.053763440860215006,0.25806451612903203,0.1674699437284958,0.41097818437719896,0.07755145615292536,0.29064039408866993,0.5270935960591134,0.41802567061086415,0.22796352583586627,0.08904099860199685,0.06808510638297882,0.3531914893617021,0.24427268718103762,0.1460794844253494,0.0376397648850514,0.09774436090225613,0.21804511278195493,0.15071658516847558,0.559747292418773,0.028102056256400595,0.5108303249097473,0.6155234657039713,0.5604321487462951,0.46011904761904754,0.08851017098726086,0.33984375,0.6432291666666665,0.46831587453292006,0.48389154704944165,0.03118443998592277,0.42105263157894735,0.5422647527910686,0.4848666969034621,0.33772704326056263,0.027088669675540907,0.2878336750358015,0.39987430843884897,0.3387807346553287,0.3030041990800144,0.01128960131563162,0.2849744852344471,0.3253785951061167,0.30320844015917864,0.19359076873070044,0.031858388353758524,0.12884186575654152,0.268773606370876,0.196120738009595,0.5321074964639322,0.06422606108521052,0.3267326732673268,0.6336633663366337,0.5358596065635288,0.46334231805929926,0.0649494691774604,0.339622641509434,0.6509433962264151,0.4677435307711304,0.3242063492063492,0.09622167558169056,0.125,0.5416666666666666,0.3377925931379135,0.3927565392354125,0.062033131218105476,0.23943661971830987,0.5070422535211268,0.3974869337461765,0.4768777614138438,0.0372833901982955,0.38144329896907214,0.5567010309278351,0.4782914746967833,0.3857142857142856,0.016789500098252814,0.35106382978723405,0.425531914893617,0.38606909173668197,0.47560439560439577,0.03719571824712686,0.36923076923076925,0.5538461538461539,0.4770152339178354,0.4741573033707865,0.06973324382701185,0.3146067415730337,0.6404494382022472,0.479112657551515,0.9155891189603852,0.008136535637967311,0.901627111221583,0.929036299029252,0.9156242386757214,0.37547909291129333,0.011795304523987946,0.35360724108448593,0.39456083307260537,0.37565902531690815,0.3723227717021972,0.8402790039066624,1.0,0.678531808951529,-0.04115052395374264,-0.47132935022234024
20,0.4818399044205497,0.05305358464954099,0.4193548387096775,0.5967741935483875,0.48468735059677615,0.6912972085385878,0.06088732269531518,0.5517241379310343,0.7586206896551726,0.6939140529690357,0.4625059101654847,0.09049125940840869,0.30638297872340425,0.5787234042553191,0.4710821739003417,0.5130325814536343,0.03869375647367605,0.45864661654135364,0.5751879699248121,0.5144573501866048,0.5733253108704376,0.02564392559706875,0.5189530685920578,0.6128158844765343,0.5738857982462285,0.47031249999999986,0.07810655164125603,0.33203124999999994,0.6263020833333333,0.47661190861561636,0.5669679248626617,0.03924491335824106,0.4704944178628389,0.6698564593301435,0.5682944353045659,0.3584780560620994,0.05513290140150689,0.2904093217806991,0.4655533004337389,0.3625997876587752,0.2984486350097124,0.01560229734006264,0.2585416007592535,0.33290235616136893,0.298847134549603,0.22077684237138162,0.05074181176149808,0.1393674630261661,0.34243458475540384,0.22640655762064812,0.5355335533553357,0.10039140195222321,0.29702970297029707,0.9603960396039604,0.5446564560936797,0.47924528301886804,0.12560092134649634,0.24528301886792453,0.8396226415094339,0.4950768264019114,0.32314814814814813,0.11893979604898891,0.0,0.6388888888888888,0.3438851991265784,0.37777777777777777,0.10832212512230681,0.11267605633802819,0.7183098591549296,0.39266905106878724,0.4657502863688429,0.08376130454533329,0.24742268041237114,0.6597938144329897,0.4730574756362805,0.38345153664302595,0.02431788432624499,0.30851063829787234,0.43617021276595747,0.3842047619822306,0.4735042735042734,0.031270202960809304,0.4,0.5538461538461539,0.4745127955728835,0.46591760299625457,0.07136862008274651,0.3033707865168539,0.6067415730337078,0.4712319007360879,0.42528016681161135,0.013860326313699718,0.3970430064195365,0.4518357076192836,0.42550095164150065,0.5692233997955743,0.01723321246648984,0.5118591352930961,0.6030673268125732,0.5694784129806212,0.21366813525113665,0.8191486109802885,1.0,0.5306808740120385,0.03561500190144668,-0.2531242107421305
21,0.635483870967742,0.11146778577481757,0.413978494623656,0.7634408602150535,0.6450253739747458,0.8228243021346473,0.07327940226571929,0.6995073891625618,0.9261083743842362,0.826026758121783,0.6225531914893616,0.08192128618140793,0.49787234042553186,0.7106382978723405,0.6278309659011564,0.7278195488721809,0.1193535894421298,0.4172932330827068,0.8646616541353385,0.7373799249446288,0.5833784596871242,0.02894823438458816,0.5144404332129965,0.6525270758122743,0.5840842925722908,0.4796657986111111,0.09982484803040935,0.31510416666666663,0.6484374999999999,0.4897736163815459,0.6166666666666669,0.06078564719309002,0.4864433811802233,0.7288676236044657,0.6196055931806264,0.45220303651580246,0.14352126599730575,0.22730597653070686,0.761752676096968,0.47407028395695056,0.30018517117587995,0.02534820395070444,0.2452168411207241,0.37051428414233256,0.30123572095624185,0.20701319681456196,0.05125231430659399,0.11433902161547213,0.28413196814562003,0.21316069849248348,0.5339933993399343,0.05044802889451312,0.3663366336633664,0.6435643564356436,0.5363315555055201,0.47704402515723277,0.08992495536564049,0.09433962264150947,0.7735849056603774,0.48530683549252474,0.32430555555555557,0.07533079904241767,0.1111111111111111,0.5694444444444444,0.33279760189514657,0.3828638497652584,0.046205833479297596,0.28169014084507044,0.5492957746478874,0.3855958032972682,0.4659793814432985,0.049416051392604694,0.30927835051546393,0.5773195876288659,0.468548856538208,0.3773049645390073,0.02875088284168133,0.30851063829787234,0.46808510638297873,0.3783805923170759,0.4815384615384613,0.04801129810537006,0.35384615384615387,0.6923076923076923,0.48388630545562566,0.4762172284644194,0.10637442831197605,0.2022471910112359,0.7640449438202247,0.48775995705031094,0.15004929390094782,0.08503217997946803,0.05410070624475605,0.4064806799565934,0.17211843123762005,0.6540118086140401,0.07362793689949375,0.47798744303018603,0.7489214404648363,0.6580745912740303,-0.4713576073722381,-0.551762086749763,1.0,0.4499810716099649,0.27906006255742444,-0.32233815473273947
22,0.65284178187404,0.017939961811031354,0.634408602150538,0.7043010752688175,0.6530811885960073,0.878958479943701,0.07716395346288746,0.694581280788177,0.9605911330049257,0.8822426894090462,0.4329483282674772,0.037841008219426674,0.34468085106382973,0.4808510638297874,0.434551819955761,0.8940923737916222,0.050202074709115856,0.8007518796992481,0.9624060150375942,0.8954604480841162,0.609489427539969,0.03857198383391541,0.548736462093863,0.6904332129963899,0.6106739323955139,0.6065104166666665,0.042998680529373876,0.51953125,0.6874999999999999,0.6079892653025136,0.7243107769423557,0.06578672205481925,0.5582137161084529,0.8229665071770335,0.7272072196517261,0.510590617875577,0.10647014237867242,0.3135901424847779,0.6670925069284896,0.521262685864302,0.32579172405933343,0.03406728757079093,0.2548863183087356,0.3799705651761276,0.32751743177586323,0.26399570941004386,0.03321871642557644,0.19169965870307165,0.31513083048919227,0.2660182129454764,0.547100424328147,0.08768495529155969,0.39603960396039606,0.7623762376237624,0.5538843290170603,0.48005390835579514,0.11510551583651471,0.14150943396226418,0.8018867924528301,0.49327728900986484,0.3289682539682541,0.08885386798442806,0.1111111111111111,0.5416666666666666,0.3404255429085048,0.3774647887323945,0.07292968722741068,0.1971830985915493,0.5352112676056339,0.38424789138325344,0.47717231222385853,0.07809681839247883,0.29896907216494845,0.6804123711340206,0.48334073718592513,0.3817629179331308,0.044373715562651704,0.26595744680851063,0.46808510638297873,0.3842599305650514,0.48439560439560453,0.049271960789416654,0.36923076923076925,0.5846153846153846,0.4868238532307011,0.47287319422150875,0.08562997370094294,0.2584269662921348,0.6179775280898876,0.4803457613287884,0.10218480032622573,0.06104791052602105,0.03276409556809812,0.23087887715959443,0.11858372335021795,0.8722136065500434,0.08457315569942374,0.6779942475723657,0.9773283563419497,0.8761876702982693,-0.254303440744184,0.4324622564384574,1.0,0.34829930495421363,0.288675963025753,-0.5572325376606938
23,0.2913160355306218,0.08581791364348702,0.14516129032258096,0.403225806451613,0.3035616833808002,0.40319126151210033,0.1704342044361398,0.20197044334975356,0.7536945812807883,0.4373731521811453,0.160777058279371,0.13046382414613794,0.04680851063829783,0.5063829787234042,0.2066036376297832,0.27790944753187335,0.012111310859015068,0.2593984962406015,0.3007518796992481,0.27817036234745224,0.5741739915240934,0.0227553325788632,0.526173285198556,0.6534296028880867,0.5746198303108931,0.5534137228260869,0.1168453392646815,0.26953125,0.7682291666666665,0.565483139941471,0.5120657374661944,0.06769950559991521,0.39234449760765544,0.6618819776714513,0.5164733535269087,0.3413343373129688,0.07660012397101267,0.19832479935711855,0.5190031216838548,0.3497326561657236,0.2969438570503341,0.019139409540384518,0.2520941364180296,0.3535342420532853,0.2975533389679717,0.22863728545283676,0.030170456234352504,0.17463481228668942,0.3157042093287827,0.23059785479706255,0.5407877744296169,0.11926293801773259,0.0,0.9603960396039604,0.5536428997859667,0.47210828547990163,0.09624768584530884,0.20754716981132076,0.7169811320754718,0.4817148106088153,0.322312801932367,0.12379075317236052,0.055555555555555525,1.0,0.34502626857449736,0.38732394366197176,0.08798249860003061,0.1971830985915493,0.676056338028169,0.39708515076534023,0.4821828776333482,0.10065200917854746,0.20618556701030927,0.9381443298969072,0.49246424921023213,0.38748843663274796,0.0570656850506498,0.17021276595744683,0.5425531914893618,0.39162275760961207,0.48695652173913034,0.05292337094262111,0.3076923076923077,0.6307692307692307,0.4897929081496398,0.4732535417684416,0.10969608162261853,0.1685393258426966,0.7303370786516854,0.48566588220499357,0.8129456671778058,0.06547308550462888,0.6314830817506034,0.8760909111947228,0.8155493779487036,0.45067362368805575,0.09849989362234483,0.3091796564001097,0.6047197270384896,0.46119788065470624,0.22947144585524845,0.959118300206566,1.0,0.25718793102106846,0.06665824293253778,-0.8729005148671533
24,0.46065781151170127,0.058691287807680785,0.317204301075269,0.5215053763440856,0.46433798151136035,0.5662706461895111,0.09672864905667053,0.4630541871921183,0.6995073891625618,0.5743768802963258,0.3086357947434294,0.08956070916259057,0.21702127659574466,0.4595744680851064,0.3212208092537065,0.46112339672711194,0.03943553021634035,0.379699248120301,0.5375939849624061,0.46278683218120803,0.5818432788277766,0.03486923266476896,0.4684115523465704,0.6498194945848377,0.5828749095891423,0.542723651960784,0.09851648525779724,0.2760416666666667,0.7044270833333333,0.5514891458019339,0.5436157238014823,0.05565975251550327,0.4401913875598086,0.6842105263157894,0.5464243918976953,0.3806472569968203,0.09447194934678749,0.16291480790826574,0.7128153879439126,0.3920615819869052,0.29722885454196807,0.02226407308716656,0.22479815138302411,0.34192880623908234,0.29805175605597456,0.260830087666466,0.07266869211559437,0.10410011376564277,0.4291831626848691,0.27064912175527484,0.5331391962725688,0.06150059067682397,0.3267326732673268,0.7425742574257426,0.5366332335424138,0.4761376248612654,0.07508588824608557,0.28301886792452835,0.7169811320754718,0.48195290257177975,0.3267973856209149,0.06738303641752978,0.16666666666666666,0.5694444444444444,0.3335919476082683,0.3817729908864956,0.05815414206724404,0.26760563380281693,0.5492957746478874,0.38612528239069815,0.47459066100667063,0.09563669392288807,0.26804123711340205,0.7731958762886597,0.48401969825753327,0.38535669586983773,0.02409054522005989,0.2978723404255319,0.4468085106382979,0.3861001291404331,0.47927601809954723,0.024034571975777737,0.4307692307692308,0.5538461538461539,0.479871197476749,0.47627230667547904,0.0650580722204112,0.3033707865168539,0.6516853932584269,0.48064338976901866,0.5545245908633949,0.05863302488779168,0.4174387324503437,0.6197689683994594,0.5575795085922477,0.526627697085655,0.057717001305306284,0.391980301954828,0.6054992429194752,0.5297440819627882,-0.0431274524353455,0.3816156205890838,1.0,0.6089301573330825,-0.20729710810548913,-0.6031535982955895
25,0.4925925925925925,0.17122886270336551,0.25268817204301053,0.736559139784946,0.5208793000103534,0.9170224411603712,0.04938358654609138,0.8325123152709359,0.9999999999999996,0.9183216767670924,0.6129550827423167,0.12345745386894866,0.46808510638297873,0.7872340425531914,0.6249935767488455,0.6870509607351717,0.1764427856751903,0.4661654135338349,0.9285714285714288,0.7088577119447665,0.5754312073806662,0.04935492042390925,0.5009025270758123,0.664259927797834,0.5774970573993894,0.4287326388888891,0.1649542955817735,0.18229166666666663,0.6888020833333333,0.45871225228766593,0.6937090200248095,0.0512604241341515,0.5789473684210527,0.7751196172248803,0.6955583683231503,0.46210513904485867,0.06478005212210448,0.3612396072653843,0.6065751110103746,0.46652369728198845,0.29984816460271396,0.029525125911048805,0.22974292670178678,0.363420354043162,0.30126613322758394,0.1688616862596385,0.08869685387709537,0.0,0.3441456200227531,0.1902802559938458,0.5353135313531354,0.06831617944091779,0.4158415841584159,0.7623762376237624,0.5395590457786217,0.470859538784067,0.09264826506055727,0.2924528301886793,0.7075471698113207,0.4796891257587025,0.31851851851851853,0.10229376887921938,0.125,0.5277777777777777,0.3341938481191916,0.3793427230046949,0.059103080746754404,0.26760563380281693,0.47887323943661975,0.383818250683925,0.4739977090492552,0.049757568818089855,0.3711340206185567,0.6288659793814433,0.4765444635214743,0.3839243498817966,0.017246786817614313,0.35106382978723405,0.43617021276595747,0.3843029378640019,0.4776068376068374,0.028015894120157248,0.4,0.5230769230769231,0.4784095940143449,0.4704119850187266,0.09338202671207856,0.1797752808988764,0.6629213483146067,0.47938904480094413,0.18669220696104477,0.09037740788901365,0.05726326359524503,0.30719863906809186,0.20697957193864888,0.7925141320846093,0.040093574676084494,0.7185776008884828,0.8600442096665972,0.7935051494344636,-0.8080028186528888,-0.9466414668285902,1.0,0.8200761137785855,0.22587825381847337,-0.1266420360760401
26,0.752101661779081,0.02503990484508473,0.7096774193548385,0.8172043010752685,0.7525108016122147,0.6957456336766683,0.04285015510252453,0.5862068965517242,0.7586206896551726,0.6970399832759424,0.4554738878143136,0.016941571388561272,0.4212765957446809,0.4808510638297874,0.45578312916756714,0.7994531784005472,0.010262899864919402,0.7706766917293235,0.8195488721804511,0.7995178525398572,0.5906465375779459,0.045193079307552744,0.47833935018050555,0.7283393501805056,0.5923416345003337,0.609943181818182,0.04417197712850448,0.5169270833333333,0.7096354166666665,0.6115115476495722,0.5803682760620559,0.053786592146830015,0.47368421052631576,0.69377990430622,0.5828102035822312,0.3896655686606545,0.07651462724456326,0.2131399194337698,0.5029001782347547,0.396972666996515,0.2899816563778161,0.03476815142050647,0.22372529331664448,0.37481259370314846,0.2920209012454716,0.2556852621780949,0.02823509775764373,0.19198179749715583,0.3191171786120591,0.25721135106721377,0.5256525652565258,0.07557858405231105,0.306930693069307,0.7623762376237624,0.5309603421704889,0.47238421955403104,0.07666024607215607,0.30188679245283023,0.6698113207547169,0.4784524986074744,0.326010101010101,0.07290035313563983,0.16666666666666666,0.4722222222222222,0.33391678735191027,0.4010243277848913,0.07780097512523015,0.2535211267605634,0.676056338028169,0.40836680669547776,0.4845360824742268,0.0897427137951931,0.26804123711340205,0.7628865979381443,0.49262819447889516,0.38704061895551267,0.02181076014181238,0.3191489361702128,0.4468085106382979,0.38764352273731384,0.4786013986013983,0.02926115189224723,0.4153846153846154,0.5692307692307692,0.4794788276948613,0.47374872318692546,0.05658462682239084,0.2921348314606741,0.6179775280898876,0.4770549840478709,0.1754270329906152,0.016358783525834125,0.14610989467765867,0.2198816571562472,0.1761743116053998,0.5956647957018062,0.04878599935433396,0.47283871610020345,0.674273674531594,0.5976230823048948,-0.03472054661704981,0.42982247134726065,1.0,0.1917087263277932,0.23923267719835536,-0.5003998587450001
27,0.08091397849462376,0.016103739013499367,0.053763440860215006,0.10752688172043001,0.08246162177515046,0.5480295566502463,0.0658430813962693,0.47290640394088657,0.6748768472906406,0.5518725609647823,0.2343617021276597,0.06378530910776105,0.14893617021276606,0.348936170212766,0.2426772732265986,0.18308270676691746,0.01996923145402415,0.15037593984962427,0.22556390977443597,0.1841414631929589,0.5598375451263542,0.03768354350950335,0.49729241877256325,0.6290613718411554,0.5610727449700699,0.3773437499999999,0.12476335606001424,0.08203125,0.50390625,0.3969446476576255,0.5604864433811801,0.04488710404210504,0.4593301435406698,0.6570972886762361,0.5622361906002135,0.33590193997712825,0.10764330547703642,0.10947528924512945,0.5988481707756818,0.35231735333938674,0.3078377955517654,0.027015880735721698,0.2447870101646425,0.4074797463653495,0.3089914557666589,0.2276187713310581,0.04752547378291561,0.16723549488054607,0.3364641638225256,0.232405914197754,0.541089108910891,0.07542202612059287,0.39603960396039606,0.8217821782178218,0.5461901626315822,0.4709905660377359,0.06767233661813289,0.34905660377358494,0.7075471698113207,0.47570702098173917,0.32256944444444435,0.0682944307649187,0.1388888888888889,0.4722222222222222,0.32954297524126375,0.3841549295774649,0.06378925871423761,0.23943661971830987,0.5774647887323944,0.3892844110772946,0.48144329896907223,0.06299938318092095,0.3711340206185567,0.7525773195876289,0.4854455163521139,0.38590425531914885,0.018502688437155402,0.3404255319148936,0.43617021276595747,0.38633649195467445,0.4796153846153846,0.026507070592243633,0.4153846153846154,0.5692307692307692,0.48032902924074966,0.47584269662921364,0.06998605366999157,0.28089887640449435,0.595505617977528,0.4808345541357787,0.8686951470005118,0.05041359488737022,0.7647221860028348,0.917175606380296,0.8701202507170902,0.5431147774738951,0.03201575168301257,0.5049278361203622,0.615383019237802,0.5440340473329326,0.46109090598431807,0.8973208979569128,1.0,0.5432681513168985,-0.03552514397473333,-0.35069639369229827
28,0.5576612903225807,0.07643148168117309,0.370967741935484,0.6666666666666665,0.5627449171973263,0.8529556650246309,0.014653593447844011,0.8177339901477829,0.8768472906403937,0.8530783821569509,0.65968085106383,0.05050142647013609,0.6170212765957447,0.8297872340425532,0.6615628915559952,0.6561090225563911,0.08864116994331167,0.44736842105263186,0.7518796992481205,0.661921351116278,0.5788583032490978,0.023159019094166743,0.5315884476534296,0.6200361010830326,0.5793098194418018,0.4218424479166667,0.06144532208657464,0.2265625,0.49609374999999994,0.4261832824976719,0.6246012759170655,0.03475280523817707,0.5342902711323763,0.671451355661882,0.6255432178613647,0.437543142082977,0.0667307276245915,0.28525802829090385,0.5376714092908729,0.44247674113214014,0.30326533980716064,0.02119893071700856,0.2714365294417012,0.3436481300634087,0.3039868847916116,0.18737463026166096,0.06792963003680645,0.0381160409556314,0.2622343572241183,0.19901840577370755,0.5438118811881189,0.07832676606389838,0.29702970297029707,0.6930693069306931,0.5492841408108727,0.4702830188679245,0.08645181466100707,0.33018867924528306,0.7169811320754718,0.4779677668915083,0.31284722222222217,0.08806528948508849,0.1388888888888889,0.5555555555555556,0.3247075488558136,0.39225352112676054,0.07092991651791461,0.28169014084507044,0.5352112676056339,0.39845715148199984,0.48711340206185555,0.17182262753919364,0.16494845360824745,0.8865979381443299,0.5158143138954033,0.3837765957446809,0.07139995106954525,0.26595744680851063,0.6063829787234043,0.39019864124416337,0.4769230769230769,0.07266310737518936,0.3384615384615385,0.676923076923077,0.4822899027512995,0.4606741573033707,0.10641126165985856,0.1573033707865168,0.6404494382022472,0.47250497552937226,0.19213858318839733,0.059817990971336055,0.13102443643808526,0.3049631565850923,0.2010123687547494,0.6659694264633085,0.040670446434832704,0.5708306940641692,0.7117271829445424,0.6671791439087003,-0.33116010386803424,-0.8019378762533171,1.0,0.43693491050676336,0.4223378563953859,0.3103449277020351
29,0.672694688823721,0.012591265259267704,0.6559139784946235,0.698924731182796,0.6728089476896357,0.8041498731153902,0.03283885649274002,0.7586206896551726,0.8669950738916254,0.8047998076710616,0.4705351386202451,0.017578328327474187,0.44680851063829796,0.5063829787234042,0.47085342808427505,0.81203007518797,0.02898335328028064,0.7593984962406017,0.860902255639098,0.8125314899609362,0.5964336505852753,0.023655983177214457,0.5532490974729243,0.6425992779783394,0.5968883876797403,0.5760732323232324,0.040909603670833426,0.5052083333333333,0.6575520833333333,0.5774800859349718,0.6534241940940504,0.04769627551871093,0.5486443381180223,0.7559808612440191,0.6551100477864116,0.4646941271195621,0.06801813827297595,0.3612396072653843,0.6085016947755582,0.4694964354920836,0.3149991934808243,0.026180152977896914,0.2731558532660276,0.3855549289575396,0.3160524048225603,0.25396669769366015,0.030211865834544722,0.21871672354948804,0.3165551763367463,0.255703306737575,0.5349534953495351,0.06985659195729882,0.37623762376237624,0.6831683168316832,0.5393582376794086,0.4696969696969697,0.0655201064072254,0.28301886792452835,0.6037735849056604,0.4741076252094858,0.32954545454545453,0.09168722986375902,0.09722222222222221,0.5416666666666666,0.3416899337838811,0.382842509603073,0.055052965589657804,0.26760563380281693,0.47887323943661975,0.3866618327114174,0.47047797563261484,0.05887458759854867,0.36082474226804123,0.6185567010309279,0.4740366080162037,0.3826563507414571,0.019450355344597846,0.3297872340425532,0.4468085106382979,0.383135400289244,0.4792540792540793,0.020755412825487048,0.4461538461538462,0.5230769230769231,0.4796896970822084,0.4688457609805924,0.06257634696039226,0.2921348314606741,0.6292134831460674,0.472877876630524,0.15300256605658244,0.02978272717186235,0.09201687490923982,0.20117377394967706,0.1557880513434702,0.735031362489762,0.038700144182897564,0.6705620672289947,0.804227167899902,0.7360186275629873,0.08275680156064044,0.3617898377889812,1.0,0.19664836214510098,-0.2196497089408978,-0.6468497047874309
30,0.22880720180045008,0.015577810947954232,0.19892473118279552,0.24731182795698903,0.2293245742246382,0.643028983846947,0.05024065729282797,0.5812807881773399,0.7536945812807883,0.6449431735917233,0.45650667986145466,0.048002866806283614,0.3872340425531915,0.5574468085106382,0.4589651797074576,0.2639447455848927,0.018463896841626148,0.22180451127819545,0.289473684210527,0.2645747832680247,0.5508563512719337,0.03559517648112834,0.4756317689530687,0.6191335740072202,0.5519785057620334,0.362281976744186,0.052154463155224776,0.20963541666666663,0.4388020833333333,0.3659304043661737,0.5378509699195134,0.04541800565560025,0.4465709728867623,0.6698564593301435,0.5397207510359598,0.4527054952800973,0.0820482329742822,0.30135066915302433,0.5711548169745423,0.45991044985470136,0.3039936453791453,0.013555136029403829,0.27637786611281523,0.3324725252052873,0.30428868707296597,0.27479281424451674,0.04631345073322962,0.19056200227531284,0.3705938566552901,0.27857879361721294,0.553304167626065,0.1237427481337911,0.17821782178217827,0.7920792079207921,0.5666583365475824,0.47893813075910485,0.09574065705031341,0.22641509433962265,0.6792452830188679,0.4881954909237948,0.3142764857881137,0.0903679472269019,0.1111111111111111,0.5138888888888888,0.3267203083978857,0.3740583033082214,0.1050982320963985,0.1971830985915493,0.6619718309859155,0.3882117686936132,0.46319827379525286,0.15167166347857125,0.16494845360824745,0.9793814432989691,0.48684900203187936,0.3805047006432459,0.04099458238996974,0.2872340425531915,0.46808510638297873,0.3826555896681142,0.4751341681574237,0.03258546252112692,0.4153846153846154,0.5384615384615385,0.4762243135408837,0.4711262085184218,0.06047742458905139,0.37078651685393255,0.6179775280898876,0.47490247910402456,0.6718522281871157,0.03734490532107249,0.5931115666436804,0.7260968239473558,0.6728652353477858,0.48095178077993495,0.03582542924011321,0.415783141021298,0.5540426255970003,0.4822532829090473,-0.04187701273209536,0.6686663467486476,1.0,0.1888431529069512,0.3604011676952519,-0.575436021644109
31,0.3521976985474439,0.11102751574233058,0.17204301075268802,0.67741935483871,0.36899060020471364,0.4717829055397109,0.17938316207082985,0.0,0.625615763546798,0.5041754623984035,0.24524076147816345,0.12025009931878726,0.0,0.42553191489361697,0.27267092208465205,0.33386096820999883,0.03779777335633535,0.244360902255639,0.40225563909774453,0.33595647537968265,0.5550224840078538,0.1548855063480679,0.0,1.0,0.5758633597110255,0.5350877192982455,0.17324794584855385,0.0,0.9999999999999999,0.561967207011011,0.49615266235764854,0.164642571782488,0.0,1.0,0.5223017100381079,0.4918630348782333,0.1192143173340475,0.2891214984082503,0.7501622657449285,0.5058576521768414,0.3372761953161518,0.16605353137877973,0.0,1.0,0.37529356078506665,0.29697048080953237,0.15704416273449642,0.0017110352673492812,1.0,0.33529338437864203,0.5322216432169532,0.10453603515773682,0.26732673267326734,0.9306930693069307,0.5422139288786552,0.4637537239324727,0.10705705746769814,0.0,0.7075471698113207,0.47573906303023333,0.3092105263157895,0.08126256159634895,0.08333333333333331,0.5416666666666666,0.3195291861495381,0.378799110452187,0.06212051229479442,0.1971830985915493,0.5211267605633803,0.38377079501800787,0.483993488876831,0.12361037013300988,0.0824742268041237,0.9175257731958764,0.49926061236789504,0.4005225830533783,0.1026607797949261,0.1914893617021277,1.0,0.4132465079970799,0.4825910931174086,0.07416093503502628,0.3076923076923077,0.6923076923076923,0.48815726865969367,0.46540508574807804,0.10899760369451668,0.10112359550561795,0.6853932584269662,0.4777802235542491,0.7123415726090218,0.06256081008612152,0.6188059629688039,0.8341832681738945,0.7150354584939438,0.45866555748498783,0.1656248636124817,0.0,0.6769447554697283,0.4871595560072698,0.04477206312087164,0.5584866370841224,1.0,0.17093398704903073,0.08041578279855084,-0.30572461155009634
32,0.43329350856232585,0.13151280425681397,0.26344086021505353,0.6666666666666665,0.45245838817440487,0.619868637110016,0.08539109161614145,0.4926108374384235,0.8029556650246308,0.6256146860943446,0.5411347517730497,0.22448458941495797,0.32340425531914896,1.0,0.5850529383142029,0.392857142857143,0.12408218034367548,0.22556390977443597,0.5789473684210527,0.41164062467894597,0.5432878727102559,0.06010232572685677,0.38898916967509034,0.6317689530685922,0.5465410395759334,0.4129292052469135,0.16824192276174618,0.04557291666666663,0.6497395833333333,0.44529956217443084,0.49465414377695077,0.04915840416403432,0.36842105263157887,0.5821371610845295,0.49704579241133484,0.32057739513206585,0.15326141440286822,0.028332114193874047,0.47456806404088064,0.35471671063066135,0.3178741923635532,0.03507094647269622,0.2475826307029972,0.4083394082775127,0.31976740955142047,0.17727636624109883,0.058555424327586335,0.10011376564277585,0.35039817974971554,0.1865265466439096,0.5381371470480381,0.08776320372037213,0.2574257425742575,0.7920792079207921,0.5451158888667121,0.47204751921733057,0.08246691339270379,0.2735849056603774,0.8396226415094339,0.47906545650337085,0.3119855967078189,0.07416909887357279,0.09722222222222221,0.5416666666666666,0.3205217564967248,0.38628064684402735,0.0813753063244841,0.22535211267605637,0.6338028169014085,0.39460366201829306,0.4772814051164563,0.07901289512476761,0.29896907216494845,0.8350515463917525,0.48365790126762487,0.3853427895981088,0.01761638645164886,0.3404255319148936,0.425531914893617,0.38573780678598063,0.4800569800569797,0.035535065982913276,0.38461538461538464,0.5846153846153846,0.48134609266600487,0.4731585518102372,0.062336643443062986,0.28089887640449435,0.6292134831460674,0.477171784528329,0.5129941475989033,0.059390206746206334,0.37996097104162185,0.6047886717048656,0.5163573120151052,0.40550599805998355,0.07256197820260066,0.26948350631695694,0.49153436320849275,0.41182866666400053,-0.012412527369345857,-0.1259705878998927,1.0,0.7885311475633574,0.32885997147982526,0.15834170760607683
33,0.4977454040929587,0.03374055206485003,0.4086021505376345,0.5376344086021505,0.4988508682631795,0.8755760368663594,0.03459909397488065,0.8177339901477829,0.9211822660098519,0.8762373409050893,0.5304049416609472,0.052676066042575444,0.46382978723404245,0.6425531914893616,0.5329302594421256,0.6685665777346594,0.03927443176229952,0.5413533834586466,0.6954887218045114,0.6696820084210026,0.5990741819028763,0.02139161757042229,0.5676895306859205,0.6543321299638989,0.5994436715760275,0.4662718413978496,0.060968796530894626,0.3645833333333333,0.6718749999999999,0.470113512613968,0.6825127334465195,0.027244064651651963,0.6363636363636362,0.7416267942583732,0.683038745006416,0.4031970589105247,0.09163260048428828,0.3071510256225338,0.6864201601022016,0.4131507544071224,0.3036460091942783,0.02879738433186124,0.26348293743036744,0.36664236688994956,0.3049646487296452,0.20220176887225222,0.07044835090119829,0.0022753128555176305,0.31229124004550624,0.21374851968761505,0.537208559565634,0.06272195783985914,0.3663366336633664,0.6732673267326733,0.5407403959580234,0.48082775410833845,0.09591402836084643,0.2735849056603774,0.6415094339622641,0.4899980325121491,0.32930107526881724,0.06285327609343593,0.20833333333333331,0.4444444444444444,0.33505566089539296,0.3852794184461609,0.04535537664992972,0.323943661971831,0.49295774647887325,0.38785433100071093,0.4732291320252744,0.06301068478266948,0.27835051546391754,0.5773195876288659,0.47727149726749524,0.38503774879890185,0.024936822970710686,0.3297872340425532,0.4468085106382979,0.3858184205288256,0.4803970223325062,0.029111681143548323,0.4153846153846154,0.5538461538461539,0.4812498838010485,0.4769844146429867,0.08033714201707354,0.3033707865168539,0.7078651685393258,0.48348732437618896,0.24101017642762415,0.022189114198586306,0.21363701550147507,0.29858554072466115,0.24199665174033,0.7872701494856014,0.03717494194540494,0.7090112634061154,0.8413442167570109,0.788119080278356,-0.15459953243040728,0.582552390259841,1.0,0.1693272046826182,0.563591144453576,0.06902104783803077
34,0.029373196957776307,0.019866939474958035,0.0,0.06989247311827995,0.03532496665781276,0.46810044455124344,0.048722272549237396,0.37931034482758585,0.5320197044334973,0.4705677283993118,0.4357031655422936,0.0488239049790365,0.32340425531914896,0.5021276595744681,0.4383638686514772,0.014762516046213318,0.00952509635120681,0.0,0.030075187969925032,0.017505612689198872,0.5134278418596462,0.025638914384128436,0.47021660649819497,0.5658844765342961,0.5140520107000341,0.3051321138211381,0.040591400865373634,0.24088541666666663,0.42187499999999994,0.3077549054611611,0.4314778076010425,0.03276744994793996,0.3748006379585326,0.5023923444976077,0.43268997709969514,0.3556797282529349,0.04445453486691074,0.2994240853878409,0.4539628900816995,0.35837979103461837,0.3044758108750504,0.012377844853183682,0.2854077548381773,0.3331155523155854,0.30472117352838557,0.23667671134049226,0.031522383898612845,0.1882866894197952,0.28925142207053467,0.23871592060668784,0.5431055300652017,0.09339423413864935,0.3366336633663367,0.7524752475247525,0.5508841586673799,0.47445927289461587,0.1037144750701863,0.26415094339622647,0.8584905660377358,0.48539255827117694,0.3170731707317072,0.07026614137197398,0.1388888888888889,0.5694444444444444,0.32458019582691,0.37238062521470294,0.07942767783104243,0.26760563380281693,0.7464788732394367,0.3805551391628112,0.46743776716117674,0.081064293519406,0.29896907216494845,0.7216494845360825,0.4742459354844844,0.384016606123508,0.029597121093234483,0.3297872340425532,0.5106382978723405,0.38512774212744777,0.47992495309568484,0.034780718353321013,0.4153846153846154,0.5538461538461539,0.4811529425606746,0.4853384488901067,0.07973648020631442,0.3033707865168539,0.696629213483146,0.49168714174968403,0.9608628487539931,0.026683561983075754,0.9167410384484596,1.0,0.9612242508580882,0.23112902434912164,0.020959147834149355,0.19537371311281326,0.2747054305518999,0.23205429856997895,-0.02797546686221866,0.7989637235038902,1.0,0.38936317709665563,0.5376410126735461,-0.2761801411576735
35,0.49912816041848324,0.04662105545509337,0.424731182795699,0.56989247311828,0.501242156521884,0.4968712554919453,0.05512648317554394,0.41871921182266014,0.5911330049261085,0.4998378141570003,0.33214491086831516,0.05142646986398969,0.27234042553191484,0.42553191489361697,0.33599619898420596,0.4272505588295063,0.02283688410833079,0.387218045112782,0.46240601503759393,0.42784397631874305,0.5682505610303447,0.020374548849015746,0.5234657039711192,0.6064981949458486,0.5686058413629608,0.5465582770270271,0.07779177912400628,0.3307291666666667,0.6562499999999999,0.5519184318230821,0.4809690072847967,0.033582448752335806,0.4178628389154704,0.5518341307814991,0.48210837606167833,0.3767967920528628,0.04825499468514843,0.27689232766347627,0.5447595891328312,0.37979130239900283,0.29708140598681576,0.012426583355364233,0.2652022612546938,0.3172152455882151,0.297334169318266,0.22299025305168643,0.02279738463725425,0.17918543799772468,0.27446188850967007,0.22412123325490013,0.544019266791544,0.09958430590862195,0.3267326732673268,0.7623762376237624,0.5528163968970318,0.4783273839877614,0.13911078311959668,0.16037735849056606,1.0,0.49762021096551884,0.3156906906906906,0.1640630172161371,0.0,0.8194444444444444,0.35475316509014376,0.39170156071564527,0.0962062124911485,0.2535211267605634,0.6338028169014085,0.40303299577449886,0.48258567846196715,0.07465187241451933,0.38144329896907214,0.7835051546391752,0.48817130204174386,0.3849913743530764,0.0738252325973062,0.21276595744680854,0.7234042553191489,0.39181784229208344,0.4785862785862785,0.1024861103325476,0.07692307692307693,0.7538461538461538,0.4891465558608247,0.4713027634375949,0.13953374268509766,0.0786516853932584,0.8764044943820224,0.4909885467096609,0.5769358917512553,0.006418903577302489,0.5613667750138722,0.5893367687385127,0.5769706335140897,0.41234277129895586,0.026747292905345176,0.36352461681189707,0.451958859259046,0.4131859667357482,0.3898667340837962,0.7366276008387561,1.0,0.4294102715458058,0.1432265627693944,-0.2720821606548119
36,0.8213303325831455,0.007588549341480968,0.801075268817204,0.8387096774193545,0.8213645731896774,0.4738228892198413,0.03538016296841719,0.44334975369458096,0.5812807881773399,0.4751113297715055,0.4012864918357249,0.022238342224631037,0.38297872340425543,0.46808510638297873,0.40188790896792254,0.6947018709564614,0.015727936182385195,0.6804511278195491,0.7406015037593987,0.6948757477012161,0.572642935102007,0.020672338172265624,0.5361010830324909,0.6164259927797835,0.5730072760609451,0.6621547965116279,0.024391790994304264,0.6080729166666665,0.7096354166666665,0.662593463403141,0.4420088275657431,0.02785058223937887,0.3939393939393939,0.5454545454545454,0.44286501339612055,0.36577777703237085,0.07163656351429108,0.22859379990315568,0.46297765368884125,0.3725665514793328,0.2952821114512084,0.01853720568740022,0.25274060217597627,0.33634100381002163,0.2958498977337444,0.258468767362489,0.01397230660736168,0.23037997724687143,0.28697610921501704,0.258837379312477,0.5376467879346076,0.03605859293491531,0.38613861386138615,0.603960396039604,0.5388265518485725,0.47235629662132506,0.046097209682356206,0.339622641509434,0.5566037735849056,0.4745482127168107,0.32396640826873385,0.07151162234931462,0.15277777777777776,0.5138888888888888,0.3315859128920907,0.3861775302980676,0.04227950890283624,0.295774647887324,0.49295774647887325,0.38843155212998415,0.4804603212658832,0.08851638499533866,0.3402061855670103,0.9072164948453608,0.48835955803410364,0.38372093023255804,0.035993620171319164,0.2978723404255319,0.5106382978723405,0.3853662727046187,0.48264758497316623,0.02748462124131033,0.4153846153846154,0.5538461538461539,0.48341134465474733,0.4732166187614319,0.058497369933925736,0.3370786516853932,0.5730337078651685,0.47673507371280327,0.298555488002811,0.025414232247260346,0.22540957510384452,0.3194404711252319,0.2996101501581061,0.3397474591777708,0.029532039277151503,0.30812976371969425,0.4292581684187273,0.340998819653066,-0.10785855266154272,0.4460863237892874,1.0,-0.18768082512580725,0.5193838448161573,-0.6504979147218284
37,0.7001075268817205,0.03528498401122965,0.6505376344086025,0.758064516129032,0.700978372484614,0.7009852216748764,0.0701703627911886,0.5960591133004924,0.8226600985221673,0.704418684607768,0.14808510638297886,0.023855825982186718,0.11489361702127665,0.1957446808510639,0.14995638418248383,0.934135338345865,0.029633086316683772,0.87218045112782,1.0000000000000002,0.9345958419312074,0.6159927797833936,0.048815612820547236,0.5135379061371841,0.7292418772563178,0.6178854339756013,0.7842187500000002,0.048318746836843104,0.6718749999999999,0.8828124999999999,0.7856761770103046,0.7244976076555024,0.08691150846848109,0.5853269537480064,0.9473684210526315,0.7295884604328168,0.4178906483417986,0.12844184566060518,0.19768603896438394,0.7784943799388025,0.43680654245775374,0.2981506265216016,0.045345798726513675,0.21448220843706592,0.3975901957278242,0.3015110490979165,0.24406361774744023,0.04452308140453648,0.15898976109215016,0.33731968145620017,0.24801150818090784,0.5419801980198019,0.17078655904585324,0.04950495049504955,1.0,0.5677386923764242,0.48433962264150937,0.1020636594333931,0.24528301886792453,0.7358490566037736,0.49476612740356096,0.32916666666666655,0.07873009872629563,0.18055555555555555,0.625,0.3382678736164398,0.3847887323943662,0.08040438826748529,0.16901408450704228,0.619718309859155,0.39293502887535786,0.47381443298969034,0.10338607554336103,0.16494845360824745,0.9278350515463918,0.4847422241906254,0.3874468085106381,0.05890268529322754,0.23404255319148937,0.5531914893617021,0.39181011374534114,0.48399999999999993,0.0782127369315965,0.16923076923076924,0.6307692307692307,0.49015394273020446,0.475955056179775,0.11957480017661884,0.05617977528089885,0.7640449438202247,0.4904542646196745,0.23149408566192164,0.030896622735831204,0.16465181255768702,0.26631700159827565,0.23350593347279164,0.8529721135441111,0.07854943293824145,0.7419567315912832,1.0,0.8565092174813582,-0.332366591528376,0.4706781792393622,1.0,0.045427044139343405,0.5713055402014575,-0.5136143973953863
