,Orientation X,Orientation X,Orientation X,Orientation X,Orientation X,Orientation Y,Orientation Y,Orientation Y,Orientation Y,Orientation Y,Orientation Z,Orientation Z,Orientation Z,Orientation Z,Orientation Z,Orientation W,Orientation W,Orientation W,Orientation W,Orientation W,Accelerometer X,Accelerometer X,Accelerometer X,Accelerometer X,Accelerometer X,Accelerometer Y,Accelerometer Y,Accelerometer Y,Accelerometer Y,Accelerometer Y,Accelerometer Z,Accelerometer Z,Accelerometer Z,Accelerometer Z,Accelerometer Z,Gyroscope X,Gyroscope X,Gyroscope X,Gyroscope X,Gyroscope X,Gyroscope Y,Gyroscope Y,Gyroscope Y,Gyroscope Y,Gyroscope Y,Gyroscope Z,Gyroscope Z,Gyroscope Z,Gyroscope Z,Gyroscope Z,EMG1,EMG1,EMG1,EMG1,EMG1,EMG2,EMG2,EMG2,EMG2,EMG2,EMG3,EMG3,EMG3,EMG3,EMG3,EMG4,EMG4,EMG4,EMG4,EMG4,EMG5,EMG5,EMG5,EMG5,EMG5,EMG6,EMG6,EMG6,EMG6,EMG6,EMG7,EMG7,EMG7,EMG7,EMG7,EMG8,EMG8,EMG8,EMG8,EMG8,Roll,Roll,Roll,Roll,Roll,Yaw,Yaw,Yaw,Yaw,Yaw,Accelerometer X vs Roll,Accelerometer Y vs Roll,Accelerometer Z vs Roll,Accelerometer X vs Accelerometer Y,Accelerometer X vs Accelerometer Z,Accelerometer X vs Accelerometer Z
,mean,std,amin,amax,RMS,mean,std,amin,amax,RMS,mean,std,amin,amax,RMS,mean,std,amin,amax,RMS,mean,std,amin,amax,RMS,mean,std,amin,amax,RMS,mean,std,amin,amax,RMS,mean,std,amin,amax,RMS,mean,std,amin,amax,RMS,mean,std,amin,amax,RMS,mean,std,amin,amax,RMS,mean,std,amin,amax,RMS,mean,std,amin,amax,RMS,mean,std,amin,amax,RMS,mean,std,amin,amax,RMS,mean,std,amin,amax,RMS,mean,std,amin,amax,RMS,mean,std,amin,amax,RMS,mean,std,amin,amax,RMS,mean,std,amin,amax,RMS,corr, corr, corr, corr, corr, corr
0,0.2808560176355485,0.02529456399148424,0.2444703143189757,0.3154831199068685,0.28196862329912453,0.38432778291705216,0.09076617442979716,0.29166666666666674,0.6195652173913044,0.3946784209228045,0.06231603733916407,0.0287636310459876,0.0,0.09782608695652173,0.06850570680025575,0.045385326976446275,0.011158815092249728,0.034113712374581995,0.0802675585284281,0.04670864711500687,0.5464590399835545,0.15719392484603978,0.17874396135265713,0.9420289855072459,0.5681563774143348,0.6661284194528876,0.1585895371442604,0.2767857142857143,0.8705357142857142,0.6843556038105857,0.5080799897667675,0.16472179031025005,0.22244488977955923,0.8196392785571142,0.5335740254412925,0.44044405847445367,0.2577902818287293,0.07313378684807256,1.0,0.5089526935125197,0.3814955194587921,0.13267126271907104,0.09026034095414293,0.8147406973890388,0.40344267477583134,0.6487512039570932,0.291200786075758,0.0,1.0,0.7098392859339295,0.45903836488524036,0.09160432622365706,0.2283464566929134,0.8346456692913387,0.46789852917352504,0.4587155963302753,0.11040707400089339,0.0,0.7706422018348624,0.47154041663368534,0.3897872340425533,0.08849630646873508,0.13333333333333336,0.5333333333333334,0.39949850359359607,0.36025145067698255,0.08529855035306379,0.1818181818181818,0.6363636363636364,0.37000289896639715,0.3712897294457577,0.035060394088589505,0.2901234567901234,0.43827160493827155,0.3729063428925769,0.3788271925272445,0.11163712315174228,0.21951219512195122,0.7804878048780488,0.3945981780249034,0.5056320400500626,0.13033244600764482,0.23529411764705882,0.8235294117647058,0.5218130800630824,0.5269295824801924,0.08330552135926161,0.22594142259414224,0.6610878661087866,0.533335672210416,0.7750084829542182,0.004585957330753994,0.7586760601052838,0.7795721061795158,0.7750217623960339,0.5071454081249007,0.1748157843214452,0.2727235691234391,0.8271917392016488,0.5358234772593174,0.537457236828358,0.6113192964435319,1.0,0.6203653203722641,0.47065328063177647,0.49888095735313503
1,0.2503792288425585,0.014738567753101978,0.2339930151338766,0.2735739231664728,0.2508060850967925,0.554320377689943,0.04454458426046175,0.5072463768115943,0.6775362318840581,0.5560802434631738,0.09065456940951014,0.0320177389287954,0.00988142292490124,0.1215415019762846,0.09606172080109651,0.015992702949224682,0.013397324384005042,0.0,0.03812709030100331,0.020797483707544376,0.27682623334797263,0.06903816662085133,0.1304347826086958,0.5338164251207729,0.28517856814871745,0.5574269480519481,0.12905958526029593,0.23511904761904767,0.7232142857142857,0.5719517546265935,0.17270905447258164,0.04422936470583654,0.060120240480961984,0.28056112224448904,0.17819936657872967,0.39365216793788216,0.1194997408032621,0.2585034013605442,0.6479637188208617,0.4111275360379117,0.5469365443595654,0.08803867537766204,0.2637202892257735,0.7126810020955652,0.5538708833545043,0.6997597392819431,0.08461521740383249,0.43269564121151005,0.7846344563858512,0.7047800698818394,0.46540205201622525,0.047347530376582625,0.2992125984251969,0.5748031496062992,0.46776798966927924,0.47275507367250486,0.05598400063744897,0.3119266055045872,0.6422018348623854,0.4760084873250783,0.40282828282828287,0.05678642676466151,0.28,0.56,0.4067511089677134,0.37258953168044084,0.0796207224196879,0.22727272727272727,0.5227272727272727,0.38087578833623204,0.376075570520015,0.030052198150834614,0.2839506172839506,0.4444444444444444,0.3772562597199263,0.3765705838876568,0.09933921505715941,0.0,0.6585365853658537,0.3892610498226799,0.5044563279857398,0.09641462125618169,0.23529411764705882,0.7058823529411764,0.5134502126765134,0.5264993026499303,0.06443047869655716,0.35564853556485354,0.6987447698744769,0.5303677064022078,0.7656314609808444,0.003480456950056347,0.75835177081416,0.7703888317951972,0.7656392519229562,0.07135481428233136,0.042809891392889585,0.0,0.1371339040896653,0.08304473698256012,-0.035148554175647745,-0.08254722377950348,1.0,0.27558360962498146,-0.09843879956472465,-0.5268044106016149
2,0.22359332557237105,0.022124868951254227,0.20372526193247975,0.26658905704307334,0.22466109380684215,0.48502415458937204,0.06627180674070479,0.39855072463768126,0.6521739130434784,0.4894310819331832,0.09646464646464646,0.02545418076487385,0.033596837944664004,0.12549407114624506,0.09969425870015382,0.046882199925678165,0.004600825323308532,0.04080267558528433,0.05418060200668895,0.04710241896714787,0.3617820719269996,0.1321596303660843,0.08937198067632868,0.6642512077294687,0.38466127749213536,0.5827050264550264,0.12823959575479116,0.2366071428571429,0.7574404761904762,0.5963430963607255,0.2514362057448229,0.13910747568686713,0.0,0.5811623246492985,0.28660257426996427,0.4171872008062483,0.22391417971709437,0.17574603174603173,0.8713197278911565,0.4723013364343097,0.4217745809393752,0.1147583604850044,0.21297362608318066,0.6507391115558155,0.4367729653810605,0.7133186954801249,0.11901198748692293,0.4228518600229023,0.9330370743904106,0.7229610378121952,0.45686789151356066,0.0591263919428852,0.31496062992125984,0.6299212598425197,0.4605936529978623,0.4662589194699288,0.05396807250057064,0.3302752293577982,0.6605504587155964,0.4693028973254249,0.4023703703703705,0.05103287820305641,0.2933333333333334,0.56,0.4055223730717313,0.3671717171717172,0.050577885956136694,0.2727272727272727,0.4772727272727273,0.3705622016219285,0.37777777777777777,0.0294455091135423,0.2716049382716049,0.4444444444444444,0.3788981655780429,0.37181571815718145,0.06783094530663575,0.21951219512195122,0.5121951219512195,0.3778170458570235,0.49934640522875806,0.07325856235630387,0.35294117647058826,0.6470588235294118,0.504573470145149,0.5309158530915856,0.0478827556974163,0.41004184100418406,0.6610878661087866,0.5330229368168422,0.783871205325151,0.004754987988123462,0.7733074518854641,0.7896496158228968,0.783885306665593,0.17831742239616086,0.12584072084224338,0.07001005155244555,0.46667131799938444,0.21744213380027178,-0.04004705819013204,0.25827321975970563,1.0,0.6958296948816827,0.6271053075918602,0.4312821302615914
3,0.12577415599534347,0.011885866267318282,0.11408614668218864,0.15133876600698493,0.1263233416947441,0.39369565217391306,0.049591540028402284,0.32065217391304357,0.5235507246376813,0.3967447554362674,0.16444664031620548,0.04140154728642987,0.05039525691699609,0.19960474308300397,0.16947714850871123,0.13256187290969895,0.007570943009211747,0.12173913043478257,0.1438127090301003,0.13277357773222406,0.3414009661835749,0.1191537019473076,0.14251207729468618,0.7318840579710149,0.36120392066680473,0.5822321428571429,0.14363696356235658,0.21279761904761907,0.7708333333333333,0.599343986314542,0.24056112224448906,0.08896196367710717,0.1242484969939881,0.4769539078156312,0.2561749400257355,0.4505034013605442,0.22169242982296294,0.23470294784580498,0.8662131519274376,0.5011166505010712,0.4881745926862881,0.11702007972683777,0.13215276860050212,0.6407049406256489,0.5017312607586987,0.6967732988748463,0.13643736105324847,0.3099162700788974,0.8837866515385505,0.7097435314578691,0.45307086614173236,0.06456359758280691,0.30708661417322836,0.6614173228346456,0.4575568803073531,0.46183486238532095,0.0750974956441677,0.30275229357798167,0.6972477064220184,0.46778016342022644,0.4013333333333333,0.07082282835267885,0.21333333333333337,0.6400000000000001,0.4074113400483595,0.37272727272727274,0.058079687727267286,0.25,0.5227272727272727,0.37713579113984613,0.37790123456790115,0.02758577014570095,0.3271604938271605,0.43209876543209874,0.3788866562815121,0.36829268292682926,0.04909060210315459,0.29268292682926833,0.4878048780487805,0.3714851137905734,0.5011764705882352,0.06747852067188147,0.38235294117647056,0.6764705882352942,0.5056086811045718,0.5278661087866111,0.04901637186275128,0.43096234309623427,0.6276150627615062,0.5300916726585071,0.839794411400149,0.005710725081141768,0.8225769533115752,0.8459173095631941,0.839813439730668,0.1523836618979142,0.06648311355487214,0.08634185972458153,0.3237307404729606,0.16598911022596893,0.3711110128166502,0.7572013179283367,1.0,0.4694442698529929,0.347218410551192,-0.14384419028982331
4,0.13441210710128068,0.017179066197830318,0.11525029103608853,0.15948777648428425,0.13548369807665786,0.34909420289855075,0.0893972283484548,0.24456521739130443,0.5253623188405798,0.3601371817030736,0.15505928853754947,0.042344644990499884,0.059288537549407105,0.19169960474308304,0.1606256223083822,0.14437458193979935,0.006080224833472461,0.13377926421404684,0.15250836120401334,0.1444999988291934,0.4199033816425122,0.14034148590276826,0.19323671497584538,0.7342995169082125,0.4422902530317689,0.578154761904762,0.16867339522518418,0.20684523809523814,0.8273809523809523,0.6017845367611296,0.3434068136272545,0.09595160245255312,0.22845691382765532,0.5671342685370742,0.3563015793658125,0.47360925170068036,0.1519440852718985,0.17006802721088438,0.6655419501133788,0.49692151115101674,0.45779191602635505,0.08639466030844371,0.300883535652929,0.7073760123846022,0.46571256689324625,0.7340407828800153,0.12749873863567449,0.4189122464202045,0.8640885835250613,0.7448131851126967,0.45275590551181094,0.05622609420621458,0.33070866141732286,0.6062992125984252,0.45616450560309085,0.47688073394495417,0.09862748890595986,0.28440366972477066,0.926605504587156,0.48677311793526096,0.4064,0.07780386993505368,0.21333333333333337,0.7466666666666668,0.4136342990291465,0.3790909090909091,0.06786257978591637,0.25,0.6136363636363636,0.38499758505199455,0.3837037037037037,0.04918327071265905,0.25308641975308643,0.5864197530864197,0.38678048874209564,0.37951219512195117,0.0635179309552939,0.24390243902439024,0.5365853658536586,0.3846860320418024,0.5047058823529411,0.11963506404408074,0.05882352941176472,0.8235294117647058,0.5184152054671194,0.528284518828452,0.041418841996064285,0.40167364016736395,0.6276150627615062,0.5298733272176077,0.8435814324444537,0.005573917701601937,0.8285332086527597,0.8487558215651094,0.8435994786345058,0.28094558701310396,0.1074983585323669,0.148969115435591,0.4522013605003501,0.3004250355871625,0.7574212679638298,0.8877044238480937,1.0,0.8282043314437015,0.478150881775812,0.580151051940384
5,0.16247221928246383,0.01657555100516127,0.13853317811408616,0.19557625145518054,0.16330026177354898,0.44739789196310953,0.04811879205825214,0.40760869565217406,0.5670289855072465,0.44993132072614905,0.12727272727272723,0.03219259590850048,0.05335968379446643,0.158102766798419,0.1312092503252865,0.09469139556096073,0.017100525623283725,0.06889632107023408,0.12307692307692308,0.09619548584821036,0.31971892841458066,0.06541979624359855,0.20531400966183555,0.43961352657004826,0.32622404769647995,0.5507846320346319,0.13138040273708954,0.26041666666666663,0.7470238095238095,0.5659599704888435,0.239242120604846,0.031240562002608517,0.1763527054108216,0.3186372745490982,0.2412364400900118,0.3772558235415378,0.12992435926181922,0.20408163265306123,0.5595283446712018,0.39861683390029645,0.5194724530128256,0.05613099660981194,0.3091430836904604,0.6383450697577827,0.5224414158247985,0.7546507974255463,0.08712007947877308,0.5574605775998824,0.8831353020895711,0.7595720742441837,0.4617036506800286,0.11308817209937753,0.0,0.7401574803149606,0.4751070086150671,0.46688907422852377,0.09281858136294266,0.14678899082568808,0.6697247706422018,0.47586138219146856,0.40363636363636357,0.0698713477582964,0.2533333333333334,0.5866666666666667,0.40953089694863754,0.37396694214876025,0.042138781175808396,0.2727272727272727,0.45454545454545453,0.3762906664600035,0.37800224466891125,0.021709643607240658,0.30246913580246915,0.41975308641975306,0.3786138353950519,0.36940133037694006,0.06711104815660408,0.09756097560975607,0.5365853658536586,0.3753389757395438,0.48877005347593605,0.13483997249264842,0.0,0.6764705882352942,0.5067024815848948,0.504906808672499,0.1780197912243048,0.0,0.9999999999999999,0.534832432331661,0.8146171557925812,0.004303721921174615,0.803745962290272,0.8183517503795594,0.8146283175595644,0.14254498151102613,0.017889474546142887,0.10467247019208403,0.19625225750698672,0.1436429123425572,-0.2319396578194707,-0.510207039126043,1.0,0.6954651704324684,0.04791202898112693,-0.17749530219691795
6,0.1263678696158325,0.021977605351904475,0.09545983701979055,0.1653084982537837,0.12821769858261764,0.33713768115942033,0.056794606189870284,0.27898550724637683,0.47282608695652184,0.341770102067906,0.18218873517786557,0.02241244202908799,0.11561264822134387,0.20059288537549408,0.18352791298457843,0.14418060200668897,0.01245320445998843,0.12374581939799328,0.1645484949832776,0.14470401251796877,0.41014492753623194,0.07920877269895907,0.2246376811594204,0.5917874396135263,0.41753567573845046,0.6545014880952381,0.13458489952931216,0.32886904761904756,0.8764880952380951,0.6678566206310028,0.28717434869739467,0.09704735405519609,0.15430861723446898,0.4929859719438878,0.30274055023346247,0.3910616780045351,0.19168541472620407,0.20975963718820861,0.7902585034013605,0.4344582278735329,0.4466355321036832,0.04585526421010643,0.3510355113368196,0.5864279106647283,0.44892475556815137,0.7872170044228728,0.102836916028602,0.6671079033901689,0.9599525145240422,0.7937390361878004,0.46653543307086603,0.09287179925303503,0.2204724409448819,0.6850393700787402,0.4754627768077163,0.46972477064220175,0.1010606114162807,0.22018348623853212,0.798165137614679,0.48020753446317954,0.4043333333333334,0.07823625553994568,0.1866666666666667,0.6400000000000001,0.4116470980504216,0.3630681818181819,0.07897942132879181,0.15909090909090906,0.5454545454545454,0.3713493098382645,0.3783950617283951,0.028517977216543772,0.32098765432098764,0.43209876543209874,0.379441386632173,0.3579268292682927,0.14279499882780636,0.04878048780487804,0.951219512195122,0.38469762997454365,0.4889705882352941,0.15530250160192235,0.1470588235294118,1.0,0.512453052959868,0.5354602510460251,0.08418733542497381,0.35983263598326354,0.7615062761506275,0.5418745244150903,0.848593372424383,0.004669135008530356,0.8380730818180961,0.8535479686531089,0.8486058964700707,0.2335599928763402,0.09211437600381,0.08068395879958978,0.38086795955949926,0.2506455706416994,-0.17325366048900157,-0.5116609188736294,1.0,0.7471337599553836,0.5613222550522666,0.8497963236633163
7,0.04501964493597212,0.011971331047181857,0.029103608847497187,0.0628637951105937,0.04656008951040797,0.3170855978260871,0.0853444333814285,0.2282608695652174,0.4909420289855073,0.32819680266281226,0.21601716897233206,0.06756278118538837,0.059288537549407105,0.26877470355731226,0.2261787408122771,0.27465510033444807,0.007699452367027238,0.25819397993311033,0.2842809364548495,0.27476131356506034,0.3276343599033818,0.14027324879136782,0.0,0.5676328502415455,0.35596827314478796,0.45482235863095244,0.19625032840708284,0.0,0.6592261904761905,0.49474820370556916,0.29343061122244496,0.07920575894283484,0.18036072144288595,0.4128256513026053,0.3037713804791137,0.4959832766439909,0.2026142548257944,0.26701133786848075,0.817469387755102,0.5351733374245028,0.46301359639600503,0.06047298831082801,0.3351016632369876,0.6070720610168211,0.46688481707389967,0.7087400984378122,0.054327789768270934,0.6034122306617501,0.8010547658818957,0.7107868305973775,0.45939960629921245,0.06011781823697513,0.2755905511811024,0.5590551181102362,0.46325552259132147,0.46803325688073394,0.06934149613711875,0.3211009174311927,0.724770642201835,0.4730626214727752,0.4041666666666669,0.07158079018709924,0.21333333333333337,0.7200000000000001,0.4103589214875736,0.36754261363636365,0.053958282525628745,0.2727272727272727,0.5227272727272727,0.3714210238567681,0.37837577160493835,0.030552604831426806,0.2962962962962963,0.4506172839506173,0.3795880673324034,0.3765243902439024,0.06992072492541224,0.17073170731707318,0.5365853658536586,0.38286177014513667,0.5073529411764707,0.08050480595630204,0.3235294117647059,0.7058823529411764,0.5136017569147153,0.5319691422594146,0.037214249745482555,0.40167364016736395,0.6234309623430961,0.5332489377690631,0.9129460456641824,0.012162258531694854,0.8786790815299736,0.9232845196170207,0.9130257891035374,0.1885664633412408,0.09864699245118555,0.07574872814096922,0.32073299102383324,0.2124535002340347,0.8083321804051377,0.9030323947251916,1.0,0.9425507370244444,0.4227180731928043,0.2780788428057643
8,0.032989796617133554,0.007765447550264146,0.02328288707799775,0.051222351571594826,0.033878342046134984,0.32411551577152603,0.06031627775726723,0.2282608695652174,0.4275362318840581,0.32959887764006673,0.22148918856079983,0.06558379026713773,0.09782608695652173,0.2964426877470356,0.23085805327219655,0.29553413338579576,0.00786364936750021,0.27826086956521734,0.30501672240802674,0.2956371959177247,0.2865515771526002,0.10337428402217468,0.08937198067632868,0.5169082125603868,0.30436967381674535,0.42507002801120436,0.19065409661612087,0.08779761904761918,0.6934523809523809,0.46529449747382395,0.265914181303784,0.04312911414105003,0.1603206412825653,0.39278557114228463,0.2693382958140475,0.4574126984126985,0.11598583216933434,0.198421768707483,0.6224580498866213,0.4716791874935874,0.4871924255363569,0.04860470346098431,0.3427665238158167,0.5887877815325945,0.48957546432510146,0.706919321039267,0.05221902185929406,0.6034122306617501,0.8023679704161284,0.708817079588676,0.45738767948124126,0.05991631695706978,0.31496062992125984,0.6299212598425197,0.4612381822610083,0.47099298434970316,0.07574641702725503,0.25688073394495414,0.761467889908257,0.47695653440278135,0.40509803921568627,0.06215710739259583,0.2533333333333334,0.6533333333333334,0.40976958295011495,0.37299465240641705,0.07221615833520524,0.22727272727272727,0.6590909090909091,0.37982033979261154,0.37926652142338413,0.034908792461613575,0.2901234567901234,0.47530864197530864,0.3808461593946004,0.3715925394548063,0.12008899590688865,0.07317073170731708,1.0,0.39024390243902446,0.5077854671280276,0.08751795723377438,0.2647058823529412,0.7058823529411764,0.515162921156818,0.5330420871277384,0.04590367764533036,0.40167364016736395,0.6610878661087866,0.5349860061775835,0.9231088167906147,0.009347365842957573,0.9003341766038325,0.9314923689493018,0.9231554451900623,0.14705798595229014,0.05519023577471636,0.08046256071692892,0.29224052343146356,0.1569306209652944,0.7853539813877036,0.8811695176915028,1.0,0.8930550706157543,-0.047264610705347196,-0.12486409311872824
9,0.050075582506559205,0.003465830036432778,0.04540162980209539,0.05820721769499426,0.05019359180175585,0.3371187540558078,0.03378121109363826,0.30434782608695665,0.4221014492753624,0.3387819242045035,0.2039555188484455,0.04725710655236501,0.10375494071146246,0.2579051383399209,0.2092791340193937,0.2512055109070033,0.018531615918637057,0.22073578595317728,0.27826086956521734,0.25187795420638387,0.3031220708053935,0.06134990941543317,0.13526570048309194,0.4347826086956521,0.30917733569150774,0.46497423596304194,0.16403657993240603,0.1205357142857143,0.6860119047619048,0.49265345602326255,0.26515718003170524,0.036498444129078725,0.19038076152304617,0.33867735470941884,0.2676202232885585,0.40594226148170715,0.07898605276006081,0.24206802721088436,0.5521632653061225,0.4134426197447103,0.5398642066903112,0.045057423427852086,0.4501500877871962,0.6306707696954822,0.5417132377979657,0.7416472743597091,0.048054935897088535,0.648061184825659,0.8207528338953849,0.7431793118826654,0.45540016453167226,0.050671007903253434,0.31496062992125984,0.5984251968503937,0.45816867989864124,0.4725455292345611,0.07376493141785237,0.3302752293577982,0.8807339449541285,0.47818336377858855,0.4091542288557216,0.0713207373085112,0.28,0.7066666666666668,0.41523235717819634,0.369742198100407,0.05316522921090969,0.2727272727272727,0.5227272727272727,0.37348848371155113,0.378754376266814,0.01887979959936658,0.3395061728395061,0.4444444444444444,0.3792176212574936,0.3691299599563158,0.04369160230258397,0.2682926829268293,0.4634146341463415,0.37166838924887524,0.5114135206321335,0.06694302004152088,0.3235294117647059,0.6470588235294118,0.5157114221433259,0.5295697245987635,0.0341958167208573,0.44351464435146437,0.6276150627615062,0.5306561919452307,0.9007463879774156,0.0020323382912532852,0.8955694554972975,0.9034155678660626,0.9007486465188533,0.1560799931587402,0.01827687371257626,0.13295639320552155,0.19374416388553906,0.15713059105124125,0.3953862260842083,-0.031380775951105645,1.0,0.7101944854660092,-0.5943033171276618,-0.8660852746167957
10,0.040803259604191,0.020277651604284203,0.017462165308498312,0.08265424912689168,0.045488856836980646,0.24070048309178751,0.05376485278298948,0.1431159420289856,0.3405797101449277,0.24653438765984922,0.3016963109354413,0.02429827098086175,0.2183794466403162,0.3201581027667984,0.30265695086214295,0.29180602006688966,0.01446080702941884,0.2702341137123746,0.3177257525083612,0.2921581473076201,0.40990338164251217,0.11217340949114832,0.17632850241545905,0.7632850241545894,0.42472807949976016,0.6780505952380953,0.10869807213920511,0.3616071428571429,0.8541666666666666,0.6865646068711005,0.30263861055444224,0.12436540181360413,0.10420841683366744,0.5410821643286573,0.3268013196838586,0.3750896447467876,0.13137950696764017,0.2562358276643991,0.7488707482993198,0.39707069924613414,0.4531247836785035,0.07619667224296889,0.21828805527761513,0.6955766580452716,0.4593813632450836,0.7280509243208986,0.09667414832554395,0.48982529126876573,0.9435427106642715,0.7343352602931051,0.4599737532808397,0.07558459631481602,0.2677165354330709,0.6850393700787402,0.4660404142568203,0.4662079510703364,0.05119176508906028,0.3669724770642202,0.5963302752293578,0.46896351013760745,0.401777777777778,0.05256317754280184,0.2933333333333334,0.5733333333333334,0.40514469294589345,0.3685606060606059,0.05022914063184557,0.2727272727272727,0.5,0.371911061230457,0.3796296296296297,0.03094778386545161,0.2777777777777778,0.4567901234567901,0.3808680326090339,0.37764227642276416,0.07810194379263499,0.1951219512195122,0.5609756097560976,0.3855021885007731,0.5112745098039218,0.10750005853391263,0.20588235294117646,0.7941176470588236,0.5222693582660405,0.5369595536959557,0.04800164764527114,0.44351464435146437,0.7280334728033472,0.5390652259659702,0.9340900610818837,0.00405908347401106,0.9257609594539,0.9387036627241532,0.9340987334152436,0.24187840682763792,0.1234492405263842,0.07917987768649781,0.4939547013025245,0.2710920202186735,-0.5303727499039903,-0.6403764197901562,1.0,0.6706298436579352,0.6157104053573232,0.806730336762036
11,0.02140362547813077,0.008671644753523377,0.010477299185098987,0.038416763678696286,0.02307029166359275,0.2407349896480332,0.04388716608691327,0.17391304347826098,0.31340579710144945,0.2446464859988617,0.3346979107848673,0.08483993349164734,0.1511857707509881,0.4051383399209486,0.34513429252949984,0.41461060678451994,0.00972970904631277,0.3919732441471572,0.42474916387959866,0.41472312463526495,0.3411663216011043,0.1218022619761904,0.10144927536231907,0.5821256038647344,0.3619645150364803,0.49453656462585044,0.19385289295988112,0.10416666666666674,0.7053571428571428,0.5306679901804462,0.30778700257658165,0.07776360452446933,0.188376753507014,0.4929859719438878,0.31732259434820764,0.5000130871396178,0.19990067083316687,0.23016780045351473,0.8288072562358277,0.5379614339274748,0.48792811428787164,0.05037938579477251,0.3964583058015064,0.6595839075685778,0.49048513627220336,0.6891607347341853,0.046622781974930104,0.6073623499007218,0.7931755386765,0.6907135075215645,0.46096737907761526,0.07521118183122745,0.2913385826771654,0.7322834645669292,0.46697626934746084,0.4664482306684142,0.053963468586822175,0.3486238532110092,0.6055045871559633,0.4695150764740625,0.3992380952380953,0.057242517188686594,0.2933333333333334,0.5466666666666667,0.40326288247364456,0.36396103896103893,0.05154994617722905,0.25,0.4772727272727273,0.3675419323273062,0.3791887125220457,0.026264340164400473,0.30864197530864196,0.4567901234567901,0.38008425481771396,0.37003484320557484,0.06144694867325145,0.14634146341463417,0.5121951219512195,0.3750300970897189,0.5084033613445376,0.07361765500203757,0.23529411764705882,0.6470588235294118,0.5136303288174934,0.5331141661685597,0.035010267600452956,0.45606694560669453,0.6401673640167364,0.5342461256180969,0.5338580133604243,0.4910304041641348,7.685894120335046e-05,0.9998646781240608,0.7229597467472334,0.20758392510159285,0.07291589979735302,0.11606309691788042,0.34581176854268003,0.2198450844125614,-0.38564878482682835,-0.6948836786320323,1.0,0.8381907343538383,0.13012669159242468,-0.134095268457847
12,0.021559348683912242,0.007529400251300088,0.012805587892898762,0.04190919674039595,0.022820191186555358,0.22950781102955012,0.029354505124811747,0.15760869565217395,0.2590579710144929,0.23135326138789072,0.3689363995688109,0.05726536182865602,0.24110671936758893,0.4209486166007905,0.3732972006312227,0.4468314294401254,0.008330161354031956,0.431438127090301,0.45551839464882943,0.44690806295504765,0.3496141539619801,0.0960049196690166,0.1714975845410629,0.6038647342995167,0.36239108801400755,0.519577149041435,0.15283806578885586,0.18898809523809523,0.7023809523809523,0.5413100020905744,0.29643702990396376,0.07212726878674515,0.19238476953907835,0.5450901803607215,0.3049749050431518,0.40827776305327323,0.12446438735266,0.22506122448979593,0.5685986394557823,0.42659222768507077,0.49564901107312703,0.052962125380814296,0.32330230889765704,0.5976325775453566,0.4984340482988675,0.671661209875462,0.07529183386203622,0.4793196549949048,0.7813566978684064,0.6758135982177611,0.4602720114531138,0.05299851826475943,0.33858267716535434,0.7086614173228347,0.46327388118222007,0.46360061956392223,0.06280048354908609,0.3211009174311927,0.7155963302752294,0.46778009331736187,0.398961038961039,0.049453917767271864,0.2933333333333334,0.52,0.401974922580798,0.36717827626918526,0.05330845847119915,0.20454545454545453,0.5,0.3709781286306413,0.3769440436107102,0.035577952997255906,0.2901234567901234,0.5061728395061729,0.37859762798028135,0.38042445359518534,0.07080688982284394,0.24390243902439024,0.6097560975609756,0.3868737114977809,0.504201680672269,0.09751444397938483,0.11764705882352944,0.7352941176470589,0.513424685035228,0.5290441775797425,0.059534964161150734,0.3263598326359832,0.8493723849372384,0.5323402318673368,0.12674974416079235,0.31830568316994895,0.0,0.9994179182820767,0.34068780548281286,0.19913270324999777,0.0734243789497313,0.12260567602984995,0.3869097550588205,0.21207300188871078,-0.5133343902372267,-0.6743705541311892,1.0,0.7776667070414058,0.4755213237272535,0.07351354203039549
13,0.012041075182874986,0.008881021643114531,0.0,0.029103608847497187,0.014922561268582121,0.2512978585334199,0.029180091077613046,0.19746376811594202,0.2844202898550725,0.2529612278515507,0.35278154681139756,0.035799679029580735,0.24505928853754938,0.37648221343873517,0.35456636639287303,0.39442919183347486,0.015216422592118544,0.3672240802675585,0.4120401337792642,0.39471821730600537,0.337551373566948,0.07563492945075907,0.181159420289855,0.5096618357487925,0.3457979028642057,0.5903962331201136,0.12301633030344822,0.2931547619047619,0.8095238095238095,0.6028887655866483,0.2445487990907187,0.06583067212898255,0.12224448897795592,0.3707414829659319,0.2531266694315964,0.39027271804244085,0.1428113993833186,0.24150566893424036,0.6859501133786848,0.4152149874790445,0.5107969375497862,0.06450787162092275,0.3994034246446034,0.6371651343238497,0.5147938116090628,0.7012714485500579,0.07721360182741498,0.42481641400611436,0.8227278935148709,0.7054463839831979,0.45493007403925256,0.13824836641642155,0.007874015748031538,1.0,0.47517230583668996,0.468437628371902,0.09298410874445102,0.21100917431192662,0.724770642201835,0.4774419448621025,0.4033830845771144,0.09508722300547749,0.20000000000000004,0.6533333333333334,0.41427592730803464,0.37177747625508806,0.05850813125871008,0.20454545454545453,0.5227272727272727,0.3762852650788111,0.3796756955960935,0.030323987982205213,0.30246913580246915,0.4629629629629629,0.38086671360532454,0.3731343283582089,0.05989657611302915,0.1951219512195122,0.5121951219512195,0.37784028446325735,0.5017559262510974,0.13486724460043745,0.08823529411764708,0.9117647058823529,0.5193040563968658,0.5306938112783364,0.09266366872597925,0.22594142259414224,0.9665271966527196,0.5386040468526783,0.985617547626492,0.005337378709877283,0.9768640063188061,0.9920955379336953,0.9856317834833255,0.15430414593388023,0.0727356449417485,0.058441541964999955,0.29300012151008303,0.17035633594996064,-0.2739136748421684,-0.1689995086315365,1.0,0.7341257381234982,0.5078115241856367,0.4638488852313691
14,0.05122235157159497,0.032660862127797764,0.012805587892898762,0.10710128055878942,0.06061798283999928,0.1402768764871296,0.08981131253891547,0.0,0.26992753623188415,0.16620254151098268,0.4149902660609994,0.038593545740361446,0.29051383399209485,0.44861660079051385,0.41675430642701683,0.4299505815404581,0.018004117318941113,0.40936454849498327,0.4608695652173913,0.43032175493922353,0.5115725719229939,0.19380795803736722,0.18599033816425137,1.0000000000000002,0.5465413078371953,0.6664223525230988,0.1677973423529929,0.2410714285714286,1.0,0.6869166339606246,0.4887087608051925,0.23356143217501665,0.1603206412825653,0.9458917835671342,0.5409001777724453,0.37917067722611425,0.1873606953547689,0.18140589569160998,0.7896870748299321,0.42231563064042393,0.4092533143153569,0.1654253740388156,0.07610111574694622,0.9528025826426777,0.44095962235095704,0.7006332703465561,0.1631229185821286,0.3079517160956854,0.9441940601132508,0.7190959014884521,0.46374427077212377,0.08145100148569362,0.14173228346456695,0.6535433070866141,0.4707377140476391,0.4715870190332741,0.08847472073280714,0.1559633027522936,0.8165137614678899,0.47969288117368414,0.41154228855721403,0.10957882078999993,0.0,0.7466666666666668,0.42567047883378106,0.36601085481682516,0.08678077529486802,0.13636363636363635,0.5681818181818181,0.3760085733966624,0.37414777962041657,0.03893614703321833,0.2716049382716049,0.4691358024691358,0.3761382157180772,0.37786676374226436,0.09020425552142045,0.17073170731707318,0.6097560975609756,0.3883280236655212,0.5184372256365234,0.11446634123649672,0.17647058823529416,0.8235294117647058,0.5307392390377421,0.5318803472178856,0.04086293370447628,0.3723849372384937,0.6652719665271966,0.5334243723600282,0.06917051848520558,0.23632852454662862,0.00045233738727379347,1.0,0.24454474553148142,0.4415903519051213,0.250551781322165,0.10107892974283184,0.8378803913291306,0.5067951024657048,0.12490726164849209,-0.263450031833379,1.0,0.21633363270624262,0.745516811889938,0.16078829866630892
15,0.06268469597922458,0.012672993900385475,0.05005820721769505,0.09895227008149021,0.06393359869211146,0.2205964325529544,0.04364044661314479,0.1032608695652174,0.2681159420289857,0.22480652751058644,0.4766798418972332,0.0617029885312315,0.3300395256916996,0.5335968379446641,0.4805958356588683,0.5672858245433496,0.011324245735243302,0.5484949832775919,0.579933110367893,0.5673971028906142,0.37220364176885934,0.1303276106532668,0.17632850241545905,0.6835748792270533,0.3940298528674778,0.5528388278388275,0.1656477784318869,0.15773809523809523,0.7842261904761905,0.5767562871220983,0.31339602281486056,0.1450929363246402,0.12224448897795592,0.785571142284569,0.344884257363468,0.4332505843362987,0.19713771643036734,0.144562358276644,0.7624761904761905,0.47536454586290017,0.4353325675249818,0.09569943805682096,0.15752610017179858,0.562234514527365,0.4455692186415395,0.6689667545099487,0.10237312951980564,0.3873953375986217,0.7728261212140314,0.6766354569147345,0.4548758328285888,0.09623316167651458,0.15748031496062992,0.795275590551181,0.46479067387618644,0.47311220889202543,0.07694551170708969,0.3302752293577982,0.798165137614679,0.47923343752247255,0.40779487179487184,0.07608081623044403,0.28,0.6533333333333334,0.4147238809568332,0.3713286713286712,0.08932180725395408,0.11363636363636365,0.7727272727272727,0.381759902312108,0.37302943969610625,0.034644447029955235,0.20987654320987653,0.47530864197530864,0.37461011117489035,0.374484052532833,0.08638662019662281,0.12195121951219512,0.6097560975609756,0.384169420671253,0.5018099547511311,0.09835873648733845,0.20588235294117646,0.7647058823529411,0.5112131005522104,0.5299645960733828,0.06269294076809738,0.27615062761506276,0.7447698744769874,0.5336032328864594,0.07784669103087012,0.008880296485468835,0.05325337989716483,0.08831161727822673,0.0783438175256982,0.22805535746735114,0.14250718001931642,0.09895019622203516,0.5695880665955149,0.26833767364656236,0.3205267174660899,0.7900798315854792,1.0,0.7158699107193334,0.7077363821777907,0.3082942672141491
16,0.08302677532013977,0.009122444502090302,0.07450523864959258,0.10128055878928999,0.08351646564528947,0.19699275362318844,0.037821548845505884,0.12862318840579712,0.23369565217391308,0.20051933858353355,0.5361660079051382,0.037626807886288395,0.4318181818181818,0.5681818181818181,0.537458323194655,0.5792642140468225,0.016479569107111236,0.5565217391304348,0.6066889632107023,0.5794938950060475,0.46782608695652156,0.10210843915312859,0.2536231884057971,0.7028985507246375,0.47862183226051597,0.650625,0.12432836840186415,0.3482142857142857,0.84375,0.6621640906532762,0.39807615230460924,0.13305580878368556,0.20841683366733466,0.6873747494989979,0.4193022708258346,0.37829278911564634,0.17076322759790957,0.17460317460317462,0.746031746031746,0.41434564387544515,0.4459916177386773,0.06689491790099451,0.32094243802979094,0.6448299949026788,0.45088130869811355,0.7341344931555781,0.15846710938177358,0.38674398814964234,0.9461691197327368,0.7507083603514058,0.45464566929133854,0.07851180128140468,0.2755905511811024,0.6929133858267716,0.4612412660278902,0.45908256880733944,0.07673452356781932,0.23853211009174313,0.6972477064220184,0.4653248632383425,0.3981333333333334,0.06201513969201722,0.24000000000000005,0.52,0.40283881529851506,0.365,0.09755507545746776,0.1818181818181818,0.6818181818181819,0.3775601314924048,0.3748148148148148,0.04432109643596492,0.24691358024691357,0.4567901234567901,0.37737410854769066,0.36780487804878037,0.09123864866364115,0.17073170731707318,0.5609756097560976,0.37873266231769115,0.5005882352941174,0.13293389902421573,0.23529411764705882,0.8235294117647058,0.5175969227057515,0.5317991631799166,0.0728603986866402,0.2970711297071129,0.7782426778242677,0.5366682540468551,0.09191456761294216,0.0040306615017188805,0.08450354263386384,0.09727264761729881,0.09200113611783674,0.3461724928969624,0.1268765719498063,0.17493256134074064,0.5499991115960525,0.36825413243850663,-0.27236018622565594,-0.025505925066218467,1.0,0.5578951076256063,0.5613548224954977,0.35336064008723017
17,0.06564989339576992,0.008575568454643518,0.05587892898719449,0.08614668218859134,0.0662013789951203,0.1862481680508061,0.02275316098280002,0.14130434782608703,0.21739130434782605,0.18761734864313975,0.4369587422836078,0.05169817840015319,0.325098814229249,0.4841897233201581,0.43997228748223416,0.553380181128105,0.014650066550836664,0.5183946488294314,0.5665551839464883,0.553571890367136,0.38337947131303285,0.082564404188223,0.2367149758454108,0.5966183574879225,0.3920715568572743,0.46353330658105946,0.1503582362564461,0.13095238095238104,0.6785714285714286,0.487048978596061,0.3797932944540767,0.07169700541804379,0.26452905811623273,0.5791583166332666,0.3864267707005877,0.37704573364926486,0.10642023091798344,0.2012517006802721,0.517578231292517,0.39161396889927913,0.5201390849555633,0.05461812426204701,0.36636523249447783,0.61770091940569,0.522966814219593,0.6867168505566161,0.040203990546654335,0.5449798817065357,0.7728261212140314,0.687879518764981,0.4728833053171724,0.09266889345662664,0.14173228346456695,0.7559055118110236,0.4817775993449119,0.46644675806617875,0.09624980630066422,0.21100917431192662,0.9908256880733946,0.4761643761900213,0.3949063670411986,0.08820329176792147,0.12000000000000005,0.7200000000000001,0.4045286710393764,0.36389172625127686,0.062475989191611965,0.22727272727272727,0.5,0.3691565805003808,0.37633513663476187,0.024769262590650973,0.31481481481481477,0.4691358024691358,0.37714023650737427,0.36612770622088237,0.05888826155307697,0.21951219512195122,0.5609756097560976,0.3707807441859345,0.5072703238598811,0.10551414912338945,0.11764705882352944,0.8529411764705883,0.5180070700275984,0.5369282121197877,0.10181679606739312,0.20083682008368198,0.895397489539749,0.5463900489633492,0.06499099247999122,0.006818290651826181,0.05043975609624057,0.07266944227083338,0.06534367484041806,0.29162288556247323,0.06299655316168276,0.22594758702526763,0.44246481046144703,0.29827484384050584,0.11455844119052216,0.5322677777052603,1.0,0.7970421951893825,0.20919650624176253,-0.22213758432831304
18,0.0788178643242672,0.013939421560571716,0.06519208381839348,0.11990686845168808,0.08001341844428361,0.18774703557312264,0.052257420200186575,0.05797101449275388,0.24818840579710155,0.19472473605900056,0.5550440172475747,0.015931291201062982,0.4990118577075099,0.5662055335968379,0.5552674119760526,0.5592733353602919,0.017064077951242658,0.5331103678929766,0.591304347826087,0.5595276835076483,0.4986275801493194,0.15170498715505285,0.08212560386473444,0.900966183574879,0.520692627369297,0.7682968073593074,0.0652694652814278,0.5714285714285714,0.8645833333333333,0.7710014700191375,0.43204591000182196,0.17566623488988434,0.14028056112224463,0.9158316633266532,0.4656403784239211,0.3143988868274582,0.1308852652041846,0.2012517006802721,0.6791473922902495,0.3399827537582095,0.3706874432558322,0.16667551499710911,0.0,0.8595782438784948,0.4056581414457234,0.7104885407384697,0.13147326899929834,0.4780064504606722,0.9822769916059968,0.722278575801931,0.44953471725125244,0.0801704589933035,0.2992125984251969,0.7322834645669292,0.4564676214723796,0.4655963302752293,0.1087703394430734,0.24770642201834864,0.8532110091743119,0.47785148680943845,0.40909090909090917,0.08991630801880794,0.2666666666666667,0.6533333333333334,0.41863655556647905,0.3620867768595042,0.08621575846282947,0.13636363636363635,0.5227272727272727,0.3719826012023886,0.37317620650953987,0.03267592557553616,0.30246913580246915,0.43827160493827155,0.37457166329260816,0.3697339246119735,0.07548673171035165,0.24390243902439024,0.5853658536585367,0.3771894962313717,0.5066844919786097,0.06827715717917288,0.38235294117647056,0.6470588235294118,0.5111604398635864,0.5312856599467477,0.03346658301115624,0.4267782426778242,0.606694560669456,0.5323147657366426,0.08620682556692164,0.005859411336725193,0.07572664085679681,0.09364460946350195,0.08640121056371067,0.3960384725842865,0.15046842589443055,0.1854622742128944,0.7544501239990655,0.4230516003064873,-0.34733852361581324,-0.5073626846069932,1.0,0.1596186069885758,0.5537046698940203,0.44910718044833103
19,0.16876078840672804,0.009507613653957846,0.1525029103608848,0.18509895227008144,0.16902378498732992,0.2880434782608697,0.03270566422398189,0.24094202898550743,0.3315217391304349,0.2898624905347623,0.6350517922856753,0.03117337082262723,0.5375494071146245,0.6561264822134387,0.6358032739161648,0.702583323722754,0.007813371986435932,0.691638795986622,0.7137123745819398,0.7026260192946937,0.42699483591537585,0.08553595114419113,0.23913043478260887,0.6545893719806763,0.4353330265753585,0.6591492200328403,0.07579293101136349,0.4404761904761904,0.7946428571428571,0.6634178309169773,0.3369497615921499,0.11852688413649201,0.14228456913827658,0.5691382765531062,0.3568494731324205,0.385345218547189,0.17137795225088312,0.2290249433106576,0.8112290249433107,0.42113531521897046,0.46428424953827896,0.0756495968822074,0.30500858992995894,0.7138609375294983,0.47030208999297013,0.6510784760161756,0.08922663531608674,0.4353220502799753,0.7787302887999412,0.6570595931833808,0.45777898452348625,0.06586963212006423,0.3228346456692913,0.6141732283464567,0.4624128026612079,0.4689971527997472,0.08931401266399429,0.25688073394495414,0.724770642201835,0.47728166509178843,0.39862068965517244,0.09895168743139217,0.28,0.9466666666666668,0.4105131822450222,0.3652037617554859,0.0696755656274927,0.1818181818181818,0.6363636363636364,0.371678316007151,0.37856534695615157,0.02960136753684979,0.2962962962962963,0.43209876543209874,0.37970100773282595,0.3713204373423046,0.07151793321139327,0.12195121951219512,0.5609756097560976,0.3780284321282508,0.5030425963488845,0.09663959483755337,0.17647058823529416,0.7352941176470589,0.5120840205937659,0.5306593565142117,0.037946458527177304,0.3933054393305439,0.6317991631799162,0.5319910336908639,0.1647266790522629,0.003774820631564457,0.15218663969523483,0.1694515238546222,0.16476917911219,0.27940808588816024,0.11660060743097628,0.10200359911710799,0.43398760383929424,0.3023742242053112,0.19978091297955566,0.7190441320434783,1.0,0.3593471046304149,0.6267893918623425,0.3447623448818619
20,0.18939030792759484,0.007989424218916557,0.180442374854482,0.21536670547147863,0.18955544848407088,0.2741190679170219,0.048509459800088625,0.15760869565217395,0.32065217391304357,0.2782953297179999,0.6575990079826397,0.03376114932408356,0.5632411067193676,0.6857707509881423,0.65844811578872,0.7086366319102891,0.019356512664526627,0.6809364548494983,0.7391304347826086,0.7088957639224887,0.48039215686274517,0.10783410253960889,0.30434782608695676,0.794685990338164,0.4921146352713988,0.6916433239962649,0.1154532967478037,0.3794642857142857,0.8452380952380951,0.7010268107031419,0.4191127352744705,0.1540658734617878,0.2404809619238477,0.8757515030060119,0.44601161500326486,0.3435422168867547,0.1732754537019902,0.10714739229024944,0.6950204081632654,0.38400120344833616,0.4111148622261115,0.06541719413479725,0.2401215805471124,0.49379825935924776,0.41618617137720465,0.6876942126509695,0.18376154622958393,0.19894523411810439,0.9172786199796192,0.7113575137311492,0.45422263393546375,0.052502392319559194,0.31496062992125984,0.6141732283464567,0.4571877659511728,0.461413923367512,0.08458882996307815,0.28440366972477066,0.7339449541284404,0.468953920355858,0.4007843137254903,0.08324151804717034,0.10666666666666669,0.6666666666666667,0.409171541975401,0.3591800356506239,0.07441502001189414,0.1818181818181818,0.5454545454545454,0.36665966906008174,0.37303316388283714,0.038216904396887214,0.2962962962962963,0.48765432098765427,0.37494751000646503,0.365375418460067,0.0793324612436946,0.17073170731707318,0.5853658536585367,0.3737237363716637,0.4936562860438293,0.09760341432321944,0.11764705882352944,0.6764705882352942,0.5030269998339161,0.528755435228485,0.02926431482311345,0.40585774058577406,0.5899581589958158,0.5295487874091246,0.1717567245755584,0.006048577038034808,0.16048338069225065,0.178687972107325,0.17186110776611396,0.3661632994582042,0.15438471506511664,0.15569256205162985,0.6638137095939132,0.39679069574359277,-0.549830244855858,-0.3902987194333444,1.0,0.5699487078430006,0.7207355123886879,0.5555880363527922
21,0.14760007163965258,0.008505884800559554,0.13271245634458673,0.16880093131548324,0.14784025120599253,0.3006201226309922,0.019732549436585294,0.2590579710144929,0.3278985507246378,0.30125461604077913,0.608296594709638,0.011924139671752357,0.5741106719367589,0.6274703557312253,0.6084112079122757,0.6947903267301261,0.015442009766291034,0.6729096989966555,0.7177257525083611,0.6949586089095524,0.3944630248978077,0.09667344557887472,0.17874396135265713,0.7149758454106279,0.4059151475769135,0.6239697802197799,0.06365611997188268,0.48660714285714285,0.7604166666666666,0.6271462853325661,0.27231385848620315,0.07376087715612992,0.1242484969939881,0.46693386773547085,0.28194126393802194,0.3267320774463631,0.08163574801510864,0.23299773242630384,0.5685986394557823,0.3365859241520468,0.504513888384643,0.0909175353481887,0.31976250259585787,0.7227057335422604,0.5124854147215168,0.6843937156900061,0.10237584768441797,0.40643155052685775,0.8397890468236209,0.6918627162566683,0.4530587522713506,0.053935605667056984,0.33070866141732286,0.5826771653543307,0.45619660159584896,0.47424135497529996,0.08190733546171615,0.3119266055045872,0.6788990825688074,0.48112852624169705,0.40871794871794886,0.08146307514882556,0.2266666666666667,0.68,0.4166040978662769,0.36451048951048937,0.06235687525087902,0.2727272727272727,0.5681818181818181,0.369704612248568,0.37701804368471037,0.022335109389949287,0.3271604938271605,0.4444444444444444,0.37766634609045785,0.371951219512195,0.05461838776625482,0.21951219512195122,0.4878048780487805,0.3758636845426582,0.5062217194570134,0.08161153711380921,0.3235294117647059,0.6764705882352942,0.5126331893254445,0.5319439974251692,0.02793944341442313,0.45606694560669453,0.6652719665271966,0.5326631366221641,0.15652357886375423,0.005928398638587264,0.14726493064619872,0.16419012669352867,0.15663365145409602,0.18742174575374776,0.06695317016518314,0.10434021670184057,0.3336411596952997,0.1988050087099966,-0.3564166761719233,-0.7420774639276527,1.0,0.14507388998911752,0.4147676814104696,0.47609795859781145
22,0.18723892350886812,0.013943079617415866,0.16880093131548324,0.2176949941792784,0.1877497403012711,0.2984867860187554,0.06118577099508845,0.13949275362318847,0.3586956521739132,0.30460302954714863,0.6511421762380842,0.027628680157417672,0.58399209486166,0.6808300395256917,0.6517194580467366,0.7166240409207161,0.02619559292822615,0.6775919732441471,0.7511705685618729,0.7170956238914494,0.4180164819551009,0.1271959109201386,0.2246376811594204,0.7560386473429952,0.43666767159376146,0.6802564775910362,0.10046568539639619,0.41964285714285715,0.8154761904761905,0.6875273067821465,0.35709654603324315,0.16961097461664518,0.20641282565130248,0.8216432865731462,0.3947945906425237,0.3134629851940777,0.10809153087035579,0.14173242630385485,0.4977414965986394,0.3313170714777505,0.43220326983707436,0.12733430314317215,0.15103173554343102,0.6383450697577827,0.45030572911553407,0.6879453694554188,0.10711122881993596,0.41300807883429463,0.8122222572410098,0.696112727093703,0.4606299212598425,0.0603895919525351,0.28346456692913385,0.5748031496062992,0.46451393547694003,0.4708580679978413,0.07266239650915216,0.27522935779816515,0.6788990825688074,0.4763501858890041,0.4005882352941177,0.06435530822710098,0.28,0.6400000000000001,0.40564964438161183,0.372326203208556,0.057311886497114856,0.20454545454545453,0.5227272727272727,0.3766472490524325,0.3788126361655775,0.017938347877230535,0.345679012345679,0.4506172839506173,0.37923088682339484,0.37733142037302725,0.05738934452308178,0.17073170731707318,0.5121951219512195,0.38160726316444316,0.507785467128028,0.07783573251720438,0.1470588235294118,0.6764705882352942,0.513629621173462,0.5311961604725578,0.025796921730695026,0.41841004184100417,0.6025104602510459,0.5318129892958247,0.17471561594351723,0.009080307983181298,0.15910175827036444,0.1837825968271235,0.1749479520265447,0.2905355128954954,0.18543742510280894,0.12961943401569398,0.7380178182773331,0.3439363765839082,-0.7480419617805562,-0.7223852661095473,1.0,0.5075787705512865,0.8082318119527733,0.5362233440546731
23,0.3092905186909845,0.012409413639527486,0.2863795110593714,0.3445867287543657,0.30953591019420157,0.3435487117552334,0.05436679395779481,0.24818840579710155,0.4021739130434784,0.34776488260664357,0.7208635265700483,0.04760505664383788,0.5968379446640316,0.7697628458498023,0.7224119252765828,0.796729840208101,0.01861724287640291,0.7672240802675585,0.8193979933110368,0.7969443055178929,0.4633319914117017,0.15398663199569418,0.21739130434782594,0.9855072463768118,0.4879129895717999,0.6222924933862433,0.1481340147420634,0.2500000000000001,0.8928571428571428,0.6394426168369673,0.4323647294589178,0.1698759044201742,0.212424849699399,0.8517034068136272,0.46410804678090467,0.3952708490803729,0.16843673197142014,0.17913832199546487,0.7222312925170069,0.4292038397758145,0.4410748110530058,0.13039922950076294,0.0932148992807113,0.7144556249882006,0.45968987578786163,0.6630223781725565,0.15516059863482834,0.18318677970731295,0.8404509019088742,0.6806901739750542,0.4538495188101487,0.044075186200499585,0.28346456692913385,0.5511811023622047,0.45595507114316086,0.46470438328236496,0.10099563184016144,0.10091743119266056,0.724770642201835,0.4754036318665762,0.4001851851851851,0.06138691497262,0.2266666666666667,0.5733333333333334,0.40480142975397737,0.3708964646464646,0.0742426147793421,0.15909090909090906,0.6818181818181819,0.378152876830628,0.37988683127572037,0.03120035163594327,0.2777777777777778,0.4629629629629629,0.3811481945571317,0.3722899728997289,0.06085430125533161,0.1951219512195122,0.5853658536585367,0.3771626120534663,0.5028594771241827,0.07104926122004221,0.20588235294117646,0.6764705882352942,0.5077849349644543,0.5342282659228269,0.025781305199035577,0.4602510460251046,0.6652719665271966,0.534841363585281,0.22994293880946687,0.005929963280115382,0.21721721425858465,0.23814336475258452,0.23001832791648882,0.37625482385845804,0.17673568746788995,0.19108389287425442,0.737562053659599,0.4151739024406881,-0.17118240519471156,0.21610340673433925,1.0,0.48187761117962435,0.6971245487568383,0.23911894922133392
24,0.35027049236458274,0.026721256405575385,0.3236321303841677,0.40861466821885917,0.3512683345597196,0.3846263142938334,0.0568165044693839,0.28260869565217395,0.4528985507246377,0.38871869063796965,0.7646283809966674,0.012148958703340085,0.7282608695652173,0.7816205533596838,0.7647229983206093,0.8160403960915469,0.006871737251366615,0.8080267558528428,0.8334448160535117,0.8160687611522658,0.5113195036468693,0.09160481475563778,0.37681159420289867,0.8091787439613525,0.5193019726671273,0.6800303454715219,0.07808714513502579,0.5282738095238095,0.8244047619047619,0.6844116540279779,0.47184565208849055,0.14998567606730914,0.24448897795591207,0.7294589178356713,0.4946644622408175,0.31492988306433684,0.07618373047537833,0.1865124716553288,0.5442176870748299,0.3238379052602299,0.4242092766801446,0.09522430410233135,0.1870150465366534,0.6702033264739753,0.434561136204908,0.5570181049191716,0.14728334462876022,0.35850483784550413,0.8634267284398081,0.5757918130346927,0.4634861818743244,0.053008435623393704,0.33858267716535434,0.5984251968503937,0.46644853850135154,0.4783234394675302,0.08338070975051068,0.30275229357798167,0.8807339449541285,0.4853960599925609,0.41882352941176476,0.10543207087327583,0.2266666666666667,0.8800000000000001,0.43163770816636393,0.37165775401069523,0.0964047435276047,0.09090909090909088,0.5681818181818181,0.38372011656427524,0.3741224885015734,0.0426610369973611,0.21604938271604937,0.4567901234567901,0.37649955499329524,0.365375418460067,0.04766784642783822,0.21951219512195122,0.4634146341463415,0.3684112737069095,0.497693194925029,0.11127495439652255,0.17647058823529416,0.8529411764705883,0.5097429206694991,0.5330215768315698,0.019138835121345114,0.4811715481171548,0.5983263598326359,0.5333583355706747,0.24946502114548705,0.0027704874721834337,0.2443934250232222,0.25364512046283855,0.24948010316250618,0.4299094299190901,0.15151677728229918,0.212951260799092,0.6936503041730018,0.4553342815244749,0.09923960741733494,-0.5511830566600433,1.0,-0.4675555064486057,0.5690041978572439,-0.5530480525957095
25,0.2649543011418524,0.015634961562915137,0.2433061699650757,0.29452852153667064,0.2654054117944231,0.40510329941412315,0.021943461819533137,0.36050724637681164,0.4257246376811594,0.4056845494985503,0.7059330586157596,0.009632673261464721,0.6788537549407114,0.7164031620553359,0.7059973777710591,0.7901373372233685,0.01668249888580201,0.7672240802675585,0.8153846153846154,0.7903096836330479,0.3727515674786722,0.08605348386630568,0.1570048309178742,0.538647342995169,0.38234980796667606,0.7013994427558258,0.08840320229346958,0.5520833333333334,0.9196428571428571,0.7068309735669398,0.27608408305973653,0.06701512234878987,0.1583166332665331,0.41482965931863736,0.2839329036663655,0.30313542722053355,0.08012306453332789,0.18481632653061222,0.47789569160997736,0.31332762921309326,0.4928866462639929,0.07323105653814499,0.2849591270365685,0.6094319318846871,0.4981826290050092,0.6935955182508606,0.08869675514667263,0.49113849580299834,0.8227278935148709,0.6991240747528481,0.45870330038532386,0.04003101785995115,0.3700787401574803,0.5354330708661418,0.46040971406484615,0.4756978333008005,0.07541055171962145,0.3486238532110092,0.7889908256880734,0.4815123936193089,0.4059574468085107,0.059486271587225574,0.2933333333333334,0.5466666666666667,0.41020089640773777,0.37185686653771766,0.070993655222219,0.15909090909090906,0.5454545454545454,0.3784314893377458,0.3778565799842395,0.020389318039798175,0.3333333333333333,0.4444444444444444,0.37839460108443895,0.371043072132849,0.04098222760424068,0.2682926829268293,0.43902439024390244,0.37325161674154833,0.51188986232791,0.053695806161853446,0.38235294117647056,0.6764705882352942,0.5146388298895322,0.5328941511617559,0.02128883557504668,0.4853556485355648,0.5983263598326359,0.5333101799144835,0.22275661420841097,0.00783561333054557,0.2117040114732654,0.2324903390474039,0.22289145271677746,0.19623433392304832,0.06505173231838157,0.12005197846149196,0.32505770014063273,0.2065178077660402,-0.008063552402991175,-0.840113155703221,1.0,-0.03650619109641742,0.1853477401311808,0.666221474371157
26,0.35671140202517193,0.0125120711652658,0.341094295692666,0.38416763678696175,0.3569266345479219,0.3742821985233798,0.06814797431100313,0.22101449275362328,0.45471014492753625,0.38032050316852956,0.8005444104705796,0.02559166464171442,0.7381422924901186,0.8300395256916996,0.8009456468467524,0.8019814475926045,0.020317008360354487,0.765886287625418,0.8367892976588629,0.8022339027951392,0.5599763011575971,0.12134825428307913,0.3188405797101448,0.823671497584541,0.5727311925870252,0.7644317160826596,0.06218412960020568,0.6264880952380952,0.8839285714285714,0.7669092220020919,0.5920520285854728,0.2125831297002736,0.23446893787575163,0.9999999999999999,0.628382463259344,0.27668010097120604,0.10136102288478856,0.12925170068027209,0.5566984126984127,0.29433328915085694,0.35922328367927553,0.14459266540559712,0.07905567407351466,0.7097358832524683,0.38672203712039277,0.6395302117321793,0.12895129804321048,0.4714404277895091,0.9159549098091126,0.6521607048004786,0.4571386123904323,0.07261807627927738,0.28346456692913385,0.7244094488188977,0.4627630042586778,0.46996711095724425,0.09877172137673748,0.26605504587155965,0.9174311926605505,0.4800425664752775,0.3984905660377358,0.08317052310501796,0.17333333333333337,0.6666666666666667,0.40691713082971026,0.36363636363636365,0.07771367402410094,0.20454545454545453,0.5227272727272727,0.3716945908405554,0.3756114605171209,0.02683577982334947,0.30864197530864196,0.43827160493827155,0.37655084708892383,0.3663138518177635,0.06116117468112768,0.17073170731707318,0.4878048780487805,0.37128957469711543,0.5110987791342951,0.07547789697876874,0.35294117647058826,0.6764705882352942,0.5165378844205457,0.5328807136654302,0.017253328937132887,0.4728033472803347,0.5857740585774058,0.5331546828098197,0.2501621265196635,0.0058202255558730724,0.236344076405127,0.25687845086111866,0.25022854637098546,0.5820263197048549,0.22396578325382915,0.24222223602703963,1.0,0.6228714804217655,-0.4141916362766755,-0.23342605593623592,1.0,-0.12218784554921289,0.5539202108962488,0.07861388970437114
27,0.48845380463541127,0.009277220452298994,0.4772991850989524,0.5133876600698487,0.4885402964248382,0.5474637681159422,0.0789843376729927,0.41666666666666674,0.6231884057971016,0.5530295428448724,0.8035752784764645,0.0161639404288962,0.7737154150197628,0.8260869565217391,0.8037348758957001,0.8942778960170263,0.018139129628025438,0.8635451505016722,0.9170568561872909,0.8944584959631157,0.4303469477382523,0.1526706524955322,0.16183574879227058,0.8164251207729467,0.45616119494844976,0.6780573593073594,0.05425161754714833,0.5476190476190476,0.7514880952380952,0.6801849065504554,0.3594461650573876,0.20762506099953867,0.1002004008016033,0.7975951903807614,0.41415688657075145,0.27520511234796946,0.15184973101403942,0.003972789115646247,0.5651972789115647,0.31365100368296345,0.44030985533562494,0.14841055911411263,0.12861296229870295,0.7722630217674488,0.46421761663855216,0.5949771597916829,0.11460405257837664,0.28694044354796355,0.7688760019750597,0.6057170196761804,0.46241947029348596,0.03716343104934017,0.3779527559055118,0.5354330708661418,0.46388336446794154,0.4757297748123436,0.08482988204568997,0.29357798165137616,0.6330275229357798,0.4830984259832284,0.40509090909090917,0.0523043268888738,0.2933333333333334,0.5066666666666667,0.40839276005414993,0.36900826446280993,0.07725336907992257,0.1818181818181818,0.5454545454545454,0.3768642616054645,0.37800224466891147,0.029049622326957573,0.30246913580246915,0.48148148148148145,0.3790966027930265,0.36718403547671835,0.056797832941289796,0.1951219512195122,0.4878048780487805,0.37147201146597786,0.5037433155080214,0.0839661755828747,0.29411764705882354,0.6764705882352942,0.5105677809550414,0.5324457968809436,0.045452520645075704,0.40585774058577406,0.6485355648535565,0.5343471679122541,0.3107408235890864,0.009236297833468556,0.2947139433871781,0.32181511369011373,0.31087556604881483,0.2764844126620472,0.18937685433726278,0.0722484480364427,0.5859253886632207,0.3341484072642463,-0.7671760508217416,0.661968427267234,1.0,-0.7176448529570905,0.8155287264071059,-0.7133918031636833
28,0.5253834084122082,0.0211087806993398,0.49010477299185107,0.5552968568102445,0.5258026846544293,0.5258742911153124,0.08315628158678329,0.32246376811594213,0.6159420289855073,0.532337838723466,0.7731783811651485,0.04507869978165231,0.6828063241106719,0.8320158102766798,0.7744771206106477,0.9135596917260433,0.011238850880760069,0.8969899665551839,0.9277591973244146,0.9136280693814582,0.3299201848351188,0.11779911047300715,0.0869565217391306,0.5966183574879225,0.35010444991521233,0.5424107142857142,0.18382029159546043,0.15625,0.8154761904761905,0.5723914753529818,0.2900365949289884,0.09279423128942463,0.1482965931863729,0.5731462925851704,0.3043655703910355,0.40604209799861973,0.1285043842623962,0.1955827664399093,0.6094149659863946,0.425680712384255,0.49537383227433257,0.0749168327441366,0.279644697842134,0.6566293492420094,0.5009458650890612,0.6569594587496193,0.1195036039069818,0.32567472448968876,0.8220660384296176,0.6676238554127535,0.4605443341321465,0.045277860004855404,0.3464566929133858,0.5748031496062992,0.4627406236538011,0.46808934982050276,0.09134886818782294,0.26605504587155965,0.8532110091743119,0.4768244465102468,0.402753623188406,0.08420077275921163,0.17333333333333337,0.68,0.4113674615301958,0.3700592885375493,0.1209826268945827,0.022727272727272707,0.7272727272727273,0.3891292554337482,0.383454106280193,0.09566792812546576,0.0,1.0,0.3950821712035055,0.3647932131495229,0.06375729981333711,0.17073170731707318,0.5365853658536586,0.3702632805584175,0.4996803069053712,0.08151463682621193,0.2647058823529412,0.6764705882352942,0.5062142044840535,0.5306985628524649,0.055571673746183645,0.37656903765690375,0.702928870292887,0.5335687472356228,0.31935258500032354,0.006047998576557201,0.30308571959397435,0.32695553617483053,0.3194092269222936,0.18445351611890287,0.1018287141942604,0.06317554027298367,0.42453773701327924,0.21042689746160514,0.3537668221672816,0.46913759167272495,1.0,0.640994130945729,0.42169334508766887,-0.01625437929254914
29,0.5043768803955067,0.013174042358304073,0.4866123399301515,0.5343422584400467,0.5045466667251218,0.5339262187088275,0.033869693422174184,0.4347826086956522,0.5706521739130436,0.5349854811353554,0.7679918895333915,0.01948086330640564,0.7154150197628458,0.7865612648221344,0.7682357176026108,0.9107327455153542,0.007920841928939515,0.8983277591973244,0.9210702341137125,0.9107667421952892,0.3282200890896544,0.07149317570506844,0.17391304347826098,0.5048309178743964,0.3358173921498995,0.5654761904761906,0.08265999112781075,0.33928571428571436,0.738095238095238,0.5714081379373329,0.2489914894724514,0.05978897930704025,0.15030060120240485,0.4188376753507014,0.2559786298006998,0.34536042642165093,0.092420888966544,0.22732879818594104,0.5600907029478458,0.3573576845631338,0.5093415335066109,0.060119510560327515,0.3427665238158167,0.6224206611414222,0.5128315645730204,0.6505305550973551,0.09511437361755201,0.40971981468057617,0.7892359250738021,0.6573577846205387,0.4585335923918599,0.04836857838379411,0.33070866141732286,0.5826771653543307,0.46104467392883847,0.4778982485404503,0.08151837075042993,0.23853211009174313,0.6880733944954129,0.4847119545128914,0.40779220779220793,0.08781561356197541,0.13333333333333336,0.6533333333333334,0.4170202828471492,0.37219598583234925,0.08654593585886913,0.13636363636363635,0.7045454545454546,0.3819983973415804,0.3779862113195446,0.02560634319975058,0.2716049382716049,0.4691358024691358,0.37884131951596467,0.3693379790940766,0.04106397604462268,0.24390243902439024,0.4634146341463415,0.3715843021140298,0.5053475935828879,0.09161823379236471,0.20588235294117646,0.7058823529411764,0.5134793855696876,0.5321958376351683,0.030799423176469876,0.43096234309623427,0.6569037656903765,0.5330747551006858,0.31461445886287753,0.002930049363340893,0.3095687188163315,0.3188325918044744,0.31462792536405343,0.14704927205565943,0.06531374574489136,0.07137798556113162,0.29193457769862485,0.1607295016058177,-0.24901178324796544,-0.25416718368000174,1.0,0.45774383936694385,0.3468711914291755,0.18477099757501897
30,0.550989522700815,0.01131383304400759,0.5331781140861468,0.5750873108265426,0.5511037321266452,0.5792270531400968,0.05377768026021156,0.4492753623188407,0.6286231884057972,0.5816767292365184,0.8581521739130432,0.020262675915476525,0.817193675889328,0.8853754940711462,0.8583873756603232,0.9005016722408027,0.01628176311045763,0.8755852842809364,0.9270903010033444,0.9006464007894371,0.5095813204508857,0.10135854948503172,0.32850241545893755,0.7270531400966183,0.5193991257022701,0.7230902777777778,0.0851785592964174,0.5416666666666666,0.9657738095238094,0.7280068774843362,0.4921509686038744,0.14874541203124692,0.2765531062124249,0.8016032064128256,0.5137791550897507,0.27350249433106566,0.06304390841169172,0.16723809523809524,0.40703854875283446,0.28055642311902146,0.42667487901728685,0.09187671927506069,0.22536766788121348,0.6348052634559835,0.43629358816063923,0.6181472610055294,0.13832505367093748,0.25672623362433944,0.8095958481725447,0.6331831960450479,0.4532808398950131,0.07948885565712661,0.30708661417322836,0.7322834645669292,0.46008335116590193,0.46513761467889914,0.1350383415855844,0.07339449541284404,1.0,0.48402937072632757,0.40377777777777785,0.13204100639476596,0.08000000000000002,1.0,0.42447702027405537,0.3659090909090909,0.10391381507634302,0.15909090909090906,0.7272727272727273,0.38014152069666873,0.377880658436214,0.040391633066077584,0.2777777777777778,0.48148148148148145,0.37999747978318077,0.37398373983739835,0.12113548313618976,0.12195121951219512,0.926829268292683,0.3928015777923518,0.5019607843137255,0.0913967792582031,0.1470588235294118,0.7352941176470589,0.5100772268914877,0.5274755927475596,0.03212360168254975,0.4351464435146443,0.6610878661087866,0.5284365884061811,0.33162005436381276,0.006729656426699805,0.3207600643981884,0.34137417579000634,0.3316871928900568,0.4535260643633883,0.15999366240110016,0.23420845661461165,0.7727067053746897,0.48047604539524436,-0.7041398181056098,0.07072626263931815,1.0,-0.10939062380327465,0.7243707216338432,-0.19618158389131315
31,0.7439829980778083,0.013960844391600658,0.7240977881257277,0.7660069848661235,0.7441124513577992,0.7149477586788002,0.03508386632924137,0.6467391304347827,0.7681159420289857,0.7157980600597662,0.8677727732328341,0.028280459627970482,0.8241106719367589,0.9051383399209486,0.8682281212575442,0.9600451116123512,0.013514325081611843,0.9418060200668896,0.9759197324414715,0.9601391199338467,0.4262442422199753,0.11296906982600351,0.2681159420289858,0.8019323671497582,0.4407922064752771,0.6228024640088593,0.063491176313833,0.47023809523809523,0.7485119047619048,0.6259929432882896,0.3789905392179708,0.1325080788618934,0.18036072144288595,0.6813627254509017,0.40123316468558673,0.3325473817433951,0.07844559344646453,0.20578684807256237,0.4835646258503401,0.3415697841656377,0.4931650456366096,0.09936988119382227,0.25958579546527205,0.7539787422832221,0.5029625405854611,0.6391723171109208,0.07224362385414772,0.4602834420666688,0.7373590931534769,0.6431949194919805,0.4556857718366601,0.050639115708321664,0.33070866141732286,0.5748031496062992,0.45845831328400277,0.4553018988692125,0.08933755577808317,0.21100917431192662,0.6697247706422018,0.4638838360497828,0.39410852713178285,0.06427407495052975,0.2266666666666667,0.6400000000000001,0.3992551203964587,0.3649577167019027,0.07010259264056784,0.15909090909090906,0.5681818181818181,0.3715526404122943,0.376471432672983,0.024971076915992912,0.2839506172839506,0.4506172839506173,0.3772890717544727,0.3664208735110606,0.049063275610450166,0.24390243902439024,0.5121951219512195,0.36965317637247935,0.500683994528044,0.0864262937872889,0.2647058823529412,0.6764705882352942,0.5080030629176293,0.5341539359735333,0.043697953816802866,0.37656903765690375,0.8284518828451882,0.5359176567958578,0.39550031200185876,0.004996465985467495,0.38889126071687213,0.40258242201356004,0.39553150466053133,0.3162875076957038,0.14747921467806213,0.14634987674584732,0.5295507647442186,0.3486186999125541,-0.6517218955227229,-0.3841608074138192,1.0,0.45354222247001247,0.7543544794497139,0.41916120109595706
32,0.7701513387660072,0.014240639790684639,0.7532013969732247,0.8020954598370199,0.7702803544867857,0.8287681159420299,0.03160793017913325,0.7264492753623191,0.8532608695652175,0.8293585895300692,0.8772134387351778,0.018319490018247404,0.8468379446640316,0.9090909090909091,0.8774008825718344,0.9695652173913042,0.006470036874797337,0.9551839464882943,0.979933110367893,0.9695863731120943,0.4224154589371981,0.10540455610026728,0.19565217391304368,0.6231884057971018,0.4351123280106922,0.7383035714285715,0.07155374140645858,0.5997023809523809,0.8497023809523809,0.7416938065908739,0.3213627254509019,0.09517284461424527,0.1242484969939881,0.6352705410821643,0.33488910739849337,0.2983945578231293,0.1143349061256054,0.03515646258503402,0.49830385487528345,0.31913999041492247,0.4464641582812587,0.09596245082889697,0.2035341426117162,0.6637089618456077,0.45645904609230786,0.5589259037473605,0.14072242965307097,0.32371017050647677,0.8017166209671489,0.5760250967129105,0.4596850393700788,0.04672948070852847,0.3700787401574803,0.5669291338582677,0.46200682559959416,0.47064220183486233,0.05894130228510842,0.3302752293577982,0.6055045871559633,0.47424537712109605,0.40346666666666664,0.03759770340841714,0.3066666666666667,0.4933333333333334,0.4051797954817919,0.36999999999999994,0.05717236546248089,0.22727272727272727,0.4772727272727273,0.37430376138254867,0.37864197530864196,0.02820794548346899,0.30864197530864196,0.48765432098765427,0.37967027785996177,0.37073170731707317,0.04751979685360926,0.21951219512195122,0.4634146341463415,0.37370438488380114,0.5041176470588237,0.06775267083337853,0.3235294117647059,0.6470588235294118,0.5085599453290435,0.5320502092050213,0.015082672633945613,0.502092050209205,0.5690376569037656,0.5322596757115963,0.4123178422257077,0.001470825165865398,0.40995388343481487,0.4151183853576913,0.4123204131228512,0.2599127950476789,0.10418784482624326,0.1335574848191068,0.4955452300043026,0.27962951542861736,0.181694983504528,-0.07259325860744431,1.0,-0.4348009796169994,0.5068085428385746,-0.40688552211439133
33,0.6712415497416417,0.017069507999673363,0.6426076833527359,0.711292200232829,0.6714547449246303,0.6729595728451568,0.04448970354400424,0.601449275362319,0.7373188405797103,0.6744028434491964,0.8311316829623464,0.01369169909856663,0.808300395256917,0.8468379446640316,0.8312424725855022,0.9545033151440476,0.01136596040398428,0.9418060200668896,0.9732441471571907,0.9545697969621668,0.37579455886092056,0.07940363324881682,0.2342995169082125,0.5507246376811594,0.3839477497176323,0.6033834586466165,0.06868369928403585,0.4925595238095238,0.7678571428571428,0.6072118958200579,0.28843652216714133,0.1066503105976684,0.11422845691382766,0.47494989979959923,0.3071976027657218,0.2634608744082428,0.05940420225209101,0.1734784580498866,0.4076009070294785,0.26996033371190625,0.4850367626479969,0.12286921838533735,0.2477864411259415,0.7787573863958163,0.5000926404376395,0.6252575032820897,0.13204359409796113,0.3873953375986217,0.8752560748841756,0.6388087115870337,0.4584887415388864,0.05107320858817895,0.36220472440944884,0.6377952755905512,0.46127501132793647,0.46112988894253987,0.08457455910639033,0.24770642201834864,0.6880733944954129,0.46868768046706993,0.401169590643275,0.07543653705102103,0.20000000000000004,0.6266666666666667,0.40807827097710647,0.36602870813397137,0.054613764471464606,0.25,0.5,0.37000993368041285,0.37968377734459596,0.016502671803108576,0.3271604938271605,0.41975308641975306,0.3800359602623859,0.37783483097988885,0.0519695390271109,0.29268292682926833,0.5365853658536586,0.3813300531736742,0.517543859649123,0.09430451006171943,0.11764705882352944,0.7058823529411764,0.5259172594228851,0.5390149012699114,0.04957082467422734,0.44351464435146437,0.6694560669456067,0.5412496840724355,0.37326442067623516,0.007709421207358042,0.364630172661714,0.3871592068715185,0.3733426310987578,0.2009920908248964,0.11209794998431627,0.025702640379661856,0.3579055241823563,0.2296591293522591,-0.47283625880279323,0.032469724066214796,1.0,-0.06964600813478887,0.4562875395766593,-0.5149107699565643
34,0.729194852594154,0.012548276630315809,0.7136204889406288,0.7543655413271246,0.729299894858688,0.7493634939287118,0.033606079476450806,0.6865942028985509,0.7971014492753625,0.750096321238645,0.937052665313535,0.022279954825208458,0.9031620553359683,0.9713438735177865,0.9373103423304605,0.9323149236192716,0.010643929504375173,0.9157190635451504,0.9505016722408026,0.9323740387093421,0.582256169212691,0.11294827922331524,0.39130434782608714,0.8840579710144929,0.5928193385015664,0.7652429214929216,0.059850917306006224,0.6071428571428571,0.8586309523809523,0.7675168055559705,0.6392243947354169,0.13023010323170256,0.4228456913827656,0.9138276553106213,0.6520040885479181,0.28377226205797634,0.03254970216520958,0.21825850340136055,0.37585487528344674,0.2855828166151944,0.3820107936666678,0.0993838126732409,0.14453737091506347,0.5445449225018406,0.3943886901389767,0.557082658630139,0.08091084597356575,0.42153865548866976,0.7117568575540778,0.5627705743493494,0.46052351564162547,0.05698082397997075,0.3464566929133858,0.6220472440944882,0.46394069774323804,0.47210513265559134,0.055240676135544065,0.3669724770642202,0.5963302752293578,0.4752392184297526,0.4082882882882883,0.05527496710677741,0.32000000000000006,0.6400000000000001,0.41191269957610205,0.3642506142506142,0.06394372168825489,0.25,0.5681818181818181,0.3696712071957034,0.3727060393727061,0.02217794664058919,0.31481481481481477,0.4135802469135802,0.373347505084698,0.36255767963085034,0.05336274786291032,0.21951219512195122,0.4634146341463415,0.3663586933865252,0.4976152623211446,0.0803617764147492,0.2647058823529412,0.6470588235294118,0.503889296824805,0.5223340495307024,0.02707144071974823,0.41841004184100417,0.5648535564853556,0.5230161709701796,0.39461860766305895,0.001420974680338473,0.3931966002330916,0.3986777575783482,0.39462109689021585,0.6175260180099356,0.14108469762485382,0.40879114344413026,0.8483411623555006,0.6330128788355315,-0.06339427425926573,0.15657791595808682,1.0,-0.25574794516332466,0.46221868300958663,-0.6423341423307124
35,0.9181461001164145,0.015294322487377984,0.8940628637951107,0.9452852153667056,0.9182708229074209,0.9193840579710154,0.03500864472404722,0.8369565217391306,0.9456521739130437,0.9200364763501964,0.9209280303030303,0.029253791359314114,0.8824110671936758,0.9723320158102767,0.9213828696404902,0.9740802675585284,0.012753147126244604,0.9511705685618728,0.991304347826087,0.9741620101490566,0.49552133655394526,0.11665716935156968,0.2681159420289858,0.7391304347826086,0.5087895159023417,0.7011718750000001,0.08173069045621137,0.5014880952380952,0.8229166666666666,0.7058206141436223,0.4742818971275886,0.14250050025058417,0.26853707414829664,0.7755511022044087,0.4947996166827215,0.2750183295540438,0.04224136857361341,0.17801360544217687,0.3531791383219955,0.2781766366914014,0.41003975595788716,0.13284387869469644,0.18878966942928876,0.6997017123223016,0.4305954498177684,0.5640489247481274,0.1303994703912348,0.328301133558154,0.7439356214609139,0.5786198760257333,0.4588254593175851,0.04053363792804816,0.3700787401574803,0.5669291338582677,0.46057523734901185,0.48012232415902156,0.09304817109165694,0.3211009174311927,0.871559633027523,0.48887118353206266,0.4102777777777778,0.056651367702544926,0.32000000000000006,0.5733333333333334,0.4140898095466374,0.37642045454545453,0.04686080246277907,0.2954545454545454,0.5,0.37926579698918306,0.37782921810699593,0.016003770900601306,0.345679012345679,0.41975308641975306,0.3781609483947535,0.3678861788617886,0.04467218110935742,0.29268292682926833,0.4878048780487805,0.370532413270629,0.5036764705882352,0.08017525712165842,0.17647058823529416,0.6470588235294118,0.5098863998138308,0.5331241283124131,0.022103696617303235,0.48953974895397484,0.5941422594142259,0.5335726107854799,0.456122132160444,0.0029176042594996113,0.4526197272111281,0.4624245851648027,0.4561312689558053,0.41994707435686357,0.16233054124835727,0.21663572918514085,0.7181757581115722,0.44961957970405253,-0.23749651653234954,-0.01647738877362236,1.0,-0.22056772764407365,0.5505180911246117,-0.700057792632807
36,0.9781830724787649,0.014250955010098718,0.9557625145518046,1.0000000000000002,0.978284954439135,0.9336755233494373,0.04546577355450582,0.8586956521739132,0.9800724637681162,0.9347613808667944,0.9007648953301126,0.025492005641288718,0.8656126482213439,0.9377470355731226,0.9011188627994988,0.9857302118171686,0.01084650801151476,0.9692307692307691,1.0,0.9857887799026236,0.42950438361066384,0.09013435201584515,0.24637681159420288,0.6956521739130437,0.4386886923317854,0.6439594356261021,0.07321498489496318,0.48511904761904756,0.7604166666666666,0.6480315744225104,0.37742150968603855,0.1323636038400997,0.18637274549098182,0.6432865731462926,0.399553091417768,0.28683144368858654,0.059570429451575285,0.162702947845805,0.4183764172335601,0.2928398840165696,0.45088776593996627,0.09723795257458497,0.24660650569200848,0.6023523192810888,0.46106387869718046,0.5686792352986264,0.13368976005228655,0.2875917929969429,0.724888902896404,0.5838990015500409,0.4634004082822979,0.07551572658859282,0.28346456692913385,0.6299212598425197,0.4694006382531204,0.4738362215426435,0.0798239230504458,0.30275229357798167,0.6697247706422018,0.480390077076747,0.40987654320987654,0.05109682904397542,0.32000000000000006,0.5333333333333334,0.41299069828802204,0.3733164983164984,0.046848657804756805,0.25,0.45454545454545453,0.37619059035196545,0.37642889803383633,0.017063363123112525,0.3271604938271605,0.43209876543209874,0.3768082825715728,0.36585365853658525,0.055859958207242565,0.24390243902439024,0.4878048780487805,0.3700154732106716,0.5010893246187363,0.09247366981839127,0.05882352941176472,0.6470588235294118,0.5093952610447818,0.532465519913219,0.041406005812083764,0.39748953974895396,0.6443514644351463,0.5340432922565218,0.47187669755518,0.002775547147358676,0.4689998573494135,0.47679705662848965,0.4718847091156306,0.3104931637350863,0.1415541966070571,0.13029429328978326,0.5213209328729378,0.3406941866412231,-0.4969090841856645,0.41295936097150904,1.0,-0.20947086306429338,0.4847614631803079,-0.7504308907523136
37,0.8561236978000656,0.007655814859571382,0.8440046565774157,0.8672875436554134,0.856157050182394,0.8147528799702711,0.060555868044014895,0.7264492753623191,0.9021739130434784,0.8169426189127933,0.9084068105807236,0.017008430749946464,0.8764822134387351,0.9268774703557312,0.9085619420919528,0.9681673955921446,0.009628289877039202,0.957190635451505,0.985953177257525,0.9682140428793959,0.4946116685247121,0.13250939973863435,0.18840579710144945,0.7657004830917871,0.5116143269409078,0.6252289377289376,0.12631592036689812,0.39880952380952384,0.8184523809523809,0.6375404422450344,0.49555521299008265,0.16721664748901663,0.2545090180360723,0.7815631262525049,0.5223211819945683,0.28926518983661836,0.20712031003790107,0.0,0.6502312925170068,0.3542219686372547,0.47242751081789,0.20594602658293526,0.12329853310426847,0.9999999999999999,0.5143092322570169,0.5794766199758478,0.14812286692943444,0.2994106338050364,0.8049943794845935,0.5976378191386593,0.45669291338582657,0.06215775635060977,0.33858267716535434,0.6692913385826772,0.46079598249809844,0.4761232651140909,0.07784078143987397,0.27522935779816515,0.6513761467889909,0.4822833058092509,0.41094017094017105,0.07192405317903744,0.2533333333333334,0.5866666666666667,0.4170278776200108,0.37762237762237766,0.09707210348327638,0.20454545454545453,0.6136363636363636,0.38958957653365733,0.37875910098132326,0.03848395206722343,0.2901234567901234,0.5061728395061729,0.3806592917694414,0.3702313946216385,0.052749860867384084,0.24390243902439024,0.5121951219512195,0.3738749603877915,0.5098039215686273,0.08857862340732922,0.1470588235294118,0.6470588235294118,0.5172475491102864,0.535993992060938,0.05046359682580429,0.40585774058577406,0.6527196652719665,0.5383036664795109,0.43166512650347855,0.005241708810399185,0.42387240023211176,0.441024119174133,0.43169613439342797,0.4202110115758057,0.12187119631632932,0.2081775106860242,0.5615506006007869,0.4370915775198455,-0.2900810628898404,0.8437974120920989,1.0,-0.19629851271428578,0.2924124689492817,-0.9086219124487535
38,0.9420166562192177,0.010669655033544344,0.9254947613504075,0.9662398137369035,0.9420759167246627,0.9635939241917506,0.03890279649688136,0.9003623188405798,1.0000000000000002,0.9643638182439692,0.9550965339008813,0.03064485467102062,0.9021739130434783,0.9999999999999999,0.9555785872627227,0.9627347568819139,0.01456190157994642,0.9411371237458193,0.9872909698996655,0.9628427614211721,0.5544871794871796,0.13281485613939445,0.3212560386473433,0.961352657004831,0.5698741892496199,0.7544070512820513,0.07229920011047829,0.6071428571428571,0.8794642857142857,0.7577972359261401,0.606944658547865,0.15368145579570314,0.3226452905811623,0.879759519038076,0.6257360595991456,0.273311878597593,0.03803852339003718,0.1717732426303855,0.344108843537415,0.275895789532053,0.428406963724791,0.14266682358169186,0.16283108988276157,0.7704978383582849,0.4511041226306226,0.5856766963168049,0.10017071852786105,0.4228518600229023,0.7616586298549173,0.5940188554216502,0.4594185342216836,0.08409872976034956,0.28346456692913385,0.6929133858267716,0.4669068156125881,0.4689484827099505,0.10839451229257553,0.1559633027522936,0.8165137614678899,0.48107806050822716,0.39846153846153853,0.09348834358961128,0.1866666666666667,0.6666666666666667,0.40907650842304516,0.36276223776223776,0.14506978540051588,0.0,1.0,0.3901755599443367,0.3754748338081671,0.032816973763288945,0.31481481481481477,0.4691358024691358,0.37687875230753737,0.36679174484052535,0.07372048197362832,0.14634146341463417,0.5365853658536586,0.3739871386853737,0.5022624434389139,0.06322789148112662,0.4117647058823529,0.7058823529411764,0.5061506181266311,0.5281622143546831,0.03710699921071446,0.42259414225941416,0.610878661087866,0.5294391132614888,0.46576544702615646,0.0043889168297010835,0.4604190913772019,0.4749782502132403,0.46578572734678353,0.5781765097640167,0.17015544162632143,0.29786078214692546,0.8313249389139394,0.6022326499895437,-0.5104632030370992,0.47621929947971636,1.0,-0.3115633352771539,0.614271023180966,-0.6656959232642332
