,Orientation X,Orientation X,Orientation X,Orientation X,Orientation X,Orientation Y,Orientation Y,Orientation Y,Orientation Y,Orientation Y,Orientation Z,Orientation Z,Orientation Z,Orientation Z,Orientation Z,Orientation W,Orientation W,Orientation W,Orientation W,Orientation W,Accelerometer X,Accelerometer X,Accelerometer X,Accelerometer X,Accelerometer X,Accelerometer Y,Accelerometer Y,Accelerometer Y,Accelerometer Y,Accelerometer Y,Accelerometer Z,Accelerometer Z,Accelerometer Z,Accelerometer Z,Accelerometer Z,Gyroscope X,Gyroscope X,Gyroscope X,Gyroscope X,Gyroscope X,Gyroscope Y,Gyroscope Y,Gyroscope Y,Gyroscope Y,Gyroscope Y,Gyroscope Z,Gyroscope Z,Gyroscope Z,Gyroscope Z,Gyroscope Z,EMG1,EMG1,EMG1,EMG1,EMG1,EMG2,EMG2,EMG2,EMG2,EMG2,EMG3,EMG3,EMG3,EMG3,EMG3,EMG4,EMG4,EMG4,EMG4,EMG4,EMG5,EMG5,EMG5,EMG5,EMG5,EMG6,EMG6,EMG6,EMG6,EMG6,EMG7,EMG7,EMG7,EMG7,EMG7,EMG8,EMG8,EMG8,EMG8,EMG8,Roll,Roll,Roll,Roll,Roll,Yaw,Yaw,Yaw,Yaw,Yaw,Accelerometer X vs Roll,Accelerometer Y vs Roll,Accelerometer Z vs Roll,Accelerometer X vs Accelerometer Y,Accelerometer X vs Accelerometer Z,Accelerometer X vs Accelerometer Z
,mean,std,amin,amax,RMS,mean,std,amin,amax,RMS,mean,std,amin,amax,RMS,mean,std,amin,amax,RMS,mean,std,amin,amax,RMS,mean,std,amin,amax,RMS,mean,std,amin,amax,RMS,mean,std,amin,amax,RMS,mean,std,amin,amax,RMS,mean,std,amin,amax,RMS,mean,std,amin,amax,RMS,mean,std,amin,amax,RMS,mean,std,amin,amax,RMS,mean,std,amin,amax,RMS,mean,std,amin,amax,RMS,mean,std,amin,amax,RMS,mean,std,amin,amax,RMS,mean,std,amin,amax,RMS,mean,std,amin,amax,RMS,mean,std,amin,amax,RMS,corr, corr, corr, corr, corr, corr
0,0.6759499536607971,0.006120009145125733,0.6602409638554219,0.6867469879518074,0.6759771254168991,0.4733146067415731,0.09755315232977427,0.398876404494382,0.7584269662921349,0.48307382728609843,0.7721445221445223,0.040754439166829866,0.6969696969696968,0.8181818181818179,0.7731986462335827,0.3516826923076926,0.06831230554523575,0.29583333333333384,0.5458333333333334,0.35813062617707403,0.49352810650887563,0.1088124858446923,0.1987179487179489,0.7115384615384612,0.505155870659303,0.7064884717404614,0.13872678012385609,0.40053050397877976,0.9681697612732096,0.7197228506677619,0.31020214353547676,0.08200335213585863,0.1922398589065255,0.5379188712522045,0.32065651615221796,0.5906198655713217,0.18552422292754536,0.3522884882108183,1.0,0.6185379167770377,0.5926273954159214,0.16545482216956114,0.2325157494163922,0.8767441612569686,0.6148626512764565,0.5375491392460231,0.09302705697354172,0.3647365439093484,0.7060849858356941,0.5453867313342254,0.27337858220211175,0.07206091835399843,0.06862745098039214,0.4509803921568627,0.2825398451277615,0.27362040133779264,0.08732130312398934,0.0,0.6956521739130435,0.2869607973229666,0.23153846153846164,0.05370159435996676,0.10999999999999999,0.5,0.2375678040864577,0.2618343195266273,0.06057919565785918,0.15384615384615385,0.46153846153846156,0.268619574868679,0.5322398190045251,0.02716918431699332,0.4705882352941176,0.588235294117647,0.5329195005231053,0.3724112426035504,0.028759005145947918,0.3269230769230769,0.46153846153846156,0.3734987397604442,0.594551282051282,0.067429283582531,0.38888888888888884,0.7777777777777777,0.5982896443826339,0.4243733794295591,0.06718088583104946,0.2247191011235955,0.550561797752809,0.4295570310311953,0.42555101297644443,0.03978942890306156,0.30538661320411564,0.4590544283465571,0.42737152124326017,0.3433239394750781,0.09824726153191968,0.25694189948444013,0.6108154589691785,0.3568448211001614,-0.23896940243044862,0.6612095351491258,1.0,-0.2800295809056042,0.19816231044415858,-0.601554760830481
1,0.9603178672135353,0.016700899183365134,0.9325301204819278,0.9927710843373495,0.9604599896165831,0.8485536696151085,0.04282863798906276,0.7780898876404495,0.8960674157303371,0.8496108491273917,0.7982868195634149,0.048606864752379714,0.7142857142857144,0.8787878787878785,0.7997338337995641,0.7773936170212772,0.0739292767010537,0.6541666666666672,0.8875000000000006,0.780826540082623,0.6333878887070373,0.10900213019040154,0.4583333333333335,1.0,0.6425020504498076,0.6421919972910436,0.09065632894160275,0.4986737400530503,0.946949602122016,0.6484244506269208,0.5862133663552102,0.09837478556265168,0.40035273368606694,0.8324514991181657,0.5942371605498393,0.40984684392244825,0.06431505795645824,0.33494590846047156,0.5984687933425797,0.4147563779796972,0.42985286936823847,0.08586710012337236,0.28314839094794964,0.6455715092790978,0.4381663753265162,0.5391773853293955,0.1103066321496144,0.32577903682719545,0.7740736543909348,0.5501099179604055,0.2836879432624113,0.10254774521480196,0.019607843137254888,0.5294117647058824,0.30128249811123664,0.2782146160962072,0.06352804027666484,0.09782608695652173,0.40217391304347827,0.2852250272550184,0.2351063829787235,0.0372927513894854,0.13999999999999999,0.32,0.23798355029868337,0.26077468630660117,0.06196414201995187,0.07692307692307693,0.3846153846153846,0.2678829954610924,0.5359824780976223,0.035470641071867974,0.4558823529411764,0.6029411764705882,0.5371299784114751,0.37152209492635035,0.08020851545934493,0.11538461538461536,0.6346153846153846,0.3799015556600812,0.5780141843971631,0.14808201876600335,0.24999999999999994,0.9444444444444444,0.5962903004460948,0.418120965814009,0.14974030477593114,0.1348314606741573,1.0,0.4435879097963955,0.07475672474789861,0.029744601493490463,0.02943267824877238,0.1255009265674567,0.08033980912149213,0.6279985599029408,0.07692091642645492,0.49895083717869704,0.7331413324609402,0.6325923874658271,-0.4968518559772145,-0.10227537531155717,1.0,0.7172801940608607,0.7571629226732991,0.3319892810318735
2,0.9065404475043028,0.021140569224356136,0.8433734939759037,0.9325301204819278,0.906782512981289,0.9079052969502411,0.05588460324012802,0.8370786516853933,1.0,0.9095929571326606,0.661487322201608,0.04806006393312788,0.6103896103896105,0.8181818181818179,0.6631998200319431,0.8627976190476195,0.0881124208117036,0.6916666666666669,1.0000000000000004,0.8672052184304568,0.7315132783882782,0.08699802662800026,0.5641025641025639,0.9294871794871793,0.7365766616671524,0.6208791208791208,0.05044952398703131,0.46153846153846145,0.6923076923076923,0.6228889050442097,0.7496850592088684,0.11876032633765211,0.5520282186948853,0.9894179894179893,0.7588674757163593,0.4527313255399248,0.15539833020824959,0.19556171983356452,0.7246934812760055,0.47820818523310943,0.45155407946812126,0.1330746303875489,0.21851982134672165,0.8594224681014357,0.4704186585832722,0.5435548360987454,0.14103184897134083,0.37110481586402266,1.0,0.5612367272488792,0.28396358543417366,0.0914537650906636,0.0784313725490196,0.49019607843137253,0.2980767612352729,0.2828027950310559,0.06118955527546449,0.17391304347826086,0.43478260869565216,0.28923126131571464,0.23964285714285713,0.03981613586631273,0.15,0.33999999999999997,0.24286974757205612,0.2687728937728937,0.05617477261798219,0.15384615384615385,0.3846153846153846,0.27447791061403554,0.5312500000000003,0.02690705227435734,0.4705882352941176,0.588235294117647,0.5319188129581838,0.3688186813186813,0.05069542511626111,0.2692307692307693,0.5961538461538463,0.37222486818274286,0.5917658730158728,0.0820472549464761,0.38888888888888884,0.8333333333333333,0.5973260337977554,0.413322632423756,0.08931673361060127,0.16853932584269665,0.5730337078651685,0.4226944787859928,0.0772665887678432,0.03948279515899512,0.009984489333047408,0.13291493910210828,0.08660935002684444,0.7953643026388034,0.08903863890418762,0.6435069332972485,0.9257166955153486,0.8002441401586594,-0.3701499518357018,0.06254783274515496,1.0,-0.00457593192750724,0.4603463893066003,-0.09052159868387136
3,0.6715576592082618,0.015513960275486363,0.6265060240963857,0.693975903614458,0.671733633737844,0.54153290529695,0.0237609978179712,0.5084269662921348,0.6264044943820224,0.5420446389932774,0.7568027210884354,0.03904496747827808,0.6839826839826837,0.8181818181818179,0.757791293661106,0.38563988095238144,0.03322824003986949,0.35416666666666696,0.4500000000000006,0.38704330166159856,0.48889652014652,0.08921121707448273,0.3333333333333335,0.766025641025641,0.4968262574275871,0.6529935581659719,0.05541419805470993,0.4801061007957559,0.7877984084880637,0.6552987760008916,0.36161501637692106,0.047899062443404,0.27689594356261016,0.48324514991181644,0.36471738407837223,0.4719637408361403,0.09096743482223217,0.3814147018030513,0.7836338418862692,0.48049669892734004,0.4780714978582011,0.07417117665676706,0.3357743596303284,0.6868664257618879,0.483689447763808,0.535701133144476,0.11519837051091422,0.34631161473087824,0.8427762039660056,0.5477311315487178,0.2801120448179272,0.07360025447320104,0.05882352941176469,0.4411764705882353,0.2894529720233095,0.2758152173913043,0.052704910710406505,0.18478260869565216,0.44565217391304346,0.2807173632859741,0.2296428571428572,0.04302068363914294,0.12,0.42,0.2335670598106065,0.2614468864468865,0.0583517643685982,0.1794871794871795,0.46153846153846156,0.2677659435864733,0.5341386554621851,0.020436250100234844,0.48529411764705876,0.588235294117647,0.5345224838248489,0.37053571428571436,0.04091658806614833,0.2692307692307693,0.5,0.37274788651006163,0.5808531746031748,0.08479803458732599,0.3055555555555555,0.7222222222222221,0.5869009385238804,0.41332263242375594,0.08529412787356855,0.0898876404494382,0.5393258426966292,0.42187767709757124,0.40329545176315895,0.01318298728575416,0.3783008693425829,0.41842633647954,0.403507012520435,0.39613868722734835,0.04063914319758348,0.3457351108338915,0.474187313089544,0.39818074751680743,-0.3717453043196161,-0.20349994151682788,1.0,0.32145569310151145,0.5887217772335291,0.13332920031318904
4,0.6808365537622189,0.03059155645093635,0.6265060240963857,0.7373493975903616,0.6815105273168264,0.6219525121899514,0.06303380502773813,0.550561797752809,0.7134831460674158,0.6250785717131743,0.5230744098668624,0.0407313764899696,0.47186147186147176,0.5887445887445888,0.5246280401883838,0.5759433962264151,0.046229649523670764,0.5125000000000006,0.6375000000000002,0.57776089517344,0.6696903725205614,0.06646715915449748,0.5384615384615383,0.8173076923076916,0.672918807884826,0.6728892447825433,0.09827931579804638,0.4297082228116711,0.8647214854111407,0.6798944901211638,0.617550164719976,0.0889986709810146,0.4479717813051145,0.7813051146384479,0.6238104848552419,0.4455024206421899,0.07750352927443599,0.29819694868238555,0.5922330097087378,0.4520684329331654,0.4356311803750899,0.09888597747294581,0.26048628654877254,0.7141867331819683,0.4465069574520847,0.4222968624726068,0.09224774766354754,0.26345609065155806,0.5715354107648725,0.4320691236675088,0.27062523122456533,0.05685298008163822,0.16666666666666666,0.38235294117647056,0.27642230564195636,0.2735849056603773,0.05298182348456614,0.11956521739130432,0.4130434782608695,0.278572810180291,0.23188679245283023,0.042879823288850184,0.12,0.33999999999999997,0.2357445051281433,0.258829221093372,0.07580785115976503,0.0,0.41025641025641024,0.26950132695208256,0.5319089900110989,0.05140880657439939,0.30882352941176466,0.6617647058823529,0.5343408777767709,0.3686502177068214,0.054619323480844896,0.21153846153846156,0.5192307692307693,0.3725989336943916,0.589622641509434,0.09255293995858539,0.38888888888888884,0.8055555555555555,0.5967070324313205,0.42081831672673303,0.07240156038712214,0.21348314606741572,0.5393258426966292,0.42688539005685633,0.35541345019395504,0.01458711481213443,0.33299553580994334,0.38124809587192865,0.3557070279125752,0.6596436089374242,0.0811159655375821,0.552807635225564,0.7716015723982845,0.664518881228982,-0.19409955936696072,0.6468932275781676,1.0,0.1187602604100585,0.1699012414063207,-0.7992311510605749
5,0.9681360737065914,0.022241817495386795,0.9180722891566266,1.0,0.9683885251673526,0.8828486450760076,0.029084916427646518,0.8398876404494383,0.9494382022471909,0.8833219743279862,0.7317035905271195,0.025532008814491573,0.7099567099567095,0.8181818181818179,0.7321436735006595,0.8532843137254911,0.04920034374966907,0.75,0.9416666666666673,0.8546849216872132,0.6866515837104071,0.09686177007963674,0.4391025641025639,0.9102564102564101,0.6933701904913382,0.6716804493680764,0.05733952186363478,0.5172413793103449,0.830238726790451,0.6740947756706966,0.6658367050523909,0.0414882577212022,0.5784832451499117,0.7619047619047619,0.6671128412970535,0.4313779880884394,0.03990999576934123,0.35298751733703193,0.5166490984743413,0.43319861201842247,0.47199679462460054,0.06330749814652675,0.34376898724057436,0.6535661368893437,0.47617398333658223,0.5190462922846193,0.0962474449748695,0.2669915014164306,0.7096317280453258,0.527791285466439,0.2760092272202998,0.09305128818416837,0.0,0.5980392156862745,0.29109752754144486,0.2727621483375958,0.06403393820519382,0.04347826086956519,0.47826086956521735,0.28009158404353784,0.23282352941176482,0.034420777387595226,0.16999999999999998,0.33999999999999997,0.2353245568546206,0.26334841628959244,0.05164526976358382,0.1282051282051282,0.3846153846153846,0.26830624858352997,0.5316608996539797,0.034075746567377524,0.42647058823529405,0.6323529411764706,0.5327389680324203,0.371266968325792,0.05583262859587528,0.19230769230769232,0.5961538461538463,0.37539282128854556,0.5892156862745097,0.14605168320174022,0.16666666666666663,0.9999999999999999,0.6068403950537492,0.41863846662260423,0.07376374932706516,0.21348314606741572,0.6179775280898876,0.4250120511455795,0.051154349039664385,0.027435876976586723,0.0,0.08579291461869143,0.05797101996098656,0.7148810281237679,0.03710398209012961,0.6426467349271123,0.7893898704587372,0.715831958858432,-0.17300575285445,-0.23735070242932996,1.0,0.529841452371493,0.23955532305814456,0.24157510511163985
6,0.8678341272065008,0.03775847385556418,0.8048192771084339,0.9132530120481929,0.8686456105673315,0.8235236477658741,0.04492562391985732,0.7415730337078651,0.8848314606741573,0.8247339215611792,0.6551897714688413,0.01826731739568208,0.6363636363636362,0.7186147186147185,0.655441417175591,0.76390503875969,0.07513498328258487,0.6333333333333337,0.8625000000000003,0.767548390220936,0.6854129397734049,0.061306905986577495,0.5096153846153846,0.8205128205128203,0.6881175268913733,0.6382086237739807,0.043208217321490903,0.5305039787798409,0.7533156498673741,0.6396526313415248,0.6703170501620114,0.06272594623115434,0.5273368606701939,0.7671957671957671,0.6732115132356413,0.4141538560784441,0.046410093999084634,0.3300970873786408,0.5041553398058253,0.41671605202791234,0.46586517116311793,0.04411179134029843,0.35776491531024485,0.6122499013995928,0.46792476069740946,0.5154653139205484,0.06750735622365954,0.357643059490085,0.7889518413597734,0.5198160653540489,0.27507979936160504,0.09372701821471618,0.0392156862745098,0.5098039215686274,0.2904332998445167,0.27287664307381204,0.06819765651453018,0.14130434782608695,0.42391304347826086,0.28117343797036193,0.23337209302325582,0.03987068700971354,0.10999999999999999,0.41000000000000003,0.2367144290706263,0.2662492546213473,0.05380931076702241,0.15384615384615385,0.48717948717948717,0.2715703216153823,0.5359097127222986,0.030062409739652032,0.4558823529411764,0.6029411764705882,0.5367424521744134,0.37008050089445443,0.08254016554939317,0.13461538461538464,0.75,0.37906890738859345,0.5849483204134367,0.13231876049302085,0.16666666666666663,0.8888888888888888,0.5995575098184265,0.4278808466161483,0.10458516998228781,0.11235955056179775,0.7303370786516854,0.44033270371708855,0.14556238150110665,0.04620048384368595,0.08650208540559401,0.21070444873761285,0.15263705980542072,0.7178507394164793,0.056214147940889664,0.6033542575585222,0.7925829799009432,0.7200228954482197,-0.2872808440128637,-0.3905808218071745,1.0,0.4613979168689034,0.28888890491413255,0.14956769029189043
7,0.5547838412473425,0.00817273574702733,0.5397590361445784,0.566265060240964,0.5548428556268233,0.5674708085481381,0.0459490470099281,0.5112359550561798,0.6882022471910113,0.5692916960079533,0.5400220694338339,0.01041998220373083,0.5238095238095237,0.5714285714285712,0.5401206185316195,0.46176470588235335,0.029234514922349922,0.4125000000000001,0.5250000000000004,0.4626710953622026,0.6087229763700349,0.06130713444814944,0.49999999999999956,0.7467948717948714,0.6117422082440507,0.5774691839600562,0.08229533338562056,0.40583554376657816,0.7188328912466844,0.5831898368229187,0.5535498149877233,0.06838306300792289,0.47266313932980586,0.691358024691358,0.5576754880161633,0.38552250414729,0.1386834043522493,0.19487378640776704,0.6726768377253814,0.40924756383000105,0.46067134388958575,0.07461514704917244,0.32578640486926114,0.6495581635807404,0.4665579729774752,0.46596345053602173,0.056573750501468796,0.357643059490085,0.5729405099150142,0.4693184098555687,0.2843137254901961,0.09651760371952132,0.05882352941176469,0.5980392156862745,0.29994546599097727,0.2723785166240409,0.06691316229846085,0.15217391304347824,0.45652173913043476,0.2803205950571514,0.22960784313725496,0.057998647719191714,0.10999999999999999,0.41000000000000003,0.2366804746041032,0.2614379084967321,0.054998561416399167,0.15384615384615385,0.3846153846153846,0.2670492672416752,0.5331603229527108,0.02256155310867634,0.48529411764705876,0.5735294117647058,0.5336281221911655,0.36387631975867274,0.051435479382170614,0.21153846153846156,0.5,0.367423066699886,0.5718954248366013,0.11615980778256023,0.33333333333333326,0.9999999999999999,0.5833463013394112,0.40273187926856147,0.12564938099197603,0.0449438202247191,0.5842696629213483,0.42151058049014006,0.45958257369081756,0.02388209524179049,0.40146612579367913,0.4924030956336307,0.46019051825561547,0.5989440627797059,0.03475614294834401,0.5360557748491537,0.6767945585710902,0.599931907589199,-0.03912258666358067,0.7937973261069279,1.0,-0.04007690109239404,0.3128564298390259,-0.8008311773411052
8,0.5706506024096387,0.03173565648520343,0.49397590361445787,0.6072289156626507,0.5715147582391722,0.431516853932584,0.04089118545253388,0.3820224719101124,0.5308988764044944,0.43341140097444886,0.49212121212121196,0.029025880309457196,0.4415584415584419,0.5367965367965368,0.4929593686226432,0.436666666666667,0.018766527107660153,0.4125000000000001,0.4750000000000001,0.43706168519634286,0.6308974358974357,0.07027563457585029,0.47115384615384626,0.7980769230769234,0.6347215658386729,0.7971883289124669,0.07496947094971006,0.6392572944297081,0.9575596816976129,0.8006355256277612,0.5123809523809523,0.048189838740882486,0.4215167548500881,0.619047619047619,0.5145969837742217,0.4710970319001387,0.09140563301858999,0.35298751733703193,0.6664410540915395,0.47970856091766684,0.4582128276464883,0.08388873690147294,0.26182938398729394,0.6902028503512306,0.465677537782462,0.4289237393767704,0.10080473165576906,0.21104815864022664,0.6480226628895184,0.44037930951244697,0.28725490196078435,0.05658852619282051,0.1764705882352941,0.4509803921568627,0.2926663540129644,0.2749999999999999,0.06030964747185855,0.11956521739130432,0.3804347826086956,0.2814063050228552,0.23180000000000003,0.05121742369346509,0.12,0.4,0.2372804248141848,0.26,0.0873009896066359,0.07692307692307693,0.5384615384615384,0.2739872871696276,0.5270588235294118,0.0466329771696622,0.38235294117647056,0.6323529411764706,0.5290766913489193,0.36692307692307685,0.06016922559122559,0.21153846153846156,0.5,0.3717263420485305,0.5938888888888889,0.09488857822547347,0.38888888888888884,0.8333333333333333,0.6012718002515816,0.4238202247191012,0.04707402978200659,0.3033707865168539,0.5280898876404494,0.426374515977759,0.5044203052113473,0.01772206136965871,0.47125934469737485,0.524714188117511,0.5047253058243809,0.5599689989808655,0.04149365029262927,0.5152800748168691,0.6617543535062496,0.5614735687224709,0.20951458041752088,0.22943338709151653,1.0,0.16124585046618603,0.15053786211837206,-0.8060884826376606
9,0.9085114652157018,0.024407244758697787,0.8650602409638556,0.9469879518072291,0.9088357335088376,0.8889090250090601,0.04695502321620788,0.797752808988764,0.9466292134831461,0.8901350019509826,0.6886375273472046,0.015053547912972965,0.6666666666666665,0.7272727272727271,0.68880027345846,0.8297491039426526,0.06054176016957159,0.7333333333333338,0.9083333333333341,0.8319311680297286,0.6943410532120206,0.09120581856677795,0.46474358974358987,0.9006410256410251,0.7002417820046456,0.6090527937024044,0.05212553320694542,0.5013262599469496,0.7506631299734748,0.6112553974480118,0.7052966945440065,0.06314287702538526,0.5308641975308641,0.7954144620811288,0.708087267954707,0.42443309024204745,0.03283736761599646,0.3564493758668516,0.5111012482662969,0.4256878507299359,0.475601829262492,0.052681565305108195,0.3551000394401629,0.6289107053393452,0.4784794717398976,0.49942928508331036,0.09587420644262595,0.29815297450424927,0.7322946175637394,0.508451214000236,0.2772506852203247,0.0962036780362298,0.0392156862745098,0.5392156862745098,0.2932977538372586,0.2769985974754557,0.05746300958602434,0.16304347826086954,0.48913043478260865,0.2828333698927797,0.23354838709677414,0.041116091245725045,0.13,0.41000000000000003,0.237101675027983,0.2622001654259716,0.050457279542495105,0.15384615384615385,0.46153846153846156,0.2669597125802643,0.5320999367488939,0.0221063252994429,0.4705882352941176,0.6029411764705882,0.5325540137670007,0.369106699751861,0.040424218568914747,0.25,0.5,0.3712900511638776,0.5875149342891279,0.08639176608742467,0.27777777777777773,0.861111111111111,0.5937651742665425,0.4154887036365832,0.08734776473155925,0.1797752808988764,0.6741573033707865,0.4244743287872734,0.08657823619360433,0.03560288504842848,0.03423263804773957,0.13228427650974306,0.0935399736499197,0.7538261770648326,0.056166636127648405,0.6476822705903198,0.8159729638405631,0.7558932959309295,-0.1922021508010253,0.03373172155710823,1.0,0.44414656872719227,0.06646536834855518,-0.24603988961710693
10,0.8707974756167531,0.026144689612127375,0.819277108433735,0.8987951807228917,0.8711836421892023,0.786828963795256,0.03268469136623992,0.7443820224719102,0.8483146067415733,0.7874967621189175,0.4924070638356352,0.043768948919609946,0.4155844155844153,0.554112554112554,0.4943177410701247,0.8502645502645508,0.07759790113580116,0.7291666666666665,0.9750000000000001,0.8537421515748546,0.7417582417582416,0.07395741459227134,0.5673076923076925,0.9006410256410251,0.7453778691158296,0.8016925603132499,0.05444540934489179,0.6525198938992043,0.9177718832891247,0.8035099323830073,0.772542761960751,0.06828231914198436,0.6649029982363315,0.9029982363315696,0.7755067934092945,0.41067247870021806,0.03004971238139539,0.34535367545076284,0.492371705963939,0.41175300469741255,0.43960909062760606,0.05260127966452924,0.35109206613155963,0.5696118874782813,0.4426952995261158,0.5256977382076532,0.047410565138162115,0.42492917847025496,0.6210991501416431,0.5277974942024926,0.274354186118892,0.08859460300645819,0.05882352941176469,0.5588235294117647,0.2880878958977656,0.27363699102829525,0.06679199205730976,0.14130434782608695,0.46739130434782605,0.2815449534915498,0.23285714285714296,0.05068653099160696,0.13,0.43,0.2382242507613228,0.2657712657712657,0.05435413373690303,0.15384615384615385,0.41025641025641024,0.27118599295061685,0.5331465919701216,0.02317213541028738,0.48529411764705876,0.6029411764705882,0.533641933703613,0.36874236874236876,0.045369114900916545,0.2692307692307693,0.4807692307692308,0.37147896140407405,0.588183421516755,0.09380710560516821,0.33333333333333326,0.8055555555555555,0.5954996485907302,0.41608703406456227,0.09413593139333173,0.12359550561797755,0.6629213483146067,0.4264379598462714,0.15858196932632798,0.032023997844850244,0.11544736940421663,0.21315157816610564,0.16173280148821143,0.8244521815302581,0.06727083329972763,0.7323220368261911,0.9471360758450837,0.8271486767517443,-0.39633754232949264,-0.7443504656784454,1.0,0.5426715070480981,0.5264298818539257,0.6279339423076574
11,0.5663640864829181,0.014538143492000473,0.5397590361445784,0.5927710843373495,0.566548092189898,0.42400338617823613,0.02486960133724214,0.3820224719101124,0.4803370786516855,0.42472213975571343,0.6070094289272366,0.031731652385427155,0.554112554112554,0.6666666666666665,0.6078269091193952,0.36073059360730625,0.03387805644423888,0.308333333333334,0.42083333333333384,0.36229623465313004,0.5337197049525817,0.09827624034195286,0.25,0.7724358974358974,0.5425703995748955,0.7454670978525489,0.06263985362988868,0.5490716180371353,0.9177718832891247,0.7480582833083109,0.4118769780870238,0.04579134703818503,0.328042328042328,0.5167548500881833,0.4143799809399737,0.43520224953926256,0.042357058782080244,0.3647711511789182,0.5305187239944522,0.43723053580523125,0.46597917249836396,0.052433596983664364,0.35709336659098423,0.5649536844573779,0.46887973926837173,0.4903861228608017,0.09486138287224977,0.23512747875354106,0.7025495750708215,0.4993535439335427,0.27652430835347847,0.07597527750213709,0.06862745098039214,0.6274509803921569,0.28663367576548693,0.2759082787373437,0.04109684948610369,0.18478260869565216,0.4130434782608695,0.2789107258566842,0.23260273972602746,0.02619517540715985,0.15999999999999998,0.29,0.23405303227646554,0.26167896030909704,0.04186265632807328,0.1794871794871795,0.3846153846153846,0.26496104177901975,0.5324335213537474,0.015298301045659699,0.49999999999999994,0.5735294117647058,0.532650247982511,0.3709167544783983,0.05261483754374062,0.25,0.6153846153846154,0.37457928089429327,0.5970319634703201,0.10196997439846907,0.16666666666666663,0.8888888888888888,0.6055597447245936,0.41911651531476046,0.08249663986766835,0.1348314606741573,0.6292134831460674,0.427049318337284,0.5131639922052528,0.01744128867810904,0.48194089800923323,0.5369906173851454,0.5134562438449366,0.45113428636957803,0.04097736218476226,0.3885999121883794,0.5316734932882075,0.45296609870310156,-0.383008228527654,-0.04337111905726617,1.0,0.7536700753676503,0.39748626376162227,-0.08713372436543732
12,0.5288331407823073,0.016407390503999367,0.48915662650602415,0.5590361445783134,0.5290841195385244,0.37332615053101453,0.008029597870610125,0.3595505617977528,0.3932584269662921,0.37341130928338995,0.5665658542370864,0.01892403287565261,0.5064935064935061,0.5974025974025969,0.5668774827664923,0.3467465753424662,0.010853048641112747,0.3250000000000006,0.37083333333333357,0.34691405655173646,0.5550140498770634,0.07418487872404056,0.3782051282051282,0.740384615384615,0.5598826687822818,0.7897242106028123,0.05668416372975702,0.6604774535809019,0.9098143236074271,0.7917281150988341,0.4189799714913869,0.04322685631556587,0.3156966490299822,0.54673721340388,0.4211735757266329,0.47099743506925307,0.03380057051036667,0.3904244105409154,0.5513120665742025,0.4721921346415199,0.47158227479353043,0.08003251438245743,0.2518307697227463,0.6109281229680321,0.47823352323531293,0.4707791532461485,0.1049615432693731,0.26770538243626063,0.6940509915014165,0.4821815217406,0.27961321514907345,0.06917208391523628,0.12745098039215685,0.5,0.2879284327504341,0.2773972602739726,0.05771881250243519,0.13043478260869562,0.46739130434782605,0.28325794758100664,0.2367123287671233,0.040105928992293094,0.15999999999999998,0.4,0.2400399510127258,0.2704601334738318,0.11656887481961652,0.051282051282051294,1.0,0.2941952502067406,0.5306204673650284,0.07339667040511236,0.32352941176470584,0.9117647058823528,0.5356037304920339,0.3682824025289779,0.06078525707584759,0.11538461538461536,0.5961538461538463,0.3731972148091171,0.5985540334855403,0.08282265022304813,0.3055555555555555,0.8333333333333333,0.6041792411084946,0.42004001847006295,0.05423054581926287,0.19101123595505617,0.5617977528089888,0.42347878601072764,0.5554086387323297,0.008339427240246642,0.5401467784683492,0.5711328368884564,0.5554703856549184,0.45889147851534745,0.019526119642755004,0.42705510476415376,0.5226081178527584,0.459301029320118,0.3254514719740216,-0.5232179750479341,1.0,-0.14600702153735656,0.4194209508160946,-0.13541717575141002
13,0.8720367183017784,0.020961308766743562,0.8361445783132531,0.9012048192771087,0.8722862087606258,0.8277956126270727,0.03593699707501833,0.7752808988764046,0.8764044943820225,0.8285678875930812,0.6578437435580289,0.02051604317569702,0.6277056277056277,0.722943722943723,0.658160535369713,0.7675793650793651,0.054749029648535875,0.6833333333333336,0.8458333333333337,0.7695108775974133,0.6801587301587299,0.08965846294374198,0.47435897435897445,0.9070512820512815,0.685986865553995,0.6328659845901226,0.052330991390781866,0.4641909814323607,0.7639257294429709,0.6350053589126153,0.672814310909549,0.05360926891681908,0.5361552028218693,0.7901234567901234,0.6749264253907509,0.43868257050392984,0.048805706463861405,0.34812760055478503,0.5360665742024966,0.4413634658213288,0.479576036014909,0.051139286467643236,0.34243654930553336,0.6155863259889354,0.48226910954362245,0.5048158640226627,0.07909913720206899,0.32364872521246457,0.7117507082152975,0.5109169626351572,0.2812324929971989,0.10200604385568363,0.009803921568627416,0.5686274509803921,0.298994733471219,0.27805383022774327,0.05504942110626065,0.13043478260869562,0.45652173913043476,0.28339991169174683,0.23209523809523808,0.04096657263257537,0.13999999999999999,0.48,0.23564905302265943,0.26251526251526214,0.05134658285984387,0.15384615384615385,0.5384615384615384,0.26744275157831293,0.5298319327731098,0.022289251114299916,0.4558823529411764,0.588235294117647,0.5302961023529245,0.3668498168498168,0.04128808000936103,0.2692307692307693,0.5192307692307693,0.3691439534688914,0.587830687830688,0.0816354642631506,0.3055555555555555,0.8055555555555555,0.5934187362986115,0.4176565008025681,0.06851341205813659,0.0898876404494382,0.5955056179775281,0.4231859339557495,0.1408742239797828,0.031058590869333404,0.0985123026724275,0.1769289981687866,0.14422550411953758,0.7195463888299852,0.04696469768744153,0.6394820705407229,0.7886427662119828,0.7210628835295939,-0.2626588384418513,-0.15767103475292757,1.0,0.6877517535763852,0.3794766248383354,0.22368928716672887
14,0.8306936483799272,0.05278602371312716,0.7349397590361446,0.9012048192771087,0.8323528396525242,0.7591633031526128,0.02475200461957722,0.6910112359550562,0.8061797752808991,0.759562791620358,0.4454251250367754,0.06714928054081791,0.35497835497835517,0.5757575757575757,0.45040958131562087,0.8316747572815536,0.10062667846917628,0.6375000000000002,0.979166666666667,0.8376815160167737,0.7447099825740601,0.10353723543584006,0.44871794871794846,0.9711538461538458,0.7518037243816548,0.8022198758723702,0.12347404263883044,0.5384615384615384,1.0,0.8115753511497816,0.7882570503929726,0.08817540691964777,0.5784832451499117,0.9999999999999999,0.7931258383071982,0.44353920525699203,0.07707147910131773,0.32316227461858527,0.6310679611650486,0.45012150522142613,0.4695293953401826,0.09537299821544487,0.26048628654877254,0.6748851438499994,0.4790256267802202,0.5153539976346987,0.11902853761721731,0.26062322946175637,0.8562266288951841,0.5287910591710755,0.27879307062630865,0.07890655150854621,0.05882352941176469,0.47058823529411764,0.28964007169346523,0.2736386661038412,0.05956282128743172,0.13043478260869562,0.45652173913043476,0.27998465188173277,0.2287378640776698,0.0403095768227403,0.15,0.33999999999999997,0.23222854494522982,0.25790390838934485,0.05820815609279094,0.1282051282051282,0.41025641025641024,0.2643288110576621,0.5301256424900065,0.02803727788112383,0.4558823529411764,0.6911764705882353,0.5308593541088465,0.36855862584017934,0.03439019758434611,0.2884615384615385,0.5,0.37014411245588236,0.5914239482200648,0.0726265567041475,0.41666666666666663,0.8333333333333333,0.5958235421629975,0.418457510635977,0.06313943454169761,0.12359550561797755,0.5842696629213483,0.4231484038279645,0.19688106447351272,0.04161043659850838,0.1382171914113497,0.27505229765647754,0.20118839926135573,0.8407181699066308,0.07740421297188846,0.6674777792133344,0.9607445512254722,0.8442394709717173,-0.47157433409999755,-0.8876330519131489,1.0,0.54067900258064,0.523871038847877,0.6763092604802945
15,0.5033185373071233,0.01534208003050845,0.4771084337349398,0.527710843373494,0.5035482101578176,0.3911393652671003,0.07914686029138278,0.3117977528089888,0.5617977528089888,0.39892897846942244,0.6095541885015568,0.06391404355715102,0.47619047619047583,0.6796536796536796,0.6128373739662633,0.3195906432748541,0.06985478183924831,0.2583333333333333,0.4583333333333335,0.327004986519437,0.5195119208277101,0.13198452969504787,0.2467948717948718,1.0,0.5357302860564573,0.713434780585416,0.16190459967428358,0.29442970822281167,0.9496021220159152,0.7312608334977909,0.4064482193137162,0.1415109682738529,0.18518518518518512,0.7354497354497354,0.4299699839786568,0.4866897340438474,0.19376910852154058,0.130374479889043,0.9167822468793343,0.5232156865827088,0.5180842216720422,0.23295004620357834,0.0,1.0,0.5672080346096134,0.49649619800208744,0.14364831119154406,0.21388101983002833,0.8080679886685552,0.5165087581533283,0.27605779153766774,0.06964012432721803,0.1372549019607843,0.43137254901960786,0.2845567920569307,0.27402745995423333,0.06068408554717563,0.15217391304347824,0.5108695652173912,0.28055124445059326,0.2352631578947368,0.04309894194748267,0.15,0.36,0.23911019261111877,0.2649572649572649,0.04853767816923311,0.15384615384615385,0.3846153846153846,0.26928967074126503,0.5332817337461302,0.02350417432462615,0.4705882352941176,0.5735294117647058,0.533790372448939,0.3643724696356274,0.04854457344157217,0.13461538461538464,0.46153846153846156,0.36753575174018804,0.5847953216374269,0.10399073140227923,0.16666666666666663,0.75,0.5938096663589957,0.42262960772718317,0.06457199100192748,0.24719101123595505,0.550561797752809,0.4274484500960922,0.5647984871920675,0.034177736842712934,0.49955142511178396,0.5987240874275042,0.5658135342471327,0.430606100327978,0.09969114585869687,0.33227870394991044,0.6297526141962242,0.441798123163753,-0.5799784258058087,0.722760979835096,1.0,-0.3183658229815011,0.7340364422984614,-0.8192571778273043
16,0.5493975903614458,0.0708205552420163,0.46746987951807234,0.653012048192771,0.5538703524789508,0.3873233055454875,0.06886058533344235,0.29494382022471904,0.4803370786516855,0.39329968586961755,0.6267281105990782,0.02034140269826974,0.5887445887445888,0.670995670995671,0.6270528076056933,0.33057795698924747,0.07034322385163667,0.23749999999999982,0.42500000000000027,0.33786113361752507,0.5255376344086019,0.09341223828241933,0.33653846153846123,0.7852564102564101,0.5336430567194699,0.7762898947548561,0.04928111257039983,0.6710875331564987,0.8859416445623343,0.7778273955926345,0.3796154064971268,0.06640230779622369,0.27336860670193996,0.509700176366843,0.3852869140385411,0.37526285177397006,0.1326630696001322,0.05477947295423019,0.5686546463245492,0.39766548154793396,0.46037862556362136,0.08486890965094465,0.31712022853975463,0.6155863259889354,0.4680117921668556,0.5139135520424015,0.08848705653816509,0.32931444759206796,0.6671388101983002,0.5213547817787011,0.28352308665401643,0.07979169064883629,0.06862745098039214,0.5294117647058824,0.29436264305887117,0.2741935483870968,0.05034893871474882,0.17391304347826086,0.4130434782608695,0.27870455729668747,0.23161290322580644,0.040007931524583054,0.13999999999999999,0.35,0.2349879887115716,0.26261373035566576,0.05976235507311449,0.15384615384615385,0.4358974358974359,0.26922092226665534,0.5336812144212526,0.030638252905220407,0.4411764705882353,0.676470588235294,0.5345457892488361,0.3675558312655088,0.021494967882349444,0.3076923076923077,0.42307692307692313,0.3681736962168668,0.5896057347670254,0.037443661666507644,0.49999999999999994,0.75,0.5907743536389868,0.4188111634650237,0.036517596650775225,0.29213483146067415,0.5168539325842696,0.4203746149343679,0.5378977625783485,0.07117328558399719,0.4395314751095766,0.6209331280477233,0.5425107701712427,0.41477691124912075,0.05558385401744223,0.32507888162959864,0.49883235897166966,0.41842516564139437,-0.47096345245610194,0.08620250754892848,1.0,-0.19120968154448945,0.47011875616636506,-0.20635141968100404
17,0.8450140989489875,0.0074032818087147,0.8313253012048193,0.855421686746988,0.8450458389129406,0.7904613913459241,0.020253023049313177,0.7556179775280898,0.8370786516853933,0.7907152893500701,0.6186791931472779,0.01179793236405552,0.5974025974025969,0.6363636363636362,0.6187892805522479,0.7412234042553193,0.023202825409843728,0.7000000000000006,0.7791666666666668,0.7415787560458027,0.6847381342062191,0.09505932592991699,0.5288461538461537,0.8717948717948718,0.6911659183602422,0.6657824933687003,0.046152255409854744,0.5517241379310345,0.7824933687002653,0.6673462664569048,0.6654283462794102,0.054626597596170126,0.5608465608465608,0.765432098765432,0.6676192466135876,0.43724755806061333,0.06310519923381303,0.3293980582524272,0.6005547850208044,0.4416819717091185,0.4872327498048971,0.07606287908241408,0.34243654930553336,0.6995299158965176,0.49300934778356376,0.4751368814417456,0.06568657035332924,0.3633087818696884,0.6083626062322947,0.47956019326068977,0.2778473091364206,0.06211576290448661,0.1568627450980392,0.46078431372549017,0.2845617723085097,0.27058279370952815,0.04325521964376153,0.15217391304347824,0.358695652173913,0.27394571263118933,0.227872340425532,0.01840795789783722,0.19999999999999998,0.27,0.2285988775311695,0.2575013638843426,0.03740940970068943,0.1794871794871795,0.358974358974359,0.26014734384203203,0.5300375469336672,0.018129967352219778,0.4705882352941176,0.5588235294117646,0.5303409312411926,0.3698854337152209,0.02413034811421725,0.3076923076923077,0.40384615384615385,0.3706549864397892,0.5856973995271866,0.031099563955496876,0.49999999999999994,0.6388888888888888,0.5865049431437214,0.4188381544346163,0.016682424481565334,0.38202247191011235,0.449438202247191,0.41916319202699037,0.1759614115073226,0.013248741174072804,0.15600929712078715,0.1990311002690418,0.17644889577363831,0.7175196620197866,0.023928071302902476,0.6775565625178703,0.7638777782120594,0.7179100472978017,-0.38097829988323995,0.1168732137705207,1.0,0.32875761796391756,0.6957511084385556,0.1946336809083987
18,0.6679079956188393,0.02609217362303844,0.6144578313253013,0.7132530120481928,0.6684128238081484,0.6885852911133804,0.04950632610770121,0.6095505617977528,0.797752808988764,0.6903465063057255,0.4856749311294765,0.02293315805957186,0.45454545454545414,0.5454545454545454,0.486211155041475,0.6318181818181824,0.05240983979722807,0.5291666666666668,0.7125000000000004,0.6339684813565543,0.6858100233100233,0.10907416787831728,0.3653846153846154,0.9358974358974357,0.6943517883916444,0.6108753315649867,0.07809073023725123,0.40583554376657816,0.76657824933687,0.6158014249950234,0.693987493987494,0.06444085455947073,0.54673721340388,0.8747795414462081,0.6969458475538259,0.4262515193544316,0.059551974213590625,0.3141525658807212,0.5631067961165048,0.43035398806399133,0.4657233006086574,0.061433583173673395,0.33243793504098584,0.5882660185688551,0.46972115984534424,0.4807941282513519,0.11190865177588288,0.1954674220963173,0.8448951841359773,0.49353083964629785,0.27682709447415327,0.052568549864833024,0.16666666666666666,0.43137254901960786,0.2817296050737846,0.27401185770750985,0.04226712233807068,0.18478260869565216,0.40217391304347827,0.2772233157554013,0.2325454545454545,0.04051132730113579,0.13,0.36,0.2360161781819975,0.2627039627039623,0.04649321941604876,0.15384615384615385,0.3846153846153846,0.2667495836662349,0.5319518716577547,0.01960482772934604,0.48529411764705876,0.6029411764705882,0.5323097302757196,0.370979020979021,0.023638407809554254,0.3076923076923077,0.42307692307692313,0.3717245331744245,0.5863636363636371,0.034760774631181206,0.49999999999999994,0.6666666666666666,0.5873837253899481,0.4165474974463734,0.0366767677063638,0.24719101123595505,0.5280898876404494,0.41814444150442454,0.33253105888778867,0.03202877216666863,0.28737075566246706,0.38489244813828094,0.33405601556166253,0.742304888396943,0.05570027314962812,0.6293216369184733,0.8558217213466544,0.7443727984254721,-0.28083572844377047,0.15219399839450284,1.0,0.5583967388014273,0.1772804080330703,-0.4467918213087856
19,0.3757506215337542,0.028671311827826455,0.3132530120481928,0.39999999999999997,0.3768255901415604,0.4550561797752806,0.10128706934818239,0.3342696629213482,0.6404494382022472,0.46601754771815457,0.408987837559266,0.0386248833831952,0.35497835497835517,0.47186147186147176,0.41077883614810634,0.42162698412698413,0.06204970919069869,0.3333333333333335,0.5041666666666669,0.4260966632140137,0.6172161172161172,0.10155220022959724,0.40064102564102555,0.8942307692307696,0.6253837931231049,0.5556397625363143,0.16796888515850147,0.1724137931034483,0.7851458885941645,0.5800872848315637,0.6035105400184765,0.10081309075539424,0.43915343915343896,0.7901234567901234,0.611740900453706,0.38276855337604293,0.05207395083208335,0.2884882108183079,0.5242718446601942,0.38623881085354567,0.43927069369172284,0.06788167504163638,0.2891390319038939,0.5809429396778698,0.4444024330793995,0.42074733576150014,0.1114341251898603,0.13456090651558072,0.6090651558073654,0.4350273331788212,0.2763772175536884,0.020448241161152104,0.2156862745098039,0.32352941176470584,0.27712065956218945,0.2776052449965493,0.04945836721220415,0.15217391304347824,0.3804347826086956,0.2819077414247226,0.2328571428571429,0.048039921954375495,0.12,0.39,0.23768393044892785,0.26332926332926326,0.05472448187985621,0.10256410256410256,0.41025641025641024,0.26886713043433813,0.5336134453781516,0.017000442251739804,0.48529411764705876,0.5735294117647058,0.5338798896613637,0.36965811965811973,0.023283925912803413,0.3076923076923077,0.42307692307692313,0.37037907772864653,0.5890652557319225,0.027398272327493853,0.5277777777777777,0.6388888888888888,0.5896919751144689,0.4178705189941144,0.03659592982004224,0.24719101123595505,0.4831460674157303,0.41944460253478016,0.6104539746329676,0.034084676529692534,0.5601865643852999,0.6620855152836203,0.6113897117242583,0.6450324332739774,0.08953244212974129,0.5204589245238889,0.7779955279242949,0.6511187749943291,-0.04994562050687144,0.8530060970431889,1.0,0.2205769909360348,0.07300958377073408,-0.8883012744233266
20,0.32176983797257996,0.012903210297099642,0.30120481927710846,0.3469879518072289,0.3220239911850266,0.26080007748934536,0.012315137621204371,0.2387640449438202,0.2977528089887641,0.26108567207032185,0.6177041349455143,0.03221421542010318,0.5670995670995671,0.662337662337662,0.6185291114124641,0.2051005747126438,0.019621837589409333,0.17500000000000027,0.23749999999999982,0.2060209310777564,0.45153625110521645,0.07044653364632539,0.2788461538461542,0.6185897435897432,0.4569049530577241,0.7043354980334766,0.09015722440503836,0.5145888594164456,0.9283819628647215,0.7099835740114451,0.32034908471690077,0.04331025467078257,0.19400352733686055,0.39682539682539675,0.32321351029288914,0.48057066335071025,0.06237787915937298,0.34257975034674065,0.6005547850208044,0.4845328431367367,0.5059016892372463,0.0960776250909605,0.3477663010456973,0.7721424536045111,0.514789544954815,0.4974355768291491,0.0966645928394377,0.26770538243626063,0.669971671388102,0.5065817726742,0.26808654496281265,0.05875330414668872,0.10784313725490197,0.5196078431372548,0.2743407187167846,0.27173913043478265,0.05313287286499453,0.11956521739130432,0.42391304347826086,0.2767970068711752,0.2312068965517242,0.03179305817461375,0.15,0.36,0.23334523779156072,0.26702033598585323,0.042699350661967436,0.15384615384615385,0.358974358974359,0.27035469165256937,0.5344827586206901,0.02034571224790034,0.48529411764705876,0.588235294117647,0.5348631883342277,0.3696949602122016,0.05004968768654255,0.23076923076923078,0.4807692307692308,0.37300957854263506,0.589080459770115,0.05011320860702544,0.4444444444444444,0.7222222222222221,0.5911715680776292,0.4180550174351028,0.018913940120356167,0.3595505617977528,0.4606741573033708,0.4184752882213879,0.729033407628502,0.007435773705793268,0.7138997038265111,0.7438585234203517,0.7290706734470745,0.35184987357121217,0.031056217610625467,0.30512857935552606,0.4019508549450741,0.3531942710034551,-0.1040773468842509,-0.44153348932577036,1.0,-0.12848614016096044,0.5153014185057689,-0.1517305465756189
21,0.7488718510405257,0.01525886625120785,0.7180722891566267,0.7710843373493977,0.7490244648560394,0.8043922369765064,0.02852535753736121,0.7500000000000001,0.8342696629213485,0.8048886708468221,0.5483667847304209,0.004333374854427411,0.5411255411255409,0.5584415584415581,0.5483835950432184,0.7231060606060609,0.029021000691005938,0.6708333333333338,0.7625000000000006,0.72367760798786,0.6826340326340324,0.08040666455970129,0.5128205128205128,0.833333333333333,0.6872677095196914,0.5546660236315407,0.05383464124838569,0.4244031830238727,0.6816976127320955,0.5572251541298653,0.7343594676928005,0.03886077053982249,0.6296296296296295,0.8148148148148147,0.7353682953675562,0.4201992182574708,0.03975979550705568,0.3550624133148405,0.5104022191400832,0.4220420379454595,0.4854793336453661,0.05572055583155599,0.38240968735676295,0.5922739918774583,0.48860875267155235,0.4884112284316251,0.08164139273025092,0.3031161473087819,0.6161473087818696,0.49506530628097917,0.27397504456328,0.05025382274776604,0.14705882352941174,0.38235294117647056,0.27846338095245826,0.2713438735177865,0.03718337805761636,0.17391304347826086,0.358695652173913,0.2738338237911284,0.23327272727272727,0.032033231902634275,0.13999999999999999,0.31,0.23542225120756188,0.2638694638694639,0.037798246144674405,0.15384615384615385,0.3333333333333333,0.2665142113959005,0.5355614973262033,0.018707025828568757,0.48529411764705876,0.5735294117647058,0.535882176840371,0.37237762237762245,0.02380258529158265,0.3269230769230769,0.42307692307692313,0.37312378049048195,0.5868686868686868,0.028315043648269818,0.5277777777777777,0.6666666666666666,0.587538952072133,0.41716036772216547,0.03663619191753747,0.23595505617977527,0.5056179775280899,0.41873688532057896,0.22826708663786055,0.021254225131781226,0.20206770142326524,0.2676924212027215,0.2292365403586808,0.7864739501543949,0.02635728741973257,0.7369857381863489,0.8176496331394179,0.7869074595163591,-0.29138777636501273,0.1228933704855369,1.0,0.3508395900203558,0.45617013978751997,-0.05575033910687959
22,0.7418917047500351,0.021361861758053793,0.6819277108433737,0.7759036144578314,0.7421956518009114,0.6959188944853414,0.04111254045524917,0.6095505617977528,0.7528089887640449,0.6971182974410531,0.354978354978355,0.027836823169118383,0.32034632034631993,0.44588744588744555,0.3560556339398991,0.780747126436782,0.0541302851109655,0.6208333333333336,0.8375000000000004,0.7825998236875347,0.7632625994694959,0.09049800623769978,0.5865384615384612,0.9775641025641022,0.7685476876715132,0.7965181865300778,0.0604121984823186,0.6631299734748011,0.9257294429708223,0.7987796350594407,0.8171461006710049,0.06568580613168859,0.6437389770723103,0.9329805996472662,0.8197516584775729,0.4252712866867536,0.06205631637680521,0.28501525658807214,0.5402163661581137,0.42972361986624025,0.46181134859749706,0.07235451161230552,0.28314839094794964,0.6249133915342223,0.4673807041532379,0.48813167920289147,0.09794330203663751,0.24929178470254956,0.7181303116147308,0.4977501015038264,0.281383817894974,0.06523973390944592,0.11764705882352941,0.49019607843137253,0.2887631447253123,0.28023488255872064,0.1009285766811412,0.07608695652173911,1.0,0.29765933530604266,0.232183908045977,0.09791340843822895,0.0,1.0,0.25176617504452764,0.25641025641025617,0.10701436382038096,0.02564102564102566,0.8205128205128205,0.2776088266266715,0.5270453008789727,0.04963623829441299,0.2647058823529411,0.6617647058823529,0.529350721445051,0.3662687886825819,0.037316134031125575,0.2692307692307693,0.46153846153846156,0.3681430615202387,0.5852490421455941,0.043364028635225656,0.47222222222222215,0.6944444444444444,0.5868349564150622,0.4174092728916442,0.03147974036992904,0.3033707865168539,0.5168539325842696,0.41858103712820544,0.2802764090317833,0.026936968980474502,0.2548892623015345,0.35947887868805184,0.281553059873797,0.8692000851843215,0.054008365488479,0.7184824502500453,0.9382229059569476,0.8708571432791035,-0.2945905248663187,-0.04971681654893051,1.0,0.3144346072785296,0.43317549918841824,-0.05695827114179415
23,0.3047848537005162,0.006910426060656416,0.28915662650602414,0.31807228915662655,0.30486206525862086,0.4325441412520063,0.05078631883628223,0.3567415730337078,0.5196629213483146,0.4354731195851472,0.408225108225108,0.009245104962388718,0.3896103896103895,0.4285714285714284,0.40832828694946477,0.3875595238095243,0.02265016157592895,0.34583333333333366,0.42500000000000027,0.38821139256526277,0.6065934065934067,0.05233009595302037,0.44871794871794846,0.7147435897435894,0.6088143225226599,0.48715422508525946,0.07590139590045061,0.3076923076923075,0.6180371352785146,0.492948233190063,0.5889644746787602,0.04451134382705218,0.5079365079365078,0.7072310405643738,0.5906201050188687,0.4185261739647315,0.05572015746972832,0.32454923717059636,0.5353675450762829,0.42216648477977964,0.48193366438705576,0.05550487603938383,0.37641904640081864,0.5955997569633207,0.4850740529340949,0.4547859166329424,0.037782301523287945,0.3555240793201133,0.5212464589235127,0.4563302963708877,0.2707282913165267,0.05300094657702607,0.05882352941176469,0.4019607843137255,0.27579481150376534,0.27888198757763977,0.06684806851062629,0.14130434782608695,0.5543478260869565,0.28667052376892116,0.23742857142857143,0.06210523360722404,0.07999999999999999,0.49,0.24530447552844542,0.2659340659340658,0.07027800211401894,0.1282051282051282,0.48717948717948717,0.2749352067252578,0.535294117647059,0.0971421017602898,0.0,0.8676470588235294,0.5439132025635035,0.36758241758241766,0.05098957045895239,0.25,0.576923076923077,0.371052055733752,0.583730158730159,0.08545250411979174,0.33333333333333326,0.7777777777777777,0.5898632998602689,0.4131621187800964,0.04466496411606416,0.23595505617977527,0.5168539325842696,0.4155350719250827,0.6644159771132235,0.02275825597084121,0.6275790309499649,0.6959331447552994,0.6648000674945803,0.625717221744359,0.029079685851353152,0.5675742980966019,0.6760977344431265,0.6263829414302778,-0.010614807726997959,0.8910254094836964,1.0,-0.07711251119045916,0.4793183488200682,-0.7588421251728636
24,0.1416583982990787,0.016372941214820035,0.11325301204819277,0.16144578313253016,0.14259039662713643,0.12267019167217448,0.01466904077700537,0.0955056179775281,0.14887640449438205,0.12353390281167385,0.5938884644766995,0.03656537987600019,0.5411255411255409,0.6666666666666665,0.5949998365667776,0.1504901960784315,0.01781059136142414,0.11250000000000027,0.17500000000000027,0.151528163434147,0.4377073906485672,0.055427247149678074,0.33012820512820484,0.5608974358974361,0.4411618708184872,0.7193321891090652,0.057495783944154395,0.6233421750663131,0.8514588859416445,0.7215993847730443,0.29749974063699536,0.031186112024130408,0.22045855379188706,0.3686067019400351,0.29911072735712124,0.4716573386636208,0.043309642121210856,0.34812760055478503,0.5561719833564494,0.473618309255239,0.4798734152610233,0.055393738418397176,0.3590866937418055,0.6422350846897551,0.4830226302433796,0.49084325945675733,0.04973555822449459,0.32224362606232293,0.5906515580736544,0.49332710205967956,0.2790080738177625,0.04853997237649485,0.1372549019607843,0.43137254901960786,0.28314998677390757,0.2736572890025576,0.07147703846176473,0.021739130434782594,0.5,0.28273162779755556,0.2305882352941176,0.0780468867195268,0.01999999999999999,0.6599999999999999,0.2432911593858152,0.26214177978883835,0.08053938171450037,0.07692307692307693,0.717948717948718,0.27409595376559887,0.5247404844290658,0.058832797094947736,0.3676470588235294,0.838235294117647,0.5279897279869749,0.3662895927601811,0.09863581877793218,0.0,0.7884615384615385,0.3791868027710796,0.5970588235294119,0.08471338853805828,0.3055555555555555,0.8055555555555555,0.6029686303684662,0.42220753469927297,0.06321342795315008,0.15730337078651685,0.5955056179775281,0.426858441173798,0.8892764177085548,0.013086269465514628,0.8734196335790351,0.9139852159634598,0.8893715662364774,0.320440959569408,0.0307539343068547,0.2584601280291301,0.36506495880060785,0.3218960794008504,0.1575947766679099,0.0762276439791149,1.0,0.36160572163992805,0.4145107981333589,0.4550911828377065
25,0.5910418143160883,0.016476124720778113,0.5542168674698796,0.6144578313253013,0.5912687166400831,0.7279246530072706,0.042235373491742056,0.6460674157303371,0.8033707865168541,0.72913451504671,0.5214158390628979,0.005109320446949168,0.5108225108225106,0.5324675324675323,0.5214405769228357,0.5861274509803927,0.028444781361070853,0.516666666666667,0.6375000000000002,0.5868091474152359,0.641628959276018,0.07362580859400923,0.5064102564102559,0.8397435897435894,0.645789987092803,0.42830394757372436,0.07153095655508498,0.23872679045092826,0.5305039787798409,0.434166734151925,0.6972507521527129,0.05244861419330733,0.5802469135802468,0.8465608465608465,0.6991974724519918,0.43894173125560926,0.0823637741984887,0.3224743411927878,0.6428515950069349,0.4465129622177577,0.48616791476911836,0.051281800776866907,0.3917367529020498,0.6848730986110667,0.4888334331310447,0.4801786368938509,0.07204355709460984,0.36827195467422097,0.6784702549575071,0.4854902011365669,0.2764705882352943,0.046720108435763505,0.1568627450980392,0.588235294117647,0.2803445648869046,0.2760869565217392,0.041532550379440876,0.15217391304347824,0.43478260869565216,0.27915706464425794,0.23200000000000007,0.03760065855552963,0.13999999999999999,0.39,0.23499186469022332,0.26274509803921553,0.039940212815475676,0.15384615384615385,0.358974358974359,0.26572813144680235,0.5330449826989626,0.018139982338024135,0.48529411764705876,0.5735294117647058,0.5333499238378937,0.3701357466063349,0.022187111418172322,0.2884615384615385,0.42307692307692313,0.3707923238710568,0.5875816993464059,0.03724459426806102,0.5277777777777777,0.7777777777777777,0.5887470540749372,0.41863846662260396,0.01892508033171641,0.348314606741573,0.4943820224719101,0.41906098693427374,0.3624802954732053,0.021103011866488487,0.326346724149691,0.4187545826491601,0.36308685249684247,0.7369680237044405,0.036662289096152156,0.6645437835812371,0.8059278032851844,0.737868672724108,-0.22745470425109882,0.5641249582101824,1.0,0.08060793822434062,0.37099227602229573,-0.6841226100267702
26,0.5712157721796276,0.004409586903918674,0.5614457831325302,0.5783132530120483,0.5712324827142239,0.5246680286006126,0.017388953119272407,0.4943820224719102,0.553370786516854,0.5249508721646331,0.44218811491538756,0.021874971929564252,0.39826839826839855,0.47186147186147176,0.44271903404708157,0.5110606060606063,0.023532250955164338,0.47916666666666696,0.5541666666666676,0.511592260901337,0.6670745920745921,0.06800797507029303,0.5032051282051282,0.8621794871794872,0.6704696142376939,0.6949602122015918,0.030645672694502735,0.636604774535809,0.7453580901856764,0.6956233019470575,0.6165464165464166,0.04588764009485393,0.5502645502645501,0.7319223985890652,0.6182207326354935,0.44564387845164555,0.046124790359639296,0.37795284327323164,0.5582579750346741,0.44798133994229733,0.4785632539781751,0.07853812369672224,0.3297730591709038,0.6262458294692633,0.4848493324432232,0.4867749678083955,0.023735741242154235,0.45325779036827196,0.5531104815864023,0.48734280678598924,0.27593582887700546,0.06443845016850228,0.11764705882352941,0.5490196078431373,0.28322676233456473,0.27588932806324107,0.05468858187099269,0.11956521739130432,0.40217391304347827,0.2811607785577666,0.23109090909090915,0.05332196848609702,0.07999999999999999,0.36,0.23705388723778703,0.26386946386946386,0.05955834710256716,0.10256410256410256,0.3846153846153846,0.2703882323377244,0.5339572192513371,0.018313646605704927,0.48529411764705876,0.5735294117647058,0.5342654804953678,0.3695804195804196,0.028353076689190394,0.25,0.42307692307692313,0.37064668781288135,0.5934343434343435,0.04187657563580052,0.49999999999999994,0.6666666666666666,0.5948832516156003,0.4124616956077629,0.06628517731790307,0.2584269662921348,0.6179775280898876,0.4176583402393365,0.4647152750069404,0.009101322439041893,0.4510141289893248,0.48437721970904557,0.46480276980770363,0.6608588569505746,0.030670516064024538,0.619334964351365,0.7200292992675832,0.6615572583554832,-0.3622357054732239,0.3704312808207179,1.0,-0.09510580441322132,0.6873112250551707,-0.4499639424926782
27,0.1886580805982552,0.006830545502607024,0.17831325301204823,0.20000000000000004,0.1887795627365981,0.23779542812863222,0.04090812941117145,0.1882022471910112,0.3061797752808989,0.24122870408113567,0.46775638154948496,0.03679919409088234,0.4025974025974022,0.5151515151515151,0.4691767952735386,0.25804597701149457,0.033240569653077034,0.21666666666666679,0.3166666666666673,0.26014152131313306,0.5391246684350134,0.06579457945761737,0.4326923076923075,0.7692307692307692,0.543055888591743,0.614790085063569,0.06846260989227665,0.4456233421750663,0.7082228116710876,0.618524991473726,0.4414036368059354,0.057880722098949657,0.3509700176366841,0.5767195767195765,0.44511749784377985,0.42455516763116374,0.03316574476291216,0.3578363384188627,0.4916837725381415,0.42582636372843574,0.4678924728099959,0.061644430892355724,0.3737541705307367,0.5776065150885272,0.4718663837492974,0.4617680961219107,0.03971228396927559,0.3640226628895184,0.5262096317280454,0.4634432536024894,0.28127112914131175,0.04700744301712467,0.1764705882352941,0.4117647058823529,0.2851053305653265,0.2713643178410794,0.047748251500414944,0.18478260869565216,0.42391304347826086,0.2754617577364048,0.23172413793103458,0.032451741825199665,0.13999999999999999,0.3,0.23394664879574284,0.26215738284703816,0.056021047903345084,0.1282051282051282,0.3846153846153846,0.26797526298525165,0.5309330628803246,0.02549956987667772,0.4705882352941176,0.5735294117647058,0.5315345092227695,0.3706896551724139,0.03616509706787809,0.3076923076923077,0.5,0.3724193663763375,0.5929118773946362,0.043393933527881255,0.5277777777777777,0.7222222222222221,0.5944704044175749,0.41902363425029054,0.024364299638396092,0.3707865168539326,0.4831460674157303,0.41971918033987426,0.814574146445726,0.014126594913372066,0.7915446822501981,0.8330945165520299,0.814694519461242,0.47622401427171995,0.04872906134044877,0.415726809079904,0.5616492773240902,0.4786678317619901,-0.4852557707116689,0.8649875064359802,1.0,-0.2741446632009599,0.6115208570167202,-0.84207949734398
28,0.12915662650602414,0.06822992571893466,0.012048192771084338,0.219277108433735,0.14578105055857674,0.1916751787538304,0.08148930365712438,0.0589887640449438,0.2780898876404494,0.2079883272614311,0.6685556867375045,0.07209600492871181,0.5844155844155843,0.8138528138528136,0.6723615352801967,0.12780303030303058,0.060895318419908376,0.01666666666666705,0.20416666666666705,0.14133093015395426,0.3916083916083915,0.12632177155558777,0.11217948717948723,0.6089743589743586,0.41112551808461784,0.5894381480588378,0.07306376967554894,0.4297082228116711,0.689655172413793,0.5938674806416858,0.2649991983325316,0.08849134180495463,0.04761904761904767,0.38624338624338617,0.2791288519808621,0.3969987139074518,0.22492101623729496,0.023578363384188616,0.7364771151178918,0.4552775350940275,0.4171614129850196,0.11283566224029648,0.20718876914713313,0.6942001641563535,0.43188429273158396,0.4832859129539015,0.13700547502477162,0.20963172804532576,0.6919206798866856,0.501990529815924,0.2832442067736186,0.07048711608776254,0.10784313725490197,0.5098039215686274,0.291728262343599,0.26877470355731226,0.05692191367278784,0.13043478260869562,0.42391304347826086,0.27462890332595635,0.2285454545454547,0.04106986738150011,0.12,0.32999999999999996,0.23214023974548423,0.25967365967365963,0.06694633163525956,0.1282051282051282,0.48717948717948717,0.2680125619615522,0.5328877005347594,0.02899536894602645,0.4705882352941176,0.6176470588235293,0.5336616407197688,0.3667832167832167,0.04575662181392204,0.2884615384615385,0.4807692307692308,0.3695747960220781,0.5787878787878787,0.044969772262511455,0.49999999999999994,0.7222222222222221,0.5805005773591043,0.4194075587334014,0.023394957075894552,0.3707865168539326,0.47191011235955055,0.42004770323564256,0.8762258170341111,0.0712000387896776,0.7872844619984233,0.9999999999999999,0.8790614064011419,0.2718937756981794,0.09158424745576034,0.09715761427554503,0.38117626970222274,0.2866380932026785,-0.6447386296501201,0.07286953358803241,1.0,-0.14844246777876574,0.5986180890809646,-0.2940730447170068
29,0.38266312001251757,0.04012540213505633,0.2963855421686747,0.4216867469879519,0.38473393611855056,0.29498030059827823,0.012068965097466225,0.2780898876404494,0.3146067415730337,0.29522389126275134,0.935795805925676,0.020978606390973212,0.9004329004328999,0.965367965367965,0.9360278717563718,0.0709415584415586,0.021608115323454233,0.03750000000000009,0.09583333333333366,0.07411849693093898,0.2022977022977022,0.06194708982997896,0.048076923076922906,0.3141025641025639,0.21145204038987725,0.6090116779771954,0.04982194364888709,0.4854111405835544,0.687002652519894,0.6110198141462824,0.09645204883300108,0.022761537898487227,0.05467372134038806,0.14462081128747784,0.09906743622957459,0.44899760433741026,0.04262677405725222,0.3786407766990291,0.5263467406380028,0.45099034648309605,0.49628170215935236,0.05160237008145849,0.3830705765725433,0.6082632470979501,0.4989225898055845,0.526719105257349,0.05533747214840691,0.40793201133144474,0.6295977337110482,0.5295804777089741,0.273109243697479,0.05894625754312165,0.16666666666666666,0.46078431372549017,0.2793173728936346,0.26933935629587796,0.048534108598910615,0.14130434782608695,0.3695652173913043,0.2736213750111379,0.22909090909090915,0.03724675253176684,0.12,0.29,0.23206022505364426,0.2627372627372626,0.0664425596011669,0.07692307692307693,0.41025641025641024,0.27090247380049376,0.5305576776165014,0.028000815625380322,0.4705882352941176,0.6029411764705882,0.5312864693761069,0.3713786213786214,0.021218098101615818,0.3269230769230769,0.42307692307692313,0.3719763987823106,0.591630591630592,0.03981380658500665,0.49999999999999994,0.6944444444444444,0.5929513554454893,0.41850284546913774,0.03204844227669453,0.2584269662921348,0.5393258426966292,0.4197122768309766,0.689098930353598,0.02943696662348597,0.6570387416631343,0.7471075584810896,0.689719230641799,0.08444179267761201,0.02325671085151965,0.047046842730783744,0.11487784932096412,0.08754579718518901,-0.5164672336542264,-0.8296238397039223,1.0,0.48382172819815145,0.44910713289351084,0.4368093790189153
30,0.39418473895582323,0.012689498952605623,0.3710843373493976,0.41445783132530123,0.394386212779922,0.41168539325842646,0.021138103901020337,0.3848314606741573,0.4803370786516855,0.41222048089146296,0.312207792207792,0.01316057341764459,0.27705627705627656,0.3333333333333335,0.31248135442835,0.4705000000000004,0.016133941057722142,0.4416666666666673,0.516666666666667,0.47077285747304254,0.6826495726495724,0.08761219692997688,0.48076923076923084,0.8685897435897432,0.6881743898137516,0.6725729442970824,0.05550497553217689,0.5092838196286472,0.7798408488063661,0.6748289341345374,0.6584362139917694,0.0380716328158824,0.5890652557319223,0.7477954144620811,0.6595213196943768,0.4469527138233934,0.05763409168778391,0.3183023578363384,0.615112343966713,0.4506041807822506,0.4793135279758669,0.05876139105677446,0.341775660089753,0.6069201496594289,0.4828543470846533,0.4716526534466476,0.08662640349420025,0.27975070821529746,0.6890878186968838,0.4794374872373934,0.2832679738562091,0.06356882894402219,0.1372549019607843,0.47058823529411764,0.29022036640985777,0.2753623188405797,0.061209948627082046,0.13043478260869562,0.43478260869565216,0.28199487408588125,0.2325333333333334,0.04239751820035637,0.15999999999999998,0.4,0.23631617239057784,0.259145299145299,0.061603876835727524,0.1282051282051282,0.41025641025641024,0.2662718971435316,0.5313725490196083,0.02285056773964005,0.48529411764705876,0.6029411764705882,0.5318570976477976,0.37076923076923085,0.02674428306751069,0.2692307692307693,0.42307692307692313,0.37171970946710864,0.5859259259259262,0.057614499404687734,0.41666666666666663,0.75,0.5887141599621312,0.41797752808988764,0.06173560632974746,0.23595505617977527,0.6629213483146067,0.42245198773649495,0.615606928485965,0.00897568264956643,0.5982487960893728,0.6352853661065343,0.6156714863522831,0.7108486901992788,0.022127739379411492,0.6774281429043068,0.7817180496149965,0.7111884199821727,-0.403205392535981,0.09576200063530478,1.0,0.3830489117894899,0.35614937271510205,-0.3365304522743181
31,0.07475979868842465,0.01732455694103553,0.04337349397590362,0.10120481927710843,0.07671615559432288,0.04746835443037969,0.017637566678694757,0.011235955056179775,0.10112359550561795,0.05060030297913813,0.4954792043399634,0.02078196632843058,0.4415584415584419,0.5238095238095237,0.4959093315256715,0.1880801687763716,0.014475858199996935,0.16666666666666652,0.22916666666666652,0.18862939277846383,0.5017851346965269,0.052649990654660375,0.3878205128205128,0.6249999999999996,0.5045049593793891,0.7796393915992347,0.04981961907982688,0.6286472148541115,0.8992042440318303,0.7812094198915407,0.35492152791730835,0.026142984298901835,0.30335097001763656,0.4708994708994708,0.3558708969136776,0.4491038115135447,0.03670115608395111,0.34951456310679613,0.5312066574202496,0.4505820214558446,0.4798206828639845,0.06259636796496365,0.34043256265123173,0.651562150235042,0.4838352965477224,0.46120988274106206,0.035725433688764,0.38243626062322944,0.5587762039660057,0.46257400139909793,0.283693224125093,0.07222048934752233,0.0784313725490196,0.5490196078431373,0.29262881218858317,0.27504127682993956,0.045532386188072205,0.09782608695652173,0.3913043478260869,0.2787376170112939,0.2281012658227848,0.036866910650897415,0.12,0.41000000000000003,0.2310241370479157,0.2609542356377797,0.04340555385832952,0.15384615384615385,0.358974358974359,0.264494435799312,0.5314594192107227,0.021158627634468408,0.48529411764705876,0.6029411764705882,0.5318751120897618,0.37098344693281415,0.0334722345028016,0.2692307692307693,0.46153846153846156,0.3724713763804609,0.5921237693389597,0.08147795703464428,0.24999999999999994,0.861111111111111,0.5976329827408261,0.42355283743421973,0.03304615220672181,0.348314606741573,0.5168539325842696,0.4248237644949018,0.9532225080844273,0.00632188092497458,0.9435681440299196,0.964079348605666,0.9532432062156032,0.39322647043522885,0.021802049306335003,0.36138299796948736,0.4531099015639748,0.39382276416890705,0.010491433803597993,-0.31195936155070514,1.0,0.00022197093515896322,0.008340998566279024,-0.7021431899609291
32,0.10227194492254739,0.03466170852945237,0.03855421686746988,0.1879518072289157,0.1079065401772232,0.10662118780096308,0.11851757556604085,0.0,0.3764044943820224,0.15878863411609156,0.29616573902288185,0.1497336272809821,0.0,0.4415584415584419,0.33138197917508094,0.3360119047619053,0.13320879546620035,0.22083333333333366,0.6375000000000002,0.3611026021586031,0.6232142857142856,0.08242190115385761,0.4262820512820511,0.8012820512820511,0.6285637338952422,0.7396741189844639,0.18310841829064042,0.40053050397877976,0.9946949602122017,0.7616872808560807,0.563517258755354,0.19132483282083562,0.35978835978835966,0.9964726631393297,0.5946713052264483,0.33714095502278585,0.17194056973708124,0.0,0.5742024965325936,0.3778958143597189,0.3761856032745994,0.13239819510617323,0.07994627610245914,0.6355728950145503,0.3984902406122369,0.4484414407122624,0.11404217267384895,0.2237960339943343,0.661473087818697,0.46251437638799203,0.28123249299719894,0.07232446174919237,0.1568627450980392,0.6176470588235294,0.290254744618875,0.27142857142857135,0.04513886975899598,0.14130434782608695,0.4130434782608695,0.27510339793814953,0.2308571428571429,0.026851327505728204,0.15999999999999998,0.3,0.23239129563241873,0.25897435897435894,0.04560765213098283,0.15384615384615385,0.358974358974359,0.26290314076814253,0.5321428571428576,0.021724932141174692,0.4705882352941176,0.5735294117647058,0.5325798068063549,0.37005494505494524,0.019489814450401047,0.3269230769230769,0.42307692307692313,0.37056050620296327,0.5892857142857147,0.0443368406404613,0.4444444444444444,0.7222222222222221,0.5909275135570007,0.41910112359550555,0.022823339030688543,0.3707865168539326,0.5393258426966292,0.41971325343181365,0.9060385122357193,0.054039455341803926,0.7355584685104761,0.9463633108540304,0.9076256554047505,0.6067763920413831,0.1835114533443435,0.4408263812005744,0.9999999999999998,0.633540015511516,-0.25814511375966775,0.8099696141404237,1.0,-0.4239050425328028,0.48645989544231677,-0.9552567432679466
33,0.3130137571562846,0.04655772407843172,0.20481927710843378,0.363855421686747,0.3164330270959622,0.2825723165192442,0.019782879678464878,0.24719101123595505,0.3455056179775281,0.2832590700614451,0.9255165638144359,0.06734055658867072,0.6450216450216448,1.0,0.9279458492310058,0.05330969267139512,0.03492664411123877,0.0,0.20416666666666705,0.06366429327325247,0.20892434988179664,0.10342374040394173,0.0,0.6217948717948718,0.23295920793724884,0.5517805745245219,0.08659426658002686,0.23076923076923073,0.7347480106100797,0.5584865155944865,0.10005378563298171,0.06455187517958345,0.0,0.39329805996472655,0.11894600375879055,0.46260619116475366,0.06682335815710953,0.34326768377253813,0.7011040221914009,0.4673737049417925,0.529124447283955,0.0965322447949553,0.40639357018750066,0.8307697227463144,0.537796491740692,0.4981017017258353,0.08681980852032835,0.2060963172804533,0.699014164305949,0.5055586273581858,0.277151995549993,0.06444731710748787,0.08823529411764705,0.47058823529411764,0.28449468919490445,0.27705827937095273,0.0777829721703188,0.05434782608695651,0.7282608695652173,0.2876952758967686,0.2351773049645391,0.07602257969914908,0.06,0.77,0.24707652359266818,0.2633206037461353,0.0920876208857183,0.051282051282051294,0.6923076923076923,0.27885072621786083,0.5326449728827709,0.03353881809038633,0.42647058823529405,0.6617647058823529,0.5336923662374852,0.36974904528096014,0.022209997606779688,0.3269230769230769,0.44230769230769235,0.3704107746972736,0.5923955870764384,0.03426226365180412,0.49999999999999994,0.6666666666666666,0.5933785543369804,0.4178022153159611,0.026744770870460576,0.24719101123595505,0.5056179775280899,0.41865128802429297,0.7386674364403125,0.03193116645942065,0.7012213289325049,0.8070362702010325,0.7393523854343097,0.08270713182446886,0.06443497618483915,0.0,0.3589617083206007,0.10470382013713186,0.1131472897783514,-0.5218323781366808,1.0,-0.5775461633275616,0.7655503423365555,-0.6467514986539511
34,0.5227194492254733,0.012151271493069937,0.5036144578313253,0.5421686746987953,0.5228586488365765,0.5404895666131624,0.029193798158524936,0.4971910112359551,0.595505617977528,0.5412661767289124,0.32609771181199737,0.015063359806446118,0.29870129870129825,0.34632034632034614,0.32644047077593247,0.5749999999999996,0.018071806139222886,0.5500000000000003,0.6125000000000003,0.5752798663287071,0.7200091575091574,0.0733200929849793,0.5448717948717947,0.9583333333333335,0.7236796427112794,0.6691549829480864,0.059287939226660334,0.5278514588859416,0.7798408488063661,0.6717389640350537,0.7303854875283442,0.046922325156092626,0.6525573192239857,0.8430335097001763,0.7318696687711839,0.4451361997226075,0.043160722207472614,0.3557614424410541,0.5374424410540916,0.44719399831785106,0.48280850506554845,0.06989693786169766,0.2964727702983595,0.658224339910247,0.4877702742671063,0.4680997167138812,0.04082231121851548,0.37323512747875354,0.5594900849858357,0.469851039472928,0.2703081232492997,0.06597968232715407,0.1372549019607843,0.47058823529411764,0.2781323600564143,0.26739130434782604,0.04034894779311213,0.16304347826086954,0.3913043478260869,0.2703754603306563,0.22857142857142868,0.03271686682341696,0.13999999999999999,0.35,0.23086792761230385,0.26410256410256394,0.05596425150378333,0.02564102564102566,0.41025641025641024,0.2698840843607959,0.5382352941176474,0.06078362620957058,0.4558823529411764,1.0,0.5416078843093228,0.3708791208791209,0.04064890126525323,0.25,0.5192307692307693,0.37306842632218584,0.5928571428571431,0.04889312360102465,0.49999999999999994,0.7777777777777777,0.5948411374778804,0.4144462279293739,0.022597180324727573,0.3707865168539326,0.4606741573033708,0.41505302510965686,0.48351872726291745,0.008571731562967052,0.46401419286372436,0.49360046029731863,0.4835936150933482,0.777885784771863,0.029653971425891774,0.7317215172337266,0.8316328810809115,0.7784427338693687,-0.07738018507470376,0.7209599079187333,1.0,-0.08070227114672447,0.2504920960048989,-0.739366197787582
35,0.041290160642570274,0.019020549519840165,0.0,0.07710843373493975,0.045419050129604996,0.10258661048689137,0.04897974889560857,0.01685393258426965,0.1741573033707865,0.11356953246857109,0.4969787157287156,0.044328487193609135,0.4112554112554112,0.5497835497835495,0.4989312475284661,0.196137152777778,0.03535660434258919,0.15833333333333366,0.2625000000000006,0.19926577830900286,0.49238782051282043,0.07700491878809537,0.3044871794871793,0.6378205128205128,0.4983109019472201,0.6473806366047746,0.0953081324078858,0.4084880636604774,0.8488063660477454,0.6542864109110081,0.37257495590828915,0.05841696729394842,0.26102292768959423,0.5132275132275131,0.3770796898862086,0.43515256588072143,0.06196014546190831,0.2947350901525659,0.5575589459084604,0.4394961035251647,0.4717872922729259,0.06316444792136859,0.3484271902614776,0.6402417575389339,0.4759531875739824,0.46301074126534464,0.074239719249337,0.31303116147308785,0.6274787535410765,0.46886359488540424,0.2782883986928104,0.09809461584014512,0.0,0.5,0.29490125732168215,0.2741168478260871,0.06571516983477478,0.09782608695652173,0.4130434782608695,0.28180409082359853,0.2298958333333333,0.04492086121090985,0.07999999999999999,0.39,0.23419854468662557,0.25961538461538425,0.06082014414573306,0.10256410256410256,0.4358974358974359,0.26657213972223415,0.5323223039215689,0.033167331788285716,0.38235294117647056,0.6176470588235293,0.5333438366270398,0.36879006410256415,0.06441860771655272,0.11538461538461536,0.576923076923077,0.37431623230269606,0.5902777777777779,0.0926997430696126,0.2222222222222222,0.861111111111111,0.597437515027421,0.4229868913857678,0.10204559205051612,0.11235955056179775,0.7078651685393258,0.43499740371222423,0.9549857796118061,0.022815157042571584,0.9107294608025098,0.987221218086812,0.9552554362314088,0.4018294844483357,0.051966436153533094,0.3429964474115361,0.4984715917215323,0.4051411047288918,-0.46850660339597444,0.5844463039186977,1.0,-0.3436980177407198,0.47829702436550714,-0.7735882623836496
36,0.3415199258572753,0.015819889893996596,0.31566265060240967,0.3686746987951807,0.3418790953100858,0.4763936905790842,0.01696609895314933,0.4438202247191012,0.502808988764045,0.47668990065755307,0.23484848484848483,0.0077094798332034385,0.21645021645021645,0.24675324675324672,0.23497255991583918,0.5362179487179495,0.009391133957990705,0.516666666666667,0.5500000000000003,0.5362985977022839,0.7059911242603548,0.0679291362897161,0.5288461538461537,0.833333333333333,0.7091890419724707,0.543868598245256,0.06569947956760085,0.3527851458885941,0.7214854111405835,0.5477467167083011,0.7737416904083572,0.043283158079965564,0.6807760141093473,0.8906525573192239,0.7749281306774541,0.4897443721327217,0.05685362797982795,0.39667128987517336,0.5984687933425797,0.4929703081945226,0.48896638894560296,0.058597507218013475,0.3737541705307367,0.6202445290098387,0.49239797450496053,0.47278818914796256,0.08978173884543955,0.3413597733711048,0.6777563739376771,0.4810763118263236,0.27564102564102566,0.07530920063293414,0.12745098039215685,0.47058823529411764,0.2855527689867917,0.278010033444816,0.07236820704025272,0.06521739130434781,0.44565217391304346,0.287099323442275,0.2363461538461538,0.046779786407053985,0.15,0.37,0.24084386899144686,0.26331360946745563,0.05702290482659254,0.1282051282051282,0.4358974358974359,0.26930120239593247,0.5350678733031675,0.02082860306306628,0.48529411764705876,0.5735294117647058,0.5354653274008966,0.3720414201183433,0.024938901841232552,0.2884615384615385,0.40384615384615385,0.37286030434251427,0.5892094017094016,0.04646045139016049,0.4444444444444444,0.6944444444444444,0.5910031992945961,0.4181071737251512,0.07016274995556274,0.20224719101123595,0.6292134831460674,0.4238416576390252,0.6152565449274507,0.012315261505785295,0.5892237123481237,0.6320550503953265,0.6153774167895649,0.8196498681405237,0.011865671847641888,0.7979307381128338,0.8388016959546067,0.8197340989192851,-0.02001276297387335,0.1390333200884,1.0,0.02343705114212851,0.29412045184213065,-0.6514123608285415
37,0.3340834412028279,0.050616616387936575,0.14698795180722896,0.3879518072289157,0.3378647860326116,0.3719008264462817,0.03451453493563518,0.30056179775280895,0.4269662921348315,0.37348578656506803,0.6932131229651886,0.06658542994816229,0.5584415584415581,0.7619047619047619,0.6963773487479432,0.20426997245179104,0.05288949108053975,0.12916666666666687,0.29583333333333384,0.21095118332145,0.41123649078194535,0.10772588235724592,0.08012820512820529,0.6314102564102564,0.4249993048218542,0.5248481925597913,0.12736604995904152,0.0,0.7400530503978779,0.5399570991153071,0.31488040578949655,0.06373575015504658,0.20105820105820094,0.4620811287477954,0.3212138594741055,0.46146266090484994,0.10955460029858968,0.3148404993065187,0.7656033287101248,0.47418435869827635,0.4873148825256644,0.10188767871669574,0.18586976218647733,0.7654909234327865,0.49776610933053017,0.4644131763163438,0.13113845558258674,0.0,0.6444759206798867,0.4824259181135751,0.27532004537352134,0.06587120072777597,0.10784313725490197,0.5490196078431373,0.2830270001978478,0.27164929931728354,0.05669732807815153,0.07608695652173911,0.5543478260869565,0.27745515312563457,0.2295867768595041,0.04127946814529139,0.09999999999999998,0.43,0.23323807579381203,0.2625556261919894,0.051284700079929246,0.1282051282051282,0.41025641025641024,0.26747680418049335,0.5325717063684983,0.04001363177690964,0.3676470588235294,0.6911764705882353,0.5340603720530619,0.371900826446281,0.08779549003684818,0.19230769230769232,1.0,0.3820400108700906,0.5920569329660238,0.12308371980656202,0.0,0.861111111111111,0.6046121158491352,0.4244590955520475,0.07089177720628542,0.20224719101123595,0.5955056179775281,0.43029017374763545,0.6842935856114175,0.038683178083148126,0.6290226593005861,0.8035832998131851,0.685377073391257,0.3309631158760671,0.07487875079605602,0.23939939651862785,0.47562486607829224,0.3392595967327947,-0.6538931086579393,-0.6333745541557397,1.0,0.6175248513628463,0.34672763892015884,0.01266676404622153
38,0.3484053862508861,0.01697080924293367,0.3108433734939759,0.37349397590361444,0.3488136081079223,0.4879048248512895,0.06249609003197634,0.4325842696629213,0.6657303370786517,0.4918444156945081,0.3031830914183856,0.01331689632404357,0.2813852813852815,0.32900432900432897,0.3034719761361446,0.49593137254902003,0.03444318316416084,0.4583333333333335,0.5875000000000004,0.49711196152132797,0.6699849170437405,0.07314745651343751,0.4935897435897436,0.8621794871794872,0.6739194253089862,0.5105944765173975,0.1055591386791117,0.17771883289124657,0.649867374005305,0.5212661126976165,0.7184770204378045,0.06208965570340624,0.619047619047619,0.8959435626102292,0.7211234289819777,0.4176305458105574,0.09109749105162653,0.19209986130374485,0.5769764216366158,0.4273363935860715,0.4663448750674841,0.06032570196119539,0.32644729408504153,0.6035943845735665,0.47018498361292616,0.44587635394100955,0.07603068908269191,0.23229461756373937,0.5970311614730878,0.45223708478469576,0.2747404844290657,0.11363949699849626,0.04901960784313725,1.0,0.29705948968524587,0.2727621483375958,0.08159285251326262,0.10869565217391303,0.7282608695652173,0.284566795093112,0.2311764705882352,0.04473231932458748,0.13999999999999999,0.4,0.23541452801388443,0.25761689291101025,0.06191706419273871,0.1282051282051282,0.41025641025641024,0.26486804965821065,0.5299307958477513,0.03322970525933425,0.3529411764705882,0.6029411764705882,0.5309593872930489,0.36990950226244346,0.03654172180648445,0.2692307692307693,0.44230769230769235,0.3716888859181445,0.5905228758169935,0.09989273910031976,0.24999999999999994,0.8888888888888888,0.5988141876847515,0.42300066093853256,0.111185761361496,0.0,0.696629213483146,0.4372029210468051,0.6087382287218703,0.02424927638131215,0.5459149772005489,0.6321730088112413,0.6092153482496864,0.7614221073769181,0.04794648408835606,0.7082678308429073,0.8900881702043695,0.7629124756249537,0.10011071842881583,0.8546304686417774,1.0,0.20144740744304512,0.09113835168493756,-0.8404838488107033
