,Orientation X,Orientation X,Orientation X,Orientation X,Orientation X,Orientation Y,Orientation Y,Orientation Y,Orientation Y,Orientation Y,Orientation Z,Orientation Z,Orientation Z,Orientation Z,Orientation Z,Orientation W,Orientation W,Orientation W,Orientation W,Orientation W,Accelerometer X,Accelerometer X,Accelerometer X,Accelerometer X,Accelerometer X,Accelerometer Y,Accelerometer Y,Accelerometer Y,Accelerometer Y,Accelerometer Y,Accelerometer Z,Accelerometer Z,Accelerometer Z,Accelerometer Z,Accelerometer Z,Gyroscope X,Gyroscope X,Gyroscope X,Gyroscope X,Gyroscope X,Gyroscope Y,Gyroscope Y,Gyroscope Y,Gyroscope Y,Gyroscope Y,Gyroscope Z,Gyroscope Z,Gyroscope Z,Gyroscope Z,Gyroscope Z,EMG1,EMG1,EMG1,EMG1,EMG1,EMG2,EMG2,EMG2,EMG2,EMG2,EMG3,EMG3,EMG3,EMG3,EMG3,EMG4,EMG4,EMG4,EMG4,EMG4,EMG5,EMG5,EMG5,EMG5,EMG5,EMG6,EMG6,EMG6,EMG6,EMG6,EMG7,EMG7,EMG7,EMG7,EMG7,EMG8,EMG8,EMG8,EMG8,EMG8,Roll,Roll,Roll,Roll,Roll,Yaw,Yaw,Yaw,Yaw,Yaw,Accelerometer X vs Roll,Accelerometer Y vs Roll,Accelerometer Z vs Roll,Accelerometer X vs Accelerometer Y,Accelerometer X vs Accelerometer Z,Accelerometer X vs Accelerometer Z
,mean,std,amin,amax,RMS,mean,std,amin,amax,RMS,mean,std,amin,amax,RMS,mean,std,amin,amax,RMS,mean,std,amin,amax,RMS,mean,std,amin,amax,RMS,mean,std,amin,amax,RMS,mean,std,amin,amax,RMS,mean,std,amin,amax,RMS,mean,std,amin,amax,RMS,mean,std,amin,amax,RMS,mean,std,amin,amax,RMS,mean,std,amin,amax,RMS,mean,std,amin,amax,RMS,mean,std,amin,amax,RMS,mean,std,amin,amax,RMS,mean,std,amin,amax,RMS,mean,std,amin,amax,RMS,mean,std,amin,amax,RMS,mean,std,amin,amax,RMS,corr, corr, corr, corr, corr, corr
0,0.5158566486129413,0.10053922044571625,0.31106471816283926,0.7432150313152401,0.5255432555459975,0.17985745389582608,0.22851980881378584,0.0,0.7178899082568807,0.29062704825642566,0.6915461318268874,0.15685717915385536,0.37850467289719614,1.0,0.7090770903426906,0.11529549283184902,0.16073362851753728,0.0,0.4474576271186441,0.19767636617831622,0.47982316440915895,0.06503044230541477,0.0,1.0,0.4842010424617838,0.7394831261146263,0.08449182998444373,0.0,0.9999999999999999,0.7442846785183738,0.5781661125302665,0.06876618739510934,0.0,0.9999999999999999,0.5822329863070966,0.6731791757355412,0.08007633937542998,0.0,1.0,0.677915493435615,0.5970833643432378,0.09401880920248767,0.0,0.9916619910043325,0.6044254713072619,0.5162327296441401,0.08741759790710461,0.0,1.0,0.5235671560528662,0.498028579893794,0.06598476954238786,0.16853932584269665,0.9101123595505618,0.5023719982047721,0.4396462759332417,0.0566355978642676,0.0,1.0,0.443271849566092,0.42515030243224977,0.05136509223933724,0.0,1.0,0.4282356835788263,0.4282564600052937,0.05214196083753435,0.0,1.0,0.43141263871291197,0.5384632162097333,0.059346195422569165,0.0,1.0,0.5417171422106195,0.4645670972563258,0.05633357106971933,0.0,1.0,0.4679632699489546,0.3764995653433781,0.045353543276481854,0.09999999999999998,0.9999999999999999,0.37921589403862027,0.3929474176938684,0.055826177243987155,0.0,1.0,0.39688526492054127,0.6503336266997317,0.10858378899587909,0.4348764967815203,0.7415655117649196,0.6593180943602918,0.19366321489833563,0.19024302387292047,0.0,0.5844053473141927,0.2713382323678531,-0.7264757779558705,0.2701019551514785,1.0,-0.26934275049034057,0.6881676288394332,-0.4171152769359657
1,0.8511056610657312,0.12121202380059456,0.6680584551148226,1.0,0.8596521848408875,0.7236015854636141,0.11937159475894166,0.4518348623853211,0.8761467889908257,0.7333346162658508,0.4249387532891748,0.04199674107931303,0.36214953271028016,0.5490654205607475,0.4269989561231665,0.7196972190225442,0.1655600446261561,0.3491525423728814,0.8847457627118644,0.7384044667861805,0.590003563636996,0.02013736982477405,0.5393912264995524,0.6517457475380484,0.5903454499315509,0.6939543798498202,0.03129847011701022,0.6255726780508121,0.7430237401082881,0.6946564044422318,0.7339783342638638,0.03297318569696512,0.6572751833269007,0.7761482053261288,0.7347150116361411,0.6752849539104324,0.10797226959512041,0.41860857399423507,0.9181397379479369,0.6838210202186835,0.5907861069112261,0.09033756047716122,0.33917714474930794,0.7740689299938375,0.5976198482773474,0.5084550011802516,0.047307566425042316,0.3377451547027319,0.6107771741224521,0.5106404116012018,0.49280026180866154,0.09074311155520408,0.2471910112359551,0.8764044943820225,0.5010453451970444,0.43863907341168423,0.018823617904716917,0.3684210526315789,0.5394736842105263,0.43904082415281165,0.4235546225837488,0.014464540270521664,0.3738738738738739,0.481981981981982,0.4238003369418566,0.4282397636133397,0.02021940410197643,0.3739130434782609,0.5391304347826087,0.42871451440073266,0.5393569266102926,0.021317215029393433,0.48387096774193555,0.6344086021505377,0.5397759831624878,0.4640265712825751,0.025271683278856802,0.25263157894736843,0.5263157894736842,0.46471089566586826,0.3764216366158114,0.048929149531988125,0.1571428571428571,0.6285714285714286,0.3795730345109333,0.39256908140403246,0.04327067835284545,0.12307692307692308,0.5307692307692308,0.3949351164356744,0.17513991257581443,0.11938380112576584,0.05586288078629742,0.42262473205397966,0.21179540621569456,0.7158664677850265,0.11176387096303472,0.42665433686122556,0.8411847797318338,0.7244966016751049,-0.5244738560347306,-0.6046192896970882,1.0,0.5026665548992892,0.23731940972936896,0.13062424701642145
2,0.8666059175943366,0.039228837269473744,0.8016701461377872,0.9331941544885177,0.8674904641400979,0.7766563069659008,0.05110768886921784,0.6674311926605504,0.8486238532110092,0.7783305897121243,0.412592468568297,0.06660482917158164,0.3387850467289719,0.5490654205607475,0.417916616341995,0.7715894661292998,0.10942148096000058,0.5864406779661016,0.9016949152542373,0.7792845209165414,0.5958462494058366,0.020140941452171233,0.45255147717099375,0.6499552372426142,0.5961854485758382,0.6880547871611582,0.022137603302176612,0.624323198667222,0.7317784256559766,0.688409665304605,0.7523361372427986,0.031216113758612815,0.6881512929370899,0.7993052875337707,0.7529813643571723,0.6618830840240844,0.03981847784599872,0.5720940847278518,0.8803103744238774,0.6630758354544987,0.5960151492358464,0.057927844044264154,0.4771475087151281,1.0,0.5988144644434551,0.5224090880395041,0.04031442089256129,0.4072843216583825,0.649910414980927,0.5239572633488159,0.5019214581122131,0.08399817221987356,0.21348314606741575,0.8651685393258427,0.5088790232821765,0.4411394936853537,0.019168541681835103,0.3508771929824561,0.5263157894736842,0.44155440098480175,0.42558030343046654,0.013573764039212644,0.3783783783783784,0.49549549549549554,0.4257960093575758,0.429627531511119,0.01929163165818182,0.3565217391304348,0.49565217391304345,0.43005903154548797,0.5405414871633217,0.02072299736232304,0.47311827956989255,0.6451612903225807,0.540937282065602,0.4662094976855814,0.016602163999388922,0.3894736842105263,0.5157894736842105,0.4665040511700741,0.37566309911586754,0.03181858484216142,0.1857142857142857,0.48571428571428565,0.3770038309965211,0.39451265347030773,0.030424079876417907,0.2692307692307693,0.5384615384615385,0.395680228619713,0.13776404051255295,0.043756238135186226,0.08432057968723794,0.23146075220585194,0.14452440183138696,0.7624970316715476,0.08902126489046568,0.6141663073228273,0.8741198537902465,0.7676592312196436,-0.5302196462384458,-0.5706742426022746,1.0,0.5368474483608662,0.6765826006081636,0.4859010237486667
3,0.6468462576820855,0.06289922227483785,0.546972860125261,0.8413361169102297,0.6498849932382125,0.7180464979182781,0.13748404937451203,0.5000000000000001,0.9724770642201837,0.7310381152206697,0.4327309236947797,0.07674240709890169,0.31542056074766345,0.5911214953271028,0.43945625171579095,0.5685657885780413,0.08093608340150026,0.4338983050847456,0.7220338983050847,0.5742746709615874,0.5746459427683879,0.017843030123638633,0.5277529095792302,0.6396598030438675,0.5749217813362341,0.6409477978553111,0.03651404889084094,0.5664306538942107,0.7126197417742607,0.6419828664542578,0.7340903560207636,0.02276499471356156,0.6873793901968351,0.802778849864917,0.7344418387332264,0.6424267442307842,0.0599370220052425,0.42821847263634694,0.7658945342151089,0.6452055027767585,0.5885364691134224,0.04563910573618802,0.3535490576624142,0.7280788086718974,0.5902963139613133,0.521030757329785,0.06339410117199697,0.3714599468269565,0.7507513582244827,0.5248578115447761,0.5017372862235464,0.08128174343486792,0.2921348314606742,0.9438202247191011,0.5082523912225494,0.4415556964700911,0.02394635424950536,0.37719298245614036,0.5263157894736842,0.4422019426051967,0.4251600998588955,0.01800663499006936,0.3738738738738739,0.5135135135135135,0.4255397128957762,0.42832198358652135,0.019361965937998406,0.3739130434782609,0.49565217391304345,0.4287576259185544,0.5401390508269635,0.020984077610681166,0.4086021505376345,0.6559139784946237,0.5405448707940657,0.4656098076516589,0.015965207119540657,0.3894736842105263,0.5157894736842105,0.46588234262938855,0.3753298909925412,0.03193648185592804,0.2714285714285714,0.4714285714285714,0.3766807266183836,0.39561322211924566,0.02891851998181865,0.2153846153846154,0.49230769230769234,0.3966645229360563,0.31619018030480783,0.10597513555558458,0.12339772438908403,0.4317221767437672,0.3334094421975245,0.6973303222063458,0.055951814785160425,0.5948579034505374,0.8041576278694219,0.6995624426260992,0.356008365529984,0.6534276921441708,1.0,0.6627303315261001,-0.11073572217252518,-0.600847067808078
4,0.6387433900466286,0.03255388805387684,0.5720250521920669,0.7286012526096034,0.6395699344361364,0.6865283195077732,0.09734896575539413,0.555045871559633,0.8669724770642202,0.6933754977671502,0.39769992724830683,0.11177150880264662,0.2196261682242988,0.5794392523364486,0.4130625842537599,0.5727900131939506,0.1399817576645726,0.3966101694915256,0.9288135593220339,0.5895970016467509,0.5776834870992125,0.023114592303513697,0.5165622202327664,0.6383169203222918,0.5781443556678896,0.6525512074559754,0.034923159583862495,0.5639316951270303,0.7201166180758016,0.6534822521304623,0.7361698833132659,0.04358501910425909,0.6653801620995754,0.8363566190659976,0.7374551263645045,0.6625343301381147,0.07694108958056282,0.47162921766395616,0.989457390493295,0.6669737217704284,0.596130534394745,0.04748758898092438,0.48778042476476063,0.8447833405384525,0.5980133221217433,0.5188475926427112,0.05782733435326143,0.32420144106654347,0.6797094748198667,0.5220505847249874,0.49498755298392016,0.06752538556474934,0.2696629213483146,0.797752808988764,0.49955850866044577,0.4393843891165042,0.02313507654352364,0.35964912280701755,0.5570175438596491,0.43999121658919393,0.4244349139558723,0.016625282285713697,0.3783783783783784,0.5045045045045045,0.4247594244403114,0.42829992189534144,0.024976896917488025,0.34782608695652173,0.5304347826086957,0.42902540795929933,0.5388255746571378,0.03246139753268596,0.34408602150537637,0.7849462365591399,0.5397995806938118,0.4654585565710681,0.016387138693242063,0.39999999999999997,0.5368421052631579,0.4657460705071429,0.3733532934131737,0.028018427009704184,0.24285714285714283,0.4571428571428571,0.3744000047523999,0.3932289267618611,0.03255176694573695,0.2,0.5615384615384615,0.39456993532958873,0.3401326488465532,0.0666309207445678,0.1637635345534144,0.43142312685014195,0.3465784268484569,0.7043985844925184,0.1293814628230472,0.5342318478598093,0.9999999999999999,0.7161471987695213,-0.2874349002781494,0.1366013249033283,1.0,0.7226685684161368,0.6610884104546831,0.27734905968430906
5,0.8320859757618736,0.11164157137726702,0.5824634655532359,0.9812108559498958,0.8395187413347719,0.7583232358202069,0.0939804936886824,0.49541284403669716,0.9472477064220184,0.7641064641436512,0.3798198436489741,0.03535523729365132,0.30841121495327095,0.483644859813084,0.3814566497501909,0.7679458479906194,0.09860145257553157,0.5966101694915253,0.9457627118644067,0.7742302621274846,0.5978207012268941,0.0175732470298233,0.5438675022381378,0.6548791405550582,0.5980781208986163,0.6905036947393509,0.03798279238719436,0.5664306538942107,0.7442732194918783,0.6915442922888599,0.7573785891656897,0.020405454529862272,0.7059050559629486,0.7950598224623696,0.7576525592394019,0.6783654451156043,0.07876587839126806,0.4328671432753035,0.9224808124506978,0.6829086550130119,0.5916780239126649,0.03974781990276989,0.45616681536805903,0.6956005849943433,0.5930074240371939,0.5208257452332196,0.05790855550461014,0.33112742264863415,0.7028908026047085,0.524025106662679,0.49763267613596246,0.07378274839465307,0.2359550561797753,0.7752808988764045,0.5030557177445751,0.44014123358711305,0.02002271651913508,0.3464912280701754,0.5219298245614035,0.4405949999259064,0.4246274576463255,0.01559232489764851,0.3648648648648649,0.5045045045045045,0.42491273675040764,0.428712059064809,0.01822850400258514,0.3652173913043478,0.49565217391304345,0.42909819743884003,0.5405761817812947,0.01761987189181414,0.48387096774193555,0.6344086021505377,0.5408623594832408,0.46560741476332285,0.01535775814780446,0.39999999999999997,0.5263157894736842,0.4658598326937902,0.37452830188679237,0.02751574117278869,0.24285714285714283,0.5142857142857142,0.375534531113357,0.39472665699080806,0.029475828970822224,0.2076923076923077,0.5692307692307692,0.39582221524335964,0.16696496384254092,0.08952275647202167,0.026277597409130937,0.34914855274007706,0.1893843203667925,0.7806912984860425,0.05050419442855964,0.6727790820687479,0.866842185361132,0.782318065878812,-0.24098264094909141,-0.35510446751987024,1.0,0.343859124009521,0.056857676106139995,-0.4898334346663658
6,0.8786172530972373,0.038959447329775854,0.7912317327766181,0.9331941544885177,0.8794774450886582,0.809490725239402,0.03409279888505135,0.75,0.8692660550458717,0.8102057214957934,0.408383927962344,0.057138705218457944,0.3411214953271027,0.5233644859813082,0.41234736425503543,0.8108870468885306,0.06340256246795,0.688135593220339,0.898305084745763,0.8133529471430172,0.5990139123956894,0.014286509373329724,0.5555058191584602,0.6347358997314234,0.5991836335275507,0.685877538860025,0.027598047192435336,0.6064139941690961,0.7276134943773427,0.6864305287273684,0.7626131443204582,0.015332185743314438,0.7267464299498263,0.7973755306831338,0.7627666916355816,0.6592652327172632,0.029536481307918853,0.5813963872337681,0.7420161438359223,0.6599241371874414,0.5931192534588099,0.02494309165261587,0.4932440511778071,0.6841030546638583,0.5936415888360115,0.5199433542273642,0.05107457093283604,0.3229973413478211,0.6508110815705314,0.5224367740886625,0.49581727220536376,0.08241719417910738,0.25842696629213485,0.8202247191011236,0.5025958324785946,0.4391407350493025,0.022505115613216345,0.37719298245614036,0.513157894736842,0.4397149269019842,0.4239823765371211,0.021952292031187932,0.36936936936936937,0.5270270270270271,0.4245482304390834,0.4280228498889255,0.02104757460883008,0.3652173913043478,0.5130434782608696,0.4285381472333365,0.5404206891138844,0.021707293740355876,0.47311827956989255,0.6344086021505377,0.5408548863528309,0.4665770265078749,0.02642231180901571,0.23157894736842102,0.5789473684210527,0.46732185084298133,0.37721584984358675,0.03328507585595583,0.2571428571428571,0.49999999999999994,0.37867618122994673,0.3942167321729363,0.03694421558300447,0.2076923076923077,0.5538461538461539,0.39593778007951497,0.11011034368619066,0.01769407447000059,0.08121029825510251,0.15762977845968373,0.11151782561238095,0.7912281874922557,0.04275030959232249,0.7006516912975526,0.8496525337428961,0.7923780433730998,-0.6367164547846357,-0.5061869369182347,1.0,0.6932176364717278,0.6195437442391879,0.47115426843984665
7,0.592310147201574,0.05999624661613076,0.5073068893528184,0.8225469728601253,0.595331333420467,0.7621983287559164,0.09558029000765145,0.5986238532110092,1.0,0.7681489373518247,0.4204937793916303,0.10321489434480899,0.30841121495327095,0.675233644859813,0.43293695287969375,0.5809780848537188,0.023270763881251006,0.5389830508474573,0.6406779661016944,0.5814424639798931,0.5715776448517125,0.020941452019963377,0.5071620411817368,0.6195165622202328,0.5719599215580389,0.6198969643752467,0.032545823257264746,0.5381091211995002,0.7084548104956268,0.6207480194952236,0.7484555799472447,0.013155572501969961,0.7047472018525665,0.7815515245079119,0.7485708203413909,0.6524622811580998,0.05251846625343331,0.5162802696923543,0.8198429275214201,0.6545658359472293,0.5940552466145561,0.02724616843873531,0.5211232627231672,0.6797891812838603,0.594677749324062,0.5270347229840521,0.06698516197346976,0.3178823257426888,0.7474424921974339,0.5312610669986975,0.49613540399341616,0.06476509326287636,0.2921348314606742,0.7078651685393258,0.500331388247521,0.43951838194211684,0.018739929093082964,0.37280701754385964,0.5307017543859649,0.43991644045664663,0.42412635565501833,0.01756871792431037,0.36936936936936937,0.5225225225225225,0.4244889190751152,0.4285793409027988,0.01777737761991659,0.3739130434782609,0.5130434782608696,0.4289467101194873,0.5408533662077943,0.025525656627999112,0.4193548387096775,0.817204301075269,0.5414534586236055,0.46563861884009344,0.019174326946654247,0.39999999999999997,0.5684210526315789,0.4660319809776622,0.37570518653321194,0.03116753836941634,0.21428571428571425,0.5714285714285714,0.37699165634824583,0.3933610975012249,0.030470134727967682,0.26153846153846155,0.5153846153846154,0.394535708595689,0.326978726235519,0.07517443369792366,0.14032741969487605,0.4033819991243046,0.335482168608953,0.7330731550724918,0.034939111581995724,0.650182626045677,0.7911713585859129,0.7339026532819154,0.6756266813610683,0.6734627676070778,1.0,0.8331565886258153,0.14715971021598992,-0.18370801599342484
8,0.5381494465671406,0.03494174391147105,0.4718162839248434,0.6033402922755742,0.5392783558072575,0.7076423749350874,0.1323633438925182,0.45412844036697253,0.9059633027522935,0.7198692049225444,0.3937048139657904,0.10624734116605801,0.25233644859813076,0.5817757009345793,0.4077369003915424,0.5432171410297408,0.03882056883803571,0.4440677966101694,0.6033898305084744,0.5445972933673109,0.5706812384925932,0.02366707854023459,0.5138764547896151,0.6401074306177261,0.5711699334468398,0.6239475690160544,0.04287330862245596,0.5326947105372761,0.7172011661807579,0.6254132659043613,0.7436510999614051,0.019720927118153278,0.6896950984175994,0.7854110382091856,0.7439115578054691,0.660494143925599,0.07358611925487199,0.5141122130549753,0.8710080719179611,0.6645652695244806,0.5937800009614537,0.03348993446021296,0.5153744975579246,0.7042237327422071,0.5947201298852788,0.5208140768253792,0.06832283497636774,0.30734404500443113,0.6956662042923747,0.5252596474767858,0.49612041551833824,0.06978122335665118,0.30337078651685395,0.9101123595505618,0.5009855393728435,0.43867924528301905,0.02368523448112368,0.34210526315789475,0.543859649122807,0.4393157789447744,0.42376338602753716,0.020293936509821472,0.35135135135135137,0.5630630630630631,0.4242472122110152,0.4274979491386396,0.018677892731635802,0.3739130434782609,0.49565217391304345,0.42790424598025556,0.5396226415094337,0.01829130139619788,0.5053763440860216,0.6666666666666667,0.5399313886056663,0.46716981132075375,0.020223979403005937,0.41052631578947363,0.5368421052631579,0.4676057083921026,0.3761185983827494,0.027892886046970197,0.2714285714285714,0.49999999999999994,0.37714755367491465,0.3933526850507984,0.02825981176815211,0.23846153846153847,0.46153846153846156,0.3943626987291444,0.3910138470332846,0.0726049969507167,0.2693322172746039,0.5150659052990184,0.3976725056570528,0.7200271921044479,0.053422980415519815,0.5996360795957215,0.8070310843297633,0.7219988935857065,0.7321628415211647,0.8905132691032165,1.0,0.7683146354230574,0.05494031507724365,-0.27804926311044875
9,0.828297801336428,0.1236228041912232,0.594989561586639,0.9561586638830898,0.8374383755142499,0.841760171890455,0.1273995455599228,0.3967889908256881,0.9472477064220184,0.8513110443443113,0.39743946079282866,0.03578211062600011,0.28738317757009324,0.4579439252336448,0.39904100633346207,0.82666498645328,0.14556979305379494,0.5050847457627117,1.0,0.8393371129315409,0.596812359180359,0.019006657407407465,0.5425246195165623,0.6271262309758281,0.5971138100464406,0.67384407674002,0.04225714018123738,0.5456059975010412,0.7600999583506871,0.6751628451645748,0.7755958213949058,0.026275912197509244,0.6962562717097645,0.8135854882284831,0.7760391324519067,0.6877538283666307,0.07687473635324024,0.5869777687373179,0.9435660314641081,0.6920210143370552,0.589836145575113,0.032106795795443864,0.4762828944342756,0.6766296599490431,0.5907060968202731,0.5190654374214067,0.058484275909013526,0.3136631603282858,0.6935614379840481,0.5223376528389492,0.49571864166074947,0.0852566531286157,0.2359550561797753,0.7640449438202247,0.5029698275389833,0.43913454640318306,0.025119772524837127,0.3684210526315789,0.5394736842105263,0.4398497551215349,0.42459559931678925,0.022689618799135926,0.3783783783783784,0.5630630630630631,0.42519916267073404,0.4273476644577354,0.02255663229266001,0.31304347826086953,0.5304347826086957,0.4279403422462995,0.5403925330775068,0.019871545716155896,0.4623655913978495,0.6236559139784947,0.5407564148356406,0.46617100371747144,0.016779132909588112,0.41052631578947363,0.5263157894736842,0.46647175412199454,0.37419012214551267,0.03210964827239031,0.22857142857142854,0.5285714285714285,0.37556017387362156,0.39376608521589906,0.03361985606795586,0.24615384615384617,0.48461538461538467,0.3951933991720632,0.1186661193169943,0.12174677963911801,0.0,0.46979119883859066,0.16984941807299853,0.8301688204979552,0.0692726849466977,0.6354204951976717,0.9088151773984287,0.8330432980074278,-0.4609053835272417,-0.15998143723606134,1.0,0.710431280531885,0.24118204466768783,-0.17474040644282698
10,0.8443303773789697,0.037921878083712876,0.7369519832985386,0.8977035490605428,0.845178949831501,0.8296018853631848,0.05559829213261866,0.7064220183486238,0.9105504587155964,0.8314571577457748,0.3750893137843321,0.0883262349381664,0.2336448598130838,0.5467289719626166,0.385317608243734,0.8366246825273409,0.07780260400051615,0.68135593220339,0.935593220338983,0.8402235376077356,0.6006860885015839,0.019208709054629125,0.554610564010743,0.6468218442256043,0.6009921988349617,0.6813152521821308,0.03386544401905142,0.6043315285297792,0.7501041232819657,0.6821538198325251,0.7796052437454041,0.02062237926880592,0.7167116943265148,0.8139714395986105,0.7798771172715939,0.6607448417528325,0.03332206548480078,0.5817039833699638,0.7649618233505158,0.6615819755364201,0.5956099461639927,0.022009243839140782,0.5314710400206036,0.6565089818706943,0.5960152124043812,0.5182897223880717,0.06349283486684365,0.28868049936423545,0.6661657611836782,0.5221525142670568,0.5002577053911971,0.07816167058987471,0.2696629213483146,0.797752808988764,0.5063085381868389,0.4416814206770754,0.029046742597873855,0.32456140350877194,0.5877192982456141,0.4426325908290138,0.4250902278425214,0.022453642392404567,0.36036036036036034,0.5675675675675675,0.42568101445997153,0.42845366307672034,0.019896730604825805,0.3739130434782609,0.5478260869565217,0.4289139898053655,0.5397717931011814,0.01837574099640202,0.48387096774193555,0.6236559139784947,0.540083534151351,0.46553999678094277,0.023546608654629982,0.3789473684210526,0.5473684210526315,0.4661332811956976,0.3732634338138923,0.0349085760160897,0.1714285714285714,0.5142857142857142,0.3748872804856975,0.3944718889673019,0.02289576608960969,0.26153846153846155,0.5,0.3951337548007099,0.11884984750419161,0.033740740884219966,0.06675284747147026,0.1726268763650648,0.12353235360280825,0.8383041242739805,0.05937111072973469,0.7036502521426581,0.9164463712989067,0.8403974975958122,-0.09394460581668959,0.1865764320005604,1.0,0.7112017566403253,0.5585938341168575,0.6198802729897919
11,0.6471888272982502,0.10065227695287121,0.4718162839248434,0.8288100208768268,0.6549422302490242,0.7309633027522934,0.14140565396433225,0.42201834862385323,0.9816513761467891,0.7444689105263335,0.35058814050918424,0.08990495774447546,0.25233644859813076,0.5560747663551402,0.36189373249455026,0.6580362361192285,0.08489103163810639,0.46779661016949126,0.8237288135593221,0.6634706665275412,0.5869771246874321,0.023646671120588228,0.5326768128916741,0.6374216651745748,0.5874515995433571,0.6539875626534919,0.05075020405654788,0.5518533944189921,0.7351103706788837,0.65594697498793,0.7635821610614989,0.02529537944808433,0.6985719799305287,0.8050945580856811,0.7639995854135054,0.6454602283157125,0.06062552964422247,0.4734896781651394,0.780778218224575,0.6482913598065237,0.5873522091592658,0.0463849027795965,0.4639253488350703,0.7346921881179924,0.5891746410364819,0.5263158069560762,0.08428037990746944,0.29530304781720806,0.7341973952914884,0.532998140106164,0.4988376598217747,0.07880814596486466,0.2247191011235955,0.797752808988764,0.5050032855711694,0.44024500907441083,0.02163806253936193,0.3684210526315789,0.5570175438596491,0.44077461277028784,0.4248213730972355,0.018762610186879466,0.34684684684684686,0.5360360360360361,0.4252340774980133,0.4285457271364335,0.019253497209794954,0.3826086956521739,0.5130434782608696,0.4289765251568549,0.5401186503522432,0.01684808954594489,0.49462365591397855,0.6236559139784947,0.5403804546415136,0.4656987295825766,0.018127757985254938,0.41052631578947363,0.5368421052631579,0.46605020028653993,0.37472906403940864,0.03254087823338898,0.22857142857142854,0.5142857142857142,0.3761344557236778,0.394111405835544,0.03850690742417319,0.19230769230769232,0.5538461538461539,0.39598165246377387,0.3001705359318966,0.09899036936045472,0.16691357680101815,0.4852599329541406,0.3160184391631597,0.7874369249296587,0.06309501499205324,0.632506290205625,0.8789424033886714,0.7899520011615394,0.11434976919308808,0.2954584571050864,1.0,0.7758236483009242,-0.062274042340422484,-0.4940975334788674
12,0.5342819470387873,0.06383455116768562,0.4342379958246347,0.6722338204592903,0.5380693679654591,0.5982239859971032,0.1672999056746657,0.34403669724770647,0.8532110091743119,0.621103152408631,0.34750830054107207,0.06841937092701995,0.23831775700934554,0.4859813084112148,0.35415791752386644,0.5151873327386255,0.052859765838538866,0.3932203389830504,0.6644067796610171,0.5178831445027099,0.5781463506573056,0.01958278056654007,0.5335720680393913,0.6374216651745748,0.5784768159643843,0.6564068699445409,0.05850145242936166,0.5585172844648063,0.7742607246980424,0.6590001068940858,0.7334383696601596,0.02608404499092057,0.6684677730605944,0.786954843689695,0.7339005255545732,0.6589819475274407,0.08146855176564309,0.4694611610265773,0.8778297604222998,0.6639823035639318,0.5929152036563601,0.05806756342473846,0.3834426365216752,0.7378563084649419,0.5957425526716038,0.5225738277899123,0.07759624425518295,0.3019255962701808,0.7188475320772165,0.5282847490793368,0.49571259609698454,0.07519247703356399,0.25842696629213485,0.8651685393258427,0.5013644264884511,0.440154662973223,0.02474880272905812,0.37280701754385964,0.5350877192982456,0.440847610587054,0.42465327169274536,0.018317207236491325,0.3738738738738739,0.5225225225225225,0.4250468416019822,0.4285183066361574,0.018254059589035334,0.3739130434782609,0.5130434782608696,0.4289056466473681,0.5403225806451616,0.01640175406805971,0.48387096774193555,0.5913978494623656,0.5405706464149241,0.46481994459833775,0.019430478975267097,0.35789473684210527,0.5473684210526315,0.4652245506098736,0.37457706766917276,0.02679827368772103,0.2571428571428571,0.49999999999999994,0.37553130997170564,0.39463562753036413,0.03138554466121476,0.2153846153846154,0.47692307692307695,0.39587762076931443,0.4465289247624689,0.06566947798402287,0.2958274312076541,0.5870816508320751,0.4513162695911075,0.7001938404814262,0.06350098542400467,0.5520884343288898,0.8784616496973717,0.7030579812547532,0.6233452160461902,0.7727342937076981,1.0,0.6854082049869769,-0.4157531371358416,-0.7642432114782743
13,0.7361860878803229,0.13876326170167536,0.48225469728601256,0.9144050104384135,0.7491116276047668,0.7648403995439982,0.13611604496585789,0.3325688073394496,0.9174311926605505,0.7768227591626939,0.36439611790079096,0.03162110969397064,0.26635514018691575,0.4205607476635511,0.3657614892952264,0.7290843445993385,0.14480018251286014,0.4101694915254237,0.942372881355932,0.7432826121849642,0.5943739305938877,0.01621301565741775,0.5483437779767233,0.6396598030438675,0.5945943605084694,0.6692514706643434,0.03395491903700381,0.595585172844648,0.7592669720949603,0.6701097346393223,0.7651725705046369,0.027520418047810722,0.6754148977228869,0.8089540717869548,0.7656658509509662,0.6828430196710934,0.08671537728344052,0.4812391163060681,0.9100777424428095,0.6883109028352672,0.5917843628253742,0.030852093748264166,0.49755792455780506,0.6697311417507521,0.5925856627054266,0.5192638570360579,0.05789881980979729,0.23780487804878053,0.6541247639964551,0.522472304137629,0.49491390200119695,0.06906603903442947,0.2696629213483146,0.7865168539325843,0.49969568275857,0.4389079206892979,0.02098176619853371,0.3464912280701754,0.5394736842105263,0.4394076636651207,0.423490058105443,0.017555835479594585,0.34684684684684686,0.5135135135135135,0.4238527159491191,0.42709030100334655,0.017777293183552534,0.3739130434782609,0.49565217391304345,0.42745903003409835,0.539861296685119,0.01566779274247025,0.48387096774193555,0.6021505376344087,0.5400879309117818,0.46592961694176294,0.0261736915624694,0.13684210526315788,0.5578947368421052,0.46666202252001326,0.3738799661876584,0.036200985023986575,0.0,0.49999999999999994,0.37562329957122675,0.39335457441966304,0.029646663641454095,0.23076923076923078,0.5076923076923077,0.394466913077779,0.22376202830360517,0.14335626248497432,0.03258484928972605,0.5375330716308723,0.26563068624656433,0.7999242450763273,0.07382235437322562,0.5805724368061792,0.8916757776937901,0.8033133973580912,-0.4515026897929042,-0.2163456525887849,1.0,0.5099677423134376,0.2878197729947266,-0.27398267156742084
14,0.7922606193657995,0.052804843720632606,0.6388308977035491,0.8705636743215032,0.7940133821116215,0.7950040745511414,0.07044949732006933,0.6330275229357798,0.9174311926605505,0.7981105119079128,0.369567254907212,0.08248414965146174,0.23831775700934554,0.544392523364486,0.3786345153144085,0.7726870963042112,0.07874756676235431,0.6237288135593215,0.877966101694915,0.7766780283000434,0.597063357899408,0.01946331129308832,0.5452103849597135,0.6414503133393017,0.5973796015826855,0.6744622882776875,0.03847502714371272,0.5855893377759267,0.747188671386922,0.6755556708338676,0.771608576746264,0.019389415535053814,0.7147819374758779,0.8020069471246623,0.7718514545715227,0.657948945608977,0.040338216017367264,0.5823290980983613,0.7705432048540655,0.65918079789722,0.5941799013892735,0.030428264566784637,0.5130749914918277,0.6852528076969069,0.5949562854111833,0.518702325241452,0.0596419130040223,0.29590509767656925,0.653826147266212,0.5221102063439099,0.49934000837062575,0.06802121080133365,0.202247191011236,0.797752808988764,0.5039385592787801,0.4405067109033335,0.02647682903388518,0.37280701754385964,0.5921052631578947,0.4412994178176229,0.42401714034951826,0.021910948217450103,0.36036036036036034,0.5315315315315315,0.424581263537292,0.4276317428678231,0.020494005823128082,0.3565217391304348,0.5391304347826087,0.4281211374508448,0.5396062482669386,0.03756930475229785,0.13978494623655918,0.8064516129032259,0.540908783022914,0.465269190167395,0.022143255782964555,0.35789473684210527,0.5894736842105263,0.4657943088494167,0.3730249693000406,0.036890657566010454,0.19999999999999996,0.5571428571428572,0.37483949745316925,0.3912497244875465,0.03987115863324489,0.07692307692307693,0.5307692307692308,0.39327026478160143,0.1738779780999919,0.04121428540175153,0.08944495056112267,0.23898972131202534,0.1786821241506179,0.8149942472855111,0.05410506748208448,0.6878009199966354,0.8927706872457829,0.8167830762139398,-0.19712039262541992,0.06002165587594881,1.0,0.7984455125751339,0.5265832833356123,0.425868968843604
15,0.5452991145345908,0.09020014890278398,0.4488517745302714,0.8058455114822548,0.5526878066972493,0.5978131920278382,0.14691398170300235,0.3279816513761468,0.9059633027522935,0.6155504109365258,0.33275593511655366,0.06928946584875474,0.24532710280373804,0.4999999999999998,0.33987313275611547,0.533245665302942,0.07142308441017153,0.38983050847457656,0.6508474576271186,0.5379939941733507,0.5827982383025139,0.019629944462288013,0.5273052820053715,0.6888988361683079,0.5831277853133302,0.66074241096861,0.04578084178924253,0.5556018325697625,0.7434402332361515,0.6623219734148432,0.7380011268005525,0.0237639911172989,0.6684677730605944,0.7838672327286761,0.7383825347698743,0.6465802084297426,0.05609069134819558,0.4263580121351637,0.7547317712080094,0.6490016108478157,0.588302803822107,0.04266819171755159,0.3906308924842945,0.674330153882946,0.5898436504983636,0.5241442615541538,0.06299703630905398,0.38199822756521407,0.7525623242014411,0.5279057012426503,0.4973524473718199,0.09083719178765833,0.0,0.9438202247191011,0.5055562692838955,0.43981901593063166,0.022703578434257358,0.35964912280701755,0.5350877192982456,0.44040292694604083,0.42438127782955354,0.01766779400268322,0.36036036036036034,0.5360360360360361,0.424747834522664,0.428535732133935,0.017985115507722645,0.3826086956521739,0.49565217391304345,0.42891188908684597,0.5400135953528619,0.019092093830499757,0.48387096774193555,0.6021505376344087,0.5403500196870907,0.46409558378705396,0.020470009583744755,0.3894736842105263,0.5578947368421052,0.4645455070268488,0.3737684729064038,0.04784151009615567,0.1714285714285714,0.6,0.3768091086831396,0.3926613616268792,0.03648259474444257,0.18461538461538463,0.5692307692307692,0.39434768920281,0.4392197965369405,0.1004861771877545,0.24055699445545164,0.5555532239584309,0.45053577632878417,0.713995395767102,0.05566095100739944,0.5734443748654917,0.8029930925682366,0.7161554746968739,0.2727048720802544,0.44339369330379724,1.0,0.6348208728425355,-0.18345969613308857,-0.6892321372152201
16,0.49336691299113017,0.06506144445330776,0.3862212943632568,0.6471816283924844,0.4976270732168742,0.5525581282462014,0.11568543818193833,0.31880733944954126,0.8188073394495413,0.5645070421326217,0.3495215843346679,0.057107094673813606,0.24766355140186902,0.4859813084112148,0.35414394052569853,0.4646578782172004,0.04734571873335816,0.34576271186440666,0.5694915254237287,0.46705741688551206,0.5754098515960642,0.01981361677694564,0.5241718889883618,0.6794986571172783,0.5757499788569007,0.6569881596953656,0.04697638411775839,0.5485214493960848,0.752603082049146,0.6586610544131138,0.7205324086837017,0.023686317580044244,0.6545735237360092,0.778463913546893,0.7209205985175448,0.6625742573113863,0.06337088135671516,0.5085258703234224,0.8542639274073118,0.6655898820329583,0.5881041514187516,0.05658348563332103,0.33112887351796844,0.7999429722495609,0.5908127568703824,0.5201681096495766,0.06473147525891237,0.2889839324933534,0.7028908026047085,0.5241697636223925,0.49598715890850736,0.06167852017287743,0.3258426966292135,0.8426966292134832,0.49979739647807275,0.4385500789009566,0.025259120534077837,0.32894736842105265,0.5657894736842105,0.4392749787800406,0.42286333953000615,0.02201516642220884,0.32882882882882886,0.5990990990990991,0.4234345159310641,0.42728318380492497,0.022189302995338653,0.28695652173913044,0.5304347826086957,0.4278574316013894,0.5388291517323782,0.015260283745827751,0.49462365591397855,0.6129032258064517,0.5390446316789306,0.46630465051517717,0.02165289425520924,0.35789473684210527,0.5789473684210527,0.4668057782242361,0.3747165532879814,0.038336662147777194,0.1714285714285714,0.5714285714285714,0.3766673690118473,0.3928164428164432,0.03831915403675716,0.25384615384615383,0.5307692307692308,0.3946761086881631,0.5004427686593395,0.044099314457692176,0.3730420027728246,0.5966524910229559,0.5023769196519906,0.663229494019203,0.056524174918843706,0.5321338789345457,0.7991741435785283,0.6656274421573707,0.31106962211268613,0.3995645584422091,1.0,0.5686992528666328,-0.15513946811485338,-0.6675000840658534
17,0.6640203620556522,0.1258250289247045,0.4759916492693111,0.8517745302713988,0.6758044125011937,0.595972100037703,0.18113371226972638,0.18807339449541288,0.8256880733944953,0.6228180126789282,0.3422417104083979,0.04009376045943425,0.2827102803738315,0.46962616822429903,0.3445758172522821,0.5927745530531695,0.16767189448645228,0.2338983050847454,0.7796610169491527,0.6159695695913711,0.5900172919144974,0.01903671766278741,0.5295434198746642,0.6557743957027753,0.5903234778577239,0.6918247533847198,0.029470085930524716,0.6101624323198667,0.75676801332778,0.6924504285123801,0.7334334339626634,0.041357566891978045,0.6167502894635275,0.7919722115013508,0.7345953744978624,0.6809182811669267,0.09816531460722319,0.4607790120210555,0.9519405843334343,0.687938757044504,0.5949711629339285,0.06673659900079129,0.37970363965820153,0.7944793458365145,0.5986921214193192,0.5185290295576463,0.057710317216601976,0.3118618271490773,0.7007860362963819,0.5217218709260145,0.4949053409265818,0.07104828406535177,0.2808988764044944,0.7640449438202247,0.4999653241940981,0.4390651285748624,0.024290730436228813,0.3684210526315789,0.6096491228070176,0.43973470430337575,0.4240651610514624,0.017994167619790814,0.3738738738738739,0.5405405405405406,0.424445713595807,0.4275640262060772,0.018976208525084,0.3565217391304348,0.49565217391304345,0.42798376888593626,0.5400500810134046,0.018031292086670925,0.48387096774193555,0.6021505376344087,0.5403501889854776,0.46621485219899106,0.01770023612153462,0.3684210526315789,0.5789473684210527,0.46654981343691077,0.37397260273972555,0.028780871443990216,0.22857142857142854,0.48571428571428565,0.3750754280678553,0.3935089567966287,0.0315932009295224,0.2153846153846154,0.5076923076923077,0.3947716996194872,0.36113068605745763,0.15313418249875585,0.17463403141302736,0.6459055584376431,0.39217496538313545,0.7129770538597349,0.12390546391323246,0.40150188212776794,0.8490175272996735,0.7236344253135814,-0.5107091644233077,0.23708369507415045,1.0,0.10655057197052245,0.39659495206564627,-0.528486200721755
18,0.6776545965013319,0.054502092752122866,0.6075156576200418,0.8496868475991649,0.6798352647853476,0.7251028155646941,0.047982809866116534,0.6077981651376146,0.8165137614678899,0.726683221248721,0.3402030293264583,0.04625874764668477,0.261682242990654,0.4369158878504673,0.34332287140342216,0.6664056107539458,0.05964286308085614,0.5559322033898306,0.7423728813559318,0.6690601189046421,0.59275769456364,0.01342366006926503,0.5452103849597135,0.630259623992838,0.5929091479756372,0.6626491835298514,0.023035012885859796,0.597667638483965,0.7309454394002498,0.6630480544843664,0.7620210543126744,0.023760264961667475,0.7190274025472789,0.8151292937089926,0.7623901171198714,0.6555067321297846,0.03492069076248986,0.5925591502408676,0.7581401348461771,0.6564330319954866,0.5931892277814592,0.027041924284609768,0.4943938042108556,0.7019242266761101,0.5938031694250402,0.5278707896369695,0.04708922236389236,0.38260027742457525,0.653219281007976,0.5299597335888944,0.49690042619139885,0.08734504898803522,0.1460674157303371,0.8089887640449438,0.5044926993445751,0.4389745916515432,0.025497251955928977,0.37280701754385964,0.5570175438596491,0.43971190592797726,0.4222895309102206,0.020508511482003097,0.34684684684684686,0.5315315315315315,0.4227855208235655,0.4257271364317859,0.021565446988420597,0.3739130434782609,0.5826086956521739,0.4262711103437831,0.5378568780126066,0.021689466403166928,0.47311827956989255,0.7311827956989247,0.5382925152700213,0.46490018148820295,0.02258199472154157,0.3263157894736842,0.5473684210526315,0.46544641667673264,0.3738916256157635,0.037102332643596594,0.1714285714285714,0.5142857142857142,0.37572168416922797,0.3930238726790449,0.034716488574143625,0.23846153846153847,0.5230769230769231,0.3945489109011026,0.28756961135172604,0.026585624130432646,0.2076437692723101,0.3482619196278386,0.28879168886558026,0.7860463347941739,0.0650816369304883,0.6796275279278273,0.8685308890581386,0.7887267298149228,-0.4544570275252141,-0.46274354566424586,1.0,0.33526678609043176,0.3255747547568656,-0.2613995543290989
19,0.47152458031858596,0.0887688019386632,0.3215031315240084,0.676409185803758,0.47978509905433664,0.7038016840517782,0.10362915262681263,0.49541284403669716,0.9357798165137616,0.7113693765034949,0.3208552041992058,0.10057323407366306,0.20560747663551404,0.5514018691588783,0.33620726525812517,0.5820106802879026,0.034164365114581305,0.5016949152542369,0.6711864406779662,0.5830098095179196,0.5761126304558444,0.021428305805632146,0.526857654431513,0.6508504923903313,0.5765099108030828,0.620183371083966,0.03810131521160934,0.5393586005830904,0.7284464806330695,0.6213494561852057,0.7652199658459463,0.019843565518613868,0.7016595908915476,0.8054805094558085,0.7654765080705039,0.6554070623012662,0.05585889285431694,0.5274430326994538,0.8390726472616503,0.6577766221815302,0.5953698027855394,0.028645952539242132,0.42052447134355553,0.7059483622917798,0.5960566621323486,0.5288282453687357,0.06447267893861311,0.3877201094285825,0.7161358995106539,0.5327331894466338,0.5007541942434971,0.07004881161118626,0.2808988764044944,0.7640449438202247,0.505616609373416,0.4396419130016834,0.01887911841486647,0.39035087719298245,0.5219298245614035,0.4400459706481857,0.4240157966185363,0.01699870147130031,0.3738738738738739,0.49549549549549554,0.42435546417348546,0.42818344252531476,0.015911633313693895,0.3826086956521739,0.4782608695652174,0.4284781755043037,0.5399617027544564,0.014931533212822836,0.5053763440860216,0.6021505376344087,0.5401675483604927,0.46546503244412446,0.01716990281035448,0.42105263157894735,0.5684210526315789,0.4657807362957953,0.3738551859099798,0.030058145165660004,0.21428571428571425,0.49999999999999994,0.37505828453960177,0.3943519494204433,0.0381031952487848,0.17692307692307693,0.5846153846153846,0.396183462324061,0.42692969406762954,0.07748934678836135,0.26181513505060483,0.5502376326594498,0.43388605829937693,0.7850832501844973,0.05485764987262132,0.656646645368785,0.8619795672834748,0.7869922659360071,0.44967960876054214,0.3363186147887624,1.0,0.7743257086908019,0.14878346233669668,-0.3068321608968881
20,0.3728366681522834,0.045291291680859797,0.2693110647181629,0.4697286012526097,0.37557139475154194,0.5018864034635604,0.14400403829271533,0.2247706422018349,0.731651376146789,0.5220924483841968,0.2980468339808882,0.044567415921677865,0.21261682242990632,0.41822429906542036,0.30135312560942384,0.4497733764997142,0.05887740436321094,0.29491525423728815,0.5559322033898306,0.4536020821770157,0.5760443805136153,0.01585596487879563,0.535810205908684,0.6342882721575649,0.5762620714341821,0.6491312140540694,0.046232695324514614,0.5501874219075384,0.7463556851311952,0.6507718431913162,0.729207845654144,0.025879340082079826,0.6495561559243535,0.7877267464299498,0.7296658943464387,0.6573735136314198,0.057481276179125546,0.5286833397002426,0.8632536725490294,0.6598762070252049,0.5869333900785981,0.04341978588817128,0.35153928936064543,0.7217597660022629,0.5885336401739406,0.5226951420826845,0.051826106143306405,0.349786151889955,0.6568315801641429,0.5252524355038535,0.4981694230526451,0.05682751947942076,0.3146067415730337,0.9887640449438202,0.501392943738104,0.440084762467969,0.02139760546927333,0.38596491228070173,0.6140350877192982,0.4406034802211666,0.4243546917704213,0.021105253500905995,0.34234234234234234,0.5630630630630631,0.4248780238877247,0.42759159745969966,0.016791844521118815,0.3739130434782609,0.5130434782608696,0.42792044427556963,0.5395433127944922,0.015982863792175124,0.47311827956989255,0.6236559139784947,0.5397794589153615,0.4654997043169729,0.024701432849768903,0.3263157894736842,0.6,0.46615315547166386,0.3739967897271261,0.03908553173389312,0.19999999999999996,0.6714285714285714,0.3760290474565376,0.39445116681071823,0.042697203978078115,0.16153846153846155,0.5615384615384615,0.3967501449042591,0.5965605219949229,0.05888625790318481,0.4411591230566565,0.7239676797073331,0.5994532971237524,0.6862221854400867,0.06238663056283904,0.5325308602984792,0.8065809206486337,0.6890458861278616,0.45304506760724406,0.8211795833480106,1.0,0.438180944821472,-0.1608179653654564,-0.8081581824404016
21,0.5881721571541463,0.17543183184910485,0.3173277661795408,0.8288100208768268,0.613706668774823,0.5990061162079519,0.19090596885449918,0.2155963302752294,0.7866972477064221,0.6286099458091259,0.3248587570621472,0.03892450253243106,0.24532710280373804,0.41355140186915884,0.3271758685265835,0.5833860001915155,0.19884239030765924,0.2644067796610168,0.8372881355932207,0.6162514351305853,0.5886100278692423,0.022536348721848082,0.53088630259624,0.6307072515666965,0.5890400811599023,0.6779143341874976,0.03057208491988162,0.6018325697625988,0.7501041232819657,0.6786013974435035,0.740592707917672,0.04396828545615379,0.6460825935932072,0.8020069471246623,0.7418930570515074,0.6841921905730446,0.08427687850712828,0.5358126243407768,0.9314705575924154,0.6893485925655677,0.5913506976441569,0.04313729925994267,0.4667997314176916,0.7390060614979903,0.5929175470665318,0.5176975991584961,0.06544663574338057,0.16104592917967103,0.6616479790390322,0.5218064456233374,0.49561988192725204,0.0878568365859401,0.25842696629213485,0.8426966292134832,0.5033250306806228,0.44103726831202344,0.027724903455886577,0.34210526315789475,0.5833333333333333,0.4419053868497437,0.42477222985697544,0.0235056586497783,0.35135135135135137,0.545045045045045,0.4254202656980491,0.42815033161385607,0.024323830823018942,0.26956521739130435,0.5130434782608696,0.4288387621039158,0.5398821456776632,0.026465949609724714,0.2580645161290323,0.6236559139784947,0.5405286292583058,0.46520963425512907,0.019274472552561837,0.39999999999999997,0.5368421052631579,0.46560762412786283,0.3748991121872473,0.031341878008918946,0.19999999999999996,0.49999999999999994,0.3762032465829298,0.3943285528031293,0.034582240728277286,0.25384615384615383,0.5076923076923077,0.3958377958108406,0.4080980033664069,0.19900852933142207,0.16412136894573237,0.7096804147263602,0.4539124345917229,0.7293080819337955,0.12996419876386345,0.4843710226237542,0.8683819515998256,0.740765318783461,-0.6379766394109495,-0.09911024976149323,1.0,0.30055163698014997,0.6365241978427933,-0.08582338042652529
22,0.663094656420735,0.06746356572966422,0.5031315240083507,0.7745302713987474,0.6665086282010505,0.6629782354089403,0.063235206702369,0.5802752293577982,0.8027522935779816,0.665979126681293,0.2826357128653808,0.07167414132339946,0.20794392523364458,0.44626168224299056,0.2915586836330931,0.6739812477461232,0.07702490905265827,0.5389830508474573,0.8033898305084746,0.6783566761720625,0.5985923541400789,0.01912400633270822,0.5411817367949866,0.6347358997314234,0.5988969538855073,0.682843806215495,0.03627856754593591,0.5897542690545605,0.7509371095376925,0.6838042832510153,0.7667991492646398,0.020340413331957265,0.7167116943265148,0.812427634118101,0.7670681634478929,0.6596355729970286,0.05364824941853225,0.5221692473320997,0.815814410382858,0.6618078038338007,0.5925401479081442,0.031052161954816013,0.5291715339545067,0.7286582842005539,0.5933510758274563,0.5216665575291177,0.06267821074184056,0.21673794937001511,0.6905463722883675,0.5254085144468588,0.503765240258188,0.09653994063743988,0.2359550561797753,0.8539325842696629,0.5129079744970263,0.4399612728630097,0.02711892678294525,0.34210526315789475,0.5394736842105263,0.44079405833312174,0.42471727046195107,0.023164401426785428,0.26576576576576577,0.5360360360360361,0.4253468258050074,0.4285152636447756,0.021496281551169637,0.31304347826086953,0.5391304347826087,0.42905266848487245,0.5401509951956083,0.0192141782874984,0.48387096774193555,0.6129032258064517,0.5404917209208729,0.4649216125419935,0.022136613684775035,0.3684210526315789,0.5473684210526315,0.4654469166335606,0.3758358662613976,0.039604938645917756,0.1857142857142857,0.5142857142857142,0.3779113359704518,0.39791325695581053,0.04824711175663721,0.16153846153846155,0.6538461538461539,0.4008198509800823,0.3289676030700443,0.04418259838716574,0.22169018573037813,0.4091378209094194,0.33191353408569035,0.8020700481346624,0.056818421737754025,0.6994760868467896,0.9049812990293892,0.8040746912889114,-0.3617682348401334,-0.28291650503057875,1.0,0.800383666542357,0.5093828778989862,0.37649784781809703
23,0.3964069616381992,0.15382169987806452,0.21920668058455117,0.7056367432150313,0.4251379820157203,0.5568951729346703,0.0748330634848663,0.44495412844036697,0.7454128440366972,0.5618884780247444,0.2798816501097501,0.052518610062915624,0.20093457943925208,0.42757009345794383,0.2847547436129438,0.5076045471334165,0.05661019762076159,0.4508474576271184,0.6949152542372881,0.5107438997638374,0.5800874011805228,0.019858234516697337,0.5335720680393913,0.6745747538048343,0.580426384346147,0.6422787922304365,0.037820566282691065,0.5643481882548937,0.7467721782590586,0.6433886685015637,0.7441777880781211,0.013715671353054282,0.7093786182940949,0.794287919722115,0.7443038656449474,0.6510201828401123,0.04872416599249203,0.46976875716277294,0.7711633583544599,0.6528365603467903,0.5907837311315504,0.033995188962853674,0.45501706233501055,0.7119822662092183,0.591758643031883,0.529881766620588,0.08002859017550375,0.22305706469386977,0.7498506916348784,0.5358766223640654,0.49538863345757317,0.11391107956595196,0.0561797752808989,1.0,0.5082855634036796,0.4389894227093167,0.02767835038816939,0.3333333333333333,0.5964912280701754,0.43985901080776496,0.42420871234430485,0.018223820208743895,0.3648648648648649,0.5270270270270271,0.4245990286342321,0.42812927676597773,0.018938258799359654,0.3826086956521739,0.49565217391304345,0.4285469249102805,0.5399776094144615,0.019423641853823705,0.4516129032258065,0.6236559139784947,0.5403259969926478,0.46575761437492086,0.02553680316363534,0.28421052631578947,0.5789473684210527,0.4664554691080923,0.37530266343825636,0.04992379331556536,0.19999999999999996,0.5571428571428572,0.3786006332430246,0.393723225926616,0.05166000422043327,0.1076923076923077,0.6000000000000001,0.39708975407468555,0.5539591425193978,0.1144288712446083,0.33343586067318176,0.6701306958886835,0.565626196030197,0.7288107735786046,0.028791889525751867,0.6722109309594123,0.8165410400107517,0.7293778920342984,-0.32566931659547943,-0.5388685299144261,1.0,0.7248555328220155,0.19595387392579366,-0.13661068765717957
24,0.2876344949413841,0.04556945007392669,0.1920668058455115,0.40709812108559507,0.29121272793184577,0.4347565278757942,0.15517811643747192,0.11926605504587157,0.6146788990825689,0.4615536178241,0.29708842559309784,0.05208030345243946,0.17757009345794383,0.41822429906542036,0.30160725433079644,0.40361581920903994,0.07585194868326396,0.24406779661016964,0.5423728813559321,0.41066348148364884,0.5710534168904806,0.018244797105336545,0.518800358102059,0.6589077887197852,0.5713440505021169,0.6484990228430458,0.04635039281718841,0.5768429820907954,0.749271137026239,0.6501490851566991,0.7179338736652512,0.030015647972157004,0.6557313778463914,0.7815515245079119,0.7185594449861933,0.6511930417632358,0.06246132622550882,0.4641873756592232,0.8356593223954794,0.6541741291740825,0.5867337485651674,0.05230530912890066,0.4087372032487423,0.7582621252954866,0.5890546002539088,0.5226655902632666,0.05663454865048779,0.27061900358340085,0.6438899163873155,0.5257171930407598,0.4961106309420918,0.059358852399133556,0.1348314606741573,0.7752808988764045,0.4996400673933483,0.4391138101664424,0.021978899627492,0.3508771929824561,0.5219298245614035,0.43966211078679196,0.4240471240471238,0.021128644594671706,0.3558558558558559,0.509009009009009,0.4245718294580393,0.42789297658863096,0.018549649006023412,0.3652173913043478,0.4869565217391304,0.42829383209592237,0.5389853873724855,0.025059703305663567,0.33333333333333337,0.827956989247312,0.5395661463651346,0.466450742240216,0.024768967284951576,0.3684210526315789,0.6631578947368421,0.46710622303221955,0.3770329670329667,0.042414020357148155,0.24285714285714283,0.5428571428571428,0.37940505355422005,0.39611439842209106,0.046765262910855365,0.18461538461538463,0.6230769230769231,0.39885836933205193,0.6837397577664034,0.0744371076631815,0.5934117559533227,0.8621185149113706,0.6877693886437654,0.6521478930517168,0.07844672947229984,0.48230593378662767,0.8073323852246442,0.656837106574525,0.27497997893846793,0.7508329757092518,1.0,0.43091090111960223,0.013647533262009253,-0.6800471999145967
25,0.42466024272945585,0.154304517862416,0.1691022964509395,0.6889352818371609,0.45175201514823127,0.5642712938590885,0.20454343607473574,0.1330275229357798,0.7660550458715597,0.6001029660622187,0.3482414807487052,0.05323458727960678,0.25934579439252303,0.46261682242990654,0.3522756821946847,0.475501628818281,0.1678784377536369,0.20338983050847448,0.6949152542372881,0.5041889171927638,0.57125632476565,0.023721011395671763,0.5067144136078783,0.6329453894359893,0.5717472410032735,0.6451780189080921,0.039758002338965884,0.5522698875468555,0.7413577675968346,0.6463984620739521,0.7258852961128569,0.048323623645014566,0.6248552682362022,0.7861829409494403,0.7274875470109269,0.6842113423981561,0.0940731004723762,0.44217440700922295,0.9466667989660802,0.6906303339627425,0.5930548229660884,0.038997404517752535,0.46507510186811885,0.768035026076399,0.5943320489402867,0.518671125766559,0.06479165440882537,0.27874426848533895,0.6739924093553732,0.5226911150070556,0.4978873900660388,0.09286896194203809,0.2359550561797753,0.898876404494382,0.5064508596109913,0.43826662757171575,0.027726654018730368,0.33771929824561403,0.5745614035087719,0.4391403679610273,0.4236492760169643,0.02511513319297478,0.34234234234234234,0.5945945945945946,0.4243910012779915,0.4272738282669271,0.024724830173968686,0.3652173913043478,0.5565217391304348,0.4279866104395125,0.537963878156169,0.02670793197333348,0.3548387096774194,0.7204301075268817,0.5386246010767337,0.46465327664565315,0.01853311463626467,0.34736842105263155,0.5368421052631579,0.4650217060278591,0.37361719060883397,0.038915390302742284,0.12857142857142856,0.5571428571428572,0.37563279185299425,0.3925433897578746,0.02808047835172525,0.26153846153846155,0.48461538461538467,0.39354368206246926,0.5338261521022593,0.18710448793727427,0.2976866639673329,0.8458424666188356,0.5655801751345217,0.677792805484863,0.14116828736072934,0.43425650471061783,0.8390169749936455,0.6922976682194818,-0.6421243755873259,0.21699194106435127,1.0,0.30658483508109785,0.5745513698940533,-0.3958336010938405
26,0.5814147691411369,0.047373467127786055,0.4363256784968685,0.6471816283924844,0.5833370895012843,0.6279976530829958,0.07920323272620997,0.4678899082568808,0.7752293577981652,0.6329609906039065,0.27209302325581397,0.06481543025099501,0.17990654205607481,0.4088785046728971,0.2796889047542793,0.6176271186440679,0.0745735414573272,0.46440677966101696,0.7186440677966104,0.6221025138322251,0.594676354854157,0.016908187745591653,0.5514771709937332,0.6351835273052819,0.5949161192827217,0.6715360847708806,0.0317495787830064,0.6009995835068721,0.7292794668887963,0.6722844670473265,0.7623437121341308,0.023516499081408224,0.7032033963720571,0.802778849864917,0.7627054969338737,0.658008327709647,0.03986215516022391,0.526202725698665,0.8074398575135318,0.6592118441141618,0.5894581764767161,0.028529535452760213,0.5122149762231074,0.6800789190481886,0.5901465778412376,0.520331005332538,0.04477342449589661,0.32690825723423117,0.6243208877586406,0.5222493203945089,0.4978573295009149,0.07880281736040491,0.202247191011236,0.8426966292134832,0.5040410330230727,0.4393002855977157,0.022307836693769352,0.32456140350877194,0.5482456140350878,0.43986500565837994,0.4248481039178712,0.020724539230125127,0.32432432432432434,0.5225225225225225,0.4253521118750028,0.4286956521739154,0.01979132436803925,0.3652173913043478,0.5130434782608696,0.42915119455841866,0.5404851212803216,0.01999736093521606,0.48387096774193555,0.6021505376344087,0.5408540753130135,0.4669767441860472,0.02137771736166462,0.3894736842105263,0.5684210526315789,0.46746467631649413,0.37661129568106233,0.029241270916623416,0.2857142857142857,0.5571428571428572,0.3777421494439565,0.3940608228980332,0.034945362276174056,0.23076923076923078,0.5846153846153846,0.3956036786204709,0.39862192412803915,0.046926606413467326,0.3019947618344063,0.4770993123047933,0.4013681895808069,0.7887857247078564,0.06598040181590059,0.6529279641794806,0.8869804726682918,0.7915340856270316,-0.23064729494407188,0.17834201402060257,1.0,0.6378568912645066,0.4760128594266205,0.11041977785384806
27,0.29998683443359847,0.12708048108409178,0.1795407098121086,0.605427974947808,0.325719285064908,0.45693170234454683,0.1099259293729695,0.2798165137614679,0.7087155963302754,0.469929785328333,0.2552622716174112,0.048548425237375466,0.20093457943925208,0.37850467289719614,0.2598243617861968,0.45622232401893426,0.036812084910482816,0.3830508474576271,0.5389830508474573,0.457700632586901,0.5787475030984438,0.018170232931843878,0.5255147717099373,0.6168307967770814,0.5790318110811546,0.6482546686628319,0.04155749969320937,0.5589337775926697,0.736359850062474,0.6495813690064569,0.7350797343078319,0.012590465594722699,0.7012736395214203,0.7603241991509069,0.7351872275675473,0.6466718451160041,0.03974401853959312,0.47597029216671716,0.7513184463418385,0.6478883536311477,0.5912197897729409,0.02694238482714895,0.5176740036240217,0.7085330071100728,0.5918315233773696,0.5295789807840435,0.06468997567997374,0.29590509767656925,0.7040949023234309,0.5335036296933098,0.4967776765529572,0.10138246925167013,0.2247191011235955,0.8089887640449438,0.5069867837642561,0.4389257678731368,0.025986904115525792,0.3684210526315789,0.5307017543859649,0.4396920750968682,0.4237751264778293,0.019955725470755824,0.3738738738738739,0.5045045045045045,0.42424331805172644,0.4280976628802736,0.018844445451523088,0.3652173913043478,0.4869565217391304,0.4285109749844773,0.5402176369918311,0.020820657819004246,0.4516129032258065,0.6236559139784947,0.5406175110999241,0.46647700331910874,0.027644888493011496,0.34736842105263155,0.5684210526315789,0.46729299103536015,0.37370227370227327,0.053409477317928646,0.1714285714285714,0.5428571428571428,0.3774882718105799,0.39330099330099283,0.0696944714942008,0.09999999999999998,0.6230769230769231,0.3994100701582132,0.6624535894523541,0.09892912787691342,0.4772772129437346,0.7653793820512612,0.6697778289951525,0.7023902384726324,0.024097557582565692,0.646104647509249,0.7430186655532233,0.7028022449895999,0.0017227108764934645,-0.12848584146241784,1.0,0.7870766956012955,-0.3537027019307694,-0.6419612673960869
28,0.20686404757385957,0.04462502398091027,0.10229645093945722,0.302713987473904,0.21160834676450213,0.33231859883236053,0.13858562185047538,0.11926605504587157,0.6376146788990826,0.3599769795286995,0.3187836306995188,0.03529636022059231,0.20794392523364458,0.3714953271028034,0.320725834623807,0.33029275808936814,0.05275032795507899,0.25084745762711824,0.43728813559322033,0.33446594898917276,0.5640080301673864,0.017430085290537765,0.5264100268576545,0.6244404655326767,0.5642764795174534,0.6576426488962933,0.04714486948551802,0.5568513119533527,0.7542690545605997,0.6593252286218804,0.693850508169304,0.022880880031185994,0.643766885372443,0.744500192975685,0.6942265306721597,0.6574949045933304,0.07485681534426508,0.45209686301553365,0.8995351329361043,0.6617296365865296,0.5879733602919062,0.05073208496725894,0.4164957367157536,0.8720876755672883,0.590151351462055,0.52719087768215,0.05613952813369518,0.39253650830347175,0.7188475320772165,0.5301625389312693,0.49792305073203963,0.05325620720332726,0.2808988764044944,0.7078651685393258,0.5007544242829984,0.43993886230728385,0.021541227041370518,0.36403508771929827,0.5657894736842105,0.44046432420337944,0.42448812448812445,0.019296561912086754,0.3648648648648649,0.5270270270270271,0.42492516609117537,0.4280895915678543,0.018706064570257967,0.3739130434782609,0.5304347826086957,0.4284968551883912,0.53939393939394,0.018738611723546666,0.48387096774193555,0.6774193548387097,0.5397183463409959,0.46526315789473666,0.02283894905236596,0.39999999999999997,0.5789473684210527,0.4658216858719912,0.37359307359307353,0.04237259914151738,0.22857142857142854,0.5571428571428572,0.37598109138102537,0.3921212121212118,0.04280124482563723,0.17692307692307693,0.576923076923077,0.3944432027565245,0.7869377675354672,0.053229904582060145,0.6431938258263817,0.9225017584065249,0.7887305538560042,0.5815358527971176,0.05036431621941124,0.5012278635169093,0.7080372345375373,0.5837061125927058,0.4555956861270609,0.7263631296241876,1.0,0.5717400238238227,-0.2895563601605866,-0.766522640023037
29,0.27617237403795236,0.1362713189885076,0.11691022964509395,0.48016701461377875,0.30787273361855855,0.26030398466383703,0.13767805423165574,0.06651376146788993,0.5756880733944955,0.2943753186378971,0.4419584321383733,0.04840754652795774,0.3387850467289719,0.511682242990654,0.4445936924899733,0.22226157348848954,0.06744969569696652,0.1220338983050846,0.38983050847457656,0.23224144336714203,0.5437272010582718,0.014574481875252364,0.5062667860340198,0.6025067144136079,0.543921915918461,0.6859355865404339,0.039427091676390816,0.5835068721366097,0.7671803415243648,0.6870643959305271,0.6437208016267559,0.028133114763601298,0.6043998456194519,0.7174835970667696,0.6443334385160174,0.6720795638799205,0.08318233958097239,0.41085417462530327,0.9255815799526699,0.6771924299425475,0.586667408915192,0.05274998092657658,0.394650429087832,0.7338275738371399,0.5890270817375968,0.5138803727288888,0.05732228352838592,0.2919893653912843,0.6619514121681501,0.5170580945839388,0.49112862653027034,0.06166737555149909,0.25842696629213485,0.7303370786516854,0.49497357623258953,0.4388190625818282,0.02037809992306568,0.3333333333333333,0.5219298245614035,0.439290561062736,0.4237595804759984,0.01739554016571502,0.32882882882882886,0.49549549549549554,0.4241154130244357,0.42780012978585524,0.019156670697134406,0.3652173913043478,0.5826086956521739,0.4282275488804735,0.5398812389664585,0.01884016861125714,0.48387096774193555,0.6774193548387097,0.5402088897669017,0.46586017282011005,0.01990174738168971,0.3684210526315789,0.5789473684210527,0.4662838168345716,0.37496801705756905,0.024425900194818145,0.29999999999999993,0.5142857142857142,0.3757603723750771,0.3943053960964413,0.028261481373746566,0.2076923076923077,0.576923076923077,0.39531389111348686,0.7809291401394954,0.11299489637595925,0.64375172995278,0.9511733822516603,0.7890374234160761,0.4377553577343989,0.07417560363481564,0.34346172097074723,0.6246298602705932,0.4439767442771541,0.07013859849637583,0.1237530920108527,1.0,0.08658204576287887,-0.029951538701211967,-0.8757162470268199
30,0.3656018531758516,0.06710420323186653,0.21503131524008354,0.44050104384133615,0.3716884017464789,0.5055689958527086,0.1280133049430926,0.268348623853211,0.7293577981651377,0.5214703199183194,0.3360245167072077,0.14660835521449803,0.15420560747663536,0.52803738317757,0.3665144963358833,0.42677037381007604,0.16875171031090008,0.16610169491525406,0.6338983050847458,0.458816485366106,0.5652279221495932,0.03496798931490437,0.5044762757385854,0.6875559534467324,0.5663048443365819,0.6451820873722708,0.03937761324176536,0.5460224906289046,0.7126197417742607,0.6463785361759241,0.7179633927768938,0.0603107732696667,0.6109610189116171,0.8077962176765727,0.7204834251578408,0.6695292046084508,0.06566045438378108,0.5466677912116807,0.8272847695261532,0.6727301735344422,0.604943361590588,0.05153726866382431,0.4351815230088578,0.804541984381755,0.607127222742489,0.517827372610868,0.07266529191741677,0.14087966709050986,0.6408796670905098,0.5228836863441974,0.4942665845774972,0.07748459544781278,0.2359550561797753,0.7415730337078652,0.5002826780816639,0.438145878394617,0.026658851122757937,0.33771929824561403,0.5877192982456141,0.4389533815938073,0.42367024558805394,0.021544867674749273,0.36036036036036034,0.5900900900900901,0.42421582791982054,0.4274568195354395,0.025358387390703428,0.31304347826086953,0.5739130434782609,0.4282057661450601,0.5390337310354989,0.019171420199259957,0.4623655913978495,0.6129032258064517,0.5393733844345646,0.46564527757750485,0.016263988217100723,0.41052631578947363,0.5473684210526315,0.46592825194631626,0.37544031311154563,0.024968914016942054,0.3142857142857143,0.4714285714285714,0.3762668471778444,0.39415173867228614,0.02883568998011829,0.23846153846153847,0.5076923076923077,0.39520152140710846,0.6056384201967113,0.08002510963591429,0.5024603145138489,0.741260327819961,0.6108845902635992,0.6465676108885187,0.18596628896378972,0.35576810341899234,0.8669778229506812,0.6726921283708029,-0.6941308928395932,0.02022038835511531,1.0,0.4008653708478278,0.7500819334495465,-0.014560501883409202
31,0.19118812927776743,0.14600266534985257,0.0020876826722338315,0.4676409185803758,0.24042092443639373,0.35980867495064467,0.18802180574396252,0.11238532110091745,0.6972477064220185,0.4058356908357285,0.30061072991837223,0.09462964961860214,0.17990654205607481,0.4485981308411213,0.3151083046309498,0.37427590645784126,0.07497351071402603,0.18644067796610164,0.5152542372881359,0.38168795291772223,0.5656680983194134,0.02837939360679929,0.5067144136078783,0.6571172784243509,0.5663772936261817,0.6483717227526504,0.052322432938046226,0.5201999167013744,0.7326114119117034,0.6504728006962359,0.7077200044946231,0.0296486138477766,0.6240833654959475,0.7591663450405248,0.7083388054397793,0.6445225342429926,0.07384092214428938,0.44154929228082535,0.8229486562513953,0.6487253072302187,0.5886471522625798,0.06483937601185476,0.3084189516091944,0.9074402818274636,0.5921961755137656,0.5274115434814736,0.05876576327699693,0.40066177320540985,0.7326898624436482,0.5306650757330538,0.49516427250746736,0.08444952769543847,0.1910112359550562,0.8539325842696629,0.5022915595080429,0.4391794359316015,0.020705768449009374,0.37719298245614036,0.5263157894736842,0.4396657242217152,0.4241931805222947,0.018022972563298583,0.3648648648648649,0.509009009009009,0.4245746742404501,0.4280957622454613,0.020379194474405983,0.3565217391304348,0.49565217391304345,0.4285790229850667,0.540152443174085,0.0208702147691362,0.48387096774193555,0.6451612903225807,0.5405542057541073,0.46545636242504934,0.019272560207291914,0.3894736842105263,0.5368421052631579,0.4658539271944805,0.3750904159132006,0.0350319151242667,0.22857142857142854,0.5285714285714285,0.3767176283795382,0.39447419668938616,0.03383375714895776,0.2,0.5076923076923077,0.3959179112329013,0.7826264693802786,0.15241609735735742,0.555442415655993,0.9683607471650336,0.7972837277532656,0.6166313079046452,0.0812297505556736,0.39516617629655515,0.744392538449934,0.6219417670929868,0.08709764114544796,0.3141928690839949,1.0,0.7337585604491416,0.24138470283214553,-0.07434414010952708
32,0.23824659732801703,0.062327199058882454,0.1294363256784969,0.4363256784968685,0.2462406448496496,0.29882634928506485,0.15537938343984847,0.036697247706422076,0.6353211009174312,0.336700815362888,0.19969969969969978,0.07381897558899089,0.0,0.289719626168224,0.212868144938597,0.4392629918053647,0.10937208140578131,0.27457627118644057,0.7491525423728813,0.4526348478426959,0.5862254376130827,0.022121019997957733,0.5022381378692927,0.6884512085944494,0.5866414013196947,0.6839042290937337,0.0511107954190558,0.5535193669304456,0.8567263640149937,0.685805703676816,0.7325704708954417,0.03749258263321549,0.6406792744114241,0.824006175221922,0.7335263916710274,0.6730302982492125,0.08025499881068571,0.4598463011564623,0.8772096069219053,0.677784114050402,0.6030384637343867,0.058488863748074216,0.28485361344383237,0.770619670894692,0.605859771573429,0.5228381340536009,0.06239646330279886,0.21673794937001511,0.688745039109159,0.5265371225334476,0.49637277727165363,0.07355135807258303,0.2359550561797753,0.7415730337078652,0.5017763352712244,0.43934724197882136,0.019985173046059575,0.36403508771929827,0.513157894736842,0.4398001895807138,0.4245596948299646,0.014186046307040484,0.3783783783783784,0.4864864864864865,0.4247959204699041,0.4284110197153694,0.016512729569149315,0.3826086956521739,0.49565217391304345,0.4287281810446358,0.5396687009590244,0.01699207874844032,0.4623655913978495,0.6129032258064517,0.5399353391617498,0.4653706337916864,0.013588825226610899,0.42105263157894735,0.5157894736842105,0.46556839287442986,0.3746031746031745,0.019796660504310146,0.2857142857142857,0.4571428571428571,0.37512433843953397,0.39461769461769475,0.021993286150487422,0.24615384615384617,0.47692307692307695,0.39522825933200695,0.7677155186046452,0.07980624208976093,0.5736536863340306,0.9050715952420756,0.7718400271739124,0.7052662575528742,0.10309888280224579,0.5417115943398577,0.9774994646299379,0.7127397516757042,0.013102850530999372,0.47418100869233765,1.0,0.3629610561562147,0.13546022852402392,-0.3996485498576005
33,0.19662898977774998,0.11506887409111752,0.03757828810020879,0.4279749478079332,0.22774487218540798,0.19817263705222113,0.12077628488998793,0.029816513761467905,0.48853211009174313,0.2319904280710357,0.3526254806590436,0.07743133681780175,0.23598130841121479,0.5140186915887849,0.36100416163001403,0.265376622177065,0.06703072049123918,0.1830508474576269,0.43728813559322033,0.2736889224297115,0.5606431688617082,0.017628885390922843,0.5282005371530887,0.6181736794986572,0.5609195072253904,0.6932908290936904,0.03189439739832444,0.6114119117034569,0.7771761765930861,0.6940220850127242,0.6661741492506551,0.02935879232097453,0.6159783867232728,0.7414125820146661,0.6668190063350065,0.6692658049009119,0.06208144925240278,0.5386057957065533,0.8238764058879854,0.6721311793830043,0.5792694377749024,0.04128312613356506,0.4323071404262365,0.7272187934031771,0.5807346504073345,0.5203417391173799,0.05927174464620718,0.26098620583362236,0.6881381728509228,0.5236975201328807,0.4967700456173655,0.06197032770828675,0.2247191011235955,0.7078651685393258,0.5006099635920429,0.4393254935704394,0.019072370504315424,0.35526315789473684,0.5087719298245614,0.439738164660133,0.42370572207084467,0.01775074778442127,0.33333333333333337,0.49549549549549554,0.42407637214211885,0.4276033645302709,0.02296536488610179,0.34782608695652173,0.5304347826086957,0.4282179448166344,0.5395388356625945,0.02467586131618969,0.4193548387096775,0.6451612903225807,0.5401012814249465,0.46516563889287255,0.012409227215263812,0.431578947368421,0.5052631578947369,0.4653306791286765,0.37329700272479527,0.020609131341733068,0.2571428571428571,0.4571428571428571,0.3738639207229987,0.3930412911339345,0.02219726740692269,0.23076923076923078,0.5,0.3936658896308551,0.8520268756335081,0.10208155671355079,0.6843828089670789,0.9918442784016159,0.8581037506600913,0.5088449462645549,0.08412916297997888,0.3679562680981907,0.6956782231294586,0.5157340497512415,0.2250338880521093,0.2506057682672778,1.0,0.15865138325327702,0.5692220724202298,-0.40600720740080654
34,0.4935474361211217,0.046505450739768986,0.37160751565762007,0.5699373695198331,0.495727340300375,0.5970441265896415,0.08593842754815383,0.31651376146788995,0.7201834862385322,0.6031797566337384,0.2535821056317166,0.06284711704683636,0.17289719626168187,0.37850467289719614,0.2612321990561364,0.5802276168612324,0.09443085983968355,0.31525423728813573,0.7118644067796609,0.5878397542804044,0.5903704601921063,0.016824183335471973,0.5474485228290062,0.6521933751119069,0.5906094459939069,0.6612410534995622,0.026572692967441986,0.5989171178675552,0.7213660974593918,0.6617732269828903,0.7611339184519228,0.032096319883425095,0.6877653415669625,0.8139714395986105,0.7618084055506384,0.671361408574698,0.0704265021121067,0.4796912131690836,0.8421684535356192,0.6750346209533894,0.5973668786780337,0.042727921790699244,0.4590365989385481,0.7956290988695629,0.5988886388386273,0.5182350943420112,0.047360559583667944,0.35189573459715645,0.6047566755288406,0.5203884813960286,0.49535343069002374,0.09837170952317649,0.2808988764044944,0.8426966292134832,0.504999135585712,0.4396203043632144,0.02856098147992568,0.36403508771929827,0.5570175438596491,0.4405444255299979,0.42447490718384107,0.020362050745284507,0.36036036036036034,0.545045045045045,0.4249616042524563,0.42801653928079403,0.0211036214552353,0.3739130434782609,0.5304347826086957,0.42853498955165575,0.5397415636329834,0.024393339132850127,0.4301075268817205,0.6344086021505377,0.5402909176626733,0.4675261641134539,0.03884652199727733,0.19999999999999996,0.7578947368421052,0.46913262255796834,0.3740634005763687,0.040698426260644474,0.21428571428571425,0.5571428571428572,0.37626455609533116,0.39330525382398546,0.03749602768834476,0.2153846153846154,0.5076923076923077,0.39508343807709584,0.46854302573665246,0.06585340875400063,0.35653466802873746,0.6917862402590157,0.4731350132876945,0.7863158715718654,0.08502012630040025,0.5470556166592394,0.9006778632678315,0.790885731679991,-0.44635502099010477,0.25867874393226925,1.0,0.40491265382546643,0.5515158527446818,-0.11000285077102938
35,0.2783819368166839,0.18481258769826917,0.07515657620041755,0.5782881002087683,0.33396584546290936,0.3496707476904388,0.18370329862463863,0.08715596330275233,0.6697247706422018,0.39484040914252044,0.2469959946595457,0.04936532688816069,0.1448598130841121,0.34813084112149495,0.25186398276088984,0.4332368747416286,0.09097483484822462,0.2847457627118639,0.5864406779661016,0.44265310629114696,0.5822480574211035,0.019379171990096474,0.5438675022381378,0.6257833482542525,0.5825693470592549,0.674868340282141,0.046076917231254344,0.5697625989171178,0.7405247813411078,0.676434003815154,0.7240703211465039,0.027328775304657583,0.6592049401775375,0.7846391354689308,0.7245840804339927,0.6372763058786177,0.06490863638485708,0.43906867827924767,0.7621736132127425,0.640561894911347,0.5889387893278437,0.05450213443337602,0.3061194455430974,0.8243729246957755,0.5914465572804949,0.5321184160163017,0.06128027669591055,0.2940989480984858,0.7239625476823489,0.535623185087343,0.4952041655248018,0.08299755746625122,0.2247191011235955,0.8089887640449438,0.5020874007848555,0.4396356745522347,0.02713609301932559,0.3333333333333333,0.5657894736842105,0.4404694406457491,0.42419248516809516,0.0241205789456047,0.34684684684684686,0.5720720720720721,0.424875322436996,0.4279957582184531,0.02404697688338076,0.3652173913043478,0.5391304347826087,0.42866841651458976,0.540294481285827,0.019817142347528925,0.48387096774193555,0.6236559139784947,0.5406565243104005,0.46532184118833586,0.01897016458926637,0.3789473684210526,0.5368421052631579,0.46570702071040043,0.3759581881533098,0.024043665700716817,0.2714285714285714,0.4571428571428571,0.37672356287016173,0.3934870008040734,0.035581387869240685,0.17692307692307693,0.48461538461538467,0.3950868811946846,0.7234954582155165,0.17847301441772423,0.49253831396985337,0.9663668277596251,0.7451089250613236,0.6765153910970004,0.0712452193108093,0.5450741732967649,0.7942501289156964,0.6802435370279534,-0.18511803908527164,0.07330607354603186,1.0,0.6391786010697698,0.052522724808033425,-0.3454831076772796
36,0.31633664410282375,0.07169413686915965,0.1315240083507307,0.41336116910229653,0.3243325686706171,0.41572452352268896,0.17265176751195896,0.03899082568807341,0.6536697247706421,0.45003904999020095,0.18110230026117852,0.06915392478132382,0.039719626168224,0.3107476635514017,0.19381487705834505,0.5187011356502886,0.08842953639707385,0.254237288135593,0.6067796610169491,0.5261599773803792,0.5919324549584181,0.02252349933050711,0.5094001790510295,0.7323187108325873,0.5923593766856159,0.6720081559731709,0.04619742595362814,0.5830903790087463,0.8054977092877966,0.673588879060015,0.7570091757664119,0.03144375467995229,0.6572751833269007,0.8170590505596295,0.7576597342567429,0.6808381221294308,0.06716571998554799,0.5159677123281554,0.8524034669061287,0.68413199979685,0.5999900648950044,0.06364583444257521,0.29663628252651336,0.7890157194234679,0.6033450349372942,0.5212401730867806,0.06314180632978786,0.3136631603282858,0.6718876430470466,0.5250378861394608,0.49820300382098154,0.09401729975469957,0.101123595505618,0.8202247191011236,0.506967182247499,0.4390985882213957,0.023135575503785446,0.37280701754385964,0.5350877192982456,0.4397056092739988,0.4237267570600902,0.016510492531109408,0.3783783783783784,0.4864864864864865,0.42404721810124696,0.4275508710291337,0.018360080305183202,0.3652173913043478,0.4869565217391304,0.42794357674211564,0.5391187864306143,0.01577817638944453,0.47311827956989255,0.5913978494623656,0.5393488467719607,0.4658514974304443,0.015192017815703115,0.39999999999999997,0.5263157894736842,0.46609831362906734,0.37474747474747455,0.026453469657663313,0.22857142857142854,0.4714285714285714,0.37567685542834306,0.39601139601139634,0.042614058358763765,0.12307692307692308,0.6384615384615385,0.39828993133658286,0.6613563700051645,0.11081968128213185,0.5079795221619264,0.9442872293908521,0.6705459713782541,0.7755462692827063,0.08683083282282027,0.5206009660381515,0.8679040543240178,0.7803756938105079,0.09669909501506199,0.6541329557884361,1.0,0.34171738034725896,0.046319337919600266,-0.48355495613917443
37,0.3374909850066429,0.07133372098788912,0.20459290187891443,0.4446764091858038,0.3449205141409794,0.4049374478732278,0.12858975619651652,0.24082568807339455,0.639908256880734,0.4247935188215177,0.2700594732370433,0.10942038016411212,0.14018691588785037,0.4369158878504673,0.29130980270929274,0.4290539291217266,0.13835814032234167,0.21694915254237257,0.6271186440677967,0.45073344480977884,0.5780060226255391,0.026888426471158307,0.5147717099373321,0.6450313339301701,0.5786288280271866,0.6714217560864786,0.045556861520376024,0.5780924614743856,0.7334443981674301,0.6729599209226867,0.7220827339391606,0.048826347804892076,0.6298726360478579,0.8043226553454264,0.7237256508909974,0.6505433672215275,0.0586097727012942,0.45674553365449017,0.8198429275214201,0.653168651115049,0.5759928890910596,0.07171095329760745,0.27709048096468886,0.7254941638536043,0.5804236118980514,0.5310493444443276,0.07302365080059517,0.3338342388163219,0.716737949370015,0.536028421887049,0.4981409601634322,0.06691227102909691,0.2247191011235955,0.8539325842696629,0.5025986343897104,0.43915470494417885,0.026891806835744103,0.34210526315789475,0.6052631578947368,0.43997431111718943,0.4241113841113842,0.021374685635468016,0.36036036036036034,0.545045045045045,0.4246477151090111,0.42836363636363806,0.018626028839842275,0.3739130434782609,0.5043478260869565,0.4287669207730473,0.5400586510263929,0.018849656591172263,0.48387096774193555,0.6129032258064517,0.5403863100295119,0.465110047846889,0.014494771328022953,0.3789473684210526,0.5052631578947369,0.46533503092913714,0.374233766233766,0.018896181263582505,0.3142857142857143,0.41428571428571426,0.37470879231111026,0.3944615384615384,0.03311339931483791,0.19230769230769232,0.5,0.39584392792744816,0.663533376469924,0.06773329439742437,0.5666416507643912,0.7936033456641419,0.6669690082405878,0.6703573999869746,0.1462837203209618,0.4375275024630064,0.8893685483828654,0.6860759114477437,-0.535063307164256,0.18909125606074106,1.0,0.42558715225650295,0.5376200213371284,-0.2688556983466945
38,0.42724385270870746,0.05955451055217437,0.3173277661795408,0.5741127348643007,0.4313586081913789,0.5228822332488487,0.11922451288511425,0.25917431192660556,0.6559633027522935,0.5362508788262188,0.28016473326302765,0.07023613752326209,0.16822429906542058,0.41121495327102786,0.28880131194036274,0.49316098397414726,0.1038719507192127,0.2406779661016949,0.6474576271186443,0.5039396355009863,0.5828267768376243,0.02259432958319881,0.5456580125335722,0.6794986571172783,0.5832628645237192,0.6591449412290928,0.035402598284585626,0.5868388171595168,0.7276134943773427,0.6600912972373105,0.7381567743475993,0.03614639533747216,0.6576611346970281,0.8035507526051717,0.7390378214358985,0.6741961763371781,0.06795248521164927,0.4787585023044904,0.8511631599053398,0.6775987436170758,0.6058962986112445,0.037976410587254136,0.45731656840110757,0.697325214543916,0.6070806542203008,0.5231999374505338,0.07542559557365215,0.30252764612954197,0.6559309135745386,0.528587796633134,0.4943383028024312,0.07338733836959593,0.16853932584269665,0.7078651685393258,0.49973503280624315,0.438954877466039,0.02007897458063857,0.37280701754385964,0.5219298245614035,0.43941208555884004,0.42452764048094777,0.018855376326926417,0.36936936936936937,0.5045045045045045,0.4249445368305728,0.4294366435459324,0.023507327853082096,0.30434782608695654,0.5478260869565217,0.43007705717671174,0.5420693694824479,0.036229789192390255,0.3978494623655915,0.7634408602150539,0.543274048314725,0.4651238992422682,0.033848252768561654,0.2421052631578947,0.7052631578947368,0.466349105144162,0.37431906614785987,0.03586440102468195,0.12857142857142856,0.4714285714285714,0.376026612965601,0.39299610894941606,0.04380792244064281,0.23076923076923078,0.5230769230769231,0.3954207989853457,0.5510446469195536,0.0777711412256519,0.41086385336248854,0.752220059040574,0.5564845180855014,0.7167729786638364,0.0997216337128067,0.4687697335379969,0.8642516805862931,0.7236499243371032,-0.4217938425371164,0.3107727012614109,1.0,0.357201514282521,0.474270997098546,-0.25453896100551243
39,0.18946011826314146,0.12974687365677695,0.0,0.4363256784968685,0.22952639192014554,0.31118343498539286,0.20015449637280225,0.05963302752293581,0.7293577981651377,0.369844626966059,0.22866522215840815,0.07208515602732606,0.09579439252336441,0.3878504672897196,0.23972805180944382,0.4216078022914494,0.05885207831412926,0.29491525423728815,0.5152542372881359,0.42568419198558627,0.5801565946294694,0.0253248892588126,0.5116383169203222,0.6347358997314234,0.5807075277861843,0.6662831362165206,0.05028710572485031,0.5356101624323198,0.7184506455643481,0.6681728421157962,0.72601549411478,0.02002242965958028,0.6812041682747974,0.7641837128521806,0.7262907651610704,0.6457278269763147,0.08312992263608715,0.35224718822402923,0.8124010855166871,0.6510420165101998,0.5912589556768791,0.04449197302975746,0.45098832770720854,0.7237695343040316,0.5929259303681748,0.5253871173868885,0.0683510628184128,0.29530304781720806,0.680913574538589,0.529802265939366,0.4940053982800833,0.0971581957564832,0.1460674157303371,1.0,0.5034428275519639,0.43876800940899785,0.023999863746436294,0.33771929824561403,0.5614035087719298,0.4394220643303006,0.4234989179123255,0.01954022979888233,0.3783783783783784,0.5225225225225225,0.4239482132472897,0.4273014330823436,0.021115230689605226,0.3652173913043478,0.5130434782608696,0.42782136725735015,0.5394966059950751,0.025177203420310414,0.34408602150537637,0.7526881720430109,0.5400821315368834,0.46545133784181086,0.02032507822895663,0.3157894736842105,0.5578947368421052,0.46589366036525504,0.3752194732641658,0.03411413736981224,0.1571428571428571,0.5428571428571428,0.37676275919832136,0.3942844864632571,0.048343445758101164,0.17692307692307693,0.6153846153846154,0.39722892245215713,0.795565447995278,0.14856078075903842,0.5828427581247266,1.0000000000000002,0.8092793329409779,0.6811494563690349,0.05301134303159418,0.5584061183737524,0.776031120255413,0.683203435789238,0.25749738139424067,0.4441006410878984,1.0,0.8263024206667293,-0.17471717649218368,-0.32451216746213535
