,Orientation X,Orientation X,Orientation X,Orientation X,Orientation X,Orientation Y,Orientation Y,Orientation Y,Orientation Y,Orientation Y,Orientation Z,Orientation Z,Orientation Z,Orientation Z,Orientation Z,Orientation W,Orientation W,Orientation W,Orientation W,Orientation W,Accelerometer X,Accelerometer X,Accelerometer X,Accelerometer X,Accelerometer X,Accelerometer Y,Accelerometer Y,Accelerometer Y,Accelerometer Y,Accelerometer Y,Accelerometer Z,Accelerometer Z,Accelerometer Z,Accelerometer Z,Accelerometer Z,Gyroscope X,Gyroscope X,Gyroscope X,Gyroscope X,Gyroscope X,Gyroscope Y,Gyroscope Y,Gyroscope Y,Gyroscope Y,Gyroscope Y,Gyroscope Z,Gyroscope Z,Gyroscope Z,Gyroscope Z,Gyroscope Z,EMG1,EMG1,EMG1,EMG1,EMG1,EMG2,EMG2,EMG2,EMG2,EMG2,EMG3,EMG3,EMG3,EMG3,EMG3,EMG4,EMG4,EMG4,EMG4,EMG4,EMG5,EMG5,EMG5,EMG5,EMG5,EMG6,EMG6,EMG6,EMG6,EMG6,EMG7,EMG7,EMG7,EMG7,EMG7,EMG8,EMG8,EMG8,EMG8,EMG8,Roll,Roll,Roll,Roll,Roll,Yaw,Yaw,Yaw,Yaw,Yaw,Accelerometer X vs Roll,Accelerometer Y vs Roll,Accelerometer Z vs Roll,Accelerometer X vs Accelerometer Y,Accelerometer X vs Accelerometer Z,Accelerometer X vs Accelerometer Z
,mean,std,amin,amax,RMS,mean,std,amin,amax,RMS,mean,std,amin,amax,RMS,mean,std,amin,amax,RMS,mean,std,amin,amax,RMS,mean,std,amin,amax,RMS,mean,std,amin,amax,RMS,mean,std,amin,amax,RMS,mean,std,amin,amax,RMS,mean,std,amin,amax,RMS,mean,std,amin,amax,RMS,mean,std,amin,amax,RMS,mean,std,amin,amax,RMS,mean,std,amin,amax,RMS,mean,std,amin,amax,RMS,mean,std,amin,amax,RMS,mean,std,amin,amax,RMS,mean,std,amin,amax,RMS,mean,std,amin,amax,RMS,mean,std,amin,amax,RMS,corr, corr, corr, corr, corr, corr
0,0.8250377073906489,0.07416975861034113,0.7647058823529409,0.9954751131221717,0.8282910864317191,0.5407407407407411,0.07124813437128182,0.4249084249084252,0.6336996336996339,0.5453109560204896,0.7116049382716052,0.09777879807650501,0.49777777777777765,0.8400000000000005,0.7181433155530487,0.564187327823692,0.06538144116338174,0.4710743801652897,0.6446280991735538,0.5678794587429064,0.5561102444097764,0.06275305729846477,0.3978159126365055,0.7004680187207486,0.5595614713525613,0.5350328062815962,0.05444344512179387,0.39399806389157804,0.6689254598257504,0.5377344362007518,0.5622917810726706,0.1241356507332409,0.4118616144975288,0.8517298187808896,0.5755338999231717,0.43140333132700825,0.11715408905679711,0.23269234349112983,0.6771347195591877,0.4466865937903679,0.3342439587128111,0.0774375108743283,0.16222950819672133,0.4982950819672131,0.3429028068677002,0.48282960245453566,0.05892028701457436,0.3339675595204186,0.5713276594775039,0.48633206614070523,0.45611111111111113,0.0901238976031991,0.2,0.7375,0.46473558790635633,0.3432506887052342,0.07709785876174054,0.15702479338842976,0.5371900826446281,0.35161488088457055,0.20335917312661506,0.051742239447327955,0.10465116279069767,0.36046511627906974,0.20969672860037178,0.36984126984126975,0.09961531864590903,0.2142857142857143,0.8571428571428571,0.38273392947447843,0.47753086419753105,0.12378452570531699,0.06666666666666671,0.8,0.49296838909555074,0.35777777777777764,0.06211751651978578,0.18333333333333332,0.6166666666666667,0.36301209040165283,0.4640740740740739,0.07752122188712698,0.23333333333333334,0.6166666666666667,0.4703623504711456,0.45977011494252856,0.07706286435227737,0.1330049261083744,0.6157635467980296,0.46604213637533254,0.7376162191826884,0.030603363359908795,0.6516811624329648,0.7727197915853599,0.7382367100570669,0.649191160734948,0.13008377388227788,0.5144627968254674,0.8716017955911792,0.6618118400765105,-0.010041153849124742,0.4380110427000045,1.0,0.018370093460474187,-0.21742039972288296,-0.126910576782848
1,0.5231900452488686,0.014401333413885687,0.49773755656108554,0.5475113122171944,0.5233846752711439,0.6274201988487709,0.053048471549739976,0.4761904761904763,0.673992673992674,0.629618927408662,0.33579365079365087,0.04246010303245873,0.22222222222222254,0.38222222222222224,0.3384199201111578,0.7041765053128691,0.013643232696400635,0.6776859504132235,0.7314049586776865,0.7043063002300888,0.4813906841987964,0.030330871292965047,0.4134165366614666,0.5397815912636506,0.48232823336222236,0.5282291522610982,0.03275831619201122,0.46563407550822855,0.5837366892545984,0.5292258326539048,0.22428806778065427,0.020625533383957267,0.1614497528830312,0.27018121911037885,0.22521756885752023,0.42644495296955304,0.07521139954852495,0.3205383570059011,0.5916249371730673,0.4329099664593767,0.38994233021077285,0.029733117546298978,0.3166010928961749,0.43989071038251365,0.391054078631392,0.48229605613308657,0.021688477779358575,0.44433810711966365,0.5312157014655562,0.48277476736804026,0.4457589285714287,0.10291978302062724,0.16249999999999998,0.8375,0.4572792939534562,0.34194214876033063,0.08524187088965725,0.041322314049586806,0.6528925619834711,0.3522227370555074,0.1991279069767442,0.0572259081418798,0.10465116279069767,0.40697674418604646,0.20704649054426655,0.36607142857142866,0.08348008105655894,0.17857142857142858,0.6071428571428571,0.3753035700327139,0.47579365079365055,0.07799701116196966,0.24444444444444446,0.6888888888888889,0.48203163522169096,0.35416666666666663,0.02547528015527796,0.2666666666666666,0.41666666666666663,0.3550653863324733,0.45595238095238083,0.07009579098219747,0.25,0.5666666666666667,0.46121389177718186,0.4583040112596763,0.0821129585328637,0.3004926108374384,0.8078817733990148,0.46547255797971104,0.5973262704664547,0.030011299845242926,0.5006450690626414,0.6178389830906301,0.5980662738944044,0.22483535921825532,0.02059485429021269,0.19566366112241385,0.26930281890068297,0.22575985627695977,-0.09392136609764415,0.7252555364298711,1.0,0.07082668273361808,-0.16430038652439405,-0.19004531722585352
2,0.5495927601809957,0.029256976836424975,0.48868778280542946,0.6018099547511309,0.5503631646740503,0.4734798534798538,0.11920490192120059,0.11355311355311382,0.611721611721612,0.488109498173234,0.4041777777777781,0.14734031601798558,0.0,0.6133333333333335,0.42994389527753474,0.5685123966942154,0.0772649704397504,0.40909090909090917,0.669421487603306,0.5736867804782377,0.5187051482059284,0.03885124914178428,0.41965678627145064,0.6396255850234007,0.5201435918471093,0.5136495643756053,0.06613656074246109,0.2681510164569217,0.6021297192642789,0.5178476409171153,0.3828006589785833,0.0910758188375107,0.26029654036243816,0.657331136738056,0.3933804789813437,0.44461577840242744,0.10903904214304824,0.26701911800294126,0.6637595636553175,0.45766123714900214,0.3766592349726778,0.05426518442855539,0.2459016393442623,0.5088797814207651,0.3805094511688997,0.4945300459908929,0.04340349532688606,0.42938631970316693,0.6119181354509652,0.49641211826493514,0.4533750000000001,0.08415982195390585,0.21250000000000002,0.6625000000000001,0.4610433141256905,0.3403305785123967,0.0758850099562726,0.1652892561983471,0.578512396694215,0.34860558236965394,0.19906976744186042,0.045690424893926745,0.08139534883720928,0.3372093023255814,0.20419478712022524,0.3600000000000002,0.07858782460436334,0.14285714285714285,0.6071428571428571,0.3683941988065037,0.46266666666666656,0.12452698881771768,0.13333333333333336,0.8444444444444446,0.4789700885013723,0.3531666666666668,0.034221746684351836,0.2833333333333333,0.4666666666666667,0.35480432792049055,0.44583333333333336,0.09037194001507073,0.15000000000000002,0.75,0.45481070543444546,0.46221674876847346,0.05690788630956002,0.1724137931034483,0.6354679802955665,0.4656720361918645,0.4995569203838355,0.09820269124555808,0.2363612965602293,0.6005100013895381,0.5090230324706079,0.427784957958289,0.10765118165701956,0.3059025613779207,0.6531950968792462,0.44099077019639105,0.01744788299043833,0.7748577835787822,1.0,0.32675875986822767,0.34608215329863873,0.2571367373242557
3,0.8419306184012068,0.03418121122529045,0.7918552036199091,0.9095022624434388,0.8426087810801391,0.7299959299959308,0.06442581653085602,0.5457875457875458,0.8058608058608061,0.7327704321158679,0.6818765432098769,0.08150376187575788,0.4755555555555555,0.7733333333333337,0.6866227961534128,0.7145087235996328,0.03554485771400905,0.6404958677685952,0.7603305785123973,0.7153726837349258,0.5441150979372507,0.051550657280936905,0.4461778471138844,0.673946957878315,0.5464976259550983,0.5730020436700012,0.04204674539806976,0.46563407550822855,0.6350435624394968,0.5745084712534125,0.40787113307706385,0.06973132509194298,0.2767710049423393,0.5518945634266885,0.4136583908022549,0.4502253496073188,0.16735047281708948,0.06806716431802529,0.7422885757367039,0.4796735208544109,0.353688524590164,0.0691856488035182,0.18374316939890709,0.5109289617486339,0.36024416211541,0.48396842456611633,0.044850568235240806,0.3861867815109774,0.5658664782976913,0.48599620144126965,0.4630555555555555,0.1266638008049002,0.16249999999999998,0.925,0.47969536050381906,0.3349862258953168,0.08029337517705436,0.17355371900826447,0.578512396694215,0.34426665593737693,0.19689922480620162,0.05644463964808538,0.08139534883720928,0.36046511627906974,0.20465703538673,0.3650793650793651,0.08161493571906006,0.17857142857142858,0.5357142857142857,0.3738929236657828,0.471604938271605,0.1543887617730503,0.22222222222222227,0.9333333333333333,0.49569892185158987,0.35444444444444445,0.05202951765172062,0.19999999999999998,0.4666666666666667,0.35815887225891496,0.44296296296296295,0.1392389527783777,0.016666666666666663,0.8666666666666667,0.46386726496506825,0.46009852216748753,0.07142007763325885,0.21182266009852213,0.625615763546798,0.46548697711951725,0.8892417388529916,0.05376303654594143,0.7267845976127636,0.9361891636440582,0.890829445899386,0.4648903353410089,0.06652682989999067,0.39533957836042033,0.611927579721999,0.46952155589976846,-0.07501082835114067,0.772356699284454,1.0,0.2752801330170184,0.21842140133602725,0.28264228384962314
4,0.8204423394088035,0.10859123416301057,0.6108597285067872,0.9999999999999998,0.827530955493216,0.6120981821916404,0.09618757025628207,0.37362637362637385,0.7399267399267402,0.6195399628510831,0.6669574247144341,0.05520567739715362,0.5111111111111113,0.7422222222222221,0.6692169979394882,0.6408820576195259,0.07140229095601247,0.4669421487603307,0.7314049586776865,0.6448103995663463,0.5386589295347515,0.03958808637710433,0.4446177847113886,0.6536661466458655,0.5400981504009916,0.5367543946947014,0.039257590221508626,0.3668925459825751,0.5953533397870282,0.5381747255907098,0.4787294646568846,0.06332435349193041,0.35749588138385496,0.6606260296540362,0.482860640025356,0.44157082206768933,0.09835635771629753,0.2745769653195332,0.6009326309127125,0.4522923313977032,0.39048082324702504,0.051955447366296106,0.27902732240437156,0.5075136612021858,0.393890104079314,0.4681869496772806,0.03753650621325294,0.37407951753236635,0.5910304466547417,0.4696752505961191,0.45467289719626175,0.06153795817415501,0.23750000000000002,0.625,0.4587798731010514,0.33992430678921787,0.07155509696513083,0.2231404958677686,0.6528925619834711,0.34730507417514583,0.1976744186046512,0.045513646134412306,0.10465116279069767,0.34883720930232553,0.20279868840049958,0.3641522029372496,0.07233908428732494,0.2142857142857143,0.6071428571428571,0.37120191811082415,0.4745586708203531,0.10883421108043659,0.13333333333333336,0.9555555555555556,0.4867649511702556,0.35186915887850473,0.0400685407793609,0.21666666666666665,0.4666666666666667,0.35412199644992126,0.4492211838006226,0.09616283734923277,0.18333333333333335,0.7333333333333334,0.45930440883931395,0.45582615901662027,0.0809875310224108,0.09852216748768472,0.7093596059113301,0.46289865904402167,0.788554915859488,0.12031163145804041,0.46478129730156104,0.9034032552248454,0.7975954266775542,0.5451291898887973,0.06760262015506541,0.45158940111600154,0.6907088905419485,0.5492660890429142,-0.1369335920747974,0.025650553373684767,1.0,0.10436186007398358,0.04060592234732172,-0.7222255985965889
5,0.5915180551858754,0.036075336310934264,0.5384615384615383,0.6606334841628958,0.5925955798583808,0.5312073547367672,0.044402435408643956,0.4615384615384619,0.5860805860805862,0.5330236126462057,0.45673202614379094,0.055115327690264414,0.328888888888889,0.5288888888888892,0.45998073907451326,0.6063036784961916,0.06005301502847584,0.5082644628099175,0.669421487603306,0.6092124441772155,0.5204184637973753,0.05484162030617075,0.3806552262090481,0.6505460218408736,0.5232437368616577,0.5253497333105557,0.026598416610143824,0.47337850919651514,0.5934172313649566,0.5260094542703508,0.37571470103692206,0.0852839046909124,0.2668863261943986,0.543657331136738,0.38508734902425334,0.41606778045085013,0.12844427627196003,0.1844133360635902,0.6620190249260038,0.43507107599963557,0.3802504018000643,0.07972775412386514,0.1878415300546448,0.5625027322404372,0.3883583980063857,0.4751826332383221,0.028788262665727374,0.40897335110685756,0.5276534010854003,0.47603681446164137,0.45710784313725483,0.10680750506052891,0.275,0.8,0.4691819904856519,0.3411116512720791,0.08951719464479496,0.09090909090909088,0.7520661157024793,0.352439161685417,0.19653442772457821,0.07073954168663808,0.05813953488372092,0.5813953488372092,0.20864262452647983,0.36624649859943975,0.08139195205881215,0.2142857142857143,0.6785714285714286,0.3750083365753359,0.4688453159041394,0.05933872667302516,0.3555555555555556,0.6000000000000001,0.47251240603417927,0.3522875816993464,0.049105284603949265,0.11666666666666664,0.41666666666666663,0.3556270352986315,0.44477124183006544,0.13777962258937806,0.16666666666666669,1.0,0.4652230238000248,0.45416787404617026,0.08085434997402302,0.3004926108374384,0.7536945812807881,0.4611699241099537,0.5754630834170776,0.04698728703149548,0.48404766797207666,0.6459633772362121,0.5773406925044842,0.41579646264722714,0.07985670952131736,0.297395048716516,0.5289047553046657,0.4232478604146818,-0.28892556778054446,-0.669275773633856,1.0,0.15118629497515348,0.19798019711619572,0.5472416444183297
6,0.46260733245448366,0.03675795303885757,0.4117647058823528,0.5656108597285066,0.4640539324244817,0.5008220126330366,0.09306844135911116,0.2197802197802199,0.5787545787545791,0.5093291867533021,0.6204724409448829,0.04371951101563027,0.5244444444444445,0.6933333333333336,0.6219987100116438,0.3759679833409254,0.0753000103557189,0.19008264462809965,0.4710743801652897,0.383376276870102,0.5408748633409904,0.05056987532343592,0.40561622464898606,0.7223088923556944,0.5432152370535249,0.622070111516796,0.026727864775565394,0.5546950629235239,0.6853823814133593,0.622639524418752,0.5202428362023118,0.09767786607312551,0.400329489291598,0.8369028006589786,0.5292621736225479,0.37145144176176037,0.0710246822764074,0.19663433794374435,0.5357787747351962,0.3781282303183225,0.37017025945527315,0.06849438077101898,0.1752021857923497,0.5683060109289617,0.37640478263889676,0.4661471568027881,0.030008095517113444,0.3712311963328814,0.5335855047035277,0.4671044499387097,0.4521653543307086,0.10336710383497545,0.2,0.7375,0.46373929514142714,0.3459360968308715,0.05447031513221209,0.15702479338842976,0.5702479338842975,0.35016486973500077,0.2049075260941219,0.03275559534050305,0.11627906976744184,0.313953488372093,0.2074887346726948,0.3655793025871763,0.06680874875808457,0.17857142857142858,0.6071428571428571,0.3715864508276575,0.4717410323709538,0.0835799514264421,0.0,0.7111111111111111,0.4790304845343872,0.3559055118110238,0.04020053123881867,0.18333333333333332,0.4833333333333333,0.35815093325108954,0.4589238845144357,0.1094477736096376,0.1166666666666667,0.7333333333333334,0.4716944196689277,0.4675924130173386,0.09170151966460247,0.0,0.7487684729064039,0.47643007828361733,0.45677324659501156,0.05149429847185952,0.3001739362131999,0.5098478321800637,0.45964397346816854,0.5972603352273599,0.11646200639616854,0.4690892045494417,0.8928530346460097,0.6084213248670017,-0.051920201200394,0.4547215011931694,1.0,0.4137772215374786,0.045617969094592,-0.4488644545344829
7,0.8063951734539966,0.03886972952541823,0.7420814479638005,0.9095022624434388,0.8073189499189911,0.7736263736263733,0.03692584253655329,0.6849816849816852,0.8205128205128207,0.7744953864158055,0.7003259259259264,0.05860882275917441,0.5688888888888892,0.8133333333333332,0.702741486400098,0.7075482093663918,0.03721844731076378,0.6280991735537196,0.7479338842975207,0.7085133815910195,0.5308788351534062,0.04956083076747083,0.4071762870514819,0.6645865834633384,0.5331565091173958,0.5931590835753467,0.0274363070430321,0.5150048402710553,0.6476282671829624,0.5937848201940241,0.39978034047226807,0.07028994732131803,0.29654036243822074,0.5815485996705106,0.4058313955737001,0.41912247063422636,0.07710299530827644,0.30075950780915506,0.6579422550680394,0.42606249813562863,0.3741711475409836,0.05166044857720918,0.2653661202185792,0.4969289617486339,0.37767349069450495,0.47069675000221556,0.02893729433061133,0.39354684349044666,0.5326360643036994,0.47157357068907996,0.45166666666666677,0.1203586513506817,0.1375,0.8250000000000001,0.46722139648493555,0.3413774104683196,0.06507406700882047,0.08264462809917356,0.578512396694215,0.3474431015084768,0.19813953488372085,0.04146224441037956,0.046511627906976716,0.2906976744186046,0.20237458196620448,0.3642857142857144,0.08589106609198706,0.14285714285714285,0.6428571428571428,0.37414301169108977,0.47229629629629605,0.08259176216157839,0.15555555555555556,0.7555555555555555,0.47936858332928706,0.3551111111111113,0.05661718383587712,0.14999999999999997,0.5166666666666666,0.3595367389665021,0.45911111111111097,0.07876168740830407,0.25,0.65,0.4657292171462981,0.46246305418719214,0.08833633002328228,0.09359605911330049,0.8078817733990148,0.470713649254089,0.895030426283437,0.024642355921112937,0.7913749027751944,0.9323769698355422,0.8953650725090014,0.4493951812118105,0.07325428450329918,0.3764245375036541,0.6046708350571963,0.455247921348187,-0.17280847002194408,0.40138738626701126,1.0,-0.10479337681982447,0.3819193696925303,-0.19957651126596052
8,0.7013574660633483,0.055621621236094314,0.6289592760180993,0.8552036199095019,0.7035317323139247,0.6560485927574538,0.037879484080165324,0.5531135531135534,0.7106227106227108,0.6571274219264625,0.696033755274262,0.06267809284011096,0.5466666666666666,0.7733333333333337,0.6988145701162665,0.582801548279109,0.021989937320210363,0.5330578512396698,0.6074380165289259,0.5832110090189001,0.5452121882343646,0.0375146464335786,0.46801872074883,0.6427457098283933,0.5464850083541835,0.5938583699927708,0.028954950238048595,0.4801548886737658,0.6524685382381414,0.5945549093506477,0.4706691969219858,0.06099966002568921,0.38714991762767703,0.6408566721581548,0.47455595108863224,0.4146237064367532,0.05874854034312635,0.27632681174258644,0.5357787747351962,0.4187129332110769,0.3703916441862074,0.041722016142969894,0.2773224043715847,0.49146448087431693,0.3727045239860651,0.4654772654212798,0.02764386394312872,0.38974908189113333,0.5221922199055876,0.4662870303070222,0.4484177215189874,0.10481911863128504,0.16249999999999998,0.8375,0.46035467201999036,0.3407260173658333,0.06971237162906957,0.2396694214876033,0.5702479338842975,0.34769601238096376,0.19973506034736538,0.05414927995008336,0.09302325581395347,0.3953488372093023,0.20685531923949096,0.3661844484629295,0.09229690717882663,0.14285714285714285,0.6428571428571428,0.3774942880148709,0.47201125175808717,0.094563537439907,0.22222222222222227,0.6888888888888889,0.48127299030981396,0.35147679324894526,0.07497339857861732,0.18333333333333332,0.5499999999999999,0.35928511610615727,0.4622362869198311,0.12892578478573427,0.18333333333333335,0.8166666666666667,0.47966012932330254,0.4551973561139864,0.06364722356249192,0.09359605911330049,0.5862068965517241,0.4595697161377354,0.7412538918168808,0.04051516513631017,0.6283721589094298,0.7815462839477203,0.7423463022939436,0.5363001274904811,0.06370056970147485,0.4611360018383839,0.6838368022506724,0.5400224303149859,0.04549209481226807,0.4165962866956665,1.0,0.2598791653670013,-0.03525515712236253,-0.21857102822724042
9,0.4360345536816117,0.025431640003704147,0.3710407239819,0.4796380090497734,0.43676435385422957,0.5851925851925855,0.021770985071110024,0.5238095238095242,0.6153846153846156,0.5855912875922672,0.21272727272727276,0.03622352355597566,0.14666666666666672,0.27555555555555555,0.2157432623658649,0.6965314300025048,0.04419231552975682,0.5785123966942152,0.7520661157024797,0.6979107417276174,0.46839691769488956,0.05721512683375958,0.3322932917316692,0.5943837753510142,0.47182586161425144,0.5078324386165625,0.019655206746038816,0.4530493707647629,0.538238141335915,0.5082069061138129,0.1734561429783835,0.030567555369950445,0.11202635914332781,0.2668863261943986,0.1760887610683215,0.37611995530050596,0.05024331113112435,0.2769038887544445,0.523557772855042,0.3794105464409121,0.3781462990561351,0.04144694654228419,0.259224043715847,0.47780327868852457,0.38037671438543263,0.4844574304874403,0.021102138687197,0.44243922632000693,0.550204509462123,0.48490984238111035,0.4551136363636365,0.14866355394893285,0.1375,0.8125,0.47842910956461243,0.3437265214124719,0.08149199103490143,0.17355371900826447,0.6528925619834711,0.3531122282679838,0.20243128964059193,0.05648733890323036,0.05813953488372092,0.37209302325581395,0.21004975775416337,0.3652597402597403,0.08766002512952284,0.10714285714285715,0.6071428571428571,0.37547640322047726,0.47306397306397296,0.05765472122578024,0.1777777777777778,0.6000000000000001,0.4765115159584316,0.3535353535353535,0.04180900319300554,0.24999999999999997,0.44999999999999996,0.3559617313823976,0.44696969696969685,0.14141860909803564,0.0,0.8833333333333333,0.46848491382126106,0.4558143006418868,0.13274846422772638,0.16256157635467977,0.9064039408866995,0.4744700507721244,0.5043636874444798,0.03268999545876202,0.41294852450234254,0.5448077867261718,0.5054059492765441,0.15508315344953935,0.043023044422252486,0.0929307985224761,0.2650243137690307,0.16085310580797219,-0.17935299519872502,-0.40267467731275475,1.0,-0.1682474487872134,0.30614820873823395,0.5283873251278266
10,0.4017991812109452,0.036725307432617274,0.3574660633484159,0.5067873303167421,0.4034541779453327,0.4812925170068034,0.0735969523050676,0.28937728937728946,0.556776556776557,0.48682082539359617,0.5400529100529102,0.06622969346862437,0.37333333333333374,0.6488888888888893,0.5440508241292755,0.3799193231011414,0.07465445346483249,0.23966942148760317,0.4710743801652897,0.38709899357654637,0.5427345665255183,0.05401284867019856,0.41497659906396245,0.7238689547581902,0.5453837792928146,0.6128589867699259,0.02922888281431951,0.543078412391094,0.681510164569216,0.6135473043610242,0.4705617007923433,0.09219522999631032,0.3706754530477759,0.6919275123558484,0.47940284175366316,0.3819737895344291,0.06556880775204012,0.241422960218917,0.5875574750088424,0.38749459695957533,0.3595255659640905,0.053421911939651553,0.2387322404371585,0.48770491803278687,0.36342613864312007,0.47521933429579455,0.03505491188906035,0.38523734111114905,0.5672944366590331,0.47649515570145146,0.4549107142857141,0.0884525998144853,0.1375,0.7375,0.46332977366738115,0.34366391184573003,0.04183114644984386,0.21487603305785125,0.4545454545454546,0.3461703303758792,0.19988925802879298,0.03441244135010705,0.10465116279069767,0.27906976744186046,0.20279505364783285,0.36437074829931965,0.08566761528922305,0.14285714285714285,0.5714285714285714,0.3741892758865928,0.47777777777777786,0.08878843051561139,0.2888888888888889,0.7777777777777779,0.4858612358540091,0.35793650793650794,0.043789397290915924,0.24999999999999997,0.5166666666666666,0.36057347034027276,0.4543650793650795,0.12032750510474563,0.06666666666666665,0.8666666666666667,0.46984462139516747,0.460473844710298,0.048552540964842704,0.29556650246305416,0.6502463054187192,0.46299616328331206,0.39790692141292083,0.032001108204563034,0.31996085552039144,0.43915850969184467,0.39917639924484155,0.5394380137354764,0.1153051915797361,0.4299209638796042,0.7901214488825863,0.5514801724808258,-0.29440016435497424,0.3656173385093144,1.0,0.07983324289522799,0.2548414057136101,-0.2298576633000661
11,0.8477508650519028,0.02665958793850369,0.7918552036199091,0.8914027149321266,0.8481617339115162,0.7407886231415646,0.05494792781399863,0.6373626373626373,0.8021978021978025,0.7427838565026358,0.6320697167755994,0.011289719146728517,0.6044444444444446,0.6533333333333335,0.6321685577846028,0.7601685302220067,0.024984945734627603,0.7066115702479339,0.7933884297520666,0.7605709708540862,0.5183995595117923,0.05120456021637274,0.41653666146645874,0.6146645865834632,0.5208729214962625,0.5518858075660081,0.04301615301561085,0.46369796708615696,0.6185866408518879,0.5535269206348975,0.37138611622573253,0.06989154851986014,0.2734761120263591,0.528830313014827,0.37777863217456875,0.3745934271621866,0.0761014517892382,0.2518941156760178,0.5177497719615034,0.3820969892156326,0.39478859959284257,0.07777444414044186,0.23940983606557376,0.5478142076502732,0.4022291602435086,0.47157111088920256,0.04228805234564938,0.40446161032687333,0.579158643895288,0.47342636987716386,0.45245098039215675,0.0626507984707267,0.325,0.675,0.4566837516483456,0.33851887862583063,0.047041008237677914,0.19008264462809918,0.5041322314049587,0.3417082063688729,0.1974464204286366,0.03201289255549668,0.09302325581395347,0.27906976744186046,0.19997454742123252,0.3641456582633053,0.0738930583588841,0.2142857142857143,0.5357142857142857,0.3714231846194164,0.46448801742919393,0.10678279807467804,0.15555555555555556,0.6222222222222222,0.47636971416659496,0.3545751633986929,0.03146045690360961,0.3,0.4333333333333333,0.3559408655691772,0.4447712418300654,0.08941104804207682,0.16666666666666669,0.7,0.453496462383485,0.45774171737660546,0.050485695907662165,0.2463054187192118,0.5369458128078818,0.46046314590844833,0.9012858068839722,0.02651318140577738,0.8513229109784735,0.9337813849280419,0.9016680493225736,0.40619647384487356,0.0469877848132308,0.34657155830500264,0.5037656898351321,0.40885221788748255,0.06304796350349517,0.5170172399197456,1.0,0.07541486620147027,0.02367809025725706,-0.8045542648811963
12,0.7106098466941312,0.035953444880452184,0.6606334841628958,0.8190045248868778,0.711505243220933,0.6242414302115797,0.06315973865385746,0.4542124542124544,0.6703296703296706,0.6273810454489156,0.7038805970149252,0.04007352629482187,0.6133333333333335,0.7733333333333337,0.7050034141005954,0.5615517454052059,0.0502354182815056,0.45041322314049603,0.6074380165289259,0.5637608485758436,0.5519361072950382,0.03652571532211029,0.46801872074883,0.6209048361934477,0.5531253764377266,0.5872765889815206,0.02155270906417029,0.49757986447241054,0.6214908034849953,0.5876660430128419,0.4999385281172392,0.08110772496711884,0.3970345963756178,0.7314662273476111,0.506378128407726,0.37859877810819337,0.054589053428841565,0.29145181406950993,0.5375193134645098,0.382455909162598,0.35822958975613745,0.038195268797178404,0.2701530054644809,0.4333989071038251,0.3602298477756889,0.4622164382879895,0.026698055967292317,0.3904592633102049,0.5236201782669294,0.4629753594049907,0.45373134328358206,0.07637672422088883,0.21250000000000002,0.625,0.4600200758111039,0.34118662883927475,0.04322697758926244,0.23140495867768596,0.4628099173553719,0.3438735205885738,0.19645956265185704,0.032204762552573,0.11627906976744184,0.2906976744186046,0.19904277602181472,0.3576759061833689,0.10430819772486481,0.10714285714285715,0.5714285714285714,0.3723571711814433,0.46965174129353254,0.09242912350282825,0.2666666666666667,0.7333333333333334,0.47852731518321,0.35895522388059703,0.06768964867032788,0.1333333333333333,0.5666666666666667,0.3651881089140304,0.4549751243781095,0.1049296271057655,0.23333333333333334,0.7,0.4667421758385112,0.45886331887361187,0.03278006487322826,0.3251231527093596,0.541871921182266,0.4600152608990347,0.7241308335089717,0.028821978930194076,0.6632172810506005,0.7585569958314788,0.7246956408754155,0.5700893187462198,0.08749981400207646,0.4760585787506839,0.7817569267454876,0.5766660878677385,-0.3233116068673258,0.45563355347863493,1.0,-0.05048337952027855,0.13894502614557638,-0.6096831125840649
13,0.5063192385707591,0.03630501348601177,0.434389140271493,0.5520361990950224,0.5075967890777631,0.4567386636352158,0.027084915440225298,0.3992673992673992,0.4945054945054945,0.45752721378585265,0.3246743295019159,0.03545231027296054,0.26222222222222236,0.37333333333333374,0.3265709975373266,0.5877030493017956,0.030038684181926657,0.5330578512396698,0.6322314049586777,0.5884569987864114,0.5071278713217493,0.03358171866294431,0.41497659906396245,0.5834633385335413,0.5082194073896362,0.4944921053510032,0.016892678001579176,0.4588576960309778,0.5421103581800581,0.494775590323756,0.3421291825257058,0.04819458365757355,0.24876441515650732,0.43986820428336076,0.34544905350774147,0.3860237596535227,0.06343133374874407,0.2745769653195332,0.5130959250916808,0.39111188404416874,0.37453523648012066,0.03975221252706738,0.26742076502732237,0.4552568306010929,0.37660275659685244,0.4659274651106844,0.03080826771617469,0.39283286430977576,0.5442686080823962,0.46692738992268085,0.4530172413793105,0.04713911527328161,0.3125,0.6375000000000001,0.4554211294751416,0.34112282701624397,0.042418209919899655,0.24793388429752067,0.5041322314049587,0.3437049099917224,0.1984763432237371,0.02912984969839803,0.1395348837209302,0.3023255813953488,0.20056614076786133,0.3626847290640395,0.05216479271238294,0.25,0.4642857142857143,0.36635291952805243,0.4708812260536399,0.06427913145962535,0.15555555555555556,0.6000000000000001,0.47517333441989434,0.35287356321839075,0.028294250828847164,0.2666666666666666,0.4333333333333333,0.353986600607935,0.45402298850574724,0.0890337094115196,0.21666666666666667,0.65,0.4625226514076193,0.45821301172074025,0.03563624252070232,0.3645320197044335,0.5714285714285714,0.45957285640389794,0.45915750669689515,0.024253224235811822,0.418758151471629,0.49973388372559846,0.4597865734631816,0.36706396240631434,0.05346591272938887,0.2918564877470584,0.45649562890587836,0.3708709614523405,-0.23926661708761432,-0.18268749638694762,1.0,-0.08791048726415297,0.3533260420071396,-0.2767424030397502
14,0.4553465110740646,0.04347384311101869,0.41628959276018085,0.5520361990950224,0.457380872714867,0.43666859456333146,0.1205630249410462,0.13186813186813207,0.5311355311355312,0.4527249680426519,0.5342690058479532,0.02587088879120205,0.48444444444444446,0.5733333333333335,0.5348840354139369,0.3872698274612151,0.06429075585331663,0.22314049586776852,0.4669421487603307,0.3924776509463215,0.5389331362728194,0.08555491604244263,0.3978159126365055,0.7971918876755069,0.5455640697762739,0.5911754216130841,0.054645829678721614,0.4849951597289449,0.6882865440464667,0.5936515450423654,0.512991704962571,0.13675072828236823,0.3377265238879736,0.8550247116968699,0.5305969916121058,0.3152719985708608,0.13744606369248424,0.0,0.4764422271449581,0.34344784914004384,0.34132058287795985,0.0898251058701761,0.07410928961748631,0.5399562841530055,0.35274174184267165,0.4545919968104132,0.035886518214159474,0.38072560033116476,0.5499652504813662,0.4559815040448358,0.4429824561403508,0.09069478667252014,0.15000000000000002,0.6625000000000001,0.4520118283656482,0.34623749456285347,0.1000268804130729,0.18181818181818182,0.7685950413223142,0.36015308761681697,0.2023663810689514,0.0561047436490212,0.09302325581395347,0.38372093023255816,0.20986822269807015,0.36090225563909767,0.06636524937793999,0.17857142857142858,0.5357142857142857,0.36684808193121704,0.4631578947368418,0.06240187693388269,0.24444444444444446,0.6000000000000001,0.46726963737592536,0.3555555555555556,0.03704530331033202,0.24999999999999997,0.44999999999999996,0.35744654312090324,0.4558479532163742,0.12012275583314827,0.18333333333333335,0.85,0.4711408326716401,0.46357272491573737,0.049704934009094634,0.35960591133004927,0.6354679802955665,0.46618334186639854,0.4006346473235466,0.07067962513255173,0.21176822258301264,0.4510659601110132,0.40671376639426576,0.5774743776904089,0.10951191076251812,0.4564690163226972,0.8440146974330127,0.5875875376994758,-0.19368256762530336,0.7169861939789014,1.0,-0.12157830544962756,0.23127735897936824,-0.8442649136855338
15,0.749180839444531,0.02792046154759744,0.7058823529411762,0.7873303167420811,0.7496919646155583,0.9368447644309714,0.029957924730385253,0.8937728937728939,1.0,0.9373153771010656,0.4127203065134104,0.036321651891019505,0.35111111111111115,0.466666666666667,0.4142880252930739,0.9455685380450279,0.03300468694262752,0.888429752066116,1.0000000000000004,0.946134445152974,0.43934584969605683,0.050457811300948466,0.358814352574103,0.5585023400936036,0.4421842036693373,0.5800313783089095,0.02862947979686785,0.5353339787028075,0.6456921587608907,0.5807253353260808,0.0943305118445719,0.05660557620730511,0.0,0.2355848434925864,0.10975970137423845,0.3783805383184913,0.06775179964164324,0.2484037305236509,0.507269308810663,0.38429545264010206,0.403541077821745,0.06174662315810336,0.24350819672131147,0.5170765027322404,0.4081572144336243,0.45804507995401295,0.021254001294626762,0.3992434858894167,0.49774602849080746,0.45852943127841433,0.4521551724137932,0.0369579190403669,0.35000000000000003,0.5750000000000001,0.45363712142089346,0.3442576232544884,0.03227103826981043,0.2809917355371901,0.4545454545454546,0.34574090814384956,0.20228548516439454,0.02415044369531275,0.1395348837209302,0.2558139534883721,0.2036973380018395,0.37192118226600973,0.05638377507082998,0.25,0.5,0.37609797037687465,0.4724137931034481,0.05436308434605198,0.22222222222222227,0.6444444444444445,0.47547784662474735,0.35229885057471266,0.02834765304841828,0.2833333333333333,0.39999999999999997,0.3534179035637371,0.4571839080459769,0.03478030028856761,0.3666666666666667,0.55,0.4584822119748137,0.4595719381688463,0.011073267144101352,0.4236453201970443,0.48275862068965514,0.4597030231650426,0.960902924597741,0.019396808767135048,0.9221909260682639,1.0,0.9610953021735007,0.0564701874833508,0.03829259133467915,0.0,0.133707398764777,0.06804353901903017,-0.2027330734485694,-0.09398507186556741,1.0,0.18236157337304282,0.5136620875147078,-0.1845025839274942
16,0.695022624434389,0.02071676737866185,0.6334841628959273,0.7647058823529409,0.6953278825203035,0.804761904761904,0.0352262175027061,0.6959706959706959,0.8461538461538463,0.8055239426167885,0.6772345679012355,0.02574846822936881,0.5822222222222224,0.7022222222222225,0.6777184349653674,0.6797979797979803,0.017258533147662198,0.6487603305785128,0.7107438016528929,0.6800145886537836,0.5210781764603918,0.03522223778825563,0.45085803432137284,0.6801872074882995,0.5222540449882621,0.627213079488007,0.027999264205881096,0.500484027105518,0.6989351403678608,0.627830785501643,0.3635914332784184,0.035027325203416816,0.2915980230642503,0.46622734761120255,0.36525609028737244,0.41163130777233803,0.05126298476276587,0.3054133546789777,0.5398462368994211,0.41477587722443515,0.3924103825136611,0.0252365105628353,0.3422131147540983,0.4405737704918033,0.39321204624118455,0.466989392007906,0.02178298645933785,0.38998454311029074,0.49774602849080746,0.4674915170796748,0.4547222222222222,0.06056202647852877,0.275,0.6125,0.4586930406661469,0.3396694214876033,0.03991570098391802,0.25619834710743805,0.5041322314049587,0.34198081255310575,0.19896640826873385,0.031251761792788234,0.1511627906976744,0.3255813953488372,0.20137887753328923,0.35952380952380947,0.09825349428954414,0.035714285714285754,0.6428571428571428,0.37256389368171927,0.46518518518518526,0.11437406172416749,0.15555555555555556,0.8222222222222223,0.47888759989514595,0.35351851851851845,0.07455630070831466,0.14999999999999997,0.5499999999999999,0.3612093883362145,0.4598148148148149,0.10030834000189295,0.23333333333333334,0.75,0.4705099676198472,0.46174055829228255,0.03462715577944255,0.41379310344827586,0.7044334975369458,0.46302274287954137,0.8392872010124045,0.03370939767779598,0.7227205123761404,0.8717575482644988,0.8399563699731435,0.4033490959276226,0.01878995229742939,0.36739995450630136,0.43622102863564516,0.40378166449015995,-0.03605445537948575,0.2978055035246409,1.0,0.04838571058164665,0.12223657429834887,-0.46484524603474964
17,0.3811139840551596,0.01375251369483082,0.3574660633484159,0.4072398190045248,0.38135908132397306,0.4920198848770284,0.031392957734181375,0.4065934065934069,0.5311355311355312,0.4930084710783355,0.3229100529100531,0.045594199419794076,0.20444444444444465,0.40000000000000013,0.32607512217702694,0.5288272333726886,0.03652292034989246,0.4338842975206614,0.5661157024793391,0.5300719634382853,0.5068902756110243,0.042939177663368286,0.4134165366614666,0.6131045241809672,0.5086841601712326,0.5423754206426039,0.0191820123520312,0.4840271055179091,0.5847047434656342,0.5427104809774353,0.3134463010904525,0.05818880326279558,0.23228995057660629,0.5222405271828665,0.31873846915726217,0.3923333634725321,0.07305888644472523,0.2245574191626799,0.5125095403860832,0.398998153021405,0.3764796383034088,0.04892015345329935,0.27459016393442626,0.5208306010928961,0.3796071775085826,0.476824657166114,0.023807436453112913,0.41775377592447005,0.5340640226650412,0.47741156266272955,0.454761904761905,0.09557027554324884,0.225,0.7625000000000001,0.46457866215887833,0.3441558441558444,0.049911691607743655,0.2231404958677686,0.5041322314049587,0.34771362521075716,0.2015503875968992,0.03412041193215967,0.12790697674418602,0.27906976744186046,0.2043842011927172,0.37117346938775503,0.06022707653690518,0.25,0.5357142857142857,0.37597056131266576,0.47063492063492035,0.06761139754009804,0.2666666666666667,0.6666666666666667,0.47540941234628786,0.35337301587301584,0.03535815619537533,0.24999999999999997,0.5,0.3551166065291854,0.44484126984127004,0.09310126737656743,0.16666666666666669,0.75,0.4543659457952508,0.45865587614356124,0.05296766690066965,0.35960591133004927,0.6945812807881773,0.4616680482452447,0.3927815548959563,0.0257975881403324,0.3279937717412973,0.42167639930877554,0.39361776206890187,0.33523860034542774,0.05171182811461839,0.2737870264583977,0.46650536515940777,0.3391565975297521,-0.22363425090915978,0.41261684986003994,1.0,0.045041738335603945,0.2250948902732198,-0.07875763420253513
18,0.38067705714764516,0.06294567344801456,0.31674208144796356,0.502262443438914,0.385798513473115,0.38631121964455356,0.12424315329008613,0.12087912087912112,0.512820512820513,0.40562271915280607,0.4962551440329222,0.05623850063195897,0.40000000000000013,0.6000000000000003,0.499402294783225,0.31764615855524975,0.10221497572886935,0.08677685950413272,0.43801652892561993,0.3335419665973812,0.5392471254405731,0.06241130255450829,0.3541341653666148,0.6973478939157567,0.5428135652203487,0.590575812986268,0.039199023705375605,0.4607938044530495,0.6418199419167475,0.591863267068,0.5151778632009274,0.14128957714110157,0.34266886326194396,0.8336079077429983,0.5340282156526246,0.35870102170898904,0.06156607779312998,0.2338651129023251,0.5020383849289823,0.3638979373133025,0.35414774337178734,0.07427216670982711,0.1608633879781421,0.5266393442622951,0.36178156603719586,0.46843223196840356,0.03303560059082633,0.3619760513153547,0.5390466858833403,0.4695849249627928,0.4570601851851854,0.1451641951038627,0.0,0.9,0.4793553372518677,0.3425160697887971,0.09665273733192087,0.14049586776859505,1.0,0.35577030791931585,0.20176571920757974,0.09493677979295059,0.0,1.0,0.22279798915995525,0.3677248677248677,0.09793052943658097,0.07142857142857145,1.0,0.3804249821510093,0.47325102880658393,0.08091203092663081,0.2,0.7111111111111111,0.4800548665487304,0.35617283950617284,0.04079891375280842,0.19999999999999998,0.5499999999999999,0.3584804464021362,0.4532407407407407,0.0877626109115086,0.18333333333333335,0.6666666666666667,0.4615822002330857,0.4592683816821751,0.07068244500414506,0.07881773399014774,0.7192118226600985,0.46462586573618586,0.30488088775599614,0.05897139952321532,0.1661813706286721,0.3763863445701383,0.3104799211546936,0.5914590303435573,0.1688566343705978,0.3999499419474226,0.957349935549034,0.6148758755498642,-0.2609032788401995,0.32896061726832904,1.0,-0.07215948453522567,0.26647504889848095,-0.40970166599268054
19,0.6381735911147678,0.04994837839099764,0.5837104072398187,0.7285067873303166,0.6400898469463284,0.7091575091575096,0.0983559241630415,0.5311355311355312,0.827838827838828,0.7158228633838342,0.614787878787879,0.030325827563870332,0.5777777777777777,0.6800000000000004,0.6155217873536817,0.6353869271224645,0.05507324832101092,0.5330578512396698,0.6942148760330578,0.6377260095405884,0.5177421642320238,0.04426805115117523,0.45085803432137284,0.673946957878315,0.5195969387786572,0.6051394878113177,0.04912503683137123,0.4878993223620524,0.6708615682478221,0.6070940547638519,0.37714542459188233,0.1133079375861122,0.23393739703459626,0.616144975288303,0.39350213380185023,0.37579187319874974,0.12034966431263644,0.16928833373666677,0.5980193227722035,0.3942590867052518,0.3812280178837556,0.11937013999141485,0.18339890710382512,0.6475409836065573,0.3991553018891387,0.46966434347232106,0.034817913157561706,0.4032767087078875,0.5269394219047293,0.47092976230295963,0.46568181818181825,0.10740031397103757,0.225,0.8,0.4776867792716365,0.3447032306536439,0.0525988729809231,0.1652892561983471,0.5123966942148761,0.34862107809239934,0.2000000000000001,0.04599192860214365,0.03488372093023254,0.3023255813953488,0.20512629833674373,0.361038961038961,0.07424116213130891,0.17857142857142858,0.4642857142857143,0.3684571452740808,0.4585858585858586,0.08984706167842987,0.15555555555555556,0.6000000000000001,0.46714741951555816,0.34727272727272723,0.03480747110741281,0.2666666666666666,0.4333333333333333,0.3489812011955354,0.43878787878787884,0.08413531046855036,0.18333333333333335,0.6166666666666667,0.44663726723690284,0.46242722794446917,0.08290279525003616,0.11822660098522164,0.7192118226600985,0.4696667470335049,0.7327031907168525,0.04252011963909415,0.6463822750897261,0.778850585366204,0.7339135195991016,0.41652926744905255,0.10580303372622894,0.29736299807797106,0.6039902067109946,0.42951994154905726,-0.38803639119676986,0.6843804105546724,1.0,-0.41746459975664313,0.3983896226629294,-0.8242012882279196
20,0.6764518903556331,0.033512298963952344,0.5791855203619907,0.7601809954751126,0.6772746507457303,0.7644174007810371,0.060940744114220215,0.6190476190476191,0.838827838827839,0.7668226943436807,0.6731313131313131,0.06446998216862669,0.47111111111111126,0.7688888888888894,0.6761862118398592,0.6482139198142208,0.05482009430658928,0.5371900826446283,0.7933884297520666,0.6505087946091448,0.525702350408066,0.1133442798957141,0.0,1.0000000000000002,0.5376836561299501,0.6227788756170345,0.08919359178043462,0.0,1.0000000000000002,0.6290812958767359,0.38958704916470394,0.08125577677057248,0.04283360790774293,0.5881383855024711,0.397902003022536,0.39087452167300346,0.10490532097032995,0.11401924831065358,1.0,0.40459494139620833,0.41170758253172546,0.11216601180049492,0.2971311475409836,1.0,0.426591573686659,0.4703613739648631,0.08162677919893098,0.0,1.0,0.47733393725396167,0.4558884297520658,0.049609789339878356,0.3125,0.6125,0.4585575772494578,0.34157502902807196,0.028074621216196725,0.2396694214876033,0.4462809917355372,0.3427173338068269,0.1987315010570824,0.022963276346664528,0.1395348837209302,0.2558139534883721,0.2000429044531713,0.3636363636363636,0.06520506636966265,0.14285714285714285,0.5357142857142857,0.36938864034617896,0.4751147842056932,0.07150678107342245,0.2666666666666667,0.888888888888889,0.48042171047521287,0.3578512396694213,0.062028756031693076,0.0,0.6333333333333333,0.3631436055294304,0.4538567493112946,0.05996759659655527,0.18333333333333335,0.6333333333333333,0.4577688735571654,0.45898302324634693,0.019390747023632762,0.3990147783251231,0.5172413793103449,0.45938906087501663,0.7989245791545423,0.04409668524499397,0.6903496894705619,0.853307692523293,0.8001305708651932,0.4300835724847379,0.08244996205034366,0.1803844748033927,0.5873905775034034,0.4378512233352934,-0.10148546801683798,0.08563740361275327,1.0,0.6252031230273434,-0.12248590957744977,-0.10374146669044705
21,0.2521008403361338,0.05530754287090533,0.1900452488687785,0.37556561085972806,0.25800233263026684,0.43275771847200395,0.03405746568662876,0.3699633699633702,0.4761904761904763,0.43407458181845704,0.2805643738977072,0.034366238547251855,0.24,0.35111111111111115,0.28262812954833966,0.4166994621540079,0.03168996061153208,0.35123966942148765,0.4669421487603307,0.41788366183617415,0.5117499938092761,0.051657870954737,0.36661466458658354,0.6115444617784713,0.5143094730674642,0.5598580187157148,0.026751901284621404,0.48693126815101656,0.5972894482090998,0.5604866685239418,0.33529457911665494,0.05458259053520166,0.2553542009884678,0.4596375617792421,0.3396386670362238,0.3738082089131068,0.09593842384740968,0.20476926227219422,0.5980193227722035,0.38573392397783135,0.3866174863387978,0.07563673128166652,0.27595628415300544,0.5983606557377049,0.3938314203887418,0.4764212957010121,0.02875582982650344,0.40209180708890174,0.5221922199055876,0.47727457860789824,0.4575396825396823,0.12563427149504686,0.025000000000000022,0.8250000000000001,0.4742109151669668,0.3507805325987145,0.0818110154392274,0.0,0.6115702479338843,0.3600469212916654,0.20727205610926547,0.055157574660650854,0.0697674418604651,0.43023255813953487,0.2143729737833307,0.3735827664399094,0.0621328574060877,0.2142857142857143,0.5714285714285714,0.3786334608827281,0.4691358024691358,0.08411093460880342,0.22222222222222227,0.7111111111111111,0.47649843069853015,0.3560846560846562,0.034947680724292045,0.2833333333333333,0.4333333333333333,0.3577684115899133,0.45105820105820116,0.07518632863226578,0.2833333333333333,0.6166666666666667,0.45718350238179867,0.45398389240753767,0.05477060752324709,0.2463054187192118,0.5665024630541872,0.45722377216439947,0.24741699481537718,0.0355893436551312,0.19175705968607515,0.31652926805935877,0.24992332008325524,0.35662270906983584,0.05788585508444343,0.284703982986815,0.4541735207448361,0.3612164752368711,-0.08327302391444176,-0.4539320397706539,1.0,-0.25107940694890146,0.5583595183646063,-0.3785353965115657
22,0.3013990742185461,0.0513898537899322,0.2307692307692304,0.4072398190045248,0.3056991390954471,0.3497957980716606,0.13285693014203273,0.11355311355311382,0.5531135531135534,0.37390530832415064,0.4367305236270755,0.04555944910626631,0.32444444444444454,0.49777777777777765,0.43907329168421655,0.2686425382350149,0.11455475035920068,0.09504132231404983,0.504132231404959,0.2917889091500994,0.5349041547868814,0.07010954739251724,0.3322932917316692,0.7004680187207486,0.5394268302408328,0.5897341745390614,0.055509050658153626,0.46563407550822855,0.687318489835431,0.5923109273038031,0.5030392546724988,0.16618329499091083,0.23887973640856663,0.8649093904448105,0.5294789361122899,0.3517578595984682,0.13808983619279003,0.12042294160352951,0.7143654945177684,0.37760192399798653,0.35429219270146345,0.1483824461259477,0.0,0.7691256830601093,0.3837801911711521,0.46841181233068574,0.040215767524557466,0.38666150171089153,0.5416595458636679,0.4701152455960857,0.4428160919540229,0.09428880408217757,0.125,0.6875,0.45263040287766293,0.34140780849244795,0.04648356221063128,0.1322314049586777,0.4793388429752066,0.34452166459520955,0.19981288425554664,0.042908311790352774,0.05813953488372092,0.313953488372093,0.2043162979288449,0.37438423645320196,0.0648695500534063,0.25,0.5357142857142857,0.3798989951816079,0.4768837803320561,0.0756865104450549,0.06666666666666671,0.7333333333333334,0.48278436550786114,0.35727969348659017,0.033207237216042636,0.2666666666666666,0.5166666666666666,0.35880193008389544,0.4501915708812262,0.05876057565341928,0.2833333333333333,0.5833333333333334,0.45396648370441134,0.45473076269746915,0.05811346731679285,0.2167487684729064,0.6108374384236454,0.4583867619408231,0.21517440370247254,0.07855583427658824,0.08183312077898641,0.36769103209937315,0.22891070716241116,0.5749522577859856,0.16740402005149704,0.281421854205262,0.8534466186416281,0.5985583417700371,-0.4397493785768205,0.34745777371673264,1.0,-0.11597560019579026,0.4410849747129392,-0.4237211910425316
23,0.6913550845439389,0.05143051987611121,0.6108597285067872,0.7963800904977374,0.6932453448518046,0.5720069404279934,0.08867082852027343,0.4468864468864471,0.7069597069597073,0.578767390584278,0.6011695906432749,0.09988742920817428,0.31111111111111134,0.7155555555555557,0.6093253227364471,0.5888647237929537,0.10178567499235792,0.4545454545454546,0.8016528925619841,0.5975055903697912,0.5320798095081698,0.07357385459974086,0.3837753510140405,0.8720748829953198,0.5370894298343146,0.5548988638100578,0.04491766539502648,0.4327202323330107,0.6505324298160698,0.556694806750167,0.45592647186334856,0.15065325801818624,0.1630971993410214,0.7462932454695222,0.47992337136241947,0.38553300263260776,0.10883369745006197,0.18848079822781513,0.6858653362869749,0.4004444880269149,0.35632717860224333,0.13547168494285747,0.13866120218579236,0.8712459016393441,0.3809572818655721,0.47754281626409395,0.03948322276713324,0.3911694447292765,0.603844094290825,0.479155148683536,0.4510526315789473,0.0975542531457799,0.11249999999999999,0.6875,0.4613730936876873,0.33919095258808174,0.05391027600713129,0.23140495867768596,0.6115702479338843,0.34340388372469716,0.19755201958384336,0.046434087296166875,0.08139534883720928,0.37209302325581395,0.2028798384702236,0.36578947368421066,0.11254320701068066,0.07142857142857145,0.7857142857142857,0.3825370393388926,0.4785964912280702,0.11944229593167087,0.04444444444444445,0.9333333333333333,0.49312360538554023,0.355263157894737,0.10179427980623043,0.016666666666666663,1.0,0.36941157572645406,0.45175438596491224,0.08288794752686228,0.26666666666666666,0.8166666666666667,0.4592168517803592,0.45740212600466695,0.033510546536360195,0.3054187192118226,0.5369458128078818,0.45861513386019614,0.6724067878185293,0.04287565282041169,0.6017240389707155,0.744843850480551,0.6737580123126367,0.5161071767547895,0.15967377281149414,0.189878826099104,0.7141321734209631,0.5399944033855539,-0.25788482227690246,0.25879318732923745,1.0,-0.2872448719544209,0.3062470515542484,-0.3913297698042772
24,0.7241379310344829,0.04300180233478866,0.6515837104072395,0.8054298642533932,0.7253916295244336,0.5852595680181892,0.06862135412309889,0.46520146520146555,0.6959706959706959,0.5891998510146936,0.8995402298850572,0.05580956918947633,0.8266666666666669,1.0000000000000002,0.9012400520019525,0.38173268737532096,0.057694788273457455,0.30578512396694224,0.49586776859504145,0.3859937072311539,0.5499219968798753,0.055763402086110775,0.436817472698908,0.6599063962558502,0.5526935376975489,0.6387321827953398,0.051419531146629865,0.5324298160697001,0.7308809293320427,0.640762970109467,0.6859342157586773,0.09848663072498447,0.49258649093904444,0.8336079077429983,0.6928478404483699,0.3452518886594418,0.12290305561950238,0.12798078892012138,0.5247305422662373,0.36611964423093635,0.38747173544375363,0.07979295658079413,0.2622950819672131,0.5297158469945356,0.395463635844418,0.4568832922978644,0.038043383478056775,0.39615590570917497,0.5307371835040426,0.45843722402953235,0.4594827586206895,0.06775335594182262,0.2,0.625,0.4643659934384396,0.34269022513536623,0.05941900047369438,0.2066115702479339,0.5619834710743802,0.34771588301813494,0.20168404170008022,0.030066685862414483,0.11627906976744184,0.26744186046511625,0.2038746476926499,0.36268472906403937,0.05508583127035416,0.25,0.4642857142857143,0.36677287715986673,0.47203065134099603,0.045467817345530626,0.2888888888888889,0.5555555555555556,0.4741778302806577,0.3563218390804599,0.024147771642759972,0.31666666666666665,0.41666666666666663,0.35712506797513555,0.4589080459770114,0.04037054458140264,0.38333333333333336,0.6166666666666667,0.46064984083582283,0.4605062001019191,0.02711113234716633,0.35467980295566504,0.5123152709359606,0.46128982341143426,0.7045886366215888,0.053499557772790765,0.5936587173792169,0.767092982646058,0.706581914017088,0.8018466530673473,0.05959037535368832,0.6814338220428606,0.8703664636720019,0.8040198029345291,-0.3343639385312247,-0.06800914597237077,1.0,0.3790631285946286,0.31513486560215165,0.37746656342747437
25,0.3271081859317145,0.03815394433040023,0.26244343891402666,0.40271493212669673,0.32928562232822606,0.38008658008658,0.05743018165257909,0.3040293040293043,0.4761904761904763,0.38432286737245447,0.3019797979797982,0.019993930159276686,0.2711111111111115,0.3466666666666669,0.30262895981320226,0.41780616078136756,0.05658387410015735,0.32644628099173545,0.5082644628099175,0.4215513129322452,0.5233583888810098,0.07206486117097241,0.391575663026521,0.6786271450858035,0.5282072727513645,0.5324474170553551,0.03083707607258437,0.47531461761858673,0.5808325266214909,0.5333234362368028,0.3883181069342519,0.08267299613961102,0.24217462932454686,0.5453047775947282,0.3968645952099317,0.39395202983877387,0.1201222146203284,0.1774325657588563,0.5747500884230906,0.41154003025930735,0.3736710382513661,0.08598865627009573,0.1902295081967213,0.5461092896174864,0.38326186423947184,0.46527095475381347,0.032660820014839255,0.40446161032687333,0.522670737867101,0.46639510656294103,0.4475,0.1349168125042105,0.08750000000000002,0.8625,0.46704158370437526,0.34335086401202103,0.05929413557576476,0.2231404958677686,0.5041322314049587,0.3483413366152031,0.20190274841437633,0.044720219417801806,0.09302325581395347,0.3372093023255814,0.20670814221937808,0.3655844155844155,0.11039243976794484,0.0,0.6785714285714286,0.38159780281977934,0.476363636363636,0.04029240094726124,0.33333333333333337,0.6222222222222222,0.47803375806485376,0.35303030303030314,0.02797906865548391,0.2833333333333333,0.41666666666666663,0.3541171979712224,0.45303030303030295,0.10072223290080373,0.16666666666666669,0.75,0.46389327403721836,0.45087326466636796,0.06696779863670378,0.2512315270935961,0.645320197044335,0.45573001557798903,0.2636857344494858,0.05258040669351945,0.17837157426156525,0.34638348522110673,0.26878355318475056,0.42532417027614566,0.0672525024185103,0.32139152506581015,0.5348593359846392,0.43051285041667225,-0.31771085978811975,-0.24008491406671334,1.0,-0.02502480957937299,0.346039984805062,-0.09581270552505287
26,0.3275708705572955,0.14620955399143426,0.2081447963800902,0.6063348416289589,0.35846505759568575,0.2800475877398959,0.19968931237124504,0.0,0.4835164835164838,0.3434554612861279,0.4377207977207977,0.03810592386585882,0.3600000000000001,0.5022222222222223,0.4393622052583923,0.21763085399449061,0.11070801368118816,0.0165289256198351,0.37603305785123986,0.24395634549635464,0.5329679853860821,0.06988547542999873,0.3978159126365055,0.769110764430577,0.5374914973341823,0.5748752699381936,0.07419010873144381,0.41142303969022276,0.6931268151016459,0.5796021946240107,0.5635252538053197,0.199916642900206,0.33607907742998355,1.0,0.597650215732503,0.37417684586284145,0.07863939605408116,0.11460563301625126,0.5171633872559058,0.38228210861782785,0.35741544066134245,0.08478424440596243,0.03620218579234974,0.48873224043715846,0.3672502229802537,0.45617556772721896,0.0344964845267549,0.3755074758937082,0.5067657122891767,0.45746692233663677,0.45844017094017087,0.09843644375225682,0.21250000000000002,0.75,0.46880092315987987,0.3396199759836122,0.04507056794553261,0.2231404958677686,0.5206611570247934,0.3425722145243786,0.19916517590936197,0.03650146393456875,0.08139534883720928,0.313953488372093,0.20245428249069852,0.3638583638583639,0.07263931141044665,0.17857142857142858,0.7142857142857142,0.37097746627177164,0.4710351377018043,0.04569498485646886,0.33333333333333337,0.6000000000000001,0.4732275205083793,0.35227920227920234,0.026704892044872048,0.2833333333333333,0.41666666666666663,0.35328132176452853,0.4547008547008544,0.05863412408253425,0.2,0.6,0.45843368494775427,0.4587175276830458,0.041910185421818846,0.32019704433497537,0.625615763546798,0.46061179027026095,0.16809275722383946,0.07541786045956503,0.02806316828216593,0.2599726435742733,0.18410435783388074,0.6526517599399507,0.23754293704378945,0.3793503931270372,1.0000000000000004,0.6941892304396798,-0.21543354575188006,0.7118466225702225,1.0,-0.02367045008384989,0.21538654901313548,-0.8269269780937343
27,0.5883397145840585,0.07861288391144981,0.5067873303167421,0.7601809954751126,0.5935284887211365,0.6365173288250213,0.15625545722877196,0.3333333333333335,0.7912087912087913,0.6552726640177942,0.6560000000000016,0.06176923828226398,0.5688888888888892,0.7555555555555558,0.6588794193695503,0.5230451366815003,0.10306251757676563,0.32644628099173545,0.6487603305785128,0.5330256942650554,0.5285611424456976,0.06452072970904792,0.37597503900156015,0.7379095163806553,0.5324544894815492,0.6148931417082436,0.059229821932229025,0.46176185866408526,0.6931268151016459,0.6177173800282676,0.45975161576479534,0.16245204907025756,0.26853377265238876,0.8253706754530478,0.48740046297177714,0.365031495803662,0.065845146222575,0.13613432863605063,0.4729518419925911,0.37087764231496584,0.3699269861286252,0.10706321198436529,0.11851366120218582,0.6127049180327868,0.3849939390541887,0.45984147558813476,0.036602790939892646,0.37241989571346645,0.5687147994971763,0.4612847722355425,0.45028846153846164,0.06914247355119414,0.21250000000000002,0.7000000000000001,0.4555256367859342,0.3430387794024158,0.05515001065026914,0.19008264462809918,0.5371900826446281,0.34741003369601264,0.20107334525939177,0.03515149177782314,0.09302325581395347,0.34883720930232553,0.20409951671195473,0.36840659340659326,0.07481382992317394,0.17857142857142858,0.7142857142857142,0.37586895658922487,0.47299145299145295,0.038761041518871,0.3555555555555556,0.5777777777777778,0.4745648278986153,0.35217948717948727,0.026117443418633115,0.2666666666666666,0.41666666666666663,0.3531391580627455,0.4506410256410257,0.06421204127949265,0.2,0.6666666666666667,0.4551579983025711,0.458355437665783,0.04480498956270374,0.26108374384236455,0.5960591133004927,0.46052334590020794,0.6424537910174177,0.06375039104402615,0.5112687868672454,0.7132565423068464,0.6455847919120792,0.5186329251748357,0.18840670379398775,0.31108770814674713,0.8827081085199877,0.5515470447767485,-0.3586045187310675,0.7811427855792074,1.0,-0.2995279350078132,0.3463711054174077,-0.8296012543564213
28,0.6310785268342974,0.02187931179971143,0.6063348416289589,0.678733031674208,0.6314528895873918,0.7487828627069133,0.017247040076701244,0.7142857142857144,0.772893772893773,0.748978952009706,0.8760056258790438,0.017426659948640427,0.8400000000000005,0.9244444444444444,0.8761767520830281,0.4520347316664923,0.016534457136496306,0.4173553719008267,0.48347107438016534,0.4523332027328398,0.5405122534015284,0.03392620534036622,0.42589703588143535,0.6427457098283933,0.5415624747202523,0.6961290085409341,0.026997413461468323,0.6118102613746371,0.7415295256534367,0.6966456996103696,0.5617375346693637,0.042576927913478474,0.4563426688632619,0.6771004942339374,0.5633284174240311,0.39116278072416694,0.04471717345452286,0.265269271579888,0.4869133826020589,0.393678339395434,0.3854486407968457,0.03787084823082926,0.328551912568306,0.519808743169399,0.3872811658123536,0.46727086650065164,0.015539474965018459,0.43793128330162195,0.5001196294903784,0.4675259151248373,0.45268987341772154,0.07274028720947633,0.16249999999999998,0.5750000000000001,0.45842370608837124,0.3410398577257036,0.053078794782361736,0.19834710743801653,0.487603305785124,0.34509401653441635,0.19929349425964082,0.03704000399967518,0.09302325581395347,0.2906976744186046,0.20266349484855742,0.3648282097649186,0.09632012727208983,0.10714285714285715,0.6785714285714286,0.3771733712791329,0.4722925457102673,0.11916499368221803,0.0,1.0,0.4869094308740002,0.3559071729957805,0.06741238772743154,0.1333333333333333,0.5833333333333333,0.36215579710718465,0.46012658227848097,0.06961522870607448,0.2833333333333333,0.6833333333333333,0.46529711633510146,0.46062231090602973,0.0347691370386706,0.38916256157635465,0.5911330049261083,0.4619161219888025,0.7597903900516029,0.01092813805550385,0.7462583271391121,0.7914872105618753,0.7598679815055871,0.6453068454073062,0.02752876875965807,0.5893731679801975,0.7114455898541854,0.6458863406318345,-0.21481909990592515,0.1828862470432111,1.0,0.14003175250426736,0.1268519128069873,-0.4998308923261532
29,0.25631102643486464,0.048586998062250655,0.17194570135746545,0.3574660633484159,0.2608159827508896,0.3799884326200113,0.031682297745989074,0.32967032967032983,0.46520146520146555,0.38128961360351793,0.34251461988304094,0.02786762856220007,0.30666666666666687,0.40444444444444483,0.3436315629742483,0.33460200086994374,0.04174971084210597,0.24793388429752072,0.40909090909090917,0.33716257595760324,0.5269521307168076,0.04324542406491656,0.42589703588143535,0.6365054602184086,0.5287003946593245,0.5727314413817699,0.023252031873711262,0.5353339787028075,0.6263310745401743,0.5731970403149184,0.4127286915806813,0.05640876795873878,0.3080724876441515,0.5634266886326194,0.41651537091105517,0.35755493253881543,0.08825703194554549,0.2292112660325025,0.5706826262588656,0.36814717523386764,0.38264401783146385,0.0600564330526543,0.2657103825136612,0.5327868852459017,0.38726704218851,0.4729605870300049,0.02473052305084442,0.42131607630462603,0.523141660305416,0.47359821399778645,0.44819078947368424,0.08690761252062496,0.2625,0.7250000000000001,0.45643020954381464,0.33514571552849065,0.07417043877946702,0.09090909090909088,0.5537190082644629,0.3431494130913504,0.1959914320685435,0.04411270728690718,0.10465116279069767,0.313953488372093,0.20083069494957725,0.36701127819548873,0.10475086806753563,0.10714285714285715,0.6785714285714286,0.38147823590385016,0.4716374269005846,0.07153564795173972,0.3555555555555556,0.7777777777777779,0.4769610862981959,0.3508771929824562,0.02891811387247654,0.2833333333333333,0.44999999999999996,0.3520512157052325,0.4554824561403509,0.065454997709466,0.25,0.5833333333333334,0.4601002624015642,0.4615633912367126,0.04782822346178255,0.3054187192118226,0.6206896551724138,0.4640023748781994,0.2090274558141732,0.04466115401240112,0.11077793412282366,0.29388315509187857,0.21368399794852205,0.45998721718196234,0.04374654413702957,0.3855769241252003,0.5475104161494935,0.4620355170768548,-0.24623237699461759,-0.2721057003414535,1.0,-0.10117315176416398,0.39035676409762887,-0.21121692829172084
30,0.21530357263456418,0.047399522776891044,0.16289592760180938,0.3076923076923075,0.22038332535056387,0.3858181619375653,0.09216457635104708,0.19780219780219777,0.4945054945054945,0.3965137859917438,0.4381426202321726,0.020354497696937358,0.3866666666666665,0.4622222222222223,0.4386081138956363,0.23196003453805383,0.054255234267507106,0.13223140495867813,0.338842975206612,0.23812843863249447,0.5326332456283327,0.04209904759629404,0.4446177847113886,0.6302652106084241,0.5342696430393342,0.6231379405007877,0.04580398424204209,0.5150048402710553,0.6853823814133593,0.624794033547822,0.47259583466522415,0.10062218988822104,0.2998352553542009,0.7380560131795716,0.48303263994094126,0.37034076994909654,0.10092518605139318,0.20419218526033622,0.6073270165118487,0.3836484729665785,0.37704379740641053,0.0925550490987518,0.20150273224043716,0.5922131147540983,0.38807293773975726,0.4759656389867096,0.033809473309827975,0.3864222427301348,0.5345349451033561,0.4771470518391015,0.4583955223880598,0.11168450345943501,0.1875,0.875,0.47160758336414316,0.3388429752066117,0.0635131392874024,0.2066115702479339,0.5619834710743802,0.3446567465824488,0.20131898646303367,0.04313923358206225,0.11627906976744184,0.313953488372093,0.2058216503736916,0.36940298507462693,0.07975113938608376,0.10714285714285715,0.5357142857142857,0.37778814247804926,0.4786069651741291,0.059342747359571214,0.33333333333333337,0.6888888888888889,0.4822174075616918,0.35572139303482603,0.03158978423578929,0.2833333333333333,0.4333333333333333,0.3571004476123053,0.4487562189054724,0.09606366404173365,0.13333333333333336,0.7166666666666667,0.45877296870665824,0.4647452393206379,0.1035568074142061,0.03448275862068961,1.0,0.4759748837355001,0.17951152895607694,0.043073244618198225,0.09121953983595166,0.2420692155769224,0.18453184635615313,0.5384116620943338,0.09823896454625256,0.38865018903283177,0.7340660333786069,0.5471690495979812,-0.2961191662043098,0.6926428361386274,1.0,-0.2846965172935084,0.3123475240975675,-0.7552826028224211
31,0.5078157136980662,0.04091554876563222,0.434389140271493,0.6380090497737554,0.5094426930959871,0.5884948384948386,0.07041305239631926,0.4065934065934069,0.6959706959706959,0.592644777246086,0.6389393939393939,0.03934467770502738,0.5688888888888892,0.7466666666666668,0.6401358932606644,0.457926371149512,0.056371950685806846,0.3223140495867769,0.5371900826446283,0.46134395724961724,0.5356332435115588,0.0657969516298397,0.3837753510140405,0.6926677067082683,0.5396137641892951,0.6290042242365574,0.037226165518962406,0.5440464666021299,0.7105517909002905,0.6300923376161596,0.4762243522540062,0.10245541536801259,0.3047775947281713,0.7397034596375618,0.48699841935346433,0.3717299321892203,0.0998974060216672,0.2204806493047153,0.5817308587278245,0.3847716607289942,0.3544149900645802,0.13700774805119595,0.09562841530054644,0.605191256830601,0.37969435075114205,0.4636065253139799,0.02249991043005139,0.3911694447292765,0.4986954688906358,0.46414599372175547,0.46590909090909083,0.08053626103621145,0.23750000000000002,0.65,0.47274058930107465,0.3408151765589782,0.06859823805536697,0.1487603305785124,0.6115702479338843,0.3475733430026576,0.19727801268498943,0.03811746186317036,0.09302325581395347,0.3255813953488372,0.20088565029836325,0.3648538961038963,0.08705318268809058,0.14285714285714285,0.6428571428571428,0.37498067358980347,0.46919191919191905,0.05601919618501747,0.2,0.5777777777777778,0.47248655703298054,0.3543560606060606,0.027157164991148064,0.3,0.41666666666666663,0.3553833823982888,0.4535984848484848,0.06702246357361195,0.2833333333333333,0.5833333333333334,0.458467611184313,0.4653493058665473,0.07617207988347173,0.270935960591133,0.7684729064039408,0.4714724045956785,0.5555422755993892,0.03712430117221334,0.49756782611717787,0.6111692373306212,0.5567672513680454,0.5371765385814086,0.09406181100526141,0.38866083838422005,0.8031773993870046,0.5452574774423402,-0.3229546607862023,0.4979574501679867,1.0,-0.4387468151551186,0.4165333870438128,-0.7139650990086873
32,0.6150614091790562,0.03216518539013156,0.5520361990950224,0.6923076923076918,0.6158952225079634,0.6669864527007383,0.07105248199827413,0.46520146520146555,0.7435897435897438,0.6707304348094567,0.8440211640211646,0.06706825079387628,0.7066666666666668,0.9200000000000002,0.8466606025881425,0.41469893742621045,0.07085004821116904,0.26859504132231393,0.5371900826446283,0.4206603129750584,0.5406854369412875,0.0344461513795164,0.4524180967238691,0.6677067082683306,0.5417728879357077,0.6727054810307471,0.026876763551310138,0.612778315585673,0.7231364956437561,0.6732379160509334,0.5832875709317226,0.08650115086634601,0.4546952224052718,0.7644151565074134,0.5896163625510702,0.36531294386987917,0.08701604431900548,0.07446154991716153,0.500288538505929,0.3754533863753922,0.37906049960967986,0.035831897701849365,0.2923497267759563,0.47984699453551916,0.3807369135993428,0.46879578224213697,0.025989933157391544,0.4077884494878718,0.5255190590665861,0.46950995851839317,0.4499999999999999,0.08396427811873335,0.2,0.65,0.4577051972821018,0.3429096156368885,0.06399701201741954,0.09917355371900827,0.5950413223140496,0.3487837684615332,0.20016611295681055,0.0358353045041722,0.09302325581395347,0.313953488372093,0.2033235107096495,0.36422902494331044,0.07785646674278399,0.17857142857142858,0.6071428571428571,0.3723926742765964,0.4730158730158729,0.04101017209385433,0.3555555555555556,0.6000000000000001,0.47477626567630726,0.353703703703704,0.026152449546532924,0.3,0.44999999999999996,0.35466157453479397,0.45476190476190487,0.06452758730813919,0.25,0.6,0.4592811268048727,0.46063022910313606,0.04696003498740714,0.2167487684729064,0.6748768472906403,0.46299886706782095,0.6898357274069442,0.04789153901489629,0.4956971017847729,0.7332395977887085,0.6914829912192887,0.6772943198457325,0.099141174630227,0.5138118618776688,0.8160947492242654,0.6844549367811185,0.062072814320681284,0.32119116750244586,1.0,0.2479382969243976,0.1395829675087389,0.040196661406489656
33,0.09480715363068265,0.06314702317670709,0.0,0.19457013574660564,0.11363383530520241,0.4727019012733299,0.037450509667143264,0.38827838827838845,0.5054945054945057,0.4741596414619908,0.1453262786596121,0.038503548497767166,0.11111111111111138,0.22666666666666702,0.15026216556718677,0.40620490620490646,0.030171176797644254,0.3471074380165291,0.4545454545454546,0.4073061213993488,0.4759923730282545,0.04200233139388941,0.4071762870514819,0.5600624024960998,0.4778126535735314,0.5629158407473995,0.022694142355229693,0.5101645692158762,0.5992255566311715,0.5633658605878782,0.20948719960252082,0.05407201173226348,0.13509060955518937,0.3393739703459637,0.2162458323408761,0.37909010349859956,0.047238206229508646,0.28155773562426706,0.4880768443195146,0.38197556844228725,0.41674828692861493,0.04762114005081308,0.3394808743169399,0.5389344262295082,0.4194173473298051,0.4763309330877206,0.021429140315211356,0.4327093611025661,0.5124623546881467,0.476805072177433,0.4656746031746032,0.16957264022341578,0.15000000000000002,1.0,0.4951275489028456,0.340285976649613,0.042441253647741234,0.19008264462809918,0.4297520661157025,0.34288075840855203,0.19730527870062758,0.032553333556998784,0.10465116279069767,0.26744186046511625,0.19993066694220166,0.3639455782312924,0.06080473841465327,0.17857142857142858,0.5,0.3689104419180062,0.4684303350970017,0.05856393570057034,0.2,0.5777777777777778,0.4720193567774987,0.35634920634920636,0.029088385183536142,0.2833333333333333,0.4333333333333333,0.3575156784218844,0.45052910052910045,0.05244627341096425,0.21666666666666667,0.5666666666666667,0.45352334175514586,0.45797169442489605,0.040515298506963504,0.22660098522167488,0.5615763546798029,0.4597319946664681,0.1507336147067238,0.03160864187150827,0.08770579793225597,0.20359090037294392,0.15396061189244056,0.20935749838020928,0.06569742341164374,0.15474473816317413,0.34869182475150007,0.21926742400681454,0.0762189527145817,-0.6789843510661846,1.0,-0.26028118292749236,0.5946552588673677,-0.6606161904784282
34,0.23059061681352636,0.0209314151118607,0.20361990950226216,0.2986425339366514,0.23152622294187447,0.48178137651821923,0.04299092561366445,0.3589743589743595,0.5347985347985349,0.4836705446529094,0.4887134502923982,0.03188820628077197,0.45333333333333337,0.5688888888888892,0.48973902692140914,0.2873531970421923,0.05396401339288452,0.14049586776859524,0.334710743801653,0.29231089150527145,0.5300106741111751,0.06068000689041015,0.4087363494539782,0.673946957878315,0.5334275299490322,0.6494242624955416,0.025667717905789096,0.5992255566311715,0.7299128751210069,0.649924638417142,0.42939824850429203,0.056157519196550265,0.3476112026359143,0.586490939044481,0.4330069597165148,0.3711717210709531,0.038932348743044874,0.2862115824940897,0.4467692995029692,0.3731812301213209,0.3764828875467356,0.06707893015743321,0.2523934426229508,0.5484972677595629,0.38233459488884425,0.47738617858634097,0.022511102749202008,0.39686608712824656,0.5307371835040426,0.47790966248071015,0.45378289473684225,0.059372402990295975,0.275,0.625,0.45759984170842866,0.342648977816442,0.05680182848214307,0.2231404958677686,0.5041322314049587,0.34726404429210345,0.20211138310893517,0.03839990090647884,0.12790697674418602,0.3023255813953488,0.2056797548780809,0.37546992481203006,0.09081891623449312,0.17857142857142858,0.6428571428571428,0.38615697931611104,0.4728070175438595,0.0413116126458152,0.3555555555555556,0.5777777777777778,0.474584733494196,0.3537280701754386,0.026331038466886173,0.3,0.41666666666666663,0.35469388004025626,0.45328947368421063,0.049066827961850315,0.30000000000000004,0.55,0.45590264555299764,0.4595540575576873,0.03905270742172018,0.3399014778325123,0.5467980295566502,0.4611886582362941,0.2681525011796267,0.02697923878408499,0.19037027153640462,0.29411364964579345,0.26948852638788534,0.49068333243014206,0.06476909149663301,0.4180260230452717,0.675307335451468,0.49488379454806797,-0.14830866343599955,-0.42341658420984785,1.0,0.11953809758770541,0.3005417028784529,0.1901562361931866
35,0.5131573166981503,0.10700042366282951,0.40271493212669673,0.687782805429864,0.5240881282044383,0.5189373733063054,0.22642949100729076,0.2124542124542128,0.7545787545787548,0.5657460046426943,0.5439050701186621,0.021270391032629007,0.5022222222222223,0.5955555555555556,0.5443167848925055,0.47079354890475844,0.1072528447639992,0.2851239669421486,0.619834710743802,0.4827401548575186,0.5224845887039365,0.06303180085140649,0.3884555382215287,0.7535101404056161,0.5262362401614694,0.5820167482777096,0.08867566924773472,0.38141335914811236,0.6989351403678608,0.5886684348190634,0.4613969706178725,0.17892938659085508,0.25370675453047775,0.7792421746293245,0.4945624910927139,0.3500826035227904,0.09287940342402666,0.1407881755058732,0.5543941622144866,0.3620782507014936,0.35914027269351156,0.07961768695871752,0.10279781420765027,0.5071693989071038,0.3677759754116237,0.45343109140404697,0.033572834705129825,0.367433434733568,0.5100887536885759,0.4546602542795182,0.458373786407767,0.08037115856848284,0.2875,0.875,0.4652991912507916,0.34036748776378073,0.06524655145934835,0.15702479338842976,0.578512396694215,0.3465051341825464,0.19970648001806277,0.03354424774956851,0.09302325581395347,0.313953488372093,0.20247708582873342,0.36199722607489604,0.05547472009898775,0.2142857142857143,0.5357142857142857,0.3661824110376663,0.47335490830636423,0.03744890187084242,0.3555555555555556,0.5777777777777778,0.4748196223182688,0.35404530744336604,0.02280279425906197,0.2833333333333333,0.39999999999999997,0.3547717560929157,0.45258899676375414,0.054520952057477895,0.2833333333333333,0.6333333333333333,0.45582943591809283,0.45745851068917737,0.063107774122881,0.22167487684729062,0.7389162561576355,0.46174908145351307,0.495963720375777,0.10116972972266519,0.34067578868001513,0.6205833512588086,0.5060789999184877,0.5200528663714553,0.21558149056297435,0.28169413926482134,0.8408061929063502,0.5625647923768106,-0.38236596934051287,0.9099041571228378,1.0,-0.26767854512392064,0.39191541004927694,-0.8986453758003964
36,0.5675693928547308,0.030130486677595884,0.5158371040723977,0.6199095022624435,0.5683566767349736,0.7671532447651851,0.01946885878412315,0.728937728937729,0.8021978021978025,0.7673965599059434,0.7710116086235488,0.026309143262419756,0.7244444444444447,0.8133333333333332,0.7714536543051311,0.5087578635746891,0.021039884606400095,0.47520661157024824,0.5495867768595044,0.509186246257444,0.5305609239294942,0.03621260859430859,0.43837753510140387,0.6287051482059283,0.5317769030232238,0.6876219098120241,0.030496947805406748,0.6040658276863505,0.7444336882865442,0.6882877836554618,0.4605473456441023,0.044289534182125424,0.3410214168039538,0.5650741350906096,0.46264040394307687,0.3929419341609865,0.0409338441385722,0.31472104841862286,0.4886539213313726,0.395036624336848,0.390731017045918,0.047416967201102604,0.3227431693989071,0.519808743169399,0.3935550008795777,0.46534789111715474,0.022103535414821778,0.4265379985036819,0.5155461371067892,0.4658647164263677,0.45149253731343286,0.05256320095827164,0.3125,0.6125,0.4544966052448626,0.33686937214752705,0.040591829146996654,0.24793388429752067,0.4380165289256198,0.3392699190881765,0.1983686220062479,0.026996587333314347,0.1395348837209302,0.27906976744186046,0.20017004790333048,0.36620469083155643,0.06289479010272571,0.25,0.5357142857142857,0.3714869972089731,0.4776119402985074,0.052668859339822405,0.2888888888888889,0.6222222222222222,0.480464120558735,0.3559701492537315,0.01961358453025692,0.31666666666666665,0.39999999999999997,0.3565020310963008,0.4641791044776118,0.04716310006710858,0.33333333333333337,0.5666666666666667,0.4665333853737856,0.46165723108594925,0.039806232675720706,0.37438423645320196,0.6699507389162561,0.4633446723340511,0.7255245651896649,0.015334019553978267,0.6903104408166154,0.7567847925506301,0.7256841719468425,0.5232695303864437,0.036105911500887745,0.4726385862736411,0.592601208905251,0.5244951677659305,0.13967420761723953,-0.3243494892027939,1.0,0.18028377976893573,-0.08297232015036078,-0.0472223060274991
37,0.20773344302756022,0.1016544095069479,0.09954751131221728,0.4072398190045248,0.23101812663938381,0.2928737928737927,0.0840555687050261,0.14652014652014667,0.38827838827838845,0.3045654432853896,0.31939393939393956,0.0431388401728375,0.24,0.41333333333333333,0.3222612306586603,0.2312640871525171,0.03400288363323783,0.18181818181818166,0.2933884297520666,0.23372234704852174,0.5478478230038294,0.06448817040840756,0.4430577223088923,0.7332293291731669,0.5515874391825766,0.5697219044266482,0.03885102162595812,0.4801548886737658,0.6350435624394968,0.5710300324595903,0.4651415306275275,0.10676903739011305,0.3047775947281713,0.7018121911037891,0.4771024309725305,0.37670849064746004,0.07795279368296244,0.241422960218917,0.5677693181183567,0.3845996259278371,0.3798592896174864,0.0836611957827286,0.22472677595628415,0.5922131147540983,0.3888608224981713,0.4584604288777648,0.026737704357817235,0.3781165381124365,0.4996449092904642,0.45923060194475096,0.46207386363636355,0.05321721589541632,0.30000000000000004,0.6375000000000001,0.4650936947394189,0.3472952667167543,0.036445956217541785,0.24793388429752067,0.4793388429752066,0.3491807778250558,0.20309196617336145,0.03226607765123311,0.0697674418604651,0.26744186046511625,0.2056103494768365,0.37540584415584405,0.08714499684138191,0.14285714285714285,0.6071428571428571,0.385275875185561,0.4709595959595961,0.09287718946808378,0.2,0.6666666666666667,0.47992821199052477,0.3655303030303031,0.06732412661087654,0.18333333333333332,0.6333333333333333,0.3716092495396667,0.45511363636363616,0.06013808899570443,0.33333333333333337,0.6833333333333333,0.4590249602596945,0.4597514554411109,0.02704049019548808,0.33497536945812806,0.541871921182266,0.4605369474151189,0.0962206705572282,0.026965671145964563,0.02574202949694193,0.12929802571989546,0.09988644464574407,0.5300693332789254,0.11699559174516075,0.39219534684358237,0.7549584333115416,0.5426839978054562,-0.07106485258432813,-0.37333281835690324,1.0,-0.49057210360277514,0.45702434853962653,-0.6906493351868408
38,0.2540898016011131,0.07731129123485865,0.1538461538461533,0.39819004524886825,0.2654949665331395,0.33117310040387016,0.1694115494347601,0.062271062271062494,0.5054945054945057,0.37165924451527566,0.42666666666666686,0.038969265596523625,0.35111111111111115,0.48444444444444446,0.42842743678142947,0.21703044430317184,0.12079829753684904,0.0,0.3925619834710745,0.24813246973928804,0.5343013720548822,0.06486856690703677,0.3993759750390016,0.7363494539781592,0.5381913432324184,0.6005493914496819,0.05679599689253642,0.4443368828654406,0.6989351403678608,0.6032062549571139,0.5121164758726539,0.16198120640697522,0.29654036243822074,0.8533772652388797,0.5369142766194198,0.3511762617851712,0.0716113940980999,0.14194232952958918,0.48342299744969197,0.35834219386954286,0.36055606931016765,0.07914093574995823,0.13934426229508196,0.5085355191256831,0.36906697827653984,0.46760734949316596,0.03475643143937022,0.37859125831235063,0.5532882918807654,0.46888625268680717,0.4485042735042734,0.08486110598599297,0.2625,0.7625000000000001,0.4563945005923496,0.3423041604859788,0.06494981687916135,0.14049586776859505,0.6942148760330579,0.3483598163178913,0.2010534684953288,0.033799642291525135,0.12790697674418602,0.37209302325581395,0.20385080028115596,0.36599511599511586,0.06058483426921748,0.2142857142857143,0.5357142857142857,0.3709333836305047,0.47445394112060774,0.0626039358395212,0.3111111111111111,0.6444444444444445,0.47853139619093477,0.3547008547008549,0.039260779192319815,0.24999999999999997,0.4666666666666667,0.35684861030171333,0.4535612535612536,0.06487643205327286,0.2833333333333333,0.6166666666666667,0.458138394182502,0.4595595974906328,0.05470229341825915,0.3054187192118226,0.6748768472906403,0.4627761759076157,0.15995297761281158,0.08939943603998833,0.0,0.27445868177135013,0.1830543752661641,0.5877703166875065,0.19495811496945983,0.36833435781632673,0.915701652452551,0.6189973759016678,-0.3569807223637081,0.5665280374088131,1.0,-0.048878176985295514,0.43515664492281253,-0.5723000391529236
