,Orientation X,Orientation X,Orientation X,Orientation X,Orientation X,Orientation Y,Orientation Y,Orientation Y,Orientation Y,Orientation Y,Orientation Z,Orientation Z,Orientation Z,Orientation Z,Orientation Z,Orientation W,Orientation W,Orientation W,Orientation W,Orientation W,Accelerometer X,Accelerometer X,Accelerometer X,Accelerometer X,Accelerometer X,Accelerometer Y,Accelerometer Y,Accelerometer Y,Accelerometer Y,Accelerometer Y,Accelerometer Z,Accelerometer Z,Accelerometer Z,Accelerometer Z,Accelerometer Z,Gyroscope X,Gyroscope X,Gyroscope X,Gyroscope X,Gyroscope X,Gyroscope Y,Gyroscope Y,Gyroscope Y,Gyroscope Y,Gyroscope Y,Gyroscope Z,Gyroscope Z,Gyroscope Z,Gyroscope Z,Gyroscope Z,EMG1,EMG1,EMG1,EMG1,EMG1,EMG2,EMG2,EMG2,EMG2,EMG2,EMG3,EMG3,EMG3,EMG3,EMG3,EMG4,EMG4,EMG4,EMG4,EMG4,EMG5,EMG5,EMG5,EMG5,EMG5,EMG6,EMG6,EMG6,EMG6,EMG6,EMG7,EMG7,EMG7,EMG7,EMG7,EMG8,EMG8,EMG8,EMG8,EMG8,Roll,Roll,Roll,Roll,Roll,Yaw,Yaw,Yaw,Yaw,Yaw,Accelerometer X vs Roll,Accelerometer Y vs Roll,Accelerometer Z vs Roll,Accelerometer X vs Accelerometer Y,Accelerometer X vs Accelerometer Z,Accelerometer X vs Accelerometer Z
,mean,std,amin,amax,RMS,mean,std,amin,amax,RMS,mean,std,amin,amax,RMS,mean,std,amin,amax,RMS,mean,std,amin,amax,RMS,mean,std,amin,amax,RMS,mean,std,amin,amax,RMS,mean,std,amin,amax,RMS,mean,std,amin,amax,RMS,mean,std,amin,amax,RMS,mean,std,amin,amax,RMS,mean,std,amin,amax,RMS,mean,std,amin,amax,RMS,mean,std,amin,amax,RMS,mean,std,amin,amax,RMS,mean,std,amin,amax,RMS,mean,std,amin,amax,RMS,mean,std,amin,amax,RMS,mean,std,amin,amax,RMS,mean,std,amin,amax,RMS,corr, corr, corr, corr, corr, corr
0,0.8444200848656287,0.07958375073484632,0.42142857142857104,0.9999999999999998,0.8481546506245385,0.8264185838873701,0.24814966524538154,0.23027375201288247,1.0,0.8628000898322264,0.6263591839611005,0.15491219442410697,0.0,0.9483985765124557,0.6451946178801161,0.8797362909367863,0.18646947226906668,0.4062499999999998,0.9999999999999998,0.8992429885649945,0.6342997482275528,0.08303402184135132,0.0,1.0,0.6397008414992273,0.47002607953103026,0.10500170658599503,0.0,1.0,0.48158907943644014,0.7071537252357103,0.08694320498370293,0.0,0.9999999999999999,0.7124679245070326,0.48960113657080007,0.08861778127787888,0.0,1.0,0.4975407856395969,0.37422751457548753,0.07063520175703704,0.0,1.0,0.3808223792370895,0.6108493595829552,0.06883072609183935,0.0,1.0,0.6147074323893865,0.4447368421052641,0.0645162463680696,0.01754385964912275,0.9999999999999999,0.44938286850055836,0.5379501078599482,0.07500346387738964,0.0,1.0,0.5431433498602163,0.5175577557755787,0.06669169683740418,0.0,1.0,0.5218285211643279,0.5518692852891849,0.04847532993575847,0.0,1.0,0.5539899931177316,0.4804219115378881,0.06866314309709395,0.0,1.0,0.4852942451855416,0.49527291190657513,0.059988084660928497,0.0,1.0,0.4988854594873662,0.48742874287428894,0.06943594992977299,0.0,1.0,0.4923399062565143,0.46739273927392727,0.058099809328453524,0.07500000000000001,0.7708333333333333,0.470982883168405,0.8921105008849697,0.1567678328973865,0.5359696136898091,0.9999999999999999,0.9057530753854597,0.24985991942857483,0.21420863138549437,0.0,0.7702671928875184,0.3289748547259047,-0.4671043262348475,0.7888484003477492,1.0,-0.2958848248276446,0.5522833843894486,-0.6173355195790837
1,0.5048841698841701,0.11197842138786987,0.389285714285714,0.7928571428571425,0.51708743223544,0.4597728162945554,0.10123206993466728,0.22866344605475042,0.5539452495974234,0.4707266514228274,0.7419832644031938,0.041211643800749334,0.6423487544483986,0.802491103202847,0.7431207060100554,0.4907354469854469,0.05009327917961027,0.37259615384615374,0.5865384615384615,0.49327178265662863,0.7333024131776084,0.02461397661519929,0.6614664586583463,0.8122724908996359,0.7337131606859059,0.41203049203049186,0.04624720417876842,0.31048951048951046,0.4815850815850816,0.41460387016417294,0.8163194056289824,0.028165326893339292,0.7753738466433343,0.8892777601018135,0.8168025279190696,0.48407422737022754,0.05092032846516749,0.36587174603174605,0.6050793650793651,0.4867306461363625,0.3621808452465746,0.03516463149734196,0.24425883654976827,0.4443392474233935,0.36387474755847077,0.6073420100817356,0.05668780109462815,0.4111359325605901,0.7061833508956796,0.609967584135484,0.4450924608819343,0.06259417525752217,0.0,0.631578947368421,0.44944871894952576,0.5398157934470783,0.05745148677876872,0.3910614525139665,0.8379888268156426,0.5428479738476635,0.5187837837837839,0.03710062829202683,0.43333333333333335,0.65,0.5201015579967349,0.5529759267464184,0.012694436893262028,0.5245901639344261,0.5901639344262295,0.5531208305740182,0.4779030286567975,0.01588673389136451,0.42713567839195976,0.5477386934673367,0.47816558727277697,0.49410949410949395,0.013194988921411065,0.4564102564102564,0.5794871794871795,0.4942846940568742,0.48823368823368807,0.049614578645551195,0.30303030303030304,0.6666666666666667,0.49073458687953575,0.47403153153153144,0.11608900621456637,0.0,0.9291666666666667,0.48796485883048324,0.5219576281200288,0.058939122300732526,0.35134759862284537,0.5915927498578799,0.5252568974169856,0.574057378322706,0.0753387116531794,0.48417004614913467,0.7477589770921138,0.5789534648170657,0.38600499930633553,0.7519933783750828,1.0,0.37842092102021835,-0.3569433518874172,-0.8015828706905231
2,0.5515535714285718,0.07142280800509734,0.4357142857142853,0.7499999999999998,0.556135822952836,0.3907407407407406,0.05775476858054051,0.246376811594203,0.4847020933977456,0.39496488666961976,0.7578736654804272,0.11324588081252472,0.505338078291815,0.8701067615658364,0.7662460435148347,0.42359374999999994,0.0674834274937038,0.31009615384615397,0.5432692307692306,0.4289089739798281,0.7376209048361936,0.03425267662273158,0.6011440457618304,0.8195527821112845,0.7384117949206305,0.39353146853146836,0.053749499791329654,0.2955710955710956,0.47972027972027975,0.39716694274412273,0.8466640152720329,0.0257046650869377,0.7823735284759783,0.8969137766465161,0.8470521713063233,0.4845622349206349,0.050091521296312405,0.35031619047619045,0.5955555555555556,0.48713157792790507,0.37238493895690666,0.03990053100211117,0.28600332019091096,0.5156714740264232,0.37450585425907346,0.6052389322093432,0.04733386198662057,0.4617154899894626,0.7223407095187917,0.6070778015048989,0.4403289473684209,0.04605267880754747,0.30263157894736836,0.6140350877192982,0.4427186768929066,0.5375977653631286,0.04684371473916194,0.3128491620111732,0.787709497206704,0.5396246095814575,0.51875,0.03299398029795332,0.43333333333333335,0.6583333333333333,0.5197929609202324,0.553387978142076,0.01132953465173613,0.5136612021857923,0.5846994535519126,0.5535033612507,0.4780150753768846,0.016175270488696804,0.4221105527638191,0.5376884422110553,0.4782873022212426,0.4932307692307692,0.009518070457614198,0.46153846153846156,0.5282051282051282,0.4933221385797377,0.48707070707070677,0.036400840484421604,0.4040404040404041,0.6060606060606061,0.48842222489193854,0.464916666666667,0.054530827163276285,0.07500000000000001,0.6583333333333333,0.46808786568335675,0.4838156724136447,0.05680918643133532,0.31068286375062026,0.5582914531493464,0.48712293327017814,0.6487481205946541,0.059352542229709516,0.5033286929381444,0.7261674298534828,0.6514439612298821,0.4335152553160103,0.5214825942840822,1.0,0.5718916319814781,0.5152400746358065,0.5107288707021377
3,0.7557469818913474,0.12136724113306842,0.49285714285714244,0.9678571428571425,0.7653963951022548,0.4988829919938309,0.15496542166820784,0.2028985507246377,0.681159420289855,0.5223159621176088,0.7859067214675954,0.14191960895337247,0.50711743772242,1.0,0.7985734973198862,0.5585979821235103,0.1777545548289464,0.14903846153846145,0.7524038461538456,0.5861033453864559,0.7205236096767814,0.03737262559154598,0.6167446697867914,0.8829953198127924,0.7214887852498042,0.3941019074821893,0.0548098927360119,0.26993006993006996,0.4834498834498835,0.39788171599135025,0.8245643123776059,0.07079938386211744,0.6932866687877823,0.9780464524339803,0.8275875833821851,0.4736786407332885,0.06890149890070339,0.3003174603174603,0.665871746031746,0.4786461688786813,0.3708320957511687,0.06323542815946448,0.241961074220101,0.6940020405339973,0.3761662964912159,0.6051453024433922,0.03911769755554278,0.4998243765367053,0.7449947312961012,0.6064038615670146,0.4437237459846804,0.032534381993962254,0.3552631578947368,0.587719298245614,0.44491068957599145,0.5391848296482804,0.05183872136539923,0.17877094972067042,0.7039106145251397,0.5416623222978303,0.5180457746478874,0.041608386304944955,0.2,0.6666666666666667,0.5197081743278855,0.5529708304471638,0.01427162954604383,0.48633879781420764,0.6010928961748634,0.5531543198369734,0.47920942741878436,0.026320038633977097,0.371859296482412,0.5577889447236181,0.4799291411445747,0.4934633441675694,0.01627280441712029,0.4205128205128205,0.5743589743589743,0.4937306389030478,0.48780054061744166,0.057987794556983885,0.2222222222222222,0.6868686868686869,0.49122307728630404,0.46813380281690115,0.05909854234145888,0.14583333333333331,0.7666666666666666,0.4718364091786521,0.6460173093136005,0.14148363201759587,0.282067591215702,0.7693366532161358,0.6612756592305498,0.5920514872257433,0.1837715210396463,0.3778038972853233,1.0,0.6198209580816594,0.2772265870363108,0.7123413784002809,1.0,0.23677330839449645,0.14316291683466772,-0.16306147816362696
4,0.6596328969834951,0.07460063332328452,0.5321428571428568,0.8178571428571426,0.663821241710762,0.5272565133989005,0.13617070863532643,0.20450885668276975,0.6570048309178744,0.5444887679848424,0.7555046717046404,0.09763950456226443,0.5604982206405695,0.9092526690391459,0.7617629551606927,0.591662197364389,0.10423678547542853,0.39423076923076916,0.7475961538461535,0.6007380253977869,0.7217205022862265,0.031279684065643444,0.4747789911596464,0.7961518460738428,0.722395323886664,0.40703944130238934,0.0530550428520053,0.28158508158508155,0.5398601398601399,0.4104689146031288,0.8014432882532865,0.04335029924698667,0.7193763919821825,0.8784600699968182,0.8026101828941915,0.480940340226396,0.058478669340474805,0.32920380952380957,0.6092038095238095,0.48446851404805114,0.3701860521530124,0.040693100000912266,0.2258853842429273,0.5597137199972331,0.3724070948197188,0.6100179989560549,0.046594832952722244,0.43115419740077277,0.6972251492799438,0.6117878617570551,0.44439784720766096,0.024021094270931666,0.3552631578947368,0.5263157894736842,0.4450439986297109,0.5386721271339228,0.04111858611684533,0.39664804469273746,0.7262569832402235,0.5402329707327849,0.5192231075697216,0.028340089812332103,0.45833333333333337,0.6416666666666667,0.5199928809912121,0.5538066313979055,0.011926319939135725,0.5136612021857923,0.5956284153005464,0.5539345226702201,0.47850807823980473,0.01827793960750528,0.3869346733668342,0.5376884422110553,0.47885564944853104,0.49316579834508084,0.013548450516795353,0.4,0.5794871794871795,0.49335112633090017,0.48621674916495605,0.04257498194680703,0.24242424242424243,0.6464646464646465,0.48806980507554193,0.46776228419654703,0.02617336089838544,0.3375,0.6416666666666666,0.4684910565584518,0.6370718862467856,0.12253402551198074,0.30779547007514907,0.7350285603196306,0.6487028260928639,0.5361153987086287,0.10986494997537692,0.3734258746559646,0.7172798806699181,0.5472128827907523,0.15110960934416723,0.8609736952936766,1.0,0.19460411825209678,0.232689142707616,-0.43338591731870796
5,0.5433344305464114,0.05835515688707632,0.44999999999999973,0.7321428571428568,0.5464448142435213,0.5037734588926732,0.16437843171413455,0.19645732689210949,0.719806763285024,0.5297956675263453,0.7510208767240106,0.057567110579993426,0.6192170818505339,0.8469750889679717,0.7532138193995421,0.5241713931230059,0.1350308196600624,0.3197115384615383,0.7139423076923075,0.541206935561663,0.7278565797009755,0.02894267993433718,0.6609464378575143,0.814872594903796,0.7284291448488162,0.42429398558430814,0.05160156233143493,0.31095571095571095,0.5128205128205129,0.42740593916473874,0.8088943171204825,0.0495405959255527,0.7228762328985046,0.8911867642379891,0.8104029719290893,0.4797946719332898,0.062109326720810855,0.33349079365079365,0.6409498412698413,0.48377961807839653,0.3639971061488877,0.047418163555052004,0.23453171474026424,0.5236433907449678,0.3670585972980511,0.6116406663008515,0.046530996617852774,0.46013347383210396,0.6998609062170706,0.6133999190942188,0.44486215538847124,0.03183413489827828,0.3596491228070175,0.6403508771929824,0.4459944835304005,0.5359009345313184,0.044023051836565415,0.3184357541899442,0.7150837988826816,0.5376977866003356,0.5170122887864831,0.02713745025442292,0.43333333333333335,0.6166666666666667,0.517720729954162,0.5526176626123741,0.010239234805799764,0.5245901639344261,0.5792349726775956,0.5527120767796202,0.47889215663571344,0.01339828446900615,0.41708542713567837,0.5527638190954773,0.4790786829533721,0.4933002481389573,0.008416893992484315,0.4717948717948718,0.5230769230769231,0.4933717183300139,0.4892705860447794,0.04819546180106947,0.31313131313131315,0.696969696969697,0.4916277094994321,0.4673579109062979,0.036093331237404686,0.26666666666666666,0.5916666666666667,0.468743151511671,0.5661842092323438,0.1365463957490687,0.2881470029350366,0.7370329766611781,0.5823431597384181,0.5548877742358825,0.12635525338101183,0.37756565057802244,0.7693334700942864,0.569027694957992,-0.18196422362898718,0.879866089969906,1.0,-0.021904456688477125,0.2697108085832067,-0.7593193264758863
6,0.4909863945578223,0.07914658566719705,0.40714285714285703,0.7464285714285712,0.49729467343363093,0.42121769802929254,0.13556444945157045,0.13365539452495967,0.5845410628019324,0.4423963789816053,0.6795119471276057,0.13258678826822332,0.3967971530249111,0.8736654804270464,0.6922658679781633,0.48254349816849784,0.1289386012108105,0.20913461538461542,0.6201923076923075,0.4993938556536269,0.7201817596513379,0.03528682486068628,0.5990639625585024,0.7805512220488819,0.7210416060185931,0.38686202686202675,0.07266933294649922,0.227039627039627,0.47412587412587415,0.39359612924909576,0.8152993045770647,0.04784494545320848,0.7476932866687878,0.9163219853643015,0.8166952884572602,0.4886479455782314,0.06557423561748085,0.3247593650793651,0.6509511111111111,0.4930074228625878,0.3757135281310421,0.03448378148158446,0.29586446012312373,0.4601447395725254,0.3772852023025704,0.607080241524077,0.05610107976037971,0.46188970846505095,0.730416578854935,0.6096546264140218,0.4438805346700082,0.037216387805205156,0.3289473684210526,0.6096491228070176,0.4454305704132463,0.5367650971002926,0.03972863018289272,0.4357541899441341,0.6927374301675978,0.538226362696942,0.5168253968253969,0.02711007335034968,0.4416666666666667,0.6166666666666667,0.5175325565507424,0.5529274004683843,0.009545604422901515,0.5191256830601092,0.5901639344262295,0.5530093985228468,0.47841588896865267,0.006953600548141449,0.4422110552763819,0.5125628140703518,0.4784661797117548,0.4935531135531131,0.007984191806817238,0.4717948717948718,0.5230769230769231,0.4936173818435896,0.4891293891293889,0.044439176978272224,0.35353535353535354,0.6767676767676768,0.49113439683904286,0.46799603174603205,0.05215137008275834,0.07500000000000001,0.6791666666666667,0.4708790713842827,0.47750946708399794,0.10889160855175403,0.2050808348689661,0.5957881234862192,0.4897103325865768,0.5673002731472578,0.1195402912080948,0.41259019842138217,0.7915105139028278,0.5796994342602306,0.47394321691947633,0.6977409985870332,1.0,0.7295596599243287,0.08464475654742404,-0.11589191039330761
7,0.6356292517006804,0.17317639447848926,0.33214285714285685,0.8107142857142853,0.6586623542747644,0.4441281343455258,0.13010303302922382,0.17552334943639292,0.6022544283413848,0.46268330871501884,0.8085705812574133,0.1348267268979517,0.5480427046263346,0.9359430604982206,0.8196684862272228,0.4493475274725275,0.07966124408727393,0.2860576923076923,0.5408653846153844,0.45631276659624664,0.7421594482826934,0.028507772713928944,0.6552262090483619,0.7951118044721788,0.742703509027271,0.4071012321012321,0.05116835640936916,0.3128205128205128,0.49650349650349657,0.41028530237874156,0.8488042210202561,0.01628561391530013,0.816099268215081,0.8860960865415207,0.8489595091314198,0.47089724867724847,0.07425967633154397,0.2674590476190476,0.5911111111111111,0.4766821728769713,0.372088631269413,0.026404474537324373,0.3022151898734177,0.4654146780106522,0.3730187606779404,0.6123218927191526,0.05272329097319946,0.4938531787846856,0.6998609062170706,0.6145740798395041,0.4443922305764408,0.03499344353759978,0.3245614035087719,0.587719298245614,0.44575969619545086,0.5360135674381488,0.03783709610559095,0.39664804469273746,0.6480446927374302,0.5373394351971905,0.5166666666666666,0.0302187632555439,0.42500000000000004,0.6083333333333334,0.51754437736264,0.5531160551652355,0.012055804528409866,0.5136612021857923,0.5846994535519126,0.5532466428013001,0.4785534816941854,0.011652360215773087,0.4422110552763819,0.5175879396984925,0.47869447891199735,0.49355921855921875,0.011480699185062527,0.4666666666666667,0.5384615384615384,0.4936919323994866,0.4895983645983645,0.062481571186835956,0.20202020202020204,0.6868686868686869,0.49354560840632206,0.4679811507936508,0.045605129311945776,0.225,0.6208333333333333,0.470184862995622,0.5546346664471914,0.17497664946914257,0.21400485466320962,0.7300590083234301,0.5814242840314305,0.6572438380618104,0.036326333093433215,0.6045353955660755,0.7447828776801819,0.6582409971808133,0.4722919799270268,0.7273306124628762,1.0,0.547470050037801,-0.13764441950528158,-0.2257159382348215
8,0.5743571428571426,0.11353131045762259,0.43928571428571384,0.8107142857142853,0.58542627936524,0.40006441223832534,0.0936995165652691,0.17552334943639292,0.5764895330112721,0.41084792192068265,0.7534519572953737,0.12433832443570893,0.4911032028469752,0.9288256227758007,0.7636020107359692,0.4426634615384613,0.036462982021744424,0.37259615384615374,0.5552884615384615,0.4441566964967424,0.7367966718668747,0.027840465143620357,0.641705668226729,0.8008320332813312,0.7373203691798554,0.3895011655011655,0.04904590360176382,0.27086247086247084,0.4708624708624709,0.3925646909545477,0.8435838370983133,0.0222302683816547,0.7957365574292077,0.8953229398663697,0.8438755229928786,0.4845460520634923,0.05450743274270584,0.36729904761904764,0.6196825396825397,0.4875900455850386,0.37032233520094054,0.0257470859708166,0.28438213322266026,0.44123089160960083,0.37121273245259584,0.6094078426413769,0.04368935002686725,0.4727783631893221,0.694589392342817,0.6109656642900354,0.4439649122807022,0.04239746888296362,0.2763157894736842,0.6228070175438596,0.44597667934839613,0.5373184357541902,0.04050718357339777,0.44134078212290506,0.6927374301675978,0.5388370532867005,0.5171666666666671,0.029837149098224578,0.43333333333333335,0.6333333333333333,0.5180232191278259,0.5529836065573769,0.011366765910444115,0.5191256830601092,0.5901639344262295,0.5530999508904313,0.47845226130653284,0.01382900457666362,0.4120603015075377,0.5477386934673367,0.4786512746785972,0.4932717948717949,0.01176328301891816,0.441025641025641,0.5435897435897437,0.4934114762995643,0.48492929292929265,0.04913556013319943,0.26262626262626265,0.6666666666666667,0.48740236478440335,0.4680166666666666,0.04635350136023615,0.2375,0.6791666666666667,0.47029740885718024,0.4966048439615001,0.11076532963254762,0.24445125411887414,0.6671177460200713,0.5087595241974722,0.642153625339449,0.054565006912257796,0.551098514925588,0.7575399085938588,0.6444584619321978,0.6168972081452126,0.8776039344444426,1.0,0.6789059808325578,0.0028681457648919743,-0.07358917188331016
9,0.4288809523809521,0.10531676238910083,0.2535714285714281,0.6821428571428567,0.44153884044220537,0.3880300590445517,0.10157938134768323,0.17874396135265702,0.5281803542673108,0.40101983529371277,0.6865243179122181,0.09754686557651443,0.4857651245551602,0.8256227758007119,0.6933740650822954,0.4256891025641026,0.04917904325244537,0.34134615384615374,0.49999999999999956,0.4285016528343332,0.7326573062922515,0.03507192641857963,0.6001040041601664,0.812792511700468,0.7334906735735028,0.3918477078477077,0.059018594430520224,0.2778554778554778,0.4871794871794872,0.3962380589209804,0.8261745678226745,0.02028186292112182,0.77728285077951,0.8838689150493159,0.8264218221470059,0.49045802328042354,0.06879079768006437,0.300632380952381,0.593015873015873,0.4952269162918787,0.36287634594544743,0.03298656964394851,0.2937028774987895,0.47879055129003245,0.36436259705374435,0.6093338953284155,0.0627954517750575,0.4230783280646294,0.6845802599227256,0.6125396120262837,0.4448538011695902,0.0680123065595019,0.09210526315789469,0.9035087719298245,0.44998860033666815,0.5407448789571698,0.039169280447682024,0.4357541899441341,0.670391061452514,0.542152218876139,0.518833333333333,0.02768790457324231,0.43333333333333335,0.5833333333333334,0.5195666819928284,0.5530054644808744,0.011911663188591716,0.5191256830601092,0.5846994535519126,0.5531328823596486,0.4789949748743718,0.009393394347907747,0.4472361809045226,0.5025125628140703,0.47908645730517835,0.49333333333333307,0.008485986489175281,0.4666666666666667,0.5128205128205128,0.4934058265410882,0.48787878787878763,0.06285513449886843,0.33333333333333337,0.8282828282828283,0.4918842761687552,0.4669166666666667,0.0478621784348971,0.3,0.6833333333333333,0.4693470888530306,0.42564570581311256,0.08586463046934882,0.22640986893602144,0.5849725505059927,0.4341633909920046,0.597972477223584,0.04329197977911215,0.5140361923601091,0.7059894750467026,0.5995271339925742,0.4281756685268884,0.7016945283240628,1.0,0.4874043169935755,-0.1461209106356373,-0.456864723858666
10,0.4918214285714286,0.07774527319954114,0.3642857142857139,0.6857142857142853,0.49789800508677223,0.42699677938808395,0.15006574560457714,0.16425120772946855,0.6586151368760065,0.4524747274397037,0.6294928825622779,0.1530467888621756,0.3896797153024912,0.8754448398576514,0.6477402968626266,0.5191586538461536,0.17151748253098137,0.22596153846153855,0.7692307692307689,0.5466231457256885,0.7024336973478938,0.04206466174532871,0.609984399375975,0.8039521580863234,0.7036857876628909,0.37282284382284375,0.08030768946939654,0.21585081585081584,0.4834498834498835,0.3813318125191316,0.8012249443207128,0.06455913471580337,0.6878778237352847,0.9217308304167992,0.8038087172129984,0.4851852444444442,0.06805952571704936,0.30745904761904763,0.5947606349206349,0.4899118900090515,0.37784557221415227,0.05172310915798135,0.2846523310507021,0.5549863387978141,0.38135177993907904,0.606599142957499,0.0500150528345313,0.4891127502634352,0.7040758693361433,0.6086472855597592,0.4433114035087718,0.027100960732002122,0.337719298245614,0.5394736842105262,0.4441348784357646,0.537039106145252,0.038686037263528074,0.4134078212290503,0.670391061452514,0.5384237438682009,0.5163750000000003,0.028013236432272274,0.4416666666666667,0.6166666666666667,0.5171305041605391,0.5528961748633883,0.013064773733796475,0.5081967213114753,0.5846994535519126,0.5530497401226383,0.47824120603015075,0.010911205333467957,0.4422110552763819,0.5175879396984925,0.4783650387256508,0.4929743589743589,0.009567233298770593,0.4564102564102564,0.5230769230769231,0.4930667225633949,0.4877777777777774,0.05280863996797159,0.2828282828282829,0.797979797979798,0.4906138697456666,0.4672291666666667,0.036522189233301416,0.25416666666666665,0.5958333333333333,0.4686473035651534,0.48259112646561597,0.1181180650018223,0.2545482892124067,0.6560125908142076,0.4967658535333601,0.5234914393016092,0.16369220971523435,0.24328707365114016,0.7799823270727191,0.5483652531350975,0.06291341601986027,0.5572340854863653,1.0,0.6372848266082356,0.43840000558091224,0.003237893406877623
11,0.6058608058608057,0.0996182197104236,0.33214285714285685,0.7571428571428569,0.6139545704263117,0.48144844956439165,0.17676502631351304,0.15458937198067624,0.6972624798711755,0.5127165385099115,0.6884113514006751,0.12901804440563433,0.44661921708185065,0.8647686832740215,0.7003359780721062,0.5740877712031555,0.11732411399752107,0.40384615384615374,0.7524038461538456,0.5858934436352703,0.7126845073802952,0.035933429549274684,0.6229849193967758,0.8070722828913157,0.7135851713862565,0.38390054390054396,0.07786666175749841,0.2368298368298368,0.4843822843822844,0.3916781219315286,0.8007962342038069,0.04423987380757957,0.6633789373210308,0.8727330575882913,0.8020110587757264,0.4713613284493286,0.07000262468865778,0.27714031746031753,0.580792380952381,0.47650471071256106,0.36966906059171023,0.03860216612649215,0.28411193539461854,0.48013937884761704,0.3716688040585519,0.6122729350733568,0.0602108388555348,0.45240604144713736,0.7365648050579557,0.6152112650347166,0.44349977507872224,0.022838575656575735,0.337719298245614,0.5087719298245613,0.4440844245842727,0.5367998854032379,0.043925771570445936,0.446927374301676,0.6927374301675978,0.5385849010523431,0.517991452991453,0.030542956734214227,0.43333333333333335,0.65,0.5188865325080558,0.5526131427770772,0.011975901167293976,0.5191256830601092,0.5846994535519126,0.5527422295068659,0.4787785079242367,0.012090516694103827,0.4422110552763819,0.5276381909547738,0.4789303609085743,0.49351742274819177,0.009027250339763652,0.46153846153846156,0.517948717948718,0.49359955419436374,0.4869204869204867,0.05074293073832325,0.31313131313131315,0.6868686868686869,0.4895438706279174,0.4663888888888887,0.029417389069849535,0.29166666666666663,0.5791666666666666,0.4673109677701677,0.5702785648274621,0.17124773024639106,0.24350588460857447,0.733998231341378,0.5953091952713292,0.5285431162199525,0.10713216259830248,0.32919388897295926,0.6937299518159652,0.5392367457957783,0.4054528954312271,0.8662857937279665,1.0,0.5259228024608213,-0.04843524774896341,-0.6288423508372731
12,0.6429591836734687,0.05970051834167188,0.5535714285714284,0.7749999999999997,0.6457136487651337,0.5156002497617401,0.15939146770821605,0.17069243156199676,0.6892109500805152,0.5395790591218689,0.717706442007408,0.12166282115660493,0.4857651245551602,0.921708185053381,0.727903814572278,0.5993524332810051,0.12665291463880965,0.3437499999999998,0.7451923076923075,0.6125347555502738,0.7136171161132164,0.03188707169371998,0.6323452938117524,0.781071242849714,0.714326272516064,0.396607202321488,0.06944762778635051,0.24009324009324007,0.510955710955711,0.40261713864951965,0.7965118468641036,0.052590312022890176,0.69869551384028,0.9026407890550429,0.7982390458848068,0.487493970845481,0.0663662798550932,0.31539555555555554,0.6165079365079366,0.49197243543764846,0.3717492708849466,0.04010628925816405,0.2723594106661133,0.5640368852459016,0.37389767246734185,0.6129380787509946,0.04590782699817012,0.4880561995082543,0.7165437302423604,0.6146478787120203,0.4447726459004659,0.017469968768091725,0.3947368421052631,0.5043859649122806,0.44511421077803587,0.5388667198723068,0.03424961287480776,0.44134078212290506,0.6927374301675978,0.5399496178960085,0.5176530612244903,0.025054399755379052,0.43333333333333335,0.6166666666666667,0.5182565509549393,0.5528270324523256,0.011227986052822573,0.5245901639344261,0.6120218579234972,0.5529405762999537,0.4786380884011895,0.011152450972757978,0.4221105527638191,0.5226130653266331,0.47876746878746457,0.4937100994243851,0.009161135413652472,0.4717948717948718,0.5230769230769231,0.4937947408781912,0.4874458874458873,0.05048351917258936,0.24242424242424243,0.696969696969697,0.4900425252009389,0.4679931972789119,0.03598484234857902,0.2,0.5708333333333333,0.46936899794919096,0.6176669311658364,0.12748297703429629,0.2983563389060484,0.7279115405442308,0.6306330255902646,0.5180418727724465,0.13743841634987272,0.34396197328474437,0.7650042622664228,0.5358914078206733,0.2823959654278696,0.8629880402921941,1.0,0.46619604293101474,0.2966841642179996,-0.40183031377005296
13,0.5114999999999995,0.0628490254498827,0.4142857142857139,0.7178571428571425,0.5153275657288282,0.45739130434782616,0.16041384411841045,0.1594202898550724,0.6650563607085347,0.48457274342551193,0.6717170818505345,0.07837691569809425,0.512455516014235,0.8540925266903916,0.676251480042426,0.5365384615384611,0.11816319676929152,0.3437499999999998,0.7019230769230766,0.5493325487129299,0.7165574622984917,0.02696144562052748,0.6209048361934477,0.781071242849714,0.7170619790003187,0.3884848484848484,0.05689849717868402,0.26899766899766897,0.475990675990676,0.39260887571294467,0.7997963728921412,0.048479336934958955,0.7203308940502704,0.8899140948138721,0.8012569706221159,0.48928046984126977,0.06697111513303232,0.3242844444444445,0.5936507936507937,0.4938198890070597,0.36608122362869183,0.04201278146932034,0.2500670090613544,0.4547407830116898,0.3684721301960778,0.6136696171408501,0.04771696369294895,0.47137337548296454,0.6794885844748858,0.6155127318608049,0.444078947368421,0.022701958297858663,0.36842105263157887,0.5570175438596491,0.4446559495968196,0.536983240223464,0.044119026209826634,0.4189944134078213,0.782122905027933,0.5387835894978844,0.5176250000000004,0.025873590775328355,0.43333333333333335,0.625,0.51826801571302,0.5529234972677598,0.011201231359578118,0.5245901639344261,0.5956284153005464,0.5530363768115628,0.47869346733668366,0.009614555303533466,0.4422110552763819,0.507537688442211,0.4787895290690187,0.493538461538461,0.00788514045452442,0.4666666666666667,0.5128205128205128,0.49360113206975004,0.487373737373737,0.053447123251847396,0.23232323232323232,0.696969696969697,0.4902810131859317,0.4685,0.02392889732735678,0.32916666666666666,0.5375,0.4691076413432924,0.5148926093955883,0.13199934093637683,0.23309404738692607,0.6696708624670118,0.5314612931228369,0.5285151676993661,0.1254869624812886,0.3485692113866517,0.7421248825947993,0.5431358258781185,0.05279740538336105,0.8973005346324588,1.0,0.11761956842408709,0.18421888398402753,-0.7405580213688251
14,0.3973954222573004,0.09324813985504428,0.20714285714285685,0.5678571428571426,0.408159671311271,0.43021414400227753,0.10120046015924765,0.19967793880837337,0.5587761674718196,0.4419247122622297,0.745458209630168,0.09037520377785632,0.5533807829181495,0.8932384341637012,0.7509014962816324,0.3985603484912878,0.11723356454877068,0.18990384615384626,0.584134615384615,0.4153987168977467,0.7401217595665157,0.02143944546849122,0.65730629225169,0.7961518460738428,0.7404313601239084,0.42811111540393326,0.0313910040168776,0.3547785547785548,0.5170163170163171,0.42925726572719053,0.8290667852616447,0.0398224894921674,0.7556474705695195,0.9109131403118039,0.8300199903289833,0.4857708392528282,0.0482564087729293,0.3615847619047619,0.6109511111111111,0.4881552585352834,0.3708603722240501,0.029271365494344594,0.30275558552950127,0.43906930898526664,0.37201056656736525,0.6108203692167968,0.027290517732875077,0.5038651211801897,0.672463645943098,0.6114280320905052,0.4452602500726963,0.031054977509039145,0.29824561403508765,0.6008771929824561,0.44633892705248834,0.538303651347264,0.036373248390004706,0.42458100558659223,0.6983240223463687,0.5395277374886714,0.5183931860036842,0.025572324418314408,0.4416666666666667,0.65,0.5190218035850566,0.5534824744135494,0.010559900700397033,0.5136612021857923,0.5956284153005464,0.5535829232761085,0.47906660373691695,0.012996065640575984,0.4321608040201005,0.5477386934673367,0.4792423624533468,0.49341266468338274,0.010874190020120399,0.4256410256410257,0.5435897435897437,0.4935321458898026,0.48593671521848425,0.052539666878149434,0.31313131313131315,0.6767676767676768,0.4887609664578246,0.46784069981583837,0.03424934515195542,0.2791666666666667,0.6833333333333333,0.4690892214358379,0.45129521716356674,0.11587222753682089,0.14477940599826855,0.5866537950605191,0.4658933963049519,0.6063771202093083,0.10052479893373635,0.4266132456575031,0.7735271258040737,0.61463040284356,-0.03615355776963143,0.6720591275972498,1.0,0.20782482192245355,0.44470355912269666,-0.05962672283264466
15,0.5937548790007804,0.1434320352487402,0.34642857142857086,0.9178571428571425,0.6107415047962841,0.5088566827697262,0.2492004393901992,0.07246376811594213,0.7600644122383253,0.5663008331579921,0.6193434844330358,0.1451520007646828,0.34875444839857656,0.8096085409252671,0.6360348444255866,0.6192728036990336,0.1489058143358391,0.4014423076923075,0.7740384615384612,0.6368285352661984,0.6874163491129807,0.05120581258475344,0.5553822152886115,0.7987519500780031,0.6893104846212987,0.38239392665622196,0.11682799373325156,0.1706293706293706,0.5011655011655012,0.39974906099374197,0.781339049914025,0.060076063064112346,0.7031498568246898,0.8997772828507794,0.7836326449514806,0.47145609159510793,0.09113637818244312,0.23063365079365078,0.6353955555555556,0.48013674992615124,0.36513873013659115,0.0304978282984478,0.24250146987618454,0.45555353807843946,0.3664032302903803,0.6163970971264926,0.0793289491900933,0.4134176325957148,0.7764327362135581,0.6214531962250742,0.4443965104016871,0.0325336491298768,0.3070175438596491,0.5570175438596491,0.44557930042464444,0.5379308239460269,0.03725030448419836,0.4022346368715084,0.6759776536312849,0.5392119936562211,0.5177595628415305,0.026445197404101735,0.45,0.625,0.5184307975065514,0.5525396398817516,0.010363297218648551,0.5245901639344261,0.5846994535519126,0.5526362860833228,0.47848532278880745,0.016479162574873602,0.41708542713567837,0.542713567839196,0.4787674623173097,0.49407313997477914,0.015400158746275955,0.4153846153846154,0.5435897435897437,0.4943117807122806,0.48661478169674877,0.06572016511855636,0.25252525252525254,0.7575757575757576,0.49100863944588297,0.4657103825136613,0.06626219496330252,0.09583333333333333,0.7083333333333333,0.47037521839887436,0.5660948021801528,0.21531244919927,0.17109863651037793,0.767922134230457,0.6054497877639752,0.472703762000337,0.14704442255517036,0.2970208550749723,0.7567593372512389,0.49492702034590386,0.4721580278975832,0.8758113626115331,1.0,0.6880130128915356,-0.44669215453521427,-0.8658156112438203
16,0.5989631336405521,0.08370266430498123,0.5035714285714281,0.9071428571428568,0.6047567156561351,0.5495818399044199,0.1936510460097199,0.08534621578099855,0.7342995169082125,0.5825530979751021,0.6719746789773194,0.1297646080408685,0.409252669039146,0.8843416370106764,0.6843326853829543,0.6372297057780921,0.12121949520741755,0.37980769230769207,0.7716346153846152,0.6486047709457581,0.700367369533491,0.04875028561025189,0.4940197607904316,0.8221528861154446,0.7020541935100831,0.4034438679599969,0.08676158913114948,0.21911421911421908,0.5067599067599068,0.4126255429138893,0.7758371686917458,0.05271589480001245,0.6449252306713331,0.8981864460706331,0.7776178184656436,0.48378555482408037,0.09342060265496703,0.22539682539682537,0.6576177777777779,0.49268210195033885,0.3740666943668,0.0508896219906028,0.19724441447049873,0.5707918309469461,0.3774966372199134,0.6109090497071054,0.06454472522590755,0.42500878117316476,0.7318215665612926,0.6142936515319972,0.4438515643948584,0.018153788224463296,0.3728070175438596,0.49999999999999994,0.4442209501282672,0.5398913575161552,0.0354754776687077,0.446927374301676,0.7262569832402235,0.5410502637033249,0.5181643625192021,0.023706172899800045,0.4416666666666667,0.6333333333333333,0.5187038648754837,0.5535745763138674,0.01224114113332109,0.4918032786885245,0.6065573770491803,0.5537092798074627,0.47875321306995805,0.014461727837961019,0.39195979899497485,0.5276381909547738,0.4789705803186889,0.49398558430816464,0.01018355884403681,0.4666666666666667,0.558974358974359,0.49409005704666753,0.4880603267700041,0.05918276643028227,0.2121212121212121,0.6565656565656566,0.49161910194385877,0.4674923195084488,0.044867846557737935,0.175,0.6916666666666667,0.4696306158957106,0.6184422858350254,0.16490146681785756,0.1971589900749624,0.7383974680120047,0.6399515947604054,0.46326213670589395,0.1318204746874642,0.28909329440755943,0.7842630003067395,0.4815686536532631,0.43446678431484564,0.8972383010890058,1.0,0.5063594925210008,-0.2004560964402555,-0.6397551582439437
17,0.4332918050941304,0.08897424785647425,0.3214285714285712,0.7035714285714283,0.4422980006255737,0.41294985582144317,0.12738951664326265,0.1256038647342994,0.5861513687600644,0.4320795908209262,0.6681149824822755,0.12068960261762372,0.40391459074733105,0.8434163701067617,0.6788867009374776,0.46366279069767413,0.06275033608466186,0.34855769230769207,0.5504807692307692,0.4678734082234795,0.7246147210229492,0.03691335917134102,0.5928237129485179,0.814352574102964,0.7255506933552638,0.39031098100865524,0.07386670704125634,0.2298368298368298,0.48811188811188816,0.39721254246639726,0.814090374327594,0.027796593714705133,0.7496022908049633,0.8825962456251988,0.8145629462632884,0.48972060538944245,0.059783402619664215,0.33047365079365076,0.6107936507936508,0.49334214663308834,0.36768064664364175,0.027619135119995045,0.278844158539116,0.4413670713149339,0.3687125138742633,0.6107258286296193,0.05386764495143693,0.436774148226203,0.7170691956445381,0.6130876886212185,0.443152454780362,0.02612683374016247,0.3421052631578947,0.5394736842105262,0.4439189834174325,0.5381967000129922,0.03864485636759191,0.4078212290502794,0.6592178770949721,0.5395769864994706,0.5177971576227394,0.02614773503056893,0.45,0.6,0.5184543861071382,0.5531833778116664,0.010790120353431498,0.5027322404371585,0.5956284153005464,0.5532881933658963,0.478730863620428,0.011930168681231226,0.4321608040201005,0.5276381909547738,0.47887891689342943,0.4933015305108326,0.009404454623969646,0.4666666666666667,0.517948717948718,0.49339081970158993,0.4882937906193719,0.05232345120906705,0.33333333333333337,0.6565656565656566,0.49107836247870695,0.4673611111111112,0.03151003284068399,0.22916666666666666,0.5875,0.4684180205416215,0.44593643992240284,0.1094981334500381,0.16727971133341923,0.628457282163385,0.4591325270843739,0.565902884471837,0.06463003367100317,0.4540097515029074,0.7134816650720002,0.5695673145673713,0.6415204559454718,0.8657769871907355,1.0,0.7356998452269515,-0.4116185759646969,-0.6257814030601524
18,0.4120930232558142,0.10743478202885225,0.28571428571428537,0.7749999999999997,0.42580418903985845,0.2928509905254088,0.10314724398259967,0.05475040257648933,0.4653784219001609,0.31040549483820495,0.6676322105437388,0.18455548736934937,0.3594306049822064,0.8612099644128115,0.6925569106458621,0.29657871198568864,0.1103665309130997,0.11298076923076916,0.4807692307692306,0.31635905044643037,0.7259587127671153,0.04819108727476359,0.5517420696827873,0.7888715548621945,0.7275490579772727,0.38097468423049835,0.09208456127237509,0.19067599067599067,0.4862470862470863,0.3918951857390158,0.8637296613367469,0.04053449962011112,0.7839643652561247,0.9306395163856188,0.8646758534037534,0.4864357327427093,0.05851702556724055,0.3114260317460318,0.5676190476190477,0.4899265635397706,0.3770235831680478,0.034792273585053046,0.2784377810057411,0.4762225911323234,0.3786180850445862,0.6065389826908777,0.06790706116028318,0.4058644186863365,0.6988043554618897,0.6103109520985283,0.44577723378212986,0.03339134662573105,0.3114035087719298,0.5263157894736842,0.44702028838185826,0.5389632324282191,0.04866325178836518,0.4301675977653632,0.7541899441340782,0.54114551047692,0.5183720930232566,0.029802239256568296,0.45,0.65,0.5192241031102524,0.55313254543144,0.01194923373121762,0.5245901639344261,0.6010928961748634,0.5532609988872619,0.47799462428421197,0.011724008448843,0.4221105527638191,0.507537688442211,0.4781377143724861,0.49319022063208096,0.010625011744217415,0.4564102564102564,0.5487179487179488,0.4933041247829283,0.48715057552266827,0.06354704073727001,0.31313131313131315,0.7171717171717172,0.4912587171442585,0.46881782945736417,0.06510017855277493,0.14583333333333331,1.0,0.4732953398060986,0.31810015402467506,0.09365908153388418,0.09912858845564676,0.44338646368561485,0.3315402410488665,0.6913349715467102,0.09825717771455747,0.5214854209208974,0.8375577727021093,0.6982503930041627,0.7698537945009096,0.8421315688897091,1.0,0.8760892487720766,0.027142158193589557,0.19382949809946634
19,0.5649341580207495,0.09854874992185106,0.27142857142857113,0.8178571428571426,0.5734416543294331,0.4457353880477516,0.13402567747027092,0.0660225442834137,0.6183574879227053,0.46539525430625256,0.78033360504185,0.18595892919787882,0.29893238434163705,0.916370106761566,0.8021250926798974,0.44195853029651905,0.06159563350046655,0.33173076923076916,0.627403846153846,0.44621829494226495,0.7328952375972135,0.048278357851697824,0.5559022360894436,0.826833073322933,0.7344792158498854,0.4142907371957655,0.09037090036694917,0.18181818181818177,0.5263403263403263,0.42400578060981203,0.8433239068107359,0.02966676467624326,0.7540566337893732,0.9023226216990137,0.8438441030769313,0.4786766267624367,0.0661487468679461,0.1980952380952381,0.5804749206349207,0.4832129418963055,0.36880384755910706,0.043222956586582886,0.23574652417514005,0.49162386733070484,0.3713209978546329,0.6114134608026085,0.06347573343971191,0.3480857042500878,0.7182999648753073,0.6146904376391908,0.442602665882584,0.036000579546562245,0.18421052631578944,0.5789473684210525,0.44406029021493104,0.5366873693080743,0.041468598509429994,0.4022346368715084,0.7430167597765364,0.5382826149528208,0.5169692737430172,0.029257488091608493,0.4083333333333333,0.6416666666666667,0.5177942057812721,0.5528436670024724,0.01013727303490755,0.5081967213114753,0.5846994535519126,0.552936341180605,0.4791134443165549,0.014966458120254609,0.38190954773869346,0.542713567839196,0.479346494416667,0.4934250107434466,0.008431332068695452,0.4666666666666667,0.517948717948718,0.49349683891548524,0.4873878449297449,0.037792153241255906,0.36363636363636365,0.6161616161616161,0.4888467742713869,0.46727188081936677,0.050790536491309865,0.19166666666666665,0.6875,0.4700164714086162,0.5254245389259823,0.13757101139738498,0.12642930161273847,0.6557438913297513,0.5430873446935992,0.6381733161377607,0.066330579404382,0.48820010915778383,0.7481238347198751,0.6416016189207678,0.7613880095098212,0.8922523092867568,1.0,0.823807844380411,-0.09735428303846985,-0.17090330533566164
20,0.5497670807453406,0.13816131190149297,0.4285714285714284,0.9785714285714282,0.5667703671402752,0.48331933067282784,0.2224779082651586,0.02254428341384851,0.6908212560386473,0.5318129302558156,0.6658865851771623,0.18868759645764388,0.29003558718861217,0.8487544483985766,0.6919642033815224,0.5495793269230769,0.07021929493993027,0.36778846153846145,0.6394230769230769,0.5540229132554851,0.7030511655248822,0.06012112636360825,0.5158606344253771,0.8237129485179406,0.705603179477347,0.3960626330191549,0.12225194554132322,0.16736596736596737,0.5076923076923078,0.4144030908568121,0.8014531948152548,0.04287221169157754,0.739739102768056,0.9064587973273941,0.8025928362128945,0.4835641269841273,0.10062486576433122,0.23666539682539683,0.6885688888888889,0.4938669854990874,0.36554497915106554,0.03378808334989616,0.2960006398284568,0.497568219547624,0.3670947586431477,0.6098438936485391,0.09340999882475771,0.3443990165086055,0.7486814190375835,0.616917807894337,0.4442219679633865,0.031556610772794765,0.3157894736842105,0.5701754385964912,0.44533533931323344,0.5374058780665532,0.04327150065266783,0.4189944134078213,0.6759776536312849,0.5391357197761224,0.517391304347826,0.028233569511279935,0.43333333333333335,0.6166666666666667,0.5181568913077021,0.5530411023996195,0.01197038877829742,0.5191256830601092,0.6010928961748634,0.553169930852864,0.47858859514966134,0.013906395015787177,0.4120603015075377,0.5477386934673367,0.47878949467264614,0.4932552954292082,0.008320242928116062,0.47692307692307695,0.517948717948718,0.4933250821524014,0.4863306982872198,0.03753575455263361,0.33333333333333337,0.595959595959596,0.48776923203756184,0.4661231884057974,0.05186714655991681,0.18333333333333335,0.7791666666666667,0.46898444217780916,0.5292898903487417,0.1865202304315053,0.1028484923677242,0.6797748182102862,0.5610245176508659,0.5329064749811736,0.10167132835393941,0.41613083852382454,0.8244668540663944,0.5424667643437583,0.8056422059923926,0.9504551266826605,1.0,0.8040409432344029,-0.7836756697775167,-0.8833693578584849
21,0.3610959651035987,0.1958046027848502,0.10357142857142843,0.8357142857142854,0.4105890947601263,0.4130742092906048,0.14063096399175376,0.07407407407407396,0.6151368760064413,0.43627042693931845,0.6779631088533313,0.1429151792074629,0.33096085409252674,0.8558718861209966,0.6928064436470198,0.4064426746917207,0.10016648044254693,0.26201923076923084,0.5937499999999998,0.41855785321241185,0.7251451890136673,0.04701791539001978,0.5652626105044202,0.795631825273011,0.726662089138202,0.4127689104788341,0.09378648455785031,0.18974358974358974,0.49790209790209794,0.4232499332407681,0.8192797273961524,0.030508649248658936,0.7499204581609926,0.905186127903277,0.8198454103150974,0.4925286901732702,0.07935310935830193,0.2395225396825397,0.6558730158730159,0.4988560840344915,0.3672561302483226,0.03370816151159403,0.2916774745797883,0.44744760323718613,0.36879393780672337,0.609812337615328,0.07142641492122681,0.3663505444327362,0.7572883737267299,0.6139652657878714,0.44408731753046743,0.031119473262831744,0.32017543859649117,0.6052631578947367,0.4451721812308711,0.5390634995095744,0.03526069442232001,0.4301675977653632,0.6871508379888269,0.5402110953984163,0.5188613231552165,0.026163985372151803,0.4416666666666667,0.6583333333333333,0.5195180593539661,0.5536853960705793,0.010767730497233086,0.5081967213114753,0.6120218579234972,0.553789688697313,0.47899804365338144,0.013746287733428557,0.40703517587939697,0.5628140703517588,0.4791944960318469,0.49393227637502424,0.0108238087944081,0.4512820512820513,0.5333333333333333,0.494050403628988,0.48793276274192277,0.03828559761050157,0.37373737373737376,0.6666666666666667,0.4894267803610144,0.46512404580152666,0.043881952827950675,0.12916666666666665,0.6791666666666667,0.46718160714013834,0.4086466348814799,0.12886399819332953,0.12199994282753268,0.6522046138076789,0.4284094079475826,0.5796329535672978,0.06460276468540581,0.4636106880299516,0.753161664312169,0.5832083235098467,0.5535545351252844,0.58768073197032,1.0,0.858425584868856,-0.5959815405243611,-0.6121067121362739
22,0.3590957731407166,0.1039038160602726,0.19642857142857095,0.7178571428571425,0.3737717790460932,0.31641607411026085,0.11076826896165125,0.05797101449275344,0.5072463768115941,0.3351757565379984,0.6900782385008061,0.17330392755870103,0.28647686832740216,0.8576512455516015,0.7114279575101304,0.2762712474791125,0.1390329772195701,0.06971153846153855,0.5264423076923077,0.3091659316652109,0.7308746282435563,0.04639688148015134,0.5559022360894436,0.8101924076963078,0.7323403105008592,0.405966318325869,0.08455899466126873,0.2027972027972028,0.48951048951048953,0.4146469526351263,0.8598228510893353,0.049930020531705865,0.7556474705695195,0.9347756920139993,0.8612659316964814,0.48590865227988833,0.06862470180931853,0.267776507936508,0.6449193650793651,0.49071267565146864,0.3731947222928178,0.036916195749540894,0.27938455419519953,0.47770975997786536,0.37500933603758463,0.6097620755930747,0.06704555415698127,0.38514365999297506,0.7620288022479803,0.6134232303716173,0.4451015178395431,0.035830776963081346,0.32017543859649117,0.631578947368421,0.4465359978256896,0.5389492185048024,0.03994406699710807,0.4022346368715084,0.7374301675977655,0.540421884135976,0.5180711610486892,0.026684164305263342,0.43333333333333335,0.625,0.5187553428170232,0.5529972779926733,0.009986924658372434,0.5245901639344261,0.5792349726775956,0.5530871130105891,0.47838443152090077,0.013965516454846656,0.4120603015075377,0.5276381909547738,0.47858747319672673,0.4938442331700753,0.008691200432133204,0.4666666666666667,0.517948717948718,0.4939204193899164,0.48689138576778995,0.04283292652849046,0.33333333333333337,0.6161616161616161,0.48876477956745534,0.46785268414481923,0.06626719240734366,0.1958333333333333,0.7291666666666666,0.4725050559325418,0.32042632224407097,0.09381027380398126,0.05764883294956835,0.44394114012820785,0.3338269540948487,0.6823609287895945,0.12181343201471087,0.4938046193098968,0.856685771188409,0.6931084867505731,0.6380234758912309,0.6731052292580613,1.0,0.8728194778268862,0.07309337756398533,0.1731001981745794
23,0.6047149122807012,0.20975861233064333,0.20714285714285685,0.8749999999999998,0.6399107937320925,0.3803217786818091,0.13068889052789365,0.056360708534621606,0.5410628019323671,0.4020563778647509,0.7399169632265719,0.1993655656351019,0.3185053380782919,0.9128113879003561,0.7661914995040788,0.4215587044534414,0.046063794048717535,0.36298076923076916,0.5745192307692306,0.42405696310939645,0.7252853272025621,0.05594885222198543,0.5049401976079043,0.8122724908996359,0.7274306500609319,0.3803275671696723,0.09280290446897095,0.18181818181818177,0.503030303030303,0.3914379437850039,0.854434248204029,0.04082359698049693,0.7798281896277441,0.9185491568565065,0.8554046650995663,0.4792330047340576,0.07691466064736081,0.24,0.6072990476190476,0.48533925358713487,0.374170777086678,0.03816156028066049,0.2583091236079408,0.4917600470360379,0.37610329406621973,0.6125037373905434,0.08780563381228672,0.34229153494906916,0.7451689497716895,0.6187381050215379,0.4447329947676207,0.03373910485805958,0.3421052631578947,0.6008771929824561,0.4460053488114873,0.5389836322650202,0.03632068649037379,0.4189944134078213,0.6480446927374302,0.5402006684425059,0.5177997076023392,0.02737040106647465,0.4,0.5916666666666667,0.518519421382533,0.5532067874604547,0.01146474717477191,0.5136612021857923,0.5956284153005464,0.5533250524122267,0.47915013664815337,0.013629599849002182,0.4472361809045226,0.5527638190954773,0.4793430970389211,0.4938146648672964,0.01095186190044769,0.46153846153846156,0.558974358974359,0.49393556305460845,0.4875509480772636,0.04446446307777207,0.3434343434343434,0.6161616161616161,0.4895654644755344,0.46692251461988293,0.056624285264845135,0.25416666666666665,0.7208333333333333,0.4703284826362817,0.477164719344507,0.14487502556571025,0.12525442347620785,0.6149892309916422,0.4985808724747814,0.6658197838740479,0.09755797894462814,0.5142261152570728,0.7975826817090044,0.6728980607587587,0.7737469484800733,0.7630607547797824,1.0,0.843604829122402,-0.13408450001282268,-0.2786609619875861
24,0.5899350649350649,0.058779029977642616,0.514285714285714,0.7464285714285712,0.5928405176827137,0.37824967492486683,0.14059894392989813,0.09500805152979064,0.5555555555555556,0.40340447202273555,0.6684682284431082,0.21580910455619212,0.30604982206405695,0.9448398576512456,0.7022636866058487,0.4756787330316741,0.07959462510534104,0.3389423076923075,0.6081730769230766,0.4822568638924843,0.712720487429123,0.054575045234796705,0.577223088923557,0.8367134685387416,0.7147957759393138,0.3569674532241376,0.10357156617364542,0.18368298368298364,0.5776223776223777,0.3716119857780852,0.8349289908309954,0.033708886489646706,0.7747375119312758,0.8927776010181355,0.8356055482980708,0.48557376114082,0.07782975940313262,0.2625371428571429,0.5957130158730158,0.491738707101387,0.3762660169804686,0.03202049449470448,0.2742486338797814,0.46298289755827626,0.3776187821729711,0.602189241325422,0.07572414632422356,0.34474745345978225,0.6826469968387776,0.6069063888446612,0.4455624355005157,0.03426649034913084,0.32017543859649117,0.5921052631578947,0.44687111921275957,0.5375377169659129,0.05146348355237447,0.39664804469273746,0.9217877094972067,0.5399825221721516,0.5168003565062387,0.033023605110524754,0.4416666666666667,0.7,0.5178487569897842,0.5532275503345893,0.011488770331678702,0.5300546448087431,0.5846994535519126,0.5533461922288874,0.47867680649235467,0.014865340139484314,0.42713567839195976,0.5326633165829145,0.4789063391821441,0.4929658576717401,0.011273775607897916,0.4461538461538462,0.5282051282051282,0.4930940632150766,0.4857127423972341,0.043983354076757346,0.3232323232323232,0.6161616161616161,0.48768951029687047,0.4666221033868091,0.07187717752248327,0.1375,0.8041666666666667,0.47209627047012365,0.4736278301680612,0.1436997393786154,0.15593740655734267,0.6171138409211189,0.4948358423336001,0.6112800800826879,0.0822531854116956,0.4755328978128291,0.7319311358339884,0.61675987483725,0.824818210592281,0.8872289502628027,1.0,0.8803368412162876,0.020105200801663916,0.0711648700047551
25,0.46498829039812617,0.12897604385715883,0.24285714285714244,0.7571428571428569,0.4824500279213218,0.35440810256681027,0.16545309132779681,0.06119162640901776,0.6264090177133654,0.3909350840374643,0.6692141648678607,0.18014024286507488,0.3594306049822064,0.9839857651245552,0.6929074832788783,0.39186633039092067,0.062009111740714,0.2932692307692306,0.5096153846153846,0.3967156906323571,0.7243435092594962,0.05070907697337174,0.5860634425377016,0.8424336973478939,0.7261066577786105,0.38051129198670197,0.09772107915728682,0.21958041958041952,0.5417249417249418,0.39279265532403873,0.8425019429072153,0.02628725387717437,0.7973273942093541,0.912185809735921,0.842909703025663,0.4964303998612194,0.07912956146150463,0.31825269841269843,0.6647619047619048,0.5026633203495037,0.36164108864766104,0.029845765967719044,0.2911370789237048,0.442447862627101,0.3628638575970658,0.6150323396692138,0.07675893948722462,0.39480154548647695,0.7395489989462591,0.6197777966862086,0.4431981593327579,0.02848105862042912,0.3421052631578947,0.5263157894736842,0.4441073592154362,0.5364654882925785,0.050857285231633506,0.4301675977653632,0.893854748603352,0.538857634176237,0.5174408014571946,0.036676555261167094,0.42500000000000004,0.8,0.5187319173372308,0.5530472692525906,0.018473802359408226,0.4808743169398907,0.6010928961748634,0.5533540444198657,0.47681028091276045,0.05586137937316182,0.2211055276381909,0.7537688442211055,0.4800536280577474,0.4934846574190835,0.03779235768440252,0.26153846153846155,0.6102564102564103,0.4949217763398148,0.485566042943092,0.07705106752395148,0.18181818181818182,0.7474747474747475,0.49160838801812784,0.46983151183970834,0.042741874353867046,0.36666666666666664,0.725,0.4717610989225244,0.3926729544397729,0.1625184070890768,0.09086791172852027,0.6741933797700084,0.4248057822712709,0.6402509572891811,0.06140013288888148,0.5580950635148154,0.7954094937505232,0.6431723436723588,0.6570170658892246,0.8896845055504855,1.0,0.7757439300961039,-0.50719626208171,-0.5275144129383111
26,0.42888967468175354,0.15418494416539272,0.23571428571428532,0.8892857142857142,0.4556332537819306,0.31801948310773104,0.13232716628695737,0.04347826086956519,0.5169082125603864,0.34432569615750414,0.6128748106127339,0.1939532910535912,0.2580071174377224,0.8291814946619218,0.6426874710695737,0.3781178598629092,0.10286062920440565,0.20192307692307687,0.5288461538461535,0.3917920969342112,0.713175061655932,0.05892055765130849,0.5085803432137286,0.7951118044721788,0.7155928412053107,0.3613584435366613,0.10243174981803399,0.1678321678321678,0.49510489510489514,0.3755266251388144,0.8402642364140961,0.04563714065453748,0.7753738466433343,0.9172764874323893,0.8414965388918825,0.4861860631777465,0.06362977644288431,0.3255542857142857,0.6117434920634921,0.49031173060542593,0.3751444729059956,0.04180273881614834,0.2510116206681884,0.49162386733070484,0.3774548896066268,0.6123790823760984,0.08362297683697287,0.36511977520196703,0.7202332279592554,0.6180342425415629,0.4423310752127842,0.03625684961965258,0.3596491228070175,0.5526315789473684,0.44380720084818787,0.5379169201836383,0.03736052768198864,0.446927374301676,0.7150837988826816,0.539206372461269,0.5172029702970301,0.029366840729248094,0.4416666666666667,0.675,0.5180319048624759,0.5536709408645781,0.010654215560978711,0.5300546448087431,0.5846994535519126,0.5537729328208109,0.4783073784765412,0.01331988575867942,0.4221105527638191,0.5326633165829145,0.4784918905771323,0.4934755013962936,0.01187356099623254,0.4512820512820513,0.5384615384615384,0.49361761921661634,0.48609860986098596,0.04563096207291911,0.3232323232323232,0.5858585858585859,0.48822508678214743,0.46804867986798687,0.05425571296252812,0.3208333333333333,0.6875,0.4711673550132087,0.34354613357125413,0.10760802979233705,0.0757502691233054,0.4642400744577253,0.3599251446747663,0.628827309545103,0.1121004940083186,0.4859674732273564,0.7779679790410234,0.6386924889865586,0.7232831179540995,0.8309730244957573,1.0,0.8458752696025769,-0.055473847920354424,-0.08883241948837535
27,0.4111232279171208,0.22999839652936307,0.18928571428571384,0.8642857142857139,0.47065673242360584,0.34208553060195934,0.16046737863866656,0.048309178743961345,0.4943639291465378,0.37759201084143873,0.6120453125424467,0.18742595315537544,0.300711743772242,0.8772241992882563,0.6398904563478621,0.39322152084556644,0.05619034966714983,0.3197115384615383,0.5384615384615383,0.397185621469649,0.7103642924342929,0.06239856044935781,0.5475819032761311,0.8252730109204369,0.7130787378154327,0.36952970693428716,0.11919544236157514,0.17109557109557105,0.5058275058275059,0.388138252662625,0.8335037512174152,0.032592865906515105,0.7992363983455297,0.8988227807826916,0.8341358936528671,0.47926682660850595,0.09167022354885912,0.25730031746031745,0.6080939682539682,0.48788930368798705,0.38334271889208693,0.03238087771606027,0.3339645154596389,0.4844625440962855,0.38469748815178917,0.6135748625176632,0.10601016252695146,0.35967685282753775,0.7406055497014401,0.622596562015225,0.444589527253247,0.036905535120422654,0.33333333333333326,0.5438596491228069,0.44610701538737635,0.5404068403769885,0.03908664519333804,0.446927374301676,0.6815642458100559,0.5418077672238657,0.5177480916030529,0.02887485794845892,0.43333333333333335,0.625,0.5185465063228927,0.5529554081675211,0.010124093175296014,0.5245901639344261,0.5792349726775956,0.5530473743382931,0.47788561126241896,0.01371032799951544,0.40703517587939697,0.5376884422110553,0.478080741754358,0.49312977099236616,0.009213588962619037,0.4717948717948718,0.5487179487179488,0.49321517945375215,0.4873159071632353,0.0395617647856678,0.3434343434343434,0.5858585858585859,0.48890692266049235,0.46847964376590323,0.05636348769220536,0.275,0.6666666666666666,0.471832352281911,0.3513288875752137,0.1439059029136337,0.07573559095971083,0.5582582183610664,0.3794506725046486,0.6104208678188496,0.07048449815615224,0.5474378680153724,0.7824726593456663,0.6144459098998899,0.7477145043799099,0.7664881790182461,1.0,0.888801833125838,-0.6776785479584857,-0.7713903857931177
28,0.5239448051948052,0.12508775119838356,0.4107142857142856,0.9499999999999997,0.5386037336585647,0.4622456448543404,0.19503368379087818,0.027375201288244666,0.6231884057971014,0.5015339204614403,0.7733500485279845,0.2224624566945095,0.33807829181494664,0.9946619217081851,0.8045712458950812,0.4225196678321677,0.06387367563435176,0.3221153846153848,0.5168269230769227,0.42729869106692414,0.7250224554436724,0.05218118508384854,0.5278211128445138,0.8065522620904837,0.7268893039967551,0.43067175248993433,0.12354402879619286,0.19627039627039627,0.5501165501165501,0.44796418115036063,0.8425505452231513,0.03341711057047588,0.791282214444798,0.9153674832962138,0.843209967096401,0.48314946031746014,0.08100168529176649,0.2553955555555556,0.6355555555555555,0.489862072482537,0.3735258104755795,0.027995979798005357,0.30302578335754304,0.49972980217195817,0.37456874317430167,0.6064422134942685,0.08954974239493353,0.3154197400772743,0.7355110642781876,0.6129884696795574,0.44431818181818195,0.02609892796547481,0.3771929824561403,0.5526315789473684,0.44508055965232834,0.536719146775013,0.030573017824808923,0.46368715083798884,0.6424581005586593,0.5375852520806691,0.5183333333333338,0.01964615962539201,0.4666666666666667,0.5833333333333334,0.5187038284186473,0.5531296572280179,0.009060585197795193,0.5245901639344261,0.5792349726775956,0.5532035238082256,0.47878026496116954,0.011076774258955056,0.4472361809045226,0.5175879396984925,0.4789077983704728,0.49312354312354306,0.008596730339722742,0.46153846153846156,0.517948717948718,0.4931981312099762,0.4860881542699722,0.0387782683510334,0.38383838383838387,0.6161616161616161,0.487625483923883,0.4678977272727275,0.04509998216811222,0.21666666666666667,0.65,0.47005642861879754,0.5089972801578394,0.1760247872769267,0.1027712783849386,0.6599454936378151,0.5384441635690086,0.6395270878242793,0.08124100523671755,0.5296046710452225,0.8429153792413924,0.6446433095395432,0.8403670563209047,0.9470530031613439,1.0,0.8399558647595654,-0.5209339453856174,-0.34732176280333266
29,0.4548319327731088,0.17852679567517832,0.1464285714285709,0.8964285714285711,0.4884223813146028,0.3461778914464335,0.19772931312777114,0.0,0.6231884057971014,0.3983792566659936,0.6706301025748376,0.20640742275153534,0.3113879003558719,0.9572953736654806,0.7014970753606917,0.35705599547511285,0.07760508926206602,0.23798076923076938,0.46394230769230727,0.36534382028453816,0.7207763604661835,0.06462964482528956,0.5179407176287051,0.8200728029121165,0.723651146797878,0.38994103935280416,0.11783993004459285,0.17995337995337995,0.5403263403263404,0.40725738724564386,0.850998484026127,0.032380659675483384,0.7979637289214127,0.9592745784282533,0.8516106852587272,0.5027710476190477,0.08175099380323181,0.3217447619047619,0.661744761904762,0.5093354869078012,0.3632718248639983,0.03360856408816186,0.2830311440824514,0.4714930483502801,0.36481407592518394,0.6107533626727825,0.09990521774622207,0.3270108886547243,0.7680028099754127,0.618823084956685,0.44643962848297164,0.021487749287285182,0.3508771929824561,0.49999999999999994,0.4469534083432269,0.5394676306276704,0.03676152638103611,0.446927374301676,0.7206703910614526,0.5407113692603065,0.518039215686275,0.02460560231716381,0.4416666666666667,0.6166666666666667,0.5186198060891754,0.5526840244294436,0.01684849174152112,0.47540983606557374,0.6174863387978141,0.5529392667374184,0.4769731007981084,0.0549861780964442,0.29648241206030146,0.6934673366834171,0.4801135631196332,0.4934539969834085,0.028798210992266194,0.4358974358974359,0.6564102564102564,0.49428868654114727,0.48775995246583465,0.0507903986796558,0.2828282828282829,0.6868686868686869,0.4903817506085198,0.4692156862745098,0.03931005331469065,0.09999999999999998,0.575,0.47084981751466637,0.36568144513136486,0.18905252377348503,0.019560268729975183,0.6504596906879601,0.411404345777597,0.6652977830189247,0.08227377796730558,0.5726388384561729,0.8812950317099069,0.6703359584071329,0.6681957246504351,0.8844984607335148,1.0,0.7995820717551089,-0.6603815842191492,-0.754654288876041
30,0.29148706896551696,0.15500685703083636,0.1428571428571428,0.7928571428571425,0.3299822296784917,0.3442861902382139,0.13662966174722033,0.02898550724637694,0.49919484702093386,0.37029742260366316,0.6519511596514913,0.1681077990699357,0.3131672597864769,0.813167259786477,0.6731855133124661,0.309401939655172,0.07923015692323093,0.17307692307692313,0.4326923076923075,0.31934295074929114,0.7275920347158716,0.04989949297195745,0.5361414456578263,0.8049921996879876,0.7292937650886816,0.406285668354634,0.09914442258076542,0.18368298368298364,0.531934731934732,0.4181570181193691,0.8390196605483445,0.034176913087659085,0.7874642061724466,0.930957683741648,0.8397124611600675,0.48662212370005475,0.05506083341640341,0.3393625396825397,0.6112685714285715,0.4897139154632788,0.36971572244265377,0.036660437674913324,0.26992546863111294,0.4902728781904959,0.3715210762008256,0.605614052299456,0.07231433894924144,0.38478960309097293,0.7349855988760098,0.6098976992904739,0.44451376285541455,0.03216898931691209,0.3640350877192982,0.5570175438596491,0.4456712563174932,0.5366258909651325,0.04111582980708349,0.446927374301676,0.782122905027933,0.5381919468252162,0.5181034482758627,0.024795359221994964,0.45833333333333337,0.65,0.5186938816989044,0.5530195967589973,0.010830813564639833,0.5300546448087431,0.5901639344262295,0.5531251895280073,0.4784049558135508,0.015278774811828107,0.4422110552763819,0.5628140703517588,0.47864782094529834,0.49316976127320966,0.011404515838994104,0.4666666666666667,0.5487179487179488,0.4933010397308089,0.48955067920585144,0.042956480848196546,0.35353535353535354,0.6060606060606061,0.49142361873858026,0.4700969827586209,0.049263877098909274,0.3,0.6458333333333333,0.47266017590038606,0.3108957835438942,0.10937335932240197,0.03892543980525254,0.4230665026544509,0.32949530697427876,0.6310860841363705,0.08328570977643888,0.5169371450828855,0.8293744074465619,0.6365345680290284,0.673468558510578,0.8682006705466797,1.0,0.7732837313041259,-0.3526028353899289,-0.3868664443491113
31,0.4276151444184225,0.2063679613299705,0.1571428571428568,0.8535714285714284,0.47456266955330145,0.3621868482880596,0.15440482919494525,0.04508856682769724,0.5008051529790659,0.3935605245393883,0.6692141648678608,0.21393418150138435,0.28291814946619226,0.9395017793594308,0.7023996974805895,0.3723728457335012,0.07065328486717262,0.28365384615384626,0.5745192307692306,0.37898040164762314,0.7196519554771262,0.05752874384943725,0.5481019240769631,0.8304732189287571,0.7219351829516728,0.38879845109353306,0.11268819230050166,0.1832167832167832,0.51002331002331,0.40471406306565577,0.8426114759314229,0.03657261421645717,0.7893732103086223,0.9188673242125357,0.8434004662271477,0.4793273172001042,0.07988477774172814,0.2552380952380952,0.6095238095238096,0.4859026473685072,0.3796586594086629,0.03513849808683385,0.3010003804385419,0.4789245694127412,0.38127242837698344,0.6117214976554752,0.08669291743073279,0.38619459079733054,0.7499121882683526,0.6178007635440573,0.44394113699549403,0.03454316568533391,0.3421052631578947,0.5614035087719298,0.4452756932825864,0.5374729065543244,0.03476049582132979,0.35195530726256985,0.6815642458100559,0.5385896533176184,0.5179417122040075,0.022794302411986104,0.4166666666666667,0.6166666666666667,0.5184403130805701,0.5529875481501383,0.009420608291813978,0.5245901639344261,0.5846994535519126,0.5530673478959892,0.4789246780349837,0.014411271914975746,0.4120603015075377,0.5276381909547738,0.4791402687102507,0.4938209331651952,0.009450329947795467,0.46153846153846156,0.517948717948718,0.4939108570808966,0.4872219462383395,0.04229465123665917,0.33333333333333337,0.6262626262626263,0.48904425909223503,0.46780510018214944,0.0793005054788771,0.10833333333333334,0.7666666666666666,0.4744426394773343,0.38054297193259484,0.1564471365491701,0.04077801621731081,0.545529655304849,0.4112844672382895,0.6360006670768525,0.08616681794178543,0.5325900419515581,0.7916882574375574,0.6417795546705795,0.7543725778350714,0.7734059286939733,1.0,0.863115598742824,-0.3451170876689137,-0.3716324516857407
32,0.5492630385487522,0.11279691134357918,0.3535714285714284,0.8607142857142853,0.5606654176123443,0.39300837529501004,0.16852462962565115,0.05958132045088549,0.5942028985507246,0.4274410677251149,0.6616486847803569,0.2081115293882559,0.2953736654804271,0.9306049822064059,0.693440866357397,0.47477869352869356,0.0655136023013789,0.2884615384615383,0.5697115384615383,0.47925372273028566,0.7119992736217386,0.05367590362823753,0.5720228809152366,0.7883515340613625,0.714008980573025,0.3680344347011015,0.11506176812908235,0.17156177156177155,0.545920745920746,0.38551070916126984,0.828684554742461,0.031532932727669515,0.7715558383709831,0.8975501113585745,0.8292811080277933,0.48656884185773086,0.07631417037611013,0.28920380952380953,0.6095238095238096,0.49248581343227116,0.3748769499076446,0.02888684282402283,0.3186972573839662,0.4671698831016116,0.3759823961074271,0.6095017608807561,0.07777830398095202,0.4025289778714436,0.7226891464699684,0.6144183048525226,0.4434233732479344,0.03364226212718022,0.3464912280701754,0.5745614035087718,0.4446910178700413,0.5355147645650442,0.030936635545128693,0.46368715083798884,0.6815642458100559,0.5364029032312386,0.5174162257495598,0.0233772296337332,0.45833333333333337,0.6333333333333333,0.5179412650359528,0.5532714603752852,0.007923919914960996,0.53551912568306,0.5792349726775956,0.553327900216768,0.4787960968865491,0.010798471183868646,0.4221105527638191,0.5226130653266331,0.4789172082996754,0.4936914936914933,0.007283538870882313,0.4717948717948718,0.517948717948718,0.4937449343480057,0.4870931537598202,0.035350976747752845,0.35353535353535354,0.6060606060606061,0.48836750493052644,0.46635802469135834,0.056131641766698034,0.07916666666666666,0.7208333333333333,0.4697061823174474,0.46355391284227715,0.1517891943987265,0.12434737852368216,0.6289478196166072,0.48764770593102275,0.598736316039988,0.07115241292835109,0.5162122489354164,0.7635188073117298,0.6029270730517764,0.8868686952734589,0.9057814418360384,1.0,0.8774254334047532,-0.5018420190995356,-0.32951419986348457
33,0.2564376706096447,0.19584939696043058,0.0,0.7178571428571425,0.32248272696405417,0.38821194498292266,0.14194913459090577,0.040257648953301084,0.5813204508856683,0.41327218691249723,0.6708185053380795,0.140925398976228,0.32562277580071175,0.9092526690391459,0.6854153389548896,0.32877572268495814,0.06904448752990146,0.1875,0.4543269230769229,0.33592474619586143,0.7310647839926341,0.04194250460580252,0.5839833593343734,0.813832553302132,0.732263128679039,0.42574792511098225,0.0864573768553919,0.21165501165501166,0.5272727272727273,0.4344103686665785,0.8264782116157428,0.034557506837652185,0.7690104995227489,0.9198218262806236,0.8271980731976541,0.49204458194318085,0.056708399749454845,0.3120609523809524,0.6176177777777778,0.4952912998275195,0.36164577696696865,0.03542460563524937,0.2656023033824445,0.4454200387355606,0.36337112457801446,0.6106998315357097,0.06556488878497353,0.3400070249385318,0.7258531787846856,0.6141981346257281,0.4436389540730814,0.02887262790597123,0.3508771929824561,0.5657894736842105,0.44457451045349705,0.53947977084297,0.04425226879591297,0.44134078212290506,0.7597765363128492,0.5412859225354615,0.5184182590233551,0.02543605943482649,0.45833333333333337,0.6416666666666667,0.519039905903906,0.5528871254046156,0.013313771074080815,0.49726775956284147,0.6065573770491803,0.553046892611508,0.4779470601414719,0.02549553310757197,0.321608040201005,0.6130653266331658,0.4786244293513365,0.4936632369753383,0.018827865920601903,0.40512820512820513,0.5538461538461539,0.4940210027232795,0.4867464453451719,0.05121937802888781,0.2828282828282829,0.6464646464646465,0.489425348634641,0.4665737791932059,0.060723712974195335,0.08750000000000002,0.8166666666666667,0.4704962460356257,0.33744056230978225,0.1296237438128727,0.02789249265593008,0.6029040629913283,0.36140688634115653,0.5997599818010935,0.0861774890002334,0.47245995028921256,0.8173097535274545,0.6059001105105584,0.5508310460970326,0.711013695013135,1.0,0.6835228743115457,-0.27649271104103296,-0.6650338451093567
34,0.34623671782762677,0.17904949368828016,0.07857142857142807,0.8857142857142855,0.3896230382145961,0.2925433518318893,0.11942788066923879,0.049919484702093175,0.5040257648953301,0.3158887356150242,0.6221728772683155,0.1984585591982057,0.2508896797153025,0.8380782918149468,0.6529334864202126,0.28707088366179256,0.15567056069633456,0.0,0.502403846153846,0.32640906545865817,0.7171989358913198,0.05771293557567772,0.514820592823713,0.8117524700988039,0.7195077018424236,0.3817045213739432,0.11273723160521633,0.15804195804195803,0.5445221445221445,0.39793907281701785,0.8534865620308021,0.047190850544244184,0.7680559974546611,0.9357301940820871,0.8547848182791573,0.484915471599108,0.056321489220962966,0.3453968253968254,0.5811098412698412,0.4881618756632666,0.37122785074518494,0.04096292788895632,0.2289915784740956,0.4631190772636093,0.3734717457922069,0.6063161164281963,0.08411976746366605,0.3340358271865121,0.7453459782226906,0.612099769719193,0.4428012179208354,0.036100866995534824,0.32017543859649117,0.5614035087719298,0.4442643422176108,0.5389445496098623,0.034427343483619546,0.4581005586592179,0.6983240223463687,0.5400384910720595,0.5192837465564739,0.022825764205938605,0.45,0.6166666666666667,0.519783100910999,0.5531996567764079,0.008761674492070297,0.5300546448087431,0.5792349726775956,0.5532687502278439,0.4781760039868767,0.011796219500862471,0.42713567839195976,0.5175879396984925,0.47832088244199333,0.4934731934731932,0.012676066797717609,0.4153846153846154,0.5435897435897437,0.4936353019873265,0.4868519909842222,0.03912904768535498,0.36363636363636365,0.595959595959596,0.4884154140804725,0.4658746556473829,0.05617503469761999,0.21666666666666667,0.6625,0.4692353242092573,0.28396439117733324,0.08378215489446203,0.0883008688013236,0.3906666020988421,0.2960172612296307,0.6608424713356874,0.1189405402469713,0.47609912260736625,0.8367171240048668,0.6714172815535149,0.5318988790207934,0.5952125157346561,1.0,0.8464055449920368,0.11526661808919479,0.12705254286266404
35,0.48124999999999946,0.1973853152454445,0.20714285714285685,0.9178571428571425,0.5199384655415399,0.3117439988016327,0.1558726781768965,0.02898550724637694,0.5040257648953301,0.34833798971744934,0.6000579326326243,0.21920456679006414,0.24911032028469748,0.8647686832740215,0.638624146441938,0.3950553443649374,0.06543011139149499,0.2692307692307694,0.5576923076923077,0.40040596208693735,0.7047067929228797,0.06803428032179325,0.5111804472178887,0.8055122204888194,0.707964276257935,0.34815146094215854,0.1240866261020844,0.15571095571095572,0.5160839160839161,0.3694826250831567,0.8442459803624149,0.03169908260071093,0.7963728921412663,0.9099586382437161,0.8448374193596383,0.48314929494278336,0.07633487354570702,0.25285587301587303,0.5609498412698413,0.48910773469743773,0.37513486013454495,0.033178744029932615,0.29748564709137437,0.4797351628968665,0.3765907489233394,0.6167457870790141,0.09832617154808541,0.3129610115911486,0.7195307341060766,0.6244895454523818,0.4469859241126067,0.03203352979141734,0.3552631578947368,0.5701754385964912,0.44812564913714664,0.5410224762894638,0.03733880312258583,0.4078212290502794,0.7262569832402235,0.5423019457232113,0.5192344961240312,0.02770948186550401,0.4416666666666667,0.6583333333333333,0.5199690503361651,0.5538823230397765,0.0090560446695595,0.5300546448087431,0.5792349726775956,0.5539559214480535,0.47855556854037623,0.011923227477862654,0.42713567839195976,0.5276381909547738,0.4787032159943844,0.4935301132975548,0.00781603640914313,0.4666666666666667,0.5128205128205128,0.49359164091357577,0.48931172186986116,0.03767132509902288,0.35353535353535354,0.6060606060606061,0.4907513007068931,0.46942829457364355,0.06704664635891713,0.17083333333333334,0.7708333333333333,0.4741645720039291,0.34845524545948753,0.13974790829188002,0.06320836256936513,0.5223079890181233,0.37528255019942997,0.6374381919520428,0.07662992004647312,0.5422090241086674,0.8028842620106096,0.6420011314862044,0.8055858662902582,0.8460075909384338,1.0,0.8942383049149758,-0.45686682405983187,-0.4397008808060078
36,0.5552185960591128,0.13752447413725902,0.3607142857142853,0.857142857142857,0.5719258246720565,0.40032067299683466,0.19150724130272384,0.017713365539452575,0.6086956521739131,0.4435916846631562,0.7095349122591731,0.23471393522190828,0.23665480427046265,0.9359430604982206,0.7471900450915668,0.4295320789124667,0.064687851722218,0.2812499999999998,0.5072115384615383,0.4343550255943775,0.7184266681012066,0.057436663779727226,0.5559022360894436,0.8081123244929795,0.720709114751145,0.38979784583232857,0.11672135014231032,0.16643356643356638,0.531934731934732,0.40682614296718267,0.8452211811688809,0.03921576852503852,0.7874642061724466,0.9137766465160674,0.8461265229382104,0.48365152709359616,0.08625665080978985,0.273808253968254,0.6757130158730159,0.49125038381564995,0.3716740324458024,0.031125089708086938,0.3078893442622951,0.46474026423186,0.37296941143462226,0.6059683151048291,0.08640679604095217,0.3342100456621005,0.7753761854583772,0.6120715249864565,0.4452699637023598,0.029620666273339844,0.3640350877192982,0.5833333333333333,0.44624986567947433,0.5379262184550186,0.036969016308319703,0.4134078212290503,0.6927374301675978,0.5391896082869583,0.5159482758620694,0.025939975981423665,0.42500000000000004,0.6083333333333334,0.5165971402979157,0.5525014132278123,0.010533289079458965,0.5191256830601092,0.5956284153005464,0.5526013785397501,0.4780367354011438,0.01124197254387877,0.4371859296482412,0.5326633165829145,0.47816833603856523,0.49334659593280267,0.007279628014360814,0.4717948717948718,0.517948717948718,0.493400069197885,0.48867990247300563,0.039310380315082334,0.30303030303030304,0.6161616161616161,0.4902516621897537,0.46905531609195394,0.06422800842602795,0.11666666666666664,0.7083333333333333,0.47341350363740714,0.46065361084949347,0.19582757971818254,0.0,0.6340251653638563,0.500384747132385,0.6442678946659463,0.09640955248664812,0.5139269903572086,0.8215582398985009,0.651410667787271,0.8583250173880473,0.9373760167035566,1.0,0.8582659514357223,-0.38500652161408716,-0.5456360152057425
37,0.4530075187969922,0.10306342997675921,0.24999999999999956,0.7607142857142855,0.4644975968643016,0.38091605826159614,0.2170107570840513,0.04347826086956519,0.6280193236714975,0.4379915802812104,0.6538008722874803,0.22638865704647432,0.3149466192170819,0.921708185053381,0.6916083086420594,0.4054728166570274,0.05818911004121188,0.2860576923076923,0.4759615384615381,0.40959579970394683,0.7134646288107164,0.05803479920885607,0.5512220488819553,0.8309932397295892,0.7158033884313819,0.38859035701140965,0.12322484399138033,0.19254079254079254,0.5426573426573427,0.4075201339839394,0.8364237032288001,0.029928264715826745,0.7995545657015589,0.9102768055997454,0.8369549436843532,0.5069196228666906,0.08404976441998975,0.3219047619047619,0.6580926984126985,0.5137886252495714,0.36588345214561613,0.030328896568262043,0.2784377810057411,0.45339195545410527,0.36712889618773714,0.6173150896207856,0.10462460178963731,0.30523357920618194,0.7290115911485774,0.626052652826226,0.4447962010288874,0.038653417779473405,0.3245614035087719,0.6008771929824561,0.4464599796411024,0.5372789515688666,0.03859806388224211,0.4357541899441341,0.6759776536312849,0.5386532101003619,0.5175438596491223,0.026576218885364013,0.43333333333333335,0.625,0.518220639861968,0.5530629853321827,0.013061045145936544,0.5081967213114753,0.6010928961748634,0.5532160283347745,0.47723580307552793,0.014959964411594716,0.41708542713567837,0.5175879396984925,0.47746845923217746,0.4935801041064197,0.011139274838224458,0.4358974358974359,0.517948717948718,0.49370484062382947,0.48834206728943547,0.03386943813905805,0.38383838383838387,0.5858585858585859,0.4895063721958237,0.46870300751879695,0.03139744903174654,0.375,0.5833333333333334,0.4697455662741825,0.39678507249656386,0.20862633738500425,0.05650549420369244,0.6215674384697515,0.44792419799980926,0.624620557788065,0.06982459817058344,0.5617354755317365,0.7990492752956975,0.6284820268059197,0.714436507537049,0.9756204386602728,1.0,0.7906381042002399,-0.7323763108447217,-0.7823386195666524
38,0.32212301587301556,0.16372396813285234,0.10357142857142843,0.6821428571428567,0.36113689293975026,0.29232420826623723,0.12854860754510877,0.06119162640901776,0.4573268921095007,0.31919646474255914,0.5683965994464213,0.19395543668195875,0.22953736654804274,0.7989323843416372,0.6004035416613822,0.324679487179487,0.09455031088728899,0.14423076923076916,0.4783653846153846,0.3380929832805229,0.7114462356272029,0.055660098656103725,0.5600624024960998,0.7893915756630265,0.7136081427510635,0.3625485625485626,0.11363422026935678,0.17202797202797204,0.49510489510489514,0.3798453090403267,0.8401527203308939,0.03607091312993721,0.7900095450206808,0.9061406299713649,0.8409223958607831,0.4883417142857144,0.056348070009578206,0.34269714285714287,0.5741257142857144,0.49156392812443694,0.37546047714294517,0.029556760629527307,0.30032380507712525,0.47757358027253227,0.37661561126741033,0.610361753112438,0.08016802454819191,0.4200913242009132,0.7516684229012995,0.6155750780813766,0.4440789473684209,0.027874063012430908,0.33333333333333326,0.5350877192982455,0.4449480401365922,0.5374612042209812,0.0420876197159401,0.4301675977653632,0.7094972067039107,0.5390974613594172,0.5172685185185187,0.02539310055569106,0.4416666666666667,0.6083333333333334,0.5178879681271464,0.5525500910746811,0.012618906886886506,0.5081967213114753,0.6065573770491803,0.5526933646324227,0.4766890005583473,0.021085357935005752,0.3165829145728643,0.5376884422110553,0.47715251819018406,0.4929344729344725,0.011456190878397372,0.4358974358974359,0.5435897435897437,0.49306684108909304,0.4866442199775531,0.03502602180975571,0.38383838383838387,0.5858585858585859,0.4878960989416384,0.4664351851851849,0.05638320874786596,0.23333333333333334,0.7541666666666667,0.46981186312011636,0.26846882085779894,0.09432702397177427,0.03910935121312642,0.35386642509507005,0.28447084944287704,0.6257236717645898,0.08515494419327443,0.5267259200466514,0.7770668411702499,0.6314595731863382,0.7868774349308512,0.8424267695207552,1.0,0.9018254850565399,-0.15642123902618846,-0.22182770985248107
39,0.4124183006535945,0.2256867149720378,0.18571428571428528,0.8857142857142855,0.46977701395854177,0.3524570321955943,0.15955296292499682,0.0531400966183575,0.4911433172302737,0.38667392068017603,0.6155653245877235,0.20244144824327714,0.2722419928825623,0.8932384341637012,0.6477926744439765,0.40015397184514834,0.06216701856526599,0.3341346153846154,0.5600961538461535,0.40492305399169615,0.7095360938620552,0.0648939571622832,0.5413416536661466,0.8060322412896517,0.7124781890123923,0.3722900193488428,0.1239172630978351,0.16876456876456875,0.5034965034965035,0.3922435263113224,0.8313650627288779,0.029388347875748233,0.7957365574292077,0.8953229398663697,0.8318809395475268,0.48005784832451487,0.08303454974061612,0.2666666666666666,0.6111085714285714,0.4871398264889226,0.3809548493142387,0.030382577617837202,0.3374749256415577,0.475275817942865,0.3821565973507725,0.6116849797172113,0.10497110166725974,0.3206884439761152,0.7406055497014401,0.6205686323302803,0.44513243894048776,0.03426330380610549,0.3508771929824561,0.5614035087719298,0.44644057740332893,0.5386497243217585,0.04188774892763947,0.45251396648044695,0.7318435754189945,0.5402653432861035,0.5179738562091498,0.02805066764411065,0.4666666666666667,0.6916666666666667,0.5187278794576711,0.5526268795314117,0.011154785313406012,0.5245901639344261,0.5846994535519126,0.552738712189618,0.4780109698820903,0.009821522153721235,0.4422110552763819,0.5125628140703518,0.4781111995681555,0.493011563599799,0.008484996386779489,0.4564102564102564,0.5128205128205128,0.4930840967321667,0.48709315375982026,0.03476425076553881,0.37373737373737376,0.5858585858585859,0.4883240671223397,0.4648148148148148,0.04105051247425493,0.23333333333333334,0.5708333333333333,0.4666121972568906,0.36238909500335453,0.14023871666092963,0.07533361366498514,0.5527321331897059,0.388412425153141,0.6037640782410747,0.06263622538934326,0.5432988288118594,0.7545389899489521,0.606983291732997,0.7391812058515198,0.7701903754934849,1.0,0.8801049130360484,-0.6680118615690139,-0.6853779421445646
