,Orientation X,Orientation X,Orientation X,Orientation X,Orientation X,Orientation Y,Orientation Y,Orientation Y,Orientation Y,Orientation Y,Orientation Z,Orientation Z,Orientation Z,Orientation Z,Orientation Z,Orientation W,Orientation W,Orientation W,Orientation W,Orientation W,Accelerometer X,Accelerometer X,Accelerometer X,Accelerometer X,Accelerometer X,Accelerometer Y,Accelerometer Y,Accelerometer Y,Accelerometer Y,Accelerometer Y,Accelerometer Z,Accelerometer Z,Accelerometer Z,Accelerometer Z,Accelerometer Z,Gyroscope X,Gyroscope X,Gyroscope X,Gyroscope X,Gyroscope X,Gyroscope Y,Gyroscope Y,Gyroscope Y,Gyroscope Y,Gyroscope Y,Gyroscope Z,Gyroscope Z,Gyroscope Z,Gyroscope Z,Gyroscope Z,EMG1,EMG1,EMG1,EMG1,EMG1,EMG2,EMG2,EMG2,EMG2,EMG2,EMG3,EMG3,EMG3,EMG3,EMG3,EMG4,EMG4,EMG4,EMG4,EMG4,EMG5,EMG5,EMG5,EMG5,EMG5,EMG6,EMG6,EMG6,EMG6,EMG6,EMG7,EMG7,EMG7,EMG7,EMG7,EMG8,EMG8,EMG8,EMG8,EMG8,Roll,Roll,Roll,Roll,Roll,Yaw,Yaw,Yaw,Yaw,Yaw,Accelerometer X vs Roll,Accelerometer Y vs Roll,Accelerometer Z vs Roll,Accelerometer X vs Accelerometer Y,Accelerometer X vs Accelerometer Z,Accelerometer X vs Accelerometer Z
,mean,std,amin,amax,RMS,mean,std,amin,amax,RMS,mean,std,amin,amax,RMS,mean,std,amin,amax,RMS,mean,std,amin,amax,RMS,mean,std,amin,amax,RMS,mean,std,amin,amax,RMS,mean,std,amin,amax,RMS,mean,std,amin,amax,RMS,mean,std,amin,amax,RMS,mean,std,amin,amax,RMS,mean,std,amin,amax,RMS,mean,std,amin,amax,RMS,mean,std,amin,amax,RMS,mean,std,amin,amax,RMS,mean,std,amin,amax,RMS,mean,std,amin,amax,RMS,mean,std,amin,amax,RMS,mean,std,amin,amax,RMS,mean,std,amin,amax,RMS,corr, corr, corr, corr, corr, corr
0,0.1995527588538146,0.28478535455534704,0.0034843205574914826,0.8118466898954706,0.34739301105363096,0.6025718863310568,0.24918349210625976,0.17231638418079087,0.7881355932203389,0.6519201948467713,0.7764031952911479,0.31181744270299205,0.1813380281690139,0.9999999999999999,0.8365057083339038,0.4262189054726382,0.06894246307151557,0.32916666666666705,0.604166666666667,0.4317423193853701,0.24650960956502885,0.20413908163170913,0.0,0.6763580719204285,0.31986771632184796,0.8304262658831281,0.1733757359630423,0.38211382113821146,1.0,0.8482789636056213,0.3229163351685071,0.29065389244937906,0.056503198294242996,0.8603411513859275,0.43416870747426145,0.5136629878819076,0.09447033682912939,0.30971786833855797,0.8498407523510971,0.5222524953797786,0.49215471670919375,0.09162742291019248,0.3701880555031971,1.0,0.5005864444445297,0.5519288374879534,0.0997748614111955,0.10166143106457248,0.8678045375218151,0.5608482398420718,0.5596365996106407,0.06631381561226685,0.33333333333333326,0.8985507246376812,0.5635401661222172,0.44973298644392756,0.0706564583060871,0.0,0.7431192660550459,0.4552331179772585,0.4800778715120058,0.0711091573649108,0.0,0.9565217391304348,0.48530009366390386,0.4506948018528056,0.03771744967350215,0.29310344827586204,0.5862068965517241,0.4522655899379355,0.5344216417910448,0.04269845592073574,0.34375,0.90625,0.5361195828260269,0.5066732453435303,0.054022370985518514,0.0,1.0,0.509536536886804,0.6236916682410739,0.06044649777413728,0.2658227848101266,0.9113924050632911,0.6266052739350578,0.5043312847527072,0.0625337093442509,0.20588235294117646,0.9803921568627451,0.5081818931794012,0.7676651310699564,0.17043244642578811,0.32715199570794384,0.8939964541355199,0.7863016368668776,0.2672449828694543,0.3666580159698768,0.0,0.876691298852128,0.4532732881834672,-0.8912519378886209,0.9165800711308615,1.0,-0.9105516228514916,0.9817895637716783,-0.9537187758433827
1,0.3950108569408676,0.13418372735895062,0.2473867595818815,0.6306620209059233,0.41711708259540664,0.48557275034798986,0.11365888953335837,0.32203389830508466,0.751412429378531,0.498659998974763,0.44942845478669063,0.1870536294164012,0.14260563380281677,0.6426056338028168,0.48669659818389804,0.43543478260869545,0.05501086498121384,0.2999999999999998,0.5375000000000001,0.4388859459939251,0.4365057715977514,0.047791992113761284,0.3136954858454476,0.6013771996939556,0.439106755405247,0.5705465501859988,0.1878364131505558,0.20673635307781657,0.7816492450638792,0.60058606033273,0.5280708259942523,0.14339816794611585,0.3155650319829424,0.7782515991471214,0.5471400449956114,0.4993894470946343,0.08681637015095922,0.26363887147335424,0.7432576802507838,0.5068580229026807,0.46852379172243114,0.05153155996896275,0.2421848946628195,0.7265510591715119,0.4713410102850174,0.5509031641247432,0.07027471054872432,0.35689354275741714,0.756544502617801,0.5553544062950475,0.5580970384373009,0.07544820684387966,0.10869565217391297,0.8333333333333333,0.563159157277755,0.4505517883260206,0.07666500797510614,0.23853211009174313,0.8807339449541285,0.4570091914959139,0.4818315479941194,0.04760790415773714,0.34782608695652173,0.6811594202898551,0.48417102719921223,0.4527236381809096,0.036598587060706136,0.27586206896551724,0.6379310344827587,0.45419628648831273,0.5331521739130435,0.03317652359190281,0.359375,0.71875,0.534180430083374,0.5056413941789432,0.014680790884047206,0.47107438016528935,0.5537190082644629,0.5058538528233838,0.621390570537516,0.08106431445722992,0.30379746835443044,0.8481012658227849,0.6266407396812264,0.5020460358056267,0.06703533525591387,0.16666666666666663,0.7941176470588235,0.5064888280295793,0.6017660157487906,0.15209804227537488,0.28502051450106536,0.763117847706865,0.6206360428137376,0.5701574732534742,0.1317478913290274,0.4107619692989594,0.7646652593119252,0.5851382226126718,-0.5437770889481195,0.959313238961147,1.0,-0.4923002770050167,0.6894049365802041,-0.911823425055336
2,0.3693493286724389,0.11664593957143078,0.2473867595818815,0.5853658536585371,0.38727365220805504,0.5758755221848031,0.1855266791239221,0.3305084745762713,1.0,0.6049302835618906,0.4625063082075512,0.18826404784292342,0.08274647887323916,0.6285211267605633,0.49923940768427383,0.39994571118349626,0.08935105922867359,0.27916666666666723,0.625,0.4097733256682821,0.40218667211631665,0.04677586904009475,0.2838561591430757,0.530221882172915,0.4048888417522781,0.539199552069974,0.23344216642312463,0.0,0.7282229965156795,0.5874128812642816,0.4850919900266001,0.1439645642884828,0.2942430703624732,0.8464818763326225,0.5059372726171996,0.4886134806449305,0.09639346215712448,0.2250783699059561,0.7225730407523512,0.4980005691686399,0.47293057547499395,0.03661404286200589,0.3488886311241282,0.5860894024851745,0.47434117533397285,0.5432776347130087,0.07422970192247712,0.3534031413612566,0.8254799301919722,0.5483089357156817,0.5595524713213406,0.07099774235191247,0.21739130434782605,0.8043478260869565,0.564024138162267,0.45190210082777993,0.07110390779122423,0.1926605504587156,0.6788990825688074,0.4574437737509949,0.4815181985554461,0.05162991326138492,0.34782608695652173,0.7246376811594203,0.48426928520311424,0.4493429181174891,0.04576336543243645,0.3448275862068966,0.8448275862068966,0.4516597412884978,0.5325223941368078,0.038903518075843496,0.375,0.796875,0.5339369382815554,0.5051013540797364,0.012061572515462993,0.46280991735537197,0.5371900826446282,0.5052448768107595,0.623922813672536,0.062421420303343085,0.40506329113924056,0.8860759493670887,0.62702744690105,0.5015967298971709,0.04089331262834507,0.3431372549019608,0.7254901960784313,0.5032554970891501,0.590170254516633,0.14558663204981528,0.2455658907231335,0.7055270742215414,0.6078053604052112,0.5135785139547822,0.11850807073341554,0.39101664076715686,0.7243709654392008,0.5270306503100488,-0.06117696310535055,0.9350648852278912,1.0,0.12121893013348956,0.2587674251757155,-0.8731174437544535
3,0.31293661282847907,0.1929532810096382,0.14982578397212576,0.6968641114982579,0.36739200932312166,0.6074698728117783,0.13931001052216582,0.4491525423728814,0.9350282485875705,0.623162356890949,0.5191753972108507,0.24702559838889415,0.07042253521126751,0.7359154929577463,0.5746861231018023,0.42001231527093563,0.07099580850713007,0.3333333333333335,0.5916666666666668,0.42594121686497016,0.37110895858224546,0.05971355016800823,0.25248661055853094,0.5187452180566181,0.3758590189808725,0.575027319590578,0.24152542838038168,0.06968641114982577,0.8130081300813008,0.6234609760045293,0.4398783702878987,0.19344942694528652,0.23987206823027718,0.8251599147121534,0.4803449939901408,0.47414492950569087,0.15302071255593705,0.08934420062695919,0.7909065830721003,0.4981098334224604,0.45893169894920327,0.04593277716586364,0.27413040641447606,0.5559599240238369,0.46121332495550327,0.5581183125714634,0.08096626689190058,0.3712879581151833,0.7273089005235602,0.5639319940554847,0.5600771043049891,0.053385930331578284,0.3405797101449275,0.7318840579710144,0.5626032177579774,0.4521625163827,0.07995225523509594,0.21100917431192662,0.8256880733944955,0.4591424777400035,0.48218747768972703,0.05668411725163851,0.34782608695652173,0.6666666666666667,0.48549152903425147,0.45269237302531024,0.03132239563843425,0.3620689655172414,0.5862068965517241,0.4537693732459162,0.5357142857142857,0.023045624793782127,0.484375,0.609375,0.5362073111029876,0.505719985343809,0.011709499466097149,0.47107438016528935,0.5371900826446282,0.5058548611246684,0.6234956662717467,0.057338023246712985,0.4177215189873418,0.759493670886076,0.6261136473953139,0.5037187288708587,0.034640078686026775,0.392156862745098,0.6078431372549019,0.5049025468905284,0.6288219452252869,0.22206713424524296,0.15972254115582607,0.805286580643191,0.6666992768302603,0.4606255815628135,0.1740537488286707,0.30012822588284443,0.7876614702659308,0.49226151470450247,-0.5823384997942038,0.9594286231556444,1.0,-0.6107795605179005,0.6268102761176513,-0.9773973938828766
4,0.33249641319942663,0.14814423399167378,0.1986062717770034,0.735191637630662,0.36389544158548515,0.5309488202060494,0.1271930334810487,0.22598870056497167,0.8163841807909604,0.5459168794367785,0.5225831089478042,0.2114019027779575,0.04577464788732377,0.7253521126760563,0.5635774711381307,0.41210171568627496,0.11346125779496628,0.2749999999999999,0.5875000000000004,0.4273803367094493,0.39297448129978857,0.07398341116231563,0.17750573833205818,0.5830145371078808,0.3998529289030862,0.6099567875930858,0.19690404626280517,0.12891986062717764,0.8408826945412311,0.640840030722523,0.45478489903424063,0.19007953679576653,0.20042643923240933,0.9061833688699359,0.49277449504717885,0.4994732435921076,0.15512705362115906,0.08432852664576795,0.8808777429467085,0.5229239445278953,0.4765286172901213,0.08446220259232284,0.21409256332555204,0.8158121764850876,0.483928878372876,0.549003285083667,0.07082137007786629,0.38438394415357774,0.7726841186736475,0.5535357563357085,0.5610080988917286,0.0411149330266706,0.31159420289855067,0.7246376811594203,0.5625071643057975,0.4505531570426338,0.09223385320539158,0.22935779816513763,0.9908256880733946,0.459862974107796,0.47927323103154373,0.06288145240100798,0.31884057971014496,0.8695652173913044,0.48336566902447153,0.45334685598377356,0.062406571034488996,0.0,0.7586206896551724,0.45760641781932265,0.5340647977941176,0.059548723765339706,0.140625,0.8125,0.5373622817006959,0.5068364122508494,0.012659516380372677,0.47107438016528935,0.5454545454545455,0.5069939081831153,0.6261634400595687,0.06309794516077827,0.40506329113924056,0.8227848101265823,0.6293229433542495,0.5038927335640139,0.044832844781492596,0.3529411764705882,0.6274509803921569,0.5058759544224871,0.6391869468256107,0.1617846522155831,0.1637619768154055,0.7702797793225789,0.6592708075877205,0.48702277780349007,0.18003103726996972,0.2967480636745606,0.8642362545190274,0.5191177147339406,-0.29778282055093525,0.8853503475350875,1.0,-0.5404382749947289,0.678265550219433,-0.9026782805423187
5,0.26951147818356475,0.12705234967422147,0.1254355400696867,0.550522648083624,0.29784611331045435,0.5834321452651642,0.09683850771911008,0.2853107344632768,0.7655367231638418,0.591381580168031,0.5333275372399002,0.1814566437856908,0.15492957746478853,0.7059859154929576,0.5632311030975512,0.44417009602194807,0.10531266300890643,0.3374999999999999,0.7083333333333335,0.45643421236242376,0.37242011202735537,0.07180010545313703,0.197398622800306,0.5944912012241774,0.37925028667597377,0.5782012493846276,0.16192089022734546,0.17421602787456447,0.761904761904762,0.6003558652465246,0.4118999359463709,0.16333746982396014,0.13326226012793174,0.788912579957356,0.442979565698686,0.5056077195969918,0.1291363444376918,0.1902796238244514,0.8354257053291536,0.5217726854215889,0.46856345431510443,0.06578797536090368,0.07725572358595889,0.6807877452188664,0.4731405261492024,0.555376123068968,0.0994329892873176,0.23953228621291456,0.7984293193717278,0.5641709585956975,0.5600584481421828,0.08628246577066556,0.18115942028985504,0.855072463768116,0.5666387674329612,0.45278816022954704,0.08806716233369949,0.1834862385321101,0.8532110091743119,0.4612385783408882,0.48249537782549085,0.05845004459816258,0.33333333333333337,0.6811594202898551,0.48600837240266537,0.4544487015751389,0.06184623930742874,0.29310344827586204,0.8448275862068966,0.4586205829601554,0.5356867283950617,0.05695480207712894,0.296875,0.90625,0.5386935782830867,0.5062068496411924,0.014891272036590806,0.46280991735537197,0.5537190082644629,0.5064249323000983,0.6227014637703819,0.06065167592949458,0.3670886075949368,0.8481012658227849,0.6256361565615295,0.5012507060437342,0.055620419383356025,0.2941176470588235,0.6372549019607843,0.5043145549850189,0.6777350894682794,0.12173884722411382,0.35371899908462745,0.8411106494205725,0.6885377326901145,0.43940856126933653,0.1602175922694258,0.27645016604945255,0.7339432460899016,0.4675937596451223,-0.4692875972657851,0.8613037905063824,1.0,-0.5366643916650793,0.686609721458292,-0.8952413493765705
6,0.39556268315758036,0.1462666546124676,0.250871080139373,0.8083623693379787,0.4216549889618931,0.5102330976166417,0.1322453673042802,0.20903954802259883,0.8276836158192089,0.5270377036038797,0.5107091222833684,0.17718878367898921,0.13204225352112653,0.686619718309859,0.540477300935945,0.3267384105960271,0.08978212011247773,0.17916666666666714,0.579166666666667,0.3388098678664044,0.4081816201097505,0.07581161381322146,0.20045906656465184,0.7635807192042847,0.4151392593527445,0.6320580566259778,0.17026240818658492,0.16260162601626016,0.7932636469221835,0.6545156098739148,0.46380914726274014,0.16365036908530822,0.2526652452025585,0.8272921108742004,0.49174351862583215,0.5047313915588868,0.11117755938292782,0.21818181818181814,0.8197467084639498,0.516791349283141,0.48119622608064944,0.0695684217537795,0.21748901680465133,0.7793356435500008,0.48618262781247085,0.5426245506975027,0.08317625727316465,0.3228621291448517,0.7591623036649215,0.5489415128675854,0.5588108263748903,0.05237598644632285,0.33333333333333326,0.7681159420289855,0.5612519042647034,0.4486603074305855,0.07792598901612807,0.21100917431192662,0.6972477064220184,0.45535527200767756,0.4799884825799028,0.05777633912568795,0.2898550724637681,0.7536231884057971,0.48344182219074494,0.451986754966888,0.05578451284184914,0.24137931034482757,0.7068965517241379,0.4554049123522376,0.5345095198675497,0.040556036691769104,0.40625,0.71875,0.536040831103084,0.5061025669093093,0.013191135634380315,0.46280991735537197,0.5619834710743803,0.5062738765851088,0.625282923966804,0.061626270937699845,0.4303797468354431,0.8101265822784811,0.6283024405384038,0.5027918452149074,0.040218712729520455,0.3431372549019608,0.6176470588235294,0.5043925340044636,0.5911490727266203,0.12566749207862102,0.24735117491784475,0.7362886090665999,0.6043155237996889,0.5030595379300037,0.1578072115743709,0.33867807034477765,0.8075265040003616,0.527152306338631,-0.4787043814591608,0.8365363271059938,1.0,-0.2832871029409597,0.7038029476101917,-0.7436840535535881
7,0.3395556497661656,0.19763296623684937,0.17421602787456436,0.7386759581881535,0.39269366702900804,0.5008807544413655,0.09941817296787224,0.2542372881355932,0.7542372881355932,0.5106152383538813,0.5214748567450328,0.1771919922134851,0.1390845070422534,0.6672535211267605,0.5506483887978759,0.4102503168567808,0.10543607282431086,0.13333333333333375,0.5875000000000004,0.4235325475846463,0.4098376393854674,0.060830244635060156,0.28691660290742155,0.5669472073450652,0.41431043876144996,0.6242277305988707,0.15280871634053614,0.23228803716608593,0.8130081300813008,0.6425900545859284,0.457887098997138,0.1503770994124039,0.2814498933901918,0.8230277185501065,0.481858781628792,0.48053431231152466,0.11643252277522748,0.14921630094043886,0.7714758620689656,0.4943867028127841,0.46055781549951874,0.04757513914600098,0.19664631936087223,0.5532413113137786,0.46299923242066826,0.5695791743807197,0.08453101538505563,0.32242233856893543,0.8547085514834206,0.5757940250445561,0.5589904667438125,0.10954950491303338,0.01449275362318836,0.9637681159420289,0.5695838870622438,0.4506924338089096,0.08088814728278841,0.23853211009174313,0.8256880733944955,0.4578664481545684,0.48206315093403923,0.06572796989446904,0.34782608695652173,0.7971014492753623,0.48650654777516483,0.4517503605611648,0.032489078804627654,0.3620689655172414,0.5862068965517241,0.4529127013539366,0.5358246197718631,0.027818119315644884,0.453125,0.671875,0.5365435010593205,0.506049083995851,0.012070139139596748,0.47107438016528935,0.5619834710743803,0.506192463124589,0.6237666650623287,0.0774197286607084,0.32911392405063294,0.9113924050632911,0.6285347060108212,0.5037650041004993,0.07278905053067389,0.21568627450980388,0.7843137254901961,0.5089766986925306,0.6486220658503842,0.18551368561282555,0.21780559192180582,0.8093058669607842,0.6745332127471045,0.4987724887147687,0.14560429414736445,0.3590647713767016,0.7837632798755108,0.5195132291738713,-0.6471833785358984,0.7179643359024139,1.0,-0.3655144218046576,0.6767648646796867,-0.7860200093750964
8,0.29676497601796076,0.16836331392561046,0.15679442508710784,0.7108013937282229,0.34102353745271285,0.5470888589461749,0.08303978641098722,0.3700564971751412,0.7740112994350282,0.5533289923740919,0.5605368613353754,0.2302929517210523,0.04753521126760529,0.7235915492957745,0.6058172277318971,0.41663179916318177,0.10924256964165933,0.308333333333334,0.6750000000000005,0.43065770897152983,0.3719719694083675,0.0680007013913032,0.23794950267788834,0.5577658760520277,0.3781109542657999,0.6401527852696343,0.2029777024203835,0.1591173054587689,0.8176538908246226,0.6714336537961156,0.4206448332158688,0.20493661660887819,0.2334754797441363,0.915778251599147,0.46772359832963545,0.5029457431041042,0.16231508048909302,0.11128275862068965,0.9344852664576802,0.5283846806783448,0.4725675066798246,0.07731559030458071,0.16968855572793573,0.6959648537748844,0.4788243285115654,0.5618452393991835,0.07794183884013192,0.3673647469458988,0.7648376963350786,0.5672033014353327,0.5634285367776348,0.05918462931861215,0.29710144927536225,0.8623188405797101,0.5665155604666898,0.4545698821542362,0.09794978574619835,0.1926605504587156,0.9357798165137615,0.4649599932879859,0.4848705354435761,0.07795132619549833,0.2463768115942029,0.8115942028985508,0.4910706884863598,0.4536863367479443,0.04150866654216381,0.3448275862068966,0.6379310344827587,0.45557332282838725,0.5350418410041841,0.0311171791051504,0.453125,0.640625,0.5359421602045581,0.505964936546906,0.011969715360714847,0.47107438016528935,0.5371900826446282,0.506105909496787,0.6242783750860658,0.0572234109414664,0.40506329113924056,0.8987341772151899,0.6268846045681467,0.5036508327180245,0.05129761179773193,0.21568627450980388,0.6470588235294117,0.5062455886659006,0.6643884652087729,0.17545161326007347,0.20311617934493964,0.8087085691735054,0.6870709577700268,0.4508355568124776,0.19347480682961885,0.2955392048564877,0.8928278822790765,0.4904371303455626,-0.5341353150410754,0.9343121938988925,1.0,-0.6660812737565949,0.6865380377907014,-0.9756612484888434
9,0.3169086749113959,0.13503369512891655,0.1846689895470388,0.6376306620209062,0.34436455845428665,0.49869062340874365,0.08369821829654743,0.288135593220339,0.6807909604519774,0.5056359001918495,0.5221392734086919,0.17394477014033022,0.16549295774647876,0.6637323943661971,0.5502329928829308,0.43742846924177364,0.07208263327806465,0.3583333333333334,0.6083333333333338,0.4433026863190243,0.4071145466307208,0.061392760154227954,0.27620504973221116,0.6717674062739096,0.4116978853568577,0.6153290165642309,0.15410779975657118,0.207897793263647,0.7874564459930314,0.6342531707566512,0.4538329200106152,0.14885905791180137,0.18230277185501065,0.7825159914712153,0.4775230207240151,0.5048582829927215,0.12287579459377779,0.2322909090909091,0.7796213166144201,0.5195339705371058,0.47755689142419333,0.07121395244456381,0.21001464426046484,0.730857341704244,0.48281491877147065,0.5509177658435015,0.05288483825406769,0.3966003490401397,0.8547085514834206,0.5534394161779802,0.558593021086022,0.0706646397558036,0.23913043478260865,0.8478260869565217,0.5630259525320699,0.44847816671260404,0.08979639603667762,0.21100917431192662,0.8990825688073395,0.4573417233571356,0.4804378926416623,0.06598843511339077,0.31884057971014496,0.7246376811594203,0.48492922527613525,0.4529376942430074,0.07530642557264322,0.2586206896551724,0.8103448275862069,0.459128819935241,0.5329265021459227,0.05873561845157505,0.25,0.78125,0.5361396490122943,0.5053736743163186,0.019011845670971677,0.3966942148760331,0.578512396694215,0.5057296211208682,0.6221002879339387,0.07018853926797995,0.32911392405063294,0.8354430379746836,0.6260303952774046,0.5031978456618698,0.0564486004786219,0.30392156862745096,0.6862745098039216,0.5063406369701051,0.6663984434586182,0.13918936875005897,0.3064050646677907,0.7919103844519522,0.680718309562998,0.4965908932067623,0.14287456863295958,0.3600507967490499,0.7601321985280651,0.5166507984363216,-0.45954277300570046,0.896431160880028,1.0,-0.6097365616809912,0.7037447681249448,-0.9063008637450768
10,0.43468834688346947,0.23337318475743646,0.22648083623693394,0.8675958188153312,0.4931686195457799,0.4850282485875707,0.11350967017328696,0.1807909604519773,0.7062146892655367,0.49808546152571237,0.5081442357850797,0.18660129361513833,0.10563380281690116,0.6602112676056338,0.5412038839652242,0.3013888888888899,0.07268561818740064,0.12916666666666687,0.47083333333333366,0.30999821617699996,0.41842217121482655,0.08283495298794057,0.18592195868400918,0.7192042846212701,0.4265129884989275,0.6629285499204197,0.13032263451910409,0.29268292682926833,0.9279907084785134,0.6755703869356441,0.4770236120982386,0.18348191013243154,0.2484008528784648,0.8528784648187633,0.5109720642027974,0.5002752118890049,0.12549007539522666,0.20376175548589343,0.7771134796238245,0.5157176762724649,0.47757903040711275,0.08235432607144627,0.156095492177645,0.8228334469109311,0.4846017394916234,0.5496026371921662,0.08047019106621484,0.22774869109947649,0.7822897033158814,0.5554408405082908,0.5595813204508837,0.054098374535642986,0.1594202898550724,0.7391304347826086,0.5621806194981277,0.4502888209310229,0.10699901942414305,0.045871559633027525,0.798165137614679,0.4627811680337356,0.48094471282877116,0.0702297779810618,0.2753623188405797,0.6956521739130435,0.4860265126774296,0.45312899106002613,0.03608946546170291,0.3275862068965517,0.6206896551724138,0.45455858606926214,0.5337384259259259,0.02744875536049344,0.46875,0.609375,0.5344411576439412,0.5061830425466785,0.013046592409592696,0.46280991735537197,0.5454545454545455,0.506350526527496,0.6221284575714966,0.0426796421254906,0.4556962025316456,0.7974683544303798,0.6235852973602792,0.5015613652868555,0.039116025469372595,0.3627450980392156,0.676470588235294,0.5030787211712235,0.5717377618036691,0.191549552421858,0.1101154635086734,0.7363919751080199,0.6028593582727334,0.5218828881744859,0.1835791715980403,0.34393497774764575,0.8625684409588745,0.5531168425739593,-0.7034705840323919,0.6813150935068407,1.0,-0.35910300735758094,0.8031739636640634,-0.5962447896929862
11,0.411075054956561,0.2895364991381074,0.1986062717770034,0.9337979094076654,0.5024482996205877,0.5069590941053805,0.12603385056264135,0.15254237288135597,0.6864406779661016,0.522325454701292,0.5402436075681555,0.23097256113848252,0.022887323943661775,0.7200704225352111,0.5873521233069495,0.3132510729613739,0.12422003705282453,0.0,0.47916666666666696,0.33688369876000823,0.39456410020654686,0.09734067982548099,0.1935730680948738,0.7123182861514921,0.4063439072905523,0.6841181777850882,0.1674068808940535,0.2706155632984901,0.9291521486643438,0.7042176266631045,0.4561938925848993,0.22552166355929984,0.16098081023454147,0.9371002132196161,0.5086792751975691,0.4773004910732304,0.149955690060386,0.027586206896551724,0.8398094043887148,0.5002059158782772,0.4561715448820479,0.07192200724227102,0.20140570401194735,0.575214951644942,0.4617824733943664,0.5812527395156881,0.09628129905872156,0.39441535776614317,0.9092495636998256,0.589139244962654,0.5570691049325109,0.10704581496760888,0.12318840579710139,0.8768115942028984,0.5672174316303604,0.4478087963145254,0.10735163493958913,0.10091743119266056,1.0,0.4604428637195836,0.4761460471481003,0.07276946156856731,0.2463768115942029,0.7536231884057971,0.4816510414569447,0.45056977948793875,0.049039468078852386,0.27586206896551724,0.7931034482758621,0.4532192342445793,0.5344688841201717,0.03424052218534797,0.421875,0.71875,0.5355598655941217,0.506402298442875,0.01373103531457192,0.4545454545454546,0.5537190082644629,0.5065876232289693,0.624545010050525,0.04925149726215764,0.4303797468354431,0.8101265822784811,0.6264756729427857,0.503828999410923,0.07557844572213114,0.08823529411764702,1.0,0.5094420935182773,0.5886287150572944,0.2292670496684203,0.08537552564410378,0.783150156743929,0.6315231985824519,0.4913032975874842,0.23036955121376035,0.2946357533998027,0.9592468562326526,0.5424216916274093,-0.7238336656073248,0.6179255769509135,1.0,-0.30209307099770427,0.7531733646930416,-0.6572885594709625
12,0.3289287190692726,0.2294950183940702,0.14982578397212576,0.8606271777003482,0.4007978247938969,0.5314923872450428,0.10334305248989946,0.2655367231638417,0.6864406779661016,0.5414043690853892,0.5873045476247304,0.23877989080154285,0.08098591549295775,0.7711267605633801,0.6337987656862383,0.35677966101694936,0.08383853354810604,0.21250000000000036,0.5625,0.3664571499500716,0.36941890472423583,0.10236327606267738,0.17674062739097168,0.6664116296863045,0.3832807954107419,0.690367920628359,0.16511663856541373,0.29036004645760743,0.8943089430894309,0.7097575972403735,0.4120785298688152,0.21266539585019906,0.05970149253731338,0.8933901918976546,0.4635122947236491,0.5026472982306998,0.16058907700882877,0.1244539184952978,0.8683385579937304,0.5275735809136229,0.4688551120117589,0.09230373504739345,0.09628601255636587,0.8106033145326161,0.47781690421665873,0.5551419232703286,0.06947712719885925,0.34860034904013965,0.994324607329843,0.5594543524583077,0.5645418816015707,0.054177344189360044,0.3188405797101449,0.7608695652173912,0.5671245749239533,0.4610869227180844,0.09504356730985887,0.22018348623853212,0.8532110091743119,0.47074000613902933,0.48114713829525974,0.0753815283667293,0.30434782608695654,0.8260869565217391,0.4869916484388815,0.4508328462887205,0.037060805838684596,0.3620689655172414,0.603448275862069,0.45234714400871306,0.5329051906779662,0.03396380781890086,0.421875,0.765625,0.5339818298506976,0.5056380445440535,0.013841330921635205,0.46280991735537197,0.5454545454545455,0.5058266528584766,0.6233640849603095,0.04412642546389471,0.40506329113924056,0.7848101265822786,0.6249173331276463,0.5044449983383184,0.053471162030900916,0.20588235294117646,0.676470588235294,0.507259111708043,0.6464924440562391,0.20672016379933897,0.12324497486225083,0.8420685127456498,0.6786049169811517,0.4402619021298386,0.2253671370349916,0.24612689405870186,0.8986585556091478,0.4943740239837587,-0.6312059665044065,0.9197283336140668,1.0,-0.7123554066785734,0.8271892923921923,-0.9256841212673232
13,0.27637676659652133,0.1361556642972908,0.14285714285714324,0.6585365853658538,0.30799561573515244,0.5574108258283459,0.09205578316909,0.20621468926553677,0.7288135593220338,0.5649363929566886,0.6155754659973041,0.2100449166182745,0.08098591549295775,0.7499999999999999,0.6503125514037105,0.36571782178217993,0.1325196975568807,0.25833333333333375,0.7333333333333336,0.3889126338421132,0.3485244469358952,0.08580032003440793,0.13006885998469775,0.7077276205049734,0.35889648787240375,0.6886075367118589,0.18363265929198175,0.16144018583042985,0.843205574912892,0.71259385550203,0.3733735846932239,0.1858231512985011,0.17270788912579937,0.8656716417910447,0.41692219430645616,0.5033190436285008,0.13666230105100105,0.14388463949843255,0.8739811912225706,0.521483466003314,0.4830797732008261,0.10117337288526777,0.18146921080485434,0.9691890559526743,0.49352642918991824,0.5493581232468798,0.088122794353243,0.219455497382199,0.8970331588132636,0.556358108892398,0.5588319701535355,0.0424702444762603,0.28985507246376807,0.7028985507246377,0.5604381675571105,0.4520543797499014,0.09043706111193206,0.1651376146788991,0.8623853211009175,0.46098268007557824,0.4804132587171767,0.06327319759775828,0.23188405797101452,0.7681159420289856,0.4845484328963948,0.45254353021509064,0.07224474092887925,0.12068965517241376,0.9310344827586207,0.45825508607141713,0.536355198019802,0.07238122921386685,0.0625,1.0,0.5412011180851206,0.5059869623325965,0.015532462027701152,0.4545454545454546,0.5702479338842976,0.5062245225176712,0.6229268496469909,0.0566115738787949,0.20253164556962028,0.949367088607595,0.6254855339481997,0.5012618908949715,0.0478964305591142,0.2745098039215686,0.676470588235294,0.5035374664731411,0.6788196665678518,0.13083536060845344,0.266857928712283,0.8246906554239617,0.6912724040587259,0.39614087241955237,0.18930935264128712,0.2546525419763957,0.8488753886478735,0.4389161018563369,-0.4472490541617356,0.8700519246758821,1.0,-0.6330359809108285,0.7423241200005538,-0.9293434142614879
14,0.42944812858267034,0.27421460683593757,0.13937282229965176,0.9686411149825782,0.5092904726991369,0.47806633861855413,0.15182897179373023,0.12994350282485878,0.7288135593220338,0.5015227805269258,0.5440197637437538,0.22401761209295906,0.06690140845070403,0.7464788732394365,0.5882002298144806,0.297513440860215,0.08590575069729067,0.12500000000000044,0.516666666666667,0.3096291970976587,0.401569711479132,0.1052155385539134,0.197398622800306,0.6250956388676359,0.4150817173215962,0.7051665355363228,0.14935278322184273,0.25667828106852497,0.875725900116144,0.7207594196670699,0.4645608363711396,0.22193062734750885,0.19083155650319827,0.9498933901918976,0.5146951454439483,0.5024935342299528,0.131966186945357,0.2103423197492163,0.8081504702194358,0.5194792091894901,0.4751013194801405,0.08977224637789492,0.18169757427249922,0.9216097087097103,0.4834814609020251,0.5511484321342116,0.08942651471030678,0.3280977312390926,0.7787993019197208,0.5583331430924661,0.5616175783076186,0.06114874186629035,0.21739130434782605,0.8188405797101449,0.5649260226451331,0.450103580941107,0.08242160257038067,0.21100917431192662,0.7798165137614679,0.45756380998605406,0.4808789153810196,0.06547034866993856,0.2898550724637681,0.6956521739130435,0.4853010105327427,0.4516129032258068,0.03753364253110313,0.3275862068965517,0.603448275862069,0.45316491948119564,0.5331149193548387,0.027202832259201958,0.375,0.65625,0.5338062609636118,0.5061050386563576,0.011728640425254747,0.47107438016528935,0.5371900826446282,0.5062404837766314,0.6241322988975108,0.033590142587168546,0.4683544303797469,0.7721518987341772,0.6250326267773426,0.5028779253636941,0.033278450658171296,0.3725490196078431,0.6666666666666666,0.5039742956341315,0.5859074693061674,0.2096938487234415,0.0783581014955681,0.8151931170838385,0.6221874550325981,0.5022817749617449,0.23220994674381468,0.27790369404467324,0.8929023320538794,0.5532038508849895,-0.7612180155154391,0.7023926490541705,1.0,-0.38364804849496936,0.8822537642794908,-0.6286350827557271
15,0.45430754736731815,0.33379044359889104,0.1637630662020908,1.0,0.563323377214908,0.4351737348754885,0.146043184307148,0.11581920903954801,0.7231638418079095,0.4589261946131633,0.5068231276068424,0.2387153213006987,0.0,0.7218309859154929,0.5600090324857119,0.3650393419170244,0.15814593493280812,0.06250000000000044,0.5458333333333334,0.3976889717358826,0.4294932207230133,0.08772526802894423,0.27620504973221116,0.6013771996939556,0.43832307770091106,0.6905883467173117,0.16633411243305063,0.29500580720092917,0.9186991869918699,0.7102538693542952,0.5196335916981616,0.22839371252797463,0.24413646055437088,0.9999999999999999,0.5674142041353089,0.47633138966997174,0.16691495573901868,0.0,0.8871473354231976,0.5046113572178245,0.45729281121947146,0.0701048555436208,0.20978990560976668,0.6264154910177037,0.46261248672118876,0.5767289396220482,0.09424202491432342,0.3211169284467714,0.8669249563699826,0.5843455405643464,0.5568825029545302,0.10118090986845979,0.15217391304347822,0.8333333333333333,0.5659609178397856,0.4502894042603459,0.08986420374935127,0.2018348623853211,0.834862385321101,0.45913120519517564,0.4829881196740689,0.06718133947798896,0.30434782608695654,0.7536231884057971,0.48761817603032265,0.4521237235459529,0.043582281622999014,0.3275862068965517,0.603448275862069,0.4542104409496219,0.533530042918455,0.037761729006817964,0.359375,0.703125,0.5348589860186449,0.506544177632745,0.01408803293352923,0.46280991735537197,0.5454545454545455,0.5067392078293607,0.6248709729994031,0.047653439661354,0.3544303797468355,0.7974683544303798,0.6266776181339988,0.5026929226626271,0.06861664589688989,0.24509803921568624,0.8431372549019607,0.5073344178478681,0.5895344277024785,0.27581362155465416,0.0,0.8263690692543788,0.6506131731367842,0.5627379885803733,0.22848323824929326,0.32741238147007784,1.0,0.6071693173385342,-0.7044723016969501,0.5951173273793574,1.0,-0.21807118731658118,0.7508283574755318,-0.6081242361986443
16,0.35062108985401896,0.20185316144722978,0.17770034843205584,0.8536585365853662,0.4043864242960301,0.5036439627832742,0.10050290905541479,0.1807909604519773,0.6864406779661016,0.5135372687596864,0.5762016335933816,0.2248772530310334,0.059859154929577496,0.7499999999999999,0.6183769964538044,0.34343246592317256,0.07568085432602327,0.2708333333333335,0.516666666666667,0.35164208820772713,0.38573821828700516,0.080525666696604,0.23412394797245606,0.6358071920428463,0.3940231598918592,0.6981809860583997,0.17171275176028516,0.25435540069686413,0.8989547038327527,0.7189105283306862,0.4300259192618951,0.1985412189772495,0.16417910447761186,0.9125799573560767,0.4734916781374586,0.5016803160433977,0.15416826833498795,0.19686520376175548,0.9708489028213165,0.5247500720616107,0.4685843448548968,0.07650522992175787,0.17399121344372104,0.7775232350766288,0.4747658158476924,0.558172353166339,0.0612201291072033,0.3643071553228622,0.8983385689354276,0.5615072103880355,0.563197026022303,0.0528213956218702,0.3768115942028985,0.826086956521739,0.5656594539450952,0.4536680195082025,0.10300666321457673,0.14678899082568808,1.0,0.46517265700655314,0.47982328538333124,0.07085535771614225,0.30434782608695654,0.782608695652174,0.4850074261414238,0.4522497115754394,0.04119164799757643,0.3448275862068966,0.5862068965517241,0.4541147936998685,0.5359549256505576,0.030191519832074888,0.4375,0.625,0.5368014731904374,0.5055147623582902,0.013081610827707707,0.47107438016528935,0.5454545454545455,0.5056833666815858,0.6213825231753811,0.05614193718180209,0.3670886075949368,0.7848101265822786,0.6239041914062978,0.50353524309352,0.05920040202870773,0.2745098039215686,0.7058823529411764,0.5069905325143368,0.6353066572664465,0.1927314492777198,0.12353522188533206,0.825469622914726,0.6637935471786442,0.46323412081567084,0.20224371776941974,0.2979661865932864,0.9165838199919574,0.5053081417137958,-0.58664846008274,0.9389051057653761,1.0,-0.6429559066406193,0.7927030714739205,-0.9146757586733238
17,0.2699179196969334,0.16444124853173517,0.12195121951219523,0.6968641114982579,0.3159206644646049,0.5482880218405197,0.07818439237256107,0.31638418079096053,0.7570621468926553,0.5538158912088266,0.5772402873617553,0.2235868852725914,0.03873239436619702,0.7183098591549295,0.618893924082422,0.4354166666666671,0.09715561089892474,0.35416666666666696,0.7000000000000004,0.4460887928762112,0.36535074431430137,0.06953849292152109,0.16755929609793418,0.6840091813312932,0.37188780770074853,0.6469065937063967,0.19502893592903145,0.13821138211382122,0.8524970963995354,0.6755714531323121,0.405525106967559,0.1983111324585629,0.0,0.9381663113006395,0.4512714779542774,0.498780770444552,0.14256194528216415,0.14420062695924762,0.9084639498432603,0.5186886967859665,0.4709245891136187,0.07292668092115435,0.0326233525206977,0.7541902883904363,0.476519068637405,0.5579900441570919,0.07179462582260422,0.354715532286213,1.0,0.5625744935579295,0.5604513179651769,0.048878737440014065,0.31159420289855067,0.7971014492753623,0.5625715897240127,0.4510498122036821,0.0881882285217376,0.1926605504587156,0.7339449541284404,0.4595617465305208,0.47743410174107637,0.05727162038211953,0.30434782608695654,0.6956521739130435,0.4808454566343472,0.45070585512612804,0.04862293074108211,0.31034482758620685,0.7241379310344828,0.45331228057198153,0.5342911073825504,0.0413369948966549,0.390625,0.828125,0.5358824502858146,0.5063231460424865,0.012957308641435012,0.47107438016528935,0.5454545454545455,0.5064883578821239,0.6248831874946911,0.062217076096342014,0.32911392405063294,0.8481012658227849,0.6279625568117485,0.5027306224503221,0.05451141683889061,0.18627450980392152,0.7058823529411764,0.5056674815101296,0.6893773530034885,0.16869979504751284,0.2190757599395925,0.8364475708225036,0.7096515015130892,0.43501735236353445,0.18955794440334992,0.2992439521277635,0.8968293060290633,0.47439617751781377,-0.5355331257536254,0.9253062582051117,1.0,-0.6261979305475935,0.6296882179645072,-0.9341713860036738
18,0.38449238699823457,0.2364641050488097,0.16027874564459932,0.8501742160278747,0.4511742213106337,0.46182571008435813,0.10596380540979934,0.22033898305084754,0.6129943502824858,0.47378567029150565,0.5575077175381051,0.20483661617627252,0.0845070422535209,0.7200704225352111,0.5938259025384385,0.3409389269406397,0.09149536623192708,0.16250000000000053,0.5750000000000002,0.3529618743721117,0.40431396799111236,0.08931760598470215,0.20198928844682484,0.6067329762815608,0.41402910378938684,0.7057896997756671,0.13173116101234758,0.3275261324041812,0.875725900116144,0.7179364670154329,0.4539752314747203,0.19901270874852367,0.19402985074626844,0.950959488272921,0.49554407659681043,0.48433778503027464,0.1089295760864701,0.21379310344827585,0.7865228840125392,0.4963951115371895,0.4626833909099919,0.07011264741790528,0.06728747698241233,0.710920848497151,0.4679475063268369,0.5647861770541965,0.07978713793620436,0.3459895287958116,0.7936265270506109,0.5703749747708973,0.5600059559261452,0.06006984964407029,0.1739130434782608,0.7753623188405796,0.5632075106209544,0.452243307779314,0.07560870590748543,0.2018348623853211,0.8440366972477065,0.4584987548306367,0.4814869962279141,0.060971995651548094,0.34782608695652173,0.7536231884057971,0.4853190500458302,0.45305857345300016,0.04779835558403275,0.1896551724137931,0.6724137931034483,0.45556440765236783,0.53515625,0.040785661528516724,0.375,0.78125,0.5367028836187431,0.5059719234688097,0.01252647432449001,0.47107438016528935,0.5454545454545455,0.5061264293888951,0.6228541702791753,0.04492656038087042,0.40506329113924056,0.7848101265822786,0.6244668133274478,0.502450980392157,0.0376899388431871,0.3627450980392156,0.6274509803921569,0.5038577719487645,0.6275582377075111,0.18375452717433366,0.1632103602712336,0.7939797616279045,0.6538191125401537,0.4951860054654892,0.20750067288987845,0.29942315037790773,0.9195495600189887,0.536766481247969,-0.7727452439681125,0.7387598336114997,1.0,-0.5210663047724012,0.832891227221749,-0.7821365055804178
19,0.3765272938443679,0.28657970629908286,0.1254355400696867,0.9268292682926833,0.47289213496528226,0.4479378531073448,0.14162236981749526,0.07909604519774005,0.6525423728813559,0.4697215766391455,0.5632100938967138,0.225395262327716,0.0369718309859155,0.76056338028169,0.6064975603682662,0.3834305555555561,0.14267682768018408,0.08333333333333348,0.704166666666667,0.4090327768040113,0.40232593726090315,0.09936550436469266,0.1140015302218822,0.6931905126243307,0.4143751338730662,0.7143476577622915,0.17346564088373198,0.21254355400696867,0.9500580720092915,0.7350391850931844,0.46836886993603355,0.22299571642136887,0.08955223880596996,0.9616204690831556,0.5185853168980933,0.47997602507836984,0.11680241078343498,0.1391849529780564,0.7949843260188088,0.4939375586086817,0.45439231152160175,0.07449701239032681,0.14522104133741243,0.689849787585727,0.46043857166348656,0.5718513554392095,0.10307500712288588,0.28926352530541016,0.9053193717277488,0.5810361563225354,0.5603381642512063,0.07829522539091294,0.15217391304347822,0.8913043478260869,0.5657637022889477,0.44886850152905206,0.08173165916770136,0.1559633027522936,0.8165137614678899,0.45622442820926884,0.48033816425120857,0.06255694445658509,0.2753623188405797,0.7971014492753623,0.48438112965408286,0.45132183908046,0.03692801430425645,0.27586206896551724,0.5689655172413793,0.45282506012508766,0.533125,0.027699659059998077,0.40625,0.65625,0.5338417173345178,0.5059504132231395,0.012873355356180661,0.46280991735537197,0.5537190082644629,0.5061136152168461,0.6238396624472582,0.04379384809569609,0.3924050632911393,0.7974683544303798,0.6253698366323456,0.501895424836601,0.04330885729418768,0.32352941176470584,0.6470588235294117,0.5037543274272097,0.6491847260170012,0.21557651500931516,0.15371358935754809,0.8656750988411819,0.6839291860550468,0.502910259163404,0.22973616206292366,0.2617355501849635,0.9836672872800414,0.5527399966687236,-0.7188461846669819,0.5560500102921605,1.0,-0.27369798133790446,0.7936698990213013,-0.5788658147454021
20,0.34285433292120904,0.2494278124629383,0.14285714285714324,0.8954703832752611,0.4236891117170848,0.47867687260798203,0.08891725099723749,0.1694915254237288,0.6497175141242937,0.4868325643826162,0.5595254997728294,0.2501220986078564,0.0369718309859155,0.7940140845070421,0.6126806564208966,0.4161122311827961,0.06960796536421067,0.2958333333333334,0.5916666666666668,0.42187097601957235,0.3959665078855793,0.09065401406321577,0.06732976281560826,0.7214996174445296,0.40617051583071495,0.686621895020793,0.17853837100535752,0.24854819976771203,0.9372822299651569,0.709363830898544,0.45806967466813425,0.22520843804388035,0.02238805970149249,0.976545842217484,0.5102373525750918,0.5011464253210641,0.1694786418422867,0.18714984326018808,1.0,0.528918643142698,0.47244843873287606,0.09652662881650786,0.12958720584610478,0.980969711029593,0.4821694175396855,0.5583870123289986,0.0607034285287079,0.23996509598603843,0.9040139616055847,0.5616636923283906,0.5593443197755948,0.05745548500829277,0.20289855072463764,0.7826086956521738,0.5622756350790763,0.4475806451612903,0.07970595477811755,0.21100917431192662,0.8899082568807339,0.45459416632467986,0.47452080411407266,0.06646843188814168,0.2463768115942029,0.6956521739130435,0.479134877928087,0.450431034482759,0.03683066591358956,0.3448275862068966,0.5689655172413793,0.4519282520788473,0.534211189516129,0.030580065039668147,0.421875,0.65625,0.5350822036423359,0.5054985337243394,0.018844567204805627,0.347107438016529,0.5867768595041323,0.505848251340589,0.6237239689669261,0.05379696997372362,0.4556962025316456,0.8354430379746836,0.6260303775598901,0.5035183428209992,0.05031263014281108,0.21568627450980388,0.7254901960784313,0.5060156867225425,0.6579193196934827,0.23047689417578235,0.10947068335129151,0.8671941278921014,0.6969671714251755,0.4951783850366349,0.22668296653494557,0.29525688934404565,0.9779847430555173,0.5444075698126022,-0.6208965829592353,0.9136541628478296,1.0,-0.6558533362558072,0.7426852499153859,-0.9023063061278783
21,0.2619560813548338,0.17024220479406854,0.05226480836236913,0.6515679442508713,0.31219960754761994,0.5229404808829329,0.0877571122077179,0.3305084745762713,0.6836158192090395,0.5302190464696107,0.5518997707173265,0.20915248834637448,0.1390845070422534,0.7693661971830985,0.5900293690008918,0.49294573643410833,0.0745909468166336,0.3875000000000002,0.6791666666666671,0.4985312730737747,0.3834451344282131,0.0877240246278384,0.07421576128538637,0.6243305279265494,0.3933063469732013,0.6213596953245283,0.16800954097293022,0.23461091753774688,0.8931475029036005,0.6435711207800996,0.42986562205583345,0.18107290710679255,0.09168443496801704,0.8283582089552238,0.4662824800369655,0.5121584486403732,0.1644104153888533,0.22946708463949844,0.9028213166144201,0.5377837266244706,0.4768780850985632,0.09372413743488214,0.1313996143194769,0.6859966071713379,0.4859589130535332,0.5503144770485814,0.07741725314375364,0.3472949389179756,0.962478184991274,0.5557081772926594,0.5596225143242323,0.042025694261494884,0.3405797101449275,0.6956521739130435,0.5611909682307935,0.44941327074888016,0.07819183294533853,0.11009174311926606,0.7339449541284404,0.4561335480191749,0.4819009100101118,0.06773430636740696,0.2898550724637681,0.7681159420289856,0.48661595133044433,0.4550120288692864,0.06971855031401912,0.1896551724137931,0.9137931034482758,0.4602977458961581,0.5365552325581395,0.060911976756043984,0.3125,0.921875,0.5399856752110556,0.5065154718431669,0.01868703530220066,0.42148760330578516,0.6115702479338844,0.5068584657419158,0.6219605534294973,0.05412848228580403,0.3924050632911393,0.8734177215189873,0.6243005647998998,0.5015959872321024,0.04390232268887313,0.3137254901960784,0.6372549019607843,0.5035047007018273,0.7117909745928425,0.16432278983837326,0.29329301530542606,0.895427306949439,0.7304264372069819,0.46286140204827736,0.18306323613237013,0.22324373985418117,0.8142215677690481,0.4975911529273509,-0.5355419850205667,0.8639968297769347,1.0,-0.6827906512167847,0.7065592598007633,-0.8965475486078067
22,0.35126306620208886,0.20792525874226164,0.17770034843205584,0.7735191637630665,0.4080055644457631,0.45664626490897703,0.09142331815607119,0.22881355932203395,0.5988700564971752,0.46567694032450285,0.5344104557902971,0.19731552942720823,0.09683098591549288,0.691901408450704,0.5695548857936653,0.41953124999999947,0.11859252170975261,0.20416666666666705,0.7708333333333335,0.43591492513122343,0.41373374139250174,0.09389273175700175,0.04896710022953327,1.0,0.4242179195534374,0.6615410052910049,0.1519269284801449,0.2845528455284553,0.9407665505226481,0.6787032843364855,0.47050832148779864,0.18625237930644042,0.16311300639658843,0.9402985074626865,0.505912619110726,0.48932873563218376,0.10396216549627435,0.1909115987460815,0.7260188087774295,0.5002131696931418,0.4758085506612468,0.08364916901154297,0.0,0.8482071655381405,0.48308039142850634,0.5541952928058949,0.09329345114752616,0.0,0.8014869109947644,0.5619660750665375,0.5627012882447655,0.07559182694910514,0.2681159420289855,0.8695652173913043,0.5677385167349868,0.454128440366973,0.05718340176358085,0.21100917431192662,0.8165137614678899,0.45770211691019047,0.4815821256038654,0.04965379071734678,0.3623188405797102,0.6521739130434783,0.4841263077684956,0.44983237547892746,0.06288242349019045,0.22413793103448276,0.8620689655172413,0.4541911881077577,0.5337456597222222,0.057780287382603185,0.359375,0.953125,0.5368532375375172,0.5063705234159775,0.01406181976722828,0.46280991735537197,0.5454545454545455,0.5065650552304776,0.6224507735583694,0.040742975787146994,0.3670886075949368,0.8101265822784811,0.6237781590637594,0.502927559912854,0.03058027806781937,0.3627450980392156,0.6274509803921569,0.5038531897945692,0.6583880997728779,0.17286522238862154,0.23012964914732637,0.8178610576262253,0.6806272965084278,0.5141056930471758,0.18906386181313156,0.3370030899378235,0.9256905134395215,0.5476547200421269,-0.6158251921367248,0.6783529844690708,1.0,-0.4745540822990574,0.6690163972487541,-0.7798296807909134
23,0.3517615176151744,0.34874646691123695,0.03832752613240453,0.9512195121951219,0.4949486389614613,0.410904851582818,0.17066942398396887,0.016949152542372836,0.5451977401129943,0.4448352271685205,0.5641292197630229,0.21537919481814244,0.10387323943661952,0.7429577464788731,0.6037240346646042,0.4658994708994725,0.15284792761785257,0.17916666666666714,0.8250000000000004,0.4902556877077572,0.4101529007420365,0.11037595932754037,0.1323641928079572,0.765876052027544,0.4246993980013211,0.7144590085356637,0.12695360379561424,0.16144018583042985,0.9384436701509873,0.7256154123394583,0.4838528446204348,0.2386190485313783,0.2025586353944563,0.9498933901918976,0.5393253810821403,0.4800647101557445,0.1125158523840844,0.16426332288401252,0.7504702194357367,0.4930332170141059,0.45578440233212697,0.06430685406432117,0.09537980831967985,0.6048949528048834,0.46028433030625354,0.5742498130142112,0.07211783718844172,0.2866527050610821,0.8058429319371728,0.5787463340119114,0.5595583160800541,0.09304175938754458,0.15217391304347822,0.8985507246376812,0.567216710154029,0.448929663608563,0.07575882648924467,0.22018348623853212,0.798165137614679,0.45525709477385157,0.48189556015643037,0.07002824505893963,0.30434782608695654,1.0,0.4869411852504016,0.45309250136836376,0.04411202911731712,0.27586206896551724,0.6551724137931034,0.45522797425078665,0.5346726190476191,0.0343990320494228,0.375,0.6875,0.5357745295160785,0.5056539420175783,0.012647019331857454,0.47107438016528935,0.5454545454545455,0.5058115740148021,0.6242314647377956,0.04597345470968447,0.40506329113924056,0.9367088607594938,0.6259167439819696,0.5034858387799563,0.06575780953891316,0.0,0.7843137254901961,0.5077483157027797,0.7025495863333383,0.24630479752289042,0.131264227130387,0.9574168821657323,0.7443449360979054,0.5195619283127502,0.25119208625981454,0.29949896629195655,0.9617795736873231,0.5769243903159799,-0.8001116731177967,0.31706354655246655,1.0,-0.1911930971792019,0.9075998646065465,-0.2886341490796349
24,0.2768756810568657,0.2254865888083363,0.0836236933797907,0.8153310104529616,0.3568025151732041,0.4508649084920275,0.08454366296532738,0.20338983050847448,0.6016949152542372,0.45869292519771154,0.558730762956114,0.21914439974180844,0.07394366197183078,0.7975352112676055,0.6000157593995253,0.5320624195624203,0.1251062488463734,0.2958333333333334,0.8833333333333337,0.5465176676241229,0.4025222074189176,0.08435149696321007,0.2677888293802601,0.7199693955623567,0.4112320887127261,0.6613348041919468,0.15373864467390713,0.24970963995354245,0.8989547038327527,0.6789020820938758,0.4595664808884425,0.19775372153638385,0.2569296375266523,0.9392324093816631,0.5001568696493522,0.5103774004187795,0.14919281716307453,0.14921630094043886,0.7912225705329154,0.5316555721607874,0.4891918595176583,0.10178466018825921,0.2319882845916281,0.8887616175383144,0.4996286541182907,0.5648671019561072,0.08482215179183075,0.3752181500872601,0.938478184991274,0.5711758583538117,0.5585305802697093,0.08224173754261442,0.3260869565217391,0.7898550724637681,0.5645298909761367,0.4547837483617304,0.07433836877460741,0.25688073394495414,0.8165137614678899,0.46079617423892205,0.48128252476078626,0.07187006144712473,0.2753623188405797,0.7681159420289856,0.4865986345101615,0.45167088270536565,0.03980217411371865,0.3448275862068966,0.5689655172413793,0.4534144712018636,0.5334821428571429,0.030448078695747914,0.453125,0.640625,0.5343469872311722,0.505472414563323,0.01319015751997726,0.47107438016528935,0.5454545454545455,0.5056438177229501,0.6222081032207621,0.037578663085551176,0.4683544303797469,0.7721518987341772,0.6233374906849568,0.502195472783708,0.03588726755906807,0.38235294117647056,0.696078431372549,0.5034711672836729,0.7341465376752093,0.2082231943382917,0.19831328339282495,0.9162567325385811,0.7629945191728517,0.5013650459728552,0.20208415090521697,0.28916823493710314,0.9686689760774576,0.5404139503002713,-0.5896664197488753,0.817802897544677,1.0,-0.7151172730290456,0.7613197942868266,-0.8894488026073903
25,0.3338525654164106,0.16515987616246847,0.17770034843205584,0.6898954703832754,0.3723282804521275,0.4248476791846681,0.1362993337337192,0.12429378531073443,0.632768361581921,0.446094391256861,0.5087752002209329,0.18543349683655916,0.10211267605633778,0.6654929577464788,0.5413898232237669,0.5037908496732032,0.08270883351123258,0.43333333333333357,0.7875000000000005,0.5105087118553167,0.43014537107880674,0.07179936880388453,0.30833970925784243,0.6266258607498087,0.43607335776123446,0.6314408690305394,0.1502290536778562,0.22996515679442509,0.8246225319396051,0.6489975613792446,0.5048078933065764,0.17548164493742655,0.19083155650319827,0.8773987206823026,0.5343257965177554,0.4999728071792981,0.12102315144686568,0.21755485893416926,0.7915385579937304,0.5143558820946108,0.4583830501853772,0.05701888811782413,0.22859183111252881,0.5980947962127913,0.46190196435766945,0.5575266057557403,0.08138351683698378,0.3267923211169285,0.9594205933682374,0.5634121220773586,0.5580846831486209,0.085130433858477,0.2826086956521739,0.9130434782608695,0.5645150874671762,0.45486598309048376,0.08578519940258778,0.14678899082568808,0.7064220183486238,0.46285343662115747,0.47922705314009717,0.06582550036027844,0.33333333333333337,0.7391304347826088,0.4837091820669668,0.44989858012170425,0.044601200227106265,0.2586206896551724,0.7931034482758621,0.45209534216791303,0.5344362745098039,0.03188027180186155,0.421875,0.65625,0.5353825712040121,0.5063684978123473,0.013060361430546156,0.47107438016528935,0.5371900826446282,0.5065362373054324,0.6231819310002485,0.054505018256774805,0.379746835443038,0.8734177215189873,0.6255516493112274,0.5014609765474815,0.044953893487030466,0.24509803921568624,0.676470588235294,0.5034640390610607,0.6895131814448802,0.15166530800373906,0.2788548126697892,0.8178564662494083,0.7059324243032133,0.5513170613324101,0.17782670856757482,0.3736105196981578,0.9022289027485653,0.5791794464813609,-0.4371654554783954,0.8994121071858896,1.0,-0.3362189441340075,0.7219920862825423,-0.7198969868805188
26,0.45507831580318303,0.23632073005112403,0.25435540069686446,0.8850174216027877,0.5126107502330325,0.37439498741573823,0.11761324941739844,0.07344632768361592,0.5762711864406779,0.39237914058666923,0.5043547891711633,0.18956631728816803,0.06514084507042228,0.6602112676056338,0.5386995394084167,0.3680425752855656,0.09168471557773085,0.16666666666666652,0.5916666666666668,0.37925616291138337,0.44743973857517744,0.07295307039729898,0.36036725325172153,0.586840091813313,0.45332978087544396,0.7021068742062591,0.1304321469154199,0.32288037166085953,0.9094076655052266,0.7140823546162258,0.5341417080153301,0.19326010541615857,0.34434968017057566,0.9669509594882728,0.5679264733247223,0.489251824724851,0.09530162292307756,0.2288401253918495,0.7169253918495297,0.49841895354154925,0.462783609178515,0.059435540631096746,0.31264046165668635,0.8108280531833143,0.4665728747810065,0.5601700401776734,0.07190301141176887,0.39267015706806285,0.7582897033158814,0.5647516364824646,0.5583773533793845,0.10419816053064766,0.02898550724637672,0.8913043478260869,0.5679865334631388,0.45005573180142344,0.06424268661727532,0.27522935779816515,0.7889908256880734,0.4546035937284229,0.48011196893765007,0.05512585155328689,0.2898550724637681,0.7101449275362319,0.4832565523348936,0.4537007197335916,0.03788718546744734,0.3275862068965517,0.6896551724137931,0.4552749829909282,0.5351440809968847,0.03582334009168701,0.40625,0.75,0.5363380475647577,0.5062176565999845,0.01257245196811045,0.46280991735537197,0.5371900826446282,0.5063732713946464,0.6214756102369979,0.04540894576464701,0.4303797468354431,0.7974683544303798,0.6231271803452422,0.5024738867509625,0.043065339269648145,0.2549019607843137,0.676470588235294,0.5043102742061607,0.6072631961311454,0.17636011737090695,0.171862305771733,0.768775187056614,0.6322773020068501,0.5856427473747979,0.1939558100106131,0.40886908360809576,0.9591546383522125,0.6168298720806372,-0.7647501829963107,0.6716358333406692,1.0,-0.37914404593122225,0.874198210526091,-0.6495230963778239
27,0.4294549527127919,0.28019950710760144,0.17770034843205584,0.9477351916376306,0.5125065082869893,0.35234059725585143,0.1505479750827061,0.031073446327683607,0.5988700564971752,0.38305044569179053,0.4741385814889335,0.19801575921524944,0.07746478873239415,0.6901408450704225,0.5136901778108041,0.4907440476190481,0.13508921475136462,0.20833333333333348,0.6916666666666669,0.508933827597475,0.4581648267570229,0.07558839923463372,0.3312930374904361,0.6977811782708492,0.46433631005993875,0.659283225485316,0.17393114199286983,0.24854819976771203,0.8954703832752614,0.6817612269362122,0.5771283886689004,0.20118572694894934,0.3272921108742003,0.950959488272921,0.6110714505487841,0.48307543215405346,0.10710007002339708,0.15140815047021938,0.7137956112852665,0.49476391576819084,0.45566487687014645,0.052909749410725425,0.23448215865098812,0.5584501732662501,0.45871551487838186,0.5754378209922716,0.1003154631957509,0.35907155322862133,0.8394415357766143,0.5840855570997495,0.5588768115942024,0.10986816304363207,0.01449275362318836,0.8695652173913043,0.569535945333282,0.45334207077326405,0.06277334769931649,0.3119266055045872,0.8623853211009175,0.4576521092756336,0.4826086956521745,0.04947023041567447,0.33333333333333337,0.6811594202898551,0.48512855661785603,0.45344827586206915,0.03549977191439804,0.27586206896551724,0.6551724137931034,0.4548308167365487,0.5352120535714285,0.026705196455392984,0.453125,0.625,0.5358755105236824,0.5059622195985827,0.013588651372863771,0.46280991735537197,0.5454545454545455,0.5061440107694721,0.6159584086799286,0.09640447839159746,0.0,0.8987341772151899,0.6234303429019503,0.5025910364145658,0.09227641438334835,0.08823529411764702,0.8627450980392156,0.5109621082308099,0.650122038488541,0.2087234692663786,0.25986391489504346,0.853862845011975,0.6826921418380597,0.6244937738633527,0.19658827377380841,0.3886089828204791,0.917226150925774,0.654600181912765,-0.6930771702059022,0.4539400850189012,1.0,-0.040061553018148004,0.7830992686685669,-0.40673161888445974
28,0.21347947182661836,0.23562127183820888,0.0,0.770034843205575,0.3176652337374597,0.465288062457719,0.11460163696190383,0.2005649717514124,0.6694915254237288,0.4791492595317891,0.5698527735995256,0.21542830452190764,0.05633802816901379,0.7447183098591548,0.6090905892253257,0.6211434735706581,0.09868169867292768,0.39166666666666705,0.7833333333333337,0.6289084015959607,0.3937226237610277,0.0772367494309089,0.24024483550114772,0.6365723029839327,0.401202834048611,0.6398858856827124,0.1599740637327107,0.19047619047619047,0.8571428571428572,0.6595171163237951,0.4491792079822802,0.19487685551429745,0.255863539445629,0.9243070362473347,0.48950592113099556,0.49846211157439846,0.138327440649968,0.1366771159874608,0.82037868338558,0.5172398221577444,0.4738073777436056,0.07603724027743478,0.29021371920718003,0.9320346822485465,0.4798503748391942,0.5588919726415783,0.056718091606318875,0.3730331588132636,0.7460732984293195,0.5617532983288994,0.5602223160264519,0.09205385683843945,0.22463768115942023,0.7898550724637681,0.56771078223655,0.44541432855319024,0.08559539052263236,0.2018348623853211,0.761467889908257,0.4535380737863614,0.4795272266779237,0.07920222470438044,0.2898550724637681,0.8840579710144928,0.48600314050144916,0.45296283896886513,0.037217532199595706,0.3793103448275862,0.6206896551724138,0.45448431823421603,0.5360538025889967,0.039992905820053666,0.390625,0.859375,0.5375387759306723,0.5064591189922169,0.015791374702227245,0.4545454545454546,0.5867768595041323,0.506704450060139,0.6218098398263083,0.039276595517882214,0.4556962025316456,0.7974683544303798,0.6230450509091461,0.5021257694016118,0.05644231931962562,0.14705882352941174,0.7058823529411764,0.5052778580979036,0.7936274088863082,0.22880827354663633,0.19532398647360028,0.9945112623808772,0.8258500240739782,0.4845339612356389,0.19487921520382415,0.30636205819170664,0.9076814814559031,0.522138068193028,-0.6386249153856352,0.8802742904157667,1.0,-0.5169743104937453,0.7850132214029792,-0.8770691135022696
29,0.28628315437673424,0.14598325474902835,0.11149825783972123,0.5749128919860627,0.32121981729314264,0.35280756370344696,0.1232905692872791,0.1384180790960452,0.5367231638418078,0.3736464884904403,0.550632365622304,0.1808985032439868,0.1390845070422534,0.7112676056338028,0.5794710537239728,0.5885714285714302,0.08817347505398981,0.5,0.7750000000000004,0.5951127248923505,0.4354293209250038,0.07238546455813555,0.2769701606732976,0.633511859219587,0.441380745673859,0.6749721491384012,0.15259985771309825,0.2868757259001162,0.8141695702671312,0.6919386322961152,0.5090553065575909,0.16447233792685295,0.3038379530916844,0.8390191897654584,0.534862638647211,0.4916126978440277,0.11980781065612392,0.1708489028213166,0.7793103448275862,0.5059430489510092,0.457678397955189,0.048326925208621835,0.2557779582131102,0.575214951644942,0.46021242381726724,0.5575240944545354,0.07981622054081038,0.32330191972076794,0.7604677137870856,0.5631853534948968,0.5527358769594788,0.08726178713693389,0.23188405797101447,0.7898550724637681,0.5595538303799982,0.44969106908818607,0.08767474822706028,0.23853211009174313,0.8073394495412844,0.45812393972543186,0.48186926944690966,0.06147223010988722,0.33333333333333337,0.7101449275362319,0.48575858622915746,0.4515130190007041,0.03390131728259979,0.3448275862068966,0.6206896551724138,0.45277877006659617,0.5341198979591837,0.04675461288815802,0.125,0.84375,0.5361540233911047,0.5056501939618816,0.014764354977472126,0.44628099173553726,0.5454545454545455,0.5058648189902989,0.6222164815293207,0.06171574350626206,0.2405063291139241,1.0,0.6252572563562374,0.5036814725890354,0.06771868416258263,0.14705882352941174,0.803921568627451,0.5081949708337974,0.7705082023006071,0.12733991637949096,0.4252502996976719,0.9165756830376655,0.7809175107450715,0.5566536434071623,0.1658346214139626,0.3742261040327293,0.854981168628294,0.5807341482139823,-0.41940837430932804,0.8587918434162606,1.0,-0.40218473223925283,0.7401449865338375,-0.7986977496097514
30,0.45670731707317225,0.1780947007358691,0.28919860627177707,0.7526132404181185,0.49008776593408815,0.36482041969330115,0.099743022047827,0.1694915254237288,0.5084745762711863,0.3781627666845944,0.48174044265593585,0.15319390392565455,0.14788732394366177,0.6249999999999999,0.5054289373149498,0.3807886904761894,0.07662945496511848,0.20000000000000018,0.5291666666666668,0.38839558245714206,0.4612443982948956,0.06301453840693552,0.3351185921958683,0.6465187452180565,0.4655137435844632,0.6786253525800564,0.11339987491133714,0.3344947735191638,0.8559814169570268,0.6880014345156803,0.5504188242461164,0.1569086954732627,0.3006396588486139,0.8816631130063965,0.5722702954185831,0.4928190237348859,0.08267665412991754,0.3106557993730408,0.7025103448275862,0.49968150560752406,0.46083154854251307,0.045403222910822924,0.2899853557395351,0.6481643926981688,0.46305486332818613,0.5520861879830468,0.08264280974395762,0.35558115183246075,0.8372565445026179,0.5582155503922598,0.5604813664596262,0.09543394774083273,0.04347826086956519,0.8768115942028984,0.5685195451784553,0.4537352555701184,0.08766285057411642,0.10091743119266056,0.9724770642201835,0.4620963231748722,0.4826086956521747,0.06252441049020216,0.33333333333333337,0.8260869565217391,0.48662767413466523,0.4534482758620698,0.03446421451683673,0.3275862068965517,0.6724137931034483,0.4547514473706271,0.5352120535714285,0.02522226376449429,0.453125,0.609375,0.5358039127034282,0.5066706021251468,0.01235550801426355,0.4793388429752067,0.5371900826446282,0.5068206906065911,0.6235985533453894,0.04675525869968231,0.40506329113924056,0.949367088607595,0.6253426281759864,0.5010854341736698,0.04303382018211606,0.30392156862745096,0.6470588235294117,0.5029233620118878,0.6058052665756913,0.1301183767071135,0.3047473591152241,0.7317295940579536,0.6195727123216509,0.6029847302432019,0.15634067711432467,0.44608942080373354,0.8623265555076185,0.6228528701990323,-0.7105974741640354,0.6352047773276287,1.0,-0.293836311889608,0.8272052707055696,-0.6235086544426446
31,0.4805500248880037,0.24990143575489143,0.250871080139373,0.9198606271777001,0.5414388383736334,0.3368543179983856,0.148868143546067,0.02824858757062154,0.5451977401129943,0.36817578234064113,0.485557092555332,0.16595937395042812,0.14612676056338014,0.6390845070422534,0.5130398013917471,0.38683035714285746,0.1199476168815826,0.15416666666666723,0.6583333333333337,0.4049367510135728,0.4629932233030931,0.07352497154456517,0.3006885998469778,0.6304514154552412,0.4687742947335414,0.7028247884519655,0.14655104442618083,0.3321718931475029,0.9303135888501742,0.7178880048924388,0.5687861711848917,0.18323090010484952,0.3304904051172708,0.9051172707889126,0.5974708074066385,0.48555871025526176,0.09034734975171851,0.21692789968652038,0.7040752351097179,0.49386309075827456,0.45317025195584754,0.04776196471421073,0.23788223694703417,0.6019479766271804,0.4556713018935881,0.5663534779356767,0.09343143672693945,0.2966841186736475,0.8267853403141362,0.5739812878404236,0.5583850931677014,0.13268444590499762,0.0,1.0,0.5738782090982257,0.4525557011795547,0.0881848711462332,0.2018348623853211,0.7889908256880734,0.4610373745148612,0.4820393374741207,0.06475527500831922,0.30434782608695654,0.7681159420289856,0.4863539787403824,0.4524630541871929,0.03331168211029007,0.3620689655172414,0.6206896551724138,0.45368328211300635,0.5340401785714286,0.025465250885396157,0.453125,0.65625,0.534644812314513,0.5061097992916168,0.013266833094589685,0.47107438016528935,0.5454545454545455,0.506283032696424,0.6242766726943944,0.04117951781847168,0.4303797468354431,0.8227848101265823,0.6256285323564985,0.5021358543417369,0.06652893958639651,0.24509803921568624,0.8137254901960784,0.5065083499002773,0.6089840439630073,0.16121032665865254,0.2874804926837038,0.7875640882557051,0.6298869090473938,0.6181841873957811,0.1835530799950751,0.4348245271748287,0.9078670528183435,0.6447659227218627,-0.7426092248915538,0.3065968232125486,1.0,-0.003873114589284858,0.8384276140033662,-0.2625793392546169
32,0.29133377913865743,0.18303469832679065,0.12195121951219523,0.770034843205575,0.3438957273933855,0.3971351937453631,0.08770444458274301,0.13559322033898313,0.4802259887005649,0.40667251257798864,0.5638130127566742,0.1789996245552248,0.11267605633802802,0.7464788732394365,0.5914542224402018,0.5178451178451171,0.05742548991029071,0.41666666666666696,0.6500000000000001,0.5210087807749454,0.4210222603489625,0.06579736723630343,0.30757459831675593,0.6411629686304514,0.42611554829490655,0.6865871256115158,0.12928394354259942,0.35191637630662026,0.9465737514518002,0.6986128698219719,0.4755120501389156,0.168899571908832,0.2526652452025585,0.9296375266524519,0.5045222735351528,0.4987375616140506,0.11478850855033079,0.2642608150470219,0.8457680250783699,0.5117335166579045,0.46932804388327876,0.06657712691485729,0.23470689730168623,0.748075222201279,0.4740109727786457,0.563519382304723,0.05404178103788327,0.4258289703315882,0.856453752181501,0.5660960827898762,0.5615088078856185,0.1209886667575651,0.1739130434782608,0.9202898550724637,0.5743527763967609,0.45065332221295534,0.11937524370584268,0.11926605504587157,0.9174311926605505,0.466144703200926,0.48084711852827855,0.07315350398713677,0.2753623188405797,0.782608695652174,0.4863613556219188,0.4531522117729019,0.028455025185738954,0.3620689655172414,0.5517241379310345,0.4540417263525766,0.5346170033670034,0.027339357064606863,0.46875,0.734375,0.5353132392341202,0.5061913904889106,0.013273669803823931,0.47107438016528935,0.5537190082644629,0.5063648100745063,0.6271150321783233,0.044265439052421036,0.49367088607594944,0.8607594936708861,0.6286701005091342,0.5031689443454146,0.0490890131899144,0.18627450980392152,0.696078431372549,0.5055498038734868,0.7420791863371906,0.15525829252658824,0.28726079272579685,0.8813020975117412,0.7580933281030495,0.5210581507093924,0.17055526022875028,0.39528879737132044,0.9482262195341169,0.5481721902153992,-0.6557891747878033,0.825368146765495,1.0,-0.5633348060385849,0.8055655230724579,-0.7788492726470044
33,0.3041280340164181,0.0981151662360315,0.20209059233449533,0.4808362369337984,0.3195118376927896,0.34521689169778885,0.1070058314392912,0.12994350282485878,0.5112994350282485,0.36136703761636163,0.5102052995941756,0.12110440837597472,0.2411971830985914,0.6179577464788731,0.5243338719426661,0.5925847457627132,0.08780003291210317,0.5041666666666669,0.9083333333333337,0.5990320483992634,0.4551502340720763,0.05230493504478727,0.342769701606733,0.650344299923489,0.4581356435450983,0.6351424240634664,0.10836589126715107,0.3019744483159117,0.8002322880371661,0.6442897313256238,0.5310866972642834,0.11698693568009805,0.3272921108742003,0.788912579957356,0.5437762684260683,0.4997554816428458,0.06975667803413226,0.3633203761755486,0.6987485893416928,0.5045840273602339,0.4607330584042792,0.05019251621969583,0.25872493439081323,0.6026258173962216,0.4634497813457065,0.5415461886591539,0.09089399368437388,0.31283071553228625,0.8119581151832462,0.5490956079911072,0.5573569147629563,0.09408041673477047,0.25362318840579706,0.8985507246376812,0.565214871915226,0.44820401181775793,0.06975615801091034,0.1834862385321101,0.6605504587155964,0.45358159479916127,0.4804225006141002,0.052631971144803676,0.31884057971014496,0.782608695652174,0.4832871953928994,0.4541203974284048,0.04954864441762768,0.27586206896551724,1.0,0.4568063936277547,0.5353283898305085,0.03771486698506647,0.421875,0.796875,0.5366507937359015,0.5060932903768033,0.012801343805881707,0.47107438016528935,0.5454545454545455,0.5062546172245782,0.6245869984981766,0.03458272040056648,0.40506329113924056,0.7848101265822786,0.6255404296495511,0.5014622798271848,0.04443491984042134,0.18627450980392152,0.7352941176470588,0.5034204873650195,0.7543297547096067,0.09031976309930033,0.5202659955918558,0.9098207287037203,0.7596995362399264,0.5836872306893024,0.11605798738324814,0.44384226126597964,0.7998918227549388,0.5950752729956431,-0.26682248079539284,0.8511545184621679,1.0,-0.2725436233805851,0.7722432871359703,-0.6727109605632373
34,0.48314606741572885,0.2314938105145236,0.264808362369338,0.8571428571428572,0.5355546633736834,0.3548318838739707,0.13433976870748512,0.07627118644067798,0.5254237288135593,0.37932208854742766,0.461577517539695,0.1403939783437322,0.1531690140845069,0.6109154929577463,0.4823799870137987,0.3866104868913858,0.11107858635106947,0.15000000000000036,0.6583333333333337,0.4021938705253225,0.4677206284798936,0.07233336494424221,0.22111706197398623,0.7192042846212701,0.47326008288349425,0.6716560745061702,0.12073572620336903,0.3577235772357724,0.9059233449477353,0.6823814197825038,0.5702386941696007,0.1636789102989614,0.3198294243070362,0.8667377398720681,0.5931800856263184,0.4842483697885483,0.08735142187447081,0.26489278996865206,0.6909090909090909,0.4920347312463949,0.4541449795362113,0.05285523506679983,0.23402905653264508,0.5933390363786629,0.4571989447783011,0.5632993051878871,0.0834382259483026,0.3062827225130891,0.7696335078534032,0.5694224882300369,0.5655702111491062,0.10677756901153895,0.23913043478260865,0.8840579710144927,0.5755244659666227,0.45758169260900955,0.08051786142499276,0.1834862385321101,0.8532110091743119,0.46458567568163606,0.4820061879172779,0.04959648120339156,0.3623188405797102,0.6521739130434783,0.4845416012719846,0.45092341469714664,0.04253191371560082,0.24137931034482757,0.7241379310344828,0.4529173373382387,0.5327130149812734,0.03830514847892192,0.40625,0.8125,0.5340832756071285,0.5058656018819443,0.013637019671378056,0.47107438016528935,0.5371900826446282,0.506048692284045,0.6221969373725885,0.030424764002273886,0.4556962025316456,0.7721518987341772,0.6229375797185256,0.5031945362414626,0.027681758847427154,0.40196078431372545,0.588235294117647,0.5039525286318658,0.5950033966984439,0.14941142262897777,0.28306804701183874,0.7498401348096397,0.6134078624024986,0.6238685120822837,0.1653976772792968,0.4556583692557597,0.8993092403571668,0.6453416565056512,-0.7238606344066612,0.13191505892308203,1.0,0.14788155966092814,0.7959874878196074,-0.10762388031355467
35,0.48634920634920703,0.2965517305743484,0.15679442508710784,0.8710801393728225,0.5692869416747025,0.3269930947897044,0.16583134645144068,0.06779661016949134,0.5564971751412429,0.3664727781516636,0.457636932707355,0.17503022184297345,0.0933098591549294,0.6566901408450703,0.4898275029122708,0.4459814814814816,0.15604543045806574,0.19166666666666687,0.6833333333333338,0.47237848721675024,0.4710601037150388,0.09680129343332754,0.05432287681713846,0.9671002295332822,0.48086013049362103,0.6755762033810817,0.16578584574439764,0.29500580720092917,0.9186991869918699,0.6955328877238954,0.600113717128642,0.19936918574140994,0.16631130063965882,0.9211087420042643,0.6322245547354033,0.4791931006617902,0.12010532028181617,0.1965492163009404,0.7824451410658307,0.4939506081491601,0.45223995965981495,0.06648756010644706,0.056866128260522786,0.6087445084023257,0.45707978479719097,0.5779752879581154,0.1061965501743682,0.15052705061082033,0.881326352530541,0.587607877428295,0.5563285024154586,0.10973604913651312,0.13043478260869562,0.8405797101449275,0.5670007787276704,0.4492966360856276,0.10670128766288946,0.1834862385321101,0.9633027522935781,0.46173805480421887,0.48025764895330136,0.06607959572211217,0.30434782608695654,0.7681159420289856,0.48476232900735505,0.4528735632183914,0.03129508807776618,0.3448275862068966,0.5862068965517241,0.45394877903639974,0.5338888888888889,0.02556350447487014,0.46875,0.59375,0.5344978335108359,0.5059687786960505,0.012529893525248106,0.47107438016528935,0.5371900826446282,0.5061232117548146,0.6227848101265826,0.03755799111313493,0.4303797468354431,0.7088607594936709,0.62391125416644,0.5044880174291939,0.03246210210327406,0.392156862745098,0.6568627450980392,0.5055267196697479,0.6171466732458869,0.2002536436401548,0.2602228479682349,0.842096284631364,0.64868583235946,0.6480468903641146,0.1977766872894209,0.40523371372096567,0.9095088402736524,0.677426411468071,-0.6264403080811657,0.1558520011477449,1.0,0.19515352891344734,0.6387177216792304,-0.13276757874237763
36,0.21779786487960753,0.1376377625166208,0.0940766550522647,0.6271777003484322,0.2575258029092923,0.41232107723687306,0.07551994877626453,0.21468926553672318,0.5621468926553672,0.4191583377561291,0.5506063537776175,0.16248664350863853,0.1161971830985915,0.7570422535211268,0.5740077656190758,0.6434504792332262,0.0877821029211109,0.5541666666666671,0.9666666666666668,0.6493917138188406,0.417899684911181,0.05164646190074639,0.31522570772762054,0.6381025248661056,0.4210688563267245,0.6269958774439413,0.14406650802898194,0.25435540069686413,0.867595818815331,0.6432827361713247,0.4734395117066422,0.145323073749367,0.26865671641791034,0.8997867803837952,0.49517299483922683,0.5043797490159941,0.12331117759322734,0.18965768025078372,0.8413793103448276,0.5191878247768802,0.4707547684177411,0.06475909569784374,0.251700039148023,0.7671055111716858,0.47517406698153525,0.565942715041623,0.08470251640564516,0.3538359511343805,0.8734729493891797,0.5722261364328461,0.557137565402601,0.11737164657860938,0.1159420289855072,0.9275362318840579,0.5693279872738936,0.45173960195796836,0.07329339947277007,0.06422018348623854,0.8532110091743119,0.4576280451327527,0.4812705468352093,0.0615067120630179,0.33333333333333337,0.7681159420289856,0.4851724728137995,0.45295802577944294,0.031688224084621776,0.3620689655172414,0.5517241379310345,0.45406156910412937,0.5344948083067093,0.0246339512358204,0.453125,0.59375,0.5350603637921216,0.5061125339951942,0.013242237894667181,0.46280991735537197,0.5454545454545455,0.5062851900716854,0.6251061592591106,0.05629999361353683,0.21518987341772156,0.9113924050632911,0.6276282919226521,0.5035081125101798,0.047370199515579185,0.32352941176470584,0.7156862745098038,0.5057244170907127,0.8062930793522032,0.13635566419990325,0.3622203787280398,0.9224390240545945,0.817705322741118,0.5169010513729331,0.13712270679368307,0.39619062446106973,0.8691477697203458,0.5347235372667688,-0.46769280863351925,0.7875155680684601,1.0,-0.4935038954815447,0.678906665529965,-0.8449018278200763
37,0.21367120684193813,0.11239320527074195,0.08710801393728218,0.4668989547038329,0.2413331345528036,0.36222907036466434,0.13456788475529494,0.08192090395480212,0.5451977401129943,0.3863321962729732,0.5246734955185656,0.13763070047461323,0.17781690140845052,0.6654929577464788,0.5423611396940327,0.7358333333333332,0.10491277804713264,0.6291666666666669,1.0000000000000002,0.7432478463548416,0.4390957779787162,0.06639469616155742,0.21576128538638106,0.7620504973221118,0.44406905757603815,0.5967015098722417,0.12938175639204097,0.20441347270615562,0.8211382113821138,0.6105173702334502,0.5156076759061836,0.14144766733114844,0.19722814498933894,0.8432835820895521,0.5345895282458271,0.4977849962952407,0.11740313747008826,0.2228815047021943,0.8398094043887148,0.5113934663430264,0.4635994827715742,0.05658088371968719,0.17829749597645317,0.6581326393017153,0.46702701783420275,0.5427796541329527,0.09659422455636457,0.26308551483420595,0.9092495636998256,0.5512769433508616,0.5583926218708817,0.0994990467696768,0.14492753623188404,0.8188405797101449,0.567156398402249,0.45120934111759825,0.036313998098953144,0.3119266055045872,0.6055045871559633,0.4526629879651052,0.47947299077733924,0.04331111745417152,0.31884057971014496,0.7246376811594203,0.48141809323792545,0.4500940438871476,0.05641862189170158,0.2068965517241379,0.7068965517241379,0.453603499183978,0.5319886363636364,0.06050347738735498,0.0,0.796875,0.5354057045511469,0.5060856498873022,0.015041643519241801,0.4545454545454546,0.5537190082644629,0.5063083184489073,0.6231070195627164,0.03522674776852652,0.44303797468354433,0.759493670886076,0.624098364952712,0.5025668449197859,0.030782141113826492,0.3627450980392156,0.5980392156862745,0.5035052415053991,0.8409473170972223,0.10526407312890132,0.5193480996431727,1.0,0.847486060301989,0.561376411064203,0.13671145949982533,0.3782270652243797,0.8096844385560367,0.5777244449885428,-0.12507444388406705,0.7702341114187335,1.0,-0.04940756894754677,0.6261877397932757,-0.5918161301795728
38,0.4228602866050145,0.2149356379673661,0.18118466898954688,0.7630662020905925,0.4741671396131744,0.3725096639904844,0.14805839806311355,0.10734463276836159,0.5423728813559321,0.40075220291537467,0.46359737371598053,0.14720589639542142,0.15140845070422515,0.6285211267605633,0.48632359214699333,0.4646773182957398,0.1230988455555128,0.23750000000000027,0.779166666666667,0.4806468230681235,0.45856320219063346,0.07581674319716294,0.22417750573833206,0.6801836266258607,0.4647652948086368,0.6378140473134053,0.14114400195342197,0.12775842044134722,0.8896631823461092,0.6531871821266471,0.5626673293040706,0.1717123211045217,0.288912579957356,0.8486140724946694,0.5881911240106449,0.48862637471421533,0.08483126888752555,0.19498432601880877,0.6931009404388715,0.4959082821671073,0.4567909419258536,0.05136790637865224,0.20820223578709274,0.6132755295857559,0.45965933760776606,0.5598977811019699,0.0977176892909401,0.3346387434554974,0.9589877835951135,0.5683294595029433,0.5660618938650966,0.10038840133981577,0.10144927536231879,0.9347826086956521,0.5748617331380941,0.4543698696281995,0.03966819209736489,0.3394495412844037,0.6697247706422018,0.45609168840330827,0.4818568159529265,0.044224962196606696,0.37681159420289856,0.6956521739130435,0.483874452262418,0.4520352605652069,0.03133579929032578,0.3793103448275862,0.5862068965517241,0.4531160090269829,0.5347156954887218,0.02677088649206584,0.453125,0.671875,0.5353829107082865,0.5063070900391463,0.01575924270710884,0.44628099173553726,0.6280991735537191,0.5065513690574427,0.623013229275722,0.029562216514929133,0.4303797468354431,0.7848101265822786,0.6237115704128321,0.502948547840189,0.041173563000174766,0.18627450980392152,0.7352941176470588,0.5046247426535679,0.6399242678126502,0.13578800180339784,0.3691007337949983,0.8253788950413528,0.6541193566512783,0.6110805955420235,0.174862512381223,0.413412633039912,0.8592604253484466,0.6355166730613904,-0.7249571492583377,0.20205655293110136,1.0,0.1067579874015551,0.803317256381109,-0.22471393473976856
39,0.3017463082794083,0.3134797690522941,0.03135888501742201,0.8850174216027877,0.4347734251539293,0.33223197471078864,0.14804032563949893,0.0,0.5112994350282485,0.3636327777163109,0.5132513832998001,0.16653905015195195,0.1302816901408449,0.6566901408450703,0.5395180184963372,0.6704737103174573,0.21458028387726097,0.22916666666666652,0.8958333333333335,0.7038768760680808,0.4467929099719463,0.08317097634113604,0.16985462892119357,0.8638102524866105,0.4544455172769222,0.6429193628670984,0.15270255955175094,0.2833914053426249,0.9245063879210221,0.6607525859353063,0.5476063559752261,0.18879235425849697,0.2771855010660981,0.9147121535181235,0.579145227990412,0.4811240782206301,0.0813151441095874,0.24012539184952975,0.7075260188087775,0.48792709729982736,0.4559789715738409,0.046986835496528476,0.12414998042598852,0.6073852020472966,0.4583863157917826,0.576529086678301,0.08129974332906731,0.22862129144851662,0.8250401396160558,0.5822162523317864,0.5623706004140779,0.11584339226920083,0.13043478260869562,0.9057971014492754,0.5741432261939479,0.450442332896461,0.05060293067548147,0.29357798165137616,0.7155963302752294,0.45326739443334024,0.4791666666666674,0.0517278956495483,0.3623188405797102,0.7101449275362319,0.48194243018865146,0.45212438423645374,0.031217777020201343,0.3448275862068966,0.5517241379310345,0.45319764780725724,0.5339471726190477,0.025352978265036786,0.40625,0.609375,0.5345469517623244,0.5061737504919323,0.013818007590910553,0.46280991735537197,0.5454545454545455,0.5063617627299447,0.6238698010849912,0.06291812022308563,0.3417721518987342,0.9746835443037976,0.6270250686720559,0.5023634453781513,0.063186807686332,0.0980392156862745,0.7843137254901961,0.5063099063429966,0.7902562876722671,0.22657481359861972,0.3675907420676099,0.9813224079405445,0.8220026521937289,0.5929222586045036,0.19056076626946855,0.40210854112194155,0.912606038735551,0.6227054960234792,-0.7714147422563433,0.000965918153007167,1.0,0.17188980756695632,0.7781015197997497,-0.08659437678959891
