,Orientation X,Orientation X,Orientation X,Orientation X,Orientation X,Orientation Y,Orientation Y,Orientation Y,Orientation Y,Orientation Y,Orientation Z,Orientation Z,Orientation Z,Orientation Z,Orientation Z,Orientation W,Orientation W,Orientation W,Orientation W,Orientation W,Accelerometer X,Accelerometer X,Accelerometer X,Accelerometer X,Accelerometer X,Accelerometer Y,Accelerometer Y,Accelerometer Y,Accelerometer Y,Accelerometer Y,Accelerometer Z,Accelerometer Z,Accelerometer Z,Accelerometer Z,Accelerometer Z,Gyroscope X,Gyroscope X,Gyroscope X,Gyroscope X,Gyroscope X,Gyroscope Y,Gyroscope Y,Gyroscope Y,Gyroscope Y,Gyroscope Y,Gyroscope Z,Gyroscope Z,Gyroscope Z,Gyroscope Z,Gyroscope Z,EMG1,EMG1,EMG1,EMG1,EMG1,EMG2,EMG2,EMG2,EMG2,EMG2,EMG3,EMG3,EMG3,EMG3,EMG3,EMG4,EMG4,EMG4,EMG4,EMG4,EMG5,EMG5,EMG5,EMG5,EMG5,EMG6,EMG6,EMG6,EMG6,EMG6,EMG7,EMG7,EMG7,EMG7,EMG7,EMG8,EMG8,EMG8,EMG8,EMG8,Roll,Roll,Roll,Roll,Roll,Yaw,Yaw,Yaw,Yaw,Yaw,Accelerometer X vs Roll,Accelerometer Y vs Roll,Accelerometer Z vs Roll,Accelerometer X vs Accelerometer Y,Accelerometer X vs Accelerometer Z,Accelerometer X vs Accelerometer Z
,mean,std,amin,amax,RMS,mean,std,amin,amax,RMS,mean,std,amin,amax,RMS,mean,std,amin,amax,RMS,mean,std,amin,amax,RMS,mean,std,amin,amax,RMS,mean,std,amin,amax,RMS,mean,std,amin,amax,RMS,mean,std,amin,amax,RMS,mean,std,amin,amax,RMS,mean,std,amin,amax,RMS,mean,std,amin,amax,RMS,mean,std,amin,amax,RMS,mean,std,amin,amax,RMS,mean,std,amin,amax,RMS,mean,std,amin,amax,RMS,mean,std,amin,amax,RMS,mean,std,amin,amax,RMS,mean,std,amin,amax,RMS,mean,std,amin,amax,RMS,corr, corr, corr, corr, corr, corr
0,0.22570325427468285,0.06014826203808483,0.15057915057915056,0.4015444015444015,0.23346967547722017,0.2727694687983496,0.08695733595315118,0.1660649819494585,0.5270758122743683,0.2861061670740463,0.3854636591478697,0.031652985769974905,0.33333333333333326,0.432748538011696,0.38674259011682977,0.4852835606604445,0.030447540689600407,0.43718592964824143,0.5376884422110555,0.4862241698752114,0.6259840352325902,0.08037081602643448,0.36994219653179194,0.8940269749518306,0.6310492867594129,0.5233995584988961,0.07888609356213934,0.37527593818984545,0.7549668874172184,0.5292269960699537,0.5070362473347547,0.04548090462497615,0.41383989145183164,0.6689280868385346,0.5090429437833269,0.44854362190019137,0.14079873530869944,0.2294803905345027,0.7239781565447625,0.4698217327419662,0.26206369307428046,0.07095490906810718,0.07713916548279476,0.4439551821448545,0.27136701255681445,0.6169709817866832,0.0997757002611811,0.47053106459521016,0.9057110115032566,0.6248729196598718,0.5473633748801532,0.18303657883498556,0.08724832214765099,0.8590604026845637,0.5767412312223975,0.4766839378238344,0.18303742469004425,0.0,1.0,0.5101486699316314,0.3515151515151515,0.1879809193145138,0.0,1.0,0.39798858773923845,0.4053571428571428,0.16896385306891037,0.07500000000000001,0.8500000000000001,0.4386973411622837,0.3754385964912279,0.1456659497762517,0.0,0.7192982456140351,0.40233019554380633,0.4557465091299678,0.1650381232221483,0.09774436090225563,0.8646616541353382,0.4843070868621356,0.6806857142857143,0.09976894217112944,0.45600000000000007,1.0,0.6878551342501456,0.6337912087912088,0.1321617328620944,0.125,0.903846153846154,0.647231407883458,0.7733696045690738,0.09187678519504056,0.49831074906680267,0.8653894988188976,0.7787305684929919,0.5807552127580515,0.03183869795995719,0.5340312775242244,0.6411574496048695,0.5816148539768107,-0.07894309447710571,0.540512722757409,1.0,-0.4432497430017038,0.4251651185723137,-0.4348055484623792
1,0.4001896633475583,0.07961147605109152,0.3436293436293436,0.6988416988416988,0.4079861388786479,0.3980619418582553,0.13043235629589034,0.3140794223826715,1.0,0.4187677402074993,0.6934270373790246,0.05723830969101299,0.5467836257309944,0.7514619883040936,0.6957716012164418,0.1990948896529433,0.06057467489458291,0.1457286432160796,0.4321608040201008,0.20805434021188177,0.37686058434461245,0.08064362669625555,0.08477842003853575,0.6743737957610791,0.3853430458855432,0.5093399429405004,0.11637401314552152,0.0,0.7461368653421633,0.5223895960876915,0.24068651955533327,0.06648188650781693,0.1451831750339212,0.519674355495251,0.2496477416371716,0.4221011600101804,0.17458991926922485,0.2779558993877213,1.0,0.4565881886210153,0.2551578264694326,0.07636445501612371,0.1337914542661173,0.6372080764706262,0.2662760670506341,0.5963577898525372,0.06460353587424485,0.4669045650376431,0.7914907814381247,0.5998264942874649,0.5405628164370658,0.10829950614448058,0.20805369127516776,0.8187919463087248,0.5512425529393212,0.47432051631669864,0.08459899392742369,0.24352331606217614,0.7875647668393783,0.48176248113682124,0.3367003367003371,0.0763710553570704,0.12121212121212124,0.5555555555555556,0.34520363036989143,0.4017543859649125,0.09391716263033346,0.15000000000000002,0.7000000000000001,0.41252325824914543,0.37160151841592287,0.07591803057598653,0.14035087719298245,0.631578947368421,0.37923281885959725,0.4428615398144483,0.08232251606819188,0.23308270676691728,0.7218045112781954,0.45040393930254946,0.6869707602339182,0.07678031510137025,0.34400000000000003,0.9680000000000001,0.6912232398085744,0.6278115159694108,0.08457224616682206,0.29807692307692313,0.8750000000000001,0.6334492380024246,0.589192942006516,0.12831903325141075,0.03687224768982533,0.6658786224510884,0.6029243784481796,0.2882143956479427,0.06441624289866713,0.22921011612996556,0.5095395953750077,0.29528414181035395,-0.5259178629222321,0.9018819654163804,1.0,-0.42961143721182804,0.6970607011333562,-0.8349951360027122
2,0.4739224001519086,0.12723901813588162,0.3166023166023165,0.7915057915057915,0.4905705923592422,0.4285376102266667,0.09203501778528445,0.37184115523465705,0.815884476534296,0.4382299601859512,0.5164653436870875,0.05246915477864864,0.4035087719298245,0.5847953216374269,0.519102010937359,0.3493697998187658,0.053256273854812304,0.2763819095477382,0.4572864321608039,0.35337266438936693,0.5359297514135003,0.06396780553674193,0.41233140655105993,0.7263969171483624,0.5397027316904488,0.5086128903846848,0.10789755794823976,0.24944812362030905,0.7461368653421633,0.519839908054464,0.39088462308428035,0.062329472913684354,0.24966078697421978,0.5400271370420624,0.3957826522181508,0.4285696361865646,0.14439989499390538,0.28636438854873403,0.7724640079430747,0.45205348156719444,0.24214642678634346,0.06230126963763956,0.0863830088131497,0.4202541735502659,0.24996904819334756,0.554690585868732,0.1528499223021405,0.0,0.8005425243338121,0.5751984387928741,0.5403784794806907,0.14973701197026362,0.06040268456375841,1.0,0.5605767509762664,0.4744754947761828,0.09609486665324915,0.23316062176165803,0.7512953367875648,0.48403050336161185,0.34053651266766055,0.0858817066259866,0.09090909090909094,0.6161616161616162,0.35111298423953174,0.4077868852459017,0.10380578094287564,0.10000000000000003,0.75,0.42068688952282957,0.3746045441472533,0.09918978494819995,0.12280701754385964,0.6140350877192982,0.38741003286104814,0.4485393812399853,0.11558185078077449,0.05263157894736842,0.9097744360902256,0.46307368680039585,0.6798032786885246,0.13397012367967767,0.0,0.9680000000000001,0.6927722403858142,0.6257093316519547,0.08445311870710842,0.41346153846153855,0.8750000000000001,0.6313367051427092,0.505072267227207,0.13867941611456847,0.05261161530299974,0.6222841312830057,0.5236146831324167,0.4575337322846294,0.051470027515334076,0.38929798676118654,0.5648546528256382,0.4603960962626733,0.07452080120762274,0.5298314998485973,1.0,0.09936379330718913,0.35101235806198827,-0.6691720424780422
3,0.23478189435636246,0.07912555153990516,0.1428571428571429,0.4131274131274131,0.2474877394695501,0.037944542591596915,0.01686370294623177,0.0,0.08664259927797835,0.041450235897879016,0.335324125917631,0.027565236512338494,0.29532163742690076,0.38888888888888884,0.3364311888480674,0.5488078691328986,0.02935622289898834,0.4974874371859288,0.5879396984924625,0.5495757719677627,0.6858934940351739,0.07868943991639181,0.5279383429672448,0.8400770712909442,0.6902971590833257,0.7796251937438355,0.07218491556634046,0.5827814569536423,0.955849889624724,0.7828890340308421,0.5731112330032622,0.04437978161951899,0.49932157394843957,0.705563093622795,0.5747905225144763,0.42070260649740693,0.088044981312156,0.306397898394837,0.6483534668211154,0.42962503116882694,0.24054125434027485,0.0892082965390971,0.08879360773448702,0.4130159485224636,0.2562204002518645,0.5041019567974337,0.136948775860767,0.13962023296633158,0.6554825420311299,0.5219910997337383,0.5252034842210481,0.1919023708238806,0.06711409395973156,0.8859060402684564,0.5584636754423399,0.4667622092382318,0.09369397250286471,0.29533678756476683,0.6787564766839378,0.4758768144947782,0.33591231463571897,0.08191133365461806,0.17171717171717177,0.5656565656565657,0.34554854231626614,0.3989361702127661,0.16549969187615074,0.0,1.0,0.4312278363098916,0.37887271369914144,0.1384626788143268,0.14035087719298245,0.9999999999999999,0.4028753325268342,0.47752359622460405,0.22481007487566287,0.0,1.0,0.5267760859434178,0.6915744680851064,0.15075747074730314,0.37600000000000006,0.992,0.7074740202733258,0.624795417348609,0.14238633032597764,0.03846153846153855,0.8653846153846154,0.6404778073671447,0.8882852536726632,0.06095137040050847,0.7230999256960459,0.9587704298798696,0.8903295555090541,0.64237153474493,0.028388715318310487,0.5879132417957755,0.6857351560723721,0.642985194691033,-0.47151463405305866,-0.3512545109580049,1.0,-0.23865594269840423,-0.17087525112695656,-0.07528757811107083
4,0.34032655719402716,0.04944546208455282,0.2509652509652509,0.4555984555984556,0.3438568934649551,0.33704493062502755,0.058601956371879385,0.26353790613718414,0.42599277978339356,0.34204107761503644,0.47622067216233366,0.04340507812060505,0.38888888888888884,0.5409356725146199,0.4781709219478964,0.38451292607616416,0.04622530328052376,0.316582914572864,0.47236180904522573,0.38724827263886447,0.5626668523806206,0.05525826192669387,0.4470134874759153,0.7283236994219653,0.5653412008844694,0.5363174552514693,0.11199633562032527,0.24282560706401762,0.6865342163355408,0.5477485457387544,0.42286377531836983,0.04630756880796236,0.3242876526458617,0.5223880597014925,0.425361407946373,0.3556800011563713,0.07148766069185525,0.2482210822439186,0.544276435545259,0.3627081150701645,0.23055401797853725,0.05878659898355667,0.10928048443395924,0.4415445832235172,0.23784318890350273,0.5501247778004399,0.11484372056606419,0.27470008848658917,0.8005425243338121,0.5618429021739773,0.5442710439071722,0.10416069442973853,0.2751677852348993,0.8993288590604027,0.5540304172440774,0.4784942880329611,0.06838705039332629,0.30569948186528495,0.6373056994818653,0.4832982779716124,0.34769380552513085,0.0840108183469154,0.16161616161616166,0.7070707070707072,0.3575804329838061,0.40843373493975904,0.0854754554373451,0.17500000000000004,0.625,0.417176395039692,0.3720143732826041,0.06430045285466997,0.19298245614035087,0.5789473684210527,0.3774644729401429,0.44741371501041777,0.06034917512522885,0.2556390977443609,0.631578947368421,0.4514168533886184,0.6837590361445782,0.04826491690594424,0.52,0.8160000000000001,0.6854398992046544,0.6260426320667284,0.09156513261236886,0.30769230769230776,0.8461538461538463,0.6326235346054394,0.6545210449608329,0.028524680922156265,0.5599891883434752,0.6920743425076243,0.655134835447532,0.49115545583001435,0.04208301432733146,0.4289279092973144,0.5772726498744487,0.4929333877684555,-0.14218995240111615,-0.17882703496468408,1.0,-0.40373400605769194,0.3766731400767196,-0.678958905062196
5,0.5406871609403254,0.04221124126306167,0.46718146718146714,0.6254826254826255,0.5423115715204168,0.19247817940867348,0.07401804366276565,0.11552346570397115,0.3104693140794224,0.2060513772654908,0.3228958472129691,0.05004972440716283,0.23099415204678353,0.38596491228070184,0.32670322085557807,0.5368615228038931,0.0543039791557818,0.4673366834170851,0.6381909547738696,0.5395663895119469,0.666520328772469,0.07177982433132865,0.5375722543352603,0.9595375722543356,0.6703256464689826,0.8005420962919494,0.1108514311822861,0.5253863134657836,0.9999999999999999,0.8080842424667966,0.5814712398880169,0.05876739714519215,0.4925373134328358,0.7367706919945726,0.5843960072076463,0.35977145331872634,0.1091410761303712,0.12023208671189806,0.6173258315406256,0.3757612156227432,0.23146656281630218,0.06274531592348437,0.0863830088131497,0.3676195496358389,0.23971630993722912,0.5480836199186084,0.11753335926369761,0.29103384249387126,0.774257655540566,0.5603881539230892,0.5295217058873505,0.14391799704931524,0.0,0.785234899328859,0.5484919732596126,0.47465075096740345,0.09410343018944797,0.2849740932642487,0.6994818652849741,0.4837733938457068,0.34164429101137955,0.07422272340208463,0.14141414141414146,0.595959595959596,0.34951409114984977,0.3987341772151899,0.10583147087326605,0.125,0.625,0.41236812237905873,0.3708638685320896,0.10116221258769668,0.03508771929824561,0.6842105263157894,0.3842450527351592,0.4344722565908442,0.11922761479799263,0.10526315789473684,0.7518796992481203,0.45033479360538436,0.690227848101266,0.07879020330991446,0.45600000000000007,0.9680000000000001,0.6946537248646656,0.6247565725413827,0.10876358855831533,0.3461538461538462,1.0,0.6340351349831327,0.5674417557340167,0.0557475812335181,0.48003706648374295,0.6561905911456867,0.5701391056701467,0.6458825594700545,0.0498691796920512,0.5835500828057738,0.738487842123376,0.6477806229888482,-0.43321137887184574,0.3951620506983219,1.0,-0.2809975438233741,0.48486410497091526,-0.3673564889534163
6,0.6219952671565574,0.0329380894008523,0.5752895752895753,0.6833976833976834,0.6228527365480679,0.39548154186561113,0.052289612018591204,0.3285198555956679,0.4620938628158845,0.3988680902561647,0.38653084323712505,0.05195303583267478,0.298245614035088,0.4707602339181287,0.3899508642709193,0.47219970821851176,0.057741236423129866,0.3819095477386929,0.5728643216080398,0.47566042490324023,0.6354963018211202,0.06342187030237365,0.4797687861271678,0.8169556840077072,0.6386023856141297,0.6606138289539272,0.06539966753844087,0.5386313465783664,0.8123620309050772,0.6637912034435822,0.5224537138355143,0.054865005747916085,0.44097693351424694,0.6621438263229308,0.5252804021145892,0.3419607396988252,0.08484889235651896,0.17065199404269402,0.5294141982459043,0.35216525060056414,0.2361249554946415,0.09047648498821803,0.07955619266792238,0.42788452266927235,0.2526043482928646,0.5904320307414858,0.10522886167584111,0.29103384249387126,0.7488721586375967,0.5995869391948243,0.5389694739121024,0.05837716692558284,0.3959731543624161,0.7248322147651006,0.5420710482964799,0.48203242520474693,0.052151853026245934,0.38860103626943004,0.694300518134715,0.4848001719538525,0.34571521668295874,0.038427361996723274,0.22222222222222227,0.44444444444444453,0.34781008620326154,0.40846774193548385,0.06384913513206456,0.17500000000000004,0.6000000000000001,0.4133483456344173,0.3723825693265422,0.046080593818757024,0.22807017543859648,0.49122807017543857,0.375177225237722,0.4461557118602959,0.04169526991488366,0.3458646616541353,0.593984962406015,0.4480684930993315,0.6832258064516131,0.029949366754759718,0.6080000000000001,0.8160000000000001,0.6838713329274742,0.6281017369727049,0.039155707371568246,0.5,0.7115384615384617,0.6293013847663679,0.39796203622504955,0.05125124633946428,0.3128859275411313,0.454682082650801,0.40119584563644256,0.5842946769951954,0.053674774771659516,0.5005785181550748,0.6766061530349363,0.586715249136255,-0.6205827614812226,0.7211400197404213,1.0,-0.5473980456632196,0.5976587095735381,-0.4980084761921879
7,0.09396848586037776,0.02071122261758141,0.06949806949806953,0.1544401544401544,0.09619373363946357,0.12601229388232998,0.04722216491064304,0.0577617328519856,0.23465703971119134,0.13445778832225522,0.4564564564564565,0.046408028164352265,0.36257309941520455,0.5204678362573099,0.4587778303233615,0.4349449952465027,0.044777548569728494,0.36180904522613133,0.5226130653266328,0.43721285749775846,0.5768629901577881,0.05750693116087278,0.4373795761079,0.7341040462427746,0.5796837644088573,0.627945826621323,0.066590251541375,0.5011037527593818,0.7682119205298013,0.6314192745849797,0.44407569034434696,0.053240336557965486,0.3256445047489823,0.5454545454545454,0.4472129779933841,0.364015797818338,0.095719571319495,0.20167962932318384,0.5623758894588781,0.37622589409874624,0.21642452671039167,0.032623191354262684,0.1402197180563502,0.2820465020602586,0.21883662013840519,0.5911315815576227,0.06651735026075369,0.36990295487183955,0.6872216661589567,0.5948119982631054,0.5384545619444946,0.08940031933646393,0.26174496644295303,0.738255033557047,0.5457267876326463,0.48200532138356017,0.06355078387828267,0.30569948186528495,0.689119170984456,0.4861206176637452,0.34575484575484605,0.0612380520415613,0.22222222222222227,0.5353535353535355,0.35106386223456204,0.40371621621621634,0.0926846945840811,0.20000000000000004,0.7000000000000001,0.41407867446736335,0.37197724039829305,0.0512088181660843,0.24561403508771928,0.5263157894736842,0.3754383749218313,0.4427961796382848,0.056848387849424135,0.2857142857142857,0.6015037593984962,0.4463815898443537,0.6822702702702701,0.03400616273612098,0.504,0.776,0.68310578500955,0.627338877338877,0.07291332018571094,0.3365384615384616,0.8173076923076924,0.631505009230483,0.9552544710725341,0.03457452612785529,0.856878182575245,1.0,0.955871512461763,0.5156482827814504,0.04544034445490742,0.44852564876427947,0.6036850210679345,0.5176196223100448,0.05534718815973384,0.14003218872331402,1.0,-0.23565961645796477,0.5335877408515117,-0.0026809565373607804
8,0.3335649935649936,0.06449829954691903,0.22393822393822393,0.4555984555984556,0.33970266710585106,0.09321299638989172,0.04328104074319319,0.0072202166064981865,0.2093862815884477,0.10271038341153163,0.25545808966861594,0.09186372174712902,0.11111111111111116,0.42397660818713456,0.2713697096727717,0.6288107202680069,0.10611087250667593,0.43718592964824143,0.8040201005025129,0.6376420435790523,0.6989595375722547,0.05762805884551972,0.5838150289017341,0.901734104046243,0.7013153986439201,0.7774834437086094,0.07859954727406139,0.5783664459161147,0.9845474613686533,0.7814199947193193,0.6476616915422887,0.09853102568371895,0.45318860244233383,0.8860244233378561,0.6550643535512795,0.3611872552264329,0.08180661518970919,0.0892044514314082,0.5371711070660268,0.3702754922282545,0.22101772272326978,0.04412789922625134,0.14263031697768752,0.4387290036833952,0.225351111463796,0.6066350435905248,0.07770661943689912,0.33907770863251957,0.7524986581951637,0.6115587783348059,0.5378970917225954,0.084082526068582,0.24832214765100669,0.7718120805369127,0.544385910911643,0.47789291882556173,0.06093041130255407,0.32124352331606215,0.7202072538860104,0.48173582676086024,0.3462626262626264,0.06637740950809574,0.16161616161616166,0.6464646464646465,0.3525257349036282,0.40649999999999986,0.07779630518650059,0.15000000000000002,0.6000000000000001,0.41382866825132664,0.375204678362573,0.08032631858344902,0.12280701754385964,0.6140350877192982,0.3836506909580864,0.4430576441102757,0.07213405698677687,0.17293233082706766,0.706766917293233,0.44885265886190684,0.6839466666666668,0.04636820634102764,0.37600000000000006,0.8320000000000001,0.6855061779444444,0.6283333333333335,0.07119191612494623,0.42307692307692313,0.8942307692307694,0.6323268759957219,0.785025559344009,0.044644990360451116,0.6870840683396799,0.8570959466610766,0.7862855818042392,0.720295398953028,0.09630423808286427,0.5433542566676701,0.8734618362066726,0.7266623273459313,-0.4275590741431698,-0.34075158976122377,1.0,0.5545028233476905,0.7146054563262397,0.7092114621699946
9,0.45111693325979074,0.026787716127109007,0.4054054054054054,0.498069498069498,0.45190448352416807,0.3179473955647243,0.016608861535654735,0.2851985559566787,0.3465703971119134,0.318377036928302,0.46948099415204664,0.03718463580627828,0.4005847953216375,0.5263157894736843,0.47093816526149257,0.3834350323043788,0.03495750617227162,0.33165829145728587,0.4522613065326633,0.3850110911111059,0.5630849160473438,0.03775196957923793,0.49903660886319856,0.6705202312138727,0.5643377612627852,0.6225559760327973,0.047450366520139314,0.5364238410596025,0.7571743929359822,0.6243455594184919,0.42860777282419066,0.0348960851225887,0.35413839891451826,0.5128900949796472,0.4300133568071821,0.35734268988912793,0.0320998434771686,0.2941212973688565,0.48932649346351154,0.3587687249035113,0.23066389730940431,0.027632803584525314,0.16995043808617735,0.31418782101142306,0.23229848848032608,0.6106363418773665,0.05788466957325949,0.4687323208146569,0.731639032740038,0.6133493789100158,0.5427253116011508,0.08465639638490066,0.26174496644295303,0.9060402684563758,0.54922989800259,0.47682272390821634,0.062368262827801675,0.3160621761658031,0.7616580310880829,0.4808481879807879,0.34604978354978383,0.059854372275763436,0.21212121212121215,0.6666666666666667,0.35114243770667675,0.4066964285714284,0.07344346839708109,0.25,0.6000000000000001,0.4132163692995994,0.37453007518796966,0.056700120502889306,0.14035087719298245,0.49122807017543857,0.37875978718488473,0.44159505907626206,0.05046268106946109,0.23308270676691728,0.6165413533834586,0.44444340689590983,0.682071428571429,0.030632878258061724,0.5760000000000001,0.8320000000000001,0.6827528312438027,0.6251717032967032,0.06497135798408858,0.31730769230769235,0.7596153846153847,0.6285087477392696,0.5754333518117073,0.018791135383570415,0.5439746206586648,0.6050419016426273,0.5757373501929945,0.4986267332529662,0.03650673399084933,0.44310909656149344,0.5666639015748054,0.4999494587079715,-0.6130218656651647,-0.1951023509319252,1.0,0.24898160748542725,0.6353430046111298,0.07607596972574562
10,0.4578744157691524,0.0266517867708674,0.4131274131274131,0.5366795366795366,0.4586412773892039,0.39403382101462997,0.012670645494677656,0.36823104693140796,0.41155234657039713,0.39423534520710496,0.5408741151123434,0.0592413040919163,0.432748538011696,0.6198830409356726,0.5440748092549421,0.3207617032531071,0.054313773768479234,0.25125628140703515,0.4221105527638187,0.32527988534549274,0.5086908021498833,0.06042739774091027,0.37379576107899815,0.6570327552986512,0.5122297980976191,0.5371906587661204,0.044261248053421624,0.42604856512141276,0.6732891832229579,0.5389918740397048,0.37116332214525466,0.0588316281661994,0.2605156037991859,0.4871099050203528,0.3757485048678896,0.3572937805377252,0.039665925577588836,0.27278462684097304,0.44343662088366703,0.35946581104276965,0.22677351568851606,0.04343724505830189,0.15950450942704889,0.3881128545991014,0.23085311495362693,0.5889337556869242,0.06713774362728944,0.3753427042081901,0.731639032740038,0.5927081896553819,0.5405157188272691,0.07299528328402077,0.35570469798657717,0.7718120805369127,0.5453709436638936,0.4817562039814564,0.06793162448617149,0.29015544041450775,0.7357512953367875,0.48647216758153344,0.3457735247208932,0.049076124410367655,0.18181818181818185,0.4848484848484849,0.34920258319706504,0.4086842105263158,0.08719692352052663,0.17500000000000004,0.675,0.417787090072897,0.3710064635272392,0.06628683079819078,0.21052631578947367,0.6842105263157894,0.3768202328363111,0.4401266323703996,0.0784741055911703,0.14285714285714285,0.6842105263157894,0.4469953185072848,0.6805894736842104,0.026229549171117028,0.5760000000000001,0.76,0.6810894059867387,0.6286437246963563,0.05954107723421874,0.47115384615384626,0.8461538461538463,0.6314275534187936,0.5365521743096319,0.024160152808776043,0.4651213653768304,0.5655191248396358,0.5370901268808984,0.43096768425676524,0.05740396390834264,0.3543594621184414,0.5366562085056876,0.4347340261258406,-0.2241482093438207,-0.12238737993552429,1.0,-0.2543341813599491,0.7737715823861108,-0.40417382886612463
11,0.02910894087364671,0.023170301531783795,0.0,0.08108108108108103,0.0371339460650026,0.32742266581722956,0.035162364654534393,0.25992779783393505,0.38267148014440433,0.32928691515130165,0.9005561288843014,0.06042658611799409,0.6578947368421053,0.9619883040935672,0.9025613086174322,0.08705291161690763,0.03752580637730823,0.05025125628140703,0.25125628140703515,0.09472375530317588,0.14853224526804937,0.08006871943108375,0.0,0.47206165703275516,0.16855258756892083,0.45775440418993213,0.0637081241371456,0.36203090507726265,0.6578366445916114,0.46212339068044384,0.08263495357437406,0.04926859359612869,0.01899592944369055,0.28358208955223885,0.09608398349204536,0.34550549493336974,0.03913941114489823,0.28700562634453086,0.4919121297368857,0.34769371862337384,0.27700567187141756,0.11344528361186013,0.19084229540443426,0.6886341867924893,0.2991250571174488,0.5919289194709464,0.04396166762301952,0.43063956946197257,0.6990005367219345,0.5935431969037693,0.5380313199105144,0.029716928370322193,0.3825503355704698,0.6308724832214765,0.5388433345919249,0.4762267601341057,0.04938710607313585,0.35751295336787564,0.6321243523316062,0.4787557839899673,0.3439294909883148,0.042603819663494046,0.26262626262626265,0.5252525252525253,0.34653251689561443,0.4066176470588234,0.03836485709285762,0.32500000000000007,0.55,0.40840585590470513,0.3739250085999311,0.029828177462878275,0.2631578947368421,0.45614035087719296,0.3751011989856117,0.4443461595164384,0.024575498753979862,0.3082706766917293,0.5714285714285714,0.445018587799657,0.6810980392156863,0.011862671133192908,0.656,0.7040000000000001,0.6812003246864621,0.6309389140271493,0.03278357733897895,0.528846153846154,0.7403846153846154,0.6317817180682742,0.951113406522042,0.03161976278559849,0.8971290852919358,0.9885320178710613,0.951633710737305,0.08550509762501422,0.05544513781346673,0.03094970373462025,0.3136101151726798,0.1017602386547174,-0.526256636564738,0.4969607960387961,1.0,0.17352495753906283,0.8149714729859755,0.05798938154796511
12,0.1543741543741543,0.010139276226775027,0.13899613899613894,0.1814671814671815,0.15470392944779277,0.42787497300132576,0.05538979970623984,0.36823104693140796,0.5342960288808665,0.43141488147085,0.9053581246563688,0.036984903106920736,0.8333333333333333,0.9532163742690057,0.9061067959302265,0.06850491775114854,0.026611728413111258,0.0351758793969843,0.12562814070351713,0.07345103804414302,0.14627077054822726,0.05107794972787393,0.007707129094412402,0.3121387283236994,0.1548605711207297,0.38074753306541376,0.07164378879063171,0.20750551876379686,0.49227373068432667,0.38737274819566764,0.08536571223138381,0.03105392453035295,0.028493894165535938,0.16417910447761197,0.09079321989030349,0.3330275652694153,0.026663244435393762,0.2579223895416184,0.4149946218765514,0.33408413838469353,0.24212423680163447,0.0324732024463072,0.1952649408921145,0.3792675636237409,0.24427370310270233,0.5868257763901611,0.04467111134024213,0.44334682391168745,0.6890349159377402,0.588509086080025,0.5380600011472494,0.024154814790910244,0.4563758389261745,0.6040268456375839,0.5385972828715591,0.472432576059519,0.04820667421583405,0.26424870466321243,0.6321243523316062,0.47486478086879635,0.34438401105067784,0.03483934443106262,0.2828282828282829,0.4848484848484849,0.34612678717543055,0.40876068376068386,0.04371195874654298,0.32500000000000007,0.625,0.4110714060290508,0.37321937321937326,0.06071360467223528,0.24561403508771928,0.6842105263157894,0.3780837696240793,0.4448942869995502,0.059566542056880147,0.2857142857142857,0.6917293233082706,0.44883045047442005,0.6809572649572653,0.015264559563313695,0.64,0.7280000000000001,0.6811268692144012,0.6258218277449046,0.051029567875387025,0.4038461538461539,0.7980769230769231,0.627881135507109,0.8081772319439546,0.024915586330445445,0.7575024846251698,0.8421679699236757,0.8085579254498432,0.08188699346262851,0.0329289397479839,0.03867814749811005,0.14732417699514655,0.08820729630296449,-0.5843600946077446,0.836278600371621,1.0,-0.6179108458475635,0.688517591650564,-0.8754752906868146
13,0.5324482995715873,0.060578551723997905,0.4208494208494208,0.6525096525096525,0.5358364320835178,0.44923594283170926,0.05166431719583054,0.3393501805054152,0.5198555956678701,0.45215657641656637,0.4269005847953215,0.02645081236863922,0.3771929824561404,0.48245614035087736,0.42770804363369186,0.432504990706959,0.028405776361812476,0.37185929648241167,0.48241206030150785,0.4334240439282063,0.5957716367091614,0.06536715858777128,0.4354527938342967,0.7341040462427746,0.5992980695162575,0.5279869364056969,0.10482832874909084,0.24944812362030905,0.7306843267108167,0.538152998292523,0.4764781323767216,0.042317579112700905,0.4029850746268656,0.603799185888738,0.4783279805076338,0.33390099265764284,0.08640808109386006,0.15772381267582325,0.5067847095813338,0.3447520130763778,0.2424663610276735,0.06510634714431687,0.1201313937118724,0.40859973129857363,0.2509396469589779,0.5443971972821723,0.1731429006359531,0.18676472721470327,0.8857797699348682,0.5709081437134593,0.5409579847384389,0.023268900584054005,0.4563758389261745,0.5973154362416108,0.5414513514403706,0.48413656043722053,0.044954688054759384,0.35233160621761656,0.6010362694300518,0.48619075396388634,0.34758544347585446,0.02929658712205926,0.2828282828282829,0.4141414141414142,0.34880105093851654,0.4075342465753425,0.03427952182336208,0.32500000000000007,0.47500000000000003,0.4089537268260696,0.37346791636625803,0.0476419303919296,0.22807017543859648,0.5438596491228069,0.3764531120502181,0.44257905036564,0.03766315834197471,0.3533834586466165,0.6015037593984962,0.4441568389962203,0.6815342465753427,0.014766781594530978,0.648,0.7200000000000001,0.681692012568726,0.6219704952581666,0.0435908250811105,0.5,0.701923076923077,0.6234752821190843,0.443330619980187,0.04924861529431327,0.3303197697749662,0.4990094494695282,0.44602044763131726,0.545444658464858,0.02744285737152018,0.48666597602811135,0.596491510034342,0.5461251406843064,-0.18415046242308356,-0.3006333227502825,1.0,-0.10220053955056285,0.26849847960037476,-0.27613147706546726
14,0.7277712495103797,0.0359681129169888,0.6602316602316602,0.7722007722007722,0.7286466547036052,0.32616543713702706,0.07265420737975882,0.21299638989169678,0.45126353790613716,0.33404494352244607,0.22798542249343168,0.025765229469056298,0.1812865497076026,0.27192982456140347,0.22941573387056188,0.6530478479353287,0.03197313964127906,0.6030150753768844,0.708542713567839,0.653818749865186,0.7136913238948928,0.06208440133183261,0.5915221579961465,0.8689788053949903,0.7163476228519594,0.7857759861790956,0.10228038161695445,0.5518763796909492,0.9602649006622516,0.792309008037311,0.6713468231962717,0.04294203921781157,0.5929443690637721,0.8168249660786975,0.672698930308907,0.29645796310019745,0.07521070431421939,0.1531937779248717,0.5145416184014562,0.3057155434281135,0.24368905202393892,0.07376589935107151,0.078746231430353,0.3816845908088685,0.2544541235650112,0.5713429169628309,0.08709695674382884,0.4125070716741373,0.7379926599648955,0.5778483091171964,0.5373018188892131,0.015860560294041787,0.5100671140939598,0.5771812080536912,0.537532469898769,0.47398062626717763,0.036145220933676635,0.38860103626943004,0.5492227979274611,0.47533690854355864,0.3454838237446933,0.024164294662776198,0.3030303030303031,0.4040404040404041,0.34631564084889155,0.4047101449275362,0.033286678773981296,0.32500000000000007,0.47500000000000003,0.4060569496718553,0.3686753114670734,0.03423800246462436,0.2982456140350877,0.5087719298245614,0.37023875688645125,0.44371799062874573,0.012130054583244178,0.42105263157894735,0.47368421052631576,0.4438813591420263,0.6817391304347826,0.010526789597628384,0.656,0.7040000000000001,0.681819220376899,0.6291806020066888,0.04711937433673073,0.48076923076923084,0.7307692307692308,0.6309170215283448,0.3536326397370211,0.060724296060619194,0.2536418852730087,0.4624551097265456,0.3587339443906827,0.7426801930436923,0.027847380373283714,0.694487765541417,0.7913536385216384,0.743194528331485,-0.11601879703306611,0.40533189540515346,1.0,-0.557979535923929,0.4477400317942836,-0.5479217950207197
15,0.34005223711106064,0.05775662139735631,0.18532818532818535,0.4015444015444015,0.3448511200437472,0.18841579953280974,0.02956815542846091,0.12635379061371843,0.24548736462093865,0.19068804978745676,0.22308221534227737,0.058468749166311985,0.15497076023391831,0.3830409356725146,0.2305081256282818,0.6579219627549513,0.06448357327240001,0.48743718592964846,0.7386934673366836,0.6610282076498293,0.7087441913181458,0.0682728485970558,0.5163776493256262,0.8940269749518306,0.711976800036894,0.680106479677964,0.08082303153009329,0.4944812362030904,0.8476821192052979,0.68482196370469,0.6832149413361003,0.06767490587362555,0.4884667571234734,0.8005427408412483,0.6865094300764842,0.3513420364836318,0.05726679021922114,0.2197790832368029,0.45701638259142807,0.3559107811489232,0.2788469282919611,0.08427117956454888,0.12213701201442506,0.4423481161972963,0.2911233507685222,0.5438143010370082,0.09681039926544686,0.337264458853736,0.6881210380492334,0.5522394590776137,0.5386893012238452,0.018209725662993993,0.5033557046979866,0.6040268456375839,0.538992468386901,0.47805547089302064,0.03940527185916407,0.3937823834196891,0.6010362694300518,0.4796529722288287,0.34254307783719545,0.03445301794517686,0.2525252525252526,0.4242424242424243,0.34424600881309575,0.40735294117647053,0.057959523886336545,0.25,0.6000000000000001,0.4113955803474459,0.37435500515995873,0.03356342002741947,0.2631578947368421,0.45614035087719296,0.3758345471470799,0.4455992923485181,0.01994021620282863,0.38345864661654133,0.48120300751879697,0.446038669091766,0.6827058823529414,0.023277084255736154,0.6240000000000001,0.7280000000000001,0.6830967548382794,0.628110859728507,0.04074185850253475,0.5,0.701923076923077,0.6294114241600713,0.7259586217527806,0.034723914471210954,0.6872405481619303,0.8197561902518332,0.7267764024184329,0.7480248152954557,0.06122650579744913,0.5821258294695468,0.8196914187694104,0.7504896279024774,-0.6436583588267274,-0.6042470640284457,1.0,0.49545091264211344,0.6797262776164482,0.6115156639459335
16,0.30971685971685975,0.04848566536270024,0.193050193050193,0.3590733590733591,0.31342656547072656,0.19019253910950681,0.028869327581322053,0.15884476534296033,0.25992779783393505,0.19233499258672507,0.27816764132553595,0.036625322384611275,0.2105263157894739,0.32456140350877183,0.280528597501917,0.5944723618090451,0.04226962083481247,0.5376884422110555,0.6683417085427141,0.5959482621164226,0.6911368015414259,0.07862505834270271,0.48747591522157996,0.9171483622350678,0.6955206298744722,0.6595658572479765,0.08848438502977442,0.44150110375275936,0.8388520971302427,0.6653766715188125,0.6249660786974219,0.055712601524587506,0.5074626865671642,0.7652645861601085,0.6274031892849492,0.37131839869821825,0.07968483068075088,0.24499420817474762,0.5617243091179878,0.379632977468702,0.2278448817092325,0.0916428816691103,0.06066995365221811,0.4837268502150255,0.24529927487126635,0.5356951516118583,0.08860822894293569,0.29283258627442443,0.7896630256611109,0.5428534394532735,0.5395973154362416,0.00942679832392153,0.5234899328859061,0.5570469798657718,0.5396782803459806,0.47987910189982774,0.04870906955609731,0.39896373056994816,0.689119170984456,0.48230382852124976,0.34444444444444444,0.0324097882352769,0.2525252525252526,0.4646464646464647,0.34594054851839295,0.41,0.03228579999560074,0.35000000000000003,0.5,0.41124810029956377,0.3754385964912282,0.07295992241163976,0.17543859649122806,0.5789473684210527,0.38234614009076967,0.4481203007518796,0.012550853486006793,0.42105263157894735,0.48872180451127817,0.4482930988432253,0.6817333333333333,0.009780413957248513,0.656,0.6960000000000001,0.6818023173911923,0.6291666666666668,0.019422662763816927,0.5384615384615385,0.6634615384615385,0.6294613943227978,0.7475494343212048,0.03902827589490901,0.6973812577666969,0.8373172584994404,0.7485505836623826,0.6908807449651212,0.03700250170708929,0.6446243916410759,0.7597986304157733,0.6918544421653549,0.005171791290032876,-0.2340342407736497,1.0,-0.3650409329996504,0.34270997278152077,-0.4908976758505029
17,0.6379236379236378,0.07536858672688673,0.4903474903474903,0.7220077220077219,0.6422990712363138,0.4750802246289607,0.045995732791118606,0.40072202166064985,0.5595667870036101,0.47727082859933806,0.28736192332683563,0.022182859018988334,0.25146198830409383,0.3362573099415205,0.2882049961026792,0.5870323841429367,0.026487628304244483,0.532663316582914,0.6281407035175883,0.5876213662881219,0.6827499464782701,0.06499949861863676,0.5722543352601157,0.8843930635838153,0.6857942436230183,0.5876257051753739,0.15542382708273897,0.17880794701986746,0.7902869757174392,0.6075566043970239,0.6231531735263078,0.048374052631614636,0.5359565807327001,0.7476255088195387,0.6250019407680297,0.36364086891168834,0.07626262798186914,0.19909399304980968,0.5125972199238789,0.3714429866783208,0.24222947901778996,0.07376821705324271,0.09602540449849903,0.3889099593090902,0.25306380715830384,0.5327557528371315,0.18893323819647337,0.1541262311965998,1.0,0.5648262441795955,0.538683818046234,0.02255630616641933,0.4966442953020134,0.6174496644295302,0.5391493079726195,0.4741652274035698,0.04726430209360456,0.36269430051813467,0.6476683937823834,0.47648247663921,0.34203142536475883,0.035330381034469775,0.27272727272727276,0.44444444444444453,0.3438261117955151,0.40763888888888905,0.06316740681122729,0.17500000000000004,0.525,0.41243686385514416,0.37329434697855723,0.06219945296456678,0.19298245614035087,0.5263157894736842,0.37836980388437663,0.44559314954051804,0.017801358350719554,0.39097744360902253,0.48872180451127817,0.44594365344666465,0.6802222222222221,0.014645310956765134,0.648,0.7200000000000001,0.6803776728977646,0.6237980769230771,0.042420117418273943,0.5,0.7115384615384617,0.6252187733476589,0.3398746329634762,0.036971640919825625,0.28477913116291276,0.41796621851628624,0.3418518445337625,0.6882332967766698,0.024197361487735495,0.634065628332495,0.727097579520652,0.6886526344825327,-0.42745235347884647,-0.7144239351248556,1.0,0.1778211920500187,0.732007920371762,0.09039048343564328
18,0.6912162162162162,0.06444603728954547,0.5752895752895753,0.7644787644787645,0.6941766584494609,0.4117328519855591,0.02926051705379387,0.3212996389891697,0.4476534296028881,0.4127583034164061,0.2661549707602341,0.01944548104124162,0.24561403508771917,0.33333333333333326,0.26685552010244185,0.6093592964824118,0.0269337779577305,0.5226130653266328,0.6381909547738696,0.6099468114103707,0.6976878612716764,0.027824953306137958,0.6396917148362236,0.7687861271676302,0.6982355633609646,0.6811258278145698,0.055567918850900344,0.5364238410596025,0.8366445916114789,0.6833605121028248,0.6386024423337856,0.031814483777551326,0.519674355495251,0.6906377204884667,0.6393845390025338,0.3162558952507032,0.034755786664382816,0.25209953665397977,0.4091717689889128,0.3181362230690662,0.23092340402280748,0.030286735347217885,0.15709391050571156,0.31498492572141196,0.23287644531864599,0.6116084250837721,0.08219018307262928,0.3762420760984667,0.7289264110709779,0.6170378039468455,0.5369127516778522,0.01580291634805895,0.4966442953020134,0.5771812080536912,0.5371423586232267,0.47338082901554424,0.04153467398303902,0.37823834196891193,0.6062176165803108,0.4751767821643173,0.341540404040404,0.03907459103225584,0.2424242424242425,0.4545454545454546,0.34374057944999203,0.4031249999999999,0.03476298591711329,0.32500000000000007,0.5,0.40460242831698395,0.37521929824561406,0.020031056531389462,0.3333333333333333,0.43859649122807015,0.3757469220916823,0.4453947368421051,0.011736431798426445,0.42105263157894735,0.48120300751879697,0.4455474089702636,0.6812000000000002,0.0109572240779164,0.656,0.7040000000000001,0.6812870173429111,0.6290865384615384,0.029260053938734334,0.5096153846153847,0.6923076923076924,0.6297581454380423,0.33379085856575197,0.06351370336701326,0.25773286406455453,0.4471656392215879,0.3397056121055588,0.7062645863503305,0.02125822294068138,0.6343188796248016,0.7282287330885442,0.7065804477019352,-0.25390319980264464,-0.3988419901974257,1.0,-0.02762746065161467,0.5246310868637313,-0.19002963653563965
19,0.20933009592803417,0.051140774310376856,0.1351351351351351,0.28957528957528955,0.2154240125665982,0.27139082213703514,0.0629616634338166,0.14440433212996392,0.36462093862815886,0.27852519035027734,0.36679327183939203,0.06859536464881881,0.28362573099415234,0.5029239766081872,0.37308728177542644,0.5079003263741386,0.06606832939107533,0.3768844221105523,0.5929648241206031,0.5121354951870942,0.6325606340504141,0.07796535300721448,0.4277456647398845,0.8227360308285165,0.6372981139771862,0.5241346350788558,0.08909451617678908,0.20529801324503316,0.7637969094922736,0.531576067156954,0.5400551133740857,0.07704741313401263,0.3704206241519674,0.683853459972863,0.545467350391537,0.3385585221718576,0.08415093038054498,0.12605493959953668,0.49708340228363396,0.34875528399010963,0.2385738770866923,0.07869771402848554,0.05665228878332254,0.45319259721141925,0.25109156946541633,0.5924657938841218,0.12045005987824711,0.2946603420514383,0.9592091329764858,0.6044620456246774,0.5404414308448069,0.02234533126277184,0.4832214765100671,0.6040268456375839,0.5408984252496727,0.478713743923936,0.03005029384139991,0.41968911917098445,0.5699481865284974,0.4796462856058002,0.3453087576798917,0.0226959144358273,0.2828282828282829,0.4040404040404041,0.3460461418749063,0.40670103092783494,0.03135720443150905,0.35000000000000003,0.47500000000000003,0.4078956557495818,0.37800687285223367,0.024683881467221985,0.3157894736842105,0.43859649122807015,0.37880365434658253,0.4454693434617472,0.01218333839792906,0.40601503759398494,0.47368421052631576,0.4456341991522562,0.6828041237113402,0.015536676483444044,0.648,0.7120000000000001,0.6829790415042183,0.6280729579698652,0.03633828834160176,0.528846153846154,0.7692307692307694,0.6291124689810742,0.7855426031748419,0.07232917381254107,0.6925991222775226,0.9140641548994466,0.7888312606005639,0.599025514222405,0.06702220257158549,0.46747527353309426,0.6823707222828366,0.602724840453562,-0.47335297509012236,0.3237311646673525,1.0,-0.19624725616197275,0.625671007325586,-0.3811971403277997
20,0.37076992959345906,0.033173195488259186,0.29729729729729726,0.4208494208494208,0.37222925508499116,0.39615629645360007,0.05367941697465993,0.3176895306859206,0.4693140794223827,0.3997235498735737,0.2705968352253182,0.05752124375671456,0.20175438596491246,0.4444444444444444,0.27655502790614706,0.6025716819391074,0.062213344633885836,0.4221105527638187,0.6834170854271351,0.6057278374023503,0.6803808228493708,0.07337310372622555,0.4759152215799616,0.7996146435452793,0.684267861061549,0.4717893780028568,0.09004878501378194,0.25827814569536417,0.6556291390728476,0.4801820009745483,0.6369223401708038,0.05894147340051617,0.5088195386702848,0.7408412483039348,0.6396038422565149,0.34897511461973485,0.09021837218787887,0.16806635776931986,0.6063317061062387,0.36028223507651813,0.28953457857626075,0.09912742070374576,0.11169751161908686,0.4865424297551475,0.30579734157754845,0.527721175941546,0.16062993162712175,0.21304959600794926,0.9791548805431046,0.5512822994290685,0.5391827872088433,0.019145312244610684,0.4899328859060403,0.6040268456375839,0.5395175906912446,0.47569338616275575,0.03957411074829092,0.39896373056994816,0.5699481865284974,0.4773125567670965,0.3437314319667262,0.03660616428492716,0.27272727272727276,0.4545454545454546,0.34564664404208556,0.40588235294117636,0.03914135478087758,0.275,0.55,0.40773766075750223,0.3738390092879258,0.02732335822931712,0.2982456140350877,0.43859649122807015,0.3748215466858046,0.44504643962848295,0.01618646618111322,0.41353383458646614,0.48872180451127817,0.44533636966615414,0.683058823529412,0.01629749761300812,0.64,0.7280000000000001,0.6832503632077553,0.621606334841629,0.07779295583560579,0.37500000000000006,0.7980769230769231,0.6263842137681301,0.5881798602203523,0.04290826787787232,0.5061995429477201,0.6454769005082638,0.5897199268593943,0.6989050226363237,0.0584488163915079,0.5224073899175097,0.7718137291271647,0.7013089587516723,-0.19808381524031815,0.16897732071715077,1.0,0.48320181528306055,0.5878117545771582,0.21340062515824462
21,0.7496911196911195,0.04601916834554477,0.6718146718146718,0.8494208494208493,0.7510881181062499,0.3974368231046928,0.04152803968637693,0.3212996389891697,0.47653429602888087,0.3995789792505887,0.22540935672514636,0.029195710800764347,0.1812865497076026,0.2923976608187133,0.22727349984790243,0.6614572864321611,0.03295315216252938,0.582914572864321,0.7185929648241203,0.6622694262226441,0.716820809248555,0.05237796944696603,0.5857418111753372,0.8323699421965318,0.7187128005944424,0.740860927152318,0.07598003574738411,0.5916114790286975,0.9139072847682118,0.7447080968774573,0.6820624151967436,0.04185738407241705,0.5658073270013568,0.7666214382632293,0.6833327581928054,0.35923558249213966,0.07269394337853438,0.22172348171438025,0.5811269237133874,0.366444769424192,0.25073378631165505,0.06236596604260961,0.12776817109466906,0.37565487937363007,0.25829837432977076,0.5511015855056067,0.13366969260034062,0.3091663402817065,0.8340948982404225,0.5669231591666231,0.5387248322147649,0.028757983653806062,0.4563758389261745,0.6510067114093959,0.5394841946270728,0.4794818652849744,0.046730414025460534,0.3471502590673575,0.6217616580310881,0.48173099694352145,0.3461616161616164,0.040679983128979254,0.26262626262626265,0.4545454545454546,0.34851998066211703,0.4087499999999998,0.048249012132034065,0.30000000000000004,0.55,0.4115595339680518,0.37771929824561407,0.03495055593328259,0.24561403508771928,0.45614035087719296,0.3793167465504313,0.4463157894736844,0.023032865325085417,0.3383458646616541,0.556390977443609,0.4469037834811322,0.6803999999999999,0.03430816965462461,0.504,0.808,0.6812557816268423,0.6309615384615386,0.05906455300189555,0.4038461538461539,0.8653846153846154,0.6336925107848854,0.297083711376332,0.03633585093733123,0.2280745563103604,0.38343022379192204,0.2992754963037273,0.7476556494643443,0.03025509939498545,0.6832725240126285,0.7931191985867991,0.748261443283667,0.21786379621910376,-0.17483539873152804,1.0,-0.19815336894908595,0.4808988165497532,-0.34662824919295443
22,0.8128010189865859,0.12530319985944816,0.637065637065637,0.9845559845559845,0.8223043983195958,0.5261453719900258,0.05693622262453624,0.34296028880866425,0.5992779783393503,0.5291854740833617,0.21363115693012621,0.23762363176519824,0.0,0.7251461988304093,0.3186238350810706,0.726778221001917,0.27695171161769766,0.17587939698492505,0.9999999999999996,0.7772503382047944,0.6921915658582127,0.14822637822542478,0.3159922928709058,0.9460500963391136,0.7077243229408635,0.6716961380032316,0.18294063593323062,0.29801324503311255,0.9492273730684325,0.6959151921156427,0.7214396620459094,0.2504014988957133,0.21845318860244234,1.0,0.7632363300324625,0.3550656506377831,0.10425796161281341,0.08532599702134702,0.5326410723150753,0.36990441985333283,0.33258305996092274,0.1671706133616884,0.0,0.7754157479606334,0.37184593921121695,0.5145326922579391,0.08822530096191794,0.3082524623931996,0.6654626688135544,0.5219648941870284,0.5412717082958555,0.09239387772003699,0.1610738255033557,0.832214765100671,0.5490206593206058,0.47732492922386627,0.06060578803230037,0.24352331606217614,0.6787564766839378,0.4811177433723885,0.3462459648026658,0.04602943291828254,0.2525252525252526,0.4545454545454546,0.3492608401742591,0.4051546391752576,0.06633427661696124,0.22500000000000003,0.5750000000000001,0.4104937936670604,0.37022969795623084,0.04102573656062885,0.21052631578947367,0.49122807017543857,0.37247253408632447,0.44314394233005194,0.04586125178619396,0.15037593984962405,0.5639097744360901,0.4454863914913751,0.6830515463917527,0.02767533917814614,0.5680000000000001,0.76,0.6836062048423559,0.6281720856463123,0.06535812130381642,0.3846153846153847,0.7692307692307694,0.6315281586960406,0.182947674401403,0.09578833215010404,0.04615986676633688,0.34458762436235685,0.20627812376795276,0.7770052161297801,0.24094539999451137,0.2659598882447307,1.0,0.813137927879495,-0.8238644838834196,-0.7123064095221077,1.0,0.5694157296693261,0.8631792224152797,0.7743115259571717
23,0.23078961314255422,0.02700739738538026,0.1544401544401544,0.27027027027027023,0.23234907805368807,0.37067317901889896,0.028221746405022147,0.3032490974729242,0.4151624548736462,0.371735475996601,0.8604517830524023,0.03685537602371601,0.8274853801169588,0.9649122807017543,0.8612329956809003,0.08527933786579901,0.021812003679131064,0.02512562814070307,0.10552763819095379,0.08799809442961938,0.2032188597982546,0.05513646511492561,0.00963391136801528,0.2851637764932562,0.21049496561554631,0.4793749729472361,0.04126679305153552,0.39514348785871956,0.5871964679911699,0.48113056162152873,0.11851171947747892,0.030474114245372542,0.031207598371777445,0.1573948439620082,0.1223298600859026,0.34532166126420805,0.05956683425341659,0.17387886811186498,0.438916928677809,0.3503719040260292,0.2347964944030619,0.03974719488810549,0.09884098403862107,0.3049439776810682,0.23810448266018996,0.610451088191634,0.04005744501250479,0.5195033146205956,0.7071674137255756,0.6117510920411227,0.5439531517304911,0.10975020157673064,0.20134228187919462,0.785234899328859,0.5548081188499702,0.4792746113989638,0.0677715767474171,0.30569948186528495,0.6735751295336787,0.483995981869603,0.34779164190928924,0.06221015822177056,0.21212121212121215,0.5757575757575758,0.3532579620814748,0.4056372549019606,0.08996058424189066,0.22500000000000003,0.6000000000000001,0.41539757709792124,0.37323701410388727,0.06304570269674258,0.19298245614035087,0.5087719298245614,0.3784728009834461,0.4467787114845937,0.06307059610364792,0.21052631578947367,0.6090225563909775,0.45116528912160897,0.683764705882353,0.04684695462709855,0.536,0.8480000000000001,0.6853519490872171,0.6285822021116139,0.061886179192852143,0.4615384615384616,0.8173076923076924,0.6315915895224123,0.7575034104514088,0.033100857905631706,0.7195416561843023,0.8528170729076143,0.7582191911368965,0.12617268834040077,0.03351890418252924,0.03167434589513929,0.15649808408470123,0.13050689387424813,-0.6327769981648359,0.5427027897826558,1.0,-0.4566538277245969,0.8661475366932581,-0.5378232584997769
24,0.2708678065820923,0.029383106755810167,0.2046332046332046,0.3088803088803088,0.2724379882231745,0.39088017878631554,0.0211794014868156,0.36462093862815886,0.4368231046931408,0.39144672834431166,0.8414438874965194,0.019059840117836874,0.8011695906432748,0.868421052631579,0.8416571561974427,0.09416128260349328,0.01178158308037681,0.0753768844221101,0.12060301507537652,0.09488677670047943,0.22279566932746123,0.08451885663107196,0.021194605009633882,0.49132947976878616,0.23810986220466765,0.4685430463576157,0.05934734267414613,0.28035320088300214,0.5916114790286975,0.47224227206629593,0.1343929702138657,0.029325153874308663,0.07191316146540006,0.22388059701492535,0.13751798943503746,0.3536788432897568,0.039100035963691375,0.25661922885983784,0.4447294390203541,0.35580800560219855,0.2527959886409518,0.04347152231451246,0.13338647364733264,0.3475312252913611,0.2564626441115241,0.5705478501074479,0.061625378853826566,0.3608367059779219,0.770631155982999,0.5738269129430832,0.5496164908916588,0.09956818977404759,0.18120805369127518,0.785234899328859,0.5584568826290143,0.48575129533678774,0.053489800160113427,0.3471502590673575,0.694300518134715,0.4886526560136438,0.347041847041847,0.04882549538388855,0.21212121212121215,0.5252525252525253,0.35041916684245783,0.41130952380952385,0.0829977465495337,0.20000000000000004,0.675,0.41950225608111213,0.38199665831244783,0.059375651631468254,0.22807017543859648,0.5438596491228069,0.38652935866673366,0.44826351593268904,0.06618748820491326,0.19548872180451127,0.6466165413533834,0.4530660118851978,0.6766666666666667,0.05502361668932983,0.52,0.92,0.6788735768413242,0.615842490842491,0.1210928245077033,0.0,0.8557692307692308,0.627495721523045,0.7146885235616339,0.01972412525090547,0.6866247455066601,0.7655563511836323,0.7149574080920856,0.14419766127983125,0.018026910081399502,0.11696514934844293,0.18160009542846367,0.14530680067115156,-0.2539591087257711,-0.5953301964096669,1.0,0.06939802128200878,0.48142818022338224,-0.29624817597135217
25,0.6249542775858564,0.15156655716466869,0.37837837837837834,0.8146718146718146,0.6428829250828462,0.43860915827474767,0.03723495370749481,0.36101083032490977,0.4981949458483754,0.4401702413568049,0.45992613111726643,0.09159839248187586,0.36257309941520455,0.6491228070175439,0.46886457853573793,0.40819888918275565,0.09053078974600447,0.2311557788944718,0.5125628140703515,0.41801421649464093,0.5694554304837237,0.09254991014292438,0.2562620423892099,0.7745664739884393,0.5768490358540397,0.5982804693853838,0.10067103666806297,0.4039735099337748,0.8057395143487858,0.6066032451819321,0.45645933014354056,0.0826200677400492,0.293080054274084,0.6105834464043418,0.46379881655860394,0.370773818337006,0.08708448953341962,0.1596682111534006,0.5041990733079597,0.38075859041247667,0.27882479158046314,0.06710232039190095,0.10285222064372634,0.45681170972532037,0.28670296254918043,0.5145334069321874,0.10323413485351364,0.27198746681752906,0.7597516573102978,0.5246805994926801,0.5386082656305193,0.10691283289605209,0.2214765100671141,0.8389261744966443,0.5490071931489537,0.47853831469866376,0.08158514054639966,0.29533678756476683,0.7305699481865284,0.48537098101555554,0.34609250398724095,0.06832133883127464,0.19191919191919196,0.5555555555555556,0.35270198732471963,0.4073684210526316,0.07595786242714891,0.25,0.7250000000000001,0.4143161772569859,0.3719298245614034,0.0826691078020055,0.10526315789473684,0.6491228070175439,0.3809121119518744,0.44566679857538577,0.0904282511484144,0.03759398496240601,0.6766917293233082,0.45465381054881165,0.6817684210526319,0.03204632704800407,0.6000000000000001,0.76,0.6825132503051538,0.6285425101214575,0.07316210675506561,0.43269230769230776,0.9230769230769231,0.632741682480834,0.3785450861712353,0.13164680502145337,0.20251197529285903,0.5985407333896516,0.4005556555680645,0.5136445026086459,0.0918157178504023,0.3272551492037452,0.6126517534255898,0.5217011241463638,-0.8039642054714707,-0.7431267135004972,1.0,0.5826374017022847,0.8360329286032036,0.617946985799542
26,0.8105321816662019,0.1098920983562755,0.6602316602316602,1.0,0.8178717461405708,0.5097696229855965,0.11104376907588313,0.3140794223826715,0.6137184115523466,0.5216020191282095,0.2263218182914332,0.18956425648139377,0.05555555555555558,0.7543859649122806,0.2945941494677848,0.6993213490131068,0.21223929123586222,0.17085427135678355,0.9447236180904524,0.7305008413131728,0.6942375305404923,0.15992954483124838,0.08670520231213885,1.0,0.7122355810919349,0.6688058988188705,0.20682960560811997,0.23620309050772625,0.9227373068432669,0.6997419529611296,0.7034089160570156,0.20669848168213525,0.18181818181818188,0.994572591587517,0.7328491722077118,0.3191315972642795,0.13664180972244527,0.0,0.5882322521926195,0.34687674491647347,0.3326453544760034,0.1746396924214097,0.01848768666070985,1.0,0.37528326783184895,0.5331521130379165,0.11719095796909482,0.31821808317739386,0.7869504039920507,0.5457502281426454,0.5349754376254067,0.07470971631951004,0.1476510067114094,0.6778523489932886,0.5401136166658801,0.47737834517386923,0.06277876553210704,0.23316062176165803,0.6528497409326425,0.4814463907737295,0.3459335624284079,0.04724384459316752,0.23232323232323238,0.5050505050505051,0.349111730473894,0.40077319587628873,0.07843302678541512,0.15000000000000002,0.675,0.4082982662549573,0.3720383432808826,0.0468250555087094,0.21052631578947367,0.5087719298245614,0.37494334334272,0.44787225796449887,0.03231966381588108,0.2781954887218045,0.5413533834586466,0.4490248895737269,0.6801649484536084,0.030854051737025812,0.544,0.776,0.6808571916811318,0.6289651070578908,0.04505213397517676,0.528846153846154,0.7500000000000001,0.6305599701722684,0.19370102244465467,0.10746520453749306,0.0,0.367776510289643,0.2212460096723402,0.7608225617253317,0.18779686135358103,0.2465039196862029,0.9451696867829604,0.783425202191726,-0.3348732388208052,-0.24782763653289988,1.0,0.5362455807998034,0.7390501946476741,0.8228102312461901
27,0.26948914232151244,0.04212466922130054,0.20849420849420847,0.3590733590733591,0.27274278804676666,0.4025583773293542,0.03648236754464477,0.3501805054151625,0.47653429602888087,0.4041986106744318,0.7262279011594497,0.06575823324763432,0.5701754385964912,0.8157894736842106,0.7291818117610447,0.17887123478665007,0.050189392065301756,0.11055276381909529,0.3015075376884422,0.18573996112956895,0.3343691180237673,0.08914664562252402,0.10597302504816963,0.6262042389210021,0.3459825058848079,0.45077773099057006,0.05621607554823823,0.30905077262693154,0.5871964679911699,0.45424942771839066,0.22034336985592268,0.062133593599946406,0.12347354138398914,0.3880597014925373,0.22888745833228727,0.35500558856136055,0.06840705607824206,0.1603094489491974,0.5565530365712394,0.3614988851321341,0.2565508559827757,0.06792565885236751,0.11209606397408128,0.42627745672171413,0.26534047358436286,0.5933615688815651,0.07900558610123909,0.4270130699044055,0.7942034031071848,0.5985680861976742,0.540637001978508,0.04986967239104883,0.348993288590604,0.7785234899328859,0.5429189410044055,0.4767438377908893,0.051879667436622375,0.36269430051813467,0.6580310880829016,0.47954210342999964,0.34425176621708464,0.0527280729133969,0.12121212121212124,0.5151515151515152,0.348243388177555,0.41040462427745655,0.07771338501860456,0.20000000000000004,0.65,0.41765585855458903,0.3726802555521754,0.050899759134825716,0.19298245614035087,0.5789473684210527,0.3761201705835586,0.4457386240166894,0.042929330412333,0.2932330827067669,0.6165413533834586,0.44778923121302205,0.6814335260115613,0.030836071216618275,0.5760000000000001,0.76,0.6821268337641029,0.6219430858159182,0.05790395385211307,0.3942307692307693,0.7692307692307694,0.624617234093642,0.7022899180653657,0.04965765389987272,0.5938310386341451,0.7769249555473656,0.7040332079884467,0.25135395835396906,0.06267796523090621,0.1681331860821863,0.4023572566381928,0.25900701043651175,-0.6563162298941457,0.32113619252492603,1.0,-0.18991694665897363,0.8519092201483,-0.4254613281418142
28,0.3419691119691119,0.03413148501318642,0.28957528957528955,0.4054054054054054,0.3436512508742787,0.3959205776173279,0.04745181997565299,0.3285198555956679,0.45848375451263534,0.3987257983221689,0.7882163742690048,0.04283714688230799,0.739766081871345,0.8830409356725146,0.7893679266395766,0.1267336683417082,0.030366384574187708,0.06030150753768826,0.16080402010050232,0.13028552809246488,0.27793834296724473,0.07597129371962391,0.03660886319845846,0.4412331406551062,0.2880341014291829,0.49218543046357616,0.05001998671102009,0.39293598233995575,0.6004415011037527,0.4946953375972737,0.17244233378561724,0.04130920145981954,0.0854816824966077,0.25101763907734054,0.1772730777795256,0.3731135197749464,0.04177523526596348,0.27730431904683106,0.47511583650504713,0.3754216525688956,0.2625736196910577,0.05657569620726768,0.15909952880826422,0.4343127864595052,0.268539954317766,0.5979562499093375,0.05085207422371911,0.44334682391168745,0.7407197876321859,0.6000931185440842,0.5387248322147652,0.08357463974190753,0.20134228187919462,0.9060402684563758,0.5451048688543669,0.4817616580310882,0.0700783453926867,0.32124352331606215,0.7409326424870466,0.48678142928516693,0.3504040404040405,0.04884940572961452,0.22222222222222227,0.49494949494949503,0.3537589480525003,0.40274999999999994,0.09203747315439766,0.15000000000000002,0.7250000000000001,0.41302996259351443,0.3717543859649121,0.0750435775459311,0.21052631578947367,0.631578947368421,0.37917877924500487,0.4457142857142859,0.06781736134842582,0.22556390977443608,0.6691729323308271,0.450793108914784,0.6840800000000002,0.030137623722456357,0.5840000000000001,0.8,0.684736912981913,0.6299038461538463,0.09318949402836442,0.3653846153846154,0.8942307692307694,0.6366916792127083,0.6475525255131889,0.04622080690179216,0.5701928390961889,0.7091617166171799,0.6491835431210926,0.19564147698703224,0.039612356059391,0.10830737068169505,0.24000976214854663,0.19957212952393352,-0.11291162591292274,0.7515810204262047,1.0,-0.1936931299683408,0.8083888195419177,-0.3730946965918062
29,0.541102141102141,0.0693287185496575,0.471042471042471,0.667953667953668,0.5454453299234656,0.530357728913686,0.0564356433215853,0.4548736462093863,0.6173285198555956,0.5332976595625831,0.8051568314726207,0.0668769497727027,0.7105263157894737,0.8830409356725146,0.8078791561959716,0.12197350388305123,0.05416073388952283,0.06030150753768826,0.20100502512562812,0.13325759441959648,0.2679278332457522,0.09933569717975135,0.07707129094412335,0.4547206165703275,0.2854356214685678,0.4278145695364238,0.05625715356086334,0.28476821192052976,0.509933774834437,0.4314309101027662,0.17118539533736274,0.06318380637282815,0.07055630936227941,0.2971506105834464,0.18227464889623385,0.4076373113895867,0.08041189818004922,0.306397898394837,0.5533261625020685,0.4153512802863446,0.28427091508672614,0.05990074876146019,0.16111157537460713,0.387302893361532,0.2904011272189295,0.5432841843738752,0.08300969078398329,0.3708168327603464,0.6573102978081438,0.5494752314337099,0.5389871873093351,0.047909427425735764,0.4429530201342282,0.6711409395973155,0.5410737180384553,0.47847385774846923,0.06218590550768761,0.36269430051813467,0.6424870466321244,0.48242513276427246,0.3438016528925621,0.058414148962473676,0.2424242424242425,0.5252525252525253,0.34863985586556,0.4013636363636362,0.07583152956007728,0.275,0.5750000000000001,0.40833642546757504,0.3620414673046253,0.09527939103549111,0.03508771929824561,0.5263157894736842,0.37414853856028424,0.4453861927546138,0.05008276465576432,0.3609022556390977,0.6766917293233082,0.44814231987263,0.6818909090909092,0.02018953957913626,0.64,0.7280000000000001,0.682184299278295,0.6305944055944056,0.04214432445580771,0.5192307692307693,0.7403846153846154,0.6319755967772817,0.4271610067926871,0.0839945566653538,0.30221194871313695,0.5136842935921001,0.43519344778021973,0.19052536171205886,0.06728921489217429,0.1129972316667075,0.28603861421398746,0.20185496664939584,-0.8321653793566739,0.5226002307958829,1.0,-0.5152394668344464,0.895991348587018,-0.6279541477437453
30,0.5878494673675397,0.05192994486154785,0.5598455598455598,0.7683397683397684,0.5901111970342314,0.46452959853855824,0.025683174369534975,0.4476534296028881,0.552346570397112,0.46523050853266706,0.8057493130416409,0.10820852037322168,0.42397660818713456,0.8596491228070173,0.8128960364331109,0.11812072410243948,0.0908577661746068,0.0753768844221101,0.4572864321608039,0.14868819621902019,0.26290131624764945,0.10826643661800948,0.18111753371868988,0.6493256262042391,0.28407305227655905,0.5174339743078273,0.03620568360848665,0.390728476821192,0.6225165562913907,0.5186838882225636,0.16189043827957691,0.08801010210137426,0.10719131614653998,0.4898236092265943,0.1840135034470992,0.38886524087413693,0.06144339461290962,0.33483989740195264,0.5979232169452259,0.3936317833598262,0.3228300408101812,0.13990128583994388,0.2233821667105932,0.7420659154169051,0.3515050402840343,0.5474485085124867,0.11493053395792431,0.19220447655105388,0.6428042995778755,0.5592403349161474,0.541683512573785,0.05646900960803086,0.3959731543624161,0.6845637583892618,0.5445836558116482,0.4779324552094392,0.043887602780392415,0.38860103626943004,0.6373056994818653,0.47991910478231314,0.3446513326031399,0.05156313650852374,0.19191919191919196,0.5555555555555556,0.3484411928780637,0.4078313253012049,0.06414633029009198,0.25,0.625,0.4127851332897784,0.37349397590361444,0.0838930204180614,0.12280701754385964,0.7017543859649122,0.3826891601052482,0.448047830419422,0.04596115526380061,0.3458646616541353,0.6842105263157894,0.45037077525020086,0.6791325301204821,0.02049198003999242,0.6080000000000001,0.7280000000000001,0.679437896662886,0.6267377201112141,0.041320364200229054,0.4038461538461539,0.7500000000000001,0.6280819783713417,0.4127963322734682,0.05986469255867596,0.2033911633349939,0.4446984669542219,0.41706284330330057,0.18761418251879372,0.10426316839363042,0.1359097952314361,0.559218202417082,0.21433365618095757,-0.8682412563478461,-0.07233090382361883,1.0,0.08773693563233427,0.9229063440863914,0.06157719636910944
31,0.2921243018330396,0.07019809082552524,0.23938223938223935,0.4247104247104247,0.3003606785696477,0.4387508324278851,0.010697559731587793,0.42599277978339356,0.4657039711191336,0.43887996046063027,0.8759155169477084,0.08791083883173931,0.7046783625730995,0.9473684210526315,0.8802734099265618,0.07615748646143304,0.0547939665309043,0.030150753768843686,0.18592964824120628,0.09366532017712956,0.185962549338721,0.12171991078978842,0.038535645472061564,0.5664739884393066,0.22193234179703272,0.4308922180072439,0.03087578185668651,0.37748344370860926,0.5938189845474613,0.43198629835870445,0.11481866923107316,0.06906528953445272,0.0420624151967437,0.30122116689280876,0.13381715213236772,0.3682023371340347,0.039802593037684894,0.26502771802085057,0.48222116498427936,0.37032664831248313,0.2627740055241879,0.07211187827313628,0.0747349948252477,0.4017664868895561,0.2723964286409667,0.5764285133844591,0.09366084153453043,0.31187896195076664,0.7488721586375967,0.5839152471048735,0.5416042223235812,0.0662320973349831,0.3825503355704698,0.7449664429530201,0.5455998855625391,0.4723577644750742,0.058034068221556045,0.27461139896373055,0.6683937823834196,0.47587510142966777,0.3404923016573503,0.050990557429121286,0.20202020202020207,0.5454545454545455,0.34425252556473407,0.40558252427184477,0.06595193203131823,0.20000000000000004,0.675,0.41085838393598034,0.37131664111735635,0.04889234647668576,0.14035087719298245,0.5087719298245614,0.37449072238196646,0.44331703044017795,0.050754444107703335,0.15037593984962405,0.5714285714285714,0.44618493165304807,0.6814757281553397,0.027999945609258864,0.544,0.792,0.682045125631771,0.6325616131441374,0.055753145685711096,0.3461538461538462,0.7884615384615385,0.6349901014251408,0.6826172880788562,0.07095059208034629,0.5479312611174533,0.7358111307580736,0.686259043543459,0.11365004770671205,0.08317143530427885,0.046843280513877095,0.2760691667933426,0.1405939576227739,-0.8456474701271482,-0.5237161045350113,1.0,0.6741825541987937,0.8586534398311004,0.5191774319797897
32,0.27011583011583007,0.058025245205985884,0.22007722007722008,0.4092664092664092,0.27621698258718025,0.4050180505415164,0.05714005373503187,0.3574007220216607,0.5090252707581228,0.4089889450191582,0.9593274853801158,0.04977634556769356,0.8450292397660819,1.0,0.9606050863586103,0.02341708542713528,0.029320584690107142,0.0,0.09045226130653194,0.037409351900371104,0.09560693641618499,0.06174624003392836,0.007707129094412402,0.3102119460500963,0.1136448787567335,0.46456953642384113,0.05871139343112197,0.30684326710816767,0.5474613686534215,0.46822794834834475,0.05447761194029847,0.038491458510378836,0.0,0.15875169606512884,0.06659269222062886,0.3890671024325664,0.05776840867020888,0.33225426112857853,0.5649615257322522,0.3932900041256562,0.26786472361679836,0.03237551577607273,0.22137654840804052,0.37485134639985096,0.269794741312452,0.5762140795218824,0.09278591633327544,0.2828669654902302,0.774257655540566,0.5835630209723347,0.5392617449664432,0.06458086057081283,0.2885906040268456,0.7315436241610738,0.5430766154612063,0.48031088082901596,0.06017027434410042,0.33160621761658027,0.6735751295336787,0.48402768468161267,0.34717171717171735,0.0482114652566858,0.21212121212121215,0.49494949494949503,0.35047011731720223,0.4047500000000002,0.055923716983155916,0.25,0.6000000000000001,0.4085569115802595,0.3671929824561404,0.06983147138852697,0.19298245614035087,0.5789473684210527,0.373708919370891,0.44172932330827086,0.04810671136055776,0.2556390977443609,0.5789473684210527,0.4443151001164955,0.6824000000000001,0.022469732728470304,0.6240000000000001,0.76,0.6827661385862658,0.6290384615384614,0.051467104923897805,0.3942307692307693,0.7500000000000001,0.6311194501479335,0.718307254725388,0.07099834762812614,0.5530780769972178,0.7714036769201107,0.7217725887725222,0.037665457041736274,0.04703304686367575,0.0,0.1472496613059744,0.0600722321582176,-0.7955194981726296,0.7230784176231921,1.0,-0.5153056042147249,0.8317031522186262,-0.764405403847294
33,0.6543562195736109,0.08614442093245202,0.4555984555984556,0.7374517374517374,0.6599614753874005,0.5129493015225246,0.020710852283434462,0.47653429602888087,0.5703971119133574,0.5133642148399252,0.7790914484278311,0.040063631817738976,0.7076023391812867,0.8450292397660819,0.7801134202714095,0.1411768989876918,0.03187947599406694,0.09045226130653194,0.20100502512562812,0.1447060928140628,0.30064784563402314,0.0822660418533224,0.15992292870905578,0.5992292870905587,0.31162122426167327,0.5008638065073424,0.04651937454310195,0.40618101545253854,0.5938189845474613,0.5030038999244119,0.18724559023066478,0.04201334565225858,0.12618724559023053,0.3052917232021709,0.1918677709786076,0.3642890954200212,0.05084671346279456,0.21783468475922554,0.4427850405427768,0.36779504974142385,0.2478785564951689,0.06583532060483255,0.07191941528512566,0.3676195496358389,0.2564111158175153,0.5623568715228964,0.08381598870663755,0.3445174579688701,0.7252999115134109,0.5685239346285194,0.5388580877346562,0.018601375673540487,0.436241610738255,0.5906040268456376,0.5391767266552122,0.476984305774574,0.0321342823178248,0.38341968911917096,0.5544041450777202,0.4780576925005564,0.34541062801932426,0.03091998213168599,0.27272727272727276,0.4646464646464647,0.3467818037026609,0.4056159420289854,0.03674956128915718,0.32500000000000007,0.525,0.4072653143000079,0.3644800406814137,0.06439986709000313,0.19298245614035087,0.5438596491228069,0.37008511146363465,0.4437179906287462,0.021459249677251668,0.3007518796992481,0.5488721804511278,0.444232841708233,0.6815072463768124,0.010612791054574319,0.656,0.7120000000000001,0.6815892766387875,0.6271599777034562,0.030825724473256114,0.4615384615384616,0.778846153846154,0.6279115998544683,0.33590918631454253,0.07898175242877177,0.25576735113161286,0.5156043414075762,0.34500419550966416,0.21567755652904436,0.03940324491359869,0.1483517015070599,0.288369070949819,0.21922174449991022,-0.36613715728709956,-0.5781127957093127,1.0,-0.017818946125971596,0.7758337669583163,-0.13894699881095018
34,0.6833976833976833,0.1596458105229953,0.5173745173745173,0.9111969111969112,0.7015756295951776,0.5707493176014801,0.032372450772365315,0.5342960288808665,0.6245487364620939,0.5716554722222971,0.5799814577093141,0.22900191393731711,0.23099415204678353,0.8362573099415205,0.6230415979637689,0.33319034195367053,0.21909662854746176,0.10050251256281406,0.6884422110552766,0.3980373476402034,0.46038347666713664,0.20182126095803335,0.17148362235067438,0.7919075144508672,0.5021832707626281,0.4825553222419642,0.13053229261888338,0.25386313465783666,0.7726269315673289,0.4996904338358075,0.36563854783731004,0.2060077760791452,0.11940298507462677,0.6824966078697422,0.41906228678292756,0.3911801550271834,0.072362013388147,0.28764686414032764,0.5656131060731424,0.39773649295411473,0.3535871985359866,0.11273374620202406,0.22860834517205253,0.8312580755063866,0.37091483920974655,0.4796266792904232,0.12501836738042213,0.13055398407241398,0.6246718017900402,0.49546012845325077,0.5389589130790637,0.07940828919262492,0.3355704697986577,0.7114093959731543,0.5447067907482646,0.4730822696828007,0.06081087547828288,0.32642487046632124,0.6424870466321244,0.4769273522876146,0.34269524513426947,0.04927496886904542,0.22222222222222227,0.585858585858586,0.3461768963456386,0.40365853658536593,0.04986431453954466,0.30000000000000004,0.6000000000000001,0.4066894902298492,0.37184424475823696,0.07342689605099323,0.17543859649122806,0.5263157894736842,0.37893785943472874,0.44810196222262955,0.06848278639046931,0.2706766917293233,0.6165413533834586,0.45324173106004695,0.6840000000000003,0.025800756042133333,0.6000000000000001,0.7360000000000001,0.6844805044525446,0.6257035647279551,0.060015363316572506,0.41346153846153855,0.7980769230769231,0.6285402690540085,0.27778880482310114,0.1571055563344185,0.08170907829037632,0.4472451148497899,0.3186656147371633,0.41193349343858715,0.22568015687193166,0.1605697899475168,0.7538230450761623,0.4690411708620595,-0.921112356392675,-0.8180458835302852,1.0,0.78721914690445,0.9331696067589567,0.8328257714299144
35,0.26664326664326665,0.0310648251056682,0.21235521235521232,0.30501930501930496,0.26841951016830873,0.37774860518542813,0.018414942853238303,0.332129963898917,0.4187725631768953,0.3781904028498066,0.840377458798512,0.0250952903625227,0.7923976608187133,0.8742690058479532,0.840746397453361,0.0949444190650217,0.01953452874990453,0.07035175879396949,0.12562814070351713,0.09690334741391839,0.2212880247562329,0.033669730784877526,0.1579961464354529,0.3063583815028903,0.22379647929492996,0.47665395678640704,0.054711220037028996,0.3222958057395143,0.6357615894039734,0.4797363430272297,0.133012622836232,0.020492122531476826,0.09769335142469471,0.17096336499321585,0.1345582490522787,0.3429106867951399,0.04071284893635685,0.2146078106900546,0.4227515306966738,0.34528272618822514,0.26679447223856884,0.022888479378761158,0.21534683697280205,0.31619343931397575,0.26775965956781056,0.5991271784822418,0.09333435624155473,0.3689890769833326,0.7661052845351553,0.6062447431739441,0.5426072808623145,0.059695770720351954,0.32885906040268453,0.6711409395973155,0.5458317071899866,0.47613440100486765,0.05076767455925247,0.38860103626943004,0.6839378238341969,0.4787925163785589,0.344811753902663,0.03921667781619899,0.27272727272727276,0.5050505050505051,0.3470011400682847,0.40340909090909094,0.03559558195261674,0.30000000000000004,0.5,0.4049527656705687,0.3740031897926635,0.06201997016818289,0.15789473684210525,0.5263157894736842,0.3790337487938962,0.4452039188881293,0.02681960591500362,0.39849624060150374,0.518796992481203,0.4459987918171283,0.6810909090909091,0.017520736964415168,0.648,0.7360000000000001,0.6813128147298799,0.6206293706293707,0.043728880661766084,0.5096153846153847,0.701923076923077,0.6221447241093786,0.7227057504422303,0.021619882190135477,0.692406957434168,0.7541820322088886,0.7230241620564885,0.14519798531114886,0.022296959012275845,0.11497042890809028,0.19004249105968396,0.14687435677296556,0.4079312377443579,-0.5077824959167201,1.0,0.01471497792197415,0.4664877062296236,-0.44689031842336013
36,0.3883204633204632,0.029518378260304873,0.3436293436293436,0.4517374517374517,0.3894267905593408,0.33641696750902567,0.021408560263982242,0.3140794223826715,0.3898916967509025,0.3370889695612836,0.8191154970760233,0.14507357600033738,0.6023391812865497,0.9590643274853801,0.831705152516778,0.1064698492462309,0.10209004347222105,0.010050251256281229,0.2613065326633164,0.1470643602728857,0.24496628131021195,0.1479067620052138,0.044315992292870865,0.5221579961464355,0.28567715011483685,0.5787251655629138,0.04709417783684646,0.42384105960264895,0.6644591611479028,0.5806142915672365,0.15147557666214384,0.11077933918541641,0.02985074626865658,0.3622795115332428,0.1872525341366761,0.3627248210739699,0.04357552816077572,0.2798899553202052,0.49580092669204034,0.36530040671268477,0.2892803076567051,0.12117342356984469,0.044599294176635856,0.6171133238623581,0.31334096044939524,0.6084470240944633,0.12899826124578376,0.15593948097538335,0.8123359008950202,0.6218040894375721,0.5416107382550334,0.1016961383630377,0.1476510067114094,0.7651006711409396,0.5509582743222413,0.47862694300518144,0.07548377123627471,0.34196891191709844,0.6735751295336787,0.4844691195463698,0.3404040404040404,0.06851592407670153,0.22222222222222227,0.5252525252525253,0.34714645638019825,0.4037499999999999,0.07464048855444053,0.25,0.6000000000000001,0.4105065468418257,0.3721491228070174,0.07581666004286629,0.15789473684210525,0.5964912280701754,0.37969893793877985,0.44257518796992484,0.05864129323064298,0.3007518796992481,0.5789473684210527,0.44639513131583264,0.6810000000000003,0.046758198360544775,0.52,0.776,0.6825833282464494,0.6289663461538462,0.05245842141774878,0.5192307692307693,0.7980769230769231,0.6311229293862185,0.6316654017707191,0.027067257332545572,0.5713441652476183,0.6560136120295383,0.6322378178015183,0.1690063127777335,0.1339790028196491,0.04044787849520426,0.3706295512676405,0.2151490815465309,-0.7988662248249865,0.2724568105756301,1.0,-0.34410079179297537,0.9335188072031658,-0.32694951017712093
37,0.8695072623644051,0.09952320165374812,0.5521235521235521,0.9498069498069497,0.8751170389614042,0.522477221935706,0.027398515882443727,0.4693140794223827,0.5703971119133574,0.523186572327071,0.5922793093845725,0.03810331865225619,0.5350877192982455,0.6959064327485378,0.5934891398630053,0.30994256999282116,0.03894915254116693,0.19597989949748662,0.37185929648241167,0.31235136180156314,0.47247453894852737,0.1050648635080199,0.18111753371868988,0.6917148362235068,0.48387953386119337,0.6265110900872487,0.06833821095368918,0.44812362030905073,0.814569536423841,0.6301830373139468,0.3359178135297538,0.05389854123240317,0.2225237449118046,0.44640434192672995,0.34016355806041,0.39639515515787627,0.09117819360424559,0.23723729935462518,0.57918252523581,0.4066246576685714,0.25844934053666213,0.09107590867089481,0.09040067368204524,0.5078328394283989,0.2738469187216605,0.5224637470927561,0.15679899242024128,0.08884923916039278,0.7225872898443506,0.5452170223667747,0.5413870246085011,0.04925619165490115,0.38926174496644295,0.6845637583892618,0.5435965414034878,0.4786577843572664,0.053749369138085694,0.3471502590673575,0.6424870466321244,0.4816304355153515,0.34391534391534395,0.054652731711690515,0.23232323232323238,0.5656565656565657,0.34817973272382097,0.40327380952380953,0.07749657609078357,0.22500000000000003,0.7000000000000001,0.4105654492224573,0.3713450292397661,0.06185229199540839,0.15789473684210525,0.47368421052631576,0.37640044187915306,0.44539921231650564,0.05513588379927028,0.2631578947368421,0.6015037593984962,0.4487585474916811,0.6824761904761906,0.024990830217326388,0.6160000000000001,0.752,0.6829281493267482,0.6256868131868132,0.05280895915934441,0.41346153846153855,0.778846153846154,0.6278850010376391,0.14222942461848803,0.09309757457248277,0.05763845892903113,0.4331744680428794,0.1696855537797668,0.3949791497037763,0.038171533008653905,0.28796198825087727,0.45544908551312036,0.3967974906800018,-0.23173448706568778,-0.4532945798920142,1.0,0.2637699013154964,0.715290442884394,-0.054051448850835286
38,0.7572022572022576,0.019548077680912924,0.7413127413127413,0.8378378378378378,0.7574496927522648,0.4972924187725632,0.021893874306100902,0.48375451263537905,0.5703971119133574,0.4977648776185041,0.8070175438596489,0.03583465195349321,0.6754385964912282,0.8274853801169588,0.8077974645408622,0.12514495554696534,0.030367722230967918,0.11055276381909529,0.24120603015075304,0.1287079013300345,0.27386245738846904,0.03352307771666065,0.21001926782273617,0.36030828516377666,0.27586741531157094,0.5616403464085582,0.017323251293047303,0.509933774834437,0.5916114790286975,0.5619023070702904,0.1624047594196848,0.022335050628065223,0.1275440976933514,0.23473541383989138,0.1639041397073704,0.38870347445868714,0.06133247421123977,0.3438896243587622,0.5765968889624359,0.3934205429250213,0.29119095454277993,0.0863655952372741,0.22298361435559874,0.5423911855646909,0.3034925788747673,0.5654728230123157,0.07554922977636622,0.2982868416090053,0.6355513004627413,0.5704011189423706,0.5481414558595767,0.040502917767982954,0.4832214765100671,0.6845637583892618,0.5496071271055324,0.48156636110003986,0.06563906000731222,0.32642487046632124,0.7461139896373057,0.4859339367012325,0.3502331002331004,0.050632485448200634,0.23232323232323238,0.4848484848484849,0.35380442640994353,0.4110576923076923,0.07514911019564761,0.20000000000000004,0.55,0.4177406031719464,0.37685560053981093,0.06550417530712048,0.19298245614035087,0.5263157894736842,0.38239825485257883,0.4476576055523423,0.016409587260431614,0.40601503759398494,0.48120300751879697,0.4479524840941341,0.6832307692307693,0.01134246814897037,0.664,0.7120000000000001,0.6833231018621145,0.6272189349112427,0.02176174601575759,0.5673076923076924,0.6730769230769231,0.6275890842871882,0.255408920163359,0.02658983907729401,0.15092428013047487,0.27377327883633357,0.25676280788212424,0.19114846402864785,0.035306416554342746,0.1708694486303416,0.3209370912583067,0.19432011313472164,-0.6317080869036839,0.37920142719182925,1.0,-0.3129252005557109,0.6913630039747176,-0.4469095492818446
