,Orientation X,Orientation X,Orientation X,Orientation X,Orientation X,Orientation Y,Orientation Y,Orientation Y,Orientation Y,Orientation Y,Orientation Z,Orientation Z,Orientation Z,Orientation Z,Orientation Z,Orientation W,Orientation W,Orientation W,Orientation W,Orientation W,Accelerometer X,Accelerometer X,Accelerometer X,Accelerometer X,Accelerometer X,Accelerometer Y,Accelerometer Y,Accelerometer Y,Accelerometer Y,Accelerometer Y,Accelerometer Z,Accelerometer Z,Accelerometer Z,Accelerometer Z,Accelerometer Z,Gyroscope X,Gyroscope X,Gyroscope X,Gyroscope X,Gyroscope X,Gyroscope Y,Gyroscope Y,Gyroscope Y,Gyroscope Y,Gyroscope Y,Gyroscope Z,Gyroscope Z,Gyroscope Z,Gyroscope Z,Gyroscope Z,EMG1,EMG1,EMG1,EMG1,EMG1,EMG2,EMG2,EMG2,EMG2,EMG2,EMG3,EMG3,EMG3,EMG3,EMG3,EMG4,EMG4,EMG4,EMG4,EMG4,EMG5,EMG5,EMG5,EMG5,EMG5,EMG6,EMG6,EMG6,EMG6,EMG6,EMG7,EMG7,EMG7,EMG7,EMG7,EMG8,EMG8,EMG8,EMG8,EMG8,Roll,Roll,Roll,Roll,Roll,Yaw,Yaw,Yaw,Yaw,Yaw,Accelerometer X vs Roll,Accelerometer Y vs Roll,Accelerometer Z vs Roll,Accelerometer X vs Accelerometer Y,Accelerometer X vs Accelerometer Z,Accelerometer X vs Accelerometer Z
,mean,std,amin,amax,RMS,mean,std,amin,amax,RMS,mean,std,amin,amax,RMS,mean,std,amin,amax,RMS,mean,std,amin,amax,RMS,mean,std,amin,amax,RMS,mean,std,amin,amax,RMS,mean,std,amin,amax,RMS,mean,std,amin,amax,RMS,mean,std,amin,amax,RMS,mean,std,amin,amax,RMS,mean,std,amin,amax,RMS,mean,std,amin,amax,RMS,mean,std,amin,amax,RMS,mean,std,amin,amax,RMS,mean,std,amin,amax,RMS,mean,std,amin,amax,RMS,mean,std,amin,amax,RMS,mean,std,amin,amax,RMS,mean,std,amin,amax,RMS,corr, corr, corr, corr, corr, corr
0,0.5579511614055989,0.05179033107074963,0.4695652173913034,0.6869565217391296,0.5603168692040221,0.7366890669423626,0.09624755204763957,0.48113207547169834,0.8537735849056605,0.742864371279814,0.8519704952581663,0.07941694439408377,0.49538461538461537,0.9292307692307692,0.8556134512077607,0.8521218214569984,0.07144011662633583,0.6238532110091745,0.923547400611621,0.8550703920154891,0.5428440864214588,0.051394806582397895,0.42591155934833197,0.7657098525989139,0.5452384289341812,0.5576379451581286,0.029734171061745186,0.4621500172830971,0.6830279986173523,0.5584192757805824,0.39025529265255293,0.078029918258899,0.26136363636363624,0.6688311688311689,0.3978749240325353,0.28377714999792725,0.10971117994515707,0.08582101167315176,0.6230004323389537,0.30397554131073085,0.4086187144458697,0.05757774045907796,0.2521289484311625,0.5665285410777307,0.4126003348826106,0.5716065138922816,0.03091520643128794,0.41371351995235256,0.6749684686262831,0.5724304885723488,0.5417537342310964,0.08093855260289835,0.3107344632768362,0.7570621468926554,0.547684596688144,0.37206155927617124,0.08072861303430677,0.19753086419753085,0.6419753086419753,0.3806016781206038,0.32924498247849654,0.0894391227624739,0.13953488372093023,0.8604651162790697,0.34101617987902855,0.326336721166593,0.08008409431878408,0.14516129032258063,0.629032258064516,0.3358887644720437,0.4407685017661756,0.1253738587933081,0.18238993710691825,0.8805031446540881,0.45801763423370156,0.4694557571269902,0.09632529025730936,0.22522522522522526,0.8738738738738738,0.4791035022414754,0.4412726469288556,0.029304571677105776,0.38709677419354843,0.5741935483870968,0.44223132299921675,0.4766695205479452,0.09255324427114459,0.09375,0.7890625,0.4854509150959196,0.09318879387258128,0.009990904893489966,0.053607388488899455,0.10130990753125824,0.09371553826170098,0.2737146109406784,0.08688012760918584,0.1617234261609104,0.4632318210351021,0.2869920650657095,-0.36051911672867415,0.4027188332455318,1.0,0.1423834652590396,0.22879588178412558,-0.056020015285163656
1,0.47735236859182356,0.05518609029222754,0.3913043478260869,0.5913043478260871,0.4804844774495839,0.4353703182202199,0.07792873210133819,0.28301886792452846,0.584905660377359,0.4421872467239842,0.6301722158438574,0.15356827006817686,0.15999999999999992,0.7661538461538461,0.6483426925099296,0.325026244922178,0.03759672820213341,0.24159021406727832,0.36697247706422026,0.3271612395077717,0.6004423190486667,0.05032349869577447,0.5128006206361521,0.7191621411947245,0.6025160870855258,0.5629182122570695,0.03201023454646422,0.46698928447977883,0.6208088489457312,0.5638140433214471,0.5829860438069391,0.0626227171863133,0.4237012987012987,0.7646103896103897,0.5862898605365049,0.2914576791786851,0.08005736997200537,0.19066147859922178,0.4818434932987462,0.3020945246093643,0.3582427615753339,0.037235435542744194,0.2836768914719154,0.45239934682984206,0.3601439437013494,0.5900132478831362,0.025276887945870855,0.5439994044073854,0.6389767193357391,0.5905463721051452,0.5419512606459229,0.08206873432815458,0.22598870056497178,0.7062146892655368,0.5480382464255943,0.3735028560899207,0.07157988401490845,0.13580246913580246,0.5802469135802468,0.38019940882403513,0.32714335300242975,0.056600327208596694,0.20930232558139533,0.4767441860465116,0.33193155254147916,0.32571015888300436,0.07065373111661771,0.1935483870967742,0.5806451612903225,0.33317345423674133,0.44128414531118004,0.10278328655946256,0.0,0.8364779874213837,0.4529220939934391,0.46766169154228865,0.09183046427530528,0.0,0.6666666666666667,0.47646031178751935,0.440346653827636,0.01748343752125963,0.4,0.4903225806451613,0.440688420402874,0.48017723880597013,0.07869498935179083,0.2890625,0.8125,0.48648807863398363,0.031030613400425216,0.008151028155545017,0.003933718375417727,0.039573278452834204,0.0320678436639101,0.5534322982743238,0.07760007477925937,0.4233040314202947,0.7104200521816093,0.5587657856300807,0.4041758506012048,0.7151911593279182,1.0,0.7441236063926329,0.01570831679801464,0.12856364615410754
2,0.23460869565217413,0.06543860736934486,0.14782608695652222,0.37391304347826093,0.24338818209470428,0.7697169811320754,0.060464610737468526,0.6462264150943398,0.8773584905660379,0.7720408543669672,0.6052923076923076,0.09571531269556657,0.2707692307692307,0.6892307692307692,0.6126638314885261,0.46776758409785946,0.05189392060346785,0.38837920489296646,0.5596330275229359,0.47058010173448156,0.5286113266097751,0.036070991305405024,0.4344453064391,0.60899922420481,0.5298160328884222,0.5461458693397857,0.0210450377393586,0.49118562046318703,0.5776011061182165,0.5465430873573394,0.3585064935064937,0.05653716808691291,0.23051948051948057,0.5357142857142857,0.3628490433143012,0.3021572676178124,0.09099435047385489,0.21552269779507133,0.5272356247297881,0.3152988847998956,0.4107500921812723,0.03842402961939876,0.326751883131705,0.4927308482432882,0.41250759527319275,0.5789903829310163,0.03678359403646859,0.5126607224188067,0.6258386469537189,0.5801343255324926,0.5428248587570621,0.08913890841485216,0.2542372881355932,0.7344632768361582,0.5499505953975758,0.37407407407407417,0.07349441458911687,0.18518518518518517,0.5061728395061729,0.38108373527435796,0.3320930232558139,0.0689382780148248,0.1627906976744186,0.4767441860465116,0.3390327602862634,0.33483870967741935,0.05834181462893443,0.16129032258064513,0.45161290322580644,0.3397832448575887,0.45735849056603767,0.0983328078307451,0.11949685534591192,0.7232704402515724,0.4676031898595273,0.47639639639639647,0.0823608426676781,0.2972972972972973,0.6846846846846847,0.48332304800857984,0.44116129032258095,0.024100633518774683,0.4,0.503225806451613,0.44180596171211917,0.48328125,0.11616807875112267,0.125,0.859375,0.49677549121497033,0.04531523249960029,0.007627777705136949,0.022486539191415134,0.054472602987131524,0.045940065622041004,0.2179122393888046,0.052404032333968856,0.12536371783415556,0.34208094089846575,0.22400223889105697,-0.3074035681515106,0.5995143167357234,1.0,-0.09300033064034659,-0.4417263404209999,-0.3608716698227459
3,0.569979296066253,0.06850162255470428,0.46086956521739175,0.7826086956521747,0.5740322355681949,0.7686433063791553,0.12755494257624975,0.4481132075471699,0.8820754716981134,0.7790308737177852,0.6475824175824174,0.25872904045260287,0.0,0.8246153846153845,0.696783173336765,0.861766419105869,0.162097778881478,0.4923547400611622,1.0,0.8767007728891882,0.5063726033470021,0.025078154349646588,0.4484096198603568,0.5702094647013188,0.5069858382407271,0.5217725873619407,0.03554697400979363,0.4272381610784653,0.55858969927411,0.5229676639878852,0.3917555658627086,0.14170389130563713,0.22402597402597402,0.7613636363636364,0.4163092224081816,0.3169562514153955,0.11042801835416263,0.20255252918287936,0.5667963683527886,0.3354257619034034,0.3970124070557759,0.026143997670568925,0.3437571330746404,0.4521271925974048,0.3978620652476283,0.5666407606818783,0.022242221400937307,0.5034903478961567,0.6001099218722629,0.5670719342357555,0.5411622276029057,0.08379000188765649,0.3559322033898305,0.7796610169491526,0.5475342368032401,0.3700764256319812,0.0585050481993876,0.09876543209876543,0.5061728395061729,0.374618009938395,0.32655038759689936,0.05166241231084499,0.19767441860465115,0.4767441860465116,0.3305637406284138,0.3306451612903225,0.07710861983290607,0.1935483870967742,0.6129032258064515,0.33941299227797667,0.435309973045822,0.08556373405671444,0.27044025157232704,0.7169811320754718,0.4435411690480164,0.46525096525096526,0.07236512191695012,0.2072072072072072,0.6306306306306306,0.4707789605971553,0.4404761904761906,0.017980795126162977,0.4,0.4838709677419355,0.4408386716852308,0.4787016369047619,0.06841322040790385,0.3203125,0.7265625,0.4835079184734854,0.08586315686766555,0.028483275966598127,0.01555735202789621,0.10644370703684936,0.09041084237709066,0.21194888862319666,0.12565416774440788,0.1172668658848326,0.5797975518423548,0.2460149128266535,0.07113134155891111,0.9725799894778253,1.0,0.13194468642453958,-0.35931624063995254,-0.8923302300855883
4,0.6045217391304353,0.03764774529223877,0.5391304347826091,0.6869565217391296,0.605669496303358,0.6677358490566039,0.05981125394621709,0.5,0.7311320754716981,0.6703558774949245,0.8212307692307695,0.11569085472884347,0.40307692307692305,0.8984615384615384,0.8291783057472581,0.8395718654434251,0.08336637274345322,0.5963302752293579,0.9510703363914373,0.8436183202766908,0.558588052754073,0.036662591132645035,0.5096974398758727,0.6834755624515128,0.5597659112132277,0.5457518147251987,0.08917815656554168,0.033529208434151414,0.8285516764604218,0.5528460292089539,0.41123376623376623,0.08946800897465564,0.0,0.6022727272727273,0.4206633388210806,0.3152310592304366,0.15987904101681205,0.2088197146562905,1.0,0.3527331885503112,0.38434103559075017,0.06506770261705741,0.0,0.4757212087159587,0.3897013747016488,0.57628061170865,0.06177327708435767,0.4297244508285744,0.8669770171320463,0.579516145105382,0.5323163841807912,0.08836419751945615,0.3107344632768362,0.7627118644067796,0.5394560219726013,0.37456790123456796,0.08183915633078695,0.24691358024691357,0.7037037037037037,0.3832294445812134,0.333953488372093,0.06751791858729499,0.22093023255813954,0.5348837209302325,0.3405766115569932,0.322258064516129,0.05378987719583112,0.2096774193548387,0.4354838709677419,0.3266278371735167,0.45358490566037724,0.06715912879066309,0.339622641509434,0.6477987421383649,0.45843146516273936,0.47369369369369385,0.043113198465364475,0.3873873873873874,0.5945945945945946,0.4756125401726184,0.43922580645161297,0.017958874777981335,0.38709677419354843,0.4903225806451613,0.43958546360485484,0.47640625,0.10034084232292442,0.234375,0.671875,0.4866516556885171,0.0902969049680799,0.01265114426917883,0.04699237592685668,0.10197870469224724,0.09116129370027413,0.33018864164459477,0.04376777859218764,0.2765444910633974,0.4452793916771518,0.33301928644620493,-0.516512736935153,0.20354693598457943,1.0,-0.07761195245057258,-0.638543832998381,0.4199575345260473
5,0.5819397993311038,0.06850959845549175,0.5130434782608688,0.7391304347826093,0.5858815872333971,0.2981676342525401,0.08400338886971133,0.12264150943396235,0.39622641509433976,0.30955581758510586,0.6228402366863907,0.10331252631706438,0.2738461538461538,0.7138461538461538,0.6311879112716413,0.21847800517525282,0.09767441729523778,0.055045871559633024,0.3211009174311927,0.23893401471836984,0.6381810586620519,0.04081081013422221,0.5360744763382467,0.7618308766485646,0.6394595816666551,0.5699500119652211,0.028039047498349744,0.47770480470100246,0.6090563428966471,0.5706260468294627,0.6678946053946053,0.11193446452696576,0.4383116883116883,0.8896103896103896,0.6770314466248832,0.2542235524959261,0.1222615233353923,0.14029571984435796,0.5469087764807609,0.2815848637613045,0.361618520804604,0.050855950698283026,0.2400575913472512,0.46063420715326664,0.36510894982014636,0.5977700817120726,0.035835457664297375,0.5215551974214343,0.6730546894159689,0.5988226405592367,0.546284224250326,0.1195219776483415,0.3163841807909604,1.0,0.558960853362292,0.3755935422602091,0.08637984186963893,0.25925925925925924,0.654320987654321,0.3852122741101608,0.326923076923077,0.07746192054779492,0.19767441860465115,0.5813953488372092,0.3358030018184569,0.331575682382134,0.06072120516148792,0.24193548387096772,0.48387096774193544,0.3369845587144531,0.4469037252056119,0.14473402790180012,0.1383647798742138,1.0,0.4693272136343478,0.4702009702009702,0.11132867733541994,0.21621621621621623,0.8288288288288288,0.48295411706561225,0.44342431761786616,0.022133104834717376,0.3935483870967742,0.5161290322580645,0.4439657409353898,0.4734074519230769,0.08156136746113318,0.2734375,0.625,0.48024883569426496,0.05849908598998311,0.19036955455504487,0.0,0.9997704400161075,0.19739750853691798,0.6904730689600671,0.08685312298192996,0.5879078507064159,0.8737598479355957,0.6958099290012874,-0.04862731593371636,-0.06511406005956251,1.0,0.3621371035059458,0.010451838479041761,-0.07115513884387967
6,0.3652173913043482,0.05324977701702549,0.32173913043478386,0.4869565217391303,0.36899359031186646,0.5290356394129981,0.04324302179896395,0.41981132075471717,0.5707547169811322,0.5307608803034009,0.6786324786324782,0.03936863506412821,0.606153846153846,0.7230769230769231,0.6797481066501115,0.29548080190282033,0.07502217269166118,0.16819571865443428,0.3975535168195719,0.3046508768551535,0.5920868890612878,0.02876231003434391,0.5228859581070597,0.6609775019394879,0.5927695765543083,0.5719937012712679,0.016166334438119066,0.543726235741445,0.6014517801590046,0.5722170365142829,0.5251803751803752,0.05119971598782955,0.44805194805194815,0.6655844155844156,0.5276149958216649,0.2393141759139166,0.0351586897330588,0.1882818849978383,0.2965845222654561,0.24182625710326575,0.40241534442630067,0.03922120085766925,0.3484232612856214,0.5056274471932997,0.40427988760796224,0.5870965638588173,0.03261094692514405,0.5144387415478401,0.6455457555267491,0.5879814762403276,0.5354676710608913,0.06914101967432068,0.3502824858757062,0.6836158192090396,0.5398146667614004,0.3679012345679012,0.050189813048388085,0.2345679012345679,0.4691358024691358,0.37123356201648033,0.3237726098191214,0.045439246596390384,0.22093023255813954,0.4418604651162791,0.32687542767794314,0.33369175627240133,0.06884507316929601,0.16129032258064513,0.5161290322580645,0.34056498187483697,0.44458420684835803,0.10036792750846431,0.27672955974842767,0.7232704402515724,0.45552714231700603,0.4716716716716716,0.06928357532072675,0.36036036036036034,0.6846846846846847,0.4766211370142845,0.4415770609318998,0.014462629046210948,0.41290322580645167,0.4838709677419355,0.44180857869718754,0.4739583333333333,0.06135763530736304,0.2890625,0.5859375,0.4778259095385985,0.030748177459246642,0.0063661031169392176,0.018434947027515136,0.03735674608078238,0.0313859376152023,0.46134144152870415,0.03871766721766395,0.42210231785930197,0.5616886931866445,0.46292728482128787,-0.23153315568820934,-0.815978936810127,1.0,0.12652401251499562,-0.19822705891817025,-0.2179870565855309
7,0.4730134932533735,0.04493190565123293,0.41739130434782634,0.5739130434782611,0.47510612786598133,0.6542778139232274,0.060671251661015294,0.4858490566037741,0.716981132075472,0.6570365233680804,0.8096551724137933,0.0275356086904269,0.7415384615384615,0.846153846153846,0.8101151988331872,0.6835916903933357,0.04135226807134256,0.6055045871559633,0.7461773700305812,0.6848197765230943,0.5588400524330541,0.03429347647802539,0.4670287044220324,0.6245151280062063,0.5598731732606957,0.5632024983014887,0.010679671769316766,0.5447632215693052,0.5890079502246803,0.5633019998277238,0.44334975369458124,0.05972311466367548,0.31493506493506507,0.5698051948051948,0.4472855431433634,0.2602567795220419,0.04567941662733564,0.1936878512753999,0.35819455252918286,0.26416703876822717,0.4107764750971309,0.05080849544371749,0.3080961494565694,0.5078222393903744,0.4138530017125118,0.5663775435006108,0.02616734456843863,0.5088287846407176,0.6088686367936096,0.5669712920556412,0.5388661601402687,0.14220832766540914,0.1016949152542373,0.8248587570621468,0.5570020385903665,0.36930608769689227,0.09245269867405967,0.19753086419753085,0.6049382716049383,0.38050902379144685,0.3267842822774659,0.08987664814129202,0.12790697674418605,0.7209302325581395,0.3387130148164848,0.32730812013348165,0.09365900124128645,0.14516129032258063,0.8225806451612903,0.34022253378154393,0.44556495337237045,0.11034422344046829,0.14465408805031443,0.6855345911949686,0.458796302200335,0.470798384591488,0.09667068337522061,0.10810810810810811,0.7837837837837838,0.4804531355478586,0.4418242491657397,0.024237579380156478,0.3419354838709678,0.5161290322580645,0.442477116673853,0.4870689655172414,0.1318418780064949,0.171875,0.9765625,0.5043002711379675,0.07427610268600894,0.004874016151540725,0.06285879333271055,0.08158631900049446,0.07443309664984041,0.34548978879973957,0.0518618465189559,0.29073032571413915,0.49355077933358205,0.3492942484410485,-0.4861256106034331,-0.01895856650907442,1.0,-0.03645448227292241,0.29971992356789895,-0.334546224024964
8,0.5043478260869566,0.044614987541973385,0.44347826086956577,0.5739130434782611,0.506291108780806,0.6061006289308178,0.06322016765579784,0.4858490566037741,0.6981132075471701,0.6093451168761272,0.9145025641025641,0.05505397571490326,0.6707692307692307,0.9507692307692307,0.9161361620717857,0.6387359836901123,0.0545785911031061,0.5535168195718655,0.743119266055046,0.6410325747047634,0.5826014998707006,0.03133591095081116,0.5050426687354538,0.6733902249806051,0.5834323906353724,0.5875377347620696,0.015016076313659681,0.5482198409955065,0.6194262011752507,0.5877270334800248,0.4867748917748916,0.04793230879143681,0.3603896103896105,0.625,0.48909781033264454,0.2643755238506989,0.05730567593953319,0.21098140942498916,0.4807609165585819,0.27043404414561617,0.3927981552039985,0.04331017317166199,0.2850508313872842,0.4919056063771881,0.39514699992596225,0.5780688493384251,0.03238274134656619,0.5156693409942893,0.6407569281435028,0.5789630857145164,0.5419962335216573,0.1443193243000341,0.10734463276836159,0.96045197740113,0.560633817168743,0.3753086419753087,0.1348435828852945,0.07407407407407407,0.9753086419753085,0.3984933266217755,0.32232558139534895,0.10236628525891614,0.17441860465116277,1.0,0.33798360713914805,0.3223655913978494,0.06605048460588886,0.16129032258064513,0.5806451612903225,0.328974272773828,0.4483018867924527,0.13889518660680283,0.02515723270440251,1.0,0.4690514146580429,0.47099099099099107,0.09347852275622269,0.25225225225225223,0.7657657657657657,0.4800564946147542,0.4393118279569892,0.024375620234339448,0.367741935483871,0.4903225806451613,0.4399785571667812,0.480625,0.12034978800902629,0.1015625,0.8515625,0.49526895839112856,0.07434599241146764,0.006158505662511463,0.05784119354792033,0.08455767632662753,0.0745972391161222,0.42283009543055305,0.05098086105889901,0.34164079482709586,0.5107373379625604,0.4258517157652334,-0.5089390604642979,-0.07472678342235602,1.0,-0.15760479187057472,0.0034412664712583606,0.0268571856077007
9,0.5928695652173918,0.051778746027494514,0.4956521739130437,0.6869565217391296,0.5950812878342211,0.2824528301886794,0.0629730591474768,0.18396226415094352,0.41037735849056656,0.2892505753432805,0.5929846153846151,0.038335315644356896,0.5046153846153846,0.6399999999999999,0.5941977436677807,0.21871559633027535,0.06366422751214208,0.1253822629969419,0.33639143730886856,0.22761498910557576,0.6334367726920092,0.03375077573049064,0.5616757176105507,0.7036462373933281,0.6343173319117411,0.5609125475285172,0.008999693421254307,0.5451088835119254,0.5803664016591774,0.5609832979394076,0.6947402597402597,0.06656931705088773,0.49350649350649345,0.827922077922078,0.6978587772587894,0.21385214007782097,0.024597553359877206,0.18352961521833117,0.3011258106355382,0.21523400441038618,0.36634373957473704,0.02475507621998031,0.30919354555510675,0.43072796867592567,0.36716248861816836,0.5825737045860632,0.024234330369647294,0.5278505237711523,0.6209118698104614,0.5830674729293563,0.5283615819209041,0.0711738114232967,0.3389830508474576,0.7005649717514124,0.5330387963871192,0.3688888888888889,0.07201470921336024,0.18518518518518517,0.5925925925925926,0.3757145303576934,0.32558139534883723,0.06351513054586432,0.19767441860465115,0.46511627906976744,0.3315972457204505,0.3258064516129032,0.07220479085710782,0.1935483870967742,0.5483870967741935,0.33355525044414364,0.4405031446540882,0.08246353587601239,0.15723270440251574,0.5911949685534591,0.44800362778032427,0.46882882882882887,0.056186414001100644,0.23423423423423426,0.5855855855855856,0.47211677114560163,0.4397419354838711,0.013251392262201973,0.40645161290322585,0.4709677419354839,0.4399375606061046,0.474375,0.06096733636396072,0.34375,0.609375,0.4781990343008338,0.018375682792345416,0.007778906314773749,0.004688468665958845,0.030568851976520817,0.019924027551422568,0.7035331910256458,0.06648027339746718,0.5691147495836537,0.8106622281793991,0.7066046879908947,-0.16821145450944736,0.4228777519372182,1.0,0.36959005328219946,0.18233645228456613,-0.46863259316509454
10,0.4233333333333337,0.21675362134889878,0.20869565217391273,0.7739130434782604,0.47477384925826394,0.5535377358490569,0.16360589249646965,0.23113207547169834,0.7075471698113207,0.5768230216170933,0.5417435897435897,0.22132603655072658,0.03384615384615375,0.72,0.584512541561431,0.3895514780835881,0.08213301812874826,0.2813455657492355,0.5229357798165138,0.39797456727735336,0.5653866046030516,0.06299304912146006,0.44763382467028684,0.7323506594259114,0.5688268642550434,0.5403963590275377,0.04762095561188761,0.32388524023505016,0.5983408226754235,0.5424556980436765,0.5102272727272728,0.11517243471491817,0.20292207792207795,0.7500000000000001,0.5228532120881573,0.2962097132151607,0.0739979307342643,0.219410289667099,0.43342153047989623,0.3051632782518426,0.39890794456247547,0.1177230651063105,0.15610240022474667,0.6458176039892543,0.4156384121149654,0.6104356073876842,0.05465321402951939,0.4759836036856672,0.7220465613285219,0.6128367006583384,0.5324858757062146,0.08303762269138129,0.327683615819209,0.7401129943502824,0.5388149346752988,0.34485596707818916,0.12378835298199713,0.04938271604938271,0.6172839506172839,0.36605163810296243,0.3199612403100775,0.0933304856236121,0.12790697674418605,0.7325581395348837,0.33307746624730333,0.3239247311827957,0.0618140886657876,0.17741935483870966,0.46774193548387094,0.32967336865975166,0.44129979035639416,0.056954069724702946,0.22641509433962265,0.5911949685534591,0.44489909896421126,0.47102102102102134,0.035072304317115215,0.2792792792792793,0.5855855855855856,0.4723032581562001,0.44462365591397857,0.0913500234007116,0.0,0.8774193548387097,0.45375758035251296,0.46627604166666664,0.07189819291577028,0.234375,0.625,0.4716953904175298,0.03295343285521319,0.008114165719203675,0.019945009772513234,0.04674857799688381,0.03392154321626744,0.4373544526537476,0.1567386352470109,0.2938283778149111,0.7506945481826852,0.46415134066254343,0.568937111290218,0.2803567940678558,1.0,-0.27770479427878825,-0.48630587130921776,-0.3501680155627535
11,0.46418219461697724,0.05854983854757704,0.37391304347826093,0.5565217391304342,0.4678020728556897,0.6670410302485776,0.10507823626693974,0.5141509433962268,0.8349056603773586,0.6751369571333959,0.7202442002442004,0.04773567735032563,0.6184615384615384,0.7723076923076923,0.7217993025192738,0.6902577544779382,0.08189824968325099,0.5902140672782875,0.8409785932721713,0.6950227517634804,0.5491767951038701,0.040125433824692254,0.43599689681923964,0.6415826221877423,0.5506175136735061,0.5462062230123067,0.014914659314802996,0.511579675077774,0.5786380919460768,0.5464065832455653,0.42612347969490827,0.06927578655540916,0.26136363636363624,0.573051948051948,0.43162967670265606,0.24033928314083972,0.056278951981687544,0.1642888024210981,0.39472546476437526,0.24673876170811038,0.39409577209166335,0.06692855835750958,0.269959440240198,0.5377240882833212,0.39964960579276193,0.5654334396057411,0.04082927178520548,0.46448779035139964,0.6265240163963144,0.5668823010768765,0.5332257196663976,0.05780719737782295,0.3559322033898305,0.672316384180791,0.5363005666309124,0.36311973349010374,0.08962138235841574,0.09876543209876543,0.5925925925925926,0.37384547755250225,0.31690660760428213,0.09369990805650882,0.08139534883720928,0.686046511627907,0.33025764310280187,0.3225806451612904,0.06034931268990228,0.1935483870967742,0.46774193548387094,0.32808916779338393,0.4402515723270441,0.08082710227949674,0.24528301886792453,0.8805031446540881,0.4474938755578991,0.4691834691834694,0.051633835245267955,0.36936936936936937,0.6666666666666667,0.4719712516631727,0.4404505888376856,0.016679728773587917,0.3935483870967742,0.4903225806451613,0.4407612942109059,0.48040674603174605,0.05023792418420258,0.359375,0.5859375,0.48298491649687375,0.07131437241480743,0.009714749946193072,0.0592848486515592,0.08746669200571489,0.07196261558525466,0.3120615648156113,0.09720573974512518,0.1594103170373311,0.45906089946798545,0.32662117605651775,-0.3986082524213661,-0.3746101778693091,1.0,0.22431417920129498,0.02883164401687105,-0.07703555286929498
12,0.5689440993788822,0.05134672712996383,0.4956521739130437,0.643478260869565,0.5712151910540837,0.7071260107816711,0.043421172501374436,0.6367924528301887,0.7688679245283021,0.7084341363316792,0.8719230769230767,0.015474562235654798,0.8492307692307692,0.9138461538461538,0.8720579327308958,0.839504150283967,0.025948814197370072,0.7859327217125383,0.8868501529051989,0.8398979315110686,0.5482239831541617,0.021578355569705446,0.5065942591155934,0.6020170674941815,0.5486409084225327,0.5619845933534146,0.010494409012255897,0.5316280677497408,0.5855513307984791,0.5620808208195522,0.43106447124304276,0.03845719607305435,0.36363636363636376,0.5324675324675324,0.43274602756181085,0.23977444259156316,0.016198783094985618,0.2127107652399481,0.2900994379593601,0.2403112526897603,0.40704059550356053,0.025301456632563894,0.351991993398065,0.48258212912401444,0.40781218544918657,0.568667308346805,0.024034869039872817,0.5119753529762113,0.6028470202851838,0.569165939677014,0.5395480225988701,0.11761976208810117,0.22033898305084748,0.8192090395480226,0.5519958642202569,0.3754409171075839,0.08079418961179187,0.16049382716049382,0.6049382716049383,0.3838841195243485,0.3295265780730897,0.06896211689483776,0.20930232558139533,0.5116279069767442,0.33653917260135124,0.3266129032258065,0.059102005172578916,0.1935483870967742,0.46774193548387094,0.33182323566840294,0.43036837376460024,0.09565206487726259,0.18238993710691825,0.8113207547169812,0.4406845515583169,0.4695945945945946,0.06640412478066529,0.26126126126126126,0.7387387387387387,0.47418335045618154,0.4414746543778802,0.015060544685251863,0.3935483870967742,0.4774193548387097,0.44172688406642324,0.47181919642857145,0.08932102842620691,0.25,0.7265625,0.4800511759770198,0.09260689603927195,0.0022588225734465773,0.08878506374478651,0.09697778944365676,0.09263394821184273,0.30521805922447726,0.04023313921590997,0.24341997059322984,0.38732485755682156,0.30781140932838064,-0.09071298267196438,-0.38947463409613814,1.0,0.22072502914657713,0.3182414435200298,-0.5646897499730716
13,0.621739130434783,0.046707351260030804,0.5478260869565217,0.6782608695652179,0.6234450361205687,0.23845580933465757,0.04972306196733334,0.17924528301886822,0.325471698113208,0.24345121316022492,0.7377327935222674,0.041574230910325916,0.6861538461538461,0.7938461538461538,0.7388725239610621,0.1621599871237728,0.030930206355233133,0.12232415902140675,0.2446483180428135,0.16500716154497197,0.6499122126495447,0.029424260630272456,0.5849495733126454,0.7044220325833979,0.6505604409993385,0.5979678716320702,0.00992834490251112,0.5796750777739371,0.6208088489457312,0.5980481197494361,0.7302204374572798,0.05010390333559838,0.612012987012987,0.8084415584415585,0.7318922224085637,0.22213630054383696,0.026055232305494235,0.18914656290531776,0.27302031993082576,0.22361919867216706,0.3734254098716669,0.04390634942935557,0.27599511878215366,0.4773673028637648,0.37593027749014707,0.5716116565588022,0.02127384302164921,0.5314087517079494,0.6292611148092352,0.5719969863606155,0.5385072851620575,0.026890719764337618,0.480225988700565,0.5932203389830508,0.5391606233305863,0.37719298245614036,0.12297863253542436,0.16049382716049382,0.6790123456790123,0.3962326296630514,0.32680538555691546,0.06917776538729362,0.09302325581395349,0.4883720930232558,0.33385833429565365,0.32427843803056017,0.04799162329355525,0.2258064516129032,0.4193548387096774,0.3277180050886772,0.44753392916252893,0.10211094549970134,0.1383647798742138,0.779874213836478,0.458736174225159,0.4722617354196302,0.048656384551514255,0.36036036036036034,0.5765765765765766,0.4746959967681097,0.4395585738539899,0.03303922702721832,0.3419354838709678,0.5096774193548388,0.440765929155971,0.48149671052631576,0.02385060018300621,0.4375,0.53125,0.48207153370656247,0.020636032452208453,0.0046284957225792055,0.015634759644742313,0.030944371635946655,0.021135397928221587,0.7545001022015324,0.046487985210165825,0.6724494837120361,0.810650438470907,0.7558932894767968,0.07482317362867895,0.3703169158227343,1.0,0.1474965113991803,0.013348546759684546,-0.4837912732034931
14,0.27869565217391334,0.011303490234170875,0.2608695652173916,0.304347826086957,0.27891905852743376,0.6870283018867928,0.014822402246770148,0.6603773584905659,0.7075471698113207,0.6871841809963365,0.7719999999999998,0.011423888760424807,0.7569230769230768,0.7907692307692307,0.7720824066144429,0.42828746177370025,0.01437634161901306,0.4067278287461774,0.4556574923547401,0.42852265066265366,0.5600853374709075,0.031444290668613505,0.49495733126454616,0.6237393328161365,0.5609452826079933,0.5818441064638784,0.007325485636970967,0.5637746284134117,0.5955755271344626,0.5818890662300428,0.43267045454545466,0.04121141949408122,0.3295454545454546,0.5373376623376624,0.4345798474456328,0.24554725464764376,0.024479531595387707,0.2068759187202767,0.3115019455252918,0.24673410900288217,0.395357795023967,0.0341948672814927,0.302332625147051,0.4507576422664301,0.39679697933691743,0.5764410275724348,0.009661234486473259,0.5541266685351925,0.6012047612374313,0.5765199599617276,0.5353107344632768,0.057881773238173985,0.4011299435028248,0.6384180790960452,0.5383531597501572,0.3697530864197531,0.09097779416658328,0.2345679012345679,0.6419753086419753,0.3805093690995862,0.3218023255813954,0.08806034757211705,0.1627906976744186,0.6511627906976745,0.3333429104447152,0.3221774193548387,0.07778102556051095,0.1935483870967742,0.5,0.3312052691020439,0.45330188679245287,0.1002794639356811,0.24528301886792453,0.729559748427673,0.46399048717042096,0.47522522522522526,0.06479649126045608,0.35135135135135137,0.6036036036036037,0.4795129146728383,0.44145161290322593,0.010110254282426675,0.41935483870967744,0.4709677419354839,0.44156447812915556,0.4759765625,0.034277775349527285,0.4140625,0.5625,0.47717845695835454,0.048018486389550065,0.0017001775939634546,0.045208425050624446,0.05106078228055799,0.04804782382062838,0.3186376251142381,0.013258953435456909,0.3003689896537629,0.3448358668092042,0.3189064768682039,0.3346141065729107,0.010904396060692597,1.0,-0.20893910696067033,-0.08980926551750143,-0.34537987636886563
15,0.4186956521739133,0.013143429747541915,0.3913043478260869,0.43478260869565233,0.4188967416335782,0.7339622641509436,0.02081729581435389,0.7075471698113207,0.7783018867924529,0.7342500466513272,0.8953076923076922,0.01231730393922964,0.8769230769230769,0.923076923076923,0.8953902986866948,0.6860856269113152,0.013580362087294488,0.6697247706422019,0.724770642201835,0.686216658959001,0.5529480217222653,0.03220310884855966,0.4941815360744762,0.6136539953452288,0.5538615611690263,0.5819045973038369,0.01158260483038934,0.5610093328724508,0.6038714137573454,0.5820169784290069,0.4232954545454546,0.045109457264533755,0.3035714285714286,0.5227272727272728,0.42563250979592276,0.24276394293125803,0.02157389125046121,0.20190229139645482,0.2933437094682231,0.24369679717145587,0.3878401927905465,0.038242574185236765,0.2946508524572893,0.45349674292837944,0.38967415524013627,0.5782847918053462,0.015133123195151928,0.5485145219493396,0.6166704621097993,0.5784778185596674,0.5402542372881356,0.07814548015038432,0.38983050847457623,0.728813559322034,0.5457368313335842,0.3614197530864199,0.07022763663266841,0.20987654320987653,0.6172839506172839,0.3680120389938127,0.3223837209302325,0.09193563268955403,0.13953488372093023,0.6511627906976745,0.3349210654242279,0.3169354838709677,0.08436815792821621,0.12903225806451613,0.48387096774193544,0.3277012928825882,0.44182389937106914,0.11634239423097695,0.2578616352201258,0.7358490566037736,0.4565145363879094,0.46756756756756745,0.1050384238863567,0.2792792792792793,0.9189189189189189,0.47893284912529077,0.43741935483870964,0.017175327132530765,0.3741935483870968,0.4709677419354839,0.4377479972005237,0.4724609375,0.06169319750579949,0.203125,0.5859375,0.4763719521722561,0.07842515313810222,0.0015341526017348711,0.07611421939294233,0.0818396672726161,0.07843978217929383,0.2961912910334317,0.019398559080904754,0.2501463035553555,0.320572628873556,0.2968100021497018,0.04673022056252074,0.25035516268864977,1.0,0.04115489234776723,-0.054140778400894186,-0.35120589117356077
16,0.6646956521739134,0.03748013632316849,0.5913043478260871,0.7217391304347833,0.665730407466364,0.5915094339622641,0.03303948968229447,0.4905660377358494,0.6415094339622645,0.5924130199339439,0.9523692307692307,0.03720063131416826,0.8215384615384614,0.9815384615384615,0.9530809834147074,0.8076452599388384,0.03883126118322607,0.6911314984709481,0.8501529051987768,0.8085595682507577,0.5836152055857251,0.02285530023705301,0.5469356089992242,0.6392552366175329,0.5840536153854505,0.5756308330452817,0.01609452408537976,0.5375043207742828,0.6121673003802282,0.575851290685216,0.5025974025974026,0.042616121051336386,0.4188311688311688,0.6022727272727273,0.5043649077757577,0.26074784262862083,0.06222797958029021,0.18180025940337224,0.4122334630350194,0.2679259458306943,0.39491449089600195,0.03341487360395484,0.277913367162397,0.4504810984495987,0.3962974612864146,0.5739077444557333,0.031066915856711574,0.5025312686122692,0.6209118698104614,0.5747311974670407,0.5255367231638417,0.10592733760299675,0.2542372881355932,0.7740112994350282,0.5358964790222218,0.37111111111111117,0.07170174427670355,0.14814814814814814,0.5679012345679012,0.3778382909655912,0.32930232558139527,0.06422537881299235,0.17441860465116277,0.5116279069767442,0.3353839932544697,0.32096774193548383,0.07767745544256946,0.14516129032258063,0.5,0.33005060627957505,0.43031446540880497,0.08224916718518349,0.2389937106918239,0.779874213836478,0.43794995848004004,0.46072072072072073,0.04787956148799323,0.36036036036036034,0.6036036036036037,0.4631524434368638,0.439483870967742,0.015236113046836365,0.4,0.4774193548387097,0.4397426169917482,0.48875,0.10271689890253237,0.3203125,0.796875,0.49921569345699657,0.09248283111592953,0.005051366914728851,0.07483142488542643,0.09668930932518821,0.0926179250079088,0.4425680552524534,0.021576696349828128,0.4016179808666631,0.5012596565290628,0.4430832046905005,-0.34954189456209733,0.5073182032759735,1.0,-0.22102695290334354,0.11752239965858961,-0.21438171525392982
17,0.705256327060351,0.10668371786536773,0.5826086956521745,0.8869565217391315,0.7131605924619976,0.19543790481554504,0.12366590655244215,0.0,0.38679245283018915,0.23078339091726285,0.652996555683123,0.09150987137784879,0.41230769230769226,0.7538461538461538,0.6592826195000232,0.24127071066684927,0.1284857388478935,0.04587155963302753,0.5045871559633028,0.27289877999109485,0.6484142514734318,0.05012000080695897,0.5399534522885958,0.7610550814584949,0.65031958546648,0.5674118175111308,0.028230064931598547,0.49740753543034916,0.6066367092983063,0.5681031707724528,0.7595221942236867,0.12035299205607074,0.5227272727272728,1.0,0.7688579937369252,0.22903015402881827,0.06577278471050921,0.11889321227842628,0.3737587548638132,0.23815184780964863,0.35888547535005955,0.044815261266266664,0.2480115182694502,0.4458149702386177,0.3616313258363188,0.5961084310605468,0.04450106130490305,0.5387989174228357,0.7056239708509968,0.5977424601438069,0.5444809849059785,0.08036280968620901,0.2937853107344633,0.768361581920904,0.5502920436831299,0.38050488299244534,0.12187397952511378,0.024691358024691357,0.8024691358024691,0.39926875950399077,0.33477959041999306,0.07867020967679755,0.18604651162790697,0.5697674418604651,0.34376445844476633,0.3273952816562349,0.07283895196603495,0.1935483870967742,0.532258064516129,0.33528196583506154,0.4378109452736318,0.08438670806290477,0.27044025157232704,0.7610062893081762,0.4457502159037322,0.4696786338577385,0.0472539359595861,0.3873873873873874,0.7117117117117118,0.47201443429845363,0.4412132883967262,0.013614567399336076,0.41290322580645167,0.49677419354838714,0.4414201578872584,0.47784514925373134,0.06295109780416949,0.25,0.703125,0.48191252370500953,0.12777808988044237,0.30011533764523757,0.0003972100043881377,1.0,0.32411747791246304,0.7925493018418567,0.13072513345726294,0.5740234166269014,1.0,0.8030992440307092,0.24777195576117395,-0.056728400096373456,1.0,0.05201362761393627,0.4086839543448781,0.38253738575605617
18,0.0920000000000001,0.032206750790743394,0.05217391304347885,0.20869565217391273,0.09736800963646698,0.943584905660377,0.03166341592563435,0.867924528301887,0.9952830188679245,0.9441053938305943,0.6374153846153845,0.013567544045217199,0.6123076923076922,0.6646153846153846,0.6375568752909573,0.46599388379204904,0.04150923130291294,0.4281345565749236,0.5688073394495414,0.46780215442993556,0.4882234290147398,0.028789423971684065,0.43211792086889056,0.5546935608999224,0.4890545684817594,0.5576218458347736,0.01564630281705581,0.5164189422744556,0.5896992741099205,0.5578369238479882,0.2748051948051948,0.043095568785189615,0.18019480519480524,0.3879870129870131,0.2780970668307412,0.23833559878945088,0.01598737190000487,0.2086052745352356,0.2890203199308258,0.23886050696879507,0.3926041648376731,0.04487455169773487,0.3377258441170789,0.5492467473179639,0.39510945462005587,0.5802221648039799,0.022902233333766616,0.5490619416319238,0.6278903759240444,0.5806649486370411,0.5341242937853108,0.04293921848460545,0.423728813559322,0.655367231638418,0.5358130851015531,0.36987654320987656,0.06016979149480611,0.2839506172839506,0.6049382716049383,0.3746420330785716,0.32697674418604644,0.06887741100872971,0.22093023255813954,0.5465116279069767,0.3340104894023951,0.3283870967741935,0.05312146894374032,0.17741935483870966,0.5161290322580645,0.3325711021439919,0.4366037735849055,0.020609715842928342,0.33333333333333337,0.4716981132075472,0.43708022179911477,0.4700900900900903,0.01704390143743099,0.44144144144144143,0.5405405405405406,0.47039279063947587,0.4410322580645161,0.01365549063775272,0.41290322580645167,0.4774193548387097,0.44123938585483574,0.47671875,0.05171374501801493,0.2734375,0.6015625,0.4794596873532488,0.04746317616756949,0.0040761888025854735,0.043285645519652305,0.05639171035882895,0.04763440039262563,0.057738504619347576,0.02815525695312163,0.005933684902769576,0.11585109470698529,0.06411395355063353,0.4065921273593947,-0.6546464879119299,1.0,-0.5304732354778984,0.016003479940279775,-0.19077367777745294
19,0.43135704874835334,0.12794392027906762,0.21739130434782616,0.8086956521739133,0.4496560077333724,0.6928244711263578,0.1572575298165619,0.2641509433962268,0.990566037735849,0.7101837667505995,0.7677855477855476,0.10704620343798887,0.40615384615384614,0.8523076923076922,0.7750999403421335,0.6643035863219351,0.058302463916036225,0.5657492354740061,0.7645259938837922,0.6668185130997202,0.5482873733455578,0.04952659267306133,0.412723041117145,0.6493405740884405,0.5504859328377522,0.5515350532633629,0.032819041393656656,0.4624956792257173,0.5941928793639821,0.5524958686892364,0.4127804014167652,0.07812138672031203,0.15097402597402598,0.6055194805194806,0.4199977879720187,0.28472800639337614,0.08978265035760027,0.1815823605706874,0.5378296584522265,0.29834347104174325,0.44975774814852654,0.0679359318219875,0.30644566572436915,0.5942399873579969,0.4547827989306296,0.5749534328323349,0.039241629616136475,0.4906259853554287,0.6433560767964124,0.5762707900971366,0.537664783427495,0.05124268949045715,0.3389830508474576,0.7175141242937852,0.5400642994269004,0.36401047512158646,0.15204193546541608,0.024691358024691357,0.7901234567901234,0.3940433000931644,0.3306906272022551,0.15498979413245859,0.046511627906976716,0.7790697674418605,0.36471106370413275,0.33186705767350905,0.08511487409312377,0.0,0.6451612903225806,0.3424478354085992,0.4429197636744805,0.03692172273289295,0.3584905660377359,0.679245283018868,0.44443275746884636,0.4695604695604698,0.017057938443617294,0.43243243243243246,0.5135135135135135,0.46986551177116365,0.43861192570869995,0.008580882046203052,0.41935483870967744,0.4645161290322581,0.43869458314554227,0.4778645833333333,0.019791930244533688,0.4296875,0.53125,0.4782680685013493,0.07061430838812999,0.00858589201345309,0.040818817722439615,0.08182465645378084,0.07112651515680428,0.3052214223840868,0.14006922714051567,0.015452623103606289,0.6911556138212585,0.3353837229404933,-0.2418394115711991,0.398257904345267,1.0,-0.37814427784428595,0.3769482632872442,-0.3381980644321955
20,0.7091125670041699,0.06398252977611926,0.643478260869565,0.8521739130434787,0.7119538733929986,0.40662962005686243,0.0752090182047033,0.2971698113207548,0.5330188679245285,0.4134326540616347,0.7138883034773442,0.16275851284788032,0.24923076923076926,0.8953846153846153,0.7319589893329626,0.6707720665242344,0.07639348577388777,0.5382262996941897,0.7584097859327219,0.6750490242763028,0.5937383763563132,0.0434279908196126,0.4825446082234289,0.6803723816912334,0.5953027922495501,0.5379446846189905,0.02044105379413999,0.49948150708606986,0.5737988247493951,0.5383275922706362,0.6121019391567337,0.08077596591808008,0.44480519480519487,0.7500000000000001,0.6173363429776968,0.26570803498984297,0.1037659642294127,0.11867877215737138,0.4440121054907047,0.2849923453329894,0.3785828930319615,0.07070991845842764,0.20301827822941718,0.5514415395150386,0.3850407871717333,0.5890508744556998,0.03878824682941477,0.5382514977402515,0.6823608240198998,0.5903091146300047,0.5368779506230168,0.045490777559143596,0.288135593220339,0.6497175141242938,0.5387754602934018,0.3779807204464739,0.08882671334162373,0.13580246913580246,0.6172839506172839,0.3881385388057218,0.33290856960815557,0.12028791804292416,0.06976744186046513,0.941860465116279,0.3536934986061194,0.3267786124613346,0.07268150087790942,0.16129032258064513,0.596774193548387,0.3346557899404291,0.4423192900835699,0.028225200760115404,0.30817610062893086,0.5723270440251572,0.4432066145269904,0.46994940145625075,0.021075310559501886,0.4144144144144144,0.5225225225225225,0.4704152677595831,0.4415377817057004,0.01669218654496934,0.3935483870967742,0.5225806451612903,0.44184887114076765,0.480201198630137,0.06341670109792867,0.296875,0.703125,0.4843137182290128,0.06730885709072762,0.011414703010616105,0.05208699148609974,0.08483434268603762,0.06825681518041572,0.5677123404949815,0.059696144283130866,0.46174398071199163,0.6737544466579939,0.5707995395479468,0.21109623106072586,0.32946097603603386,1.0,0.6367414379951336,-0.1669342956101733,-0.1736772187135649
21,0.5908121410992617,0.037688601653605096,0.5130434782608688,0.643478260869565,0.591990385213945,0.26690993236027083,0.040433699593111196,0.21226415094339623,0.3490566037735854,0.2698980347950706,0.6199709724238025,0.02238100698063538,0.5692307692307692,0.6553846153846153,0.6203672017438074,0.1655415152039698,0.03170163833222168,0.11009174311926609,0.2140672782874618,0.16849339743867411,0.6339710467380006,0.032970788886359265,0.5492629945694336,0.7416602017067493,0.6348116651512147,0.572755316998089,0.006664642265877429,0.5578983753888698,0.5858969927410993,0.5727933593722051,0.705678755207057,0.05390865098050038,0.6168831168831169,0.8360389610389611,0.7076961320516882,0.22659847131471822,0.030457889377616176,0.18093558149589278,0.2955019455252918,0.2285980025595106,0.3771005817772946,0.03398272999654549,0.326751883131705,0.46529594577985345,0.3785999016721351,0.5753133802095349,0.01942371585357908,0.5262082647233998,0.6016142311600042,0.5756349951846215,0.5362967700671571,0.06891772815417345,0.30508474576271183,0.6610169491525424,0.5406239568676797,0.3729326811087817,0.06045013105692916,0.20987654320987653,0.48148148148148145,0.3777089560334049,0.32733655111891197,0.06095150740221911,0.1511627906976744,0.4883720930232558,0.33285763921826816,0.33140596469872186,0.0790516281104087,0.16129032258064513,0.5,0.3405307103145148,0.44891420434318263,0.05708853348035388,0.3836477987421384,0.7924528301886793,0.45246167909649837,0.47339792622811505,0.031584256370815966,0.4144144144144144,0.5945945945945946,0.47443054267376034,0.44077906269020095,0.009104073317674996,0.41935483870967744,0.4645161290322581,0.4408712991396927,0.47759433962264153,0.06950723669461259,0.328125,0.7421875,0.4825312978655492,0.01487374227944113,0.003852053103150649,0.006971330891764549,0.020163853767119766,0.015355342859501703,0.7209458454092332,0.04131268408563376,0.6375294190977892,0.7785818723423055,0.7221062576089069,-0.445532052515672,0.07299736968502211,1.0,0.34539335783713043,0.5531973171776798,-0.035180422135033175
22,0.12263427109974444,0.01953900939234067,0.08695652173913082,0.17391304347826164,0.12415845935345132,0.9321587125416205,0.03818228434052311,0.8632075471698113,1.0000000000000002,0.932928889408189,0.6590950226244342,0.032552498017828974,0.5969230769230769,0.7046153846153845,0.6598866043986726,0.5066558733585177,0.04254016167276699,0.4464831804281346,0.5779816513761469,0.5084124572018437,0.4853055263998537,0.01767529852476479,0.4491854150504266,0.5399534522885958,0.4856225651435701,0.5569986376852849,0.010494840024188669,0.5361216730038023,0.5748358105772555,0.5570960458664176,0.28707505729564564,0.03680193965564729,0.20941558441558472,0.36363636363636376,0.28938996853752746,0.23629236285954078,0.02405459738637813,0.20492866407263294,0.2937725897103329,0.23749567412852463,0.38515362512536117,0.022494679155515788,0.33141362175829187,0.44746545397081794,0.385800316491973,0.573924294562796,0.01660023736282411,0.5478313421854746,0.6050366990155205,0.5741607887178243,0.5456962445995347,0.062488884878135684,0.3615819209039548,0.6892655367231638,0.549210185339638,0.3707334785766158,0.07938032139214399,0.12345679012345678,0.5308641975308641,0.37901435637058634,0.3303693570451437,0.08554728425519752,0.12790697674418605,0.6162790697674418,0.3411079408376716,0.3228178368121441,0.05666564056674727,0.16129032258064513,0.45161290322580644,0.3276814460308072,0.42517573066962605,0.061200733208227935,0.12578616352201255,0.6163522012578617,0.42949371401208264,0.46648118706942243,0.029690203502600016,0.32432432432432434,0.5225225225225225,0.4674112137273514,0.44127134724857686,0.013883769031416393,0.40645161290322585,0.4774193548387097,0.4414864961165743,0.48092830882352944,0.1107356592290656,0.0078125,0.8203125,0.4933296010210275,0.05223564181961823,0.004808819744979131,0.04611548226918821,0.05990429376749151,0.052453283537194625,0.06862562927295134,0.03450035672021754,0.0,0.1230930214201511,0.07669581193580424,-0.489208332474149,0.0062906804043509675,1.0,0.004939117742308905,0.33200290958896617,-0.2858588617196532
23,0.4566425120772953,0.04450695022756155,0.3913043478260869,0.5652173913043486,0.45877635116761895,0.8570492662473794,0.05689445519327512,0.7641509433962264,0.929245283018868,0.8589094630779218,0.8005128205128204,0.03986141506562779,0.7292307692307691,0.8523076923076922,0.8014908856067652,0.8648487937478765,0.03748082645605341,0.7981651376146791,0.9296636085626913,0.8656493153213497,0.5043638479441427,0.02551581674318005,0.45694336695112475,0.5585725368502715,0.5049999064951327,0.5519261051580445,0.013175988409052113,0.5226408572416177,0.5772554441755964,0.5520811724934355,0.3341901154401154,0.0505644065131771,0.2402597402597404,0.46753246753246747,0.3379412403353271,0.2394377672094923,0.026685911144234558,0.19714656290531776,0.31733679204496323,0.24089975387356208,0.3837797174863482,0.02694963133774162,0.3207118150053552,0.43319930468983187,0.3847116672579635,0.5679565881593849,0.02316964481085155,0.5259345548821077,0.6080475072697333,0.568422433114836,0.5347614563716259,0.05750794507456653,0.3785310734463277,0.7175141242937852,0.5378020510723127,0.36968449931412894,0.11823215144461956,0.07407407407407407,1.0,0.38788054873903455,0.3244509043927648,0.11696749570973283,0.023255813953488358,0.9069767441860466,0.34461538711752093,0.3221326164874551,0.09816403991637555,0.06451612903225806,0.629032258064516,0.3365587103642181,0.43387491264849753,0.12682489464647875,0.037735849056603765,1.0,0.45178379469150776,0.46534034034034044,0.08137183304779944,0.16216216216216217,0.7837837837837838,0.47230397417022646,0.4421146953405019,0.015119606767298137,0.3806451612903226,0.4774193548387097,0.4423695641768071,0.4769965277777778,0.04386007140502791,0.28125,0.578125,0.47898087147475443,0.09308968171875402,0.004119280321679478,0.08711721904208436,0.0997708665792939,0.09317951298256467,0.1434205551332715,0.04190002302506363,0.08983996568562658,0.21078558527509839,0.14933413563286793,-0.386957960547322,0.005591897340693791,1.0,0.07618568696168115,0.0830578034153675,-0.48704517938679176
24,0.6806722689075635,0.0939755541960292,0.5565217391304342,0.8869565217391315,0.6870749078234634,0.4450214047883305,0.08616098655976742,0.23113207547169834,0.5707547169811322,0.45321670551733223,0.5632062055591468,0.3143423219514831,0.06153846153846154,0.9169230769230768,0.6443461647367348,0.6175057178834839,0.11157350387887191,0.3975535168195719,0.7522935779816515,0.6274211886042459,0.5780326094751322,0.05226720369351762,0.4553917765709851,0.7114041892940263,0.5803710893789915,0.5170841236598339,0.05174077590162631,0.3549948150708607,0.591081921880401,0.519644688346754,0.614795918367347,0.07076738804056894,0.43993506493506496,0.8133116883116883,0.6188214283802541,0.27571613859551597,0.07742529015159276,0.13229571984435795,0.4232598357111975,0.286293012859636,0.3765060516507269,0.08500113557513629,0.12866749776131192,0.5593998560216318,0.38590320557195085,0.5757634544901592,0.04884172597632825,0.4521686578145254,0.6939923974354483,0.5778140041440701,0.5389545648767977,0.06249075037100723,0.3672316384180791,0.7740112994350282,0.5425350688835665,0.37866998651312356,0.10323018423977195,0.18518518518518517,0.7901234567901234,0.3923746671844086,0.3290990814930624,0.09001280977254529,0.13953488372093023,0.7209302325581395,0.3410871219473545,0.33084846841962595,0.07288725548724334,0.17741935483870966,0.5483870967741935,0.3387161315524439,0.4410971935944183,0.018544005037789576,0.3459119496855346,0.49056603773584906,0.44148354960381286,0.4699825876296466,0.019707036501447433,0.42342342342342343,0.5495495495495496,0.4703921091728419,0.44109514773651415,0.07073307564154861,0.03225806451612906,1.0,0.44668339337603014,0.48457195378151263,0.1028603424176872,0.1171875,0.9453125,0.49527903122350664,0.05551111472733563,0.023468403109661647,0.017998238885510165,0.08350904560269345,0.06022973947761145,0.5392754307705862,0.08119598281688954,0.38750514732900476,0.7371517710964488,0.5453030132703434,0.638986949725478,0.8694179051448643,1.0,0.5017804045039925,-0.2208108474871597,-0.49205885890907264
25,0.35111111111111154,0.030759917100794284,0.29565217391304355,0.4086956521739138,0.3524261040135511,0.5912997903563941,0.06962473584802929,0.4764150943396226,0.7075471698113207,0.5952943149296854,0.7751111111111109,0.062084369609858865,0.6676923076923077,0.8615384615384615,0.7775384547739118,0.38878695208970443,0.07379189972841843,0.2691131498470949,0.49847094801223246,0.3955749399900905,0.5670200844754764,0.05532459265607454,0.4383242823894491,0.6989914662529092,0.5696530248658894,0.5859814878826286,0.019898590970413656,0.5537504320774284,0.6412029035603181,0.5863117422393049,0.48181818181818176,0.13056081097420108,0.24675324675324672,0.7581168831168832,0.49881467791855527,0.23133023970793104,0.09117428123071078,0.10354345006485083,0.3940752269779507,0.24827746896025701,0.40276260932503793,0.08152881222410102,0.23868365143188236,0.635392341053149,0.41075169720246346,0.5652150069875082,0.027276938987242223,0.5195012787723785,0.6040798094103633,0.5658581991040513,0.533458882611425,0.1443896466785032,0.12994350282485878,0.8418079096045198,0.5522349612188203,0.37530864197530867,0.07653053730945418,0.13580246913580246,0.5185185185185185,0.38286204569616084,0.32093023255813957,0.06658528720370295,0.13953488372093023,0.5348837209302325,0.32761454513938754,0.30860215053763435,0.06457109095819838,0.17741935483870966,0.48387096774193544,0.31513815890430513,0.43032844164919637,0.05117350020563155,0.22641509433962265,0.5345911949685535,0.4332933196801543,0.4674674674674674,0.043639928344175676,0.2972972972972973,0.5765765765765766,0.46945495579777485,0.44157706093189975,0.016594774469529623,0.40645161290322585,0.4709677419354839,0.4418818479866163,0.4748263888888889,0.11646187382811404,0.2421875,0.8671875,0.4885919150598029,0.04413451217874743,0.00941612095673795,0.027747548765500174,0.055232763832948784,0.045105966377184066,0.41242591934926714,0.06199737252543941,0.30250198460515,0.5140631296152562,0.416957309767946,-0.6536837182792082,0.2895156809971615,1.0,0.06763046086332164,0.6549025132490738,-0.43030221387645656
26,0.46631136044880805,0.15420886177823356,0.14782608695652222,0.8000000000000007,0.490992093798808,0.41293365794278786,0.1704179303668797,0.07547169811320753,0.8726415094339623,0.4465076789510795,0.5800297766749377,0.08613127129805832,0.43692307692307686,0.763076923076923,0.5863491074573195,0.18747163855183985,0.12074991535456962,0.0,0.48012232415902145,0.2227826054838418,0.6031482269326061,0.07025854294846738,0.421256788207913,0.8611326609775019,0.6072002961560908,0.5664641013347015,0.021780666375850067,0.5105426892499136,0.6194262011752507,0.5668799828007163,0.6118558860494342,0.13925345903051364,0.30032467532467555,0.9172077922077922,0.6274026175645919,0.2626794192711602,0.05673647382420695,0.17293558149589278,0.4029399048854302,0.2686982263646881,0.4110084263028425,0.089624660586757,0.23182273102382658,0.8746246905343,0.4206051392717898,0.5650785091650063,0.042986529043151304,0.4476535402725712,0.6503345829099955,0.5667006631724577,0.538399854200838,0.0511002682742302,0.3615819209039548,0.7062146892655368,0.5408038403415466,0.3722819593787337,0.12385810942663246,0.09876543209876543,0.9135802469135801,0.39221896364739445,0.33105776444111024,0.10340468517422274,0.05813953488372092,0.627906976744186,0.3467315795470661,0.3287200832466179,0.09669160991983117,0.0,1.0,0.34255779469189196,0.43952120105498005,0.045233501147746415,0.18238993710691825,0.6352201257861636,0.44182774398366526,0.47003777971519906,0.03004043243228657,0.2792792792792793,0.6036036036036037,0.47099057297029695,0.44099895941727335,0.013043683276225085,0.4,0.4903225806451613,0.44119057358257296,0.47641129032258067,0.06705494469692763,0.1640625,0.7578125,0.48107699419610384,0.19609004372282304,0.3783365729816228,0.00022069903392263335,0.9998336542690339,0.4250486949823638,0.580711445734783,0.1711015427527643,0.1438724460631442,0.9215190327560987,0.6052376767941348,0.11271077089139375,0.027633536809694485,1.0,-0.32220745300312487,0.474659812251881,-0.14921159857638855
27,0.49695652173913046,0.12153357038530535,0.304347826086957,0.7391304347826093,0.511481286549404,0.5948113207547172,0.16600566160359614,0.25471698113207575,0.797169811320755,0.6173562488426341,0.6270512820512824,0.1914519118514414,0.31384615384615383,0.8061538461538461,0.6553943059353395,0.6082313965341488,0.12352467445616627,0.4189602446483181,0.8103975535168196,0.6205454246489296,0.5561287820015518,0.06254399188816664,0.4794414274631497,0.9999999999999999,0.5596055531957238,0.534980988593156,0.032547754230765204,0.45834773591427586,0.5983408226754235,0.5359619263458595,0.48977272727272714,0.11160478775803337,0.30519480519480524,0.7564935064935066,0.5022242090194976,0.27062781380602363,0.062192070398009,0.19174059662775617,0.43233895373973197,0.27762390947523885,0.39917336809884174,0.07357654296490737,0.2109722051516162,0.5956139272733656,0.4058420541418602,0.5761888130773454,0.03929848473386307,0.4835095294818344,0.6577269383036121,0.5775162763596692,0.5426553672316384,0.06509126193200529,0.3785310734463277,0.728813559322034,0.5465129574816802,0.3677983539094649,0.12658042194195915,0.037037037037037035,0.728395061728395,0.38879906206680187,0.3181201550387597,0.10964872027129298,0.0,0.627906976744186,0.33633775367955243,0.32473118279569874,0.08446971604866677,0.09677419354838707,0.532258064516129,0.33544897461187473,0.4412997903563938,0.07712429399368402,0.15094339622641512,0.8930817610062893,0.44793313532258533,0.4713213213213213,0.06161321075024442,0.1711711711711712,0.6846846846846847,0.4752981598672623,0.4403763440860215,0.01278054537403514,0.38709677419354843,0.4838709677419355,0.4405602178867956,0.478515625,0.03004931417136035,0.375,0.6015625,0.479450351938507,0.05832843853059317,0.020794847183902593,0.026806665688905773,0.08341705688579415,0.06189530566669844,0.38810909485471096,0.1543364323759037,0.20756950350599612,0.7111846023667483,0.41743251679899585,-0.1919306283308076,0.5817766627590045,1.0,-0.4206358252455136,0.1429024642292363,-0.5290860335648758
28,0.6513043478260873,0.07058406391796887,0.5826086956521745,0.8347826086956518,0.6550635775061912,0.4900943396226417,0.103235079529372,0.23113207547169834,0.6273584905660381,0.500697207539444,0.9103736263736263,0.06595296857032955,0.643076923076923,1.0,0.9127254755646501,0.6844910441240716,0.055521421887254084,0.6055045871559633,0.8195718654434253,0.68670705561212,0.599501274520669,0.04203956334285821,0.5034910783553141,0.6881303335919317,0.6009524569710926,0.5738432669991608,0.015524078513740285,0.5406152782578639,0.6042170756999655,0.5740502149459482,0.5497448979591838,0.0734027254462428,0.3571428571428572,0.7094155844155845,0.5545542733371337,0.27139433018343523,0.08857767200771824,0.1841763942931258,0.4976221357544315,0.28528722485050695,0.42521734713585885,0.06298128022357047,0.28532298561972147,0.587379066949941,0.42979037640976653,0.5681717684095674,0.04004526538832284,0.49637389202256244,0.6770223872753389,0.5695611229654601,0.538902340597256,0.08087330151421736,0.2033898305084746,0.7344632768361582,0.5448511613411097,0.3650793650793651,0.13932026095869993,0.0,0.6296296296296295,0.39040464940350356,0.3207641196013289,0.07775057007941646,0.10465116279069767,0.5581395348837209,0.32992182751248855,0.3225806451612903,0.05040965363408145,0.17741935483870966,0.4354838709677419,0.3264400464244819,0.44079065588499544,0.0114698082638413,0.41509433962264153,0.4591194968553459,0.44093772739304066,0.47850707850707863,0.14028606642228167,0.12612612612612611,1.0,0.4983653872199292,0.43622119815668214,0.037751789543931574,0.32903225806451614,0.5612903225806452,0.43782847254274093,0.48292410714285716,0.11503759225921033,0.0234375,0.7421875,0.4962461977521662,0.0782781917701587,0.007044579776136564,0.05623648516325608,0.09000629415502359,0.07859002778140531,0.5298895208784687,0.09634673010632606,0.3755369339433259,0.7368911087283689,0.5384542569685327,-0.19193719537635948,0.5464573484461949,1.0,-0.02938111881329239,0.29738265631677746,-0.28351513173462983
29,0.5276370510396986,0.07520562092786015,0.43478260869565233,0.7130434782608699,0.5329235981232892,0.33248564397046787,0.08316695310604544,0.1603773584905661,0.43396226415094397,0.3426416494707229,0.617551839464883,0.03452388305327865,0.5446153846153846,0.683076923076923,0.6185077271891961,0.17378008243584642,0.07419850061634735,0.07339449541284407,0.29051987767584103,0.18883077437093282,0.6242385401558339,0.04602281312928524,0.4988363072148952,0.7145073700543056,0.625918074582601,0.572827965554036,0.01668687958697506,0.5240235050120983,0.6107846526097477,0.5730688516660268,0.6633258046301528,0.08359572370014104,0.5227272727272728,0.9350649350649352,0.6685271877501925,0.23969815973984446,0.031361806640522856,0.18633808906182447,0.29874621703415477,0.2417234328264827,0.379308071720465,0.04478443738402005,0.30123522904851363,0.5991782698014151,0.38191991137614606,0.5710550176773718,0.02833845720215878,0.43355638860666357,0.6291231650492239,0.5717516227958955,0.5369196757553427,0.07816999786865372,0.2090395480225989,0.7796610169491526,0.5425312447915596,0.3703703703703704,0.07520257979354662,0.12345679012345678,0.6172839506172839,0.3778630196526796,0.32730030333670385,0.07043141614391117,0.12790697674418605,0.627906976744186,0.33472815451943533,0.32215988779803634,0.06857828734901857,0.1129032258064516,0.5483870967741935,0.32931607812328384,0.43910308996445113,0.05370734156068399,0.2641509433962264,0.6540880503144655,0.44234705801189644,0.4698785742264001,0.0414495374948463,0.36036036036036034,0.6486486486486487,0.47168739540848076,0.4398316970546986,0.022172903190982748,0.3032258064516129,0.4903225806451613,0.4403853815240181,0.47866847826086956,0.09691368857262486,0.234375,0.75,0.48829714648036754,0.015816859564396504,0.007401513197016913,0.004810470590662641,0.026481491930440026,0.017449328795418613,0.6557100875713429,0.08523854027893833,0.549462859114948,0.8311585876959722,0.661179361811294,-0.42548317413136477,-0.31331843873249243,1.0,0.23921593549773273,0.4050896457940981,-0.05514689761542057
30,0.1239130434782611,0.02530074122588457,0.09565217391304337,0.16521739130434732,0.12642096228975358,0.7895500725689405,0.02491012061784221,0.7452830188679247,0.8349056603773586,0.7899353759891858,0.616508875739645,0.04505284608595372,0.5507692307692307,0.7046153846153845,0.6181212817727827,0.24888261585509303,0.02925188419919105,0.19877675840978595,0.29051987767584103,0.2505629141738344,0.5214388016948142,0.033269759150360435,0.44996121024049646,0.5849495733126454,0.5224787217611042,0.5692653354250315,0.017297142086926388,0.5330107155202213,0.6007604562737643,0.5695230105671587,0.3667270229770231,0.040245284909128355,0.2451298701298701,0.4318181818181819,0.3688864928264869,0.2231079849679071,0.025583706209955655,0.17790575010808474,0.2682680501513186,0.2245420048475673,0.3908839643754835,0.04215453219784593,0.28093340122557187,0.4592602672378978,0.39310698928614957,0.5675964772448586,0.02316044983530865,0.5218289072627265,0.6106488456013733,0.5680597256529912,0.5370491090830074,0.05655711301084985,0.38983050847457623,0.6836158192090396,0.539961979219095,0.3767806267806267,0.06000949209386346,0.24691358024691357,0.5802469135802468,0.38143875941331656,0.326923076923077,0.06354922788354536,0.22093023255813954,0.46511627906976744,0.33292572601704096,0.3393300248138957,0.09729784208651708,0.16129032258064513,0.7419354838709677,0.3527459151020007,0.4473875181422352,0.02224578635634717,0.41509433962264153,0.5660377358490566,0.4479296256924226,0.4688149688149691,0.016347341109587465,0.42342342342342343,0.5045045045045045,0.4690944162968931,0.4397022332506204,0.011383252886712991,0.41290322580645167,0.4645161290322581,0.43984672384669193,0.4795673076923077,0.0633209306977012,0.3125,0.6171875,0.48364991091503884,0.024650910176446852,0.0032930735181483195,0.020062423074163893,0.03184072954326678,0.024865702500714282,0.21373830913721573,0.020791131505701776,0.17344634541545,0.25192923010012724,0.2147277882236166,-0.36450349385585334,0.06676101938587206,1.0,0.011410377905965535,0.2968893606232695,-0.4406537779479983
31,0.40086956521739153,0.01861282492393975,0.36521739130434927,0.4260869565217389,0.40129280684332835,0.6728301886792455,0.04392745452569264,0.6273584905660381,0.8066037735849056,0.6742340036174633,0.8172923076923075,0.03796484305320617,0.7784615384615384,0.9169230769230768,0.8181559869211441,0.6061162079510705,0.04555634483609859,0.5504587155963304,0.706422018348624,0.6077916834612944,0.5530023273855701,0.032348717316817356,0.4584949573312645,0.6570985259891388,0.5539287723305767,0.5744210162461113,0.016512369045967725,0.5419979260283443,0.6045627376425856,0.574653555692554,0.44860389610389595,0.05539964678494115,0.34090909090909083,0.5275974025974025,0.4519437952292447,0.21802431474275824,0.048985512985068834,0.10311456982274103,0.29593774319066146,0.22335216742134267,0.3803355398310886,0.0325396956795879,0.322085754920724,0.4480097624356925,0.3816972334424595,0.5792614651578318,0.02253674712845799,0.5407148863118804,0.6232394983008093,0.5796909451496614,0.5332203389830509,0.1366931919926827,0.1751412429378531,0.96045197740113,0.5501229481376004,0.3750617283950618,0.0992332708915089,0.09876543209876543,0.6419753086419753,0.38771329267576327,0.3295348837209303,0.07427348510706455,0.20930232558139533,0.5697674418604651,0.337638059417355,0.3309677419354838,0.07111123204040676,0.1935483870967742,0.45161290322580644,0.3383715670350148,0.44251572327044036,0.12452039300239735,0.13207547169811318,0.8301886792452831,0.45936411162558505,0.4700900900900902,0.10582704109977777,0.19819819819819823,0.954954954954955,0.48162232939958716,0.4420645161290323,0.023542569645846407,0.40645161290322585,0.5225806451612903,0.4426784430647311,0.47578125,0.10437804074912022,0.1953125,0.7109375,0.48687234233870275,0.067090383159981,0.006047554391343149,0.060052143179997686,0.08137314892601577,0.06735696673980349,0.3349195037441963,0.033281885225652605,0.2368811672662734,0.37543299558459564,0.3365361855651615,-0.33812464359940575,0.20040134334849954,1.0,0.16909493363119027,0.12384303579509844,-0.4094558400950427
32,0.4760386473429959,0.030530552400334282,0.4260869565217389,0.5478260869565217,0.477005819214816,0.7637316561844868,0.12359717277178199,0.5896226415094339,0.938679245283019,0.7735583801762094,0.8868717948717947,0.05276035767567374,0.7999999999999999,0.96,0.8884223693589572,0.777879714576962,0.10116592808729667,0.6269113149847095,0.923547400611621,0.7843581313337488,0.5375398672528229,0.042084344352746196,0.45461598138091536,0.6764934057408843,0.5391665068653124,0.5743941314283522,0.015007956178607482,0.5402696163152437,0.6125129623228484,0.5745879865740555,0.405988455988456,0.07912300098258314,0.22402597402597402,0.5405844155844155,0.41354264004184,0.23327319018110176,0.03488313891623496,0.15607436230004323,0.304798962386511,0.23583827990176198,0.37766569705624714,0.04900910215132835,0.24252453777676322,0.4880691096167014,0.3807972992770965,0.5737879884929948,0.026538293468165542,0.5344195599621624,0.6267955365588761,0.5743945607458091,0.5394852479598243,0.13089427873372503,0.12429378531073448,0.92090395480226,0.5549660123249726,0.37777777777777777,0.10429453396410152,0.06172839506172839,0.7037037037037037,0.39175571438731893,0.33010335917312666,0.08805132128364038,0.06976744186046513,0.5930232558139534,0.3415188400101025,0.3290322580645161,0.10185984595182632,0.032258064516129004,0.7096774193548387,0.3442707837278905,0.44304682040531085,0.11419691541621879,0.08176100628930816,0.89937106918239,0.4573691302204449,0.4655655655655655,0.100373040628404,0.15315315315315314,0.8018018018018018,0.4761450424911259,0.44086021505376344,0.031724474138283665,0.34838709677419355,0.6129032258064516,0.441987543698723,0.4888888888888889,0.12265721602094996,0.2109375,1.0,0.503874958653765,0.08729453904604814,0.011867714561238488,0.07056230463556751,0.10346213326715464,0.08808867281238753,0.2647930745854597,0.10569225952105012,0.08358743960146953,0.4134377729619678,0.28488963735834133,-0.6451792434679885,0.12369226035404553,1.0,-0.07755819743656724,0.6099473801737799,-0.31768957808346154
33,0.6110799438990189,0.04657987201530611,0.5304347826086957,0.6956521739130439,0.6128241080454252,0.2767041996348146,0.05993973903721025,0.17452830188679247,0.3820754716981134,0.2830195019266587,0.788138957816377,0.0465301074046025,0.7076923076923076,0.8615384615384615,0.7894891687333283,0.25811384038670226,0.04674215928643301,0.1773700305810398,0.3302752293577982,0.262244818574507,0.6401561600640655,0.03730678115571612,0.5065942591155934,0.7176105508145849,0.6412248099277481,0.5952131396139736,0.012038265902371987,0.5658486000691324,0.6346353266505358,0.5953329018273641,0.708787180561374,0.08133544473067353,0.551948051948052,0.8766233766233766,0.7133638770063456,0.2228220297616557,0.06496969695231838,0.1251603977518374,0.3504124513618677,0.2319539541196214,0.38331429764100894,0.062338636008407354,0.2814820992748406,0.5695485751409055,0.3882695934448199,0.5702976225457235,0.02075403963811727,0.5260703149633885,0.6057220684581158,0.5706690469807687,0.5347184253690541,0.047666844720235475,0.4293785310734463,0.655367231638418,0.5368046900759688,0.37216248506571104,0.05256146378372425,0.25925925925925924,0.5432098765432098,0.3757965712554971,0.328019504876219,0.06721526794335278,0.12790697674418605,0.4883720930232558,0.3347264832578736,0.3264828303850157,0.07763748817008789,0.14516129032258063,0.564516129032258,0.3354420949735723,0.44228038141610854,0.05213449848923364,0.3207547169811321,0.6981132075471699,0.44529327741718266,0.4702121476315026,0.030641866360734522,0.40540540540540543,0.6486486486486487,0.4711934250594266,0.43985431841831435,0.014380016116502595,0.3935483870967742,0.4709677419354839,0.44008552697744635,0.47265625,0.10063465279915337,0.1796875,0.8046875,0.4830816907334358,0.03198489316839384,0.0065563007241061875,0.02129199264454107,0.04174156803083501,0.03263931927062348,0.7207370201185558,0.05436881047387906,0.6255478104319634,0.8163362973084638,0.7227517850726585,-0.43513457500087777,0.5221355863926007,1.0,-0.40383050990980124,0.5115428744926614,-0.5415298854575095
34,0.220169082125604,0.055282498252507056,0.13913043478260878,0.29565217391304355,0.22690996616548523,0.678000524109015,0.07018770526530439,0.5754716981132075,0.7783018867924529,0.681573623048267,0.6816666666666664,0.07417215420249193,0.6,0.803076923076923,0.6856344091888722,0.25594631328576295,0.04839817428277324,0.2048929663608563,0.415902140672783,0.260419594995179,0.5564929747435566,0.03496472614843725,0.47323506594259107,0.629945694336695,0.5575750921637552,0.5797999001421057,0.020076182959862708,0.5485655029381266,0.6297960594538542,0.5801425509019332,0.43765782828282807,0.05727569317401936,0.2321428571428572,0.5422077922077921,0.4413380984188481,0.222294278714512,0.029864645007034545,0.1746649373108517,0.29204323389537395,0.22426380874312044,0.3814595173017907,0.03967963971165645,0.2680368022755605,0.4466402121047178,0.3834892038323754,0.5759171043591151,0.03515309375131571,0.5205961181375468,0.6715481904494973,0.5769740791735075,0.5471594475831764,0.08741022241162304,0.3615819209039548,0.8022598870056497,0.5540017051900582,0.3813443072702331,0.08584791195709224,0.16049382716049382,0.6790123456790123,0.3907569390973875,0.33527131782945735,0.10589032349126368,0.08139534883720928,0.941860465116279,0.3513742796249438,0.32907706093189953,0.08337759519817527,0.16129032258064513,0.5806451612903225,0.33933314354789107,0.44295946890286525,0.08397505371863495,0.18867924528301888,0.7358490566037736,0.4507404562906491,0.4698448448448447,0.050345653165362554,0.3153153153153153,0.6126126126126126,0.47249725826132555,0.44265232974910407,0.017612157813103834,0.41290322580645167,0.503225806451613,0.44299770311712494,0.4873046875,0.10354027618051968,0.1640625,0.8359375,0.4980336837850044,0.027570877155242975,0.006177382068010469,0.019506985975759006,0.04654990850923274,0.028245058251668488,0.3236582661830365,0.0607358722404666,0.23347058439413293,0.41859442912405975,0.3292298368476674,-0.07962636269474702,0.24371728522657732,1.0,-0.10753789893805991,0.15521101463431988,-0.49194146521166615
35,0.7123478260869569,0.13684728252832906,0.5391304347826091,1.0000000000000009,0.7251152049788323,0.48622641509433984,0.1327128577433779,0.1320754716981134,0.608490566037736,0.5036631565775872,0.7988923076923075,0.07186177341902776,0.6584615384615384,0.8738461538461537,0.802053459240274,0.7748012232415903,0.0493249959579385,0.6697247706422019,0.8623853211009175,0.7763383486975188,0.582311869666408,0.03429294843101182,0.4957331264546158,0.6415826221877423,0.5833006083832228,0.5408295886622883,0.02253774398712318,0.5036294503975113,0.5727618389215348,0.5412896035197503,0.5650974025974029,0.08232952911485128,0.4545454545454546,0.7857142857142857,0.5709445356243622,0.2009639429312582,0.05725044256098805,0.09511456982274102,0.28664072632944226,0.20880269938015258,0.34680447035274686,0.06317002131876691,0.21673572946113456,0.4595368110547292,0.352397479017933,0.5600852222961845,0.037278492200236386,0.5041735276600217,0.6786646463230914,0.5612996957915399,0.5188700564971753,0.10933996059130262,0.2033898305084746,0.8700564971751412,0.5300398645119507,0.3641975308641976,0.10284621914544227,0.18518518518518517,0.7530864197530864,0.378160864427085,0.33348837209302323,0.0989576027681375,0.1627906976744186,0.7209302325581395,0.3475791267092414,0.3299999999999999,0.09895555568267604,0.09677419354838707,0.564516129032258,0.344232999522791,0.42830188679245285,0.08100466693901598,0.14465408805031443,0.6037735849056605,0.4357442221929718,0.4636036036036038,0.05926385896468814,0.2972972972972973,0.6396396396396397,0.46730104018078744,0.43922580645161297,0.021608530307421717,0.3806451612903226,0.4838709677419355,0.43974640312738833,0.4603125,0.11046107998442949,0.0,0.7578125,0.4731228327229093,0.08168925042620781,0.005772441658661752,0.06208808776635211,0.08953892157586568,0.08188887773223111,0.4966715037755889,0.11437972566672887,0.39895235692854425,0.8253887738753618,0.5094150075070707,0.6471435682343665,0.1620382588939427,1.0,-0.055737863586105815,-0.3590250201641875,-0.7152453433812208
36,0.5273578595317727,0.043760787739150424,0.46086956521739175,0.5999999999999996,0.5291425676642849,0.6362844702467345,0.10706197406342681,0.4764150943396226,0.7877358490566038,0.6450921258310416,0.9122840236686391,0.060061908586016455,0.8153846153846154,0.9784615384615384,0.9142286769386059,0.7032698188661493,0.05934309967906525,0.5902140672782875,0.8012232415902141,0.7057307298768252,0.5707226830578268,0.040290797560475704,0.4957331264546158,0.6671838634600465,0.5721212762470085,0.5825839559679864,0.014092600242615482,0.5520221223643278,0.6138956100933288,0.5827517582359029,0.48951048951048953,0.08596286842629544,0.34253246753246747,0.6704545454545454,0.496886755416298,0.22162051282051284,0.0437648445782957,0.12105490704712493,0.3009079118028534,0.22583521917966753,0.3762927326040769,0.05294982970935043,0.24499148420627528,0.47517251066669,0.3799431160972909,0.573179029480487,0.023366806792347566,0.5309970921066461,0.6106488456013733,0.5736478077862956,0.5561060408518036,0.1465798536591044,0.23163841807909602,0.8926553672316384,0.5748121725009199,0.3937321937321937,0.10384605614367823,0.16049382716049382,0.7160493827160493,0.4069927960216327,0.33649373881932026,0.10495105857141925,0.1511627906976744,0.8488372093023255,0.35224040605368134,0.3387096774193548,0.10370823507751357,0.1129032258064516,0.7741935483870968,0.35399742363261,0.4447024673439767,0.08048658343649935,0.20754716981132076,0.6729559748427674,0.4518171219091653,0.47512127512127533,0.09893614934122794,0.24324324324324326,0.7477477477477478,0.48515770378317163,0.4405955334987594,0.026150008429193176,0.3419354838709678,0.49677419354838714,0.44135895451091406,0.4706730769230769,0.13704641795740205,0.0390625,0.9453125,0.48992439872529947,0.08052481184634085,0.008622524433675864,0.06536695709554768,0.09325423395621352,0.08097807997370042,0.3937380848357585,0.08342925981109753,0.2682719251969592,0.5210419792974821,0.4023469114197671,-0.5006002791665571,0.6883843204018965,1.0,-0.24346049398987313,0.492717682163037,-0.6225450871338691
37,0.6098136645962731,0.06258140952301719,0.5130434782608688,0.6956521739130439,0.6129707899288257,0.299191374663073,0.030785764399997917,0.25943396226415105,0.36792452830188704,0.30074857021589396,0.5087912087912089,0.09036534782926532,0.36923076923076925,0.6399999999999999,0.5166408177574814,0.2850589777195282,0.05630179679607883,0.21100917431192664,0.3944954128440367,0.29048791528208917,0.6200487642690901,0.034273826765756084,0.5453840186190846,0.6858029480217221,0.6209817903230158,0.5355834279788653,0.02964442432294069,0.4334600760456274,0.5845143449706188,0.5363915044527874,0.7038033395176252,0.05395234545270559,0.5811688311688312,0.8246753246753247,0.7058388007504751,0.2252364399975293,0.018285951480147944,0.19412019022913962,0.26113272805879806,0.22596692927060674,0.38478645299005954,0.03441623205831749,0.3116604919846188,0.4834029814057204,0.3863006217097606,0.5553212634070901,0.019658243248269414,0.5196392285323898,0.6117436849665417,0.5556641354766156,0.5448748991121872,0.13117348422394426,0.096045197740113,0.8700564971751412,0.5602225733996157,0.3804232804232803,0.09609681677899763,0.1728395061728395,0.728395061728395,0.39220472670750417,0.33438538205980073,0.0744005843293533,0.1627906976744186,0.5581395348837209,0.3424470073898695,0.33156682027649775,0.07851971047263756,0.12903225806451613,0.5,0.3406080223435623,0.4489667565139265,0.09970345581005544,0.22012578616352202,0.6918238993710693,0.4597498411365644,0.474903474903475,0.07015572897796944,0.23423423423423426,0.7027027027027027,0.4799841924266044,0.44064516129032283,0.025767853322520386,0.367741935483871,0.5612903225806452,0.44138719393804243,0.48683035714285716,0.1046598057911449,0.2578125,0.8046875,0.4977961334857802,0.02014772070471574,0.0020006784020383875,0.01741326048469255,0.02524599728432947,0.02024539903370803,0.6846987163233241,0.02996108478710623,0.6163772000515819,0.7257376149398667,0.6853445665705928,-0.29845760901141105,-0.08545457115014062,1.0,-0.006845143809119252,0.2296475466640923,-0.5770709067890094
38,0.24731928514270513,0.17237131491119406,0.0,0.5130434782608688,0.3011584592791923,0.6999363352239846,0.20857650665246533,0.34433962264150964,0.9764150943396228,0.7301699362561874,0.6092496460594615,0.14427654103520732,0.30153846153846153,0.7907692307692307,0.6259977218098995,0.3199752349862104,0.09979628088314692,0.15902140672782877,0.5749235474006118,0.3350855841375951,0.5414955237093483,0.0873153778392061,0.0,0.9906904577191619,0.5484474492149931,0.5583776367326253,0.07383586390623761,0.0,1.0,0.5632085526482463,0.43255517488646317,0.14612663078844337,0.20454545454545459,1.0,0.45642740013537386,0.2558015378535299,0.05491462056341097,0.0,0.4898400345871163,0.26159423084416183,0.40172291456770004,0.13505126630435937,0.04142889751198353,0.9999999999999999,0.42368413926822707,0.5684175328838695,0.07257000612043102,0.0,1.0,0.5730031310910433,0.5319399674188071,0.09053178766757662,0.0,0.8644067796610169,0.5395422608833638,0.3743088691963949,0.071563741591228,0.13580246913580246,0.6172839506172839,0.3810473451255417,0.3288628905692682,0.07219562871566866,0.12790697674418605,0.5930232558139534,0.33664674787986015,0.3260439342964571,0.06811786068450461,0.14516129032258063,0.5161290322580645,0.33304087363958207,0.43600725392599426,0.09051675008469115,0.169811320754717,0.9182389937106918,0.4452475064365405,0.46587077875421395,0.06385824613708223,0.08108108108108109,0.7207207207207207,0.4702004258346076,0.439659608153572,0.025163568694999205,0.3096774193548387,0.5741935483870968,0.4403747171861783,0.4745015337423313,0.08510410743654731,0.2109375,0.7734375,0.4820269503131757,0.030486624982397542,0.013963279373897325,0.0071196831445805575,0.05639203466011067,0.033514344977461766,0.30198272969938394,0.2027554465215362,0.017475539189374834,0.644538653205716,0.3633884050794853,-0.15315550931742425,0.09108262906796066,1.0,0.26960168358690917,0.3362245327894551,-0.0895995596742622
