,Orientation X,Orientation X,Orientation X,Orientation X,Orientation X,Orientation Y,Orientation Y,Orientation Y,Orientation Y,Orientation Y,Orientation Z,Orientation Z,Orientation Z,Orientation Z,Orientation Z,Orientation W,Orientation W,Orientation W,Orientation W,Orientation W,Accelerometer X,Accelerometer X,Accelerometer X,Accelerometer X,Accelerometer X,Accelerometer Y,Accelerometer Y,Accelerometer Y,Accelerometer Y,Accelerometer Y,Accelerometer Z,Accelerometer Z,Accelerometer Z,Accelerometer Z,Accelerometer Z,Gyroscope X,Gyroscope X,Gyroscope X,Gyroscope X,Gyroscope X,Gyroscope Y,Gyroscope Y,Gyroscope Y,Gyroscope Y,Gyroscope Y,Gyroscope Z,Gyroscope Z,Gyroscope Z,Gyroscope Z,Gyroscope Z,EMG1,EMG1,EMG1,EMG1,EMG1,EMG2,EMG2,EMG2,EMG2,EMG2,EMG3,EMG3,EMG3,EMG3,EMG3,EMG4,EMG4,EMG4,EMG4,EMG4,EMG5,EMG5,EMG5,EMG5,EMG5,EMG6,EMG6,EMG6,EMG6,EMG6,EMG7,EMG7,EMG7,EMG7,EMG7,EMG8,EMG8,EMG8,EMG8,EMG8,Roll,Roll,Roll,Roll,Roll,Yaw,Yaw,Yaw,Yaw,Yaw,Accelerometer X vs Roll,Accelerometer Y vs Roll,Accelerometer Z vs Roll,Accelerometer X vs Accelerometer Y,Accelerometer X vs Accelerometer Z,Accelerometer X vs Accelerometer Z
,mean,std,amin,amax,RMS,mean,std,amin,amax,RMS,mean,std,amin,amax,RMS,mean,std,amin,amax,RMS,mean,std,amin,amax,RMS,mean,std,amin,amax,RMS,mean,std,amin,amax,RMS,mean,std,amin,amax,RMS,mean,std,amin,amax,RMS,mean,std,amin,amax,RMS,mean,std,amin,amax,RMS,mean,std,amin,amax,RMS,mean,std,amin,amax,RMS,mean,std,amin,amax,RMS,mean,std,amin,amax,RMS,mean,std,amin,amax,RMS,mean,std,amin,amax,RMS,mean,std,amin,amax,RMS,mean,std,amin,amax,RMS,mean,std,amin,amax,RMS,corr, corr, corr, corr, corr, corr
0,0.2630979498861049,0.016865803132463584,0.22323462414578588,0.2779043280182233,0.2636244965224055,0.13552631578947355,0.012158021653062769,0.10526315789473661,0.15413533834586446,0.1360569892534799,0.5617962466487935,0.027880913832182375,0.5174262734584447,0.6005361930294904,0.5624703854167672,0.4775751072961377,0.04464437161726914,0.4291845493562234,0.570815450643777,0.47960533256844695,0.6143581081081079,0.059901914467072236,0.4831081081081079,0.741554054054054,0.6171988483228672,0.7362815884476533,0.04898490234026191,0.6407942238267148,0.8285198555956679,0.7378686266049347,0.4839097303634234,0.03502891265443406,0.43493552168815947,0.586166471277843,0.48514428394459025,0.5489583830250064,0.061554026096082584,0.4543901996889698,0.6607004856267829,0.5523128479121692,0.5565394126738794,0.07439783761874315,0.38910046367851625,0.6661514683153014,0.5613668855086421,0.5122915183246074,0.05270820919108848,0.39319790575916236,0.6005277486910996,0.514928442776819,0.525,0.1013498636989457,0.28,0.744,0.5344529913846493,0.35129870129870133,0.09007034225662185,0.11688311688311687,0.5454545454545454,0.36238188065150767,0.29513888888888884,0.05650453735209105,0.19444444444444442,0.41666666666666663,0.3003662887332854,0.3784090909090909,0.042784503764002495,0.28787878787878785,0.46969696969696967,0.38076001759759165,0.4146666666666666,0.06943319567014512,0.18666666666666668,0.6533333333333333,0.42029619185627765,0.39602272727272714,0.05283534760315942,0.25,0.5,0.39944434546500596,0.6290540540540541,0.06978012865961802,0.4864864864864865,0.8108108108108109,0.6328163537857565,0.5725000000000001,0.16676423331449775,0.0,0.8692307692307693,0.5957107534493128,0.8034802860946781,0.018724542478608476,0.784051352647698,0.8487671048628315,0.8036929845541416,0.5527963795026427,0.026222870885569568,0.5187252326029442,0.5992812676420857,0.5534024622051966,-0.149386232167103,-0.5308961181102537,1.0,-0.1353306869586457,-0.040501854775084806,-0.3213383881752461
1,0.6260309480794912,0.06485014266448579,0.4943052391799545,0.703872437357631,0.6293232711645598,0.44244231267824713,0.024958962011810096,0.4135338345864661,0.5375939849624058,0.4431336246768613,0.35226957566793,0.07659675469236954,0.23592493297587125,0.4504021447721178,0.3603605978946465,0.3683587390853934,0.056155616149906565,0.3004291845493565,0.4635193133047215,0.372541600365065,0.666734622553588,0.05812382679644999,0.5168918918918917,0.8074324324324327,0.6692198355063773,0.7816506909000379,0.07155240402364431,0.6371841155234657,0.9819494584837545,0.7848625851792896,0.5928366414682458,0.0808055908693638,0.4302461899179368,0.7233294255568583,0.5982242461206487,0.48121991974541184,0.08560306592361226,0.3524181160733878,0.7668514401839466,0.48864522223416523,0.5196261791824335,0.05418444518092915,0.41306336939721794,0.6603585780525503,0.5223951572258604,0.6138744177649398,0.10389824259923615,0.39685863874345556,0.9518324607329844,0.6224552414329869,0.5262068965517241,0.066208272822961,0.34400000000000003,0.68,0.5302845039904655,0.35602328705776987,0.0717142316113506,0.11688311688311687,0.5064935064935066,0.3630521184604472,0.2969348659003832,0.05663113220786981,0.13888888888888887,0.40277777777777773,0.3021954750672619,0.3853187042842215,0.05226431440098229,0.2727272727272727,0.48484848484848486,0.38878653088017084,0.42068965517241386,0.03756091152172623,0.3466666666666667,0.49333333333333335,0.42233432671866056,0.40086206896551735,0.053714813661796916,0.1931818181818182,0.5227272727272727,0.4043833989104084,0.6244175209692451,0.1109962314532791,0.3783783783783784,0.945945945945946,0.634038632324496,0.5517241379310345,0.11285847511954102,0.08461538461538459,0.8538461538461539,0.5629537776081813,0.39991415179290907,0.05299330148739761,0.3354406599865305,0.47940356955366403,0.4033499721254843,0.6684492928139377,0.0705069572251085,0.5762127433005221,0.7769570782638465,0.6720937265002486,-0.10707535510387343,-0.5209499481129296,1.0,-0.13426096118818576,0.16144606266323722,0.3326809138355494
2,0.33220128390971215,0.051136502153476524,0.23006833712984054,0.40091116173120733,0.3360432866260471,0.47183868762816134,0.06139444090748499,0.4135338345864661,0.6804511278195488,0.4757441457349854,0.6108213502315378,0.03159448151287043,0.5308310991957101,0.6595174262734584,0.6116230733589701,0.2817011314865395,0.039095021326556643,0.2446351931330475,0.40772532188841204,0.2843521737321235,0.5126228501228499,0.0659167505747634,0.35304054054054035,0.7212837837837835,0.5167670695265145,0.6022317033147357,0.1162587969754258,0.332129963898917,0.8971119133574007,0.6131503770981855,0.35858467441116926,0.029411528199361978,0.30128956623681136,0.42321219226260265,0.35976697840423455,0.5521688409574455,0.1285203298737135,0.3607663171553147,0.8336370488393614,0.5666635566051464,0.5840590136293381,0.0569927663912933,0.45440494590417313,0.6885625965996909,0.5867827954939391,0.6243498524512138,0.1239323388746911,0.36806701570680633,0.8842890052356022,0.6363117979775074,0.5230545454545454,0.05413816966005977,0.368,0.632,0.5257981638337177,0.3582054309327037,0.0675607161980029,0.23376623376623376,0.5844155844155845,0.3644071776407345,0.2926767676767676,0.07397053650625353,0.18055555555555552,0.5277777777777777,0.30171484259177506,0.38209366391184574,0.078442376192813,0.2727272727272727,0.6515151515151515,0.38991909148522913,0.4092121212121214,0.10356200034857876,0.24000000000000002,0.7066666666666668,0.42188226611774815,0.39938016528925624,0.0722488665076086,0.23863636363636365,0.5681818181818182,0.40574561967913514,0.6309582309582308,0.12657771812061328,0.32432432432432434,0.8918918918918919,0.6433031169871531,0.5457342657342658,0.17009245904434536,0.10769230769230764,0.9538461538461539,0.5711666194328798,0.6402605921178823,0.03743646255199575,0.5828811470755699,0.6881997390124115,0.6413342599099977,0.42727992157378836,0.01982004555586236,0.3940574517452752,0.45736772606357456,0.42773101728286334,0.05576943701964155,-0.687740838837331,1.0,-0.20028999393352773,0.39328189710916306,-0.08963891733991733
3,0.16190643069914137,0.024283039824462938,0.10478359908883828,0.18906605922551256,0.16368267652271135,0.144013880855986,0.06985168809859361,0.07142857142857129,0.28195488721804507,0.15976678102302586,0.43813157352031334,0.08246617579810896,0.27077747989276135,0.5308310991957101,0.4456783186872192,0.7150049521294157,0.10422520974680509,0.6051502145922747,0.9442060085836905,0.7224168285013801,0.6630392411642411,0.047967386782965644,0.564189189189189,0.7584459459459458,0.6647387893110295,0.563767009164121,0.12989541522542622,0.2797833935018051,0.7292418772563177,0.5782573667770876,0.5861664712778428,0.07845791215800399,0.46189917936694036,0.7373974208675265,0.5912938341143612,0.5181899045112579,0.13036453602652961,0.3506244454409281,0.9022067873259996,0.534030770794302,0.5151664486981333,0.0362651423795715,0.43855950540958266,0.5900278207109737,0.5164168266691006,0.47704325412807097,0.13594895970264811,0.21832041884816755,0.7041842931937173,0.49567828334067426,0.5306153846153845,0.06114661064987019,0.376,0.6880000000000001,0.5340596336624706,0.35764235764235747,0.06767636324144101,0.18181818181818182,0.5454545454545454,0.36386820067849096,0.2948717948717948,0.06347522760337768,0.19444444444444442,0.5555555555555556,0.3014979222996357,0.3796620046620046,0.061594250719196254,0.2727272727272727,0.5606060606060606,0.3845310531266315,0.4117948717948717,0.08076556768250268,0.13333333333333336,0.6533333333333333,0.41949094098996903,0.4014423076923077,0.0730482955672805,0.09090909090909094,0.6022727272727273,0.4079085234184641,0.6335758835758837,0.10669632784757521,0.40540540540540543,0.8648648648648649,0.6423266937489835,0.5715976331360947,0.10223784982111415,0.3153846153846154,0.8307692307692308,0.5804958406644061,0.8872214488194884,0.012871514608520021,0.8456652404920164,0.909590925419794,0.8873130163921263,0.6572595319516901,0.0583669978847023,0.5792374925660201,0.7688145069476723,0.6597963967755529,0.07298302232356432,0.5888929600004008,1.0,0.3703993572263376,-0.11471044105517611,-0.7376221239392108
4,0.1392215935532859,0.03232602529972272,0.08656036446469262,0.193621867881549,0.1428859257102666,0.2419759075107121,0.19074188945531095,0.08270676691729306,0.763157894736842,0.3074794283705104,0.4576955230764794,0.05636179896777259,0.36997319034852527,0.552278820375335,0.46111569771005595,0.6867875767225073,0.05419936369300513,0.6180257510729614,0.7896995708154506,0.6888999635505051,0.6179344667247891,0.06159876098111967,0.4594594594594592,0.743243243243243,0.6209642601968162,0.4984860836147665,0.17636984553928092,0.05956678700361029,0.8212996389891697,0.5284507748012336,0.5479332904738492,0.06560535423096366,0.42907385697538114,0.683470105509965,0.551804923021981,0.5769671311190264,0.12779311126264215,0.327974583305506,0.8401915792888286,0.590801613635938,0.5448424656395934,0.05962212647731056,0.3848531684698609,0.69629057187017,0.5480601123014416,0.5883747565163543,0.11478998928346136,0.343455497382199,0.7795769633507854,0.5993495727464909,0.5152688172043013,0.05628791278560345,0.384,0.672,0.5183012782675377,0.35148722245496444,0.07984651773502456,0.18181818181818182,0.7272727272727273,0.36034730544493443,0.2934587813620072,0.06282543449073523,0.16666666666666663,0.5277777777777777,0.30003774818930795,0.37943955685891184,0.05842219753247744,0.2424242424242424,0.6212121212121212,0.38386303534222926,0.41591397849462364,0.06704985712978914,0.12,0.6133333333333334,0.4212265188319272,0.39980449657869016,0.08870452932348089,0.05681818181818182,0.7840909090909092,0.4094234013216746,0.6230746875908165,0.0829557650848139,0.43243243243243246,0.945945945945946,0.6285139051320098,0.5470636889991729,0.08772669529340905,0.2615384615384615,0.8615384615384616,0.5539782491126481,0.8792212391011914,0.03726976566941142,0.7722355271091507,0.9293638105348285,0.8800023220735366,0.6134702166060405,0.06246083776171728,0.5234219643457544,0.7063489464986034,0.6166077463422845,0.6295069257609276,0.8647086771372596,1.0,0.6250780943426656,0.6263878602811234,0.2918129438318678
5,0.539034996893767,0.024718590283666717,0.4851936218678815,0.5717539863325741,0.5395911668408611,0.5013670539986328,0.07558155006740785,0.42481203007518786,0.6428571428571428,0.5069296091410024,0.2948086765781135,0.09532967048240408,0.12600536193029477,0.42627345844504005,0.3095717527702056,0.4717908700741321,0.09979452443113064,0.356223175965666,0.6695278969957084,0.4820420110593792,0.6797911547911549,0.05703615164383738,0.5337837837837838,0.8040540540540537,0.6821363419750461,0.6274368231046931,0.09994705800398304,0.40974729241877256,0.779783393501805,0.6352044990984647,0.6496216561867205,0.0901548267786948,0.4935521688159438,0.7995310668229778,0.6557350143993672,0.46021806802244336,0.04888324331313669,0.3184337820690182,0.5599305429669983,0.4627599754267841,0.49735821273008285,0.03611279724915985,0.4088098918083462,0.5745718701700154,0.4986437750194752,0.5089194098048548,0.09100255560736346,0.309428272251309,0.6905801047120419,0.5168460686800023,0.5178181818181816,0.10360557165574868,0.2,0.904,0.5278964085706761,0.3530106257378983,0.10877467705279487,0.14285714285714285,0.7142857142857143,0.369097962938178,0.29772727272727273,0.07323812818047015,0.13888888888888887,0.4722222222222222,0.30644384197243757,0.3815426997245177,0.054480796966726634,0.2424242424242424,0.5303030303030303,0.38534273375264844,0.4096969696969698,0.0487847068700025,0.2666666666666667,0.5333333333333333,0.41253882584343843,0.3938016528925621,0.04530795922955157,0.14772727272727276,0.5113636363636364,0.39635240525448345,0.6230958230958229,0.06421474794207,0.43243243243243246,0.7297297297297298,0.6263361439913381,0.5499300699300701,0.09953731144256828,0.22307692307692306,0.7538461538461538,0.5587044107684823,0.4454950159772237,0.03743076412508706,0.39408053092271356,0.5081126909063269,0.447036237353435,0.7138467300936292,0.08079300559534189,0.5954127749480217,0.8583323554232826,0.7183216423183868,-0.6227592869944159,0.6954833953856203,1.0,-0.5180652472452111,0.6604498770619605,-0.839021139053927
6,0.45004141644232765,0.0412440638997416,0.3530751708428246,0.5011389521640092,0.45188459652301677,0.5180280246069718,0.05558720486544345,0.43984962406015027,0.5902255639097744,0.5209344927860027,0.6582988057518885,0.020994450841309315,0.6327077747989276,0.7050938337801607,0.6586258931969217,0.14748341786968425,0.018092900774931798,0.12446351931330524,0.18025751072961382,0.14856403253391412,0.47830927518427485,0.0539089317001322,0.3817567567567568,0.6097972972972971,0.4812690372960613,0.6900639973744668,0.09085482930499703,0.5108303249097473,0.855595667870036,0.695884556470993,0.32385697538100805,0.03645439072820664,0.26260257913247376,0.4079718640093788,0.3258558888831989,0.516183150424609,0.10950387679639441,0.2892103078816559,0.6630856859359049,0.5274121906418942,0.5469917099901642,0.042353675282776254,0.41112828438948995,0.615919629057187,0.5485918297401965,0.5967748691099476,0.09750913812348137,0.41570680628272255,0.7293151832460734,0.6045098715339693,0.5520000000000002,0.08933449033151025,0.31200000000000006,0.712,0.559019921583545,0.38636363636363635,0.15085970899553294,0.025974025974025983,0.9610389610389611,0.4141476418090848,0.29892676767676757,0.15435492719862234,0.027777777777777735,1.0,0.3356205724188432,0.37603305785123964,0.13382543914004535,0.09090909090909088,0.7424242424242424,0.3986264923342196,0.39212121212121204,0.14948160363007748,0.08000000000000002,0.76,0.41904171581831756,0.38378099173553726,0.060868511673214505,0.23863636363636365,0.5227272727272727,0.38846958869046666,0.6246928746928746,0.1120003162528553,0.35135135135135137,0.8108108108108109,0.6344290078595709,0.5646853146853146,0.11142666881513175,0.2846153846153846,0.823076923076923,0.5753287995065857,0.5247216728871039,0.033009159542487905,0.4901630389937536,0.6050989088157346,0.5257353658162268,0.3793299267563922,0.026437323882490184,0.3331526471099139,0.4159872436981694,0.3802291948374793,-0.3589770614754403,-0.6681416606714451,1.0,0.41974300252044633,0.38055392406236477,-0.02246976243339531
7,0.16833008477561484,0.06272728810970152,0.06833712984054663,0.2574031890660592,0.1795248341204685,0.3779939539570575,0.26308572935196406,0.14285714285714268,0.9511278195488722,0.459760788654135,0.46784223763853927,0.04476777608563643,0.3833780160857907,0.5335120643431635,0.4699572871178389,0.6115658599177027,0.04107318799586799,0.5364806866952785,0.6866952789699567,0.6129293727393311,0.5795834494288103,0.07513485707185903,0.4239864864864864,0.7280405405405403,0.5843834555999445,0.4452342848635976,0.24430616184418974,0.0,0.7653429602888087,0.5072511751515981,0.5130950798274135,0.04503820093376662,0.4103165298944901,0.6400937866354046,0.5150476567644788,0.6047143754596429,0.11858971715455446,0.37924684915039164,0.8008357741883163,0.616115258819008,0.5478818974171036,0.051885296092855714,0.42117465224111283,0.7148377125193199,0.5503080083237193,0.6203383170507907,0.12230717324976169,0.3884816753926702,0.9287958115183247,0.6321585681415884,0.5151340206185568,0.07164315925502755,0.30400000000000005,0.768,0.520041235478436,0.3420805998125586,0.07780670115229624,0.19480519480519481,0.7272727272727273,0.35072868196087287,0.2910939289805269,0.07302454337575975,0.1111111111111111,0.6527777777777777,0.300022139737124,0.38363011558887816,0.07568008637189866,0.10606060606060602,0.5303030303030303,0.39094819979262574,0.41745704467353956,0.08012399706987192,0.12,0.6133333333333334,0.4249988882136256,0.3983130271790068,0.08216354295439195,0.07954545454545459,0.5909090909090909,0.40661347621831817,0.6322095291167454,0.09988097837114997,0.40540540540540543,0.8648648648648649,0.6399705079316294,0.5557494052339411,0.1010608847469295,0.33076923076923076,0.8461538461538461,0.564770229443909,0.8125951974115602,0.05577772078069999,0.6693135530035911,0.8917341163575137,0.8144875905978242,0.5726858129402004,0.04452253359023132,0.5185606737106697,0.6647058644486051,0.5743960834750126,0.35892621331057784,0.6032446425188283,1.0,0.7833288621476265,0.5186219667944438,0.4365238593408361
8,0.21663890116615103,0.028895569843431123,0.17084282460136668,0.26423690205011396,0.21852895793395916,0.09830546515542578,0.02783627587120716,0.04887218045112762,0.15037593984962405,0.10211394461693156,0.4987395462366451,0.10192900955497253,0.32171581769436997,0.6058981233243967,0.5088964437504904,0.6072000512459165,0.11066970679802758,0.5107296137339055,0.8283261802575108,0.6170550084793857,0.6298406615570791,0.0702305243994006,0.44594594594594583,0.7770270270270268,0.63368601743591,0.6996336009483274,0.09702929129007788,0.44945848375451264,0.8447653429602888,0.706230374086222,0.5512414480936468,0.09619356668713622,0.42203985932004695,0.7549824150058617,0.5594481467229795,0.5028016491630936,0.059043226821590904,0.40430099319740864,0.638642153168023,0.5062050667980743,0.5184029158688784,0.06247450994377503,0.401854714064915,0.6483771251931993,0.5220980682607832,0.5032665781042432,0.0969388345637803,0.31361675392670163,0.6638743455497383,0.5123808451704343,0.5147462686567166,0.0751570765803763,0.184,0.704,0.520123062361207,0.34289591006008907,0.09828563913061086,0.025974025974025983,0.5584415584415585,0.35650174178097876,0.2891791044776119,0.09052592718340127,0.055555555555555525,0.5694444444444444,0.3028154311943978,0.37336047037539555,0.0688646297657774,0.2121212121212121,0.5757575757575757,0.37956501013526833,0.4085572139303484,0.06950334604400082,0.24000000000000002,0.6666666666666667,0.41433997144892815,0.4014586160108549,0.04736795989434124,0.2272727272727273,0.5681818181818182,0.4042019984878801,0.6232351754739812,0.04954149223781301,0.4594594594594595,0.7297297297297298,0.6251718253173202,0.5476463834672793,0.06490277422539009,0.1384615384615384,0.6846153846153846,0.5514218532406813,0.8564782881247527,0.019295461480664442,0.8220719724043593,0.8824977640452005,0.8566923694798744,0.6189796890397347,0.08985738217752393,0.5132948101219427,0.7589588461354874,0.6253716430267008,-0.41953429708760637,-0.0587287664551926,1.0,-0.37428529786716963,0.6766233072757453,-0.720229522096871
9,0.6059503305739206,0.08950707607753508,0.38952164009111623,0.6810933940774487,0.6124456044154563,0.4903722721437739,0.07766974749274506,0.4323308270676691,0.6954887218045112,0.4964111066407146,0.38527430850716,0.03738543069473566,0.34048257372654156,0.44772117962466473,0.3870619052071403,0.3321469695383651,0.03275352792697566,0.27038626609442096,0.3948497854077253,0.33373840072203875,0.6385959129861569,0.05249212422861985,0.5152027027027026,0.7483108108108107,0.6407234664563572,0.7363300167297699,0.12607134544130333,0.40252707581227437,0.8989169675090253,0.7469150210055687,0.5584021959797555,0.05403508936885024,0.4689331770222744,0.6600234466588513,0.5609787840482224,0.5111712310868158,0.05531920536447475,0.3858109204010952,0.6112123496131204,0.5141195603010656,0.5585956949523124,0.0552487656437823,0.439338485316847,0.6901081916537867,0.5612881183633048,0.6335141872046992,0.11797183804838596,0.4460732984293194,0.9293235602094242,0.6442731223059792,0.5210731707317072,0.06885030828047302,0.31200000000000006,0.704,0.525547148101908,0.3519163763066202,0.07147184125578311,0.19480519480519481,0.6103896103896105,0.3590140172604859,0.2938685636856369,0.06958043995813187,0.13888888888888887,0.4722222222222222,0.3018958900435266,0.384331116038433,0.05968777738918091,0.25757575757575757,0.5151515151515151,0.38888248971675843,0.4180487804878049,0.06220006488096907,0.29333333333333333,0.6666666666666667,0.42259490042415176,0.40243902439024415,0.045767414387843756,0.21590909090909094,0.5795454545454546,0.4050015802239224,0.6295319709953856,0.06997548662705771,0.4594594594594595,0.8378378378378379,0.6333619478475477,0.5563789868667919,0.06374320786660533,0.3384615384615385,0.7307692307692308,0.5599743051235606,0.40081714596524315,0.04971226138700381,0.35187548423934456,0.5155174068612715,0.4038509075365874,0.6280775123969515,0.04336840107443172,0.5621157821077242,0.6805445101432165,0.6295547974426332,-0.5666794857829175,-0.9282054282496447,1.0,0.5378186417680357,0.41264878845739333,0.5666381657442842
10,0.25495655108411364,0.03430111922951554,0.2050113895216401,0.30523917995444183,0.2572112389601059,0.6000417710944028,0.04270428339089686,0.5263157894736841,0.6466165413533834,0.6015313886024274,0.6976963558732995,0.023916622435952335,0.6595174262734584,0.7426273458445041,0.6980985726569079,0.24471467175329867,0.04560001373553954,0.1888412017167389,0.3304721030042921,0.24884960344381035,0.4073448448448446,0.05448895139616497,0.2989864864864864,0.5168918918918917,0.4109061767798648,0.5016713464366895,0.057199011915028214,0.3555956678700361,0.6462093862815884,0.504861643683975,0.27261082888281024,0.02998118372759857,0.21805392731535767,0.3634232121922627,0.2742241594674456,0.5262278392806095,0.09362773070634474,0.35539484605917204,0.7012488908818562,0.5343402985399874,0.5512480393840518,0.04291381794949169,0.46908809891808345,0.6858547140649149,0.5528850631644648,0.5586876090750437,0.08579220956710636,0.40889633507853407,0.6848167539267016,0.5651157809200421,0.5201481481481482,0.0605980905756246,0.376,0.68,0.5236012053292298,0.3516113516113516,0.06095897681993515,0.22077922077922077,0.48051948051948057,0.3567600379531346,0.29320987654320985,0.05540247953586508,0.18055555555555552,0.40277777777777773,0.2983029082277877,0.3801907968574633,0.07986403402156925,0.2121212121212121,0.6515151515151515,0.38833643911768573,0.4214814814814814,0.06800748098775965,0.28,0.6000000000000001,0.426832529489556,0.40404040404040414,0.035844456961424326,0.34090909090909094,0.5340909090909092,0.4055979291548221,0.6266266266266264,0.04927190821030511,0.5135135135135136,0.7297297297297298,0.6285250132977922,0.5561253561253564,0.027293926481038358,0.45384615384615384,0.6461538461538462,0.5567823404365114,0.6800265184070838,0.039746665005194394,0.6223898869158483,0.740013728362514,0.681165624212552,0.3243454457084437,0.026977780848122072,0.2781044884160516,0.36876953391525114,0.3254447587860461,0.148108050570487,-0.7527342083855856,1.0,-0.3470636586705421,0.5924357587715131,-0.4228517777819769
11,0.1312642369020501,0.10036476372688086,0.004555808656036442,0.26195899772209574,0.16498316067338678,0.23048245614035073,0.20558447853722753,0.037593984962405846,0.7932330827067668,0.30827736254134946,0.5217828418230563,0.10551081967470423,0.3512064343163539,0.6782841823056298,0.5322566072680253,0.6366952789699568,0.060092663287138075,0.5751072961373391,0.7639484978540771,0.6395013007873651,0.5857826576576575,0.09373370858905598,0.3817567567567568,0.7685810810810809,0.5931729203225181,0.5408844765342958,0.19314265838369027,0.11371841155234663,0.8465703971119134,0.5740637909291111,0.4970593982024221,0.12679521845326325,0.33997655334114896,0.750293083235639,0.5128460758701815,0.5591357147173219,0.14780918170337623,0.21049869768063117,0.9689923959814144,0.5781852979077212,0.5292147861926843,0.06862470831789338,0.3512395672333849,0.6530139103554868,0.5336088416887599,0.6031459685863877,0.09171155190054589,0.41465968586387436,0.8335078534031415,0.6100212917877686,0.525,0.06929416044854653,0.328,0.8320000000000001,0.5295155018190371,0.3567099567099568,0.0770796127869837,0.11688311688311687,0.5714285714285714,0.3648749777218432,0.2971064814814815,0.06660380228681212,0.055555555555555525,0.4444444444444444,0.304419711248644,0.38396464646464634,0.09072844783394637,0.0,0.803030303030303,0.39445139610268637,0.41811111111111116,0.11151175201396388,0.0,0.8666666666666667,0.43260622758826334,0.39933712121212134,0.04543773164324535,0.27272727272727276,0.6022727272727273,0.4018924220974986,0.6256756756756758,0.07729442253508262,0.40540540540540543,0.8378378378378379,0.6303924904290077,0.5548076923076923,0.0764989113447052,0.18461538461538463,0.7538461538461538,0.5600132958410342,0.8981525962212827,0.05654096578515139,0.8100184169906605,1.0,0.8999157328536463,0.5607354237400225,0.1316740512218667,0.39743974132718407,0.7513906385105026,0.5758626463003468,-0.5650253026208879,-0.2788722845495856,1.0,0.7137539104389294,0.8794606579533226,0.6974108003764965
12,0.26127858474099913,0.021641873408469545,0.22095671981776777,0.2984054669703873,0.2621617569225606,0.05609803730104465,0.03869464276171018,0.0,0.12030075187969913,0.06800602938490542,0.43180947738588493,0.11211515053742994,0.25737265415549593,0.5630026809651474,0.4459439286432854,0.6578786020846106,0.1367782363496686,0.5064377682403438,0.8712446351931331,0.6717660130337597,0.6657160407160406,0.06364443285959717,0.5185810810810809,0.8125,0.6687120870196629,0.7193023582915278,0.08119714816070657,0.5108303249097473,0.8790613718411552,0.7238116028615174,0.6248686834853309,0.11063649417998915,0.4677608440797188,0.8089097303634234,0.6344622437717038,0.507432841742517,0.057787641791413755,0.3756785894879452,0.6279087517769741,0.5106702766380775,0.521708424496678,0.06155314207992216,0.37906027820710975,0.6931993817619784,0.5252801770815972,0.5138645814918065,0.06763955360961782,0.39790575916230375,0.6523560209424084,0.5182398096648868,0.5271688311688313,0.08078128408131663,0.36,0.952,0.5332427628724501,0.3481194130544781,0.07537530297788118,0.19480519480519481,0.6233766233766234,0.35608254261814287,0.28589466089466087,0.06801715445076273,0.12499999999999997,0.49999999999999994,0.29377203436850163,0.37603305785123947,0.10189849046023206,0.06060606060606055,1.0,0.38942176990052235,0.4112554112554113,0.07900151556958951,0.21333333333333335,0.8400000000000001,0.4186779164121243,0.3987603305785127,0.03145630132102693,0.3068181818181818,0.5454545454545454,0.39998306151750024,0.6293436293436289,0.042701339368450456,0.5135135135135136,0.7567567567567568,0.6307718506741227,0.5567432567432572,0.024358443951007176,0.5076923076923077,0.6461538461538462,0.5572689495092505,0.8325391310531811,0.014474274956847298,0.801779671627481,0.8514004788911296,0.8326633104267835,0.690763684129039,0.10576285915888423,0.5581335913882283,0.8379267331610362,0.6987095103030866,-0.06159065518226618,-0.27747826361866224,1.0,-0.513434155534983,0.7931693760391967,-0.6803057556101346
13,0.56167381127473,0.09075638536876127,0.44646924829157186,0.6970387243735764,0.5689018682359881,0.5455272038363622,0.06773913376118557,0.43984962406015027,0.6428571428571428,0.5496838998337165,0.31097084714276685,0.12856325592841172,0.07774798927613946,0.4209115281501341,0.33630526726988835,0.4385455037004498,0.12659751084040768,0.32188841201716745,0.6952789699570814,0.45631446642596846,0.6575601191742921,0.06595659604815235,0.5354729729729728,0.8125,0.6608338132814523,0.6236391028738745,0.11476683925715442,0.36462093862815886,0.8339350180505415,0.6340295308577435,0.627105814586776,0.13314418529479313,0.4865181711606097,0.8968347010550998,0.6409754216377551,0.5146725127488019,0.07357037156686852,0.33392804327707437,0.6845524887180026,0.5198632282219825,0.5382747264783553,0.06332606231534592,0.4053353941267388,0.7573415765069551,0.5419578351063641,0.5546684915694436,0.09758371951027958,0.2596858638743456,0.7607287958115184,0.5631205349570242,0.5237165354330708,0.05178510198794161,0.36,0.704,0.5262505017110969,0.3588301462317211,0.08334723718602088,0.12987012987012986,0.6623376623376624,0.3683084805950797,0.2971347331583552,0.06856045567731463,0.15277777777777776,0.49999999999999994,0.3048812451375596,0.3824862801240753,0.06831440626099483,0.22727272727272724,0.5303030303030303,0.3884917832744339,0.41774278215223093,0.08506132437671216,0.12,0.8,0.42624815432312085,0.4010379384395132,0.07860073715310018,0.10227272727272729,1.0,0.4086084405418541,0.6339646733347525,0.0706713880441161,0.40540540540540543,0.8108108108108109,0.6378607416868078,0.5625681405208964,0.05630494836355843,0.4076923076923077,0.7692307692307693,0.5653566992288173,0.4164225620954292,0.06445882702787384,0.3254898085933574,0.48727333969230957,0.4213430603889568,0.6916040307212028,0.12699240493117775,0.5717333411185427,0.9180756118230312,0.7030762557572984,-0.7911742731982103,-0.5735946297549698,1.0,0.4204176205631007,0.7586768151333048,0.22883974202351953
14,0.35554066729197376,0.08633614562606946,0.18906605922551256,0.44646924829157186,0.36575319936451856,0.6356037151702787,0.1081545445898198,0.5451127819548871,0.8796992481203008,0.6446331295537148,0.5648635861851442,0.026540276761824938,0.5227882037533511,0.613941018766756,0.5654794164167248,0.283160817975259,0.058701224416871575,0.21459227467811148,0.4334763948497855,0.2891112992670687,0.5017090620031797,0.07420150714798719,0.36317567567567544,0.6908783783783783,0.5071026244188834,0.49029517944361856,0.1509086076679384,0.14259927797833938,0.723826714801444,0.5127327260946163,0.3748706985725125,0.03944697204256248,0.2344665885111371,0.4970691676436109,0.37691616789538585,0.5369833445671591,0.08924587261250022,0.37388491885548547,0.7257019644509746,0.5442630194016603,0.5701522683880353,0.060274279726957855,0.4439752704791345,0.7472952086553323,0.5732921217843132,0.6278293563289191,0.14568369607800835,0.3439748691099477,0.9554931937172776,0.6443164974767536,0.5172705882352943,0.08665247890764775,0.0,0.712,0.5243941041531532,0.35370511841100066,0.07608763840795946,0.18181818181818182,0.5454545454545454,0.3617022667319228,0.29150326797385623,0.06333924039155334,0.15277777777777776,0.5138888888888888,0.298226116004698,0.3777183600713011,0.07700233636952293,0.1515151515151515,0.696969696969697,0.3853968891508151,0.4127058823529413,0.09561620553693967,0.08000000000000002,0.8533333333333334,0.42351038446729256,0.39278074866310175,0.06758047994795245,0.0,0.5227272727272727,0.3984847637637751,0.6143084260731317,0.10055571314900288,0.0,0.7567567567567568,0.6223884121182179,0.5535746606334846,0.05064318712163045,0.41538461538461535,0.7769230769230769,0.5558592123685089,0.5745972119704965,0.05262604214199798,0.50643267596951,0.659639252654306,0.5769738936548107,0.43489705512408083,0.034207249963990084,0.37429590681371805,0.48909395948219536,0.436224504355729,-0.675762233770499,-0.9007291044151792,1.0,0.6766770530117099,0.29364270808519116,0.39257314354205725
15,0.24412034434813482,0.0753580759035399,0.11389521640091127,0.36218678815489747,0.25534257569948804,0.3113953715457474,0.09198384581158588,0.16917293233082698,0.4323308270676691,0.32452769039222057,0.2589742696981302,0.1478964176554772,0.09919571045576392,0.5120643431635388,0.2977531750223147,0.8137227579287667,0.1506661059911338,0.6137339055793993,1.0,0.8273754851898097,0.6727360477360474,0.06278911411092167,0.4966216216216215,0.7905405405405406,0.6756219814572623,0.4459421444981015,0.12939756165931507,0.11191335740072206,0.6245487364620939,0.4641020083747141,0.7221570926143026,0.1362645458322708,0.4501758499413835,0.8944900351699884,0.7347365171701735,0.511777871313425,0.16265249326415593,0.21466802782097638,0.8640435823800482,0.5366831848279349,0.523675545474618,0.11585285038791884,0.34273261205564143,0.8740340030911902,0.5361750177908826,0.5264976949751822,0.12856182416803622,0.21309319371727753,0.7513130890052357,0.5417686907200908,0.5210389610389613,0.03949898118554236,0.23200000000000004,0.6000000000000001,0.5225145993113555,0.3577331759149942,0.0753018519216508,0.07792207792207789,0.5584415584415585,0.36547195911379593,0.302128427128427,0.07339479983131705,0.08333333333333331,0.5138888888888888,0.31080287116341876,0.38902007083825274,0.07230746553131469,0.2121212121212121,0.5909090909090908,0.39559712357780685,0.42043290043290055,0.060970107356295516,0.29333333333333333,0.6666666666666667,0.4247739403881793,0.4042207792207794,0.037072036515159876,0.3068181818181818,0.6363636363636365,0.40589521520604976,0.6286416286416286,0.06449673235252162,0.3783783783783784,0.8378378378378379,0.6318988067711516,0.5593406593406595,0.07448418222780201,0.3538461538461538,0.8461538461538461,0.564214335186659,0.7485813565422551,0.07550047129794618,0.6566215139824791,0.8736191241671925,0.7523299398427787,0.7845616766889527,0.12567555336304093,0.5369210560041077,0.922475244874346,0.7944345460024863,-0.4165637590164972,0.1975423378321465,1.0,-0.04971028320361035,0.4083798115797358,-0.5054077596206417
16,0.21361244207053662,0.1000570661033015,0.04555808656036442,0.4054669703872438,0.23570190192291643,0.25700025926886166,0.12899046068410347,0.12030075187969913,0.5150375939849623,0.28730512792356744,0.36609041323842095,0.20246225777359916,0.016085790884718065,0.613941018766756,0.4179231820476548,0.7326106260174631,0.14125235090056795,0.5493562231759657,0.9656652360515019,0.7459883069022513,0.650192218080149,0.0760220222961706,0.43243243243243246,0.8091216216216215,0.6545834143648558,0.5141136561683064,0.11577716980068034,0.21299638989169678,0.6859205776173285,0.5268791604705501,0.6371326353236044,0.18118600654653383,0.34701055099648315,0.9894490035169989,0.6621807614102971,0.507564128166518,0.2516783916874079,0.0,1.0,0.5660541539543277,0.5343697702925969,0.11188212304000648,0.2751159196290572,0.7816816074188562,0.5458578115518344,0.5480416681711499,0.11634385916210392,0.3052397905759163,0.8518366492146598,0.560150760848293,0.526413793103448,0.047477970903772086,0.31200000000000006,0.672,0.5285321247535968,0.35501567398119144,0.059203737270677535,0.10389610389610388,0.6103896103896105,0.3598763607832942,0.29154693486590044,0.06849583231654968,0.09722222222222221,0.5972222222222221,0.2994175157959735,0.37787356321839066,0.05313987524723937,0.2424242424242424,0.5,0.38155986767178895,0.4124137931034483,0.04697534805623227,0.18666666666666668,0.5466666666666667,0.4150575826736164,0.3990007836990594,0.039301172716431285,0.2272727272727273,0.5568181818181819,0.400915068569088,0.6344361602982288,0.051707123915942906,0.4594594594594595,0.7567567567567568,0.6365216568600779,0.5612732095490722,0.04332383886057943,0.3846153846153846,0.7076923076923077,0.5629284058603407,0.8001648800063967,0.13287810384440926,0.5242056073203623,0.9411438314103406,0.8110291077945531,0.7023682468634088,0.17086795899145252,0.47363848234228334,0.9936604224570084,0.7226792685339009,-0.3884695521531485,0.6121282113760647,1.0,-0.43793178191345716,0.5468718724143274,-0.6379544766862495
17,0.6324326447254729,0.01580310210536043,0.5922551252847381,0.6537585421412301,0.6326266531868538,0.5357791029297383,0.05801530511757819,0.4586466165413533,0.6278195488721804,0.5388571166365037,0.2749838217620411,0.07628195694267764,0.1742627345844503,0.3833780160857907,0.2851924134450956,0.43636229095752566,0.0850099002579644,0.32188841201716745,0.5579399141630899,0.444425622715843,0.6802481360671015,0.06723335478470627,0.5118243243243243,0.8226351351351351,0.683505606412821,0.6741566040084648,0.10857906135387355,0.43682310469314084,0.8664259927797834,0.6826955936278218,0.6613574806969318,0.07688205253232709,0.5228604923798359,0.7924970691676437,0.6657346739268222,0.47896697468101646,0.06807232465641994,0.32438724204058655,0.5945159474492667,0.48369754020694244,0.5299793210041038,0.07346436664767006,0.4034003091190108,0.7453663060278207,0.5349598507437358,0.5218725401697057,0.07166410591211352,0.37644397905759164,0.668062827225131,0.5266860022325498,0.5180689655172414,0.05504571053255539,0.4,0.656,0.5209349684742908,0.34796238244514105,0.1133946554333895,0.14285714285714285,1.0,0.3656698946107506,0.2914272030651341,0.09229330453410739,0.0,0.6805555555555556,0.30545213331572335,0.3819226750261232,0.07802345709890589,0.2121212121212121,0.6515151515151515,0.38967631427128874,0.41586206896551736,0.07244897470361673,0.24000000000000002,0.6666666666666667,0.42201850298089727,0.40066614420062713,0.02385179937569333,0.3295454545454546,0.4545454545454546,0.40136325028294,0.6276794035414724,0.0752686853470196,0.32432432432432434,0.8648648648648649,0.6320989872993334,0.5518567639257296,0.0878543421529308,0.1384615384615384,0.7,0.5586870302009453,0.36040649674864533,0.02132174619854585,0.3118406137739007,0.38959924175074667,0.36102579068239143,0.7271067710305047,0.06524658104206896,0.6314942999037564,0.8133865961490286,0.7299780642310698,-0.4799448942024274,0.6521450043906698,1.0,-0.19882606483254517,0.473145555718268,-0.8478260048243457
18,0.3243504111810355,0.04503473045710219,0.23462414578587698,0.3758542141230069,0.32740943961291774,0.5940486810245955,0.03479670523823959,0.5526315789473684,0.6992481203007518,0.5950496818815397,0.7015495069750529,0.037604235716456456,0.6568364611260054,0.7667560321715818,0.7025395518031801,0.18738633883756498,0.0069757079787312395,0.1716738197424892,0.20600858369098773,0.18751393476348194,0.4131642235455793,0.05481423060358323,0.3091216216216217,0.5337837837837838,0.4167233495654472,0.5737318729731385,0.06381197535567303,0.46750902527075816,0.7815884476534296,0.5772098525267125,0.2633775110775527,0.037856465563377115,0.18757327080890984,0.3247362250879251,0.2660385973739796,0.5215550147664113,0.05743025376200033,0.41145659412477453,0.6326791523952181,0.5246541386505716,0.6078113850103476,0.05325982668722481,0.5115919629057187,0.7244945904173107,0.6101009840722719,0.5174819416097259,0.08081313488714749,0.3502575916230367,0.6691099476439791,0.5236483856253625,0.5362711864406781,0.048797198375088544,0.43200000000000005,0.704,0.5384492485094012,0.3618754127228702,0.0535173634886834,0.2597402597402597,0.5064935064935066,0.3657449634942857,0.29378531073446323,0.05637645188481454,0.09722222222222221,0.4305555555555555,0.2990555860799117,0.38109912686183867,0.050863600437043605,0.25757575757575757,0.5,0.384421384801353,0.4203389830508475,0.038225459987881745,0.32,0.56,0.42204416901864245,0.40177195685670286,0.0202139621794895,0.36363636363636365,0.4545454545454546,0.40227153029689683,0.6362803481447546,0.07566935699527591,0.4594594594594595,0.8108108108108109,0.6406882898034643,0.5709256844850065,0.09319936043105957,0.2692307692307692,0.7846153846153846,0.578355457831297,0.618284032127168,0.03496255889308404,0.5763905339338721,0.6795331385472191,0.6192550416377801,0.3248825392942722,0.039601307841726004,0.2452965613821333,0.3695683189074054,0.32724661523441056,-0.1114061459144325,-0.6613545231721001,1.0,-0.3846152744896401,0.4646548655500462,0.2715258022435025
19,0.23354846874209068,0.09246237239932152,0.1093394077448746,0.3530751708428246,0.250712379580876,0.40110693400167075,0.01649293383147124,0.3609022556390976,0.4323308270676691,0.4014364624028616,0.26050044682752443,0.10255273674731182,0.14745308310991945,0.4316353887399462,0.2794376602217269,0.78826895565093,0.06032186278351934,0.6223175965665231,0.836909871244635,0.7905097076058454,0.6497747747747746,0.07166964041922592,0.5135135135135134,0.7820945945945945,0.6536062374994271,0.3734957882069796,0.1392099376596841,0.1534296028880866,0.6028880866425993,0.3979198332548755,0.6893317702227436,0.09950298249824507,0.5310668229777258,0.8558030480656508,0.6962787584963283,0.6320664209380304,0.18432373081082576,0.295764838331123,0.8920649156116129,0.6576773081181557,0.6876608277520176,0.12733157352201954,0.439338485316847,0.9238763523956723,0.6990281635049362,0.5225421756835371,0.15297371560556966,0.3047120418848168,0.7994806282722514,0.5438761407089118,0.5233333333333334,0.01259478350066296,0.496,0.544,0.5234806586684937,0.35461760461760444,0.027032147558212746,0.2857142857142857,0.4155844155844156,0.35561789079894734,0.29436728395061723,0.05671599981071223,0.18055555555555552,0.4305555555555555,0.29963219050775797,0.37668350168350156,0.04682673086011614,0.25757575757575757,0.48484848484848486,0.37950269253788665,0.41111111111111104,0.03831365954769275,0.33333333333333337,0.49333333333333335,0.41284319804598874,0.396780303030303,0.016156471831879307,0.36363636363636365,0.4318181818181818,0.3970999742855622,0.6223723723723723,0.036252566964918624,0.5405405405405406,0.6756756756756757,0.623398036248178,0.5555555555555557,0.009396157757055405,0.5384615384615384,0.5692307692307692,0.5556328019932657,0.7302812836121293,0.08393133669875043,0.622871160536296,0.8386195322699136,0.7349554699245356,0.7573745846930922,0.10389713405057303,0.591615053660478,0.8735460624058281,0.7642715653491112,-0.3169685763442584,-0.9029005818489323,1.0,0.3579267258719379,0.25498154023187836,0.8076933812595614
20,0.27572133637053914,0.01838582974404142,0.23006833712984054,0.30523917995444183,0.2763209213788908,0.24616228070175425,0.04234844746034719,0.20676691729323293,0.3421052631578946,0.24970361857618936,0.3984584450402144,0.03747897714344801,0.353887399463807,0.47989276139410175,0.40018063685739524,0.6082796852646638,0.04571081959434122,0.5021459227467813,0.6652360515021454,0.6099591164337016,0.6501618806306307,0.07523541084162567,0.5202702702702704,0.8597972972972974,0.6544103557831579,0.5796104091456075,0.106928079497423,0.3249097472924188,0.759927797833935,0.5891889682261752,0.6022127784290735,0.04311304693662462,0.5123094958968348,0.7033997655334117,0.6037219903874806,0.48510780310330465,0.0696019462257807,0.2737065058723631,0.5802047455945349,0.4899725358691007,0.5496691138588357,0.07313050616927753,0.43006491499227206,0.7299103554868624,0.5544121098231024,0.49994520069808046,0.09495894769064625,0.3240879581151833,0.7376921465968587,0.5086988766233318,0.5220000000000001,0.015079928889724556,0.48800000000000004,0.56,0.5222132386934161,0.3538961038961037,0.03969105164080855,0.2857142857142857,0.4545454545454546,0.3560688297580557,0.29108796296296297,0.05940824977196678,0.18055555555555552,0.41666666666666663,0.29696466861108606,0.38068181818181807,0.05309933795173908,0.2727272727272727,0.5,0.38429083514299495,0.4152777777777778,0.028449559971446867,0.33333333333333337,0.48000000000000004,0.4162308832224589,0.40198863636363646,0.014755979198380637,0.375,0.44318181818181823,0.4022537339292889,0.6278153153153153,0.042180582864019746,0.5405405405405406,0.7297297297297298,0.6292012436540687,0.5540064102564104,0.009844514917470546,0.5384615384615384,0.5769230769230769,0.5540920483345827,0.7526694873627694,0.008551188521592985,0.7248733728369201,0.7637274220179447,0.7527170495211837,0.6653613487796425,0.02793864164768457,0.6021811470210038,0.7030536032766094,0.6659354550705042,0.008562863084397196,0.053554126201054514,1.0,-0.11375624262941354,0.42128886469009436,-0.47426978074666454
21,0.7521480238180873,0.059338734107982995,0.7061503416856492,0.8883826879271071,0.7544441408557205,0.5880490700435298,0.04784377873858443,0.5375939849624058,0.68796992481203,0.5899581150994949,0.243779690513146,0.06665324355644828,0.1394101876675602,0.32171581769436997,0.25257325881742904,0.41427603343121755,0.06106382669405209,0.3390557939914163,0.5107296137339055,0.41867410407293965,0.6898411569464199,0.07415188346535263,0.44763513513513487,0.8429054054054055,0.693745528774347,0.749160808157578,0.13257582730990852,0.3989169675090253,1.0,0.7605983890654174,0.6870488060714508,0.07867818421296448,0.5545134818288395,0.8862837045720986,0.6914605683631037,0.46452269798459783,0.11127015964315427,0.10793508438838695,0.5969011477583888,0.47743604178359883,0.529082133463489,0.08802498811963898,0.32921174652241114,0.8222565687789799,0.5362279045959497,0.583971635896023,0.11139811725218024,0.3675392670157068,0.8958157068062829,0.5943186862459282,0.5233684210526315,0.024234443890394766,0.42400000000000004,0.5760000000000001,0.5239193723961062,0.35269993164730007,0.11024735660379262,0.14285714285714285,0.7792207792207793,0.3692404161752266,0.29459064327485374,0.06539465442982259,0.16666666666666663,0.4722222222222222,0.30163733572707263,0.38277511961722477,0.06869255054926372,0.2424242424242424,0.6363636363636364,0.3887835838562632,0.4156725146198831,0.0550971901462874,0.28,0.5866666666666667,0.41924465634202784,0.40031897926634796,0.023329831289213836,0.31818181818181823,0.4545454545454546,0.4009863057497962,0.6277856804172595,0.04899531776596433,0.5135135135135136,0.7837837837837838,0.6296612477695477,0.5612685560053982,0.061914457667154636,0.36923076923076925,0.7076923076923077,0.5646136195628182,0.25160930743343135,0.056875911282656164,0.14108362150079448,0.29916218388984195,0.2578475533695399,0.7501908026248058,0.06059207527422907,0.6795831044723154,0.851878831463046,0.7525910107155384,-0.22346096638856847,-0.03907042175732379,1.0,0.27383692076614913,0.22534550454395402,-0.29260729654603185
22,0.38843368578519716,0.046639943763006814,0.3234624145785878,0.4624145785876994,0.39118224100312843,0.6628324542700036,0.026952625027088246,0.6015037593984962,0.6992481203007518,0.6633720403979562,0.6892481293265574,0.04495020616746301,0.6005361930294904,0.7667560321715818,0.6906904862413343,0.14131061431042258,0.06245587493163453,0.06866952789699621,0.27467811158798305,0.15430880106231054,0.41478418717224685,0.07626634831675848,0.1773648648648647,0.5929054054054053,0.421634514178768,0.5598092569642763,0.06887855196102374,0.40252707581227437,0.703971119133574,0.563967950621499,0.26872670644433155,0.03316726137417217,0.2051582649472451,0.33763188745603756,0.27073546326560904,0.5228351957594416,0.09432179817096369,0.3500329157642659,0.6935017602778281,0.5311501279641733,0.582060209001361,0.13170634699065858,0.4122843894899536,0.9903369397217929,0.596558249320473,0.5819648980229741,0.08085035288303415,0.4,0.7319371727748691,0.5874711552222394,0.5178507462686569,0.03378598137265563,0.42400000000000004,0.608,0.5189353049718903,0.35975964334173305,0.09449321218212052,0.16883116883116883,0.6623376623376624,0.37178313565769855,0.29871475953565507,0.07932168996573419,0.15277777777777776,0.5138888888888888,0.3089150832397653,0.3862505653550429,0.05433416980660555,0.28787878787878785,0.5757575757575757,0.3899969724614762,0.4202985074626865,0.04300861766000827,0.28,0.5733333333333334,0.42246061176265765,0.40213704206241546,0.018016989596858712,0.36363636363636365,0.44318181818181823,0.4025344302775848,0.63574021782977,0.07635100113061001,0.4864864864864865,1.0,0.6402406522900284,0.5432835820895523,0.0696675656139601,0.3,0.6923076923076923,0.5476661199379107,0.5423232917953361,0.04592993686282057,0.46846814586505425,0.6117693123995033,0.5442358183427771,0.32517351278423984,0.0406783032941856,0.25583354914189327,0.4092063819332027,0.3276703227282644,0.04906389935812502,-0.7957430188005098,1.0,-0.07643211728297306,0.28677420018826655,-0.45681619960660613
23,0.2432060179053876,0.007872665742699682,0.22779043280182232,0.2574031890660592,0.243330443311801,0.2681412834411609,0.06576118736309883,0.19548872180451116,0.4172932330827066,0.275905257463935,0.4891826173701603,0.046884411209591276,0.39410187667560326,0.5335120643431635,0.49137222289250726,0.5298932029144627,0.04361129745578726,0.5021459227467813,0.6309012875536482,0.5316432266807078,0.6065760527969831,0.09225068675507696,0.402027027027027,0.8817567567567566,0.6133895871765753,0.6193014860213248,0.0904920446587197,0.44404332129963897,0.8880866425992779,0.625725741271261,0.5094195588756509,0.05615343028924198,0.4079718640093788,0.6447831184056273,0.5124335706078501,0.5528854378306969,0.1436528270410146,0.24567563183956187,0.8610573115930276,0.570822679973757,0.6171957873548758,0.12439959568505037,0.4594312210200927,1.0,0.6293218648526103,0.5727501278460978,0.07093368115258014,0.4534031413612566,0.7408418848167541,0.5770245076386101,0.5332093023255816,0.08258460543142145,0.31200000000000006,0.792,0.5394198433890438,0.35850196315312577,0.057113300873954054,0.16883116883116883,0.5194805194805194,0.36291834881172796,0.29328165374677007,0.05582024432029293,0.12499999999999997,0.4305555555555555,0.2984251418986933,0.3784355179704017,0.07396792113537093,0.12121212121212122,0.5,0.3854315194278353,0.4117829457364342,0.07840793083337336,0.10666666666666669,0.5333333333333333,0.419010770553447,0.3932346723044397,0.08172416491632338,0.10227272727272729,0.5113636363636364,0.4014436757421749,0.6253928346951602,0.07042389783965056,0.4864864864864865,0.8108108108108109,0.6292538321498579,0.5552772808586764,0.02131594991824498,0.5076923076923077,0.6,0.5556767600152327,0.7764745179355145,0.023459019475194222,0.7285590572401726,0.8069528902782839,0.7768205740892051,0.5790866505842069,0.04000530860885946,0.5502322218771055,0.6721450554166487,0.5804347977355104,0.3642055751377613,0.06588116450874983,1.0,-0.5087075242806519,0.24763527082987782,0.08984101782395254
24,0.23943305492280448,0.01692283919907856,0.2164009111617312,0.29612756264236906,0.24001709568480264,0.2210526315789473,0.057382488517286986,0.15413533834586446,0.32330827067669166,0.2282188504362624,0.403574620196604,0.04107694847353748,0.32707774798927614,0.4504021447721178,0.4056134783983116,0.6451120648545542,0.027279737731847435,0.6094420600858368,0.6909871244635193,0.6456757877506224,0.6525150150150149,0.05518626489542748,0.5658783783783781,0.7635135135135132,0.6547928606404859,0.5578820697954276,0.10599386629791101,0.3050541516245488,0.7148014440433212,0.5676420029374468,0.6066953236941511,0.05429192836972411,0.4900351699882768,0.7162954279015241,0.6090659461474932,0.4660463025684896,0.10723451221556331,0.2325665709406276,0.6374495530134621,0.47795696256843606,0.5573750987463506,0.07129028370717201,0.3902627511591963,0.7449768160741885,0.5618152411179488,0.5394527981384527,0.09817919141139785,0.33821989528795815,0.7916230366492147,0.5481188480901625,0.5244444444444443,0.032070629125810005,0.448,0.624,0.5254023643308474,0.3572871572871572,0.09273020865775598,0.16883116883116883,0.6753246753246753,0.36886571795180384,0.29506172839506173,0.07132280105525775,0.18055555555555552,0.5138888888888888,0.30337323935936805,0.38316498316498293,0.05031645227170666,0.25757575757575757,0.5454545454545454,0.386381791347403,0.4177777777777778,0.04339156925980303,0.24000000000000002,0.5066666666666667,0.41997530791614324,0.40101010101010104,0.021482194523046377,0.3522727272727273,0.46590909090909094,0.4015723229737234,0.6366366366366366,0.08974133971313362,0.3783783783783784,0.7837837837837838,0.6427913723097748,0.5557264957264957,0.09378416437638702,0.25384615384615383,0.8076923076923077,0.5634109979958873,0.7924676407489069,0.030071494550091324,0.7127562149649517,0.8201456920018462,0.7930253217766502,0.6670192474226616,0.023335221198408952,0.6365870479196715,0.7164629026295509,0.667418240878518,-0.03772880952468998,0.871286694662971,1.0,-0.13053922942544663,0.2617982434739559,-0.8198762794237213
25,0.671032649962035,0.022208894048399576,0.6264236902050114,0.7107061503416856,0.6713924162226449,0.526002506265664,0.022433855476278075,0.5037593984962405,0.5789473684210525,0.5264707299685649,0.37097855227882026,0.03490570883088732,0.30563002680965123,0.42359249329758697,0.37258302598115256,0.3056151645207443,0.027827837730938786,0.27038626609442096,0.351931330472103,0.30685319656632465,0.6439329954954955,0.05467712342340054,0.4966216216216215,0.743243243243243,0.6462019865598946,0.7653053549939837,0.05277126624588624,0.6299638989169675,0.8610108303249098,0.7670847906983421,0.5635746385306758,0.0404171819868354,0.4525205158264948,0.6342321219226261,0.5649919375816299,0.47685898536759114,0.06033833534577001,0.36792191808268054,0.6129964794443437,0.4805823117998979,0.5493623132405976,0.06582085556211403,0.4501576506955178,0.7550231839258115,0.553209795841139,0.5658923211169287,0.04758054008488862,0.4691099476439791,0.6622994764397907,0.5678475694657416,0.5211666666666666,0.03345580338509067,0.42400000000000004,0.5760000000000001,0.5222170685324894,0.35741341991341996,0.12267991891409856,0.11688311688311687,0.7792207792207793,0.37746677472345436,0.2899305555555556,0.10140143709389486,0.08333333333333331,0.6805555555555556,0.30680248518826486,0.3841540404040403,0.06985304640091733,0.22727272727272724,0.6060606060606061,0.39032309652602565,0.4191666666666667,0.05375058414108887,0.24000000000000002,0.5333333333333333,0.42252766729485264,0.40080492424242425,0.02145106182240673,0.3522727272727273,0.4545454545454546,0.40136660166549354,0.6328828828828829,0.08882570666691472,0.4864864864864865,0.8648648648648649,0.6389572555989882,0.5647435897435896,0.10338393019282983,0.4307692307692308,1.0,0.5739345673279878,0.33539124705553996,0.023548761614839285,0.2865005277827182,0.3759235466536418,0.33619976170640903,0.6360781538253067,0.03026072829917675,0.5892502568795351,0.6901462580329693,0.636782578376952,-0.43374892676764143,0.007515192811166439,1.0,-0.3182069134637603,0.4634699691182884,-0.21956656418279338
26,0.28969000693275243,0.01821250220424578,0.2596810933940775,0.34624145785877003,0.2902495212523632,0.8962079110820527,0.0486401423066898,0.8458646616541352,1.0,0.8974982181128163,0.8523137894859544,0.021078335998643935,0.8123324396782841,0.8739946380697051,0.8525687264861886,0.06969583877589147,0.012673176364637894,0.03433476394849855,0.09442060085836967,0.07081403697831866,0.20472238542890697,0.05324042733567692,0.07263513513513487,0.31756756756756754,0.2113863233427149,0.37498037984617794,0.0687548838840188,0.21299638989169678,0.516245487364621,0.3810967769080557,0.1310209490799736,0.029755797041129677,0.0832356389214538,0.2086752637749122,0.1342856975525028,0.45604407684244286,0.07126743558124563,0.2599868336942936,0.5670861438943642,0.46145946010895467,0.5863259189570593,0.05858934178877066,0.4509242658423493,0.733001545595054,0.5891826287837522,0.5775439107671295,0.07949800225207601,0.4376963350785341,0.8115183246073299,0.5828717795470143,0.5226086956521737,0.021203226443025202,0.47200000000000003,0.5680000000000001,0.5230293033606368,0.3529079616036136,0.06203052933364965,0.12987012987012986,0.49350649350649356,0.35820129591964467,0.2865338164251207,0.06213774962477195,0.15277777777777776,0.4444444444444444,0.29305083335252563,0.38109354413702234,0.055964280818403704,0.25757575757575757,0.5303030303030303,0.38509246050539647,0.4197101449275361,0.040998802071969785,0.3466666666666667,0.5333333333333333,0.42166451852577647,0.4031620553359684,0.01927567075905693,0.36363636363636365,0.44318181818181823,0.40361258297998737,0.6321974148061106,0.057114065019078265,0.4864864864864865,0.7297297297297298,0.6347162155719931,0.5561872909698998,0.044407697125800255,0.3923076923076923,0.6538461538461539,0.5579188791286699,0.5934585843093371,0.026099222487044407,0.5202107854063917,0.6328661413220806,0.5940197409801481,0.14314608750776733,0.013677222168480704,0.1285015322184242,0.16826532450361298,0.14378387292746717,-0.09339464781911382,0.5319173197808292,1.0,-0.4141406027822181,-0.0536909750534978,-0.4651541308018597
27,0.058411975268467344,0.041402053938516134,0.0,0.13211845102505693,0.07142549511664996,0.48421052631578965,0.04021891834519862,0.4022556390977442,0.5488721804511276,0.48585418303023137,0.675718115664496,0.06297094567903214,0.5790884718498659,0.7747989276139409,0.6786042028477334,0.47964438994481934,0.055245536236586165,0.3948497854077253,0.5793991416309008,0.48277034818842823,0.42890926640926624,0.06212986469768589,0.21790540540540526,0.564189189189189,0.43332220613120126,0.42364620938628145,0.09120843313499742,0.21660649819494582,0.6407942238267148,0.43321616596743195,0.3058951599397087,0.050090365540611775,0.17819460726846437,0.38804220398593203,0.309911358453562,0.5360108001869999,0.10320581288998576,0.38700352055565623,0.7871161020102467,0.5457168261154058,0.5971735924045044,0.0876573777259385,0.41306336939721794,0.8226460587326121,0.6034818526989432,0.5343079730740463,0.10076201796692323,0.339786387434555,0.7633507853403142,0.5435926339851459,0.5197714285714284,0.033913005255592446,0.448,0.5920000000000001,0.5208608259410569,0.3571428571428573,0.0756216683105581,0.2077922077922078,0.5844155844155845,0.3649492599197554,0.29900793650793656,0.07139849167274591,0.12499999999999997,0.5416666666666666,0.30729573017670186,0.38419913419913404,0.05628158055624239,0.25757575757575757,0.5151515151515151,0.3882413416519459,0.4177142857142857,0.040142832173692425,0.32,0.5733333333333334,0.41961130918226075,0.4019480519480522,0.02354995135346157,0.3522727272727273,0.5,0.40262751248947126,0.6324324324324325,0.08210606863313381,0.3783783783783784,0.8648648648648649,0.6376643962866031,0.5537362637362642,0.0795374335742691,0.3384615384615385,0.7307692307692308,0.5593386083427065,0.8941992156744317,0.04106882555472322,0.8422514748408301,0.9529607386000813,0.8951283655250829,0.35851389220908103,0.04624175753681705,0.27688808576823387,0.42645575746210695,0.361441508272279,-0.4606658412537824,-0.28988234672785995,1.0,0.15494810647138996,0.25982616372618367,-0.39343984798805726
28,0.3602267309424167,0.012920064238193602,0.3416856492027335,0.3849658314350798,0.3604529701604278,0.29786675992306333,0.014014546466947267,0.26691729323308255,0.319548872180451,0.2981886090432769,0.3414801421535007,0.02953713851883915,0.28686327077747986,0.3994638069705092,0.3427256055146515,0.5866852979339254,0.03536090375730958,0.5193133047210301,0.6437768240343344,0.5877252363200086,0.6924890006285354,0.06756450432282841,0.5354729729729728,0.8631756756756757,0.695700953228639,0.6079674250692636,0.10970049906279951,0.4512635379061372,0.855595667870036,0.6175586808842151,0.643419940565446,0.0365756160219352,0.5592028135990623,0.743259085580305,0.6444345463599304,0.5059582303721867,0.06018019827833025,0.38819612071021725,0.6255235514678522,0.5094420110099634,0.5509870960785017,0.10496706293219309,0.37094281298299847,0.7689335394126738,0.5606680210490094,0.5183002556921952,0.08204977275874564,0.3235602094240838,0.6900523560209425,0.5246053357322382,0.521860465116279,0.016079536529906957,0.496,0.5680000000000001,0.5221023690052844,0.350347327091513,0.07511370729680401,0.2077922077922078,0.7402597402597403,0.35812582665385334,0.2939276485788113,0.06937365655084023,0.16666666666666663,0.5972222222222221,0.3018182291848431,0.37878787878787873,0.09531185652079653,0.13636363636363635,0.6666666666666666,0.3903246637822491,0.41457364341085273,0.08995302494189876,0.2,0.7733333333333334,0.4239984398586675,0.40063424947145876,0.028174684814086526,0.3295454545454546,0.5,0.40160073947845815,0.6272784412319297,0.03565994521519187,0.5405405405405406,0.7027027027027027,0.6282676990718574,0.5576028622540252,0.012147781329031427,0.5230769230769231,0.5846153846153846,0.5577320940715143,0.6622823449974558,0.010079383933232522,0.6462470121361547,0.6801616811439223,0.6623572569430292,0.7059833583869916,0.02704619270995671,0.6591012502016734,0.7577222285114277,0.7064891982982014,-0.4694676579270546,-0.38322393406221567,1.0,0.3719018862240996,0.4280450691336849,-0.4165752456839225
29,0.7478566991095462,0.036332587856603135,0.6674259681093395,0.7927107061503417,0.7487227112276648,0.7349965823650032,0.03824192896320241,0.6729323308270676,0.8045112781954886,0.7359727109802319,0.23811844991469644,0.0206580042178686,0.20375335120643423,0.27345844504021444,0.23899663215215994,0.39937573156457323,0.024757196465258036,0.351931330472103,0.4420600858369106,0.4001284165887209,0.685135135135135,0.10940852863602757,0.4831081081081079,1.0,0.693658950104227,0.6176567115195275,0.13352751352253037,0.30685920577617326,0.8628158844765343,0.6316686122201466,0.676627944154322,0.05198457319329634,0.5345838218053929,0.7667057444314186,0.6785857618537185,0.4938603209352066,0.11459136417983651,0.3136633814507742,0.7984505738791943,0.5067449541909721,0.5817197133623716,0.09516351324573175,0.33964142194744973,0.768160741885626,0.5893125341518881,0.5515747548786292,0.1534628678217022,0.2916188481675393,0.8607329842931939,0.5721515225130714,0.5259636363636365,0.06286433471472185,0.4,0.672,0.5296393283941613,0.3534828807556082,0.06658279375201469,0.22077922077922077,0.5324675324675325,0.35958699994670773,0.29292929292929293,0.06031993031687177,0.12499999999999997,0.40277777777777773,0.2989647307179286,0.37878787878787856,0.0583182090090531,0.16666666666666663,0.5,0.38317024155004076,0.4138181818181817,0.05521159515383839,0.2,0.52,0.4174187152469136,0.40082644628099157,0.049215928451298324,0.20454545454545456,0.5340909090909092,0.4037821287689043,0.6348894348894351,0.08320097064936267,0.43243243243243246,0.8108108108108109,0.6402195984234302,0.5707692307692308,0.10032163921707284,0.3,0.7769230769230769,0.5793608171322834,0.20377774298317572,0.021596170752935354,0.1676857037595598,0.24660594265042993,0.2048982265048899,0.7380146528063488,0.022699582788213706,0.6985809885898399,0.7731950578547472,0.7383573188172037,-0.5912825376380312,-0.03497481040751442,1.0,0.16715480208159178,0.5178633275001137,-0.12547476884321757
30,0.41114102298612554,0.02710848906339508,0.3553530751708428,0.4396355353075172,0.4120175356527811,0.8353383458646615,0.022103974941483414,0.8007518796992481,0.8796992481203008,0.8356254270925522,0.7942968559590543,0.01660255033428819,0.7560321715817695,0.8150134048257371,0.794467197776365,0.027155676941085095,0.027961781704621467,0.0,0.08154506437768294,0.038795313729719456,0.28141891891891874,0.048628789670940184,0.12499999999999978,0.37331081081081074,0.2855142229185975,0.4685920577617329,0.07185922701960887,0.2779783393501805,0.5812274368231047,0.47397086278454337,0.1746562932963871,0.022901360482067125,0.11723329425556861,0.21688159437280197,0.17612426647042792,0.5021219609295516,0.06581330362340741,0.34705618577848163,0.6249224809899535,0.5063389201109586,0.5750035127160317,0.04358568927709476,0.47836166924265844,0.7132921174652241,0.5766231106378946,0.5539845787720135,0.10499612273621359,0.3340314136125655,0.8057633507853404,0.5636689272660089,0.5207272727272728,0.10075004908471454,0.07200000000000001,0.728,0.5302102498923508,0.3551357733175915,0.06749259663188865,0.07792207792207789,0.5454545454545454,0.36137770455828433,0.2987373737373737,0.04527205959315628,0.18055555555555552,0.41666666666666663,0.3020865987284327,0.38181818181818167,0.050116349340753374,0.2424242424242424,0.5,0.3850339025363166,0.4087272727272727,0.05813101036349732,0.2,0.5333333333333333,0.41276598403424386,0.3993801652892563,0.07391762407391421,0.04545454545454547,0.6022727272727273,0.4060406254078437,0.6358722358722361,0.14608810648115186,0.05405405405405406,1.0,0.6521404784749847,0.5599999999999999,0.15533044668064666,0.12307692307692308,0.9153846153846155,0.580765757411,0.4876674665957309,0.021634669490499314,0.4595523093950191,0.5314204762673762,0.48813840940619235,0.20945617480448284,0.010066450220784132,0.1967960850830458,0.23467630839132325,0.20969353866524965,-0.05290340532246049,-0.6819886686414082,1.0,0.4956626220590707,0.2110298665856174,-0.2631368181897286
31,0.27271846071826694,0.0650451723205237,0.13667425968109348,0.3234624145785878,0.28020744931852576,0.3309070548712205,0.046997314963568605,0.2556390977443608,0.4022556390977442,0.33415749572207604,0.6644230220751808,0.03806805982293038,0.5978552278820373,0.7184986595174261,0.665489515984441,0.3160441968769979,0.0744253719260004,0.24892703862661003,0.48927038626609454,0.3245076523116123,0.5051394479585968,0.08776221367658127,0.23141891891891864,0.7888513513513513,0.5125467698725128,0.7043167678009064,0.10189098358937218,0.48014440433213,0.8465703971119134,0.7114934948156214,0.35302187523384315,0.043785338607523955,0.2567409144196954,0.4724501758499415,0.35566952318131034,0.4854057205426239,0.07205836768668468,0.36434411761899765,0.6380506234913608,0.4906125203413495,0.5849010490315368,0.10792876869915653,0.3210942812982998,0.9385656877897991,0.594567080581543,0.630601047120419,0.1787771758852496,0.4057633507853403,1.0,0.6549342959734561,0.5242553191489363,0.057901891568225464,0.384,0.6880000000000001,0.5273755172267791,0.35341254490190666,0.06554967018603909,0.22077922077922077,0.4675324675324676,0.3593129078473546,0.2940307328605201,0.0500200534242682,0.18055555555555552,0.38888888888888884,0.2981657985857586,0.381044487427466,0.05607028398145067,0.2424242424242424,0.5757575757575757,0.3850608875879635,0.4170212765957448,0.06108216546940271,0.2666666666666667,0.64,0.42137678203122225,0.4001450676982593,0.06944386043354166,0.09090909090909094,0.5454545454545454,0.40599990103605593,0.6239217941345603,0.08763735363793901,0.3783783783783784,0.8108108108108109,0.6299168994304367,0.5548281505728313,0.06942775804406294,0.32307692307692304,0.6923076923076923,0.5590634423025703,0.7344390913258483,0.0489253977939014,0.6924787497331123,0.8446246123593368,0.7360322980315248,0.4135353570617531,0.022472189547245548,0.36432922586349725,0.45538912725973846,0.41413252248189436,-0.16615134758089456,-0.814071438567085,1.0,-0.15366490736679927,0.06913098202227203,-0.3380308396693778
32,0.40327502471311305,0.02506077938807396,0.34851936218678814,0.4396355353075172,0.40403828823432497,0.5829195630585898,0.051034467509629734,0.43609022556390964,0.6541353383458646,0.5851073337795362,0.16576458090950472,0.05502824041636363,0.08847184986595158,0.25737265415549593,0.17449604416288136,0.7169811320754714,0.06059899190627509,0.6180257510729614,0.7982832618025753,0.7194893286673839,0.6865757266700662,0.0672970530422693,0.5320945945945943,0.8378378378378377,0.689804081593327,0.3802193311082352,0.1187432566255482,0.10649819494584833,0.5469314079422383,0.3979958086997235,0.769736114490478,0.061337964062005194,0.6541617819460728,0.88862837045721,0.772130198948921,0.5263244207248524,0.15318352020673945,0.1812752234932689,0.6845524887180026,0.5477589317063083,0.6034384532384591,0.08814750734311694,0.41112828438948995,0.7484574961360124,0.6097223519306472,0.5256346932727451,0.11507497103855036,0.32879581151832465,0.8036691099476441,0.5378514906342668,0.5260377358490567,0.07995238060249242,0.36,0.744,0.5319656677814022,0.3545699583435432,0.09125042618855539,0.16883116883116883,0.6493506493506493,0.36590899035001223,0.3047693920335429,0.08628218696681351,0.08333333333333331,0.49999999999999994,0.3165257235351427,0.3979416809605487,0.10869809747661757,0.22727272727272724,0.8636363636363636,0.41224983698898043,0.4314465408805032,0.13246110448938578,0.24000000000000002,1.0,0.4509556588948721,0.40523156089193846,0.07401287358605009,0.1931818181818182,0.6477272727272727,0.4118096243322339,0.6435492095869456,0.09745549102342614,0.4594594594594595,0.972972972972973,0.6507487675018033,0.5582002902757621,0.07318598889977954,0.3769230769230769,0.7307692307692308,0.5628878155244745,0.517196817809943,0.030519162282303527,0.46408726721352267,0.5821628638410767,0.5180795244658122,0.8236786249597148,0.05457100291958143,0.7345239437552241,0.9022149795375972,0.8254503516277354,0.1348555997802828,0.158435755331513,1.0,0.5925093447606108,-0.3722952633271844,-0.2355474361293157
33,0.8730506395654456,0.015056723502907269,0.8405466970387244,0.9043280182232346,0.8731779683765656,0.8676257952573742,0.06810325065173668,0.7293233082706767,0.9511278195488722,0.8702432878357764,0.14425654774180235,0.04505560193273216,0.09651474530831083,0.2439678284182305,0.15099973586282756,0.4720204688015849,0.052684199236177336,0.36051502145922765,0.5321888412017168,0.4748953257465056,0.716703482328482,0.06386003989267044,0.5692567567567566,0.8344594594594592,0.7194884023989381,0.6224659816717577,0.09716134905834176,0.3736462093862816,0.7743682310469314,0.6298592551713303,0.7724546848227976,0.05771331604561406,0.6143024618991795,0.8628370457209849,0.7745663384056837,0.4634216689209868,0.06811302165876146,0.327974583305506,0.6356654231822387,0.4683052509072656,0.5325615265723459,0.06928497906537505,0.3972179289026275,0.6816074188562596,0.5369635670736542,0.5304467176802257,0.08233591949949745,0.38272670157068067,0.6879581151832461,0.5366773282306481,0.5181538461538462,0.06292459995132821,0.384,0.664,0.5218876979109293,0.34715284715284717,0.0915837812249729,0.19480519480519481,0.6363636363636365,0.35880550230124436,0.2927350427350427,0.08834966115341962,0.09722222222222221,0.611111111111111,0.3055312733164299,0.3808275058275056,0.05872211853272749,0.2121212121212121,0.5151515151515151,0.3852422136582263,0.4182051282051281,0.04249547733701656,0.3066666666666667,0.52,0.4203173404306165,0.4012237762237763,0.03946362325042337,0.26136363636363635,0.5454545454545454,0.40312274383722857,0.6320166320166322,0.06623570139400214,0.4864864864864865,0.7837837837837838,0.6354115380340063,0.5576923076923078,0.06784262755771132,0.4,0.7692307692307693,0.5617248616621633,0.06015630082594874,0.03187319962692513,0.021197276750062943,0.12854165333119225,0.06793485724299743,0.8252918194188905,0.042450482736579094,0.7332273885768957,0.8720203144854327,0.8263618916684847,-0.1830948110956788,0.513090141267761,1.0,-0.002473366561407312,0.387730988793017,-0.5707575275170876
34,0.3158748627521671,0.055479669820540936,0.12072892938496582,0.40318906605922555,0.3206755039632312,0.8463514902363822,0.04941367424844925,0.7781954887218044,0.9398496240601504,0.8477823954060568,0.8195845468397395,0.07695306977113392,0.5924932975871313,1.0,0.823163411278855,0.07836477599036692,0.05535768980906098,0.017167381974249718,0.2660944206008584,0.0958303989492105,0.2644735562901029,0.09863930232313846,0.0,0.5878378378378377,0.28214531010055777,0.41103290652676366,0.09618210183533163,0.11191335740072206,0.6227436823104693,0.4220574522835859,0.15936137373805526,0.053475028742143056,0.0,0.31301289566236823,0.1680328944880361,0.5437269678022667,0.09813293156674624,0.17949109366204574,0.7775753007737589,0.552448917709095,0.6071045333748457,0.10887491426376877,0.0,0.7921174652241113,0.6167206682487246,0.5341743643828395,0.1425198430276464,0.0,0.8052356020942409,0.5527278067935081,0.5212086330935254,0.07963926593429156,0.29600000000000004,0.792,0.527214589158516,0.35158366813043057,0.07996017546611746,0.15584415584415584,0.8051948051948052,0.360497861326435,0.2922661870503597,0.0661427367470389,0.055555555555555525,0.5833333333333333,0.29960459257612865,0.37955090473076064,0.06061494612639777,0.2121212121212121,0.6212121212121212,0.38432620010345503,0.41352517985611503,0.07137004087830862,0.08000000000000002,0.6666666666666667,0.41959517622402637,0.40017985611510776,0.056367823028266484,0.11363636363636365,0.5909090909090909,0.4041019552210172,0.627065914835699,0.07032597870996285,0.43243243243243246,0.8378378378378379,0.6309689564022378,0.5524073049252907,0.0723772071820845,0.36923076923076925,0.7846153846153846,0.5570947889640074,0.5763790843436208,0.051993679440945476,0.495199643122064,0.7646957449873563,0.5787026378563973,0.1807253606630207,0.0696449436029983,0.0,0.36826121460067684,0.19359023493322022,0.14012015634065245,-0.7805013769258584,1.0,-0.15822635492685602,0.47830277038265057,-0.11385456557044454
35,0.19559828487203543,0.1263749981881454,0.056947608200455635,0.44419134396355364,0.23236709503829886,0.48518354710305156,0.08463011468225946,0.3270676691729323,0.593984962406015,0.4924022780125397,0.4622299321873519,0.1523120648384154,0.260053619302949,0.6648793565683646,0.4863273733339134,0.5674072203988894,0.07524693525958878,0.459227467811159,0.6609442060085837,0.5723021831442432,0.5501043322734498,0.10225062016744624,0.3547297297297294,0.751689189189189,0.5593891426605093,0.4048364833297939,0.14033992893568623,0.03971119133574008,0.7274368231046932,0.4281334338587898,0.48663885249293143,0.14440160431106522,0.2872215709261431,0.724501758499414,0.50730912826653,0.6072922027521283,0.06961152558991107,0.4549817293656321,0.7561084979916612,0.611210538829227,0.6700782798436221,0.10013765896755776,0.5266584234930448,0.8972179289026275,0.6774105017492483,0.46277314444102247,0.1368334731492139,0.17486910994764399,0.7801047120418849,0.4822935190125053,0.5310588235294119,0.06647497169071852,0.384,0.776,0.5351424219445753,0.3519862490450726,0.06029724696341671,0.18181818181818182,0.5064935064935066,0.35703866804437623,0.2943218954248365,0.07385486227505886,0.1111111111111111,0.45833333333333326,0.30331453142667336,0.3819073083778964,0.05079840487307944,0.2424242424242424,0.5151515151515151,0.38522165298063615,0.4133333333333333,0.037641937023558864,0.32,0.49333333333333335,0.41501870183862444,0.3978943850267382,0.043437818920474505,0.3068181818181818,0.6022727272727273,0.400223734979369,0.6299682034976151,0.0990846271104445,0.40540540540540543,0.8378378378378379,0.6375996564264557,0.5746606334841629,0.17871383855783812,0.0692307692307692,1.0,0.6014181523230014,0.7576407738811891,0.09748355103354302,0.5824190770389178,0.8710531963917074,0.7637950211549758,0.5499469588416174,0.16012013329673677,0.3469988122986063,0.7665469841941094,0.5724535601186149,-0.7924142084874419,-0.7534512064982295,1.0,0.39426888748657346,0.8312181379320999,0.5273464834406496
36,0.5864338142242471,0.025659446087647364,0.5375854214123007,0.621867881548975,0.5869824480924457,0.5466165413533834,0.038675489425976185,0.4849624060150375,0.5977443609022556,0.5479527323668628,0.035567470956210746,0.024897702649417337,0.0,0.07238605898123329,0.04325696625658952,0.7866475917978062,0.028828678534719054,0.7381974248927037,0.8240343347639483,0.7871639331553149,0.7394894894894894,0.05115063164884975,0.6300675675675675,0.8361486486486487,0.7412172085479023,0.5263939029281992,0.09470968163023884,0.29422382671480146,0.6750902527075813,0.5346598294192352,0.9268724762276933,0.0294033298550435,0.8827667057444315,1.0000000000000002,0.9273283833916457,0.5238340875866757,0.10840881806537864,0.27489910602692413,0.742999437092727,0.5346900570529942,0.574901047569981,0.057647615955556473,0.45246986089644514,0.6796723338485317,0.5777201850162333,0.556952088423502,0.07901271855891409,0.46859057591623043,0.7680670157068064,0.5624054631176812,0.5240888888888888,0.028213328750644074,0.456,0.5920000000000001,0.5248308933996423,0.3584415584415583,0.062246588331693185,0.2857142857142857,0.6103896103896105,0.3636878957507918,0.2966049382716049,0.06562445256275566,0.19444444444444442,0.5555555555555556,0.30362041540869616,0.3821548821548822,0.056404729762851095,0.28787878787878785,0.5606060606060606,0.38620350547088006,0.4124444444444444,0.07046168096808708,0.22666666666666668,0.68,0.4182881043869225,0.39696969696969714,0.03377957006637698,0.23863636363636365,0.4545454545454546,0.39837249251366735,0.6258258258258257,0.0691355067474869,0.40540540540540543,0.7567567567567568,0.6295486213166834,0.5649572649572652,0.07104377340432749,0.4307692307692308,0.7230769230769231,0.569308149048744,0.38184521776646113,0.02639177170979261,0.3394220991839332,0.41597088391560644,0.38273596329339166,0.9683252033996914,0.021839061620131224,0.9373781187097862,0.9999999999999999,0.9685659736860138,-0.09666270686692781,-0.47369933086638594,1.0,0.3490455088371603,0.0064703741577849,-0.019159955481743013
37,0.8945105714010716,0.055447327149694324,0.8063781321184511,1.0,0.8962032509102603,0.811182886794451,0.040275961397758464,0.7293233082706767,0.8796992481203008,0.8121680747655643,0.11014613148057234,0.037582029371287164,0.053619302949061476,0.20375335120643423,0.1162956840482709,0.51786254004715,0.04969729227280849,0.39055793991416365,0.592274678111588,0.52020827082434,0.7283498287019411,0.08071997181803377,0.554054054054054,0.9324324324324322,0.7327464883592696,0.6957593939085785,0.12249496565422983,0.3140794223826715,0.9296028880866426,0.7063107053985102,0.8068952991100179,0.05778141601637139,0.6729191090269637,0.9378663540445488,0.8089324396580948,0.5033577573365735,0.10184929929563204,0.30173737990516447,0.7066203619779988,0.5134162142998472,0.5421719311230598,0.10125861894586229,0.3002349304482226,0.8326862442040186,0.5514157215940211,0.5598183024850676,0.140523371871845,0.38376544502617804,0.9382198952879582,0.5769447336112163,0.5183098591549296,0.06319371387121525,0.22400000000000003,0.64,0.5220941580396729,0.34424730199378095,0.0732973035555252,0.038961038961038974,0.49350649350649356,0.35185654846677455,0.2887323943661972,0.05316874264897507,0.18055555555555552,0.41666666666666663,0.29351915617952445,0.3783610755441739,0.06736995387171787,0.16666666666666663,0.5757575757575757,0.38422895344965946,0.4108920187793427,0.0758380851394096,0.17333333333333334,0.5733333333333334,0.41773515581871457,0.3961267605633803,0.05646957258411926,0.15909090909090912,0.5227272727272727,0.4000753806576426,0.6315188427864484,0.08884800033256486,0.43243243243243246,0.8918918918918919,0.6376510278524847,0.5621885157096426,0.07176964275435312,0.3538461538461538,0.9538461538461539,0.5666870928373369,0.06495314900604465,0.03295253073788817,0.0,0.10883763818596628,0.07272885888203638,0.8631986671085053,0.038059359935017585,0.7696622390106637,0.9236576378801938,0.8640254927712229,-0.20415647396318085,-0.3508555268139605,1.0,0.19329448563884868,0.11246130311456735,-0.16749863313247704
38,0.362867541172466,0.027792592824523413,0.3029612756264236,0.4100227790432802,0.36391812563710113,0.8669086509376893,0.03564846904812552,0.8082706766917293,0.9586466165413533,0.8676328805238601,0.7319034852546917,0.04128508186015483,0.6863270777479893,0.8203753351206433,0.733053598477684,0.10611217996152185,0.03972385321248008,0.03433476394849855,0.18454935622317636,0.1132238556895059,0.3289453246349796,0.0672809069606895,0.16891891891891864,0.5405405405405403,0.33567799417183,0.3833976513548279,0.06637700404914333,0.22563176895306858,0.5144404332129964,0.38903601777415886,0.21801350204147646,0.03423348893668898,0.1207502930832357,0.27432590855803063,0.22065436401103045,0.49982031491004625,0.06441586440843367,0.327974583305506,0.6153816797534657,0.503906793455054,0.5659813462665886,0.07219381350063436,0.4273570324574961,0.759659969088099,0.5705146129557784,0.5472402479388577,0.11701148983224434,0.3691057591623037,0.8989486910994765,0.5594695719913226,0.5220229885057471,0.11710758093264168,0.11199999999999999,1.0,0.5348500273199376,0.34885803851321084,0.0949230847471877,0.0,0.5714285714285714,0.36139833332330534,0.28879310344827597,0.0793384037284391,0.12499999999999997,0.5694444444444444,0.29937215532628053,0.3719958202716823,0.06899942869531328,0.13636363636363635,0.5606060606060606,0.3782685398340101,0.4147126436781611,0.06481249385915003,0.29333333333333333,0.5733333333333334,0.4196891143999916,0.4030825496342738,0.043868985821492665,0.20454545454545456,0.5113636363636364,0.4054354562515505,0.6265921093507298,0.06678093135598864,0.4864864864864865,0.7837837837837838,0.6301000741601859,0.5562334217506631,0.07294084255591467,0.3153846153846154,0.7692307692307693,0.5609410239473842,0.5212196457752155,0.025710837830863052,0.4815551140940528,0.5736811890587896,0.5218461153257111,0.2545404871768324,0.03557150844859567,0.1740316513792467,0.29588015254847355,0.2569856956663132,-0.2811680296457455,-0.1699818690780762,1.0,0.05820211856425339,0.28372876518201895,-0.42724177806709135
