Timestamp,Orientation X,Orientation Y,Orientation Z,Orientation W,Accelerometer X,Accelerometer Y,Accelerometer Z,Gyroscope X,Gyroscope Y,Gyroscope Z,EMG1,EMG2,EMG3,EMG4,EMG5,EMG6,EMG7,EMG8
1503944248957,+0.853,+0.491,-0.045,-0.172,+0.884,-0.086,-0.494,-10.188,-2.812,-1.688,18, -18, -3, -1, -5, -1, 1, 1
1503944248973,+0.853,+0.490,-0.046,-0.172,+0.885,-0.083,-0.496,-8.875,-5.125,-2.062,-12, -5, -3, 1, 1, -1, 2, -8
1503944248995,+0.854,+0.488,-0.047,-0.172,+0.902,-0.108,-0.470,-9.875,-8.125,-4.812,-3, -8, 0, -3, -2, -3, -5, 4
1503944249018,+0.855,+0.487,-0.049,-0.173,+0.909,-0.094,-0.450,-10.938,-10.812,-4.250,46, 5, 0, -1, -3, -2, -2, -5
1503944249033,+0.856,+0.485,-0.050,-0.172,+0.886,-0.071,-0.427,-11.312,-14.062,-6.875,3, 25, -2, 2, 1, -1, -3, -26
1503944249055,+0.857,+0.483,-0.052,-0.172,+0.857,-0.065,-0.435,-10.875,-13.000,-9.938,3, -6, 2, -2, 2, -1, -5, -10
1503944249078,+0.857,+0.482,-0.054,-0.171,+0.851,-0.071,-0.443,-7.625,-4.500,-11.062,-13, 48, 47, 18, 9, 4, 2, 9
1503944249093,+0.857,+0.483,-0.056,-0.169,+0.862,-0.062,-0.452,-4.812,+5.000,-11.688,-9, -23, -16, -4, -4, -2, -1, 13
1503944249116,+0.857,+0.484,-0.058,-0.167,+0.852,-0.028,-0.447,-2.438,+7.125,-14.500,-11, 6, -1, -3, 0, 0, -4, -5
1503944249137,+0.857,+0.485,-0.059,-0.164,+0.857,-0.020,-0.462,+0.375,+3.562,-18.938,-6, 3, -10, -4, 0, 0, 0, -2
1503944249159,+0.858,+0.485,-0.061,-0.160,+0.866,-0.045,-0.485,+3.250,+3.312,-22.000,7, -17, -7, -1, -4, -2, -2, -16
1503944249183,+0.858,+0.485,-0.061,-0.156,+0.839,-0.055,-0.522,+5.312,+8.062,-20.625,27, -9, -7, -5, -1, 1, 8, 14
1503944249198,+0.858,+0.486,-0.062,-0.154,+0.873,-0.051,-0.486,+2.812,+6.750,-16.688,-15, 10, -7, -4, -3, -6, -6, 11
1503944249220,+0.858,+0.486,-0.063,-0.152,+0.957,-0.050,-0.463,-0.688,-0.750,-13.625,9, -9, 3, -2, 0, 1, -3, -4
1503944249235,+0.859,+0.485,-0.064,-0.150,+0.957,-0.054,-0.486,-2.625,-9.375,-10.938,3, 7, 3, -1, -3, 0, 1, -1
1503944249258,+0.860,+0.483,-0.064,-0.150,+0.887,-0.044,-0.493,-4.500,-11.812,-6.125,12, -1, -3, -1, -3, -4, 0, 6
1503944249285,+0.862,+0.481,-0.065,-0.150,+0.866,-0.034,-0.477,-5.625,-17.188,-3.438,9, 2, 3, 0, -3, 0, -1, 8
1503944249295,+0.863,+0.479,-0.065,-0.150,+0.852,-0.031,-0.482,-6.000,-13.125,-1.562,-7, 2, -1, -2, 1, -3, -1, -11
1503944249318,+0.863,+0.478,-0.066,-0.150,+0.833,-0.033,-0.482,-5.812,-2.875,-0.500,-5, -4, -9, -3, -2, 1, 0, 3
1503944249340,+0.862,+0.478,-0.066,-0.151,+0.830,-0.034,-0.500,-3.562,+6.062,+2.625,-3, 12, 25, 4, 2, -2, -2, -4
1503944249355,+0.862,+0.479,-0.066,-0.151,+0.849,-0.040,-0.513,-2.438,+4.625,+2.812,-4, -7, -6, 0, -1, 1, -2, -3
1503944249382,+0.862,+0.479,-0.066,-0.152,+0.868,-0.040,-0.499,-3.875,+3.000,+0.938,-9, -8, -5, -3, -5, 1, 1, -3
1503944249400,+0.862,+0.479,-0.067,-0.152,+0.836,-0.028,-0.500,-3.938,+0.875,-2.625,-21, -10, -3, -1, -2, -2, -1, 4
1503944249418,+0.863,+0.478,-0.068,-0.151,+0.842,-0.019,-0.496,-5.062,-3.438,-8.812,3, 16, -18, 0, 3, 2, 3, -1
1503944249438,+0.863,+0.477,-0.069,-0.150,+0.856,-0.015,-0.493,-5.312,-2.250,-7.562,-22, -21, 10, -1, -3, -2, -3, -9
1503944249460,+0.863,+0.477,-0.070,-0.149,+0.861,+0.000,-0.499,-3.625,+2.000,-5.438,9, -22, -9, -3, 0, -1, -1, 19
1503944249475,+0.863,+0.477,-0.071,-0.149,+0.871,+0.013,-0.481,-4.938,+0.562,-3.000,3, 23, 16, 3, 0, -4, -3, -3
1503944249498,+0.863,+0.477,-0.072,-0.149,+0.896,+0.010,-0.500,-5.750,+0.125,+0.938,1, 16, 9, 2, 2, 0, 0, -6
1503944249520,+0.863,+0.476,-0.072,-0.150,+0.887,-0.003,-0.507,-3.875,-4.938,+2.438,11, 1, -6, 0, -5, 0, -3, -1
1503944249535,+0.864,+0.475,-0.072,-0.150,+0.869,-0.009,-0.483,-4.938,-10.938,+0.875,-4, -5, -6, -2, 1, -2, -1, 6
1503944249558,+0.865,+0.473,-0.073,-0.151,+0.851,-0.021,-0.472,-5.562,-12.875,+0.750,13, 3, -1, -4, -1, -1, 3, 13
1503944249582,+0.866,+0.471,-0.073,-0.151,+0.829,-0.037,-0.469,-5.750,-9.562,-0.375,12, 10, 25, 6, 3, 1, 2, -5
1503944249595,+0.866,+0.471,-0.073,-0.151,+0.803,-0.037,-0.477,-4.625,+1.438,-1.562,11, 8, -8, -1, -2, -2, -2, -13
1503944249618,+0.865,+0.473,-0.074,-0.151,+0.845,-0.034,-0.485,-2.562,+8.500,-2.938,-14, -6, -3, -1, 1, -1, -3, -4
1503944249640,+0.865,+0.474,-0.074,-0.150,+0.892,-0.020,-0.483,-2.000,+6.250,-4.375,-1, 5, 7, 2, -2, 1, 2, 0
1503944249656,+0.865,+0.473,-0.075,-0.149,+0.884,-0.006,-0.479,-2.812,-4.062,-9.000,-5, 31, 11, 0, -1, -1, -2, -6
1503944249678,+0.866,+0.472,-0.076,-0.148,+0.853,+0.006,-0.484,-2.438,-8.125,-9.688,-10, -36, -27, -8, -1, -1, 3, 9
1503944249700,+0.867,+0.471,-0.077,-0.146,+0.846,+0.030,-0.485,-0.500,-6.750,-9.312,2, 7, 19, 2, -1, 0, -6, 3
1503944249716,+0.867,+0.470,-0.077,-0.145,+0.868,+0.021,-0.486,+1.438,-6.750,-8.562,-3, -11, -10, -2, -2, -1, 3, 2
1503944249744,+0.868,+0.470,-0.077,-0.143,+0.891,+0.015,-0.495,+0.750,-2.750,-6.625,9, -15, -5, -3, 1, -3, -1, -4
1503944249760,+0.867,+0.470,-0.078,-0.142,+0.883,+0.028,-0.485,+1.625,+2.688,-3.750,-1, 15, 12, 3, -1, 1, 2, 2
1503944249775,+0.867,+0.471,-0.078,-0.141,+0.850,+0.032,-0.493,+2.625,+5.438,-5.250,-1, -12, -16, -4, -1, 1, -1, -3
1503944249798,+0.867,+0.472,-0.078,-0.140,+0.863,+0.015,-0.495,+2.375,+7.750,-5.750,10, 2, -7, -3, -1, -2, -5, 3
1503944249820,+0.866,+0.474,-0.078,-0.139,+0.910,+0.014,-0.500,+3.625,+9.812,-3.750,-11, 9, 5, 0, -2, -2, -2, -7
1503944249835,+0.865,+0.475,-0.078,-0.137,+0.922,+0.025,-0.482,+4.938,+7.125,-4.562,-2, -8, -3, -2, 0, -2, 1, -1
1503944249858,+0.865,+0.476,-0.077,-0.136,+0.906,+0.003,-0.484,+6.688,+3.375,-5.438,-6, -2, -6, -1, 0, 0, -2, -1
1503944249880,+0.865,+0.477,-0.076,-0.134,+0.872,-0.006,-0.508,+7.750,+2.062,-6.750,1, -21, -10, -5, -2, 3, 0, 4
1503944249895,+0.866,+0.477,-0.075,-0.132,+0.862,+0.003,-0.487,+8.000,+2.875,-7.812,-38, -12, -1, 0, 0, 2, -2, 1
1503944249919,+0.865,+0.478,-0.074,-0.130,+0.882,+0.002,-0.490,+11.125,+6.875,-8.250,11, 7, -2, 1, 0, 0, 1, 4
1503944249940,+0.865,+0.479,-0.073,-0.127,+0.883,-0.002,-0.484,+12.812,+5.312,-9.688,5, 6, 4, 0, -2, -2, -1, -5
1503944249955,+0.865,+0.480,-0.072,-0.124,+0.882,-0.007,-0.476,+13.625,+4.562,-9.875,-3, 5, -2, -5, -2, -2, -2, -3
1503944260522,+0.883,+0.465,-0.051,-0.032,+0.808,+0.047,-0.508,-0.750,-4.875,+1.562,1, 6, -1, 1, -2, 0, -3, -21
1503944260545,+0.883,+0.465,-0.051,-0.033,+0.842,+0.046,-0.500,-2.125,-3.500,+1.438,-16, -9, -5, 0, -2, 0, -4, -9
1503944260570,+0.883,+0.465,-0.051,-0.033,+0.864,+0.064,-0.497,-2.438,-1.875,+1.438,-3, 1, -2, 1, -1, 0, 5, -7
1503944260582,+0.883,+0.465,-0.051,-0.033,+0.853,+0.077,-0.511,-0.812,-1.812,+0.625,14, -4, 8, -1, 0, -3, -7, -17
1503944260604,+0.884,+0.464,-0.051,-0.033,+0.810,+0.077,-0.532,+0.125,+0.188,+0.062,13, -9, -8, -2, -2, -2, 2, 6
1503944260627,+0.883,+0.464,-0.051,-0.033,+0.793,+0.073,-0.528,-1.312,+4.000,-0.375,-6, -2, -12, -5, 1, 0, -3, -14
1503944260647,+0.883,+0.466,-0.051,-0.033,+0.802,+0.080,-0.535,+0.000,+15.750,+2.312,-18, 0, -4, -4, -1, -3, -3, -14
1503944260664,+0.881,+0.470,-0.050,-0.033,+0.812,+0.087,-0.533,+1.875,+26.312,+6.188,9, -9, 3, 1, -3, -2, 3, 11
1503944260686,+0.878,+0.474,-0.050,-0.033,+0.834,+0.089,-0.512,+1.500,+29.625,+8.000,-9, -9, -8, -4, 0, 0, -2, -10
1503944260709,+0.876,+0.479,-0.049,-0.034,+0.841,+0.104,-0.521,+3.000,+34.125,+8.188,-14, -9, 3, 1, -1, 1, -3, -6
1503944260731,+0.873,+0.483,-0.048,-0.034,+0.844,+0.110,-0.517,+4.625,+33.562,+10.125,4, 26, -1, 5, -2, -2, -2, -8
1503944260746,+0.871,+0.488,-0.047,-0.035,+0.866,+0.093,-0.485,+5.125,+31.375,+14.688,-5, -21, 2, -1, 2, 1, -2, 2
1503944260770,+0.868,+0.492,-0.045,-0.036,+0.854,+0.061,-0.460,+4.688,+29.000,+11.500,-2, 5, 6, 1, -4, -2, -3, -10
1503944260784,+0.866,+0.496,-0.044,-0.036,+0.834,+0.047,-0.460,+2.312,+28.125,+5.812,-17, -6, -7, -1, -2, -1, -1, -2
1503944260807,+0.864,+0.500,-0.043,-0.037,+0.821,+0.031,-0.452,+2.125,+30.750,+6.062,25, 12, 4, -1, -1, -1, 1, 3
1503944260830,+0.861,+0.505,-0.042,-0.037,+0.885,+0.017,-0.431,+2.375,+29.938,+4.062,24, 6, -2, -2, 3, 2, 2, 7
1503944260847,+0.859,+0.509,-0.041,-0.036,+0.956,+0.024,-0.436,+6.125,+28.000,+0.125,-9, -2, -3, 0, 2, 0, 1, 5
1503944260868,+0.859,+0.510,-0.040,-0.034,+1.013,-0.001,-0.481,+12.125,+2.625,-8.500,-13, -23, -8, -2, -3, 0, 2, -16
1503944260889,+0.862,+0.505,-0.039,-0.031,+0.910,-0.037,-0.456,+9.250,-32.750,-17.188,-6, -7, 0, 1, -2, -4, -1, 10
1503944260904,+0.865,+0.499,-0.039,-0.028,+0.828,-0.002,-0.408,+4.125,-43.562,-22.375,-9, -5, 20, -2, 1, 0, -2, -4
1503944260927,+0.868,+0.494,-0.039,-0.024,+0.827,+0.043,-0.422,+8.500,-28.188,-21.062,11, -4, -3, 0, -2, 1, 3, -15
1503944260949,+0.869,+0.493,-0.039,-0.020,+0.822,+0.057,-0.444,+12.625,-10.688,-19.688,3, -1, -3, -2, -2, -2, -1, 7
1503944260964,+0.869,+0.492,-0.038,-0.017,+0.867,+0.037,-0.441,+11.875,-3.250,-16.688,-22, 4, 0, -1, -1, 0, -2, 11
1503944260986,+0.870,+0.492,-0.038,-0.014,+0.944,+0.061,-0.450,+6.812,-3.438,-14.188,4, 4, -5, -3, -2, 1, 1, -5
1503944261009,+0.870,+0.491,-0.039,-0.011,+0.939,+0.102,-0.437,+4.750,-9.688,-15.312,-3, -7, 0, 2, -2, 2, 2, -2
1503944261024,+0.871,+0.489,-0.040,-0.008,+0.951,+0.108,-0.441,+5.438,-19.562,-16.750,0, -2, 5, -2, 1, -2, 1, -3
1503944261047,+0.873,+0.486,-0.040,-0.005,+0.951,+0.089,-0.449,+5.375,-22.562,-12.938,-14, 1, 6, 1, -2, 0, -4, 1
1503944261071,+0.875,+0.483,-0.040,-0.004,+0.900,+0.074,-0.466,+0.812,-22.875,-7.562,-10, -4, -4, 0, -1, 0, 1, -2
1503944261084,+0.876,+0.480,-0.042,-0.004,+0.885,+0.086,-0.453,-4.875,-20.750,-5.562,-3, 2, 6, 2, 3, 0, -1, 6
1503944261110,+0.877,+0.478,-0.043,-0.004,+0.889,+0.090,-0.459,-6.688,-17.875,-1.625,8, -2, -3, -1, 1, 1, -2, -5
1503944261131,+0.878,+0.477,-0.044,-0.004,+0.888,+0.102,-0.469,-8.062,-12.625,+0.625,-1, 6, 3, 2, -5, 2, 0, -3
1503944261144,+0.878,+0.476,-0.045,-0.005,+0.895,+0.091,-0.470,-10.000,-8.875,+2.188,11, 6, 7, 3, 2, -1, -2, 3
1503944261166,+0.879,+0.474,-0.047,-0.007,+0.890,+0.088,-0.479,-11.000,-11.625,+2.562,6, 2, -1, -2, -2, -3, 0, -2
1503944261182,+0.880,+0.472,-0.048,-0.008,+0.893,+0.092,-0.484,-12.375,-16.562,+1.500,-2, -9, 3, -1, -4, 1, 0, -5
1503944261207,+0.881,+0.470,-0.049,-0.009,+0.855,+0.084,-0.498,-10.125,-16.875,+1.750,-2, 20, -1, -4, 1, 0, 0, 3
1503944261227,+0.882,+0.468,-0.050,-0.010,+0.812,+0.066,-0.488,-9.562,-12.562,+1.750,2, -6, -2, -4, 0, 0, -3, -17
1503944261249,+0.883,+0.467,-0.051,-0.011,+0.801,+0.048,-0.487,-8.125,-4.312,+3.125,0, -4, 2, 4, -2, 3, -3, -11
1503944261268,+0.882,+0.467,-0.051,-0.012,+0.848,+0.055,-0.491,-6.562,+0.188,+3.188,-7, -7, 5, -1, 0, 0, 3, 0
1503944261286,+0.883,+0.467,-0.051,-0.013,+0.866,+0.059,-0.491,-5.188,-4.000,+2.875,15, 16, -2, 2, -1, -4, 0, -7
1503944261312,+0.883,+0.466,-0.051,-0.014,+0.850,+0.058,-0.495,-5.812,-10.125,+1.938,4, -4, -3, -1, -4, 2, -2, -4
1503944261326,+0.884,+0.464,-0.052,-0.015,+0.793,+0.071,-0.517,-4.688,-9.312,+2.688,-3, -6, -4, -3, -3, -1, -6, -20
1503944261346,+0.884,+0.463,-0.051,-0.016,+0.794,+0.074,-0.514,-1.750,-3.062,+6.375,2, 10, 6, -4, -2, 1, 2, 19
1503944261366,+0.884,+0.464,-0.050,-0.017,+0.833,+0.073,-0.509,+0.125,+3.562,+9.750,-20, 1, -7, -3, -2, -5, -3, -8
1503944272896,+0.802,+0.594,+0.017,+0.057,+0.933,+0.016,-0.208,+16.688,+9.875,+10.562,-4, 2, 1, -1, 0, -2, -1, -5
1503944272912,+0.800,+0.597,+0.020,+0.057,+0.894,+0.017,-0.213,+13.812,+16.875,+8.000,-7, 3, -3, 0, -2, -2, -2, -4
1503944272933,+0.797,+0.600,+0.022,+0.057,+0.912,+0.033,-0.184,+8.812,+27.688,+6.688,5, -3, 1, 0, -2, -1, 0, 0
1503944272956,+0.793,+0.606,+0.024,+0.057,+0.926,+0.034,-0.187,+7.750,+38.750,+6.625,0, -7, 0, -1, 0, 1, 1, -3
1503944272971,+0.789,+0.612,+0.027,+0.058,+0.950,+0.042,-0.188,+9.438,+44.125,+4.062,-6, -3, -10, -4, 0, -4, -4, -3
1503944272993,+0.785,+0.617,+0.028,+0.059,+0.972,+0.040,-0.186,+11.562,+37.812,-2.125,0, -21, -16, -5, -1, 1, 2, 1
1503944273016,+0.782,+0.620,+0.030,+0.062,+1.012,+0.025,-0.181,+11.438,+24.562,-9.250,-6, 0, -7, -7, -4, -4, 1, 8
1503944273031,+0.781,+0.620,+0.030,+0.065,+1.046,+0.017,-0.181,+11.062,+5.062,-14.188,5, -12, 3, 1, -2, -3, -2, -5
1503944273053,+0.783,+0.618,+0.029,+0.068,+1.042,+0.024,-0.186,+7.938,-18.938,-17.062,16, -4, -10, 1, 1, 3, 1, 3
1503944273078,+0.786,+0.613,+0.028,+0.071,+0.944,+0.013,-0.173,+2.625,-36.625,-20.125,-4, 7, 8, 3, 1, 2, -1, -2
1503944273091,+0.789,+0.610,+0.025,+0.074,+0.861,+0.032,-0.170,-1.375,-27.438,-20.688,-8, -2, 4, 0, 0, -1, -3, -12
1503944273114,+0.789,+0.609,+0.023,+0.077,+0.880,+0.075,-0.194,+1.188,-4.250,-18.938,-10, 0, -3, 0, -1, 0, 2, 0
1503944273136,+0.788,+0.609,+0.022,+0.080,+0.953,+0.095,-0.192,+4.188,+2.250,-15.625,-12, 13, 20, 5, 3, 0, 0, -2
1503944273152,+0.788,+0.610,+0.021,+0.082,+1.022,+0.084,-0.141,+0.000,+0.062,-13.438,6, -3, -8, -4, -3, -3, -3, -4
1503944273173,+0.788,+0.610,+0.019,+0.083,+1.044,+0.089,-0.170,-3.062,-3.125,-10.062,0, 1, -7, -2, -3, 0, -2, 1
1503944273195,+0.789,+0.609,+0.018,+0.084,+1.063,+0.126,-0.194,-2.688,-14.125,-8.938,-4, -1, -2, 2, 0, -1, 0, 3
1503944273212,+0.791,+0.605,+0.016,+0.085,+1.041,+0.115,-0.218,-2.938,-28.688,-7.250,-2, -4, -5, -4, -1, -2, 0, -3
1503944273233,+0.795,+0.601,+0.014,+0.086,+0.998,+0.094,-0.210,-7.000,-35.500,-4.750,6, 3, -1, 0, 0, 0, 0, 1
1503944273256,+0.797,+0.597,+0.012,+0.086,+0.944,+0.104,-0.190,-10.188,-29.312,-5.500,1, 1, -1, 2, -1, 0, 0, -1
1503944273271,+0.799,+0.595,+0.009,+0.086,+0.946,+0.125,-0.209,-10.125,-19.750,-5.250,10, 4, 3, -2, -3, 0, 0, 6
1503944273293,+0.800,+0.594,+0.008,+0.086,+0.946,+0.123,-0.246,-6.938,-9.562,-2.750,-9, 2, -4, -4, -2, -4, -4, -4
1503944273316,+0.800,+0.593,+0.007,+0.086,+0.937,+0.105,-0.265,-7.000,-2.000,-0.625,-5, -4, -3, -1, -1, 0, 0, -3
1503944273331,+0.800,+0.593,+0.006,+0.085,+0.952,+0.114,-0.257,-8.500,+0.500,+0.125,-7, 2, 3, -2, 0, 0, 0, -1
1503944273354,+0.801,+0.593,+0.005,+0.084,+0.972,+0.120,-0.239,-8.125,-1.750,+0.938,-2, 6, 6, 2, -2, -3, -5, 1
1503944273375,+0.801,+0.593,+0.004,+0.083,+0.992,+0.100,-0.227,-9.125,-1.062,+1.500,-9, -10, -6, -5, -1, 0, 1, -4
1503944273391,+0.801,+0.593,+0.003,+0.082,+0.999,+0.095,-0.260,-6.312,+0.000,+4.562,0, 1, 0, 2, -1, -1, 0, -3
1503944273415,+0.802,+0.592,+0.004,+0.081,+0.965,+0.093,-0.280,-3.500,-5.750,+5.562,1, -6, -5, -1, 1, 2, 1, 2
1503944273436,+0.803,+0.591,+0.004,+0.080,+0.927,+0.079,-0.277,-4.562,-10.312,+4.688,-5, -11, 3, -2, -3, -4, 1, -1
1503944273453,+0.804,+0.589,+0.003,+0.079,+0.933,+0.068,-0.243,-6.438,-10.000,+4.438,16, 6, -3, 2, 0, 0, 0, 0
1503944273474,+0.804,+0.589,+0.004,+0.078,+0.946,+0.074,-0.240,-4.250,-4.750,+5.062,-6, 3, -6, -2, 1, -3, -1, -3
1503944273496,+0.805,+0.588,+0.004,+0.077,+0.948,+0.079,-0.263,-1.438,-3.875,+3.125,-6, 0, 0, 3, -3, 0, -3, -3
1503944273518,+0.806,+0.587,+0.004,+0.078,+0.959,+0.080,-0.261,-1.562,-7.438,-1.000,0, -3, 6, 1, -1, 0, -4, 4
1503944273533,+0.807,+0.586,+0.003,+0.078,+0.929,+0.081,-0.255,-3.125,-11.625,-3.875,7, 4, -3, -3, -1, 0, 1, -1
1503944273557,+0.808,+0.584,+0.002,+0.078,+0.899,+0.100,-0.255,-4.312,-11.125,-5.188,10, 0, -1, 1, -1, 0, 1, 1
1503944273572,+0.808,+0.584,+0.001,+0.079,+0.878,+0.110,-0.251,-3.438,+0.750,-5.062,-2, 12, 8, 0, -1, 0, -3, -2
1503944273594,+0.807,+0.586,+0.000,+0.080,+0.943,+0.113,-0.244,-2.500,+11.062,-3.125,-8, -10, -5, -4, -2, -3, -3, -1
1503944273617,+0.805,+0.588,+0.001,+0.080,+1.033,+0.122,-0.268,-0.125,+13.250,+2.125,12, 9, 12, -2, -1, 1, 2, 3
1503944273632,+0.805,+0.587,+0.000,+0.079,+1.040,+0.111,-0.265,-1.938,-3.312,+0.562,-4, -5, -6, 0, 0, -2, 1, -2
1503944273654,+0.807,+0.584,-0.001,+0.079,+0.996,+0.103,-0.270,-5.688,-21.812,-0.938,-7, -8, -6, -2, -2, 2, -4, 0
1503944273676,+0.810,+0.581,-0.002,+0.079,+0.925,+0.105,-0.271,-7.688,-25.125,-0.688,3, -4, -10, -7, -3, -1, -1, -2
1503944273692,+0.811,+0.580,-0.003,+0.078,+0.893,+0.109,-0.244,-8.188,-9.625,+2.562,-7, -15, -7, 0, -3, -1, 0, -2
1503944273718,+0.810,+0.581,-0.003,+0.076,+0.937,+0.102,-0.235,-5.125,+8.438,+7.812,1, -2, 3, 1, 0, -2, -2, -1
1503944273735,+0.808,+0.584,-0.002,+0.075,+0.989,+0.104,-0.275,-2.000,+16.062,+9.250,-7, -4, -8, -1, 1, -1, 0, -2
1503944273752,+0.808,+0.585,-0.002,+0.074,+1.002,+0.106,-0.274,-3.438,+6.062,+4.312,3, 10, 3, -1, 3, 0, -3, -2
1503944273774,+0.808,+0.584,-0.002,+0.073,+1.005,+0.088,-0.263,-6.562,-5.750,+5.188,9, 8, 5, -2, 1, 1, 1, -3
1503944273796,+0.809,+0.583,-0.002,+0.072,+0.971,+0.090,-0.261,-5.625,-7.125,+7.000,-9, 0, 1, 0, 0, -2, 4, 0
1503944273812,+0.810,+0.583,-0.002,+0.071,+0.923,+0.098,-0.274,-3.750,-3.000,+6.250,1, 0, 1, 1, -2, -2, -2, 2
1503944273834,+0.810,+0.583,-0.001,+0.070,+0.915,+0.063,-0.275,-2.750,-0.062,+6.562,7, 26, 15, 4, 0, -1, -2, -2
1503944273856,+0.810,+0.583,-0.001,+0.068,+0.946,+0.051,-0.257,-4.125,+3.125,+5.938,-2, -11, -6, -1, -1, -3, -3, 6
1503944285504,+0.793,+0.600,-0.071,-0.082,+1.002,+0.057,-0.210,-4.062,-33.375,-18.500,-3, -9, -1, 0, -3, 1, -3, -1
1503944285525,+0.796,+0.596,-0.073,-0.080,+0.989,+0.032,-0.233,-3.625,-31.125,-18.188,7, -3, 0, -1, 0, 0, 2, -1
1503944285543,+0.799,+0.592,-0.074,-0.078,+0.974,+0.045,-0.257,+0.062,-24.750,-15.375,-9, -10, -1, 1, 2, -1, -2, -5
1503944285570,+0.801,+0.589,-0.074,-0.076,+0.993,+0.056,-0.237,+2.062,-19.312,-10.812,12, -4, -2, 1, -1, -3, -2, 2
1503944285586,+0.802,+0.587,-0.075,-0.076,+1.032,+0.032,-0.234,-1.500,-17.312,-5.812,-6, 0, 1, -4, 1, 1, -2, -1
1503944285605,+0.803,+0.586,-0.075,-0.076,+1.040,+0.035,-0.227,-3.250,-13.625,-1.062,2, 19, -1, -2, 0, -4, 1, 1
1503944285624,+0.805,+0.584,-0.075,-0.076,+1.011,+0.058,-0.260,-1.625,-14.125,+1.500,-6, -10, -4, -1, -1, 0, -1, -5
1503944285646,+0.807,+0.581,-0.075,-0.076,+0.987,+0.060,-0.278,-2.188,-18.562,+1.188,5, -13, -3, -1, -3, -1, 6, -7
1503944285661,+0.809,+0.579,-0.075,-0.077,+0.958,+0.052,-0.298,-1.625,-16.625,+2.250,7, 5, 0, -1, -5, -2, -1, -1
1503944285684,+0.810,+0.577,-0.074,-0.078,+0.936,+0.050,-0.295,-0.500,-8.438,+6.500,-9, -7, 1, 0, -3, 1, -2, 3
1503944285706,+0.809,+0.578,-0.073,-0.079,+0.916,+0.038,-0.267,-2.250,+2.938,+10.250,2, 10, 3, -2, 3, 0, -4, 3
1503944285722,+0.808,+0.580,-0.072,-0.081,+0.957,+0.033,-0.259,-1.688,+13.688,+13.875,-9, -15, -3, 0, 3, 1, 3, 0
1503944285744,+0.806,+0.582,-0.070,-0.082,+1.036,+0.024,-0.285,+2.875,+16.125,+15.938,-9, 2, 2, 3, -3, -1, -4, -6
1503944285766,+0.806,+0.582,-0.068,-0.083,+1.039,+0.005,-0.311,+4.812,-2.312,+9.188,-2, -7, 1, 2, 2, 3, 0, 4
1503944285782,+0.808,+0.579,-0.067,-0.083,+0.956,+0.011,-0.292,+3.375,-21.375,-1.375,-1, 15, -1, -3, -3, -1, -4, 1
1503944285804,+0.811,+0.576,-0.067,-0.083,+0.889,+0.001,-0.259,+1.000,-23.062,-2.062,-7, -14, -3, -5, -10, -4, 6, 3
1503944285826,+0.811,+0.576,-0.066,-0.083,+0.849,+0.004,-0.245,+2.000,+0.000,+2.375,4, 5, -2, -1, -3, 0, -4, -1
1503944285844,+0.808,+0.579,-0.065,-0.083,+0.919,+0.016,-0.234,+4.062,+23.312,+6.125,-1, -2, -5, -5, -9, -5, -3, -4
1503944285864,+0.806,+0.583,-0.064,-0.083,+1.035,+0.003,-0.273,+6.062,+23.750,+6.812,-5, -22, -2, -1, 6, 0, -1, -3
1503944285886,+0.806,+0.582,-0.063,-0.083,+1.047,-0.013,-0.271,+0.625,-4.812,+0.062,11, -1, 2, 8, 17, 2, -2, -4
1503944285906,+0.809,+0.579,-0.064,-0.082,+0.942,+0.022,-0.250,-4.750,-22.688,-7.625,3, -1, 0, -6, -4, -1, -2, 1
1503944285924,+0.810,+0.576,-0.065,-0.081,+0.879,+0.047,-0.241,-4.875,-18.438,-7.438,-4, 0, 0, -2, -11, 0, -2, 0
1503944285946,+0.810,+0.577,-0.066,-0.081,+0.920,+0.041,-0.264,-2.438,+2.812,+1.375,-3, 0, -2, -2, 2, -2, -1, -2
1503944285961,+0.809,+0.578,-0.066,-0.082,+0.983,+0.042,-0.294,-1.500,+13.500,+7.125,14, 27, 0, 7, 12, -1, 0, 2
1503944285984,+0.808,+0.579,-0.065,-0.083,+1.014,+0.041,-0.289,-3.062,+4.000,+6.500,-10, -12, -3, -7, -7, -2, -4, -4
1503944286006,+0.809,+0.577,-0.065,-0.084,+0.999,+0.021,-0.294,-3.562,-11.250,+3.000,10, 3, -1, -8, -22, -3, -1, 2
1503944286021,+0.811,+0.575,-0.065,-0.084,+0.935,+0.015,-0.278,-3.375,-16.438,+1.750,-4, -5, -3, -6, -12, -4, 2, 5
1503944286044,+0.812,+0.574,-0.065,-0.085,+0.914,+0.014,-0.268,-1.875,-6.312,+3.062,-3, 12, 2, 5, -3, -3, -1, 0
1503944286069,+0.811,+0.574,-0.065,-0.085,+0.970,+0.017,-0.261,-2.250,+0.250,+3.562,-7, -7, 2, 0, 1, 2, -1, 2
1503944286082,+0.811,+0.575,-0.065,-0.086,+1.024,+0.003,-0.259,-1.812,-1.812,+3.375,-7, -10, 1, 3, 3, 0, 0, -4
1503944286104,+0.812,+0.573,-0.065,-0.086,+0.998,+0.003,-0.271,-3.312,-11.938,-1.500,-11, -13, 3, 1, 1, -4, -4, -6
1503944286126,+0.814,+0.570,-0.065,-0.086,+0.938,-0.003,-0.286,-4.438,-21.062,-6.250,-1, -44, -14, -2, 5, 2, -1, 2
1503944286142,+0.816,+0.568,-0.067,-0.085,+0.897,-0.003,-0.255,-6.062,-18.938,-10.375,-5, -21, -3, 1, 2, -3, -2, -1
1503944286164,+0.817,+0.567,-0.068,-0.084,+0.913,+0.005,-0.256,-5.062,-7.625,-11.625,10, 11, -5, -4, 4, 2, 4, -2
1503944286186,+0.817,+0.566,-0.069,-0.083,+0.972,+0.004,-0.272,-4.625,-3.375,-11.062,8, 19, 6, 3, 3, 1, 0, 2
1503944286207,+0.818,+0.565,-0.071,-0.082,+1.011,+0.008,-0.274,-6.812,-9.625,-13.375,-9, 5, 5, -6, -4, 1, 0, 0
1503944286224,+0.820,+0.562,-0.074,-0.080,+0.966,+0.015,-0.287,-9.312,-21.688,-17.875,-9, 6, 3, -4, -10, 0, -3, -2
1503944286246,+0.822,+0.558,-0.077,-0.079,+0.917,+0.040,-0.288,-11.188,-25.875,-19.875,14, 17, 2, -2, 6, 1, 27, 5
1503944286262,+0.824,+0.555,-0.079,-0.077,+0.903,+0.054,-0.295,-9.000,-18.500,-16.000,0, 6, -1, 1, 0, -1, -4, 0
1503944286284,+0.825,+0.554,-0.081,-0.076,+0.927,+0.058,-0.306,-6.375,-10.875,-10.312,2, 5, -2, 1, 8, 1, -6, 0
1503944286307,+0.826,+0.552,-0.082,-0.076,+0.943,+0.073,-0.322,-5.375,-8.250,-9.000,-3, -3, 1, 9, 16, 1, -4, -2
1503944286328,+0.827,+0.550,-0.083,-0.075,+0.981,+0.065,-0.335,-5.312,-15.250,-7.688,26, 4, 1, -5, -9, -5, -7, -3
1503944286344,+0.829,+0.547,-0.084,-0.075,+0.956,+0.066,-0.346,-3.125,-20.875,-3.500,-2, 0, -4, -4, -6, -2, -4, -3
1503944286366,+0.832,+0.544,-0.084,-0.075,+0.908,+0.086,-0.362,-0.750,-20.312,-2.000,-8, -3, -1, -1, 2, 0, -3, -10
1503944299714,+0.782,+0.593,-0.009,-0.189,+0.923,-0.197,-0.250,-9.938,-1.000,-26.625,0, -2, 0, -2, -2, -3, -1, 1
1503944299737,+0.783,+0.594,-0.013,-0.186,+0.916,-0.169,-0.256,-9.375,+3.875,-26.375,-3, -1, -1, -4, -1, -1, 2, -4
1503944299752,+0.784,+0.593,-0.017,-0.183,+0.918,-0.162,-0.271,-7.562,+4.000,-26.188,2, 1, -2, 0, 0, -1, -1, -1
1503944299774,+0.784,+0.593,-0.021,-0.180,+0.941,-0.149,-0.273,-8.312,+3.750,-25.312,-1, -2, -1, -1, -3, -1, -1, -2
1503944299798,+0.785,+0.593,-0.024,-0.177,+0.942,-0.142,-0.272,-6.938,-0.438,-25.000,0, -2, 0, 0, 0, 3, 0, -1
1503944299812,+0.787,+0.591,-0.028,-0.174,+0.946,-0.134,-0.272,-5.125,-8.938,-30.500,0, 1, 1, -3, 1, -2, -1, -1
1503944299834,+0.790,+0.588,-0.032,-0.169,+0.936,-0.109,-0.290,-4.562,-16.500,-35.125,-8, -5, -1, 1, 1, 0, 0, -1
1503944299857,+0.793,+0.585,-0.035,-0.165,+0.898,-0.117,-0.300,-2.375,-20.500,-33.875,-1, 0, -1, 2, -5, 0, -5, 0
1503944299873,+0.796,+0.582,-0.038,-0.161,+0.921,-0.128,-0.271,-5.562,-20.062,-28.812,-5, 1, -1, -6, -2, -1, 1, 0
1503944299894,+0.798,+0.580,-0.041,-0.159,+0.932,-0.125,-0.228,-11.750,-16.812,-23.188,3, -3, 0, -1, 1, 0, 1, 2
1503944299917,+0.799,+0.578,-0.045,-0.158,+0.958,-0.098,-0.239,-13.875,-10.062,-22.062,0, -2, -2, -1, -1, -2, -4, -1
1503944299933,+0.801,+0.576,-0.049,-0.155,+0.917,-0.065,-0.267,-11.375,-13.062,-25.250,0, -2, -4, -2, -3, -3, -1, -3
1503944299954,+0.803,+0.573,-0.053,-0.152,+0.963,-0.064,-0.285,-11.375,-16.000,-28.750,-2, 0, -1, -3, -1, 0, 0, -1
1503944299984,+0.806,+0.570,-0.056,-0.150,+0.984,-0.073,-0.325,-10.062,-21.125,-22.312,0, -3, -2, -1, 2, 4, 1, 0
1503944299993,+0.809,+0.566,-0.059,-0.149,+0.977,-0.063,-0.294,-13.875,-23.500,-20.688,-2, 1, -2, 1, 0, -5, -6, 0
1503944300014,+0.811,+0.563,-0.062,-0.147,+0.953,-0.041,-0.305,-14.688,-20.938,-18.375,-4, -4, 0, 0, 1, 1, 2, 4
1503944300037,+0.813,+0.559,-0.065,-0.146,+0.942,-0.035,-0.344,-10.062,-21.688,-16.875,-3, -5, -1, 1, -1, -1, 3, -4
1503944300052,+0.816,+0.556,-0.067,-0.144,+0.954,-0.041,-0.341,-8.938,-20.625,-17.625,-1, 0, 0, -3, -5, 0, -7, -5
1503944300075,+0.818,+0.553,-0.069,-0.143,+0.964,-0.043,-0.345,-8.625,-18.875,-16.438,0, 2, 0, -1, 6, -2, -3, 2
1503944300101,+0.820,+0.550,-0.071,-0.142,+0.958,-0.036,-0.356,-7.938,-15.750,-13.812,3, 2, 1, 1, -1, -2, 1, 0
1503944300112,+0.821,+0.548,-0.073,-0.141,+0.920,-0.006,-0.369,-9.000,-11.750,-11.625,1, 1, 1, -1, 0, 1, 1, -2
1503944300134,+0.822,+0.546,-0.075,-0.140,+0.917,+0.013,-0.355,-7.750,-9.938,-10.312,-3, -3, -1, -1, -6, -1, 4, -1
1503944300157,+0.824,+0.544,-0.077,-0.139,+0.955,-0.005,-0.348,-6.125,-11.438,-10.125,2, -1, -2, -1, -1, 0, -3, 0
1503944300173,+0.824,+0.543,-0.078,-0.138,+0.956,-0.002,-0.342,-5.688,-8.062,-9.438,-1, -1, -1, 3, 2, -2, 4, -1
1503944300194,+0.825,+0.543,-0.080,-0.138,+0.938,+0.009,-0.362,-5.062,-3.188,-6.625,0, -3, -1, 1, -4, 0, 1, -2
1503944300217,+0.825,+0.542,-0.080,-0.137,+0.946,+0.008,-0.377,-2.062,-0.438,-2.375,-4, -2, -3, -4, -2, -1, 0, -1
1503944300234,+0.825,+0.542,-0.081,-0.137,+0.964,+0.005,-0.381,-1.062,-2.188,-0.938,0, -1, 0, 1, 4, -1, -3, -2
1503944300254,+0.826,+0.541,-0.080,-0.137,+0.948,+0.001,-0.378,-0.562,-7.562,-0.562,2, -3, -2, -1, -3, -5, -5, -4
1503944300277,+0.827,+0.539,-0.080,-0.137,+0.942,-0.009,-0.359,-0.312,-11.750,-0.875,-2, 2, 1, 0, 7, 3, 4, 2
1503944300292,+0.828,+0.538,-0.080,-0.137,+0.934,-0.015,-0.340,-0.312,-9.625,-1.125,3, -1, -2, -1, 0, 0, -18, 1
1503944300314,+0.828,+0.537,-0.079,-0.137,+0.925,-0.018,-0.365,+0.688,-5.438,+1.250,-2, 1, 3, -4, -7, 1, 6, -2
1503944300337,+0.829,+0.537,-0.079,-0.137,+0.926,-0.017,-0.389,+0.375,-4.562,+3.000,4, 1, 2, -3, -2, -3, -14, -1
1503944300353,+0.830,+0.536,-0.078,-0.137,+0.920,-0.018,-0.378,-0.688,-6.875,+2.750,-7, -6, -6, -5, -3, -5, 6, -1
1503944300375,+0.830,+0.535,-0.078,-0.138,+0.895,-0.024,-0.364,-1.688,-6.750,+0.750,4, 4, 1, 1, -2, -1, 9, 0
1503944300397,+0.831,+0.534,-0.078,-0.138,+0.940,-0.024,-0.337,-3.062,-8.125,-0.625,2, -2, 0, 0, 5, -5, 3, 1
1503944300413,+0.831,+0.533,-0.078,-0.138,+0.954,-0.023,-0.346,-3.625,-10.688,-1.562,3, 10, 1, 9, 22, 38, 10, 4
1503944300436,+0.833,+0.530,-0.079,-0.138,+0.919,-0.015,-0.371,-4.938,-15.312,-5.438,-8, -8, -4, -2, -11, -8, 24, 3
1503944300457,+0.834,+0.528,-0.080,-0.137,+0.908,+0.001,-0.396,-4.500,-14.500,-7.938,4, -4, 0, -3, -1, -9, 8, -2
1503944300473,+0.836,+0.526,-0.081,-0.136,+0.883,+0.008,-0.398,-2.688,-12.375,-8.375,-2, 4, 2, 5, -2, 27, 8, -4
1503944300495,+0.837,+0.524,-0.082,-0.135,+0.897,-0.004,-0.375,-4.312,-9.750,-8.500,-3, -4, -4, -4, -5, -25, -14, -5
1503944311400,+0.849,+0.518,-0.010,-0.107,+0.844,-0.094,-0.444,-27.688,-15.312,-17.938,2, 1, 1, -1, -4, -1, -6, -2
1503944311422,+0.850,+0.516,-0.014,-0.106,+0.934,-0.108,-0.453,-19.312,-11.000,-18.375,4, 4, -3, -1, 0, -5, 11, -1
1503944311446,+0.852,+0.513,-0.017,-0.104,+0.917,-0.120,-0.479,-12.000,-16.812,-22.562,1, -3, 0, 0, -1, 3, 1, 1
1503944311460,+0.855,+0.508,-0.019,-0.102,+0.895,-0.111,-0.475,-9.250,-29.750,-22.750,6, 2, -1, -1, -3, -3, -6, -1
1503944311487,+0.859,+0.502,-0.021,-0.100,+0.884,-0.121,-0.465,-9.125,-36.500,-21.688,-10, 0, 3, 0, -1, 4, -1, 2
1503944311504,+0.862,+0.497,-0.023,-0.098,+0.844,-0.098,-0.451,-9.000,-32.000,-21.312,2, -3, -3, -1, -1, -1, 4, 1
1503944311520,+0.864,+0.494,-0.025,-0.095,+0.881,-0.052,-0.477,-5.750,-24.875,-21.562,3, 2, -1, -2, 0, 0, -3, 0
1503944311543,+0.867,+0.488,-0.026,-0.092,+0.915,-0.054,-0.488,-0.062,-37.250,-18.688,1, 2, -1, 0, 1, 0, 3, -5
1503944311564,+0.871,+0.482,-0.026,-0.090,+0.896,-0.075,-0.468,-2.938,-47.375,-16.938,2, -3, -2, 1, 0, 0, 2, -1
1503944311581,+0.874,+0.476,-0.027,-0.089,+0.833,-0.044,-0.476,-4.625,-35.562,-12.812,1, 1, 1, -3, -4, 1, -2, 2
1503944311602,+0.877,+0.472,-0.028,-0.088,+0.829,-0.003,-0.493,-2.062,-27.938,-9.688,3, 1, -1, 1, -2, -1, 6, 0
1503944311624,+0.878,+0.469,-0.028,-0.087,+0.872,-0.028,-0.485,-1.938,-22.812,-6.000,7, 3, -1, -4, 3, -1, -2, -5
1503944311640,+0.880,+0.467,-0.029,-0.086,+0.889,-0.037,-0.476,-3.500,-17.688,-4.500,0, 1, 1, 1, -4, 4, -13, -1
1503944311662,+0.881,+0.465,-0.030,-0.086,+0.899,-0.013,-0.493,-4.062,-17.812,-6.688,-4, -4, -1, -1, 0, -2, 3, 0
1503944311685,+0.882,+0.462,-0.031,-0.085,+0.873,-0.014,-0.512,-4.250,-21.062,-7.750,-4, -2, -3, 1, -2, 1, -4, -1
1503944311700,+0.884,+0.459,-0.031,-0.084,+0.868,-0.036,-0.507,-4.750,-22.875,-9.875,0, 0, -1, -2, -2, 4, -6, 1
1503944311722,+0.885,+0.457,-0.032,-0.082,+0.877,-0.027,-0.495,-4.312,-18.562,-10.562,0, 0, -1, -2, 0, 2, 6, 0
1503944311751,+0.886,+0.455,-0.034,-0.081,+0.876,-0.003,-0.523,-3.562,-14.750,-11.188,0, 3, 2, -1, 0, 5, 3, -1
1503944311760,+0.887,+0.453,-0.035,-0.079,+0.893,+0.002,-0.530,-1.875,-12.688,-11.062,1, -1, -1, 2, -1, -5, -1, -2
1503944311783,+0.888,+0.452,-0.035,-0.078,+0.893,-0.008,-0.551,+0.500,-14.938,-9.000,-3, -4, -2, -1, 2, 2, 1, 1
1503944311804,+0.889,+0.449,-0.035,-0.077,+0.853,-0.002,-0.534,-0.750,-17.562,-7.750,-1, -2, -3, 0, -3, -1, -3, -3
1503944311820,+0.890,+0.447,-0.036,-0.076,+0.865,+0.019,-0.565,-0.125,-13.812,-5.250,-1, -2, 0, 1, -2, -3, 10, 2
1503944311843,+0.891,+0.446,-0.035,-0.075,+0.864,+0.004,-0.568,+2.812,-10.812,-0.688,-1, 0, 0, -3, 0, 4, 6, 0
1503944311864,+0.892,+0.445,-0.035,-0.075,+0.858,-0.007,-0.556,-0.062,-10.375,+1.625,-2, -4, -1, 0, 1, -3, -15, -5
1503944311882,+0.892,+0.444,-0.034,-0.076,+0.842,+0.008,-0.546,-0.812,-6.188,+2.688,3, 3, 1, -2, 0, -1, -1, 1
1503944311902,+0.892,+0.444,-0.034,-0.076,+0.814,+0.017,-0.555,+2.312,-3.938,+3.438,-2, -6, -1, -1, -1, 3, -2, -3
1503944311925,+0.892,+0.443,-0.033,-0.076,+0.790,+0.007,-0.543,+1.688,-1.625,+1.375,4, 4, -2, 1, 3, 0, -1, 0
1503944311940,+0.892,+0.444,-0.033,-0.076,+0.822,-0.016,-0.559,+0.375,+0.438,+4.125,-7, -7, -1, -6, -6, -3, -2, 0
1503944311962,+0.892,+0.444,-0.032,-0.077,+0.842,-0.035,-0.573,+0.500,+0.625,+4.875,-9, -6, -3, 0, -2, 4, -1, 0
1503944311985,+0.892,+0.443,-0.032,-0.077,+0.832,-0.022,-0.552,-4.688,-6.250,-0.562,0, 1, -2, 1, -4, -8, -4, -1
1503944312000,+0.893,+0.442,-0.033,-0.077,+0.803,-0.006,-0.559,-7.062,-5.375,-5.188,0, -1, -1, -3, 2, 3, -4, -5
1503944312024,+0.893,+0.442,-0.035,-0.076,+0.777,+0.016,-0.563,-5.812,+3.688,-7.188,8, 4, 0, 0, 0, -2, -11, -4
1503944312044,+0.892,+0.444,-0.036,-0.075,+0.787,+0.029,-0.561,-3.562,+13.500,-6.875,-8, -10, -3, 1, -1, 3, 9, 0
1503944312061,+0.891,+0.446,-0.037,-0.073,+0.827,+0.038,-0.582,+2.312,+12.812,-6.562,-8, -6, -1, -3, 1, 1, 1, -2
1503944312084,+0.892,+0.445,-0.037,-0.071,+0.868,+0.037,-0.597,+2.875,-3.188,-10.562,12, 5, 4, 2, 3, -1, 14, 1
1503944312104,+0.893,+0.443,-0.037,-0.069,+0.821,+0.012,-0.606,+3.562,-15.438,-12.562,-2, -6, -2, -3, 0, 0, -8, -1
1503944321831,+0.773,+0.633,+0.032,-0.014,+1.000,-0.061,-0.120,-2.125,-5.312,-15.438,-2, 1, 1, -2, -3, 0, 0, -1
1503944321847,+0.774,+0.633,+0.030,-0.012,+1.024,-0.042,-0.123,-4.438,-3.938,-13.125,-2, -8, -4, -1, 0, 0, 0, 2
1503944321869,+0.774,+0.632,+0.027,-0.011,+0.960,+0.000,-0.158,-7.938,-6.438,-13.312,2, 7, 0, -2, -1, -2, -1, 0
1503944321891,+0.776,+0.631,+0.025,-0.010,+0.932,+0.005,-0.167,-8.438,-8.312,-7.625,-5, -2, 1, -1, -2, -4, 0, -1
1503944321907,+0.776,+0.630,+0.024,-0.010,+0.998,-0.019,-0.154,-5.750,-7.812,+0.125,-1, -8, -3, 1, 0, -1, -2, -1
1503944321929,+0.778,+0.628,+0.024,-0.011,+1.051,-0.017,-0.153,-5.062,-14.562,+1.625,2, -2, -1, -2, -1, 2, -2, -1
1503944321952,+0.780,+0.625,+0.022,-0.011,+1.028,-0.001,-0.180,-8.312,-19.625,+1.375,-2, 1, -2, 0, -3, 0, -1, -2
1503944321973,+0.782,+0.622,+0.022,-0.013,+0.972,-0.018,-0.212,-9.750,-19.000,+7.750,0, 0, -1, 0, -1, 0, 0, 1
1503944321991,+0.783,+0.621,+0.023,-0.016,+0.992,-0.060,-0.208,-7.000,-8.312,+18.625,0, -3, 2, -1, 0, 2, -2, -2
1503944322011,+0.783,+0.622,+0.025,-0.019,+1.050,-0.087,-0.194,-4.188,+3.938,+22.500,1, -2, -2, 3, 0, 0, 1, 2
1503944322033,+0.782,+0.623,+0.027,-0.022,+1.037,-0.097,-0.186,-2.562,+8.250,+17.062,-1, -7, -3, 0, -1, -1, 1, -1
1503944322053,+0.781,+0.623,+0.028,-0.023,+0.987,-0.078,-0.194,-0.125,+5.812,+9.438,-3, 1, -2, -3, -2, -2, -1, -4
1503944322071,+0.781,+0.624,+0.029,-0.024,+0.965,-0.089,-0.188,+2.062,+6.938,+3.125,1, 2, 0, -1, -1, 0, 0, 0
1503944322095,+0.779,+0.626,+0.030,-0.023,+0.955,-0.096,-0.183,+5.812,+16.500,+0.938,0, 0, -2, 0, 1, -1, -1, -2
1503944322111,+0.776,+0.630,+0.032,-0.022,+0.946,-0.091,-0.177,+11.562,+29.250,-1.562,1, 5, 2, -4, 0, 1, -1, -1
1503944322132,+0.773,+0.634,+0.033,-0.019,+0.948,-0.085,-0.177,+16.750,+31.750,-6.875,0, -1, -1, -2, 0, -1, -1, 3
1503944322159,+0.770,+0.637,+0.035,-0.016,+0.988,-0.084,-0.159,+18.812,+28.250,-13.188,-1, -1, 1, -2, -2, -3, -3, -3
1503944322169,+0.769,+0.639,+0.036,-0.012,+1.017,-0.094,-0.146,+18.688,+8.500,-16.000,0, -3, -3, -2, -1, -1, 0, -2
1503944322192,+0.769,+0.638,+0.036,-0.008,+0.985,-0.114,-0.112,+12.812,-5.875,-16.312,-3, 2, -1, 1, -1, -1, -1, 1
1503944322213,+0.769,+0.638,+0.036,-0.006,+0.954,-0.102,-0.092,+6.625,-0.938,-13.125,0, -3, -2, -1, 3, -1, -2, 0
1503944322229,+0.768,+0.639,+0.036,-0.004,+0.953,-0.076,-0.097,+5.562,-0.500,-12.062,-4, -2, -1, -3, -1, -2, 1, -1
1503944322254,+0.769,+0.638,+0.035,-0.002,+0.964,-0.073,-0.085,-0.375,-11.000,-13.688,1, 5, 1, 0, -2, -2, -4, -2
1503944322273,+0.771,+0.635,+0.032,-0.002,+0.959,-0.054,-0.082,-11.875,-23.625,-13.812,0, -1, -1, -1, -3, -1, 0, 2
1503944322290,+0.774,+0.633,+0.028,-0.002,+0.994,-0.025,-0.096,-20.750,-25.062,-9.500,-2, -1, -1, -2, 3, 2, 0, 1
1503944322312,+0.776,+0.630,+0.024,-0.004,+1.006,-0.000,-0.108,-26.000,-24.250,-4.125,-3, -3, -2, 0, -3, 0, -2, 0
1503944322334,+0.779,+0.627,+0.020,-0.006,+1.019,+0.000,-0.144,-29.562,-26.688,-1.375,-2, 2, 1, 4, -2, -3, -1, -2
1503944322355,+0.782,+0.622,+0.016,-0.009,+1.000,-0.010,-0.143,-30.438,-35.875,-1.375,0, -2, -2, -5, -3, 1, 0, -2
1503944322384,+0.787,+0.617,+0.011,-0.011,+0.988,-0.032,-0.148,-32.125,-41.688,-8.250,3, 1, 0, 1, 2, -2, -1, -3
1503944322395,+0.791,+0.612,+0.004,-0.012,+0.951,-0.023,-0.188,-34.625,-42.000,-18.750,-4, -5, 1, 0, 2, -3, -1, -2
1503944322409,+0.795,+0.607,-0.002,-0.013,+0.949,-0.025,-0.224,-34.188,-32.812,-21.062,3, 1, -2, -2, -1, 1, -3, -2
1503944322432,+0.797,+0.604,-0.008,-0.013,+0.996,-0.000,-0.252,-30.875,-20.250,-17.250,-3, 2, -4, -1, -1, 1, 1, -1
1503944322456,+0.800,+0.600,-0.013,-0.014,+1.014,+0.023,-0.249,-25.125,-27.625,-13.062,-1, -4, -1, -1, 1, -3, 1, -1
1503944322469,+0.803,+0.595,-0.018,-0.013,+1.037,+0.026,-0.267,-20.312,-36.312,-21.188,-2, -2, -4, -1, 2, -1, -1, -1
1503944322494,+0.808,+0.588,-0.023,-0.011,+0.958,+0.028,-0.307,-19.250,-44.188,-31.250,0, -2, 3, -1, -5, -1, -2, -1
1503944322513,+0.812,+0.582,-0.028,-0.008,+0.873,+0.059,-0.309,-14.125,-37.812,-28.000,-2, 3, -1, 3, -3, -1, -1, -1
1503944322530,+0.814,+0.579,-0.030,-0.006,+0.919,+0.045,-0.320,-6.438,-18.750,-18.250,4, -2, -1, -2, 2, -1, 0, 1
1503944322551,+0.815,+0.578,-0.032,-0.005,+0.981,+0.044,-0.312,-2.688,-6.688,-13.500,-1, -6, -9, -6, -2, -2, -5, -3
1503944322573,+0.816,+0.577,-0.033,-0.004,+1.017,+0.035,-0.280,-3.688,-11.312,-9.375,-3, -5, 1, -3, -1, -5, -5, 1
1503944322592,+0.818,+0.574,-0.034,-0.004,+0.989,+0.043,-0.303,-7.125,-19.625,-7.188,2, 11, 6, 2, -4, 3, 1, -1
1503944322611,+0.820,+0.571,-0.036,-0.003,+0.927,+0.075,-0.296,-6.625,-23.562,-7.562,3, 2, 5, 3, 0, -4, -6, 0
1503944322633,+0.822,+0.568,-0.037,-0.002,+0.898,+0.085,-0.299,-3.375,-15.562,-7.188,-4, 0, -7, -8, -11, -2, 13, -4
1503944322649,+0.823,+0.567,-0.038,-0.001,+0.947,+0.081,-0.301,-1.062,-9.000,-3.812,0, 1, -3, -1, -3, 8, -14, 0
1503944322671,+0.824,+0.565,-0.038,-0.001,+0.969,+0.079,-0.310,-0.750,-12.375,-2.250,1, 3, -1, -2, 2, 4, 3, 0
1503944322696,+0.825,+0.563,-0.039,-0.001,+0.926,+0.079,-0.322,-3.562,-15.375,-3.688,-1, -1, 1, 2, 1, -2, -3, -2
1503944322709,+0.827,+0.561,-0.040,-0.001,+0.904,+0.092,-0.308,-6.062,-15.188,-2.250,-5, -7, -2, -1, 5, 21, -24, -4
1503944322732,+0.828,+0.560,-0.041,-0.001,+0.950,+0.078,-0.300,-5.688,-11.562,+1.500,0, 0, 3, 5, 10, 1, 5, 4
1503944322753,+0.828,+0.559,-0.041,-0.003,+0.988,+0.062,-0.314,-5.312,-11.062,+4.375,-2, 4, -2, -4, -23, -14, 10, -1
1503944336440,+0.754,+0.620,-0.048,-0.210,+0.858,-0.083,-0.192,+24.500,+29.875,-4.375,-4, 1, -2, -1, 2, 0, 0, -1
1503944336463,+0.751,+0.625,-0.047,-0.206,+0.888,-0.104,-0.176,+23.875,+34.125,-5.188,0, 3, 0, -1, -1, -4, -1, 0
1503944336478,+0.748,+0.630,-0.047,-0.201,+0.935,-0.105,-0.143,+23.750,+34.438,-11.125,-3, -4, -2, -2, -3, -1, -3, -4
1503944336500,+0.747,+0.634,-0.047,-0.195,+0.972,-0.113,-0.125,+21.062,+20.750,-21.750,4, 4, 3, 3, -1, 0, -2, -3
1503944336524,+0.747,+0.635,-0.049,-0.189,+0.997,-0.101,-0.132,+16.938,+7.500,-27.812,-2, -2, 0, -2, 0, 0, -1, 0
1503944336538,+0.748,+0.636,-0.050,-0.184,+1.006,-0.087,-0.132,+15.562,+0.375,-23.062,1, 0, 0, 2, 1, 0, 0, 0
1503944336560,+0.748,+0.636,-0.050,-0.180,+1.038,-0.072,-0.127,+13.562,+3.438,-13.812,-1, 1, -2, 0, 0, -1, -3, -2
1503944336583,+0.748,+0.637,-0.050,-0.177,+1.039,-0.057,-0.151,+12.812,+3.688,-3.625,2, -1, -2, -2, 0, -2, 0, -2
1503944336598,+0.750,+0.636,-0.049,-0.175,+0.920,-0.041,-0.219,+12.688,-1.875,-3.250,4, 0, -3, -1, -1, -2, 0, 0
1503944336621,+0.751,+0.635,-0.049,-0.173,+0.861,-0.049,-0.160,+8.125,-8.000,+0.688,-3, -4, 0, -1, -5, -1, 1, -1
1503944336644,+0.752,+0.635,-0.046,-0.174,+0.960,-0.155,-0.132,+6.062,-6.250,+8.438,-1, -2, -1, -1, -2, 0, -2, 1
1503944336661,+0.751,+0.635,-0.044,-0.176,+1.009,-0.195,-0.094,+0.438,-2.312,+14.875,-2, -1, 0, -4, -2, 1, -1, -2
1503944336680,+0.751,+0.635,-0.043,-0.178,+0.937,-0.176,-0.124,-6.188,-2.500,+10.938,-1, -3, -3, -1, -2, -1, -2, 0
1503944336703,+0.751,+0.634,-0.043,-0.179,+0.868,-0.132,-0.188,-6.125,-3.000,+7.375,2, -1, -2, 0, 0, -2, 0, -1
1503944336721,+0.752,+0.632,-0.042,-0.180,+0.868,-0.156,-0.194,-3.438,-8.375,+3.750,-4, 0, -1, 0, 0, 0, -2, -1
1503944336740,+0.754,+0.630,-0.042,-0.181,+0.925,-0.191,-0.162,-5.312,-13.062,-1.625,0, -1, -1, 2, 1, -2, 0, 1
1503944336764,+0.755,+0.628,-0.043,-0.181,+0.928,-0.180,-0.145,-8.000,-10.562,-7.062,1, 0, 1, -1, -1, 0, 2, -2
1503944336778,+0.757,+0.627,-0.045,-0.180,+0.914,-0.155,-0.142,-7.312,-10.125,-13.125,-6, -3, -2, -2, -1, -1, -2, 0
1503944336800,+0.758,+0.625,-0.047,-0.179,+0.913,-0.158,-0.134,-5.625,-12.062,-17.438,-1, 1, -2, 1, 1, 1, -2, -2
1503944336823,+0.760,+0.624,-0.049,-0.176,+0.921,-0.152,-0.134,-5.562,-12.375,-22.250,1, 2, 0, -3, -2, 0, -2, -2
1503944336838,+0.762,+0.622,-0.052,-0.174,+0.930,-0.142,-0.161,-7.375,-9.438,-26.688,0, -3, -1, -2, -2, -2, -1, 0
1503944336860,+0.764,+0.620,-0.056,-0.171,+0.940,-0.120,-0.201,-6.312,-9.000,-29.875,0, -1, 1, -2, -1, -1, -5, -1
1503944336883,+0.766,+0.617,-0.059,-0.168,+0.953,-0.103,-0.191,-7.062,-17.188,-28.562,-4, -2, -2, 0, 0, -1, 3, 1
1503944336905,+0.770,+0.613,-0.062,-0.165,+0.971,-0.102,-0.183,-9.312,-30.875,-26.812,-3, 1, -1, -1, 0, -5, 1, -1
1503944336923,+0.774,+0.608,-0.065,-0.164,+0.974,-0.096,-0.184,-14.000,-36.375,-22.812,-1, 0, -2, -2, -3, -2, -2, -3
1503944336943,+0.778,+0.603,-0.068,-0.163,+0.973,-0.066,-0.209,-14.500,-34.062,-18.188,-1, -3, -1, 0, 1, 0, -2, -3
1503944336959,+0.782,+0.598,-0.071,-0.162,+0.962,-0.040,-0.240,-12.812,-31.750,-15.438,4, 2, 2, 2, 1, 1, 1, 1
1503944336981,+0.786,+0.592,-0.073,-0.162,+0.959,-0.041,-0.227,-13.500,-38.125,-11.062,-3, 0, 0, 0, -2, 0, -1, -2
1503944337003,+0.790,+0.587,-0.075,-0.163,+1.006,-0.057,-0.229,-16.812,-38.000,-8.188,-1, -3, -3, 0, -1, 2, -1, -1
1503944337019,+0.793,+0.582,-0.076,-0.164,+1.016,-0.053,-0.264,-15.625,-31.250,-5.188,-1, 0, 0, 0, 1, -3, 3, -2
1503944337041,+0.796,+0.577,-0.078,-0.165,+0.975,-0.023,-0.286,-13.438,-32.250,-4.000,1, -3, 1, -2, -1, -1, -2, -1
1503944337063,+0.799,+0.572,-0.078,-0.166,+0.961,-0.061,-0.292,-12.438,-37.188,-1.188,-1, -3, 0, -2, -4, -1, 0, -1
1503944337085,+0.802,+0.567,-0.079,-0.168,+0.972,-0.080,-0.316,-12.625,-32.625,+2.062,0, -1, -2, 0, 1, -2, 0, -3
1503944337101,+0.805,+0.563,-0.079,-0.170,+0.945,-0.065,-0.333,-11.500,-24.562,+2.188,2, 1, -1, 2, -1, 2, 0, 0
1503944337125,+0.806,+0.561,-0.079,-0.171,+0.937,-0.048,-0.330,-7.875,-16.250,+3.250,-1, -2, -1, -1, 2, -1, 0, 0
1503944337145,+0.807,+0.559,-0.079,-0.172,+0.981,-0.076,-0.346,-4.062,-12.250,+4.500,-3, -5, -1, -1, -3, 0, -1, -1
1503944337162,+0.809,+0.556,-0.078,-0.172,+1.008,-0.080,-0.333,-2.562,-21.875,-3.500,-1, -3, -2, 0, 1, -2, 1, -1
1503944337183,+0.813,+0.551,-0.079,-0.172,+0.993,-0.081,-0.306,-5.500,-35.688,-12.062,8, 9, 1, -3, 0, 0, -2, 0
1503944337205,+0.816,+0.547,-0.079,-0.170,+0.962,-0.094,-0.297,-2.250,-33.250,-13.938,-6, 1, -1, 0, -2, 0, 0, 0
1503944337221,+0.818,+0.544,-0.079,-0.169,+0.921,-0.078,-0.288,+1.438,-22.375,-14.500,-1, -3, 2, 0, -8, -1, -2, 1
1503944337243,+0.820,+0.542,-0.080,-0.166,+0.930,-0.052,-0.338,+2.438,-13.250,-15.688,-10, -5, 0, -4, 2, 0, -2, -2
1503944337267,+0.821,+0.541,-0.080,-0.164,+0.994,-0.049,-0.356,+1.812,-13.938,-13.375,1, 0, -1, -3, -3, -1, -3, -3
1503944337281,+0.823,+0.539,-0.081,-0.163,+1.027,-0.038,-0.340,-2.250,-17.562,-8.312,-5, 0, 1, -2, -5, -1, 0, -2
1503944337303,+0.824,+0.536,-0.081,-0.163,+1.002,-0.012,-0.334,-4.750,-20.312,-4.188,2, 0, -1, -2, 1, 1, 1, -1
1503944337325,+0.826,+0.532,-0.082,-0.163,+0.982,+0.009,-0.355,-5.125,-27.250,-0.500,3, 2, -1, 1, 2, -1, -1, -1
1503944337341,+0.829,+0.528,-0.082,-0.164,+0.942,-0.002,-0.401,-6.875,-28.688,+2.125,-1, -6, -3, -1, -1, 0, -2, 1
1503944337367,+0.831,+0.525,-0.082,-0.166,+0.901,-0.008,-0.392,-7.875,-23.625,+4.500,0, 1, 0, -1, -2, -1, 0, 1
1503944337385,+0.832,+0.522,-0.082,-0.168,+0.914,-0.027,-0.390,-8.938,-16.750,+6.938,-3, -2, -2, -4, 1, -2, -5, 1
1503944337402,+0.833,+0.520,-0.082,-0.169,+0.909,-0.040,-0.390,-9.188,-11.000,+5.875,-1, -1, -1, 1, 2, 0, 0, -3
1503944337423,+0.833,+0.519,-0.083,-0.170,+0.879,-0.042,-0.399,-9.062,-5.125,+0.688,-3, -3, 1, -1, 0, 1, -2, -1
1503944337445,+0.833,+0.519,-0.084,-0.171,+0.867,-0.055,-0.402,-8.562,+1.812,-2.312,0, 0, 1, 0, 2, 2, 0, 2
1503944337461,+0.833,+0.520,-0.085,-0.170,+0.895,-0.038,-0.398,-6.250,+7.750,-4.438,1, -3, -1, -2, -5, -4, -1, 0
1503944337494,+0.832,+0.521,-0.086,-0.169,+0.962,-0.021,-0.414,+1.125,+5.250,-8.000,-3, -2, -1, 1, 2, -2, 0, -6
1503944337499,+0.834,+0.519,-0.086,-0.167,+0.961,-0.032,-0.421,+1.562,-15.188,-11.938,-3, -2, -1, -1, 2, -2, -1, 1
1503944337521,+0.837,+0.515,-0.086,-0.166,+0.925,-0.024,-0.417,-0.938,-24.500,-11.125,-3, 0, 1, 3, -4, 2, 2, 1
1503944349528,+0.783,+0.584,-0.044,-0.209,+0.970,-0.101,-0.282,+18.438,+4.375,-10.188,2, 1, 7, 0, -4, -2, 1, 0
1503944349552,+0.783,+0.584,-0.042,-0.207,+0.950,-0.139,-0.275,+11.812,+0.625,-1.562,-4, 0, 0, 0, -1, 0, -1, 0
1503944349573,+0.783,+0.585,-0.041,-0.207,+0.918,-0.152,-0.264,+6.250,+3.875,+5.375,-1, -6, -10, -1, 1, -2, -1, -1
1503944349588,+0.782,+0.586,-0.040,-0.208,+0.894,-0.165,-0.245,+2.625,+6.875,+10.188,-2, -3, 0, -2, -2, -1, 2, -2
1503944349611,+0.781,+0.587,-0.039,-0.210,+0.875,-0.194,-0.249,-1.125,+6.562,+11.438,1, 0, 0, 0, -1, 1, 0, 1
1503944349633,+0.780,+0.588,-0.038,-0.212,+0.878,-0.227,-0.239,-5.500,+6.062,+10.562,2, 11, 23, 3, 2, -1, -1, -1
1503944349648,+0.779,+0.588,-0.038,-0.214,+0.909,-0.229,-0.240,-8.875,+3.250,+7.812,2, -4, 0, -1, -2, 0, 0, -1
1503944349671,+0.779,+0.587,-0.038,-0.216,+0.907,-0.242,-0.237,-11.938,-6.625,+1.688,0, -1, -1, -1, -3, -1, -1, -1
1503944349693,+0.781,+0.584,-0.039,-0.218,+0.905,-0.258,-0.243,-17.688,-21.562,-3.812,-1, -6, -3, -4, 0, 2, 1, -2
1503944349715,+0.783,+0.580,-0.041,-0.219,+0.892,-0.240,-0.250,-21.688,-21.500,-5.812,-5, 0, 13, 1, -1, -1, -3, -3
1503944349731,+0.785,+0.578,-0.043,-0.220,+0.868,-0.187,-0.265,-17.938,-12.062,-7.688,1, 1, -1, -2, -3, -3, -4, 1
1503944349754,+0.786,+0.575,-0.045,-0.220,+0.843,-0.175,-0.281,-14.188,-12.938,-9.188,-2, -1, -7, -1, 2, 0, 2, 1
1503944349774,+0.787,+0.574,-0.048,-0.220,+0.875,-0.184,-0.269,-14.438,-5.938,-12.062,-1, 2, 2, 1, -2, 0, 0, -1
1503944349791,+0.788,+0.573,-0.051,-0.219,+0.888,-0.170,-0.269,-13.125,-1.062,-17.938,-1, -6, 0, -1, -2, -3, -1, -1
1503944349813,+0.789,+0.572,-0.055,-0.217,+0.917,-0.143,-0.295,-11.625,-3.500,-24.625,2, -4, -5, -4, -3, 1, 1, 1
1503944349834,+0.791,+0.570,-0.058,-0.214,+0.921,-0.130,-0.322,-9.625,-7.125,-29.438,-3, 2, 6, 1, 0, -1, 0, -2
1503944349851,+0.793,+0.568,-0.062,-0.210,+0.927,-0.105,-0.342,-6.750,-7.438,-30.812,2, -4, -5, 0, -1, 1, -1, -2
1503944349873,+0.796,+0.566,-0.065,-0.206,+0.905,-0.097,-0.333,-3.688,-9.688,-30.938,-3, 0, 1, 1, 0, -3, 0, 0
1503944349894,+0.798,+0.564,-0.068,-0.202,+0.929,-0.096,-0.314,-3.375,-12.000,-33.688,0, 20, -4, 0, -3, 0, -1, 0
1503944349914,+0.800,+0.562,-0.072,-0.197,+0.947,-0.088,-0.315,-3.250,-11.438,-34.875,0, -8, -4, -4, 2, 0, -1, -3
1503944349933,+0.803,+0.560,-0.075,-0.192,+0.955,-0.064,-0.328,-1.062,-9.500,-36.062,0, -5, -1, 1, 2, 1, -2, 0
1503944349956,+0.805,+0.558,-0.078,-0.187,+0.962,-0.041,-0.330,+0.750,-11.750,-34.688,-2, -4, -1, -6, -3, -3, 1, -2
1503944349971,+0.807,+0.555,-0.081,-0.183,+0.974,-0.051,-0.307,-1.188,-18.375,-32.188,-2, -1, 6, 0, -1, -3, -2, -1
1503944349993,+0.810,+0.552,-0.083,-0.180,+1.035,-0.039,-0.339,-1.875,-20.625,-24.188,3, -1, 0, 0, -4, -2, -1, 0
1503944350015,+0.813,+0.548,-0.084,-0.178,+1.004,-0.043,-0.330,-1.438,-27.375,-13.812,0, -5, -10, -2, -1, 1, -2, 1
1503944350031,+0.815,+0.544,-0.084,-0.178,+0.924,-0.054,-0.334,-8.375,-25.000,-5.125,1, -3, -1, -3, 1, 0, -2, -5
1503944350054,+0.816,+0.543,-0.085,-0.179,+0.897,-0.049,-0.341,-9.500,-11.688,+1.562,-1, -1, 3, -1, -1, -2, 0, -2
1503944350075,+0.816,+0.542,-0.085,-0.181,+0.926,-0.059,-0.333,-9.688,-3.062,+7.500,-1, -12, -3, -1, -2, 0, 0, -1
1503944350091,+0.815,+0.542,-0.086,-0.183,+0.952,-0.081,-0.333,-11.125,-0.625,+8.500,-1, 1, 1, -3, 0, -2, 0, -2
1503944350115,+0.816,+0.541,-0.086,-0.185,+0.964,-0.077,-0.351,-13.562,-6.750,+4.188,0, -3, -8, -3, -2, 0, -3, -1
1503944350135,+0.817,+0.538,-0.088,-0.186,+0.954,-0.053,-0.366,-12.188,-17.750,-4.750,-3, -5, -4, 0, -2, 0, 0, -3
1503944350151,+0.819,+0.535,-0.089,-0.185,+0.915,-0.052,-0.353,-9.500,-17.875,-11.625,-4, -3, 2, 1, -1, -4, -1, 0
1503944350174,+0.821,+0.534,-0.091,-0.183,+0.868,-0.041,-0.350,-4.625,-9.375,-17.812,1, -5, -3, 0, 1, 0, -1, 0
1503944350195,+0.821,+0.533,-0.093,-0.180,+0.922,-0.020,-0.369,-1.875,-0.375,-20.875,-1, -2, -6, -1, 1, -1, 0, 0
1503944350211,+0.823,+0.532,-0.095,-0.177,+0.936,-0.013,-0.398,+0.938,-5.125,-21.875,-1, -1, 3, 2, -1, -4, -2, -3
1503944350233,+0.824,+0.530,-0.097,-0.173,+0.912,-0.004,-0.384,+1.062,-10.188,-25.688,0, 4, -1, -1, -1, 1, -3, 0
1503944350256,+0.827,+0.528,-0.098,-0.169,+0.906,+0.014,-0.379,+4.125,-13.312,-25.312,-2, -2, -3, -2, -1, 0, 0, -1
1503944350277,+0.829,+0.526,-0.099,-0.165,+0.931,+0.009,-0.375,+6.062,-13.938,-25.062,-2, -4, 0, 0, -2, -4, -2, -3
1503944350293,+0.831,+0.523,-0.100,-0.162,+0.922,+0.005,-0.382,+3.500,-13.438,-22.312,-2, -3, -3, -1, 0, -2, -1, 0
1503944350316,+0.832,+0.522,-0.101,-0.159,+0.898,+0.028,-0.392,+1.625,-10.000,-18.750,-1, 6, 20, 2, 0, 1, -1, -1
1503944350331,+0.833,+0.520,-0.102,-0.157,+0.898,+0.046,-0.390,+1.500,-7.062,-12.562,3, 1, 1, 1, 0, -3, -1, -1
1503944350358,+0.834,+0.519,-0.103,-0.156,+0.953,+0.033,-0.379,+0.438,-10.062,-8.312,-4, 0, 1, -4, -2, 1, 0, -1
1503944350375,+0.836,+0.517,-0.103,-0.155,+0.964,+0.033,-0.380,-2.625,-16.875,-5.625,-1, -1, 4, 1, 0, -2, -2, 1
1503944350392,+0.837,+0.514,-0.104,-0.155,+0.929,+0.043,-0.384,-4.938,-19.688,-4.312,-2, 1, 0, -2, -3, -4, 0, 0
1503944350413,+0.838,+0.512,-0.104,-0.155,+0.896,+0.049,-0.395,-5.562,-13.875,-1.562,1, 12, -3, 0, 1, 1, -2, -3
1503944350435,+0.839,+0.511,-0.105,-0.155,+0.886,+0.050,-0.389,-5.000,-6.562,+0.750,1, -7, -2, -1, 0, -1, -2, 0
1503944350451,+0.839,+0.511,-0.106,-0.156,+0.925,+0.048,-0.374,-5.250,-2.438,+1.188,0, -2, 0, 0, -1, -2, 0, 1
1503944350472,+0.839,+0.510,-0.106,-0.156,+0.953,+0.040,-0.407,-4.938,-4.438,+0.562,-2, -2, -1, -1, 0, 0, 0, 2
1503944350495,+0.840,+0.509,-0.107,-0.157,+0.922,+0.036,-0.410,-7.625,-11.812,-1.375,-1, -2, 1, -2, 0, 1, -2, 0
1503944350509,+0.841,+0.507,-0.108,-0.157,+0.906,+0.040,-0.407,-8.312,-11.375,-1.938,2, -5, -1, -1, -1, -3, 0, -2
1503944350532,+0.841,+0.505,-0.109,-0.157,+0.892,+0.045,-0.415,-7.500,-7.062,-1.000,-2, 1, 1, -3, -3, 1, -2, -6
1503944350557,+0.842,+0.505,-0.110,-0.158,+0.886,+0.041,-0.422,-6.250,-4.188,-0.250,-2, -1, 0, -1, -2, 1, -2, -1
1503944350569,+0.842,+0.504,-0.110,-0.158,+0.913,+0.033,-0.429,-5.875,-5.375,+0.250,-2, -2, -5, -3, 0, 0, 1, 0
1503944350593,+0.843,+0.502,-0.110,-0.159,+0.933,+0.027,-0.433,-5.500,-11.062,-0.188,3, -1, -4, -2, -3, -1, -1, 1
1503944350614,+0.844,+0.500,-0.111,-0.159,+0.885,+0.031,-0.430,-5.375,-14.812,-1.062,-1, -1, -2, 0, 0, -3, 2, -3
1503944350630,+0.845,+0.497,-0.111,-0.160,+0.863,+0.035,-0.435,-4.562,-14.562,-1.938,-1, 7, -3, -1, 1, 2, -1, -2
1503944362704,+0.813,+0.570,-0.023,-0.115,+0.947,-0.029,-0.308,+18.500,+25.375,-16.062,-1, 5, -2, -2, 1, 0, -1, 0
1503944362719,+0.812,+0.573,-0.023,-0.110,+0.998,-0.013,-0.320,+19.562,+21.125,-17.625,-2, -5, -1, 1, -1, -3, 0, -1
1503944362743,+0.811,+0.575,-0.023,-0.105,+1.022,+0.002,-0.290,+19.688,+9.625,-18.750,-3, 1, 2, -2, -2, 1, -1, 1
1503944362764,+0.811,+0.576,-0.023,-0.099,+1.022,+0.010,-0.269,+21.000,+3.750,-19.375,3, -1, -3, -1, -1, -5, -2, -3
1503944362779,+0.810,+0.578,-0.022,-0.094,+0.999,+0.013,-0.259,+21.500,+5.062,-12.875,-2, -3, -2, 0, 3, 0, -1, 0
1503944362804,+0.809,+0.580,-0.020,-0.091,+1.019,-0.016,-0.249,+18.625,+8.875,-3.875,3, 10, 0, -1, 0, 0, -2, -1
1503944362824,+0.808,+0.581,-0.018,-0.090,+1.001,-0.057,-0.239,+11.750,+8.875,+1.625,2, -5, 0, 0, -5, 0, -1, -2
1503944362839,+0.807,+0.583,-0.018,-0.090,+0.971,-0.064,-0.230,+3.062,+7.188,+3.312,-7, -13, -4, -2, 6, -1, -2, -2
1503944362862,+0.806,+0.585,-0.017,-0.091,+0.918,-0.073,-0.256,-1.062,+11.125,+6.188,0, 3, 0, 2, -3, 0, -1, -2
1503944362884,+0.805,+0.586,-0.016,-0.093,+0.906,-0.084,-0.268,-4.062,+12.062,+11.375,0, -5, 0, -2, -2, 1, -1, -2
1503944362899,+0.804,+0.587,-0.016,-0.095,+0.928,-0.116,-0.260,-7.438,+10.688,+12.688,0, 3, -2, -1, 0, -1, 0, -2
1503944362921,+0.803,+0.588,-0.016,-0.098,+0.919,-0.117,-0.264,-10.812,+8.125,+8.375,-3, -6, -3, -1, 0, -2, -1, 0
1503944362938,+0.803,+0.588,-0.017,-0.099,+0.896,-0.088,-0.283,-11.688,+2.875,+0.688,-1, 2, 2, -3, 1, 0, 0, 1
1503944362959,+0.803,+0.587,-0.019,-0.099,+0.901,-0.067,-0.301,-8.125,-0.500,-4.312,0, 5, 1, -1, -2, 2, 3, 1
1503944362982,+0.804,+0.586,-0.020,-0.098,+0.894,-0.035,-0.301,-4.812,-0.938,-9.688,-1, -1, -1, 2, -2, 1, 0, 1
1503944362998,+0.805,+0.585,-0.023,-0.096,+0.898,-0.016,-0.297,-5.438,-8.875,-14.125,-4, -3, -2, -2, -1, -3, -2, -1
1503944363020,+0.808,+0.582,-0.026,-0.094,+0.914,-0.026,-0.275,-9.188,-18.500,-18.688,4, 1, 4, 0, 5, 1, -4, -2
1503944363043,+0.811,+0.578,-0.030,-0.092,+0.922,-0.009,-0.270,-16.812,-26.688,-22.625,0, 0, -1, -1, -2, -1, 0, 0
1503944363065,+0.813,+0.573,-0.035,-0.091,+0.877,+0.001,-0.296,-19.938,-25.062,-21.750,4, -1, -1, -1, -3, -1, 1, -1
1503944363087,+0.816,+0.569,-0.039,-0.090,+0.857,+0.016,-0.312,-19.750,-23.000,-19.438,-7, -1, 1, 0, -1, -3, -4, 0
1503944363109,+0.819,+0.565,-0.044,-0.089,+0.864,+0.004,-0.317,-20.938,-26.312,-18.062,2, 6, 1, 1, -1, -3, 0, -2
1503944363124,+0.822,+0.560,-0.049,-0.089,+0.904,-0.002,-0.310,-24.062,-30.750,-22.438,-2, 0, 0, -3, -3, -1, -3, -1
1503944363140,+0.826,+0.555,-0.054,-0.087,+0.891,+0.005,-0.341,-26.750,-31.688,-26.500,-1, -1, -1, 0, 2, -1, 1, -1
1503944363162,+0.830,+0.548,-0.060,-0.087,+0.906,+0.013,-0.368,-25.688,-36.125,-25.062,-1, -2, -2, 2, -3, -2, -2, -3
1503944363184,+0.834,+0.542,-0.064,-0.086,+0.919,+0.022,-0.395,-21.312,-40.125,-21.938,-1, -4, -3, -2, -2, 0, 0, 2
1503944363199,+0.838,+0.535,-0.067,-0.085,+0.918,+0.014,-0.406,-17.250,-41.125,-22.188,1, -1, 0, 0, -1, 1, 0, 1
1503944363221,+0.842,+0.529,-0.070,-0.083,+0.911,+0.008,-0.404,-15.062,-40.562,-21.438,-1, -6, -3, -1, 2, -3, -3, -1
1503944363244,+0.846,+0.522,-0.073,-0.082,+0.909,+0.017,-0.433,-11.188,-38.250,-22.438,2, 4, 3, -1, 6, 1, 1, 1
1503944363259,+0.849,+0.516,-0.075,-0.079,+0.921,+0.033,-0.431,-5.000,-38.312,-23.938,-3, -3, -1, -2, -4, -3, 0, -2
1503944363282,+0.853,+0.511,-0.076,-0.076,+0.930,-0.006,-0.423,+0.562,-38.562,-25.250,-4, -2, -2, 3, -1, 2, 1, 0
1503944363305,+0.856,+0.506,-0.076,-0.074,+0.945,-0.012,-0.403,+1.875,-33.375,-21.625,3, -2, -3, -3, -3, -2, -4, -2
1503944363320,+0.858,+0.502,-0.076,-0.071,+0.940,+0.015,-0.408,+5.062,-29.625,-20.125,-3, -1, 0, 1, 1, 0, 0, 1
1503944363342,+0.861,+0.498,-0.076,-0.068,+0.930,+0.036,-0.446,+6.812,-31.812,-19.875,2, 1, 2, 0, -3, -4, -2, -4
1503944363364,+0.865,+0.493,-0.075,-0.065,+0.901,+0.026,-0.470,+9.000,-34.000,-17.188,2, 3, 0, 0, -3, 1, -2, 0
1503944363380,+0.867,+0.489,-0.073,-0.063,+0.875,+0.028,-0.458,+9.000,-26.625,-10.750,0, -6, -2, 0, 2, -4, -2, -3
1503944363402,+0.868,+0.487,-0.072,-0.061,+0.879,+0.065,-0.454,+8.938,-14.062,-8.875,5, 1, 1, -1, -2, 0, 4, 4
1503944363424,+0.870,+0.485,-0.071,-0.059,+0.918,+0.082,-0.457,+11.688,-15.438,-8.938,-1, -2, -2, -2, 1, 1, -2, -1
1503944363441,+0.871,+0.483,-0.070,-0.057,+0.938,+0.063,-0.459,+11.500,-17.312,-8.812,-7, -6, -4, 0, -2, 2, -1, -4
1503944363461,+0.872,+0.482,-0.068,-0.055,+0.916,+0.075,-0.450,+11.062,-13.188,-6.562,-2, -4, -1, 0, 1, -2, 0, -1
1503944363484,+0.873,+0.480,-0.067,-0.054,+0.896,+0.085,-0.454,+9.500,-12.438,-4.375,-1, 5, 1, -3, -3, 0, 0, 1
1503944363500,+0.874,+0.479,-0.066,-0.053,+0.929,+0.074,-0.449,+8.625,-14.438,-1.625,-1, 1, 0, 0, -1, -2, 0, -2
1503944363522,+0.875,+0.478,-0.064,-0.052,+0.910,+0.054,-0.453,+7.500,-13.000,-0.812,0, 2, 1, 1, 1, 0, -1, -1
1503944374847,+0.804,+0.585,-0.027,-0.105,+0.951,-0.070,-0.266,-2.562,+4.438,-14.562,1, -3, -2, -1, 2, 0, 0, -2
1503944374869,+0.804,+0.585,-0.029,-0.103,+0.952,-0.069,-0.273,-3.250,+3.438,-13.938,-4, -1, -1, -2, -2, -1, -2, 1
1503944374891,+0.804,+0.585,-0.031,-0.102,+0.977,-0.081,-0.275,-4.250,+2.375,-14.125,4, -2, 0, 0, 1, -5, -5, 0
1503944374913,+0.804,+0.585,-0.033,-0.100,+0.972,-0.065,-0.278,-4.125,+2.000,-15.562,-3, 1, 0, -2, 0, 3, 3, 1
1503944374930,+0.804,+0.585,-0.035,-0.097,+0.968,-0.051,-0.271,-2.750,-1.000,-18.500,-1, -2, -3, -2, -2, -1, 9, 3
1503944374951,+0.805,+0.585,-0.037,-0.095,+0.993,-0.048,-0.275,-1.875,-1.250,-19.625,-2, 0, -1, -1, -2, -2, -3, -4
1503944374967,+0.805,+0.584,-0.039,-0.092,+1.006,-0.031,-0.258,-0.125,-4.625,-18.625,2, -4, -1, -1, 0, -1, 0, 1
1503944374989,+0.806,+0.583,-0.040,-0.089,+1.047,-0.014,-0.253,-0.688,-8.750,-16.625,-1, 4, 1, 2, -2, -1, -4, -1
1503944375011,+0.807,+0.582,-0.042,-0.087,+1.065,+0.012,-0.256,+0.625,-13.500,-13.875,-3, -2, -4, -2, -2, 0, 0, -1
1503944375033,+0.809,+0.579,-0.042,-0.085,+1.043,+0.018,-0.267,+2.250,-20.062,-8.000,-1, -3, 0, 0, 1, -5, -27, -3
1503944375049,+0.811,+0.577,-0.041,-0.085,+1.012,-0.012,-0.301,+3.438,-18.500,+2.438,6, 3, -1, -3, 1, 0, 8, 1
1503944375071,+0.812,+0.576,-0.040,-0.086,+0.951,-0.037,-0.293,+1.812,-5.438,+9.938,-5, -1, 0, 1, 0, 2, 3, -2
1503944375094,+0.811,+0.577,-0.038,-0.088,+0.947,-0.039,-0.290,+1.812,+9.062,+16.188,-1, -5, -2, 0, -2, -4, 0, -3
1503944375109,+0.809,+0.580,-0.035,-0.091,+0.984,-0.073,-0.290,+1.750,+15.812,+21.625,1, 1, 0, -3, -5, -2, -1, -1
1503944375132,+0.807,+0.582,-0.032,-0.095,+1.011,-0.102,-0.292,+0.062,+16.312,+24.750,2, 4, -1, 0, -1, 2, 5, 1
1503944375156,+0.805,+0.584,-0.030,-0.098,+0.963,-0.104,-0.295,-1.312,+14.312,+23.688,-1, -2, -2, 0, -1, 2, -2, -2
1503944375169,+0.804,+0.585,-0.028,-0.101,+0.941,-0.095,-0.301,-1.000,+11.750,+19.188,-2, 3, 0, 0, 0, -4, -1, 0
1503944375195,+0.803,+0.586,-0.026,-0.103,+0.927,-0.102,-0.292,+1.000,+7.062,+14.062,1, 0, 1, -1, -2, -2, -3, -2
1503944375213,+0.803,+0.587,-0.024,-0.103,+0.921,-0.092,-0.281,+2.750,+6.562,+5.625,5, -2, 1, 1, -1, 2, 1, 0
1503944375231,+0.802,+0.588,-0.024,-0.103,+0.907,-0.080,-0.276,+4.688,+7.312,-1.375,-6, -9, -4, 0, 1, -2, 1, -1
1503944375252,+0.802,+0.588,-0.024,-0.101,+0.893,-0.072,-0.269,+6.500,+7.062,-7.188,-1, 0, -2, -2, 0, -2, 4, 0
1503944375267,+0.802,+0.589,-0.023,-0.099,+0.896,-0.080,-0.250,+6.875,+4.938,-10.875,-3, 0, -1, 1, -4, -1, -4, -1
1503944375292,+0.802,+0.589,-0.024,-0.096,+0.893,-0.063,-0.241,+6.688,+3.000,-13.438,-2, 0, 0, 0, 0, -2, 0, -1
1503944375311,+0.802,+0.590,-0.024,-0.093,+0.893,-0.058,-0.269,+6.312,+4.812,-16.562,-1, 2, -1, -2, 2, -4, 0, 1
1503944375327,+0.802,+0.590,-0.025,-0.090,+0.906,-0.030,-0.270,+6.312,+4.562,-16.625,-3, -3, -1, -4, 0, 3, 8, 1
1503944375349,+0.802,+0.590,-0.026,-0.087,+0.931,-0.020,-0.266,+6.125,-1.250,-13.812,4, 3, 0, -2, 0, -5, -5, -2
1503944375372,+0.803,+0.589,-0.027,-0.085,+0.967,-0.038,-0.246,+3.438,-7.438,-12.062,-4, -1, 1, 0, 3, 1, -3, -1
1503944375387,+0.804,+0.588,-0.028,-0.082,+0.975,-0.042,-0.232,+1.812,-11.312,-13.875,3, 3, 0, 0, 0, 1, 5, 1
1503944375409,+0.806,+0.585,-0.029,-0.080,+0.944,-0.035,-0.247,-0.312,-16.062,-14.375,-2, -3, -2, -1, 2, -3, 9, -3
1503944375433,+0.808,+0.583,-0.030,-0.079,+0.920,-0.037,-0.265,-2.312,-16.312,-13.312,-4, -5, -1, -1, -1, 0, -1, -1
1503944375453,+0.809,+0.581,-0.031,-0.077,+0.971,-0.032,-0.260,-4.188,-13.250,-13.062,3, 1, 0, 1, -2, 2, -2, -2
1503944375470,+0.811,+0.580,-0.033,-0.076,+1.008,-0.027,-0.256,-4.938,-13.625,-11.750,-1, 1, 0, -2, -2, -2, -3, 0
1503944375493,+0.812,+0.577,-0.035,-0.075,+1.016,-0.032,-0.249,-7.000,-19.312,-12.812,-4, -3, 0, -3, 1, -2, -10, -2
1503944375513,+0.815,+0.574,-0.037,-0.074,+1.001,-0.021,-0.264,-8.375,-24.125,-13.250,1, -4, -1, -2, -2, -5, -3, -1
1503944375531,+0.817,+0.571,-0.039,-0.072,+0.947,+0.001,-0.292,-7.375,-24.500,-17.062,-3, 3, 1, 2, -5, -1, -3, -3
1503944375552,+0.819,+0.567,-0.042,-0.070,+0.936,+0.015,-0.304,-5.188,-20.750,-19.375,-1, 0, -2, -2, -2, -1, 2, 2
1503944375573,+0.821,+0.565,-0.043,-0.067,+0.946,+0.012,-0.335,-1.562,-16.125,-18.500,0, -2, 0, -1, 1, 2, 1, -2
1503944375592,+0.823,+0.563,-0.045,-0.065,+0.964,+0.010,-0.323,-0.375,-14.188,-17.438,2, -1, 0, -2, 1, -1, 2, 2
1503944375612,+0.824,+0.561,-0.046,-0.062,+0.997,+0.006,-0.305,-1.125,-15.125,-17.188,1, -1, -3, 3, 4, 1, -4, -1
1503944375634,+0.826,+0.558,-0.047,-0.060,+0.996,+0.011,-0.320,+0.125,-17.812,-16.062,0, -1, -1, 1, -2, 0, -5, -3
1503944375649,+0.828,+0.555,-0.048,-0.058,+0.962,+0.035,-0.338,+0.750,-20.750,-15.750,-2, -1, -2, -1, 0, 0, -1, -1
1503944375672,+0.830,+0.552,-0.049,-0.056,+0.920,+0.042,-0.359,+1.000,-19.312,-13.062,0, 1, 1, -1, 0, -2, -2, -3
1503944375693,+0.832,+0.550,-0.050,-0.054,+0.924,+0.039,-0.354,+2.062,-16.750,-9.188,-5, -5, -1, 1, -3, -2, 6, 2
1503944375709,+0.834,+0.547,-0.049,-0.053,+0.942,+0.040,-0.358,+4.438,-15.938,-4.938,2, 1, -1, 0, -2, -1, -4, -2
1503944375732,+0.835,+0.546,-0.049,-0.053,+0.907,+0.022,-0.335,+0.562,-13.188,-1.875,-7, -1, 0, -3, 0, -2, 2, -1
1503944375753,+0.836,+0.545,-0.049,-0.053,+0.900,+0.032,-0.335,-0.312,-6.375,+0.312,2, -4, -3, 1, -4, -2, 1, -1
1503944375769,+0.836,+0.544,-0.048,-0.053,+0.917,+0.029,-0.356,-1.188,-0.750,+4.500,-2, -2, -4, 0, -3, 0, -4, -3
1503944375793,+0.835,+0.545,-0.048,-0.054,+0.929,+0.024,-0.368,-0.312,+2.375,+6.125,-1, 0, 1, -3, 0, 1, -3, -4
1503944375813,+0.835,+0.545,-0.047,-0.055,+0.952,+0.029,-0.380,-0.688,+1.938,+4.500,-2, -4, 0, -1, 1, 0, -1, -2
1503944375830,+0.836,+0.545,-0.047,-0.055,+0.946,+0.029,-0.372,+0.438,-1.125,+1.750,-1, 1, 0, 2, 0, 2, 0, 1
1503944375851,+0.836,+0.544,-0.046,-0.055,+0.898,+0.018,-0.341,+0.375,-1.875,+0.062,1, 0, -3, -3, -2, -2, -3, -2
1503944375874,+0.836,+0.545,-0.046,-0.054,+0.879,+0.021,-0.367,+2.750,+3.875,-1.812,-6, -10, -4, -1, 1, -4, -1, -2
1503944375889,+0.835,+0.546,-0.045,-0.052,+0.909,+0.038,-0.385,+6.375,+10.188,-3.188,1, 1, 0, 1, -5, 1, -2, -1
1503944375911,+0.835,+0.547,-0.045,-0.051,+0.917,+0.045,-0.375,+6.062,+7.438,-3.062,0, 3, 0, 0, 1, -3, -1, 1
1503944375934,+0.835,+0.547,-0.044,-0.050,+0.942,+0.032,-0.350,+5.062,+0.812,-2.438,0, -1, -2, -2, 0, 1, 2, 0
1503944375949,+0.835,+0.547,-0.044,-0.049,+0.975,+0.027,-0.339,+4.750,-3.688,-2.812,1, -7, -2, -3, 1, -2, -3, -4
1503944375972,+0.836,+0.545,-0.043,-0.048,+0.945,+0.026,-0.346,+4.500,-8.250,-1.500,-2, 1, 2, 1, -7, 1, 3, 1
1503944375995,+0.836,+0.544,-0.043,-0.048,+0.904,+0.027,-0.329,+1.875,-10.500,-2.062,2, -3, -4, -2, 2, 2, -6, -2
1503944376009,+0.837,+0.543,-0.042,-0.047,+0.921,+0.029,-0.339,+1.000,-7.875,-1.750,-2, 2, 0, -1, 0, -1, 2, 2
1503944376032,+0.837,+0.543,-0.042,-0.047,+0.951,+0.035,-0.340,+2.938,-2.750,-2.000,-2, -1, -1, -2, -1, -2, 2, -3
1503944386081,+0.838,+0.477,-0.103,-0.245,+0.818,-0.018,-0.469,+6.750,+12.062,-12.688,4, 3, -2, -2, 1, -1, -3, -3
1503944386099,+0.838,+0.478,-0.104,-0.242,+0.863,-0.015,-0.494,+8.562,+12.938,-10.125,-4, -5, 1, 3, 0, 0, 0, 2
1503944386119,+0.839,+0.478,-0.103,-0.239,+0.870,-0.038,-0.490,+9.438,-2.188,-11.000,-3, 0, -4, -2, -3, 0, 0, -3
1503944386142,+0.840,+0.476,-0.103,-0.237,+0.860,-0.061,-0.461,+3.250,-12.938,-13.438,-4, -3, -2, 0, -1, -1, 0, -2
1503944386158,+0.842,+0.474,-0.103,-0.236,+0.846,-0.049,-0.452,-1.125,-12.312,-12.125,0, -1, -1, -1, 0, 0, -1, 0
1503944386179,+0.843,+0.473,-0.104,-0.235,+0.855,-0.035,-0.462,-1.875,-9.438,-9.438,-1, 0, 8, 1, -3, -2, -1, -1
1503944386201,+0.844,+0.471,-0.104,-0.234,+0.861,-0.036,-0.479,-2.938,-10.688,-7.188,0, 1, -2, -3, -1, -1, 0, -3
1503944386217,+0.845,+0.469,-0.105,-0.234,+0.925,-0.040,-0.457,-6.750,-16.938,-5.188,1, 2, 2, 1, -2, -2, 0, 0
1503944386239,+0.847,+0.466,-0.105,-0.234,+0.947,-0.030,-0.474,-9.188,-25.188,-2.312,-7, -3, -1, -5, 2, 0, -2, -1
1503944386261,+0.849,+0.461,-0.106,-0.235,+0.889,+0.003,-0.481,-8.062,-32.625,-3.188,-6, -3, -6, 1, -4, 0, -1, 1
1503944386277,+0.852,+0.455,-0.106,-0.235,+0.847,+0.019,-0.507,-7.250,-38.250,-7.188,3, 1, 0, -3, 2, -3, -1, -3
1503944386301,+0.856,+0.449,-0.107,-0.234,+0.814,+0.011,-0.528,-8.250,-41.875,-8.562,1, -2, -1, 0, 0, 2, -1, 0
1503944386321,+0.858,+0.443,-0.107,-0.235,+0.793,+0.007,-0.532,-9.812,-33.062,-5.000,6, 4, 3, -1, 0, 0, -2, -3
1503944386336,+0.860,+0.440,-0.108,-0.235,+0.794,+0.013,-0.544,-10.125,-20.375,-3.188,-7, -5, -1, -2, 0, 1, -2, -2
1503944386359,+0.861,+0.437,-0.109,-0.236,+0.833,+0.008,-0.551,-8.812,-15.312,-1.438,-2, 1, -1, 0, -3, -2, 0, -2
1503944386381,+0.862,+0.434,-0.109,-0.236,+0.855,-0.004,-0.572,-8.562,-16.438,-1.438,0, 0, -1, -2, 0, 0, -2, 1
1503944386397,+0.864,+0.431,-0.110,-0.237,+0.810,+0.008,-0.578,-9.000,-20.000,-3.312,-2, 0, 1, 0, 0, 0, -1, -3
1503944386419,+0.865,+0.428,-0.111,-0.237,+0.753,+0.018,-0.592,-8.250,-13.188,-3.938,-3, -6, -1, -3, -1, -2, 1, -2
1503944386441,+0.865,+0.427,-0.112,-0.237,+0.747,+0.028,-0.588,-5.875,+1.188,-0.312,-2, 3, 2, -4, 0, -1, -3, 0
1503944386456,+0.864,+0.429,-0.113,-0.237,+0.786,+0.021,-0.569,-4.125,+15.000,+2.438,1, 0, 2, 1, -1, -2, 1, -1
1503944386479,+0.863,+0.432,-0.113,-0.238,+0.807,-0.010,-0.567,-2.438,+22.125,+6.688,-1, 0, 0, 4, 0, 1, 0, 1
1503944386502,+0.860,+0.436,-0.114,-0.239,+0.838,-0.011,-0.572,-1.750,+26.688,+8.250,1, -7, -6, -2, -2, 1, -2, 0
1503944386516,+0.858,+0.440,-0.114,-0.239,+0.859,-0.013,-0.570,-0.062,+23.375,+7.375,-4, -2, 0, 0, 0, 0, 0, -3
1503944386540,+0.857,+0.442,-0.114,-0.239,+0.875,-0.019,-0.565,+2.250,+14.125,+6.000,-1, -2, -7, -2, -4, 0, 1, -1
1503944386561,+0.857,+0.443,-0.112,-0.240,+0.866,-0.037,-0.545,+4.500,+5.062,+4.000,-4, -5, -3, -1, 1, -1, 1, -1
1503944386577,+0.857,+0.443,-0.111,-0.239,+0.858,-0.039,-0.529,+4.312,-1.750,+0.438,-1, 0, -1, 1, 0, -2, -3, -2
1503944386599,+0.857,+0.443,-0.110,-0.239,+0.832,-0.038,-0.515,+4.188,-8.562,-3.375,1, 1, -2, 0, -2, -1, -2, 2
1503944386621,+0.859,+0.441,-0.109,-0.238,+0.834,-0.042,-0.510,+4.562,-13.500,-6.062,2, -1, 0, -1, -1, 2, 3, 0
1503944386638,+0.860,+0.440,-0.108,-0.237,+0.837,-0.048,-0.496,+2.562,-13.562,-7.938,1, -2, -1, 0, -2, 0, -1, 0
1503944386659,+0.861,+0.438,-0.108,-0.236,+0.862,-0.026,-0.514,+0.438,-14.562,-6.875,2, -2, -2, -2, -1, 0, 0, -1
1503944386682,+0.862,+0.435,-0.108,-0.235,+0.916,-0.000,-0.528,-3.750,-23.875,-3.812,-6, -10, -5, -4, -3, -1, -4, -4
1503944386697,+0.865,+0.430,-0.108,-0.236,+0.861,+0.017,-0.557,-5.000,-33.375,-1.938,-2, 3, 1, 1, -3, -1, 0, 0
1503944386719,+0.867,+0.425,-0.108,-0.237,+0.786,+0.027,-0.553,-8.125,-34.125,-1.750,5, 1, 1, 2, -1, -2, -1, -2
1503944386742,+0.869,+0.421,-0.108,-0.238,+0.755,+0.039,-0.590,-7.500,-23.000,+3.000,1, 8, 14, 0, 1, -1, -1, 0
1503944386757,+0.869,+0.419,-0.108,-0.240,+0.750,+0.017,-0.599,-5.438,-4.625,+11.250,-3, 0, -3, -3, -3, -2, 1, -2
1503944386780,+0.867,+0.422,-0.108,-0.242,+0.770,+0.002,-0.590,-6.312,+16.562,+16.625,2, -3, -6, -1, 2, -1, -1, -1
1503944386803,+0.864,+0.426,-0.109,-0.245,+0.805,+0.005,-0.586,-5.688,+29.812,+20.938,-4, 0, 6, 0, 0, 0, 1, -2
1503944386816,+0.861,+0.431,-0.109,-0.247,+0.840,+0.006,-0.587,-3.438,+35.688,+21.938,-2, -1, -6, 0, -2, -2, -1, -1
1503944386839,+0.857,+0.437,-0.109,-0.250,+0.851,-0.017,-0.575,-0.438,+32.812,+19.812,0, -4, -4, 1, -3, -3, -2, 3
1503944386861,+0.855,+0.441,-0.108,-0.251,+0.859,-0.037,-0.573,+1.750,+26.375,+18.062,-5, -3, -2, 0, 1, -2, 1, -2
1503944386878,+0.853,+0.444,-0.107,-0.253,+0.850,-0.050,-0.573,+4.375,+19.375,+15.562,-3, -4, -2, -2, 0, 5, -1, -1
1503944386899,+0.852,+0.446,-0.105,-0.254,+0.815,-0.067,-0.553,+5.875,+12.938,+11.625,0, -1, -1, -2, -2, -9, -4, 1
1503944386921,+0.850,+0.449,-0.104,-0.255,+0.786,-0.085,-0.537,+7.062,+15.562,+7.812,0, 1, -2, 0, 1, 0, 0, -1
1503944386938,+0.849,+0.452,-0.102,-0.254,+0.780,-0.075,-0.534,+9.375,+21.438,+4.812,4, 6, -3, -2, -1, -1, -1, -1
1503944401230,+0.750,+0.644,-0.036,-0.146,+1.012,-0.145,-0.098,-10.688,+12.750,+19.562,4, -2, -1, 0, 0, 0, -1, 1
1503944401252,+0.749,+0.645,-0.036,-0.150,+0.984,-0.149,-0.112,-11.812,+6.312,+17.562,0, 2, 0, -1, -3, -2, -1, 0
1503944401270,+0.748,+0.645,-0.035,-0.154,+0.909,-0.160,-0.115,-13.438,+2.375,+16.500,4, 3, -1, -3, -2, 1, 0, -1
1503944401290,+0.747,+0.645,-0.035,-0.157,+0.907,-0.184,-0.110,-16.375,+1.875,+15.375,3, -3, -1, -3, -1, -3, -2, 0
1503944401315,+0.746,+0.645,-0.035,-0.161,+0.920,-0.189,-0.119,-17.562,+5.938,+14.375,-5, -7, -2, -2, 0, -1, 0, -3
1503944401328,+0.745,+0.645,-0.036,-0.165,+0.883,-0.186,-0.133,-17.562,+8.000,+12.188,-2, -1, -1, 1, -2, 1, 0, 0
1503944401350,+0.744,+0.645,-0.035,-0.169,+0.888,-0.207,-0.152,-14.750,+2.938,+13.125,-2, 1, 0, -1, 0, 0, -1, 0
1503944401375,+0.745,+0.644,-0.035,-0.172,+0.913,-0.221,-0.158,-13.625,-2.375,+11.750,3, -1, -2, -3, 0, -1, 1, 1
1503944401388,+0.745,+0.643,-0.035,-0.175,+0.924,-0.212,-0.145,-12.812,-6.250,+7.562,5, 0, -2, 1, 0, -2, -3, -1
1503944401419,+0.746,+0.641,-0.035,-0.177,+0.909,-0.200,-0.152,-8.375,-6.500,+2.250,-3, -1, 2, -2, -1, 0, 1, -2
1503944401433,+0.748,+0.639,-0.035,-0.177,+0.915,-0.213,-0.154,-3.500,-13.250,-3.625,-3, -4, -2, 1, -2, 1, -1, -1
1503944401449,+0.750,+0.637,-0.035,-0.177,+0.930,-0.203,-0.140,-2.500,-17.438,-7.562,1, -3, -2, 0, 2, 0, 0, 1
1503944401472,+0.750,+0.636,-0.036,-0.175,+0.966,-0.158,-0.098,-3.812,-6.688,-9.938,-5, -1, 2, -2, -3, -2, -3, -2
1503944401493,+0.750,+0.637,-0.038,-0.173,+0.980,-0.123,-0.130,+0.062,+5.938,-14.500,-5, -2, -2, 1, 1, 1, -2, -1
1503944401508,+0.750,+0.638,-0.040,-0.170,+1.002,-0.086,-0.140,+4.312,+7.750,-16.688,0, -1, -1, 0, 0, 0, -1, 0
1503944401530,+0.749,+0.640,-0.042,-0.167,+1.070,-0.056,-0.128,+3.938,+12.500,-12.812,1, -5, -2, 0, -1, -3, -1, 1
1503944401552,+0.748,+0.642,-0.044,-0.164,+1.089,-0.039,-0.112,+4.625,+14.062,-10.125,2, 2, 0, -1, 1, -1, 1, -1
1503944401568,+0.748,+0.643,-0.045,-0.160,+1.086,-0.029,-0.132,+6.938,+6.125,-12.438,-6, 0, -1, -1, -2, -1, 0, -2
1503944401590,+0.749,+0.642,-0.047,-0.157,+1.056,-0.029,-0.133,+7.562,-3.312,-15.000,1, 2, -1, -1, 0, -1, 1, -1
1503944401612,+0.750,+0.642,-0.048,-0.153,+1.032,-0.043,-0.125,+9.250,-6.562,-15.812,2, -3, -1, 0, 0, -1, -2, -1
1503944401628,+0.751,+0.641,-0.048,-0.150,+1.035,-0.077,-0.122,+8.438,-7.250,-9.625,-2, 1, -2, 3, 1, -1, -2, 0
1503944401650,+0.752,+0.641,-0.047,-0.149,+1.070,-0.115,-0.098,+4.000,-4.625,-2.375,6, -3, 0, -3, 0, 1, -1, 1
1503944401675,+0.751,+0.641,-0.047,-0.150,+1.033,-0.132,-0.095,-0.562,-2.062,+3.125,-1, -1, -2, -2, -3, 1, -2, -1
1503944401688,+0.751,+0.641,-0.046,-0.151,+0.941,-0.142,-0.124,-3.062,+1.750,+5.250,-5, 0, 1, -2, -3, 0, -3, -2
1503944401717,+0.750,+0.642,-0.046,-0.152,+0.913,-0.150,-0.117,-5.250,+4.688,+7.625,3, 4, 1, 1, 1, -1, -2, 0
1503944401732,+0.749,+0.643,-0.045,-0.155,+0.946,-0.191,-0.094,-8.438,+6.125,+10.812,-5, 1, 0, 0, 0, -2, 3, -2
1503944401750,+0.748,+0.643,-0.044,-0.158,+0.963,-0.223,-0.074,-12.688,+5.625,+11.062,2, 3, -1, -1, -2, -1, -1, -1
1503944401770,+0.746,+0.644,-0.045,-0.162,+0.934,-0.235,-0.059,-17.000,+1.812,+8.312,-1, -4, -2, -1, -2, -1, -1, -2
1503944401792,+0.746,+0.644,-0.046,-0.165,+0.916,-0.217,-0.068,-21.438,-1.625,+3.875,8, 1, -4, 0, 0, -3, -1, 1
1503944401809,+0.746,+0.643,-0.048,-0.168,+0.900,-0.206,-0.096,-23.250,-2.625,-1.125,-4, -2, 1, 1, -1, 0, -1, -5
1503944401830,+0.746,+0.642,-0.051,-0.170,+0.914,-0.185,-0.109,-24.125,-3.438,-6.750,-4, -4, -1, -4, -1, 0, 0, 2
1503944401852,+0.747,+0.640,-0.054,-0.171,+0.940,-0.167,-0.135,-21.938,-4.125,-12.250,-4, -1, 0, 0, -5, -2, -1, -2
1503944401868,+0.748,+0.638,-0.058,-0.171,+0.964,-0.139,-0.154,-18.438,-9.625,-16.750,1, 2, 1, 0, -1, -1, -2, 0
1503944401890,+0.751,+0.635,-0.061,-0.170,+0.951,-0.108,-0.178,-14.812,-16.625,-20.500,-1, 2, -1, 2, -1, 0, 1, -2
1503944401915,+0.753,+0.632,-0.065,-0.169,+0.938,-0.108,-0.164,-13.375,-16.438,-20.000,0, 0, 1, -2, 1, 2, -1, 0
1503944401928,+0.755,+0.630,-0.068,-0.168,+0.937,-0.087,-0.163,-12.625,-8.750,-19.000,1, -3, 1, -2, 1, -3, -2, 2
1503944401951,+0.755,+0.630,-0.071,-0.166,+0.932,-0.063,-0.180,-10.188,+2.000,-17.688,3, 1, -1, -1, -1, 0, -3, 1
1503944401972,+0.756,+0.629,-0.074,-0.164,+0.975,-0.040,-0.187,-5.812,+2.875,-19.750,-1, 0, -1, -1, -1, -2, -2, 0
1503944401988,+0.757,+0.628,-0.077,-0.161,+1.037,-0.043,-0.192,-1.562,-4.250,-20.875,0, 3, -1, 1, 0, 1, -2, -3
1503944402011,+0.760,+0.626,-0.079,-0.158,+1.023,-0.030,-0.170,-0.688,-13.562,-21.500,2, 2, -2, -1, -5, -2, 0, -1
1503944402032,+0.763,+0.622,-0.082,-0.154,+0.978,-0.017,-0.159,-0.625,-22.750,-27.750,-2, -5, -2, 1, 1, -2, 1, 0
1503944402048,+0.766,+0.619,-0.085,-0.151,+0.989,-0.025,-0.151,-0.250,-27.250,-30.688,0, 2, 1, -3, -1, -2, -2, 1
1503944402070,+0.770,+0.615,-0.087,-0.147,+0.946,-0.046,-0.150,-0.562,-28.000,-28.875,2, 2, 0, 0, 0, -1, 0, -1
1503944402092,+0.772,+0.613,-0.089,-0.144,+1.051,-0.032,-0.117,-3.750,-16.000,-25.125,-4, -2, -2, -1, -4, -1, -3, 0
1503944402111,+0.773,+0.611,-0.091,-0.142,+1.032,-0.007,-0.173,-2.500,-13.312,-17.438,-1, -4, -1, 2, -1, -2, 0, 1
1503944402131,+0.775,+0.609,-0.094,-0.140,+0.998,-0.005,-0.185,-6.188,-16.125,-17.812,-2, -1, -3, 0, 0, -1, -2, -2
1503944402152,+0.777,+0.606,-0.096,-0.138,+0.977,+0.001,-0.183,-5.375,-17.688,-19.938,1, 1, 1, -1, 1, 0, 0, 0
1503944402168,+0.780,+0.603,-0.099,-0.136,+0.993,+0.009,-0.198,-6.312,-21.562,-22.688,1, -4, -1, 0, -1, -1, 0, 1
1503944402191,+0.783,+0.599,-0.101,-0.134,+0.996,+0.016,-0.192,-7.750,-23.312,-21.938,0, 0, -3, -2, -1, -2, 2, 0
1503944402213,+0.785,+0.596,-0.104,-0.132,+0.976,+0.020,-0.206,-8.688,-20.062,-18.812,3, -1, -2, 2, 0, -1, -1, 1
1503944402235,+0.787,+0.594,-0.107,-0.131,+0.946,+0.038,-0.232,-9.438,-15.500,-16.938,-2, -2, -1, 1, -4, 1, -1, -2
1503944402251,+0.788,+0.591,-0.109,-0.130,+0.945,+0.059,-0.259,-9.000,-11.000,-15.688,0, 0, 0, -4, -3, -2, -1, -2
1503944402273,+0.790,+0.589,-0.111,-0.128,+0.959,+0.068,-0.268,-6.250,-11.625,-12.812,-1, 3, -1, -2, -2, -1, -1, 1
1503944402288,+0.792,+0.586,-0.113,-0.127,+0.972,+0.066,-0.253,-5.688,-16.062,-14.562,1, -4, 0, 0, -1, 3, 0, 0
1503944402312,+0.794,+0.584,-0.115,-0.126,+0.973,+0.056,-0.238,-6.688,-15.875,-14.125,-3, 1, 2, 0, 1, 0, 1, -1
1503944402333,+0.795,+0.582,-0.117,-0.125,+0.956,+0.063,-0.243,-5.625,-10.312,-10.688,0, -3, -2, -1, -3, -2, -4, -2
1503944402349,+0.796,+0.581,-0.118,-0.124,+0.965,+0.075,-0.251,-4.000,-6.312,-7.938,2, 2, -1, -2, 2, -1, -2, 1
1503944402371,+0.797,+0.579,-0.119,-0.123,+0.985,+0.074,-0.268,-3.500,-7.312,-5.438,-2, -1, -3, -1, -5, -1, 0, -2
1503944402393,+0.798,+0.578,-0.119,-0.123,+0.995,+0.080,-0.279,-1.750,-8.875,-4.312,1, 0, 1, 0, 0, 1, -1, -1
1503944402408,+0.799,+0.576,-0.120,-0.122,+0.988,+0.083,-0.283,-0.188,-11.250,-3.312,-3, -3, -3, -1, -1, -1, 1, -3
1503944402431,+0.801,+0.574,-0.119,-0.122,+0.991,+0.066,-0.269,+0.188,-13.250,-1.938,-1, 2, -1, -2, -2, -3, -3, 0
1503944402454,+0.802,+0.573,-0.119,-0.122,+0.984,+0.059,-0.245,-0.312,-13.125,+1.312,-2, -2, -1, -1, -2, -1, 2, 0
1503944415337,+0.825,+0.548,+0.040,-0.135,+0.994,-0.189,-0.342,-16.125,-7.812,+16.062,-1, 0, 2, -2, -3, -1, -4, 1
1503944415359,+0.826,+0.545,+0.040,-0.141,+0.927,-0.258,-0.332,-21.938,-17.625,+22.625,1, -4, -3, 0, 0, -1, -3, -1
1503944415381,+0.826,+0.543,+0.040,-0.146,+0.893,-0.293,-0.357,-22.438,-4.875,+24.688,-2, -2, -5, -2, 0, 1, 0, -2
1503944415397,+0.824,+0.544,+0.039,-0.152,+0.883,-0.261,-0.407,-28.312,+10.625,+21.438,0, -13, -5, -2, 1, -3, -1, -1
1503944415419,+0.823,+0.545,+0.037,-0.156,+0.838,-0.206,-0.403,-20.125,+16.875,+12.625,-3, 1, 2, -2, -1, 1, -1, -1
1503944415442,+0.822,+0.546,+0.034,-0.157,+0.850,-0.215,-0.430,-14.500,+16.562,-1.938,-2, 4, -1, 0, 2, -4, -2, -3
1503944415457,+0.823,+0.546,+0.031,-0.155,+0.865,-0.179,-0.388,-9.812,+7.500,-17.938,4, 3, -1, -3, -3, -3, 1, -1
1503944415479,+0.823,+0.546,+0.028,-0.151,+0.884,-0.171,-0.350,-0.375,+1.375,-26.000,-6, 4, 6, -1, -3, 1, -2, 0
1503944415504,+0.823,+0.548,+0.026,-0.147,+0.905,-0.148,-0.351,+3.500,+7.000,-28.562,-2, -2, -5, 0, 0, 0, 1, 1
1503944415517,+0.823,+0.549,+0.023,-0.142,+0.944,-0.122,-0.354,+7.375,+10.938,-23.750,0, -1, -1, 1, 0, -2, 0, -3
1503944415539,+0.823,+0.550,+0.023,-0.139,+0.991,-0.124,-0.358,+9.062,+3.500,-13.000,-1, -2, -4, 3, -1, -1, -2, -2
1503944415561,+0.824,+0.550,+0.023,-0.138,+0.933,-0.136,-0.357,+1.938,-4.750,-4.250,-7, -2, 0, -1, 0, 1, -1, 1
1503944415584,+0.824,+0.549,+0.021,-0.138,+0.896,-0.115,-0.317,-9.750,-7.062,+4.062,3, -1, -1, 1, 0, 2, 0, 0
1503944415599,+0.824,+0.548,+0.020,-0.141,+0.940,-0.156,-0.299,-16.000,-7.188,+12.188,-2, -4, -3, -1, 0, -3, -1, -4
1503944415621,+0.824,+0.547,+0.019,-0.145,+0.956,-0.209,-0.284,-21.250,-11.500,+16.000,-2, 1, 0, 1, -2, 3, 0, 1
1503944415637,+0.825,+0.545,+0.017,-0.150,+0.900,-0.210,-0.312,-29.875,-11.750,+14.125,-2, -1, -2, 0, -2, -2, 0, -3
1503944415659,+0.826,+0.543,+0.014,-0.154,+0.843,-0.172,-0.358,-33.062,-5.938,+7.625,-2, 1, -3, -2, -1, -3, -1, -2
1503944415682,+0.826,+0.541,+0.009,-0.157,+0.840,-0.158,-0.388,-31.688,-2.250,-0.500,0, 0, 4, 0, -1, 0, 0, -1
1503944415705,+0.826,+0.540,+0.004,-0.159,+0.887,-0.161,-0.392,-31.000,+1.812,-6.250,4, 12, -8, -1, -1, -1, -1, 0
1503944415719,+0.826,+0.540,-0.001,-0.160,+0.889,-0.154,-0.381,-30.562,+6.188,-11.562,-5, -7, 0, -3, -3, -3, -2, 0
1503944415743,+0.827,+0.539,-0.007,-0.159,+0.853,-0.136,-0.391,-28.438,+3.125,-19.438,0, -7, -6, -1, 3, 1, -1, -1
1503944415757,+0.828,+0.538,-0.012,-0.158,+0.849,-0.135,-0.396,-24.625,-0.875,-24.750,-2, 0, 0, -1, -1, -4, -1, -3
1503944415779,+0.829,+0.536,-0.017,-0.156,+0.866,-0.154,-0.395,-21.312,-5.875,-30.000,1, -1, -3, 1, 0, 3, 1, 2
1503944415801,+0.831,+0.534,-0.022,-0.154,+0.902,-0.169,-0.403,-19.250,-8.562,-30.000,-3, 6, 9, -1, 0, -1, 0, -4
1503944415817,+0.833,+0.532,-0.026,-0.152,+0.892,-0.171,-0.423,-16.688,-11.250,-26.375,0, 2, 2, -4, -4, -1, -2, 1
1503944415841,+0.835,+0.529,-0.028,-0.150,+0.891,-0.153,-0.424,-12.375,-14.250,-22.312,1, -6, -3, 1, 0, -1, 1, -1
1503944415862,+0.837,+0.526,-0.030,-0.148,+0.888,-0.146,-0.434,-6.812,-14.438,-21.062,-4, -2, -3, -4, 0, 0, 0, 2
1503944415877,+0.839,+0.523,-0.031,-0.146,+0.892,-0.147,-0.455,-2.438,-16.500,-17.250,2, -1, 0, 0, -1, -1, -3, -4
1503944415899,+0.842,+0.519,-0.031,-0.144,+0.852,-0.139,-0.467,+2.125,-23.938,-16.750,0, -5, -2, -3, -3, 1, 1, 0
1503944415921,+0.844,+0.517,-0.031,-0.141,+0.858,-0.125,-0.413,+3.500,-16.438,-16.000,1, 2, -2, 0, 3, -1, -1, -1
1503944415939,+0.844,+0.517,-0.030,-0.139,+0.959,-0.101,-0.410,+5.750,-4.250,-12.062,1, 0, -1, -2, 1, -3, -1, 1
1503944415959,+0.844,+0.517,-0.030,-0.137,+1.016,-0.089,-0.387,+8.938,-3.125,-7.688,-1, -4, 0, 0, -3, -1, -1, 1
1503944415983,+0.844,+0.517,-0.029,-0.136,+1.020,-0.092,-0.378,+6.188,-7.500,-4.188,-1, 2, -3, -1, 0, 1, -1, -2
1503944416007,+0.845,+0.516,-0.028,-0.135,+1.012,-0.048,-0.405,+5.000,-11.125,-0.500,1, -2, 0, 0, 0, -1, 0, -3
1503944416019,+0.846,+0.515,-0.028,-0.134,+0.956,-0.015,-0.424,+6.000,-11.625,+2.500,1, -2, -2, 1, 0, -1, -1, 0
1503944416042,+0.847,+0.514,-0.027,-0.134,+0.907,-0.025,-0.435,+4.188,-7.875,+6.125,-1, -1, -3, -2, 0, 0, 1, -3
1503944416057,+0.846,+0.514,-0.026,-0.136,+0.914,-0.047,-0.424,+0.062,+1.438,+15.125,-4, -5, -3, 1, -2, -1, -2, -1
1503944416080,+0.845,+0.516,-0.025,-0.139,+0.943,-0.063,-0.414,-3.125,+9.812,+23.625,0, -1, -3, -2, 0, -1, -2, 0
1503944416102,+0.843,+0.518,-0.024,-0.142,+0.955,-0.074,-0.390,-6.562,+10.250,+22.562,-5, -1, 2, 0, 1, 2, -1, -1
1503944416124,+0.842,+0.519,-0.024,-0.145,+0.906,-0.083,-0.410,-10.438,+4.688,+17.375,-2, 2, 3, 0, -3, -5, -1, -2
1503944416142,+0.842,+0.518,-0.025,-0.148,+0.838,-0.090,-0.436,-13.375,+2.938,+9.750,-2, -2, -3, -3, -1, 1, 0, -1
1503944416161,+0.842,+0.518,-0.028,-0.149,+0.816,-0.065,-0.435,-15.938,+4.500,+0.625,0, 0, 0, 0, -1, 0, -1, 1
1503944416184,+0.842,+0.517,-0.031,-0.149,+0.831,-0.060,-0.435,-14.750,+2.500,-8.375,-1, -1, -3, 0, -2, 0, 0, 0
1503944416200,+0.842,+0.517,-0.034,-0.148,+0.848,-0.090,-0.430,-12.875,+4.250,-15.812,-2, -2, 2, -2, 1, -2, -2, 0
1503944416221,+0.842,+0.517,-0.037,-0.146,+0.838,-0.071,-0.449,-10.938,+8.500,-20.062,2, 0, 0, -1, -3, -3, -2, 0
1503944416247,+0.844,+0.516,-0.040,-0.143,+0.804,-0.063,-0.438,-8.875,-2.562,-25.125,-1, -2, -5, -3, 1, -2, 1, 2
1503944416259,+0.846,+0.513,-0.043,-0.139,+0.910,-0.080,-0.459,-8.625,-15.562,-28.375,0, 1, 0, 0, 1, 0, -4, -3
1503944416284,+0.849,+0.508,-0.045,-0.136,+0.872,-0.085,-0.494,-2.875,-27.750,-28.438,1, -3, -4, -2, -2, -1, 0, -2
1503944428889,+0.777,+0.623,+0.014,-0.087,+1.036,-0.083,-0.178,+4.438,+12.688,-6.688,-4, -1, -2, 0, 2, -1, -1, -3
1503944428911,+0.777,+0.624,+0.013,-0.086,+1.060,-0.084,-0.183,+1.000,+2.438,-3.812,6, 1, 1, -1, -1, 0, -4, 2
1503944428929,+0.778,+0.622,+0.013,-0.086,+1.001,-0.069,-0.202,-1.562,-9.312,-0.188,-11, -2, -1, 1, -2, -1, -1, 1
1503944428950,+0.779,+0.621,+0.013,-0.086,+0.956,-0.064,-0.199,-2.500,-10.188,+6.188,3, -1, -2, 0, -2, -1, 0, -1
1503944428973,+0.780,+0.620,+0.014,-0.087,+0.971,-0.074,-0.202,-1.188,-6.688,+11.625,-3, 0, 0, -4, 0, -2, -2, 0
1503944428987,+0.780,+0.619,+0.015,-0.089,+0.997,-0.100,-0.198,-0.375,-4.938,+13.625,4, -1, -1, 0, -2, -3, -1, -2
1503944429010,+0.781,+0.618,+0.016,-0.091,+1.001,-0.124,-0.193,-2.188,-4.000,+13.562,2, -1, 0, -1, -3, 1, 1, 0
1503944429032,+0.781,+0.618,+0.017,-0.092,+0.986,-0.126,-0.178,-2.938,-5.562,+10.750,3, 1, 1, -1, 0, -3, -2, -5
1503944429047,+0.781,+0.617,+0.018,-0.093,+0.984,-0.130,-0.177,-2.375,-6.625,+5.000,-8, -3, -2, -2, 0, -1, -1, -1
1503944429070,+0.782,+0.616,+0.018,-0.093,+0.974,-0.145,-0.197,-1.438,-5.062,+1.500,4, -1, 1, -2, 0, 0, -1, -3
1503944429092,+0.782,+0.616,+0.018,-0.093,+0.964,-0.133,-0.191,+0.750,+1.750,+0.250,1, 3, -1, 1, 0, -1, 0, 1
1503944429107,+0.781,+0.617,+0.019,-0.093,+0.965,-0.135,-0.186,+4.000,+4.500,+2.188,-2, -4, -3, 0, -2, -2, -2, 0
1503944429132,+0.780,+0.618,+0.020,-0.092,+0.958,-0.158,-0.187,+5.875,+6.688,+1.938,-4, -1, 2, -3, -1, 2, 3, -4
1503944429152,+0.779,+0.620,+0.020,-0.092,+0.938,-0.135,-0.173,+2.812,+11.875,-1.500,-1, -2, -1, 0, -2, -1, 0, 1
1503944429167,+0.777,+0.622,+0.020,-0.091,+0.994,-0.121,-0.139,+1.062,+14.250,-0.750,-2, 1, 2, 0, 0, -2, 1, 0
1503944429189,+0.776,+0.623,+0.020,-0.091,+1.067,-0.130,-0.149,-0.562,+6.438,-0.875,4, 2, -3, 1, 1, -1, -2, 0
1503944429212,+0.777,+0.623,+0.020,-0.091,+1.035,-0.143,-0.188,-4.062,-4.000,+0.312,1, -3, -2, 1, -2, 0, 0, -2
1503944429227,+0.778,+0.621,+0.019,-0.092,+0.958,-0.128,-0.205,-6.688,-8.250,+4.188,-2, -1, 0, -1, 0, 1, -1, -1
1503944429249,+0.779,+0.620,+0.019,-0.093,+0.933,-0.112,-0.205,-5.375,-6.312,+2.500,0, 0, -2, -1, -5, -5, -1, -2
1503944429273,+0.779,+0.619,+0.018,-0.092,+0.953,-0.118,-0.196,-3.188,-2.375,-4.250,-6, -1, -1, -4, 0, 0, -1, 0
1503944429288,+0.780,+0.619,+0.017,-0.091,+0.989,-0.128,-0.187,+0.312,-1.062,-10.062,-1, -2, -1, 0, -2, -2, -2, -1
1503944429311,+0.780,+0.619,+0.016,-0.089,+0.988,-0.135,-0.193,+0.938,-1.062,-11.500,0, 2, -1, -2, 0, 0, -1, -2
1503944429334,+0.780,+0.619,+0.016,-0.087,+0.979,-0.122,-0.205,+2.125,-0.438,-10.188,-4, -2, -2, 1, 0, 0, -1, 1
1503944429356,+0.780,+0.620,+0.016,-0.085,+0.931,-0.098,-0.209,+6.062,+6.750,-6.688,3, 0, -1, -1, -3, -1, -2, -1
1503944429370,+0.779,+0.621,+0.016,-0.084,+0.909,-0.108,-0.191,+7.938,+11.875,-4.625,-1, 1, 1, 2, 1, -1, -1, -1
1503944429392,+0.777,+0.623,+0.017,-0.083,+0.979,-0.141,-0.148,+3.875,+14.688,-0.375,4, 2, -1, -2, 0, 0, -1, -1
1503944429407,+0.776,+0.625,+0.017,-0.083,+1.043,-0.127,-0.131,-0.688,+11.750,+2.125,3, 0, -2, -1, -3, 1, -3, 2
1503944429429,+0.775,+0.625,+0.016,-0.084,+0.998,-0.109,-0.170,-4.562,+0.062,+2.312,-4, -3, 1, -3, 1, -2, 0, -2
1503944429452,+0.777,+0.623,+0.016,-0.086,+0.936,-0.121,-0.196,-8.125,-14.875,+6.250,-4, -4, 1, -2, 1, 0, 0, 1
1503944429474,+0.779,+0.620,+0.017,-0.088,+0.968,-0.157,-0.172,-12.188,-20.625,+8.875,6, 4, -1, 1, -1, -2, -1, -2
1503944429497,+0.781,+0.618,+0.016,-0.091,+0.944,-0.172,-0.169,-16.688,-17.000,+7.438,-4, -4, -2, -3, 0, -2, 1, 2
1503944429512,+0.781,+0.617,+0.015,-0.093,+0.897,-0.137,-0.184,-16.125,-4.125,+5.125,1, -2, 0, 0, -2, -3, -2, -1
1503944429535,+0.781,+0.617,+0.013,-0.095,+0.886,-0.136,-0.202,-12.250,+7.188,-0.062,-3, 4, 1, 2, 3, 0, -1, -1
1503944429549,+0.779,+0.619,+0.011,-0.094,+0.935,-0.127,-0.204,-8.875,+17.375,-7.062,-3, -7, -4, -2, -1, 0, -2, -4
1503944429573,+0.778,+0.621,+0.009,-0.093,+1.011,-0.111,-0.205,-6.125,+14.562,-12.188,-1, 0, -2, -2, 0, 0, 1, 1
1503944429594,+0.777,+0.622,+0.007,-0.092,+1.054,-0.115,-0.195,-3.750,+7.938,-11.562,-8, -2, 0, -2, -3, 0, -2, 1
1503944429609,+0.777,+0.623,+0.006,-0.090,+1.026,-0.090,-0.174,-1.688,+4.438,-10.688,-3, 1, 0, -1, 0, 0, -2, -2
1503944429634,+0.777,+0.623,+0.005,-0.088,+1.020,-0.086,-0.167,+3.625,+3.875,-10.250,8, 4, -2, -1, -2, 0, -1, -2
1503944429654,+0.777,+0.624,+0.005,-0.086,+1.043,-0.101,-0.160,+9.562,+1.125,-8.062,0, -4, -1, -1, -1, 0, -2, -1
1503944429670,+0.777,+0.624,+0.006,-0.084,+1.083,-0.118,-0.145,+8.625,-6.125,-3.688,5, -1, 0, -4, 0, -2, -3, 0
1503944429692,+0.778,+0.623,+0.008,-0.084,+1.078,-0.142,-0.164,+3.875,-12.438,+5.688,-3, 0, 0, 1, 0, -2, 1, -2
1503944429714,+0.779,+0.621,+0.010,-0.086,+0.979,-0.142,-0.181,-0.500,-13.438,+11.375,-1, -3, -2, -5, -3, -1, -1, 0
1503944429729,+0.780,+0.619,+0.011,-0.089,+0.916,-0.136,-0.174,-4.500,-9.625,+15.000,-4, -2, -3, 2, 0, -2, -2, -4
1503944429752,+0.780,+0.619,+0.013,-0.092,+0.937,-0.169,-0.181,-5.438,+0.062,+18.938,3, -1, -2, 0, -2, 0, -2, -1
1503944429779,+0.779,+0.620,+0.015,-0.095,+0.958,-0.180,-0.178,-4.938,+4.125,+18.625,-3, 1, 1, -1, 1, 2, 0, 0
1503944429789,+0.779,+0.620,+0.016,-0.098,+0.966,-0.183,-0.179,-5.250,+0.125,+13.688,-2, -1, -1, 0, -1, -4, -2, -3
1503944429812,+0.779,+0.619,+0.017,-0.099,+0.935,-0.176,-0.183,-3.500,-2.688,+5.250,-4, -1, -1, -1, 0, 2, 0, 1
1503944429839,+0.780,+0.618,+0.016,-0.098,+0.906,-0.140,-0.192,-1.188,-4.562,-6.375,2, -4, -3, 0, -2, 0, -1, -1
1503944429850,+0.780,+0.618,+0.015,-0.096,+0.881,-0.111,-0.197,+1.812,-0.875,-12.438,-5, 1, 0, -3, 0, -3, -3, -2
1503944429872,+0.780,+0.618,+0.015,-0.093,+0.913,-0.116,-0.209,+5.875,+4.250,-15.000,-1, -3, 1, -2, 0, -1, 0, 0
1503944429893,+0.780,+0.619,+0.014,-0.090,+0.935,-0.118,-0.193,+5.625,+7.812,-15.562,-11, -6, -2, 3, 2, -2, -1, -1
1503944429908,+0.779,+0.620,+0.012,-0.088,+0.973,-0.104,-0.152,+2.812,+4.250,-16.625,-4, -2, 0, -2, -3, 0, -2, 1
1503944429931,+0.780,+0.620,+0.011,-0.084,+0.990,-0.101,-0.145,+3.250,-5.438,-18.562,1, 0, 0, -1, -1, -3, 0, -2
1503944429953,+0.782,+0.618,+0.008,-0.081,+0.944,-0.080,-0.163,+0.188,-13.625,-25.188,4, 4, 1, 0, 0, 0, 1, -2
1503944429972,+0.783,+0.617,+0.005,-0.077,+0.941,-0.064,-0.178,-1.875,-14.812,-26.312,4, 0, -4, -2, -2, 0, 1, 2
1503944445524,+0.752,+0.620,-0.074,-0.211,+0.914,-0.112,-0.199,+5.938,-1.875,+14.562,-3, 0, -2, -1, -5, -2, -2, 1
1503944445547,+0.751,+0.621,-0.072,-0.213,+0.924,-0.146,-0.148,+1.000,-0.062,+14.438,0, 5, 2, -1, 0, -4, -1, 1
1503944445561,+0.751,+0.621,-0.070,-0.215,+0.945,-0.200,-0.142,-2.938,-2.125,+13.812,0, -4, -5, -1, -2, 0, 1, -2
1503944445585,+0.750,+0.621,-0.069,-0.218,+0.941,-0.216,-0.135,-8.688,-3.688,+11.562,-1, 0, 4, -1, -2, 0, -4, -2
1503944445606,+0.750,+0.620,-0.069,-0.220,+0.914,-0.204,-0.147,-12.000,-6.000,+6.188,-2, 2, 4, -1, 2, -3, 0, 0
1503944445623,+0.751,+0.618,-0.070,-0.222,+0.885,-0.218,-0.148,-11.625,-9.562,-0.375,-2, -1, 0, -3, 3, 1, -1, 1
1503944445644,+0.752,+0.617,-0.070,-0.223,+0.892,-0.232,-0.142,-11.688,-11.688,-5.938,-2, -9, -8, 1, -4, -1, -1, -2
1503944445666,+0.752,+0.616,-0.072,-0.223,+0.905,-0.207,-0.158,-12.812,-4.000,-10.375,-5, -5, -2, 1, -1, 1, 0, -2
1503944445681,+0.752,+0.616,-0.075,-0.222,+0.910,-0.160,-0.177,-10.750,+6.250,-14.375,2, -1, -2, -1, -3, -1, -1, 0
1503944445704,+0.752,+0.616,-0.078,-0.220,+0.942,-0.135,-0.190,-5.062,+5.750,-19.250,2, -1, -4, 1, 3, -2, 0, 0
1503944445726,+0.753,+0.616,-0.080,-0.217,+0.950,-0.136,-0.188,-3.500,+1.250,-21.500,-1, -5, -1, 1, -1, 0, -3, -1
1503944445741,+0.754,+0.615,-0.083,-0.215,+0.966,-0.134,-0.192,-3.312,-1.625,-20.875,0, -2, -7, -4, -2, -1, 1, 2
1503944445763,+0.756,+0.614,-0.085,-0.212,+0.996,-0.114,-0.188,-2.750,-7.375,-21.000,2, 1, 2, 1, -2, 0, 2, -1
1503944445786,+0.758,+0.611,-0.087,-0.209,+1.019,-0.089,-0.214,+0.438,-15.812,-22.312,0, 3, 0, 1, 2, 0, -3, -1
1503944445800,+0.762,+0.607,-0.088,-0.207,+1.017,-0.081,-0.219,+1.688,-29.500,-18.875,2, 1, 1, -1, -2, 2, -2, -1
1503944445824,+0.766,+0.602,-0.088,-0.206,+1.012,-0.077,-0.221,-3.750,-37.625,-7.625,-7, -4, -4, -2, 1, -1, 2, -1
1503944445845,+0.770,+0.597,-0.088,-0.208,+1.011,-0.073,-0.207,-10.438,-39.125,+5.000,-3, -1, 0, -2, 1, -3, -2, -2
1503944445860,+0.773,+0.592,-0.087,-0.211,+0.956,-0.069,-0.230,-15.062,-34.375,+10.750,-5, -7, -5, 0, -3, 1, 1, -4
1503944445883,+0.775,+0.588,-0.087,-0.214,+0.929,-0.089,-0.241,-11.875,-25.938,+12.938,1, 3, 0, -3, 2, -1, -2, 1
1503944445905,+0.776,+0.586,-0.086,-0.217,+0.956,-0.124,-0.236,-11.438,-15.812,+15.188,-3, -1, -9, -1, -4, 1, -1, -1
1503944445921,+0.776,+0.585,-0.085,-0.220,+0.962,-0.129,-0.235,-10.062,-7.062,+14.250,-1, 1, -1, -1, -2, -2, 0, -2
1503944445942,+0.775,+0.585,-0.085,-0.223,+0.924,-0.145,-0.234,-9.000,-0.125,+9.938,2, -1, 4, -1, -1, 2, 1, 0
1503944445965,+0.774,+0.586,-0.085,-0.224,+0.905,-0.152,-0.253,-7.688,+9.375,+4.625,2, 0, -1, -2, 0, -2, -2, -2
1503944445984,+0.772,+0.588,-0.087,-0.224,+0.925,-0.127,-0.268,-4.375,+18.875,-2.562,-3, -3, -6, -1, 0, -2, 1, 0
1503944446004,+0.772,+0.590,-0.088,-0.222,+0.968,-0.120,-0.257,+0.500,+13.812,-11.938,2, -1, 0, 2, -1, 0, 0, -1
1503944446025,+0.773,+0.589,-0.090,-0.219,+0.997,-0.122,-0.242,+2.688,-3.312,-21.375,3, -4, -4, 2, 1, 0, -1, 1
1503944446040,+0.776,+0.586,-0.091,-0.215,+0.979,-0.125,-0.258,+1.875,-20.875,-28.062,-3, 4, 7, -1, -1, -1, -2, 0
1503944446064,+0.780,+0.581,-0.092,-0.212,+0.932,-0.103,-0.256,+0.625,-35.375,-28.938,3, 7, 16, 1, 0, 0, -1, 0
1503944446085,+0.785,+0.576,-0.094,-0.208,+0.881,-0.089,-0.250,+0.188,-36.188,-27.562,-4, -2, -2, -1, -4, -4, -1, 1
1503944446100,+0.788,+0.572,-0.095,-0.205,+0.891,-0.089,-0.237,-2.062,-26.125,-26.312,-1, 1, -1, 1, -1, 0, -1, -2
1503944446123,+0.790,+0.570,-0.097,-0.204,+0.985,-0.082,-0.249,-4.312,-15.312,-16.938,-5, -1, -7, -4, 1, 0, 0, -2
1503944446146,+0.792,+0.568,-0.098,-0.203,+1.008,-0.071,-0.256,-5.062,-16.125,-9.062,-1, -7, -9, 0, -4, -1, -1, -1
1503944446160,+0.793,+0.565,-0.099,-0.203,+0.981,-0.051,-0.258,-10.562,-18.875,-9.062,4, 1, -3, -1, 2, 0, -1, -2
1503944446186,+0.796,+0.561,-0.101,-0.202,+0.985,-0.028,-0.281,-10.062,-28.875,-12.875,-1, -4, -2, 0, -1, -1, -3, 0
1503944446213,+0.800,+0.556,-0.103,-0.201,+0.969,-0.026,-0.288,-10.688,-37.500,-15.062,-1, -1, -3, -1, 0, -2, -3, 1
1503944446220,+0.804,+0.550,-0.105,-0.200,+0.948,-0.027,-0.294,-11.938,-38.562,-16.812,-2, 4, 2, -1, -1, -1, 1, 0
1503944446243,+0.807,+0.545,-0.107,-0.200,+0.944,-0.020,-0.327,-12.125,-32.125,-17.062,-1, 2, 2, -2, -2, -1, -1, 0
1503944446265,+0.810,+0.541,-0.110,-0.199,+0.912,-0.011,-0.325,-12.812,-23.750,-15.688,-3, -5, -2, -2, -4, -3, 0, -2
1503944446280,+0.812,+0.538,-0.112,-0.198,+0.934,-0.002,-0.334,-11.375,-16.375,-14.312,0, -2, 2, -3, -3, 2, -2, -2
1503944446302,+0.813,+0.536,-0.114,-0.197,+0.967,+0.007,-0.365,-10.750,-15.438,-12.812,-4, -1, 3, 2, 0, -3, -1, -1
1503944446326,+0.816,+0.532,-0.116,-0.197,+0.934,+0.007,-0.395,-11.125,-21.688,-10.688,1, 1, 0, 2, 3, 0, 1, 0
1503944446340,+0.818,+0.527,-0.118,-0.197,+0.884,+0.011,-0.388,-12.688,-24.188,-9.938,3, -1, 3, 1, -2, -1, -1, -3
1503944446365,+0.821,+0.523,-0.120,-0.197,+0.871,+0.035,-0.400,-11.375,-22.312,-8.750,-3, -1, -8, -4, -1, -2, -2, 0
1503944446386,+0.823,+0.520,-0.120,-0.196,+0.846,+0.027,-0.438,-5.500,-16.188,-6.750,0, 0, 3, 2, 2, -1, -1, -1
1503944446400,+0.824,+0.517,-0.120,-0.196,+0.869,-0.010,-0.392,-3.750,-14.250,-3.875,3, 2, -2, 0, -2, -2, 0, 2
1503944446424,+0.825,+0.516,-0.120,-0.197,+0.918,-0.032,-0.399,-1.938,-11.625,+0.750,-1, -2, 1, -3, 0, 0, -2, -2
1503944446445,+0.826,+0.514,-0.119,-0.198,+0.940,-0.019,-0.410,-1.188,-11.250,+2.812,-2, -4, -3, 0, 3, 1, 0, -1
1503944446461,+0.828,+0.512,-0.118,-0.198,+0.961,-0.013,-0.391,+0.750,-19.750,+0.500,-1, 2, -3, 0, -3, -3, -2, -1
1503944446482,+0.830,+0.508,-0.116,-0.199,+0.949,-0.034,-0.381,+0.562,-31.688,-0.312,0, -2, 0, -3, 0, 1, -3, -2
1503944446505,+0.833,+0.503,-0.115,-0.199,+0.918,-0.028,-0.401,-0.562,-33.875,-2.438,-5, -3, 0, -2, -1, -2, -2, -2
1503944446520,+0.835,+0.500,-0.114,-0.199,+0.924,-0.008,-0.404,-2.062,-28.250,-2.375,-1, -1, -2, -2, -3, 0, 0, -1
1503944446543,+0.837,+0.497,-0.114,-0.199,+0.904,-0.006,-0.420,-0.375,-21.062,+0.000,5, 1, 2, -1, -1, -2, -2, 1
1503944446565,+0.838,+0.495,-0.113,-0.200,+0.926,-0.002,-0.418,-2.875,-17.500,-0.812,0, 1, 1, 1, -1, 0, 2, -5
1503944446580,+0.839,+0.492,-0.113,-0.200,+0.950,+0.010,-0.437,-3.000,-17.875,+0.062,-2, -4, -4, -3, -1, -3, -2, -1
1503944446602,+0.841,+0.490,-0.113,-0.201,+0.948,+0.013,-0.434,-4.062,-18.562,+0.750,1, 1, 1, -3, -3, -1, 1, 0
1503944446625,+0.842,+0.487,-0.113,-0.202,+0.931,+0.028,-0.433,-6.750,-18.875,+3.000,-1, 1, 3, -1, 1, -3, -2, 0
1503944446640,+0.843,+0.485,-0.114,-0.203,+0.939,+0.024,-0.450,-8.375,-18.750,+4.500,1, 4, 0, 0, 0, -2, -1, -2
1503944446663,+0.844,+0.483,-0.114,-0.204,+0.925,+0.029,-0.462,-6.000,-16.688,+5.875,1, -2, 0, -1, -1, 0, -1, -2
1503944446692,+0.846,+0.479,-0.113,-0.206,+0.908,+0.006,-0.475,-6.188,-22.625,+4.375,0, -1, -1, -2, -1, 0, -2, -1
1503944446700,+0.847,+0.476,-0.113,-0.208,+0.896,-0.004,-0.456,-9.625,-22.812,+4.625,-1, -2, -2, 2, 0, -1, 2, -1
1503944446726,+0.848,+0.474,-0.113,-0.209,+0.889,+0.016,-0.476,-7.062,-13.500,+6.500,5, -6, -7, -2, -4, 1, -2, -1
1503944446745,+0.848,+0.474,-0.113,-0.210,+0.855,+0.022,-0.481,-3.188,-1.688,+7.938,3, -2, -3, -2, -2, -2, -1, -2
1503944446761,+0.847,+0.475,-0.113,-0.212,+0.845,-0.004,-0.490,-1.812,+8.625,+10.375,-7, -1, 6, -2, 0, 0, -3, -2
1503944446782,+0.845,+0.478,-0.112,-0.213,+0.869,-0.012,-0.507,+0.375,+19.125,+14.188,-1, -4, -6, -2, 1, -2, -3, 0
1503944446805,+0.842,+0.482,-0.111,-0.215,+0.869,-0.002,-0.499,+4.500,+28.188,+16.688,-1, 4, 2, 0, -1, -1, 0, 1
1503944446822,+0.839,+0.487,-0.109,-0.216,+0.882,-0.017,-0.495,+9.188,+33.625,+18.125,-3, 2, 0, 3, -1, 0, 1, -3
1503944446842,+0.836,+0.493,-0.106,-0.217,+0.883,-0.036,-0.485,+12.812,+36.500,+19.875,-2, -10, -3, 2, 0, -1, 2, -1
1503944446865,+0.832,+0.500,-0.104,-0.218,+0.871,-0.060,-0.469,+14.125,+42.000,+23.062,1, 3, 1, 1, -2, 0, 0, -1
1503944446880,+0.828,+0.507,-0.100,-0.220,+0.893,-0.063,-0.439,+15.500,+45.000,+25.625,-3, 1, 2, -1, -1, -1, 0, 3
1503944446903,+0.823,+0.514,-0.097,-0.221,+0.921,-0.081,-0.428,+17.250,+45.438,+27.312,0, -4, 4, -1, -2, -1, 0, -1
1503944446926,+0.819,+0.521,-0.093,-0.222,+0.921,-0.096,-0.415,+19.938,+40.312,+25.938,1, 5, 5, 1, -3, 1, -2, 1
1503944446941,+0.815,+0.527,-0.089,-0.223,+0.900,-0.119,-0.396,+19.625,+33.375,+22.438,0, -1, -4, -3, -2, -1, 1, 0
1503944460537,+0.745,+0.642,-0.045,-0.177,+0.950,-0.156,-0.083,-15.750,-10.188,-21.500,9, 6, 2, 0, -1, -1, -1, -1
1503944460553,+0.746,+0.640,-0.049,-0.175,+0.936,-0.130,-0.106,-15.938,-7.750,-23.500,9, 3, -1, 0, -2, -1, -2, -3
1503944460575,+0.748,+0.638,-0.054,-0.173,+0.953,-0.094,-0.158,-13.375,-7.188,-26.250,-9, -4, -2, 0, -1, -1, 0, -1
1503944460597,+0.750,+0.636,-0.058,-0.170,+0.960,-0.082,-0.180,-10.875,-9.375,-29.562,-8, -5, 1, 0, 0, -3, -1, 0
1503944460613,+0.753,+0.634,-0.063,-0.167,+1.007,-0.060,-0.162,-11.500,-12.875,-29.438,0, -2, -1, -3, -3, 0, 0, 1
1503944460635,+0.755,+0.631,-0.067,-0.165,+1.029,-0.063,-0.141,-10.250,-15.750,-26.188,6, 5, 0, -1, -2, 0, -2, 0
1503944460659,+0.758,+0.628,-0.071,-0.162,+1.008,-0.066,-0.142,-10.188,-17.688,-26.312,-10, -5, -1, -2, 0, 1, 0, -2
1503944460673,+0.760,+0.626,-0.074,-0.160,+0.971,-0.048,-0.144,-9.438,-17.812,-27.125,11, 0, -3, 0, -1, -2, 1, -1
1503944460695,+0.763,+0.622,-0.078,-0.157,+1.013,-0.047,-0.157,-7.875,-21.625,-28.812,0, 0, 9, 0, -1, -1, -1, 0
1503944460719,+0.766,+0.619,-0.081,-0.154,+1.072,-0.036,-0.190,-6.875,-24.875,-25.500,0, -5, -5, -1, 1, -2, 0, 0
1503944460733,+0.769,+0.615,-0.084,-0.152,+1.022,-0.048,-0.170,-9.750,-26.438,-20.250,-5, 0, -4, 0, -5, 0, -2, -1
1503944460756,+0.772,+0.612,-0.087,-0.151,+0.979,-0.022,-0.177,-11.812,-20.812,-18.000,-5, -2, -3, 0, 2, -1, -1, 0
1503944460781,+0.774,+0.609,-0.090,-0.150,+0.990,-0.003,-0.180,-9.812,-17.188,-18.312,2, 5, 4, -2, -2, 1, 0, 1
1503944460794,+0.776,+0.606,-0.092,-0.148,+1.020,-0.027,-0.175,-9.750,-17.312,-17.438,-3, -5, -2, 0, 0, -2, -2, -3
1503944460815,+0.778,+0.604,-0.095,-0.147,+1.014,-0.028,-0.192,-10.938,-17.062,-17.562,-7, -3, 0, -1, -8, -2, -1, 0
1503944460837,+0.780,+0.601,-0.098,-0.146,+0.976,+0.006,-0.214,-11.938,-15.688,-19.000,4, -4, -4, -1, 3, -3, -1, 0
1503944460854,+0.782,+0.598,-0.101,-0.144,+0.941,+0.022,-0.239,-12.250,-15.688,-21.000,-3, -1, 1, 1, 3, 2, 2, -2
1503944460875,+0.784,+0.595,-0.105,-0.143,+0.946,+0.034,-0.233,-10.875,-15.375,-22.062,-6, -2, -1, -2, 1, 0, -1, 0
1503944460897,+0.786,+0.593,-0.108,-0.140,+0.976,+0.038,-0.221,-9.875,-11.812,-22.188,-4, 0, 3, -1, -1, -1, -2, 1
1503944460913,+0.787,+0.590,-0.111,-0.138,+1.020,+0.051,-0.232,-8.000,-14.062,-20.688,0, -2, -1, -2, 0, -3, -1, 1
1503944460935,+0.790,+0.587,-0.114,-0.136,+1.010,+0.059,-0.273,-5.500,-16.938,-18.000,-9, -3, 0, 2, -1, 0, 0, -4
1503944460958,+0.792,+0.585,-0.115,-0.135,+0.944,+0.051,-0.269,-5.062,-15.000,-12.625,4, 4, 17, 3, 0, 1, 0, -2
1503944460973,+0.793,+0.582,-0.116,-0.134,+0.947,+0.058,-0.279,-2.750,-12.875,-8.312,4, -1, -4, -2, -1, -3, -1, -1
1503944460996,+0.794,+0.581,-0.116,-0.134,+0.974,+0.044,-0.280,-0.125,-7.250,-4.875,-4, -1, -2, 0, 0, -1, 0, 2
1503944461020,+0.795,+0.580,-0.116,-0.133,+0.963,+0.029,-0.257,+0.375,-6.188,-1.438,4, -2, 0, -2, -2, -2, 0, -1
1503944461033,+0.796,+0.579,-0.115,-0.133,+0.975,+0.025,-0.253,+0.750,-6.438,-0.062,-3, 0, -4, -2, 0, -2, -1, 1
1503944461056,+0.797,+0.578,-0.115,-0.133,+0.971,+0.027,-0.280,+2.938,-6.250,-0.625,2, 0, -2, -2, 2, 2, 0, 0
1503944461079,+0.797,+0.578,-0.114,-0.133,+0.945,+0.032,-0.267,+4.250,-4.625,-0.375,2, 2, 0, 1, -2, -2, -1, -1
1503944461093,+0.798,+0.578,-0.113,-0.132,+0.960,+0.030,-0.266,+5.062,-2.062,+1.000,-5, -4, -2, -3, -5, -1, 1, -1
1503944461116,+0.798,+0.578,-0.112,-0.132,+0.979,+0.029,-0.261,+5.312,-1.000,+1.938,-3, -4, -9, 0, 1, 2, -2, -2
1503944461137,+0.798,+0.578,-0.111,-0.131,+0.988,+0.029,-0.231,+5.000,-0.250,+1.250,0, -1, 2, -2, -2, -2, 0, 2
1503944461156,+0.798,+0.578,-0.110,-0.130,+0.974,+0.055,-0.240,+5.625,+0.312,-0.625,-23, -6, -6, 1, -1, 0, 1, 0
1503944461175,+0.799,+0.578,-0.109,-0.129,+0.946,+0.056,-0.250,+6.438,-6.062,-3.688,1, -3, 1, -1, -1, -3, -2, -1
1503944461198,+0.799,+0.577,-0.108,-0.128,+0.980,+0.025,-0.251,+7.250,-8.875,-3.438,5, 0, -3, -2, 0, 1, -1, -2
1503944461213,+0.800,+0.576,-0.107,-0.127,+0.961,+0.033,-0.271,+6.375,-6.125,-1.500,3, 4, -6, -1, 0, -1, 1, 0
1503944461235,+0.801,+0.575,-0.107,-0.126,+0.934,+0.046,-0.269,+5.250,-4.750,-0.250,14, 5, 8, 1, -1, -2, -1, 1
1503944461260,+0.802,+0.575,-0.106,-0.126,+0.968,+0.029,-0.246,+5.125,-7.000,-1.500,-5, -2, -3, -4, -1, 3, -4, -2
1503944461273,+0.802,+0.574,-0.105,-0.125,+0.989,+0.039,-0.260,+6.938,-7.688,-2.000,-2, -1, 1, 2, -2, -2, -2, 0
1503944461295,+0.803,+0.573,-0.104,-0.124,+0.955,+0.025,-0.252,+4.875,-9.125,-2.375,-3, -3, -1, -1, 0, -2, 1, -3
1503944461317,+0.804,+0.572,-0.103,-0.124,+0.973,+0.009,-0.236,+0.375,-13.438,-0.562,2, -1, -5, -1, -1, -2, -3, -3
1503944461333,+0.806,+0.570,-0.103,-0.124,+0.991,+0.013,-0.234,-3.625,-16.250,+0.000,-2, 2, 5, 1, 0, 1, 0, 0
1503944461361,+0.807,+0.568,-0.103,-0.125,+0.966,+0.025,-0.261,-5.062,-14.375,+0.438,-1, -4, 0, -3, -1, 0, 0, 0
1503944461378,+0.808,+0.566,-0.104,-0.126,+0.950,+0.040,-0.275,-5.125,-13.562,+0.250,2, 1, -1, 0, -1, -1, -1, -2
1503944461394,+0.809,+0.564,-0.104,-0.127,+0.951,+0.036,-0.299,-7.312,-16.500,+2.188,-1, 1, 1, 0, 0, -3, 0, -2
1503944461417,+0.811,+0.561,-0.105,-0.128,+0.943,+0.034,-0.304,-9.125,-15.875,+2.188,-4, -3, 0, -1, -2, 2, -1, 0
1503944461437,+0.812,+0.560,-0.105,-0.129,+0.944,+0.046,-0.287,-9.688,-12.438,+2.062,-1, -6, -3, -1, -1, -3, -2, 0
1503944461453,+0.812,+0.559,-0.106,-0.130,+0.943,+0.055,-0.298,-7.375,-7.688,+2.500,-4, 1, 5, 2, 1, -1, -1, -1
1503944474048,+0.868,+0.368,-0.056,-0.329,+0.708,-0.159,-0.712,+40.500,+26.625,-6.438,6, 3, -1, 3, 0, 1, -3, 0
1503944474066,+0.867,+0.375,-0.051,-0.324,+0.711,-0.174,-0.696,+45.250,+28.375,-9.500,1, -1, -3, -3, -3, -1, -2, -1
1503944474083,+0.866,+0.382,-0.046,-0.319,+0.715,-0.196,-0.697,+48.625,+30.625,-12.375,-3, -1, 0, -2, 1, -2, -3, -2
1503944474105,+0.865,+0.389,-0.040,-0.313,+0.727,-0.198,-0.676,+53.312,+32.000,-16.875,-2, -1, -1, 1, 0, 0, 0, 0
1503944474126,+0.865,+0.397,-0.035,-0.305,+0.740,-0.194,-0.657,+57.188,+34.000,-22.625,-4, -3, -1, -1, 0, -1, -1, -1
1503944474145,+0.864,+0.405,-0.029,-0.297,+0.740,-0.211,-0.641,+59.000,+35.375,-25.750,-2, 1, 0, -1, -1, 0, 0, -1
1503944474164,+0.863,+0.414,-0.024,-0.290,+0.742,-0.226,-0.629,+57.250,+39.625,-25.500,-1, -4, -2, -1, 0, -1, -3, 0
1503944474190,+0.861,+0.423,-0.019,-0.282,+0.738,-0.219,-0.607,+55.438,+45.250,-23.062,-7, -1, 0, -3, 0, -3, -2, 1
1503944474203,+0.859,+0.433,-0.015,-0.275,+0.758,-0.204,-0.600,+53.875,+52.062,-21.875,3, -1, -1, 2, -3, -1, -1, -4
1503944474224,+0.856,+0.443,-0.012,-0.267,+0.790,-0.184,-0.584,+53.000,+52.438,-23.500,1, -1, -1, -1, 1, 0, -1, 0
1503944474248,+0.853,+0.452,-0.008,-0.259,+0.826,-0.183,-0.551,+53.625,+48.562,-24.812,-4, -1, 1, -2, -1, -2, 0, -1
1503944474262,+0.851,+0.461,-0.005,-0.251,+0.839,-0.190,-0.545,+51.625,+43.812,-24.938,1, 3, -1, -1, 0, -1, -4, -2
1503944474284,+0.849,+0.469,-0.002,-0.243,+0.831,-0.170,-0.529,+48.875,+39.875,-23.062,0, -1, -1, -2, 0, -1, 1, -2
1503944474306,+0.847,+0.476,+0.001,-0.236,+0.811,-0.165,-0.502,+47.062,+39.750,-21.375,3, -3, -2, 3, -1, 1, 0, 0
1503944474322,+0.844,+0.484,+0.004,-0.229,+0.818,-0.173,-0.500,+44.438,+44.875,-18.500,0, 2, -1, 1, -3, -1, 0, 0
1503944474347,+0.841,+0.493,+0.006,-0.223,+0.827,-0.174,-0.486,+40.750,+49.875,-17.062,0, 0, 1, -2, -1, -2, 0, -1
1503944474366,+0.838,+0.500,+0.008,-0.217,+0.847,-0.152,-0.470,+39.125,+46.188,-17.688,-1, -2, -1, 1, -2, 1, 0, 0
1503944474383,+0.836,+0.507,+0.010,-0.211,+0.863,-0.152,-0.449,+37.562,+38.625,-18.938,-5, -3, 0, -5, 0, -2, -3, 1
1503944474404,+0.834,+0.513,+0.012,-0.204,+0.870,-0.163,-0.446,+35.688,+31.188,-19.375,-2, -3, -3, 0, 0, -1, 2, -1
1503944474434,+0.832,+0.518,+0.013,-0.198,+0.854,-0.162,-0.426,+32.188,+28.188,-18.500,4, 2, -1, -1, 1, 2, 0, -2
1503944474449,+0.830,+0.522,+0.015,-0.194,+0.846,-0.165,-0.412,+28.750,+27.062,-14.688,-1, 1, 2, -2, -1, -3, -1, 0
1503944474464,+0.828,+0.527,+0.016,-0.190,+0.832,-0.187,-0.405,+25.250,+31.812,-11.250,-2, -2, -1, 2, 1, 0, -1, -1
1503944474487,+0.825,+0.533,+0.017,-0.186,+0.819,-0.172,-0.401,+22.812,+36.625,-9.500,0, -2, -1, -1, -3, 0, 0, -1
1503944474502,+0.823,+0.538,+0.018,-0.182,+0.838,-0.173,-0.392,+21.438,+34.938,-10.750,0, -1, -2, -2, -3, -2, -2, 0
1503944474525,+0.821,+0.542,+0.019,-0.179,+0.880,-0.189,-0.375,+18.250,+26.312,-13.312,1, 2, -1, -2, 1, -2, -2, 0
1503944474548,+0.820,+0.545,+0.019,-0.174,+0.905,-0.192,-0.358,+15.750,+17.312,-18.125,3, 1, -2, 1, -1, 0, 2, -1
1503944474562,+0.819,+0.547,+0.018,-0.170,+0.860,-0.168,-0.350,+12.625,+12.500,-21.000,-8, -2, -2, -2, -2, 0, -2, 0
1503944474584,+0.819,+0.549,+0.017,-0.166,+0.848,-0.140,-0.343,+11.312,+12.625,-21.375,-3, -1, 1, 0, 1, 3, 0, 1
1503944474606,+0.818,+0.552,+0.016,-0.161,+0.878,-0.128,-0.345,+13.188,+17.875,-21.438,0, 0, 0, -1, -4, 0, 1, -2
1503944474623,+0.817,+0.555,+0.015,-0.156,+0.913,-0.120,-0.346,+13.750,+18.312,-19.875,4, -1, -1, -1, -3, 0, 0, -2
1503944474644,+0.816,+0.557,+0.014,-0.152,+0.951,-0.123,-0.347,+10.875,+12.938,-16.312,-9, -5, -2, 0, 0, -3, -4, 0
1503944474666,+0.816,+0.558,+0.013,-0.149,+0.979,-0.132,-0.338,+8.500,+9.562,-12.375,-2, 1, -3, 1, -2, -1, 1, -1
1503944474684,+0.816,+0.559,+0.013,-0.147,+0.974,-0.138,-0.321,+7.375,+3.688,-8.250,-1, -2, -1, -1, 1, 0, -1, 0
1503944474704,+0.816,+0.559,+0.013,-0.146,+0.955,-0.155,-0.322,+5.500,-5.125,-3.875,-2, -1, -2, -2, 1, -1, -3, -3
1503944474726,+0.817,+0.558,+0.014,-0.146,+0.924,-0.169,-0.333,+1.000,-5.500,+2.875,0, -4, 0, 0, 1, 0, 0, -2
1503944474743,+0.817,+0.558,+0.015,-0.147,+0.910,-0.186,-0.333,-2.750,-1.375,+9.938,6, 6, -2, -2, -5, -2, -1, 1
1503944474764,+0.816,+0.558,+0.016,-0.150,+0.894,-0.229,-0.348,-5.125,+1.625,+13.625,-6, -1, 0, -1, 3, -2, 1, 1
1503944474786,+0.816,+0.558,+0.017,-0.153,+0.883,-0.230,-0.326,-8.188,+1.500,+15.750,1, -2, -3, -1, 0, 2, -2, 0
1503944474802,+0.815,+0.557,+0.018,-0.156,+0.870,-0.265,-0.338,-9.500,-2.312,+14.188,-2, -2, -1, -2, 1, -1, -1, -1
1503944474831,+0.816,+0.555,+0.019,-0.159,+0.854,-0.285,-0.338,-9.688,-7.625,+10.812,-6, -3, 1, 0, 0, -3, -2, 0
1503944474846,+0.817,+0.553,+0.020,-0.162,+0.837,-0.290,-0.346,-10.562,-11.812,+6.875,0, 1, 0, 1, -1, -1, 0, 0
1503944474862,+0.818,+0.551,+0.020,-0.163,+0.825,-0.271,-0.358,-8.250,-9.812,+1.562,2, 1, 0, 3, -2, 1, -3, -2
1503944474885,+0.819,+0.550,+0.019,-0.163,+0.844,-0.209,-0.355,-5.125,-1.562,-5.438,5, 2, -3, -3, 0, -3, 2, -3
1503944474906,+0.818,+0.551,+0.018,-0.161,+0.883,-0.167,-0.359,-0.688,+7.250,-10.250,-6, -5, 0, -1, 1, 2, 0, -1
1503944474923,+0.818,+0.553,+0.016,-0.159,+0.904,-0.139,-0.353,+5.062,+14.375,-12.812,1, 0, -2, -2, -1, -1, 0, -3
1503944474944,+0.816,+0.556,+0.015,-0.155,+0.975,-0.112,-0.333,+10.125,+16.750,-15.188,3, 1, 1, 0, 1, -1, -2, 1
1503944474966,+0.816,+0.558,+0.015,-0.151,+1.042,-0.110,-0.330,+12.688,+10.062,-15.000,-3, -2, 0, 0, 0, 1, 0, 2
1503944489156,+0.864,+0.331,-0.084,-0.371,+0.705,-0.118,-0.723,+0.125,+2.562,-9.938,2, 1, 2, -2, -2, -2, -1, 0
1503944489171,+0.863,+0.334,-0.085,-0.369,+0.681,-0.143,-0.738,+2.125,+14.875,-7.438,-4, -4, -3, 0, -2, 0, 0, -3
1503944489193,+0.862,+0.339,-0.086,-0.367,+0.730,-0.142,-0.750,+2.688,+30.562,-8.562,-2, -6, -4, 0, 0, 0, -2, -2
1503944489219,+0.861,+0.344,-0.088,-0.365,+0.760,-0.102,-0.755,+2.562,+31.375,-14.562,3, -4, -2, 1, -1, 0, -2, 0
1503944489238,+0.861,+0.346,-0.090,-0.361,+0.747,-0.055,-0.754,+6.062,+17.875,-19.250,-9, 6, 9, 1, 0, 0, 0, 1
1503944489255,+0.862,+0.349,-0.090,-0.356,+0.771,-0.080,-0.754,+15.375,+9.312,-24.875,1, -6, -6, -3, -3, 0, -3, -3
1503944489275,+0.864,+0.351,-0.088,-0.351,+0.765,-0.155,-0.785,+20.625,+7.062,-25.438,0, 0, -1, -1, 2, -1, -1, -2
1503944489298,+0.864,+0.354,-0.086,-0.347,+0.757,-0.158,-0.790,+19.000,+14.250,-16.500,0, -1, -2, -1, 0, 0, 0, 0
1503944489313,+0.863,+0.360,-0.083,-0.344,+0.719,-0.146,-0.759,+30.062,+30.125,-6.500,-5, 2, 1, -3, 0, 1, 1, -1
1503944489335,+0.861,+0.368,-0.079,-0.341,+0.743,-0.194,-0.737,+41.938,+40.625,-3.562,-4, -3, 0, 0, -1, 0, -2, 1
1503944489362,+0.859,+0.378,-0.073,-0.337,+0.802,-0.236,-0.688,+47.062,+40.875,-0.688,-1, 0, -2, 1, -1, 0, -2, -3
1503944489373,+0.857,+0.387,-0.067,-0.334,+0.818,-0.270,-0.674,+49.875,+36.938,-0.875,-1, 0, 0, -2, -2, 0, -1, 0
1503944489396,+0.855,+0.396,-0.060,-0.330,+0.812,-0.266,-0.660,+50.875,+37.250,-0.312,2, -1, -6, -2, 0, 1, -1, -2
1503944489424,+0.852,+0.406,-0.053,-0.326,+0.762,-0.267,-0.660,+56.312,+44.938,-0.188,-3, -2, 1, -2, -3, -5, 1, -1
1503944489433,+0.849,+0.417,-0.046,-0.321,+0.726,-0.268,-0.646,+62.375,+56.500,-2.625,2, 1, 0, -1, -2, -3, -4, -1
1503944489456,+0.845,+0.429,-0.039,-0.316,+0.753,-0.284,-0.611,+66.000,+59.562,-4.562,0, -1, -2, -1, -1, 1, 0, 0
1503944489478,+0.842,+0.441,-0.032,-0.310,+0.812,-0.307,-0.579,+65.438,+55.688,-8.812,1, 4, -3, -2, -2, -1, -2, -2
1503944489494,+0.838,+0.452,-0.026,-0.303,+0.820,-0.299,-0.562,+63.812,+54.562,-13.250,-2, -1, 0, -1, 0, -4, -2, -1
1503944489518,+0.835,+0.463,-0.020,-0.295,+0.776,-0.293,-0.560,+65.438,+53.688,-16.500,0, 3, 5, -2, 0, 1, -1, 0
1503944489538,+0.832,+0.474,-0.014,-0.288,+0.739,-0.277,-0.560,+64.250,+58.500,-16.812,0, 1, 0, 0, 0, -2, 0, -1
1503944489554,+0.828,+0.485,-0.009,-0.280,+0.728,-0.263,-0.532,+63.312,+63.000,-20.062,-2, 4, 17, 0, 0, 2, 1, -1
1503944489575,+0.825,+0.496,-0.005,-0.272,+0.774,-0.257,-0.497,+60.375,+64.562,-24.000,1, -4, -5, -2, -1, -1, -2, 1
1503944489598,+0.821,+0.507,-0.002,-0.263,+0.779,-0.253,-0.485,+58.562,+62.375,-29.188,-4, -4, -2, -4, -1, 0, -1, -1
1503944489613,+0.817,+0.517,+0.000,-0.254,+0.767,-0.250,-0.462,+54.000,+61.562,-31.375,1, 1, -5, 1, -1, -2, 1, 1
1503944489635,+0.814,+0.527,+0.002,-0.245,+0.721,-0.244,-0.438,+51.875,+64.812,-31.938,-6, 0, -1, 1, 2, -2, -1, -2
1503944489658,+0.809,+0.538,+0.003,-0.236,+0.730,-0.226,-0.414,+49.188,+70.500,-36.000,-1, -1, -5, -2, -3, -1, -2, -1
1503944489673,+0.805,+0.548,+0.003,-0.226,+0.815,-0.185,-0.406,+47.062,+67.250,-38.688,2, 1, 2, 0, -2, -4, -2, 0
1503944489696,+0.802,+0.557,+0.003,-0.215,+0.849,-0.173,-0.370,+45.438,+53.500,-43.500,-2, 1, 1, -3, 0, 1, 0, 2
1503944489720,+0.800,+0.563,+0.003,-0.205,+0.818,-0.187,-0.324,+39.312,+41.375,-46.875,1, -3, -3, 0, 0, 0, 0, -2
1503944489734,+0.798,+0.570,+0.001,-0.195,+0.801,-0.155,-0.306,+30.625,+43.312,-47.312,2, 0, -2, -3, -2, -4, 1, 1
1503944489764,+0.795,+0.577,-0.003,-0.186,+0.812,-0.086,-0.315,+26.875,+55.000,-46.875,3, 1, 1, -2, -3, -2, -3, 0
1503944489778,+0.791,+0.586,-0.007,-0.176,+0.864,-0.038,-0.314,+26.500,+59.750,-44.000,-4, -2, 2, 1, 0, 2, -1, -1
1503944489801,+0.788,+0.593,-0.010,-0.167,+0.922,-0.017,-0.287,+27.000,+51.438,-42.375,-3, -1, -4, -1, 3, 2, 0, -2
1503944489824,+0.785,+0.598,-0.013,-0.158,+0.941,-0.031,-0.251,+22.625,+39.062,-39.812,-1, -4, -1, -3, -3, 0, 0, 1
1503944489838,+0.783,+0.604,-0.017,-0.150,+0.959,-0.020,-0.215,+17.188,+39.188,-36.250,0, -3, 1, -1, 0, -3, -1, -1
1503944489855,+0.779,+0.610,-0.020,-0.143,+0.952,+0.007,-0.215,+16.500,+42.375,-32.812,2, 5, 5, -1, -1, -2, 0, 1
1503944489875,+0.777,+0.615,-0.023,-0.136,+0.988,+0.015,-0.213,+18.188,+38.688,-30.000,5, -1, -3, 0, -1, -1, 0, -2
1503944489898,+0.774,+0.619,-0.026,-0.129,+1.012,+0.010,-0.200,+16.125,+30.125,-28.125,-7, -1, -2, 0, 0, -2, -1, -2
1503944489914,+0.773,+0.622,-0.028,-0.123,+1.019,+0.007,-0.187,+13.062,+24.438,-26.312,-1, -2, -5, -2, 1, 0, -1, 0
1503944489936,+0.771,+0.625,-0.030,-0.118,+1.013,+0.016,-0.160,+11.938,+21.500,-23.188,-2, -3, -2, -1, 0, -3, -3, -2
1503944489960,+0.769,+0.628,-0.032,-0.113,+1.036,+0.023,-0.140,+11.375,+17.812,-19.875,-1, 0, -1, -1, 1, 1, 0, 0
1503944489973,+0.768,+0.631,-0.034,-0.108,+1.093,+0.028,-0.136,+9.125,+17.062,-16.250,-2, -8, -2, -3, -2, -1, -1, 1
1503944489996,+0.766,+0.633,-0.035,-0.105,+1.116,+0.032,-0.125,+9.625,+17.938,-9.688,2, 5, 6, 0, 0, -1, -1, -3
1503944490018,+0.765,+0.635,-0.035,-0.102,+1.075,+0.011,-0.130,+10.562,+9.625,-3.812,-2, 1, 0, 2, -1, 0, 2, -4
1503944490034,+0.764,+0.636,-0.034,-0.101,+1.021,-0.047,-0.151,+8.438,+8.188,+0.812,0, -3, -6, -3, 1, 1, -4, 1
1503944490057,+0.762,+0.638,-0.033,-0.101,+0.959,-0.085,-0.134,+6.375,+14.750,+4.750,1, -1, -1, 0, -2, -1, 0, 1
1503944490078,+0.760,+0.641,-0.031,-0.101,+0.965,-0.123,-0.133,+6.000,+20.562,+7.250,-3, 4, -1, -1, -2, -2, -1, -2
1503944490096,+0.758,+0.644,-0.029,-0.102,+0.978,-0.160,-0.123,+5.562,+22.188,+7.688,-2, -3, -3, 1, 1, -2, -2, -1
1503944490116,+0.756,+0.646,-0.027,-0.103,+0.958,-0.190,-0.131,+4.750,+15.062,+5.312,2, 4, 2, 1, -1, 1, 0, 0
1503944490138,+0.755,+0.647,-0.025,-0.103,+0.914,-0.197,-0.146,+4.562,+8.938,+1.000,-1, 0, -3, -1, -2, -1, 0, -2
1503944490157,+0.755,+0.647,-0.023,-0.103,+0.885,-0.208,-0.157,+6.125,+1.562,-1.312,1, -2, -2, -1, 1, -1, 2, 0
1503944490176,+0.756,+0.646,-0.021,-0.103,+0.866,-0.192,-0.142,+6.250,-1.750,-2.125,-2, 0, -1, -2, -3, 1, -2, 0
1503944490198,+0.756,+0.646,-0.020,-0.103,+0.886,-0.171,-0.114,+3.500,+1.562,-4.312,0, 1, 0, 0, 0, 0, -1, 1
1503944490214,+0.755,+0.647,-0.020,-0.102,+0.897,-0.132,-0.112,+1.938,+6.875,-6.188,-1, -2, 0, 0, -1, -3, -2, -3
1503944490236,+0.755,+0.648,-0.020,-0.100,+0.917,-0.089,-0.124,+6.688,+8.125,-8.312,0, -4, 0, 0, 1, -1, 0, 2
1503944490258,+0.755,+0.648,-0.020,-0.097,+0.938,-0.087,-0.120,+9.812,-0.500,-14.062,0, -2, 2, -1, 0, 1, -3, -3
1503944490274,+0.757,+0.646,-0.021,-0.094,+0.968,-0.087,-0.107,+8.312,-15.312,-18.812,-1, 4, 0, -1, 1, 1, 0, -1
1503944490296,+0.759,+0.644,-0.022,-0.090,+0.959,-0.046,-0.125,+6.062,-17.438,-19.250,-2, -7, -4, -1, -2, -2, 0, -1
1503944490318,+0.761,+0.642,-0.024,-0.086,+0.947,-0.010,-0.124,+5.500,-14.562,-20.438,1, -2, -2, -3, -1, -2, -2, -1
1503944490334,+0.763,+0.640,-0.025,-0.083,+0.946,-0.002,-0.145,+7.875,-12.625,-17.750,-4, 8, 18, 4, -2, -1, 1, -2
1503944504845,+0.853,+0.345,-0.141,-0.365,+0.785,-0.036,-0.670,+11.125,+14.938,-19.562,-12, -6, -1, 2, -2, -3, -1, -2
1503944504868,+0.853,+0.349,-0.140,-0.362,+0.777,-0.081,-0.667,+13.438,+17.562,-18.250,-3, 1, -2, 0, -2, 0, -2, 1
1503944504892,+0.853,+0.354,-0.139,-0.357,+0.756,-0.095,-0.691,+18.250,+27.375,-17.812,-3, 4, -1, -3, 0, 0, -3, 1
1503944504912,+0.852,+0.361,-0.138,-0.353,+0.775,-0.093,-0.695,+24.750,+38.062,-16.500,19, 13, 0, 1, -1, -2, -2, 0
1503944504933,+0.850,+0.370,-0.136,-0.349,+0.773,-0.116,-0.690,+29.438,+44.062,-11.625,-31, -13, -1, -5, -1, -2, -2, -3
1503944504950,+0.848,+0.379,-0.133,-0.345,+0.785,-0.148,-0.681,+30.875,+49.938,-5.250,16, 3, 1, -3, -1, -1, -2, -4
1503944504965,+0.845,+0.390,-0.131,-0.342,+0.780,-0.138,-0.681,+32.750,+60.812,+1.875,0, 0, -3, -1, -2, -1, -3, -1
1503944504987,+0.841,+0.402,-0.128,-0.340,+0.771,-0.132,-0.660,+36.125,+70.812,+6.500,0, 2, 1, -1, 0, -1, 0, 1
1503944505010,+0.836,+0.415,-0.125,-0.337,+0.794,-0.133,-0.615,+38.438,+75.188,+11.625,32, 13, 2, 2, -1, -1, -1, -2
1503944505028,+0.830,+0.429,-0.122,-0.335,+0.828,-0.122,-0.602,+41.125,+80.812,+13.625,16, 11, 17, -1, -1, 0, -1, -2
1503944505047,+0.824,+0.443,-0.120,-0.332,+0.828,-0.108,-0.565,+40.688,+83.500,+13.562,-2, -4, -8, -4, 1, -2, -1, 0
1503944505070,+0.819,+0.456,-0.117,-0.329,+0.822,-0.105,-0.549,+39.125,+74.375,+12.750,-3, -5, -12, -2, -2, -1, -1, 0
1503944505085,+0.814,+0.467,-0.115,-0.326,+0.854,-0.109,-0.525,+37.188,+66.250,+9.875,-2, -3, 1, 3, 1, 2, -1, 0
1503944505107,+0.809,+0.478,-0.112,-0.323,+0.862,-0.100,-0.489,+37.812,+64.125,+6.062,-13, -5, -5, -2, -2, -3, -2, -2
1503944505131,+0.805,+0.489,-0.110,-0.318,+0.814,-0.092,-0.471,+41.188,+63.000,+1.375,5, 8, -4, -1, -2, 1, 1, 2
1503944505152,+0.801,+0.499,-0.108,-0.313,+0.800,-0.096,-0.452,+42.375,+63.625,-3.875,-1, -5, -1, -1, 0, 1, -4, -2
1503944505175,+0.797,+0.509,-0.106,-0.307,+0.817,-0.086,-0.439,+41.688,+63.312,-8.938,-5, -5, 3, -3, -4, -3, 0, -3
1503944505191,+0.794,+0.518,-0.105,-0.300,+0.804,-0.081,-0.405,+40.625,+62.062,-10.750,-2, 6, 1, 0, -1, -2, 1, -1
1503944505205,+0.790,+0.528,-0.104,-0.294,+0.812,-0.072,-0.379,+38.750,+62.438,-12.438,13, 4, -2, -3, -4, -3, -4, -6
1503944505231,+0.786,+0.538,-0.104,-0.287,+0.857,-0.057,-0.356,+37.812,+63.938,-14.500,-8, -6, -2, -2, 0, 0, 2, 2
1503944505254,+0.782,+0.547,-0.105,-0.279,+0.882,-0.059,-0.343,+36.625,+59.688,-18.438,-1, 3, 0, 3, 1, 1, -1, 0
1503944505271,+0.780,+0.554,-0.105,-0.272,+0.895,-0.065,-0.334,+33.688,+49.000,-21.688,8, 1, -4, -3, 1, -2, 0, -1
1503944505287,+0.778,+0.560,-0.105,-0.265,+0.887,-0.061,-0.312,+29.438,+38.500,-23.062,-18, -11, 1, 1, 2, 2, 2, 1
1503944505310,+0.776,+0.565,-0.106,-0.258,+0.892,-0.043,-0.289,+26.875,+35.062,-21.750,3, -4, -1, -5, 1, -1, 2, -1
1503944505325,+0.775,+0.570,-0.106,-0.252,+0.909,-0.034,-0.274,+27.188,+36.625,-19.688,-3, -2, -1, 2, -1, -1, 0, -2
1503944505348,+0.772,+0.576,-0.107,-0.246,+0.946,-0.038,-0.255,+24.562,+37.938,-16.938,-1, -4, 0, 3, 1, -2, -2, 0
1503944505372,+0.770,+0.581,-0.107,-0.240,+0.975,-0.024,-0.251,+22.188,+35.625,-15.438,-7, -1, -2, -1, -3, -3, -3, -3
1503944505385,+0.768,+0.586,-0.108,-0.235,+1.000,-0.013,-0.242,+20.938,+31.688,-12.625,1, 0, -1, 1, -3, -2, -1, -1
1503944505407,+0.766,+0.591,-0.108,-0.230,+1.030,-0.017,-0.219,+19.250,+27.562,-9.000,-5, -1, -1, -1, -4, 2, 1, 0
1503944505433,+0.764,+0.594,-0.108,-0.227,+1.050,-0.022,-0.203,+17.625,+21.500,-6.188,8, 3, 0, -1, 1, -3, -3, -1
1503944505445,+0.763,+0.597,-0.107,-0.224,+1.027,-0.029,-0.203,+15.812,+13.938,-2.562,0, -8, 0, -2, -1, -2, -2, 0
1503944505467,+0.762,+0.599,-0.106,-0.222,+0.988,-0.060,-0.200,+13.188,+10.125,+2.125,-3, 0, -1, -1, 0, 0, -1, 0
1503944505490,+0.761,+0.601,-0.105,-0.221,+0.977,-0.082,-0.212,+10.250,+14.000,+6.500,2, 0, -3, -3, -1, 3, 0, -1
1503944505505,+0.759,+0.603,-0.103,-0.221,+0.959,-0.087,-0.208,+10.125,+16.250,+7.188,3, 5, 0, 0, -1, -1, -2, -2
1503944505535,+0.759,+0.604,-0.101,-0.220,+0.930,-0.126,-0.231,+8.875,+6.875,+4.688,-4, -5, -1, 0, 0, 0, -1, 1
1503944505550,+0.759,+0.604,-0.100,-0.221,+0.912,-0.137,-0.219,+2.812,+0.062,+4.125,-9, -10, 0, 2, 0, 0, -1, -1
1503944505565,+0.759,+0.604,-0.099,-0.221,+0.910,-0.129,-0.208,-0.562,-1.375,+3.875,-2, 2, -2, -2, 0, -3, 0, -3
1503944505587,+0.759,+0.604,-0.098,-0.222,+0.918,-0.150,-0.216,+0.500,-0.625,+4.250,5, 0, -1, -2, -1, 2, 0, 1
1503944505610,+0.759,+0.604,-0.097,-0.223,+0.897,-0.171,-0.227,-0.125,+1.625,+4.875,1, 0, -6, -1, -2, -1, 0, 1
1503944505625,+0.759,+0.604,-0.096,-0.224,+0.891,-0.158,-0.220,-1.625,+3.125,+3.188,-4, 2, -1, 0, 2, 0, -2, -2
1503944505647,+0.758,+0.604,-0.096,-0.224,+0.894,-0.152,-0.224,-0.375,+2.812,+0.625,0, 0, 1, -1, 2, 0, -1, -1
1503944505670,+0.758,+0.605,-0.096,-0.224,+0.921,-0.138,-0.210,-1.062,+2.750,-3.312,-2, -2, 1, -2, -3, 0, -1, 0
1503944505685,+0.758,+0.605,-0.096,-0.223,+0.958,-0.115,-0.205,+0.125,+5.000,-5.812,-15, -9, -2, 0, -3, -1, 1, -1
1503944505710,+0.758,+0.605,-0.097,-0.221,+0.973,-0.107,-0.201,+1.562,+2.812,-9.062,3, -2, -1, 0, 3, 0, -3, 0
1503944505733,+0.759,+0.605,-0.098,-0.219,+0.980,-0.085,-0.206,+1.625,-5.062,-12.250,-3, 0, 0, 0, -1, 0, -1, 1
1503944505745,+0.761,+0.603,-0.099,-0.217,+0.961,-0.071,-0.203,+1.188,-11.750,-14.188,-7, -5, 1, 0, 1, -1, -1, -1
1503944505767,+0.763,+0.601,-0.100,-0.215,+0.959,-0.062,-0.211,+0.500,-9.125,-14.875,-3, 3, 1, 0, -1, -3, 0, -1
1503944505791,+0.765,+0.600,-0.102,-0.212,+0.958,-0.035,-0.238,+3.562,-7.500,-16.375,-2, -3, -1, -2, 0, 0, -1, 0
1503944505806,+0.767,+0.598,-0.102,-0.209,+0.965,-0.064,-0.211,+4.625,-14.562,-17.125,4, 0, -3, -1, 0, 1, -1, -3
1503944505827,+0.769,+0.596,-0.103,-0.208,+1.009,-0.105,-0.181,-1.562,-17.312,-12.312,0, 1, -1, -1, -1, 0, -2, -1
1503944505850,+0.770,+0.594,-0.104,-0.208,+1.028,-0.100,-0.197,-6.375,-14.750,-9.688,24, 17, 0, -1, 1, -2, -1, -2
1503944505868,+0.772,+0.591,-0.105,-0.207,+0.965,-0.067,-0.229,-7.938,-19.562,-11.562,-8, -7, -1, -3, 0, 0, 1, 0
1503944505887,+0.775,+0.587,-0.107,-0.207,+1.016,-0.070,-0.237,-7.812,-25.062,-10.875,-6, -7, -1, 1, -1, -2, 0, 0
1503944505910,+0.779,+0.582,-0.107,-0.207,+1.014,-0.085,-0.250,-9.312,-35.750,-6.688,0, -2, -2, -2, -2, 1, -3, 0
1503944505925,+0.782,+0.578,-0.108,-0.209,+1.002,-0.092,-0.222,-13.375,-36.750,-4.750,-7, -3, 0, 1, -2, -1, -1, -1
1503944505947,+0.784,+0.573,-0.109,-0.210,+0.958,-0.077,-0.232,-15.438,-28.438,-5.562,2, 2, -1, -1, 0, -3, 0, -1
1503944505970,+0.787,+0.569,-0.111,-0.210,+0.921,-0.041,-0.268,-13.562,-27.438,-11.875,-6, -4, -2, 1, 0, -1, 0, -3
1503944505985,+0.791,+0.564,-0.113,-0.209,+0.889,-0.039,-0.309,-10.688,-29.250,-15.125,-6, -3, 1, -1, 0, 1, -1, 0
1503944506008,+0.793,+0.561,-0.115,-0.209,+0.895,-0.050,-0.303,-11.312,-18.375,-14.188,9, 4, -2, -3, -2, -3, 0, -4
1503944506030,+0.794,+0.560,-0.117,-0.208,+0.943,-0.023,-0.311,-10.438,-3.312,-11.062,-3, -2, -2, -2, 0, 1, -1, 1
1503944506046,+0.794,+0.559,-0.119,-0.207,+0.959,+0.000,-0.338,-7.250,+1.125,-10.625,4, -2, -4, -2, -4, 0, 0, -1
1503944506068,+0.796,+0.557,-0.121,-0.205,+0.973,-0.002,-0.320,-5.250,-11.000,-15.062,-2, 0, -3, -1, -2, -4, -1, 1
1503944506090,+0.798,+0.553,-0.123,-0.204,+0.955,-0.020,-0.346,-6.750,-18.438,-17.125,-4, -11, -5, 0, -1, -4, -1, -2
1503944506106,+0.801,+0.550,-0.124,-0.203,+0.941,+0.000,-0.334,-6.438,-20.812,-15.812,-7, -4, -5, 0, 0, -1, 0, -2
1503944506127,+0.803,+0.547,-0.126,-0.201,+0.926,+0.034,-0.335,-4.438,-14.125,-12.625,-3, -5, -1, -1, 0, 2, -1, -1
1503944506150,+0.805,+0.545,-0.126,-0.199,+0.950,+0.022,-0.338,+1.000,-14.688,-11.250,1, 1, -2, -3, -5, 0, -1, -2
1503944519068,+0.855,+0.341,-0.124,-0.370,+0.710,-0.027,-0.701,-2.500,-4.125,+1.938,-10, -8, -7, -3, -1, 0, -2, -3
1503944519080,+0.856,+0.340,-0.123,-0.370,+0.743,-0.022,-0.696,-2.438,-11.438,-0.750,-1, 1, -2, 1, -1, -1, 1, 0
1503944519095,+0.857,+0.337,-0.122,-0.370,+0.746,-0.034,-0.683,-1.188,-21.188,-2.500,0, 0, -1, 0, -2, 0, -4, 0
1503944519118,+0.858,+0.334,-0.121,-0.370,+0.709,-0.057,-0.683,-1.125,-23.250,-0.812,-10, -6, 9, -1, 3, 0, 3, -3
1503944519143,+0.859,+0.332,-0.120,-0.371,+0.684,-0.031,-0.684,-2.938,-14.938,+1.938,-1, -2, -4, 1, -2, 0, -2, -2
1503944519155,+0.859,+0.331,-0.120,-0.371,+0.717,-0.015,-0.713,-5.250,-8.625,+0.062,-1, -1, 2, -2, -2, -3, 0, -2
1503944519178,+0.860,+0.330,-0.121,-0.371,+0.687,-0.024,-0.717,-3.750,-3.875,-1.875,2, -1, 1, 1, -2, 1, 0, 2
1503944519201,+0.860,+0.330,-0.121,-0.371,+0.670,-0.041,-0.716,-2.875,-0.062,-1.312,-9, -5, -3, 1, 0, 1, -1, -1
1503944519222,+0.859,+0.330,-0.122,-0.371,+0.704,-0.042,-0.719,-4.375,+2.500,-1.938,-1, -5, -4, -1, 0, -2, 0, -1
1503944519238,+0.860,+0.330,-0.123,-0.370,+0.743,-0.011,-0.718,-6.062,+0.625,-5.250,1, -1, 0, -2, 0, -2, -1, -6
1503944519260,+0.860,+0.330,-0.124,-0.369,+0.729,-0.011,-0.705,-3.500,-3.688,-7.562,1, -1, -1, -2, -1, -1, -3, 0
1503944519275,+0.861,+0.328,-0.124,-0.368,+0.690,-0.014,-0.720,-3.875,-6.688,-5.938,2, -3, -9, -2, -1, -1, 1, -3
1503944519298,+0.861,+0.328,-0.124,-0.367,+0.709,-0.041,-0.714,-1.125,-0.375,-6.688,8, 1, -2, 0, 2, -2, -1, -2
1503944519320,+0.862,+0.329,-0.125,-0.366,+0.673,-0.029,-0.724,+1.125,+2.125,-8.188,-5, 0, -3, 1, 0, -1, 0, -1
1503944519335,+0.862,+0.330,-0.125,-0.365,+0.703,-0.033,-0.735,+3.625,+7.875,-7.125,-3, -4, 1, 1, -2, 0, 1, 2
1503944519363,+0.862,+0.332,-0.125,-0.363,+0.702,-0.020,-0.731,+6.250,+11.688,-6.000,0, -3, 0, -2, -1, 0, 1, 2
1503944519381,+0.861,+0.335,-0.125,-0.361,+0.674,-0.022,-0.729,+9.500,+22.125,-5.625,-5, -2, -1, -3, 1, 0, -3, -1
1503944519396,+0.860,+0.341,-0.125,-0.359,+0.705,-0.027,-0.759,+12.812,+34.562,-2.438,-6, -2, -1, 0, -2, -1, 2, -2
1503944519418,+0.858,+0.348,-0.124,-0.357,+0.761,-0.027,-0.783,+20.438,+40.000,+0.188,1, 2, 0, -1, -1, -3, -4, -3
1503944519440,+0.856,+0.355,-0.122,-0.354,+0.769,-0.046,-0.751,+28.438,+41.688,-4.062,0, -4, -2, 0, -3, 0, -1, -1
1503944519455,+0.855,+0.363,-0.119,-0.350,+0.767,-0.080,-0.705,+35.062,+37.938,-5.562,0, 0, 2, 0, 0, -3, -2, 1
1503944519480,+0.853,+0.373,-0.115,-0.346,+0.787,-0.113,-0.667,+40.438,+44.875,-4.188,-7, -3, 5, -1, -1, 2, 2, -2
1503944519500,+0.850,+0.384,-0.112,-0.342,+0.776,-0.136,-0.662,+44.500,+61.062,-3.438,5, -1, 0, 0, -2, -1, -1, 2
1503944519515,+0.846,+0.397,-0.108,-0.337,+0.783,-0.137,-0.666,+47.312,+70.938,-1.438,-3, -1, 1, -3, 0, 0, 0, -1
1503944519538,+0.842,+0.411,-0.105,-0.333,+0.821,-0.128,-0.636,+50.375,+73.000,+0.938,2, 2, -6, 1, 0, -1, -1, -4
1503944519562,+0.838,+0.424,-0.100,-0.328,+0.862,-0.145,-0.599,+53.688,+70.812,+1.375,0, 2, 7, -2, 0, 0, 0, 0
1503944519580,+0.834,+0.437,-0.096,-0.323,+0.852,-0.150,-0.578,+55.375,+68.250,-0.562,7, -1, -6, 0, 0, -2, -3, -1
1503944519598,+0.830,+0.450,-0.091,-0.317,+0.814,-0.144,-0.571,+57.875,+67.312,-3.062,-2, -6, -2, -2, -2, 0, -1, -2
1503944519620,+0.826,+0.462,-0.086,-0.311,+0.805,-0.161,-0.536,+58.500,+65.625,-2.812,-4, 1, -1, -1, -1, 0, -1, 0
1503944519635,+0.822,+0.474,-0.082,-0.305,+0.829,-0.164,-0.507,+55.875,+68.188,-3.125,-5, 0, 3, -1, -2, -2, -1, 0
1503944519658,+0.818,+0.486,-0.078,-0.299,+0.850,-0.154,-0.481,+54.562,+66.188,-5.688,2, 3, 0, -2, 2, 2, -2, -1
1503944519680,+0.814,+0.496,-0.074,-0.293,+0.852,-0.167,-0.464,+52.438,+56.750,-8.062,-4, -6, -3, -1, 0, 0, -1, -1
1503944519696,+0.811,+0.505,-0.070,-0.286,+0.821,-0.162,-0.447,+48.688,+51.375,-11.750,-1, -2, -1, 0, -4, -2, 0, -1
1503944519718,+0.808,+0.514,-0.068,-0.279,+0.813,-0.142,-0.435,+45.938,+53.188,-14.750,-2, 3, -3, -2, -2, -2, -2, 1
1503944519740,+0.805,+0.523,-0.065,-0.273,+0.815,-0.138,-0.409,+44.750,+54.250,-15.062,3, 0, 1, 0, 1, -1, -2, 0
