Timestamp,Orientation X,Orientation Y,Orientation Z,Orientation W,Accelerometer X,Accelerometer Y,Accelerometer Z,Gyroscope X,Gyroscope Y,Gyroscope Z,EMG1,EMG2,EMG3,EMG4,EMG5,EMG6,EMG7,EMG8
1503958524147,+0.831,+0.357,+0.174,+0.390,+0.716,-0.012,-0.658,+5.812,+7.062,-20.875,16, 0, 7, -9, -6, -2, -2, 6
1503958524162,+0.828,+0.359,+0.175,+0.393,+0.716,-0.027,-0.653,+5.312,+16.438,-19.812,-10, 7, -2, 0, 3, 1, -3, 2
1503958524186,+0.826,+0.361,+0.176,+0.396,+0.751,-0.003,-0.648,+9.875,+14.188,-22.000,-1, 5, -5, -4, -12, 0, -5, -4
1503958524208,+0.823,+0.362,+0.177,+0.400,+0.789,+0.013,-0.653,+11.125,+7.375,-22.062,0, 4, 14, 4, 2, -4, -3, 5
1503958524222,+0.822,+0.361,+0.178,+0.402,+0.790,+0.015,-0.653,+10.562,-1.188,-13.688,-2, 15, 18, -5, 1, -4, 0, -4
1503958524248,+0.822,+0.360,+0.178,+0.404,+0.793,+0.016,-0.647,+7.938,-5.750,-5.938,21, -8, -1, -13, -5, 1, 6, 4
1503958524266,+0.821,+0.360,+0.179,+0.405,+0.785,+0.022,-0.625,+4.688,-2.625,-1.500,-14, -5, -1, -2, 5, 3, 8, -2
1503958524282,+0.821,+0.360,+0.179,+0.405,+0.772,+0.008,-0.613,+5.000,-2.375,-1.312,-5, 0, -6, 4, 2, -1, -6, -7
1503958524304,+0.821,+0.359,+0.180,+0.406,+0.782,+0.015,-0.618,+3.000,-7.062,-0.562,-3, -4, -3, 0, -2, 0, -2, -1
1503958524326,+0.822,+0.358,+0.178,+0.406,+0.758,+0.037,-0.636,-4.250,-6.750,+0.812,8, 2, 3, 2, -8, -3, 1, 6
1503958524342,+0.822,+0.358,+0.177,+0.406,+0.743,+0.052,-0.655,-6.188,-5.688,+3.562,-12, 1, 16, 1, 1, 0, -6, -8
1503958524363,+0.823,+0.357,+0.176,+0.405,+0.753,+0.049,-0.662,-5.250,-7.438,+5.438,-6, -1, 12, 5, 3, 0, -3, -2
1503958524386,+0.824,+0.356,+0.174,+0.404,+0.762,+0.021,-0.673,-5.875,-8.188,+5.375,-3, -3, -2, 1, 8, -1, -2, 3
1503958524402,+0.825,+0.355,+0.174,+0.403,+0.747,+0.000,-0.667,-6.688,-8.188,+6.250,-3, -7, -11, 2, -5, 0, -13, -4
1503958524424,+0.827,+0.354,+0.173,+0.402,+0.749,+0.004,-0.676,-8.438,-2.250,+10.000,6, 4, -7, -11, -5, -4, -9, -4
1503958524448,+0.827,+0.355,+0.173,+0.400,+0.747,+0.008,-0.682,-6.375,+1.500,+9.312,-7, -6, -7, 5, 0, 2, 7, 3
1503958524462,+0.828,+0.354,+0.173,+0.399,+0.776,-0.007,-0.682,-4.062,-0.500,+8.125,-4, -5, -1, -6, 1, -1, -1, -16
1503958524484,+0.829,+0.354,+0.173,+0.397,+0.781,-0.017,-0.665,-2.562,-1.625,+7.688,-3, 12, 10, -3, -3, -3, 2, 1
1503958524506,+0.829,+0.354,+0.174,+0.396,+0.752,-0.005,-0.669,-0.250,+1.750,+7.875,-2, -18, 2, -6, 1, 1, 2, -1
1503958524522,+0.830,+0.354,+0.175,+0.395,+0.769,-0.020,-0.663,-0.062,+1.875,+10.438,-6, -5, -2, 7, 3, 1, 3, 16
1503958524544,+0.830,+0.354,+0.176,+0.393,+0.780,-0.032,-0.655,-0.875,+1.250,+9.188,1, 25, 10, 9, 4, -2, -1, -3
1503958524566,+0.831,+0.354,+0.176,+0.392,+0.783,-0.040,-0.630,-2.125,-1.500,+6.062,23, -9, -24, 13, -3, -3, -1, -8
1503958524583,+0.831,+0.354,+0.177,+0.392,+0.768,-0.030,-0.631,-2.875,-0.562,+1.625,-5, -10, -3, -6, 2, 1, 9, -1
1503958524603,+0.831,+0.354,+0.176,+0.392,+0.793,-0.019,-0.650,-2.875,-1.062,-1.688,-21, -14, -8, -4, -7, 1, 1, -6
1503958524626,+0.831,+0.354,+0.176,+0.392,+0.790,+0.004,-0.660,-2.062,-4.375,-1.625,17, -11, -5, -5, 0, -2, 2, -5
1503958524642,+0.831,+0.353,+0.175,+0.392,+0.764,-0.010,-0.662,-1.438,-8.312,+0.625,17, 7, 6, -16, -6, -6, -2, -2
1503958524664,+0.832,+0.351,+0.175,+0.392,+0.753,-0.041,-0.651,-1.188,-9.375,+2.688,-7, 4, 8, -11, -4, -1, -2, 19
1503958524687,+0.833,+0.350,+0.175,+0.392,+0.738,-0.039,-0.646,-1.000,-8.062,+4.250,-29, -5, 3, 10, 5, 4, -3, -1
1503958524703,+0.833,+0.349,+0.175,+0.391,+0.738,-0.038,-0.660,-2.375,-2.000,+1.438,2, 14, 1, 8, 3, 1, -6, 0
1503958524724,+0.833,+0.350,+0.175,+0.391,+0.751,-0.032,-0.663,-5.062,-0.500,-0.312,1, 14, 11, 11, 4, -1, 4, -6
1503958524746,+0.833,+0.350,+0.174,+0.391,+0.758,-0.049,-0.662,-7.188,+0.688,-4.000,1, -8, -8, -5, -2, -1, 2, 14
1503958524769,+0.832,+0.352,+0.173,+0.392,+0.751,-0.053,-0.633,-9.312,+8.500,-12.812,-16, 1, -7, 0, -1, -3, -2, -8
1503958524791,+0.830,+0.355,+0.172,+0.394,+0.767,-0.014,-0.640,-9.438,+9.438,-17.188,6, 0, 7, -10, -1, -3, -6, -11
1503958524806,+0.829,+0.357,+0.170,+0.396,+0.805,+0.037,-0.656,-5.062,+4.562,-16.438,3, 7, 17, -13, -2, 1, -7, -3
1503958524822,+0.828,+0.357,+0.169,+0.398,+0.799,+0.035,-0.696,+0.562,-1.188,-17.375,7, -17, -19, 6, -4, -2, -5, 1
1503958524843,+0.828,+0.356,+0.168,+0.400,+0.756,+0.014,-0.696,+0.875,-9.188,-11.500,2, -1, 4, -3, -10, -2, 1, 2
1503958524866,+0.828,+0.354,+0.167,+0.401,+0.734,+0.017,-0.701,-0.125,-9.500,+0.938,4, 11, 5, -2, 7, 0, 2, 3
1503958524890,+0.829,+0.352,+0.168,+0.400,+0.739,-0.001,-0.681,+1.812,-5.250,+8.562,0, 2, -4, -12, -2, 0, -3, 5
1503958524904,+0.830,+0.352,+0.169,+0.399,+0.750,-0.022,-0.669,-0.562,+1.188,+7.938,-4, 0, -11, 8, -1, 2, 0, -1
1503958524927,+0.830,+0.353,+0.170,+0.397,+0.770,-0.016,-0.667,-3.250,+9.312,+5.688,-2, 1, 5, -6, -4, 0, 1, -6
1503958524942,+0.828,+0.357,+0.170,+0.397,+0.763,-0.011,-0.612,-6.062,+18.812,-2.000,-1, -9, -6, 1, 0, -1, 3, -5
1503958524964,+0.826,+0.361,+0.171,+0.397,+0.784,-0.002,-0.586,-7.500,+24.062,-13.312,-2, 17, 0, 11, -2, -3, -1, -1
1503958524987,+0.822,+0.367,+0.172,+0.400,+0.828,+0.044,-0.648,-0.625,+33.250,-24.500,-2, 2, 6, -3, 6, 0, -1, 0
1503958525002,+0.819,+0.371,+0.172,+0.403,+0.840,+0.060,-0.679,+3.250,+21.188,-26.062,2, 10, 1, 10, 1, 1, 5, 5
1503958525024,+0.817,+0.373,+0.172,+0.406,+0.859,+0.039,-0.641,+4.188,+6.500,-20.125,17, -12, -9, -1, -7, -3, 0, 3
1503958525046,+0.815,+0.373,+0.173,+0.409,+0.814,+0.016,-0.652,+10.938,+5.062,-15.062,7, 27, 1, 5, 1, 0, -1, 3
1503958525062,+0.814,+0.372,+0.175,+0.411,+0.764,+0.003,-0.674,+12.875,+6.625,-9.688,-2, -3, -2, -4, -7, -3, 0, 1
1503958525086,+0.812,+0.373,+0.177,+0.412,+0.754,+0.008,-0.661,+13.750,+13.562,-1.875,-2, 3, -3, 1, -1, 2, 6, 0
1503958525106,+0.811,+0.374,+0.182,+0.411,+0.802,+0.001,-0.657,+19.188,+21.875,+7.500,0, -3, 2, -7, -3, -2, -5, 1
1503958525122,+0.809,+0.376,+0.189,+0.410,+0.837,+0.002,-0.640,+22.500,+27.062,+14.062,11, -2, 0, -3, -3, -1, -1, 14
1503958525144,+0.808,+0.377,+0.195,+0.409,+0.862,+0.010,-0.654,+28.562,+25.500,+17.500,-5, 4, 7, -3, -8, -1, 2, -7
1503958525166,+0.807,+0.376,+0.203,+0.408,+0.852,-0.009,-0.621,+35.375,+16.562,+19.375,-3, -13, -6, -2, 1, -2, -5, -7
1503958525182,+0.806,+0.375,+0.211,+0.407,+0.838,-0.042,-0.606,+41.500,+15.438,+20.062,8, 2, -8, -2, -3, -4, -1, -7
1503958525204,+0.804,+0.373,+0.220,+0.406,+0.821,-0.070,-0.616,+44.375,+20.938,+22.062,-3, 2, 11, -10, -1, -2, -5, -1
1503958525226,+0.803,+0.372,+0.230,+0.405,+0.818,-0.082,-0.614,+46.500,+25.250,+23.125,-25, -5, 0, 11, 12, -1, -3, -3
1503958525242,+0.801,+0.371,+0.241,+0.404,+0.843,-0.092,-0.584,+49.812,+27.562,+23.938,-5, 2, -9, 4, -5, 1, 5, 4
1503958525264,+0.798,+0.370,+0.251,+0.403,+0.860,-0.111,-0.593,+55.688,+24.938,+21.000,4, -8, -7, -2, -3, -2, -2, -1
1503958525288,+0.795,+0.369,+0.262,+0.404,+0.859,-0.145,-0.568,+57.812,+24.250,+14.250,-1, 12, 5, 1, 1, -1, -2, -4
1503958525302,+0.792,+0.366,+0.273,+0.405,+0.853,-0.156,-0.543,+59.375,+15.000,+17.062,3, -3, -7, -7, -1, -2, -4, 0
1503958525324,+0.790,+0.362,+0.283,+0.405,+0.841,-0.186,-0.519,+58.625,+12.250,+19.938,25, 5, 0, -5, -5, 0, 0, -1
1503958525346,+0.788,+0.359,+0.294,+0.405,+0.812,-0.182,-0.520,+59.062,+14.062,+18.688,12, 21, 12, 3, -3, -2, 1, -2
1503958525363,+0.785,+0.355,+0.304,+0.406,+0.787,-0.191,-0.516,+60.250,+11.438,+16.875,-10, -17, -4, -7, -9, -2, -6, 2
1503958525384,+0.782,+0.352,+0.314,+0.407,+0.792,-0.226,-0.478,+60.438,+11.812,+16.000,0, -4, 6, -3, 1, 0, 1, -3
1503958525406,+0.779,+0.349,+0.324,+0.407,+0.809,-0.234,-0.463,+57.750,+16.250,+16.250,-1, 17, 6, -4, -2, -1, 0, -7
1503958525424,+0.776,+0.346,+0.335,+0.407,+0.795,-0.226,-0.508,+59.375,+23.000,+18.250,-2, -10, 0, 0, -2, -2, -1, -3
1503958525444,+0.773,+0.343,+0.345,+0.407,+0.802,-0.250,-0.503,+59.688,+20.938,+20.125,-11, -3, -2, -2, -1, 3, 1, 3
1503958534173,+0.874,+0.314,+0.154,+0.338,+0.639,-0.023,-0.747,-9.812,-0.188,-1.562,1, -3, 17, -10, 7, -2, -2, -15
1503958534188,+0.874,+0.313,+0.153,+0.338,+0.696,-0.054,-0.738,-5.625,-8.938,+0.750,6, 0, 9, -2, 1, 0, -5, 6
1503958534210,+0.875,+0.312,+0.152,+0.338,+0.693,-0.071,-0.738,-6.688,-13.750,+1.812,5, 11, 26, -11, 5, 0, 2, 3
1503958534233,+0.876,+0.310,+0.151,+0.337,+0.657,-0.066,-0.733,-6.688,-11.188,+3.062,-11, 11, -5, 8, 4, 0, 0, -3
1503958534250,+0.877,+0.308,+0.150,+0.336,+0.617,-0.062,-0.757,-3.688,-6.500,+4.250,-1, 9, -3, 6, -1, -2, -7, -2
1503958534270,+0.877,+0.307,+0.150,+0.337,+0.630,-0.076,-0.765,-1.062,-2.625,-0.188,-17, -11, -5, 3, 3, 0, -3, -1
1503958534293,+0.877,+0.307,+0.151,+0.336,+0.667,-0.088,-0.748,+0.125,+3.562,+0.500,-7, -2, -1, -6, -4, 0, 6, 1
1503958534309,+0.877,+0.308,+0.152,+0.336,+0.667,-0.078,-0.761,+3.812,+4.938,+1.438,3, 1, -9, 8, -4, 0, 12, -1
1503958534330,+0.876,+0.308,+0.153,+0.337,+0.674,-0.099,-0.748,+5.875,+6.250,-4.000,0, -6, -13, -9, -7, -2, -6, 9
1503958534357,+0.875,+0.310,+0.155,+0.338,+0.690,-0.084,-0.751,+4.875,+12.875,-5.250,2, 2, 3, -11, -15, -5, -10, -8
1503958534369,+0.874,+0.312,+0.157,+0.338,+0.676,-0.068,-0.715,+5.312,+18.500,-6.438,8, -8, -8, -7, -16, -4, 1, 5
1503958534391,+0.872,+0.314,+0.158,+0.340,+0.705,-0.055,-0.726,+4.188,+14.500,-9.562,-13, 26, 2, 17, 7, -2, 3, 5
1503958534413,+0.871,+0.316,+0.159,+0.341,+0.717,-0.024,-0.732,+5.062,+12.438,-6.688,-29, -23, 20, -21, -1, -2, -9, -49
1503958534429,+0.870,+0.318,+0.160,+0.342,+0.721,-0.024,-0.729,+7.000,+8.125,-4.312,-15, -18, -10, 0, 1, -2, 0, 5
1503958534453,+0.869,+0.319,+0.161,+0.342,+0.713,-0.047,-0.711,+4.188,+9.812,-3.562,0, -9, -3, 6, 6, 4, 6, 22
1503958534473,+0.868,+0.320,+0.162,+0.343,+0.714,-0.062,-0.688,+3.250,+7.812,-1.750,14, 12, 8, -8, 5, 0, 0, 9
1503958534489,+0.867,+0.321,+0.163,+0.343,+0.736,-0.044,-0.680,+1.000,+2.688,-4.438,9, 7, 3, -21, -2, -1, -4, 1
1503958534511,+0.867,+0.322,+0.162,+0.344,+0.694,-0.026,-0.701,-1.188,+3.312,-1.625,18, 22, 3, 15, 3, -3, -1, -6
1503958534533,+0.867,+0.322,+0.162,+0.344,+0.686,-0.055,-0.709,-2.250,+2.938,-1.312,12, -13, -2, -6, -1, -1, -4, 26
1503958534549,+0.867,+0.323,+0.162,+0.343,+0.732,-0.057,-0.711,-4.500,-0.250,+0.688,-4, 0, -1, -7, -1, 2, -8, 6
1503958534570,+0.868,+0.322,+0.161,+0.343,+0.722,-0.065,-0.697,-6.125,-8.750,+2.125,1, 24, 12, 7, 2, 4, 8, -4
1503958534594,+0.869,+0.319,+0.159,+0.343,+0.736,-0.039,-0.693,-8.688,-22.562,+1.312,9, 0, 16, 3, 0, 0, 2, -2
1503958534609,+0.871,+0.316,+0.156,+0.342,+0.673,-0.069,-0.724,-10.812,-22.375,+4.312,-1, -6, -3, -11, -4, -8, -12, -33
1503958534631,+0.873,+0.313,+0.154,+0.341,+0.649,-0.056,-0.731,-10.438,-22.312,+6.125,-2, -21, -10, -9, -1, -3, 6, 11
1503958534656,+0.874,+0.311,+0.152,+0.340,+0.694,-0.046,-0.749,-8.562,-17.688,+10.500,8, 5, 6, -7, 4, 2, 2, 13
1503958534669,+0.876,+0.309,+0.151,+0.338,+0.705,-0.063,-0.716,-10.250,-18.375,+10.562,-1, -2, 3, 2, 12, 0, -1, -6
1503958534691,+0.878,+0.306,+0.148,+0.337,+0.689,-0.046,-0.712,-11.000,-21.688,+8.312,-2, -1, 1, 4, -7, 0, -11, -18
1503958534713,+0.880,+0.303,+0.146,+0.336,+0.637,-0.041,-0.742,-10.938,-18.875,+8.250,-7, -10, 14, -8, 11, 2, -2, 3
1503958534729,+0.881,+0.301,+0.144,+0.335,+0.628,-0.026,-0.791,-6.875,-11.688,+7.438,3, 23, -10, -2, -13, 1, 2, 0
1503958534758,+0.882,+0.300,+0.144,+0.334,+0.651,-0.036,-0.792,-4.875,-5.938,+6.500,-16, -21, -8, -2, -3, -5, -4, -2
1503958534773,+0.883,+0.300,+0.143,+0.333,+0.650,-0.050,-0.771,-4.188,-2.625,+8.188,10, 0, 3, -7, -3, -4, -6, -13
1503958534789,+0.883,+0.299,+0.143,+0.332,+0.644,-0.059,-0.729,-4.062,-1.688,+6.812,-8, -3, 5, -10, -6, -1, 0, -9
1503958534810,+0.883,+0.299,+0.143,+0.331,+0.624,-0.056,-0.760,-2.125,+1.375,+6.562,-7, -15, 1, -5, -1, 0, -5, 2
1503958534833,+0.884,+0.299,+0.144,+0.330,+0.619,-0.064,-0.777,-0.625,+5.812,+6.250,-9, -7, -3, 2, -2, -1, 5, 2
1503958534849,+0.884,+0.300,+0.145,+0.329,+0.652,-0.064,-0.760,+0.062,+8.625,+5.062,-26, 3, 3, 7, 0, -1, 0, 1
1503958534871,+0.883,+0.302,+0.146,+0.327,+0.693,-0.054,-0.755,+0.750,+7.625,+6.938,-11, -12, 4, -4, 4, 1, -5, -30
1503958534893,+0.884,+0.302,+0.147,+0.326,+0.704,-0.076,-0.741,+1.312,+1.875,+7.875,-5, -9, 5, -11, -3, -1, 1, -11
1503958534909,+0.884,+0.300,+0.148,+0.325,+0.691,-0.086,-0.742,+1.062,-8.938,+6.938,0, -13, -13, 8, -3, -3, -5, 13
1503958534930,+0.885,+0.298,+0.148,+0.325,+0.658,-0.095,-0.737,-0.125,-13.062,+5.250,7, 8, -7, 5, -3, 0, 7, 11
1503958534956,+0.886,+0.297,+0.148,+0.324,+0.664,-0.069,-0.746,-2.062,-8.875,+5.062,13, 10, 13, -14, 0, 1, -3, 7
1503958534969,+0.887,+0.296,+0.147,+0.323,+0.683,-0.075,-0.748,-2.750,-9.375,+6.938,9, 16, 7, -3, -1, 2, 5, 5
1503958534998,+0.888,+0.294,+0.147,+0.323,+0.693,-0.089,-0.740,-3.250,-15.188,+4.312,55, 9, -15, -1, -6, -3, 7, 22
1503958535023,+0.888,+0.292,+0.146,+0.323,+0.665,-0.061,-0.748,-4.562,-17.250,+1.625,-16, 0, -13, 11, -4, -2, 1, 5
1503958535029,+0.889,+0.290,+0.144,+0.323,+0.644,-0.038,-0.775,-3.375,-13.438,+3.562,-3, -6, 4, 6, 11, 5, 15, 8
1503958535050,+0.890,+0.288,+0.144,+0.322,+0.643,-0.051,-0.788,-3.188,-9.625,+5.750,-3, 8, 4, -4, -3, 2, -4, -7
1503958535073,+0.891,+0.287,+0.143,+0.321,+0.652,-0.062,-0.785,-4.125,-6.375,+6.250,-24, -22, -9, 0, 0, -3, -3, 0
1503958535090,+0.891,+0.287,+0.143,+0.320,+0.647,-0.068,-0.765,-3.688,-1.875,+8.500,15, -1, -12, 0, -4, -2, -2, 9
1503958535110,+0.892,+0.286,+0.143,+0.319,+0.652,-0.082,-0.786,-1.000,-5.500,+8.812,5, 5, -2, -7, -2, 0, -2, 3
1503958535133,+0.893,+0.285,+0.144,+0.318,+0.659,-0.097,-0.784,+1.250,-7.812,+4.562,-3, 20, 12, 12, 7, 1, -4, -23
1503958535149,+0.893,+0.283,+0.144,+0.318,+0.649,-0.104,-0.784,+2.312,-9.250,+5.312,-9, 7, 5, -1, -5, -3, -2, 0
1503958535171,+0.894,+0.281,+0.145,+0.317,+0.625,-0.103,-0.808,+1.562,-8.125,+8.688,-2, -13, 1, -5, -3, -2, -6, -8
1503958535193,+0.895,+0.280,+0.146,+0.315,+0.633,-0.102,-0.801,+3.188,-5.188,+9.500,11, -23, -13, 1, -2, -3, 5, 0
1503958535209,+0.895,+0.279,+0.147,+0.314,+0.636,-0.123,-0.771,+4.250,-2.750,+9.875,2, 5, 9, -11, -3, -3, -2, -1
1503958535232,+0.896,+0.278,+0.149,+0.313,+0.645,-0.133,-0.769,+5.188,-3.250,+8.625,-1, 46, 17, 3, 3, 0, -3, -5
1503958535253,+0.896,+0.277,+0.151,+0.312,+0.645,-0.134,-0.766,+4.250,-0.625,+4.312,-12, -16, -16, 0, -5, -3, 0, 16
1503958535269,+0.896,+0.278,+0.152,+0.312,+0.634,-0.119,-0.761,+4.312,+3.875,+0.750,24, -5, -3, 0, 0, -3, -4, 9
1503958535295,+0.895,+0.279,+0.153,+0.312,+0.637,-0.113,-0.772,+3.312,+8.875,-1.125,-10, -6, 15, -13, -3, 1, -6, -3
1503958535313,+0.894,+0.281,+0.154,+0.313,+0.640,-0.096,-0.771,+3.250,+10.812,-5.375,-4, -19, -1, 1, 1, 2, -4, -9
1503958535329,+0.893,+0.283,+0.155,+0.315,+0.666,-0.090,-0.758,+2.562,+12.438,-10.500,-8, 3, -8, 1, 1, 1, 0, -1
1503958535351,+0.891,+0.286,+0.156,+0.317,+0.652,-0.067,-0.770,+2.500,+16.188,-15.562,14, -6, -8, -5, -1, -1, -1, -5
1503958535373,+0.889,+0.288,+0.155,+0.320,+0.657,-0.058,-0.772,+2.875,+10.812,-17.938,-5, 29, 18, 3, 6, 5, 6, 0
1503958535392,+0.888,+0.290,+0.156,+0.322,+0.657,-0.065,-0.770,+3.312,+10.000,-17.125,2, 11, -5, 7, -4, -1, 1, 13
1503958535411,+0.886,+0.291,+0.156,+0.325,+0.619,-0.069,-0.766,+3.625,+8.750,-18.000,-2, -6, 0, 2, -7, -2, -2, 2
1503958535434,+0.885,+0.292,+0.156,+0.328,+0.619,-0.091,-0.745,+1.812,+7.250,-16.188,-10, 23, 3, 2, 0, 0, -6, -9
1503958535449,+0.883,+0.295,+0.156,+0.329,+0.632,-0.083,-0.733,-2.812,+14.438,-15.375,-3, 3, 3, -2, 4, 1, -2, -6
1503958535471,+0.882,+0.298,+0.155,+0.331,+0.647,-0.065,-0.744,-4.375,+16.875,-15.812,0, -4, -1, -3, 1, -1, -2, -8
1503958535497,+0.880,+0.301,+0.154,+0.333,+0.682,-0.064,-0.742,-5.312,+16.562,-19.500,7, -2, 4, -13, -8, -4, -1, -6
1503958535509,+0.878,+0.305,+0.153,+0.337,+0.685,-0.044,-0.728,-6.750,+14.000,-26.812,-1, 6, 3, 1, 4, -1, -2, -4
1503958535531,+0.875,+0.308,+0.151,+0.341,+0.687,-0.036,-0.729,-7.375,+12.875,-33.250,-6, -7, -4, 2, -3, 0, 3, 7
1503958535553,+0.873,+0.311,+0.149,+0.345,+0.692,-0.021,-0.745,-7.312,+13.500,-31.625,3, 13, 6, -2, -1, 0, -2, -2
1503958535569,+0.871,+0.313,+0.147,+0.350,+0.697,+0.017,-0.787,-4.375,+6.375,-28.938,4, -5, -8, -4, -2, 0, 2, -9
1503958535593,+0.869,+0.314,+0.145,+0.353,+0.713,+0.006,-0.772,+0.062,-1.062,-23.062,4, 0, 5, -2, 0, 1, 2, -1
1503958535613,+0.869,+0.313,+0.144,+0.355,+0.682,-0.018,-0.780,+1.125,-6.000,-11.500,5, 4, 2, -6, 1, -1, -4, -4
1503958535630,+0.869,+0.312,+0.144,+0.356,+0.643,-0.042,-0.760,+0.312,-4.500,-1.500,0, -17, 1, 0, 1, -2, -2, -10
1503958535651,+0.869,+0.312,+0.145,+0.355,+0.646,-0.063,-0.736,-0.375,+4.438,+4.875,-3, -20, -2, 4, -1, 1, -4, 6
1503958535673,+0.869,+0.314,+0.146,+0.353,+0.675,-0.054,-0.720,-2.312,+15.125,+7.312,-4, 19, -3, 0, -1, -1, 1, 0
1503958535689,+0.868,+0.317,+0.148,+0.351,+0.704,-0.052,-0.707,-3.500,+22.188,+6.312,-4, -2, 1, 3, 0, -3, 0, 5
1503958535711,+0.867,+0.322,+0.149,+0.350,+0.743,-0.053,-0.692,-5.938,+25.875,+0.000,-3, -9, -2, 0, -2, 0, 3, 4
1503958535733,+0.865,+0.326,+0.150,+0.350,+0.761,-0.047,-0.704,-5.438,+21.250,-6.062,-8, 2, -2, 1, -1, -2, 4, -12
1503958535750,+0.863,+0.330,+0.150,+0.352,+0.753,-0.047,-0.696,-6.188,+18.438,-15.938,-2, -8, -4, -4, -2, 0, 0, 4
1503958535771,+0.861,+0.333,+0.149,+0.354,+0.727,-0.019,-0.697,-6.312,+15.062,-22.875,1, 5, 4, -3, 2, -1, -4, 2
1503958535796,+0.859,+0.336,+0.148,+0.357,+0.691,+0.008,-0.702,-5.875,+13.125,-22.125,-21, -8, 4, -4, -2, 0, -7, -10
1503958535809,+0.857,+0.338,+0.147,+0.360,+0.692,+0.024,-0.720,-1.000,+12.750,-20.750,16, 0, -3, -2, -2, -4, -2, 0
1503958535832,+0.855,+0.341,+0.145,+0.363,+0.859,+0.103,-0.684,-4.000,+9.438,-21.188,7, -4, 2, -6, -1, 2, 3, 4
1503958535855,+0.854,+0.339,+0.142,+0.367,+0.789,+0.112,-0.766,+0.312,-19.312,-18.938,5, -5, -2, 3, 3, -3, -3, -1
1503958535870,+0.855,+0.334,+0.141,+0.370,+0.650,+0.039,-0.771,+10.625,-28.562,-10.562,6, 13, -3, -3, -3, 1, -1, -1
1503958535891,+0.856,+0.329,+0.141,+0.372,+0.366,+0.067,-0.813,+17.062,-4.562,+0.875,-7, 31, 16, 5, 2, 2, 1, 7
1503958535913,+0.855,+0.330,+0.164,+0.365,+0.734,-0.628,-0.637,+68.938,+62.312,+47.438,-3, -12, -3, -7, 2, -1, -2, -1
1503958535930,+0.850,+0.342,+0.170,+0.363,+0.889,+0.195,-0.777,+17.500,+79.312,+6.625,5, -5, -11, 2, -7, -1, 0, -4
1503958535951,+0.844,+0.353,+0.164,+0.370,+1.241,+0.332,-0.526,-16.438,+13.688,-47.000,1, -16, -6, -1, -3, 1, 1, 4
1503958535973,+0.847,+0.340,+0.166,+0.374,+0.692,-0.072,-0.749,+39.500,-65.062,-2.688,3, 6, 8, 1, 0, -1, 0, 1
1503958535990,+0.852,+0.323,+0.164,+0.378,+0.325,+0.106,-0.796,+36.312,-81.062,+8.375,-3, 3, 8, -7, 1, -1, -3, 0
1503958536011,+0.855,+0.320,+0.186,+0.364,+0.498,-0.675,-0.676,+78.375,+44.062,+114.750,0, -8, 1, -1, -1, 0, -4, 0
1503958536034,+0.846,+0.333,+0.195,+0.367,+0.922,+0.215,-0.708,+43.000,+93.875,-11.438,-15, -30, -1, 3, 0, -2, -3, 3
1503958536049,+0.840,+0.343,+0.209,+0.364,+0.925,+0.017,-0.598,+54.062,+85.250,+24.188,1, 1, -9, 7, -4, 0, 3, 2
1503958536073,+0.838,+0.341,+0.222,+0.362,+1.005,-0.284,-0.672,+61.938,+14.625,+26.375,-5, -2, -10, 2, -2, -2, -2, -6
1503958536096,+0.837,+0.336,+0.232,+0.364,+0.885,-0.182,-0.675,+61.750,-9.938,+12.875,1, -6, -9, -2, -10, -2, -2, -6
1503958549518,+0.768,+0.428,+0.249,+0.407,+0.867,+0.009,-0.507,-13.625,-13.125,+5.938,9, -14, -1, -17, -8, -5, -6, 8
1503958549541,+0.769,+0.427,+0.247,+0.406,+0.910,-0.017,-0.460,-12.188,-9.188,+2.812,-30, -18, 5, -4, -6, -6, -5, -19
1503958549563,+0.770,+0.427,+0.245,+0.406,+0.907,-0.028,-0.483,-10.812,-11.125,-2.500,0, -2, -1, -3, -6, 0, 15, 1
1503958549578,+0.771,+0.426,+0.242,+0.406,+0.888,-0.019,-0.479,-11.500,-13.500,-2.000,14, 9, -5, 10, 9, -1, -18, -37
1503958549600,+0.772,+0.425,+0.240,+0.407,+0.888,+0.025,-0.465,-7.562,-11.875,-1.812,2, 1, 4, -8, -2, -2, -9, 4
1503958549625,+0.772,+0.424,+0.238,+0.408,+0.863,+0.040,-0.508,-1.750,-10.312,-5.875,-4, 7, 13, -7, 6, -3, -1, -7
1503958549638,+0.773,+0.423,+0.236,+0.410,+0.842,+0.047,-0.512,-4.312,-11.812,-4.812,2, 16, 3, 11, 2, 0, 12, 0
1503958549661,+0.774,+0.422,+0.235,+0.409,+0.846,+0.018,-0.518,-3.312,-5.312,+4.938,0, -3, -8, -2, -11, 1, 1, 8
1503958549682,+0.773,+0.423,+0.236,+0.409,+0.867,-0.023,-0.497,-1.062,+8.250,+0.125,4, 1, -6, 3, -6, -7, 1, -17
1503958549698,+0.772,+0.425,+0.237,+0.409,+0.931,-0.036,-0.493,+1.312,+10.750,-5.562,3, 12, 16, 0, 15, 4, -7, -4
1503958549720,+0.771,+0.425,+0.237,+0.410,+0.947,-0.039,-0.472,+0.875,+0.938,-5.188,-2, -6, -7, 1, 9, -3, -11, 5
1503958549742,+0.771,+0.424,+0.237,+0.411,+0.891,-0.055,-0.472,+0.625,-9.375,-9.438,0, -11, -3, -7, -3, -2, -1, 1
1503958549760,+0.771,+0.424,+0.236,+0.413,+0.812,-0.035,-0.504,+0.938,-1.688,-13.375,12, 4, -2, 5, 5, 4, 1, -39
1503958549780,+0.770,+0.424,+0.236,+0.415,+0.809,-0.003,-0.511,+1.438,+6.312,-9.312,-12, -27, -18, 1, -2, -2, 0, 7
1503958549802,+0.768,+0.425,+0.236,+0.415,+0.862,+0.015,-0.463,+3.312,+6.250,-5.875,-57, -20, 7, 7, 9, -2, -3, 29
1503958549818,+0.767,+0.426,+0.237,+0.417,+0.896,+0.018,-0.499,+7.312,+3.625,-6.688,5, 11, 14, 3, 13, 1, -3, -14
1503958549840,+0.767,+0.425,+0.237,+0.418,+0.877,+0.015,-0.523,+6.875,+1.312,-6.188,16, 6, 1, -8, -16, -6, 0, -3
1503958549863,+0.766,+0.424,+0.238,+0.419,+0.869,-0.007,-0.507,+8.938,-2.062,-1.188,-9, 6, 6, -5, -11, 2, -6, -12
1503958549878,+0.766,+0.423,+0.240,+0.420,+0.900,-0.053,-0.466,+8.438,-4.438,-2.125,7, 25, 22, -1, -1, 1, -20, 6
1503958549900,+0.765,+0.423,+0.241,+0.421,+0.860,-0.055,-0.470,+6.375,+2.250,-4.688,8, -3, -6, 5, -4, -1, 8, 14
1503958549922,+0.765,+0.423,+0.242,+0.422,+0.911,-0.042,-0.474,+3.812,+2.688,-4.000,1, 24, 0, 7, 6, -2, 8, -1
1503958549939,+0.764,+0.424,+0.243,+0.421,+0.966,-0.023,-0.470,+0.312,+3.438,+1.312,14, 1, -9, -20, -1, 5, 2, -9
1503958549961,+0.764,+0.423,+0.243,+0.421,+0.978,-0.015,-0.458,-0.312,-6.250,+3.438,-1, -16, -9, -2, 16, 2, 3, 5
1503958549982,+0.766,+0.422,+0.242,+0.421,+0.931,-0.005,-0.505,-3.562,-14.625,+2.750,-1, -4, -11, 12, 10, -1, 12, 5
1503958549998,+0.767,+0.420,+0.240,+0.421,+0.884,+0.002,-0.469,-5.125,-17.500,+4.438,-4, 0, 16, -10, 6, 1, -9, -25
1503958550020,+0.769,+0.418,+0.239,+0.420,+0.926,-0.011,-0.435,-5.562,-21.750,+5.750,-12, -15, -5, -4, 14, 2, 3, 3
1503958550042,+0.772,+0.415,+0.237,+0.420,+0.949,-0.009,-0.455,-8.000,-30.188,+9.875,-20, -22, 11, -2, -9, 0, -2, 5
1503958550061,+0.775,+0.411,+0.234,+0.419,+0.888,-0.014,-0.462,-11.250,-38.938,+9.812,13, 4, 5, -3, -1, 0, -2, -13
1503958550081,+0.779,+0.406,+0.230,+0.418,+0.794,-0.029,-0.490,-15.562,-37.562,+8.312,4, -9, -16, -6, 26, 5, 6, 16
1503958550103,+0.782,+0.404,+0.227,+0.417,+0.780,-0.019,-0.540,-19.500,-22.000,+9.625,-1, -13, 10, -31, -14, 0, -2, -2
1503958550119,+0.784,+0.404,+0.224,+0.414,+0.804,-0.002,-0.567,-20.938,-3.875,+12.125,-3, 15, 6, 2, -10, -7, -14, -1
1503958550141,+0.787,+0.403,+0.222,+0.412,+0.888,+0.006,-0.558,-16.438,-11.438,+14.188,-10, 2, 1, 1, 7, 1, 0, 2
1503958550164,+0.789,+0.400,+0.219,+0.410,+0.900,-0.004,-0.542,-13.500,-27.375,+10.875,-2, 6, -2, 13, -3, -3, -5, 18
1503958550179,+0.792,+0.397,+0.216,+0.409,+0.798,-0.028,-0.506,-15.250,-28.625,+7.438,-10, -39, -41, -2, -4, 2, 3, 2
1503958550202,+0.795,+0.395,+0.214,+0.408,+0.735,-0.006,-0.568,-14.438,-14.688,+7.375,-21, -25, -13, -12, -6, -5, -4, -16
1503958550223,+0.796,+0.394,+0.212,+0.407,+0.768,+0.015,-0.618,-10.250,-3.312,+7.875,13, 9, -11, -13, -33, 18, 3, 9
1503958550239,+0.797,+0.394,+0.211,+0.406,+0.826,+0.009,-0.595,-7.375,-6.312,+8.500,2, 5, 10, 11, 13, -7, -3, 14
1503958550265,+0.799,+0.392,+0.210,+0.404,+0.829,-0.008,-0.567,-5.312,-11.562,+10.562,-5, -14, -3, -3, 4, -4, 3, -5
1503958550282,+0.801,+0.390,+0.210,+0.403,+0.824,-0.015,-0.568,-3.688,-13.875,+14.750,2, -1, -18, 15, 8, 0, 7, 10
1503958550299,+0.803,+0.387,+0.210,+0.401,+0.796,-0.021,-0.582,-3.438,-14.250,+17.562,1, -8, -12, 7, -2, -5, 10, 36
1503958550321,+0.806,+0.384,+0.210,+0.399,+0.801,-0.040,-0.588,-2.875,-15.062,+18.312,5, -1, 12, 1, 9, -1, 2, -11
1503958550342,+0.808,+0.383,+0.210,+0.396,+0.814,-0.070,-0.580,-5.188,-10.000,+16.625,-13, -3, 16, -3, 2, 0, -5, -34
1503958550358,+0.809,+0.381,+0.210,+0.394,+0.803,-0.073,-0.582,-5.312,-6.000,+15.625,0, 6, 7, -19, -12, 4, 0, 14
1503958550388,+0.811,+0.380,+0.210,+0.392,+0.794,-0.056,-0.598,-5.312,-5.000,+11.750,5, 3, -5, -2, -5, 3, 4, 3
1503958550403,+0.812,+0.380,+0.210,+0.391,+0.781,-0.056,-0.585,-5.125,-0.188,+6.250,-7, -5, 2, -1, -2, -5, -9, -14
1503958550419,+0.811,+0.381,+0.211,+0.390,+0.808,-0.055,-0.567,-2.625,+5.250,+3.625,-11, -6, 17, -3, 6, -5, 2, -27
1503958550441,+0.811,+0.381,+0.211,+0.389,+0.842,-0.035,-0.572,-1.000,+3.750,+3.062,-7, 20, -4, 4, 1, -4, -1, 16
1503958550467,+0.812,+0.381,+0.211,+0.389,+0.819,-0.016,-0.600,+1.250,-3.688,+4.500,5, -47, -13, -22, -3, 3, 3, -5
1503958550479,+0.813,+0.378,+0.211,+0.389,+0.780,-0.023,-0.611,+2.062,-15.688,+6.625,-3, -6, -5, 3, 6, -2, 7, 6
1503958550501,+0.815,+0.375,+0.211,+0.389,+0.744,-0.050,-0.612,+1.188,-13.875,+10.750,-3, -6, -1, 12, -3, -4, -7, -4
1503958550522,+0.816,+0.373,+0.212,+0.387,+0.773,-0.083,-0.605,+1.688,-6.312,+16.500,4, 26, -6, 1, -16, -3, 4, -1
1503958550539,+0.818,+0.371,+0.213,+0.385,+0.814,-0.101,-0.595,+2.625,-7.375,+15.812,-5, -14, 5, 4, 9, 0, -5, -6
1503958550565,+0.819,+0.368,+0.214,+0.383,+0.846,-0.111,-0.580,+1.938,-15.312,+11.375,2, 6, -2, 12, 7, -5, 2, 20
1503958550582,+0.821,+0.365,+0.214,+0.383,+0.820,-0.099,-0.588,+2.062,-22.062,+6.875,-10, 10, 8, -2, 6, -3, -5, 2
1503958550598,+0.822,+0.362,+0.214,+0.384,+0.787,-0.098,-0.604,+2.688,-21.750,+2.062,-2, 5, -2, 0, -2, -1, 5, 5
1503958550620,+0.823,+0.359,+0.213,+0.385,+0.772,-0.087,-0.615,+3.188,-14.688,-0.438,32, 12, -1, -6, 1, 3, 1, -16
1503958550642,+0.824,+0.357,+0.213,+0.385,+0.801,-0.075,-0.610,+2.375,-14.750,+1.062,-3, 2, 27, -11, 1, -2, -8, -3
1503958550658,+0.825,+0.355,+0.213,+0.386,+0.801,-0.074,-0.609,+1.562,-13.500,+1.062,8, 1, 1, -6, -4, 4, 11, 4
1503958550680,+0.825,+0.354,+0.212,+0.387,+0.790,-0.066,-0.625,+3.188,-10.125,-2.125,-2, 5, -6, 1, -1, 0, -3, 4
1503958550702,+0.825,+0.352,+0.212,+0.387,+0.796,-0.065,-0.626,+3.688,-9.625,-0.500,12, 5, 9, -9, -3, -4, -9, -24
1503958550718,+0.826,+0.350,+0.213,+0.388,+0.812,-0.072,-0.607,+3.250,-13.625,+4.062,-5, -9, -21, 13, 0, 1, 8, 5
1503958550741,+0.827,+0.349,+0.212,+0.387,+0.804,-0.086,-0.608,+0.500,-12.562,+4.438,-6, -11, -7, 1, 2, 1, 0, 6
1503958550762,+0.827,+0.347,+0.212,+0.388,+0.781,-0.080,-0.615,-0.750,-8.688,+1.500,-13, 0, 2, -1, 5, 6, -2, 3
1503958550778,+0.827,+0.347,+0.212,+0.388,+0.769,-0.083,-0.639,-3.000,-3.562,-2.062,3, 0, 6, -2, 1, 2, 3, 9
1503958550800,+0.827,+0.348,+0.211,+0.388,+0.795,-0.082,-0.630,-6.875,+2.312,-5.875,-18, 2, -13, 10, -6, -5, -13, -12
1503958550822,+0.825,+0.351,+0.210,+0.389,+0.828,-0.073,-0.606,-8.062,+10.875,-10.812,4, 2, 2, -7, 0, -3, -3, -3
1503958550838,+0.823,+0.355,+0.210,+0.390,+0.833,-0.073,-0.599,-7.938,+16.188,-15.375,-33, -9, -4, -2, -4, -5, -1, -2
1503958550862,+0.821,+0.359,+0.209,+0.392,+0.817,-0.051,-0.612,-8.000,+14.500,-19.500,7, 7, 18, -11, 2, -1, -4, -14
1503958550882,+0.819,+0.361,+0.207,+0.394,+0.785,-0.008,-0.638,-4.188,+12.875,-21.438,31, 2, 7, -6, 2, 0, -2, 9
1503958550900,+0.818,+0.363,+0.206,+0.397,+0.769,+0.012,-0.650,-0.688,+5.625,-17.812,-8, -1, 4, -15, -9, -3, 4, -5
1503958550920,+0.817,+0.363,+0.205,+0.399,+0.775,-0.022,-0.637,+1.000,-0.062,-10.812,-13, -7, 0, 13, -2, 1, 3, -2
1503958550943,+0.817,+0.363,+0.205,+0.399,+0.787,-0.050,-0.636,+1.188,+0.000,-3.250,10, 6, -8, 3, 0, -2, -6, 6
1503958550958,+0.817,+0.362,+0.206,+0.399,+0.779,-0.038,-0.630,+2.625,-1.500,+3.188,13, 3, -4, -5, -1, -1, -1, 12
1503958550981,+0.817,+0.361,+0.206,+0.399,+0.797,-0.047,-0.619,+4.188,-5.812,+6.625,-3, -1, 5, -5, -2, 2, 12, 0
1503958551003,+0.818,+0.359,+0.208,+0.398,+0.808,-0.087,-0.615,+3.438,-5.625,+4.625,-1, -5, -11, 1, 2, 2, 0, 3
1503958551018,+0.818,+0.359,+0.209,+0.398,+0.797,-0.097,-0.603,+3.375,-1.188,-0.312,0, -6, -10, -1, -3, -4, -5, -7
1503958551041,+0.817,+0.359,+0.209,+0.399,+0.792,-0.080,-0.592,+1.500,+2.500,-4.375,1, 9, -1, -11, -8, 0, -1, -1
1503958551063,+0.816,+0.361,+0.210,+0.400,+0.801,-0.059,-0.586,+1.375,+7.000,-8.188,0, -1, 5, 2, 1, 1, 0, 10
1503958551079,+0.814,+0.363,+0.211,+0.401,+0.799,-0.043,-0.580,+3.188,+11.250,-11.750,-15, -4, -5, 5, 2, 1, 1, -12
1503958551101,+0.812,+0.364,+0.211,+0.403,+0.813,-0.029,-0.622,+6.062,+7.875,-12.312,0, -7, -5, -7, -4, -3, -3, -1
1503958551123,+0.811,+0.364,+0.212,+0.405,+0.810,-0.013,-0.631,+9.312,+3.875,-10.500,12, -1, 12, -2, 0, -1, -4, 5
1503958551139,+0.810,+0.364,+0.213,+0.407,+0.811,+0.010,-0.645,+14.375,+2.562,-6.625,-10, 0, 0, -4, 2, -1, -5, -10
1503958551161,+0.809,+0.363,+0.216,+0.409,+0.821,+0.002,-0.642,+19.688,-0.312,+2.062,2, 5, -4, -1, -5, -1, -1, 5
1503958551183,+0.809,+0.360,+0.219,+0.409,+0.831,-0.018,-0.637,+24.250,-5.188,+10.125,2, -16, -1, 0, 9, -1, 0, 5
1503958551198,+0.809,+0.356,+0.223,+0.410,+0.837,-0.026,-0.633,+31.562,-9.188,+13.562,8, 17, 21, -13, 1, 0, -2, 7
1503958551221,+0.809,+0.352,+0.229,+0.411,+0.819,-0.055,-0.676,+37.438,-6.438,+14.438,-6, 2, -12, 3, -5, -4, -1, 0
1503958551244,+0.809,+0.347,+0.235,+0.411,+0.812,-0.066,-0.661,+42.125,-6.938,+18.812,-10, -2, -3, 2, -1, 0, -2, 1
1503958551258,+0.810,+0.342,+0.242,+0.411,+0.832,-0.081,-0.645,+47.438,-7.688,+25.812,3, -11, -3, 0, -11, -1, -3, 7
1503958559184,+0.745,+0.363,+0.278,+0.486,+0.841,-0.053,-0.552,-17.375,-10.812,+7.500,21, -5, -6, 0, 2, 1, 1, 9
1503958559207,+0.747,+0.363,+0.276,+0.484,+0.848,-0.060,-0.559,-18.000,-7.000,+9.125,1, 12, 15, 0, 3, 3, -1, 0
1503958559224,+0.749,+0.363,+0.274,+0.482,+0.843,-0.048,-0.550,-16.250,-6.688,+8.625,6, -2, -6, -2, -3, -2, -2, 0
1503958559244,+0.750,+0.363,+0.272,+0.481,+0.851,-0.044,-0.545,-13.125,-10.812,+7.438,2, -1, -11, -3, -27, -4, -1, -9
1503958559267,+0.752,+0.362,+0.270,+0.480,+0.825,-0.056,-0.568,-13.938,-7.562,+8.875,-19, -4, -3, 0, 0, 0, 3, 0
1503958559283,+0.754,+0.361,+0.269,+0.478,+0.814,-0.046,-0.569,-12.812,-8.562,+10.438,2, -15, -7, 4, -1, -3, -4, 4
1503958559304,+0.756,+0.360,+0.267,+0.477,+0.823,-0.041,-0.582,-11.250,-11.375,+10.625,2, 7, -1, 0, 7, 3, 0, -2
1503958559334,+0.759,+0.358,+0.265,+0.475,+0.829,-0.067,-0.579,-11.000,-15.250,+13.000,-12, 5, 6, -4, 7, 2, 0, -5
1503958559350,+0.761,+0.357,+0.264,+0.473,+0.809,-0.081,-0.583,-11.000,-13.250,+13.375,-31, -2, -3, 2, 0, -1, 3, -21
1503958559365,+0.763,+0.355,+0.262,+0.471,+0.789,-0.073,-0.590,-11.000,-11.188,+13.375,11, -1, 2, 0, 2, -2, -1, 15
1503958559387,+0.766,+0.353,+0.261,+0.469,+0.799,-0.081,-0.577,-9.688,-9.750,+14.500,5, -2, 1, 0, 6, -2, -3, 1
1503958559403,+0.768,+0.352,+0.261,+0.467,+0.808,-0.087,-0.580,-10.000,-6.938,+14.875,10, 14, 5, 1, -4, -2, -2, -3
1503958559426,+0.770,+0.352,+0.260,+0.465,+0.802,-0.102,-0.589,-10.000,-5.250,+11.875,9, 21, 5, 3, 1, 2, 3, 1
1503958559447,+0.771,+0.351,+0.259,+0.464,+0.799,-0.105,-0.606,-8.438,-3.062,+7.875,9, -7, -2, -5, -6, -3, -12, -19
1503958559465,+0.772,+0.351,+0.259,+0.463,+0.798,-0.086,-0.610,-6.375,-0.312,+3.875,7, -11, -5, -7, 1, -1, 7, 7
1503958559485,+0.772,+0.352,+0.259,+0.462,+0.794,-0.063,-0.599,-5.625,+4.812,+1.000,-5, -20, 8, 6, 1, 0, -3, -2
1503958559507,+0.771,+0.353,+0.259,+0.462,+0.798,-0.054,-0.562,-3.812,+7.562,+0.438,-11, -10, -13, -3, -1, 0, 0, -13
1503958559523,+0.771,+0.354,+0.259,+0.462,+0.805,-0.061,-0.579,-1.250,+6.938,+0.562,3, -10, 4, 4, 1, 2, 0, 8
1503958559545,+0.771,+0.354,+0.259,+0.462,+0.817,-0.046,-0.567,+0.500,-1.125,-3.000,5, -2, -1, -2, 5, 2, -5, -9
1503958559568,+0.771,+0.354,+0.258,+0.463,+0.833,-0.042,-0.567,-0.375,-6.438,-0.875,-11, -2, 4, 1, -3, -11, -3, -5
1503958559583,+0.771,+0.353,+0.258,+0.462,+0.816,-0.048,-0.565,-3.312,-3.688,+5.562,-8, 2, 0, -7, 6, 1, -7, -7
1503958559605,+0.772,+0.353,+0.258,+0.461,+0.812,-0.055,-0.586,-5.938,-1.562,+9.688,-7, -18, 1, -6, 0, 1, 2, 3
1503958559627,+0.774,+0.352,+0.257,+0.459,+0.824,-0.064,-0.593,-7.250,-4.812,+12.688,-2, 6, 14, 2, 3, 5, -1, -3
1503958559643,+0.776,+0.351,+0.257,+0.457,+0.846,-0.081,-0.579,-8.062,-9.750,+15.062,6, 1, -2, 1, -8, 0, -2, -4
1503958559665,+0.778,+0.350,+0.256,+0.455,+0.832,-0.097,-0.581,-10.938,-11.125,+15.562,3, -1, -4, 1, 4, 0, 7, 5
1503958559687,+0.781,+0.349,+0.255,+0.452,+0.813,-0.102,-0.593,-12.750,-10.375,+18.125,14, 7, -4, -1, -1, 5, 0, -12
1503958559709,+0.783,+0.347,+0.254,+0.449,+0.808,-0.115,-0.602,-12.500,-7.812,+17.625,-6, -11, 3, 5, 1, -2, -1, 2
1503958559725,+0.785,+0.347,+0.253,+0.447,+0.826,-0.112,-0.589,-11.562,-7.125,+13.750,2, 9, 0, 4, 3, 1, -2, 1
1503958559747,+0.787,+0.346,+0.252,+0.445,+0.825,-0.110,-0.593,-12.812,-7.000,+11.125,1, 8, -1, 1, -7, -2, -4, 6
1503958559770,+0.788,+0.346,+0.250,+0.443,+0.799,-0.090,-0.593,-11.812,-8.938,+6.875,20, 9, 7, -7, 1, -1, 2, 6
1503958559785,+0.789,+0.345,+0.249,+0.443,+0.781,-0.080,-0.622,-8.625,-9.938,+3.562,-5, 3, 2, -8, 2, 0, 0, 1
1503958559807,+0.791,+0.343,+0.247,+0.442,+0.784,-0.086,-0.625,-8.312,-12.875,+5.250,2, -6, 7, -2, 1, -4, -3, 0
1503958559823,+0.793,+0.341,+0.246,+0.442,+0.765,-0.098,-0.635,-7.000,-13.875,+7.375,-8, 0, -2, 1, -4, -2, -2, -15
1503958559845,+0.794,+0.338,+0.244,+0.441,+0.769,-0.112,-0.627,-5.500,-15.438,+8.438,-8, 2, -11, 3, -9, -2, -1, -4
1503958559867,+0.796,+0.336,+0.244,+0.440,+0.780,-0.124,-0.626,-4.688,-14.438,+8.688,-6, -5, -2, 2, 3, 0, 0, 0
1503958559883,+0.798,+0.334,+0.243,+0.439,+0.784,-0.132,-0.617,-5.000,-13.188,+6.750,3, 0, -6, 0, -3, 1, -1, -5
1503958559905,+0.799,+0.333,+0.242,+0.439,+0.789,-0.116,-0.620,-5.000,-12.062,+0.938,-5, -3, -15, 5, -3, -3, -1, -11
1503958559929,+0.799,+0.332,+0.241,+0.439,+0.805,-0.106,-0.607,-5.312,-9.625,+0.500,4, 1, -7, -7, -1, 1, 3, 8
1503958559943,+0.799,+0.331,+0.240,+0.440,+0.794,-0.078,-0.620,-3.062,-10.500,-2.562,-5, -2, 2, -4, 0, -2, 8, 12
1503958559968,+0.800,+0.329,+0.239,+0.441,+0.792,-0.068,-0.645,+0.000,-15.250,-2.312,-7, 14, 12, -2, 2, 1, -2, 5
1503958559987,+0.801,+0.327,+0.237,+0.442,+0.773,-0.081,-0.660,+1.062,-16.625,-0.562,6, 0, 1, -10, 0, 1, -7, 1
1503958560005,+0.802,+0.325,+0.236,+0.442,+0.761,-0.078,-0.653,-1.250,-16.188,+0.500,-2, -2, 0, -6, -2, -3, 1, -1
1503958560026,+0.803,+0.323,+0.236,+0.442,+0.742,-0.094,-0.663,-0.812,-10.562,+5.188,-10, 11, -2, 5, -1, -3, 0, 5
1503958560047,+0.804,+0.321,+0.236,+0.442,+0.750,-0.103,-0.667,+1.250,-7.188,+7.250,-7, -10, 4, -7, -2, 1, 1, -16
1503958560064,+0.804,+0.321,+0.236,+0.441,+0.771,-0.102,-0.648,-0.438,-3.188,+6.438,30, -2, 4, -7, 2, 3, 0, -1
1503958560085,+0.805,+0.320,+0.237,+0.440,+0.776,-0.106,-0.643,-0.625,-0.875,+5.688,-14, -5, -13, 9, -2, 0, 4, -6
1503958560107,+0.805,+0.320,+0.237,+0.440,+0.762,-0.109,-0.645,-0.750,+0.000,+3.625,-13, -3, 1, 3, 0, 2, 4, 0
1503958560123,+0.805,+0.320,+0.237,+0.440,+0.763,-0.100,-0.677,-0.188,-2.812,+0.625,12, 0, -5, -7, -6, -3, -2, 3
1503958560145,+0.805,+0.319,+0.237,+0.440,+0.763,-0.096,-0.655,+2.562,-3.125,-0.688,0, -5, 2, 6, -1, -3, -4, -1
1503958560167,+0.805,+0.318,+0.238,+0.440,+0.780,-0.087,-0.645,+4.000,-3.188,+1.688,-11, 2, -2, 2, -3, -3, -1, -12
1503958560183,+0.806,+0.318,+0.238,+0.440,+0.767,-0.102,-0.653,+3.438,-3.375,+6.562,6, -1, 0, -1, 6, 2, 4, 1
1503958560206,+0.807,+0.316,+0.239,+0.439,+0.764,-0.120,-0.657,+1.938,-5.812,+10.125,1, 0, -3, 1, -3, -1, -1, 5
1503958560227,+0.807,+0.315,+0.240,+0.437,+0.761,-0.129,-0.655,+0.500,-2.125,+10.500,-2, -2, 0, -1, 4, 2, 1, 1
1503958560243,+0.808,+0.314,+0.241,+0.436,+0.752,-0.138,-0.657,+0.812,-0.875,+9.875,-16, 4, -6, 5, 0, -1, 0, -5
1503958560289,+0.809,+0.314,+0.243,+0.433,+0.737,-0.148,-0.642,-1.688,+5.375,+6.750,5, 3, 2, 0, -9, -3, -3, 1
1503958560306,+0.809,+0.316,+0.244,+0.432,+0.749,-0.135,-0.634,-3.438,+12.500,+4.750,-1, -11, 0, -12, -7, 0, 5, -1
1503958560326,+0.808,+0.318,+0.245,+0.430,+0.769,-0.129,-0.639,-4.500,+16.938,+3.438,0, 4, -5, 4, -2, -2, 1, -3
1503958560348,+0.808,+0.320,+0.246,+0.430,+0.783,-0.115,-0.644,-3.438,+13.125,+0.312,-9, -12, 2, 2, 5, 0, -3, 2
1503958560369,+0.807,+0.321,+0.246,+0.430,+0.781,-0.108,-0.644,+0.750,+7.688,-1.500,6, 4, -1, -5, -7, -3, 0, 4
1503958560386,+0.807,+0.321,+0.247,+0.430,+0.772,-0.111,-0.638,+2.500,-2.688,-2.000,-13, -4, 6, -7, 2, -2, -4, 12
1503958560408,+0.807,+0.320,+0.247,+0.431,+0.754,-0.129,-0.631,+1.125,-4.875,+1.250,-3, -16, -6, 0, 3, 4, 3, 1
1503958560429,+0.807,+0.319,+0.247,+0.430,+0.730,-0.134,-0.625,+0.500,-3.062,+4.125,1, -11, 5, -4, -2, -3, -3, -9
1503958560446,+0.808,+0.318,+0.247,+0.429,+0.737,-0.127,-0.631,-0.875,-3.062,+6.250,5, 5, -10, 1, -2, -1, -2, -4
1503958560468,+0.809,+0.318,+0.247,+0.429,+0.737,-0.129,-0.631,-2.062,-2.312,+5.750,-5, -7, -5, 1, 12, -2, -1, -12
1503958560489,+0.809,+0.318,+0.247,+0.428,+0.738,-0.129,-0.623,-3.938,+3.312,+1.438,3, -4, -2, 3, -2, 0, 4, 4
1503958560506,+0.808,+0.320,+0.247,+0.428,+0.738,-0.128,-0.628,-4.625,+9.188,-2.062,1, 11, -6, 11, 0, -3, -8, 3
1503958560528,+0.807,+0.323,+0.248,+0.428,+0.773,-0.106,-0.626,-4.938,+14.625,-5.000,8, 7, 3, -1, -2, 1, -4, 4
1503958560549,+0.806,+0.326,+0.248,+0.428,+0.796,-0.078,-0.631,-3.125,+17.125,-8.312,-7, 6, 11, -3, -5, -1, 0, -4
1503958560568,+0.804,+0.327,+0.248,+0.429,+0.797,-0.092,-0.641,+1.625,+7.125,-9.000,-1, -2, -5, -2, 3, -1, -2, -18
1503958560588,+0.804,+0.327,+0.248,+0.431,+0.801,-0.110,-0.638,+2.938,-4.562,-9.812,2, -12, -5, -6, -4, -1, -2, 2
1503958560610,+0.803,+0.326,+0.248,+0.433,+0.785,-0.104,-0.645,+5.562,-4.562,-8.188,4, 2, 20, 0, 3, -1, 4, 5
1503958560626,+0.803,+0.325,+0.249,+0.434,+0.778,-0.100,-0.660,+9.312,-2.250,+0.375,2, 6, 0, -5, -5, -3, 0, -3
1503958560648,+0.803,+0.324,+0.251,+0.433,+0.798,-0.107,-0.660,+11.625,+1.500,+8.312,-1, 6, 2, -1, -1, 1, 0, 5
1503958560669,+0.803,+0.323,+0.254,+0.432,+0.805,-0.114,-0.650,+15.188,+5.000,+13.625,-4, -3, -2, -3, -3, -3, -2, -2
1503958560685,+0.803,+0.322,+0.258,+0.431,+0.820,-0.130,-0.669,+20.812,+3.500,+18.125,0, 4, 0, -2, 1, 0, 1, 0
1503958560707,+0.803,+0.319,+0.263,+0.429,+0.818,-0.132,-0.668,+26.312,+2.688,+22.000,-6, 4, -1, -1, -2, 0, -3, -2
1503958560729,+0.803,+0.316,+0.269,+0.427,+0.827,-0.141,-0.667,+32.562,+3.750,+25.688,9, 5, -12, 8, -4, -2, 4, -3
1503958560745,+0.803,+0.313,+0.276,+0.426,+0.827,-0.158,-0.657,+36.688,+2.625,+28.250,-12, -13, -15, 5, -1, -1, 1, -5
1503958560768,+0.803,+0.309,+0.283,+0.424,+0.813,-0.172,-0.645,+41.562,+0.562,+29.875,8, 17, 3, 4, -1, -1, -1, -4
1503958560789,+0.803,+0.304,+0.291,+0.423,+0.802,-0.179,-0.643,+48.312,-1.625,+29.875,-3, 5, 12, -15, 2, 2, -3, 17
1503958560806,+0.802,+0.298,+0.300,+0.422,+0.787,-0.221,-0.639,+53.312,-1.000,+30.312,-12, -14, -4, -4, 1, -1, -2, -5
1503958560828,+0.801,+0.293,+0.309,+0.420,+0.776,-0.251,-0.624,+56.188,+6.312,+31.188,-5, 17, 11, 4, -3, 1, 0, -14
1503958560849,+0.800,+0.289,+0.320,+0.418,+0.774,-0.257,-0.617,+60.188,+10.938,+31.625,4, -3, -6, 1, -2, -3, 0, 0
1503958560866,+0.798,+0.284,+0.331,+0.417,+0.774,-0.278,-0.599,+63.312,+8.062,+31.688,1, -11, -8, -3, -2, 0, -3, 4
1503958560889,+0.796,+0.278,+0.341,+0.416,+0.767,-0.298,-0.594,+66.750,+4.312,+30.875,2, -9, -2, -3, 1, 0, 0, -5
1503958569597,+0.860,+0.340,+0.145,+0.352,+0.707,-0.002,-0.723,+0.062,-5.938,-4.625,0, -2, 1, -2, 0, -3, -1, 1
1503958569610,+0.860,+0.339,+0.145,+0.352,+0.718,-0.020,-0.689,+1.438,-7.562,-2.312,4, -1, -11, 6, -7, 0, -2, 4
1503958569633,+0.861,+0.337,+0.145,+0.352,+0.743,-0.036,-0.680,+0.062,-9.750,+1.375,-5, 5, -8, 4, -3, -1, 3, -4
1503958569654,+0.862,+0.336,+0.144,+0.352,+0.724,-0.018,-0.702,-3.875,-8.125,+4.500,-1, 5, -13, -3, -2, -1, 0, -6
1503958569672,+0.862,+0.335,+0.144,+0.351,+0.720,-0.004,-0.708,-3.938,-6.812,+5.125,-4, -3, 8, -2, 2, -1, -3, 0
1503958569692,+0.863,+0.335,+0.143,+0.350,+0.717,-0.008,-0.688,-4.688,-5.875,+5.125,1, 3, 3, 4, 3, 0, -1, -10
1503958569714,+0.863,+0.335,+0.143,+0.349,+0.708,+0.013,-0.689,-5.750,-1.938,+3.875,-1, 1, -2, 0, -5, -1, -3, -4
1503958569736,+0.863,+0.336,+0.142,+0.349,+0.688,+0.023,-0.699,-3.250,+3.250,+0.438,1, -5, -6, 5, -1, 0, 1, 3
1503958569752,+0.863,+0.336,+0.142,+0.350,+0.686,+0.021,-0.722,-0.875,+4.250,-0.875,-1, 9, 0, -3, 0, -2, -4, -2
1503958569774,+0.863,+0.337,+0.142,+0.350,+0.687,+0.009,-0.731,-1.250,+8.312,-0.688,3, -9, -4, -3, -1, 0, 3, 6
1503958569790,+0.862,+0.339,+0.143,+0.349,+0.686,-0.005,-0.728,-0.938,+14.625,-1.125,-8, 4, 9, -2, 2, 0, -2, -16
1503958569812,+0.861,+0.340,+0.144,+0.349,+0.721,-0.005,-0.710,+1.125,+13.500,-0.812,0, -10, -2, -7, -4, -1, -1, -1
1503958569834,+0.860,+0.342,+0.145,+0.349,+0.730,-0.016,-0.692,+1.688,+12.750,-1.438,3, 0, 14, -13, -1, -1, -8, -3
1503958569850,+0.859,+0.344,+0.146,+0.349,+0.727,-0.013,-0.686,+1.812,+11.375,-1.125,5, 15, 9, -1, -2, 0, 1, 4
1503958569873,+0.859,+0.345,+0.148,+0.349,+0.720,-0.016,-0.678,+4.062,+9.000,+0.375,6, 0, 2, -6, -2, -2, -2, 3
1503958569894,+0.858,+0.346,+0.148,+0.350,+0.712,-0.024,-0.672,+1.000,+8.188,-2.188,1, 4, -4, -9, 13, 0, -2, -14
1503958569910,+0.857,+0.347,+0.149,+0.350,+0.731,-0.001,-0.655,+0.500,+5.938,-1.688,-7, -11, 1, 5, 0, 0, -1, -8
1503958569932,+0.857,+0.348,+0.150,+0.350,+0.768,+0.001,-0.664,+0.625,+4.875,+0.750,-3, -14, -18, -7, -4, 2, 1, 4
1503958569954,+0.857,+0.348,+0.150,+0.349,+0.779,-0.003,-0.673,-2.375,-0.500,+5.312,11, 0, 4, -11, -14, 0, 0, -1
1503958569970,+0.858,+0.348,+0.149,+0.348,+0.759,-0.007,-0.675,-4.438,-6.312,+6.875,-7, -8, -8, 7, -4, -1, 3, 6
1503958569992,+0.859,+0.347,+0.149,+0.347,+0.748,+0.001,-0.672,-4.188,-7.375,+7.062,-5, 4, 10, 2, 4, -1, -4, 4
1503958570014,+0.859,+0.346,+0.148,+0.345,+0.751,-0.011,-0.668,-6.375,-5.062,+7.438,-1, -1, 2, 0, -4, -3, -1, -5
1503958570032,+0.860,+0.346,+0.148,+0.345,+0.737,+0.000,-0.676,-3.438,-6.625,+4.062,-1, 0, -2, 4, 0, -2, 0, 1
1503958570052,+0.861,+0.344,+0.147,+0.345,+0.717,-0.001,-0.698,-2.375,-13.500,+0.812,-2, 3, -2, 3, -14, -3, 1, 0
1503958570079,+0.862,+0.341,+0.145,+0.345,+0.694,-0.001,-0.698,-3.375,-15.312,+2.188,0, -4, 0, 0, 9, 0, 1, 5
1503958570090,+0.863,+0.340,+0.145,+0.344,+0.690,-0.011,-0.702,-5.188,-8.750,+5.250,1, -7, 0, 0, 2, 1, -3, -1
1503958570112,+0.864,+0.339,+0.144,+0.343,+0.719,-0.016,-0.710,-5.188,-5.125,+6.625,1, -7, 2, 0, 5, -2, -1, -2
1503958570134,+0.865,+0.337,+0.143,+0.342,+0.729,-0.018,-0.713,-3.375,-12.500,+7.312,2, -10, -14, 3, -5, -3, 1, 1
1503958570150,+0.867,+0.334,+0.143,+0.341,+0.726,-0.027,-0.704,-3.750,-20.375,+8.000,-5, 4, 2, 0, -3, 0, -4, -7
1503958570173,+0.868,+0.331,+0.141,+0.340,+0.695,-0.037,-0.690,-5.438,-20.250,+9.688,5, 0, -9, 5, -6, -1, 1, 4
1503958570194,+0.870,+0.329,+0.140,+0.339,+0.680,-0.019,-0.709,-7.062,-15.688,+10.562,1, 8, 5, -2, -9, 1, -1, 1
1503958570210,+0.871,+0.327,+0.139,+0.338,+0.681,-0.006,-0.728,-6.625,-11.438,+7.625,-3, -7, -4, -3, 4, 2, 1, 2
1503958570234,+0.872,+0.326,+0.138,+0.337,+0.683,-0.011,-0.721,-4.812,-7.688,+3.750,-2, 6, 5, -2, 6, 1, -1, -2
1503958570254,+0.873,+0.326,+0.138,+0.337,+0.696,-0.016,-0.723,-4.125,-4.125,+2.250,2, 20, 5, -2, 5, 1, 1, -3
1503958570277,+0.873,+0.325,+0.137,+0.336,+0.705,-0.020,-0.734,-3.750,-3.375,+2.812,3, -2, 1, -3, -4, -2, -1, 4
1503958570292,+0.873,+0.325,+0.137,+0.336,+0.706,-0.019,-0.742,-2.688,-5.375,+1.125,0, -8, -4, 1, 1, -1, 4, -12
1503958570314,+0.874,+0.324,+0.136,+0.336,+0.704,-0.019,-0.745,-1.500,-7.562,+0.188,3, -5, -1, -5, 4, -2, 0, 4
1503958570330,+0.874,+0.322,+0.136,+0.336,+0.697,-0.033,-0.740,-1.375,-7.125,+1.875,4, -13, -7, -6, -3, -1, -4, 7
1503958570352,+0.875,+0.322,+0.136,+0.335,+0.691,-0.035,-0.735,-1.312,-4.062,+4.188,0, 36, -10, 1, -8, -5, -9, -6
1503958570374,+0.875,+0.321,+0.137,+0.334,+0.698,-0.042,-0.739,-0.625,-0.688,+6.312,-3, -16, 5, 5, 2, -3, 1, -3
1503958570390,+0.876,+0.321,+0.138,+0.333,+0.688,-0.042,-0.746,+0.000,-1.250,+7.312,-5, -9, 0, -1, 6, 0, -2, 0
1503958570412,+0.876,+0.320,+0.138,+0.332,+0.669,-0.042,-0.739,+0.062,-2.000,+6.875,2, 3, -1, 2, 1, -4, 0, 9
1503958570435,+0.877,+0.320,+0.139,+0.331,+0.684,-0.047,-0.731,+0.500,+2.688,+6.812,-2, 8, 6, 2, 0, -2, 0, -7
1503958570450,+0.877,+0.321,+0.140,+0.330,+0.704,-0.045,-0.737,+0.938,+7.125,+6.688,0, -4, -18, 4, -6, 2, 6, 6
1503958570476,+0.876,+0.322,+0.142,+0.329,+0.721,-0.034,-0.759,+4.438,+11.875,+6.250,2, 11, -4, -5, -5, 1, 7, -1
1503958570495,+0.875,+0.324,+0.144,+0.329,+0.704,-0.021,-0.731,+8.062,+16.250,+3.188,2, 3, -3, 1, 4, 0, -2, 1
1503958570511,+0.874,+0.325,+0.147,+0.329,+0.681,-0.016,-0.713,+13.312,+12.375,+4.438,-5, -14, 1, -1, -3, -1, -4, 3
1503958570532,+0.874,+0.326,+0.151,+0.328,+0.694,-0.055,-0.700,+12.062,+12.938,+8.812,-2, 5, -4, -1, 1, -2, 3, 0
1503958570554,+0.873,+0.328,+0.154,+0.326,+0.742,-0.098,-0.688,+7.938,+17.062,+10.250,0, 11, 9, -4, 0, -2, -5, -7
1503958570571,+0.872,+0.330,+0.157,+0.325,+0.751,-0.081,-0.713,+6.688,+18.250,+9.688,1, -10, -5, -1, -1, -1, -1, -5
1503958570593,+0.872,+0.331,+0.160,+0.323,+0.761,-0.065,-0.716,+9.312,+10.500,+15.000,2, -9, -2, -4, 2, -2, 1, -2
1503958570615,+0.873,+0.329,+0.163,+0.322,+0.774,-0.101,-0.704,+13.188,-4.875,+13.812,-11, -1, -6, 11, -1, -1, -5, -35
1503958570637,+0.873,+0.327,+0.166,+0.321,+0.764,-0.120,-0.675,+11.688,-11.938,+9.812,1, 8, 10, -10, 0, 2, 1, 6
1503958570653,+0.874,+0.324,+0.168,+0.321,+0.709,-0.111,-0.675,+11.125,-12.188,+7.875,2, 0, 8, -6, 1, -2, -7, 2
1503958570675,+0.875,+0.322,+0.169,+0.320,+0.677,-0.097,-0.694,+8.188,-9.312,+5.938,0, -7, 2, 0, 1, 0, -4, 3
1503958570690,+0.875,+0.321,+0.170,+0.320,+0.671,-0.095,-0.691,+6.125,-2.125,+3.062,8, 1, 0, -3, -2, 0, -1, 0
1503958570713,+0.874,+0.322,+0.172,+0.320,+0.684,-0.104,-0.673,+4.750,+6.188,+1.062,-1, 5, 3, 13, 10, 0, -8, 3
1503958570734,+0.874,+0.323,+0.173,+0.320,+0.688,-0.085,-0.682,+2.562,+8.500,-0.375,-3, 2, 6, -8, -2, -1, 1, 1
1503958570750,+0.873,+0.324,+0.173,+0.321,+0.693,-0.058,-0.682,+0.438,+7.500,-3.438,3, 5, 3, -1, -3, -2, 3, 2
1503958570773,+0.872,+0.326,+0.173,+0.322,+0.693,-0.050,-0.686,-0.375,+8.125,-6.750,-7, -6, -14, -9, 1, -2, 2, 2
1503958570795,+0.871,+0.327,+0.172,+0.323,+0.705,-0.049,-0.692,-1.688,+8.688,-9.750,-4, 1, -3, 3, -2, -2, 2, 4
1503958570811,+0.870,+0.329,+0.171,+0.325,+0.710,-0.048,-0.688,-4.250,+7.750,-14.188,3, -5, -1, -3, -5, -1, -1, -6
1503958570833,+0.868,+0.331,+0.169,+0.328,+0.699,-0.044,-0.682,-5.375,+7.375,-19.875,1, -1, -1, -1, -3, -1, -4, -2
1503958570862,+0.867,+0.334,+0.167,+0.331,+0.692,-0.046,-0.684,-7.375,+9.250,-26.062,-5, -1, -2, 3, 1, 1, -1, -4
1503958570877,+0.865,+0.337,+0.165,+0.335,+0.710,-0.023,-0.674,-9.000,+11.438,-29.438,0, -1, 4, -1, -2, 0, -4, -1
1503958570893,+0.862,+0.340,+0.162,+0.339,+0.734,-0.013,-0.722,-8.688,+13.375,-32.750,0, -1, 0, 1, 11, 1, 4, -1
1503958570915,+0.860,+0.342,+0.156,+0.345,+0.758,+0.093,-0.752,-13.750,-3.500,-41.250,6, -8, -5, -8, -10, -2, 8, 2
1503958570936,+0.859,+0.341,+0.153,+0.350,+0.738,-0.009,-0.715,-4.125,-14.438,-30.875,-3, 2, 3, 2, 0, 1, 0, -4
1503958570953,+0.859,+0.339,+0.150,+0.354,+0.717,-0.006,-0.743,-1.812,-12.188,-24.188,-1, 3, -4, -2, -3, -1, -1, 1
1503958570975,+0.858,+0.339,+0.149,+0.356,+0.679,-0.006,-0.756,+0.625,+2.375,-15.375,0, 1, -1, 1, -6, -3, -2, 1
1503958570997,+0.857,+0.341,+0.152,+0.356,+0.704,-0.052,-0.759,+8.188,+22.500,-0.625,0, 2, -10, 2, -4, -4, -1, 8
1503958571013,+0.854,+0.346,+0.158,+0.354,+0.793,-0.087,-0.685,+11.750,+44.125,+7.188,-8, -8, -2, 2, 1, -1, -4, 7
1503958571035,+0.852,+0.351,+0.161,+0.353,+0.876,+0.063,-0.761,+8.562,+30.875,+8.062,1, 1, -3, 2, -6, -1, 1, -6
1503958571056,+0.851,+0.353,+0.165,+0.353,+0.892,-0.022,-0.678,+17.625,+14.625,+8.875,-3, -6, -2, 2, -3, 0, 1, 1
1503958571073,+0.850,+0.352,+0.171,+0.352,+0.862,-0.098,-0.698,+24.000,+3.750,+11.000,0, -15, -5, -6, 0, -3, 0, -2
1503958571095,+0.850,+0.350,+0.176,+0.352,+0.806,-0.098,-0.706,+28.125,+4.125,+10.812,1, 6, 23, -13, 8, 0, -9, -10
1503958571116,+0.849,+0.349,+0.183,+0.352,+0.787,-0.090,-0.696,+32.188,+11.438,+11.375,-6, 1, -6, -1, -3, -2, -5, 0
1503958571133,+0.847,+0.349,+0.191,+0.351,+0.790,-0.114,-0.671,+36.438,+20.125,+12.188,1, -8, -1, 1, -2, -1, 1, 4
1503958581017,+0.861,+0.292,+0.192,+0.369,+0.684,-0.089,-0.708,+1.312,-2.062,-5.875,12, 3, -2, 1, 12, 2, 2, 2
1503958581039,+0.861,+0.291,+0.191,+0.370,+0.693,-0.060,-0.758,+1.938,-6.250,-4.062,6, -5, -16, 7, 10, -3, 3, 8
1503958581062,+0.862,+0.290,+0.191,+0.370,+0.693,-0.056,-0.744,+2.500,-9.125,+2.062,5, -5, -12, -3, -7, -1, -1, -32
1503958581078,+0.862,+0.289,+0.191,+0.369,+0.681,-0.082,-0.767,+0.188,-6.000,+9.625,18, 5, 13, -3, -22, -1, -5, 12
1503958581099,+0.863,+0.289,+0.191,+0.367,+0.663,-0.106,-0.727,-2.438,+3.062,+11.312,-10, 4, -10, 5, 7, 3, -7, -2
1503958581122,+0.863,+0.290,+0.192,+0.366,+0.703,-0.097,-0.688,-2.562,+2.250,+7.688,-5, 6, 0, 7, 4, -1, 1, 4
1503958581137,+0.864,+0.289,+0.191,+0.366,+0.729,-0.091,-0.723,-1.938,-8.250,+6.188,0, 9, 13, -2, 0, 2, 3, -4
1503958581159,+0.865,+0.288,+0.190,+0.366,+0.669,-0.086,-0.741,-1.750,-9.750,+3.062,8, -6, -7, 0, 16, 7, 6, 4
1503958581182,+0.865,+0.286,+0.190,+0.365,+0.643,-0.062,-0.773,+1.125,-5.188,+5.688,-2, -9, -2, -5, 5, 0, 4, 6
1503958581197,+0.866,+0.286,+0.190,+0.364,+0.633,-0.086,-0.773,-1.625,+3.875,+9.938,15, 2, 6, -1, 0, 0, -1, 8
1503958581220,+0.865,+0.288,+0.190,+0.362,+0.670,-0.133,-0.715,-5.875,+12.438,+4.500,-29, 2, -5, 5, 1, -3, -2, -18
1503958581242,+0.865,+0.292,+0.191,+0.361,+0.691,-0.140,-0.693,-9.125,+16.312,+3.312,3, -8, 0, -6, -6, -1, -1, 8
1503958581257,+0.865,+0.294,+0.190,+0.360,+0.662,-0.131,-0.692,-10.250,+11.000,+0.125,-5, 3, 4, 3, -4, -2, -4, -11
1503958581282,+0.864,+0.296,+0.189,+0.360,+0.676,-0.117,-0.707,-12.312,+6.188,-6.375,4, 1, 2, -4, 4, -3, -1, -8
1503958581301,+0.864,+0.298,+0.187,+0.360,+0.637,-0.106,-0.725,-14.688,+8.188,-6.625,14, -10, -6, -9, -15, -4, 5, 9
1503958581317,+0.864,+0.299,+0.185,+0.361,+0.664,-0.093,-0.719,-12.312,+4.750,-6.875,-4, -4, -1, -3, 0, -5, -2, 2
1503958581340,+0.863,+0.301,+0.183,+0.361,+0.673,-0.076,-0.731,-10.375,+6.188,-9.875,-3, 6, -3, 2, 9, 6, 4, 4
1503958581362,+0.863,+0.302,+0.181,+0.362,+0.654,-0.084,-0.746,-11.500,+2.250,-8.875,-2, -6, 1, -3, -2, 2, -3, -4
1503958581383,+0.863,+0.303,+0.180,+0.363,+0.658,-0.066,-0.748,-9.125,+5.062,-6.812,-15, -8, 2, -4, 0, 0, 1, -7
1503958581400,+0.862,+0.304,+0.179,+0.363,+0.690,-0.053,-0.768,-5.812,+5.938,-5.125,-2, -1, 1, -2, -4, -5, 1, -2
1503958581422,+0.862,+0.305,+0.178,+0.363,+0.698,-0.077,-0.745,-5.312,+3.562,-2.438,3, -2, -7, 3, 7, 11, -3, -3
1503958581437,+0.862,+0.305,+0.177,+0.363,+0.713,-0.079,-0.725,-4.312,+0.500,-0.438,-8, 11, 3, 10, 16, 2, 1, -11
1503958581459,+0.862,+0.305,+0.177,+0.363,+0.701,-0.071,-0.729,-4.250,-2.125,+1.812,-2, -2, -9, 9, -3, 3, 10, -7
1503958581483,+0.863,+0.306,+0.176,+0.362,+0.681,-0.076,-0.712,-6.250,-0.625,+3.125,-4, 4, 5, 0, -3, -2, -4, -2
1503958581497,+0.863,+0.306,+0.176,+0.362,+0.706,-0.064,-0.705,-5.500,-0.188,+3.750,1, -1, -3, -1, -2, -2, -4, -1
1503958581519,+0.863,+0.306,+0.175,+0.361,+0.701,-0.051,-0.715,-6.500,-0.562,+5.438,1, 3, 2, -1, -3, -3, -3, 1
1503958581541,+0.864,+0.306,+0.174,+0.360,+0.710,-0.045,-0.719,-9.062,-5.688,+5.438,-3, -8, -3, -1, -5, -4, -3, -1
1503958581557,+0.865,+0.306,+0.172,+0.359,+0.702,-0.066,-0.720,-9.875,-7.562,+6.125,-2, 0, -2, 0, -3, -2, -2, 6
1503958581582,+0.866,+0.305,+0.171,+0.357,+0.703,-0.070,-0.710,-9.875,-10.938,+6.812,-4, 17, 0, -7, 0, -2, -3, -2
1503958581601,+0.867,+0.304,+0.169,+0.356,+0.691,-0.058,-0.707,-10.750,-11.562,+7.500,-3, -2, -7, -4, -5, 0, -5, -5
1503958581617,+0.869,+0.303,+0.167,+0.355,+0.660,-0.060,-0.739,-12.312,-9.438,+8.375,2, -2, -4, -1, -5, -4, -2, 0
1503958581639,+0.870,+0.302,+0.165,+0.353,+0.660,-0.075,-0.735,-11.562,-6.375,+7.375,4, -3, 0, 1, 5, 0, -4, 0
1503958581662,+0.871,+0.302,+0.164,+0.352,+0.672,-0.094,-0.750,-10.812,-4.250,+5.000,-2, 3, 0, 5, -1, -1, -2, -2
1503958581677,+0.872,+0.301,+0.163,+0.351,+0.686,-0.086,-0.755,-9.062,-6.875,+4.750,5, -4, -3, -2, 1, -1, 15, -1
1503958581699,+0.873,+0.299,+0.162,+0.350,+0.680,-0.084,-0.743,-7.562,-11.625,+7.188,-6, -3, -2, -5, 1, -5, -3, -1
1503958581722,+0.874,+0.297,+0.161,+0.349,+0.674,-0.099,-0.743,-6.312,-13.562,+7.312,5, -1, -5, -2, -1, -2, -2, 1
1503958581737,+0.875,+0.296,+0.160,+0.348,+0.653,-0.097,-0.764,-7.188,-12.500,+6.125,7, -14, 1, -5, -3, -1, 0, 0
1503958581759,+0.876,+0.294,+0.159,+0.347,+0.629,-0.088,-0.757,-7.188,-10.250,+6.688,5, 8, 2, 8, 3, -1, -3, 1
1503958581783,+0.878,+0.292,+0.158,+0.346,+0.653,-0.090,-0.743,-5.438,-11.438,+7.688,-2, 7, 8, -10, 5, 2, -1, -3
1503958581797,+0.879,+0.291,+0.157,+0.344,+0.673,-0.084,-0.754,-6.000,-10.312,+8.000,4, -1, -2, -3, -1, -1, -4, -3
1503958581819,+0.880,+0.289,+0.156,+0.343,+0.657,-0.081,-0.758,-3.938,-12.500,+8.438,-2, 2, -1, 0, -2, 0, -9, -11
1503958581842,+0.881,+0.286,+0.156,+0.343,+0.654,-0.080,-0.772,-3.312,-16.375,+6.750,0, -9, 4, -7, 0, 2, 1, 8
1503958581857,+0.882,+0.284,+0.155,+0.342,+0.632,-0.083,-0.772,-3.938,-15.312,+5.375,11, 6, -1, -1, 0, 1, 0, 12
1503958581881,+0.883,+0.282,+0.154,+0.341,+0.630,-0.068,-0.762,-3.562,-14.125,+7.875,-5, -5, 1, 3, -1, -1, 7, 2
1503958581902,+0.885,+0.280,+0.153,+0.340,+0.646,-0.083,-0.776,-3.125,-11.812,+10.938,-7, -10, -3, -12, -2, -1, -11, -15
1503958581917,+0.886,+0.278,+0.153,+0.338,+0.646,-0.102,-0.771,-2.438,-10.375,+12.125,1, -13, -3, -1, -3, 3, 1, -11
1503958581939,+0.887,+0.276,+0.154,+0.337,+0.661,-0.099,-0.774,-0.875,-12.688,+11.562,-1, 52, -5, 15, 2, -2, -13, -2
1503958581962,+0.888,+0.274,+0.154,+0.335,+0.656,-0.109,-0.787,+0.125,-13.500,+11.562,-3, -31, -6, -3, 1, 4, 22, 9
1503958581977,+0.889,+0.272,+0.155,+0.333,+0.643,-0.140,-0.788,+0.125,-10.625,+14.938,16, 23, 14, -4, 3, -1, -10, 10
1503958581999,+0.891,+0.270,+0.156,+0.331,+0.646,-0.139,-0.774,+1.125,-11.000,+17.812,-5, 20, 4, 10, 0, -2, -2, 2
1503958582022,+0.892,+0.268,+0.157,+0.328,+0.671,-0.141,-0.769,+0.688,-8.312,+19.312,10, -12, 0, -11, -3, -2, -2, 1
1503958582044,+0.893,+0.268,+0.159,+0.325,+0.668,-0.141,-0.783,+1.875,-3.625,+19.250,7, 0, -5, 12, 1, -6, -17, -4
1503958582059,+0.894,+0.267,+0.161,+0.322,+0.657,-0.149,-0.805,+4.188,+3.688,+19.375,-3, 4, 1, -2, 6, 1, 3, 3
1503958582084,+0.894,+0.268,+0.164,+0.319,+0.667,-0.158,-0.780,+4.375,+7.625,+19.188,-25, -5, 6, -1, 0, 1, 0, -17
1503958582105,+0.894,+0.270,+0.166,+0.316,+0.689,-0.150,-0.749,+3.312,+12.188,+20.562,13, 20, -9, 7, 1, 1, 3, 4
1503958582120,+0.894,+0.272,+0.169,+0.312,+0.667,-0.131,-0.783,+4.062,+19.625,+19.625,-6, 0, 1, 7, -14, -9, -5, -2
1503958582142,+0.894,+0.274,+0.172,+0.310,+0.677,-0.142,-0.794,+7.125,+19.562,+17.188,-14, 6, 12, -7, 1, -1, 1, 3
1503958582164,+0.893,+0.276,+0.176,+0.307,+0.697,-0.149,-0.780,+9.500,+16.312,+15.875,-14, -17, -6, -8, -1, 1, 0, 3
1503958582179,+0.893,+0.278,+0.179,+0.305,+0.693,-0.158,-0.766,+12.062,+14.500,+15.188,-1, -13, -18, 12, 1, -4, -9, -10
1503958582201,+0.893,+0.279,+0.183,+0.303,+0.668,-0.177,-0.755,+13.375,+12.250,+14.375,10, -22, -3, -3, 4, -1, 6, 4
1503958582223,+0.892,+0.279,+0.187,+0.302,+0.638,-0.190,-0.749,+15.312,+10.750,+12.125,12, 3, -5, -6, -7, 1, 3, -8
1503958582238,+0.892,+0.280,+0.190,+0.300,+0.621,-0.211,-0.760,+11.375,+15.188,+7.875,-8, -12, 1, -8, -2, 0, 3, 3
1503958582261,+0.891,+0.282,+0.194,+0.299,+0.617,-0.232,-0.762,+5.875,+25.438,+7.375,-21, -2, 3, 8, -1, -5, -11, 3
1503958582289,+0.890,+0.286,+0.196,+0.296,+0.611,-0.227,-0.740,+1.125,+31.188,+8.938,11, 27, 17, -3, 3, 1, 0, 6
1503958582298,+0.889,+0.291,+0.199,+0.293,+0.637,-0.221,-0.714,-2.125,+32.625,+8.500,6, 41, 5, -5, -9, -1, 2, -3
1503958582321,+0.887,+0.296,+0.200,+0.291,+0.670,-0.231,-0.715,-5.500,+34.125,+4.500,-10, -31, 3, 4, -1, 1, -4, -7
1503958582343,+0.886,+0.300,+0.201,+0.289,+0.675,-0.214,-0.715,-9.625,+30.062,+1.312,11, -6, -5, -6, 2, -1, -1, 5
1503958582366,+0.885,+0.304,+0.201,+0.288,+0.670,-0.161,-0.708,-10.188,+25.688,+1.562,-3, -16, -10, -10, -6, -3, 1, -16
1503958582381,+0.885,+0.308,+0.200,+0.287,+0.648,-0.127,-0.708,-9.875,+21.500,+1.188,-1, 6, -6, -13, -11, -1, 6, -7
1503958582403,+0.884,+0.311,+0.199,+0.286,+0.656,-0.150,-0.690,-9.875,+15.000,-3.250,-3, -6, -7, -7, -2, 0, -1, 3
1503958582422,+0.884,+0.313,+0.197,+0.287,+0.660,-0.176,-0.680,-14.562,+12.125,-9.312,8, 7, 1, -1, 1, 1, -1, 4
1503958582441,+0.881,+0.316,+0.178,+0.302,+1.046,+0.290,-0.590,-66.500,-37.562,-118.062,-3, -3, 0, -6, -1, 2, -4, 7
1503958582463,+0.885,+0.306,+0.167,+0.309,+0.553,-0.026,-0.684,-26.688,-80.938,-31.188,6, -5, 9, -1, -17, -10, 0, 7
1503958582478,+0.890,+0.292,+0.157,+0.313,+0.457,-0.069,-0.777,-27.875,-92.125,-21.438,-16, 1, -6, 7, 9, -1, -11, 6
1503958582501,+0.892,+0.286,+0.148,+0.318,+0.454,-0.090,-0.787,-29.938,-44.375,-32.562,-8, 4, 7, -1, -10, 1, 8, -14
1503958582523,+0.892,+0.284,+0.140,+0.323,+0.466,-0.020,-0.790,-27.062,-18.500,-37.500,8, 9, -4, 3, 1, 0, 0, -12
1503958582538,+0.892,+0.283,+0.133,+0.328,+0.513,+0.057,-0.795,-22.750,-13.688,-30.188,10, 22, 1, 0, 4, 3, -10, -3
1503958582562,+0.891,+0.282,+0.127,+0.332,+0.529,+0.032,-0.782,-16.000,-16.562,-28.125,-7, -5, 3, 2, 2, -1, 1, -1
1503958582583,+0.891,+0.280,+0.123,+0.335,+0.509,-0.021,-0.763,-14.062,-14.438,-23.438,-3, 2, 12, -9, 5, 5, 2, 6
1503958582598,+0.891,+0.280,+0.120,+0.338,+0.512,-0.015,-0.792,-14.062,-3.750,-20.125,-3, -6, -2, 3, -3, -5, 4, -5
1503958582621,+0.890,+0.282,+0.117,+0.340,+0.548,-0.019,-0.811,-15.688,+9.188,-19.062,19, -12, 9, -13, 1, -2, -5, 2
1503958582643,+0.888,+0.285,+0.115,+0.342,+0.607,-0.021,-0.793,-15.500,+16.250,-18.625,-19, -7, -10, 6, 1, -2, -6, -10
1503958582658,+0.886,+0.290,+0.113,+0.343,+0.675,-0.014,-0.798,-15.625,+22.688,-16.938,-23, -13, -9, 5, -2, -1, 1, -10
1503958582681,+0.884,+0.296,+0.112,+0.344,+0.719,+0.027,-0.788,-15.375,+29.938,-15.000,2, -12, -1, 3, -4, -1, -1, 5
1503958592708,+0.731,+0.483,+0.257,+0.406,+0.942,+0.017,-0.356,+1.250,+4.750,-8.625,-6, -7, 32, -5, 6, -1, -6, -4
1503958592725,+0.731,+0.484,+0.257,+0.407,+0.978,+0.023,-0.361,+1.250,+2.125,-7.188,1, 5, -8, 1, -2, -2, -3, 7
1503958592745,+0.730,+0.484,+0.256,+0.409,+0.994,+0.030,-0.354,+1.125,-6.375,-6.312,0, -3, -7, 6, 3, -2, 8, -3
1503958592769,+0.731,+0.482,+0.255,+0.410,+0.957,+0.020,-0.347,+0.000,-13.188,-6.250,-1, -15, -10, -3, -2, 0, 7, 3
1503958592793,+0.731,+0.481,+0.254,+0.412,+0.923,+0.030,-0.363,-0.562,-11.188,-8.812,4, -1, 1, 0, -9, 3, 3, 1
1503958592808,+0.731,+0.481,+0.252,+0.413,+0.929,+0.042,-0.369,-2.875,-8.375,-7.125,-2, -9, -4, 8, 3, -3, -1, 3
1503958592829,+0.732,+0.481,+0.251,+0.413,+0.945,+0.042,-0.355,-5.125,-6.062,-5.750,-4, 5, -1, -5, 3, 0, 3, -1
1503958592850,+0.731,+0.481,+0.250,+0.414,+0.950,+0.050,-0.348,-5.125,-1.562,-6.750,0, 3, -11, 2, -3, -1, 1, -17
1503958592867,+0.731,+0.481,+0.248,+0.415,+0.927,+0.077,-0.369,-3.562,-5.375,-7.250,0, -8, 8, -3, -3, 1, 2, 4
1503958592889,+0.731,+0.481,+0.246,+0.416,+0.925,+0.068,-0.368,-2.375,-8.250,-7.062,2, 4, -2, -7, -2, 0, 4, -4
1503958592910,+0.732,+0.481,+0.245,+0.417,+0.942,+0.062,-0.383,-5.625,-5.875,-4.812,4, -6, 12, -7, 3, 1, 0, 0
1503958592927,+0.733,+0.480,+0.243,+0.417,+0.955,+0.065,-0.371,-5.938,-12.750,-1.375,-4, 3, 4, -3, -4, -4, -11, -4
1503958592948,+0.734,+0.479,+0.241,+0.417,+0.940,+0.063,-0.350,-7.688,-15.125,-1.000,-1, 16, 4, 4, -1, -2, 2, -7
1503958592970,+0.735,+0.478,+0.239,+0.417,+0.901,+0.065,-0.370,-10.062,-10.000,-1.375,-3, 2, 13, -2, -1, -2, -2, 5
1503958592986,+0.735,+0.478,+0.238,+0.417,+0.886,+0.075,-0.408,-7.062,-4.125,-0.188,-1, -12, -11, -1, -2, -1, -6, -2
1503958593008,+0.736,+0.478,+0.237,+0.417,+0.922,+0.068,-0.387,-5.750,-4.500,-1.688,-14, 20, 17, 18, 0, 0, 5, 18
1503958593025,+0.737,+0.478,+0.236,+0.417,+0.948,+0.058,-0.386,-6.875,-5.625,+0.688,17, -5, -10, 2, -1, -1, -3, 15
1503958593045,+0.737,+0.478,+0.235,+0.416,+0.938,+0.035,-0.392,-8.125,-3.250,+2.062,25, -10, 3, -19, -6, -9, -4, -18
1503958593074,+0.738,+0.477,+0.234,+0.416,+0.916,+0.043,-0.404,-8.438,-4.062,-3.125,-8, -16, -15, -6, -5, -2, -1, -2
1503958593084,+0.738,+0.478,+0.232,+0.416,+0.902,+0.048,-0.418,-7.562,+0.000,-5.500,-10, -5, -3, -4, -12, 1, 4, 0
1503958593107,+0.738,+0.479,+0.231,+0.416,+0.897,+0.047,-0.392,-8.875,+4.688,-4.688,-5, 18, -11, -8, 3, 0, -7, -12
1503958593129,+0.737,+0.481,+0.231,+0.415,+0.912,+0.058,-0.384,-9.312,+9.750,-1.125,4, -3, 3, -5, 4, 1, 2, -26
1503958593151,+0.736,+0.483,+0.231,+0.413,+0.946,+0.052,-0.367,-10.062,+15.375,+4.250,3, -5, -4, -10, -1, 7, -6, 11
1503958593165,+0.735,+0.486,+0.232,+0.411,+0.957,+0.044,-0.347,-8.750,+15.562,+4.750,-4, -1, 8, 4, 8, 0, 4, -2
1503958593188,+0.735,+0.487,+0.232,+0.410,+0.952,+0.041,-0.373,-8.938,+4.750,-0.875,-2, -9, 5, 2, 4, -2, 5, 8
1503958593204,+0.736,+0.486,+0.230,+0.410,+0.930,+0.071,-0.369,-8.812,-11.125,-0.625,-30, 5, 3, 16, -5, -3, -2, -9
1503958593229,+0.738,+0.485,+0.228,+0.410,+0.906,+0.087,-0.382,-8.875,-14.438,+0.125,0, -19, 2, -3, 2, -5, -11, -3
1503958593248,+0.739,+0.485,+0.227,+0.409,+0.926,+0.074,-0.390,-9.938,-3.438,+6.188,0, -4, -22, 13, -6, -5, 4, -7
1503958593271,+0.740,+0.486,+0.227,+0.405,+0.945,+0.064,-0.343,-13.062,+3.500,+16.250,3, -3, 3, -3, 4, 3, 4, 1
1503958593286,+0.742,+0.486,+0.227,+0.403,+1.004,+0.052,-0.366,-13.688,-5.938,+12.812,1, 11, 3, -14, -4, -1, -6, -5
1503958593308,+0.744,+0.483,+0.224,+0.404,+0.936,+0.081,-0.432,-5.375,-22.062,-2.625,5, -1, 3, -3, 6, 2, 8, 15
1503958593331,+0.746,+0.480,+0.220,+0.406,+0.876,+0.095,-0.417,-3.938,-30.312,-10.625,14, 0, -2, -4, -14, 1, 5, -21
1503958593345,+0.747,+0.478,+0.219,+0.407,+0.845,+0.075,-0.412,-2.938,-17.438,+3.125,-11, 21, 3, -3, 6, 0, -8, 15
1503958593368,+0.748,+0.478,+0.219,+0.405,+0.878,+0.036,-0.383,-7.438,-0.188,+8.812,4, 1, -13, -1, -9, -1, 11, 2
1503958593390,+0.749,+0.479,+0.219,+0.402,+0.939,+0.048,-0.368,-12.688,+5.062,+8.188,6, -16, -9, 0, -1, -3, -4, 5
1503958593405,+0.750,+0.479,+0.218,+0.401,+0.966,+0.094,-0.411,-8.188,-7.000,+5.625,-2, -19, 5, -1, 5, 0, -2, -2
1503958593428,+0.752,+0.476,+0.215,+0.402,+0.952,+0.094,-0.417,-4.188,-25.000,+1.188,-9, -2, -8, 1, 0, -3, 0, -5
1503958593450,+0.755,+0.472,+0.213,+0.402,+0.896,+0.076,-0.426,-4.500,-29.188,+6.375,12, -1, 2, 1, 8, -1, -5, -11
1503958593466,+0.757,+0.469,+0.212,+0.401,+0.848,+0.059,-0.418,-5.812,-20.062,+9.062,-7, 4, 3, 10, 18, 3, -3, 9
1503958593488,+0.759,+0.468,+0.211,+0.400,+0.888,+0.048,-0.417,-9.625,-9.688,+7.875,3, 1, 0, -3, -5, -2, -9, -11
1503958593510,+0.760,+0.468,+0.210,+0.399,+0.914,+0.070,-0.420,-9.250,-6.750,+6.625,6, 10, 14, -6, -4, 0, -6, -29
1503958593525,+0.761,+0.468,+0.209,+0.398,+0.900,+0.077,-0.430,-7.375,-5.375,+5.375,-14, 3, -18, 4, -5, 1, 5, 6
1503958593548,+0.763,+0.467,+0.208,+0.397,+0.881,+0.071,-0.449,-6.812,-8.875,+7.312,4, -1, -6, 6, -7, -1, 1, 10
1503958593573,+0.764,+0.466,+0.208,+0.395,+0.894,+0.048,-0.454,-6.750,-6.438,+9.625,-5, 10, -10, -1, -4, -2, 4, 16
1503958593585,+0.766,+0.464,+0.208,+0.394,+0.907,+0.040,-0.451,-5.375,-7.500,+11.438,-4, -2, -8, -6, 1, -1, 2, 15
1503958593608,+0.767,+0.463,+0.208,+0.392,+0.913,+0.042,-0.437,-3.250,-11.625,+11.750,-5, -11, -3, 2, -8, -5, -2, 0
1503958593636,+0.769,+0.460,+0.207,+0.391,+0.885,+0.039,-0.464,-3.938,-15.562,+10.625,3, -7, 19, -6, -3, 1, -8, -11
1503958593645,+0.772,+0.458,+0.206,+0.390,+0.858,+0.037,-0.471,-4.312,-14.812,+11.500,3, -12, 4, -4, -2, -2, 3, 3
1503958593668,+0.774,+0.456,+0.206,+0.389,+0.850,+0.030,-0.474,-2.000,-10.625,+11.750,-14, -2, -3, 6, 1, 3, -1, -1
1503958593690,+0.775,+0.454,+0.207,+0.388,+0.860,+0.014,-0.466,-0.688,-6.750,+8.125,2, -8, -10, -12, -22, -1, -4, 3
1503958593706,+0.775,+0.454,+0.207,+0.387,+0.878,-0.001,-0.453,-0.688,-2.125,+5.125,0, 5, 0, -3, 0, -11, -10, -2
1503958593728,+0.776,+0.453,+0.208,+0.387,+0.913,+0.013,-0.441,-0.500,-0.812,+4.375,2, 2, 21, 12, 10, 3, 1, 2
1503958593750,+0.776,+0.452,+0.208,+0.387,+0.921,+0.045,-0.445,+2.500,-7.875,+4.500,2, 2, 4, -5, 1, 1, 3, -12
1503958593765,+0.777,+0.450,+0.208,+0.388,+0.914,+0.067,-0.487,+7.938,-15.125,+2.062,-1, -6, -8, 6, 4, -2, 5, 18
1503958593788,+0.779,+0.446,+0.209,+0.389,+0.878,+0.048,-0.479,+8.812,-20.125,+5.438,3, 11, -6, 15, 16, 3, -5, -3
1503958593810,+0.781,+0.443,+0.210,+0.388,+0.852,+0.000,-0.465,+5.812,-17.500,+14.500,2, 7, 15, -12, -2, 3, 3, -15
1503958593825,+0.782,+0.441,+0.212,+0.386,+0.865,-0.018,-0.470,+3.812,-8.312,+19.312,-4, -7, -8, -8, -1, -2, -4, 2
1503958593848,+0.784,+0.439,+0.213,+0.384,+0.879,-0.017,-0.498,+3.188,-6.250,+19.312,-14, -2, -5, -2, -1, -9, -11, 8
1503958593878,+0.786,+0.436,+0.215,+0.382,+0.890,-0.032,-0.485,+3.188,-11.938,+15.562,-8, 0, 6, -2, 4, -1, 0, -4
1503958593893,+0.787,+0.434,+0.216,+0.381,+0.882,-0.062,-0.470,+1.312,-11.688,+9.875,0, -8, -5, 1, 0, 1, 10, 5
1503958593908,+0.788,+0.433,+0.216,+0.380,+0.873,-0.086,-0.466,-3.688,-4.062,+4.438,-1, 13, 6, -8, -1, 0, -2, -8
1503958593934,+0.787,+0.436,+0.216,+0.379,+0.889,-0.061,-0.455,-8.375,+12.125,-2.938,4, -7, -1, -8, -3, 3, -2, 5
1503958593946,+0.785,+0.440,+0.216,+0.379,+0.923,-0.015,-0.455,-8.500,+21.312,-10.125,-5, 0, 9, 7, -3, -2, -4, -17
1503958593968,+0.783,+0.444,+0.216,+0.380,+0.940,+0.024,-0.455,-6.062,+19.250,-14.000,7, -5, -1, -9, -12, -6, 2, 7
1503958593990,+0.781,+0.445,+0.215,+0.382,+0.920,+0.045,-0.455,-2.188,+4.750,-16.625,-2, -2, 0, 5, -4, 0, 0, 17
1503958594006,+0.780,+0.445,+0.212,+0.385,+0.842,+0.078,-0.477,-0.500,-8.688,-18.938,-12, 20, 6, 2, -2, 0, 1, -22
1503958602031,+0.791,+0.338,+0.195,+0.471,+0.765,+0.025,-0.658,-9.625,-2.312,+8.250,0, -5, 4, -1, -5, -1, 0, -1
1503958602055,+0.792,+0.339,+0.194,+0.469,+0.754,+0.029,-0.672,-9.875,+1.125,+9.438,-2, 3, -7, 1, 0, -1, 1, -1
1503958602076,+0.793,+0.339,+0.194,+0.468,+0.769,+0.034,-0.645,-7.750,-0.062,+11.500,-5, -12, -4, -4, -1, -2, -3, -2
1503958602091,+0.794,+0.339,+0.194,+0.466,+0.807,+0.020,-0.668,-5.062,-1.875,+11.625,0, -2, -4, 1, -2, 0, 1, -1
1503958602114,+0.795,+0.338,+0.194,+0.464,+0.785,+0.024,-0.672,-4.188,-6.125,+11.688,-2, -4, 3, -1, 1, -1, 0, 2
1503958602135,+0.797,+0.336,+0.193,+0.463,+0.745,+0.029,-0.677,-4.375,-14.500,+11.875,-2, 2, -3, 2, 0, 2, -1, -4
1503958602151,+0.799,+0.334,+0.191,+0.461,+0.723,+0.018,-0.676,-5.750,-15.875,+15.125,-1, -4, 3, 0, 6, 2, -2, -2
1503958602174,+0.801,+0.332,+0.191,+0.459,+0.691,-0.002,-0.670,-5.438,-7.125,+17.250,2, 0, -5, 1, -2, -1, 1, 0
1503958602196,+0.803,+0.331,+0.191,+0.457,+0.705,-0.019,-0.688,-4.938,-3.438,+15.875,6, -3, 1, -1, -1, -2, 1, -1
1503958602211,+0.805,+0.330,+0.191,+0.455,+0.739,-0.033,-0.670,-5.250,-5.375,+12.938,0, -1, 4, 2, -3, -2, 1, -2
1503958602232,+0.806,+0.330,+0.191,+0.453,+0.709,-0.039,-0.667,-7.500,-4.125,+12.875,-2, 1, 1, -1, -8, -1, 0, 1
1503958602257,+0.808,+0.329,+0.191,+0.451,+0.708,-0.035,-0.684,-7.000,-3.438,+12.938,-1, 6, 1, -2, -3, -1, 0, 1
1503958602270,+0.809,+0.328,+0.191,+0.449,+0.714,-0.054,-0.682,-5.938,-0.125,+9.938,-5, -11, -2, 0, -1, -1, -2, -2
1503958602294,+0.809,+0.328,+0.191,+0.447,+0.746,-0.077,-0.673,-6.688,+0.375,+6.062,-7, 0, 1, -4, -1, 0, 0, 2
1503958602315,+0.810,+0.328,+0.192,+0.446,+0.748,-0.067,-0.678,-5.625,-1.250,+3.812,0, 1, -1, -2, -8, -2, -1, -2
1503958602330,+0.811,+0.328,+0.191,+0.446,+0.715,-0.057,-0.683,-6.312,-0.375,+2.812,-4, 3, -6, 2, 3, 0, -2, 1
1503958602352,+0.810,+0.329,+0.191,+0.446,+0.703,-0.042,-0.688,-5.688,+3.688,-2.938,1, 1, 2, 1, 1, -2, 0, -3
1503958602375,+0.810,+0.330,+0.191,+0.446,+0.735,-0.022,-0.685,-1.875,+7.312,-4.375,2, -1, 5, 0, 6, 1, 3, 1
1503958602392,+0.809,+0.331,+0.192,+0.446,+0.743,+0.013,-0.703,+1.375,+7.625,-2.062,-4, -7, -4, -1, -5, -1, -3, -1
1503958602412,+0.809,+0.330,+0.192,+0.446,+0.748,+0.013,-0.700,+4.062,-1.250,+1.812,-4, -2, -3, -14, 5, -1, -6, -2
1503958602435,+0.809,+0.329,+0.193,+0.446,+0.737,-0.007,-0.680,+5.250,-2.000,+2.500,-1, 0, -5, 4, 1, -2, -1, -3
1503958602450,+0.809,+0.329,+0.194,+0.446,+0.741,+0.006,-0.670,+5.125,-0.625,+3.375,4, 2, -6, -4, 0, 0, -1, -2
1503958602472,+0.810,+0.328,+0.195,+0.446,+0.747,+0.022,-0.681,+4.688,-0.562,+8.062,0, -7, -3, -5, -4, 1, -7, 4
1503958602497,+0.810,+0.328,+0.196,+0.445,+0.750,+0.009,-0.676,+4.938,+2.500,+7.750,-3, -3, 4, -5, -3, -1, 1, -3
1503958602510,+0.810,+0.328,+0.197,+0.444,+0.787,+0.005,-0.673,+4.125,-2.688,+8.750,7, 5, 2, 5, 2, 0, 5, 3
1503958602532,+0.811,+0.326,+0.197,+0.443,+0.776,-0.008,-0.652,+2.125,-11.000,+11.375,-7, -3, 7, -10, -3, 0, 2, 1
1503958602555,+0.813,+0.324,+0.196,+0.442,+0.738,-0.009,-0.640,-0.438,-16.312,+10.562,-3, -3, 2, 3, -15, -5, -16, -6
1503958602570,+0.815,+0.322,+0.195,+0.441,+0.719,-0.017,-0.664,-4.375,-14.875,+12.438,4, -5, 3, 1, -3, -6, -2, -1
1503958602594,+0.816,+0.320,+0.194,+0.439,+0.683,-0.030,-0.686,-7.875,-9.188,+13.938,-2, -3, -2, -2, -2, -1, -6, 5
1503958602615,+0.818,+0.319,+0.193,+0.437,+0.717,-0.029,-0.691,-10.438,-9.875,+14.500,-5, 4, 4, 1, 6, 0, -2, 0
1503958602631,+0.820,+0.318,+0.192,+0.435,+0.749,-0.042,-0.688,-10.750,-10.625,+16.000,5, 7, -6, 4, -2, -1, -10, 0
1503958602652,+0.823,+0.316,+0.190,+0.432,+0.750,-0.061,-0.705,-12.438,-19.500,+14.750,6, -6, 3, -7, -3, -3, 0, -13
1503958602675,+0.825,+0.313,+0.188,+0.431,+0.706,-0.057,-0.693,-12.688,-23.062,+12.938,6, 11, -3, 8, 2, -1, 0, 4
1503958602693,+0.828,+0.310,+0.186,+0.429,+0.663,-0.044,-0.708,-10.625,-19.000,+9.688,5, -2, 0, 0, 1, -1, 2, 1
1503958602713,+0.829,+0.309,+0.184,+0.429,+0.661,-0.034,-0.730,-7.688,-10.875,+6.500,2, -5, -3, -11, -2, 1, -1, 2
1503958602736,+0.830,+0.308,+0.183,+0.427,+0.675,-0.033,-0.736,-4.938,-5.312,+7.688,6, 2, 2, -3, 0, -4, 0, 8
1503958602751,+0.831,+0.307,+0.183,+0.426,+0.698,-0.033,-0.739,-2.438,-0.812,+8.875,-4, -5, 2, 2, 3, 4, 5, 3
1503958602773,+0.831,+0.307,+0.184,+0.425,+0.709,-0.037,-0.736,+1.125,+2.562,+9.250,-22, -6, 2, -11, -3, -1, 11, -8
1503958602795,+0.832,+0.306,+0.185,+0.423,+0.718,-0.030,-0.736,+3.062,-2.875,+15.125,10, 1, -3, 2, -6, 0, -3, -3
1503958602810,+0.834,+0.305,+0.187,+0.421,+0.709,-0.072,-0.712,+4.375,-4.000,+17.250,0, 3, 3, 4, 1, 0, 1, 4
1503958602841,+0.835,+0.303,+0.189,+0.419,+0.700,-0.103,-0.702,+3.938,-0.688,+17.562,5, 15, -4, 7, 2, -1, -6, -21
1503958602855,+0.836,+0.303,+0.191,+0.416,+0.711,-0.104,-0.706,+3.562,+3.625,+17.812,6, 0, 9, -8, 1, 1, 0, 19
1503958602870,+0.836,+0.303,+0.194,+0.414,+0.734,-0.094,-0.697,+4.750,+5.438,+17.062,0, 10, 2, 2, 1, -3, -4, -2
1503958602896,+0.837,+0.303,+0.196,+0.411,+0.731,-0.097,-0.713,+3.562,+4.250,+15.188,-4, -10, -9, -1, -5, -1, 3, 6
1503958602915,+0.838,+0.303,+0.197,+0.410,+0.697,-0.105,-0.689,+1.750,+1.875,+12.500,-16, -10, -3, -4, -2, -3, -8, 1
1503958602932,+0.838,+0.303,+0.199,+0.408,+0.675,-0.103,-0.676,+1.125,+8.312,+10.625,4, -13, -1, 1, -3, -4, 1, 3
1503958602952,+0.838,+0.305,+0.201,+0.406,+0.682,-0.083,-0.705,-0.125,+14.312,+8.812,1, 12, 4, 4, -1, 0, -3, -7
1503958602975,+0.838,+0.306,+0.201,+0.405,+0.704,-0.081,-0.691,-1.625,+10.062,+7.000,-5, 8, -2, 2, 5, 0, -1, 0
1503958602990,+0.838,+0.307,+0.202,+0.403,+0.723,-0.088,-0.681,-3.812,+8.875,+7.188,3, -1, 11, -7, -2, 2, -1, -2
1503958603013,+0.838,+0.309,+0.203,+0.402,+0.718,-0.060,-0.687,-3.938,+7.938,+9.000,-8, -15, 3, -6, -5, -2, 1, 4
1503958603036,+0.839,+0.309,+0.203,+0.400,+0.728,-0.053,-0.702,-4.438,+2.812,+10.812,0, -1, -7, -1, 1, 1, 2, -2
1503958603050,+0.839,+0.309,+0.202,+0.398,+0.714,-0.082,-0.691,-6.688,-2.188,+10.250,9, -2, -3, -2, -1, 2, 0, -6
1503958603072,+0.841,+0.308,+0.201,+0.397,+0.696,-0.108,-0.690,-9.312,-4.562,+10.875,3, 2, -5, 1, 1, -2, -4, -4
1503958603096,+0.842,+0.308,+0.200,+0.394,+0.682,-0.120,-0.673,-12.625,-3.062,+11.062,11, 16, -2, 8, 3, -1, -5, -19
1503958603110,+0.843,+0.309,+0.199,+0.392,+0.703,-0.137,-0.668,-17.750,-0.188,+8.500,-2, 15, 9, -5, 4, 0, -1, 4
1503958603133,+0.844,+0.311,+0.198,+0.390,+0.709,-0.162,-0.652,-20.688,+6.312,+2.875,0, -6, -11, -2, -8, -2, 3, 8
1503958603155,+0.843,+0.315,+0.197,+0.388,+0.740,-0.202,-0.645,-23.312,+13.875,-4.750,11, 9, -5, 5, -3, -3, -14, -1
1503958603178,+0.842,+0.320,+0.196,+0.387,+0.821,-0.182,-0.647,-24.312,+22.438,-8.062,21, 16, 6, -2, -5, -4, 8, 5
1503958603192,+0.841,+0.326,+0.195,+0.386,+0.824,-0.102,-0.674,-20.938,+24.500,-7.812,-14, -14, -12, 6, -2, -2, 7, -5
1503958603215,+0.840,+0.329,+0.194,+0.386,+0.840,-0.072,-0.682,-12.438,+11.938,-6.062,6, -5, 2, -2, 1, 0, -7, 2
1503958609936,+0.880,+0.317,+0.139,+0.326,+0.683,-0.063,-0.722,-4.750,-10.250,-0.875,-2, 4, 6, -3, 0, -1, -2, -1
1503958609959,+0.880,+0.316,+0.138,+0.326,+0.678,-0.055,-0.720,-5.125,-12.188,-4.062,0, 2, 0, -6, 1, 1, -1, 0
1503958609981,+0.880,+0.315,+0.136,+0.327,+0.649,-0.043,-0.737,-5.125,-5.312,-5.188,0, 2, 2, -5, 1, -1, -2, -2
1503958609996,+0.880,+0.315,+0.136,+0.328,+0.657,-0.033,-0.729,-3.812,+0.812,-6.750,-1, 3, -3, 3, 0, -2, -2, -2
1503958610018,+0.879,+0.317,+0.135,+0.329,+0.706,-0.013,-0.728,-3.375,+2.688,-8.188,0, 5, -4, -1, -4, -1, -1, -2
1503958610040,+0.879,+0.317,+0.135,+0.330,+0.724,-0.014,-0.727,-2.500,-0.188,-8.812,0, 1, -4, -6, -7, 0, -2, -3
1503958610056,+0.878,+0.318,+0.134,+0.331,+0.729,-0.014,-0.725,-2.062,-4.062,-8.688,-3, -9, 2, 2, 3, -2, 0, 4
1503958610079,+0.878,+0.317,+0.133,+0.332,+0.691,-0.013,-0.743,-3.938,-3.062,-5.562,-2, 3, 0, -1, -1, 1, -1, -1
1503958610099,+0.878,+0.318,+0.132,+0.332,+0.660,-0.003,-0.737,-4.625,+2.000,-0.062,-5, -10, 1, 0, -2, -1, -1, -1
1503958610116,+0.878,+0.319,+0.133,+0.331,+0.700,-0.008,-0.731,-3.312,+8.562,+3.312,-1, -6, -2, -3, 10, -2, 0, -2
1503958610138,+0.878,+0.320,+0.133,+0.330,+0.736,-0.005,-0.727,-3.375,+2.750,+7.188,1, -2, -1, -2, -1, 2, 2, 1
1503958610159,+0.879,+0.320,+0.133,+0.329,+0.701,-0.019,-0.727,-3.812,-5.500,+7.812,8, -5, -1, -10, 0, 2, -3, 4
1503958610176,+0.880,+0.318,+0.132,+0.328,+0.649,-0.015,-0.730,-3.938,-8.188,+6.000,-3, -11, 0, -4, -1, -1, 2, -3
1503958610198,+0.880,+0.317,+0.132,+0.326,+0.640,-0.023,-0.734,-4.500,-2.938,+9.812,-1, 7, 2, 1, -6, -2, 1, -7
1503958610221,+0.881,+0.318,+0.132,+0.324,+0.678,-0.041,-0.742,-5.125,+2.938,+11.875,-4, 0, -11, -6, -5, -1, -12, -4
1503958610236,+0.882,+0.318,+0.133,+0.322,+0.694,-0.042,-0.734,-4.062,+1.750,+10.562,-1, 6, -7, -4, 5, -1, -1, -2
1503958610258,+0.882,+0.318,+0.133,+0.321,+0.674,-0.036,-0.734,-5.062,+0.625,+8.688,5, 0, 3, 2, -3, -4, 1, -10
1503958610280,+0.883,+0.318,+0.132,+0.319,+0.671,-0.014,-0.729,-4.562,+1.812,+8.000,-3, 1, 5, -3, 2, 1, 2, 9
1503958610296,+0.883,+0.319,+0.133,+0.318,+0.674,-0.029,-0.734,-2.938,+3.062,+6.812,-3, -14, 8, -4, -2, 3, 0, -5
1503958610318,+0.883,+0.320,+0.133,+0.317,+0.671,-0.025,-0.742,-2.562,+6.438,+6.562,7, 2, -13, 10, -3, 2, 13, 4
1503958610340,+0.883,+0.320,+0.134,+0.316,+0.663,-0.023,-0.736,-3.188,+8.250,+8.062,4, -1, 1, 21, 15, -1, -3, -1
1503958610356,+0.883,+0.321,+0.134,+0.314,+0.657,-0.037,-0.725,-3.000,+5.625,+7.062,-6, -12, 9, -3, 7, 0, 0, 3
1503958610385,+0.883,+0.322,+0.134,+0.313,+0.677,-0.055,-0.720,-2.812,+5.000,+3.875,-1, 10, 12, -7, -1, -1, -3, -2
1503958610400,+0.883,+0.323,+0.135,+0.313,+0.666,-0.062,-0.717,-4.562,+9.062,+2.375,13, -6, -24, -44, -60, -4, -10, 1
1503958610416,+0.883,+0.325,+0.135,+0.312,+0.710,-0.071,-0.698,-8.000,+8.375,+1.750,-12, 8, -6, -8, 18, -1, -7, -5
1503958610438,+0.883,+0.326,+0.134,+0.311,+0.729,-0.086,-0.720,-11.312,+6.375,+0.125,7, 6, 15, 5, 3, -15, -2, -11
1503958610460,+0.882,+0.328,+0.133,+0.310,+0.753,-0.054,-0.717,-10.750,+1.625,-4.688,-8, 18, 13, 4, 4, 3, 0, 3
1503958610476,+0.882,+0.327,+0.131,+0.312,+0.746,+0.003,-0.729,-6.062,-8.375,-8.938,7, -6, -4, 18, 4, 3, 8, 8
1503958610498,+0.883,+0.326,+0.129,+0.313,+0.734,+0.029,-0.739,-5.312,-17.812,-8.875,-11, -6, 10, 7, 13, 8, 4, 2
1503958610521,+0.884,+0.323,+0.127,+0.315,+0.661,+0.017,-0.768,-4.688,-18.438,-3.875,-6, -6, 5, -3, 7, 0, -7, -10
1503958610536,+0.884,+0.321,+0.125,+0.315,+0.627,-0.025,-0.753,-5.625,-11.000,-3.312,9, 26, -12, 11, 3, 3, 3, 15
1503958610558,+0.884,+0.321,+0.125,+0.316,+0.660,-0.021,-0.748,-3.625,+0.750,-5.250,-11, 13, -8, -2, 8, -6, 1, -1
1503958610584,+0.884,+0.322,+0.125,+0.317,+0.702,-0.003,-0.738,+0.562,+2.062,-6.000,9, -3, 8, -9, -13, 1, -6, -1
1503958610596,+0.883,+0.321,+0.124,+0.318,+0.734,+0.000,-0.725,-0.250,-6.125,-6.125,7, -14, 1, 2, 19, 3, 5, -1
1503958610618,+0.883,+0.320,+0.123,+0.318,+0.710,-0.012,-0.716,-1.062,-9.500,-4.062,-15, -31, -2, -2, -9, -4, -23, 1
1503958610640,+0.884,+0.319,+0.123,+0.319,+0.670,-0.011,-0.736,-1.000,-6.688,-1.438,-2, -5, -1, -10, -9, 1, 5, -1
1503958610656,+0.884,+0.318,+0.123,+0.319,+0.671,+0.002,-0.748,-0.375,-7.125,+1.062,-8, -10, 1, -5, -3, -4, 2, 2
1503958610679,+0.885,+0.317,+0.123,+0.319,+0.684,+0.000,-0.731,+0.125,-8.000,+3.812,3, -3, -9, -1, -3, 0, 2, -2
1503958610700,+0.885,+0.316,+0.123,+0.318,+0.706,-0.021,-0.716,-0.062,-8.188,+7.562,9, 6, -1, -3, 2, -2, 5, 5
1503958610718,+0.886,+0.315,+0.124,+0.316,+0.695,-0.044,-0.754,-0.938,-6.125,+8.750,-24, -13, 0, -2, 7, 4, 1, -1
1503958610738,+0.887,+0.314,+0.124,+0.315,+0.674,-0.031,-0.751,-1.938,-4.375,+8.688,4, 11, 8, -1, -10, -5, 0, -4
1503958610761,+0.887,+0.313,+0.124,+0.314,+0.652,-0.005,-0.756,+0.875,-2.250,+8.312,0, -10, -7, -6, -10, -5, -8, -2
1503958610776,+0.888,+0.314,+0.125,+0.313,+0.651,-0.020,-0.750,+1.000,+3.562,+8.625,0, 9, -4, 12, 5, 5, 7, 12
1503958610798,+0.887,+0.315,+0.126,+0.312,+0.661,-0.022,-0.760,+2.438,+11.688,+6.312,-22, -4, -7, -1, -9, -3, -6, -7
1503958610821,+0.887,+0.317,+0.128,+0.311,+0.678,-0.024,-0.764,+5.500,+16.188,+4.125,12, 11, 5, 1, -1, 6, 3, -6
1503958610836,+0.886,+0.319,+0.131,+0.311,+0.712,-0.044,-0.750,+6.625,+16.562,+2.812,1, -2, -7, -6, -4, -5, 1, -9
1503958610859,+0.885,+0.321,+0.134,+0.310,+0.722,-0.062,-0.735,+6.562,+17.812,+3.188,4, -7, -3, -9, -8, -4, -3, -1
1503958610880,+0.884,+0.323,+0.136,+0.310,+0.721,-0.063,-0.730,+9.000,+14.938,+1.062,10, 17, 5, -9, 0, 0, 0, -2
1503958610896,+0.883,+0.324,+0.139,+0.311,+0.714,-0.083,-0.714,+9.062,+10.250,-2.500,-10, -36, -3, -7, -2, 3, -5, 9
1503958610918,+0.881,+0.326,+0.141,+0.312,+0.697,-0.090,-0.704,+7.688,+11.500,-5.875,13, 6, -8, 6, -9, 0, -18, 11
1503958610940,+0.880,+0.328,+0.143,+0.312,+0.699,-0.090,-0.697,+6.438,+14.812,-5.188,-7, -24, 4, -10, -9, -7, -7, -3
1503958610956,+0.879,+0.330,+0.145,+0.313,+0.710,-0.085,-0.682,+2.875,+16.125,-6.938,-8, 8, 13, -3, 5, -1, 5, -4
1503958610978,+0.877,+0.334,+0.146,+0.314,+0.721,-0.090,-0.660,-1.562,+24.000,-12.875,-2, -6, -13, 1, -8, -2, 4, -1
1503958611000,+0.873,+0.341,+0.147,+0.315,+0.763,-0.079,-0.641,-5.000,+36.312,-16.062,1, 3, 11, 0, -4, -1, -4, 7
1503958611023,+0.870,+0.348,+0.149,+0.316,+0.809,-0.009,-0.692,+0.500,+40.188,-15.000,-9, -20, 11, -11, -2, -1, -4, -9
1503958611038,+0.867,+0.352,+0.149,+0.318,+0.829,+0.016,-0.749,+4.125,+27.125,-14.250,-15, 3, -1, 11, 25, 5, 26, -9
1503958611060,+0.865,+0.355,+0.151,+0.321,+0.833,-0.011,-0.720,+6.625,+19.750,-16.250,-5, -12, 0, 0, -3, 2, -7, 5
1503958611082,+0.865,+0.355,+0.151,+0.322,+0.711,+0.022,-0.681,+9.688,-1.875,-3.125,-9, 15, 2, 4, 0, 0, 0, -7
1503958611098,+0.866,+0.351,+0.153,+0.321,+0.662,-0.007,-0.696,+12.562,-9.500,+15.062,3, 11, -8, 4, -9, -2, 2, -4
1503958611120,+0.867,+0.350,+0.157,+0.319,+0.651,-0.092,-0.671,+13.125,+2.250,+19.562,-8, -4, -5, -6, -5, -4, -4, 3
1503958620683,+0.912,+0.302,+0.144,+0.236,+0.637,-0.126,-0.757,-6.250,-5.812,+1.188,-1, 28, 1, 6, -1, -1, 7, -12
1503958620705,+0.913,+0.302,+0.143,+0.235,+0.662,-0.120,-0.731,-5.688,-4.312,+4.375,9, 0, 10, -4, 15, 2, -1, 0
1503958620728,+0.913,+0.302,+0.143,+0.234,+0.704,-0.096,-0.763,-3.750,-3.750,+4.625,-15, -25, 2, -8, 6, 0, 1, -4
1503958620743,+0.914,+0.300,+0.142,+0.233,+0.675,-0.103,-0.750,-3.500,-12.375,+9.438,-6, -12, -5, -1, -16, -1, -1, 1
1503958620765,+0.915,+0.297,+0.142,+0.231,+0.666,-0.135,-0.717,-3.688,-20.625,+13.375,2, 22, 6, 10, -6, 0, 1, -6
1503958620788,+0.917,+0.294,+0.142,+0.229,+0.588,-0.121,-0.788,-4.062,-16.188,+17.125,-13, -14, -7, -9, -11, -2, -1, 1
1503958620803,+0.919,+0.291,+0.141,+0.226,+0.554,-0.100,-0.754,-3.875,-10.375,+19.375,-1, -22, 6, 5, 6, -1, -3, -3
1503958620825,+0.920,+0.290,+0.141,+0.223,+0.601,-0.095,-0.768,-5.500,-2.750,+18.688,4, 11, 4, 2, 15, 2, 1, -11
1503958620846,+0.920,+0.291,+0.141,+0.220,+0.636,-0.089,-0.769,-5.688,+1.812,+19.375,4, 2, 2, 4, 4, 4, 3, 3
1503958620863,+0.921,+0.290,+0.141,+0.218,+0.641,-0.112,-0.742,-2.062,-1.688,+13.375,6, -5, -9, 0, 7, -2, -1, 0
1503958620891,+0.921,+0.291,+0.141,+0.216,+0.650,-0.145,-0.747,-4.688,+1.188,+10.812,-17, 7, -6, 5, -8, -1, -21, -6
1503958620906,+0.922,+0.291,+0.141,+0.214,+0.634,-0.095,-0.799,-5.750,+2.188,+13.875,7, 1, -10, -28, 6, 0, -5, 4
1503958620929,+0.922,+0.290,+0.141,+0.213,+0.652,-0.116,-0.767,-2.438,-3.000,+8.375,-1, 14, 1, 5, -3, -4, 0, -6
1503958620945,+0.922,+0.290,+0.142,+0.213,+0.612,-0.191,-0.780,+1.500,-0.250,-4.188,-5, -3, -9, -1, -9, -2, 3, -2
1503958620967,+0.921,+0.291,+0.142,+0.215,+0.611,-0.211,-0.764,+0.938,+4.750,-13.312,-8, -28, -6, -10, -7, -3, -1, -2
1503958620983,+0.920,+0.293,+0.143,+0.217,+0.650,-0.175,-0.776,+0.438,+11.875,-12.438,11, 9, 5, -5, -4, -3, 4, 13
1503958621005,+0.919,+0.294,+0.143,+0.219,+0.678,-0.178,-0.746,+1.375,+5.750,-14.812,-2, -4, 1, 0, 3, -2, -2, 3
1503958621034,+0.918,+0.295,+0.144,+0.222,+0.623,-0.177,-0.797,+4.062,+6.875,-20.812,4, -6, 8, 11, 0, 1, 6, 0
1503958621043,+0.917,+0.296,+0.144,+0.225,+0.612,-0.168,-0.755,+4.625,+4.562,-19.938,-3, 4, 6, 7, 3, 4, 4, -2
1503958621065,+0.916,+0.297,+0.145,+0.227,+0.641,-0.146,-0.748,+2.875,+10.000,-10.062,4, 13, 18, -11, -6, 0, 0, 2
1503958621090,+0.915,+0.298,+0.145,+0.228,+0.668,-0.125,-0.757,+2.875,+5.562,-6.188,4, 4, -12, -7, 3, 0, -3, 0
1503958621105,+0.915,+0.298,+0.146,+0.229,+0.665,-0.133,-0.759,+4.062,-3.500,-9.000,2, 3, -1, -2, 9, 0, 8, 3
1503958621125,+0.915,+0.297,+0.146,+0.232,+0.588,-0.128,-0.735,+4.438,-3.312,-11.500,-2, -5, 0, -6, -2, 0, -4, -3
1503958621147,+0.914,+0.297,+0.146,+0.234,+0.619,-0.101,-0.746,+5.938,+0.062,-10.500,6, 2, -5, -8, 6, -2, -3, 7
1503958621164,+0.914,+0.298,+0.146,+0.235,+0.641,-0.093,-0.757,+3.875,+4.875,-7.875,-5, -9, -3, 7, 27, -1, -2, -9
1503958621185,+0.913,+0.299,+0.147,+0.237,+0.665,-0.095,-0.736,+6.688,+3.812,-8.812,-1, -2, -6, -6, -3, -3, -1, -6
1503958621214,+0.912,+0.299,+0.148,+0.239,+0.638,-0.120,-0.763,+6.750,+3.438,-10.875,-2, -4, 0, -12, -10, -2, -1, 4
1503958621224,+0.911,+0.299,+0.148,+0.240,+0.618,-0.128,-0.764,+5.875,+4.750,-8.625,-5, 1, -7, 1, -7, -3, -12, 2
1503958621245,+0.911,+0.300,+0.149,+0.241,+0.664,-0.126,-0.740,+3.812,+5.625,-5.375,3, 6, 0, -1, -9, 1, 1, 2
1503958621267,+0.910,+0.302,+0.150,+0.242,+0.679,-0.115,-0.747,+2.062,+5.500,-3.000,-5, 5, -6, 3, 0, -1, -1, -10
1503958621286,+0.909,+0.302,+0.150,+0.243,+0.639,-0.100,-0.743,+2.062,+5.812,-5.625,-3, -15, 2, -2, 2, -2, -5, -8
1503958621305,+0.909,+0.304,+0.150,+0.245,+0.655,-0.100,-0.730,+2.500,+6.688,-9.188,5, 7, 14, 4, 11, 1, 2, -2
1503958621327,+0.907,+0.306,+0.150,+0.246,+0.661,-0.078,-0.741,+2.062,+10.812,-9.875,-3, -3, 1, 6, 1, 1, -1, -4
1503958621343,+0.907,+0.307,+0.150,+0.247,+0.678,-0.090,-0.726,+1.188,+2.875,-7.438,4, -2, 1, -4, 13, -3, 6, 7
1503958621365,+0.906,+0.307,+0.149,+0.249,+0.643,-0.104,-0.762,+0.562,+5.188,-9.688,-5, 8, -8, 5, -13, 1, 2, -3
1503958621387,+0.906,+0.308,+0.149,+0.251,+0.651,-0.112,-0.731,-0.500,+2.938,-10.562,-1, 23, -6, 8, 9, 0, 3, -4
1503958621403,+0.905,+0.310,+0.149,+0.252,+0.668,-0.110,-0.728,-0.562,+8.250,-12.125,7, 8, 4, -3, -17, 1, -1, 7
1503958621425,+0.904,+0.311,+0.149,+0.254,+0.677,-0.108,-0.744,-0.812,+7.125,-10.750,-7, -5, 1, 1, 18, 1, 7, -7
1503958621447,+0.903,+0.312,+0.148,+0.255,+0.683,-0.124,-0.732,-3.062,+5.875,-7.312,1, -20, -17, -13, -10, -1, 5, 3
1503958621463,+0.902,+0.313,+0.148,+0.255,+0.655,-0.116,-0.748,-2.125,+8.000,-8.000,-6, 5, 8, 8, 18, 0, 1, -3
1503958621485,+0.902,+0.314,+0.148,+0.256,+0.681,-0.110,-0.724,-1.562,+3.062,-6.875,-18, 3, 17, 27, 8, -3, -6, -11
1503958621507,+0.902,+0.315,+0.148,+0.256,+0.688,-0.103,-0.728,-5.625,+4.750,+1.500,4, -3, 3, 8, -2, -2, -1, -16
1503958621525,+0.902,+0.315,+0.147,+0.255,+0.677,-0.110,-0.743,-8.625,+2.312,+4.750,3, -7, 0, -18, -12, -1, -9, 5
1503958621545,+0.902,+0.317,+0.146,+0.253,+0.704,-0.112,-0.743,-11.938,+8.125,+5.812,-3, 10, 12, -3, -30, -1, 2, -4
1503958621567,+0.902,+0.319,+0.145,+0.251,+0.726,-0.090,-0.700,-11.312,+3.312,+7.312,-3, -15, 1, -11, -15, 0, -1, 6
1503958621583,+0.903,+0.318,+0.144,+0.249,+0.722,-0.102,-0.708,-12.250,-6.812,+9.625,-9, -22, -2, -13, -5, -2, -5, 6
1503958621605,+0.904,+0.318,+0.142,+0.248,+0.668,-0.085,-0.752,-10.062,-3.812,+6.438,-4, -7, 4, 15, 4, 0, 4, -4
1503958621627,+0.905,+0.317,+0.141,+0.247,+0.682,-0.105,-0.717,-9.125,-6.438,+2.812,-10, -13, 6, 11, -9, -3, 4, -3
1503958621643,+0.905,+0.317,+0.140,+0.246,+0.687,-0.093,-0.745,-8.750,-4.188,+3.812,-2, -13, 7, 4, 11, 1, 1, -1
1503958621665,+0.906,+0.315,+0.139,+0.245,+0.657,-0.094,-0.748,-8.375,-8.375,+5.312,-6, -30, -12, -7, 7, 0, -3, -3
1503958621688,+0.907,+0.314,+0.137,+0.244,+0.663,-0.116,-0.725,-11.812,-7.875,+7.625,4, -3, 2, -15, -18, -1, -2, 11
1503958621703,+0.908,+0.315,+0.136,+0.241,+0.673,-0.105,-0.732,-14.438,+1.125,+10.812,-1, -4, -1, -8, 11, -2, -5, -2
1503958621726,+0.909,+0.315,+0.135,+0.239,+0.685,-0.084,-0.743,-13.062,-4.312,+10.562,-5, -9, -10, 1, -3, 0, 0, 3
1503958621747,+0.910,+0.313,+0.133,+0.238,+0.705,-0.077,-0.726,-8.750,-15.938,+4.250,-16, -16, -9, -4, -1, -1, -1, 1
1503958621764,+0.911,+0.311,+0.131,+0.238,+0.663,-0.074,-0.744,-10.438,-17.812,+2.562,9, -3, -20, -22, -26, 0, 17, 2
1503958621785,+0.912,+0.308,+0.129,+0.237,+0.603,-0.074,-0.775,-11.062,-15.188,+7.312,3, 5, -6, 4, 9, -2, -6, 1
1503958621807,+0.914,+0.306,+0.127,+0.234,+0.621,-0.104,-0.753,-11.875,-10.938,+12.062,9, 9, 1, -7, 6, -1, -2, 1
1503958621823,+0.915,+0.305,+0.126,+0.232,+0.649,-0.108,-0.760,-14.312,-6.688,+11.125,2, -9, -3, -12, -6, 0, 7, 18
1503958621845,+0.916,+0.303,+0.124,+0.230,+0.661,-0.099,-0.759,-13.188,-13.375,+11.375,-6, -31, -4, 3, 13, 0, 2, 3
1503958621868,+0.918,+0.301,+0.122,+0.228,+0.671,-0.103,-0.759,-12.438,-21.500,+11.562,-9, 1, 4, 5, -4, 2, -3, -5
1503958621890,+0.920,+0.297,+0.121,+0.226,+0.631,-0.111,-0.778,-12.000,-21.375,+10.250,3, 4, 1, 3, -25, 0, -2, -3
1503958621905,+0.921,+0.294,+0.119,+0.225,+0.593,-0.104,-0.770,-10.250,-17.438,+7.562,7, -14, -17, -6, -1, 0, 1, 7
1503958621928,+0.922,+0.293,+0.118,+0.223,+0.612,-0.096,-0.765,-9.875,-8.562,+7.000,2, 2, -2, -1, 1, 0, -3, 1
1503958621950,+0.922,+0.293,+0.117,+0.222,+0.640,-0.083,-0.777,-10.625,-2.000,+6.062,-4, -21, -1, -6, 10, -2, 1, 1
1503958621972,+0.923,+0.293,+0.116,+0.221,+0.656,-0.086,-0.779,-9.625,-4.812,+6.000,-6, -8, -7, -8, 18, 0, -2, -10
1503958621988,+0.924,+0.292,+0.115,+0.220,+0.637,-0.094,-0.771,-8.000,-9.188,+4.500,3, 22, 6, -1, 10, 0, 2, 6
1503958622003,+0.924,+0.291,+0.114,+0.219,+0.620,-0.109,-0.768,-6.938,-6.562,+2.750,-4, 12, 0, -10, -3, -1, 5, -4
1503958622033,+0.924,+0.291,+0.113,+0.219,+0.655,-0.108,-0.788,-7.188,+0.938,+1.312,-5, 9, -5, 6, -2, 0, -9, -12
1503958622048,+0.924,+0.293,+0.114,+0.218,+0.673,-0.125,-0.775,-4.562,+4.125,-1.688,-2, -10, 11, -6, -2, -3, 0, 1
1503958622063,+0.924,+0.294,+0.113,+0.219,+0.685,-0.126,-0.794,-5.375,+1.875,-6.750,21, 12, -4, -9, -13, -1, -1, 15
1503958622085,+0.923,+0.294,+0.112,+0.220,+0.669,-0.096,-0.780,-5.062,-0.812,-9.938,-8, -5, -4, 6, 3, -1, 0, -3
1503958622108,+0.922,+0.295,+0.112,+0.222,+0.665,-0.091,-0.791,-1.562,+5.188,-11.125,3, -3, -14, -8, 6, 0, -4, -2
1503958622131,+0.921,+0.298,+0.112,+0.224,+0.696,-0.099,-0.789,-2.062,+10.812,-12.438,5, -2, -6, 2, -7, -1, 2, -16
1503958622145,+0.920,+0.301,+0.112,+0.225,+0.707,-0.079,-0.810,-1.500,+14.125,-14.062,-2, 1, 18, -16, -2, -1, -10, 0
1503958622168,+0.919,+0.303,+0.112,+0.228,+0.684,-0.053,-0.845,+0.375,+12.500,-17.938,-3, -1, -1, 4, 10, -1, 0, 4
1503958622190,+0.917,+0.305,+0.112,+0.231,+0.670,-0.062,-0.809,+3.938,+12.688,-18.938,2, -16, -6, -1, -1, -3, 3, 0
1503958622205,+0.915,+0.307,+0.113,+0.234,+0.660,-0.047,-0.792,+8.562,+15.938,-17.500,0, 5, 5, 1, -11, -2, -1, 1
1503958622230,+0.913,+0.311,+0.117,+0.235,+0.549,-0.088,-0.784,+13.500,+36.500,-4.500,-9, 14, 13, 21, 11, 0, 6, -6
1503958622250,+0.909,+0.322,+0.123,+0.234,+0.630,-0.195,-0.731,+11.375,+75.812,-0.375,-6, 5, 5, -6, 6, 2, -3, -1
1503958622265,+0.904,+0.334,+0.129,+0.233,+0.761,-0.143,-0.751,+13.688,+81.875,-2.500,5, 8, -9, -6, 3, -1, 3, 10
1503958622288,+0.900,+0.344,+0.134,+0.233,+0.865,-0.065,-0.678,+18.125,+60.562,-3.438,2, 1, 6, 9, 29, -1, -2, -1
1503958622310,+0.896,+0.350,+0.139,+0.235,+0.873,-0.043,-0.648,+21.875,+32.625,-6.688,4, -9, -9, -12, 1, -4, -9, -2
1503958622324,+0.894,+0.351,+0.143,+0.237,+0.755,-0.113,-0.662,+25.750,+13.812,-6.562,-1, 3, 4, -5, -13, -1, 0, -2
1503958622347,+0.893,+0.352,+0.147,+0.239,+0.643,-0.137,-0.646,+22.812,+13.875,-9.938,-5, -12, -10, -6, -13, -4, -4, -1
1503958622370,+0.890,+0.355,+0.151,+0.241,+0.604,-0.121,-0.636,+17.875,+30.062,-10.000,-14, -9, -10, 11, 2, 1, 1, -6
1503958639094,+0.761,+0.468,+0.277,+0.354,+0.923,-0.130,-0.376,-21.938,-22.062,+18.938,-16, 6, 29, -2, -10, 6, -6, -31
1503958639116,+0.764,+0.466,+0.275,+0.351,+0.896,-0.132,-0.379,-22.438,-15.938,+14.375,12, 7, -9, -12, -19, -2, 2, 20
1503958639138,+0.766,+0.466,+0.274,+0.347,+0.899,-0.135,-0.392,-21.125,+2.125,+16.125,-6, 1, 2, -2, -3, 1, 0, 14
1503958639154,+0.767,+0.469,+0.273,+0.344,+0.929,-0.118,-0.377,-19.125,+12.188,+7.062,-9, -9, 2, -4, -3, -3, -6, -12
1503958639176,+0.767,+0.469,+0.271,+0.343,+0.940,-0.100,-0.409,-14.062,+0.500,-4.500,14, -3, -11, -8, -5, 0, 5, 16
1503958639198,+0.768,+0.469,+0.269,+0.344,+0.867,-0.131,-0.363,-9.562,-6.312,-9.250,-2, -3, 6, -8, -2, -9, -13, 1
1503958639219,+0.768,+0.470,+0.267,+0.344,+0.823,-0.138,-0.395,-13.062,+1.875,-11.875,-7, 1, -7, -7, -2, -1, -3, -7
1503958639236,+0.768,+0.472,+0.266,+0.343,+0.888,-0.103,-0.387,-15.750,+13.375,-5.250,7, -3, -1, -6, 1, 1, 0, 7
1503958639258,+0.767,+0.474,+0.264,+0.342,+0.976,-0.086,-0.366,-13.500,+6.438,-2.750,-4, 1, 4, 2, -3, -1, 1, -7
1503958639274,+0.768,+0.474,+0.262,+0.341,+1.000,-0.101,-0.360,-13.875,-7.625,-2.688,9, -8, -8, 4, -7, -4, 8, 16
1503958639296,+0.771,+0.472,+0.260,+0.340,+0.945,-0.104,-0.349,-15.188,-21.562,+3.938,-5, 15, 50, 15, 7, 5, -3, 0
1503958639318,+0.773,+0.470,+0.257,+0.339,+0.935,-0.076,-0.342,-15.938,-24.562,+6.562,-19, -11, -28, 0, 1, 0, 0, -45
1503958639334,+0.775,+0.468,+0.255,+0.338,+0.886,-0.037,-0.372,-13.562,-15.500,+4.500,18, 1, 2, -16, 8, 0, -6, 20
1503958639356,+0.777,+0.467,+0.252,+0.337,+0.892,-0.021,-0.392,-14.562,-11.875,+5.625,8, 10, -1, -3, -3, 1, -5, -15
1503958639378,+0.779,+0.467,+0.251,+0.335,+0.950,-0.047,-0.376,-17.000,-6.438,+12.812,-6, 5, -19, 4, -5, -1, 0, -6
1503958639394,+0.781,+0.467,+0.249,+0.332,+0.981,-0.041,-0.372,-17.188,-9.625,+14.375,12, 2, -19, -4, -4, 1, 12, 9
1503958639420,+0.783,+0.466,+0.247,+0.331,+0.948,-0.023,-0.408,-14.500,-14.812,+7.375,-2, -4, -2, 0, -1, -2, 15, 26
1503958639438,+0.785,+0.464,+0.244,+0.331,+0.888,+0.006,-0.445,-11.125,-14.938,+3.438,-2, 2, 0, 0, -2, 0, -3, 9
1503958639454,+0.786,+0.463,+0.242,+0.330,+0.865,-0.013,-0.410,-7.375,-11.062,+7.875,-11, -21, -3, -1, 2, 0, -4, -6
1503958639476,+0.787,+0.463,+0.242,+0.329,+0.898,-0.046,-0.433,-6.562,+0.562,+9.688,-9, -7, 8, 3, 5, -3, -6, -4
1503958639498,+0.788,+0.462,+0.242,+0.328,+0.919,-0.036,-0.499,-2.688,+2.938,+9.312,11, 0, -8, -3, 5, 6, 5, 2
1503958639514,+0.788,+0.461,+0.243,+0.327,+0.922,-0.055,-0.478,+4.688,-1.188,+8.688,7, -2, 15, -17, 0, 1, -9, -13
1503958639536,+0.788,+0.460,+0.246,+0.327,+0.924,-0.109,-0.438,+12.750,+0.375,+9.062,1, -14, 5, 3, -4, -5, -12, -3
1503958639560,+0.787,+0.459,+0.249,+0.327,+0.896,-0.134,-0.447,+15.375,+8.562,+5.375,-26, -2, -3, 1, 4, -2, -4, -10
1503958639574,+0.786,+0.459,+0.252,+0.328,+0.885,-0.125,-0.445,+17.188,+13.938,-0.562,5, 17, 9, 2, 0, 6, 17, -14
1503958639596,+0.784,+0.460,+0.256,+0.329,+0.922,-0.127,-0.448,+19.688,+15.625,-0.188,-22, -8, -24, 6, 1, -8, 0, -7
1503958639618,+0.782,+0.461,+0.261,+0.330,+0.936,-0.155,-0.435,+22.625,+20.250,-1.188,-1, -6, 11, 7, -2, 2, -2, -3
1503958639641,+0.779,+0.462,+0.265,+0.331,+0.911,-0.164,-0.397,+23.688,+22.688,-5.188,4, 1, -5, -6, -8, -3, -3, 2
1503958639656,+0.776,+0.463,+0.269,+0.333,+0.914,-0.134,-0.386,+24.188,+17.188,-6.625,-8, 4, 8, -4, 7, -3, -8, 6
1503958639678,+0.773,+0.465,+0.273,+0.335,+0.909,-0.142,-0.336,+22.875,+16.562,-8.062,8, 0, 9, 1, -7, -5, -9, -12
1503958639701,+0.770,+0.466,+0.277,+0.336,+0.920,-0.137,-0.352,+20.125,+18.062,-8.938,10, 2, -5, 9, -1, 3, 1, 10
1503958639719,+0.767,+0.468,+0.280,+0.338,+0.936,-0.129,-0.348,+19.312,+18.750,-7.625,34, 4, -16, -9, -5, 2, -7, -7
1503958639738,+0.765,+0.469,+0.283,+0.340,+0.936,-0.122,-0.340,+17.500,+10.625,-9.500,-7, 8, 14, -3, 1, 3, 12, 7
1503958639761,+0.764,+0.468,+0.284,+0.342,+0.948,-0.123,-0.306,+10.938,-3.750,-9.750,3, -2, -3, -6, 18, 6, 1, -7
1503958639776,+0.763,+0.467,+0.283,+0.345,+0.878,-0.113,-0.289,+6.125,-12.750,-11.938,3, 11, -14, -9, -16, -5, -19, 4
1503958639798,+0.763,+0.467,+0.281,+0.347,+0.845,-0.084,-0.327,+0.188,-9.250,-13.750,22, 46, 1, 5, 2, 4, 6, -22
1503958639821,+0.762,+0.468,+0.280,+0.348,+0.829,-0.052,-0.337,-4.875,+8.188,-10.062,8, -3, -15, -39, -7, 2, -3, 8
1503958639836,+0.761,+0.471,+0.278,+0.349,+0.916,-0.023,-0.296,-9.125,+3.562,-13.812,-3, -11, 2, 8, -3, -5, -14, -6
1503958639858,+0.760,+0.473,+0.275,+0.350,+0.981,-0.031,-0.306,-14.250,-1.062,-12.938,-4, -10, 19, 12, -7, -1, 5, 6
1503958639881,+0.761,+0.473,+0.272,+0.351,+0.976,-0.058,-0.318,-16.375,-10.938,-9.375,-8, 1, 6, 8, 9, -3, 10, 11
1503958639896,+0.762,+0.474,+0.268,+0.351,+0.945,-0.063,-0.314,-21.875,-13.750,-10.000,10, -4, 0, -8, -13, -7, -8, 3
1503958639921,+0.764,+0.474,+0.263,+0.350,+0.943,-0.007,-0.363,-23.312,-12.250,-2.688,4, 41, -15, 28, 15, -3, 9, 0
1503958639941,+0.766,+0.474,+0.259,+0.349,+0.970,-0.008,-0.363,-23.750,-17.312,-0.688,0, 14, 2, -4, 4, -2, 1, -7
1503958639963,+0.768,+0.474,+0.255,+0.348,+1.000,-0.044,-0.363,-27.188,-16.375,+3.438,11, -25, -7, 5, -34, -6, 0, 4
1503958639986,+0.771,+0.472,+0.251,+0.345,+0.987,-0.051,-0.371,-28.438,-20.375,+9.312,-25, -20, -14, 7, 9, 1, 3, -10
1503958640000,+0.774,+0.471,+0.246,+0.343,+0.972,-0.055,-0.371,-28.750,-24.562,+5.875,-30, 1, 4, 2, 26, 0, -4, -10
1503958640016,+0.778,+0.470,+0.241,+0.341,+0.938,-0.054,-0.377,-30.562,-24.125,+1.875,15, -23, -4, -2, -7, 0, -2, 4
1503958640038,+0.780,+0.469,+0.236,+0.340,+0.898,-0.042,-0.371,-29.188,-22.188,-1.438,5, -7, -1, -4, -32, -3, -2, 14
1503958640062,+0.782,+0.468,+0.231,+0.339,+0.909,-0.014,-0.336,-30.750,-21.688,-5.875,1, -19, -28, -15, 8, -2, 12, -15
1503958640077,+0.784,+0.469,+0.225,+0.338,+0.895,+0.001,-0.367,-33.562,-16.562,-1.938,-20, -6, 11, -10, 6, 0, -7, -8
1503958640098,+0.788,+0.468,+0.219,+0.336,+0.886,-0.012,-0.462,-35.938,-20.250,+3.375,26, 0, -2, -4, -5, 9, -6, 0
1503958640122,+0.791,+0.466,+0.214,+0.333,+0.854,-0.009,-0.489,-32.375,-19.625,+6.750,-1, 3, 15, 8, 3, 4, 7, 0
1503958640136,+0.794,+0.464,+0.209,+0.331,+0.896,-0.042,-0.436,-31.688,-20.875,+2.625,1, 26, 33, 9, 14, -8, -8, -2
1503958640158,+0.797,+0.463,+0.204,+0.329,+0.939,-0.040,-0.463,-29.562,-22.125,+0.562,-5, -9, -7, 12, -6, -5, 5, 10
1503958640181,+0.800,+0.461,+0.199,+0.328,+0.875,-0.015,-0.458,-27.000,-25.438,-1.062,30, 12, 5, -10, 13, 8, 1, -5
1503958640196,+0.802,+0.460,+0.194,+0.328,+0.824,-0.002,-0.496,-26.812,-16.250,-6.188,3, -4, -6, -8, 10, 3, 7, 2
1503958640218,+0.803,+0.460,+0.190,+0.328,+0.836,+0.021,-0.517,-22.375,-4.125,-7.000,-9, 20, -1, 19, 22, -3, 7, -3
1503958640241,+0.804,+0.460,+0.187,+0.328,+0.903,+0.017,-0.486,-17.312,-5.000,-7.875,-22, 16, 17, 27, 18, 7, 20, 8
1503958640256,+0.805,+0.460,+0.184,+0.328,+0.920,+0.016,-0.494,-12.938,-12.062,-8.188,-25, -28, -7, 0, -15, -12, 3, 12
1503958640278,+0.806,+0.457,+0.181,+0.329,+0.875,+0.018,-0.504,-8.000,-19.625,-5.688,-14, 2, 12, 12, 2, -3, -15, -18
1503958640301,+0.808,+0.454,+0.179,+0.330,+0.851,+0.009,-0.479,-5.812,-21.875,-3.250,24, 11, -31, -5, -22, -7, -17, 25
1503958640316,+0.810,+0.452,+0.177,+0.330,+0.881,-0.001,-0.522,-4.875,-19.250,-0.438,12, -8, -17, -3, 22, -5, 8, 7
1503958640338,+0.811,+0.449,+0.177,+0.330,+0.901,-0.018,-0.484,-3.875,-19.938,+4.500,11, -11, 9, 0, -27, -4, 1, 1
1503958640362,+0.813,+0.447,+0.176,+0.329,+0.872,-0.004,-0.518,-4.812,-16.562,+6.625,-15, 5, -15, 20, 5, 1, -10, -7
1503958640376,+0.815,+0.445,+0.175,+0.328,+0.834,+0.024,-0.544,-2.250,-8.562,+7.312,-33, -2, 23, 16, -6, -2, -14, -6
1503958640398,+0.815,+0.443,+0.176,+0.328,+0.871,+0.017,-0.544,+5.312,-5.000,+8.438,3, -23, -12, -5, -13, -7, 3, 7
1503958640422,+0.815,+0.443,+0.178,+0.328,+0.893,-0.019,-0.506,+7.875,+0.188,+6.312,2, -16, -7, -5, 46, 3, -3, 19
1503958648445,+0.796,+0.395,+0.247,+0.386,+0.871,-0.100,-0.526,+5.812,+16.125,-3.812,-1, 5, 2, -8, -15, -1, -3, 0
1503958648460,+0.795,+0.396,+0.248,+0.386,+0.895,-0.113,-0.510,+4.000,+9.812,-6.438,-5, 1, 2, -4, -9, -3, -5, -10
1503958648483,+0.794,+0.397,+0.249,+0.388,+0.866,-0.118,-0.501,+4.562,+3.312,-10.125,1, 0, -4, 2, -8, -2, -2, -1
1503958648505,+0.792,+0.398,+0.249,+0.390,+0.818,-0.089,-0.500,+4.062,+3.188,-14.188,0, 4, 4, -2, -3, -1, 3, 2
1503958648521,+0.791,+0.399,+0.249,+0.392,+0.821,-0.048,-0.515,+3.438,+6.438,-13.562,0, 6, 0, -7, 2, 0, 2, 4
1503958648543,+0.789,+0.400,+0.249,+0.393,+0.849,-0.056,-0.525,+2.375,+9.125,-10.938,7, 6, -1, -3, 4, -1, -4, 2
1503958648565,+0.788,+0.402,+0.249,+0.394,+0.894,-0.062,-0.500,+0.938,+7.062,-10.062,-2, 4, -1, -3, -3, -1, -1, 3
1503958648580,+0.786,+0.403,+0.249,+0.396,+0.893,-0.044,-0.497,+0.812,+3.375,-11.625,-1, -4, -2, 0, 13, 0, -1, -2
1503958648603,+0.786,+0.403,+0.248,+0.398,+0.875,-0.047,-0.504,-0.875,-3.812,-11.125,-8, -5, 3, 13, 3, -1, 2, -4
1503958648625,+0.785,+0.403,+0.246,+0.399,+0.873,-0.035,-0.509,-2.125,-5.438,-9.562,-2, 0, 7, 4, -5, -1, 0, -7
1503958648641,+0.785,+0.404,+0.245,+0.400,+0.862,-0.017,-0.519,-3.875,-1.750,-4.562,-4, -11, -1, -3, -8, -1, -1, -2
1503958648663,+0.785,+0.405,+0.244,+0.400,+0.878,-0.017,-0.506,-5.812,+0.562,-0.375,-3, 0, 3, -6, 16, -1, -2, 3
1503958648686,+0.785,+0.405,+0.243,+0.400,+0.892,-0.021,-0.486,-8.062,-2.625,+0.062,-2, 1, -2, 13, -9, -1, 0, -5
1503958648700,+0.786,+0.405,+0.241,+0.399,+0.897,-0.032,-0.504,-12.188,-8.438,+4.062,-1, 1, -7, 10, -5, 2, 3, 1
1503958648724,+0.788,+0.405,+0.240,+0.397,+0.886,-0.030,-0.500,-15.562,-7.312,+9.938,-9, 2, -3, -1, -11, -5, -5, -4
1503958648749,+0.789,+0.406,+0.233,+0.398,+0.938,+0.083,-0.479,-26.188,-17.750,-10.750,4, -2, 5, -9, -12, 0, 1, 4
1503958648760,+0.791,+0.403,+0.230,+0.398,+0.874,-0.017,-0.519,-11.125,-32.500,+2.562,5, 0, -6, -12, 1, 0, -5, -13
1503958648783,+0.795,+0.399,+0.226,+0.398,+0.822,-0.029,-0.551,-14.000,-35.750,+6.500,2, 1, -5, -2, 3, 5, 0, 5
1503958648805,+0.797,+0.396,+0.223,+0.397,+0.777,-0.022,-0.560,-14.000,-23.625,+3.375,8, 6, -1, -6, -4, -2, 1, 3
1503958648820,+0.799,+0.395,+0.220,+0.397,+0.797,-0.021,-0.542,-15.812,-14.812,+2.812,-5, -3, 2, -4, -3, -3, -4, 3
1503958648843,+0.800,+0.393,+0.217,+0.397,+0.774,-0.010,-0.548,-13.438,-13.062,-1.125,1, 4, 0, 1, 7, -1, -4, -14
1503958648865,+0.802,+0.391,+0.218,+0.394,+0.638,-0.123,-0.602,+0.375,+2.750,+16.625,4, 17, 8, 6, 23, 0, -3, 4
1503958648886,+0.801,+0.398,+0.221,+0.389,+0.923,-0.065,-0.511,-16.812,+44.562,+17.750,-5, -10, -5, 1, -1, -4, 0, 8
1503958648910,+0.800,+0.400,+0.221,+0.388,+0.921,+0.000,-0.627,-3.812,+12.875,+6.188,1, 2, 0, -3, 1, -1, 4, -2
1503958648933,+0.801,+0.402,+0.223,+0.383,+0.850,-0.106,-0.503,-12.438,+12.375,+18.062,5, 5, 7, -4, -3, -1, -2, 4
1503958648942,+0.801,+0.404,+0.221,+0.382,+0.875,-0.006,-0.538,-16.000,+8.875,+5.312,-15, 6, 10, 16, 8, 0, 2, 0
1503958648963,+0.803,+0.404,+0.220,+0.380,+0.862,-0.023,-0.557,-10.500,-7.750,+8.562,5, -1, 0, -5, -13, 0, -3, 10
1503958648989,+0.804,+0.402,+0.218,+0.379,+0.836,-0.039,-0.533,-8.062,-14.438,+8.062,-4, 5, 0, -3, 1, -2, 2, 3
1503958649002,+0.806,+0.400,+0.217,+0.379,+0.824,-0.058,-0.523,-7.438,-15.312,+3.438,-5, 5, -1, -3, 26, -1, -2, -1
1503958649030,+0.807,+0.398,+0.216,+0.378,+0.794,-0.052,-0.531,-5.938,-13.875,+3.125,-4, -2, -1, 3, 5, 5, 3, -5
1503958649045,+0.809,+0.396,+0.214,+0.378,+0.794,-0.045,-0.548,-8.438,-14.688,+5.312,0, 11, 13, -1, -7, 0, 0, 1
1503958649061,+0.811,+0.394,+0.212,+0.377,+0.781,-0.027,-0.563,-10.125,-15.688,+9.062,-2, 3, 1, 3, -9, -3, -3, -2
1503958649091,+0.813,+0.392,+0.210,+0.375,+0.789,-0.032,-0.566,-11.250,-17.750,+11.312,-1, 0, 0, 13, 33, 1, 5, -1
1503958649105,+0.815,+0.390,+0.208,+0.373,+0.788,-0.031,-0.565,-13.125,-14.000,+12.000,-1, -3, 7, 4, -1, -1, 1, 1
1503958649121,+0.817,+0.389,+0.207,+0.371,+0.799,-0.040,-0.575,-12.500,-10.875,+12.000,-4, -7, 0, -7, -18, 0, -1, 3
1503958649143,+0.819,+0.388,+0.205,+0.370,+0.812,-0.040,-0.590,-11.312,-8.875,+9.750,1, -5, -6, -1, 1, -3, -1, -6
1503958649165,+0.820,+0.386,+0.204,+0.369,+0.799,-0.025,-0.601,-6.688,-12.562,+5.000,0, 8, 4, 5, -6, -1, -2, 1
1503958649184,+0.822,+0.385,+0.203,+0.368,+0.811,-0.042,-0.601,-5.688,-9.000,+4.812,0, -3, -2, -4, 1, -1, -3, 7
1503958649203,+0.822,+0.384,+0.202,+0.368,+0.790,-0.056,-0.610,-3.250,-1.562,+2.562,-3, 7, 1, 4, -9, 1, 3, -6
1503958649226,+0.822,+0.385,+0.203,+0.368,+0.816,-0.049,-0.608,-1.375,+3.312,+0.875,-2, 10, 6, -4, -2, 2, -1, -4
1503958649241,+0.822,+0.385,+0.203,+0.368,+0.825,-0.048,-0.594,+0.625,+5.938,+0.875,-3, 18, 18, 6, -8, -2, -3, 6
1503958649263,+0.821,+0.386,+0.204,+0.368,+0.804,-0.056,-0.593,+2.375,+7.312,-0.312,3, -4, -9, -10, -19, 0, -1, -2
1503958649291,+0.820,+0.387,+0.205,+0.368,+0.786,-0.052,-0.569,+4.812,+6.375,-4.125,3, 0, -2, -5, -7, -4, -1, 3
1503958649304,+0.819,+0.388,+0.206,+0.369,+0.798,-0.042,-0.580,+5.938,+9.625,-6.875,2, -3, 4, 2, 0, -2, -1, -3
1503958649324,+0.818,+0.389,+0.208,+0.370,+0.823,-0.036,-0.577,+6.312,+12.375,-4.562,-9, -9, -8, -4, 1, -1, 2, -7
1503958649345,+0.816,+0.390,+0.209,+0.371,+0.827,-0.029,-0.579,+6.625,+10.500,-1.750,5, -3, 4, -4, 10, 2, 1, 0
1503958649363,+0.815,+0.391,+0.211,+0.371,+0.837,-0.048,-0.562,+6.688,+10.062,+0.438,-5, -5, 2, 2, -3, 0, 1, 0
1503958649384,+0.815,+0.392,+0.213,+0.371,+0.865,-0.069,-0.547,+5.812,+6.625,+2.125,-1, -4, -5, 5, -1, -2, -3, 2
1503958649405,+0.815,+0.392,+0.214,+0.370,+0.859,-0.077,-0.562,+4.625,+4.250,+6.375,-2, 1, -4, -5, -6, -2, -2, -13
1503958649427,+0.815,+0.392,+0.216,+0.368,+0.841,-0.065,-0.555,+3.062,+1.562,+10.875,-6, 3, 2, -6, 1, -2, -4, 5
1503958649443,+0.815,+0.391,+0.217,+0.368,+0.860,-0.050,-0.535,+0.688,-3.812,+7.562,1, -3, 4, 9, 3, -1, 0, 1
1503958649465,+0.816,+0.391,+0.217,+0.367,+0.876,-0.075,-0.540,-0.688,-1.188,+7.125,2, 4, 0, 6, -1, -1, -2, 3
1503958649481,+0.816,+0.390,+0.217,+0.366,+0.858,-0.064,-0.545,-2.312,-9.188,+6.375,1, 15, 6, -4, 1, 1, 3, 2
1503958649503,+0.818,+0.389,+0.216,+0.366,+0.833,-0.049,-0.537,-5.562,-15.812,+4.625,-5, -9, -4, -7, -2, 0, 0, -11
1503958649525,+0.819,+0.387,+0.214,+0.365,+0.802,-0.052,-0.565,-8.375,-11.750,+5.062,9, 7, -8, 0, 4, 2, 0, 4
1503958649541,+0.820,+0.386,+0.213,+0.364,+0.787,-0.057,-0.588,-10.000,-6.312,+5.500,-2, -15, 0, -3, -4, -3, -1, 1
1503958649563,+0.821,+0.386,+0.211,+0.363,+0.820,-0.053,-0.578,-10.250,-5.688,+5.125,-4, -4, -1, 5, 3, -3, -2, -4
1503958649591,+0.823,+0.385,+0.210,+0.361,+0.845,-0.052,-0.566,-10.312,-8.750,+7.875,-1, 1, 5, 0, -2, 4, 0, -6
1503958649601,+0.824,+0.384,+0.209,+0.360,+0.819,-0.064,-0.585,-9.875,-10.812,+11.000,-4, -2, 0, -9, -8, -2, -2, 6
1503958649630,+0.826,+0.383,+0.208,+0.358,+0.791,-0.068,-0.591,-11.438,-9.375,+9.438,-7, -1, -7, 7, -7, -3, -2, -4
1503958649645,+0.827,+0.382,+0.206,+0.356,+0.796,-0.067,-0.599,-11.938,-6.750,+10.250,2, -6, -5, 0, 5, -3, 0, 3
1503958649663,+0.829,+0.382,+0.205,+0.354,+0.804,-0.073,-0.596,-11.688,-3.875,+11.375,-1, 3, -8, -9, -3, -1, 1, 2
1503958649683,+0.830,+0.382,+0.204,+0.352,+0.795,-0.069,-0.598,-10.625,+0.312,+7.938,-2, -1, -3, 0, 3, -1, -4, -2
1503958649705,+0.830,+0.382,+0.204,+0.351,+0.798,-0.067,-0.593,-8.500,+2.562,+3.625,-4, 6, -3, 7, 3, -1, 0, -5
1503958649725,+0.830,+0.383,+0.203,+0.351,+0.812,-0.074,-0.586,-5.562,+3.125,+0.875,-2, -2, 5, 8, 9, 2, -1, 1
1503958649743,+0.830,+0.384,+0.203,+0.350,+0.829,-0.075,-0.578,-3.812,+2.188,-0.125,2, -20, -2, 5, -3, -1, 1, -1
1503958656966,+0.889,+0.367,+0.174,+0.212,+0.756,-0.189,-0.631,-7.125,+4.188,-16.625,-4, -8, -1, 2, -8, -1, -1, -2
1503958656988,+0.889,+0.367,+0.172,+0.214,+0.759,-0.180,-0.639,-8.062,-6.125,-17.188,-3, 1, -3, 1, 3, -1, -1, -2
1503958657012,+0.889,+0.367,+0.170,+0.216,+0.768,-0.173,-0.632,-9.438,-9.125,-15.875,0, 7, -1, -3, -1, 1, -1, -2
1503958657026,+0.889,+0.367,+0.167,+0.217,+0.765,-0.147,-0.644,-13.625,-4.750,-13.875,1, 0, 3, -3, -2, 0, -4, -2
1503958657048,+0.889,+0.367,+0.164,+0.219,+0.763,-0.119,-0.634,-12.375,-7.438,-15.250,1, 2, 3, 2, -3, -1, 2, -9
1503958657078,+0.889,+0.366,+0.161,+0.222,+0.797,-0.133,-0.626,-10.875,-10.875,-20.625,0, 0, 2, -4, -6, -2, -1, -1
1503958657086,+0.889,+0.365,+0.157,+0.226,+0.748,-0.105,-0.661,-12.250,-13.375,-24.562,-2, -2, -1, -6, 0, -1, -1, -3
1503958657109,+0.889,+0.365,+0.153,+0.229,+0.745,-0.054,-0.663,-8.312,-13.250,-25.375,-2, -2, 2, 3, 3, -1, -1, -1
1503958657130,+0.889,+0.364,+0.150,+0.233,+0.759,-0.065,-0.646,-7.812,-7.750,-23.875,0, -4, -6, 2, -3, 1, -1, 4
1503958657146,+0.889,+0.365,+0.147,+0.236,+0.750,-0.064,-0.635,-9.062,-6.750,-21.250,-1, 3, 0, -3, -7, 0, 0, 3
1503958657168,+0.888,+0.364,+0.144,+0.240,+0.724,-0.042,-0.670,-7.875,-5.938,-23.125,-7, -13, 14, -8, -2, 0, -5, -4
1503958657190,+0.888,+0.365,+0.141,+0.243,+0.714,-0.039,-0.666,-5.562,-2.750,-25.938,0, 3, -4, -1, 2, -3, -1, 2
1503958657206,+0.887,+0.366,+0.139,+0.247,+0.749,-0.042,-0.687,-5.438,+3.125,-22.750,0, -3, -4, -1, -5, -2, 0, -2
1503958657229,+0.886,+0.367,+0.137,+0.248,+0.763,-0.042,-0.658,-7.188,+2.938,-11.938,3, 5, -5, -4, 1, -1, -1, 0
1503958657250,+0.886,+0.368,+0.136,+0.248,+0.765,-0.032,-0.665,-9.125,+0.375,-4.062,-1, 6, -3, 9, 1, 0, 2, -2
1503958657266,+0.886,+0.368,+0.134,+0.248,+0.748,-0.045,-0.659,-8.062,-1.938,-3.938,0, 12, 11, -3, 5, 1, -4, -7
1503958657288,+0.886,+0.368,+0.133,+0.249,+0.733,-0.066,-0.652,-8.000,-3.188,-7.250,0, -6, -5, -6, -2, 0, 0, 1
1503958657311,+0.886,+0.367,+0.131,+0.251,+0.715,-0.050,-0.638,-6.250,-4.812,-11.312,1, -3, -5, 6, 0, 1, 2, -1
1503958657326,+0.886,+0.367,+0.130,+0.251,+0.728,-0.043,-0.642,-8.500,-3.375,-8.500,-1, 0, 2, 2, -2, -1, -1, -1
1503958657349,+0.886,+0.367,+0.128,+0.252,+0.752,-0.024,-0.668,-8.062,-3.938,-6.875,-1, -6, -6, -3, 3, -1, -1, 1
1503958657371,+0.886,+0.367,+0.126,+0.253,+0.756,-0.027,-0.683,-7.250,-4.312,-8.375,-1, 13, 5, -11, 4, -2, -7, -1
1503958657386,+0.886,+0.366,+0.124,+0.254,+0.752,-0.027,-0.686,-7.562,-6.938,-6.250,-1, -7, -5, 11, -3, 1, 4, -1
1503958657417,+0.887,+0.366,+0.123,+0.254,+0.735,-0.030,-0.685,-6.812,-3.750,-1.375,-3, 2, 5, 1, -10, -1, -1, -4
1503958657431,+0.887,+0.365,+0.122,+0.254,+0.728,-0.024,-0.688,-5.750,-3.062,-0.625,-2, -8, -7, 4, -5, -1, 1, 1
1503958657446,+0.887,+0.365,+0.121,+0.254,+0.727,-0.020,-0.662,-5.250,-2.750,+0.000,-1, -3, -1, -14, -9, -1, -4, 1
1503958657469,+0.888,+0.365,+0.121,+0.253,+0.704,-0.023,-0.648,-2.500,-1.625,+2.938,-2, 0, -2, 5, 4, 0, 2, 1
1503958657491,+0.889,+0.364,+0.121,+0.252,+0.710,-0.052,-0.678,-5.500,-6.375,+9.750,-4, -6, -1, 0, 2, -1, -3, -1
1503958657510,+0.890,+0.363,+0.121,+0.249,+0.722,-0.026,-0.695,-7.562,-2.562,+16.062,0, 1, -3, -5, -1, -2, 0, 2
1503958657529,+0.891,+0.362,+0.121,+0.247,+0.733,-0.022,-0.702,-4.500,-3.000,+13.875,-1, 1, 0, -1, -1, 0, 0, -4
1503958657552,+0.892,+0.361,+0.121,+0.245,+0.752,-0.041,-0.692,-3.875,-7.000,+7.750,3, 2, 2, -1, 3, 0, 1, 1
1503958657566,+0.892,+0.360,+0.121,+0.245,+0.746,-0.042,-0.667,-0.750,-8.500,+6.125,-1, 3, 6, 6, -2, 0, 1, -3
1503958657597,+0.893,+0.359,+0.121,+0.244,+0.727,-0.051,-0.678,-2.688,-7.312,+4.250,1, 0, -3, 0, -6, -1, -2, -1
1503958657613,+0.893,+0.358,+0.120,+0.244,+0.691,-0.021,-0.708,-2.250,+1.250,-0.375,0, 1, 10, -5, 3, -2, -3, -2
1503958657626,+0.892,+0.359,+0.120,+0.245,+0.694,-0.012,-0.687,+1.375,+8.312,-8.625,-1, 2, 4, -7, 1, -1, -2, -3
1503958657647,+0.891,+0.361,+0.120,+0.248,+0.712,-0.016,-0.664,+3.312,+11.938,-15.562,-3, 1, -2, 4, -1, -9, 0, -7
1503958657670,+0.889,+0.364,+0.120,+0.250,+0.751,-0.016,-0.672,+2.750,+13.500,-14.312,0, 1, -3, 2, 4, 4, 3, 2
1503958657693,+0.888,+0.366,+0.121,+0.252,+0.749,-0.013,-0.678,+2.938,+12.125,-12.125,0, -3, -3, -3, 4, -1, -3, 0
1503958657711,+0.887,+0.367,+0.121,+0.254,+0.750,-0.022,-0.673,+2.188,+7.062,-12.500,-5, -4, -3, 1, 4, 4, -3, -2
1503958657730,+0.886,+0.368,+0.121,+0.256,+0.742,-0.031,-0.646,+1.062,+6.375,-10.938,0, 0, -4, -1, -1, 0, -2, -3
1503958657752,+0.885,+0.369,+0.121,+0.257,+0.755,-0.025,-0.645,-0.312,+4.438,-6.625,-1, -2, 3, -1, -1, 1, 0, 0
1503958657767,+0.885,+0.370,+0.121,+0.257,+0.792,-0.023,-0.649,-1.375,+0.062,-3.562,-4, 1, 8, 18, 37, 3, -2, -12
1503958657790,+0.885,+0.369,+0.120,+0.257,+0.781,-0.013,-0.657,-2.188,-5.500,+0.875,-4, -3, 2, -3, -1, 5, -1, -5
1503958657812,+0.886,+0.368,+0.120,+0.256,+0.752,-0.009,-0.657,-4.625,-11.688,+3.875,5, 0, 1, -6, -5, 0, -8, -4
1503958657827,+0.887,+0.367,+0.119,+0.255,+0.714,-0.008,-0.673,-5.500,-6.500,+7.688,2, 1, 3, -2, -15, 0, 5, -1
1503958657850,+0.888,+0.366,+0.118,+0.254,+0.728,-0.016,-0.663,-5.625,-5.000,+8.875,4, -2, -14, -21, -9, 0, 10, 2
1503958657872,+0.888,+0.365,+0.118,+0.252,+0.747,-0.006,-0.672,-5.125,-4.125,+8.250,-8, -3, 7, 27, 8, 1, 1, -13
1503958657895,+0.889,+0.364,+0.117,+0.251,+0.736,-0.001,-0.684,-6.812,-6.688,+9.625,8, 1, -6, -47, -21, 0, 1, 13
1503958657912,+0.890,+0.363,+0.117,+0.249,+0.741,-0.021,-0.683,-8.375,-8.062,+11.312,-1, 0, 4, 22, 38, 2, 15, -12
1503958657932,+0.891,+0.362,+0.116,+0.247,+0.731,-0.035,-0.674,-6.688,-6.938,+10.125,3, -4, -8, -35, -24, 4, -10, -1
1503958657949,+0.892,+0.361,+0.115,+0.246,+0.730,-0.038,-0.690,-6.938,-8.438,+5.688,-10, -3, 2, 34, 21, 1, 10, 0
1503958657970,+0.893,+0.360,+0.114,+0.245,+0.717,-0.030,-0.691,-6.750,-5.438,+1.562,10, 5, -10, -1, -26, -2, 1, 4
1503958657992,+0.893,+0.360,+0.114,+0.245,+0.745,-0.025,-0.667,-5.438,-2.938,-2.125,-11, 3, -2, -11, -6, -17, -30, -10
1503958658008,+0.893,+0.360,+0.113,+0.246,+0.765,-0.030,-0.686,-4.188,-4.812,-5.500,-8, -17, 14, -4, 13, 4, 1, 9
1503958658030,+0.893,+0.358,+0.112,+0.247,+0.740,-0.032,-0.691,-3.750,-11.562,-6.750,0, 5, -2, 24, 1, -9, -3, -8
1503958658052,+0.894,+0.357,+0.110,+0.248,+0.711,-0.046,-0.684,-6.750,-10.375,-4.938,5, 8, 2, 0, 2, -12, -8, 14
1503958658073,+0.894,+0.356,+0.109,+0.248,+0.711,-0.038,-0.680,-8.500,-5.750,-2.250,-5, -6, 15, 8, 30, 5, 5, -8
1503958658091,+0.895,+0.356,+0.108,+0.247,+0.727,-0.024,-0.688,-9.250,-3.875,-1.438,-12, -4, 9, -3, -18, 8, 28, -1
1503958658113,+0.895,+0.356,+0.106,+0.248,+0.729,-0.012,-0.707,-8.625,-3.750,-4.500,1, 5, -1, -7, -7, 0, 1, -1
1503958658127,+0.895,+0.356,+0.105,+0.248,+0.719,-0.005,-0.695,-8.500,-2.875,-5.625,2, 7, 2, -5, -9, -11, 0, 8
1503958658150,+0.895,+0.357,+0.103,+0.249,+0.708,+0.003,-0.673,-8.438,+1.250,-6.625,1, -5, -4, -7, -13, 2, 1, 2
1503958658172,+0.894,+0.358,+0.102,+0.250,+0.721,+0.013,-0.686,-8.375,+4.688,-8.688,0, 6, 1, 3, 18, 4, 7, -11
1503958658188,+0.893,+0.359,+0.100,+0.251,+0.732,+0.038,-0.711,-5.375,+3.875,-8.562,6, 5, -5, 15, 3, 0, 0, 5
1503958658210,+0.893,+0.359,+0.099,+0.252,+0.746,+0.012,-0.697,-3.000,-3.625,-8.000,3, -9, 9, 0, 3, 1, 10, 9
1503958658232,+0.893,+0.358,+0.098,+0.253,+0.699,-0.004,-0.698,-3.438,-3.938,-6.438,-9, -6, 9, 2, 4, 1, 0, -9
1503958658249,+0.893,+0.358,+0.098,+0.253,+0.684,-0.012,-0.718,-2.812,+4.062,-1.688,-7, -5, 7, -2, 22, 2, -1, -5
1503958658270,+0.893,+0.359,+0.099,+0.252,+0.702,+0.001,-0.715,-3.000,+9.562,+0.562,10, 13, -12, 1, -20, -5, -8, -3
1503958658292,+0.893,+0.361,+0.099,+0.252,+0.737,+0.014,-0.707,-0.688,+8.875,+3.750,-1, -9, 10, -1, -11, 4, 2, 1
1503958658307,+0.892,+0.362,+0.100,+0.251,+0.734,+0.012,-0.713,+2.125,+8.125,+3.188,7, 5, -3, -6, -17, -5, -1, -3
1503958658330,+0.892,+0.362,+0.102,+0.251,+0.732,-0.008,-0.691,+3.250,+6.188,+5.062,-1, 2, -11, 6, -2, -4, 1, -2
1503958658354,+0.892,+0.363,+0.103,+0.250,+0.738,-0.017,-0.677,+3.750,+9.000,+6.875,-2, -6, 10, -7, 2, 0, 3, 8
1503958658367,+0.891,+0.364,+0.105,+0.249,+0.735,-0.006,-0.686,+6.750,+8.062,+4.750,-2, 0, 4, -19, 6, 1, -4, -1
1503958658390,+0.891,+0.365,+0.107,+0.250,+0.721,-0.004,-0.698,+7.750,+6.688,+0.750,5, 0, 23, -6, -7, -24, -4, -11
1503958658412,+0.890,+0.365,+0.108,+0.250,+0.729,-0.005,-0.677,+7.188,+6.375,+0.688,-9, -1, -7, 4, -2, -1, -2, -6
1503958658427,+0.889,+0.366,+0.110,+0.250,+0.739,-0.006,-0.662,+7.500,+9.312,+1.688,-6, -6, -9, -10, 19, -1, -2, 1
1503958658450,+0.889,+0.367,+0.112,+0.250,+0.753,-0.004,-0.650,+6.938,+8.688,+1.062,-7, -5, 1, 5, -15, 12, 2, -7
1503958658472,+0.888,+0.368,+0.113,+0.251,+0.745,+0.003,-0.669,+8.938,+6.875,-1.000,-2, 15, 1, 10, -2, 2, -6, -19
1503958658488,+0.887,+0.369,+0.116,+0.252,+0.732,-0.025,-0.665,+11.125,+6.500,-0.062,-2, -6, 7, -8, -2, -11, 1, 9
1503958670015,+0.879,+0.370,+0.180,+0.241,+0.742,-0.098,-0.634,-2.812,+5.750,+4.312,0, -1, 0, -23, -7, 2, 0, 1
1503958670038,+0.879,+0.371,+0.180,+0.240,+0.805,-0.124,-0.612,-3.750,+5.375,+5.000,7, 12, -1, 5, -1, 1, 0, -14
1503958670059,+0.879,+0.371,+0.180,+0.239,+0.800,-0.169,-0.600,-4.938,-5.438,+3.250,-16, 5, -3, 12, -3, -3, 0, -25
1503958670075,+0.880,+0.369,+0.179,+0.239,+0.749,-0.118,-0.640,-3.875,-7.812,+3.750,3, -7, -5, 3, 5, -1, 2, 3
1503958670097,+0.880,+0.370,+0.179,+0.238,+0.760,-0.099,-0.638,-2.250,+1.750,+3.000,-8, -3, -11, 3, 12, -3, -3, -9
1503958670119,+0.880,+0.370,+0.179,+0.237,+0.781,-0.167,-0.643,-3.688,+0.375,+2.812,0, 12, 3, 8, 5, 1, 3, -2
1503958670135,+0.881,+0.369,+0.179,+0.236,+0.749,-0.194,-0.613,-5.812,-1.188,+2.750,12, 34, -1, 17, -6, 3, 8, -5
1503958670157,+0.881,+0.369,+0.178,+0.236,+0.729,-0.159,-0.614,-7.500,-4.625,+0.875,-4, 0, 9, -12, 2, -4, -7, -8
1503958670179,+0.882,+0.368,+0.177,+0.236,+0.762,-0.120,-0.636,-6.750,-3.375,+1.188,2, 0, 1, -17, -16, 1, -1, 9
1503958670195,+0.882,+0.368,+0.176,+0.235,+0.789,-0.136,-0.646,-7.500,-1.500,+3.250,-7, 3, 1, 4, -2, 6, 7, -11
1503958670217,+0.883,+0.368,+0.175,+0.234,+0.788,-0.165,-0.640,-9.438,-3.500,+1.750,10, 11, -5, 6, -8, -5, -19, 4
1503958670240,+0.883,+0.369,+0.174,+0.233,+0.734,-0.134,-0.619,-10.438,+1.750,+1.125,-5, 11, -18, 6, 4, -7, 7, -3
1503958670255,+0.883,+0.370,+0.173,+0.233,+0.774,-0.127,-0.566,-6.000,-0.312,-3.938,-5, -12, 4, -4, -1, 0, 3, -3
1503958670277,+0.883,+0.368,+0.171,+0.235,+0.794,-0.111,-0.642,-2.938,-12.125,-11.188,-4, 3, 11, -9, -1, -2, -2, 1
1503958670299,+0.883,+0.367,+0.170,+0.237,+0.757,-0.073,-0.676,+0.000,-8.562,-7.312,-29, -20, -15, 9, -4, -4, -6, -16
1503958670315,+0.883,+0.368,+0.170,+0.237,+0.730,-0.101,-0.661,-2.125,+8.000,-2.375,6, -3, 6, -15, -4, -5, -2, 5
1503958670338,+0.882,+0.369,+0.170,+0.237,+0.783,-0.159,-0.623,-3.188,+7.125,+1.875,11, -12, 6, 4, 3, -2, 1, 7
1503958670359,+0.882,+0.370,+0.171,+0.235,+0.788,-0.160,-0.621,-4.812,+0.375,+4.688,11, 15, -5, 4, -1, 0, 7, -2
1503958670375,+0.883,+0.369,+0.170,+0.235,+0.777,-0.138,-0.626,-4.938,-5.000,+3.125,4, -3, 2, -23, -7, 3, 2, 1
1503958670398,+0.883,+0.369,+0.170,+0.234,+0.782,-0.126,-0.623,-4.188,-4.938,+1.938,5, -11, 0, -7, 7, 1, -6, 7
1503958670419,+0.884,+0.368,+0.169,+0.234,+0.776,-0.125,-0.638,-4.875,-8.812,+0.750,3, 6, -13, 11, 1, -1, 4, 0
1503958670442,+0.885,+0.366,+0.168,+0.234,+0.748,-0.092,-0.650,-6.250,-9.750,+4.375,-6, 9, 3, 11, 4, -1, 0, -2
1503958670457,+0.886,+0.366,+0.167,+0.232,+0.750,-0.079,-0.691,-4.938,-1.000,+11.562,-5, 1, 6, 13, 15, -2, -3, -5
1503958670479,+0.886,+0.365,+0.167,+0.230,+0.773,-0.096,-0.617,-4.875,-2.562,+13.875,7, 15, 1, -4, -1, -2, 3, -10
1503958670495,+0.887,+0.363,+0.167,+0.230,+0.781,-0.159,-0.617,+0.062,-20.188,+2.562,-8, 1, -5, -2, -3, -2, -3, -7
1503958670517,+0.888,+0.360,+0.167,+0.230,+0.632,-0.161,-0.650,-3.562,-8.812,+1.250,-6, -15, -1, 1, 0, -2, 14, -5
1503958670539,+0.888,+0.361,+0.166,+0.230,+0.754,-0.093,-0.690,-3.438,+4.375,-4.688,-2, -6, 3, -5, -17, 2, -8, -5
1503958670555,+0.887,+0.364,+0.165,+0.231,+0.790,-0.113,-0.630,-6.688,+13.812,-7.938,-2, 4, 1, 2, -10, -2, 1, 7
1503958670577,+0.887,+0.365,+0.164,+0.232,+0.758,-0.173,-0.668,-4.438,+1.812,-10.438,-2, -7, 4, 3, 3, -1, 3, -3
1503958670600,+0.886,+0.365,+0.164,+0.234,+0.688,-0.125,-0.636,-2.375,+2.312,-12.312,4, 20, -4, 0, 4, -2, -3, -9
1503958670615,+0.885,+0.366,+0.163,+0.235,+0.708,-0.112,-0.657,-1.000,+7.188,-11.812,0, -10, -5, -8, -2, 8, -4, 20
1503958670638,+0.885,+0.367,+0.162,+0.237,+0.769,-0.109,-0.662,-0.625,+5.938,-11.625,1, -1, 0, -7, 0, -2, -4, 6
1503958670659,+0.884,+0.369,+0.163,+0.237,+0.794,-0.097,-0.678,+0.312,+13.875,-4.312,1, 13, -2, 7, 3, -1, -2, 0
1503958670676,+0.883,+0.371,+0.163,+0.238,+0.764,-0.120,-0.636,-0.938,+9.688,-3.125,1, 31, -9, 10, 8, 5, 1, -6
1503958670706,+0.882,+0.371,+0.164,+0.238,+0.760,-0.146,-0.619,+1.375,+4.250,-2.375,6, -10, -3, 1, -8, -3, 3, -6
1503958670719,+0.882,+0.372,+0.164,+0.238,+0.769,-0.131,-0.598,-2.625,+3.875,-4.250,-6, 5, -1, 2, 3, -2, 0, -2
1503958670738,+0.882,+0.372,+0.163,+0.238,+0.760,-0.110,-0.600,-7.125,-4.875,-2.938,3, -13, 0, -14, 11, 4, 1, 16
1503958670757,+0.883,+0.372,+0.161,+0.238,+0.795,-0.050,-0.647,-8.625,-7.875,-0.438,-5, -4, 9, 11, -8, -5, -2, -8
1503958670779,+0.883,+0.371,+0.159,+0.238,+0.832,-0.061,-0.583,-7.875,-12.500,-0.250,-1, 8, 10, 2, -12, 2, -1, -3
1503958670795,+0.884,+0.369,+0.158,+0.239,+0.775,-0.091,-0.615,-6.188,-19.500,+0.000,-7, 13, 1, -9, -15, 3, 4, -8
1503958670817,+0.886,+0.367,+0.156,+0.237,+0.726,-0.110,-0.608,-12.188,-16.000,+8.438,1, -15, -11, 2, -1, -3, -1, -4
1503958670839,+0.887,+0.366,+0.154,+0.234,+0.821,-0.062,-0.702,-15.375,-4.500,+19.375,2, -9, -9, 5, 10, 2, -2, -4
1503958670855,+0.889,+0.365,+0.152,+0.231,+0.872,-0.087,-0.633,-18.250,-20.125,+12.312,-1, -15, 7, -9, -1, -2, 5, 0
1503958670877,+0.891,+0.362,+0.149,+0.230,+0.738,-0.124,-0.666,-16.062,-24.188,+4.500,1, -3, 6, -8, 0, 1, 0, 0
1503958670899,+0.893,+0.358,+0.146,+0.230,+0.687,-0.114,-0.675,-16.188,-22.938,-1.875,-4, 6, 4, -3, 3, -2, -5, 13
1503958670915,+0.894,+0.356,+0.143,+0.231,+0.700,-0.093,-0.656,-14.750,-18.250,-8.688,5, -1, -8, 1, 1, 0, 3, 7
1503958670938,+0.895,+0.354,+0.140,+0.233,+0.698,-0.092,-0.701,-11.000,-17.500,-14.750,-2, 20, 12, -3, -3, -2, -2, -5
1503958670959,+0.896,+0.352,+0.136,+0.234,+0.669,-0.064,-0.713,-12.125,-13.688,-11.125,-3, -9, -5, 0, 0, 1, 2, 0
1503958670976,+0.896,+0.351,+0.134,+0.235,+0.719,-0.062,-0.708,-11.125,-3.688,-4.188,5, -1, -3, -2, -3, 1, 7, 4
1503958670997,+0.897,+0.351,+0.133,+0.235,+0.728,-0.069,-0.685,-10.188,-3.125,-3.688,2, 2, 8, -12, 2, 4, -2, -2
1503958671019,+0.897,+0.351,+0.131,+0.234,+0.720,-0.089,-0.691,-9.000,-6.938,-0.062,5, 4, 3, -2, 1, -2, -21, 2
1503958671038,+0.898,+0.350,+0.130,+0.234,+0.718,-0.093,-0.690,-10.562,-7.438,+1.312,0, 7, 1, -2, 6, 5, 1, 4
1503958671057,+0.898,+0.350,+0.128,+0.233,+0.703,-0.084,-0.712,-12.750,-1.500,-1.625,-4, 7, -6, 1, -2, -4, 8, -9
1503958671079,+0.898,+0.351,+0.126,+0.234,+0.734,-0.054,-0.647,-11.812,-0.812,-8.062,12, 10, 8, -1, -2, -4, -20, -2
1503958671095,+0.898,+0.351,+0.124,+0.235,+0.777,-0.042,-0.694,-9.688,-3.938,-11.438,-13, -14, -2, 6, 5, -2, 1, -3
1503958671117,+0.898,+0.350,+0.121,+0.236,+0.762,-0.040,-0.685,-9.750,-13.812,-9.625,-5, -7, 2, 3, 5, 4, 12, 2
1503958671140,+0.899,+0.349,+0.119,+0.237,+0.713,-0.035,-0.695,-11.625,-10.438,-4.938,0, 19, 8, 10, 5, 1, 1, -3
1503958671155,+0.899,+0.348,+0.117,+0.237,+0.695,-0.034,-0.696,-10.812,-6.500,-4.000,6, 5, -8, -6, -2, -1, 5, 2
1503958671177,+0.900,+0.347,+0.115,+0.238,+0.668,-0.028,-0.700,-9.125,-9.500,-8.750,-7, -8, -1, -2, 3, -3, 9, 0
1503958671199,+0.900,+0.346,+0.113,+0.239,+0.711,-0.039,-0.708,-7.000,-10.500,-7.000,4, 2, -4, 8, 1, 4, 4, -2
1503958678526,+0.775,+0.462,+0.278,+0.329,+0.903,-0.137,-0.345,+5.375,+13.312,-8.562,-1, 0, -1, 4, -5, -2, -1, -4
1503958678546,+0.773,+0.464,+0.279,+0.331,+0.920,-0.121,-0.370,+3.562,+15.312,-12.062,-2, -1, 0, 1, -3, -1, -2, -3
1503958678566,+0.771,+0.467,+0.279,+0.332,+0.934,-0.114,-0.364,+1.438,+13.062,-10.938,-5, -8, -10, 0, -5, 0, 2, -1
1503958678579,+0.769,+0.469,+0.279,+0.333,+0.942,-0.110,-0.346,+0.312,+10.250,-10.188,2, 0, 1, 0, -2, 1, 1, -1
1503958678602,+0.768,+0.471,+0.279,+0.333,+0.947,-0.126,-0.333,-1.500,+11.625,-10.625,-1, 0, 3, 5, 6, 0, -2, -2
1503958678628,+0.767,+0.472,+0.278,+0.334,+0.965,-0.128,-0.332,-2.938,+3.625,-11.438,-5, -13, -2, -3, -4, -1, -1, -2
1503958678640,+0.766,+0.473,+0.277,+0.335,+0.988,-0.146,-0.349,-5.312,-1.938,-13.000,4, 8, -1, -9, -6, -1, 0, -1
1503958678667,+0.766,+0.473,+0.275,+0.336,+0.954,-0.132,-0.346,-7.188,-3.250,-11.750,0, 8, 0, 1, 4, 1, 2, -3
1503958678684,+0.766,+0.475,+0.274,+0.336,+0.922,-0.114,-0.363,-9.688,+6.250,-7.500,2, -2, -1, 0, -3, 2, 0, -1
1503958678700,+0.765,+0.477,+0.273,+0.336,+0.955,-0.096,-0.347,-8.562,+11.000,-8.875,-1, -7, 6, -3, 2, 0, -2, -3
1503958678725,+0.763,+0.479,+0.272,+0.337,+0.975,-0.083,-0.342,-7.312,+8.562,-11.000,0, -2, -2, 2, -2, -1, 0, 0
1503958678744,+0.763,+0.481,+0.270,+0.338,+0.955,-0.092,-0.357,-7.000,+3.375,-11.812,1, 6, 1, -3, 3, 0, 0, 0
1503958678764,+0.762,+0.483,+0.269,+0.338,+0.915,-0.086,-0.362,-9.312,+9.188,-12.375,0, -5, -8, 1, -1, -1, 2, 0
1503958678781,+0.760,+0.485,+0.267,+0.338,+0.922,-0.064,-0.346,-10.812,+13.875,-10.000,-1, 10, 4, -4, -2, -2, -1, -2
1503958678804,+0.760,+0.488,+0.266,+0.337,+0.971,-0.067,-0.353,-11.250,+14.500,-4.625,1, 8, -12, 3, -1, -2, 0, 1
1503958678819,+0.759,+0.491,+0.265,+0.336,+0.989,-0.087,-0.288,-13.125,+9.688,-6.000,0, 5, 4, -1, 1, 0, -2, -1
1503958678842,+0.758,+0.493,+0.263,+0.336,+0.970,-0.064,-0.297,-16.500,+1.812,-8.062,-3, -4, -2, 1, 1, 0, 0, -5
