Timestamp,Orientation X,Orientation Y,Orientation Z,Orientation W,Accelerometer X,Accelerometer Y,Accelerometer Z,Gyroscope X,Gyroscope Y,Gyroscope Z,EMG1,EMG2,EMG3,EMG4,EMG5,EMG6,EMG7,EMG8,Roll,Yaw,Window
1503958514036,+0.969,+0.158,-0.055,+0.183,+0.315,+0.169,-0.932,-0.875,-0.688,+0.188,1, 2, 4, -4, -1, -2, -1, -5,2.7929415934501596,0.29424109193794507,0
1503958514059,+0.969,+0.158,-0.055,+0.183,+0.311,+0.178,-0.939,-1.438,-0.750,+0.188,0, 0, 1, -1, -1, -1, 0, -2,2.7929415934501596,0.29424109193794507,0
1503958514075,+0.969,+0.158,-0.055,+0.183,+0.314,+0.168,-0.926,-1.250,+0.250,-0.188,0, -3, -2, -2, -2, -1, -1, -1,2.7929415934501596,0.29424109193794507,0
1503958514097,+0.969,+0.158,-0.055,+0.183,+0.318,+0.174,-0.937,-1.250,-0.188,+0.250,0, 0, 1, -2, 0, 0, -2, -1,2.7929415934501596,0.29424109193794507,0
1503958514119,+0.969,+0.158,-0.055,+0.183,+0.314,+0.171,-0.931,-1.062,-0.438,-0.062,0, 1, 3, -5, 3, -1, -1, 0,2.7929415934501596,0.29424109193794507,0
1503958514135,+0.969,+0.158,-0.055,+0.183,+0.315,+0.165,-0.928,-1.125,+0.000,+0.125,-3, -4, -1, 2, -1, 1, 1, 2,2.7929415934501596,0.29424109193794507,0
1503958514157,+0.969,+0.158,-0.055,+0.183,+0.309,+0.175,-0.938,-1.375,-0.062,+0.312,5, -1, -1, -5, 0, -1, -1, 3,2.7929415934501596,0.29424109193794507,0
1503958514180,+0.969,+0.158,-0.055,+0.183,+0.316,+0.180,-0.926,-1.250,+0.125,+0.375,-6, 3, -1, 3, -1, 0, -1, -1,2.7929415934501596,0.29424109193794507,0
1503958514196,+0.969,+0.158,-0.055,+0.183,+0.314,+0.172,-0.929,-1.125,+0.125,-0.062,-3, -1, -1, -3, -3, -2, 0, -3,2.7929415934501596,0.29424109193794507,0
1503958514217,+0.969,+0.158,-0.055,+0.183,+0.314,+0.177,-0.939,-1.062,+0.000,+0.312,3, -1, 4, -1, 0, -2, -2, 0,2.7929415934501596,0.29424109193794507,0
1503958514239,+0.969,+0.158,-0.055,+0.183,+0.311,+0.176,-0.926,-1.062,-0.188,+0.250,-1, -2, 1, 0, -3, -3, -2, -1,2.7929415934501596,0.29424109193794507,0
1503958514258,+0.969,+0.158,-0.055,+0.183,+0.313,+0.174,-0.936,-1.062,+0.062,+0.375,2, -1, 3, -6, 0, 1, 0, 3,2.7929415934501596,0.29424109193794507,0
1503958514277,+0.969,+0.158,-0.055,+0.183,+0.316,+0.173,-0.933,-1.062,+0.188,+0.312,3, -1, -2, -2, 0, -1, 0, -3,2.7929415934501596,0.29424109193794507,0
1503958514299,+0.969,+0.158,-0.055,+0.183,+0.319,+0.176,-0.931,-0.938,-0.188,+0.500,-5, 0, -2, 3, -1, -1, -1, -4,2.7929415934501596,0.29424109193794507,0
1503958514319,+0.969,+0.158,-0.055,+0.183,+0.312,+0.165,-0.932,-0.812,+0.062,+0.125,-5, 1, 0, 2, -1, 0, -1, -3,2.7929415934501596,0.29424109193794507,0
1503958514337,+0.969,+0.158,-0.055,+0.183,+0.315,+0.172,-0.933,-1.188,+0.312,+0.000,-1, 0, 2, -1, -1, -2, -1, -3,2.7929415934501596,0.29424109193794507,0
1503958514359,+0.969,+0.158,-0.055,+0.183,+0.312,+0.176,-0.927,-1.375,+0.688,+0.000,-1, -1, -2, -1, -2, 0, -1, -1,2.7929415934501596,0.29424109193794507,0
1503958514375,+0.969,+0.158,-0.055,+0.183,+0.320,+0.179,-0.923,-1.375,+0.250,+0.188,-2, 3, -4, 1, 0, -1, 0, -3,2.7929415934501596,0.29424109193794507,0
1503958514397,+0.969,+0.158,-0.055,+0.183,+0.315,+0.176,-0.929,-1.188,-0.188,+0.250,0, -2, -3, -1, -2, 1, 0, 0,2.7929415934501596,0.29424109193794507,0
1503958514420,+0.969,+0.158,-0.055,+0.183,+0.316,+0.170,-0.932,-0.938,+0.188,+0.000,-1, -3, 1, -2, -3, -1, -1, -3,2.7929415934501596,0.29424109193794507,0
1503958514435,+0.969,+0.158,-0.055,+0.183,+0.318,+0.178,-0.936,-1.000,-0.125,+0.125,1, -5, 2, -1, 0, 0, 0, 1,2.7929415934501596,0.29424109193794507,0
1503958514457,+0.969,+0.158,-0.055,+0.183,+0.320,+0.172,-0.933,-1.062,+0.000,+0.188,1, 2, -3, 2, -1, -2, -1, 5,2.7929415934501596,0.29424109193794507,0
1503958514480,+0.969,+0.158,-0.055,+0.183,+0.314,+0.177,-0.932,-1.250,-0.375,+0.188,2, -2, 2, -3, 0, -2, 0, -2,2.7929415934501596,0.29424109193794507,0
1503958514495,+0.969,+0.158,-0.055,+0.183,+0.311,+0.176,-0.935,-1.188,+0.250,+0.312,-10, -4, 1, 0, -1, 1, -1, -6,2.7929415934501596,0.29424109193794507,0
1503958514524,+0.969,+0.158,-0.055,+0.183,+0.324,+0.177,-0.928,-0.938,+0.375,+0.250,0, 1, -4, 0, -1, -1, -2, 0,2.7929415934501596,0.29424109193794507,0
1503958514547,+0.969,+0.158,-0.055,+0.183,+0.314,+0.176,-0.926,-0.875,-0.562,-0.125,0, -1, -3, -1, 0, 0, -1, -1,2.7929415934501596,0.29424109193794507,0
1503958514555,+0.969,+0.158,-0.055,+0.183,+0.309,+0.173,-0.936,-0.750,+0.000,+0.188,0, 0, 3, -5, -1, 0, 0, 1,2.7929415934501596,0.29424109193794507,0
1503958514583,+0.969,+0.158,-0.055,+0.183,+0.314,+0.168,-0.934,-0.688,+0.188,+0.688,1, -1, 3, -7, -1, -1, -1, 2,2.7929415934501596,0.29424109193794507,0
1503958514599,+0.969,+0.158,-0.055,+0.183,+0.317,+0.166,-0.928,-0.812,-0.062,+0.062,-1, 0, -2, 2, -1, 0, 0, 2,2.7929415934501596,0.29424109193794507,0
1503958514615,+0.969,+0.158,-0.055,+0.183,+0.314,+0.172,-0.932,-0.875,+0.688,+0.125,1, -3, 4, -6, 0, -1, -2, 0,2.7929415934501596,0.29424109193794507,0
1503958514637,+0.969,+0.158,-0.055,+0.183,+0.317,+0.177,-0.940,-1.125,+0.062,+0.500,-2, 1, -6, 6, -3, -1, 1, -4,2.7929415934501596,0.29424109193794507,0
1503958514659,+0.969,+0.158,-0.055,+0.183,+0.318,+0.173,-0.923,-1.062,+0.438,+0.125,-7, 1, 0, 0, 0, -3, -1, -5,2.7929415934501596,0.29424109193794507,0
1503958514676,+0.969,+0.158,-0.055,+0.183,+0.324,+0.172,-0.938,-0.938,-0.125,+0.438,1, -1, 2, -2, -1, 1, -1, 0,2.7929415934501596,0.29424109193794507,0
1503958514704,+0.969,+0.158,-0.055,+0.183,+0.318,+0.171,-0.928,-0.875,-0.438,-0.062,-3, -2, 0, -1, 0, -2, -1, -2,2.7929415934501596,0.29424109193794507,0
1503958514719,+0.969,+0.158,-0.055,+0.183,+0.316,+0.171,-0.930,-0.812,+0.000,+0.250,2, -2, 1, -1, -1, -1, 1, 4,2.7929415934501596,0.29424109193794507,0
1503958514735,+0.969,+0.158,-0.055,+0.183,+0.315,+0.171,-0.930,-1.125,-0.312,+0.188,-2, -1, -4, 3, 0, -1, -1, -3,2.7929415934501596,0.29424109193794507,0
1503958514757,+0.969,+0.158,-0.055,+0.183,+0.316,+0.166,-0.929,-1.375,+0.062,+0.000,-1, -3, 0, -6, 1, 0, -1, -3,2.7929415934501596,0.29424109193794507,0
1503958514781,+0.969,+0.158,-0.055,+0.183,+0.325,+0.171,-0.926,-1.250,-0.062,+0.000,6, -3, 12, -13, 1, 0, 1, 0,2.7929415934501596,0.29424109193794507,0
1503958514797,+0.969,+0.158,-0.055,+0.183,+0.319,+0.180,-0.936,-1.500,-0.750,+0.000,2, 1, -2, 3, 0, 0, -1, 1,2.7929415934501596,0.29424109193794507,0
1503958514817,+0.969,+0.158,-0.055,+0.183,+0.322,+0.168,-0.926,-0.938,-0.500,-0.125,-4, 0, -1, -1, -1, 0, 0, 3,2.7929415934501596,0.29424109193794507,0
1503958514839,+0.969,+0.158,-0.055,+0.183,+0.312,+0.176,-0.938,-1.125,-1.000,+0.375,-2, 2, 2, 4, 1, -1, 1, -3,2.7929415934501596,0.29424109193794507,0
1503958514867,+0.969,+0.158,-0.055,+0.183,+0.312,+0.172,-0.933,-0.812,+0.000,+0.500,0, 1, -4, 0, -1, -1, 0, -8,2.7929415934501596,0.29424109193794507,0
1503958514885,+0.969,+0.158,-0.055,+0.183,+0.317,+0.173,-0.929,-0.875,-0.125,+0.312,1, -2, -3, 4, -1, -2, 0, 1,2.7929415934501596,0.29424109193794507,0
1503958514899,+0.969,+0.158,-0.055,+0.183,+0.318,+0.171,-0.931,-1.062,-0.125,-0.062,2, 1, -1, -1, 1, -1, 0, 4,2.7929415934501596,0.29424109193794507,0
1503958514922,+0.969,+0.158,-0.055,+0.183,+0.316,+0.173,-0.933,-1.062,+0.250,+0.438,-2, 1, -1, 3, 1, -2, 0, 2,2.7929415934501596,0.29424109193794507,0
1503958514937,+0.969,+0.158,-0.055,+0.183,+0.318,+0.170,-0.928,-1.312,-0.250,+0.188,2, 0, -1, -2, -3, 0, -1, 3,2.7929415934501596,0.29424109193794507,0
1503958514961,+0.969,+0.158,-0.055,+0.183,+0.307,+0.173,-0.929,-1.312,-0.188,+0.062,0, -2, -4, 2, -1, -2, -1, -4,2.7929415934501596,0.29424109193794507,0
1503958514983,+0.969,+0.158,-0.055,+0.183,+0.317,+0.176,-0.937,-1.375,+0.188,+0.250,-6, 0, -5, 3, -2, -1, -1, -5,2.7929415934501596,0.29424109193794507,0
1503958514997,+0.969,+0.158,-0.055,+0.183,+0.319,+0.172,-0.932,-1.062,-0.312,+0.250,-3, -3, -2, -2, -3, -2, -1, -3,2.7929415934501596,0.29424109193794507,0
1503958515019,+0.969,+0.158,-0.055,+0.183,+0.314,+0.170,-0.922,-0.750,-0.562,+0.188,0, -3, 2, -2, 0, -2, -1, -2,2.7929415934501596,0.29424109193794507,0
1503958515042,+0.969,+0.158,-0.055,+0.183,+0.315,+0.168,-0.935,-1.188,+0.062,+0.000,-2, 0, 5, -9, 3, -1, -3, -1,2.7929415934501596,0.29424109193794507,0
1503958515058,+0.969,+0.158,-0.055,+0.183,+0.325,+0.168,-0.933,-1.062,+0.625,+0.312,5, 2, 3, -3, -2, 2, -1, 7,2.7929415934501596,0.29424109193794507,0
1503958515080,+0.969,+0.158,-0.055,+0.183,+0.318,+0.177,-0.929,-1.062,-0.750,+0.375,0, 0, -6, 7, 0, -1, -1, 0,2.7929415934501596,0.29424109193794507,0
1503958515103,+0.969,+0.158,-0.055,+0.183,+0.306,+0.175,-0.936,-1.188,-0.688,+0.250,-2, 0, -1, -1, -1, -3, -2, -5,2.7929415934501596,0.29424109193794507,0
1503958515118,+0.969,+0.158,-0.055,+0.183,+0.317,+0.170,-0.934,-1.125,+1.000,+0.000,-3, -1, 2, 0, -1, 0, -2, -2,2.7929415934501596,0.29424109193794507,0
1503958515139,+0.969,+0.158,-0.054,+0.183,+0.316,+0.173,-0.932,-1.188,-0.312,+0.188,2, -1, 5, -6, -1, 1, 1, -2,2.792640802690585,0.2945319994082309,0
1503958515162,+0.969,+0.158,-0.054,+0.183,+0.310,+0.174,-0.938,-1.000,-0.312,+0.188,-3, -1, -1, 0, 0, 0, -2, -3,2.792640802690585,0.2945319994082309,0
1503958515177,+0.969,+0.158,-0.054,+0.183,+0.314,+0.171,-0.926,-1.125,+0.625,+0.312,3, 0, 1, -3, -2, -1, 0, 3,2.792640802690585,0.2945319994082309,0
1503958515199,+0.969,+0.158,-0.054,+0.183,+0.327,+0.173,-0.930,-1.062,+0.312,+0.250,3, -3, 4, -7, 1, 0, 1, 3,2.792640802690585,0.2945319994082309,0
1503958515222,+0.969,+0.158,-0.054,+0.183,+0.317,+0.170,-0.933,-0.938,-0.938,+0.188,-2, 2, -5, 6, 0, -2, 0, 2,2.792640802690585,0.2945319994082309,0
1503958515237,+0.969,+0.158,-0.054,+0.183,+0.311,+0.171,-0.935,-1.125,-0.875,-0.062,2, 0, -5, 1, -2, -2, -1, 1,2.792640802690585,0.2945319994082309,0
1503958515261,+0.969,+0.158,-0.054,+0.183,+0.313,+0.174,-0.938,-1.000,-0.250,+0.062,-2, -2, -1, -3, -2, -1, -1, -2,2.792640802690585,0.2945319994082309,0
1503958515282,+0.969,+0.158,-0.054,+0.183,+0.314,+0.170,-0.924,-1.125,+0.438,+0.188,1, -1, 2, -3, 0, 0, -1, -2,2.792640802690585,0.2945319994082309,0
1503958515297,+0.969,+0.158,-0.054,+0.183,+0.317,+0.171,-0.937,-0.875,-0.250,+0.062,-7, -2, 0, -2, -1, 0, -1, 0,2.792640802690585,0.2945319994082309,0
1503958515320,+0.969,+0.158,-0.054,+0.183,+0.316,+0.167,-0.932,-0.938,-0.062,+0.000,-2, -2, 0, 1, -2, -3, -2, -2,2.792640802690585,0.2945319994082309,0
1503958515342,+0.969,+0.158,-0.054,+0.183,+0.313,+0.175,-0.927,-1.188,-0.125,+0.375,-8, 1, -3, 6, 1, -1, -1, -6,2.792640802690585,0.2945319994082309,0
1503958515358,+0.969,+0.158,-0.054,+0.183,+0.316,+0.173,-0.930,-1.188,-0.125,+0.000,2, 3, 3, -2, 0, 0, -2, 4,2.792640802690585,0.2945319994082309,0
1503958515379,+0.969,+0.158,-0.054,+0.183,+0.316,+0.177,-0.926,-0.875,+0.250,+0.125,-4, 0, -3, 0, -2, 0, 1, -4,2.792640802690585,0.2945319994082309,0
1503958515402,+0.969,+0.158,-0.054,+0.183,+0.321,+0.171,-0.937,-0.750,-0.250,+0.188,0, -2, 0, -4, 2, -1, -2, 0,2.792640802690585,0.2945319994082309,0
1503958515419,+0.969,+0.158,-0.054,+0.183,+0.310,+0.169,-0.932,-1.000,-0.312,+0.062,-2, -1, -1, -2, -2, -4, -1, 2,2.792640802690585,0.2945319994082309,0
1503958515439,+0.969,+0.158,-0.054,+0.183,+0.313,+0.170,-0.933,-1.188,+0.125,+0.312,-3, -1, -2, 3, -1, 1, -2, -6,2.792640802690585,0.2945319994082309,0
1503958515461,+0.969,+0.158,-0.054,+0.183,+0.321,+0.175,-0.930,-1.125,-0.125,+0.500,0, -2, 0, -2, -1, -1, 1, -4,2.792640802690585,0.2945319994082309,0
1503958515477,+0.969,+0.158,-0.054,+0.183,+0.318,+0.169,-0.932,-0.938,-0.500,+0.188,3, 1, 1, -4, 0, -1, -1, 5,2.792640802690585,0.2945319994082309,0
1503958515499,+0.969,+0.158,-0.054,+0.183,+0.311,+0.175,-0.931,-0.750,-0.500,+0.125,0, -2, -4, 1, -1, -1, -1, 2,2.792640802690585,0.2945319994082309,0
1503958515522,+0.969,+0.158,-0.054,+0.183,+0.314,+0.169,-0.930,-1.062,-0.062,+0.062,-2, 1, -2, 1, -1, 0, 1, -2,2.792640802690585,0.2945319994082309,0
1503958515538,+0.969,+0.158,-0.054,+0.183,+0.316,+0.171,-0.927,-1.188,+0.188,+0.062,-7, -2, 1, 2, 0, 0, -1, -4,2.792640802690585,0.2945319994082309,0
1503958515560,+0.969,+0.158,-0.054,+0.183,+0.319,+0.174,-0.938,-1.000,+0.125,+0.312,1, -1, 1, -1, 0, 0, 0, -1,2.792640802690585,0.2945319994082309,0
1503958515581,+0.969,+0.158,-0.054,+0.183,+0.317,+0.169,-0.928,-1.062,-0.188,+0.062,-1, 2, 3, -2, 2, 0, 1, 1,2.792640802690585,0.2945319994082309,0
1503958515598,+0.969,+0.158,-0.054,+0.183,+0.314,+0.171,-0.933,-1.000,-0.188,+0.188,-1, -2, 2, -4, 2, -1, -3, 1,2.792640802690585,0.2945319994082309,0
1503958515620,+0.969,+0.158,-0.054,+0.183,+0.317,+0.173,-0.937,-1.062,-0.188,+0.062,1, -2, -1, -2, 1, -2, -2, -2,2.792640802690585,0.2945319994082309,0
1503958515642,+0.969,+0.158,-0.054,+0.183,+0.315,+0.175,-0.928,-1.000,+0.062,+0.125,1, 0, 3, -6, 0, 0, 0, -3,2.792640802690585,0.2945319994082309,0
1503958515658,+0.969,+0.158,-0.054,+0.183,+0.318,+0.177,-0.933,-0.875,-0.062,+0.250,-2, -2, 2, -1, -3, -1, 0, 2,2.792640802690585,0.2945319994082309,0
1503958515680,+0.969,+0.158,-0.054,+0.183,+0.311,+0.165,-0.933,-1.062,-0.188,+0.250,-1, 1, -3, 0, -2, -2, 1, -3,2.792640802690585,0.2945319994082309,0
1503958515701,+0.969,+0.158,-0.054,+0.183,+0.319,+0.170,-0.934,-1.000,+0.188,+0.250,1, 0, -2, -3, -1, -1, 1, -4,2.792640802690585,0.2945319994082309,0
1503958515718,+0.969,+0.158,-0.054,+0.183,+0.325,+0.173,-0.933,-1.250,+0.250,+0.125,-4, -3, 4, -8, 1, 0, -1, -3,2.792640802690585,0.2945319994082309,0
1503958515740,+0.969,+0.158,-0.054,+0.183,+0.319,+0.169,-0.926,-0.875,-0.125,+0.062,-1, -3, 0, -1, -1, 1, 0, 0,2.792640802690585,0.2945319994082309,0
1503958515761,+0.969,+0.158,-0.054,+0.183,+0.312,+0.168,-0.935,-1.062,-0.750,+0.375,-3, -1, 3, -1, 0, -2, -1, -2,2.792640802690585,0.2945319994082309,0
1503958515778,+0.969,+0.158,-0.054,+0.183,+0.313,+0.167,-0.929,-1.125,-0.188,+0.000,4, -2, 1, -6, -2, -2, 1, -7,2.792640802690585,0.2945319994082309,0
1503958515800,+0.969,+0.158,-0.054,+0.183,+0.314,+0.174,-0.931,-1.125,+0.500,+0.375,2, 0, -4, 1, 0, 0, 1, 2,2.792640802690585,0.2945319994082309,0
1503958515825,+0.969,+0.158,-0.054,+0.183,+0.320,+0.170,-0.937,-1.250,+0.250,+0.062,-4, 2, -5, 5, -3, 0, -1, -2,2.792640802690585,0.2945319994082309,0
1503958515838,+0.969,+0.158,-0.054,+0.183,+0.317,+0.177,-0.930,-1.250,+0.062,-0.125,-2, -4, 6, -10, 1, -1, 0, -1,2.792640802690585,0.2945319994082309,0
1503958515860,+0.969,+0.158,-0.054,+0.183,+0.317,+0.177,-0.931,-1.062,+0.188,+0.188,2, -4, 6, -5, -1, -1, -1, -3,2.792640802690585,0.2945319994082309,0
1503958515881,+0.969,+0.158,-0.054,+0.183,+0.314,+0.166,-0.937,-1.062,+0.312,+0.062,2, -1, 1, -5, -1, -1, -1, -1,2.792640802690585,0.2945319994082309,0
1503958515898,+0.969,+0.158,-0.054,+0.183,+0.322,+0.171,-0.938,-1.188,+0.062,+0.375,-1, 3, -1, 2, 0, 0, 2, 2,2.792640802690585,0.2945319994082309,0
1503958515919,+0.969,+0.158,-0.054,+0.183,+0.315,+0.171,-0.927,-1.312,-0.375,-0.188,-1, 0, -4, 2, 0, -1, 1, -1,2.792640802690585,0.2945319994082309,0
1503958515943,+0.969,+0.158,-0.054,+0.183,+0.311,+0.171,-0.933,-0.938,-0.188,+0.375,2, 0, 3, -6, 1, 1, -1, 0,2.792640802690585,0.2945319994082309,0
1503958515958,+0.969,+0.158,-0.054,+0.183,+0.312,+0.169,-0.932,-1.125,-0.188,+0.188,-1, 0, -2, 4, -2, -1, -1, 0,2.792640802690585,0.2945319994082309,0
1503958515980,+0.969,+0.158,-0.054,+0.183,+0.317,+0.174,-0.936,-1.250,+0.438,+0.062,3, -4, -2, 2, -1, -1, -2, 3,2.792640802690585,0.2945319994082309,0
1503958516003,+0.969,+0.158,-0.054,+0.183,+0.321,+0.171,-0.928,-1.062,+0.188,+0.062,-5, 0, -1, 1, -1, 1, 0, -2,2.792640802690585,0.2945319994082309,0
1503958516018,+0.969,+0.158,-0.054,+0.183,+0.316,+0.172,-0.928,-1.250,-0.562,+0.000,-3, -4, -1, -3, -1, 0, -2, -5,2.792640802690585,0.2945319994082309,0
1503958516040,+0.969,+0.158,-0.054,+0.183,+0.312,+0.168,-0.929,-1.062,-0.062,+0.125,1, -5, 2, -5, 1, -2, -1, 3,2.792640802690585,0.2945319994082309,0
1503958516062,+0.969,+0.158,-0.054,+0.183,+0.313,+0.176,-0.936,-1.312,-0.125,+0.188,0, 2, 2, -4, 0, -1, -3, 0,2.792640802690585,0.2945319994082309,0
1503958516080,+0.969,+0.158,-0.054,+0.183,+0.314,+0.180,-0.931,-1.000,+0.000,+0.188,-5, 0, 1, 0, 0, 1, 1, -3,2.792640802690585,0.2945319994082309,0
1503958516100,+0.969,+0.158,-0.054,+0.183,+0.316,+0.181,-0.932,-0.812,-0.375,+0.438,-1, 1, -1, 0, -1, -1, 0, 2,2.792640802690585,0.2945319994082309,0
1503958516123,+0.969,+0.158,-0.054,+0.183,+0.316,+0.167,-0.927,-0.688,-0.500,-0.062,-1, -2, -2, -2, -2, -2, 0, -2,2.792640802690585,0.2945319994082309,0
1503958516138,+0.969,+0.158,-0.054,+0.183,+0.321,+0.167,-0.935,-0.688,+0.625,+0.000,-2, -2, -4, 2, -3, 0, -2, -1,2.792640802690585,0.2945319994082309,0
1503958516161,+0.969,+0.158,-0.054,+0.183,+0.323,+0.167,-0.932,-0.812,-0.438,+0.125,3, 0, -1, -1, -1, 0, 1, 2,2.792640802690585,0.2945319994082309,0
1503958516182,+0.969,+0.158,-0.054,+0.183,+0.309,+0.170,-0.936,-1.188,-1.062,+0.125,0, -1, 1, -4, 1, 0, -2, -1,2.792640802690585,0.2945319994082309,0
1503958516201,+0.969,+0.158,-0.054,+0.183,+0.303,+0.167,-0.933,-1.312,+0.562,+0.125,1, 0, -4, 5, -1, -1, 0, -2,2.792640802690585,0.2945319994082309,0
1503958516220,+0.969,+0.158,-0.054,+0.183,+0.325,+0.177,-0.934,-1.438,+1.375,+0.250,0, 2, 1, 0, -2, -2, -1, -2,2.792640802690585,0.2945319994082309,0
1503958516242,+0.969,+0.158,-0.054,+0.183,+0.327,+0.175,-0.925,-0.938,+0.438,+0.188,1, 2, 6, -5, 1, -1, 1, 1,2.792640802690585,0.2945319994082309,0
1503958516259,+0.969,+0.158,-0.054,+0.183,+0.317,+0.173,-0.935,-0.750,-1.375,+0.312,-2, 0, -2, 1, -2, -1, -1, -1,2.792640802690585,0.2945319994082309,0
1503958516280,+0.969,+0.158,-0.054,+0.183,+0.305,+0.172,-0.937,-0.875,-0.750,+0.250,-1, -1, 2, -3, -2, 0, 0, 1,2.792640802690585,0.2945319994082309,0
1503958516303,+0.969,+0.159,-0.054,+0.183,+0.320,+0.167,-0.930,-1.188,+1.562,+0.062,1, -2, -1, 1, 0, 0, -1, 0,2.7929629597333854,0.29659809492823425,0
1503958516318,+0.969,+0.159,-0.054,+0.183,+0.322,+0.178,-0.927,-1.312,+0.062,+0.438,-5, -5, 3, -6, -2, -2, -4, -5,2.7929629597333854,0.29659809492823425,0
1503958516340,+0.969,+0.159,-0.054,+0.183,+0.317,+0.172,-0.930,-0.750,-0.625,+0.438,-1, 1, -2, 3, -1, 0, 0, 2,2.7929629597333854,0.29659809492823425,0
1503958516362,+0.969,+0.159,-0.054,+0.183,+0.313,+0.170,-0.926,-1.000,-0.312,+0.562,-5, 1, -5, 1, -2, 0, 1, -5,2.7929629597333854,0.29659809492823425,0
1503958516378,+0.969,+0.159,-0.054,+0.183,+0.319,+0.171,-0.931,-1.000,+0.562,+0.438,-1, 0, -3, -1, -1, -3, 0, -3,2.7929629597333854,0.29659809492823425,0
1503958516400,+0.969,+0.159,-0.054,+0.183,+0.317,+0.162,-0.923,-0.938,+0.188,-0.062,-2, -2, 3, -4, 0, -1, 0, 0,2.7929629597333854,0.29659809492823425,0
1503958516421,+0.969,+0.159,-0.054,+0.183,+0.313,+0.173,-0.924,-1.188,-0.438,+0.062,3, 1, -3, 1, 2, -1, 0, -2,2.7929629597333854,0.29659809492823425,0
1503958516438,+0.969,+0.159,-0.053,+0.183,+0.315,+0.170,-0.924,-1.375,+0.250,+0.188,-3, 1, -6, 6, -2, 0, -3, 1,2.7926604674112667,0.2968893548840787,0
1503958516460,+0.969,+0.159,-0.053,+0.183,+0.320,+0.168,-0.924,-1.438,+0.312,+0.312,-1, -2, 3, -3, -1, -2, -1, 1,2.7926604674112667,0.2968893548840787,0
1503958516482,+0.969,+0.159,-0.053,+0.183,+0.322,+0.166,-0.929,-1.000,+0.000,+0.188,0, -1, -1, 1, -1, 0, 0, 0,2.7926604674112667,0.2968893548840787,0
1503958516498,+0.969,+0.159,-0.053,+0.183,+0.318,+0.166,-0.927,-1.062,-0.500,+0.375,-4, 0, 1, 1, -1, -1, -1, -4,2.7926604674112667,0.2968893548840787,0
1503958516520,+0.969,+0.159,-0.053,+0.183,+0.308,+0.169,-0.928,-1.125,+0.000,+0.188,-1, 1, -4, 3, -1, -1, -1, 2,2.7926604674112667,0.2968893548840787,0
1503958516542,+0.969,+0.159,-0.053,+0.183,+0.321,+0.176,-0.938,-1.250,+0.500,+0.000,4, 3, 0, 1, 2, -1, -1, 1,2.7926604674112667,0.2968893548840787,0
1503958516558,+0.969,+0.159,-0.053,+0.183,+0.318,+0.171,-0.931,-1.438,+0.312,-0.062,3, -1, 2, -4, -1, 0, 0, 1,2.7926604674112667,0.2968893548840787,0
1503958516580,+0.969,+0.159,-0.053,+0.183,+0.317,+0.170,-0.933,-1.312,-0.062,+0.500,-1, -1, -4, -1, 0, 0, -2, -4,2.7926604674112667,0.2968893548840787,0
1503958516603,+0.969,+0.159,-0.053,+0.183,+0.319,+0.170,-0.924,-1.312,-0.188,+0.000,-3, -1, -1, -1, 1, -2, -1, -1,2.7926604674112667,0.2968893548840787,0
1503958516618,+0.969,+0.159,-0.053,+0.183,+0.322,+0.171,-0.930,-1.125,+0.062,+0.125,-4, 2, 1, -1, -1, 0, -1, -1,2.7926604674112667,0.2968893548840787,0
1503958516640,+0.969,+0.159,-0.053,+0.183,+0.321,+0.167,-0.932,-1.062,-0.875,+0.312,1, -2, 4, -5, 0, -1, -1, 0,2.7926604674112667,0.2968893548840787,0
1503958516662,+0.969,+0.159,-0.053,+0.183,+0.311,+0.172,-0.926,-1.125,-0.562,-0.375,-4, -4, 1, -5, -2, -3, -1, 1,2.7926604674112667,0.2968893548840787,0
1503958516678,+0.969,+0.159,-0.053,+0.183,+0.314,+0.169,-0.933,-1.125,-0.312,+0.125,-1, 1, 3, -2, 0, -2, 1, 1,2.7926604674112667,0.2968893548840787,0
1503958516700,+0.969,+0.159,-0.053,+0.183,+0.319,+0.174,-0.922,-1.438,-0.188,+0.000,-3, 2, -2, 1, -2, -1, 1, -2,2.7926604674112667,0.2968893548840787,0
1503958516722,+0.969,+0.159,-0.053,+0.183,+0.319,+0.174,-0.934,-1.125,-0.125,+0.062,1, 0, 1, 1, -1, -1, 0, 1,2.7926604674112667,0.2968893548840787,0
1503958516738,+0.969,+0.159,-0.053,+0.183,+0.318,+0.169,-0.929,-1.188,+0.125,+0.188,0, -1, -3, 1, 0, 0, 0, 0,2.7926604674112667,0.2968893548840787,0
1503958516765,+0.969,+0.159,-0.053,+0.183,+0.317,+0.171,-0.925,-1.000,-0.188,+0.000,1, -3, 3, -5, 0, -2, -2, -2,2.7926604674112667,0.2968893548840787,0
1503958516782,+0.969,+0.159,-0.053,+0.183,+0.325,+0.172,-0.930,-1.062,-0.438,+0.000,2, -2, 6, -7, 0, 1, -1, 7,2.7926604674112667,0.2968893548840787,0
1503958516799,+0.969,+0.159,-0.053,+0.183,+0.317,+0.171,-0.930,-1.062,-0.688,+0.062,-4, -2, -1, 3, -3, -1, -1, -2,2.7926604674112667,0.2968893548840787,0
1503958516820,+0.969,+0.159,-0.053,+0.183,+0.312,+0.171,-0.930,-1.125,-0.375,+0.000,2, -1, -5, -2, 0, 1, 0, 3,2.7926604674112667,0.2968893548840787,0
1503958516842,+0.969,+0.159,-0.053,+0.183,+0.317,+0.175,-0.929,-1.438,-0.125,+0.188,0, -2, 3, -5, -1, -1, -1, -2,2.7926604674112667,0.2968893548840787,0
1503958516858,+0.969,+0.159,-0.053,+0.183,+0.317,+0.173,-0.930,-1.125,-0.062,+0.250,-1, -3, 3, -7, -1, -1, -1, -2,2.7926604674112667,0.2968893548840787,0
1503958516880,+0.969,+0.159,-0.053,+0.183,+0.311,+0.169,-0.939,-1.062,-0.938,+0.438,-4, 1, -3, 6, -2, -1, -1, -6,2.7926604674112667,0.2968893548840787,0
1503958516902,+0.969,+0.159,-0.053,+0.183,+0.315,+0.173,-0.926,-1.312,+0.188,-0.188,0, 1, -2, 0, -1, -1, -2, 0,2.7926604674112667,0.2968893548840787,0
1503958516918,+0.969,+0.159,-0.053,+0.183,+0.321,+0.173,-0.935,-1.125,+0.438,-0.188,3, -3, 4, -6, -1, -1, 0, 7,2.7926604674112667,0.2968893548840787,0
1503958516940,+0.969,+0.159,-0.053,+0.183,+0.320,+0.171,-0.931,-1.438,-1.438,-0.125,2, -3, -1, 1, -2, -3, -2, -2,2.7926604674112667,0.2968893548840787,0
1503958516962,+0.969,+0.159,-0.053,+0.183,+0.305,+0.172,-0.932,-1.375,-0.875,+0.062,-2, 1, -2, 3, -1, -2, -1, 0,2.7926604674112667,0.2968893548840787,0
1503958516978,+0.969,+0.159,-0.053,+0.183,+0.319,+0.175,-0.943,-1.438,+0.438,+0.062,1, 2, -5, 0, -3, 1, 1, -1,2.7926604674112667,0.2968893548840787,0
1503958517001,+0.969,+0.159,-0.053,+0.183,+0.319,+0.177,-0.924,-1.312,-0.062,+0.188,-5, -3, -3, 2, 0, -1, -1, -3,2.7926604674112667,0.2968893548840787,0
1503958517023,+0.969,+0.159,-0.053,+0.183,+0.315,+0.169,-0.930,-0.875,-0.500,+0.062,1, 1, 0, -1, -1, -1, -1, 1,2.7926604674112667,0.2968893548840787,0
1503958517038,+0.969,+0.159,-0.053,+0.183,+0.314,+0.177,-0.936,-1.375,-0.062,+0.000,0, 4, -5, 2, 0, -1, 0, -6,2.7926604674112667,0.2968893548840787,0
1503958517060,+0.969,+0.159,-0.053,+0.183,+0.322,+0.170,-0.926,-1.312,+0.750,-0.125,-2, -1, 2, -3, -2, -1, -1, 4,2.7926604674112667,0.2968893548840787,0
1503958517083,+0.969,+0.159,-0.053,+0.183,+0.320,+0.174,-0.935,-1.125,-0.938,+0.000,2, -2, 5, -7, 3, 1, -1, 0,2.7926604674112667,0.2968893548840787,0
1503958517106,+0.969,+0.159,-0.053,+0.183,+0.307,+0.175,-0.934,-1.188,-1.062,+0.188,-4, 2, -2, 2, -3, -3, 0, -5,2.7926604674112667,0.2968893548840787,0
1503958517120,+0.969,+0.159,-0.053,+0.183,+0.318,+0.168,-0.931,-1.188,+1.250,+0.062,1, -1, 0, -2, -1, 0, -1, 1,2.7926604674112667,0.2968893548840787,0
1503958517143,+0.969,+0.159,-0.053,+0.183,+0.330,+0.175,-0.931,-1.188,+0.750,+0.062,0, -3, -2, -1, 1, 0, 1, -2,2.7926604674112667,0.2968893548840787,0
1503958517158,+0.969,+0.159,-0.053,+0.183,+0.316,+0.167,-0.928,-0.875,-1.062,-0.312,-1, -5, 5, -8, -2, 0, -1, -5,2.7926604674112667,0.2968893548840787,0
1503958517180,+0.969,+0.159,-0.053,+0.183,+0.309,+0.166,-0.933,-0.875,-0.688,+0.062,0, 4, -4, 2, -1, 0, -2, -2,2.7926604674112667,0.2968893548840787,0
1503958517203,+0.969,+0.159,-0.053,+0.183,+0.306,+0.167,-0.933,-1.312,+0.438,+0.062,2, 3, 0, 1, 0, 1, 0, 3,2.7926604674112667,0.2968893548840787,0
1503958517218,+0.969,+0.159,-0.053,+0.183,+0.317,+0.175,-0.929,-1.125,+0.875,+0.188,-1, -3, 0, -3, 1, -1, -1, -1,2.7926604674112667,0.2968893548840787,0
1503958517240,+0.969,+0.159,-0.053,+0.183,+0.320,+0.179,-0.930,-1.062,+0.625,+0.062,-1, 0, -1, 1, -1, -2, -1, 0,2.7926604674112667,0.2968893548840787,0
1503958517265,+0.969,+0.159,-0.053,+0.183,+0.321,+0.169,-0.930,-0.875,+0.250,+0.250,-7, 1, -4, 6, -1, -2, -2, -1,2.7926604674112667,0.2968893548840787,0
1503958517278,+0.969,+0.159,-0.053,+0.183,+0.311,+0.170,-0.932,-0.812,+0.000,+0.062,1, -1, 0, -3, -1, 1, 1, 3,2.7926604674112667,0.2968893548840787,0
1503958517300,+0.969,+0.159,-0.053,+0.183,+0.320,+0.172,-0.929,-1.375,+0.250,+0.125,5, 0, 2, -4, 0, 0, -1, 2,2.7926604674112667,0.2968893548840787,0
1503958517322,+0.969,+0.159,-0.053,+0.183,+0.317,+0.172,-0.929,-1.250,+0.125,-0.062,-2, 0, 5, -4, -2, -1, 0, -1,2.7926604674112667,0.2968893548840787,0
1503958517338,+0.969,+0.159,-0.053,+0.183,+0.315,+0.170,-0.936,-1.250,-0.125,+0.500,2, -3, -3, 0, -2, -3, 1, 0,2.7926604674112667,0.2968893548840787,0
1503958517360,+0.969,+0.159,-0.053,+0.183,+0.313,+0.174,-0.927,-1.438,+0.062,-0.062,-2, -2, -1, 0, -3, -3, -2, -1,2.7926604674112667,0.2968893548840787,0
1503958517383,+0.969,+0.159,-0.053,+0.183,+0.319,+0.174,-0.930,-1.125,+0.938,+0.125,-1, 0, 2, -4, 0, -1, -2, 1,2.7926604674112667,0.2968893548840787,0
1503958517399,+0.969,+0.159,-0.053,+0.183,+0.321,+0.175,-0.930,-1.250,-0.250,+0.125,1, -1, 3, -4, 0, 0, -2, 0,2.7926604674112667,0.2968893548840787,0
1503958517420,+0.969,+0.159,-0.053,+0.183,+0.317,+0.170,-0.928,-0.875,-0.812,-0.125,-3, -4, -6, 0, -2, -2, 0, -2,2.7926604674112667,0.2968893548840787,0
1503958517443,+0.969,+0.159,-0.053,+0.183,+0.315,+0.168,-0.940,-1.000,-0.375,+0.375,-3, 4, -4, 4, -1, 0, 1, -6,2.7926604674112667,0.2968893548840787,0
1503958517458,+0.969,+0.159,-0.053,+0.183,+0.313,+0.171,-0.926,-1.500,+0.000,+0.312,0, -1, 1, -2, -1, -2, -1, 1,2.7926604674112667,0.2968893548840787,0
1503958517480,+0.969,+0.159,-0.053,+0.183,+0.314,+0.171,-0.926,-1.250,+0.625,+0.188,1, -2, -1, -2, -2, -2, -1, -4,2.7926604674112667,0.2968893548840787,0
1503958517504,+0.969,+0.159,-0.053,+0.183,+0.321,+0.182,-0.931,-1.438,+0.062,+0.375,-1, -1, 0, -1, 0, -1, 1, -1,2.7926604674112667,0.2968893548840787,0
1503958517517,+0.969,+0.159,-0.053,+0.183,+0.320,+0.175,-0.929,-1.062,-0.312,+0.375,-9, 2, -6, 10, 1, -2, -2, -6,2.7926604674112667,0.2968893548840787,0
1503958517540,+0.969,+0.159,-0.053,+0.183,+0.321,+0.164,-0.931,-0.812,+0.250,+0.062,-1, 2, 0, -4, -1, 1, 1, -1,2.7926604674112667,0.2968893548840787,0
1503958517563,+0.969,+0.159,-0.053,+0.183,+0.319,+0.170,-0.932,-1.000,-0.500,+0.125,4, -2, 5, -3, 2, 0, -1, 4,2.7926604674112667,0.2968893548840787,0
1503958517578,+0.969,+0.159,-0.053,+0.183,+0.312,+0.170,-0.932,-1.188,-0.625,+0.250,-4, -1, -1, 2, 0, 0, 0, -2,2.7926604674112667,0.2968893548840787,0
1503958517601,+0.969,+0.159,-0.053,+0.183,+0.308,+0.174,-0.931,-1.375,+0.125,+0.125,0, -3, -4, 2, -3, -1, 0, -1,2.7926604674112667,0.2968893548840787,0
1503958517623,+0.969,+0.159,-0.053,+0.183,+0.314,+0.171,-0.922,-1.375,+0.250,+0.312,3, -1, 3, -4, -2, -1, -1, 3,2.7926604674112667,0.2968893548840787,0
1503958517638,+0.969,+0.159,-0.053,+0.183,+0.324,+0.177,-0.932,-1.125,+0.375,+0.062,2, -2, 0, -2, -2, 0, 0, 3,2.7926604674112667,0.2968893548840787,0
1503958517660,+0.969,+0.159,-0.053,+0.183,+0.321,+0.175,-0.928,-1.125,-0.188,+0.062,-2, -2, 2, -3, 0, -1, -1, 1,2.7926604674112667,0.2968893548840787,0
1503958517682,+0.969,+0.159,-0.053,+0.183,+0.316,+0.171,-0.933,-0.688,-0.312,+0.125,-2, 3, -7, 2, -1, -2, -1, -5,2.7926604674112667,0.2968893548840787,0
1503958517697,+0.969,+0.159,-0.053,+0.183,+0.312,+0.171,-0.938,-0.875,-0.562,+0.375,1, -3, -2, 0, -2, 0, -1, 1,2.7926604674112667,0.2968893548840787,0
1503958517719,+0.969,+0.159,-0.053,+0.183,+0.309,+0.174,-0.930,-0.938,+0.062,+0.250,3, 4, -1, 0, -2, 1, -1, 2,2.7926604674112667,0.2968893548840787,0
1503958517742,+0.969,+0.159,-0.053,+0.183,+0.315,+0.172,-0.932,-1.000,+1.000,+0.375,0, -1, -1, 0, -1, -1, -1, 1,2.7926604674112667,0.2968893548840787,0
1503958517757,+0.969,+0.159,-0.053,+0.183,+0.323,+0.176,-0.933,-1.062,+0.000,+0.375,-1, -5, 8, -10, -1, 0, -2, 0,2.7926604674112667,0.2968893548840787,0
1503958517779,+0.969,+0.159,-0.053,+0.183,+0.322,+0.175,-0.932,-0.938,+0.062,+0.188,-2, -1, 0, -1, -1, 0, 0, -2,2.7926604674112667,0.2968893548840787,0
1503958517804,+0.969,+0.159,-0.053,+0.183,+0.322,+0.170,-0.933,-0.625,+0.000,+0.312,1, -2, -3, 2, -1, -2, 1, -7,2.7926604674112667,0.2968893548840787,0
1503958517817,+0.969,+0.159,-0.053,+0.183,+0.312,+0.172,-0.927,-0.875,-0.625,+0.188,-1, -1, -2, -2, -2, -2, -2, 0,2.7926604674112667,0.2968893548840787,0
1503958517840,+0.969,+0.159,-0.053,+0.183,+0.316,+0.169,-0.936,-0.750,+0.250,+0.188,-1, 1, 1, 0, -1, -2, -3, -3,2.7926604674112667,0.2968893548840787,0
1503958517862,+0.969,+0.159,-0.053,+0.183,+0.319,+0.169,-0.931,-1.000,+0.125,+0.312,-1, 4, -4, 2, 1, 0, 0, 3,2.7926604674112667,0.2968893548840787,0
1503958517878,+0.969,+0.159,-0.053,+0.183,+0.317,+0.170,-0.932,-1.125,-0.188,+0.188,2, -2, -1, -2, -1, -1, 2, 1,2.7926604674112667,0.2968893548840787,0
1503958517899,+0.969,+0.159,-0.053,+0.183,+0.315,+0.169,-0.932,-1.062,+0.125,+0.438,0, -4, 6, -8, -1, -2, -2, -1,2.7926604674112667,0.2968893548840787,0
1503958517922,+0.969,+0.159,-0.053,+0.183,+0.315,+0.175,-0.927,-1.000,+0.188,+0.438,-5, 1, -7, 8, -1, -1, -2, -4,2.7926604674112667,0.2968893548840787,0
1503958517944,+0.969,+0.159,-0.053,+0.183,+0.324,+0.171,-0.926,-0.812,+1.438,-0.188,-3, -2, -3, 0, -3, -1, 0, -1,2.7926604674112667,0.2968893548840787,0
1503958517959,+0.969,+0.159,-0.053,+0.183,+0.318,+0.176,-0.942,-0.875,-1.188,+0.250,0, -2, 7, -9, 0, 0, 0, 2,2.7926604674112667,0.2968893548840787,0
1503958517982,+0.969,+0.159,-0.053,+0.183,+0.300,+0.166,-0.931,-0.938,-0.188,+0.250,-1, -1, -4, 3, 2, -2, 1, 2,2.7926604674112667,0.2968893548840787,0
1503958518004,+0.969,+0.159,-0.053,+0.183,+0.317,+0.171,-0.924,-1.500,+1.750,+0.375,1, 0, 0, -1, 0, -1, -1, -5,2.7926604674112667,0.2968893548840787,0
1503958518019,+0.969,+0.160,-0.053,+0.183,+0.333,+0.178,-0.932,-1.125,+1.375,-0.062,-2, 5, -2, 2, -2, 0, -1, -1,2.792981876527138,0.298956169115375,0
1503958518042,+0.969,+0.160,-0.053,+0.183,+0.324,+0.172,-0.927,-0.625,-1.188,+0.562,-5, -2, -2, 1, 1, 0, -2, -5,2.792981876527138,0.298956169115375,0
1503958518064,+0.969,+0.160,-0.053,+0.183,+0.309,+0.166,-0.931,-0.812,-0.875,+0.312,4, -12, 8, -10, 2, -1, -1, 2,2.792981876527138,0.298956169115375,0
1503958518079,+0.969,+0.160,-0.053,+0.183,+0.315,+0.172,-0.930,-1.312,+0.812,+0.125,0, 3, -1, 0, 3, 1, -1, 3,2.792981876527138,0.298956169115375,0
1503958518102,+0.969,+0.160,-0.053,+0.183,+0.328,+0.180,-0.936,-1.125,+0.562,+0.312,-3, -4, 3, 0, -4, 1, -2, -4,2.792981876527138,0.298956169115375,0
1503958518124,+0.969,+0.160,-0.053,+0.183,+0.315,+0.169,-0.923,-0.812,-0.750,+0.062,1, 0, 0, -2, -1, -3, -4, -3,2.792981876527138,0.298956169115375,0
1503958518139,+0.969,+0.160,-0.053,+0.183,+0.308,+0.170,-0.932,-1.000,-0.188,+0.188,2, 4, 2, -7, 1, -2, 1, 4,2.792981876527138,0.298956169115375,0
1503958518161,+0.969,+0.160,-0.052,+0.183,+0.323,+0.171,-0.932,-1.312,+1.062,+0.062,-4, 2, -5, 2, -1, 0, -1, -1,2.7926776867591596,0.2992477983158915,0
1503958518184,+0.969,+0.160,-0.052,+0.183,+0.324,+0.172,-0.930,-1.062,+0.000,+0.625,1, -5, -3, 1, 0, -1, 0, 1,2.7926776867591596,0.2992477983158915,0
1503958518199,+0.969,+0.160,-0.052,+0.183,+0.323,+0.171,-0.927,-0.812,-0.688,+0.188,0, -3, 2, -8, -3, -1, -1, -4,2.7926776867591596,0.2992477983158915,0
1503958518221,+0.969,+0.160,-0.052,+0.183,+0.314,+0.175,-0.938,-1.062,-0.500,+0.250,0, 4, 9, -6, 2, 1, -1, 4,2.7926776867591596,0.2992477983158915,0
1503958518244,+0.969,+0.160,-0.052,+0.183,+0.317,+0.161,-0.926,-0.938,+0.188,+0.000,-2, 1, 0, -2, 0, -2, -1, 2,2.7926776867591596,0.2992477983158915,0
1503958518259,+0.969,+0.160,-0.052,+0.183,+0.319,+0.170,-0.934,-1.062,-0.375,+0.250,-2, -4, 2, -2, -1, -1, -2, -2,2.7926776867591596,0.2992477983158915,0
1503958518281,+0.969,+0.160,-0.052,+0.183,+0.322,+0.173,-0.932,-1.312,+0.000,+0.062,-2, 6, -5, 3, -1, -2, -2, -6,2.7926776867591596,0.2992477983158915,0
1503958518306,+0.969,+0.160,-0.052,+0.183,+0.323,+0.173,-0.923,-1.000,-0.312,+0.438,-1, -3, -3, 5, -3, -2, 1, 3,2.7926776867591596,0.2992477983158915,0
1503958518319,+0.969,+0.160,-0.052,+0.183,+0.320,+0.171,-0.935,-1.125,-0.562,+0.188,0, -2, -3, 3, 2, -1, 0, 0,2.7926776867591596,0.2992477983158915,0
1503958518342,+0.969,+0.160,-0.052,+0.183,+0.316,+0.170,-0.929,-1.312,-0.250,+0.000,-4, -5, -1, -3, -3, -1, -2, -1,2.7926776867591596,0.2992477983158915,0
1503958518364,+0.969,+0.160,-0.052,+0.183,+0.318,+0.168,-0.929,-1.000,-0.125,+0.188,0, 5, 0, 4, 1, 0, 1, 1,2.7926776867591596,0.2992477983158915,0
1503958518387,+0.969,+0.160,-0.052,+0.183,+0.320,+0.172,-0.930,-1.500,-0.500,+0.062,-2, -3, 1, -5, -1, -1, 0, -3,2.7926776867591596,0.2992477983158915,0
1503958518401,+0.969,+0.160,-0.052,+0.183,+0.322,+0.170,-0.925,-0.938,+0.062,+0.000,5, 1, 2, -3, 0, -1, -1, 3,2.7926776867591596,0.2992477983158915,0
1503958518424,+0.969,+0.160,-0.052,+0.183,+0.320,+0.174,-0.930,-1.062,+0.125,+0.438,2, 6, -1, 1, -2, -2, -1, -1,2.7926776867591596,0.2992477983158915,0
1503958518440,+0.969,+0.160,-0.052,+0.183,+0.321,+0.171,-0.925,-1.125,-0.312,-0.062,-5, -7, -2, -1, 1, -1, 0, -3,2.7926776867591596,0.2992477983158915,0
1503958518461,+0.969,+0.160,-0.052,+0.183,+0.318,+0.170,-0.934,-1.062,-0.062,+0.312,0, -3, 0, -3, -2, 0, -3, 4,2.7926776867591596,0.2992477983158915,0
1503958518477,+0.969,+0.160,-0.052,+0.183,+0.316,+0.171,-0.933,-1.188,-0.375,+0.375,-1, -2, 2, -5, 1, 1, 1, 1,2.7926776867591596,0.2992477983158915,0
1503958518499,+0.969,+0.160,-0.052,+0.183,+0.317,+0.171,-0.921,-1.062,-0.312,+0.062,-3, 3, -1, -3, -1, -1, -1, -6,2.7926776867591596,0.2992477983158915,0
1503958518521,+0.969,+0.160,-0.052,+0.183,+0.319,+0.178,-0.938,-0.938,-0.062,+0.375,-2, 4, -7, 7, 0, -2, -2, -3,2.7926776867591596,0.2992477983158915,0
1503958518537,+0.969,+0.160,-0.052,+0.183,+0.315,+0.167,-0.934,-0.875,-0.625,+0.188,-3, -1, 3, -6, 0, -1, -3, 0,2.7926776867591596,0.2992477983158915,0
1503958518559,+0.969,+0.160,-0.052,+0.183,+0.317,+0.167,-0.924,-1.000,+0.062,+0.062,3, -3, 1, -1, -1, 0, -1, 0,2.7926776867591596,0.2992477983158915,0
1503958518582,+0.969,+0.160,-0.052,+0.183,+0.324,+0.176,-0.928,-1.062,+0.375,+0.000,-3, -4, 0, 1, -2, 0, 0, -2,2.7926776867591596,0.2992477983158915,0
1503958518597,+0.969,+0.160,-0.052,+0.183,+0.319,+0.171,-0.935,-1.000,-0.938,+0.375,-1, -5, 2, -7, -1, -2, -1, -2,2.7926776867591596,0.2992477983158915,0
1503958518619,+0.969,+0.160,-0.052,+0.183,+0.316,+0.165,-0.926,-0.875,-0.312,+0.000,-6, -1, 2, 0, -3, -1, 0, -3,2.7926776867591596,0.2992477983158915,0
1503958518646,+0.969,+0.160,-0.052,+0.183,+0.317,+0.173,-0.931,-1.188,+0.250,+0.250,2, 1, 3, -4, -3, 1, 1, -4,2.7926776867591596,0.2992477983158915,0
1503958518657,+0.969,+0.160,-0.052,+0.183,+0.313,+0.172,-0.928,-1.000,+0.500,+0.188,4, 2, 5, -11, 0, -1, -2, 2,2.7926776867591596,0.2992477983158915,0
1503958518679,+0.969,+0.160,-0.052,+0.183,+0.316,+0.174,-0.930,-1.062,-0.312,+0.250,-2, 3, -8, 8, -2, -2, 1, -1,2.7926776867591596,0.2992477983158915,0
1503958518701,+0.969,+0.160,-0.052,+0.183,+0.311,+0.170,-0.928,-1.125,-0.312,+0.062,1, 5, 2, -5, 1, 1, -2, 7,2.7926776867591596,0.2992477983158915,0
1503958518717,+0.969,+0.160,-0.052,+0.183,+0.308,+0.170,-0.937,-1.188,+0.688,+0.125,2, -3, -1, -2, -1, 1, -1, -1,2.7926776867591596,0.2992477983158915,0
1503958518739,+0.969,+0.160,-0.052,+0.183,+0.330,+0.169,-0.925,-1.000,+1.562,+0.312,2, -1, -1, 0, 0, -1, 0, 2,2.7926776867591596,0.2992477983158915,0
1503958518761,+0.969,+0.160,-0.052,+0.183,+0.335,+0.174,-0.928,-0.750,+0.000,+0.250,-1, -2, -5, 2, -4, 0, -2, -2,2.7926776867591596,0.2992477983158915,0
1503958518784,+0.969,+0.160,-0.052,+0.183,+0.318,+0.169,-0.935,-0.688,-2.000,+0.250,-3, -2, 0, -1, 2, -2, 0, -1,2.7926776867591596,0.2992477983158915,0
1503958518799,+0.969,+0.160,-0.052,+0.183,+0.309,+0.160,-0.923,-0.812,-0.375,+0.062,-1, -3, 4, -1, -1, 0, -2, -1,2.7926776867591596,0.2992477983158915,0
1503958518821,+0.969,+0.160,-0.052,+0.183,+0.316,+0.173,-0.936,-1.500,+0.562,+0.250,0, -1, 0, 2, 0, 1, 0, 2,2.7926776867591596,0.2992477983158915,0
1503958518844,+0.969,+0.160,-0.052,+0.183,+0.319,+0.177,-0.928,-0.938,-0.438,+0.125,-6, 1, -7, 5, -2, -1, 1, -7,2.7926776867591596,0.2992477983158915,0
1503958518859,+0.969,+0.160,-0.052,+0.183,+0.312,+0.170,-0.923,-0.812,-0.438,+0.312,-1, 2, 0, 2, -2, -2, 0, -1,2.7926776867591596,0.2992477983158915,0
1503958518881,+0.969,+0.160,-0.052,+0.183,+0.317,+0.171,-0.937,-0.688,+0.562,+0.000,-2, 6, 0, -1, -1, -2, 0, 0,2.7926776867591596,0.2992477983158915,0
1503958518904,+0.969,+0.160,-0.052,+0.183,+0.329,+0.170,-0.921,-0.812,+0.375,-0.188,-3, -7, 3, -9, -1, -4, -1, -3,2.7926776867591596,0.2992477983158915,0
1503958518919,+0.969,+0.160,-0.052,+0.183,+0.321,+0.169,-0.932,-0.938,-0.062,+0.125,-3, -3, -4, 4, 1, -1, -1, -3,2.7926776867591596,0.2992477983158915,0
1503958518946,+0.969,+0.160,-0.052,+0.183,+0.318,+0.175,-0.933,-1.062,-0.625,+0.250,-3, -1, 0, 1, -4, 0, -2, 2,2.7926776867591596,0.2992477983158915,0
1503958518964,+0.969,+0.160,-0.052,+0.183,+0.318,+0.175,-0.929,-1.188,+0.000,+0.250,0, 1, -6, 3, -1, 1, 0, 1,2.7926776867591596,0.2992477983158915,0
1503958518987,+0.969,+0.160,-0.052,+0.183,+0.326,+0.170,-0.936,-0.938,+0.188,+0.312,0, 1, 2, 2, 1, 1, -1, 1,2.7926776867591596,0.2992477983158915,0
1503958519001,+0.969,+0.160,-0.052,+0.183,+0.318,+0.171,-0.931,-0.562,-0.938,+0.250,-3, -1, -1, 2, 1, -2, -2, -1,2.7926776867591596,0.2992477983158915,0
1503958519024,+0.969,+0.160,-0.052,+0.183,+0.319,+0.170,-0.933,-0.562,-0.125,+0.500,-2, 5, -5, 3, 0, 1, 0, 0,2.7926776867591596,0.2992477983158915,0
1503958519039,+0.969,+0.160,-0.052,+0.183,+0.318,+0.163,-0.934,-0.812,+0.188,-0.250,-2, -3, 2, -6, 1, -1, -1, -2,2.7926776867591596,0.2992477983158915,0
1503958519061,+0.969,+0.160,-0.052,+0.183,+0.317,+0.175,-0.928,-1.125,+0.125,+0.125,2, 1, 0, -2, -3, -2, -1, -3,2.7926776867591596,0.2992477983158915,0
1503958519084,+0.969,+0.160,-0.052,+0.183,+0.322,+0.167,-0.931,-1.000,-1.312,+0.500,-2, -6, 2, -7, -2, -2, -1, -3,2.7926776867591596,0.2992477983158915,0
1503958519100,+0.969,+0.160,-0.052,+0.183,+0.315,+0.167,-0.927,-1.188,-0.562,+0.250,3, -2, 4, -4, -1, 1, -2, 4,2.7926776867591596,0.2992477983158915,0
1503958519121,+0.969,+0.160,-0.052,+0.183,+0.315,+0.172,-0.933,-1.188,+0.312,+0.188,0, 0, -1, -4, -2, 0, 0, 0,2.7926776867591596,0.2992477983158915,0
1503958519145,+0.969,+0.160,-0.052,+0.183,+0.323,+0.171,-0.930,-1.250,-0.062,-0.188,-1, -1, 0, 2, -1, -2, 2, -3,2.7926776867591596,0.2992477983158915,0
1503958519159,+0.969,+0.160,-0.052,+0.183,+0.316,+0.170,-0.930,-1.062,-0.500,+0.188,1, -3, 1, -2, 0, 2, -3, 2,2.7926776867591596,0.2992477983158915,0
1503958519183,+0.969,+0.160,-0.052,+0.183,+0.315,+0.171,-0.939,-1.000,-0.125,+0.562,-2, 1, -1, 0, 0, -2, -1, -1,2.7926776867591596,0.2992477983158915,0
1503958519204,+0.969,+0.160,-0.052,+0.183,+0.325,+0.169,-0.920,-1.125,+0.438,-0.062,-4, -2, -2, 0, 0, -2, -1, -4,2.7926776867591596,0.2992477983158915,0
1503958519219,+0.969,+0.160,-0.052,+0.183,+0.321,+0.172,-0.933,-1.188,-0.312,-0.062,4, -1, 1, -5, 0, -2, 1, 2,2.7926776867591596,0.2992477983158915,0
1503958519242,+0.969,+0.160,-0.052,+0.183,+0.316,+0.177,-0.933,-1.188,-1.062,+0.250,0, 1, -4, 0, -3, -2, -3, -8,2.7926776867591596,0.2992477983158915,0
1503958519264,+0.969,+0.160,-0.052,+0.183,+0.312,+0.163,-0.931,-1.250,-0.312,+0.438,0, -3, -3, 0, -2, -1, -1, 0,2.7926776867591596,0.2992477983158915,0
1503958519280,+0.969,+0.160,-0.052,+0.183,+0.316,+0.171,-0.925,-1.250,+0.438,+0.125,-3, -4, 0, -4, 1, 0, -1, -3,2.7926776867591596,0.2992477983158915,0
1503958519302,+0.969,+0.160,-0.052,+0.183,+0.318,+0.171,-0.932,-1.000,+0.188,+0.250,1, -1, 2, 1, -3, 0, -1, 1,2.7926776867591596,0.2992477983158915,0
1503958519324,+0.969,+0.160,-0.052,+0.183,+0.320,+0.165,-0.931,-0.812,-0.625,+0.125,-1, 3, -1, 0, 2, -1, 1, 1,2.7926776867591596,0.2992477983158915,0
1503958519339,+0.969,+0.160,-0.052,+0.183,+0.310,+0.167,-0.934,-1.062,-0.125,+0.312,0, 2, 1, 0, -2, -1, -1, 1,2.7926776867591596,0.2992477983158915,0
1503958519362,+0.969,+0.160,-0.052,+0.183,+0.319,+0.170,-0.930,-1.562,+0.062,+0.250,-6, -2, 1, -2, -1, -1, 2, -1,2.7926776867591596,0.2992477983158915,0
1503958519384,+0.969,+0.160,-0.052,+0.183,+0.320,+0.173,-0.922,-1.562,+0.188,+0.250,-1, -1, 3, -3, -2, 0, -1, 2,2.7926776867591596,0.2992477983158915,0
1503958519399,+0.969,+0.160,-0.052,+0.183,+0.315,+0.161,-0.921,-2.438,+0.562,+0.375,-4, -2, -3, 3, 0, 0, -2, -2,2.7926776867591596,0.2992477983158915,0
1503958519422,+0.968,+0.161,-0.052,+0.183,+0.286,+0.163,-0.924,-5.062,+10.312,-0.562,1, 2, -4, 1, -1, -1, -1, 0,2.792004656015334,0.3010038409161853,0
1503958519444,+0.968,+0.164,-0.053,+0.183,+0.318,+0.186,-0.941,-5.500,+13.625,+0.562,3, 4, -2, 0, -1, -2, 0, 2,2.7932904112232064,0.3069202830516365,0
1503958519459,+0.968,+0.166,-0.053,+0.182,+0.343,+0.165,-0.919,-5.125,+11.625,+0.938,-2, -4, 1, -2, 0, -1, -2, -3,2.7957909009129955,0.3111678976140813,0
1503958519483,+0.967,+0.167,-0.053,+0.182,+0.354,+0.169,-0.918,-5.250,+6.750,+0.750,-1, -5, 3, 7, 3, 2, 1, -1,2.795136909879169,0.31292051697402784,0
1503958519504,+0.967,+0.169,-0.054,+0.182,+0.319,+0.174,-0.917,-7.625,+12.312,+0.000,2, -1, 6, -21, 2, -1, -1, -1,2.7961249057852453,0.3167876791182381,0
1503958519519,+0.966,+0.173,-0.055,+0.182,+0.317,+0.195,-0.944,-9.125,+19.438,+0.125,-21, -7, -8, -8, -5, -1, -5, -8,2.7968279677307977,0.3244959420004058,0
1503958519541,+0.966,+0.175,-0.056,+0.182,+0.366,+0.207,-0.916,-7.750,+11.500,+2.688,1, 2, 2, 15, 2, -2, 1, -2,2.7978500181798753,0.32838577153200843,0
1503958519564,+0.966,+0.176,-0.056,+0.181,+0.372,+0.178,-0.898,-5.125,+4.250,+3.000,-2, 1, 1, 1, 7, 0, 1, 0,2.800043558189995,0.3305796100542345,0
1503958519581,+0.966,+0.177,-0.056,+0.181,+0.375,+0.173,-0.915,-3.125,-0.312,+1.688,4, -2, -2, -14, -22, -2, -3, -2,2.800390488413466,0.3326673180998485,0
1503958519601,+0.966,+0.176,-0.056,+0.181,+0.345,+0.197,-0.930,-1.625,-4.000,+1.688,5, 8, -2, -14, 3, 1, -3, 4,2.800043558189995,0.3305796100542345,0
1503958519624,+0.966,+0.176,-0.057,+0.180,+0.319,+0.203,-0.923,-0.375,+0.938,+3.188,9, 0, 0, 6, -3, -2, 0, 2,2.802229716059933,0.3304159110965732,0
1503958519650,+0.966,+0.176,-0.056,+0.179,+0.383,+0.174,-0.911,-1.125,-0.688,+4.375,-4, -5, 3, -9, -4, 0, -1, -3,2.8037440102982063,0.3307946667578039,0
1503958519669,+0.966,+0.176,-0.056,+0.179,+0.369,+0.167,-0.906,-2.750,-3.688,+4.562,-6, 1, -2, 10, 12, 0, 3, -2,2.8037440102982063,0.3307946667578039,0
1503958519685,+0.967,+0.175,-0.057,+0.178,+0.350,+0.193,-0.926,-2.125,-8.875,+4.750,2, 0, -2, 14, 9, 1, 2, 2,2.806542624853389,0.3288844987097467,0
1503958519699,+0.967,+0.173,-0.057,+0.177,+0.334,+0.200,-0.914,+0.438,-8.062,+4.875,-9, -2, -2, 8, -1, -3, -3, -6,2.8077143321158053,0.32482180254335463,0
1503958519721,+0.967,+0.172,-0.057,+0.176,+0.354,+0.203,-0.908,-0.250,-5.812,+2.750,1, 5, -3, -5, -3, -3, -2, 3,2.809233306690694,0.3228476188425457,0
1503958519744,+0.968,+0.171,-0.056,+0.176,+0.328,+0.204,-0.919,+5.125,-8.750,+4.500,-9, -2, 3, 2, 11, -3, -2, -4,2.8095121676528416,0.32136108760089593,0
1503958519759,+0.968,+0.170,-0.055,+0.176,+0.322,+0.145,-0.923,+5.250,-5.562,+1.938,0, -4, 1, -7, -2, -2, 1, -7,2.8088532485562325,0.31954737087651497,0
1503958519785,+0.968,+0.169,-0.055,+0.176,+0.331,+0.146,-0.940,-1.000,-4.625,-0.562,-2, 1, -1, -11, -13, 1, 0, 4,2.8085229761004653,0.31746748860278645,0
1503958519804,+0.969,+0.167,-0.055,+0.176,+0.289,+0.186,-0.937,-0.500,-4.750,-0.188,-5, -16, -13, 12, 1, 2, 0, 2,2.808813094620551,0.31363415453018073,0
1503958519822,+0.969,+0.167,-0.055,+0.176,+0.296,+0.172,-0.933,+0.188,+0.125,-2.188,23, 13, 12, -16, -2, 2, -1, 6,2.808813094620551,0.31363415453018073,0
1503958519842,+0.968,+0.168,-0.054,+0.177,+0.335,+0.143,-0.924,-1.500,+7.688,-3.312,-2, 0, 9, -9, -19, -9, -2, -6,2.8060150668504464,0.3155556381142303,0
1503958519864,+0.968,+0.169,-0.055,+0.177,+0.382,+0.136,-0.923,-5.812,+2.812,-4.188,-6, 0, 0, 7, 1, 1, -1, 5,2.8066673080781035,0.3173615091471729,0
1503958519879,+0.968,+0.169,-0.056,+0.178,+0.336,+0.192,-0.925,-6.312,-3.250,-4.312,0, -12, 33, 8, 22, -1, -3, -7,2.8051374182241533,0.3169826452857158,0
1503958519901,+0.968,+0.169,-0.057,+0.179,+0.319,+0.201,-0.912,-3.062,-1.312,-3.562,2, 26, -19, -7, -6, 4, 0, -5,2.803609163859025,0.31660091369379606,0
1503958519924,+0.968,+0.169,-0.057,+0.179,+0.342,+0.177,-0.927,-2.438,+0.062,-2.312,-3, 6, -3, 2, -2, 5, 0, 3,2.803609163859025,0.31660091369379606,0
1503958519940,+0.968,+0.168,-0.057,+0.179,+0.355,+0.181,-0.939,-2.938,-3.000,-2.750,4, -7, -1, -3, 8, 0, 0, 3,2.8032735646833142,0.31452090786782433,0
1503958519962,+0.968,+0.167,-0.058,+0.180,+0.337,+0.197,-0.912,-1.312,-6.125,-2.500,2, -8, -12, -4, -4, -5, -1, 4,2.801406985900745,0.3120562084249935,0
1503958519984,+0.968,+0.167,-0.058,+0.180,+0.314,+0.190,-0.906,+0.625,-1.500,-1.750,2, -7, -17, -6, 3, 2, 1, -2,2.801406985900745,0.3120562084249935,0
1503958520000,+0.968,+0.167,-0.057,+0.180,+0.343,+0.188,-0.933,+1.062,-0.938,-0.125,-1, -1, 1, 7, 19, -8, 1, -5,2.8010878056458957,0.3123322388362989,0
1503958520022,+0.968,+0.166,-0.057,+0.181,+0.332,+0.188,-0.926,+2.688,-5.312,-2.062,-4, 0, 11, 4, -14, -9, 1, 2,2.7989036443224835,0.3101448427103999,0
1503958520044,+0.968,+0.165,-0.056,+0.181,+0.303,+0.192,-0.919,+3.375,-2.438,+0.562,-15, 0, 16, -5, -9, 7, -1, -4,2.7982539502667696,0.3083493762077239,0
1503958520060,+0.968,+0.165,-0.055,+0.181,+0.326,+0.177,-0.919,+5.188,-1.750,-0.625,5, 11, -8, 0, -19, -7, -1, 4,2.797938849010843,0.3086308433172067,0
1503958520085,+0.968,+0.165,-0.054,+0.181,+0.317,+0.175,-0.928,+5.250,-0.125,+0.125,8, -12, 14, -8, 0, -1, 0, 1,2.7976238188005276,0.3089133598117614,0
1503958520121,+0.968,+0.165,-0.053,+0.181,+0.334,+0.176,-0.915,+5.438,+1.062,+0.000,-7, -15, 4, -13, -15, -14, -3, -8,2.797308859674305,0.3091969279060135,0
1503958520124,+0.968,+0.164,-0.052,+0.182,+0.325,+0.194,-0.919,+6.812,-2.375,-0.812,7, 7, -14, 11, -19, -1, -1, -1,2.794822439893771,0.30730992205158686,0
1503958520148,+0.968,+0.163,-0.051,+0.182,+0.307,+0.193,-0.941,+10.000,-2.500,+0.500,-10, -4, -5, 1, -13, 6, -3, -8,2.7941869297211066,0.3055289602388303,0
1503958520164,+0.968,+0.163,-0.049,+0.182,+0.342,+0.138,-0.930,+9.375,+1.062,+1.125,-5, 3, 1, 3, -13, 1, -3, -2,2.793565376913139,0.3061099040190117,0
1503958520180,+0.969,+0.163,-0.047,+0.182,+0.342,+0.137,-0.925,+6.688,-0.938,+0.438,-6, -5, -10, -9, -11, -8, 0, -5,2.7939350769662834,0.3070093764394176,0
1503958520202,+0.969,+0.162,-0.046,+0.182,+0.330,+0.176,-0.929,+7.375,-3.062,-0.375,1, -4, -3, -4, -12, 0, -3, -6,2.7933143238161082,0.3052368202418376,0
1503958520224,+0.969,+0.161,-0.045,+0.183,+0.307,+0.188,-0.944,+8.812,-2.938,+0.000,11, -11, 16, -9, 8, 0, -2, 1,2.790858597451825,0.30338102510918613,0
1503958520240,+0.969,+0.162,-0.042,+0.183,+0.330,+0.152,-0.919,+12.438,+3.812,+1.750,1, -9, 2, 1, 10, 6, 2, 6,2.790246710621073,0.3063448270059897,0
1503958520262,+0.969,+0.162,-0.040,+0.183,+0.365,+0.134,-0.949,+12.250,+0.312,+1.812,-8, 4, -1, -8, -14, -23, -5, -9,2.7896328763982448,0.30694950573241325,0
1503958520285,+0.969,+0.162,-0.038,+0.184,+0.349,+0.124,-0.963,+10.000,+2.000,-1.375,-17, -2, 13, 5, 49, 7, 6, 13,2.787185980664864,0.3074853365621725,0
1503958520300,+0.969,+0.163,-0.036,+0.184,+0.311,+0.141,-0.966,+7.875,+12.375,+0.750,7, 15, -4, -6, -33, -5, -2, 12,2.7868690914527074,0.3101636037143454,0
1503958520322,+0.968,+0.166,-0.034,+0.184,+0.407,+0.134,-0.980,+8.125,+15.875,-2.000,-6, 23, -10, 4, 24, 22, 5, -16,2.786127558089508,0.31665462172849984,0
1503958520344,+0.970,+0.156,-0.047,+0.183,+0.335,+0.030,+0.022,-66.562,-97.188,-6.625,-4, -2, 28, -3, 34, 14, 0, -15,2.7909221326375064,0.2927787745987877,0
1503958520360,+0.967,+0.169,-0.023,+0.189,+1.949,+0.132,-0.477,+124.750,+108.250,-13.812,2, 21, -41, 8, 66, 83, 14, 5,2.7733875899566645,0.3257701127732092,0
1503958520382,+0.972,+0.140,-0.031,+0.188,-0.406,-0.736,-0.882,-26.438,-168.875,-0.625,24, -13, 7, -32, -74, -68, -15, 2,2.7748188790952537,0.2652731604540686,0
1503958520404,+0.971,+0.155,-0.035,+0.179,+0.755,+0.541,-1.477,-24.938,+60.500,+49.875,0, -57, -3, 46, -3, -22, 14, -28,2.795445131221288,0.2949604923383348,0
1503958520421,+0.967,+0.177,-0.041,+0.177,+1.385,+0.396,-0.681,-39.188,+45.438,+6.375,-10, -3, -50, 18, 32, 19, 16, 43,2.8036659822315806,0.33754350429932467,0
1503958520442,+0.971,+0.165,-0.037,+0.170,+0.308,-0.316,-0.660,-5.125,-70.750,+33.438,92, 24, -77, 78, -74, 52, -6, 4,2.8154901249961286,0.31560897234128393,0
1503958520464,+0.972,+0.158,-0.044,+0.169,+0.259,+0.333,-0.901,-19.812,-45.812,+0.375,-36, -98, 40, -34, 5, -2, -1, 71,2.818437749181839,0.29960066154015685,0
1503958520480,+0.973,+0.152,-0.048,+0.168,+0.368,+0.247,-0.909,-13.188,-47.500,+4.625,79, 60, -82, -110, -103, -29, -41, -88,2.820690938493466,0.2865286736988855,0
1503958520502,+0.974,+0.141,-0.051,+0.168,+0.159,+0.125,-1.062,-10.438,-51.625,-1.938,-39, -11, 37, 89, -11, 1, 7, -24,2.8193517374658206,0.2633919733459212,0
1503958520524,+0.975,+0.134,-0.055,+0.168,+0.112,+0.179,-0.991,-12.562,-32.688,-3.000,-28, 1, 50, -34, 37, 6, 5, 5,2.8193882442415426,0.2482282445691662,0
1503958520540,+0.977,+0.127,-0.056,+0.164,-0.013,+0.163,-0.969,-7.375,-25.062,+22.188,-17, -22, -43, -26, 26, -15, 2, 10,2.8270683948901185,0.23459792076633595,0
1503958520562,+0.977,+0.125,-0.057,+0.162,+0.162,+0.198,-0.997,-0.938,-6.188,+14.750,-3, 21, 19, 0, 29, 10, -15, -8,2.8305402580942625,0.23046997645378867,0
1503958520584,+0.978,+0.123,-0.056,+0.160,+0.165,+0.138,-0.944,+3.562,-6.562,+10.688,-18, 3, 27, 14, -3, -18, 6, 16,2.834438702103095,0.22712280491884465,0
1503958520600,+0.978,+0.123,-0.054,+0.160,+0.170,+0.118,-0.943,+5.250,+5.000,+3.812,-15, -1, 32, -7, 0, -6, -6, 3,2.8339648419391357,0.2276528899714128,0
1503958520622,+0.978,+0.125,-0.053,+0.160,+0.242,+0.128,-0.992,+3.938,+16.750,-0.188,-13, -7, 33, 19, 52, 3, 7, 19,2.8342353454432923,0.23199627558884595,0
1503958520644,+0.977,+0.129,-0.051,+0.161,+0.284,+0.115,-0.958,+1.438,+21.062,-3.062,-4, 15, 8, -6, -36, -20, -7, -25,2.831998295928044,0.24033848208852024,0
1503958520660,+0.977,+0.132,-0.050,+0.162,+0.277,+0.146,-0.920,+0.000,+19.812,-3.125,-7, 20, -11, 6, 1, -1, 6, 9,2.8306427277228075,0.24663457626611823,0
1503958520682,+0.976,+0.136,-0.049,+0.163,+0.313,+0.155,-0.955,+1.812,+18.562,-4.750,-3, 3, -10, 6, 7, -13, -3, -18,2.828656157747518,0.2547242785895286,0
1503958520704,+0.975,+0.140,-0.048,+0.164,+0.341,+0.148,-0.932,+4.625,+18.938,-4.688,6, -32, 25, -13, -13, 1, 0, -9,2.826674467754427,0.2628188994878567,0
1503958520720,+0.975,+0.143,-0.047,+0.165,+0.363,+0.138,-0.930,+1.688,+15.312,-4.125,-1, 30, -4, -9, 15, 16, 8, 13,2.825336577439873,0.26914695074157663,0
1503958520742,+0.974,+0.146,-0.046,+0.165,+0.381,+0.136,-0.933,+0.250,+11.375,-2.812,-1, 8, -2, -3, -11, -10, -6, -5,2.824963636029155,0.2752934581489513,0
1503958520765,+0.974,+0.148,-0.046,+0.166,+0.381,+0.152,-0.915,+1.000,+6.688,-4.375,-2, -31, 3, 1, 22, 4, -2, 15,2.823641352719393,0.27931272645640914,0
1503958520780,+0.974,+0.148,-0.045,+0.166,+0.356,+0.148,-0.927,+1.562,+0.312,-3.125,-3, -20, 8, -4, 6, -6, 3, -3,2.823357610979982,0.27958423360524043,0
1503958520803,+0.974,+0.149,-0.045,+0.167,+0.340,+0.138,-0.938,-1.250,-0.062,-1.125,-6, 4, -4, -14, -9, -1, 1, 7,2.821766125114563,0.2815526067839165,0
1503958520827,+0.974,+0.150,-0.045,+0.166,+0.339,+0.139,-0.925,-2.812,+1.000,-0.062,7, 4, -4, -26, -38, 8, -5, 9,2.8239059304569474,0.28369678902685225,0
1503958520840,+0.974,+0.149,-0.045,+0.166,+0.319,+0.159,-0.928,-2.750,-2.750,+0.875,-11, -49, 12, 4, 12, 4, 1, 2,2.823631288832931,0.2816398855910937,0
1503958520863,+0.974,+0.149,-0.046,+0.166,+0.311,+0.158,-0.938,-1.312,-3.188,+1.250,3, -22, -15, 8, -1, -4, -4, 18,2.8239168191711563,0.28136892358537,0
1503958520884,+0.974,+0.149,-0.046,+0.166,+0.301,+0.142,-0.939,-1.625,-2.938,+2.625,-8, 0, 3, -14, 2, -1, -3, -10,2.8239168191711563,0.28136892358537,0
1503958520900,+0.974,+0.148,-0.046,+0.165,+0.307,+0.160,-0.931,-0.438,-2.938,+2.938,2, 16, -3, -25, -11, 3, -3, -5,2.8255100009061365,0.279402021287513,0
1503958520924,+0.974,+0.148,-0.046,+0.164,+0.313,+0.173,-0.938,+0.938,-3.438,+5.125,-7, -2, 7, 7, 6, -7, -8, 0,2.8273809358841517,0.2794913115435068,0
1503958520945,+0.974,+0.148,-0.045,+0.163,+0.315,+0.166,-0.937,+3.250,-3.062,+6.750,2, -14, 19, -11, 14, 13, 6, 22,2.8289693662847566,0.2798461906074623,0
1503958520961,+0.975,+0.147,-0.044,+0.162,+0.328,+0.166,-0.930,+6.250,-4.125,+8.750,-3, -18, 3, 6, -1, -3, -1, -5,2.831184669428278,0.2784296630874496,0
1503958520983,+0.975,+0.147,-0.042,+0.161,+0.344,+0.162,-0.923,+10.312,-5.125,+10.312,3, 3, -16, 10, -9, 2, 0, -9,2.8324927557321455,0.27904408020952653,0
1503958521004,+0.976,+0.146,-0.039,+0.159,+0.346,+0.144,-0.938,+14.125,-6.062,+11.625,5, 10, -1, -16, -4, 1, 3, 15,2.8360210273435853,0.27822741448993815,0
1503958521020,+0.976,+0.144,-0.036,+0.157,+0.332,+0.143,-0.955,+18.000,-10.000,+12.812,-4, 13, 2, 4, -5, -6, -1, -4,2.838442184549752,0.2750658697044153,0
1503958521042,+0.977,+0.142,-0.032,+0.155,+0.249,+0.143,-0.966,+22.938,-7.062,+16.375,1, 1, -1, -3, -6, 2, -4, 5,2.841494125346263,0.2724404719368048,0
1503958521064,+0.978,+0.141,-0.028,+0.153,+0.294,+0.168,-0.958,+24.562,-0.438,+17.500,3, 2, -15, 3, -30, -19, -4, -4,2.844797213638754,0.27184798067614546,0
1503958521080,+0.978,+0.141,-0.023,+0.151,+0.306,+0.137,-0.962,+32.562,+1.188,+21.062,9, 0, 1, -12, -3, 3, -2, -2,2.8472004948099907,0.27327898954898483,0
1503958521102,+0.979,+0.141,-0.016,+0.148,+0.327,+0.121,-0.969,+36.625,+0.688,+22.438,5, -3, -15, -13, -14, 1, -1, 2,2.851787323473612,0.2755371475874496,0
1503958521126,+0.979,+0.139,-0.009,+0.146,+0.313,+0.096,-0.958,+44.312,-6.250,+16.938,-8, -8, 11, 14, 41, 7, -1, -2,2.8532988404821062,0.27339370670897806,0
1503958521140,+0.980,+0.135,-0.001,+0.145,+0.285,+0.087,-0.954,+50.812,-13.000,+11.812,0, 4, -23, 1, -2, -6, 0, 4,2.853248770896235,0.26772378806489083,0
1503958521162,+0.980,+0.133,+0.009,+0.146,+0.260,+0.020,-0.935,+56.188,-3.438,+6.688,1, 3, -2, -3, -2, 5, 2, 2,2.848504971601594,0.26651593231193166,0
1503958521184,+0.980,+0.132,+0.018,+0.145,+0.269,+0.041,-0.987,+54.438,+1.438,+12.062,-4, -20, 9, -23, -13, -29, -3, 4,2.8479699532351956,0.2671140510627823,0
1503958521201,+0.981,+0.130,+0.028,+0.144,+0.276,+0.009,-0.986,+56.500,-0.750,+12.375,3, 0, 9, -13, -1, 9, 2, -4,2.8479823696964117,0.2662931006157554,0
1503958521222,+0.980,+0.128,+0.038,+0.144,+0.257,-0.025,-0.966,+58.062,+2.938,+8.375,3, 2, -4, 2, -4, 9, -6, -5,2.8444714598003435,0.26511383243747455,0
1503958521244,+0.980,+0.129,+0.049,+0.144,+0.259,-0.104,-0.983,+60.125,+17.000,+7.000,-1, 0, 4, 2, -10, 1, 0, -2,2.841831960744668,0.2707085565522108,0
1503958521260,+0.979,+0.130,+0.059,+0.144,+0.273,-0.083,-1.004,+57.688,+20.312,+5.938,0, 5, 1, 3, 1, 5, -3, -2,2.8385124251330973,0.2758537200408836,0
1503958521282,+0.978,+0.132,+0.070,+0.144,+0.250,-0.085,-0.974,+57.000,+24.938,+6.000,-1, -3, 1, -7, -7, 1, -2, -1,2.8349141606814183,0.2835120806424841,0
1503958521304,+0.977,+0.137,+0.080,+0.145,+0.215,-0.141,-0.981,+55.250,+44.875,+2.562,-3, 7, 2, 5, -7, 3, 3, -5,2.8296496153487865,0.2972424549938956,0
1503958521320,+0.975,+0.146,+0.090,+0.144,+0.354,-0.104,-0.958,+51.125,+59.125,+4.250,-6, 0, 7, 0, 18, 17, 4, -2,2.8270557289468066,0.31878067425345685,0
1503958521342,+0.972,+0.153,+0.100,+0.144,+0.434,-0.086,-0.901,+53.625,+47.812,+5.188,5, 0, 3, -22, -8, -3, -4, -40,2.8213736584627855,0.336310380400231,0
1503958521365,+0.970,+0.160,+0.110,+0.145,+0.435,-0.104,-0.898,+57.625,+41.062,+1.562,3, 4, -2, 0, -13, 4, 0, 14,2.814546048564079,0.3545682661477533,0
1503958521380,+0.968,+0.165,+0.120,+0.147,+0.426,-0.152,-0.915,+59.000,+39.812,-5.438,-5, -15, -4, 3, 3, -16, -8, -2,2.8056686268907765,0.36919043280758523,0
1503958521402,+0.965,+0.170,+0.131,+0.147,+0.506,-0.221,-0.904,+56.688,+32.125,+5.438,-1, 1, 0, -9, -1, 5, -2, 2,2.7989645891531603,0.38379012301767074,0
1503958521424,+0.963,+0.176,+0.141,+0.148,+0.507,-0.179,-0.868,+55.125,+34.375,+0.312,3, 2, -1, -13, -26, -7, 0, 7,2.7915329446694703,0.4008711558440223,0
1503958521440,+0.960,+0.183,+0.150,+0.150,+0.512,-0.167,-0.838,+55.000,+43.750,-6.250,-3, 0, 2, -2, 11, -2, 1, 4,2.7812978195170954,0.4198063467069697,0
1503958521464,+0.956,+0.192,+0.160,+0.152,+0.530,-0.148,-0.826,+54.312,+56.188,-9.562,-3, 2, 1, 12, 8, 6, 3, -2,2.769313056906465,0.44352740030319143,0
1503958521484,+0.952,+0.203,+0.169,+0.155,+0.562,-0.112,-0.801,+56.188,+63.875,-12.125,-1, -1, -3, 1, 11, -3, -1, -6,2.7555856186588628,0.4716777277799427,0
1503958521500,+0.947,+0.215,+0.178,+0.158,+0.586,-0.065,-0.758,+56.875,+70.250,-13.562,-2, 0, -2, 4, -1, -2, 0, -1,2.740474459009853,0.5020770275316536,0
1503958521522,+0.942,+0.229,+0.186,+0.161,+0.563,-0.021,-0.692,+57.000,+82.812,-15.250,0, -1, -7, 2, 10, 0, -1, 2,2.7256735743909473,0.5366473097272311,0
1503958521544,+0.935,+0.246,+0.195,+0.164,+0.529,+0.007,-0.664,+55.125,+101.500,-22.688,-5, 1, 7, 11, 7, 0, -1, -5,2.7079334742319614,0.5781970733116116,0
1503958521563,+0.927,+0.264,+0.205,+0.168,+0.556,+0.000,-0.660,+53.312,+119.312,-29.625,0, -1, 5, 1, 3, 0, 2, 4,2.686665628534248,0.6233563411106556,0
1503958521582,+0.918,+0.285,+0.214,+0.171,+0.607,-0.045,-0.663,+51.375,+131.125,-33.750,1, -1, -6, -11, -7, -4, 3, 5,2.666699264468894,0.6744806235876422,0
1503958521605,+0.908,+0.307,+0.224,+0.174,+0.667,-0.108,-0.637,+48.688,+137.938,-37.750,9, 1, -16, -8, -20, -3, -2, 1,2.6452490723501207,0.7292525609959294,0
1503958521629,+0.898,+0.329,+0.232,+0.179,+0.695,-0.121,-0.640,+45.312,+140.062,-48.625,-2, 0, 0, 0, -8, -2, 10, 7,2.6222102245087853,0.7839683335067523,0
1503958521643,+0.887,+0.350,+0.238,+0.186,+0.710,-0.189,-0.628,+35.188,+130.125,-61.125,-7, 1, -4, -2, -5, -2, -8, -5,2.596299645091179,0.8354795534292873,0
1503958521667,+0.877,+0.368,+0.242,+0.193,+0.768,-0.303,-0.606,+28.000,+109.812,-70.688,1, 0, -5, 7, -8, 1, -3, 2,2.5733269182644025,0.8790307816729765,0
1503958521686,+0.867,+0.386,+0.243,+0.202,+0.842,-0.371,-0.613,+15.938,+101.625,-82.500,-9, -1, 7, -14, -8, -2, -1, -5,2.5504715241738736,0.9204197630052046,0
1503958521702,+0.859,+0.399,+0.240,+0.211,+0.816,-0.294,-0.643,+1.938,+78.500,-83.625,4, -1, 1, 3, -1, -3, -18, 1,2.532471457325212,0.9468324081384987,0
1503958521724,+0.852,+0.411,+0.237,+0.220,+0.820,-0.285,-0.664,-5.250,+68.125,-79.250,1, 4, 18, -17, 8, 3, -1, 2,2.516614465337913,0.9713492641456848,0
1503958521746,+0.847,+0.421,+0.232,+0.227,+0.908,-0.332,-0.604,-14.312,+51.062,-75.562,-3, -3, 1, 0, -8, 2, 4, -4,2.5079694185815007,0.9894184833928094,0
1503958521764,+0.842,+0.429,+0.227,+0.234,+0.941,-0.333,-0.577,-22.188,+37.250,-73.000,-6, 4, -2, -1, 4, -2, 6, 4,2.498649939331616,1.00275982583112,0
1503958521784,+0.839,+0.436,+0.220,+0.240,+0.905,-0.301,-0.596,-24.000,+26.938,-70.688,-6, 2, -4, -1, 6, 4, -1, -12,2.4952271832938533,1.0124091947195177,0
1503958521806,+0.837,+0.439,+0.213,+0.247,+0.840,-0.256,-0.632,-28.000,+12.438,-63.375,2, -5, 25, 1, 5, 0, -3, 3,2.4895570428220504,1.0132655376471293,0
1503958521822,+0.836,+0.442,+0.206,+0.252,+0.857,-0.273,-0.604,-27.312,+12.000,-56.438,-5, -10, 0, -8, 0, 2, -5, -2,2.488376322542606,1.0142301575190795,0
1503958521844,+0.834,+0.445,+0.201,+0.255,+0.874,-0.302,-0.565,-28.250,+9.312,-50.188,-7, -4, -9, 0, 5, 7, 8, 1,2.486918814098922,1.0163218453741083,0
1503958521868,+0.834,+0.446,+0.195,+0.260,+0.902,-0.285,-0.521,-25.312,-6.375,-50.625,3, 13, 9, 2, 2, -8, -7, 1,2.4853080167632395,1.0140809224390872,0
1503958521882,+0.834,+0.445,+0.188,+0.266,+0.854,-0.254,-0.528,-24.000,-19.938,-56.812,4, -2, -17, -7, -10, -5, 1, 4,2.4815231222758394,1.006379022412657,0
1503958521904,+0.834,+0.444,+0.183,+0.272,+0.795,-0.277,-0.527,-14.562,-15.812,-57.000,3, 2, 13, -2, 9, -2, -4, -1,2.4763224313090775,1.0005904017599927,0
1503958521926,+0.833,+0.443,+0.179,+0.279,+0.801,-0.300,-0.500,-10.188,-11.875,-61.812,-5, 6, 4, -2, -1, -4, -17, -7,2.4674872065698326,0.9954520483869297,0
1503958521942,+0.832,+0.442,+0.175,+0.286,+0.823,-0.243,-0.499,-9.312,-18.875,-59.438,-5, -7, -5, -8, -17, 1, -1, -3,2.4586753415691542,0.9903182675342149,0
1503958521965,+0.831,+0.440,+0.173,+0.293,+0.820,-0.230,-0.496,+1.062,-14.688,-51.625,-2, -1, -5, 14, -5, 1, 6, -4,2.44767093255738,0.9845945691697291,0
1503958521986,+0.830,+0.438,+0.172,+0.300,+0.796,-0.243,-0.496,+8.875,-15.750,-44.375,3, -1, -4, -5, 33, -1, 4, -1,2.436026730719401,0.9797780280925905,0
1503958522003,+0.830,+0.434,+0.172,+0.306,+0.857,-0.244,-0.486,+11.125,-25.375,-40.625,7, -11, -8, 1, -13, -1, 6, 3,2.4249753275988235,0.9714355427046171,0
1503958522024,+0.830,+0.430,+0.170,+0.312,+0.855,-0.196,-0.457,+7.500,-38.625,-39.938,1, -9, -1, 0, 20, -7, -6, 6,2.4152592481015716,0.9613124145951956,0
1503958522046,+0.831,+0.424,+0.168,+0.318,+0.810,-0.131,-0.461,+9.438,-41.250,-37.625,-13, -9, -8, 4, -8, -2, -2, -4,2.4055248910165634,0.9470215822765629,0
1503958522062,+0.831,+0.419,+0.168,+0.324,+0.789,-0.117,-0.474,+13.875,-34.750,-27.875,5, 4, 7, -15, 6, -1, -5, -5,2.393705331504026,0.936499364894321,0
1503958522085,+0.831,+0.416,+0.169,+0.328,+0.848,-0.137,-0.502,+14.125,-24.312,-20.312,1, 12, 31, 7, 2, 4, -3, -11,2.3855495698312437,0.9312365320383693,0
1503958522107,+0.832,+0.412,+0.169,+0.331,+0.878,-0.107,-0.524,+8.938,-23.438,-19.750,5, -16, -9, -7, 0, -1, -1, 10,2.38016201815482,0.9230508044407257,0
1503958522122,+0.832,+0.409,+0.167,+0.336,+0.867,+0.004,-0.549,+4.000,-29.000,-22.688,4, 15, -8, 0, 7, 0, 1, 8,2.3726626914117315,0.9152482345399751,0
1503958522145,+0.833,+0.405,+0.164,+0.340,+0.826,+0.087,-0.587,+7.062,-32.125,-17.250,-2, -11, 10, -11, 1, -2, -3, 2,2.367887764328151,0.9045203602178783,0
1503958522167,+0.834,+0.401,+0.164,+0.343,+0.824,+0.044,-0.622,+12.688,-23.625,-6.750,-3, -3, 8, 6, -3, -2, 0, -2,2.36259246666974,0.8964391302224883,0
1503958522182,+0.834,+0.398,+0.165,+0.344,+0.866,+0.032,-0.618,+15.688,-19.688,+2.375,2, 22, 17, -7, 3, 1, -4, -14,2.3581675218870313,0.8907173225177115,0
1503958522205,+0.836,+0.393,+0.166,+0.345,+0.880,+0.030,-0.590,+14.562,-28.625,+7.438,0, -2, -13, -2, -3, -2, 2, 3,2.355751776399686,0.8814666106144211,0
1503958522227,+0.838,+0.387,+0.167,+0.347,+0.851,+0.050,-0.604,+20.438,-34.938,+6.125,-4, 9, -2, 5, -2, -1, 1, 1,2.3513855573041047,0.8702256967003712,0
1503958522242,+0.839,+0.381,+0.169,+0.349,+0.813,+0.023,-0.623,+27.188,-31.188,+7.375,-3, 4, 2, 1, 3, -1, 0, 2,2.3447010038318927,0.8595429749488794,0
1503958522267,+0.841,+0.375,+0.172,+0.349,+0.777,-0.035,-0.662,+28.688,-26.562,+12.000,-1, -4, -7, 8, -2, -2, -2, 0,2.3418835458408087,0.849988266357597,0
1503958522287,+0.843,+0.369,+0.176,+0.351,+0.787,-0.038,-0.653,+27.750,-26.875,+10.750,6, 12, 25, -3, 7, 1, -2, 3,2.3363750557803153,0.8419901580581365,0
1503958522302,+0.844,+0.363,+0.178,+0.352,+0.783,-0.033,-0.643,+26.875,-28.250,+6.062,-4, -13, -16, -3, -4, -1, 0, -3,2.3312679092596964,0.8314004799864632,0
1503958522325,+0.844,+0.358,+0.182,+0.354,+0.737,-0.035,-0.641,+29.375,-18.375,+6.000,7, -14, -5, -10, 1, -1, 0, 1,2.3229430713949926,0.8248903319710795,0
1503958522347,+0.844,+0.355,+0.186,+0.355,+0.729,-0.046,-0.680,+30.500,-3.062,+7.000,-4, -8, -6, -1, -1, -1, 2, -3,2.3174517077526278,0.8226432287929605,0
1503958522363,+0.844,+0.353,+0.191,+0.356,+0.780,-0.087,-0.690,+29.000,+0.062,+6.438,0, -26, -23, -5, -5, -1, 1, 1,2.312322835856256,0.8237116178528363,0
1503958522385,+0.843,+0.351,+0.195,+0.357,+0.772,-0.065,-0.674,+25.062,-4.125,+3.812,0, 6, -4, 0, 0, -1, -5, -4,2.3056918571918374,0.8233391738502864,0
1503958522407,+0.843,+0.348,+0.198,+0.360,+0.773,-0.032,-0.642,+29.062,-8.312,-2.938,-1, 4, -1, -3, -2, -1, 1, 1,2.2985551472940577,0.8208096281333871,0
1503958522422,+0.841,+0.346,+0.201,+0.363,+0.753,-0.051,-0.662,+29.750,+0.125,-8.375,-1, -5, 3, 0, 0, -3, 0, 3,2.288146074884534,0.8195776659799039,0
1503958522445,+0.839,+0.348,+0.205,+0.365,+0.738,-0.059,-0.652,+24.188,+18.188,-8.812,2, 11, 2, -5, -3, 0, -2, -1,2.2815398675805576,0.8279011298080413,0
1503958522469,+0.836,+0.351,+0.209,+0.367,+0.767,+0.012,-0.633,+20.812,+24.750,-3.375,-5, 13, -6, 4, -6, -1, 2, -1,2.2736872966548702,0.8379918228901267,0
1503958522482,+0.833,+0.354,+0.212,+0.368,+0.832,+0.040,-0.624,+19.625,+25.375,-3.312,6, -1, -9, -18, -11, -3, -4, -2,2.267405622795505,0.8467439027148067,0
1503958522505,+0.830,+0.357,+0.215,+0.370,+0.865,+0.051,-0.635,+20.750,+18.438,-4.938,-3, -3, -2, 8, 1, -2, -1, -4,2.2600824867389173,0.8558240617771229,0
1503958522527,+0.828,+0.358,+0.217,+0.372,+0.814,+0.039,-0.675,+18.750,+17.750,-3.562,6, 0, -13, 2, -2, 1, 1, 3,2.253682835274071,0.8599163896510577,0
1503958522543,+0.826,+0.360,+0.219,+0.373,+0.804,+0.035,-0.650,+15.250,+18.562,+0.375,-2, -3, 2, -2, 3, -1, 0, -3,2.249191335441433,0.865920939165353,0
1503958522565,+0.825,+0.363,+0.221,+0.373,+0.842,+0.017,-0.622,+12.938,+21.625,+3.062,2, 1, -2, 0, -2, 0, 0, -5,2.248728538070618,0.8743092602048426,0
1503958522587,+0.823,+0.366,+0.224,+0.372,+0.850,-0.001,-0.625,+8.500,+23.125,+7.688,-4, -3, 8, -1, 2, -1, -2, 6,2.2467504492484114,0.883139156628524,0
1503958522611,+0.822,+0.368,+0.225,+0.371,+0.858,+0.004,-0.586,+5.562,+16.125,+8.750,-2, 4, -2, -5, 6, 0, -2, -2,2.246948408045372,0.8879344804586987,0
1503958522625,+0.821,+0.371,+0.227,+0.370,+0.839,+0.012,-0.599,+2.500,+17.250,+8.000,-5, -1, -2, 7, -7, 0, 0, 8,2.2475650928399826,0.8961099946506156,0
1503958522646,+0.820,+0.373,+0.228,+0.369,+0.810,+0.008,-0.614,+3.750,+15.438,+10.188,-3, 5, 2, 10, 0, -1, 3, 3,2.2477823877811116,0.9009314912687515,0
1503958522662,+0.820,+0.374,+0.229,+0.368,+0.816,-0.007,-0.646,+3.625,+12.875,+12.312,-1, 1, -8, 1, -6, 0, 1, -4,2.2492269903707376,0.9040266688069866,0
1503958522684,+0.820,+0.375,+0.230,+0.367,+0.785,-0.011,-0.641,+5.188,+12.562,+11.000,-3, -3, -11, -6, 0, -3, -2, -6,2.2506704558450803,0.9071255816931411,0
1503958522706,+0.820,+0.375,+0.231,+0.365,+0.802,-0.062,-0.624,+4.188,+10.562,+9.938,-2, -4, 5, -3, 1, -3, -3, -2,2.2522709358751536,0.9077383181207213,0
1503958522721,+0.820,+0.375,+0.232,+0.364,+0.784,-0.064,-0.626,+3.375,+6.500,+10.688,1, -4, -5, 4, -2, -2, 1, -4,2.2528354567853994,0.9086372801999233,0
1503958522746,+0.821,+0.374,+0.233,+0.364,+0.769,-0.075,-0.615,+4.625,+1.062,+10.000,6, 6, 6, -5, -5, -1, -3, -2,2.253586133403377,0.9080852692105801,0
1503958522766,+0.821,+0.373,+0.234,+0.363,+0.716,-0.103,-0.620,+2.375,+0.438,+6.875,-3, -2, 0, -2, 0, 0, 0, 3,2.2532843338533204,0.9067849745212411,0
1503958522782,+0.822,+0.371,+0.234,+0.363,+0.720,-0.088,-0.598,+3.938,-0.812,+2.750,1, -5, -7, -1, 0, -1, 1, 3,2.2536599476073467,0.902848192643799,0
1503958522808,+0.822,+0.371,+0.235,+0.363,+0.741,-0.076,-0.619,+6.500,+2.625,+3.062,3, -2, 4, -9, 1, -1, -2, -1,2.2531887430846553,0.9040423311928952,0
1503958522826,+0.822,+0.369,+0.236,+0.364,+0.751,-0.104,-0.604,+10.062,-1.375,+4.062,1, 8, 4, 1, -3, 4, 1, 4,2.249959293522654,0.901143298506633,0
1503958522846,+0.823,+0.366,+0.237,+0.365,+0.780,-0.125,-0.614,+10.938,-14.625,+1.062,-2, -6, -15, 1, -6, -2, -2, -5,2.248013665518725,0.8965327115040661,0
1503958522864,+0.823,+0.363,+0.237,+0.367,+0.753,-0.091,-0.597,+9.312,-16.562,-3.250,-6, 1, -3, -4, -5, -1, -1, -8,2.2433973507549476,0.8905790108138294,0
1503958522886,+0.823,+0.361,+0.237,+0.369,+0.746,-0.077,-0.592,+9.500,-10.875,-4.625,2, 3, 3, -2, 0, -1, -1, 1,2.2396427634688787,0.8868244029516337,0
1503958522905,+0.823,+0.360,+0.237,+0.371,+0.792,-0.125,-0.599,+8.125,-4.188,-8.562,-6, 6, 15, 12, 2, -2, -4, -5,2.2367455536848952,0.8852542178264375,0
1503958522924,+0.822,+0.360,+0.237,+0.372,+0.814,-0.118,-0.550,+2.688,-5.312,-8.062,-1, -8, -3, -3, -3, -2, -1, 1,2.2335768338371347,0.8850972993578408,0
1503958522947,+0.821,+0.360,+0.237,+0.373,+0.832,-0.125,-0.534,-1.062,-0.938,-6.062,3, -6, -10, -1, -3, -2, 0, -3,2.230405378277005,0.8849403206718536,0
1503958522962,+0.821,+0.362,+0.237,+0.373,+0.823,-0.147,-0.588,-3.750,+8.250,-6.312,-3, -18, -6, -3, -2, -3, -2, 8,2.2321177521845814,0.889285467084726,0
1503958522984,+0.820,+0.364,+0.237,+0.373,+0.853,-0.119,-0.593,-3.125,+7.938,-4.250,7, 13, -14, -6, -22, 0, 0, 4,2.2316925880515175,0.8931774887852797,0
1503958523006,+0.819,+0.366,+0.238,+0.373,+0.883,-0.156,-0.609,-2.500,+14.312,-4.312,-5, -16, -2, -4, 5, 0, -2, -18,2.2308314439241093,0.8982916900527367,0
1503958523021,+0.817,+0.368,+0.240,+0.373,+0.923,-0.172,-0.548,+0.500,+9.125,-6.625,-4, -10, 11, -10, 4, 0, -3, 3,2.227383839846917,0.9041790670610251,0
1503958523044,+0.817,+0.369,+0.241,+0.372,+0.952,-0.182,-0.553,-1.438,+2.812,+3.438,-4, -8, 1, 6, 4, -2, 1, 5,2.2288152488165207,0.9072892162804266,0
1503958523066,+0.817,+0.370,+0.243,+0.370,+0.855,-0.213,-0.574,-1.938,+11.750,+11.875,3, 11, 7, -1, 0, 3, 0, -7,2.2307973661701808,0.9113333531487712,0
1503958523081,+0.816,+0.373,+0.246,+0.367,+0.830,-0.218,-0.545,-0.750,+26.500,+7.312,2, -4, 4, -2, 1, 1, 0, 6,2.232945407271621,0.9202500280426332,0
1503958523106,+0.813,+0.377,+0.249,+0.366,+0.882,-0.185,-0.543,+2.062,+29.938,+0.125,1, -4, -4, -2, 0, -1, 0, 9,2.2296896433000883,0.9310984399846749,0
1503958523126,+0.812,+0.381,+0.252,+0.364,+0.880,-0.183,-0.552,+2.875,+26.625,+0.625,-4, -3, 0, -2, -9, -2, 0, 0,2.2317484379532724,0.9426103227094715,0
1503958523141,+0.810,+0.384,+0.255,+0.364,+0.858,-0.162,-0.541,+5.000,+25.062,-1.000,4, -11, 5, -8, -3, -3, -4, 2,2.2287799963670043,0.9521101694053069,0
1503958523163,+0.807,+0.387,+0.257,+0.364,+0.831,-0.132,-0.573,+8.938,+27.438,-6.188,-11, -2, -10, 2, -2, -6, -8, -17,2.2241727871410393,0.9599346115505144,0
1503958523186,+0.804,+0.389,+0.260,+0.365,+0.797,-0.157,-0.580,+13.938,+27.438,-11.062,0, 14, 4, 2, 7, 0, 0, -1,2.2171894683844884,0.9671518455824387,0
1503958523201,+0.802,+0.392,+0.263,+0.367,+0.816,-0.143,-0.526,+13.750,+23.812,-12.688,0, -5, -5, 0, 1, -5, -6, -6,2.212354949872542,0.977370869702574,0
1503958523223,+0.799,+0.395,+0.265,+0.368,+0.817,-0.141,-0.522,+11.438,+26.750,-13.875,-1, -3, -4, 0, -3, 3, -1, -6,2.2068656869316143,0.985591897126512,0
1503958523246,+0.796,+0.397,+0.267,+0.370,+0.789,-0.128,-0.522,+10.000,+19.875,-15.812,-5, 17, 8, 2, 0, 2, 3, 9,2.1994921011335555,0.9919157744702706,0
1503958523269,+0.793,+0.399,+0.267,+0.374,+0.788,-0.086,-0.541,+11.625,+15.625,-22.750,-6, -4, -2, -5, 3, -2, 9, 5,2.191227649941119,0.9962171247072283,0
1503958523284,+0.791,+0.400,+0.267,+0.379,+0.763,-0.079,-0.555,+12.062,+9.812,-28.250,2, 4, -9, 4, -4, -2, -2, -20,2.183284175995869,0.9990212026025598,0
1503958523308,+0.789,+0.400,+0.266,+0.383,+0.831,-0.094,-0.525,+8.062,-3.562,-24.312,-5, -4, -1, -1, 4, 3, 4, -5,2.175766784166312,0.9979936612534636,0
1503958523321,+0.788,+0.399,+0.265,+0.386,+0.797,-0.085,-0.510,+2.438,-3.750,-16.062,3, 2, -8, 4, 0, 1, 1, -6,2.170323007610043,0.9948975014802675,0
1503958523346,+0.788,+0.399,+0.263,+0.389,+0.765,-0.043,-0.523,+0.938,-5.438,-17.000,-11, -1, 12, 5, -6, -7, -8, -5,2.168547899487414,0.9931356229443075,0
1503958523366,+0.788,+0.398,+0.259,+0.393,+0.779,-0.017,-0.556,+0.062,-13.875,-20.688,11, -22, -18, 9, -16, -2, -3, 16,2.1657615567135458,0.986847146141734,0
1503958523383,+0.788,+0.395,+0.256,+0.396,+0.810,-0.023,-0.558,-2.125,-20.750,-16.062,-8, 9, 0, 1, -3, -1, 3, -13,2.1613476551421846,0.9771970141580979,0
1503958523404,+0.789,+0.394,+0.253,+0.398,+0.824,-0.026,-0.539,-6.812,-15.750,-6.812,1, 5, -8, 6, 4, 1, 0, 6,2.162062257928556,0.972135454887316,0
1503958523426,+0.790,+0.392,+0.250,+0.398,+0.798,+0.005,-0.559,-9.750,-15.625,+0.500,8, -1, -10, -2, 4, -1, 6, 12,2.163513340179441,0.9643311497097834,0
1503958523443,+0.792,+0.390,+0.246,+0.399,+0.821,-0.009,-0.569,-10.500,-22.562,-0.688,-8, 0, 7, -4, 0, -3, -12, -33,2.1667092866278868,0.9560253521197015,0
1503958523464,+0.794,+0.388,+0.242,+0.401,+0.841,-0.014,-0.570,-12.188,-26.438,-5.062,-4, -1, -1, -10, -6, 0, 2, 0,2.169005210250236,0.9480588836831059,0
1503958523486,+0.796,+0.385,+0.238,+0.402,+0.831,-0.006,-0.567,-11.562,-26.688,-5.000,4, 5, 0, 1, 8, 0, -8, 1,2.1711855113986287,0.9376736159569635,0
1503958523510,+0.798,+0.383,+0.234,+0.403,+0.834,-0.012,-0.568,-12.312,-22.812,-0.562,-1, -2, 9, 12, 2, 2, 0, 9,2.174373851231495,0.9295345265316567,0
1503958523524,+0.800,+0.381,+0.231,+0.402,+0.841,-0.026,-0.585,-14.875,-18.625,+0.938,-9, -9, -6, -7, 1, -1, 3, 0,2.1789506634776834,0.9221146730882184,0
1503958523546,+0.801,+0.381,+0.227,+0.403,+0.841,-0.034,-0.579,-15.812,-14.500,-2.625,3, -3, -4, 5, -3, -3, 2, -4,2.1819468650355955,0.917981137868024,0
1503958523562,+0.802,+0.381,+0.224,+0.403,+0.860,-0.026,-0.566,-16.312,-13.500,-6.438,-9, -6, 5, -9, -6, 1, 0, -12,2.1854213188622698,0.9148225183464255,0
1503958523584,+0.802,+0.380,+0.220,+0.404,+0.842,-0.019,-0.589,-15.000,-12.688,-8.250,6, 12, 3, -3, -3, 1, 5, 4,2.185263913988623,0.9081161072246913,0
1503958523606,+0.804,+0.379,+0.217,+0.405,+0.833,-0.026,-0.594,-14.062,-18.812,-6.188,-1, 4, 0, 1, -3, -4, -8, -2,2.188974892421409,0.9035719183493793,0
1503958523621,+0.805,+0.378,+0.214,+0.404,+0.848,-0.042,-0.584,-14.750,-17.812,-1.312,1, 0, -3, 2, 3, -3, -1, 10,2.192396185642521,0.898050999316307,0
1503958523646,+0.807,+0.377,+0.211,+0.404,+0.820,-0.040,-0.606,-16.375,-14.250,+2.688,2, 3, 1, 2, 0, 0, 2, -5,2.1970307642448472,0.8933004681854455,0
1503958523666,+0.808,+0.377,+0.209,+0.402,+0.843,-0.017,-0.576,-16.812,-9.188,+8.562,-3, -2, -4, 5, 2, 0, 3, -4,2.201953173931916,0.8909259423515064,0
1503958523683,+0.810,+0.376,+0.206,+0.400,+0.836,-0.017,-0.582,-14.750,-15.375,+8.875,-5, 0, 9, -2, 0, 2, -4, -1,2.2085078521546304,0.8857105552783776,0
1503958523703,+0.813,+0.373,+0.203,+0.399,+0.805,-0.033,-0.565,-16.250,-29.500,+6.062,1, -5, 0, -6, -6, -4, -6, 0,2.2143270270894932,0.8768926248406302,0
1503958523726,+0.815,+0.371,+0.199,+0.398,+0.763,-0.038,-0.577,-22.000,-22.250,+4.812,1, 3, 0, 2, 5, 2, -3, -15,2.219447498485393,0.8687018964344808,0
1503958523747,+0.817,+0.370,+0.195,+0.396,+0.706,+0.002,-0.644,-21.938,-10.188,+8.688,1, 2, -1, -9, -4, -5, -3, -3,2.2265208986962612,0.862503241834462,0
1503958523763,+0.819,+0.370,+0.192,+0.394,+0.732,+0.005,-0.625,-19.750,-6.438,+6.125,7, 6, 3, 2, 2, 0, 2, 2,2.2340979851147718,0.8596562594491802,0
1503958523786,+0.820,+0.370,+0.190,+0.393,+0.800,-0.001,-0.638,-17.688,-4.875,+4.250,4, -6, -5, -2, -1, -3, 7, 0,2.238118655117975,0.8577044133838501,0
1503958523801,+0.822,+0.369,+0.187,+0.391,+0.792,-0.014,-0.653,-16.688,-12.188,+7.812,-1, 4, -4, -2, -11, -1, 3, 4,2.244788692469797,0.8527351133556713,0
1503958523824,+0.824,+0.367,+0.185,+0.390,+0.759,-0.039,-0.640,-15.062,-16.125,+7.188,-10, 1, -10, 5, 1, 0, 1, -3,2.249069034891903,0.8469265378198804,0
1503958523846,+0.825,+0.366,+0.183,+0.389,+0.747,-0.035,-0.657,-11.688,-10.125,+3.500,-12, -13, -12, 6, -3, 0, 3, -2,2.2521957297237303,0.842841571322596,0
1503958523861,+0.826,+0.365,+0.182,+0.388,+0.802,-0.034,-0.652,-8.688,-7.875,+4.312,12, 0, -14, 4, -1, -1, -2, -1,2.2548697441129875,0.8398319293063827,0
1503958523884,+0.827,+0.364,+0.181,+0.387,+0.824,-0.036,-0.645,-5.375,-8.125,+5.125,4, -1, 15, -12, -5, 0, -5, 3,2.2575519066637932,0.836827797593077,0
1503958523906,+0.829,+0.362,+0.180,+0.387,+0.805,-0.058,-0.653,-3.438,-15.500,+2.625,2, 4, 15, 0, 8, -1, 4, -10,2.2603635895100034,0.8323710067950542,0
1503958523921,+0.830,+0.360,+0.179,+0.387,+0.765,-0.045,-0.631,-5.500,-15.625,+1.375,11, -40, 9, -5, 4, 1, 3, 2,2.2611188012614005,0.8274354650163251,0
1503958523945,+0.831,+0.359,+0.178,+0.386,+0.789,-0.024,-0.637,-4.875,-12.062,+3.500,-10, 24, 9, 1, 1, -4, -3, 4,2.2638220242158367,0.8244484983196689,0
1503958523966,+0.832,+0.357,+0.178,+0.386,+0.808,-0.025,-0.645,-3.750,-9.812,+4.250,9, 1, -24, -38, -4, 0, -11, -7,2.264139000151867,0.8205733392146133,0
1503958523982,+0.832,+0.356,+0.177,+0.385,+0.810,-0.023,-0.650,-3.312,-11.062,+4.188,0, 0, -13, 20, -1, -5, 8, 9,2.2647900190795256,0.8171061906834169,0
1503958524003,+0.834,+0.355,+0.177,+0.384,+0.798,-0.026,-0.637,-3.938,-11.625,+8.438,-5, 13, -2, 5, -4, 5, 1, 6,2.2691263387292304,0.8156598780264721,0
1503958524026,+0.835,+0.354,+0.176,+0.383,+0.792,-0.009,-0.654,-7.688,-8.812,+11.812,-5, -6, 6, 8, 2, 0, -1, -2,2.2718594173365747,0.8126870380534335,0
1503958524042,+0.836,+0.354,+0.176,+0.381,+0.761,-0.007,-0.657,-7.438,-0.125,+8.562,0, -2, -17, 4, -1, 0, -2, -11,2.2760749732086727,0.8126897887796181,0
1503958524063,+0.835,+0.355,+0.175,+0.381,+0.755,-0.020,-0.671,-3.812,+7.750,-2.125,-13, -10, 2, 6, 7, 1, 4, -4,2.2753346643254075,0.8133475682169395,0
1503958524089,+0.835,+0.356,+0.175,+0.382,+0.797,-0.039,-0.678,-1.438,+2.125,-8.312,-7, 1, 13, -2, -6, -3, 1, 7,2.275109925992069,0.8157687732797546,0
1503958524102,+0.834,+0.356,+0.175,+0.384,+0.785,-0.051,-0.664,-0.438,-3.688,-12.812,4, -6, 1, -3, -3, -2, -3, 5,2.2709026331007554,0.8157605491342278,0
1503958524123,+0.832,+0.356,+0.174,+0.387,+0.737,-0.021,-0.649,+3.062,+2.438,-20.250,-5, -11, -11, -2, 1, -1, 0, -4,2.2640262806523728,0.8144649593015261,0
1503958525466,+0.770,+0.340,+0.356,+0.407,+0.835,-0.261,-0.493,+60.625,+15.438,+21.812,-11, 12, 20, -2, 6, 1, -1, 2,2.018266910921069,1.0060647935028373,1
1503958525490,+0.767,+0.335,+0.366,+0.407,+0.839,-0.287,-0.477,+60.875,+11.000,+24.188,10, 2, 2, -10, 3, 0, -2, 5,2.0029135205082267,1.0119718296656823,1
1503958525504,+0.764,+0.330,+0.376,+0.406,+0.820,-0.304,-0.484,+61.188,+8.250,+23.938,5, 10, -3, -4, 2, 0, -5, 5,1.9882315585717818,1.0180112985207146,1
1503958525527,+0.762,+0.325,+0.385,+0.406,+0.812,-0.309,-0.480,+62.062,+8.250,+24.312,19, -18, -7, 3, -4, -2, 3, -8,1.9757969933185087,1.023535638954128,1
1503958525548,+0.759,+0.320,+0.396,+0.406,+0.834,-0.332,-0.459,+61.500,+8.562,+26.625,-25, 7, 0, 5, 1, 1, 0, -10,1.960253088520577,1.0329484904553992,1
1503958525565,+0.756,+0.315,+0.405,+0.406,+0.837,-0.332,-0.458,+62.312,+7.750,+25.062,3, -18, -2, 2, 0, -2, -1, 3,1.9452500594667266,1.0391753949612241,1
1503958525586,+0.753,+0.310,+0.414,+0.406,+0.828,-0.339,-0.466,+63.688,+5.875,+21.000,-4, -6, -11, 10, -3, -3, 2, 1,1.9302480020914576,1.0459100415046703,1
1503958525608,+0.749,+0.305,+0.424,+0.407,+0.836,-0.361,-0.454,+63.812,+8.125,+18.062,-3, -4, -1, 2, 8, 0, 1, -3,1.9117101461317976,1.0553260343592439,1
1503958525624,+0.745,+0.301,+0.433,+0.408,+0.837,-0.338,-0.449,+62.750,+9.500,+17.500,14, 21, 5, -5, 0, 1, -1, 4,1.894331477900405,1.0652568333002106,1
1503958525646,+0.741,+0.297,+0.442,+0.409,+0.847,-0.352,-0.426,+63.125,+9.562,+15.875,-13, -13, -2, -1, 1, -3, -3, 10,1.8769453536107676,1.0757300872505335,1
1503958525677,+0.737,+0.292,+0.450,+0.411,+0.837,-0.355,-0.427,+62.000,+4.562,+14.625,-11, 0, -6, -5, -6, -3, -5, -9,1.8583213417942246,1.0831365997546158,1
1503958525684,+0.733,+0.288,+0.458,+0.412,+0.824,-0.377,-0.431,+61.500,+4.750,+13.938,2, -12, 4, -9, -1, -1, -3, 3,1.8411123640255513,1.0924669666871873,1
1503958525706,+0.729,+0.283,+0.466,+0.414,+0.793,-0.411,-0.417,+58.438,+4.938,+11.188,-32, -21, -9, 5, -3, -2, -1, -9,1.822510645525866,1.1008774322644392,1
1503958525729,+0.726,+0.279,+0.472,+0.414,+0.788,-0.399,-0.393,+49.562,+7.250,+10.625,3, 23, 0, -1, -2, 2, 1, -3,1.80891331209771,1.1063569960749344,1
1503958525744,+0.723,+0.277,+0.478,+0.415,+0.785,-0.380,-0.411,+46.500,+11.750,+10.938,-2, 3, -3, 1, 11, -1, 1, 10,1.7968521304080929,1.1162879485901056,1
1503958525768,+0.720,+0.274,+0.484,+0.416,+0.771,-0.403,-0.398,+43.125,+7.438,+7.375,17, -15, 1, -9, -9, -1, 3, 4,1.7838257329892693,1.1246463953453307,1
1503958525789,+0.717,+0.271,+0.489,+0.417,+0.774,-0.405,-0.388,+39.312,+8.750,+8.250,-9, -4, 7, -3, 2, 0, -2, -23,1.7709276519781103,1.1308707859725486,1
1503958525804,+0.714,+0.269,+0.494,+0.417,+0.771,-0.442,-0.395,+37.812,+9.625,+7.188,7, -3, 1, 9, -7, 0, 4, 2,1.759316709608819,1.1386347094776381,1
1503958525827,+0.712,+0.266,+0.498,+0.418,+0.792,-0.428,-0.381,+35.000,+2.938,+7.000,18, -9, -10, 2, -1, 1, 2, -10,1.7495307854190938,1.1430588418445848,1
1503958525848,+0.710,+0.263,+0.501,+0.419,+0.759,-0.425,-0.347,+30.875,+0.688,+4.875,-18, 5, -2, 3, -4, -3, -1, 1,1.7398565860608441,1.145140843831109,1
1503958525865,+0.708,+0.261,+0.504,+0.420,+0.769,-0.434,-0.354,+26.625,+2.000,+4.188,13, -20, 3, -1, -5, 0, 2, -8,1.7311796561766548,1.149091597853004,1
1503958525887,+0.706,+0.259,+0.507,+0.421,+0.799,-0.462,-0.359,+26.250,+0.812,+5.000,1, 48, -7, 4, 2, 1, 0, 19,1.7225061673078572,1.1531279444478433,1
1503958525908,+0.705,+0.256,+0.509,+0.422,+0.806,-0.456,-0.329,+18.875,-6.688,+7.562,4, 6, 15, -3, 24, 5, -2, 2,1.7160012343205364,1.153197725879065,1
1503958525926,+0.705,+0.254,+0.510,+0.422,+0.797,-0.465,-0.300,+10.688,-7.375,+8.750,8, -3, -19, 4, -8, -5, 1, 5,1.7139182688601544,1.1522670665239145,1
1503958525947,+0.706,+0.252,+0.510,+0.422,+0.758,-0.459,-0.318,+1.188,-4.312,+7.000,7, -10, 4, -7, -5, 2, 4, 1,1.7150326474687874,1.1490289376255312,1
1503958525969,+0.706,+0.252,+0.510,+0.421,+0.793,-0.501,-0.318,-5.625,+0.875,+3.312,7, -4, -14, -2, -4, -3, -1, -11,1.7152685179905316,1.1485438833854027,1
1503958525985,+0.708,+0.253,+0.508,+0.420,+0.857,-0.483,-0.333,-10.000,+0.188,+6.875,-1, -19, 10, -9, -5, -3, -8, -18,1.7228776336498441,1.1451719140165038,1
1503958526007,+0.710,+0.253,+0.507,+0.419,+0.854,-0.447,-0.348,-13.812,-5.062,+13.312,25, 4, 13, -3, -2, 0, -10, -10,1.7294223670567284,1.1426235348703808,1
1503958526022,+0.712,+0.252,+0.504,+0.418,+0.808,-0.463,-0.338,-17.188,-5.375,+10.000,7, -9, 0, 3, 3, 1, 5, 6,1.7352055627754541,1.13325344509614,1
1503958526045,+0.714,+0.254,+0.502,+0.417,+0.795,-0.483,-0.344,-17.938,+2.375,+2.188,-17, -7, -9, -2, 0, -2, 0, 2,1.7438000084149987,1.1317380024165462,1
1503958526069,+0.715,+0.256,+0.500,+0.416,+0.831,-0.478,-0.319,-21.688,+5.500,-2.125,25, -7, 7, -9, 2, 1, 4, -4,1.749303145733509,1.1300221137179973,1
1503958526089,+0.716,+0.260,+0.497,+0.415,+0.855,-0.476,-0.312,-26.250,+5.438,-2.125,3, 17, -2, -10, -2, -1, 2, 3,1.7568545039439005,1.1294420056959402,1
1503958526105,+0.718,+0.262,+0.494,+0.413,+0.844,-0.479,-0.344,-27.312,+5.938,+0.938,13, 38, -1, -3, 1, -3, -1, 4,1.765878407982372,1.1251563141404355,1
1503958526127,+0.721,+0.265,+0.490,+0.413,+0.842,-0.476,-0.357,-32.375,-0.125,-2.812,-3, 9, 26, -13, -1, -1, -5, -1,1.7783823577000697,1.1215710162174295,1
1503958526149,+0.723,+0.268,+0.485,+0.412,+0.834,-0.446,-0.348,-34.812,-2.438,-3.188,-10, -17, 0, 9, 3, -2, -3, -3,1.7882931883797966,1.1149863810780904,1
1503958526165,+0.726,+0.271,+0.481,+0.410,+0.820,-0.447,-0.366,-38.688,+6.062,-2.625,-27, -1, 1, -7, 1, 0, -3, 4,1.8014630695698135,1.1107698633826695,1
1503958526187,+0.729,+0.276,+0.476,+0.408,+0.858,-0.444,-0.398,-40.812,+8.688,-1.250,11, 12, 25, -29, 7, 2, -3, 1,1.8166856520452375,1.1080757754757022,1
1503958526208,+0.732,+0.279,+0.470,+0.407,+0.857,-0.421,-0.378,-45.625,+0.062,-0.812,-11, -18, -10, 11, -15, 0, 3, -12,1.8297673363538378,1.100094481012002,1
1503958526226,+0.736,+0.283,+0.463,+0.405,+0.805,-0.418,-0.392,-49.812,+1.125,-3.000,-8, 14, 9, -16, 9, 0, -6, 7,1.8473336183203246,1.0918252112151765,1
1503958526247,+0.740,+0.287,+0.456,+0.403,+0.799,-0.418,-0.427,-53.562,+4.625,-5.312,-25, -12, -7, 8, -2, -3, 1, -16,1.8649052105072181,1.0839570594618513,1
1503958526269,+0.743,+0.293,+0.449,+0.401,+0.817,-0.364,-0.409,-56.000,+6.875,-8.188,7, 3, -15, 7, -4, 0, 1, 3,1.8814662759826117,1.080021691400402,1
1503958526285,+0.746,+0.298,+0.441,+0.399,+0.844,-0.343,-0.424,-54.938,+5.812,-7.438,-7, 7, -9, -15, -12, -1, -1, -1,1.897355100265099,1.072459421840966,1
1503958526307,+0.750,+0.302,+0.433,+0.398,+0.825,-0.346,-0.448,-54.938,-3.750,-7.625,-2, 0, 9, 11, 5, -2, 0, -2,1.914635522431513,1.0642103817667588,1
1503958526329,+0.754,+0.306,+0.424,+0.397,+0.801,-0.340,-0.450,-56.750,-4.938,-10.188,8, -9, -2, 5, -13, -6, -2, 1,1.9321109352056998,1.0543779827256985,1
1503958526345,+0.758,+0.310,+0.415,+0.397,+0.781,-0.332,-0.491,-56.188,-4.500,-11.938,12, 2, -3, -1, 1, -2, -1, 7,1.948959794303507,1.0455332557848143,1
1503958526367,+0.761,+0.314,+0.406,+0.397,+0.781,-0.318,-0.504,-58.000,-3.000,-16.312,-19, -25, -1, 1, 0, -1, -1, -3,1.963039219500151,1.036858474135304,1
1503958526389,+0.765,+0.318,+0.396,+0.397,+0.800,-0.309,-0.501,-59.438,-5.188,-19.062,-10, 5, 5, 2, 8, 5, 0, -6,1.980046446870366,1.027131938532892,1
1503958526405,+0.768,+0.323,+0.386,+0.397,+0.802,-0.298,-0.500,-60.938,-6.188,-23.062,1, 0, 8, -8, 0, 3, -4, -5,1.9952842812313591,1.0196521657670448,1
1503958526429,+0.770,+0.327,+0.376,+0.398,+0.787,-0.282,-0.516,-59.125,-6.688,-24.375,2, 6, -4, 3, 0, 0, 0, 4,2.0063458061174058,1.0107719497926704,1
1503958526448,+0.773,+0.332,+0.366,+0.399,+0.773,-0.294,-0.542,-57.375,-4.938,-28.438,29, -4, -1, -1, -5, -3, 0, 0,2.0209260435100296,1.004817899711194,1
1503958526465,+0.775,+0.335,+0.356,+0.400,+0.767,-0.294,-0.543,-58.188,-8.875,-28.000,-7, -6, 3, -2, 5, 1, 1, 17,2.0311210997094586,0.994906063014156,1
1503958526487,+0.778,+0.339,+0.346,+0.401,+0.801,-0.271,-0.539,-57.688,-11.000,-26.688,-17, -30, -14, 4, -10, -4, -6, -24,2.044768491591437,0.9879064684385842,1
1503958526509,+0.781,+0.341,+0.336,+0.402,+0.797,-0.258,-0.556,-55.188,-13.125,-23.500,5, -8, 1, -10, 3, -1, -1, 7,2.056544649651251,0.9772474051962853,1
1503958526525,+0.784,+0.343,+0.326,+0.402,+0.788,-0.256,-0.570,-53.188,-20.500,-19.625,0, -4, 3, 2, 5, 1, -1, 1,2.0690658285634442,0.9666442588191745,1
1503958526547,+0.788,+0.342,+0.316,+0.403,+0.768,-0.264,-0.563,-54.062,-31.125,-15.062,-8, 12, -10, 11, 0, -1, -1, -1,2.0804827371213435,0.9510141964605212,1
1503958526570,+0.792,+0.342,+0.306,+0.403,+0.739,-0.239,-0.555,-53.125,-28.875,-12.312,4, 6, 4, -4, -4, 1, -2, 0,2.093564397215172,0.9374980274054394,1
1503958526585,+0.796,+0.341,+0.297,+0.402,+0.710,-0.216,-0.583,-51.125,-24.938,-5.750,2, 6, -2, -17, 2, -3, -6, -2,2.106201226426082,0.9233970398981862,1
1503958526607,+0.801,+0.339,+0.288,+0.401,+0.718,-0.231,-0.597,-51.438,-34.938,-1.062,-5, 35, -9, 4, -4, 1, 7, 4,2.120333400070412,0.9079622232202046,1
1503958526630,+0.807,+0.336,+0.278,+0.399,+0.757,-0.234,-0.563,-55.812,-46.500,+3.250,-24, 33, 1, 17, 2, -1, -2, -2,2.1371809115513623,0.8894503022734254,1
1503958526645,+0.813,+0.331,+0.268,+0.397,+0.739,-0.195,-0.580,-52.625,-51.125,+8.500,-5, -3, -1, 3, -5, -2, -2, 2,2.152407459549571,0.8671673887232011,1
1503958526668,+0.818,+0.327,+0.260,+0.395,+0.684,-0.228,-0.604,-46.062,-46.312,+9.062,11, -14, 3, -4, -7, 0, 0, 0,2.165496846949919,0.8495872264124006,1
1503958526688,+0.824,+0.322,+0.251,+0.393,+0.717,-0.253,-0.637,-50.875,-48.750,+8.938,3, 8, 13, -3, 3, -2, 0, -4,2.1805301186877055,0.8293346130438438,1
1503958526706,+0.830,+0.317,+0.241,+0.391,+0.747,-0.253,-0.634,-55.625,-53.188,+9.000,8, 11, -11, 3, -1, -2, 2, -2,2.1960036485447127,0.8081642069983982,1
1503958526727,+0.835,+0.313,+0.232,+0.388,+0.731,-0.210,-0.619,-50.625,-51.438,+13.062,1, -13, -7, 2, -4, 0, 2, 5,2.210651770528799,0.7899208591182965,1
1503958526749,+0.841,+0.307,+0.224,+0.385,+0.713,-0.216,-0.667,-46.625,-56.625,+14.500,-5, 2, -4, -1, -5, -1, -1, -5,2.2257972425930648,0.7694738408016002,1
1503958526765,+0.847,+0.300,+0.215,+0.382,+0.753,-0.258,-0.679,-46.812,-60.000,+13.938,2, -7, 4, -7, 2, -1, -4, 0,2.240751359225042,0.7460687353257588,1
1503958526788,+0.852,+0.295,+0.207,+0.380,+0.786,-0.219,-0.681,-45.688,-57.000,+14.375,1, 7, -11, -4, -1, -2, 3, 1,2.2535176628578655,0.7281482511507835,1
1503958526809,+0.856,+0.291,+0.201,+0.377,+0.756,-0.185,-0.680,-39.625,-43.188,+12.250,-2, -13, -1, 0, 2, -1, 0, -12,2.2651440811550048,0.7140054960267145,1
1503958526825,+0.859,+0.288,+0.195,+0.375,+0.772,-0.171,-0.719,-33.562,-36.562,+8.250,-4, -8, -2, 4, 1, 1, 1, -2,2.2741886016986035,0.7019469856884725,1
1503958526847,+0.862,+0.286,+0.189,+0.374,+0.784,-0.192,-0.729,-34.875,-35.000,+4.625,4, -12, 6, 1, 2, 0, -1, 2,2.2827444791265195,0.6923917130832575,1
1503958526869,+0.865,+0.283,+0.183,+0.373,+0.784,-0.199,-0.726,-35.562,-39.438,+1.000,1, -3, -1, -4, -2, 0, -1, 1,2.2906603912616856,0.6808903607083429,1
1503958526885,+0.867,+0.280,+0.178,+0.372,+0.773,-0.191,-0.727,-30.750,-36.688,+1.938,-3, -13, 2, -6, 0, -1, -1, 1,2.2960850274082576,0.6700999225683472,1
1503958526909,+0.869,+0.277,+0.173,+0.371,+0.726,-0.167,-0.738,-26.688,-33.750,+3.062,0, 21, 1, -6, 0, 0, -2, 3,2.3015218111176616,0.6593989291418149,1
1503958526929,+0.872,+0.274,+0.169,+0.370,+0.699,-0.156,-0.733,-23.938,-35.188,+3.188,1, 0, -8, 2, -3, 0, -1, -3,2.308692325740811,0.6502255737298659,1
1503958526945,+0.874,+0.271,+0.165,+0.369,+0.695,-0.155,-0.726,-22.938,-34.562,+2.188,-4, -3, 1, 0, 5, 1, 0, -2,2.31377511551646,0.6406720257735932,1
1503958526971,+0.876,+0.268,+0.161,+0.368,+0.706,-0.151,-0.739,-19.750,-31.562,+4.188,-2, -17, -8, 3, -6, -2, 1, 3,2.318869130943531,0.6311772999959293,1
1503958526989,+0.878,+0.265,+0.159,+0.366,+0.686,-0.154,-0.758,-18.688,-23.688,+8.375,2, 4, 5, -4, 7, 1, -1, -1,2.3244506096731663,0.623417628283225,1
1503958527005,+0.879,+0.264,+0.156,+0.364,+0.673,-0.128,-0.748,-17.688,-20.938,+10.688,-3, 6, -4, -1, -2, -1, 0, 1,2.3294721891606036,0.6183922681990618,1
1503958527027,+0.881,+0.262,+0.154,+0.363,+0.700,-0.109,-0.750,-13.062,-22.750,+9.188,0, 38, 4, -3, -2, 0, -1, -3,2.3344291932857706,0.6129878282692316,1
1503958527049,+0.882,+0.259,+0.153,+0.362,+0.707,-0.126,-0.762,-9.375,-26.312,+4.125,4, -33, 3, 0, -5, -3, -2, 4,2.33644186146689,0.606067889748083,1
1503958527067,+0.883,+0.256,+0.150,+0.362,+0.672,-0.126,-0.759,-11.062,-26.625,-1.312,-5, -4, 3, 4, -1, -1, -1, -1,2.337965983796907,0.5975292630802761,1
1503958527087,+0.884,+0.255,+0.148,+0.363,+0.644,-0.109,-0.771,-10.125,-20.250,-2.562,3, -5, 1, -1, -1, -1, -1, -2,2.338963496857454,0.5942834632183699,1
1503958527109,+0.884,+0.254,+0.147,+0.363,+0.635,-0.106,-0.761,-9.562,-12.125,-3.812,2, 4, -1, 0, -1, 0, -1, 3,2.3387893107678988,0.5913078864921953,1
1503958527125,+0.885,+0.254,+0.145,+0.364,+0.645,-0.120,-0.773,-10.688,-9.875,-5.312,-7, -13, -15, -2, -2, -1, -1, 0,2.3403067296048703,0.5901110041804621,1
1503958527147,+0.884,+0.254,+0.143,+0.364,+0.656,-0.107,-0.787,-14.000,-6.500,-9.812,-1, 9, 0, -2, -4, -2, -1, -6,2.33897347343696,0.5878324410440174,1
1503958527170,+0.884,+0.256,+0.141,+0.365,+0.644,-0.096,-0.797,-15.625,+3.312,-11.875,-5, -11, -2, 1, -3, 0, 1, -3,2.339527194446078,0.5903040666764297,1
1503958527185,+0.883,+0.259,+0.140,+0.366,+0.649,-0.080,-0.801,-15.125,+9.938,-12.875,-2, -11, -4, -8, -3, -1, -3, -3,2.338258355911436,0.595321493371225,1
1503958527207,+0.882,+0.261,+0.138,+0.367,+0.659,-0.069,-0.819,-11.312,+5.000,-11.812,-4, -8, 0, 4, 2, -2, 0, 0,2.336831888063462,0.5973757267929966,1
1503958527229,+0.881,+0.262,+0.137,+0.369,+0.663,-0.077,-0.827,-7.562,-4.062,-14.000,0, 13, -8, 4, 2, 0, 0, -2,2.333276606190772,0.59852756020208,1
1503958527245,+0.880,+0.262,+0.136,+0.371,+0.619,-0.074,-0.833,-6.375,-4.688,-15.938,4, 8, 14, 3, 1, -2, -1, 2,2.3291602530998317,0.5976257012032229,1
1503958527269,+0.880,+0.262,+0.134,+0.373,+0.565,-0.056,-0.830,-6.125,-2.500,-14.000,-2, 1, 4, -1, -1, 0, -1, 0,2.327459154539246,0.5962332130532946,1
1503958527289,+0.879,+0.262,+0.133,+0.375,+0.565,-0.059,-0.801,-7.188,-0.938,-13.000,-3, -3, -2, 2, 0, 0, 1, 1,2.323353587895468,0.5953219953935804,1
1503958527307,+0.879,+0.262,+0.132,+0.376,+0.580,-0.079,-0.798,-8.188,+0.562,-10.875,2, 6, 0, -6, 5, 0, -3, -6,2.3225097421478993,0.5946219725148426,1
1503958527327,+0.878,+0.263,+0.131,+0.377,+0.572,-0.061,-0.826,-8.625,+5.625,-11.438,-6, -1, 3, -1, 0, 0, 1, -2,2.320199317037161,0.5955307193585937,1
1503958527350,+0.878,+0.265,+0.129,+0.378,+0.540,-0.014,-0.812,-10.562,+8.875,-9.125,-1, 0, -3, -1, -3, -2, -1, 2,2.320913919980177,0.5980052328745397,1
1503958527365,+0.877,+0.267,+0.128,+0.379,+0.583,-0.012,-0.812,-6.875,+7.688,-7.812,1, -5, -1, 1, -4, -1, 0, -2,2.3192355843304133,0.6009623739254045,1
1503958527387,+0.876,+0.268,+0.128,+0.380,+0.614,-0.010,-0.801,-5.312,+6.438,-7.688,1, 3, 10, -2, 4, 2, 0, 2,2.3165993489319234,0.6027835258398914,1
1503958527409,+0.876,+0.269,+0.127,+0.381,+0.601,-0.009,-0.830,-2.375,+2.312,-6.000,5, 3, 6, -13, -2, 0, -3, -2,2.31639108936916,0.6041296469973255,1
1503958527425,+0.875,+0.269,+0.127,+0.381,+0.600,+0.002,-0.851,-1.438,+4.625,-4.812,-1, 7, -1, 4, 1, -2, -1, -4,2.3143323631726367,0.6036867518697452,1
1503958527448,+0.875,+0.270,+0.127,+0.382,+0.602,+0.024,-0.835,+0.875,+5.625,-2.688,0, 8, 2, -2, -4, 0, 0, 1,2.3137698328777194,0.6059485596558548,1
1503958527471,+0.875,+0.270,+0.128,+0.382,+0.629,+0.002,-0.820,+3.000,-0.500,+1.000,-2, 6, 2, 2, 6, 1, 1, -1,2.3134049853795027,0.606867012928867,1
1503958527485,+0.875,+0.269,+0.128,+0.382,+0.627,-0.020,-0.798,+1.312,-4.312,+0.250,-3, 25, -6, -1, -1, -1, 1, 0,2.31278412523362,0.6048144702334677,1
1503958527509,+0.875,+0.269,+0.128,+0.382,+0.608,-0.015,-0.805,-0.750,-3.500,+0.000,0, -15, -3, 1, 4, 0, -3, -2,2.31278412523362,0.6048144702334677,1
1503958527529,+0.875,+0.269,+0.128,+0.382,+0.588,+0.012,-0.798,-1.625,+0.750,+1.188,-3, -10, 8, -5, -1, 0, -2, -4,2.31278412523362,0.6048144702334677,1
1503958527545,+0.875,+0.269,+0.128,+0.382,+0.601,+0.015,-0.800,-0.812,+3.938,+1.188,-4, -4, 1, 0, 0, -1, 0, 1,2.31278412523362,0.6048144702334677,1
1503958527566,+0.874,+0.270,+0.128,+0.382,+0.623,-0.004,-0.806,+0.750,+6.688,+0.250,-5, -4, -6, -6, -1, -1, -2, -4,2.3113411270998854,0.6064232957086936,1
1503958527589,+0.874,+0.271,+0.129,+0.382,+0.617,-0.004,-0.805,+0.438,+4.938,-0.875,0, -15, -2, -2, -4, 0, -1, -1,2.311601445521595,0.6093975708987058,1
1503958527607,+0.874,+0.271,+0.129,+0.382,+0.624,-0.009,-0.792,+0.000,+1.000,-1.875,-3, 8, 2, 1, 2, -1, -1, 0,2.311601445521595,0.6093975708987058,1
1503958527626,+0.873,+0.272,+0.129,+0.383,+0.624,-0.007,-0.795,-1.125,+0.375,-2.500,-3, 19, 0, 4, 2, 0, 0, -2,2.3089848525474412,0.6112184427053393,1
1503958527649,+0.873,+0.272,+0.129,+0.383,+0.601,-0.003,-0.802,-1.500,-0.688,-1.062,6, -12, 7, -4, -3, -1, -2, -1,2.3089848525474412,0.6112184427053393,1
1503958527663,+0.873,+0.272,+0.129,+0.383,+0.591,-0.006,-0.804,-1.812,+3.125,-0.500,7, 6, -6, -10, -19, -1, -1, 2,2.3089848525474412,0.6112184427053393,1
1503958527686,+0.873,+0.273,+0.129,+0.383,+0.598,-0.010,-0.806,-2.000,+5.062,-0.875,-4, -8, -5, 0, 2, -3, -1, 2,2.309617587399372,0.6132741149267685,1
1503958527709,+0.873,+0.273,+0.129,+0.383,+0.618,-0.011,-0.791,-1.812,+3.438,-0.438,-5, 13, 2, 3, 4, 1, -1, 1,2.309617587399372,0.6132741149267685,1
1503958527723,+0.873,+0.274,+0.129,+0.383,+0.620,-0.015,-0.790,-1.688,+1.562,+0.000,1, 7, 4, -8, 2, 1, -2, -7,2.3102521059620647,0.6153316292953392,1
1503958527747,+0.873,+0.273,+0.129,+0.383,+0.610,-0.013,-0.799,-1.250,-1.938,+1.062,-2, -3, 4, 4, 1, -1, 0, -1,2.309617587399372,0.6132741149267685,1
1503958527769,+0.873,+0.273,+0.129,+0.383,+0.602,-0.017,-0.794,-0.562,-2.312,+2.062,-5, -11, -4, 1, -1, -1, -1, -3,2.309617587399372,0.6132741149267685,1
1503958527783,+0.873,+0.273,+0.129,+0.382,+0.605,-0.016,-0.794,-0.375,-0.562,+3.188,-1, 12, 3, -1, 1, 0, -1, 2,2.3107950693116095,0.6130630715790306,1
1503958527807,+0.874,+0.273,+0.129,+0.382,+0.608,-0.009,-0.789,-0.375,-0.250,+3.438,-2, 1, -10, 0, -1, -2, 0, 1,2.3128570711957033,0.6135096241684416,1
1503958527828,+0.874,+0.272,+0.130,+0.381,+0.604,-0.013,-0.795,-0.812,-1.688,+4.562,0, 11, 8, 3, 1, -1, 0, 0,2.3130417497706266,0.6121628773391521,1
1503958527844,+0.874,+0.272,+0.130,+0.380,+0.608,-0.017,-0.800,-0.625,-2.188,+5.188,-3, -5, -3, 1, 0, 0, -1, 1,2.3142252173990094,0.611950014171777,1
1503958527867,+0.875,+0.271,+0.130,+0.380,+0.598,-0.025,-0.813,-0.562,-1.000,+3.875,-2, -2, 5, 5, 0, 0, 0, -3,2.3156618598792456,0.6103387311435384,1
1503958527889,+0.875,+0.271,+0.130,+0.379,+0.601,-0.021,-0.798,-1.000,-1.812,+3.750,-7, -1, -7, 4, -2, -1, -1, -3,2.31684921087153,0.6101256060163693,1
1503958527906,+0.875,+0.271,+0.130,+0.379,+0.613,-0.021,-0.789,-0.812,-1.000,+4.375,2, -7, -3, -4, 0, -1, -1, 1,2.31684921087153,0.6101256060163693,1
1503958527926,+0.876,+0.271,+0.131,+0.378,+0.598,-0.025,-0.793,-0.562,+0.062,+5.250,0, 0, 1, -1, 0, -1, -1, 1,2.319724490868611,0.6112755861370371,1
1503958527950,+0.876,+0.270,+0.131,+0.377,+0.602,-0.024,-0.804,-0.562,+0.500,+5.125,-3, 27, 5, -4, -1, -2, 2, -1,2.320303871392977,0.6090043713783545,1
1503958527963,+0.876,+0.270,+0.131,+0.377,+0.603,-0.013,-0.805,-0.438,+0.000,+4.188,-1, -11, 4, -4, 0, -1, -4, 1,2.320303871392977,0.6090043713783545,1
1503958527986,+0.876,+0.270,+0.131,+0.376,+0.602,-0.005,-0.780,-0.188,-1.438,+3.438,4, 6, -9, 2, 0, 0, 0, -2,2.3215002804673643,0.6087893529221988,1
1503958528009,+0.877,+0.270,+0.131,+0.376,+0.605,-0.017,-0.793,-0.250,-1.375,+3.188,0, -24, -2, -1, -2, -2, -2, -2,2.3235496998297114,0.6092324502370778,1
1503958528023,+0.877,+0.270,+0.131,+0.375,+0.600,-0.018,-0.794,-1.500,-1.000,+3.875,1, 2, 2, -1, -1, 0, -2, 4,2.324749644022156,0.6090175001875857,1
1503958528046,+0.877,+0.270,+0.132,+0.375,+0.592,-0.010,-0.793,-0.875,+2.312,+4.000,-3, 9, -1, -3, 5, -2, -1, -4,2.324379892733596,0.6099339359814756,1
1503958528077,+0.877,+0.270,+0.132,+0.374,+0.600,-0.021,-0.793,-0.500,+3.938,+4.812,-1, -11, -7, -2, -2, -1, 0, -5,2.3255819640940043,0.6097174179860366,1
1503958528083,+0.877,+0.271,+0.133,+0.373,+0.610,-0.025,-0.799,-1.062,+3.812,+5.688,1, -9, -7, 1, -3, 0, -1, -3,2.3270218025742864,0.6124752484634965,1
1503958528107,+0.878,+0.271,+0.133,+0.372,+0.612,-0.034,-0.812,-0.812,+2.250,+5.875,-5, -8, -3, -1, -5, 0, 0, -1,2.330267606758559,0.6127011780205766,1
1503958528128,+0.878,+0.271,+0.133,+0.372,+0.620,-0.030,-0.800,-0.750,-1.688,+5.000,0, -10, -3, -2, 0, 0, 0, 2,2.330267606758559,0.6127011780205766,1
1503958528144,+0.878,+0.270,+0.133,+0.371,+0.611,-0.029,-0.801,+0.250,-3.438,+4.500,1, -2, 1, -2, -6, 0, -2, -1,2.330876411532555,0.6104231244417595,1
1503958528166,+0.879,+0.269,+0.133,+0.370,+0.603,-0.027,-0.791,-0.625,-3.750,+4.812,1, -2, 4, -3, -2, -2, 0, -2,2.3335286897405463,0.6085879567479434,1
1503958528189,+0.879,+0.269,+0.134,+0.370,+0.604,-0.034,-0.796,-0.938,-1.812,+5.000,2, -10, -1, -2, 0, -2, -2, 0,2.333156648437597,0.6095010195308923,1
1503958528203,+0.880,+0.268,+0.134,+0.369,+0.595,-0.039,-0.808,-1.375,-0.188,+5.250,1, 1, 1, 0, -3, 1, -1, -2,2.335814094317431,0.6076632782224708,1
1503958528226,+0.880,+0.268,+0.134,+0.368,+0.605,-0.030,-0.802,-1.062,-0.250,+3.812,-3, 5, 3, 2, 1, 0, 1, 0,2.3370347105453826,0.6074430746883035,1
1503958528248,+0.880,+0.268,+0.134,+0.368,+0.621,-0.035,-0.796,-1.438,-0.438,+3.188,-7, 3, -2, 1, 5, -1, 1, -1,2.3370347105453826,0.6074430746883035,1
1503958528263,+0.880,+0.268,+0.134,+0.367,+0.615,-0.043,-0.804,-1.250,-1.312,+3.500,-1, 23, 5, 4, 1, -1, -2, 0,2.3382584308836316,0.6072228037213471,1
1503958528286,+0.881,+0.268,+0.134,+0.367,+0.606,-0.046,-0.805,-1.500,-2.875,+2.938,1, -4, -2, -3, -1, -1, 0, -1,2.3402829116434645,0.6076632782224708,1
1503958528309,+0.881,+0.267,+0.134,+0.367,+0.603,-0.035,-0.798,-0.812,-0.938,+2.438,1, 12, 0, -4, -2, 0, -2, -7,2.3397004549733507,0.60560416134272,1
1503958528323,+0.881,+0.267,+0.135,+0.366,+0.614,-0.038,-0.796,-0.875,-0.250,+2.875,-3, 3, -11, -4, -2, -3, -3, -1,2.340555648031675,0.6062925694995527,1
1503958528346,+0.881,+0.267,+0.135,+0.366,+0.605,-0.052,-0.808,-1.562,+0.312,+3.312,-1, -3, -1, 3, -3, 0, 1, 0,2.340555648031675,0.6062925694995527,1
1503958528368,+0.881,+0.267,+0.135,+0.365,+0.604,-0.043,-0.808,-2.375,+0.250,+2.375,2, 8, 9, -1, 0, -1, 0, 0,2.3417853663718415,0.6060704437550708,1
1503958528384,+0.882,+0.267,+0.135,+0.365,+0.615,-0.033,-0.798,-2.312,-0.938,+2.250,2, -7, 8, -7, 1, -1, -4, 4,2.3438052080075673,0.6065096929747122,1
1503958528406,+0.882,+0.267,+0.135,+0.365,+0.609,-0.035,-0.792,-1.500,-2.125,+1.812,0, -9, -3, 0, -2, -1, 0, 0,2.3438052080075673,0.6065096929747122,1
1503958528428,+0.882,+0.267,+0.134,+0.365,+0.606,-0.034,-0.801,-2.375,-2.625,+1.938,-2, 7, -6, 1, 1, -2, -1, -4,2.3441781671152357,0.6056025157265277,1
1503958528445,+0.882,+0.267,+0.134,+0.364,+0.601,-0.034,-0.800,-2.625,-1.688,+2.750,0, -7, 5, -2, -1, -1, -1, -2,2.3454122175768415,0.6053819692356941,1
1503958528466,+0.882,+0.267,+0.134,+0.363,+0.598,-0.038,-0.796,-2.500,-0.312,+3.688,-1, 0, 1, 3, 0, 0, 2, 1,2.3466493880653165,0.6051613553989763,1
1503958528488,+0.883,+0.267,+0.134,+0.363,+0.600,-0.036,-0.800,-2.438,+0.188,+3.375,-1, -10, -5, -3, -2, -1, -1, -4,2.348660187662548,0.6056008701065854,1
1503958528503,+0.883,+0.267,+0.134,+0.362,+0.609,-0.031,-0.804,-2.438,+2.000,+3.438,0, -20, -3, 1, -1, 0, -1, 3,2.349900706631018,0.6053803231132053,1
1503958528526,+0.883,+0.267,+0.134,+0.362,+0.608,-0.031,-0.804,-1.812,+1.625,+3.125,0, -7, 1, 1, -1, 0, -2, 1,2.349900706631018,0.6053803231132053,1
1503958528549,+0.883,+0.268,+0.134,+0.362,+0.618,-0.039,-0.806,-1.500,+0.812,+2.125,-3, 2, 1, -3, -1, -4, -2, -1,2.3504737692555886,0.6074430746883035,1
1503958528563,+0.883,+0.268,+0.134,+0.361,+0.616,-0.046,-0.803,-2.625,-0.688,+1.062,2, 10, -1, -5, 1, -2, -1, -2,2.351716958898868,0.6072228037213471,1
1503958528586,+0.883,+0.268,+0.134,+0.361,+0.609,-0.040,-0.797,-3.562,-0.438,+0.438,-1, 4, 0, -3, -2, -2, -2, -1,2.351716958898868,0.6072228037213471,1
1503958528612,+0.883,+0.268,+0.133,+0.361,+0.600,-0.039,-0.800,-3.562,+1.500,+0.250,-3, -4, -7, 2, -2, 1, -3, -3,2.3520948984720866,0.6063243304210655,1
1503958528631,+0.883,+0.268,+0.133,+0.361,+0.597,-0.030,-0.801,-2.688,+2.062,+0.062,0, -10, 6, 4, 0, -1, 1, -1,2.3520948984720866,0.6063243304210655,1
1503958528646,+0.883,+0.269,+0.133,+0.361,+0.601,-0.035,-0.796,-2.125,+2.062,+0.125,-3, 9, -2, -3, 0, -1, 2, -3,2.3526705375566572,0.6083892441887998,1
1503958528669,+0.883,+0.269,+0.133,+0.361,+0.599,-0.038,-0.792,-2.500,+3.125,+0.062,-1, -1, -1, -2, -2, -2, -4, -1,2.3526705375566572,0.6083892441887998,1
1503958528684,+0.883,+0.270,+0.133,+0.360,+0.598,-0.038,-0.801,-2.062,+3.500,+0.188,-2, 9, 1, 3, 1, -1, 0, 0,2.3544942714107298,0.6102377827857187,1
1503958528706,+0.883,+0.270,+0.133,+0.360,+0.601,-0.036,-0.805,-2.062,+2.562,+0.250,0, -4, -3, 1, -2, -1, -1, 0,2.3544942714107298,0.6102377827857187,1
1503958528728,+0.883,+0.270,+0.133,+0.360,+0.600,-0.042,-0.800,-2.312,+1.250,+0.188,2, 1, -5, 1, -2, -2, 0, -1,2.3544942714107298,0.6102377827857187,1
1503958528745,+0.883,+0.271,+0.133,+0.360,+0.602,-0.039,-0.793,-2.438,+1.625,+0.375,-2, 13, 3, 4, 1, -2, -3, -2,2.3550729340041974,0.6123065731195297,1
1503958528766,+0.883,+0.271,+0.133,+0.360,+0.604,-0.038,-0.793,-2.000,+2.812,+0.188,-4, -15, 6, 4, 1, 0, -2, -4,2.3550729340041974,0.6123065731195297,1
1503958528789,+0.883,+0.272,+0.133,+0.360,+0.610,-0.040,-0.796,-1.812,+2.562,+0.625,1, -3, -4, -4, -3, 0, 0, -3,2.3556533226513636,0.6143771340826628,1
1503958528804,+0.883,+0.272,+0.133,+0.360,+0.613,-0.033,-0.796,-2.062,+1.562,+0.938,-1, 3, -6, 0, 0, 0, 0, 0,2.3556533226513636,0.6143771340826628,1
1503958528826,+0.883,+0.272,+0.133,+0.360,+0.613,-0.033,-0.791,-1.750,+1.312,-0.062,1, 20, 11, -5, -1, -2, 1, 1,2.3556533226513636,0.6143771340826628,1
1503958528849,+0.883,+0.272,+0.133,+0.360,+0.616,-0.033,-0.788,-1.812,+0.438,-0.438,-2, -15, -9, 0, 0, 1, 1, -1,2.3556533226513636,0.6143771340826628,1
1503958528864,+0.883,+0.272,+0.133,+0.360,+0.606,-0.027,-0.786,-1.688,+0.625,+0.062,0, -6, 0, -3, 0, -1, -1, 2,2.3556533226513636,0.6143771340826628,1
1503958528886,+0.882,+0.272,+0.133,+0.359,+0.612,-0.032,-0.795,-1.312,+1.375,+0.500,-1, 8, -6, -2, 1, -1, -1, -1,2.3549088775665803,0.6137145592356433,1
1503958528908,+0.882,+0.273,+0.133,+0.359,+0.615,-0.036,-0.801,-1.188,+1.750,+0.125,0, 5, 8, 2, -1, -1, -2, 0,2.3554941784270467,0.6157863134738909,1
1503958528924,+0.882,+0.273,+0.133,+0.359,+0.617,-0.038,-0.793,-1.312,+0.375,-0.500,-1, 6, 1, -5, -1, -2, 0, -1,2.3554941784270467,0.6157863134738909,1
1503958528948,+0.882,+0.273,+0.133,+0.359,+0.616,-0.026,-0.789,-1.375,-0.188,-0.125,-3, 2, 5, -2, 0, -2, 1, -2,2.3554941784270467,0.6157863134738909,1
1503958528968,+0.882,+0.273,+0.133,+0.359,+0.610,-0.032,-0.792,-1.375,+0.375,-0.062,0, -14, 1, -4, -3, -1, -4, 1,2.3554941784270467,0.6157863134738909,1
1503958528984,+0.882,+0.273,+0.133,+0.360,+0.613,-0.036,-0.793,-1.500,+0.938,-0.938,0, 2, 1, -3, -1, 0, -1, -4,2.354246262346969,0.6160036222008876,1
1503958529014,+0.882,+0.273,+0.133,+0.360,+0.619,-0.032,-0.789,-1.500,-0.625,-1.750,-2, -3, 5, 0, -1, 0, 0, -3,2.354246262346969,0.6160036222008876,1
1503958529028,+0.882,+0.273,+0.133,+0.360,+0.614,-0.029,-0.789,-0.938,-3.000,-1.188,-1, -3, -3, -1, -1, -1, -3, 0,2.354246262346969,0.6160036222008876,1
1503958529044,+0.882,+0.272,+0.133,+0.361,+0.619,-0.035,-0.793,-0.062,-4.438,-2.750,2, 4, -1, -4, -2, -1, -1, 0,2.3524152400892193,0.6141498016116519,1
1503958529066,+0.882,+0.271,+0.133,+0.361,+0.603,-0.035,-0.801,+0.250,-3.812,-1.812,-2, -12, -7, 2, -1, -1, 1, -1,2.3518307372703973,0.6120805182509013,1
1503958529089,+0.882,+0.271,+0.133,+0.361,+0.603,-0.041,-0.794,+0.062,-2.125,-0.688,0, 3, 6, 0, 0, -2, 1, -1,2.3518307372703973,0.6120805182509013,1
1503958529104,+0.882,+0.271,+0.133,+0.362,+0.596,-0.040,-0.791,+0.562,+1.500,-1.750,-1, 0, -1, -3, -1, -3, 0, -5,2.350588146141591,0.6122983839786921,1
1503958529126,+0.882,+0.271,+0.133,+0.362,+0.608,-0.033,-0.792,+1.188,+1.500,-1.125,-3, -3, -3, 2, 0, 0, 1, 0,2.350588146141591,0.6122983839786921,1
1503958529151,+0.882,+0.271,+0.134,+0.362,+0.630,-0.030,-0.794,+2.312,-3.312,-0.062,0, 22, -9, -1, 1, 2, 1, 1,2.350206978236123,0.6131984372726891,1
1503958529164,+0.882,+0.269,+0.134,+0.363,+0.603,-0.037,-0.804,+2.812,-8.062,-1.188,-1, 1, -1, 0, -3, -1, -3, 1,2.347805408627288,0.6092860157605299,1
1503958529189,+0.882,+0.267,+0.134,+0.363,+0.575,-0.042,-0.798,+2.750,-8.812,+0.438,2, 4, 3, 1, -2, 0, -3, 0,2.3466493880653165,0.6051613553989763,1
1503958529208,+0.883,+0.266,+0.134,+0.363,+0.572,-0.047,-0.798,+1.812,-4.062,+1.938,3, -23, 7, 0, -1, -2, -1, 4,2.3480884491048513,0.6035402157813705,1
1503958529224,+0.883,+0.266,+0.135,+0.363,+0.599,-0.036,-0.789,+1.875,+1.625,+2.250,1, -14, -6, 0, 0, -2, 1, 0,2.347715225776603,0.6044441593009467,1
1503958529246,+0.883,+0.266,+0.135,+0.362,+0.612,-0.034,-0.817,+2.438,+1.438,+3.062,-2, -10, -1, -4, -3, 0, -2, -3,2.348955250139829,0.6042217534255714,1
1503958529268,+0.883,+0.265,+0.135,+0.363,+0.611,-0.039,-0.812,+2.188,-5.375,+1.500,-3, -9, 2, -5, -2, 0, -2, -3,2.347146539523115,0.6023853064967949,1
1503958529284,+0.883,+0.264,+0.136,+0.363,+0.604,-0.054,-0.793,+2.438,-7.688,+0.500,0, 4, -3, -3, -1, 0, 0, 3,2.346209245047166,0.6012345638278342,1
1503958529306,+0.884,+0.264,+0.136,+0.362,+0.586,-0.051,-0.792,-0.625,-2.438,+2.688,0, -1, -1, -4, -1, 0, 0, 2,2.3494625280317245,0.6014459024157899,1
1503958529329,+0.884,+0.264,+0.136,+0.362,+0.602,-0.040,-0.810,-0.375,+1.438,+3.750,-6, -3, 2, 2, 3, -3, -2, -2,2.3494625280317245,0.6014459024157899,1
1503958529344,+0.884,+0.263,+0.136,+0.362,+0.608,-0.048,-0.818,+1.125,-1.688,+2.375,1, 8, 2, -1, -1, 0, -2, -6,2.348902727146829,0.5993892456458871,1
1503958529366,+0.884,+0.262,+0.136,+0.362,+0.608,-0.059,-0.788,-0.375,-7.688,+1.562,0, -1, 2, 1, 0, -2, -1, -1,2.3483447350269664,0.59733431804667,1
1503958529389,+0.885,+0.261,+0.136,+0.361,+0.604,-0.057,-0.789,-0.562,-6.625,+3.188,1, 7, 2, -3, 0, 0, -1, 1,2.351048194057945,0.5954883925373651,1
1503958529404,+0.885,+0.260,+0.136,+0.361,+0.588,-0.052,-0.824,+0.375,-2.938,+4.312,-2, 21, -21, -5, -2, -3, -1, -4,2.350497838054047,0.5934355695173126,1
1503958529426,+0.886,+0.259,+0.137,+0.360,+0.584,-0.055,-0.820,+1.188,-6.250,+4.000,-12, -23, -1, 3, -1, -2, -2, -7,2.3528456944674625,0.5924924785900059,1
1503958529451,+0.886,+0.258,+0.137,+0.360,+0.599,-0.063,-0.789,+0.562,-7.125,+6.875,2, -4, 4, 0, -6, 0, -1, 2,2.3523042530263933,0.5904417355782643,1
1503958529464,+0.887,+0.257,+0.137,+0.358,+0.580,-0.079,-0.801,-2.438,-1.688,+10.125,5, 19, 2, -3, -3, -3, -1, 1,2.3562837793230695,0.5883643594315755,1
1503958529486,+0.887,+0.258,+0.137,+0.356,+0.562,-0.067,-0.830,-4.000,+4.375,+8.750,-3, -13, -3, 5, 3, 1, 0, -4,2.359338772336107,0.5899589858969443,1
1503958529508,+0.888,+0.258,+0.138,+0.355,+0.584,-0.053,-0.812,-3.688,+5.062,+6.375,-6, -33, 5, -1, -2, 0, -1, -4,2.3622344874547747,0.5910581181015452,1
1503958529525,+0.888,+0.259,+0.138,+0.355,+0.616,-0.053,-0.803,-2.312,+1.000,+3.375,3, 5, 2, -3, -1, 1, -3, -18,2.3627652334482354,0.593112614754137,1
1503958529547,+0.888,+0.259,+0.137,+0.354,+0.603,-0.049,-0.798,-2.875,-0.062,+1.812,8, -19, 3, -6, 0, -2, -2, 6,2.364401716679152,0.5919871775817537,1
1503958529568,+0.888,+0.260,+0.137,+0.354,+0.574,-0.038,-0.801,-2.562,+4.125,+1.125,-1, -3, -2, -2, -7, 1, -1, 0,2.3649350410715666,0.5940437080862865,1
1503958529585,+0.887,+0.261,+0.137,+0.354,+0.592,-0.043,-0.806,-2.312,+9.375,-1.062,-2, -13, 8, 6, 3, 0, -3, 1,2.363481718660364,0.5956691533532551,1
1503958529607,+0.886,+0.263,+0.138,+0.355,+0.638,-0.039,-0.807,+0.000,+9.562,-5.438,-1, -18, -4, -1, -4, 1, -1, -9,2.360933535749965,0.6004784967165464,1
1503958529628,+0.886,+0.264,+0.138,+0.356,+0.647,-0.037,-0.796,+1.688,+4.125,-7.250,-13, 20, -5, 4, 0, -2, 1, -12,2.3602197182615985,0.6027672547215387,1
1503958529645,+0.885,+0.265,+0.139,+0.357,+0.650,-0.052,-0.811,+2.125,+0.812,-7.500,6, 5, 0, 2, -5, 0, 3, 5,2.357143189339922,0.605524139698042,1
1503958529670,+0.884,+0.265,+0.139,+0.358,+0.613,-0.061,-0.809,+3.375,+1.562,-7.562,2, 8, -12, -10, -4, -1, 0, 0,2.353888072045093,0.6053165874314815,1
1503958529691,+0.884,+0.265,+0.140,+0.359,+0.609,-0.056,-0.818,+5.375,+5.125,-3.375,1, -31, 6, -3, 4, 0, -1, 6,2.3522646781093934,0.6064549688094684,1
1503958529705,+0.883,+0.266,+0.143,+0.359,+0.634,-0.066,-0.820,+9.438,+11.500,+2.938,-5, -3, 2, 3, -1, -1, -3, -1,2.349688373455374,0.6108220005576119,1
1503958529727,+0.883,+0.267,+0.146,+0.358,+0.657,-0.076,-0.850,+12.812,+9.562,+6.125,-22, -45, -7, 23, 6, -3, -2, -11,2.3503623064417662,0.6154097205132262,1
1503958529749,+0.883,+0.266,+0.149,+0.357,+0.655,-0.078,-0.821,+13.500,+1.000,+10.000,-1, -2, 7, 9, 5, 0, 0, -7,2.349927824271792,0.6158859936182746,1
1503958529764,+0.883,+0.265,+0.152,+0.357,+0.610,-0.088,-0.777,+16.438,-1.312,+10.188,-1, 20, -1, -4, -1, -2, 0, -3,2.3482604326282472,0.6166249615106204,1
1503958529789,+0.883,+0.264,+0.156,+0.356,+0.579,-0.102,-0.797,+16.875,+8.438,+9.938,6, 10, -2, -19, -2, -1, 0, 9,2.347474535647125,0.6180782022866012,1
1503958529808,+0.883,+0.265,+0.159,+0.355,+0.587,-0.097,-0.799,+12.938,+12.812,+10.125,3, -32, -6, -21, -10, -3, -3, 1,2.3481352923645233,0.6227263359795528,1
1503958529831,+0.882,+0.266,+0.162,+0.354,+0.621,-0.116,-0.766,+10.938,+13.500,+6.625,9, 12, 2, -13, -15, -1, 0, 1,2.3467629516779147,0.6269584116756824,1
1503958529846,+0.881,+0.268,+0.166,+0.353,+0.608,-0.129,-0.753,+10.562,+20.438,+4.000,6, 18, 4, -15, -6, 1, -3, 1,2.3455390835273344,0.6342373110146313,1
1503958529868,+0.880,+0.270,+0.168,+0.353,+0.621,-0.097,-0.762,+10.625,+18.812,-0.562,2, -5, 2, -3, -9, 2, -1, 2,2.3438248665986166,0.6398763390506141,1
1503958529891,+0.878,+0.272,+0.171,+0.354,+0.618,-0.120,-0.753,+9.062,+17.375,-5.812,9, -7, 19, -6, 1, -2, -4, 5,2.3384576122920926,0.6463480117512694,1
1503958529913,+0.877,+0.275,+0.173,+0.355,+0.607,-0.089,-0.753,+7.750,+18.000,-7.750,-7, -27, -17, -9, 5, -2, -4, 3,2.33607964739322,0.6543723010826262,1
1503958529928,+0.875,+0.277,+0.174,+0.356,+0.593,-0.100,-0.753,+4.750,+21.562,-6.750,-1, 45, -11, 7, -3, 0, 1, -3,2.331494791581753,0.658909133127703,1
1503958529958,+0.874,+0.281,+0.176,+0.356,+0.635,-0.094,-0.760,+2.938,+23.688,-5.250,9, -7, -5, 1, -6, 1, 6, 2,2.330948127093077,0.6687717640831065,1
1503958529966,+0.872,+0.285,+0.177,+0.356,+0.638,-0.078,-0.745,-0.875,+26.562,-2.500,12, 7, 9, -1, 2, -1, -4, 0,2.328773060681528,0.6772150541298242,1
1503958529992,+0.871,+0.288,+0.178,+0.356,+0.670,-0.088,-0.738,-1.125,+18.062,-3.375,-21, -4, 13, -10, 2, 3, 1, -8,2.3280978918307214,0.6840354501221872,1
1503958530011,+0.870,+0.290,+0.178,+0.357,+0.676,-0.071,-0.728,-3.250,+11.000,-7.562,6, 37, -3, 6, -8, -5, -1, 3,2.3260419443868097,0.6880441231465875,1
1503958530026,+0.869,+0.292,+0.177,+0.357,+0.653,-0.050,-0.754,-3.375,+7.750,-6.188,0, 1, 6, 10, -1, 0, -3, 7,2.3256035594571993,0.6907711165281804,1
1503958530048,+0.869,+0.293,+0.176,+0.357,+0.632,-0.058,-0.734,-5.812,+6.938,-2.938,-29, 27, 3, -18, -17, -5, -8, -8,2.326620482066632,0.6918612508678025,1
1503958530064,+0.869,+0.295,+0.175,+0.358,+0.654,-0.047,-0.749,-6.688,+10.125,-3.250,0, -6, -6, 14, 12, 4, 8, -12,2.327062967586379,0.6953245262500689,1
1503958530089,+0.868,+0.297,+0.174,+0.357,+0.658,-0.059,-0.749,-8.688,+9.562,-2.750,12, 1, -10, 9, 12, 9, 0, -3,2.3278724744825654,0.6978007611579008,1
1503958530108,+0.868,+0.298,+0.173,+0.358,+0.681,-0.073,-0.730,-7.875,+3.375,-4.375,3, -22, -9, -20, -20, 1, 1, 4,2.3277149542279916,0.6991727907659255,1
1503958530126,+0.868,+0.299,+0.172,+0.358,+0.673,-0.053,-0.750,-6.375,+1.438,-3.812,-15, -24, -2, -4, 7, -5, -4, 3,2.328758706138487,0.7002816549421038,1
1503958530146,+0.868,+0.299,+0.171,+0.358,+0.655,-0.062,-0.765,-6.812,+2.438,-1.438,11, -13, 8, -4, 0, 0, -3, 2,2.329171051683168,0.699288723757772,1
1503958530168,+0.868,+0.300,+0.170,+0.358,+0.682,-0.070,-0.739,-6.062,+0.625,+0.188,5, 13, 3, -1, -3, -3, 3, -11,2.330220708016727,0.7004049421464709,1
1503958530184,+0.868,+0.300,+0.170,+0.357,+0.694,-0.083,-0.747,-4.625,+2.000,+2.812,6, -8, -6, -3, -21, -4, -13, 11,2.3314203464781853,0.700144115034412,1
1503958530206,+0.868,+0.300,+0.169,+0.356,+0.692,-0.078,-0.732,-5.625,-2.375,+4.125,-9, -1, -3, 2, 19, -6, -2, -3,2.3330393932439017,0.6988983938822321,1
1503958530228,+0.869,+0.300,+0.169,+0.355,+0.688,-0.081,-0.719,-5.125,-3.125,+5.125,0, -9, 7, 3, 6, 0, 3, 4,2.3362725425869595,0.6990996371889179,1
1503958530251,+0.869,+0.300,+0.169,+0.354,+0.678,-0.087,-0.735,-5.875,-0.125,+4.625,-5, 15, 5, 11, 19, 5, 2, -9,2.3374827535419387,0.6988400052209094,1
1503958530267,+0.870,+0.300,+0.168,+0.354,+0.673,-0.070,-0.730,-6.438,+0.500,+4.750,-7, 15, -5, 3, -1, 2, 2, -13,2.3399187042725997,0.6983221146056031,1
1503958530290,+0.870,+0.301,+0.168,+0.352,+0.697,-0.055,-0.730,-6.125,+2.500,+6.688,10, -17, -5, -8, 0, -3, 0, 13,2.3429808888773094,0.6999182364441218,1
1503958530311,+0.871,+0.301,+0.167,+0.351,+0.695,-0.071,-0.733,-6.438,-2.938,+9.000,-8, -8, 3, -12, 0, -2, -2, 8,2.3466291083260784,0.6991507828788,1
1503958530327,+0.872,+0.300,+0.167,+0.349,+0.683,-0.091,-0.746,-5.000,-3.125,+8.312,13, 4, 6, -15, -1, -4, -4, 9,2.350456852888932,0.6969846285449666,1
1503958530348,+0.872,+0.300,+0.167,+0.348,+0.661,-0.072,-0.749,-4.125,-1.188,+7.000,6, 12, -16, 9, 9, -3, -16, -7,2.351688454832087,0.69672761066398,1
1503958530371,+0.873,+0.300,+0.167,+0.347,+0.688,-0.069,-0.756,-3.312,+1.750,+7.750,-12, -13, 9, -14, -5, 0, -3, -24,2.3549153485676806,0.6969323105151535,1
1503958530386,+0.873,+0.300,+0.167,+0.345,+0.703,-0.098,-0.744,-2.500,-1.000,+10.188,2, -30, 4, -5, -8, 0, 2, 4,2.357394352001995,0.6964181191300897,1
1503958530408,+0.874,+0.299,+0.167,+0.344,+0.691,-0.115,-0.737,-2.062,-5.375,+8.312,-4, 0, -5, 1, -16, -3, -1, -8,2.3600133803401757,0.6945053790997889,1
1503958530431,+0.875,+0.298,+0.167,+0.343,+0.645,-0.090,-0.744,-1.812,-5.125,+6.875,6, -7, 3, 0, -18, -2, 3, 8,2.362637495084348,0.6925920053434953,1
1503958530446,+0.875,+0.298,+0.167,+0.342,+0.652,-0.061,-0.749,-1.688,+3.188,+7.750,-10, -11, 9, -3, 11, 1, 9, -12,2.3638893251320017,0.6923339068285357,1
1503958530476,+0.875,+0.299,+0.168,+0.341,+0.682,-0.096,-0.722,-2.812,+7.812,+8.000,2, 3, -1, 7, -1, 1, 4, 9,2.3653168905627484,0.6951504840053052,1
1503958530492,+0.875,+0.300,+0.169,+0.339,+0.706,-0.129,-0.715,-3.375,+3.062,+4.438,1, 16, -4, -4, -6, -2, 1, 4,2.368001324703152,0.6977095177575198,1
1503958530507,+0.875,+0.301,+0.169,+0.339,+0.671,-0.108,-0.729,-5.750,+2.000,+1.562,-5, -20, -3, -1, -2, 0, -2, -3,2.368602197653781,0.6998318989317659,1
1503958530529,+0.875,+0.301,+0.168,+0.339,+0.648,-0.078,-0.737,-5.500,+4.125,-0.125,5, 27, 11, 3, -1, 1, -1, 1,2.3690353482269915,0.6988751266310876,1
1503958530551,+0.875,+0.303,+0.168,+0.338,+0.685,-0.063,-0.763,-3.375,+8.250,+0.750,8, 7, 1, 1, -1, -2, 1, -1,2.3715038801984747,0.7028677394329796,1
1503958530567,+0.875,+0.304,+0.168,+0.338,+0.691,-0.082,-0.746,-2.875,+5.875,+2.688,-3, 3, -9, 8, 11, 2, -3, 4,2.3721097144948153,0.7049958031539034,1
1503958530592,+0.875,+0.304,+0.168,+0.337,+0.687,-0.118,-0.724,-4.062,+1.688,+1.250,1, -12, 2, 2, 5, -1, 1, 1,2.3733720705687515,0.7047388684215206,1
1503958530611,+0.875,+0.304,+0.168,+0.337,+0.629,-0.106,-0.735,-3.750,+3.875,-2.250,-13, -15, -19, 2, -10, 0, -2, -3,2.3733720705687515,0.7047388684215206,1
1503958530628,+0.875,+0.305,+0.168,+0.337,+0.650,-0.049,-0.752,-1.875,+8.125,-0.750,4, -1, 1, -1, 21, 1, 2, 3,2.3739786855750236,0.7068691652018974,1
1503958530649,+0.874,+0.306,+0.168,+0.337,+0.687,-0.067,-0.736,-2.000,+6.625,+3.312,2, -6, -4, -14, -13, -1, -2, -4,2.3726346443548714,0.7085347955655275,1
1503958530671,+0.874,+0.307,+0.168,+0.336,+0.710,-0.111,-0.719,-2.688,-0.750,+0.938,5, -9, -8, -9, -7, -1, 2, 5,2.3745115217999073,0.7104122626033901,1
1503958530688,+0.875,+0.306,+0.168,+0.336,+0.675,-0.097,-0.720,-3.375,-3.000,-0.875,-15, 37, 17, 13, 7, -1, 0, -9,2.375850833550294,0.7087451702162042,1
1503958530709,+0.875,+0.306,+0.167,+0.336,+0.650,-0.069,-0.748,-3.250,-1.812,-0.125,2, 1, 1, -4, -4, -3, 8, 6,2.3762936341259953,0.7077953517978857,1
1503958530731,+0.875,+0.306,+0.167,+0.336,+0.673,-0.069,-0.739,-3.562,+2.938,+1.312,-1, -14, -4, 0, -9, -1, 0, 2,2.3762936341259953,0.7077953517978857,1
1503958530747,+0.875,+0.307,+0.167,+0.335,+0.702,-0.095,-0.726,-3.500,+3.000,+3.250,-5, -3, 6, 6, 6, 0, 0, -3,2.378171220300989,0.7096753840474367,1
1503958530769,+0.875,+0.307,+0.167,+0.335,+0.674,-0.112,-0.722,-4.438,+0.875,+2.562,7, -6, -10, 11, -7, -3, 2, -1,2.378171220300989,0.7096753840474367,1
1503958530793,+0.875,+0.307,+0.166,+0.335,+0.689,-0.083,-0.715,-3.500,-3.875,+0.125,-4, -17, 4, 2, 7, -1, -3, 5,2.378616690068016,0.708729695438916,1
1503958530807,+0.876,+0.307,+0.166,+0.334,+0.676,-0.071,-0.741,-3.812,-1.625,+0.562,-3, 2, -2, 5, 13, 1, -4, -2,2.3818266283352383,0.7089445395577948,1
1503958530829,+0.876,+0.306,+0.165,+0.334,+0.675,-0.076,-0.739,-4.000,-2.188,+2.875,-5, -12, -5, 1, -2, -3, -12, -9,2.3816659815434487,0.7058672794484852,1
1503958530851,+0.876,+0.306,+0.165,+0.334,+0.695,-0.088,-0.736,-2.812,-4.000,+2.625,1, -5, 3, -16, 1, 2, -1, -6,2.3816659815434487,0.7058672794484852,1
1503958530868,+0.877,+0.305,+0.164,+0.333,+0.691,-0.098,-0.729,-4.000,-5.875,+2.000,8, 11, 13, -8, -5, 2, 3, 4,2.3847192306131557,0.7030103412178784,1
1503958530889,+0.877,+0.305,+0.164,+0.333,+0.650,-0.091,-0.729,-6.125,-3.688,+0.938,-1, -5, -8, 1, -4, -5, -5, -3,2.3847192306131557,0.7030103412178784,1
1503958530911,+0.878,+0.304,+0.163,+0.333,+0.671,-0.060,-0.739,-5.688,-2.500,+2.000,-4, 12, -2, 6, 5, -3, -3, 5,2.3864932299701658,0.7004090131533798,1
1503958530927,+0.878,+0.304,+0.162,+0.332,+0.691,-0.063,-0.757,-4.500,-4.875,+1.125,-4, -11, 0, -4, 5, 0, 1, -1,2.388221305915418,0.6992290362392514,1
1503958530949,+0.878,+0.303,+0.161,+0.332,+0.698,-0.073,-0.744,-4.250,-8.688,+0.875,1, -23, -16, -1, -3, -2, 8, -3,2.3880683188119254,0.6961687374355926,1
1503958530971,+0.879,+0.302,+0.160,+0.332,+0.688,-0.095,-0.725,-4.875,-12.000,+1.438,-3, 22, 0, -2, -5, 1, -3, -3,2.3898426317184804,0.6935789952444466,1
1503958530987,+0.880,+0.300,+0.159,+0.332,+0.672,-0.100,-0.728,-5.625,-13.812,-0.812,-1, -12, 1, -5, -6, 1, -2, -2,2.3910254833439253,0.6888633417973369,1
1503958531009,+0.881,+0.298,+0.157,+0.332,+0.667,-0.078,-0.748,-7.188,-13.438,-0.125,0, 9, 4, -8, -17, -4, -3, 1,2.3926529537771075,0.6832392475253996,1
1503958531031,+0.882,+0.297,+0.155,+0.332,+0.646,-0.077,-0.745,-9.500,-11.688,-0.625,2, -2, 1, -18, 0, -1, -4, -2,2.394862170646297,0.6797545478868341,1
1503958531047,+0.882,+0.296,+0.154,+0.332,+0.667,-0.075,-0.732,-8.875,-8.938,-0.938,-8, -1, 1, -1, 3, 2, 0, -2,2.394718041359644,0.676723308821129,1
