Timestamp,Orientation X,Orientation Y,Orientation Z,Orientation W,Accelerometer X,Accelerometer Y,Accelerometer Z,Gyroscope X,Gyroscope Y,Gyroscope Z,EMG1,EMG2,EMG3,EMG4,EMG5,EMG6,EMG7,EMG8
1503604435831,-0.872,-0.445,+0.030,+0.204,+0.804,-0.098,-0.575,-8.562,-7.562,-1.875,10, -1, -2, 0, 1, 2, -1, 3
1503604435847,-0.872,-0.443,+0.030,+0.204,+0.712,-0.123,-0.588,-3.562,-5.062,-1.375,-22, 24, 15, 1, 28, 10, -5, 10
1503604435869,-0.873,-0.442,+0.031,+0.203,+0.744,-0.109,-0.584,-5.125,-1.500,-9.250,21, -8, -1, 2, -8, -4, -2, -1
1503604435891,-0.874,-0.441,+0.033,+0.201,+0.804,-0.095,-0.576,-3.812,-5.062,-12.625,-14, -1, -11, -3, -14, -2, -1, -3
1503604435908,-0.875,-0.441,+0.034,+0.200,+0.820,-0.113,-0.565,-2.688,-2.375,-12.812,25, 8, -3, -2, -11, -3, -6, 2
1503604435930,-0.875,-0.440,+0.035,+0.197,+0.782,-0.077,-0.592,+0.125,-2.125,-15.688,-14, 5, -3, -5, -6, -12, -10, -13
1503604435951,-0.876,-0.440,+0.036,+0.195,+0.802,-0.090,-0.575,+1.812,-0.250,-14.938,-2, 2, -2, 1, 50, 15, -6, -15
1503604435968,-0.876,-0.440,+0.037,+0.193,+0.826,-0.121,-0.551,-1.562,+3.250,-10.812,0, -16, -15, -3, 0, -3, 2, -8
1503604435989,-0.876,-0.441,+0.038,+0.192,+0.830,-0.097,-0.556,-5.125,+3.000,-10.312,-25, -39, -13, -3, 9, 10, 5, -2
1503604436013,-0.876,-0.441,+0.040,+0.190,+0.845,-0.076,-0.536,-5.188,+0.438,-10.500,-27, 0, -4, 0, 19, 5, -6, -4
1503604436027,-0.877,-0.440,+0.041,+0.189,+0.839,-0.089,-0.538,-3.438,-7.375,-8.375,22, 1, -5, 0, 4, -10, -4, 15
1503604436050,-0.877,-0.440,+0.042,+0.188,+0.865,-0.093,-0.540,-6.750,-8.125,-7.125,-2, -4, 4, -3, -3, -2, -2, -10
1503604436076,-0.878,-0.438,+0.043,+0.188,+0.853,-0.056,-0.549,-7.000,-10.500,-4.875,-7, -2, -3, -5, -5, -5, -6, -14
1503604436089,-0.879,-0.436,+0.043,+0.188,+0.854,-0.087,-0.557,-4.875,-18.375,-1.312,7, 6, -3, -3, -15, -1, 2, -8
1503604436109,-0.880,-0.433,+0.043,+0.189,+0.812,-0.083,-0.559,-7.188,-17.938,+4.375,5, -1, 1, 0, -1, 6, 3, 7
1503604436131,-0.881,-0.430,+0.043,+0.191,+0.790,-0.081,-0.571,-9.438,-20.062,+8.750,-1, -4, -3, -1, 4, -3, 1, -3
1503604436148,-0.882,-0.428,+0.043,+0.194,+0.784,-0.105,-0.593,-8.125,-16.312,+13.375,-10, 3, -7, -3, 2, -3, -4, -8
1503604436170,-0.883,-0.425,+0.043,+0.196,+0.781,-0.091,-0.611,-10.375,-17.188,+9.625,2, -8, -4, 1, 40, 17, -2, -5
1503604436192,-0.883,-0.423,+0.043,+0.199,+0.780,-0.102,-0.594,-12.375,-10.062,+12.812,13, 1, 2, -1, -29, -14, 1, 15
1503604436215,-0.883,-0.421,+0.044,+0.202,+0.789,-0.094,-0.597,-16.625,-10.312,+11.188,-15, -15, -2, -2, -7, -7, 7, 6
1503604436229,-0.884,-0.419,+0.047,+0.204,+0.780,-0.066,-0.599,-21.500,-9.188,+8.312,1, -1, -4, 0, -17, -7, 4, 4
1503604436252,-0.884,-0.416,+0.047,+0.207,+0.776,-0.083,-0.616,-14.812,-12.938,+10.062,20, -5, -4, 0, 0, 3, 0, 0
1503604436274,-0.885,-0.414,+0.049,+0.209,+0.749,-0.068,-0.609,-15.125,-10.250,+5.000,-12, 0, 3, 0, -5, -9, -4, -11
1503604436289,-0.885,-0.412,+0.051,+0.210,+0.784,-0.058,-0.598,-15.188,-13.000,+2.750,-12, -12, -1, 0, -8, -4, 0, 2
1503604436311,-0.886,-0.409,+0.051,+0.212,+0.771,-0.064,-0.639,-11.750,-14.375,+5.812,-43, -5, -7, -1, -1, 0, -2, -69
1503604436334,-0.887,-0.407,+0.052,+0.212,+0.731,-0.044,-0.638,-9.375,-10.875,+0.438,-12, 0, 4, 2, 8, -1, -4, 7
1503604436351,-0.887,-0.405,+0.053,+0.213,+0.748,-0.054,-0.657,-5.000,-7.312,+3.000,-1, 2, 3, 1, -5, -3, -2, -3
1503604436371,-0.888,-0.405,+0.053,+0.214,+0.735,-0.069,-0.649,-3.500,-1.938,+2.938,-21, -7, 4, 3, 12, 10, 4, 1
1503604436388,-0.888,-0.404,+0.053,+0.215,+0.723,-0.064,-0.645,-3.375,+1.875,+5.438,-3, 2, 0, 2, 33, 13, -1, -1
1503604436409,-0.887,-0.404,+0.053,+0.215,+0.730,-0.048,-0.632,-2.750,+0.188,+5.562,12, 8, 2, 1, 4, 2, -3, 0
1503604436431,-0.887,-0.404,+0.052,+0.216,+0.742,-0.074,-0.640,+1.188,-0.062,+3.625,-19, -6, -4, -2, -8, -5, -7, -21
1503604436451,-0.887,-0.405,+0.052,+0.216,+0.760,-0.081,-0.615,+1.750,+3.438,+2.750,-6, -5, -3, -4, -6, -6, -1, -4
1503604436469,-0.887,-0.406,+0.051,+0.216,+0.783,-0.063,-0.622,+2.688,+3.562,+2.188,5, -2, 1, 0, -8, -8, -2, -5
1503604436492,-0.886,-0.406,+0.051,+0.216,+0.777,-0.050,-0.628,+4.188,+4.688,+2.750,0, 6, 12, 5, 8, 4, -1, 1
1503604436508,-0.886,-0.408,+0.049,+0.215,+0.753,-0.043,-0.671,+12.562,+10.500,+4.375,11, 0, -4, -2, -5, -4, 2, 9
1503604436536,-0.885,-0.410,+0.047,+0.213,+0.710,-0.042,-0.631,+22.062,+14.000,+1.062,25, -1, -6, -3, -10, -2, 1, -8
1503604436552,-0.884,-0.414,+0.044,+0.212,+0.788,-0.116,-0.601,+20.875,+15.125,-1.250,-2, 1, 1, -1, 3, -7, -7, 0
1503604436574,-0.883,-0.418,+0.042,+0.211,+0.812,-0.102,-0.605,+14.312,+20.125,+6.625,10, 0, -4, -5, -1, -3, -3, 0
1503604436590,-0.881,-0.421,+0.040,+0.212,+0.817,-0.093,-0.564,+12.125,+13.938,+10.188,-12, -2, -3, -3, -9, -1, 2, 2
1503604436612,-0.880,-0.423,+0.037,+0.213,+0.845,-0.144,-0.544,+6.500,+4.688,+15.500,26, 13, 5, 3, 8, 5, 5, 4
1503604436634,-0.879,-0.423,+0.036,+0.216,+0.861,-0.131,-0.543,-1.500,-5.125,+18.750,-20, -21, -4, -2, -2, 9, 6, 1
1503604436654,-0.879,-0.423,+0.035,+0.218,+0.796,-0.062,-0.662,+2.500,+0.125,+19.750,-7, 7, 0, 2, 30, 15, 5, -2
1503604436672,-0.878,-0.424,+0.032,+0.220,+0.708,-0.083,-0.624,+12.750,+10.250,+20.938,4, 3, -8, -11, -30, -10, -4, 2
1503604436694,-0.876,-0.426,+0.027,+0.222,+0.783,-0.163,-0.552,+16.375,+4.688,+22.375,-4, -15, -7, -2, 6, -4, -9, -4
1503604436710,-0.875,-0.428,+0.025,+0.225,+0.877,-0.206,-0.533,+3.500,+1.938,+21.938,0, -7, -2, 1, -8, 3, -1, -1
1503604436732,-0.874,-0.428,+0.023,+0.228,+0.798,-0.177,-0.582,+2.062,-5.250,+17.750,5, 11, 1, -2, -25, -12, -1, -4
1503604436754,-0.875,-0.426,+0.021,+0.229,+0.730,-0.124,-0.615,+2.812,-8.312,+7.625,-7, 3, 6, 3, 6, -3, -1, -2
1503604436770,-0.876,-0.424,+0.019,+0.230,+0.802,-0.199,-0.571,+1.875,-18.688,+9.125,2, 2, -3, 0, -4, -3, -7, 3
1503604436793,-0.876,-0.422,+0.018,+0.234,+0.827,-0.183,-0.567,-10.938,-18.938,+25.312,-7, 2, -4, -5, 9, 5, -1, -3
1503604436814,-0.875,-0.420,+0.017,+0.239,+0.833,-0.087,-0.628,-9.000,-13.000,+32.688,-1, -11, -4, -3, 14, -6, -9, -6
1503604438675,-0.829,-0.521,+0.075,+0.191,+0.911,-0.051,-0.398,-35.875,-20.625,-3.000,-54, -18, -4, -2, 53, 14, -3, -17
1503604438699,-0.831,-0.516,+0.079,+0.194,+0.932,-0.047,-0.424,-35.750,-25.625,-2.125,-8, 6, 7, 0, -3, -10, -1, 6
1503604438711,-0.833,-0.511,+0.083,+0.197,+0.889,-0.025,-0.439,-33.188,-27.062,-1.938,-14, -13, -15, -4, -14, -4, -3, -34
1503604438736,-0.835,-0.506,+0.087,+0.199,+0.836,+0.010,-0.485,-26.750,-19.875,-4.125,17, 11, -2, -3, -14, -7, -7, 5
1503604438756,-0.836,-0.503,+0.090,+0.199,+0.876,-0.023,-0.484,-21.875,-13.875,-8.438,60, 9, 10, 4, -1, -1, 0, 1
1503604438771,-0.838,-0.499,+0.093,+0.200,+0.878,-0.056,-0.463,-21.438,-17.438,-10.938,-16, 11, 10, 3, -15, -3, 7, 7
1503604438794,-0.839,-0.497,+0.097,+0.201,+0.879,-0.034,-0.456,-21.000,-6.375,-7.625,10, 5, -6, -3, 0, 3, 9, 5
1503604438816,-0.839,-0.496,+0.099,+0.201,+0.864,+0.008,-0.489,-15.938,+0.812,-3.875,42, 15, 16, 6, 2, 6, 6, 15
1503604438839,-0.838,-0.496,+0.101,+0.201,+0.817,+0.015,-0.499,-9.062,+10.750,-3.375,13, -4, -11, -2, 1, 0, 2, 24
1503604438854,-0.837,-0.499,+0.103,+0.202,+0.961,-0.022,-0.426,-8.938,+14.938,+4.625,8, 12, 0, -3, -28, -9, -4, -10
1503604438876,-0.837,-0.499,+0.104,+0.201,+0.910,+0.012,-0.459,-5.750,+1.875,-7.812,-42, -13, 10, 1, -55, -21, -5, -18
1503604438891,-0.837,-0.498,+0.105,+0.201,+0.887,-0.009,-0.438,-4.062,-3.625,-4.375,10, -3, -8, -1, 16, 4, -6, 9
1503604438914,-0.838,-0.496,+0.106,+0.200,+0.887,+0.009,-0.416,-3.875,-9.625,-4.812,-21, -8, 2, 4, 88, 29, -3, -5
1503604438929,-0.839,-0.495,+0.106,+0.200,+0.871,-0.000,-0.444,-2.500,-5.438,-3.688,-16, -6, -2, -1, -8, -6, -8, -5
1503604438951,-0.838,-0.497,+0.097,+0.204,+0.784,-0.247,-0.437,+26.062,+0.000,+36.000,-20, -6, -4, -1, 0, -3, 2, 12
1503604438975,-0.835,-0.502,+0.101,+0.201,+0.960,+0.083,-0.408,-4.875,+32.375,-9.875,13, 0, -5, -5, 9, 10, -3, 3
1503604438996,-0.833,-0.506,+0.101,+0.201,+1.040,-0.017,-0.459,+4.062,+25.000,+3.688,-14, -5, -7, -3, -11, -8, -1, -13
1503604439011,-0.831,-0.509,+0.097,+0.202,+0.958,-0.179,-0.433,+15.438,+15.000,+12.500,7, 5, 0, -1, 1, 6, 4, 3
1503604439035,-0.830,-0.510,+0.093,+0.203,+0.972,-0.148,-0.503,+7.812,+8.312,+13.750,3, -14, -7, -6, -26, -8, 0, 1
1503604439056,-0.829,-0.512,+0.090,+0.206,+0.959,-0.076,-0.447,+8.188,+6.312,+21.250,-20, -15, -6, 1, -4, -3, -1, 2
1503604439072,-0.828,-0.514,+0.086,+0.208,+0.929,-0.144,-0.408,+13.938,+7.938,+23.812,-10, 0, -3, -5, -19, -7, -1, -9
1503604439094,-0.826,-0.517,+0.081,+0.210,+0.968,-0.149,-0.434,+13.500,+9.875,+24.375,-4, 1, 9, -2, -3, -1, -6, -12
1503604439116,-0.825,-0.518,+0.076,+0.213,+0.975,-0.124,-0.433,+15.250,+2.875,+27.875,-19, -3, -3, 1, 4, 10, 3, 12
1503604439131,-0.824,-0.519,+0.071,+0.216,+0.943,-0.127,-0.424,+17.375,-4.125,+30.500,21, 9, 2, 1, 5, -7, -8, 0
1503604439153,-0.824,-0.518,+0.065,+0.219,+0.862,-0.126,-0.446,+17.438,-6.000,+33.062,49, 7, 2, 1, -9, -4, -4, 4
1503604439176,-0.823,-0.520,+0.059,+0.222,+0.814,-0.107,-0.447,+20.125,+5.000,+34.188,2, -12, -3, -8, -9, -3, 2, 7
1503604439191,-0.822,-0.521,+0.053,+0.224,+0.871,-0.120,-0.417,+21.625,+6.625,+32.562,-4, 7, 10, 2, -47, -15, 2, -12
1503604439214,-0.821,-0.523,+0.047,+0.226,+0.926,-0.126,-0.402,+23.250,-0.750,+32.812,8, -3, -3, -2, -10, -6, -3, -7
1503604439236,-0.821,-0.522,+0.040,+0.228,+0.872,-0.118,-0.435,+26.250,-13.312,+34.125,-18, -1, -5, 0, -14, 3, 1, -2
1503604439251,-0.822,-0.519,+0.033,+0.231,+0.806,-0.108,-0.459,+28.875,-20.188,+35.438,-8, 5, 8, 7, 29, 14, -1, 5
1503604439274,-0.823,-0.517,+0.024,+0.233,+0.794,-0.123,-0.459,+30.375,-21.938,+37.812,8, 2, -5, -2, 38, 1, -1, -5
1503604439296,-0.824,-0.515,+0.016,+0.235,+0.804,-0.133,-0.441,+30.875,-20.000,+38.375,7, 0, 0, 0, 6, 1, 1, 2
1503604439311,-0.825,-0.512,+0.008,+0.238,+0.784,-0.140,-0.458,+31.000,-22.125,+36.812,-5, 4, 1, -2, 8, 4, -5, -25
1503604439336,-0.827,-0.509,+0.001,+0.239,+0.781,-0.133,-0.465,+31.250,-27.562,+34.875,11, 5, -2, 0, -14, -5, -1, 2
1503604439356,-0.829,-0.506,-0.007,+0.240,+0.777,-0.140,-0.452,+34.062,-27.312,+28.250,-23, -5, -5, 4, 68, 29, -3, -17
1503604439371,-0.830,-0.503,-0.014,+0.239,+0.781,-0.168,-0.445,+34.688,-27.062,+21.438,18, 3, 1, -2, -38, -21, -3, -10
1503604439394,-0.832,-0.501,-0.021,+0.238,+0.793,-0.188,-0.446,+33.188,-25.688,+15.938,4, 1, 4, 1, -3, -1, 2, 4
1503604439416,-0.834,-0.498,-0.026,+0.236,+0.788,-0.162,-0.454,+31.500,-26.625,+5.750,-7, -3, -6, -2, 0, 0, 1, 12
1503604439431,-0.837,-0.495,-0.031,+0.232,+0.786,-0.157,-0.458,+31.000,-27.438,-2.812,-6, -8, -4, -5, -14, -5, 1, -2
1503604439454,-0.839,-0.493,-0.034,+0.227,+0.786,-0.194,-0.434,+31.312,-21.438,-11.000,-1, 2, -1, -1, 16, -2, -6, 9
1503604439476,-0.841,-0.493,-0.037,+0.221,+0.807,-0.182,-0.409,+29.188,-13.312,-16.938,0, -1, 0, 1, -8, 5, -2, -3
1503604439491,-0.841,-0.495,-0.037,+0.214,+0.988,-0.259,-0.516,+27.875,+6.875,-32.438,-7, -17, -6, -4, -8, -3, -1, -1
1503604439521,-0.838,-0.505,-0.039,+0.203,+0.993,-0.390,-0.341,+43.188,+44.375,-54.188,-12, 6, 2, 3, -3, -2, 1, 4
1503604439537,-0.840,-0.504,-0.037,+0.195,+0.903,-0.041,-0.381,+21.625,-18.375,-33.188,5, 2, 1, -4, -1, -1, 0, 6
1503604439551,-0.844,-0.501,-0.036,+0.185,+0.797,-0.002,-0.545,+27.188,-20.125,-38.562,0, 0, 0, 0, 5, 2, -1, -1
1503604439581,-0.845,-0.503,-0.039,+0.177,+0.856,-0.276,-0.506,+36.875,+2.688,-38.125,4, 1, -2, -1, -8, -2, 2, 21
1503604439596,-0.846,-0.503,-0.040,+0.170,+0.939,-0.240,-0.496,+24.438,-4.375,-31.125,6, -1, 0, -2, -4, -2, 1, -7
1503604439611,-0.849,-0.502,-0.041,+0.163,+0.976,-0.145,-0.495,+25.812,-17.312,-28.312,-10, 2, 0, 0, -7, -1, -4, -9
1503604439634,-0.851,-0.500,-0.044,+0.157,+0.914,-0.162,-0.468,+30.375,-18.750,-14.625,-1, -3, -2, 1, -1, 2, -1, -3
1503604439656,-0.853,-0.497,-0.048,+0.153,+0.878,-0.201,-0.573,+35.000,-21.688,-10.062,-8, -3, -3, -5, -13, -4, -1, -9
1503604441832,-0.816,-0.577,-0.031,+0.012,+0.963,-0.064,-0.280,-26.188,-18.312,+19.812,2, 0, 0, 0, -13, -4, 2, -12
1503604441854,-0.818,-0.574,-0.029,+0.016,+0.926,-0.060,-0.286,-25.938,-20.625,+17.125,37, 3, 2, -3, 2, -3, -1, 7
1503604441876,-0.820,-0.572,-0.027,+0.022,+0.930,-0.059,-0.302,-27.688,-12.938,+20.438,-5, 0, 2, -3, -31, -12, -4, -11
1503604441892,-0.821,-0.570,-0.026,+0.028,+0.929,-0.058,-0.315,-29.625,-8.875,+24.625,-1, 12, 15, 3, -36, -21, 1, -27
1503604441914,-0.821,-0.569,-0.024,+0.033,+0.961,-0.056,-0.313,-27.938,-5.188,+22.125,-8, 2, 3, 4, 14, 8, 3, 2
1503604441936,-0.823,-0.567,-0.022,+0.038,+0.942,-0.058,-0.312,-25.125,-15.312,+18.188,-2, -1, -15, -8, 3, 0, 5, 16
1503604441953,-0.825,-0.563,-0.021,+0.042,+0.916,-0.074,-0.306,-22.812,-22.812,+16.688,19, 11, 9, 1, -22, -5, -3, 9
1503604441974,-0.825,-0.562,-0.020,+0.047,+0.903,-0.089,-0.307,-24.000,-5.375,+17.000,1, -5, -6, -2, -32, -15, 1, -9
1503604441996,-0.825,-0.562,-0.018,+0.051,+0.926,-0.077,-0.322,-21.625,-0.312,+18.812,-20, -5, 3, 1, 15, 11, -2, -28
1503604442012,-0.826,-0.561,-0.018,+0.056,+0.970,-0.098,-0.328,-19.062,-7.500,+18.438,-37, 15, 18, 6, 6, -1, -8, 11
1503604442034,-0.827,-0.558,-0.017,+0.060,+0.940,-0.118,-0.317,-19.062,-16.438,+15.250,3, -5, 5, 8, 20, 8, -1, -11
1503604442056,-0.829,-0.555,-0.017,+0.064,+0.921,-0.100,-0.322,-18.500,-20.562,+18.125,5, -9, -12, -5, 46, 13, 2, 8
1503604442073,-0.831,-0.552,-0.017,+0.068,+0.897,-0.113,-0.349,-18.438,-19.688,+20.438,-53, -5, -4, 2, 28, -1, -1, -11
1503604442095,-0.832,-0.550,-0.017,+0.073,+0.896,-0.122,-0.354,-17.375,-11.938,+23.125,6, -7, -4, 0, -4, 0, -1, 6
1503604442117,-0.833,-0.548,-0.018,+0.079,+0.935,-0.116,-0.358,-16.250,-13.312,+28.125,18, -1, -2, 0, 19, 13, 4, 17
1503604442133,-0.834,-0.546,-0.018,+0.084,+0.936,-0.119,-0.368,-15.438,-14.062,+29.750,5, -15, -7, -5, -25, -9, -4, -7
1503604442155,-0.835,-0.542,-0.020,+0.090,+0.907,-0.119,-0.380,-15.062,-20.188,+31.188,21, 9, -8, -5, -9, 0, 0, 8
1503604442177,-0.837,-0.539,-0.021,+0.095,+0.893,-0.116,-0.390,-14.000,-21.250,+32.562,4, -6, -4, 1, -1, -3, -3, 2
1503604442193,-0.838,-0.536,-0.022,+0.101,+0.881,-0.132,-0.396,-11.500,-17.188,+29.688,15, 7, 0, 7, -19, -13, 1, 0
1503604442215,-0.839,-0.533,-0.024,+0.105,+0.882,-0.127,-0.400,-10.562,-12.312,+28.250,-36, -7, -6, -8, -42, -13, -4, -4
1503604442237,-0.840,-0.531,-0.025,+0.110,+0.879,-0.111,-0.412,-9.188,-13.562,+28.062,18, -1, 2, -2, -14, -3, 0, 1
1503604442252,-0.841,-0.528,-0.026,+0.113,+0.878,-0.122,-0.403,-7.500,-17.000,+22.688,-7, -10, -5, -7, 25, 9, 0, -14
1503604442275,-0.844,-0.524,-0.027,+0.116,+0.875,-0.132,-0.412,-5.000,-25.938,+16.000,4, 4, 6, -3, 9, 1, -1, -7
1503604442298,-0.846,-0.520,-0.028,+0.117,+0.844,-0.132,-0.440,-2.438,-22.562,+10.250,-10, -10, -9, -7, 24, -1, -6, -22
1503604442312,-0.848,-0.516,-0.029,+0.118,+0.825,-0.134,-0.438,-1.625,-21.688,+11.625,24, -1, -8, -3, -3, 1, -1, 8
1503604442335,-0.850,-0.513,-0.030,+0.120,+0.832,-0.133,-0.427,-0.438,-23.250,+11.500,8, 3, 2, 6, 12, 6, 0, 11
1503604442358,-0.851,-0.510,-0.032,+0.120,+0.829,-0.154,-0.430,+2.812,-19.812,+4.438,-8, 3, 4, 5, 6, 3, 3, -3
1503604442378,-0.852,-0.508,-0.033,+0.119,+0.829,-0.172,-0.442,+4.812,-9.688,-0.375,4, -2, -8, -6, -11, -1, -3, -13
1503604442395,-0.853,-0.508,-0.034,+0.119,+0.906,-0.165,-0.425,+3.875,-4.688,+4.000,3, 1, 0, 1, -6, -1, 2, 12
1503604442417,-0.854,-0.506,-0.036,+0.116,+0.889,-0.314,-0.589,+16.312,-10.312,-17.812,-12, -3, 2, 6, -18, 0, 1, 9
1503604442438,-0.850,-0.513,-0.037,+0.111,+0.905,-0.377,-0.295,+14.188,+37.562,-33.875,26, 0, -2, -7, 16, 10, -1, -3
1503604442455,-0.851,-0.512,-0.036,+0.111,+0.958,-0.002,-0.391,-2.000,-13.875,+8.000,-26, -3, 1, 6, 12, 1, 1, -3
1503604442478,-0.853,-0.509,-0.036,+0.108,+0.854,-0.060,-0.491,+7.500,-15.562,-8.625,26, 3, 2, -3, -5, -3, 4, 22
1503604442499,-0.855,-0.507,-0.038,+0.107,+0.865,-0.284,-0.453,+9.500,-13.250,-9.500,19, 0, -1, -4, 2, -1, -1, -2
1503604442515,-0.855,-0.505,-0.039,+0.107,+0.897,-0.231,-0.440,-1.688,-12.562,+4.375,-6, -3, -4, -1, -5, 2, 0, 0
1503604442537,-0.857,-0.504,-0.038,+0.106,+0.822,-0.117,-0.426,-4.312,-9.562,-7.312,8, 2, 1, -3, 8, 8, 1, -5
1503604442552,-0.857,-0.503,-0.037,+0.105,+0.800,-0.114,-0.438,-2.250,-3.125,-5.062,9, -1, -3, -2, 4, -2, -3, 4
1503604442575,-0.857,-0.503,-0.036,+0.105,+0.859,-0.180,-0.442,-5.062,+1.250,-9.062,-29, -4, 0, 6, -6, -5, 0, -9
1503604442597,-0.857,-0.505,-0.034,+0.103,+0.975,-0.176,-0.401,-4.500,+3.375,-9.500,8, 1, 7, 7, 2, -2, -2, 0
1503604442612,-0.856,-0.505,-0.034,+0.103,+0.997,-0.165,-0.404,-3.188,-0.688,-4.812,-2, 1, -4, 1, 1, -4, -3, 0
1503604442635,-0.857,-0.504,-0.033,+0.103,+0.954,-0.132,-0.438,-2.312,-12.938,+2.000,4, -16, -13, -7, -3, 1, 0, 1
1503604442661,-0.858,-0.502,-0.034,+0.103,+0.911,-0.135,-0.463,+0.812,-15.875,+6.000,4, 11, 2, 1, 0, -3, 1, -1
1503604442678,-0.859,-0.500,-0.035,+0.105,+0.917,-0.142,-0.440,-2.188,-13.688,+17.312,0, -8, -3, -3, -4, -5, -1, 0
1503604442695,-0.859,-0.499,-0.037,+0.109,+0.902,-0.146,-0.469,-2.438,-6.500,+23.375,-2, -5, -4, -4, 19, 10, -6, -8
1503604442717,-0.859,-0.497,-0.039,+0.112,+0.882,-0.144,-0.471,-2.188,-9.000,+25.312,-20, 6, 7, 1, -8, -5, 0, -4
1503604442739,-0.861,-0.494,-0.041,+0.116,+0.851,-0.136,-0.484,-2.625,-18.375,+26.125,10, 3, -2, 9, -5, -1, 2, 4
1503604442755,-0.863,-0.490,-0.042,+0.118,+0.792,-0.152,-0.475,-1.875,-24.375,+17.062,6, 1, 1, -7, -5, -2, -2, 3
1503604442777,-0.865,-0.486,-0.043,+0.120,+0.746,-0.174,-0.474,-4.062,-23.562,+9.438,-2, 1, -3, -3, -7, -5, 1, -13
1503604442799,-0.866,-0.484,-0.043,+0.121,+0.742,-0.208,-0.458,-7.375,-9.562,+2.000,-1, -1, -2, -6, -90, -34, -5, -9
1503604442815,-0.865,-0.484,-0.042,+0.121,+0.781,-0.209,-0.452,-8.250,+3.562,-3.750,6, 0, 0, -1, -1, 0, 3, 17
1503604442837,-0.865,-0.486,-0.040,+0.120,+0.828,-0.197,-0.451,-9.125,+7.375,-10.438,2, 2, 3, 0, 19, 7, -1, -9
1503604442860,-0.865,-0.486,-0.037,+0.118,+0.880,-0.190,-0.467,-9.000,+3.375,-17.312,4, 0, 1, -1, 21, 8, 1, 5
1503604442875,-0.865,-0.486,-0.035,+0.117,+0.909,-0.197,-0.466,-9.125,-3.375,-14.375,-5, -6, -4, 2, 13, 5, -3, -4
1503604442897,-0.866,-0.486,-0.033,+0.116,+0.904,-0.188,-0.473,-9.625,-3.062,-10.688,9, -6, -2, 2, 11, 4, 1, 3
1503604442912,-0.865,-0.486,-0.032,+0.116,+0.904,-0.151,-0.477,-8.562,+1.188,-3.438,3, 13, 3, -5, 2, -2, -2, 12
1503604442935,-0.866,-0.486,-0.031,+0.116,+0.909,-0.141,-0.510,-4.750,-3.625,+4.250,-2, -12, -14, -7, -4, 0, 1, 0
1503604442957,-0.866,-0.484,-0.032,+0.118,+0.883,-0.156,-0.525,-1.688,-7.688,+8.062,6, 3, 8, 0, 2, 1, -1, -4
1503604442972,-0.867,-0.482,-0.034,+0.119,+0.848,-0.162,-0.533,+1.000,-11.938,+13.500,2, -4, -3, -2, 20, -1, -2, 2
1503604442995,-0.868,-0.480,-0.035,+0.121,+0.832,-0.178,-0.495,+1.062,-11.750,+15.938,-12, -4, -3, -2, -10, 0, -1, -4
1503604443017,-0.868,-0.480,-0.037,+0.124,+0.823,-0.189,-0.484,+0.312,-2.438,+17.062,11, -2, -4, -2, -3, -3, -1, -5
1503604443032,-0.867,-0.480,-0.039,+0.126,+0.823,-0.176,-0.492,+0.188,-0.562,+17.312,6, -4, -4, 1, -4, -1, -1, -7
1503604443054,-0.867,-0.479,-0.040,+0.128,+0.814,-0.169,-0.477,-0.562,-2.625,+11.375,3, -3, -5, -3, -3, -2, -4, -5
1503604443077,-0.868,-0.479,-0.040,+0.128,+0.812,-0.178,-0.468,+0.125,-3.938,+4.188,1, -1, -2, -2, -18, -4, 0, -2
1503604443094,-0.868,-0.478,-0.041,+0.128,+0.799,-0.200,-0.477,-0.812,-4.000,-1.125,2, -2, -3, -1, 26, 0, 0, 4
1503604443121,-0.868,-0.478,-0.040,+0.127,+0.791,-0.205,-0.468,-3.688,-0.438,-6.625,4, -8, -4, -4, 2, 0, -4, 9
1503604443137,-0.868,-0.479,-0.039,+0.126,+0.828,-0.207,-0.453,-5.250,+2.750,-11.875,20, -1, 3, 4, -13, -2, -1, 8
1503604443152,-0.868,-0.479,-0.037,+0.124,+0.854,-0.205,-0.500,-5.188,+2.625,-14.438,-2, 3, 3, 2, -5, 1, 1, -3
1503604443175,-0.868,-0.480,-0.035,+0.123,+0.884,-0.194,-0.491,-6.812,+2.812,-11.562,-9, -2, -3, -11, -1, 1, 0, 2
1503604443198,-0.868,-0.480,-0.034,+0.122,+0.891,-0.144,-0.501,-5.562,+1.500,-7.312,-3, 1, 2, 2, -3, -1, 1, 0
1503604443212,-0.868,-0.480,-0.033,+0.121,+0.870,-0.139,-0.521,-0.500,-2.938,-5.312,-13, -3, -4, -4, 1, 1, -2, -7
1503604443235,-0.869,-0.479,-0.033,+0.121,+0.879,-0.145,-0.508,+1.688,-6.250,-0.625,-7, -3, 4, -6, -6, -3, -3, -3
1503604443257,-0.869,-0.478,-0.034,+0.121,+0.874,-0.165,-0.516,+2.625,-6.500,+5.188,-3, 0, -3, 0, -2, -6, 0, -1
1503604443272,-0.869,-0.478,-0.036,+0.122,+0.852,-0.154,-0.491,+4.188,-4.188,+9.125,0, -2, 0, 8, -21, 2, 0, -3
1503604443296,-0.869,-0.478,-0.037,+0.122,+0.819,-0.159,-0.488,+5.125,+0.688,+10.188,-3, -9, -5, 4, 16, 6, -4, -13
1503604443317,-0.869,-0.478,-0.039,+0.123,+0.818,-0.187,-0.486,+5.062,+1.500,+7.188,7, 4, -2, -3, -1, 0, 1, 12
1503604443332,-0.868,-0.479,-0.040,+0.124,+0.828,-0.191,-0.476,+2.250,+3.812,+5.438,-15, -1, 3, 2, 8, -7, -3, -6
1503604443355,-0.868,-0.479,-0.040,+0.124,+0.813,-0.187,-0.474,-0.062,+4.750,+2.188,13, 0, -2, -7, -18, -8, -1, 2
1503604443377,-0.867,-0.480,-0.040,+0.124,+0.831,-0.185,-0.459,-2.000,+5.250,-2.188,-2, 3, -3, -1, -25, -2, 0, -8
1503604443392,-0.867,-0.482,-0.039,+0.123,+0.860,-0.199,-0.453,-5.188,+5.188,-5.688,1, -7, -2, 9, -4, -3, -1, 2
1503604443440,-0.867,-0.482,-0.037,+0.123,+0.883,-0.204,-0.474,-7.000,+4.062,-6.250,-4, 1, 2, -4, 19, 10, -1, -2
1503604443443,-0.867,-0.483,-0.036,+0.122,+0.864,-0.185,-0.479,-7.188,+0.500,-5.562,-1, 9, 8, -1, 7, -2, 1, -3
1503604443452,-0.867,-0.482,-0.035,+0.122,+0.834,-0.165,-0.496,-5.250,-4.000,-6.375,-6, -12, 1, 3, -2, -2, 0, 6
1503604443475,-0.867,-0.482,-0.034,+0.121,+0.839,-0.169,-0.494,-1.938,-1.938,-8.000,-6, 4, 3, 4, 2, -1, -3, -12
1503604443500,-0.867,-0.482,-0.034,+0.120,+0.840,-0.176,-0.499,-2.688,+2.312,-5.500,-4, -5, -3, -3, 24, 4, 2, -2
1503604443519,-0.867,-0.483,-0.033,+0.120,+0.882,-0.157,-0.498,-2.688,+7.188,-0.375,6, 4, -4, -3, -8, -4, -1, -2
1503604443536,-0.866,-0.484,-0.033,+0.120,+0.887,-0.143,-0.490,-1.125,+5.562,+1.375,-5, -7, -5, 0, 2, -2, 2, 0
1503604443556,-0.866,-0.484,-0.033,+0.120,+0.864,-0.141,-0.494,+1.500,-1.688,+1.500,-1, 8, 15, 13, 7, 6, 1, 6
1503604443579,-0.867,-0.483,-0.034,+0.119,+0.840,-0.164,-0.495,+3.500,-7.312,+0.562,0, -2, -4, -5, -19, 1, -2, 0
1503604443594,-0.867,-0.482,-0.034,+0.119,+0.811,-0.173,-0.480,+2.500,-3.875,-0.188,-5, 2, 3, 2, 34, 8, -2, -9
1503604443616,-0.867,-0.482,-0.034,+0.119,+0.801,-0.171,-0.475,+1.062,+2.375,-2.750,-4, -6, 2, -3, -11, -5, -1, -4
1503604447681,-0.872,-0.474,-0.045,+0.117,+0.812,-0.134,-0.575,+21.500,+20.000,-0.812,1, 4, 9, 2, 2, 2, 1, 2
1503604447698,-0.871,-0.476,-0.047,+0.114,+0.765,-0.123,-0.562,+21.062,+16.875,-1.062,-2, -5, 1, -1, 2, 0, -1, -1
1503604447719,-0.870,-0.478,-0.049,+0.113,+0.784,-0.129,-0.560,+18.188,+15.062,+0.312,-1, -3, -7, -6, -1, 0, 1, -4
1503604447742,-0.870,-0.478,-0.051,+0.112,+0.771,-0.142,-0.542,+13.812,+6.938,+1.000,-2, -2, -2, -1, 17, -2, 1, -1
1503604447757,-0.870,-0.478,-0.052,+0.110,+0.734,-0.141,-0.518,+12.312,+2.312,-2.312,3, 5, 3, 2, -7, -2, -2, -3
1503604447779,-0.870,-0.478,-0.053,+0.108,+0.742,-0.152,-0.514,+10.812,+2.875,-6.000,1, 2, -2, -9, -6, -2, 1, 3
1503604447803,-0.871,-0.477,-0.054,+0.107,+0.732,-0.175,-0.522,+9.188,+1.500,-5.562,30, -2, -3, 1, 0, 1, -2, -5
1503604447817,-0.871,-0.477,-0.055,+0.105,+0.779,-0.203,-0.469,+5.500,-6.625,-10.188,-30, -23, -14, -7, -4, -3, -1, -9
1503604447840,-0.873,-0.475,-0.055,+0.103,+0.789,-0.181,-0.475,+2.688,-13.938,-9.938,3, -7, -15, -7, -8, -4, -2, -3
1503604447863,-0.874,-0.473,-0.055,+0.101,+0.771,-0.196,-0.504,+1.812,-11.625,-10.125,13, 7, 1, -3, -2, -4, 0, 8
1503604447877,-0.874,-0.472,-0.055,+0.099,+0.802,-0.170,-0.521,+2.375,-1.062,-7.875,-5, 3, -7, -10, -3, 0, 0, 3
1503604447900,-0.875,-0.472,-0.055,+0.099,+0.877,-0.170,-0.542,+2.625,-3.938,-2.562,-31, -19, -6, -4, -3, 0, -1, -2
1503604447921,-0.876,-0.470,-0.055,+0.098,+0.878,-0.171,-0.520,+2.062,-13.750,-0.625,12, 14, -3, 2, 23, 14, 1, 0
1503604447938,-0.877,-0.467,-0.056,+0.098,+0.854,-0.159,-0.529,+4.438,-17.188,+3.938,-12, -7, -7, -8, -7, -5, 0, -2
1503604447961,-0.878,-0.466,-0.057,+0.097,+0.846,-0.179,-0.517,+4.938,-11.375,+2.375,-6, 3, 0, -1, -4, -4, 0, 0
1503604447982,-0.878,-0.465,-0.058,+0.097,+0.886,-0.185,-0.512,+4.938,-9.312,+0.938,8, -7, -7, -3, -3, -3, -2, 2
1503604448000,-0.878,-0.464,-0.060,+0.096,+0.885,-0.200,-0.517,+6.188,-8.938,+3.188,7, 0, -5, -4, -5, -3, 0, 3
1503604448033,-0.879,-0.464,-0.061,+0.097,+0.857,-0.217,-0.526,+4.438,-4.875,+5.000,5, -3, -1, -1, -3, -2, 0, 2
1503604448042,-0.878,-0.464,-0.062,+0.097,+0.852,-0.203,-0.524,+3.812,+1.312,+4.250,20, 9, 0, -1, -1, -1, 1, 0
1503604448057,-0.878,-0.464,-0.063,+0.097,+0.865,-0.190,-0.518,+3.500,+0.875,+3.438,-2, 13, 17, 19, 3, 2, 1, -2
1503604448080,-0.878,-0.465,-0.064,+0.096,+0.853,-0.183,-0.509,+5.250,+4.250,-1.750,-9, -8, -7, -5, 7, 1, -3, -7
1503604448102,-0.877,-0.466,-0.064,+0.095,+0.815,-0.170,-0.537,+7.375,+6.938,-5.312,-7, -2, 0, 1, -3, -3, -1, -1
1503604448117,-0.877,-0.467,-0.065,+0.092,+0.801,-0.167,-0.538,+9.375,+6.688,-9.312,-12, 4, 4, -1, 7, 1, -2, -5
1503604448139,-0.877,-0.468,-0.065,+0.090,+0.861,-0.155,-0.516,+9.750,+5.062,-7.312,9, -1, 9, 3, 0, 1, -3, 0
1503604448167,-0.876,-0.470,-0.066,+0.088,+0.831,-0.195,-0.504,+12.438,+7.438,-8.250,-19, -7, -4, -6, -8, 1, -3, -4
1503604448177,-0.875,-0.471,-0.068,+0.085,+0.809,-0.182,-0.500,+13.188,+8.125,-10.000,-10, -6, 0, 2, -32, -8, -2, -4
1503604448200,-0.875,-0.472,-0.069,+0.082,+0.814,-0.216,-0.486,+13.562,+5.188,-13.062,-4, -1, 6, 3, 27, 21, 0, -3
1503604448221,-0.874,-0.474,-0.070,+0.079,+0.810,-0.211,-0.475,+10.312,+8.125,-14.438,4, -2, -2, -5, -3, 1, 1, 7
1503604448237,-0.873,-0.477,-0.070,+0.077,+0.827,-0.190,-0.474,+6.875,+16.750,-11.500,2, 1, -6, 0, 19, 8, -1, -8
1503604448259,-0.872,-0.480,-0.070,+0.075,+0.849,-0.188,-0.492,+6.062,+16.750,-10.062,28, 8, 2, 3, -9, -5, 4, 15
1503604448281,-0.871,-0.481,-0.070,+0.073,+0.856,-0.179,-0.500,+7.875,+7.750,-12.062,-6, -8, -7, -3, -4, 0, -4, -4
1503604448301,-0.871,-0.482,-0.070,+0.070,+0.831,-0.176,-0.479,+8.500,+6.812,-15.000,4, -1, -2, -2, -5, 0, 4, 0
1503604448319,-0.870,-0.484,-0.070,+0.067,+0.840,-0.151,-0.486,+9.500,+13.500,-12.250,-8, -2, -10, -10, -4, 3, 2, -1
1503604448342,-0.868,-0.487,-0.070,+0.065,+0.865,-0.151,-0.479,+8.750,+15.188,-9.812,-10, 2, 1, -3, -2, -2, -2, -4
1503604448357,-0.867,-0.489,-0.071,+0.062,+0.886,-0.153,-0.453,+10.188,+9.688,-8.938,20, -2, -2, 1, 13, -4, -2, 7
1503604448379,-0.867,-0.490,-0.071,+0.059,+0.852,-0.194,-0.445,+10.812,+3.938,-13.812,7, -1, -1, -2, 5, 28, 2, 9
1503604448402,-0.867,-0.491,-0.071,+0.056,+0.847,-0.164,-0.441,+8.562,+4.688,-17.375,0, -6, 5, 8, -6, -9, 1, -7
1503604448417,-0.865,-0.493,-0.071,+0.054,+0.872,-0.175,-0.443,+4.125,+12.000,-13.375,-6, -8, -6, -5, -5, -9, -5, -12
1503604448440,-0.865,-0.495,-0.070,+0.052,+0.877,-0.157,-0.458,+4.312,+12.062,-11.875,-4, 5, 2, 4, 0, -9, 0, 8
1503604448461,-0.864,-0.497,-0.070,+0.049,+0.900,-0.161,-0.429,+4.188,+5.875,-14.250,-6, -4, -7, -5, -17, -7, 3, 4
1503604448477,-0.863,-0.498,-0.069,+0.047,+0.873,-0.168,-0.437,+1.375,+8.562,-12.000,-1, 5, 3, -7, -12, -4, 1, -13
1503604448503,-0.862,-0.500,-0.068,+0.045,+0.850,-0.131,-0.445,-0.312,+10.875,-14.250,-1, -9, -11, -9, -2, 2, -3, -6
1503604448522,-0.862,-0.501,-0.066,+0.043,+0.891,-0.123,-0.464,-1.062,+8.375,-10.875,3, 2, -3, -3, 15, 7, 0, 3
1503604448541,-0.861,-0.502,-0.065,+0.042,+0.878,-0.118,-0.434,-1.500,+6.375,-8.750,-6, 2, -2, 2, -12, -4, -1, -1
1503604448559,-0.861,-0.503,-0.064,+0.040,+0.956,-0.125,-0.427,-3.938,+4.938,-9.188,2, 2, 0, -1, -2, -1, 0, 1
1503604448581,-0.860,-0.505,-0.064,+0.041,+0.944,-0.101,-0.484,+0.312,+8.812,+5.000,7, 7, 5, 8, -23, -3, 2, -6
1503604448597,-0.859,-0.506,-0.064,+0.042,+1.029,-0.147,-0.418,-0.438,+0.562,+7.750,-10, 1, 5, -2, -17, -5, 1, 4
1503604448620,-0.860,-0.504,-0.066,+0.043,+0.926,-0.166,-0.461,+2.000,-13.562,+13.750,13, -6, -3, -1, -2, 3, 0, -15
1503604448642,-0.862,-0.501,-0.067,+0.045,+0.798,-0.149,-0.429,-2.000,-13.312,+13.438,-3, 1, 1, -1, 0, -8, -3, 7
1503604448657,-0.861,-0.502,-0.068,+0.048,+0.863,-0.186,-0.445,-9.250,+7.625,+15.812,-26, 4, 0, -6, 19, 5, 2, -1
1503604448680,-0.859,-0.504,-0.068,+0.053,+0.930,-0.175,-0.457,-10.625,+16.875,+25.875,-12, 8, 12, 2, -16, -3, 2, -2
1503604448703,-0.859,-0.504,-0.070,+0.058,+0.961,-0.162,-0.479,-7.438,+4.250,+31.312,0, -8, -4, 4, -4, -9, -2, 2
1503604448724,-0.859,-0.503,-0.072,+0.063,+0.898,-0.191,-0.453,-4.938,-7.312,+35.188,-1, 0, -2, -1, 4, -2, -1, 5
1503604448740,-0.859,-0.502,-0.075,+0.068,+0.799,-0.191,-0.447,-1.688,+0.188,+31.875,-18, 7, 4, 7, 43, 13, 1, 2
1503604448762,-0.858,-0.503,-0.077,+0.073,+0.836,-0.181,-0.454,-2.750,+13.938,+27.812,-32, -10, -5, -2, 11, 14, -2, 21
1503604448784,-0.856,-0.505,-0.078,+0.076,+0.865,-0.197,-0.432,-1.625,+12.125,+22.188,8, -9, -3, 1, -8, -17, -5, -26
1503604448803,-0.856,-0.505,-0.079,+0.077,+0.820,-0.202,-0.437,+0.000,+3.750,+11.000,22, 4, 4, 0, 25, -4, -1, -8
1503604448822,-0.856,-0.505,-0.080,+0.078,+0.765,-0.211,-0.412,-1.062,+4.125,+1.812,-6, -14, -18, -16, 15, 19, -6, 0
1503604448846,-0.855,-0.506,-0.079,+0.078,+0.788,-0.208,-0.411,-4.562,+10.062,-5.625,18, -8, -7, -6, -39, -19, 0, 4
1503604448870,-0.855,-0.508,-0.077,+0.077,+0.804,-0.205,-0.424,-5.562,+11.625,-11.625,57, 11, 2, -4, -25, 0, 5, 22
1503604448881,-0.854,-0.509,-0.075,+0.075,+0.826,-0.207,-0.414,-7.062,+5.875,-13.250,-7, -3, -3, -1, -15, -8, 0, 0
1503604448896,-0.855,-0.509,-0.073,+0.074,+0.831,-0.197,-0.415,-8.688,+1.812,-13.750,-6, -1, -1, 2, 32, 32, -1, -12
1503604448918,-0.855,-0.509,-0.070,+0.073,+0.830,-0.182,-0.433,-10.938,+2.438,-13.688,-13, -8, -6, -4, -8, -15, -6, 4
1503604448942,-0.855,-0.509,-0.068,+0.072,+0.862,-0.182,-0.437,-10.875,+0.812,-11.875,-16, -5, -1, 2, -9, -11, -3, -19
1503604448956,-0.856,-0.509,-0.065,+0.071,+0.884,-0.179,-0.441,-11.062,-2.750,-11.375,30, 10, 3, 1, -13, -13, 1, 22
1503604448980,-0.857,-0.507,-0.063,+0.070,+0.885,-0.190,-0.434,-10.250,-7.812,-10.375,41, 2, 0, 1, -5, -11, -7, 22
1503604452444,-0.868,-0.408,+0.016,+0.284,+0.891,-0.324,-0.610,+9.938,+3.938,-20.938,-2, -1, -10, -5, -2, 0, 1, 3
1503604452466,-0.867,-0.412,+0.013,+0.282,+0.856,-0.329,-0.625,+17.438,+12.375,-9.500,5, -3, -2, -2, 0, 0, -1, 2
1503604452482,-0.865,-0.416,+0.010,+0.281,+0.810,-0.303,-0.622,+18.875,+18.750,+1.062,6, 5, -3, -8, 0, -2, 0, -1
1503604452504,-0.863,-0.420,+0.007,+0.280,+0.783,-0.273,-0.596,+21.125,+20.750,+2.312,-4, -10, -5, -2, -3, -2, -1, -2
1503604452529,-0.861,-0.425,+0.005,+0.278,+0.799,-0.241,-0.590,+23.812,+22.062,+2.812,-1, -4, 2, -4, -1, -2, 0, -1
1503604452542,-0.859,-0.430,+0.002,+0.278,+0.802,-0.253,-0.594,+21.875,+26.000,+11.125,-6, -15, -16, -6, -2, -1, -1, -3
1503604452564,-0.856,-0.435,-0.000,+0.279,+0.753,-0.192,-0.593,+13.875,+29.562,+18.125,1, -9, -5, -3, -4, 0, -2, -3
1503604452585,-0.854,-0.439,-0.001,+0.281,+0.770,-0.185,-0.598,+9.562,+22.750,+19.188,3, 24, 45, 7, 3, -2, 0, 4
1503604452602,-0.852,-0.440,-0.002,+0.283,+0.770,-0.177,-0.618,+2.812,+10.875,+18.875,0, 12, -3, 4, 2, 2, 0, -4
1503604452624,-0.852,-0.439,-0.002,+0.286,+0.711,-0.139,-0.607,-3.250,+2.188,+19.938,5, -14, -15, -1, -1, -1, -1, -1
1503604452646,-0.851,-0.438,-0.002,+0.289,+0.668,-0.118,-0.588,-5.688,+1.688,+19.312,-17, -15, -6, 0, -2, -1, 0, -3
1503604452663,-0.851,-0.438,-0.001,+0.291,+0.665,-0.123,-0.570,-3.000,+7.500,+14.500,-9, -27, 4, 2, 4, 5, -1, -1
1503604452684,-0.850,-0.438,-0.000,+0.292,+0.664,-0.150,-0.571,-3.062,+6.625,+7.000,-23, 21, 0, 3, -18, -8, -2, -3
1503604452699,-0.850,-0.438,+0.001,+0.292,+0.690,-0.145,-0.568,-3.000,+4.000,+0.500,6, 6, 0, 0, 8, 0, 0, 1
1503604452722,-0.851,-0.438,+0.002,+0.291,+0.693,-0.155,-0.581,-2.938,+5.500,-4.188,11, 12, -4, 3, 1, -2, -3, 2
1503604452744,-0.851,-0.439,+0.004,+0.289,+0.706,-0.156,-0.607,+0.562,+8.750,-7.750,5, -6, -6, -8, -3, 0, -2, 0
1503604452759,-0.851,-0.439,+0.005,+0.287,+0.730,-0.230,-0.615,+1.750,+8.688,-12.750,3, 8, 12, 3, 2, 2, 2, 2
1503604452782,-0.852,-0.439,+0.006,+0.285,+0.808,-0.266,-0.583,-1.500,-1.812,-19.562,14, 13, 0, -5, 0, 1, -1, 0
1503604452805,-0.854,-0.437,+0.007,+0.282,+0.806,-0.284,-0.569,-6.812,-15.250,-18.250,-10, -3, -6, -14, -11, -6, -2, -9
1503604452826,-0.855,-0.435,+0.008,+0.282,+0.779,-0.296,-0.560,-9.125,-11.875,-11.312,1, 0, 3, 3, 3, 0, 0, 2
1503604452842,-0.856,-0.435,+0.009,+0.281,+0.805,-0.289,-0.575,-9.562,-5.562,-6.625,1, -18, -9, -1, 2, 0, -1, 0
1503604452864,-0.856,-0.433,+0.010,+0.281,+0.830,-0.274,-0.573,-9.500,-8.625,-4.562,-29, -10, -5, -5, 0, 1, -1, -3
1503604452886,-0.857,-0.432,+0.010,+0.281,+0.817,-0.245,-0.553,-5.688,-11.375,-6.625,12, -4, -10, 0, 0, 3, 1, -1
1503604452904,-0.858,-0.431,+0.010,+0.280,+0.802,-0.237,-0.572,-1.312,-7.938,-8.062,-15, -9, 5, -3, -1, -2, -2, -2
1503604452924,-0.858,-0.431,+0.010,+0.278,+0.768,-0.224,-0.602,+3.562,-1.875,-11.500,-10, -9, 2, 6, 1, -1, -1, 1
1503604452939,-0.859,-0.431,+0.011,+0.274,+0.781,-0.197,-0.608,+6.812,-0.125,-16.625,1, 8, 3, 5, 1, 2, 0, -2
1503604452964,-0.860,-0.432,+0.010,+0.271,+0.816,-0.213,-0.601,+10.812,-3.000,-17.125,7, 7, -4, -1, -2, -2, 0, 1
1503604452984,-0.861,-0.432,+0.009,+0.268,+0.785,-0.244,-0.588,+12.312,-3.188,-15.938,-5, -2, 2, 3, -1, -1, 1, 2
1503604453007,-0.862,-0.433,+0.008,+0.265,+0.770,-0.241,-0.571,+10.938,+2.625,-14.500,3, -2, -1, 7, -5, -4, -2, -3
1503604453022,-0.862,-0.434,+0.008,+0.262,+0.775,-0.245,-0.551,+8.562,+2.625,-16.125,-2, -1, -6, -8, -30, -7, 1, -5
1503604453045,-0.862,-0.435,+0.007,+0.259,+0.777,-0.223,-0.552,+6.250,+0.625,-15.312,-11, -19, -9, -2, -4, -3, -2, -2
1503604453067,-0.863,-0.436,+0.008,+0.256,+0.775,-0.199,-0.561,+4.188,+3.312,-13.188,5, -9, 4, 0, 6, 3, 1, 2
1503604453082,-0.863,-0.437,+0.008,+0.254,+0.794,-0.205,-0.557,+3.438,+3.812,-11.375,-16, -24, -11, -2, 4, 1, -2, -4
1503604453109,-0.863,-0.437,+0.009,+0.253,+0.777,-0.209,-0.569,+1.875,+0.875,-10.875,3, 6, -7, -3, -4, -3, -3, -1
1503604453126,-0.864,-0.437,+0.009,+0.251,+0.746,-0.199,-0.562,+0.438,+1.438,-11.312,8, 13, 7, 3, 2, -1, 0, 3
1503604453142,-0.864,-0.438,+0.010,+0.249,+0.780,-0.185,-0.573,-2.000,+5.312,-11.125,4, -9, -20, -8, 2, -3, -3, 0
1503604453167,-0.864,-0.439,+0.012,+0.248,+0.818,-0.183,-0.592,-1.375,+7.812,-8.188,-1, 15, -4, -4, -2, -1, -2, -3
1503604453185,-0.864,-0.440,+0.013,+0.246,+0.826,-0.172,-0.600,-0.688,+3.188,-8.125,-3, -5, 0, -2, -3, -3, -2, -1
1503604453202,-0.864,-0.439,+0.013,+0.245,+0.806,-0.182,-0.600,+0.312,-1.625,-9.062,2, 9, 5, -2, 1, 2, -1, -2
1503604453224,-0.864,-0.439,+0.013,+0.244,+0.810,-0.199,-0.573,+0.438,+0.312,-5.000,0, -17, -6, 5, 25, 21, 1, -3
1503604453247,-0.864,-0.441,+0.014,+0.243,+0.805,-0.178,-0.562,+0.438,+6.625,-1.688,-2, -29, -15, -8, -6, -9, -3, -10
1503604453263,-0.864,-0.442,+0.014,+0.243,+0.820,-0.188,-0.566,+1.312,+4.000,-0.812,8, 19, 3, -3, -2, -4, -4, -4
1503604453284,-0.864,-0.442,+0.013,+0.242,+0.808,-0.176,-0.553,+2.250,+0.500,-1.000,0, -32, -5, -8, -6, -5, -2, 3
1503604453309,-0.863,-0.443,+0.013,+0.242,+0.799,-0.184,-0.565,+4.062,+7.875,+1.312,3, 16, -3, 1, -8, -5, 1, -4
1503604453323,-0.862,-0.446,+0.013,+0.242,+0.815,-0.184,-0.570,+2.125,+13.812,+3.562,4, 7, -3, -10, -8, -7, -1, 0
1503604453350,-0.861,-0.447,+0.013,+0.242,+0.819,-0.164,-0.573,+2.188,+8.562,+0.250,8, 4, -6, 4, 3, -1, -3, -3
1503604453368,-0.861,-0.447,+0.013,+0.241,+0.806,-0.177,-0.589,+1.875,+3.188,-3.688,11, 15, 0, -2, 0, -2, 0, 0
1503604453383,-0.861,-0.448,+0.013,+0.240,+0.779,-0.173,-0.581,+0.812,+3.375,-5.562,-26, -26, -10, -8, -3, -3, -4, -10
1503604453406,-0.861,-0.448,+0.014,+0.239,+0.810,-0.159,-0.557,+0.750,+6.000,-7.625,-3, -12, -8, 2, -9, -8, 1, 4
1503604453426,-0.861,-0.449,+0.015,+0.237,+0.818,-0.189,-0.546,+0.625,+3.938,-7.062,24, 7, 1, -2, 4, -1, -1, 2
1503604453443,-0.861,-0.450,+0.015,+0.236,+0.793,-0.174,-0.536,+0.250,+3.938,-8.375,0, 12, 15, 9, 5, 2, 3, 5
1503604453464,-0.861,-0.451,+0.016,+0.235,+0.800,-0.171,-0.543,+0.500,+3.562,-7.688,-1, -15, -7, -10, -19, -4, -2, -6
1503604453488,-0.861,-0.452,+0.016,+0.234,+0.784,-0.179,-0.545,+1.562,+7.125,-4.875,-17, 17, 12, 16, -35, -11, 2, 2
1503604453502,-0.861,-0.453,+0.016,+0.233,+0.811,-0.187,-0.539,+1.500,+6.500,-3.312,-8, 1, -2, 1, 10, 1, -1, 1
1503604453524,-0.860,-0.453,+0.016,+0.233,+0.774,-0.193,-0.548,+1.312,+3.562,-2.000,-6, 6, 3, 1, 16, 8, 0, -7
1503604453546,-0.861,-0.453,+0.016,+0.232,+0.777,-0.186,-0.555,-2.625,+0.438,-3.625,-4, -8, -3, 6, -15, -10, 0, -2
1503604453562,-0.861,-0.452,+0.018,+0.232,+0.778,-0.146,-0.571,-5.812,+0.750,-4.125,10, 7, 11, 1, 9, -1, -4, 3
1503604453584,-0.861,-0.452,+0.019,+0.231,+0.796,-0.147,-0.573,-6.062,+0.250,-4.875,-1, -8, -13, -13, 11, 3, -1, -2
1503604453607,-0.862,-0.451,+0.020,+0.231,+0.827,-0.160,-0.565,-7.125,-6.812,-4.062,5, 3, 0, -2, -2, 1, 1, 8
1503604453622,-0.863,-0.449,+0.021,+0.231,+0.809,-0.147,-0.532,-6.500,-11.500,-3.312,-7, -11, -7, -2, 9, 4, -3, -1
1503604453645,-0.864,-0.448,+0.021,+0.231,+0.808,-0.161,-0.534,-3.438,-8.812,-1.750,3, 2, 1, 1, 12, 2, 0, -1
1503604453669,-0.864,-0.448,+0.021,+0.231,+0.815,-0.172,-0.549,-2.438,-0.188,+1.312,14, 6, 2, 4, -2, -2, -2, -3
1503604453689,-0.863,-0.448,+0.021,+0.232,+0.875,-0.183,-0.524,-2.000,-1.500,+3.375,0, 0, -8, -5, 15, 3, -4, -10
1503604453704,-0.863,-0.448,+0.020,+0.232,+0.877,-0.202,-0.523,-0.812,-5.562,+6.188,1, -2, 6, -2, -9, 3, -1, -2
1503604453726,-0.863,-0.448,+0.019,+0.234,+0.834,-0.201,-0.538,-1.625,-5.375,+9.375,-10, -3, -7, -6, 4, 4, 2, 5
1503604453742,-0.862,-0.449,+0.018,+0.236,+0.846,-0.208,-0.542,-3.500,+2.812,+13.125,19, 7, 4, 4, -13, -1, 1, 11
1503604453764,-0.860,-0.451,+0.018,+0.239,+0.909,-0.220,-0.538,-4.438,+7.438,+16.188,-1, 0, -3, -1, 5, 0, -2, -11
1503604453786,-0.859,-0.452,+0.017,+0.241,+0.916,-0.221,-0.547,-2.500,+5.500,+15.188,-9, -8, -2, -5, -11, 0, -2, -1
1503604453804,-0.858,-0.453,+0.015,+0.243,+0.910,-0.243,-0.569,+2.438,+1.500,+14.812,-3, -5, -2, -2, -1, -2, 1, 3
1503604453824,-0.856,-0.454,+0.012,+0.245,+0.885,-0.260,-0.558,+5.062,+2.500,+20.000,-12, 2, -3, -2, -6, -16, -4, -5
1503604453847,-0.854,-0.457,+0.009,+0.248,+0.882,-0.277,-0.522,+8.562,+12.938,+22.875,-3, -5, -1, -1, -30, -11, 1, 2
1503604453862,-0.851,-0.462,+0.005,+0.250,+0.884,-0.296,-0.517,+15.062,+21.312,+22.938,2, 0, 0, 7, -1, 1, -1, -2
1503604453884,-0.847,-0.468,+0.001,+0.252,+0.885,-0.331,-0.520,+20.500,+28.375,+22.625,-3, -1, -8, -10, 14, 5, -2, -9
1503604453907,-0.844,-0.474,-0.004,+0.254,+0.891,-0.323,-0.530,+22.562,+31.438,+22.875,-1, 4, 7, -3, 9, 8, -3, -5
1503604453922,-0.840,-0.479,-0.009,+0.255,+0.878,-0.316,-0.525,+26.250,+30.625,+22.562,4, -5, -2, -7, -5, -16, 0, 8
1503604453945,-0.837,-0.484,-0.014,+0.256,+0.850,-0.341,-0.527,+29.625,+28.125,+20.625,-2, -5, -2, -7, -1, -5, -6, -14
1503604453966,-0.833,-0.489,-0.020,+0.256,+0.834,-0.347,-0.515,+30.688,+26.312,+19.562,-7, 1, -5, -3, 4, 5, 2, 0
1503604453982,-0.830,-0.494,-0.025,+0.257,+0.807,-0.330,-0.508,+30.500,+29.438,+18.625,-4, 6, 5, 4, -19, -12, -2, -1
1503604454006,-0.827,-0.500,-0.030,+0.257,+0.817,-0.329,-0.523,+32.000,+32.812,+18.750,16, 1, -6, 1, 30, 4, 4, 20
1503604454026,-0.823,-0.505,-0.035,+0.257,+0.821,-0.287,-0.525,+33.562,+35.375,+21.875,-3, 7, 10, 6, 11, 3, -5, -8
1503604454042,-0.820,-0.509,-0.042,+0.257,+0.789,-0.317,-0.491,+38.438,+22.562,+22.812,-14, -5, -6, -3, -1, -4, -2, 2
1503604454064,-0.819,-0.512,-0.049,+0.256,+0.796,-0.339,-0.416,+42.812,+7.875,+16.438,-1, -24, -2, -1, -12, -9, 1, -2
1503604454086,-0.817,-0.515,-0.056,+0.254,+0.766,-0.355,-0.429,+45.812,+8.000,+13.062,-2, 9, 2, 0, -51, 1, 4, -1
1503604454102,-0.815,-0.519,-0.063,+0.251,+0.685,-0.356,-0.462,+48.125,+25.188,+8.875,12, -24, -9, -2, 13, 6, 0, 1
1503604454124,-0.811,-0.524,-0.070,+0.249,+0.694,-0.356,-0.452,+49.125,+32.875,+9.250,-5, 1, -3, -4, -12, -1, -2, -9
1503604454147,-0.808,-0.529,-0.076,+0.247,+0.797,-0.384,-0.410,+41.625,+26.750,+11.250,-12, -2, 0, -1, 10, 2, 3, 5
1503604454161,-0.806,-0.532,-0.081,+0.246,+0.823,-0.410,-0.385,+33.000,+11.812,+10.250,-7, -13, -11, -4, -8, -1, 1, 0
1503604454183,-0.806,-0.533,-0.086,+0.245,+0.771,-0.386,-0.359,+24.000,-1.375,+5.875,-16, -3, -5, 12, 7, 7, 1, -2
1503604454207,-0.807,-0.532,-0.087,+0.243,+0.700,-0.284,-0.376,+13.938,-7.812,+0.312,-29, -3, -5, -6, 13, 3, -5, -14
1503604454221,-0.808,-0.531,-0.087,+0.240,+0.681,-0.201,-0.365,+7.625,-7.625,-10.750,6, 5, 2, -2, -9, -10, -2, 1
1503604454245,-0.810,-0.531,-0.084,+0.235,+0.710,-0.167,-0.378,+7.688,+0.312,-22.188,10, 2, 4, -3, 4, -1, 1, 2
1503604454266,-0.811,-0.532,-0.082,+0.229,+0.772,-0.162,-0.397,+14.125,+3.750,-26.750,-8, 9, 7, 14, 11, 6, 0, -7
1503604454281,-0.812,-0.533,-0.081,+0.223,+0.845,-0.208,-0.403,+21.250,+2.125,-25.000,6, -13, -12, -8, -11, -5, -3, -4
1503604456643,-0.864,-0.451,-0.188,+0.123,+0.792,-0.426,-0.478,-14.000,+1.875,+11.375,-2, -7, -5, 2, 0, -1, 0, 3
1503604456667,-0.864,-0.450,-0.187,+0.126,+0.754,-0.452,-0.474,-15.688,-1.062,+11.812,-10, -2, 0, 1, 1, -2, 0, -6
1503604456692,-0.864,-0.450,-0.186,+0.130,+0.740,-0.435,-0.490,-17.812,+5.000,+12.312,-4, 0, 3, -2, 0, 2, -1, -7
1503604456704,-0.864,-0.450,-0.184,+0.132,+0.777,-0.410,-0.483,-14.062,+3.500,+10.812,12, 1, -1, -4, -13, -8, 3, 21
1503604456726,-0.864,-0.449,-0.183,+0.134,+0.756,-0.438,-0.484,-14.250,-2.625,+8.438,13, -1, -3, -2, -4, 1, 2, 6
1503604456748,-0.865,-0.448,-0.182,+0.136,+0.727,-0.435,-0.519,-12.438,-3.125,+7.062,-10, -7, -7, 5, 6, 2, -3, -6
1503604456764,-0.865,-0.447,-0.181,+0.139,+0.716,-0.439,-0.501,-13.688,+1.750,+9.500,16, 0, 2, -4, 2, -1, -3, -10
1503604456785,-0.865,-0.448,-0.179,+0.141,+0.775,-0.428,-0.492,-15.125,+5.938,+10.938,-4, -9, -8, -5, 1, -5, -5, -3
1503604456808,-0.865,-0.448,-0.178,+0.144,+0.788,-0.411,-0.505,-13.312,+3.812,+12.875,6, 2, 1, -1, -9, -2, 3, 35
1503604456825,-0.865,-0.447,-0.177,+0.147,+0.749,-0.425,-0.487,-15.688,+0.125,+15.188,-8, 3, -3, -4, 1, -8, -2, -8
1503604456845,-0.864,-0.447,-0.176,+0.151,+0.722,-0.435,-0.487,-16.062,+7.250,+19.000,-2, 2, 5, 2, 0, 2, -2, -9
1503604456868,-0.863,-0.448,-0.175,+0.156,+0.726,-0.449,-0.485,-19.188,+14.438,+21.375,8, -5, -7, -5, 0, -2, 0, -7
1503604456884,-0.861,-0.450,-0.173,+0.161,+0.767,-0.477,-0.456,-22.250,+14.500,+21.062,-10, 3, 8, 4, 0, 0, -3, -3
1503604456905,-0.861,-0.450,-0.171,+0.166,+0.795,-0.456,-0.476,-23.438,+7.062,+17.500,4, -5, -1, -4, -1, 0, 2, 5
1503604456929,-0.861,-0.449,-0.169,+0.170,+0.779,-0.435,-0.501,-24.188,+3.125,+20.562,-4, 1, 2, 2, 3, 2, 2, 2
1503604456943,-0.861,-0.448,-0.167,+0.175,+0.732,-0.376,-0.542,-18.562,+3.688,+20.625,-14, -5, -2, -4, -1, -6, -3, -17
1503604456967,-0.860,-0.448,-0.166,+0.179,+0.731,-0.396,-0.551,-16.562,+4.688,+23.312,36, -2, -6, -1, 0, 1, 2, -8
1503604456988,-0.859,-0.448,-0.165,+0.184,+0.697,-0.428,-0.557,-13.938,+12.688,+26.688,0, -1, 9, -2, -1, -3, -4, 7
1503604457004,-0.857,-0.449,-0.165,+0.190,+0.703,-0.428,-0.542,-10.625,+23.062,+28.688,-12, -5, -5, -1, 1, 1, -1, 9
1503604457030,-0.854,-0.452,-0.165,+0.196,+0.747,-0.447,-0.512,-9.000,+28.312,+33.438,-4, -6, -7, -5, -6, 0, 2, -2
1503604457048,-0.852,-0.455,-0.166,+0.201,+0.784,-0.426,-0.518,-1.812,+21.000,+29.875,6, -2, -4, -3, 5, 0, 0, 0
1503604457075,-0.850,-0.455,-0.168,+0.204,+0.794,-0.415,-0.535,+3.688,+8.250,+26.562,3, -2, -3, -2, -3, -5, -4, -13
1503604457089,-0.849,-0.454,-0.171,+0.207,+0.745,-0.459,-0.528,+7.438,-1.875,+28.750,11, -2, 2, -2, -1, 2, -2, -4
1503604457108,-0.848,-0.454,-0.175,+0.211,+0.703,-0.477,-0.515,+9.562,+2.500,+33.438,6, 9, 8, 3, 2, 0, 4, 27
1503604457131,-0.846,-0.455,-0.178,+0.216,+0.688,-0.463,-0.526,+9.625,+14.000,+37.375,2, 3, 4, 7, 1, 2, 2, 26
1503604457146,-0.842,-0.457,-0.182,+0.223,+0.686,-0.488,-0.517,+10.938,+25.812,+44.125,8, -2, -1, -2, -1, 2, -1, 6
1503604457169,-0.837,-0.461,-0.186,+0.229,+0.673,-0.498,-0.485,+14.875,+33.812,+42.500,-9, -1, -4, -2, -3, -2, -2, -11
1503604457184,-0.833,-0.465,-0.190,+0.234,+0.699,-0.518,-0.467,+16.812,+34.188,+38.562,-21, 5, 9, 3, 3, -3, -1, -21
1503604457206,-0.828,-0.469,-0.195,+0.239,+0.747,-0.557,-0.424,+16.125,+32.938,+38.375,-3, -5, -6, -6, -6, 0, 0, -9
1503604457231,-0.822,-0.474,-0.199,+0.245,+0.724,-0.562,-0.414,+14.812,+39.812,+44.875,-4, -4, -9, -4, -6, -3, -1, -3
1503604457244,-0.816,-0.480,-0.202,+0.252,+0.650,-0.561,-0.427,+13.125,+50.000,+45.562,4, -8, -4, -1, -5, 0, 0, -6
1503604457267,-0.809,-0.485,-0.206,+0.259,+0.639,-0.584,-0.427,+9.875,+51.688,+44.688,-9, -2, 5, 0, -5, -2, -1, -15
1503604457288,-0.803,-0.492,-0.208,+0.266,+0.722,-0.604,-0.412,+8.375,+51.438,+37.625,3, 0, -3, -1, -11, -4, -3, -13
1503604457304,-0.798,-0.496,-0.210,+0.270,+0.749,-0.616,-0.387,+9.500,+38.250,+33.188,-20, -5, -3, -1, -18, -2, 0, -12
1503604457329,-0.793,-0.500,-0.213,+0.274,+0.714,-0.589,-0.334,+13.125,+28.562,+30.812,10, 3, -5, -3, 6, 2, 1, 1
1503604457348,-0.789,-0.504,-0.216,+0.278,+0.633,-0.596,-0.325,+10.750,+29.750,+25.250,-4, -3, 0, 0, -5, -14, -5, 0
1503604457365,-0.786,-0.507,-0.217,+0.280,+0.607,-0.614,-0.355,+5.500,+30.625,+14.000,7, 1, 1, 1, 7, 3, -5, -16
1503604457386,-0.783,-0.511,-0.215,+0.282,+0.622,-0.634,-0.300,-1.750,+33.188,-0.938,4, -1, 5, 2, -13, -6, -1, -1
1503604457408,-0.780,-0.517,-0.213,+0.282,+0.676,-0.657,-0.210,-7.625,+35.125,-11.438,-27, -5, -2, -1, -2, 2, 0, -4
1503604457433,-0.777,-0.523,-0.205,+0.283,+0.702,-0.604,-0.220,-28.062,+41.125,-24.688,5, -2, -12, -3, -15, 0, 1, -4
1503604457446,-0.778,-0.528,-0.192,+0.281,+0.688,-0.477,-0.264,-47.000,+41.500,-48.250,2, -4, 2, 0, 4, 3, -1, -3
1503604457468,-0.779,-0.535,-0.176,+0.276,+0.763,-0.410,-0.227,-51.438,+46.812,-75.000,-4, 3, 2, -1, 7, 1, -1, -6
1503604457484,-0.780,-0.542,-0.161,+0.269,+0.846,-0.518,-0.259,-36.250,+36.750,-83.312,-4, -9, -8, -3, 7, 1, 0, 18
1503604457508,-0.782,-0.547,-0.145,+0.261,+0.848,-0.482,-0.302,-43.125,+35.062,-92.938,8, 1, -2, 1, 0, 2, -1, -2
1503604457536,-0.785,-0.551,-0.128,+0.253,+0.833,-0.395,-0.274,-51.062,+24.938,-95.125,-1, 2, -1, -1, 4, 0, 0, 0
1503604457544,-0.789,-0.553,-0.111,+0.245,+0.743,-0.390,-0.362,-51.062,+19.438,-96.438,-15, -9, 2, 2, 3, 0, -2, 5
1503604457567,-0.793,-0.553,-0.095,+0.238,+0.661,-0.416,-0.371,-50.812,+13.500,-99.125,-1, -4, -5, -5, 0, 0, -1, -4
1503604457588,-0.797,-0.553,-0.078,+0.230,+0.662,-0.387,-0.354,-56.000,+11.562,-100.812,5, 12, 5, 0, 1, 0, -2, -3
1503604457605,-0.801,-0.552,-0.061,+0.224,+0.762,-0.310,-0.360,-61.625,+9.312,-92.000,-8, -1, -4, 0, 0, -1, -2, -4
1503604457626,-0.804,-0.551,-0.047,+0.219,+0.854,-0.298,-0.357,-58.500,+0.062,-70.000,-11, -12, -3, -1, -1, -1, 0, 1
1503604457648,-0.808,-0.546,-0.035,+0.218,+0.840,-0.326,-0.380,-58.938,-19.562,-52.562,3, 4, -6, -1, 2, -1, -1, -1
1503604457665,-0.814,-0.539,-0.026,+0.217,+0.867,-0.323,-0.358,-54.125,-37.688,-44.125,4, -1, -8, -3, 27, 1, 1, 2
1503604457687,-0.817,-0.534,-0.018,+0.216,+0.902,-0.393,-0.317,-48.688,-27.625,-37.312,-7, -7, -2, -3, -10, -2, 0, -1
1503604457708,-0.819,-0.532,-0.011,+0.217,+0.879,-0.354,-0.348,-45.250,-12.125,-29.438,11, 8, 12, 3, -3, -1, 1, 3
1503604457724,-0.819,-0.530,-0.004,+0.221,+0.812,-0.430,-0.458,-51.625,+7.875,-15.438,-5, 20, 10, -3, -4, 0, 1, -6
1503604457746,-0.826,-0.516,+0.002,+0.227,+1.216,-0.333,-0.421,-69.250,-95.188,+2.750,-6, -17, -7, -10, -4, 0, -1, -2
1503604457769,-0.831,-0.510,+0.011,+0.221,+1.018,+0.128,-0.027,-30.625,-61.875,-41.750,9, 5, 0, -1, -8, -2, -1, 2
1503604457784,-0.834,-0.504,+0.009,+0.223,+1.161,-0.376,-0.599,-10.625,-42.000,+2.812,5, 10, 10, 4, -2, -2, 1, 0
1503604457808,-0.834,-0.505,+0.010,+0.221,+1.062,-0.318,-0.362,-4.562,-5.500,-10.250,3, -3, -9, -3, -3, -3, -1, -1
1503604457833,-0.835,-0.504,+0.009,+0.221,+1.007,-0.272,-0.460,-1.125,-11.062,-3.938,-9, -4, -8, -1, 3, 1, -2, -1
1503604457844,-0.837,-0.501,+0.007,+0.221,+0.886,-0.247,-0.528,+7.125,-23.625,+3.812,19, 3, -3, -3, -3, -1, -3, 0
1503604457867,-0.838,-0.499,+0.005,+0.221,+0.723,-0.277,-0.494,+1.875,-9.438,-2.125,-3, -15, -4, 4, -6, -4, 0, 0
1503604457888,-0.839,-0.497,+0.004,+0.221,+0.658,-0.229,-0.524,-0.750,-3.000,-3.750,0, 5, 6, 6, 0, -2, -1, -4
1503604457904,-0.840,-0.495,+0.005,+0.221,+0.710,-0.188,-0.488,-1.438,-1.875,-6.688,-20, -11, 1, 3, -16, 0, -1, -2
1503604457926,-0.841,-0.494,+0.004,+0.220,+0.730,-0.228,-0.487,+1.562,-6.125,-4.938,24, -34, -14, -4, -3, -4, -1, 3
1503604457949,-0.841,-0.494,+0.006,+0.219,+0.769,-0.184,-0.483,-4.562,+5.688,-9.188,-37, 4, 0, -1, -1, 0, 1, -3
1503604457967,-0.841,-0.496,+0.007,+0.217,+0.894,-0.149,-0.496,+0.438,+12.500,-9.625,-27, -29, -7, -4, 6, -1, -1, -4
1503604457987,-0.840,-0.498,+0.008,+0.215,+0.979,-0.171,-0.473,+4.375,+11.375,-10.875,0, 8, -3, -2, 2, 1, 0, 2
1503604458009,-0.840,-0.499,+0.008,+0.212,+0.938,-0.198,-0.475,+9.750,+4.500,-10.812,19, -3, -4, -2, 5, 1, -2, 0
1503604458024,-0.840,-0.501,+0.007,+0.209,+0.857,-0.176,-0.439,+12.250,+8.125,-9.938,3, 4, -3, -1, 3, -3, -1, -1
1503604458047,-0.839,-0.503,+0.006,+0.208,+0.875,-0.224,-0.468,+12.250,+9.125,-4.688,19, 29, 6, 1, -7, 1, 0, 2
1503604458069,-0.838,-0.505,+0.005,+0.207,+0.879,-0.251,-0.466,+9.062,+13.250,-4.312,-1, 12, 6, 2, -1, -1, 1, 0
1503604458084,-0.838,-0.506,+0.004,+0.206,+0.862,-0.233,-0.455,+4.500,+9.562,-5.250,-4, -15, 1, 0, 4, 0, -2, -4
1503604458107,-0.837,-0.507,+0.004,+0.204,+0.822,-0.230,-0.461,+4.312,+9.812,-9.625,-1, 16, 8, 2, -2, 1, 1, -2
1503604458129,-0.837,-0.509,+0.005,+0.202,+0.837,-0.237,-0.445,+0.938,+12.625,-14.062,0, -15, -9, -4, 0, -2, -1, 1
1503604458144,-0.837,-0.510,+0.007,+0.201,+0.858,-0.205,-0.467,-3.062,+6.812,-12.562,-9, 4, 1, 2, -1, -1, -2, -3
1503604458169,-0.837,-0.510,+0.009,+0.199,+0.887,-0.195,-0.413,-6.750,+4.938,-15.250,-2, 30, 21, 2, -1, -1, 0, 1
1503604458189,-0.837,-0.511,+0.011,+0.197,+0.916,-0.162,-0.423,-6.438,+2.000,-13.375,-10, -21, -9, -3, 3, 1, -1, -1
1503604458205,-0.837,-0.511,+0.013,+0.195,+0.883,-0.141,-0.445,-1.562,+1.188,-14.938,-3, 28, 19, 3, -1, -1, -1, 1
1503604458227,-0.838,-0.511,+0.014,+0.193,+0.876,-0.140,-0.442,+1.688,+0.562,-13.312,-3, -6, 2, -2, 1, -2, 0, -2
1503604458250,-0.838,-0.511,+0.014,+0.191,+0.882,-0.164,-0.446,+3.375,+2.500,-9.062,-5, -20, -5, -2, 1, -1, 2, -2
1503604458264,-0.838,-0.512,+0.014,+0.190,+0.869,-0.173,-0.470,+3.500,+5.375,-6.375,8, 11, -4, 1, -1, -1, -2, 3
1503604458287,-0.838,-0.512,+0.014,+0.189,+0.837,-0.175,-0.447,+2.188,+6.562,-4.750,-3, 26, 9, 4, 0, -2, -2, -3
1503604458309,-0.838,-0.513,+0.014,+0.188,+0.854,-0.173,-0.461,+1.500,+5.625,-4.250,-1, -3, 3, 2, 0, 0, -1, -1
1503604458324,-0.837,-0.514,+0.014,+0.187,+0.880,-0.168,-0.435,+0.250,+7.562,-3.188,-16, -44, -15, -4, 1, 1, -1, 4
1503604458347,-0.837,-0.515,+0.015,+0.187,+0.879,-0.159,-0.428,-0.500,+7.188,-2.625,-8, -28, -12, -4, -1, -2, -2, -5
1503604458370,-0.836,-0.516,+0.015,+0.187,+0.904,-0.167,-0.411,-1.688,+6.562,-1.000,-2, -6, 4, 2, -1, -2, 0, -3
1503604458384,-0.836,-0.516,+0.015,+0.187,+0.910,-0.169,-0.415,-2.562,+2.250,-0.375,-8, -27, -14, -8, 0, -4, -1, -4
1503604458407,-0.836,-0.516,+0.016,+0.187,+0.896,-0.150,-0.419,-2.812,+0.188,+0.438,8, 5, -1, -8, -5, -3, 0, 3
1503604458429,-0.836,-0.516,+0.016,+0.187,+0.894,-0.167,-0.420,-1.250,-1.188,+0.625,-1, 54, 16, 3, -3, -1, 1, -2
1503604458444,-0.836,-0.516,+0.016,+0.187,+0.883,-0.168,-0.428,-1.938,-2.688,-1.000,15, 32, 0, -4, -3, -3, -7, -6
1503604458469,-0.837,-0.515,+0.016,+0.187,+0.872,-0.162,-0.448,-2.750,-4.938,-0.375,-13, -1, -2, 5, 4, 3, -1, -1
1503604458489,-0.837,-0.514,+0.016,+0.187,+0.883,-0.176,-0.443,-3.312,-3.938,-1.312,11, -21, -3, 6, 2, 2, 2, 4
1503604458504,-0.837,-0.513,+0.016,+0.187,+0.878,-0.166,-0.442,-3.125,-3.500,-2.250,-6, -3, 8, 4, 0, 1, 0, 3
1503604458527,-0.838,-0.513,+0.017,+0.187,+0.863,-0.165,-0.450,-2.125,-1.312,-3.625,4, -24, -18, -4, -1, -1, -3, -4
1503604458549,-0.838,-0.513,+0.017,+0.186,+0.874,-0.167,-0.438,-1.625,-0.312,-6.500,-4, 13, 8, 0, -3, 0, 3, 1
1503604458564,-0.838,-0.513,+0.018,+0.185,+0.880,-0.153,-0.445,-0.562,+2.250,-6.688,-1, 6, -6, -6, -4, -1, -3, 1
1503604458587,-0.838,-0.513,+0.018,+0.184,+0.882,-0.146,-0.428,-1.750,+3.250,-5.125,2, 3, 3, 0, -15, -3, 0, 0
1503604458609,-0.838,-0.513,+0.019,+0.184,+0.900,-0.145,-0.431,-1.312,+2.062,-2.562,-9, -21, 6, -1, -26, -3, 2, -6
1503604458624,-0.838,-0.514,+0.019,+0.183,+0.896,-0.147,-0.426,-0.125,+0.688,-2.188,8, -7, -14, -2, 2, 0, -3, 4
1503604458648,-0.838,-0.514,+0.019,+0.182,+0.879,-0.137,-0.424,+1.125,-0.125,-1.750,30, 24, -10, -6, 6, -3, 2, 11
1503604458671,-0.838,-0.513,+0.018,+0.182,+0.876,-0.157,-0.429,+1.312,-1.250,-0.938,-15, 12, -2, -4, -6, -8, -7, -17
1503604458684,-0.839,-0.513,+0.018,+0.182,+0.893,-0.164,-0.434,-0.375,-3.562,-0.938,-12, -6, -5, -1, -4, -2, -2, -4
1503604458708,-0.839,-0.512,+0.018,+0.182,+0.889,-0.159,-0.436,-2.688,-3.562,+0.062,3, 8, -5, -3, 0, 3, -5, 16
1503604458730,-0.840,-0.511,+0.018,+0.182,+0.878,-0.150,-0.447,-2.438,-5.625,-1.875,6, 2, -2, -2, 34, 1, -3, -8
1503604458745,-0.840,-0.511,+0.019,+0.182,+0.884,-0.147,-0.446,-2.062,-1.812,-3.625,12, 19, -8, 0, 3, 4, -5, -4
1503604458767,-0.840,-0.511,+0.019,+0.181,+0.877,-0.161,-0.438,-2.438,+1.250,-5.375,-1, -28, -11, 2, 13, 3, 1, 2
1503604458795,-0.840,-0.511,+0.020,+0.180,+0.881,-0.155,-0.445,-4.000,-0.375,-6.125,-2, -6, 5, 2, 13, 2, 2, 4
1503604458811,-0.840,-0.511,+0.022,+0.180,+0.893,-0.137,-0.441,-5.688,+1.875,-6.000,8, -7, -4, -3, 4, 2, 2, 3
1503604458827,-0.841,-0.511,+0.022,+0.179,+0.856,-0.130,-0.449,-2.688,+1.438,-5.500,-15, -11, -4, -2, -8, 2, 0, -10
1503604458849,-0.840,-0.511,+0.024,+0.178,+0.927,-0.186,-0.386,-6.562,+0.375,-10.062,-15, 4, 0, 0, -8, -11, 1, -15
1503604458864,-0.840,-0.511,+0.026,+0.179,+0.923,-0.103,-0.424,-11.500,+1.062,-0.125,0, -4, 2, 1, 9, 12, 2, -5
1503604458887,-0.841,-0.510,+0.027,+0.180,+0.863,-0.120,-0.441,-10.938,-6.250,+1.375,2, 7, -3, -3, -9, 0, -3, -1
1503604458909,-0.841,-0.509,+0.028,+0.180,+0.930,-0.088,-0.452,-5.750,-3.938,+0.125,3, 7, 14, 5, 4, 1, 0, 4
1503604458924,-0.842,-0.507,+0.027,+0.181,+0.868,-0.143,-0.409,-5.312,-13.062,+5.375,-5, -7, -4, 1, 8, 8, -1, 0
1503604458948,-0.843,-0.505,+0.028,+0.182,+0.899,-0.141,-0.429,-7.500,-18.500,+3.188,-3, -25, 1, -1, -17, -10, 0, -1
1503604458969,-0.845,-0.502,+0.028,+0.185,+0.907,-0.146,-0.432,-13.188,-20.062,+7.625,-4, -21, -10, -3, -6, -6, -3, -2
1503604458991,-0.846,-0.499,+0.029,+0.188,+0.889,-0.130,-0.474,-18.312,-18.938,+15.500,24, 20, 0, 0, 11, 6, -1, 8
1503604459008,-0.846,-0.496,+0.029,+0.193,+0.858,-0.117,-0.480,-17.625,-16.250,+20.562,1, -17, -3, 0, 0, 4, 0, -1
1503604459029,-0.847,-0.493,+0.029,+0.197,+0.836,-0.150,-0.475,-19.312,-15.875,+22.250,-6, 16, 8, 1, -6, -1, 0, 2
1503604459051,-0.847,-0.490,+0.029,+0.202,+0.857,-0.173,-0.479,-19.875,-13.062,+19.125,-4, -2, -6, -2, -9, -7, -5, -1
1503604459067,-0.847,-0.489,+0.030,+0.207,+0.896,-0.160,-0.491,-23.375,-6.625,+20.688,-7, -23, -7, -1, -24, -6, 0, -5
1503604459097,-0.847,-0.487,+0.032,+0.211,+0.951,-0.121,-0.502,-24.062,-8.625,+20.312,15, -19, 6, 1, -6, 2, 3, 15
1503604459111,-0.847,-0.485,+0.034,+0.215,+0.940,-0.116,-0.496,-19.000,-10.312,+17.062,-1, 10, 5, 0, 12, 1, -6, -19
1503604459127,-0.848,-0.483,+0.034,+0.217,+0.920,-0.145,-0.476,-12.562,-16.250,+10.688,2, -10, -1, 2, 0, -1, 3, 6
1503604459151,-0.848,-0.481,+0.034,+0.219,+0.900,-0.163,-0.479,-9.875,-15.750,+3.625,-17, -4, -7, -2, -3, 8, 0, -12
1503604459173,-0.849,-0.478,+0.035,+0.220,+0.840,-0.161,-0.496,-10.375,-14.562,+2.812,9, -7, -4, 0, 3, -7, -5, 13
1503604459187,-0.849,-0.478,+0.036,+0.221,+0.878,-0.141,-0.517,-10.062,-2.688,+3.250,2, 13, 3, -1, 10, 3, 0, 5
1503604459209,-0.844,-0.486,+0.035,+0.224,+0.628,-0.257,-0.532,-0.250,+67.438,+18.750,-14, -12, -2, 0, -13, -6, 3, -5
1503604459231,-0.833,-0.504,+0.039,+0.226,+0.819,-0.245,-0.415,-3.125,+125.688,+14.250,-9, -26, -5, 2, 9, 8, 1, -1
1503604459254,-0.821,-0.523,+0.043,+0.226,+0.972,-0.211,-0.391,+1.375,+134.000,+5.750,1, -2, -5, -5, 1, 2, 1, 5
1503604459275,-0.811,-0.538,+0.046,+0.225,+1.040,-0.262,-0.414,+2.750,+99.812,-1.938,2, 8, -1, -2, -14, -7, 4, 5
1503604459291,-0.811,-0.539,+0.047,+0.224,+1.117,-0.209,-0.429,-6.188,+7.812,-7.125,-3, 15, 12, 5, 1, -4, -2, -4
1503604459309,-0.813,-0.538,+0.047,+0.220,+1.013,-0.186,-0.345,+9.188,-15.438,-19.750,11, 5, 0, 3, 18, -2, 2, 6
1503604459329,-0.813,-0.538,+0.045,+0.217,+0.863,-0.240,-0.377,+14.875,+2.250,-17.812,-7, -27, -15, -6, -26, -9, -2, -1
1503604459351,-0.812,-0.540,+0.044,+0.215,+0.773,-0.255,-0.439,+11.250,+19.875,-8.938,-12, -10, 1, -1, -1, -10, -7, -10
1503604459366,-0.811,-0.543,+0.043,+0.214,+0.802,-0.252,-0.413,+7.812,+24.875,-5.875,5, 7, 2, -1, 3, 3, 3, -3
1503604459389,-0.809,-0.547,+0.043,+0.213,+0.869,-0.177,-0.322,+4.938,+24.312,-6.688,-2, -2, -2, 1, 5, 11, 1, -3
1503604459412,-0.807,-0.550,+0.043,+0.211,+0.884,-0.133,-0.367,+9.812,+19.500,-1.562,5, 8, 3, 0, -19, -14, 2, 8
1503604459425,-0.806,-0.551,+0.040,+0.211,+0.872,-0.172,-0.404,+17.500,+13.438,+5.750,-23, -38, -10, -5, -8, -9, -10, -7
1503604459448,-0.806,-0.552,+0.036,+0.211,+0.901,-0.183,-0.385,+19.938,+5.188,+12.438,8, 11, 2, -2, 49, 4, 7, 12
1503604459470,-0.806,-0.553,+0.030,+0.211,+0.908,-0.187,-0.414,+26.875,+1.250,+18.875,16, 6, 2, 1, -31, -21, -7, 8
1503604459485,-0.805,-0.553,+0.023,+0.212,+0.921,-0.211,-0.398,+29.875,-3.500,+28.438,-2, 0, 0, -2, 20, 13, 1, -14
1503604459516,-0.805,-0.553,+0.015,+0.214,+0.908,-0.241,-0.400,+31.625,-4.812,+35.875,-5, 1, 2, -3, -29, -9, 0, 1
1503604459530,-0.805,-0.553,+0.005,+0.216,+0.931,-0.289,-0.390,+33.062,-9.938,+37.812,2, -14, -11, -6, -29, -16, -1, 3
1503604459545,-0.804,-0.552,-0.004,+0.219,+0.898,-0.291,-0.372,+32.250,-11.875,+37.938,-5, -4, 0, -1, -43, -1, 1, -7
1503604459568,-0.805,-0.550,-0.012,+0.221,+0.882,-0.265,-0.369,+28.875,-21.688,+37.812,-10, -2, -1, -1, 23, 10, -7, 2
1503604459590,-0.806,-0.548,-0.021,+0.224,+0.846,-0.264,-0.384,+28.938,-23.875,+38.875,12, 25, -2, -2, 11, 1, -5, 2
1503604459605,-0.806,-0.546,-0.030,+0.226,+0.845,-0.303,-0.391,+30.750,-17.625,+37.125,-8, -4, -2, -2, -8, -7, 1, 1
1503604459628,-0.806,-0.544,-0.038,+0.229,+0.843,-0.298,-0.393,+28.938,-16.250,+39.562,-11, -42, -13, -2, 5, -1, 1, -2
1503604459651,-0.807,-0.542,-0.046,+0.231,+0.872,-0.243,-0.362,+26.312,-22.312,+44.375,2, 17, 0, -3, 5, 0, 2, -3
1503604459666,-0.808,-0.538,-0.054,+0.234,+0.865,-0.242,-0.368,+25.938,-32.000,+44.688,-11, -24, 1, 2, -15, 2, 0, 2
1503604459688,-0.810,-0.533,-0.063,+0.237,+0.820,-0.271,-0.377,+27.125,-36.625,+43.750,42, 45, 6, -4, 3, 1, -3, 3
1503604459711,-0.812,-0.528,-0.071,+0.240,+0.781,-0.262,-0.357,+22.625,-44.250,+40.938,1, 4, -1, 4, -2, -4, 2, 1
1503604459725,-0.814,-0.522,-0.079,+0.242,+0.808,-0.271,-0.339,+18.625,-47.562,+42.375,-11, 14, 3, 3, 14, 6, 2, 8
1503604459752,-0.816,-0.516,-0.086,+0.245,+0.793,-0.315,-0.357,+16.750,-43.250,+40.375,-2, -10, -4, -3, 2, 5, 0, -2
1503604459770,-0.818,-0.511,-0.092,+0.248,+0.799,-0.328,-0.354,+12.750,-40.062,+38.062,15, 23, 14, 3, 26, -4, 3, 4
1503604459785,-0.819,-0.506,-0.097,+0.251,+0.804,-0.314,-0.366,+5.438,-37.250,+34.125,2, -20, -4, -1, -9, 5, -3, 3
1503604459814,-0.821,-0.501,-0.100,+0.254,+0.811,-0.289,-0.371,-0.188,-39.375,+29.125,-6, -8, -2, -4, -14, -8, -1, -4
1503604459830,-0.824,-0.496,-0.102,+0.256,+0.807,-0.291,-0.385,-2.125,-39.188,+23.750,-2, -6, -2, -1, 26, -2, -1, -3
1503604459845,-0.826,-0.491,-0.105,+0.257,+0.777,-0.313,-0.418,+0.500,-36.438,+17.062,6, 3, -2, -2, -2, -5, 2, -2
1503604459868,-0.828,-0.487,-0.106,+0.257,+0.757,-0.330,-0.424,+1.625,-29.062,+8.688,-2, 3, 1, 1, -11, -9, -3, -18
1503604459891,-0.830,-0.483,-0.107,+0.257,+0.771,-0.334,-0.392,-4.625,-25.812,+5.188,-14, -14, -7, -5, -8, 3, -2, -1
1503604459905,-0.832,-0.481,-0.106,+0.257,+0.783,-0.332,-0.384,-10.812,-21.625,+2.188,-2, 0, -3, 5, -7, -6, -2, -5
1503604459928,-0.833,-0.479,-0.104,+0.256,+0.802,-0.311,-0.403,-9.688,-14.312,-3.375,4, -4, -3, -4, -7, 1, -3, 1
1503604459955,-0.836,-0.477,-0.105,+0.252,+0.726,-0.624,-0.637,+5.625,-13.375,-29.438,-5, -9, -1, -1, 3, -2, -1, 2
1503604459965,-0.834,-0.484,-0.103,+0.245,+0.783,-0.739,-0.360,+5.438,+36.125,-59.312,2, 2, 0, -3, -3, 0, -3, -16
1503604459988,-0.837,-0.481,-0.095,+0.241,+0.827,-0.074,-0.392,-22.250,-24.312,-26.812,2, 7, 2, 0, -1, 0, 2, 4
1503604460013,-0.842,-0.476,-0.089,+0.238,+0.671,-0.084,-0.620,-18.562,-19.562,-27.312,9, -1, 0, -2, -1, -1, -1, 4
1503604460026,-0.843,-0.477,-0.088,+0.233,+0.738,-0.512,-0.517,+2.250,+8.188,-35.438,-8, -2, 1, 9, 1, 1, 3, 8
1503604460056,-0.843,-0.478,-0.083,+0.231,+0.864,-0.399,-0.549,-16.812,+5.750,-23.375,34, 2, -4, -5, 3, -3, -6, -3
1503604460091,-0.844,-0.479,-0.078,+0.228,+0.898,-0.253,-0.508,-12.188,+4.500,-25.750,-21, -51, -14, -5, 3, 5, 0, 0
1503604460092,-0.845,-0.479,-0.077,+0.226,+0.909,-0.322,-0.506,-2.500,-3.188,-8.562,-6, 14, 6, 9, 10, 3, -2, -3
1503604460108,-0.846,-0.477,-0.078,+0.226,+0.845,-0.369,-0.566,+1.750,-14.875,+1.125,-6, 3, 1, -5, -3, 0, 0, -3
1503604460130,-0.848,-0.473,-0.079,+0.226,+0.808,-0.345,-0.569,+3.938,-23.375,+4.000,-10, -4, -3, -7, 5, -4, -6, -1
1503604460145,-0.850,-0.468,-0.083,+0.227,+0.734,-0.339,-0.573,+6.562,-27.062,+13.625,-4, 7, 1, 9, 3, 4, 5, 6
1503604460168,-0.851,-0.465,-0.086,+0.228,+0.713,-0.360,-0.527,+7.875,-21.688,+16.250,2, 0, -4, -7, -10, -19, 3, 3
1503604460190,-0.851,-0.463,-0.089,+0.229,+0.689,-0.405,-0.522,+9.375,-7.312,+8.875,-1, 0, 1, -4, 3, 7, -2, 0
1503604460205,-0.851,-0.463,-0.092,+0.229,+0.716,-0.350,-0.492,+9.688,-3.875,+4.625,2, -1, 3, -2, -1, 0, 3, -10
1503604460228,-0.852,-0.462,-0.093,+0.227,+0.729,-0.353,-0.506,+9.750,-5.938,-6.312,23, 7, -1, -4, -6, 3, -6, 8
1503604460251,-0.853,-0.462,-0.094,+0.224,+0.747,-0.403,-0.497,+10.438,-7.938,-17.250,31, 0, -2, 1, 2, 2, 1, 4
1503604460265,-0.854,-0.462,-0.094,+0.221,+0.736,-0.399,-0.496,+6.062,-4.938,-18.625,18, 7, -2, -2, -3, 0, -4, 13
1503604460288,-0.855,-0.463,-0.094,+0.217,+0.706,-0.379,-0.499,+5.938,+2.938,-24.625,-7, -5, 0, 2, -2, 1, 0, -1
1503604460313,-0.855,-0.464,-0.092,+0.212,+0.739,-0.346,-0.495,+2.000,+6.625,-29.125,3, 0, -3, -5, -3, 2, 2, -8
1503604460325,-0.856,-0.465,-0.090,+0.207,+0.814,-0.358,-0.521,+2.688,+3.500,-31.938,16, -6, 1, 1, 3, 4, 0, 23
1503604460351,-0.857,-0.466,-0.089,+0.202,+0.818,-0.355,-0.517,+7.625,-2.438,-32.125,6, 3, 0, -2, 0, -4, -4, 10
1503604460370,-0.858,-0.467,-0.088,+0.197,+0.832,-0.329,-0.512,+8.625,-1.625,-27.438,-27, -14, -2, 0, -3, -2, -2, -10
1503604460385,-0.858,-0.468,-0.087,+0.193,+0.857,-0.308,-0.532,+11.438,+1.000,-20.938,-24, 20, 3, 0, 0, -1, -1, -50
1503604462313,-0.831,-0.536,-0.130,+0.073,+0.903,-0.308,-0.354,-0.812,+12.812,-19.562,16, -1, -2, -3, -10, 0, 2, -3
1503604462331,-0.831,-0.537,-0.128,+0.071,+0.935,-0.300,-0.340,-1.375,+5.688,-18.938,2, -2, 8, 0, -5, -2, -4, 0
1503604462350,-0.831,-0.538,-0.126,+0.068,+0.916,-0.282,-0.310,-2.625,-2.375,-20.875,-4, -3, -3, -2, -7, -6, -2, -15
1503604462373,-0.831,-0.538,-0.124,+0.065,+0.896,-0.271,-0.321,-3.875,-0.188,-21.438,-4, -9, -6, -4, -15, -5, -8, -22
1503604462390,-0.831,-0.539,-0.122,+0.062,+0.904,-0.281,-0.350,-4.500,+3.438,-21.062,-7, -2, 1, 0, 10, 1, -3, -13
1503604462413,-0.831,-0.540,-0.119,+0.060,+0.908,-0.252,-0.345,-4.875,+6.562,-19.812,5, 2, 8, 8, 0, 1, 2, 4
1503604462433,-0.831,-0.541,-0.117,+0.058,+0.924,-0.234,-0.318,-3.750,+1.812,-16.625,1, 7, -3, -4, -19, -4, -3, 5
1503604462449,-0.830,-0.542,-0.115,+0.056,+0.976,-0.229,-0.319,-5.500,+2.750,-12.875,31, 0, -4, -4, -3, -3, 0, 25
1503604462470,-0.830,-0.544,-0.113,+0.055,+0.937,-0.216,-0.343,-4.875,+9.312,-9.562,-3, 2, -8, -1, 1, 3, 1, -4
1503604462493,-0.830,-0.544,-0.112,+0.054,+0.934,-0.219,-0.382,-1.562,+0.875,-5.062,-8, -2, -4, 2, 5, 2, 2, 9
1503604462510,-0.831,-0.543,-0.112,+0.053,+0.906,-0.236,-0.373,-2.188,-8.250,-4.000,-5, -1, 1, -2, 2, 1, -1, -5
1503604462530,-0.831,-0.542,-0.111,+0.053,+0.889,-0.243,-0.324,-3.000,-5.000,-3.312,-4, -1, -3, -3, -1, -1, 0, -16
1503604462553,-0.831,-0.543,-0.111,+0.054,+0.920,-0.241,-0.338,-4.875,+6.750,+0.312,-4, -6, 3, -2, -3, -2, -3, 16
1503604462569,-0.830,-0.544,-0.110,+0.054,+0.916,-0.229,-0.338,-3.938,+4.938,-1.938,-30, 5, 17, 5, 2, 0, 0, -10
1503604462592,-0.831,-0.543,-0.109,+0.053,+0.892,-0.227,-0.343,-1.500,-3.375,-6.375,-9, -32, -14, -7, 0, -1, -2, 7
1503604462620,-0.831,-0.543,-0.109,+0.051,+0.897,-0.240,-0.343,-0.875,-4.375,-7.438,6, 14, 4, 3, -2, 0, 1, -1
1503604462636,-0.831,-0.543,-0.108,+0.051,+0.900,-0.243,-0.333,-2.438,+0.750,-7.125,6, -1, -2, 4, 0, -1, 1, 2
1503604462651,-0.831,-0.544,-0.107,+0.050,+0.919,-0.238,-0.335,-4.125,+3.438,-6.188,2, -1, -5, -5, -1, -1, 0, 0
1503604462673,-0.831,-0.544,-0.106,+0.049,+0.913,-0.217,-0.333,-3.625,+0.875,-7.562,11, 0, -4, -1, 0, -2, -1, -8
1503604462691,-0.831,-0.544,-0.105,+0.048,+0.920,-0.209,-0.350,-2.125,-2.938,-8.812,10, 18, 8, 5, -7, -5, -2, 4
1503604462711,-0.832,-0.544,-0.104,+0.047,+0.911,-0.228,-0.367,-2.625,-0.500,-5.938,8, -6, -8, -3, 6, 0, -1, 0
1503604462734,-0.831,-0.544,-0.103,+0.047,+0.901,-0.215,-0.334,-4.312,+2.625,-5.625,2, 1, -3, -8, -12, -1, 0, 4
1503604462749,-0.831,-0.544,-0.102,+0.046,+0.942,-0.206,-0.346,-4.125,+1.500,-4.562,-14, -9, -8, -2, 0, -1, -1, -3
1503604462771,-0.832,-0.544,-0.101,+0.046,+0.914,-0.209,-0.353,-3.688,+0.312,-5.250,1, 6, -6, 0, 3, 4, -1, 2
1503604462793,-0.832,-0.544,-0.100,+0.045,+0.904,-0.199,-0.349,-2.500,-3.875,-5.375,-8, -14, -8, -3, -2, 1, -1, -8
1503604462809,-0.832,-0.544,-0.100,+0.044,+0.886,-0.212,-0.344,-3.250,-1.500,-5.125,-14, -4, -1, 4, 5, 1, -2, -2
1503604462831,-0.832,-0.544,-0.099,+0.044,+0.894,-0.203,-0.347,-1.938,+2.750,-6.750,6, -27, -6, -10, -7, 0, 0, 13
1503604462853,-0.832,-0.544,-0.098,+0.043,+0.907,-0.209,-0.353,-2.625,+3.938,-6.938,-12, -10, -2, 1, -6, -2, 1, -3
1503604462869,-0.832,-0.545,-0.097,+0.042,+0.924,-0.195,-0.349,-1.125,+1.750,-8.250,-4, 5, 0, 0, -2, -4, 0, 3
1503604462892,-0.832,-0.545,-0.096,+0.041,+0.914,-0.207,-0.341,-1.250,+1.750,-7.688,15, 16, 1, 2, -2, 0, -2, -1
1503604462913,-0.832,-0.546,-0.096,+0.040,+0.928,-0.208,-0.325,-2.625,+0.438,-7.188,-7, -5, -2, -4, 16, 11, 1, 8
1503604462931,-0.832,-0.546,-0.095,+0.039,+0.922,-0.194,-0.331,-2.750,+1.625,-6.938,-1, 3, -6, -5, -9, -4, -3, 5
1503604462951,-0.831,-0.547,-0.093,+0.038,+0.934,-0.178,-0.329,-4.062,+1.438,-8.438,7, 14, 15, 5, 4, 3, -1, -11
1503604462973,-0.832,-0.547,-0.093,+0.037,+0.941,-0.181,-0.347,-3.562,-1.125,-5.188,1, -16, -1, -2, 12, 7, -1, 3
1503604462992,-0.832,-0.546,-0.092,+0.037,+0.951,-0.189,-0.338,-3.125,-1.188,+0.250,-7, 9, 1, 0, -1, -4, -2, -5
1503604463011,-0.831,-0.547,-0.092,+0.038,+0.948,-0.186,-0.335,-4.875,+1.125,+3.688,-1, 3, 1, -2, -2, 0, -1, -5
1503604463035,-0.831,-0.547,-0.092,+0.039,+0.924,-0.184,-0.335,-6.500,-0.188,+5.500,49, 10, 0, 0, -8, -7, -4, -9
1503604463050,-0.832,-0.546,-0.091,+0.040,+0.915,-0.185,-0.335,-7.312,-2.250,+4.062,5, 2, 5, 2, -2, -10, -3, 6
1503604463078,-0.832,-0.546,-0.090,+0.041,+0.946,-0.183,-0.315,-8.250,-3.000,+2.188,5, 0, -6, 5, 26, 3, 1, -2
1503604463093,-0.832,-0.546,-0.090,+0.042,+0.958,-0.179,-0.342,-7.125,-0.812,+4.562,-18, 2, -2, -7, -11, -2, -2, 0
1503604463109,-0.832,-0.545,-0.089,+0.043,+0.952,-0.169,-0.340,-6.188,-6.000,+6.312,1, 17, 21, 4, -2, 0, 4, 14
1503604463132,-0.833,-0.544,-0.089,+0.045,+0.925,-0.186,-0.352,-6.625,-6.062,+8.750,-7, -9, -3, -4, -25, -1, 2, -3
1503604463153,-0.834,-0.543,-0.089,+0.047,+0.932,-0.185,-0.347,-7.625,-6.125,+10.000,2, 6, -4, -7, -1, 5, 2, 6
1503604463176,-0.834,-0.542,-0.089,+0.049,+0.920,-0.198,-0.374,-7.438,-6.438,+12.438,11, -4, -18, -11, -12, -7, -7, -4
1503604463195,-0.835,-0.541,-0.090,+0.051,+0.897,-0.197,-0.354,-8.562,-5.875,+13.312,4, 25, 38, 10, 1, 2, 1, 13
1503604463213,-0.835,-0.540,-0.090,+0.054,+0.912,-0.204,-0.366,-7.875,-3.625,+16.562,1, -11, -12, 0, 5, 4, -2, -20
1503604463231,-0.835,-0.539,-0.091,+0.057,+0.934,-0.201,-0.360,-7.625,-1.812,+19.938,-2, -7, -2, 0, -12, -14, -4, 3
1503604463251,-0.835,-0.539,-0.092,+0.061,+0.913,-0.191,-0.362,-6.688,-2.125,+23.000,-17, -9, -9, 2, 2, 1, -1, -8
1503604463273,-0.836,-0.537,-0.093,+0.064,+0.905,-0.201,-0.375,-5.688,-5.812,+23.250,-3, -1, -2, 1, 34, 4, 1, -6
1503604463289,-0.836,-0.536,-0.095,+0.068,+0.901,-0.215,-0.363,-5.375,-5.562,+21.312,-7, -4, 2, -6, -14, 1, -2, -2
1503604463311,-0.837,-0.535,-0.096,+0.070,+0.861,-0.220,-0.373,-3.312,-6.875,+19.375,0, -4, -1, 3, -3, -4, 2, 3
1503604463333,-0.837,-0.533,-0.098,+0.073,+0.850,-0.233,-0.372,-1.812,-5.312,+15.312,2, -2, -5, -4, -2, -4, -3, -13
1503604463349,-0.837,-0.533,-0.099,+0.075,+0.863,-0.250,-0.377,-2.125,-1.125,+13.125,-10, -12, -10, -6, -6, -3, -5, -13
1503604463371,-0.837,-0.533,-0.100,+0.077,+0.891,-0.260,-0.378,-2.250,+4.562,+13.000,-17, -27, -15, -4, 7, 3, -1, -2
1503604463396,-0.836,-0.533,-0.101,+0.079,+0.913,-0.263,-0.363,-3.812,+2.562,+14.188,-4, -4, -2, 2, -2, -2, 1, 5
1503604463409,-0.836,-0.533,-0.102,+0.081,+0.939,-0.247,-0.343,-3.625,-2.062,+13.688,-14, 24, 9, 0, 0, 4, -2, -1
1503604463431,-0.837,-0.532,-0.102,+0.083,+0.916,-0.249,-0.347,-3.562,-8.875,+11.062,-12, -7, -6, 0, 6, 1, 0, 7
1503604463453,-0.837,-0.530,-0.103,+0.084,+0.897,-0.258,-0.357,-3.375,-10.812,+12.812,19, 12, 9, 8, -5, -3, 3, 2
1503604463470,-0.838,-0.529,-0.104,+0.087,+0.877,-0.253,-0.372,-4.500,-7.000,+14.375,-10, -21, -7, -7, 10, 2, 1, 4
1503604463491,-0.838,-0.528,-0.105,+0.089,+0.851,-0.245,-0.379,-3.938,-3.000,+13.312,7, 2, 6, 2, 11, 1, -1, 5
1503604463513,-0.839,-0.527,-0.105,+0.090,+0.847,-0.257,-0.384,-2.375,-6.250,+8.688,14, -4, -4, -7, 16, 2, -8, 4
1503604463531,-0.840,-0.525,-0.106,+0.090,+0.844,-0.274,-0.389,-2.250,-10.938,+2.375,0, 20, 9, -1, -15, 2, 5, -5
1503604463551,-0.841,-0.523,-0.106,+0.090,+0.819,-0.300,-0.398,-3.000,-10.750,-2.562,-7, -6, -5, -4, -40, -15, 0, -5
1503604463573,-0.842,-0.522,-0.105,+0.090,+0.805,-0.309,-0.377,-6.625,-4.625,-5.562,-5, -3, 0, -3, -33, -7, -2, -9
1503604463589,-0.841,-0.524,-0.103,+0.090,+0.880,-0.293,-0.360,-11.625,+8.938,-6.438,3, 5, 1, -3, 10, 1, -1, 8
1503604463611,-0.839,-0.526,-0.101,+0.091,+0.953,-0.292,-0.351,-12.250,+14.062,-3.500,-5, -7, 1, 1, 16, 5, -2, 8
1503604463634,-0.839,-0.527,-0.100,+0.092,+0.958,-0.269,-0.359,-12.000,+3.125,-2.125,-8, -2, -2, -2, -2, -4, -1, -12
1503604463649,-0.840,-0.526,-0.098,+0.092,+0.900,-0.229,-0.388,-11.875,-7.812,-2.688,-13, -11, -7, 1, 32, 11, -1, -3
1503604463672,-0.841,-0.524,-0.096,+0.092,+0.895,-0.218,-0.382,-10.938,-11.062,-0.812,-10, -15, -4, 1, 17, -6, 0, -2
1503604463696,-0.842,-0.524,-0.095,+0.093,+0.933,-0.230,-0.406,-9.062,-3.188,+5.438,36, 20, 24, 8, -4, 1, -1, 0
1503604463709,-0.842,-0.523,-0.095,+0.096,+0.938,-0.241,-0.414,-9.375,-1.938,+12.938,-29, -9, -9, -1, -11, -3, -4, -8
1503604463733,-0.842,-0.521,-0.095,+0.099,+0.878,-0.224,-0.431,-8.750,-5.500,+16.625,8, 3, -3, -3, -16, -16, -1, 0
1503604463753,-0.843,-0.519,-0.095,+0.101,+0.846,-0.225,-0.421,-4.875,-9.750,+13.938,7, -1, -4, 0, 10, 6, 1, 10
1503604463771,-0.844,-0.517,-0.096,+0.102,+0.851,-0.277,-0.404,-4.000,-14.938,+10.938,-2, -4, -5, -5, -64, -12, -1, -1
1503604463791,-0.845,-0.516,-0.097,+0.104,+0.887,-0.303,-0.390,-7.875,-6.750,+11.438,-8, -4, -1, 1, -11, -10, 0, 1
1503604463813,-0.844,-0.516,-0.096,+0.108,+0.895,-0.290,-0.379,-14.500,+3.312,+17.562,3, -9, -5, 1, 0, 3, 3, 5
1503604463831,-0.843,-0.517,-0.096,+0.112,+0.886,-0.305,-0.346,-15.188,+3.688,+19.500,-15, -17, -21, -14, 9, 7, -2, -1
1503604463851,-0.844,-0.516,-0.095,+0.115,+0.867,-0.266,-0.340,-16.625,-8.062,+11.812,-33, 0, 2, 9, 19, 2, -3, -7
1503604463873,-0.845,-0.513,-0.093,+0.116,+0.827,-0.230,-0.404,-16.500,-13.375,+2.000,-14, 13, -4, -2, 14, 4, -2, -18
1503604463889,-0.846,-0.512,-0.092,+0.118,+0.782,-0.292,-0.444,-14.938,-1.312,+1.312,13, -5, 5, 0, 15, 2, 0, 1
1503604463911,-0.845,-0.513,-0.090,+0.121,+0.853,-0.314,-0.430,-16.188,+9.125,+7.500,13, 10, 9, 9, 3, 1, 1, 1
1503604463933,-0.844,-0.514,-0.089,+0.124,+0.940,-0.302,-0.401,-19.438,+5.438,+11.812,4, 12, 8, 11, 25, 0, -1, -12
1503604463949,-0.845,-0.512,-0.087,+0.127,+0.907,-0.300,-0.392,-21.938,-10.875,+9.062,-14, -11, -4, -10, -5, -1, 1, 2
1503604463973,-0.847,-0.508,-0.085,+0.129,+0.818,-0.265,-0.403,-21.688,-20.438,+3.312,14, 9, 7, -5, 6, 4, -1, 5
1503604463993,-0.849,-0.506,-0.082,+0.131,+0.794,-0.269,-0.395,-24.875,-16.688,-1.812,-1, -3, -5, -4, -8, -2, -1, 3
1503604464009,-0.850,-0.504,-0.078,+0.132,+0.797,-0.282,-0.375,-29.562,-11.875,-6.375,15, 7, 2, -5, 1, 7, -1, 11
1503604464032,-0.851,-0.502,-0.073,+0.133,+0.825,-0.276,-0.382,-32.875,-7.625,-15.750,-2, -18, -11, -8, -4, 0, -1, -5
1503604464053,-0.852,-0.502,-0.066,+0.133,+0.846,-0.259,-0.426,-34.688,+1.875,-19.250,-3, -5, -2, 0, -3, 0, 0, 0
1503604464069,-0.853,-0.501,-0.060,+0.133,+0.871,-0.261,-0.439,-34.562,-5.375,-17.250,1, -2, 3, 5, 3, 0, 2, 3
1503604464093,-0.855,-0.498,-0.054,+0.134,+0.917,-0.246,-0.429,-37.688,-18.438,-15.438,-5, 2, 2, 2, -3, -1, -1, -3
1503604464113,-0.857,-0.495,-0.047,+0.135,+0.942,-0.212,-0.405,-41.250,-24.250,-16.062,-2, 5, 2, 0, 29, 1, 0, -9
1503604464132,-0.860,-0.490,-0.041,+0.135,+0.883,-0.155,-0.486,-37.250,-26.750,-14.062,6, -2, 4, 10, -8, 1, 1, -5
1503604464151,-0.863,-0.485,-0.036,+0.136,+0.794,-0.123,-0.551,-29.562,-22.812,-8.438,-4, -5, -1, -8, -8, -1, 1, 12
1503604464174,-0.865,-0.481,-0.032,+0.137,+0.812,-0.132,-0.530,-27.125,-19.438,-3.250,-5, 3, -3, -3, -3, -2, 0, 7
1503604464195,-0.867,-0.479,-0.028,+0.139,+0.838,-0.160,-0.518,-26.062,-13.438,-1.688,8, -5, 4, 5, -2, -2, 0, 0
1503604464211,-0.868,-0.476,-0.025,+0.140,+0.827,-0.152,-0.524,-23.438,-9.062,-2.500,-5, -4, -12, -7, -7, 0, -1, -1
1503604464233,-0.869,-0.474,-0.021,+0.141,+0.792,-0.133,-0.556,-19.000,-7.938,-5.250,24, 9, 0, 0, -3, -2, -3, -11
1503604464249,-0.870,-0.472,-0.019,+0.140,+0.813,-0.151,-0.548,-15.250,-10.250,-9.062,-6, 0, -4, -1, -2, -3, -4, -5
1503604464271,-0.871,-0.470,-0.016,+0.140,+0.852,-0.173,-0.521,-16.500,-9.125,-10.688,-5, -1, 0, -2, -2, -2, -2, -3
1503604464293,-0.872,-0.469,-0.013,+0.140,+0.865,-0.167,-0.501,-18.688,-7.812,-9.375,-3, -5, -2, -3, 0, 1, 2, 4
1503604466993,-0.865,-0.442,-0.218,+0.090,+0.748,-0.456,-0.458,-12.938,-0.688,+7.812,4, 2, 3, -2, 3, -1, -2, -7
1503604467015,-0.865,-0.443,-0.217,+0.094,+0.742,-0.483,-0.479,-16.062,+7.562,+12.375,13, 6, 5, 1, -1, 2, 2, 13
1503604467031,-0.865,-0.443,-0.215,+0.097,+0.762,-0.435,-0.463,-17.562,+9.125,+12.062,0, -6, -11, -8, -7, 2, -1, -9
1503604467056,-0.865,-0.443,-0.213,+0.099,+0.766,-0.420,-0.473,-14.750,+2.125,+9.312,14, -6, -5, 0, 0, 0, 0, 18
1503604467076,-0.865,-0.443,-0.212,+0.102,+0.700,-0.451,-0.471,-15.750,+0.688,+9.500,5, 3, -5, 1, -4, -2, -3, -2
1503604467091,-0.865,-0.443,-0.211,+0.105,+0.674,-0.490,-0.465,-18.438,+12.625,+10.500,4, 1, 0, 3, 1, 0, 2, 16
1503604467114,-0.863,-0.446,-0.209,+0.111,+0.661,-0.483,-0.488,-22.250,+29.375,+15.375,-26, -5, 6, -1, -5, -2, -3, 7
1503604467135,-0.861,-0.452,-0.205,+0.116,+0.678,-0.438,-0.525,-22.688,+50.062,+12.062,12, -3, -4, -4, -2, -1, 2, 13
1503604467151,-0.858,-0.457,-0.202,+0.119,+0.759,-0.398,-0.526,-15.438,+44.250,+1.812,11, -6, -5, -7, -3, 0, -2, -11
1503604467172,-0.856,-0.461,-0.199,+0.118,+0.779,-0.411,-0.476,-3.625,+26.938,-8.750,-17, -5, -2, -2, -2, -3, -4, 4
1503604467195,-0.856,-0.464,-0.198,+0.116,+0.746,-0.426,-0.489,+3.125,+16.438,-16.562,7, -2, -2, -3, -3, 1, 2, -7
1503604467211,-0.854,-0.467,-0.197,+0.114,+0.719,-0.418,-0.494,+5.375,+23.250,-16.875,15, -6, -2, 2, 0, -2, -1, 6
1503604467232,-0.851,-0.474,-0.196,+0.114,+0.729,-0.426,-0.468,+4.562,+45.000,-11.062,2, -1, 4, 1, -1, 0, -1, 9
1503604467256,-0.846,-0.483,-0.196,+0.113,+0.797,-0.430,-0.433,+10.000,+58.062,-11.000,-1, 2, -3, 2, 0, -1, 2, 9
1503604467271,-0.842,-0.490,-0.195,+0.110,+0.905,-0.395,-0.409,+17.812,+42.438,-15.125,-1, 10, 2, 5, 1, -1, 1, -15
1503604467293,-0.841,-0.493,-0.196,+0.105,+0.920,-0.412,-0.391,+21.812,+9.500,-20.500,-13, -4, 0, -1, 1, 0, 0, 5
1503604467315,-0.841,-0.493,-0.198,+0.100,+0.807,-0.436,-0.389,+23.000,-6.438,-20.938,5, -3, -1, 1, 0, -2, -1, -11
1503604467331,-0.840,-0.495,-0.200,+0.096,+0.738,-0.427,-0.395,+20.688,+7.938,-12.875,7, 19, 3, -1, 1, 0, 1, 0
1503604467353,-0.838,-0.499,-0.202,+0.095,+0.809,-0.411,-0.428,+19.375,+26.938,-6.875,-28, -12, -7, -1, -1, 1, -5, -13
1503604467375,-0.835,-0.503,-0.204,+0.092,+0.849,-0.383,-0.411,+23.375,+28.250,-5.188,-12, -5, -1, -1, -2, 0, -2, -26
1503604467392,-0.833,-0.506,-0.206,+0.088,+0.831,-0.375,-0.427,+32.000,+12.438,-13.000,16, 0, -3, -1, -2, -2, 2, 30
1503604467415,-0.833,-0.506,-0.210,+0.081,+0.789,-0.415,-0.362,+35.438,-1.938,-23.750,11, 1, -1, -1, 0, 0, -3, 9
1503604467435,-0.832,-0.507,-0.213,+0.075,+0.871,-0.491,-0.309,+31.938,-10.500,-26.438,-6, -2, 5, 4, 1, -2, -3, -13
1503604467458,-0.831,-0.509,-0.215,+0.069,+0.914,-0.503,-0.271,+21.438,-1.062,-22.438,13, 2, 0, 0, 0, -1, -3, -10
1503604467473,-0.829,-0.511,-0.216,+0.066,+0.847,-0.439,-0.269,+12.125,+8.438,-15.625,12, -1, -1, 1, 1, 0, 4, 4
1503604467495,-0.827,-0.515,-0.216,+0.065,+0.846,-0.417,-0.294,+8.312,+17.188,-9.812,-13, -2, -4, -3, -3, -1, -1, 0
1503604467511,-0.826,-0.518,-0.216,+0.063,+0.856,-0.404,-0.313,+8.312,+16.000,-10.938,-16, 1, 4, -1, 0, 3, 2, 4
1503604467533,-0.826,-0.518,-0.216,+0.059,+0.903,-0.404,-0.283,+8.625,-7.125,-16.750,11, -6, -5, 1, 1, -1, -1, 12
1503604467555,-0.827,-0.517,-0.215,+0.055,+0.856,-0.425,-0.285,+6.062,-16.250,-20.562,16, 0, 0, -2, -2, -2, -3, -1
1503604467571,-0.827,-0.517,-0.215,+0.053,+0.828,-0.437,-0.296,+1.938,-0.188,-14.188,-2, -2, -1, -2, -2, 0, 2, 4
1503604467593,-0.825,-0.520,-0.215,+0.053,+0.867,-0.431,-0.310,-3.188,+15.312,-3.938,-14, -2, -3, -3, -3, -4, -1, -8
1503604467617,-0.824,-0.522,-0.214,+0.053,+0.868,-0.377,-0.336,-2.375,+13.938,-1.625,2, -1, -4, -2, -2, -4, -3, -6
1503604467637,-0.825,-0.522,-0.212,+0.052,+0.847,-0.374,-0.312,-2.625,-2.812,-12.500,-11, -2, 0, -1, -1, 1, 1, -3
1503604467653,-0.826,-0.521,-0.211,+0.048,+0.863,-0.412,-0.314,-0.688,-14.625,-20.125,-5, 0, -3, -1, 3, 1, 3, -11
1503604467675,-0.826,-0.521,-0.209,+0.046,+0.852,-0.414,-0.319,-1.875,-3.250,-17.625,7, 1, -1, 2, -1, 0, 0, 9
1503604467697,-0.826,-0.522,-0.208,+0.045,+0.875,-0.408,-0.335,-4.500,+8.938,-6.875,-3, 6, 10, 0, -2, -1, -2, -3
1503604467713,-0.825,-0.524,-0.207,+0.045,+0.869,-0.348,-0.313,-6.125,+7.250,-4.812,2, -7, -1, -3, -4, -1, -4, -29
1503604467735,-0.825,-0.524,-0.205,+0.044,+0.858,-0.348,-0.319,-4.625,+1.250,-11.062,3, 7, 25, 4, 4, 1, -1, 13
1503604467751,-0.826,-0.524,-0.203,+0.041,+0.864,-0.374,-0.330,-1.688,-3.750,-17.438,6, -11, -16, -5, 2, -1, 1, 1
1503604467773,-0.826,-0.524,-0.202,+0.039,+0.897,-0.373,-0.340,+1.062,-3.625,-14.938,-12, 11, 1, 1, -2, -1, -3, -4
1503604467795,-0.827,-0.524,-0.201,+0.036,+0.879,-0.358,-0.332,+1.750,-2.000,-13.125,-1, -6, -6, -1, -1, -1, -3, 9
1503604467811,-0.827,-0.525,-0.200,+0.033,+0.860,-0.321,-0.342,+5.688,-0.812,-16.188,4, 0, -3, 3, -3, -2, 1, -2
1503604467833,-0.827,-0.525,-0.200,+0.029,+0.871,-0.349,-0.351,+8.000,-6.438,-23.812,-3, -2, -7, -1, 0, 0, -1, -4
1503604467855,-0.828,-0.524,-0.198,+0.025,+0.874,-0.361,-0.353,+6.438,-9.562,-23.812,5, 8, 4, 0, 4, -1, -1, -1
1503604467877,-0.828,-0.524,-0.198,+0.021,+0.899,-0.353,-0.318,+6.750,-6.250,-22.062,-5, -7, -3, 1, -3, -2, 0, 0
1503604467893,-0.828,-0.524,-0.198,+0.017,+0.917,-0.362,-0.314,+7.250,-1.625,-15.938,9, 3, 4, 0, -4, -1, -1, 7
1503604467917,-0.828,-0.524,-0.197,+0.015,+0.902,-0.331,-0.311,+5.938,-5.250,-13.438,5, 11, 0, 1, 4, -1, -1, 1
1503604467937,-0.828,-0.524,-0.197,+0.013,+0.914,-0.326,-0.330,+2.812,-4.375,-8.875,0, 0, -4, -3, -1, -1, 0, 0
1503604467953,-0.828,-0.525,-0.197,+0.011,+0.870,-0.308,-0.346,+2.875,+2.750,-6.125,-4, -16, -13, -5, -3, 0, 1, 3
1503604467976,-0.828,-0.525,-0.196,+0.009,+0.890,-0.300,-0.320,+3.938,-3.312,-8.938,0, -5, 1, 5, 5, 1, -2, -2
1503604467991,-0.829,-0.524,-0.196,+0.007,+0.903,-0.327,-0.333,+4.562,-10.625,-12.500,-5, 1, -4, -3, -2, 2, 1, 1
1503604468013,-0.830,-0.523,-0.196,+0.004,+0.864,-0.329,-0.337,+5.125,-8.062,-12.938,2, -7, -4, -1, 23, -4, -6, 0
1503604468035,-0.830,-0.523,-0.195,+0.002,+0.895,-0.315,-0.333,+3.438,-0.375,-10.125,-1, 0, -5, 2, -2, 15, 24, 1
1503604468052,-0.829,-0.523,-0.196,+0.001,+0.928,-0.319,-0.343,+5.750,-0.938,-4.688,-4, 0, 0, -4, -6, -3, -2, -2
1503604468075,-0.829,-0.523,-0.196,-0.000,+0.883,-0.326,-0.314,+2.688,-0.625,-3.188,1, 29, 32, 2, 0, 1, -5, 2
1503604468095,-0.829,-0.524,-0.196,-0.001,+0.880,-0.317,-0.316,+2.125,+0.812,-4.438,1, 9, 4, 9, 11, -2, -4, 0
1503604468111,-0.829,-0.524,-0.196,-0.002,+0.917,-0.319,-0.318,-1.375,-0.375,-2.375,3, -11, -14, -2, 2, -3, -6, 2
1503604468133,-0.829,-0.524,-0.196,-0.001,+0.896,-0.319,-0.322,-3.375,+0.188,-0.500,-1, -16, -8, -5, -11, -3, -4, -3
1503604468156,-0.829,-0.524,-0.195,-0.001,+0.885,-0.312,-0.326,-5.250,-2.250,+1.188,-3, 0, -10, -4, -9, -3, -2, -1
1503604468171,-0.829,-0.524,-0.195,-0.000,+0.886,-0.300,-0.325,-5.312,+3.625,+2.625,-4, -9, 5, -1, -2, -1, -2, 0
1503604468194,-0.828,-0.526,-0.194,+0.001,+0.913,-0.306,-0.325,-6.250,+12.312,+6.812,-12, -3, -3, -3, -3, -1, -1, -7
1503604468216,-0.827,-0.528,-0.194,+0.004,+0.916,-0.325,-0.319,-6.438,+11.750,+10.062,-4, -1, -1, -3, -2, 1, 0, 21
1503604468231,-0.827,-0.527,-0.194,+0.006,+0.900,-0.314,-0.335,-7.375,-0.562,+10.750,3, -3, 0, 5, 11, -2, -2, -5
1503604468254,-0.828,-0.527,-0.194,+0.008,+0.875,-0.353,-0.300,-12.438,-2.000,+8.750,-5, -11, -4, -3, -2, -1, -4, -1
1503604468276,-0.827,-0.528,-0.193,+0.011,+0.895,-0.337,-0.326,-13.125,+9.375,+13.875,5, -3, -2, -1, 4, 0, -1, -5
1503604468297,-0.827,-0.529,-0.193,+0.015,+0.903,-0.319,-0.339,-12.500,+11.188,+15.062,7, -6, -5, 1, -2, 0, 0, -2
1503604468314,-0.827,-0.528,-0.193,+0.017,+0.863,-0.313,-0.359,-8.688,+4.688,+12.188,-11, 3, 1, -3, 0, 1, 0, -1
1503604468335,-0.828,-0.527,-0.192,+0.018,+0.837,-0.298,-0.359,-4.688,-4.875,+3.375,26, 0, 4, 3, -1, -2, -2, 26
1503604468358,-0.828,-0.526,-0.191,+0.017,+0.814,-0.315,-0.346,-1.562,-3.125,-7.000,-7, 7, -1, -1, -2, 2, -1, -8
1503604468373,-0.829,-0.526,-0.191,+0.015,+0.837,-0.344,-0.362,+1.375,-2.188,-12.625,-4, -12, -15, -3, -5, 0, -1, -7
1503604468396,-0.829,-0.526,-0.190,+0.012,+0.839,-0.333,-0.344,+4.750,-2.188,-17.938,-4, -6, -1, -4, -2, -5, 0, 2
1503604468421,-0.829,-0.526,-0.189,+0.008,+0.876,-0.324,-0.329,+6.312,-2.688,-21.625,7, 3, 5, 3, 27, 5, 1, -2
1503604468434,-0.829,-0.527,-0.188,+0.004,+0.886,-0.319,-0.317,+5.938,-0.188,-23.312,-3, 13, 5, 2, -10, -2, 1, 0
1503604468456,-0.829,-0.528,-0.187,-0.000,+0.877,-0.301,-0.295,+4.188,-2.750,-27.062,5, 19, 4, 0, -9, -5, 0, -1
1503604468477,-0.829,-0.528,-0.185,-0.005,+0.916,-0.303,-0.313,+2.562,-4.062,-27.562,-5, -9, -13, -7, -12, -2, -2, -8
1503604468494,-0.829,-0.529,-0.183,-0.008,+0.945,-0.298,-0.318,+0.562,-1.125,-22.562,-5, -18, 2, -5, 2, 2, -1, -7
1503604468516,-0.828,-0.530,-0.182,-0.011,+0.928,-0.279,-0.316,-0.562,-1.250,-17.250,6, 7, 4, 4, 0, 2, 0, -3
1503604468537,-0.828,-0.531,-0.180,-0.013,+0.897,-0.270,-0.299,-2.875,-0.375,-17.250,4, -7, -10, -4, -2, -1, 0, -2
1503604468554,-0.828,-0.531,-0.177,-0.016,+0.941,-0.246,-0.325,-3.500,-0.500,-16.875,4, 3, 0, 1, 6, 1, -3, -5
1503604468575,-0.828,-0.532,-0.176,-0.017,+0.949,-0.250,-0.320,-4.750,-2.750,-12.875,-1, 2, 5, 3, 0, 0, 0, -1
1503604468591,-0.829,-0.532,-0.174,-0.019,+0.940,-0.237,-0.331,-3.875,-2.562,-7.938,1, 5, 5, 5, 3, 3, -1, -13
1503604468613,-0.829,-0.532,-0.173,-0.019,+0.954,-0.242,-0.346,-4.312,+0.000,-2.438,0, 3, 4, 2, 4, 3, 2, 0
1503604468635,-0.829,-0.532,-0.173,-0.018,+0.951,-0.253,-0.339,-4.375,-0.625,+6.375,9, -8, -10, -5, -3, -4, 0, 6
1503604468651,-0.829,-0.531,-0.173,-0.016,+0.942,-0.266,-0.337,-7.250,+0.000,+12.625,-26, -3, -5, 0, 2, -4, -2, -16
1503604468674,-0.829,-0.532,-0.174,-0.013,+0.941,-0.250,-0.332,-6.625,+3.375,+18.438,42, -10, 9, 2, -2, 4, 4, 16
1503604468696,-0.829,-0.532,-0.175,-0.009,+0.899,-0.238,-0.335,-6.312,+6.750,+21.812,4, 12, 0, -3, -3, -1, 0, 4
1503604468717,-0.828,-0.532,-0.176,-0.006,+0.917,-0.277,-0.313,-5.812,+1.938,+22.500,8, -5, -8, -5, 1, -6, -2, -13
1503604468734,-0.828,-0.531,-0.177,-0.002,+0.890,-0.302,-0.324,-6.188,+2.062,+20.938,16, -2, -7, -3, -2, -1, -2, 19
1503604468756,-0.828,-0.531,-0.178,+0.001,+0.845,-0.277,-0.325,-7.500,+4.938,+17.875,-15, -1, -7, -5, -2, -3, -1, 3
1503604468777,-0.828,-0.532,-0.179,+0.004,+0.880,-0.296,-0.354,-6.438,+9.000,+15.125,-10, -1, -5, -3, -2, -2, -1, -2
1503604468797,-0.828,-0.532,-0.180,+0.006,+0.914,-0.312,-0.333,-3.688,+3.125,+15.312,17, 16, 1, 2, 1, 1, -2, 3
1503604468816,-0.828,-0.531,-0.181,+0.009,+0.880,-0.311,-0.321,-4.125,-0.375,+13.250,-12, -5, 0, 2, 1, -1, -1, 3
1503604468837,-0.828,-0.531,-0.181,+0.010,+0.840,-0.292,-0.337,-3.125,+0.562,+8.062,15, -1, -3, -3, -15, -3, -1, 0
1503604468855,-0.828,-0.530,-0.181,+0.010,+0.868,-0.305,-0.353,-1.750,-2.000,+2.562,-13, -12, -10, -5, -5, -6, -3, -10
1503604468875,-0.828,-0.530,-0.181,+0.010,+0.873,-0.312,-0.331,+0.125,-1.625,-0.875,2, 4, 6, 0, -1, 1, 0, 1
1503604468898,-0.829,-0.529,-0.182,+0.009,+0.859,-0.303,-0.334,+2.688,-3.000,-3.438,-10, -1, -2, -3, 0, 0, -1, -5
1503604468923,-0.829,-0.529,-0.181,+0.008,+0.874,-0.293,-0.331,+2.500,-1.188,-9.250,-28, 1, 2, -1, 1, -9, -2, 3
1503604468936,-0.829,-0.530,-0.181,+0.005,+0.891,-0.283,-0.332,+4.500,-0.938,-11.875,18, 5, -2, 1, -1, 3, -1, -4
1503604468958,-0.829,-0.530,-0.180,+0.003,+0.902,-0.279,-0.354,+6.625,-1.812,-12.062,-5, -6, 0, 0, 10, 9, 2, 4
1503604468973,-0.829,-0.529,-0.180,-0.000,+0.895,-0.295,-0.331,+6.812,-5.562,-12.125,-20, -6, -5, -1, 8, 4, -1, -8
1503604468996,-0.829,-0.529,-0.181,-0.002,+0.894,-0.310,-0.320,+6.125,-4.625,-9.312,-4, -7, -4, 0, 38, 15, 2, 0
1503604469017,-0.829,-0.529,-0.181,-0.003,+0.891,-0.317,-0.306,+2.750,+1.375,-8.000,10, 21, 32, 8, -16, -6, 0, 4
1503604469033,-0.828,-0.530,-0.181,-0.004,+0.903,-0.290,-0.329,+1.562,+4.312,-6.562,-6, -5, -13, -8, -8, 1, 2, 2
1503604469057,-0.828,-0.530,-0.180,-0.006,+0.902,-0.297,-0.312,-0.312,-1.500,-8.938,16, 1, -2, 6, 5, 5, 1, 0
1503604469077,-0.829,-0.530,-0.179,-0.007,+0.896,-0.293,-0.320,-1.812,-2.562,-10.562,5, 21, 9, 1, -2, 0, -2, 4
1503604469094,-0.829,-0.531,-0.178,-0.008,+0.899,-0.287,-0.311,-5.250,+0.438,-11.500,13, -12, -14, -6, -10, -4, -2, -2
1503604469116,-0.828,-0.532,-0.176,-0.010,+0.920,-0.247,-0.347,-2.500,+4.625,-9.688,-8, -10, -6, -2, 29, -2, -1, -12
1503604469138,-0.828,-0.532,-0.175,-0.011,+0.922,-0.259,-0.325,-0.562,+0.625,-7.188,3, -3, 1, 14, -37, -20, -3, 2
1503604469154,-0.828,-0.533,-0.175,-0.012,+0.928,-0.265,-0.338,+1.000,+0.812,-4.375,1, -8, -12, -9, -41, -22, -1, 3
1503604469176,-0.828,-0.533,-0.175,-0.012,+0.943,-0.273,-0.324,-0.062,+2.188,-0.500,-5, -5, 0, -4, -4, -1, -2, 15
1503604469199,-0.827,-0.534,-0.175,-0.011,+0.967,-0.254,-0.333,-0.625,+5.312,+6.250,-7, -9, -3, 1, 5, 7, -1, -2
1503604469214,-0.827,-0.534,-0.176,-0.010,+0.943,-0.277,-0.320,-3.562,+2.688,+10.438,-6, -7, -7, -5, 5, 6, -1, -1
1503604469236,-0.827,-0.534,-0.177,-0.008,+0.915,-0.266,-0.307,-2.938,-2.562,+13.500,18, 0, -6, -6, 9, 6, 0, 6
1503604469258,-0.827,-0.533,-0.178,-0.006,+0.874,-0.281,-0.314,-3.750,+0.938,+12.625,-20, 6, 5, 3, 5, 5, -2, -11
1503604469273,-0.827,-0.534,-0.178,-0.004,+0.842,-0.296,-0.336,-4.312,+7.625,+10.062,-2, -5, -2, -4, -3, 2, 2, 6
1503604469297,-0.827,-0.534,-0.178,-0.003,+0.872,-0.291,-0.334,-3.688,+4.125,+3.688,-20, 7, 1, -1, 5, 0, 0, 1
1503604469318,-0.827,-0.534,-0.178,-0.003,+0.887,-0.306,-0.318,-2.688,-2.625,-3.062,-8, -5, -5, 0, 2, 4, 0, -10
1503604469333,-0.827,-0.533,-0.178,-0.004,+0.851,-0.295,-0.318,-1.562,-2.438,-7.312,-13, 0, 3, 0, -1, -2, -3, -21
1503604469358,-0.827,-0.534,-0.177,-0.005,+0.869,-0.283,-0.326,-1.688,+2.188,-10.625,6, -7, -3, 8, -12, 0, -1, 1
1503604469378,-0.827,-0.535,-0.176,-0.007,+0.918,-0.280,-0.324,-0.938,+3.875,-11.312,6, -2, -1, -3, -14, -8, -2, -16
1503604469394,-0.827,-0.535,-0.174,-0.009,+0.900,-0.272,-0.312,-1.500,-0.938,-13.125,-2, 5, -2, -5, 5, -2, -1, 3
1503604469416,-0.827,-0.535,-0.172,-0.011,+0.968,-0.294,-0.290,-5.938,-4.938,-15.188,-15, 0, 6, 5, 10, 4, -1, 1
1503604469438,-0.827,-0.535,-0.171,-0.012,+0.927,-0.247,-0.327,-3.875,-3.688,-8.938,8, 3, 4, 0, 2, 0, -1, 4
1503604476061,-0.847,-0.492,-0.049,+0.195,+0.855,-0.239,-0.464,+3.000,-5.625,+11.875,7, 0, -2, 0, 0, 0, 0, -5
1503604476083,-0.847,-0.491,-0.051,+0.197,+0.824,-0.261,-0.459,+4.312,-5.188,+12.000,8, 3, -3, -4, 0, 0, 4, 17
1503604476097,-0.847,-0.491,-0.053,+0.198,+0.796,-0.272,-0.456,+3.125,-2.250,+10.188,-8, 8, 4, -1, 0, 2, -3, -5
1503604476119,-0.847,-0.491,-0.053,+0.198,+0.790,-0.279,-0.460,+0.750,-0.562,+4.500,16, 4, 5, 7, 1, 2, 5, 12
1503604476142,-0.847,-0.491,-0.053,+0.198,+0.804,-0.300,-0.436,-2.938,-1.250,-2.125,22, 1, -1, 1, 3, 2, 3, 0
1503604476159,-0.847,-0.491,-0.052,+0.198,+0.821,-0.305,-0.437,-6.750,-1.938,-7.500,2, 17, 0, -1, -1, -1, -1, -1
1503604476180,-0.848,-0.490,-0.051,+0.197,+0.798,-0.300,-0.462,-7.688,-0.312,-12.438,-2, 4, 2, 1, 3, 0, -6, -3
1503604476202,-0.848,-0.491,-0.048,+0.195,+0.807,-0.277,-0.487,-8.562,+3.938,-14.312,-7, -15, -3, -7, -2, -1, -2, -30
1503604476217,-0.848,-0.491,-0.046,+0.194,+0.831,-0.264,-0.492,-8.062,+7.625,-12.312,-10, 1, 6, 6, -1, 1, 0, 1
1503604476239,-0.847,-0.492,-0.044,+0.193,+0.853,-0.265,-0.491,-6.188,+10.062,-9.562,-4, 0, -4, -6, -5, 0, 2, 7
1503604476265,-0.847,-0.494,-0.043,+0.193,+0.900,-0.250,-0.470,-5.125,+6.000,-5.750,1, -16, -5, -5, 2, -5, -4, -5
1503604476277,-0.847,-0.494,-0.042,+0.192,+0.915,-0.248,-0.481,-1.625,+1.688,-1.375,-2, 5, 2, 3, -2, 4, 17, 3
1503604476300,-0.847,-0.494,-0.042,+0.192,+0.901,-0.220,-0.502,+1.438,-3.750,+3.812,-6, -4, 0, 2, 0, -2, -7, 10
1503604476322,-0.848,-0.493,-0.044,+0.193,+0.868,-0.225,-0.497,+5.625,-6.125,+9.875,17, 0, -1, 8, 2, 0, -3, 11
1503604476337,-0.847,-0.492,-0.046,+0.194,+0.855,-0.249,-0.484,+8.125,-5.000,+15.562,5, 2, 2, -3, 20, 5, 3, -7
1503604476362,-0.847,-0.492,-0.049,+0.195,+0.832,-0.261,-0.468,+8.562,-3.250,+16.938,6, 0, 0, -4, -7, -4, -7, 21
1503604476382,-0.847,-0.492,-0.052,+0.197,+0.822,-0.270,-0.453,+7.938,-2.500,+14.688,-13, -4, -5, -3, -5, -2, -4, -16
1503604476398,-0.846,-0.491,-0.054,+0.198,+0.799,-0.290,-0.455,+7.062,-2.688,+10.688,-4, -1, -2, 0, -1, -2, -2, -1
1503604476419,-0.847,-0.491,-0.056,+0.198,+0.779,-0.302,-0.438,+4.625,-3.812,+4.250,-18, -4, -3, -4, -6, -2, -4, -10
1503604476442,-0.846,-0.491,-0.056,+0.198,+0.781,-0.333,-0.441,-0.250,-0.875,-1.000,0, 1, -2, 0, 1, -2, -1, -5
1503604476460,-0.846,-0.492,-0.056,+0.198,+0.797,-0.342,-0.441,-5.688,+3.250,-5.375,-8, 6, 0, -2, -3, -5, -2, 11
1503604476479,-0.846,-0.492,-0.054,+0.197,+0.824,-0.301,-0.442,-9.625,+5.812,-9.375,11, 1, -2, -2, -2, 1, 4, -5
1503604476503,-0.846,-0.493,-0.052,+0.197,+0.856,-0.276,-0.457,-10.312,+4.375,-10.500,3, 1, 2, 1, 2, 0, 1, 11
1503604476517,-0.846,-0.493,-0.049,+0.196,+0.882,-0.254,-0.477,-8.438,+3.438,-7.562,-11, -2, -2, -7, -6, -3, -3, -6
1503604476539,-0.846,-0.493,-0.048,+0.196,+0.878,-0.239,-0.502,-3.938,+1.688,-2.000,21, 9, 9, 3, 1, -1, 0, 26
1503604476562,-0.846,-0.493,-0.048,+0.196,+0.881,-0.243,-0.483,+0.000,-1.562,+3.000,-11, -1, 2, 0, 2, 0, 2, 15
1503604476577,-0.846,-0.493,-0.049,+0.196,+0.895,-0.252,-0.483,+3.625,-3.688,+7.938,-7, -5, -3, 1, 0, 1, -1, -2
1503604476600,-0.847,-0.492,-0.051,+0.197,+0.854,-0.254,-0.487,+5.938,-8.062,+10.125,12, 3, 0, -1, 19, 1, 1, -6
1503604476622,-0.847,-0.490,-0.054,+0.198,+0.831,-0.262,-0.482,+7.312,-11.688,+12.688,2, 3, 0, -2, -4, -1, 9, 1
1503604476638,-0.848,-0.489,-0.056,+0.198,+0.805,-0.286,-0.470,+8.250,-11.812,+10.500,1, 3, 2, 1, -2, 0, -2, 0
1503604476662,-0.848,-0.487,-0.059,+0.199,+0.780,-0.307,-0.474,+8.188,-11.062,+7.125,-2, -1, -2, -1, -1, 0, -2, -4
1503604476690,-0.849,-0.486,-0.061,+0.199,+0.751,-0.318,-0.459,+5.688,-6.625,+2.312,14, -1, 0, -3, -8, 0, -3, 37
1503604476705,-0.849,-0.486,-0.062,+0.198,+0.747,-0.320,-0.465,+2.438,-1.812,-4.125,-9, -2, -3, -3, -4, 1, 1, 0
1503604476719,-0.849,-0.486,-0.061,+0.197,+0.761,-0.326,-0.437,-1.625,+1.375,-11.688,20, -8, -3, 2, 0, -6, -8, -12
1503604476742,-0.849,-0.487,-0.059,+0.195,+0.806,-0.333,-0.442,-6.375,+4.875,-16.875,-6, -1, -1, 1, 0, -1, -3, -12
1503604476758,-0.849,-0.488,-0.056,+0.193,+0.825,-0.302,-0.448,-8.875,+6.312,-20.750,-6, -2, -1, -3, -5, -2, -1, -10
1503604476779,-0.850,-0.489,-0.053,+0.190,+0.857,-0.258,-0.455,-8.312,+6.062,-21.938,21, 4, 1, -1, -8, -5, 0, 10
1503604476802,-0.849,-0.491,-0.050,+0.187,+0.906,-0.259,-0.466,-5.438,+9.062,-19.938,-12, -1, 1, 0, 0, -3, -1, 4
1503604476818,-0.849,-0.492,-0.048,+0.185,+0.920,-0.232,-0.493,-2.812,+6.625,-14.250,-10, 0, -2, -2, -4, 4, 2, -16
1503604476840,-0.850,-0.492,-0.048,+0.184,+0.903,-0.221,-0.514,+1.375,-0.938,-4.750,10, -1, -1, 2, 2, -1, 0, -2
1503604476864,-0.850,-0.491,-0.048,+0.183,+0.887,-0.228,-0.524,+5.250,-7.312,+2.188,-1, 1, -3, 0, 0, 0, -3, 2
1503604476878,-0.851,-0.490,-0.050,+0.183,+0.861,-0.217,-0.505,+7.938,-10.438,+8.500,-1, 0, 12, 3, 4, -5, 0, -4
1503604476900,-0.852,-0.488,-0.053,+0.184,+0.833,-0.232,-0.492,+10.625,-11.000,+12.250,2, -6, -1, -4, 0, -1, -2, 1
1503604476922,-0.852,-0.487,-0.056,+0.184,+0.825,-0.256,-0.476,+11.188,-11.125,+12.750,8, -4, -1, -2, -1, -1, -1, -1
1503604476938,-0.853,-0.485,-0.059,+0.185,+0.795,-0.277,-0.476,+10.688,-10.188,+9.812,-24, -11, -1, 2, 48, 15, 13, -4
1503604476960,-0.853,-0.484,-0.061,+0.185,+0.756,-0.290,-0.465,+8.750,-7.938,+3.562,4, 1, 0, -1, -11, -6, -4, 5
1503604476982,-0.853,-0.484,-0.062,+0.184,+0.746,-0.323,-0.449,+3.375,-3.500,-3.812,7, 2, 0, -1, -10, -3, -1, 5
1503604476998,-0.854,-0.484,-0.062,+0.183,+0.774,-0.340,-0.428,-3.125,-0.438,-11.625,-12, 0, -1, 0, -8, -5, -9, -16
1503604477019,-0.854,-0.484,-0.060,+0.181,+0.820,-0.331,-0.427,-8.500,-2.625,-18.875,-6, 2, 0, -3, -5, -4, 0, 8
1503604477042,-0.855,-0.484,-0.057,+0.178,+0.839,-0.285,-0.448,-10.938,-5.250,-25.125,9, 0, -1, 0, -7, -2, -1, 8
1503604477058,-0.857,-0.483,-0.054,+0.174,+0.837,-0.231,-0.503,-7.250,-6.062,-27.000,-23, -2, -2, -1, -7, -2, -3, -7
1503604477080,-0.858,-0.482,-0.051,+0.171,+0.841,-0.229,-0.534,-4.062,-4.250,-22.250,-3, -4, -3, -3, -10, -2, -2, 4
1503604477102,-0.859,-0.482,-0.049,+0.168,+0.878,-0.222,-0.520,-0.688,-3.562,-17.250,1, 0, 11, 7, 6, 1, 1, -8
1503604477118,-0.860,-0.481,-0.049,+0.165,+0.929,-0.198,-0.537,+4.875,-7.938,-13.688,-1, -5, -12, -6, 2, -3, -6, -21
1503604477140,-0.862,-0.478,-0.050,+0.163,+0.918,-0.180,-0.568,+13.000,-18.625,-6.625,4, -1, 1, 0, -4, -2, 1, 5
1503604477169,-0.864,-0.475,-0.053,+0.161,+0.871,-0.199,-0.571,+19.125,-26.875,+1.812,-18, -2, -4, -3, 4, -1, -3, -7
1503604477179,-0.865,-0.472,-0.057,+0.159,+0.846,-0.199,-0.540,+23.188,-22.875,+8.500,18, 0, -3, -1, 1, 1, -1, 11
1503604477200,-0.867,-0.469,-0.063,+0.158,+0.829,-0.197,-0.535,+27.688,-20.188,+12.875,-15, -3, -3, -1, 1, 0, -2, -21
1503604477222,-0.868,-0.467,-0.069,+0.157,+0.825,-0.217,-0.536,+31.562,-21.688,+13.812,-11, -10, -1, 0, -5, 0, -2, -2
1503604477245,-0.869,-0.463,-0.075,+0.156,+0.832,-0.245,-0.536,+33.438,-27.312,+13.562,-12, 4, 2, 1, -5, 7, 4, -9
1503604477260,-0.871,-0.460,-0.082,+0.154,+0.802,-0.259,-0.520,+36.750,-28.188,+13.438,-4, -7, -1, 1, -6, -6, -2, 1
1503604477282,-0.872,-0.457,-0.089,+0.153,+0.783,-0.279,-0.524,+36.812,-23.625,+12.938,7, 7, -2, -2, -2, -2, -1, -7
1503604477305,-0.872,-0.455,-0.096,+0.152,+0.767,-0.295,-0.520,+36.750,-17.062,+11.812,7, -1, -3, -2, -21, -3, 0, 1
1503604477319,-0.872,-0.454,-0.103,+0.150,+0.785,-0.314,-0.521,+36.188,-15.625,+12.938,-3, -2, -2, -5, -10, -4, 3, 3
1503604477342,-0.872,-0.453,-0.110,+0.149,+0.785,-0.317,-0.507,+36.438,-15.500,+11.062,-8, -3, 1, 1, 5, -2, -3, -6
1503604477371,-0.873,-0.451,-0.117,+0.147,+0.775,-0.341,-0.512,+37.250,-18.625,+8.562,4, -2, 0, -1, 5, 1, -2, -5
1503604477379,-0.873,-0.448,-0.124,+0.145,+0.750,-0.368,-0.521,+34.750,-20.250,+7.312,-1, -2, -4, -4, 0, 1, -1, 9
1503604479061,-0.779,-0.529,-0.231,+0.244,+0.721,-0.630,-0.297,-6.750,-0.562,-8.438,-2, -1, -2, -4, -26, -8, 0, 5
1503604479083,-0.780,-0.529,-0.229,+0.244,+0.736,-0.604,-0.296,-7.000,+3.062,-6.188,-1, -2, -2, -1, 2, 1, -3, 13
1503604479107,-0.780,-0.530,-0.228,+0.243,+0.753,-0.610,-0.287,-4.125,-0.562,-5.875,-7, 4, 2, 0, -5, -2, 3, 1
1503604479121,-0.781,-0.529,-0.227,+0.242,+0.748,-0.616,-0.275,-4.875,-4.562,-7.312,-21, -7, -1, -1, 21, 5, -2, -12
1503604479143,-0.782,-0.529,-0.226,+0.241,+0.754,-0.623,-0.266,-6.000,-5.000,-8.500,17, 0, -4, -4, -5, -5, -4, 2
1503604479164,-0.782,-0.529,-0.224,+0.240,+0.728,-0.615,-0.279,-8.375,-1.500,-9.938,3, -1, -1, -2, -6, -5, 2, 1
1503604479181,-0.783,-0.529,-0.222,+0.240,+0.726,-0.594,-0.296,-8.688,+1.750,-11.250,-7, -2, 2, 6, 32, 16, 0, -2
1503604479203,-0.784,-0.530,-0.220,+0.239,+0.737,-0.578,-0.316,-7.812,+1.625,-13.375,23, 1, -1, -4, -50, -15, 1, 23
1503604479224,-0.785,-0.530,-0.218,+0.237,+0.754,-0.589,-0.300,-7.312,-0.938,-15.688,17, 4, -2, -2, -2, -2, -6, 2
1503604479241,-0.786,-0.530,-0.216,+0.235,+0.752,-0.603,-0.288,-6.750,-3.750,-15.625,43, 9, -3, -4, 6, -3, -6, 5
1503604479269,-0.787,-0.530,-0.214,+0.234,+0.751,-0.599,-0.292,-8.938,-1.625,-15.125,-14, -2, 0, 1, 5, 1, 4, -18
1503604479284,-0.787,-0.530,-0.211,+0.233,+0.756,-0.580,-0.295,-10.125,+2.625,-12.688,-16, -4, -2, 0, 2, -4, -3, -16
1503604479301,-0.787,-0.531,-0.209,+0.232,+0.759,-0.559,-0.310,-8.938,+6.312,-12.312,0, -2, -5, -2, 3, 2, 2, 13
1503604479322,-0.788,-0.532,-0.206,+0.231,+0.763,-0.558,-0.324,-7.375,+4.000,-11.750,11, 2, -4, -3, 1, 0, 1, 12
1503604479345,-0.789,-0.532,-0.205,+0.230,+0.789,-0.563,-0.308,-6.562,-1.188,-12.375,-2, 8, 1, -1, 4, 0, -1, -2
1503604479361,-0.789,-0.532,-0.203,+0.229,+0.789,-0.573,-0.303,-7.250,-1.250,-11.375,-19, -7, -10, -5, -2, -2, -1, -4
1503604479384,-0.790,-0.533,-0.201,+0.229,+0.775,-0.555,-0.298,-10.500,+1.500,-8.312,-6, -2, 1, -1, -1, -2, 0, -1
1503604479414,-0.790,-0.533,-0.198,+0.229,+0.784,-0.548,-0.293,-11.812,+4.625,-7.250,-1, -8, 1, 3, 0, 0, -1, -2
1503604479421,-0.790,-0.534,-0.196,+0.228,+0.782,-0.542,-0.327,-11.188,+5.188,-10.125,1, -5, -5, -3, -1, -1, 1, 0
1503604479447,-0.792,-0.533,-0.193,+0.228,+0.771,-0.547,-0.348,-10.688,-1.562,-9.625,15, 38, 5, 12, 0, -2, -2, 2
1503604479465,-0.792,-0.533,-0.191,+0.228,+0.793,-0.556,-0.326,-12.375,-2.000,-9.125,-1, -15, -13, -8, 0, -2, -1, 0
1503604479481,-0.793,-0.533,-0.188,+0.228,+0.795,-0.542,-0.327,-16.875,+3.938,-5.062,-3, -2, 7, 2, 1, 1, 0, 0
1503604479503,-0.792,-0.534,-0.185,+0.230,+0.760,-0.506,-0.343,-17.438,+13.875,-3.625,3, 6, -5, -2, -1, 1, -1, 1
1503604479525,-0.792,-0.535,-0.181,+0.231,+0.779,-0.479,-0.359,-20.875,+16.000,-3.312,-3, 2, -3, -5, -4, -2, 0, -2
1503604479542,-0.792,-0.536,-0.176,+0.233,+0.832,-0.450,-0.352,-23.562,+16.812,-3.500,-4, -11, 4, 3, 0, -1, -1, -1
1503604479570,-0.791,-0.538,-0.171,+0.235,+0.817,-0.466,-0.334,-26.938,+19.188,-3.562,5, 18, 14, 4, -1, -1, -2, 1
1503604479586,-0.791,-0.540,-0.165,+0.236,+0.816,-0.461,-0.283,-29.062,+14.125,-12.125,-4, 3, 1, 0, -2, 0, 2, -1
1503604479601,-0.792,-0.541,-0.158,+0.236,+0.776,-0.431,-0.289,-33.688,+12.438,-18.750,-4, -18, -11, -5, 0, 0, -1, -1
1503604479623,-0.793,-0.542,-0.146,+0.237,+0.735,-0.383,-0.274,-52.875,+18.938,-35.375,3, -10, -5, 0, -1, -1, -1, -3
1503604479645,-0.793,-0.546,-0.133,+0.236,+0.779,-0.353,-0.269,-54.375,+35.438,-42.562,-2, 10, 18, 6, 2, 1, -2, 0
1503604479661,-0.792,-0.551,-0.118,+0.235,+0.811,-0.380,-0.294,-58.250,+43.000,-50.938,0, -7, -12, -4, -1, 1, -1, -2
1503604479683,-0.792,-0.555,-0.102,+0.232,+0.910,-0.366,-0.254,-63.875,+30.750,-64.938,-5, 0, -8, -3, 1, -2, -2, -1
1503604479705,-0.794,-0.558,-0.085,+0.227,+0.942,-0.323,-0.255,-62.062,+22.750,-74.500,8, 19, 23, 4, 0, -2, -2, 2
1503604479721,-0.796,-0.559,-0.067,+0.222,+0.882,-0.253,-0.271,-63.625,+15.125,-82.500,-3, -8, -9, -3, -1, 2, 1, -1
1503604479746,-0.799,-0.558,-0.051,+0.218,+0.826,-0.243,-0.347,-62.688,+8.812,-69.562,1, -2, -1, 0, -2, -2, -1, -1
1503604479765,-0.800,-0.559,-0.035,+0.215,+0.846,-0.232,-0.330,-63.938,+24.062,-63.562,-3, 0, -7, 0, -1, 0, -1, -2
1503604479781,-0.800,-0.560,-0.020,+0.213,+0.937,-0.208,-0.359,-62.250,+25.062,-58.500,-4, -9, -5, -2, 0, -2, 2, 0
1503604479803,-0.801,-0.560,-0.005,+0.210,+0.929,-0.158,-0.392,-57.562,+16.688,-57.062,1, 8, 1, 0, 0, 0, -1, -3
1503604479825,-0.805,-0.555,+0.007,+0.208,+0.871,-0.134,-0.426,-51.750,-14.250,-50.688,-4, -3, -6, -6, -3, -5, -4, -4
1503604479841,-0.810,-0.550,+0.016,+0.205,+0.894,-0.205,-0.415,-44.000,-25.562,-46.625,-14, -14, -4, 0, -1, -1, 0, -3
1503604479863,-0.813,-0.545,+0.024,+0.204,+0.864,-0.236,-0.410,-37.750,-18.062,-40.875,7, 15, -1, -3, -1, 1, 3, 6
1503604479886,-0.816,-0.541,+0.029,+0.203,+0.855,-0.224,-0.420,-31.625,-17.750,-31.562,7, 1, 2, 0, 0, -1, -2, -6
1503604479901,-0.819,-0.536,+0.034,+0.201,+0.862,-0.260,-0.411,-24.750,-24.812,-31.000,-2, 2, -10, -5, -1, -2, 0, -5
1503604479923,-0.823,-0.531,+0.036,+0.200,+0.857,-0.327,-0.400,-18.438,-27.500,-30.438,-3, -1, 6, 1, 0, -1, -2, -2
1503604479948,-0.825,-0.527,+0.038,+0.200,+0.860,-0.334,-0.350,-19.562,-29.812,-22.625,-3, -4, -8, -4, -3, -2, -1, -1
1503604479961,-0.828,-0.521,+0.038,+0.203,+0.847,-0.416,-0.530,-23.188,-26.312,-8.875,-9, -19, -2, 4, 2, 0, -2, -4
1503604479983,-0.828,-0.520,+0.039,+0.208,+0.582,-0.378,-0.370,-35.938,+0.312,+5.812,2, 2, -3, -1, 0, -5, 1, 0
1503604480005,-0.831,-0.513,+0.040,+0.212,+0.856,-0.198,-0.407,-26.938,-37.750,+6.000,0, -8, -5, -1, -1, -1, -1, -2
1503604480021,-0.833,-0.509,+0.042,+0.211,+0.985,-0.125,-0.437,-10.375,-32.250,-10.562,0, -6, 8, 6, 2, 3, 0, -2
1503604480045,-0.832,-0.511,+0.036,+0.215,+1.207,-0.304,-0.286,+8.188,-14.688,+30.875,4, 7, 9, -1, 0, 0, -4, -1
1503604480065,-0.837,-0.505,+0.039,+0.209,+1.030,-0.108,-0.472,-0.688,-41.125,-38.438,2, 12, 6, 0, 1, 0, 1, -1
1503604480081,-0.837,-0.503,+0.036,+0.212,+0.921,-0.242,-0.472,+1.812,-13.562,+13.500,-1, 3, -6, -3, -4, -2, 0, 0
1503604480104,-0.836,-0.504,+0.036,+0.213,+0.857,-0.154,-0.429,-3.438,+3.062,+7.062,-3, 5, -2, -3, -13, -13, -2, 1
1503604480125,-0.836,-0.505,+0.038,+0.213,+0.834,-0.074,-0.449,-8.688,+9.938,+1.062,5, 9, -2, -3, 2, 2, 1, -1
1503604480141,-0.836,-0.505,+0.038,+0.213,+0.827,-0.129,-0.473,+0.000,+7.750,-0.750,0, 5, 4, 1, 3, -1, -3, -2
1503604480163,-0.835,-0.506,+0.038,+0.212,+0.845,-0.147,-0.448,+0.312,+6.938,-5.812,1, -2, -4, -2, 0, 1, -1, -3
1503604480187,-0.836,-0.505,+0.038,+0.212,+0.783,-0.154,-0.450,-1.375,-0.250,-3.875,2, 1, 3, -1, 3, -2, 0, 1
1503604480201,-0.837,-0.503,+0.039,+0.211,+0.735,-0.139,-0.447,-5.500,-9.625,-6.188,4, 10, 1, -1, -1, -1, -2, 0
1503604480223,-0.839,-0.501,+0.041,+0.211,+0.773,-0.125,-0.431,-13.375,-9.750,-12.250,0, -1, 2, 1, -1, 2, -1, 0
1503604480247,-0.842,-0.497,+0.043,+0.208,+0.927,-0.063,-0.539,-3.062,-23.812,-16.688,2, 23, 7, -5, -2, 1, -3, -1
1503604480261,-0.844,-0.493,+0.044,+0.207,+0.922,-0.095,-0.471,-6.188,-27.625,-14.750,1, -15, -8, -6, 0, 2, -2, 0
1503604480284,-0.847,-0.489,+0.049,+0.204,+0.960,+0.042,-0.452,-15.188,-26.000,-21.312,1, -1, 3, -3, -5, -3, 1, -5
1503604480305,-0.844,-0.494,+0.052,+0.201,+0.353,-0.032,-0.461,+2.625,+59.625,-17.125,-2, 2, 9, 0, 2, 1, -1, 0
1503604480321,-0.843,-0.496,+0.053,+0.201,+0.820,-0.054,-0.507,-3.938,+17.062,+3.438,2, -2, -3, -2, 2, 2, 0, 3
1503604480346,-0.840,-0.502,+0.070,+0.194,+0.878,+0.213,-0.117,-49.812,+39.625,-63.312,1, 7, -3, -1, -1, -1, -1, 1
1503604480365,-0.836,-0.509,+0.071,+0.194,+0.745,-0.244,-0.617,-5.188,+64.562,-6.812,-8, 1, 3, 4, 1, -1, -2, -7
1503604480389,-0.834,-0.509,+0.080,+0.197,+0.944,-0.037,-0.824,-55.812,+39.438,-6.875,2, -1, -4, -3, 0, 0, -2, -1
1503604480403,-0.835,-0.506,+0.075,+0.202,+0.718,-0.178,-0.380,+4.875,-23.562,+26.625,-1, 0, 0, 0, 1, 1, 1, -1
1503604480425,-0.840,-0.498,+0.086,+0.198,+1.149,+0.343,-0.502,-34.500,-42.375,-32.812,14, 9, -1, 2, 1, -2, -3, -2
1503604480448,-0.841,-0.499,+0.082,+0.194,+1.013,-0.412,-0.381,+12.688,-10.125,-30.500,-4, -10, -6, -5, -1, 0, 0, 1
1503604480464,-0.842,-0.497,+0.082,+0.195,+0.833,-0.284,-0.510,-10.312,-8.625,-9.312,-7, 3, 4, 5, 2, 1, -2, 2
1503604480485,-0.842,-0.497,+0.085,+0.193,+1.046,+0.025,-0.442,-5.062,-1.062,-16.438,-4, -25, -11, -3, -1, -1, -1, -1
1503604480500,-0.841,-0.499,+0.084,+0.194,+1.017,-0.153,-0.418,-4.750,+5.062,+1.250,-6, 15, 7, 4, 1, -2, -2, -1
1503604480530,-0.840,-0.500,+0.084,+0.194,+0.969,-0.142,-0.524,-4.188,+10.062,+1.688,-3, -5, -4, 1, -1, 0, 1, -2
1503604480548,-0.840,-0.500,+0.084,+0.195,+0.866,-0.075,-0.417,-5.312,-1.312,+0.125,3, 12, 4, 1, -2, 1, -1, 1
1503604480561,-0.841,-0.498,+0.083,+0.194,+0.793,-0.089,-0.387,+3.625,-10.562,-8.250,-2, -16, -6, -5, -2, -3, -3, 0
1503604480582,-0.842,-0.497,+0.081,+0.193,+0.707,-0.103,-0.423,+8.562,-3.500,-2.250,4, 12, 2, -1, 0, -2, 0, 2
1503604480604,-0.842,-0.498,+0.081,+0.192,+0.777,-0.003,-0.430,+6.500,+5.250,+1.562,4, 2, 1, -1, 0, 1, -1, 1
1503604480619,-0.842,-0.498,+0.079,+0.192,+0.861,-0.019,-0.465,+9.875,+1.750,+4.938,-11, -9, 5, 0, -2, -1, 1, 2
1503604480642,-0.842,-0.499,+0.077,+0.192,+0.866,-0.050,-0.437,+10.500,-1.000,+4.812,4, -5, 1, 2, 1, -1, -1, -3
1503604480664,-0.842,-0.499,+0.076,+0.191,+0.880,-0.012,-0.435,+9.312,-0.125,+2.500,-4, 4, 3, -7, -1, -3, 1, -10
1503604480682,-0.842,-0.500,+0.075,+0.191,+0.965,+0.021,-0.441,+6.938,+1.688,+7.625,-7, -8, -5, -3, -1, -2, -3, 0
1503604480702,-0.840,-0.501,+0.075,+0.192,+1.041,+0.018,-0.428,-1.375,+4.688,+13.375,9, 11, 4, 24, 3, 2, 0, -3
1503604480725,-0.840,-0.502,+0.074,+0.193,+1.016,-0.043,-0.424,-0.188,-2.250,+14.688,-3, 7, 0, -2, -3, -1, -1, -2
1503604480740,-0.839,-0.502,+0.073,+0.195,+0.944,-0.057,-0.428,-2.188,-4.312,+13.188,-9, -7, -8, -4, -3, -3, -3, 1
1503604480762,-0.840,-0.501,+0.072,+0.197,+0.875,-0.063,-0.455,-0.750,-5.000,+10.562,-9, -10, -6, 1, -1, -2, 0, -3
1503604480786,-0.840,-0.501,+0.071,+0.198,+0.859,-0.071,-0.486,+0.875,-0.375,+7.250,2, -1, 1, -6, -1, 0, -2, 3
1503604480800,-0.839,-0.501,+0.070,+0.198,+0.852,-0.095,-0.464,+0.812,+4.750,+4.438,32, 11, 1, 4, 0, -1, -1, 0
1503604480823,-0.839,-0.502,+0.069,+0.197,+0.855,-0.103,-0.466,+7.562,+8.312,-1.875,-38, -23, -6, -3, -1, 0, 1, -4
1503604480844,-0.839,-0.504,+0.068,+0.196,+0.871,-0.115,-0.460,+9.812,+9.250,-6.562,14, 7, 0, 1, -2, -2, -4, 3
1503604480867,-0.838,-0.505,+0.067,+0.194,+0.889,-0.096,-0.419,+8.688,+6.875,-7.812,-16, 8, -2, 1, -1, -1, -1, 4
1503604480885,-0.838,-0.506,+0.067,+0.192,+0.914,-0.090,-0.416,+6.000,+4.562,-4.625,23, 16, 2, -3, 1, -1, 1, -6
1503604480904,-0.838,-0.506,+0.067,+0.192,+0.920,-0.073,-0.420,-0.312,-2.875,+0.312,-10, -8, 0, 1, 1, -3, 0, 5
1503604480927,-0.839,-0.505,+0.066,+0.193,+0.897,-0.040,-0.451,+0.000,-7.688,+4.750,-9, -20, -7, -2, 0, -2, -2, -6
1503604480942,-0.839,-0.504,+0.066,+0.194,+0.868,-0.047,-0.461,-2.938,-4.625,+10.750,14, 17, 18, 12, 0, 1, 0, 0
1503604480964,-0.839,-0.503,+0.065,+0.197,+0.886,-0.062,-0.442,-2.875,-6.375,+16.250,19, -22, -13, -12, -3, -1, 0, 0
1503604480989,-0.839,-0.502,+0.063,+0.199,+0.868,-0.075,-0.436,-2.812,-6.062,+19.125,7, 15, 0, 4, 1, 1, -3, -2
1503604481002,-0.839,-0.501,+0.062,+0.203,+0.902,-0.090,-0.444,-5.375,-10.562,+21.000,14, 17, -3, -1, -1, -2, -1, 1
1503604481032,-0.840,-0.499,+0.060,+0.206,+0.886,-0.095,-0.455,-6.875,-14.000,+20.562,-6, 4, 9, 9, 2, 0, 0, -2
1503604481048,-0.840,-0.497,+0.059,+0.209,+0.857,-0.099,-0.472,-7.250,-10.438,+17.688,-31, -23, -1, -5, -2, 0, -1, 2
1503604481063,-0.840,-0.497,+0.059,+0.211,+0.891,-0.098,-0.471,-3.750,-0.438,+10.312,-9, -8, 3, 7, 3, 0, -1, -6
1503604481086,-0.839,-0.498,+0.059,+0.212,+0.924,-0.124,-0.485,-2.438,+3.875,+4.750,28, 1, -9, 1, -2, 4, 0, 1
1503604481107,-0.839,-0.498,+0.059,+0.213,+0.889,-0.124,-0.446,-5.812,+4.500,+3.000,-25, -27, 2, 2, -6, -3, 0, 3
1503604481123,-0.839,-0.498,+0.059,+0.213,+0.863,-0.126,-0.463,-3.500,+0.250,-1.000,-5, 28, 7, -2, 4, 0, -3, -3
1503604481144,-0.839,-0.498,+0.060,+0.212,+0.844,-0.104,-0.442,-3.000,+1.750,-8.062,-20, -15, -10, -9, -4, -1, -3, 1
1503604481167,-0.839,-0.499,+0.061,+0.210,+0.895,-0.088,-0.459,+1.938,+4.000,-12.438,-4, -2, -1, 2, 2, -2, 3, -1
1503604481184,-0.839,-0.499,+0.062,+0.207,+0.905,-0.102,-0.459,+1.938,+6.125,-16.125,39, 8, -1, -1, -2, -8, -5, -4
1503604481205,-0.839,-0.500,+0.063,+0.204,+0.898,-0.089,-0.437,+2.562,+2.375,-14.812,8, 13, 1, 6, -1, 0, 0, 1
1503604481227,-0.840,-0.500,+0.064,+0.202,+0.872,-0.099,-0.448,+4.812,-0.125,-16.250,-16, 16, 15, 4, 4, -2, 1, -2
1503604481242,-0.841,-0.499,+0.065,+0.199,+0.878,-0.059,-0.460,+3.688,-1.875,-15.938,3, -10, -11, -5, -1, 8, -1, 3
1503604481264,-0.841,-0.500,+0.066,+0.197,+0.887,-0.048,-0.461,+0.875,+4.875,-10.625,15, -3, -10, -5, -3, -5, -4, -2
1503604481288,-0.841,-0.501,+0.066,+0.196,+0.866,-0.085,-0.452,-0.250,+6.000,-6.688,4, -7, -7, -4, -1, -6, 3, 1
1503604481302,-0.841,-0.501,+0.066,+0.195,+0.857,-0.090,-0.438,+0.750,+0.250,-3.750,-4, 2, -4, -10, -3, -1, -3, 1
1503604481324,-0.841,-0.500,+0.066,+0.195,+0.867,-0.079,-0.457,+0.375,-1.938,-1.938,15, 5, 3, -1, 0, -2, -1, -3
1503604481347,-0.841,-0.500,+0.066,+0.195,+0.880,-0.067,-0.460,-1.188,+0.312,-0.062,7, -39, -10, -6, -2, -2, -1, 6
1503604481362,-0.841,-0.501,+0.066,+0.195,+0.885,-0.069,-0.461,-1.000,+5.062,+2.312,10, 1, -4, -1, -3, -1, -8, -4
1503604481394,-0.841,-0.501,+0.065,+0.195,+0.883,-0.108,-0.463,+0.062,+2.188,+1.750,-33, -46, 2, 4, 1, -2, -9, 1
1503604481408,-0.841,-0.501,+0.066,+0.195,+0.876,-0.065,-0.432,-2.125,-1.188,+1.750,2, 19, 4, -2, -2, -1, 0, -1
1503604481429,-0.841,-0.501,+0.066,+0.196,+0.904,-0.054,-0.431,-1.750,+0.938,+2.375,-19, 12, 7, 4, 1, -8, -4, -4
1503604481444,-0.841,-0.501,+0.066,+0.196,+0.912,-0.078,-0.442,-2.438,-2.125,+2.250,9, -16, -4, -1, -3, 10, -1, -8
1503604481461,-0.841,-0.500,+0.066,+0.196,+0.888,-0.042,-0.448,-1.500,-4.688,+1.062,8, -17, -8, -2, -6, -4, 0, -2
1503604481482,-0.841,-0.500,+0.066,+0.196,+0.886,-0.047,-0.457,-1.062,+3.188,+0.312,-17, -52, -13, -4, 2, 2, 0, -2
1503604481504,-0.841,-0.501,+0.066,+0.196,+0.891,-0.089,-0.440,-0.438,+2.812,-0.312,-15, -20, -3, 1, -1, -1, 0, 4
1503604481528,-0.841,-0.501,+0.066,+0.195,+0.864,-0.083,-0.435,+0.875,-0.312,-2.000,-4, -26, -18, -4, 1, -4, -3, -8
1503604481542,-0.841,-0.501,+0.066,+0.195,+0.903,-0.090,-0.452,-3.438,-0.188,+1.250,4, 56, 6, 0, -1, 0, -3, 1
1503604481564,-0.841,-0.501,+0.066,+0.196,+0.887,-0.098,-0.458,-2.688,-0.062,-0.500,1, 3, 6, -3, -1, -4, -4, -16
1503604481587,-0.841,-0.501,+0.067,+0.195,+0.868,-0.095,-0.465,-1.375,+2.375,-4.688,1, 41, 12, 7, 0, 3, 2, 7
1503604481602,-0.841,-0.501,+0.067,+0.194,+0.887,-0.076,-0.422,-1.812,-0.625,-4.750,23, 22, -5, -5, -4, -5, -3, -8
1503604481624,-0.841,-0.501,+0.068,+0.194,+0.898,-0.067,-0.436,-2.000,-1.625,-2.562,-8, -89, -23, -1, -1, -1, -5, 2
1503604481648,-0.841,-0.500,+0.068,+0.194,+0.891,-0.046,-0.460,-2.812,-1.375,-1.312,24, 11, -1, -1, -3, 1, -3, -1
1503604481662,-0.841,-0.500,+0.069,+0.194,+0.874,-0.063,-0.459,-2.938,+2.000,-0.250,-22, -30, -15, 5, 1, 1, -2, -7
1503604481687,-0.841,-0.500,+0.069,+0.194,+0.858,-0.076,-0.450,-1.562,+2.875,-2.312,-8, -29, 7, 1, -1, -1, 1, -7
1503604481707,-0.841,-0.501,+0.069,+0.193,+0.887,-0.062,-0.435,+0.000,+2.500,-4.750,12, 30, 2, -1, -2, -4, 3, -1
1503604481722,-0.841,-0.501,+0.069,+0.192,+0.915,-0.077,-0.439,-0.312,-1.688,-2.125,-15, -5, -2, 0, 0, -1, 7, 6
1503604481744,-0.842,-0.500,+0.070,+0.192,+0.931,-0.050,-0.445,-2.000,-5.688,-2.438,15, 0, -4, -4, -2, 0, 0, 9
1503604481768,-0.842,-0.499,+0.070,+0.191,+0.910,-0.039,-0.451,+0.812,-5.938,-0.250,5, -35, -19, -10, -4, -4, -6, -3
1503604481782,-0.843,-0.498,+0.068,+0.192,+0.818,-0.108,-0.432,+1.438,-12.062,+3.250,2, 22, 16, 3, -2, 1, 1, 2
1503604481812,-0.844,-0.496,+0.067,+0.193,+0.870,-0.098,-0.454,-1.812,-12.375,+2.375,-5, 20, -6, -2, -4, -5, -4, 0
1503604481827,-0.845,-0.494,+0.068,+0.195,+0.903,-0.064,-0.448,-8.750,-11.188,+9.375,15, -8, -4, 0, -2, -4, -5, 4
1503604481842,-0.845,-0.492,+0.067,+0.197,+0.916,-0.071,-0.489,-8.750,-14.500,+11.875,-1, 32, 11, 2, -2, 1, -1, -7
1503604481864,-0.846,-0.490,+0.067,+0.200,+0.858,-0.060,-0.488,-8.438,-15.438,+14.062,-29, -14, -5, -4, -1, -1, -2, -13
1503604481889,-0.847,-0.487,+0.066,+0.203,+0.818,-0.067,-0.472,-8.625,-12.125,+13.875,-6, 14, 12, 2, 2, 1, -1, 0
1503604481902,-0.847,-0.486,+0.066,+0.205,+0.865,-0.062,-0.434,-10.125,-9.500,+15.000,-9, 14, 16, 3, 0, -2, -10, -7
1503604481924,-0.847,-0.485,+0.066,+0.208,+0.903,-0.068,-0.457,-9.688,-9.812,+14.688,-9, 17, -1, -1, -1, -6, 3, 12
1503604481947,-0.848,-0.483,+0.066,+0.210,+0.916,-0.079,-0.496,-6.250,-13.688,+10.000,10, 11, -2, -1, -11, 0, 1, 0
1503604481962,-0.849,-0.481,+0.065,+0.211,+0.850,-0.088,-0.490,-2.250,-15.875,+7.500,-14, 8, -1, -1, 1, 0, 0, 7
1503604481984,-0.849,-0.480,+0.065,+0.212,+0.861,-0.091,-0.498,-3.438,-5.188,+1.125,-4, -19, -15, -3, 2, 3, 0, 3
1503604482007,-0.849,-0.479,+0.065,+0.213,+0.873,-0.104,-0.455,-6.750,-6.438,+4.312,17, 30, 0, -4, -2, -2, -3, 8
1503604482022,-0.850,-0.477,+0.065,+0.215,+0.895,-0.109,-0.483,-9.188,-17.438,+7.250,-3, 19, 4, 0, -6, -15, 0, -2
1503604482044,-0.852,-0.473,+0.064,+0.217,+0.836,-0.094,-0.513,-9.062,-22.250,+6.688,9, 6, -19, -4, 3, 30, -7, -5
1503604482068,-0.853,-0.470,+0.064,+0.218,+0.828,-0.090,-0.535,-8.125,-16.000,+4.562,6, 26, 21, 4, 1, -27, 7, 3
1503604482082,-0.853,-0.469,+0.066,+0.219,+0.887,-0.082,-0.503,-12.500,-7.500,+2.938,-10, -27, -2, 0, -1, -8, -2, 0
1503604482104,-0.854,-0.467,+0.067,+0.221,+0.900,-0.094,-0.491,-11.312,-13.312,+2.312,2, -23, -8, -5, -4, -5, -4, -6
1503604482129,-0.855,-0.464,+0.067,+0.222,+0.863,-0.097,-0.521,-13.812,-20.688,+2.500,-4, 10, 12, 3, 3, 9, -2, -3
1503604482142,-0.856,-0.461,+0.069,+0.224,+0.852,-0.082,-0.545,-17.438,-16.125,+2.250,3, 22, 4, 3, 1, 4, 1, 2
1503604482164,-0.856,-0.459,+0.072,+0.226,+0.897,-0.083,-0.548,-21.688,-5.312,+1.188,6, 10, 12, 3, 1, 6, -3, 4
1503604482189,-0.855,-0.459,+0.076,+0.227,+0.948,-0.110,-0.528,-24.688,+3.125,-4.625,19, -16, -11, -4, -2, 0, -3, -4
1503604482203,-0.854,-0.460,+0.080,+0.228,+0.960,-0.094,-0.527,-25.562,+8.312,-6.625,-24, 7, -1, 0, -2, -4, -6, -16
1503604482225,-0.853,-0.462,+0.084,+0.229,+0.960,-0.088,-0.543,-26.562,+16.188,-3.312,1, -14, -12, -3, -4, -6, -9, -6
1503604482247,-0.850,-0.466,+0.089,+0.230,+0.949,-0.070,-0.549,-22.500,+28.625,-2.000,-33, 9, 6, -2, 17, 7, 4, -7
1503604482263,-0.846,-0.472,+0.092,+0.229,+0.960,-0.081,-0.521,-11.125,+45.375,-4.188,14, -16, -7, -7, -17, -20, 6, 4
1503604482284,-0.843,-0.479,+0.094,+0.227,+0.984,-0.088,-0.536,+3.375,+48.375,-7.938,12, -5, 11, 4, 4, 3, 0, 8
1503604482307,-0.840,-0.485,+0.093,+0.223,+0.989,-0.117,-0.540,+19.500,+35.938,-12.562,-3, -13, 2, 3, 6, 6, -3, 0
1503604482323,-0.839,-0.489,+0.085,+0.222,+0.972,-0.272,-0.562,+37.750,+14.938,+3.312,7, 4, -6, -1, -8, 1, 0, 1
1503604482344,-0.835,-0.496,+0.090,+0.220,+1.080,+0.238,-0.458,+0.250,+48.625,+6.062,-1, -19, -10, -3, -8, -7, -1, -2
1503604482367,-0.835,-0.501,+0.070,+0.216,+0.855,-0.537,-0.683,+113.125,+5.875,+35.188,-3, -9, 3, -4, -10, 0, -3, -5
1503604482383,-0.828,-0.516,+0.061,+0.210,+0.916,-0.368,-0.305,+64.250,+72.875,-1.375,5, 2, -9, -3, 3, -5, -1, 3
1503604482404,-0.822,-0.529,+0.060,+0.202,+1.144,+0.065,-0.405,+43.875,+82.562,-10.938,5, -13, -3, -2, -30, -10, 5, 1
1503604482427,-0.818,-0.537,+0.049,+0.199,+0.905,-0.359,-0.423,+65.125,+43.188,+11.750,5, 19, 2, 5, 12, -3, -1, 2
1503604482442,-0.816,-0.543,+0.039,+0.195,+0.860,-0.286,-0.474,+66.188,+34.312,+7.188,-9, 19, 3, 0, 13, -1, 0, -3
1503604482467,-0.812,-0.550,+0.029,+0.192,+0.757,-0.211,-0.416,+61.250,+41.750,+15.750,-8, -1, -2, 1, 17, 13, -2, 1
1503604482492,-0.809,-0.556,+0.017,+0.190,+0.754,-0.225,-0.418,+64.688,+33.438,+30.312,1, 7, -5, -1, -1, 2, 4, 4
1503604482502,-0.806,-0.560,+0.003,+0.191,+0.783,-0.287,-0.399,+67.312,+25.875,+46.562,17, 4, 2, -2, -14, -6, 2, 31
1503604482524,-0.804,-0.563,-0.011,+0.193,+0.753,-0.242,-0.417,+64.000,+13.188,+55.938,5, 6, 5, -1, 11, 3, -3, -15
1503604482547,-0.803,-0.562,-0.026,+0.196,+0.707,-0.210,-0.433,+62.750,-6.062,+64.250,-1, 14, -2, -1, 12, -3, -12, 0
1503604482563,-0.803,-0.560,-0.042,+0.199,+0.678,-0.243,-0.368,+63.250,-18.625,+64.375,-6, -23, 2, 3, -24, -2, 2, -4
1503604482584,-0.804,-0.557,-0.058,+0.201,+0.740,-0.259,-0.357,+63.625,-30.812,+63.438,-7, 0, -5, 1, -10, 2, 5, 2
1503604482607,-0.806,-0.551,-0.073,+0.204,+0.746,-0.250,-0.371,+56.312,-42.875,+63.812,23, 15, 2, 1, -14, 0, 3, 1
1503604482625,-0.808,-0.544,-0.087,+0.207,+0.715,-0.238,-0.389,+51.438,-50.875,+65.312,12, 0, -2, 1, 12, 1, -2, 5
1503604482644,-0.811,-0.537,-0.101,+0.210,+0.718,-0.246,-0.390,+48.062,-53.375,+62.125,8, -10, -8, -4, -11, -1, 4, 3
1503604487009,-0.853,-0.504,-0.059,+0.123,+0.841,-0.253,-0.446,-0.562,-5.625,+9.312,-11, 11, 2, -3, -2, -3, -4, -13
1503604487032,-0.854,-0.502,-0.060,+0.124,+0.848,-0.250,-0.426,-1.938,-11.750,+8.500,-9, -13, 5, 2, 37, 23, -1, 3
1503604487049,-0.855,-0.501,-0.060,+0.125,+0.864,-0.268,-0.386,-5.438,-15.688,+2.188,22, 14, 7, -4, -33, -20, -4, 0
1503604487069,-0.856,-0.498,-0.059,+0.124,+0.849,-0.234,-0.389,-11.688,-16.875,-6.438,23, 26, 3, 0, 0, 0, -6, 2
1503604487092,-0.857,-0.497,-0.057,+0.125,+0.853,-0.197,-0.420,-14.000,-7.125,-5.188,0, 0, -8, -8, -24, -7, -2, 7
1503604487107,-0.856,-0.498,-0.055,+0.126,+0.846,-0.242,-0.466,-14.000,+8.938,+2.188,-13, -22, -3, -2, 8, 13, -1, -2
1503604487129,-0.856,-0.499,-0.054,+0.128,+0.912,-0.220,-0.455,-13.250,+3.312,+8.000,7, 23, 5, -2, -11, -27, -4, -6
1503604487153,-0.856,-0.498,-0.052,+0.130,+0.951,-0.187,-0.438,-15.625,-9.188,+7.312,5, 0, -1, 10, 13, 1, 2, 5
1503604487166,-0.858,-0.494,-0.051,+0.132,+0.882,-0.163,-0.499,-11.812,-20.750,+8.125,6, 4, 2, 1, 1, -6, 1, 6
1503604487189,-0.860,-0.490,-0.052,+0.133,+0.803,-0.186,-0.529,-3.000,-21.125,+8.875,-12, -9, 0, 5, 25, 16, 0, 9
1503604487219,-0.862,-0.487,-0.053,+0.135,+0.793,-0.213,-0.534,-0.375,-17.062,+12.625,14, -3, 1, -6, -4, 1, 0, 0
1503604487227,-0.862,-0.485,-0.055,+0.137,+0.842,-0.239,-0.489,-2.688,-13.688,+15.375,-16, 5, -8, -8, -9, -9, -2, -13
1503604487250,-0.863,-0.483,-0.056,+0.139,+0.827,-0.226,-0.458,-2.938,-11.625,+13.625,2, -21, -8, -5, 0, -5, -3, -3
1503604487271,-0.864,-0.481,-0.057,+0.140,+0.788,-0.208,-0.490,+2.000,-11.375,+7.062,-13, -22, -14, -1, -7, -2, 2, 7
1503604487290,-0.865,-0.479,-0.058,+0.139,+0.773,-0.233,-0.496,+3.312,-12.875,-0.812,6, -6, 2, 4, -4, 0, 2, 2
1503604487309,-0.866,-0.477,-0.058,+0.138,+0.785,-0.269,-0.468,-0.438,-10.188,-5.812,2, -10, -2, -1, -26, -3, -3, -5
1503604487325,-0.866,-0.478,-0.057,+0.138,+0.804,-0.284,-0.439,-9.750,+1.750,-6.625,-5, 28, 6, -2, -32, -14, 3, -5
1503604487350,-0.865,-0.479,-0.055,+0.138,+0.840,-0.247,-0.436,-13.875,+5.312,-10.500,13, 1, 0, 0, 35, 10, 2, 6
1503604487369,-0.865,-0.479,-0.051,+0.137,+0.877,-0.195,-0.470,-14.000,+1.188,-14.625,-9, 17, 5, -3, 1, -2, -2, -5
1503604487385,-0.866,-0.478,-0.049,+0.135,+0.890,-0.184,-0.540,-9.688,-5.438,-13.188,4, 1, 7, 4, 44, 9, -1, -2
1503604487407,-0.868,-0.477,-0.048,+0.134,+0.876,-0.169,-0.576,-1.312,-8.562,-6.188,5, -3, -5, 1, 0, 3, -2, 0
1503604487429,-0.869,-0.475,-0.048,+0.133,+0.892,-0.161,-0.551,+2.625,-13.938,+0.688,-17, -28, -2, -4, -33, -10, 0, -1
1503604487452,-0.870,-0.472,-0.050,+0.133,+0.877,-0.172,-0.527,+6.500,-19.625,+7.750,-10, -18, -13, -1, -17, -10, 0, -5
1503604487468,-0.871,-0.469,-0.053,+0.134,+0.833,-0.207,-0.535,+9.625,-19.438,+13.500,-3, -30, -13, 2, 4, 1, -3, -11
1503604487490,-0.872,-0.467,-0.056,+0.135,+0.792,-0.202,-0.530,+11.625,-13.812,+16.000,-7, 3, -2, -2, 6, 2, 2, 1
1503604487512,-0.872,-0.466,-0.060,+0.136,+0.753,-0.197,-0.532,+14.875,-4.562,+15.188,10, 26, 11, 3, 29, 9, -1, -3
1503604487527,-0.872,-0.465,-0.063,+0.136,+0.739,-0.234,-0.482,+14.625,-4.500,+9.000,-16, -14, -2, -3, -3, 4, 1, -3
1503604487550,-0.872,-0.466,-0.065,+0.136,+0.775,-0.303,-0.428,+5.125,-2.875,-2.438,-8, 36, 9, 5, 8, 6, -1, -5
1503604487572,-0.872,-0.467,-0.064,+0.135,+0.783,-0.317,-0.461,-5.812,+6.938,-8.188,8, 17, 0, -5, -13, -6, -1, 2
1503604487589,-0.871,-0.468,-0.062,+0.135,+0.785,-0.271,-0.475,-11.438,+8.125,-10.125,6, 6, 1, -3, -6, -6, -5, -1
1503604487609,-0.871,-0.470,-0.059,+0.134,+0.837,-0.265,-0.421,-16.938,+6.812,-15.000,12, -16, -10, -2, 26, 4, 1, 5
1503604487632,-0.871,-0.471,-0.055,+0.133,+0.896,-0.223,-0.464,-18.875,+2.750,-20.312,-16, 15, 0, -2, -5, -2, -5, -24
1503604487649,-0.872,-0.470,-0.050,+0.131,+0.881,-0.175,-0.517,-17.375,-6.062,-19.562,10, -35, -5, -5, -26, -9, 1, 4
1503604487669,-0.873,-0.468,-0.047,+0.129,+0.821,-0.156,-0.552,-14.125,-12.562,-17.375,-4, -6, -2, 0, -15, -5, -3, -11
1503604487693,-0.875,-0.465,-0.044,+0.127,+0.835,-0.153,-0.575,-9.125,-13.062,-12.188,8, 10, 2, 5, 4, 3, 0, 1
1503604487706,-0.876,-0.464,-0.044,+0.126,+0.836,-0.171,-0.563,-4.188,-8.875,-4.625,-20, -20, -4, 1, 1, 0, 0, -3
1503604487729,-0.877,-0.462,-0.044,+0.126,+0.819,-0.179,-0.561,-0.688,-9.625,-1.312,9, 25, 11, 4, -2, -6, 4, 5
1503604487752,-0.878,-0.460,-0.044,+0.126,+0.800,-0.173,-0.538,+0.938,-8.438,-0.250,7, 5, -1, -2, -8, -1, 1, 2
1503604487767,-0.878,-0.460,-0.044,+0.125,+0.770,-0.184,-0.522,+1.000,-4.562,-3.875,-13, -6, -8, -8, -15, -8, -4, -8
1503604487789,-0.879,-0.459,-0.044,+0.124,+0.778,-0.199,-0.501,-1.250,-2.188,-9.750,-11, 2, 0, 2, 12, 9, 13, -13
1503604487805,-0.879,-0.460,-0.042,+0.122,+0.833,-0.207,-0.501,-4.250,+0.750,-13.062,2, -2, -4, -5, -38, -25, -5, 5
1503604487827,-0.879,-0.460,-0.041,+0.120,+0.870,-0.183,-0.480,-5.000,-4.688,-16.625,-4, -6, -1, 6, 40, 7, -3, 1
1503604487850,-0.880,-0.459,-0.039,+0.117,+0.867,-0.166,-0.518,-3.938,-11.125,-18.688,12, 1, 4, -1, 1, 1, 2, -7
1503604487871,-0.882,-0.456,-0.037,+0.114,+0.847,-0.141,-0.575,-0.250,-16.188,-17.000,-29, -17, -6, 2, 3, 6, 1, 5
