Timestamp,Orientation X,Orientation Y,Orientation Z,Orientation W,Accelerometer X,Accelerometer Y,Accelerometer Z,Gyroscope X,Gyroscope Y,Gyroscope Z,EMG1,EMG2,EMG3,EMG4,EMG5,EMG6,EMG7,EMG8,Roll,Yaw,Window
1503604435831,-0.872,-0.445,+0.030,+0.204,+0.804,-0.098,-0.575,-8.562,-7.562,-1.875,10, -1, -2, 0, 1, 2, -1, 3,-2.7463661990348966,0.9184965789932918,0
1503604435847,-0.872,-0.443,+0.030,+0.204,+0.712,-0.123,-0.588,-3.562,-5.062,-1.375,-22, 24, 15, 1, 28, 10, -5, 10,-2.7450967691881987,0.9135136010074273,0
1503604435869,-0.873,-0.442,+0.031,+0.203,+0.744,-0.109,-0.584,-5.125,-1.500,-9.250,21, -8, -1, 2, -8, -4, -2, -1,-2.74624493711122,0.9118818316390807,0
1503604435891,-0.874,-0.441,+0.033,+0.201,+0.804,-0.095,-0.576,-3.812,-5.062,-12.625,-14, -1, -11, -3, -14, -2, -1, -3,-2.748206030178687,0.9105657574961107,0
1503604435908,-0.875,-0.441,+0.034,+0.200,+0.820,-0.113,-0.565,-2.688,-2.375,-12.812,25, 8, -3, -2, -11, -3, -6, 2,-2.7499851469270404,0.911422819437785,0
1503604435930,-0.875,-0.440,+0.035,+0.197,+0.782,-0.077,-0.592,+0.125,-2.125,-15.688,-14, 5, -3, -5, -6, -12, -10, -13,-2.7534414087101307,0.9091686910587478,0
1503604435951,-0.876,-0.440,+0.036,+0.195,+0.802,-0.090,-0.575,+1.812,-0.250,-14.938,-2, 2, -2, 1, 50, 15, -6, -15,-2.7568491276132376,0.9099796981491042,0
1503604435968,-0.876,-0.440,+0.037,+0.193,+0.826,-0.121,-0.551,-1.562,+3.250,-10.812,0, -16, -15, -3, 0, -3, 2, -8,-2.7592967571780322,0.9102450034650427,0
1503604435989,-0.876,-0.441,+0.038,+0.192,+0.830,-0.097,-0.556,-5.125,+3.000,-10.312,-25, -39, -13, -3, 9, 10, 5, -2,-2.7606995917399564,0.9130345589179966,0
1503604436013,-0.876,-0.441,+0.040,+0.190,+0.845,-0.076,-0.536,-5.188,+0.438,-10.500,-27, 0, -4, 0, 19, 5, -6, -4,-2.7623240230259594,0.9136562336116398,0
1503604436027,-0.877,-0.440,+0.041,+0.189,+0.839,-0.089,-0.538,-3.438,-7.375,-8.375,22, 1, -5, 0, 4, -10, -4, 15,-2.763507920605653,0.9120316418831278,0
1503604436050,-0.877,-0.440,+0.042,+0.188,+0.865,-0.093,-0.540,-6.750,-8.125,-7.125,-2, -4, 4, -3, -3, -2, -2, -10,-2.7643238935853622,0.9123442145659294,0
1503604436076,-0.878,-0.438,+0.043,+0.188,+0.853,-0.056,-0.549,-7.000,-10.500,-4.875,-7, -2, -3, -5, -5, -5, -6, -14,-2.7633112000465645,0.9083042284316324,0
1503604436089,-0.879,-0.436,+0.043,+0.188,+0.854,-0.087,-0.557,-4.875,-18.375,-1.312,7, 6, -3, -3, -15, -1, 2, -8,-2.763127527555444,0.9039066184152136,0
1503604436109,-0.880,-0.433,+0.043,+0.189,+0.812,-0.083,-0.559,-7.188,-17.938,+4.375,5, -1, 1, 0, -1, 6, 3, 7,-2.76074402585509,0.8971085495900954,0
1503604436131,-0.881,-0.430,+0.043,+0.191,+0.790,-0.081,-0.571,-9.438,-20.062,+8.750,-1, -4, -3, -1, 4, -3, 1, -3,-2.7567250669147705,0.890383626735211,0
1503604436148,-0.882,-0.428,+0.043,+0.194,+0.784,-0.105,-0.593,-8.125,-16.312,+13.375,-10, 3, -7, -3, 2, -3, -4, -8,-2.7516459177798445,0.8861835110338356,0
1503604436170,-0.883,-0.425,+0.043,+0.196,+0.781,-0.091,-0.611,-10.375,-17.188,+9.625,2, -8, -4, 1, 40, 17, -2, -5,-2.7476431376273327,0.8794923615221903,0
1503604436192,-0.883,-0.423,+0.043,+0.199,+0.780,-0.102,-0.594,-12.375,-10.062,+12.812,13, 1, 2, -1, -29, -14, 1, 15,-2.7415826284190215,0.874771696085419,0
1503604436215,-0.883,-0.421,+0.044,+0.202,+0.789,-0.094,-0.597,-16.625,-10.312,+11.188,-15, -15, -2, -2, -7, -7, 7, 6,-2.7347373843245033,0.8704553431027279,0
1503604436229,-0.884,-0.419,+0.047,+0.204,+0.780,-0.066,-0.599,-21.500,-9.188,+8.312,1, -1, -4, 0, -17, -7, 4, 4,-2.7290278356539583,0.867459050099323,0
1503604436252,-0.884,-0.416,+0.047,+0.207,+0.776,-0.083,-0.616,-14.812,-12.938,+10.062,20, -5, -4, 0, 0, 3, 0, 0,-2.7223864374055298,0.8603605369611164,0
1503604436274,-0.885,-0.414,+0.049,+0.209,+0.749,-0.068,-0.609,-15.125,-10.250,+5.000,-12, 0, 3, 0, -5, -9, -4, -11,-2.7175109955232464,0.8570249372509416,0
1503604436289,-0.885,-0.412,+0.051,+0.210,+0.784,-0.058,-0.598,-15.188,-13.000,+2.750,-12, -12, -1, 0, -8, -4, 0, 2,-2.7131973286992874,0.8531124260157996,0
1503604436311,-0.886,-0.409,+0.051,+0.212,+0.771,-0.064,-0.639,-11.750,-14.375,+5.812,-43, -5, -7, -1, -1, 0, -2, -69,-2.709280086107533,0.8465584678982656,0
1503604436334,-0.887,-0.407,+0.052,+0.212,+0.731,-0.044,-0.638,-9.375,-10.875,+0.438,-12, 0, 4, 2, 8, -1, -4, 7,-2.7084568087173175,0.842727837199849,0
1503604436351,-0.887,-0.405,+0.053,+0.213,+0.748,-0.054,-0.657,-5.000,-7.312,+3.000,-1, 2, 3, 1, -5, -3, -2, -3,-2.7049191046139596,0.8384370903199176,0
1503604436371,-0.888,-0.405,+0.053,+0.214,+0.735,-0.069,-0.649,-3.500,-1.938,+2.938,-21, -7, 4, 3, 12, 10, 4, 1,-2.7044246796521,0.8390512401061566,0
1503604436388,-0.888,-0.404,+0.053,+0.215,+0.723,-0.064,-0.645,-3.375,+1.875,+5.438,-3, 2, 0, 2, 33, 13, -1, -1,-2.7022230636537,0.8367248230779605,0
1503604436409,-0.887,-0.404,+0.053,+0.215,+0.730,-0.048,-0.632,-2.750,+0.188,+5.562,12, 8, 2, 1, 4, 2, -3, 0,-2.701096469872294,0.8361816400370272,0
1503604436431,-0.887,-0.404,+0.052,+0.216,+0.742,-0.074,-0.640,+1.188,-0.062,+3.625,-19, -6, -4, -2, -8, -5, -7, -21,-2.700218610436209,0.8358059272095236,0
1503604436451,-0.887,-0.405,+0.052,+0.216,+0.760,-0.081,-0.615,+1.750,+3.438,+2.750,-6, -5, -3, -4, -6, -6, -1, -4,-2.700817634666627,0.8382039242478145,0
1503604436469,-0.887,-0.406,+0.051,+0.216,+0.783,-0.063,-0.622,+2.688,+3.562,+2.188,5, -2, 1, 0, -8, -8, -2, -5,-2.7021526020276845,0.8401606705114137,0
1503604436492,-0.886,-0.406,+0.051,+0.216,+0.777,-0.050,-0.628,+4.188,+4.688,+2.750,0, 6, 12, 5, 8, 4, -1, 1,-2.7010289510120704,0.8396166514741307,0
1503604436508,-0.886,-0.408,+0.049,+0.215,+0.753,-0.043,-0.671,+12.562,+10.500,+4.375,11, 0, -4, -2, -5, -4, 2, 9,-2.7053281257359583,0.8434818489629939,0
1503604436536,-0.885,-0.410,+0.047,+0.213,+0.710,-0.042,-0.631,+22.062,+14.000,+1.062,25, -1, -6, -3, -10, -2, 1, -8,-2.710151298972625,0.8467684096246623,0
1503604436552,-0.884,-0.414,+0.044,+0.212,+0.788,-0.116,-0.601,+20.875,+15.125,-1.250,-2, 1, 1, -1, 3, -7, -7, 0,-2.7153638630276333,0.8545724317931843,0
1503604436574,-0.883,-0.418,+0.042,+0.211,+0.812,-0.102,-0.605,+14.312,+20.125,+6.625,10, 0, -4, -5, -1, -3, -3, 0,-2.719868170217017,0.8628572492784679,0
1503604436590,-0.881,-0.421,+0.040,+0.212,+0.817,-0.093,-0.564,+12.125,+13.938,+10.188,-12, -2, -3, -3, -9, -1, 2, 2,-2.7195073125179254,0.8683177690586124,0
1503604436612,-0.880,-0.423,+0.037,+0.213,+0.845,-0.144,-0.544,+6.500,+4.688,+15.500,26, 13, 5, 3, 8, 5, 5, 4,-2.720403893496118,0.8715193014483601,0
1503604436634,-0.879,-0.423,+0.036,+0.216,+0.861,-0.131,-0.543,-1.500,-5.125,+18.750,-20, -21, -4, -2, -2, 9, 6, 1,-2.715271865410807,0.8707220100485371,0
1503604436654,-0.879,-0.423,+0.035,+0.218,+0.796,-0.062,-0.662,+2.500,+0.125,+19.750,-7, 7, 0, 2, 30, 15, 5, -2,-2.7128237847159227,0.8704230493841957,0
1503604436672,-0.878,-0.424,+0.032,+0.220,+0.708,-0.083,-0.624,+12.750,+10.250,+20.938,4, 3, -8, -11, -30, -10, -4, 2,-2.7115085984224714,0.8712438790558424,0
1503604436694,-0.876,-0.426,+0.027,+0.222,+0.783,-0.163,-0.552,+16.375,+4.688,+22.375,-4, -15, -7, -2, 6, -4, -9, -4,-2.711369880170699,0.8732319675084818,0
1503604436710,-0.875,-0.428,+0.025,+0.225,+0.877,-0.206,-0.533,+3.500,+1.938,+21.938,0, -7, -2, 1, -8, 3, -1, -1,-2.708390947931872,0.8769589477560022,0
1503604436732,-0.874,-0.428,+0.023,+0.228,+0.798,-0.177,-0.582,+2.062,-5.250,+17.750,5, 11, 1, -2, -25, -12, -1, -4,-2.7040695015991516,0.8757619909739004,0
1503604436754,-0.875,-0.426,+0.021,+0.229,+0.730,-0.124,-0.615,+2.812,-8.312,+7.625,-7, 3, 6, 3, 6, -3, -1, -2,-2.7037285518725556,0.8706887452669732,0
1503604436770,-0.876,-0.424,+0.019,+0.230,+0.802,-0.199,-0.571,+1.875,-18.688,+9.125,2, 2, -3, 0, -4, -3, -7, 3,-2.7033780288507456,0.8656258458184815,0
1503604436793,-0.876,-0.422,+0.018,+0.234,+0.827,-0.183,-0.567,-10.938,-18.938,+25.312,-7, 2, -4, -5, 9, 5, -1, -3,-2.696338982545465,0.860445744011699,0
1503604436814,-0.875,-0.420,+0.017,+0.239,+0.833,-0.087,-0.628,-9.000,-13.000,+32.688,-1, -11, -4, -3, 14, -6, -9, -6,-2.6865741774525844,0.8547268015582293,0
1503604438675,-0.829,-0.521,+0.075,+0.191,+0.911,-0.051,-0.398,-35.875,-20.625,-3.000,-54, -18, -4, -2, 53, 14, -3, -17,-2.7351620898235893,1.1074768505990022,1
1503604438699,-0.831,-0.516,+0.079,+0.194,+0.932,-0.047,-0.424,-35.750,-25.625,-2.125,-8, 6, 7, 0, -3, -10, -1, 6,-2.7252925928426754,1.0973941275632915,1
1503604438711,-0.833,-0.511,+0.083,+0.197,+0.889,-0.025,-0.439,-33.188,-27.062,-1.938,-14, -13, -15, -4, -14, -4, -3, -34,-2.7155276281064276,1.0874687806275645,1
1503604438736,-0.835,-0.506,+0.087,+0.199,+0.836,+0.010,-0.485,-26.750,-19.875,-4.125,17, 11, -2, -3, -14, -7, -7, 5,-2.7073864633755087,1.0776180675911342,1
1503604438756,-0.836,-0.503,+0.090,+0.199,+0.876,-0.023,-0.484,-21.875,-13.875,-8.438,60, 9, 10, 4, -1, -1, 0, 1,-2.7036125911619386,1.0718823135646902,1
1503604438771,-0.838,-0.499,+0.093,+0.200,+0.878,-0.056,-0.463,-21.438,-17.438,-10.938,-16, 11, 10, 3, -15, -3, 7, 7,-2.6987490847088873,1.06421506963641,1
1503604438794,-0.839,-0.497,+0.097,+0.201,+0.879,-0.034,-0.456,-21.000,-6.375,-7.625,10, 5, -6, -3, 0, 3, 9, 5,-2.6933490971712057,1.0617861340373873,1
1503604438816,-0.839,-0.496,+0.099,+0.201,+0.864,+0.008,-0.489,-15.938,+0.812,-3.875,42, 15, 16, 6, 2, 6, 6, 15,-2.69087451392192,1.0603098904007775,1
1503604438839,-0.838,-0.496,+0.101,+0.201,+0.817,+0.015,-0.499,-9.062,+10.750,-3.375,13, -4, -11, -2, 1, 0, 2, 24,-2.6879818895997363,1.0609166681981246,1
1503604438854,-0.837,-0.499,+0.103,+0.202,+0.961,-0.022,-0.426,-8.938,+14.938,+4.625,8, 12, 0, -3, -28, -9, -4, -10,-2.6856511400196394,1.0692987821364492,1
1503604438876,-0.837,-0.499,+0.104,+0.201,+0.910,+0.012,-0.459,-5.750,+1.875,-7.812,-42, -13, 10, 1, -55, -21, -5, -18,-2.686257391721483,1.0697560021621946,1
1503604438891,-0.837,-0.498,+0.105,+0.201,+0.887,-0.009,-0.438,-4.062,-3.625,-4.375,10, -3, -8, -1, 16, 4, -6, 9,-2.684672313273724,1.0677621313384036,1
1503604438914,-0.838,-0.496,+0.106,+0.200,+0.887,+0.009,-0.416,-3.875,-9.625,-4.812,-21, -8, 2, 4, 88, 29, -3, -5,-2.6850265312342976,1.0636022024943197,1
1503604438929,-0.839,-0.495,+0.106,+0.200,+0.871,-0.000,-0.444,-2.500,-5.438,-3.688,-16, -6, -2, -1, -8, -6, -8, -5,-2.6854625971871835,1.0615362789983074,1
1503604438951,-0.838,-0.497,+0.097,+0.204,+0.784,-0.247,-0.437,+26.062,+0.000,+36.000,-20, -6, -4, -1, 0, -3, 2, 12,-2.6877249266963528,1.06158522724392,1
1503604438975,-0.835,-0.502,+0.101,+0.201,+0.960,+0.083,-0.408,-4.875,+32.375,-9.875,13, 0, -5, -5, 9, 10, -3, 3,-2.688826490123792,1.0748166527621241,1
1503604438996,-0.833,-0.506,+0.101,+0.201,+1.040,-0.017,-0.459,+4.062,+25.000,+3.688,-14, -5, -7, -3, -11, -8, -1, -13,-2.6894315979975745,1.0841279974232416,1
1503604439011,-0.831,-0.509,+0.097,+0.202,+0.958,-0.179,-0.433,+15.438,+15.000,+12.500,7, 5, 0, -1, 1, 6, 4, 3,-2.6915328709116815,1.088839842692117,1
1503604439035,-0.830,-0.510,+0.093,+0.203,+0.972,-0.148,-0.503,+7.812,+8.312,+13.750,3, -14, -7, -6, -26, -8, 0, 1,-2.6933488821600498,1.0889337765966711,1
1503604439056,-0.829,-0.512,+0.090,+0.206,+0.959,-0.076,-0.447,+8.188,+6.312,+21.250,-20, -15, -6, 1, -4, -3, -1, 2,-2.6919963452384508,1.092339792304459,1
1503604439072,-0.828,-0.514,+0.086,+0.208,+0.929,-0.144,-0.408,+13.938,+7.938,+23.812,-10, 0, -3, -5, -19, -7, -1, -9,-2.693108919822745,1.0951926956119478,1
1503604439094,-0.826,-0.517,+0.081,+0.210,+0.968,-0.149,-0.434,+13.500,+9.875,+24.375,-4, 1, 9, -2, -3, -1, -6, -12,-2.694894125196819,1.0997465910264006,1
1503604439116,-0.825,-0.518,+0.076,+0.213,+0.975,-0.124,-0.433,+15.250,+2.875,+27.875,-19, -3, -3, 1, 4, 10, 3, 12,-2.694801625489502,1.0997255134813915,1
1503604439131,-0.824,-0.519,+0.071,+0.216,+0.943,-0.127,-0.424,+17.375,-4.125,+30.500,21, 9, 2, 1, 5, -7, -8, 0,-2.6947413798037676,1.099768379641952,1
1503604439153,-0.824,-0.518,+0.065,+0.219,+0.862,-0.126,-0.446,+17.438,-6.000,+33.062,49, 7, 2, 1, -9, -4, -4, 4,-2.6951234333826615,1.0946807382282036,1
1503604439176,-0.823,-0.520,+0.059,+0.222,+0.814,-0.107,-0.447,+20.125,+5.000,+34.188,2, -12, -3, -8, -9, -3, 2, 7,-2.6968426579780465,1.0970609469149946,1
1503604439191,-0.822,-0.521,+0.053,+0.224,+0.871,-0.120,-0.417,+21.625,+6.625,+32.562,-4, 7, 10, 2, -47, -15, 2, -12,-2.699318997440424,1.0968725740809855,1
1503604439214,-0.821,-0.523,+0.047,+0.226,+0.926,-0.126,-0.402,+23.250,-0.750,+32.812,8, -3, -3, -2, -10, -6, -3, -7,-2.702654404851996,1.0994342860202275,1
1503604439236,-0.821,-0.522,+0.040,+0.228,+0.872,-0.118,-0.435,+26.250,-13.312,+34.125,-18, -1, -5, 0, -14, 3, 1, -2,-2.7055363545957505,1.0943007396153324,1
1503604439251,-0.822,-0.519,+0.033,+0.231,+0.806,-0.108,-0.459,+28.875,-20.188,+35.438,-8, 5, 8, 7, 29, 14, -1, 5,-2.7062184566007454,1.0845129893863792,1
1503604439274,-0.823,-0.517,+0.024,+0.233,+0.794,-0.123,-0.459,+30.375,-21.938,+37.812,8, 2, -5, -2, 38, 1, -1, -5,-2.711117342484685,1.0768308882360438,1
1503604439296,-0.824,-0.515,+0.016,+0.235,+0.804,-0.133,-0.441,+30.875,-20.000,+38.375,7, 0, 0, 0, 6, 1, 1, 2,-2.715020286216579,1.0696529719497174,1
1503604439311,-0.825,-0.512,+0.008,+0.238,+0.784,-0.140,-0.458,+31.000,-22.125,+36.812,-5, 4, 1, -2, 8, 4, -5, -25,-2.7164872899501886,1.0599819589883814,1
1503604439336,-0.827,-0.509,+0.001,+0.239,+0.781,-0.133,-0.465,+31.250,-27.562,+34.875,11, 5, -2, 0, -14, -5, -1, 2,-2.720979494689578,1.0512161575043204,1
1503604439356,-0.829,-0.506,-0.007,+0.240,+0.777,-0.140,-0.452,+34.062,-27.312,+28.250,-23, -5, -5, 4, 68, 29, -3, -17,-2.7263751277506443,1.0423615117505158,1
1503604439371,-0.830,-0.503,-0.014,+0.239,+0.781,-0.168,-0.445,+34.688,-27.062,+21.438,18, 3, 1, -2, -38, -21, -3, -10,-2.733000934333459,1.0333852429607062,1
1503604439394,-0.832,-0.501,-0.021,+0.238,+0.793,-0.188,-0.446,+33.188,-25.688,+15.938,4, 1, 4, 1, -3, -1, 2, 4,-2.7413965267238747,1.0277784703952517,1
1503604439416,-0.834,-0.498,-0.026,+0.236,+0.788,-0.162,-0.454,+31.500,-26.625,+5.750,-7, -3, -6, -2, 0, 0, 1, 12,-2.748609897693143,1.0200155467157004,1
1503604439431,-0.837,-0.495,-0.031,+0.232,+0.786,-0.157,-0.458,+31.000,-27.438,-2.812,-6, -8, -4, -5, -14, -5, 1, -2,-2.759923319012076,1.0129708037014056,1
1503604439454,-0.839,-0.493,-0.034,+0.227,+0.786,-0.194,-0.434,+31.312,-21.438,-11.000,-1, 2, -1, -1, 16, -2, -6, 9,-2.770955324881146,1.0084820302218864,1
1503604439476,-0.841,-0.493,-0.037,+0.221,+0.807,-0.182,-0.409,+29.188,-13.312,-16.938,0, -1, 0, 1, -8, 5, -2, -3,-2.785265042640906,1.0094425684881936,1
1503604439491,-0.841,-0.495,-0.037,+0.214,+0.988,-0.259,-0.516,+27.875,+6.875,-32.438,-7, -17, -6, -4, -8, -3, -1, -1,-2.7983311974202816,1.0150717263026177,1
1503604439521,-0.838,-0.505,-0.039,+0.203,+0.993,-0.390,-0.341,+43.188,+44.375,-54.188,-12, 6, 2, 3, -3, -2, 1, 4,-2.823791557907643,1.0405481098307778,1
1503604439537,-0.840,-0.504,-0.037,+0.195,+0.903,-0.041,-0.381,+21.625,-18.375,-33.188,5, 2, 1, -4, -1, -1, 0, 6,-2.8356937897154406,1.0393868400438844,1
1503604439551,-0.844,-0.501,-0.036,+0.185,+0.797,-0.002,-0.545,+27.188,-20.125,-38.562,0, 0, 0, 0, 5, 2, -1, -1,-2.85191310866027,1.0339309535315455,1
1503604439581,-0.845,-0.503,-0.039,+0.177,+0.856,-0.276,-0.506,+36.875,+2.688,-38.125,4, 1, -2, -1, -8, -2, 2, 21,-2.8702158288245805,1.0399433299818832,1
1503604439596,-0.846,-0.503,-0.040,+0.170,+0.939,-0.240,-0.496,+24.438,-4.375,-31.125,6, -1, 0, -2, -4, -2, 1, -7,-2.883568097987042,1.0407158278986293,1
1503604439611,-0.849,-0.502,-0.041,+0.163,+0.976,-0.145,-0.495,+25.812,-17.312,-28.312,-10, 2, 0, 0, -7, -1, -4, -9,-2.897402930207906,1.0398846696938855,1
1503604439634,-0.851,-0.500,-0.044,+0.157,+0.914,-0.162,-0.468,+30.375,-18.750,-14.625,-1, -3, -2, 1, -1, 2, -1, -3,-2.9104414540264902,1.0358244892169157,1
1503604439656,-0.853,-0.497,-0.048,+0.153,+0.878,-0.201,-0.573,+35.000,-21.688,-10.062,-8, -3, -3, -5, -13, -4, -1, -9,-2.920551067086868,1.0290914865357372,1
1503604441832,-0.816,-0.577,-0.031,+0.012,+0.963,-0.064,-0.280,-26.188,-18.312,+19.812,2, 0, 0, 0, -13, -4, 2, -12,3.125364640747074,1.2313803033172768,2
1503604441854,-0.818,-0.574,-0.029,+0.016,+0.926,-0.060,-0.286,-25.938,-20.625,+17.125,37, 3, 2, -3, 2, -3, -1, 7,3.1344567939666668,1.2236968183452461,2
1503604441876,-0.820,-0.572,-0.027,+0.022,+0.930,-0.059,-0.302,-27.688,-12.938,+20.438,-5, 0, 2, -3, -31, -12, -4, -11,-3.1363963770180026,1.2187429918579546,2
1503604441892,-0.821,-0.570,-0.026,+0.028,+0.929,-0.058,-0.315,-29.625,-8.875,+24.625,-1, 12, 15, 3, -36, -21, 1, -27,-3.12522344271008,1.2135120883847383,2
1503604441914,-0.821,-0.569,-0.024,+0.033,+0.961,-0.056,-0.313,-27.938,-5.188,+22.125,-8, 2, 3, 4, 14, 8, 3, 2,-3.114606546643618,1.2105617714961836,2
1503604441936,-0.823,-0.567,-0.022,+0.038,+0.942,-0.058,-0.312,-25.125,-15.312,+18.188,-2, -1, -15, -8, 3, 0, 5, 16,-3.1039213867564186,1.2057351942792995,2
1503604441953,-0.825,-0.563,-0.021,+0.042,+0.916,-0.074,-0.306,-22.812,-22.812,+16.688,19, 11, 9, 1, -22, -5, -3, 9,-3.0957500447461586,1.195595613900556,2
1503604441974,-0.825,-0.562,-0.020,+0.047,+0.903,-0.089,-0.307,-24.000,-5.375,+17.000,1, -5, -6, -2, -32, -15, 1, -9,-3.0861877451926123,1.1927665751481609,2
1503604441996,-0.825,-0.562,-0.018,+0.051,+0.926,-0.077,-0.322,-21.625,-0.312,+18.812,-20, -5, 3, 1, 15, 11, -2, -28,-3.077308750275483,1.1926410226542365,2
1503604442012,-0.826,-0.561,-0.018,+0.056,+0.970,-0.098,-0.328,-19.062,-7.500,+18.438,-37, 15, 18, 6, 6, -1, -8, 11,-3.068967653512281,1.1902828648887367,2
1503604442034,-0.827,-0.558,-0.017,+0.060,+0.940,-0.118,-0.317,-19.062,-16.438,+15.250,3, -5, 5, 8, 20, 8, -1, -11,-3.060738483300795,1.182509744105617,2
1503604442056,-0.829,-0.555,-0.017,+0.064,+0.921,-0.100,-0.322,-18.500,-20.562,+18.125,5, -9, -12, -5, 46, 13, 2, 8,-3.0537434423889067,1.1752015285009054,2
1503604442073,-0.831,-0.552,-0.017,+0.068,+0.897,-0.113,-0.349,-18.438,-19.688,+20.438,-53, -5, -4, 2, 28, -1, -1, -11,-3.046729181310626,1.1679159356303563,2
1503604442095,-0.832,-0.550,-0.017,+0.073,+0.896,-0.122,-0.354,-17.375,-11.938,+23.125,6, -7, -4, 0, -4, 0, -1, 6,-3.038095767796482,1.1628935722192495,2
1503604442117,-0.833,-0.548,-0.018,+0.079,+0.935,-0.116,-0.358,-16.250,-13.312,+28.125,18, -1, -2, 0, 19, 13, 4, 17,-3.028871789615613,1.1578651741269856,2
1503604442133,-0.834,-0.546,-0.018,+0.084,+0.936,-0.119,-0.368,-15.438,-14.062,+29.750,5, -15, -7, -5, -25, -9, -4, -7,-3.0201925557153,1.1528516998729912,2
1503604442155,-0.835,-0.542,-0.020,+0.090,+0.907,-0.119,-0.380,-15.062,-20.188,+31.188,21, 9, -8, -5, -9, 0, 0, 8,-3.0113535351415015,1.1424409454808908,2
1503604442177,-0.837,-0.539,-0.021,+0.095,+0.893,-0.116,-0.390,-14.000,-21.250,+32.562,4, -6, -4, 1, -1, -3, -3, 2,-3.003608494260231,1.1352015444517032,2
1503604442193,-0.838,-0.536,-0.022,+0.101,+0.881,-0.132,-0.396,-11.500,-17.188,+29.688,15, 7, 0, 7, -19, -13, 1, 0,-2.993871613921186,1.1274928556001924,2
1503604442215,-0.839,-0.533,-0.024,+0.105,+0.882,-0.127,-0.400,-10.562,-12.312,+28.250,-36, -7, -6, -8, -42, -13, -4, -4,-2.988493884323728,1.1198188035912866,2
1503604442237,-0.840,-0.531,-0.025,+0.110,+0.879,-0.111,-0.412,-9.188,-13.562,+28.062,18, -1, 2, -2, -14, -3, 0, 1,-2.980707900533987,1.1148134644230252,2
1503604442252,-0.841,-0.528,-0.026,+0.113,+0.878,-0.122,-0.403,-7.500,-17.000,+22.688,-7, -10, -5, -7, 25, 9, 0, -14,-2.9758551905261785,1.1071759222628712,2
1503604442275,-0.844,-0.524,-0.027,+0.116,+0.875,-0.132,-0.412,-5.000,-25.938,+16.000,4, 4, 6, -3, 9, 1, -1, -7,-2.971245083034489,1.0978411619653758,2
1503604442298,-0.846,-0.520,-0.028,+0.117,+0.844,-0.132,-0.440,-2.438,-22.562,+10.250,-10, -10, -9, -7, 24, -1, -6, -22,-2.969641282955139,1.0881074445582057,2
1503604442312,-0.848,-0.516,-0.029,+0.118,+0.825,-0.134,-0.438,-1.625,-21.688,+11.625,24, -1, -8, -3, -3, 1, -1, 8,-2.9680231506861623,1.0784060509825544,2
1503604442335,-0.850,-0.513,-0.030,+0.120,+0.832,-0.133,-0.427,-0.438,-23.250,+11.500,8, 3, 2, 6, 12, 6, 0, 11,-2.9651164835706854,1.0713619588055971,2
1503604442358,-0.851,-0.510,-0.032,+0.120,+0.829,-0.154,-0.430,+2.812,-19.812,+4.438,-8, 3, 4, 5, 6, 3, 3, -3,-2.9662494708069453,1.0638885087724896,2
1503604442378,-0.852,-0.508,-0.033,+0.119,+0.829,-0.172,-0.442,+4.812,-9.688,-0.375,4, -2, -8, -6, -11, -1, -3, -13,-2.9684881323211547,1.0591210534358908,2
1503604442395,-0.853,-0.508,-0.034,+0.119,+0.906,-0.165,-0.425,+3.875,-4.688,+4.000,3, 1, 0, 1, -6, -1, 2, 12,-2.9698612817644734,1.0596267252156473,2
1503604442417,-0.854,-0.506,-0.036,+0.116,+0.889,-0.314,-0.589,+16.312,-10.312,-17.812,-12, -3, 2, 6, -18, 0, 1, 9,-2.9765321831673464,1.0549570541227713,2
1503604442438,-0.850,-0.513,-0.037,+0.111,+0.905,-0.377,-0.295,+14.188,+37.562,-33.875,26, 0, -2, -7, 16, 10, -1, -3,-2.9876347815751827,1.0717052772259288,2
1503604442455,-0.851,-0.512,-0.036,+0.111,+0.958,-0.002,-0.391,-2.000,-13.875,+8.000,-26, -3, 1, 6, 12, 1, 1, -3,-2.986520456228453,1.0695262050746521,2
1503604442478,-0.853,-0.509,-0.036,+0.108,+0.854,-0.060,-0.491,+7.500,-15.562,-8.625,26, 3, 2, -3, -5, -3, 4, 22,-2.9911025385900323,1.0626798205628145,2
1503604442499,-0.855,-0.507,-0.038,+0.107,+0.865,-0.284,-0.453,+9.500,-13.250,-9.500,19, 0, -1, -4, 2, -1, -1, -2,-2.994691250920717,1.05847973032142,2
1503604442515,-0.855,-0.505,-0.039,+0.107,+0.897,-0.231,-0.440,-1.688,-12.562,+4.375,-6, -3, -4, -1, -5, 2, 0, 0,-2.9949520145615525,1.0532206556451826,2
1503604442537,-0.857,-0.504,-0.038,+0.106,+0.822,-0.117,-0.426,-4.312,-9.562,-7.312,8, 2, 1, -3, 8, 8, 1, -5,-2.995867141446879,1.0516049119791275,2
1503604442552,-0.857,-0.503,-0.037,+0.105,+0.800,-0.114,-0.438,-2.250,-3.125,-5.062,9, -1, -3, -2, 4, -2, -3, 4,-2.996204951257824,1.0489795516841038,2
1503604442575,-0.857,-0.503,-0.036,+0.105,+0.859,-0.180,-0.442,-5.062,+1.250,-9.062,-29, -4, 0, 6, -6, -5, 0, -9,-2.995194875518631,1.0489573421585934,2
1503604442597,-0.857,-0.505,-0.034,+0.103,+0.975,-0.176,-0.401,-4.500,+3.375,-9.500,8, 1, 7, 7, 2, -2, -2, 0,-2.997341581696722,1.0542628519681894,2
1503604442612,-0.856,-0.505,-0.034,+0.103,+0.997,-0.165,-0.404,-3.188,-0.688,-4.812,-2, 1, -4, 1, 1, -4, -3, 0,-2.997048793176177,1.0537572211852644,2
1503604442635,-0.857,-0.504,-0.033,+0.103,+0.954,-0.132,-0.438,-2.312,-12.938,+2.000,4, -16, -13, -7, -3, 1, 0, 1,-2.995969350123623,1.051612768616909,2
1503604442661,-0.858,-0.502,-0.034,+0.103,+0.911,-0.135,-0.463,+0.812,-15.875,+6.000,4, 11, 2, 1, 0, -3, 1, -1,-2.9965498284754544,1.04686777562813,2
1503604442678,-0.859,-0.500,-0.035,+0.105,+0.917,-0.142,-0.440,-2.188,-13.688,+17.312,0, -8, -3, -3, -4, -5, -1, 0,-2.9936793784963824,1.0420614222754365,2
1503604442695,-0.859,-0.499,-0.037,+0.109,+0.902,-0.146,-0.469,-2.438,-6.500,+23.375,-2, -5, -4, -4, 19, 10, -6, -8,-2.988415531338723,1.0393162213225111,2
1503604442717,-0.859,-0.497,-0.039,+0.112,+0.882,-0.144,-0.471,-2.188,-9.000,+25.312,-20, 6, 7, 1, -8, -5, 0, -4,-2.984460776027333,1.0339744163201605,2
1503604442739,-0.861,-0.494,-0.041,+0.116,+0.851,-0.136,-0.484,-2.625,-18.375,+26.125,10, 3, -2, 9, -5, -1, 2, 4,-2.9789926342545456,1.0269986531549757,2
1503604442755,-0.863,-0.490,-0.042,+0.118,+0.792,-0.152,-0.475,-1.875,-24.375,+17.062,6, 1, 1, -7, -5, -2, -2, 3,-2.975556155505485,1.0174800961496546,2
1503604442777,-0.865,-0.486,-0.043,+0.120,+0.746,-0.174,-0.474,-4.062,-23.562,+9.438,-2, 1, -3, -3, -7, -5, 1, -13,-2.972098356135449,1.0079890008629986,2
1503604442799,-0.866,-0.484,-0.043,+0.121,+0.742,-0.208,-0.458,-7.375,-9.562,+2.000,-1, -1, -2, -6, -90, -34, -5, -9,-2.969876528147309,1.003245626023959,2
1503604442815,-0.865,-0.484,-0.042,+0.121,+0.781,-0.209,-0.452,-8.250,+3.562,-3.750,6, 0, 0, -1, -1, 0, 3, 17,-2.9685424159115588,1.0027018291491083,2
1503604442837,-0.865,-0.486,-0.040,+0.120,+0.828,-0.197,-0.451,-9.125,+7.375,-10.438,2, 2, 3, 0, 19, 7, -1, -9,-2.969175689390111,1.0079513286178612,2
1503604442860,-0.865,-0.486,-0.037,+0.118,+0.880,-0.190,-0.467,-9.000,+3.375,-17.312,4, 0, 1, -1, 21, 8, 1, 5,-2.9697207089671425,1.0080249518550513,2
1503604442875,-0.865,-0.486,-0.035,+0.117,+0.909,-0.197,-0.466,-9.125,-3.375,-14.375,-5, -6, -4, 2, 13, 5, -3, -4,-2.9695062955603446,1.0080712653304649,2
1503604442897,-0.866,-0.486,-0.033,+0.116,+0.904,-0.188,-0.473,-9.625,-3.062,-10.688,9, -6, -2, 2, 11, 4, 1, 3,-2.969661753665945,1.008652909019455,2
1503604442912,-0.865,-0.486,-0.032,+0.116,+0.904,-0.151,-0.477,-8.562,+1.188,-3.438,3, 13, 3, -5, 2, -2, -2, 12,-2.968318294609371,1.0081409360350146,2
1503604442935,-0.866,-0.486,-0.031,+0.116,+0.909,-0.141,-0.510,-4.750,-3.625,+4.250,-2, -12, -14, -7, -4, 0, 1, 0,-2.9677215572233817,1.0086840418973197,2
1503604442957,-0.866,-0.484,-0.032,+0.118,+0.883,-0.156,-0.525,-1.688,-7.688,+8.062,6, 3, 8, 0, 2, 1, -1, -4,-2.9644163687637883,1.0033906938536188,2
1503604442972,-0.867,-0.482,-0.034,+0.119,+0.848,-0.162,-0.533,+1.000,-11.938,+13.500,2, -4, -3, -2, 20, -1, -2, 2,-2.9641748890781345,0.9986473783809293,2
1503604442995,-0.868,-0.480,-0.035,+0.121,+0.832,-0.178,-0.495,+1.062,-11.750,+15.938,-12, -4, -3, -2, -10, 0, -1, -4,-2.961219013879286,0.9938898790848437,2
1503604443017,-0.868,-0.480,-0.037,+0.124,+0.823,-0.189,-0.484,+0.312,-2.438,+17.062,11, -2, -4, -2, -3, -3, -1, -5,-2.957932423567536,0.9937437554483408,2
1503604443032,-0.867,-0.480,-0.039,+0.126,+0.823,-0.176,-0.492,+0.188,-0.562,+17.312,6, -4, -4, 1, -4, -1, -1, -7,-2.95598358868317,0.9931075228755578,2
1503604443054,-0.867,-0.479,-0.040,+0.128,+0.814,-0.169,-0.477,-0.562,-2.625,+11.375,3, -3, -5, -3, -3, -2, -4, -5,-2.953025813366842,0.9904099061084116,2
1503604443077,-0.868,-0.479,-0.040,+0.128,+0.812,-0.178,-0.468,+0.125,-3.938,+4.188,1, -1, -2, -2, -18, -4, 0, -2,-2.9534316739388324,0.9909449704406383,2
1503604443094,-0.868,-0.478,-0.041,+0.128,+0.799,-0.200,-0.477,-0.812,-4.000,-1.125,2, -2, -3, -1, 26, 0, 0, 4,-2.953943906882147,0.9883386111734237,2
1503604443121,-0.868,-0.478,-0.040,+0.127,+0.791,-0.205,-0.468,-3.688,-0.438,-6.625,4, -8, -4, -4, 2, 0, -4, 9,-2.9547251420851106,0.9883890854254099,2
1503604443137,-0.868,-0.479,-0.039,+0.126,+0.828,-0.207,-0.453,-5.250,+2.750,-11.875,20, -1, 3, 4, -13, -2, -1, 8,-2.9559449999683305,0.9910402253773278,2
1503604443152,-0.868,-0.479,-0.037,+0.124,+0.854,-0.205,-0.500,-5.188,+2.625,-14.438,-2, 3, 3, 2, -5, 1, 1, -3,-2.957501774506732,0.991144865382839,2
1503604443175,-0.868,-0.480,-0.035,+0.123,+0.884,-0.194,-0.491,-6.812,+2.812,-11.562,-9, -2, -3, -11, -1, 1, 0, 2,-2.957748620286032,0.9938122737334529,2
1503604443198,-0.868,-0.480,-0.034,+0.122,+0.891,-0.144,-0.501,-5.562,+1.500,-7.312,-3, 1, 2, 2, -3, -1, 1, 0,-2.958523875748419,0.9938687881764497,2
1503604443212,-0.868,-0.480,-0.033,+0.121,+0.870,-0.139,-0.521,-0.500,-2.938,-5.312,-13, -3, -4, -4, 1, 1, -2, -7,-2.9592993538227823,0.9939264531215816,2
1503604443235,-0.869,-0.479,-0.033,+0.121,+0.879,-0.145,-0.508,+1.688,-6.250,-0.625,-7, -3, 4, -6, -6, -3, -3, -3,-2.959278231744649,0.9918636288480872,2
1503604443257,-0.869,-0.478,-0.034,+0.121,+0.874,-0.165,-0.516,+2.625,-6.500,+5.188,-3, 0, -3, 0, -2, -6, 0, -1,-2.9598153268609915,0.9892494493188173,2
1503604443272,-0.869,-0.478,-0.036,+0.122,+0.852,-0.154,-0.491,+4.188,-4.188,+9.125,0, -2, 0, 8, -21, 2, 0, -3,-2.95998933770433,0.9891768192370957,2
1503604443296,-0.869,-0.478,-0.037,+0.122,+0.819,-0.159,-0.488,+5.125,+0.688,+10.188,-3, -9, -5, 4, 16, 6, -4, -13,-2.9609455954324013,0.9891645619460732,2
1503604443317,-0.869,-0.478,-0.039,+0.123,+0.818,-0.187,-0.486,+5.062,+1.500,+7.188,7, 4, -2, -3, -1, 0, 1, 12,-2.9611196783294664,0.9891066246046731,2
1503604443332,-0.868,-0.479,-0.040,+0.124,+0.828,-0.191,-0.476,+2.250,+3.812,+5.438,-15, -1, 3, 2, 8, -7, -3, -6,-2.960379574468714,0.991123503011012,2
1503604443355,-0.868,-0.479,-0.040,+0.124,+0.813,-0.187,-0.474,-0.062,+4.750,+2.188,13, 0, -2, -7, -18, -8, -1, 2,-2.960379574468714,0.991123503011012,2
1503604443377,-0.867,-0.480,-0.040,+0.124,+0.831,-0.185,-0.459,-2.000,+5.250,-2.188,-2, 3, -3, -1, -25, -2, 0, -8,-2.9604233638823483,0.9931911785697076,2
1503604443392,-0.867,-0.482,-0.039,+0.123,+0.860,-0.199,-0.453,-5.188,+5.188,-5.688,1, -7, -2, 9, -4, -3, -1, 2,-2.962057890969077,0.9984443894817755,2
1503604443440,-0.867,-0.482,-0.037,+0.123,+0.883,-0.204,-0.474,-7.000,+4.062,-6.250,-4, 1, 2, -4, 19, 10, -1, -2,-2.9601303963832306,0.9984554948470482,2
1503604443443,-0.867,-0.483,-0.036,+0.122,+0.864,-0.185,-0.479,-7.188,+0.500,-5.562,-1, 9, 8, -1, 7, -2, 1, -3,-2.9613236612084655,1.0011085601559748,2
1503604443452,-0.867,-0.482,-0.035,+0.122,+0.834,-0.165,-0.496,-5.250,-4.000,-6.375,-6, -12, 1, 3, -2, -2, 0, 6,-2.9599365224657714,0.9985187821858823,2
1503604443475,-0.867,-0.482,-0.034,+0.121,+0.839,-0.169,-0.494,-1.938,-1.938,-8.000,-6, 4, 3, 4, 2, -1, -3, -12,-2.9607061032617334,0.9985725734494849,2
1503604443500,-0.867,-0.482,-0.034,+0.120,+0.840,-0.176,-0.499,-2.688,+2.312,-5.500,-4, -5, -3, -3, 24, 4, 2, -2,-2.9624399514173443,0.9986099780872872,2
1503604443519,-0.867,-0.483,-0.033,+0.120,+0.882,-0.157,-0.498,-2.688,+7.188,-0.375,6, 4, -4, -3, -8, -4, -1, -2,-2.961892484613249,1.0012277317412182,2
1503604443536,-0.866,-0.484,-0.033,+0.120,+0.887,-0.143,-0.490,-1.125,+5.562,+1.375,-5, -7, -5, 0, 2, -2, 2, 0,-2.9619201713758523,1.0033011749226672,2
1503604443556,-0.866,-0.484,-0.033,+0.120,+0.864,-0.141,-0.494,+1.500,-1.688,+1.500,-1, 8, 15, 13, 7, 6, 1, 6,-2.9619201713758523,1.0033011749226672,2
1503604443579,-0.867,-0.483,-0.034,+0.119,+0.840,-0.164,-0.495,+3.500,-7.312,+0.562,0, -2, -4, -5, -19, 1, -2, 0,-2.964588503233464,1.001248131417515,2
1503604443594,-0.867,-0.482,-0.034,+0.119,+0.811,-0.173,-0.480,+2.500,-3.875,-0.188,-5, 2, 3, 2, 34, 8, -2, -9,-2.9641748890781345,0.9986473783809293,2
1503604443616,-0.867,-0.482,-0.034,+0.119,+0.801,-0.171,-0.475,+1.062,+2.375,-2.750,-4, -6, 2, -3, -11, -5, -1, -4,-2.9641748890781345,0.9986473783809293,2
1503604447681,-0.872,-0.474,-0.045,+0.117,+0.812,-0.134,-0.575,+21.500,+20.000,-0.812,1, 4, 9, 2, 2, 2, 1, 2,-2.9767435361206567,0.9806641648648248,3
1503604447698,-0.871,-0.476,-0.047,+0.114,+0.765,-0.123,-0.562,+21.062,+16.875,-1.062,-2, -5, 1, -1, 2, 0, -1, -1,-2.9843699228341336,0.9855228729695072,3
1503604447719,-0.870,-0.478,-0.049,+0.113,+0.784,-0.129,-0.560,+18.188,+15.062,+0.312,-1, -3, -7, -6, -1, 0, 1, -4,-2.9885135884254805,0.9903116731275406,3
1503604447742,-0.870,-0.478,-0.051,+0.112,+0.771,-0.142,-0.542,+13.812,+6.938,+1.000,-2, -2, -2, -1, 17, -2, 1, -1,-2.992190157553184,0.990456978340134,3
1503604447757,-0.870,-0.478,-0.052,+0.110,+0.734,-0.141,-0.518,+12.312,+2.312,-2.312,3, 5, 3, 2, -7, -2, -2, -3,-2.9966614716644506,0.9906236851043094,3
1503604447779,-0.870,-0.478,-0.053,+0.108,+0.742,-0.152,-0.514,+10.812,+2.875,-6.000,1, 2, -2, -9, -6, -2, 1, 3,-3.001138629400084,0.9907983174677168,3
1503604447803,-0.871,-0.477,-0.054,+0.107,+0.732,-0.175,-0.522,+9.188,+1.500,-5.562,30, -2, -3, 1, 0, 1, -2, -5,-3.003757376397057,0.9888524316886202,3
1503604447817,-0.871,-0.477,-0.055,+0.105,+0.779,-0.203,-0.469,+5.500,-6.625,-10.188,-30, -23, -14, -7, -4, -3, -1, -9,-3.008238210509289,0.9890414925927858,3
1503604447840,-0.873,-0.475,-0.055,+0.103,+0.789,-0.181,-0.475,+2.688,-13.938,-9.938,3, -7, -15, -7, -8, -4, -2, -3,-3.011539538292278,0.9850369995327527,3
1503604447863,-0.874,-0.473,-0.055,+0.101,+0.771,-0.196,-0.504,+1.812,-11.625,-10.125,13, 7, 1, -3, -2, -4, 0, 8,-3.014596550238376,0.9805090240560489,3
1503604447877,-0.874,-0.472,-0.055,+0.099,+0.802,-0.170,-0.521,+2.375,-1.062,-7.875,-5, 3, -7, -10, -3, 0, 0, 3,-3.017776880801635,0.978043051070834,3
1503604447900,-0.875,-0.472,-0.055,+0.099,+0.877,-0.170,-0.542,+2.625,-3.938,-2.562,-31, -19, -6, -4, -3, 0, -1, -2,-3.0180161490684463,0.9785798566321194,3
1503604447921,-0.876,-0.470,-0.055,+0.098,+0.878,-0.171,-0.520,+2.062,-13.750,-0.625,12, 14, -3, 2, 23, 14, 1, 0,-3.019328318963102,0.9740058243135074,3
1503604447938,-0.877,-0.467,-0.056,+0.098,+0.854,-0.159,-0.529,+4.438,-17.188,+3.938,-12, -7, -7, -8, -7, -5, 0, -2,-3.0194779370056524,0.9668703380329849,3
1503604447961,-0.878,-0.466,-0.057,+0.097,+0.846,-0.179,-0.517,+4.938,-11.375,+2.375,-6, 3, 0, -1, -4, -4, 0, 0,-3.0220845472463473,0.9649729194196113,3
1503604447982,-0.878,-0.465,-0.058,+0.097,+0.886,-0.185,-0.512,+4.938,-9.312,+0.938,8, -7, -7, -3, -3, -3, -2, 2,-3.0226840349357538,0.9624743046690443,3
1503604448000,-0.878,-0.464,-0.060,+0.096,+0.885,-0.200,-0.517,+6.188,-8.938,+3.188,7, 0, -5, -4, -5, -3, 0, 3,-3.0260050425990395,0.9601345330138571,3
1503604448033,-0.879,-0.464,-0.061,+0.097,+0.857,-0.217,-0.526,+4.438,-4.875,+5.000,5, -3, -1, -1, -3, -2, 0, 2,-3.0253842700301146,0.960695626365876,3
1503604448042,-0.878,-0.464,-0.062,+0.097,+0.852,-0.203,-0.524,+3.812,+1.312,+4.250,20, 9, 0, -1, -1, -1, 1, 0,-3.0261065184434806,0.9602452846421059,3
1503604448057,-0.878,-0.464,-0.063,+0.097,+0.865,-0.190,-0.518,+3.500,+0.875,+3.438,-2, 13, 17, 19, 3, 2, 1, -2,-3.0270483279733704,0.9603408562385395,3
1503604448080,-0.878,-0.465,-0.064,+0.096,+0.853,-0.183,-0.509,+5.250,+4.250,-1.750,-9, -8, -7, -5, 7, 1, -3, -7,-3.030114661480895,0.9630962706588486,3
1503604448102,-0.877,-0.466,-0.064,+0.095,+0.815,-0.170,-0.537,+7.375,+6.938,-5.312,-7, -2, 0, 1, -3, -3, -1, -1,-3.032033837953675,0.9652121413678311,3
1503604448117,-0.877,-0.467,-0.065,+0.092,+0.801,-0.167,-0.538,+9.375,+6.688,-9.312,-12, 4, 4, -1, 7, 1, -2, -5,-3.0386590110519034,0.968129767888956,3
1503604448139,-0.877,-0.468,-0.065,+0.090,+0.861,-0.155,-0.516,+9.750,+5.062,-7.312,9, -1, 9, 3, 0, 1, -3, 0,-3.0425432657718865,0.9708656536949797,3
1503604448167,-0.876,-0.470,-0.066,+0.088,+0.831,-0.195,-0.504,+12.438,+7.438,-8.250,-19, -7, -4, -6, -8, 1, -3, -4,-3.0475228395342326,0.9757726573758287,3
1503604448177,-0.875,-0.471,-0.068,+0.085,+0.809,-0.182,-0.500,+13.188,+8.125,-10.000,-10, -6, 0, 2, -32, -8, -2, -4,-3.0549385009365695,0.9783121397570584,3
1503604448200,-0.875,-0.472,-0.069,+0.082,+0.814,-0.216,-0.486,+13.562,+5.188,-13.062,-4, -1, 6, 3, 27, 21, 0, -3,-3.0615403478085073,0.981276408561024,3
1503604448221,-0.874,-0.474,-0.070,+0.079,+0.810,-0.211,-0.475,+10.312,+8.125,-14.438,4, -2, -2, -5, -3, 1, 1, 7,-3.068311252825651,0.9863136279446333,3
1503604448237,-0.873,-0.477,-0.070,+0.077,+0.827,-0.190,-0.474,+6.875,+16.750,-11.500,2, 1, -6, 0, 19, 8, -1, -8,-3.0726111970906604,0.993735836584216,3
1503604448259,-0.872,-0.480,-0.070,+0.075,+0.849,-0.188,-0.492,+6.062,+16.750,-10.062,28, 8, 2, 3, -9, -5, 4, 15,-3.0768888128234955,1.001171492679739,3
1503604448281,-0.871,-0.481,-0.070,+0.073,+0.856,-0.179,-0.500,+7.875,+7.750,-12.062,-6, -8, -7, -3, -4, 0, -4, -4,-3.080621629066171,1.0034041336107438,3
1503604448301,-0.871,-0.482,-0.070,+0.070,+0.831,-0.176,-0.479,+8.500,+6.812,-15.000,4, -1, -2, -2, -5, 0, 4, 0,-3.0861872151488523,1.006240579599664,3
1503604448319,-0.870,-0.484,-0.070,+0.067,+0.840,-0.151,-0.486,+9.500,+13.500,-12.250,-8, -2, -10, -10, -4, 3, 2, -1,-3.091934434654437,1.0111610576092938,3
1503604448342,-0.868,-0.487,-0.070,+0.065,+0.865,-0.151,-0.479,+8.750,+15.188,-9.812,-10, 2, 1, -3, -2, -2, -2, -4,-3.0961077027109174,1.0181046235086855,3
1503604448357,-0.867,-0.489,-0.071,+0.062,+0.886,-0.153,-0.453,+10.188,+9.688,-8.938,20, -2, -2, 1, 13, -4, -2, 7,-3.1028292521928416,1.0232199794602284,3
1503604448379,-0.867,-0.490,-0.071,+0.059,+0.852,-0.194,-0.445,+10.812,+3.938,-13.812,7, -1, -1, -2, 5, 28, 2, 9,-3.1083325241970097,1.0260627178347608,3
1503604448402,-0.867,-0.491,-0.071,+0.056,+0.847,-0.164,-0.441,+8.562,+4.688,-17.375,0, -6, 5, 8, -6, -9, 1, -7,-3.113816046312767,1.0289041279287938,3
1503604448417,-0.865,-0.493,-0.071,+0.054,+0.872,-0.175,-0.443,+4.125,+12.000,-13.375,-6, -8, -6, -5, -5, -9, -5, -12,-3.1177672837076513,1.033264103536453,3
1503604448440,-0.865,-0.495,-0.070,+0.052,+0.877,-0.157,-0.458,+4.312,+12.062,-11.875,-4, 5, 2, 4, 0, -9, 0, 8,-3.120652987783688,1.0384625565344667,3
1503604448461,-0.864,-0.497,-0.070,+0.049,+0.900,-0.161,-0.429,+4.188,+5.875,-14.250,-6, -4, -7, -5, -17, -7, 3, 4,-3.1263032198668257,1.043416057735866,3
1503604448477,-0.863,-0.498,-0.069,+0.047,+0.873,-0.168,-0.437,+1.375,+8.562,-12.000,-1, 5, 3, -7, -12, -4, 1, -13,-3.1290134882754006,1.0454809534371006,3
1503604448503,-0.862,-0.500,-0.068,+0.045,+0.850,-0.131,-0.445,-0.312,+10.875,-14.250,-1, -9, -11, -9, -2, 2, -3, -6,-3.1318778019572844,1.0501737549897312,3
1503604448522,-0.862,-0.501,-0.066,+0.043,+0.891,-0.123,-0.464,-1.062,+8.375,-10.875,3, 2, -3, -3, 15, 7, 0, 3,-3.1334964020326157,1.052553083911935,3
1503604448541,-0.861,-0.502,-0.065,+0.042,+0.878,-0.118,-0.434,-1.500,+6.375,-8.750,-6, 2, -2, 2, -12, -4, -1, -1,-3.1344331955201024,1.0545563750630178,3
1503604448559,-0.861,-0.503,-0.064,+0.040,+0.956,-0.125,-0.427,-3.938,+4.938,-9.188,2, 2, 0, -1, -2, -1, 0, 1,-3.137045115500484,1.0571271163931362,3
1503604448581,-0.860,-0.505,-0.064,+0.041,+0.944,-0.101,-0.484,+0.312,+8.812,+5.000,7, 7, 5, 8, -23, -3, 2, -6,-3.1356488266958396,1.0618251378196337,3
1503604448597,-0.859,-0.506,-0.064,+0.042,+1.029,-0.147,-0.418,-0.438,+0.562,+7.750,-10, 1, 5, -2, -17, -5, 1, 4,-3.1341138036467178,1.063897939010078,3
1503604448620,-0.860,-0.504,-0.066,+0.043,+0.926,-0.166,-0.461,+2.000,-13.562,+13.750,13, -6, -3, -1, -2, 3, 0, -15,-3.1340646767738956,1.0594405936558178,3
1503604448642,-0.862,-0.501,-0.067,+0.045,+0.798,-0.149,-0.429,-2.000,-13.312,+13.438,-3, 1, 1, -1, 0, -8, -3, 7,-3.13102113595549,1.0526095162084803,3
1503604448657,-0.861,-0.502,-0.068,+0.048,+0.863,-0.186,-0.445,-9.250,+7.625,+15.812,-26, 4, 0, -6, 19, 5, 2, -1,-3.127015061648138,1.0547255055173546,3
1503604448680,-0.859,-0.504,-0.068,+0.053,+0.930,-0.175,-0.457,-10.625,+16.875,+25.875,-12, 8, 12, 2, -16, -3, 2, -2,-3.1187158389277587,1.0586532843507934,3
1503604448703,-0.859,-0.504,-0.070,+0.058,+0.961,-0.162,-0.479,-7.438,+4.250,+31.312,0, -8, -4, 4, -4, -9, -2, 2,-3.1120381619726465,1.0586880958966194,3
1503604448724,-0.859,-0.503,-0.072,+0.063,+0.898,-0.191,-0.453,-4.938,-7.312,+35.188,-1, 0, -2, -1, 4, -2, -1, 5,-3.1051423869097268,1.0560731467514888,3
1503604448740,-0.859,-0.502,-0.075,+0.068,+0.799,-0.191,-0.447,-1.688,+0.188,+31.875,-18, 7, 4, 7, 43, 13, 1, 2,-3.099236625930552,1.053642715560174,3
1503604448762,-0.858,-0.503,-0.077,+0.073,+0.836,-0.181,-0.454,-2.750,+13.938,+27.812,-32, -10, -5, -2, 11, 14, -2, 21,-3.092767385625405,1.0558008060982227,3
1503604448784,-0.856,-0.505,-0.078,+0.076,+0.865,-0.197,-0.432,-1.625,+12.125,+22.188,8, -9, -3, 1, -8, -17, -5, -26,-3.089021105866806,1.0600689893495905,3
1503604448803,-0.856,-0.505,-0.079,+0.077,+0.820,-0.202,-0.437,+0.000,+3.750,+11.000,22, 4, 4, 0, 25, -4, -1, -8,-3.0883035053747125,1.060194267853616,3
1503604448822,-0.856,-0.505,-0.080,+0.078,+0.765,-0.211,-0.412,-1.062,+4.125,+1.812,-6, -14, -18, -16, 15, 19, -6, 0,-3.087585959812958,1.0603212276169425,3
1503604448846,-0.855,-0.506,-0.079,+0.078,+0.788,-0.208,-0.411,-4.562,+10.062,-5.625,18, -8, -7, -6, -39, -19, 0, 4,-3.086796118955015,1.062272073089179,3
1503604448870,-0.855,-0.508,-0.077,+0.077,+0.804,-0.205,-0.424,-5.562,+11.625,-11.625,57, 11, 2, -4, -25, 0, 5, 22,-3.0870167645987254,1.067270672644932,3
1503604448881,-0.854,-0.509,-0.075,+0.075,+0.826,-0.207,-0.414,-7.062,+5.875,-13.250,-7, -3, -3, -1, -15, -8, 0, 0,-3.088662697312699,1.0691878219674305,3
1503604448896,-0.855,-0.509,-0.073,+0.074,+0.831,-0.197,-0.415,-8.688,+1.812,-13.750,-6, -1, -1, 2, 32, 32, -1, -12,-3.0883626743306682,1.0693764189055366,3
1503604448918,-0.855,-0.509,-0.070,+0.073,+0.830,-0.182,-0.433,-10.938,+2.438,-13.688,-13, -8, -6, -4, -8, -15, -6, 4,-3.0869955241562885,1.0688957022797374,3
1503604448942,-0.855,-0.509,-0.068,+0.072,+0.862,-0.182,-0.437,-10.875,+0.812,-11.875,-16, -5, -1, 2, -9, -11, -3, -19,-3.0866639394508986,1.0686125402810023,3
1503604448956,-0.856,-0.509,-0.065,+0.071,+0.884,-0.179,-0.441,-11.062,-2.750,-11.375,30, 10, 3, 1, -13, -13, 1, 22,-3.0853485737066846,1.068674603608575,3
1503604448980,-0.857,-0.507,-0.063,+0.070,+0.885,-0.190,-0.434,-10.250,-7.812,-10.375,41, 2, 0, 1, -5, -11, -7, 22,-3.0845860953582465,1.0636202419801448,3
1503604452444,-0.868,-0.408,+0.016,+0.284,+0.891,-0.324,-0.610,+9.938,+3.938,-20.938,-2, -1, -10, -5, -2, 0, 1, 3,-2.599236516313528,0.8221001358712725,4
1503604452466,-0.867,-0.412,+0.013,+0.282,+0.856,-0.329,-0.625,+17.438,+12.375,-9.500,5, -3, -2, -2, 0, 0, -1, 2,-2.6064410434633603,0.8299199759584925,4
1503604452482,-0.865,-0.416,+0.010,+0.281,+0.810,-0.303,-0.622,+18.875,+18.750,+1.062,6, 5, -3, -8, 0, -2, 0, -1,-2.6109050165200194,0.8372823924619719,4
1503604452504,-0.863,-0.420,+0.007,+0.280,+0.783,-0.273,-0.596,+21.125,+20.750,+2.312,-4, -10, -5, -2, -3, -2, -1, -2,-2.61547250773322,0.8447335516654685,4
1503604452529,-0.861,-0.425,+0.005,+0.278,+0.799,-0.241,-0.590,+23.812,+22.062,+2.812,-1, -4, 2, -4, -1, -2, 0, -1,-2.6217839640553757,0.8551369959297668,4
1503604452542,-0.859,-0.430,+0.002,+0.278,+0.802,-0.253,-0.594,+21.875,+26.000,+11.125,-6, -15, -16, -6, -2, -1, -1, -3,-2.625889507887156,0.8652691117669207,4
1503604452564,-0.856,-0.435,-0.000,+0.279,+0.753,-0.192,-0.593,+13.875,+29.562,+18.125,1, -9, -5, -3, -4, 0, -2, -3,-2.626559052718101,0.8753056817678515,4
1503604452585,-0.854,-0.439,-0.001,+0.281,+0.770,-0.185,-0.598,+9.562,+22.750,+19.188,3, 24, 45, 7, 3, -2, 0, 4,-2.6253611111217414,0.883842224817782,4
1503604452602,-0.852,-0.440,-0.002,+0.283,+0.770,-0.177,-0.618,+2.812,+10.875,+18.875,0, 12, -3, 4, 2, 2, 0, -4,-2.6215136272029995,0.8848442710204018,4
1503604452624,-0.852,-0.439,-0.002,+0.286,+0.711,-0.139,-0.607,-3.250,+2.188,+19.938,5, -14, -15, -1, -1, -1, -1, -1,-2.6160240536534602,0.8823140731836151,4
1503604452646,-0.851,-0.438,-0.002,+0.289,+0.668,-0.118,-0.588,-5.688,+1.688,+19.312,-17, -15, -6, 0, -2, -1, 0, -3,-2.609278355709737,0.8792082474001556,4
1503604452663,-0.851,-0.438,-0.001,+0.291,+0.665,-0.123,-0.570,-3.000,+7.500,+14.500,-9, -27, 4, 2, 4, 5, -1, -1,-2.6054682059240406,0.8795821126975972,4
1503604452684,-0.850,-0.438,-0.000,+0.292,+0.664,-0.150,-0.571,-3.062,+6.625,+7.000,-23, 21, 0, 3, -18, -8, -2, -3,-2.60189466211345,0.8793866205581706,4
1503604452699,-0.850,-0.438,+0.001,+0.292,+0.690,-0.145,-0.568,-3.000,+4.000,+0.500,6, 6, 0, 0, 8, 0, 0, 1,-2.6011170779028014,0.8797732837991604,4
1503604452722,-0.851,-0.438,+0.002,+0.291,+0.693,-0.155,-0.581,-2.938,+5.500,-4.188,11, 12, -4, 3, 1, -2, -3, 2,-2.6031372130548593,0.8807365399034555,4
1503604452744,-0.851,-0.439,+0.004,+0.289,+0.706,-0.156,-0.607,+0.562,+8.750,-7.750,5, -6, -6, -8, -3, 0, -2, 0,-2.605519775778407,0.8840231958979062,4
1503604452759,-0.851,-0.439,+0.005,+0.287,+0.730,-0.230,-0.615,+1.750,+8.688,-12.750,3, 8, 12, 3, 2, 2, 2, 2,-2.6077618042050434,0.8844024278025495,4
1503604452782,-0.852,-0.439,+0.006,+0.285,+0.808,-0.266,-0.583,-1.500,-1.812,-19.562,14, 13, 0, -5, 0, 1, -1, 0,-2.611282415366802,0.8853522483167977,4
1503604452805,-0.854,-0.437,+0.007,+0.282,+0.806,-0.284,-0.569,-6.812,-15.250,-18.250,-10, -3, -6, -14, -11, -6, -2, -9,-2.6157922115618666,0.8818452187777158,4
1503604452826,-0.855,-0.435,+0.008,+0.282,+0.779,-0.296,-0.560,-9.125,-11.875,-11.312,1, 0, 3, 3, 3, 0, 0, 2,-2.614505602568421,0.8778057791253874,4
1503604452842,-0.856,-0.435,+0.009,+0.281,+0.805,-0.289,-0.575,-9.562,-5.562,-6.625,1, -18, -9, -1, 2, 0, -1, 0,-2.6165168578115026,0.8787615754056475,4
1503604452864,-0.856,-0.433,+0.010,+0.281,+0.830,-0.274,-0.573,-9.500,-8.625,-4.562,-29, -10, -5, -5, 0, 1, -1, -3,-2.613989288763025,0.874171023717654,4
1503604452886,-0.857,-0.432,+0.010,+0.281,+0.817,-0.245,-0.553,-5.688,-11.375,-6.625,12, -4, -10, 0, 0, 3, 1, -1,-2.6143849715317584,0.8722505567963197,4
1503604452904,-0.858,-0.431,+0.010,+0.280,+0.802,-0.237,-0.572,-1.312,-7.938,-8.062,-15, -9, 5, -3, -1, -2, -2, -2,-2.6163041963760105,0.8703191814201708,4
1503604452924,-0.858,-0.431,+0.010,+0.278,+0.768,-0.224,-0.602,+3.562,-1.875,-11.500,-10, -9, 2, 6, 1, -1, -1, 1,-2.619353916207342,0.8702927281809254,4
1503604452939,-0.859,-0.431,+0.011,+0.274,+0.781,-0.197,-0.608,+6.812,-0.125,-16.625,1, 8, 3, 5, 1, 2, 0, -2,-2.625966462288285,0.8712043440891076,4
1503604452964,-0.860,-0.432,+0.010,+0.271,+0.816,-0.213,-0.601,+10.812,-3.000,-17.125,7, 7, -4, -1, -2, -2, 0, 1,-2.633438985616571,0.8738265392016084,4
1503604452984,-0.861,-0.432,+0.009,+0.268,+0.785,-0.244,-0.588,+12.312,-3.188,-15.938,-5, -2, 2, 3, -1, -1, 1, 2,-2.6400667791533254,0.8739728946799413,4
1503604453007,-0.862,-0.433,+0.008,+0.265,+0.770,-0.241,-0.571,+10.938,+2.625,-14.500,3, -2, -1, 7, -5, -4, -2, -3,-2.6475278806648204,0.8766211751567317,4
1503604453022,-0.862,-0.434,+0.008,+0.262,+0.775,-0.245,-0.551,+8.562,+2.625,-16.125,-2, -1, -6, -8, -30, -7, 1, -5,-2.65301513036933,0.8790828447609427,4
1503604453045,-0.862,-0.435,+0.007,+0.259,+0.777,-0.223,-0.552,+6.250,+0.625,-15.312,-11, -19, -9, -2, -4, -3, -2, -2,-2.6593037904853754,0.8811857765237999,4
1503604453067,-0.863,-0.436,+0.008,+0.256,+0.775,-0.199,-0.561,+4.188,+3.312,-13.188,5, -9, 4, 0, 6, 3, 1, 2,-2.665180531049727,0.8845781853650097,4
1503604453082,-0.863,-0.437,+0.008,+0.254,+0.794,-0.205,-0.557,+3.438,+3.812,-11.375,-16, -24, -11, -2, 4, 1, -2, -4,-2.669118524137392,0.8870563130778713,4
1503604453109,-0.863,-0.437,+0.009,+0.253,+0.777,-0.209,-0.569,+1.875,+0.875,-10.875,3, 6, -7, -3, -4, -3, -3, -1,-2.6698940038254375,0.8873995570348342,4
1503604453126,-0.864,-0.437,+0.009,+0.251,+0.746,-0.199,-0.562,+0.438,+1.438,-11.312,8, 13, 7, 3, 2, -1, 0, 3,-2.674176788028382,0.8879399239780944,4
1503604453142,-0.864,-0.438,+0.010,+0.249,+0.780,-0.185,-0.573,-2.000,+5.312,-11.125,4, -9, -20, -8, 2, -3, -3, 0,-2.6773137707035892,0.8907660242588725,4
1503604453167,-0.864,-0.439,+0.012,+0.248,+0.818,-0.183,-0.592,-1.375,+7.812,-8.188,-1, 15, -4, -4, -2, -1, -2, -3,-2.6780698198562423,0.8939575501380603,4
1503604453185,-0.864,-0.440,+0.013,+0.246,+0.826,-0.172,-0.600,-0.688,+3.188,-8.125,-3, -5, 0, -2, -3, -3, -2, -1,-2.6811932288145646,0.8967801480607356,4
1503604453202,-0.864,-0.439,+0.013,+0.245,+0.806,-0.182,-0.600,+0.312,-1.625,-9.062,2, 9, 5, -2, 1, 2, -1, -2,-2.6819995166735646,0.8942641487787647,4
1503604453224,-0.864,-0.439,+0.013,+0.244,+0.810,-0.199,-0.573,+0.438,+0.312,-5.000,0, -17, -6, 5, 25, 21, 1, -3,-2.6835808226747373,0.8942475553651285,4
1503604453247,-0.864,-0.441,+0.014,+0.243,+0.805,-0.178,-0.562,+0.438,+6.625,-1.688,-2, -29, -15, -8, -6, -9, -3, -10,-2.6858905643984787,0.899583054098731,4
1503604453263,-0.864,-0.442,+0.014,+0.243,+0.820,-0.188,-0.566,+1.312,+4.000,-0.812,8, 19, 3, -3, -2, -4, -4, -4,-2.6866550238050433,0.9020854430579264,4
1503604453284,-0.864,-0.442,+0.013,+0.242,+0.808,-0.176,-0.553,+2.250,+0.500,-1.000,0, -32, -5, -8, -6, -5, -2, 3,-2.6890428144497633,0.9017189526450616,4
1503604453309,-0.863,-0.443,+0.013,+0.242,+0.799,-0.184,-0.565,+4.062,+7.875,+1.312,3, 16, -3, 1, -8, -5, 1, -4,-2.68871205375785,0.9036660019421219,4
1503604453323,-0.862,-0.446,+0.013,+0.242,+0.815,-0.184,-0.570,+2.125,+13.812,+3.562,4, 7, -3, -10, -8, -7, -1, 0,-2.689922744071367,0.9106380886319411,4
1503604453350,-0.861,-0.447,+0.013,+0.242,+0.819,-0.164,-0.573,+2.188,+8.562,+0.250,8, 4, -6, 4, 3, -1, -3, -3,-2.6896041434415094,0.9125951084169972,4
1503604453368,-0.861,-0.447,+0.013,+0.241,+0.806,-0.177,-0.589,+1.875,+3.188,-3.688,11, 15, 0, -2, 0, -2, 0, 0,-2.6911848429715497,0.9125788952077796,4
1503604453383,-0.861,-0.448,+0.013,+0.240,+0.779,-0.173,-0.581,+0.812,+3.375,-5.562,-26, -26, -10, -8, -3, -3, -4, -10,-2.6935359213955037,0.9150794485334897,4
1503604453406,-0.861,-0.448,+0.014,+0.239,+0.810,-0.159,-0.557,+0.750,+6.000,-7.625,-3, -12, -8, 2, -9, -8, 1, 4,-2.6942951828251602,0.9154038452228542,4
1503604453426,-0.861,-0.449,+0.015,+0.237,+0.818,-0.189,-0.546,+0.625,+3.938,-7.062,24, 7, 1, -2, 4, -1, -1, 2,-2.697400276538966,0.9182269894747398,4
1503604453443,-0.861,-0.450,+0.015,+0.236,+0.793,-0.174,-0.536,+0.250,+3.938,-8.375,0, 12, 15, 9, 5, 2, 3, 5,-2.6997430324560288,0.9207271478927145,4
1503604453464,-0.861,-0.451,+0.016,+0.235,+0.800,-0.171,-0.543,+0.500,+3.562,-7.688,-1, -15, -7, -10, -19, -4, -2, -6,-2.7012530308605975,0.9235679933513282,4
1503604453488,-0.861,-0.452,+0.016,+0.234,+0.784,-0.179,-0.545,+1.562,+7.125,-4.875,-17, 17, 12, 16, -35, -11, 2, 2,-2.703588629878501,0.926069824145345,4
1503604453502,-0.861,-0.453,+0.016,+0.233,+0.811,-0.187,-0.539,+1.500,+6.500,-3.312,-8, 1, -2, 1, 10, 1, -1, 1,-2.7059215859650108,0.9285735616317694,4
1503604453524,-0.860,-0.453,+0.016,+0.233,+0.774,-0.193,-0.548,+1.312,+3.562,-2.000,-6, 6, 3, 1, 16, 8, 0, -7,-2.7048723306343216,0.9280213547727726,4
1503604453546,-0.861,-0.453,+0.016,+0.232,+0.777,-0.186,-0.555,-2.625,+0.438,-3.625,-4, -8, -3, 6, -15, -10, 0, -2,-2.707507543916551,0.9285540715149564,4
1503604453562,-0.861,-0.452,+0.018,+0.232,+0.778,-0.146,-0.571,-5.812,+0.750,-4.125,10, 7, 11, 1, 9, -1, -4, 3,-2.7050951071676486,0.9267081087772936,4
1503604453584,-0.861,-0.452,+0.019,+0.231,+0.796,-0.147,-0.573,-6.062,+0.250,-4.875,-1, -8, -13, -13, 11, 3, -1, -2,-2.7058491411254817,0.9270281718675085,4
1503604453607,-0.862,-0.451,+0.020,+0.231,+0.827,-0.160,-0.565,-7.125,-6.812,-4.062,5, 3, 0, -2, -2, 1, 1, 8,-2.7053315866194425,0.92540660776802,4
1503604453622,-0.863,-0.449,+0.021,+0.231,+0.809,-0.147,-0.532,-6.500,-11.500,-3.312,-7, -11, -7, -2, 9, 4, -3, -1,-2.70409017476573,0.921279602196654,4
1503604453645,-0.864,-0.448,+0.021,+0.231,+0.808,-0.161,-0.534,-3.438,-8.812,-1.750,3, 2, 1, 1, 12, 2, 0, -1,-2.704417209569301,0.9193209752696025,4
1503604453669,-0.864,-0.448,+0.021,+0.231,+0.815,-0.172,-0.549,-2.438,-0.188,+1.312,14, 6, 2, 4, -2, -2, -2, -3,-2.704417209569301,0.9193209752696025,4
1503604453689,-0.863,-0.448,+0.021,+0.232,+0.875,-0.183,-0.524,-2.000,-1.500,+3.375,0, 0, -8, -5, 15, 3, -4, -10,-2.7017690977332016,0.9187952872820789,4
1503604453704,-0.863,-0.448,+0.020,+0.232,+0.877,-0.202,-0.523,-0.812,-5.562,+6.188,1, -2, 6, -2, -9, 3, -1, -2,-2.7025927724593757,0.9184431883830155,4
1503604453726,-0.863,-0.448,+0.019,+0.234,+0.834,-0.201,-0.538,-1.625,-5.375,+9.375,-10, -3, -7, -6, 4, 4, 2, 5,-2.700244779458739,0.9181409747888764,4
1503604453742,-0.862,-0.449,+0.018,+0.236,+0.846,-0.208,-0.542,-3.500,+2.812,+13.125,19, 7, 4, 4, -13, -1, 1, 11,-2.697579985887619,0.9197966871399724,4
1503604453764,-0.860,-0.451,+0.018,+0.239,+0.909,-0.220,-0.538,-4.438,+7.438,+16.188,-1, 0, -3, -1, 5, 0, -2, -11,-2.692207577043462,0.9237900056467684,4
1503604453786,-0.859,-0.452,+0.017,+0.241,+0.916,-0.221,-0.547,-2.500,+5.500,+15.188,-9, -8, -2, -5, -11, 0, -2, -1,-2.6895715918588663,0.9254492962994951,4
1503604453804,-0.858,-0.453,+0.015,+0.243,+0.910,-0.243,-0.569,+2.438,+1.500,+14.812,-3, -5, -2, -2, -1, -2, 1, 3,-2.6877759263299037,0.9267623954456805,4
1503604453824,-0.856,-0.454,+0.012,+0.245,+0.885,-0.260,-0.558,+5.062,+2.500,+20.000,-12, 2, -3, -2, -6, -16, -4, -5,-2.6857371992439374,0.9271857174390209,4
1503604453847,-0.854,-0.457,+0.009,+0.248,+0.882,-0.277,-0.522,+8.562,+12.938,+22.875,-3, -5, -1, -1, -30, -11, 1, 2,-2.6837633238871472,0.9327182693094404,4
1503604453862,-0.851,-0.462,+0.005,+0.250,+0.884,-0.296,-0.517,+15.062,+21.312,+22.938,2, 0, 0, 7, -1, 1, -1, -2,-2.6848463886815632,0.9425210951705025,4
1503604453884,-0.847,-0.468,+0.001,+0.252,+0.885,-0.331,-0.520,+20.500,+28.375,+22.625,-3, -1, -8, -10, 14, 5, -2, -9,-2.685866459938807,0.9544725289771246,4
1503604453907,-0.844,-0.474,-0.004,+0.254,+0.891,-0.323,-0.530,+22.562,+31.438,+22.875,-1, 4, 7, -3, 9, 8, -3, -5,-2.6890370476863077,0.9668636029957762,4
1503604453922,-0.840,-0.479,-0.009,+0.255,+0.878,-0.316,-0.525,+26.250,+30.625,+22.562,4, -5, -2, -7, -5, -16, 0, 8,-2.69207689066011,0.9763015573265864,4
1503604453945,-0.837,-0.484,-0.014,+0.256,+0.850,-0.341,-0.527,+29.625,+28.125,+20.625,-2, -5, -2, -7, -1, -5, -6, -14,-2.696355510006307,0.9864833522201416,4
1503604453966,-0.833,-0.489,-0.020,+0.256,+0.834,-0.347,-0.515,+30.688,+26.312,+19.562,-7, 1, -5, -3, 4, 5, 2, 0,-2.7023201062026976,0.996104398189758,4
1503604453982,-0.830,-0.494,-0.025,+0.257,+0.807,-0.330,-0.508,+30.500,+29.438,+18.625,-4, 6, 5, 4, -19, -12, -2, -1,-2.707009851217576,1.0067066111614544,4
1503604454006,-0.827,-0.500,-0.030,+0.257,+0.817,-0.329,-0.523,+32.000,+32.812,+18.750,16, 1, -6, 1, 30, 4, 4, 20,-2.7143951120913767,1.0202448004445246,4
1503604454026,-0.823,-0.505,-0.035,+0.257,+0.821,-0.287,-0.525,+33.562,+35.375,+21.875,-3, 7, 10, 6, 11, 3, -5, -8,-2.7201308119373087,1.0307783675521645,4
1503604454042,-0.820,-0.509,-0.042,+0.257,+0.789,-0.317,-0.491,+38.438,+22.562,+22.812,-14, -5, -6, -3, -1, -4, -2, 2,-2.728036904852007,1.039096443951606,4
1503604454064,-0.819,-0.512,-0.049,+0.256,+0.796,-0.339,-0.416,+42.812,+7.875,+16.438,-1, -24, -2, -1, -12, -9, 1, -2,-2.7385655087060052,1.0460954295889826,4
1503604454086,-0.817,-0.515,-0.056,+0.254,+0.766,-0.355,-0.429,+45.812,+8.000,+13.062,-2, 9, 2, 0, -51, 1, 4, -1,-2.7499947754380574,1.052883155562642,4
1503604454102,-0.815,-0.519,-0.063,+0.251,+0.685,-0.356,-0.462,+48.125,+25.188,+8.875,12, -24, -9, -2, 13, 6, 0, 1,-2.7642045153735997,1.062828692014625,4
1503604454124,-0.811,-0.524,-0.070,+0.249,+0.694,-0.356,-0.452,+49.125,+32.875,+9.250,-5, 1, -3, -4, -12, -1, -2, -9,-2.776453828215622,1.0747978426425604,4
1503604454147,-0.808,-0.529,-0.076,+0.247,+0.797,-0.384,-0.410,+41.625,+26.750,+11.250,-12, -2, 0, -1, 10, 2, 3, 5,-2.7886951221504126,1.0876630177075381,4
1503604454161,-0.806,-0.532,-0.081,+0.246,+0.823,-0.410,-0.385,+33.000,+11.812,+10.250,-7, -13, -11, -4, -8, -1, 1, 0,-2.797211216154229,1.0955127746466842,4
1503604454183,-0.806,-0.533,-0.086,+0.245,+0.771,-0.386,-0.359,+24.000,-1.375,+5.875,-16, -3, -5, 12, 7, 7, 1, -2,-2.8052706512399976,1.0988588916941138,4
1503604454207,-0.807,-0.532,-0.087,+0.243,+0.700,-0.284,-0.376,+13.938,-7.812,+0.312,-29, -3, -5, -6, 13, 3, -5, -14,-2.809393888014806,1.0967851974066156,4
1503604454221,-0.808,-0.531,-0.087,+0.240,+0.681,-0.201,-0.365,+7.625,-7.625,-10.750,6, 5, 2, -2, -9, -10, -2, 1,-2.814096389462702,1.0947107875767312,4
1503604454245,-0.810,-0.531,-0.084,+0.235,+0.710,-0.167,-0.378,+7.688,+0.312,-22.188,10, 2, 4, -3, 4, -1, 1, 2,-2.820405825177648,1.0959097401346007,4
1503604454266,-0.811,-0.532,-0.082,+0.229,+0.772,-0.162,-0.397,+14.125,+3.750,-26.750,-8, 9, 7, 14, 11, 6, 0, -7,-2.8297166015382547,1.0995880275649526,4
1503604454281,-0.812,-0.533,-0.081,+0.223,+0.845,-0.208,-0.403,+21.250,+2.125,-25.000,6, -13, -12, -8, -11, -5, -3, -4,-2.8400845045548126,1.1033299657566076,4
1503604456643,-0.864,-0.451,-0.188,+0.123,+0.792,-0.426,-0.478,-14.000,+1.875,+11.375,-2, -7, -5, 2, 0, -1, 0, 3,-3.093875749801407,0.9515579314773401,5
1503604456667,-0.864,-0.450,-0.187,+0.126,+0.754,-0.452,-0.474,-15.688,-1.062,+11.812,-10, -2, 0, 1, 1, -2, 0, -6,-3.086605334065494,0.9475677739680761,5
1503604456692,-0.864,-0.450,-0.186,+0.130,+0.740,-0.435,-0.490,-17.812,+5.000,+12.312,-4, 0, 3, -2, 0, 2, -1, -7,-3.077936557471392,0.9460915758137456,5
1503604456704,-0.864,-0.450,-0.184,+0.132,+0.777,-0.410,-0.483,-14.062,+3.500,+10.812,12, 1, -1, -4, -13, -8, 3, 21,-3.0721094150139963,0.9446168942266219,5
1503604456726,-0.864,-0.449,-0.183,+0.134,+0.756,-0.438,-0.484,-14.250,-2.625,+8.438,13, -1, -3, -2, -4, 1, 2, 6,-3.0667289778001567,0.940905029901343,5
1503604456748,-0.865,-0.448,-0.182,+0.136,+0.727,-0.435,-0.519,-12.438,-3.125,+7.062,-10, -7, -7, 5, 6, 2, -3, -6,-3.0613428522121082,0.9377927546673476,5
1503604456764,-0.865,-0.447,-0.181,+0.139,+0.716,-0.439,-0.501,-13.688,+1.750,+9.500,16, 0, 2, -4, 2, -1, -3, -10,-3.0540380151374382,0.9338637179308886,5
1503604456785,-0.865,-0.448,-0.179,+0.141,+0.775,-0.428,-0.492,-15.125,+5.938,+10.938,-4, -9, -8, -5, 1, -5, -5, -3,-3.048809472996312,0.9352132572853762,5
1503604456808,-0.865,-0.448,-0.178,+0.144,+0.788,-0.411,-0.505,-13.312,+3.812,+12.875,6, 2, 1, -1, -9, -2, 3, 35,-3.0420936045425355,0.9340566156473582,5
1503604456825,-0.865,-0.447,-0.177,+0.147,+0.749,-0.425,-0.487,-15.688,+0.125,+15.188,-8, 3, -3, -4, 1, -8, -2, -8,-3.0347855808528292,0.9301674318068727,5
1503604456845,-0.864,-0.447,-0.176,+0.151,+0.722,-0.435,-0.487,-16.062,+7.250,+19.000,-2, 2, 5, 2, 0, 2, -2, -9,-3.026063203616477,0.9282016483800366,5
1503604456868,-0.863,-0.448,-0.175,+0.156,+0.726,-0.449,-0.485,-19.188,+14.438,+21.375,8, -5, -7, -5, 0, -2, 0, -7,-3.0160357299044547,0.9287609089276139,5
1503604456884,-0.861,-0.450,-0.173,+0.161,+0.767,-0.477,-0.456,-22.250,+14.500,+21.062,-10, 3, 8, 4, 0, 0, -3, -3,-3.005512074923469,0.931091101873688,5
1503604456905,-0.861,-0.450,-0.171,+0.166,+0.795,-0.456,-0.476,-23.438,+7.062,+17.500,4, -5, -1, -4, -1, 0, 2, 5,-2.994018832836369,0.929149717795057,5
1503604456929,-0.861,-0.449,-0.169,+0.170,+0.779,-0.435,-0.501,-24.188,+3.125,+20.562,-4, 1, 2, 2, 3, 2, 2, 2,-2.9837707681369015,0.9247181916440654,5
1503604456943,-0.861,-0.448,-0.167,+0.175,+0.732,-0.376,-0.542,-18.562,+3.688,+20.625,-14, -5, -2, -4, -1, -6, -3, -17,-2.971631345924389,0.9201001084567695,5
1503604456967,-0.860,-0.448,-0.166,+0.179,+0.731,-0.396,-0.551,-16.562,+4.688,+23.312,36, -2, -6, -1, 0, 1, 2, -8,-2.9628018246121046,0.918239758315709,5
1503604456988,-0.859,-0.448,-0.165,+0.184,+0.697,-0.428,-0.557,-13.938,+12.688,+26.688,0, -1, 9, -2, -1, -3, -4, 7,-2.952060137809253,0.9161645784214939,5
1503604457004,-0.857,-0.449,-0.165,+0.190,+0.703,-0.428,-0.542,-10.625,+23.062,+28.688,-12, -5, -5, -1, 1, 1, -1, 9,-2.94081455180898,0.9163554732137641,5
1503604457030,-0.854,-0.452,-0.165,+0.196,+0.747,-0.447,-0.512,-9.000,+28.312,+33.438,-4, -6, -7, -5, -6, 0, 2, -2,-2.9307519549116203,0.9214937034215388,5
1503604457048,-0.852,-0.455,-0.166,+0.201,+0.784,-0.426,-0.518,-1.812,+21.000,+29.875,6, -2, -4, -3, 5, 0, 0, 0,-2.9239902943917513,0.9278400729308826,5
1503604457075,-0.850,-0.455,-0.168,+0.204,+0.794,-0.415,-0.535,+3.688,+8.250,+26.562,3, -2, -3, -2, -3, -5, -4, -13,-2.9195761368726525,0.9265829302488874,5
1503604457089,-0.849,-0.454,-0.171,+0.207,+0.745,-0.459,-0.528,+7.438,-1.875,+28.750,11, -2, 2, -2, -1, 2, -2, -4,-2.9157064975570046,0.9234554374083775,5
1503604457108,-0.848,-0.454,-0.175,+0.211,+0.703,-0.477,-0.515,+9.562,+2.500,+33.438,6, 9, 8, 3, 2, 0, 4, 27,-2.9117809217225137,0.9232462860501359,5
1503604457131,-0.846,-0.455,-0.178,+0.216,+0.688,-0.463,-0.526,+9.625,+14.000,+37.375,2, 3, 4, 7, 1, 2, 2, 26,-2.905403250437733,0.924659959393284,5
1503604457146,-0.842,-0.457,-0.182,+0.223,+0.686,-0.488,-0.517,+10.938,+25.812,+44.125,8, -2, -1, -2, -1, 2, -1, 6,-2.8963014630213686,0.9275351161239915,5
1503604457169,-0.837,-0.461,-0.186,+0.229,+0.673,-0.498,-0.485,+14.875,+33.812,+42.500,-9, -1, -4, -2, -3, -2, -2, -11,-2.890575231755045,0.9358595305528045,5
1503604457184,-0.833,-0.465,-0.190,+0.234,+0.699,-0.518,-0.467,+16.812,+34.188,+38.562,-21, 5, 9, 3, 3, -3, -1, -21,-2.8873562464950604,0.9452426089301474,5
1503604457206,-0.828,-0.469,-0.195,+0.239,+0.747,-0.557,-0.424,+16.125,+32.938,+38.375,-3, -5, -6, -6, -6, 0, 0, -9,-2.8849271447357006,0.9545824541990845,5
1503604457231,-0.822,-0.474,-0.199,+0.245,+0.724,-0.562,-0.414,+14.812,+39.812,+44.875,-4, -4, -9, -4, -6, -3, -1, -3,-2.8802877065214445,0.9657793719750745,5
1503604457244,-0.816,-0.480,-0.202,+0.252,+0.650,-0.561,-0.427,+13.125,+50.000,+45.562,4, -8, -4, -1, -5, 0, 0, -6,-2.8739266806128247,0.9795259906760218,5
1503604457267,-0.809,-0.485,-0.206,+0.259,+0.639,-0.584,-0.427,+9.875,+51.688,+44.688,-9, -2, 5, 0, -5, -2, -1, -15,-2.8673867100102544,0.9903224290399962,5
1503604457288,-0.803,-0.492,-0.208,+0.266,+0.722,-0.604,-0.412,+8.375,+51.438,+37.625,3, 0, -3, -1, -11, -4, -3, -13,-2.8615568538206695,1.0072816437314382,5
1503604457304,-0.798,-0.496,-0.210,+0.270,+0.749,-0.616,-0.387,+9.500,+38.250,+33.188,-20, -5, -3, -1, -18, -2, 0, -12,-2.8586553906156573,1.016574111858875,5
1503604457329,-0.793,-0.500,-0.213,+0.274,+0.714,-0.589,-0.334,+13.125,+28.562,+30.812,10, 3, -5, -3, 6, 2, 1, 1,-2.857106904468848,1.0265839676493678,5
1503604457348,-0.789,-0.504,-0.216,+0.278,+0.633,-0.596,-0.325,+10.750,+29.750,+25.250,-4, -3, 0, 0, -5, -14, -5, 0,-2.8561968510311155,1.0374562489748178,5
1503604457365,-0.786,-0.507,-0.217,+0.280,+0.607,-0.614,-0.355,+5.500,+30.625,+14.000,7, 1, 1, 1, 7, 3, -5, -16,-2.856001727796914,1.045275368083554,5
1503604457386,-0.783,-0.511,-0.215,+0.282,+0.622,-0.634,-0.300,-1.750,+33.188,-0.938,4, -1, 5, 2, -13, -6, -1, -1,-2.853380080811309,1.0546225612518838,5
1503604457408,-0.780,-0.517,-0.213,+0.282,+0.676,-0.657,-0.210,-7.625,+35.125,-11.438,-27, -5, -2, -1, -2, 2, 0, -4,-2.8571534002567636,1.0711234284920932,5
1503604457433,-0.777,-0.523,-0.205,+0.283,+0.702,-0.604,-0.220,-28.062,+41.125,-24.688,5, -2, -12, -3, -15, 0, 1, -4,-2.8513556294021907,1.0838472404980974,5
1503604457446,-0.778,-0.528,-0.192,+0.281,+0.688,-0.477,-0.264,-47.000,+41.500,-48.250,2, -4, 2, 0, 4, 3, -1, -3,-2.8453138444231163,1.093929233476346,5
1503604457468,-0.779,-0.535,-0.176,+0.276,+0.763,-0.410,-0.227,-51.438,+46.812,-75.000,-4, 3, 2, -1, 7, 1, -1, -6,-2.843324715374716,1.1099675362996966,5
1503604457484,-0.780,-0.542,-0.161,+0.269,+0.846,-0.518,-0.259,-36.250,+36.750,-83.312,-4, -9, -8, -3, 7, 1, 0, 18,-2.845787143191088,1.1271850686432654,5
1503604457508,-0.782,-0.547,-0.145,+0.261,+0.848,-0.482,-0.302,-43.125,+35.062,-92.938,8, 1, -2, 1, 0, 2, -1, -2,-2.8466392021286104,1.138794575654935,5
1503604457536,-0.785,-0.551,-0.128,+0.253,+0.833,-0.395,-0.274,-51.062,+24.938,-95.125,-1, 2, -1, -1, 4, 0, 0, 0,-2.8454895113550704,1.1480524477302747,5
1503604457544,-0.789,-0.553,-0.111,+0.245,+0.743,-0.390,-0.362,-51.062,+19.438,-96.438,-15, -9, 2, 2, 3, 0, -2, 5,-2.842820427060863,1.1524944387737228,5
1503604457567,-0.793,-0.553,-0.095,+0.238,+0.661,-0.416,-0.371,-50.812,+13.500,-99.125,-1, -4, -5, -5, 0, 0, -1, -4,-2.837935867059466,1.1519435314531192,5
1503604457588,-0.797,-0.553,-0.078,+0.230,+0.662,-0.387,-0.354,-56.000,+11.562,-100.812,5, 12, 5, 0, 1, 0, -2, -3,-2.8338444507392158,1.1521860516231022,5
1503604457605,-0.801,-0.552,-0.061,+0.224,+0.762,-0.310,-0.360,-61.625,+9.312,-92.000,-8, -1, -4, 0, 0, -1, -2, -4,-2.8259369931658593,1.1503605188532036,5
1503604457626,-0.804,-0.551,-0.047,+0.219,+0.854,-0.298,-0.357,-58.500,+0.062,-70.000,-11, -12, -3, -1, -1, -1, 0, 1,-2.8194954856877716,1.148961345831926,5
1503604457648,-0.808,-0.546,-0.035,+0.218,+0.840,-0.326,-0.380,-58.938,-19.562,-52.562,3, 4, -6, -1, 2, -1, -1, -1,-2.8065168306698913,1.1373155902627154,5
1503604457665,-0.814,-0.539,-0.026,+0.217,+0.867,-0.323,-0.358,-54.125,-37.688,-44.125,4, -1, -8, -3, 27, 1, 1, 2,-2.7970106066945863,1.1215643158125521,5
1503604457687,-0.817,-0.534,-0.018,+0.216,+0.902,-0.393,-0.317,-48.688,-27.625,-37.312,-7, -7, -2, -3, -10, -2, 0, -1,-2.788415436463056,1.1102525714419453,5
1503604457708,-0.819,-0.532,-0.011,+0.217,+0.879,-0.354,-0.348,-45.250,-12.125,-29.438,11, 8, 12, 3, -3, -1, 1, 3,-2.7795385046866734,1.1067896951264815,5
1503604457724,-0.819,-0.530,-0.004,+0.221,+0.812,-0.430,-0.458,-51.625,+7.875,-15.438,-5, 20, 10, -3, -4, 0, 1, -6,-2.764498642827392,1.1025589739290569,5
1503604457746,-0.826,-0.516,+0.002,+0.227,+1.216,-0.333,-0.421,-69.250,-95.188,+2.750,-6, -17, -7, -10, -4, 0, -1, -2,-2.743679357252139,1.069625403299868,5
1503604457769,-0.831,-0.510,+0.011,+0.221,+1.018,+0.128,-0.027,-30.625,-61.875,-41.750,9, 5, 0, -1, -8, -2, -1, 2,-2.7439960116490236,1.058374007899832,5
1503604457784,-0.834,-0.504,+0.009,+0.223,+1.161,-0.376,-0.599,-10.625,-42.000,+2.812,5, 10, 10, 4, -2, -2, 1, 0,-2.7407588696725553,1.0435415337764515,5
1503604457808,-0.834,-0.505,+0.010,+0.221,+1.062,-0.318,-0.362,-4.562,-5.500,-10.250,3, -3, -9, -3, -3, -3, -1, -1,-2.743738333343822,1.0464247556921786,5
1503604457833,-0.835,-0.504,+0.009,+0.221,+1.007,-0.272,-0.460,-1.125,-11.062,-3.938,-9, -4, -8, -1, 3, 1, -2, -1,-2.7448130917223517,1.0440414721616849,5
1503604457844,-0.837,-0.501,+0.007,+0.221,+0.886,-0.247,-0.528,+7.125,-23.625,+3.812,19, 3, -3, -3, -3, -1, -3, 0,-2.7461793301930855,1.036655349697487,5
1503604457867,-0.838,-0.499,+0.005,+0.221,+0.723,-0.277,-0.494,+1.875,-9.438,-2.125,-3, -15, -4, 4, -6, -4, 0, 0,-2.7474167944482293,1.0314055153951787,5
1503604457888,-0.839,-0.497,+0.004,+0.221,+0.658,-0.229,-0.524,-0.750,-3.000,-3.750,0, 5, 6, 6, 0, -2, -1, -4,-2.7477098233194472,1.0264186411330622,5
1503604457904,-0.840,-0.495,+0.005,+0.221,+0.710,-0.188,-0.488,-1.438,-1.875,-6.688,-20, -11, 1, 3, -16, 0, -1, -2,-2.74613125205455,1.0219418434225074,5
1503604457926,-0.841,-0.494,+0.004,+0.220,+0.730,-0.228,-0.487,+1.562,-6.125,-4.938,24, -34, -14, -4, -3, -4, -1, 3,-2.7487907344891087,1.019590142253785,5
1503604457949,-0.841,-0.494,+0.006,+0.219,+0.769,-0.184,-0.483,-4.562,+5.688,-9.188,-37, 4, 0, -1, -1, 0, 1, -3,-2.7485127764117943,1.0200897181365234,5
1503604457967,-0.841,-0.496,+0.007,+0.217,+0.894,-0.149,-0.496,+0.438,+12.500,-9.625,-27, -29, -7, -4, 6, -1, -1, -4,-2.752274043510515,1.0255748964129519,5
1503604457987,-0.840,-0.498,+0.008,+0.215,+0.979,-0.171,-0.473,+4.375,+11.375,-10.875,0, 8, -3, -2, 2, 1, 0, 2,-2.7551284857931844,1.0305378911742706,5
1503604458009,-0.840,-0.499,+0.008,+0.212,+0.938,-0.198,-0.475,+9.750,+4.500,-10.812,19, -3, -4, -2, 5, 1, -2, 0,-2.7606471659358656,1.0331394254390531,5
1503604458024,-0.840,-0.501,+0.007,+0.209,+0.857,-0.176,-0.439,+12.250,+8.125,-9.938,3, 4, -3, -1, 3, -3, -1, -1,-2.7678510576776505,1.038129005167387,5
1503604458047,-0.839,-0.503,+0.006,+0.208,+0.875,-0.224,-0.468,+12.250,+9.125,-4.688,19, 29, 6, 1, -7, 1, 0, 2,-2.771015071203103,1.0426330105666037,5
1503604458069,-0.838,-0.505,+0.005,+0.207,+0.879,-0.251,-0.466,+9.062,+13.250,-4.312,-1, 12, 6, 2, -1, -1, 1, 0,-2.7741934536947137,1.047155860786913,5
1503604458084,-0.838,-0.506,+0.004,+0.206,+0.862,-0.233,-0.455,+4.500,+9.562,-5.250,-4, -15, 1, 0, 4, 0, -2, -4,-2.777481949748341,1.0495670489053535,5
1503604458107,-0.837,-0.507,+0.004,+0.204,+0.822,-0.230,-0.461,+4.312,+9.812,-9.625,-1, 16, 8, 2, -2, 1, 1, -2,-2.7805837982045745,1.0516894732814148,5
1503604458129,-0.837,-0.509,+0.005,+0.202,+0.837,-0.237,-0.445,+0.938,+12.625,-14.062,0, -15, -9, -4, 0, -2, -1, 1,-2.7842527834984616,1.0571939659977578,5
1503604458144,-0.837,-0.510,+0.007,+0.201,+0.858,-0.205,-0.467,-3.062,+6.812,-12.562,-9, 4, 1, 2, -1, -1, -2, -3,-2.7846195076956475,1.0602797784618856,5
1503604458169,-0.837,-0.510,+0.009,+0.199,+0.887,-0.195,-0.413,-6.750,+4.938,-15.250,-2, 30, 21, 2, -1, -1, 0, 1,-2.785866407206561,1.0607186204366508,5
1503604458189,-0.837,-0.511,+0.011,+0.197,+0.916,-0.162,-0.423,-6.438,+2.000,-13.375,-10, -21, -9, -3, 3, 1, -1, -1,-2.787813559084542,1.0638060659802113,5
1503604458205,-0.837,-0.511,+0.013,+0.195,+0.883,-0.141,-0.445,-1.562,+1.188,-14.938,-3, 28, 19, 3, -1, -1, -1, 1,-2.7890568332719976,1.0642545044251037,5
1503604458227,-0.838,-0.511,+0.014,+0.193,+0.876,-0.140,-0.442,+1.688,+0.562,-13.312,-3, -6, 2, -2, 1, -2, 0, -2,-2.7920753617081107,1.0649701774076956,5
1503604458250,-0.838,-0.511,+0.014,+0.191,+0.882,-0.164,-0.446,+3.375,+2.500,-9.062,-5, -20, -5, -2, 1, -1, 2, -2,-2.7952719287804224,1.0649426351194158,5
1503604458264,-0.838,-0.512,+0.014,+0.190,+0.869,-0.173,-0.470,+3.500,+5.375,-6.375,8, 11, -4, 1, -1, -1, -2, 3,-2.7975470825476703,1.0675687118100774,5
1503604458287,-0.838,-0.512,+0.014,+0.189,+0.837,-0.175,-0.447,+2.188,+6.562,-4.750,-3, 26, 9, 4, 0, -2, -2, -3,-2.799147222411594,1.067555011285594,5
1503604458309,-0.838,-0.513,+0.014,+0.188,+0.854,-0.173,-0.461,+1.500,+5.625,-4.250,-1, -3, 3, 2, 0, 0, -1, -1,-2.8014164812871774,1.070182284330337,5
1503604458324,-0.837,-0.514,+0.014,+0.187,+0.880,-0.168,-0.435,+0.250,+7.562,-3.188,-16, -44, -15, -4, 1, 1, -1, 4,-2.8029118615869724,1.0723124607071883,5
1503604458347,-0.837,-0.515,+0.015,+0.187,+0.879,-0.159,-0.428,-0.500,+7.188,-2.625,-8, -28, -12, -4, -1, -2, -2, -5,-2.8025938409202498,1.075189215111146,5
1503604458370,-0.836,-0.516,+0.015,+0.187,+0.904,-0.167,-0.411,-1.688,+6.562,-1.000,-2, -6, 4, 2, -1, -2, 0, -3,-2.802489872350143,1.0773385416774566,5
1503604458384,-0.836,-0.516,+0.015,+0.187,+0.910,-0.169,-0.415,-2.562,+2.250,-0.375,-8, -27, -14, -8, 0, -4, -1, -4,-2.802489872350143,1.0773385416774566,5
1503604458407,-0.836,-0.516,+0.016,+0.187,+0.896,-0.150,-0.419,-2.812,+0.188,+0.438,8, 5, -1, -8, -5, -3, 0, 3,-2.801503646858468,1.0775735206258943,5
1503604458429,-0.836,-0.516,+0.016,+0.187,+0.894,-0.167,-0.420,-1.250,-1.188,+0.625,-1, 54, 16, 3, -3, -1, 1, -2,-2.801503646858468,1.0775735206258943,5
1503604458444,-0.836,-0.516,+0.016,+0.187,+0.883,-0.168,-0.428,-1.938,-2.688,-1.000,15, 32, 0, -4, -3, -3, -7, -6,-2.801503646858468,1.0775735206258943,5
1503604458469,-0.837,-0.515,+0.016,+0.187,+0.872,-0.162,-0.448,-2.750,-4.938,-0.375,-13, -1, -2, 5, 4, 3, -1, -1,-2.8016108100812964,1.0754247486598272,5
1503604458489,-0.837,-0.514,+0.016,+0.187,+0.883,-0.176,-0.443,-3.312,-3.938,-1.312,11, -21, -3, 6, 2, 2, 2, 4,-2.8009455149495315,1.072781945417379,5
1503604458504,-0.837,-0.513,+0.016,+0.187,+0.878,-0.166,-0.442,-3.125,-3.500,-2.250,-6, -3, 8, 4, 0, 1, 0, 3,-2.8002789433821658,1.0701400875092384,5
1503604458527,-0.838,-0.513,+0.017,+0.187,+0.863,-0.165,-0.450,-2.125,-1.312,-3.625,4, -24, -18, -4, -1, -1, -3, -4,-2.8000786024371758,1.0708796603838164,5
1503604458549,-0.838,-0.513,+0.017,+0.186,+0.874,-0.167,-0.438,-1.625,-0.312,-6.500,-4, 13, 8, 0, -3, 0, 3, 1,-2.8016780980065197,1.0708631459530478,5
1503604458564,-0.838,-0.513,+0.018,+0.185,+0.880,-0.153,-0.445,-0.562,+2.250,-6.688,-1, 6, -6, -6, -4, -1, -3, 1,-2.8022989152378006,1.0710885415305509,5
1503604458587,-0.838,-0.513,+0.018,+0.184,+0.882,-0.146,-0.428,-1.750,+3.250,-5.125,2, 3, 3, 0, -15, -3, 0, 0,-2.8039009235406303,1.0710710664184104,5
1503604458609,-0.838,-0.513,+0.019,+0.184,+0.900,-0.145,-0.431,-1.312,+2.062,-2.562,-9, -21, 6, -1, -26, -3, 2, -6,-2.8029200046462615,1.0713154335602646,5
1503604458624,-0.838,-0.514,+0.019,+0.183,+0.896,-0.147,-0.426,-0.125,+0.688,-2.188,8, -7, -14, -2, 2, 0, -3, 4,-2.805173787988267,1.0739348329704137,5
1503604458648,-0.838,-0.514,+0.019,+0.182,+0.879,-0.137,-0.424,+1.125,-0.125,-1.750,30, 24, -10, -6, 6, -3, 2, 11,-2.806775492824092,1.0739164964844923,5
1503604458671,-0.838,-0.513,+0.018,+0.182,+0.876,-0.157,-0.429,+1.312,-1.250,-0.938,-15, 12, -2, -4, -6, -8, -7, -17,-2.8071103481051725,1.0710361128376655,5
1503604458684,-0.839,-0.513,+0.018,+0.182,+0.893,-0.164,-0.434,-0.375,-3.562,-0.938,-12, -6, -5, -1, -4, -2, -2, -4,-2.807876206621153,1.0715337791787776,5
1503604458708,-0.839,-0.512,+0.018,+0.182,+0.889,-0.159,-0.436,-2.688,-3.562,+0.062,3, 8, -5, -3, 0, 3, -5, 16,-2.807230187645724,1.0688975923492676,5
1503604458730,-0.840,-0.511,+0.018,+0.182,+0.878,-0.150,-0.447,-2.438,-5.625,-1.875,6, 2, -2, -2, 34, 1, -3, -8,-2.8073523582665647,1.0667624570390772,5
1503604458745,-0.840,-0.511,+0.019,+0.182,+0.884,-0.147,-0.446,-2.062,-1.812,-3.625,12, 19, -8, 0, 3, 4, -5, -4,-2.8063756452795916,1.0670059336767679,5
1503604458767,-0.840,-0.511,+0.019,+0.181,+0.877,-0.161,-0.438,-2.438,+1.250,-5.375,-1, -28, -11, 2, 13, 3, 1, 2,-2.8079815518052356,1.0669873689364284,5
1503604458795,-0.840,-0.511,+0.020,+0.180,+0.881,-0.155,-0.445,-4.000,-0.375,-6.125,-2, -6, 5, 2, 13, 2, 2, 4,-2.808611019862744,1.0672137588222947,5
1503604458811,-0.840,-0.511,+0.022,+0.180,+0.893,-0.137,-0.441,-5.688,+1.875,-6.000,8, -7, -4, -3, 4, 2, 2, 3,-2.806656549507521,1.0677138887347362,5
1503604458827,-0.841,-0.511,+0.022,+0.179,+0.856,-0.130,-0.449,-2.688,+1.438,-5.500,-15, -11, -4, -2, -8, 2, 0, -10,-2.809031326663359,1.068190276835932,5
1503604458849,-0.840,-0.511,+0.024,+0.178,+0.927,-0.186,-0.386,-6.562,+0.375,-10.062,-15, 4, 0, 0, -8, -11, 1, -15,-2.8079146032681543,1.0681808963503678,5
1503604458864,-0.840,-0.511,+0.026,+0.179,+0.923,-0.103,-0.424,-11.500,+1.062,-0.125,0, -4, 2, 1, 9, 12, 2, -5,-2.8043574303969008,1.068729705571543,5
1503604458887,-0.841,-0.510,+0.027,+0.180,+0.863,-0.120,-0.441,-10.938,-6.250,+1.375,2, 7, -3, -3, -9, 0, -3, -1,-2.801934790461162,1.0668961816240095,5
1503604458909,-0.841,-0.509,+0.028,+0.180,+0.930,-0.088,-0.452,-5.750,-3.938,+0.125,3, 7, 14, 5, 4, 1, 0, 4,-2.800330516199914,1.0645470656068565,5
1503604458924,-0.842,-0.507,+0.027,+0.181,+0.868,-0.143,-0.409,-5.312,-13.062,+5.375,-5, -7, -4, 1, 8, 8, -1, 0,-2.7992201388373186,1.0595596422200582,5
1503604458948,-0.843,-0.505,+0.028,+0.182,+0.899,-0.141,-0.429,-7.500,-18.500,+3.188,-3, -25, 1, -1, -17, -10, 0, -1,-2.7961827770495917,1.0551335310878476,5
1503604458969,-0.845,-0.502,+0.028,+0.185,+0.907,-0.146,-0.432,-13.188,-20.062,+7.625,-4, -21, -10, -3, -6, -6, -3, -2,-2.7910869285449404,1.0483946972394558,5
1503604458991,-0.846,-0.499,+0.029,+0.188,+0.889,-0.130,-0.474,-18.312,-18.938,+15.500,24, 20, 0, 0, 11, 6, -1, 8,-2.784237410707983,1.0414644648060902,5
1503604459008,-0.846,-0.496,+0.029,+0.193,+0.858,-0.117,-0.480,-17.625,-16.250,+20.562,1, -17, -3, 0, 0, 4, 0, -1,-2.77428153579516,1.0338160854072924,5
1503604459029,-0.847,-0.493,+0.029,+0.197,+0.836,-0.150,-0.475,-19.312,-15.875,+22.250,-6, 16, 8, 1, -6, -1, 0, 2,-2.76676661343048,1.0266683765864737,5
1503604459051,-0.847,-0.490,+0.029,+0.202,+0.857,-0.173,-0.479,-19.875,-13.062,+19.125,-4, -2, -6, -2, -9, -7, -5, -1,-2.7567592387881192,1.019053460041516,5
1503604459067,-0.847,-0.489,+0.030,+0.207,+0.896,-0.160,-0.491,-23.375,-6.625,+20.688,-7, -23, -7, -1, -24, -6, 0, -5,-2.7472156366967124,1.0169434512281794,5
1503604459097,-0.847,-0.487,+0.032,+0.211,+0.951,-0.121,-0.502,-24.062,-8.625,+20.312,15, -19, 6, 1, -6, 2, 3, 15,-2.73766422666973,1.0125720948302885,5
1503604459111,-0.847,-0.485,+0.034,+0.215,+0.940,-0.116,-0.496,-19.000,-10.312,+17.062,-1, 10, 5, 0, 12, 1, -6, -19,-2.7281301184391005,1.0082452291344801,5
1503604459127,-0.848,-0.483,+0.034,+0.217,+0.920,-0.145,-0.476,-12.562,-16.250,+10.688,2, -10, -1, 2, 0, -1, 3, 6,-2.724523600764165,1.0036992538633873,5
1503604459151,-0.848,-0.481,+0.034,+0.219,+0.900,-0.163,-0.479,-9.875,-15.750,+3.625,-17, -4, -7, -2, -3, 8, 0, -12,-2.71992686191276,0.9986371515610638,5
1503604459173,-0.849,-0.478,+0.035,+0.220,+0.840,-0.161,-0.496,-10.375,-14.562,+2.812,9, -7, -4, 0, 3, -7, -5, 13,-2.7162764706279026,0.9918724498374967,5
1503604459187,-0.849,-0.478,+0.036,+0.221,+0.878,-0.141,-0.517,-10.062,-2.688,+3.250,2, 13, 3, -1, 10, 3, 0, 5,-2.7138284468640905,0.9922761231423616,5
1503604459209,-0.844,-0.486,+0.035,+0.224,+0.628,-0.257,-0.532,-0.250,+67.438,+18.750,-14, -12, -2, 0, -13, -6, 3, -5,-2.7109300942312724,1.0099398102980672,5
1503604459231,-0.833,-0.504,+0.039,+0.226,+0.819,-0.245,-0.415,-3.125,+125.688,+14.250,-9, -26, -5, 2, 9, 8, 1, -1,-2.7069993856273373,1.0524905053949432,5
1503604459254,-0.821,-0.523,+0.043,+0.226,+0.972,-0.211,-0.391,+1.375,+134.000,+5.750,1, -2, -5, -5, 1, 2, 1, 5,-2.7064912346703176,1.0979516799940452,5
1503604459275,-0.811,-0.538,+0.046,+0.225,+1.040,-0.262,-0.414,+2.750,+99.812,-1.938,2, 8, -1, -2, -14, -7, 4, 5,-2.707638924984398,1.1341784817342078,5
1503604459291,-0.811,-0.539,+0.047,+0.224,+1.117,-0.209,-0.429,-6.188,+7.812,-7.125,-3, 15, 12, 5, 1, -4, -2, -4,-2.708971414636349,1.1371754972110926,5
1503604459309,-0.813,-0.538,+0.047,+0.220,+1.013,-0.186,-0.345,+9.188,-15.438,-19.750,11, 5, 0, 3, 18, -2, 2, 6,-2.7160461148367676,1.135261963250807,5
1503604459329,-0.813,-0.538,+0.045,+0.217,+0.863,-0.240,-0.377,+14.875,+2.250,-17.812,-7, -27, -15, -6, -26, -9, -2, -1,-2.722539081994578,1.1344321733636036,5
1503604459351,-0.812,-0.540,+0.044,+0.215,+0.773,-0.255,-0.439,+11.250,+19.875,-8.938,-12, -10, 1, -1, -1, -10, -7, -10,-2.727225797762444,1.1388994543173163,5
1503604459366,-0.811,-0.543,+0.043,+0.214,+0.802,-0.252,-0.413,+7.812,+24.875,-5.875,5, 7, 2, -1, 3, 3, 3, -3,-2.7312173759642886,1.1461066574318235,5
1503604459389,-0.809,-0.547,+0.043,+0.213,+0.869,-0.177,-0.322,+4.938,+24.312,-6.688,-2, -2, -2, 1, 5, 11, 1, -3,-2.7340978690469377,1.1559149829606514,5
1503604459412,-0.807,-0.550,+0.043,+0.211,+0.884,-0.133,-0.367,+9.812,+19.500,-1.562,5, 8, 3, 0, -19, -14, 2, 8,-2.7377008605850484,1.1630334248017604,5
1503604459425,-0.806,-0.551,+0.040,+0.211,+0.872,-0.172,-0.404,+17.500,+13.438,+5.750,-23, -38, -10, -5, -8, -9, -10, -7,-2.740693668661544,1.1643174809591144,5
1503604459448,-0.806,-0.552,+0.036,+0.211,+0.901,-0.183,-0.385,+19.938,+5.188,+12.438,8, 11, 2, -2, 49, 4, 7, 12,-2.7456212358644487,1.1657775921464757,5
1503604459470,-0.806,-0.553,+0.030,+0.211,+0.908,-0.187,-0.414,+26.875,+1.250,+18.875,16, 6, 2, 1, -31, -21, -7, 8,-2.752639132575273,1.1667343551079963,5
1503604459485,-0.805,-0.553,+0.023,+0.212,+0.921,-0.211,-0.398,+29.875,-3.500,+28.438,-2, 0, 0, -2, 20, 13, 1, -14,-2.757585815799772,1.1644275657634822,5
1503604459516,-0.805,-0.553,+0.015,+0.214,+0.908,-0.241,-0.400,+31.625,-4.812,+35.875,-5, 1, 2, -3, -29, -9, 0, 1,-2.76292750923688,1.1625079880885298,5
1503604459530,-0.805,-0.553,+0.005,+0.216,+0.931,-0.289,-0.390,+33.062,-9.938,+37.812,2, -14, -11, -6, -29, -16, -1, 3,-2.7704066444579247,1.160393040451644,5
1503604459545,-0.804,-0.552,-0.004,+0.219,+0.898,-0.291,-0.372,+32.250,-11.875,+37.938,-5, -4, 0, -1, -43, -1, 1, -7,-2.773723234858735,1.1555521616826718,5
1503604459568,-0.805,-0.550,-0.012,+0.221,+0.882,-0.265,-0.369,+28.875,-21.688,+37.812,-10, -2, -1, -1, 23, 10, -7, 2,-2.778241035958925,1.1492433818374888,5
1503604459590,-0.806,-0.548,-0.021,+0.224,+0.846,-0.264,-0.384,+28.938,-23.875,+38.875,12, 25, -2, -2, 11, 1, -5, 2,-2.7822210037070256,1.1429823991837054,5
1503604459605,-0.806,-0.546,-0.030,+0.226,+0.845,-0.303,-0.391,+30.750,-17.625,+37.125,-8, -4, -2, -2, -8, -7, 1, 1,-2.787001062297069,1.136485282282384,5
1503604459628,-0.806,-0.544,-0.038,+0.229,+0.843,-0.298,-0.393,+28.938,-16.250,+39.562,-11, -42, -13, -2, 5, -1, 1, -2,-2.789108445671306,1.1302318821038575,5
1503604459651,-0.807,-0.542,-0.046,+0.231,+0.872,-0.243,-0.362,+26.312,-22.312,+44.375,2, 17, 0, -3, 5, 0, 2, -3,-2.7934924573990387,1.1246649093153993,5
1503604459666,-0.808,-0.538,-0.054,+0.234,+0.865,-0.242,-0.368,+25.938,-32.000,+44.688,-11, -24, 1, 2, -15, 2, 0, 2,-2.7944585666042197,1.1136024738766428,5
1503604459688,-0.810,-0.533,-0.063,+0.237,+0.820,-0.271,-0.377,+27.125,-36.625,+43.750,42, 45, 6, -4, 3, 1, -3, 3,-2.796192017672449,1.1003724188900579,5
1503604459711,-0.812,-0.528,-0.071,+0.240,+0.781,-0.262,-0.357,+22.625,-44.250,+40.938,1, 4, -1, 4, -2, -4, 2, 1,-2.796712269643836,1.0872834440419412,5
1503604459725,-0.814,-0.522,-0.079,+0.242,+0.808,-0.271,-0.339,+18.625,-47.562,+42.375,-11, 14, 3, 3, 14, 6, 2, 8,-2.7978263411790665,1.07157306531506,5
1503604459752,-0.816,-0.516,-0.086,+0.245,+0.793,-0.315,-0.357,+16.750,-43.250,+40.375,-2, -10, -4, -3, 2, 5, 0, -2,-2.796070508242381,1.055835550998813,5
1503604459770,-0.818,-0.511,-0.092,+0.248,+0.799,-0.328,-0.354,+12.750,-40.062,+38.062,15, 23, 14, 3, 26, -4, 3, 4,-2.79405538218903,1.042925494711615,5
1503604459785,-0.819,-0.506,-0.097,+0.251,+0.804,-0.314,-0.366,+5.438,-37.250,+34.125,2, -20, -4, -1, -9, 5, -3, 3,-2.7901586683376394,1.0294069700085073,5
1503604459814,-0.821,-0.501,-0.100,+0.254,+0.811,-0.289,-0.371,-0.188,-39.375,+29.125,-6, -8, -2, -4, -14, -8, -1, -4,-2.784796881400319,1.01630990442344,5
1503604459830,-0.824,-0.496,-0.102,+0.256,+0.807,-0.291,-0.385,-2.125,-39.188,+23.750,-2, -6, -2, -1, 26, -2, -1, -3,-2.7808018839901054,1.0038580985445398,5
1503604459845,-0.826,-0.491,-0.105,+0.257,+0.777,-0.313,-0.418,+0.500,-36.438,+17.062,6, 3, -2, -2, -2, -5, 2, -2,-2.77875251769131,0.991055713538349,5
1503604459868,-0.828,-0.487,-0.106,+0.257,+0.757,-0.330,-0.424,+1.625,-29.062,+8.688,-2, 3, 1, 1, -11, -9, -3, -18,-2.7773550222583725,0.9810790069214576,5
1503604459891,-0.830,-0.483,-0.107,+0.257,+0.771,-0.334,-0.392,-4.625,-25.812,+5.188,-14, -14, -7, -5, -8, 3, -2, -1,-2.7759701314416168,0.9711403383844488,5
1503604459905,-0.832,-0.481,-0.106,+0.257,+0.783,-0.332,-0.384,-10.812,-21.625,+2.188,-2, 0, -3, 5, -7, -6, -2, -5,-2.774581932163426,0.9666907456715751,5
1503604459928,-0.833,-0.479,-0.104,+0.256,+0.802,-0.311,-0.403,-9.688,-14.312,-3.375,4, -4, -3, -4, -7, 1, -3, 1,-2.773158467141297,0.9617396044954136,5
1503604459955,-0.836,-0.477,-0.105,+0.252,+0.726,-0.624,-0.637,+5.625,-13.375,-29.438,-5, -9, -1, -1, 3, -2, -1, 2,-2.781429542447543,0.9585800628882132,5
1503604459965,-0.834,-0.484,-0.103,+0.245,+0.783,-0.739,-0.360,+5.438,+36.125,-59.312,2, 2, 0, -3, -3, 0, -3, -16,-2.796560985988935,0.9775899851833202,5
1503604459988,-0.837,-0.481,-0.095,+0.241,+0.827,-0.074,-0.392,-22.250,-24.312,-26.812,2, 7, 2, 0, -1, 0, 2, 4,-2.7949569622897594,0.9710728576861541,5
1503604460013,-0.842,-0.476,-0.089,+0.238,+0.671,-0.084,-0.620,-18.562,-19.562,-27.312,9, -1, 0, -2, -1, -1, -1, 4,-2.7935238354430107,0.9604664985716361,5
1503604460026,-0.843,-0.477,-0.088,+0.233,+0.738,-0.512,-0.517,+2.250,+8.188,-35.438,-8, -2, 1, 9, 1, 1, 3, 8,-2.802722332979421,0.964300065083278,5
1503604460056,-0.843,-0.478,-0.083,+0.231,+0.864,-0.399,-0.549,-16.812,+5.750,-23.375,34, 2, -4, -5, 3, -3, -6, -3,-2.802156511831111,0.9671344969572069,5
1503604460091,-0.844,-0.479,-0.078,+0.228,+0.898,-0.253,-0.508,-12.188,+4.500,-25.750,-21, -51, -14, -5, 3, 5, 0, 0,-2.804014601619038,0.9706877728415079,5
1503604460092,-0.845,-0.479,-0.077,+0.226,+0.909,-0.322,-0.506,-2.500,-3.188,-8.562,-6, 14, 6, 9, 10, 3, -2, -3,-2.8071818191511078,0.971451582967162,5
1503604460108,-0.846,-0.477,-0.078,+0.226,+0.845,-0.369,-0.566,+1.750,-14.875,+1.125,-6, 3, 1, -5, -3, 0, 0, -3,-2.807222505954357,0.9666266957887695,5
1503604460130,-0.848,-0.473,-0.079,+0.226,+0.808,-0.345,-0.569,+3.938,-23.375,+4.000,-10, -4, -3, -7, 5, -4, -6, -1,-2.8063479966023497,0.9570036431446948,5
1503604460145,-0.850,-0.468,-0.083,+0.227,+0.734,-0.339,-0.573,+6.562,-27.062,+13.625,-4, 7, 1, 9, 3, 4, 5, 6,-2.8057804647788793,0.944627664615115,5
1503604460168,-0.851,-0.465,-0.086,+0.228,+0.713,-0.360,-0.527,+7.875,-21.688,+16.250,2, 0, -4, -7, -10, -19, 3, 3,-2.8051425786207758,0.937067508061693,5
1503604460190,-0.851,-0.463,-0.089,+0.229,+0.689,-0.405,-0.522,+9.375,-7.312,+8.875,-1, 0, 1, -4, 3, 7, -2, 0,-2.804567477401834,0.9316154134246073,5
1503604460205,-0.851,-0.463,-0.092,+0.229,+0.716,-0.350,-0.492,+9.688,-3.875,+4.625,2, -1, 3, -2, -1, 0, 3, -10,-2.807391048404369,0.9316713288118825,5
1503604460228,-0.852,-0.462,-0.093,+0.227,+0.729,-0.353,-0.506,+9.750,-5.938,-6.312,23, 7, -1, -4, -6, 3, -6, 8,-2.8116937288572816,0.9298389205281091,5
1503604460251,-0.853,-0.462,-0.094,+0.224,+0.747,-0.403,-0.497,+10.438,-7.938,-17.250,31, 0, -2, 1, 2, 2, 1, 4,-2.8185645664591497,0.9308259609161372,5
1503604460265,-0.854,-0.462,-0.094,+0.221,+0.736,-0.399,-0.496,+6.062,-4.938,-18.625,18, 7, -2, -2, -3, 0, -4, 13,-2.8244851609711983,0.9317800899355884,5
1503604460288,-0.855,-0.463,-0.094,+0.217,+0.706,-0.379,-0.499,+5.938,+2.938,-24.625,-7, -5, 0, 2, -2, 1, 0, -1,-2.832935022665827,0.9355364186137791,5
1503604460313,-0.855,-0.464,-0.092,+0.212,+0.739,-0.346,-0.495,+2.000,+6.625,-29.125,3, 0, -3, -5, -3, 2, 2, -8,-2.840552690880106,0.9387116379176175,5
1503604460325,-0.856,-0.465,-0.090,+0.207,+0.814,-0.358,-0.521,+2.688,+3.500,-31.938,16, -6, 1, 1, 3, 4, 0, 23,-2.848800589064284,0.9424476089780744,5
1503604460351,-0.857,-0.466,-0.089,+0.202,+0.818,-0.355,-0.517,+7.625,-2.438,-32.125,6, 3, 0, -2, 0, -4, -4, 10,-2.8579579831556243,0.9462096558852947,5
1503604460370,-0.858,-0.467,-0.088,+0.197,+0.832,-0.329,-0.512,+8.625,-1.625,-27.438,-27, -14, -2, 0, -3, -2, -2, -10,-2.86707568778263,0.9499501882055245,5
1503604460385,-0.858,-0.468,-0.087,+0.193,+0.857,-0.308,-0.532,+11.438,+1.000,-20.938,-24, 20, 3, 0, 0, -1, -1, -50,-2.873836620402366,0.9529890164230393,5
1503604462313,-0.831,-0.536,-0.130,+0.073,+0.903,-0.308,-0.354,-0.812,+12.812,-19.562,16, -1, -2, -3, -10, 0, 2, -3,3.1227252308703,1.1486345261958093,6
1503604462331,-0.831,-0.537,-0.128,+0.071,+0.935,-0.300,-0.340,-1.375,+5.688,-18.938,2, -2, 8, 0, -5, -2, -4, 0,3.1212688910387696,1.150750952148853,6
1503604462350,-0.831,-0.538,-0.126,+0.068,+0.916,-0.282,-0.310,-2.625,-2.375,-20.875,-4, -3, -3, -2, -7, -6, -2, -15,3.1180972227692934,1.152978319741457,6
1503604462373,-0.831,-0.538,-0.124,+0.065,+0.896,-0.271,-0.321,-3.875,-0.188,-21.438,-4, -9, -6, -4, -15, -5, -8, -22,3.1151470126342415,1.15245618705862,6
1503604462390,-0.831,-0.539,-0.122,+0.062,+0.904,-0.281,-0.350,-4.500,+3.438,-21.062,-7, -2, 1, 0, 10, 1, -3, -13,3.1120096576308955,1.1546863105714353,6
1503604462413,-0.831,-0.540,-0.119,+0.060,+0.908,-0.252,-0.345,-4.875,+6.562,-19.812,5, 2, 8, 8, 0, 1, 2, 4,3.111735985533511,1.156412776619697,6
1503604462433,-0.831,-0.541,-0.117,+0.058,+0.924,-0.234,-0.318,-3.750,+1.812,-16.625,1, 7, -3, -4, -19, -4, -3, 5,3.1103576008786007,1.1585535398203033,6
1503604462449,-0.830,-0.542,-0.115,+0.056,+0.976,-0.229,-0.319,-5.500,+2.750,-12.875,31, 0, -4, -4, -3, -3, 0, 25,3.108765870810729,1.1602523735459624,6
1503604462470,-0.830,-0.544,-0.113,+0.055,+0.937,-0.216,-0.343,-4.875,+9.312,-9.562,-3, 2, -8, -1, 1, 3, 1, -4,3.1089705154020475,1.1650511180858616,6
1503604462493,-0.830,-0.544,-0.112,+0.054,+0.934,-0.219,-0.382,-1.562,+0.875,-5.062,-8, -2, -4, 2, 5, 2, 2, 9,3.1083812641525594,1.1647607133453532,6
1503604462510,-0.831,-0.543,-0.112,+0.053,+0.906,-0.236,-0.373,-2.188,-8.250,-4.000,-5, -1, 1, -2, 2, 1, -1, -5,3.1070521020384816,1.162559942842832,6
1503604462530,-0.831,-0.542,-0.111,+0.053,+0.889,-0.243,-0.324,-3.000,-5.000,-3.312,-4, -1, -3, -3, -1, -1, 0, -16,3.108323562482538,1.1594476686212938,6
1503604462553,-0.831,-0.543,-0.111,+0.054,+0.920,-0.241,-0.338,-4.875,+6.750,+0.312,-4, -6, 3, -2, -3, -2, -3, 16,3.109879591844292,1.1620906541754492,6
1503604462569,-0.830,-0.544,-0.110,+0.054,+0.916,-0.229,-0.338,-3.938,+4.938,-1.938,-30, 5, 17, 5, 2, 0, 0, -10,3.1106230108550417,1.1640079010955955,6
1503604462592,-0.831,-0.543,-0.109,+0.053,+0.892,-0.227,-0.343,-1.500,-3.375,-6.375,-9, -32, -14, -7, 0, -1, -2, 7,3.110404401480712,1.1614367522102815,6
1503604462620,-0.831,-0.543,-0.109,+0.051,+0.897,-0.240,-0.343,-0.875,-4.375,-7.438,6, 14, 4, 3, -2, 0, 1, -1,3.1069841995073686,1.1616153710016632,6
1503604462636,-0.831,-0.543,-0.108,+0.051,+0.900,-0.243,-0.333,-2.438,+0.750,-7.125,6, -1, -2, 4, 0, -1, 1, 2,3.1081015449249785,1.1612474110008513,6
1503604462651,-0.831,-0.544,-0.107,+0.050,+0.919,-0.238,-0.335,-4.125,+3.438,-6.188,2, -1, -5, -5, -1, -1, 0, 0,3.107365321281817,1.163701211842317,6
1503604462673,-0.831,-0.544,-0.106,+0.049,+0.913,-0.217,-0.333,-3.625,+0.875,-7.562,11, 0, -4, -1, 0, -2, -1, -8,3.1067760923841448,1.1634262462161167,6
1503604462691,-0.831,-0.544,-0.105,+0.048,+0.920,-0.209,-0.350,-2.125,-2.938,-8.812,10, 18, 8, 5, -7, -5, -2, 4,3.1061868876712224,1.1631536801339595,6
1503604462711,-0.832,-0.544,-0.104,+0.047,+0.911,-0.228,-0.367,-2.625,-0.500,-5.938,8, -6, -8, -3, 6, 0, -1, 0,3.1058163814992787,1.1633260440820405,6
1503604462734,-0.831,-0.544,-0.103,+0.047,+0.901,-0.215,-0.334,-4.312,+2.625,-5.625,2, 1, -3, -8, -12, -1, 0, 4,3.106714501902422,1.1625318102149564,6
1503604462749,-0.831,-0.544,-0.102,+0.046,+0.942,-0.206,-0.346,-4.125,+1.500,-4.562,-14, -9, -8, -2, 0, -1, -1, -3,3.1061252997410533,1.1622671977732915,6
1503604462771,-0.832,-0.544,-0.101,+0.046,+0.914,-0.209,-0.353,-3.688,+0.312,-5.250,1, 6, -6, 0, 3, 4, -1, 2,3.107453186188331,1.1623657183290534,6
1503604462793,-0.832,-0.544,-0.100,+0.045,+0.904,-0.199,-0.349,-2.500,-3.875,-5.375,-8, -14, -8, -3, -2, 1, -1, -8,3.1068639149599506,1.1621067105605807,6
1503604462809,-0.832,-0.544,-0.100,+0.044,+0.886,-0.212,-0.344,-3.250,-1.500,-5.125,-14, -4, -1, 4, 5, 1, -2, -2,3.1051617128266855,1.162188076921383,6
1503604462831,-0.832,-0.544,-0.099,+0.044,+0.894,-0.203,-0.347,-1.938,+2.750,-6.750,6, -27, -6, -10, -7, 0, 0, 13,3.106274667858736,1.1618500579261766,6
1503604462853,-0.832,-0.544,-0.098,+0.043,+0.907,-0.209,-0.353,-2.625,+3.938,-6.938,-12, -10, -2, 1, -6, -2, 1, -3,3.105685445292366,1.1615957532622891,6
1503604462869,-0.832,-0.545,-0.097,+0.042,+0.924,-0.195,-0.349,-1.125,+1.750,-8.250,-4, 5, 0, 0, -2, -4, 0, 3,3.1049794128708803,1.164062481116106,6
1503604462892,-0.832,-0.545,-0.096,+0.041,+0.914,-0.207,-0.341,-1.250,+1.750,-7.688,15, 16, 1, 2, -2, 0, -2, -1,3.1043935981693282,1.163811891185971,6
1503604462913,-0.832,-0.546,-0.096,+0.040,+0.928,-0.208,-0.325,-2.625,+0.438,-7.188,-7, -5, -2, -4, 16, 11, 1, 8,3.1025864660776574,1.1666067597291139,6
1503604462931,-0.832,-0.546,-0.095,+0.039,+0.922,-0.194,-0.331,-2.750,+1.625,-6.938,-1, 3, -6, -5, -9, -4, -3, 5,3.102004097610599,1.1663567787099383,6
1503604462951,-0.831,-0.547,-0.093,+0.038,+0.934,-0.178,-0.329,-4.062,+1.438,-8.438,7, 14, 15, 5, 4, 3, -1, -11,3.1022210503316945,1.1680673366115841,6
1503604462973,-0.832,-0.547,-0.093,+0.037,+0.941,-0.181,-0.347,-3.562,-1.125,-5.188,1, -16, -1, -2, 12, 7, -1, 3,3.1007410529212405,1.1685783759923192,6
1503604462992,-0.832,-0.546,-0.092,+0.037,+0.951,-0.189,-0.338,-3.125,-1.188,+0.250,-7, 9, 1, 0, -1, -4, -2, -5,3.1019511563489734,1.1655469709702801,6
1503604463011,-0.831,-0.547,-0.092,+0.038,+0.948,-0.186,-0.335,-4.875,+1.125,+3.688,-1, 3, 1, -2, -2, 0, -1, -5,3.103336219260051,1.1677506141494483,6
1503604463035,-0.831,-0.547,-0.092,+0.039,+0.924,-0.184,-0.335,-6.500,-0.188,+5.500,49, 10, 0, 0, -8, -7, -4, -9,3.1050305602723154,1.167677012757524,6
1503604463050,-0.832,-0.546,-0.091,+0.040,+0.915,-0.185,-0.335,-7.312,-2.250,+4.062,5, 2, 5, 2, -2, -10, -3, 6,3.108146713784179,1.165014368699447,6
1503604463078,-0.832,-0.546,-0.090,+0.041,+0.946,-0.183,-0.315,-8.250,-3.000,+2.188,5, 0, -6, 5, 26, 3, 1, -2,3.1109541224759396,1.164635074201905,6
1503604463093,-0.832,-0.546,-0.090,+0.042,+0.958,-0.179,-0.342,-7.125,-0.812,+4.562,-18, 2, -2, -7, -11, -2, -2, 0,3.1126493984498285,1.164562567081731,6
1503604463109,-0.832,-0.545,-0.089,+0.043,+0.952,-0.169,-0.340,-6.188,-6.000,+6.312,1, 17, 21, 4, -2, 0, 4, 14,3.1155810949526166,1.1614734353481955,6
1503604463132,-0.833,-0.544,-0.089,+0.045,+0.925,-0.186,-0.352,-6.625,-6.062,+8.750,-7, -9, -3, -4, -25, -1, 2, -3,3.1192802237214017,1.1590566133634217,6
1503604463153,-0.834,-0.543,-0.089,+0.047,+0.932,-0.185,-0.347,-7.625,-6.125,+10.000,2, 6, -4, -7, -1, 5, 2, 6,3.122979577176207,1.1566419713930136,6
1503604463176,-0.834,-0.542,-0.089,+0.049,+0.920,-0.198,-0.374,-7.438,-6.438,+12.438,11, -4, -18, -11, -12, -7, -7, -4,3.126527987698113,1.153781594692038,6
1503604463195,-0.835,-0.541,-0.090,+0.051,+0.897,-0.197,-0.354,-8.562,-5.875,+13.312,4, 25, 38, 10, 1, 2, 1, 13,3.129131724324595,1.151661224775081,6
1503604463213,-0.835,-0.540,-0.090,+0.054,+0.912,-0.204,-0.366,-7.875,-3.625,+16.562,1, -11, -12, 0, 5, 4, -2, -20,3.134412293179771,1.1487219967179403,6
1503604463231,-0.835,-0.539,-0.091,+0.057,+0.934,-0.201,-0.360,-7.625,-1.812,+19.938,-2, -7, -2, 0, -12, -14, -4, 3,3.138611602606439,1.1460692837460305,6
1503604463251,-0.835,-0.539,-0.092,+0.061,+0.913,-0.191,-0.362,-6.688,-2.125,+23.000,-17, -9, -9, 2, 2, 1, -1, -8,-3.1388309772756053,1.146052084032618,6
1503604463273,-0.836,-0.537,-0.093,+0.064,+0.905,-0.201,-0.375,-5.688,-5.812,+23.250,-3, -1, -2, 1, 34, 4, 1, -6,-3.1342805410867145,1.1411282617575589,6
1503604463289,-0.836,-0.536,-0.095,+0.068,+0.901,-0.215,-0.363,-5.375,-5.562,+21.312,-7, -4, 2, -6, -14, 1, -2, -2,-3.1294005437452355,1.1386741899228323,6
1503604463311,-0.837,-0.535,-0.096,+0.070,+0.861,-0.220,-0.373,-3.312,-6.875,+19.375,0, -4, -1, 3, -3, -4, 2, 3,-3.126741467157679,1.1365473818848268,6
1503604463333,-0.837,-0.533,-0.098,+0.073,+0.850,-0.233,-0.372,-1.812,-5.312,+15.312,2, -2, -5, -4, -2, -4, -3, -13,-3.1232993191649907,1.131449415182447,6
1503604463349,-0.837,-0.533,-0.099,+0.075,+0.863,-0.250,-0.377,-2.125,-1.125,+13.125,-10, -12, -10, -6, -6, -3, -5, -13,-3.120945975165578,1.13157943624399,6
1503604463371,-0.837,-0.533,-0.100,+0.077,+0.891,-0.260,-0.378,-2.250,+4.562,+13.000,-17, -27, -15, -4, 7, 3, -1, -2,-3.1185928598680412,1.1317098607062746,6
1503604463396,-0.836,-0.533,-0.101,+0.079,+0.913,-0.263,-0.363,-3.812,+2.562,+14.188,-4, -4, -2, 2, -2, -2, 1, 5,-3.1163156796675753,1.1313722344544341,6
1503604463409,-0.836,-0.533,-0.102,+0.081,+0.939,-0.247,-0.343,-3.625,-2.062,+13.688,-14, 24, 9, 0, 0, 4, -2, -1,-3.1139590795805314,1.131503278114034,6
1503604463431,-0.837,-0.532,-0.102,+0.083,+0.916,-0.249,-0.347,-3.562,-8.875,+11.062,-12, -7, -6, 0, 6, 1, 0, 7,-3.110157147844917,1.1290613593831327,6
1503604463453,-0.837,-0.530,-0.103,+0.084,+0.897,-0.258,-0.357,-3.375,-10.812,+12.812,19, 12, 9, 8, -5, -3, 3, 2,-3.108958320506289,1.123816205450182,6
1503604463470,-0.838,-0.529,-0.104,+0.087,+0.877,-0.253,-0.372,-4.500,-7.000,+14.375,-10, -21, -7, -7, 10, 2, 1, 4,-3.1045000360597688,1.1215912683470823,6
1503604463491,-0.838,-0.528,-0.105,+0.089,+0.851,-0.245,-0.379,-3.938,-3.000,+13.312,7, 2, 6, 2, 11, 1, -1, 5,-3.101819697680332,1.1189808085386113,6
1503604463513,-0.839,-0.527,-0.105,+0.090,+0.847,-0.257,-0.384,-2.375,-6.250,+8.688,14, -4, -4, -7, 16, 2, -8, 4,-3.099729862962157,1.1166324635796396,6
1503604463531,-0.840,-0.525,-0.106,+0.090,+0.844,-0.274,-0.389,-2.250,-10.938,+2.375,0, 20, 9, -1, -15, 2, 5, -5,-3.1001596800407376,1.111964401638264,6
1503604463551,-0.841,-0.523,-0.106,+0.090,+0.819,-0.300,-0.398,-3.000,-10.750,-2.562,-7, -6, -5, -4, -40, -15, 0, -5,-3.099496948262452,1.106993490396493,6
1503604463573,-0.842,-0.522,-0.105,+0.090,+0.805,-0.309,-0.377,-6.625,-4.625,-5.562,-5, -3, 0, -3, -33, -7, -2, -9,-3.0980640604599277,1.1044477261633163,6
1503604463589,-0.841,-0.524,-0.103,+0.090,+0.880,-0.293,-0.360,-11.625,+8.938,-6.438,3, 5, 1, -3, 10, 1, -1, 8,-3.0965516732763945,1.1088041810321767,6
1503604463611,-0.839,-0.526,-0.101,+0.091,+0.953,-0.292,-0.351,-12.250,+14.062,-3.500,-5, -7, 1, 1, 16, 5, -2, 8,-3.0933090593125296,1.1126036192326683,6
1503604463634,-0.839,-0.527,-0.100,+0.092,+0.958,-0.269,-0.359,-12.000,+3.125,-2.125,-8, -2, -2, -2, -2, -4, -1, -12,-3.0907944951786703,1.1149496905301814,6
1503604463649,-0.840,-0.526,-0.098,+0.092,+0.900,-0.229,-0.388,-11.875,-7.812,-2.688,-13, -11, -7, 1, 32, 11, -1, -3,-3.088287857712872,1.1121367805745666,6
1503604463672,-0.841,-0.524,-0.096,+0.092,+0.895,-0.218,-0.382,-10.938,-11.062,-0.812,-10, -15, -4, 1, 17, -6, 0, -2,-3.085477286896985,1.106626453064445,6
1503604463696,-0.842,-0.524,-0.095,+0.093,+0.933,-0.230,-0.406,-9.062,-3.188,+5.438,36, 20, 24, 8, -4, 1, -1, 0,-3.08266686482285,1.1067556160564807,6
1503604463709,-0.842,-0.523,-0.095,+0.096,+0.938,-0.241,-0.414,-9.375,-1.938,+12.938,-29, -9, -9, -1, -11, -3, -4, -8,-3.0771277971149096,1.1037726108810073,6
1503604463733,-0.842,-0.521,-0.095,+0.099,+0.878,-0.224,-0.431,-8.750,-5.500,+16.625,8, 3, -3, -3, -16, -16, -1, 0,-3.0712206081827014,1.0980671485456266,6
1503604463753,-0.843,-0.519,-0.095,+0.101,+0.846,-0.225,-0.421,-4.875,-9.750,+13.938,7, -1, -4, 0, 10, 6, 1, 10,-3.06706997330961,1.0929440151167182,6
1503604463771,-0.844,-0.517,-0.096,+0.102,+0.851,-0.277,-0.404,-4.000,-14.938,+10.938,-2, -4, -5, -5, -64, -12, -1, -1,-3.0657291454586564,1.0881709972210472,6
1503604463791,-0.845,-0.516,-0.097,+0.104,+0.887,-0.303,-0.390,-7.875,-6.750,+11.438,-8, -4, -1, 1, -11, -10, 0, 1,-3.0629926922823048,1.0860237980263405,6
1503604463813,-0.844,-0.516,-0.096,+0.108,+0.895,-0.290,-0.379,-14.500,+3.312,+17.562,3, -9, -5, 1, 0, 3, 3, 5,-3.054855757544705,1.084897087729934,6
1503604463831,-0.843,-0.517,-0.096,+0.112,+0.886,-0.305,-0.346,-15.188,+3.688,+19.500,-15, -17, -21, -14, 9, 7, -2, -1,-3.048162928607169,1.0867436531109436,6
1503604463851,-0.844,-0.516,-0.095,+0.115,+0.867,-0.266,-0.340,-16.625,-8.062,+11.812,-33, 0, 2, 9, 19, 2, -3, -7,-3.0415499806442434,1.0840040177566237,6
1503604463873,-0.845,-0.513,-0.093,+0.116,+0.827,-0.230,-0.404,-16.500,-13.375,+2.000,-14, 13, -4, -2, 14, 4, -2, -18,-3.036549799196418,1.0757993115728133,6
1503604463889,-0.846,-0.512,-0.092,+0.118,+0.782,-0.292,-0.444,-14.938,-1.312,+1.312,13, -5, 5, 0, 15, 2, 0, 1,-3.0317035562231305,1.0731873451780756,6
1503604463911,-0.845,-0.513,-0.090,+0.121,+0.853,-0.314,-0.430,-16.188,+9.125,+7.500,13, 10, 9, 9, 3, 1, 1, 1,-3.02461923725325,1.0746931120601315,6
1503604463933,-0.844,-0.514,-0.089,+0.124,+0.940,-0.302,-0.401,-19.438,+5.438,+11.812,4, 12, 8, 11, 25, 0, -1, -12,-3.0185943553918007,1.0764292262214241,6
1503604463949,-0.845,-0.512,-0.087,+0.127,+0.907,-0.300,-0.392,-21.938,-10.875,+9.062,-14, -11, -4, -10, -5, -1, 1, 2,-3.010523355467373,1.070849693869277,6
1503604463973,-0.847,-0.508,-0.085,+0.129,+0.818,-0.265,-0.403,-21.688,-20.438,+3.312,14, 9, 7, -5, 6, 4, -1, 5,-3.003493607705732,1.0604953133776809,6
1503604463993,-0.849,-0.506,-0.082,+0.131,+0.794,-0.269,-0.395,-24.875,-16.688,-1.812,-1, -3, -5, -4, -8, -2, -1, 3,-2.9963935666657155,1.0554451668678329,6
1503604464009,-0.850,-0.504,-0.078,+0.132,+0.797,-0.282,-0.375,-29.562,-11.875,-6.375,15, 7, 2, -5, 1, 7, -1, 11,-2.9898088740437183,1.0498788765211056,6
1503604464032,-0.851,-0.502,-0.073,+0.133,+0.825,-0.276,-0.382,-32.875,-7.625,-15.750,-2, -18, -11, -8, -4, 0, -1, -5,-2.9822327147840357,1.0442791354585443,6
1503604464053,-0.852,-0.502,-0.066,+0.133,+0.846,-0.259,-0.426,-34.688,+1.875,-19.250,-3, -5, -2, 0, -3, 0, 0, 0,-2.9753597164210404,1.0440292492867735,6
1503604464069,-0.853,-0.501,-0.060,+0.133,+0.871,-0.261,-0.439,-34.562,-5.375,-17.250,1, -2, 3, 5, 3, 0, 2, 3,-2.9690926230640637,1.0413623778291914,6
1503604464093,-0.855,-0.498,-0.054,+0.134,+0.917,-0.246,-0.429,-37.688,-18.438,-15.438,-5, 2, 2, 2, -3, -1, -1, -3,-2.960563693911764,1.0339901783571128,6
1503604464113,-0.857,-0.495,-0.047,+0.135,+0.942,-0.212,-0.405,-41.250,-24.250,-16.062,-2, 5, 2, 0, 29, 1, 0, -9,-2.9511549700495308,1.0267879152118444,6
1503604464132,-0.860,-0.490,-0.041,+0.135,+0.883,-0.155,-0.486,-37.250,-26.750,-14.062,6, -2, 4, 10, -8, 1, 1, -5,-2.944056785624209,1.0151361445889502,6
1503604464151,-0.863,-0.485,-0.036,+0.136,+0.794,-0.123,-0.551,-29.562,-22.812,-8.438,-4, -5, -1, -8, -8, -1, 1, 12,-2.936378471506952,1.0036517589732379,6
1503604464174,-0.865,-0.481,-0.032,+0.137,+0.812,-0.132,-0.530,-27.125,-19.438,-3.250,-5, 3, -3, -3, -3, -2, 0, 7,-2.929812487632992,0.9943829422241247,6
1503604464195,-0.867,-0.479,-0.028,+0.139,+0.838,-0.160,-0.518,-26.062,-13.438,-1.688,8, -5, 4, 5, -2, -2, 0, 0,-2.922560841311511,0.9903915909704041,6
1503604464211,-0.868,-0.476,-0.025,+0.140,+0.827,-0.152,-0.524,-23.438,-9.062,-2.500,-5, -4, -12, -7, -7, 0, -1, -1,-2.917068168856149,0.9833228559274262,6
1503604464233,-0.869,-0.474,-0.021,+0.141,+0.792,-0.133,-0.556,-19.000,-7.938,-5.250,24, 9, 0, 0, -3, -2, -3, -11,-2.91114944273372,0.9789892857902848,6
1503604464249,-0.870,-0.472,-0.019,+0.140,+0.813,-0.151,-0.548,-15.250,-10.250,-9.062,-6, 0, -4, -1, -2, -3, -4, -5,-2.9105707759623143,0.9745780050825403,6
1503604464271,-0.871,-0.470,-0.016,+0.140,+0.852,-0.173,-0.521,-16.500,-9.125,-10.688,-5, -1, 0, -2, -2, -2, -2, -3,-2.9073688508415962,0.9702755331458794,6
1503604464293,-0.872,-0.469,-0.013,+0.140,+0.865,-0.167,-0.501,-18.688,-7.812,-9.375,-3, -5, -2, -3, 0, 1, 2, 4,-2.9046698179961146,0.9685827849520808,6
1503604466993,-0.865,-0.442,-0.218,+0.090,+0.748,-0.456,-0.458,-12.938,-0.688,+7.812,4, 2, 3, -2, 3, -1, -2, -7,3.0998980333631954,0.9541462217951706,7
1503604467015,-0.865,-0.443,-0.217,+0.094,+0.742,-0.483,-0.479,-16.062,+7.562,+12.375,13, 6, 5, 1, -1, 2, 2, 13,3.1082599714788053,0.9550855236925805,7
1503604467031,-0.865,-0.443,-0.215,+0.097,+0.762,-0.435,-0.463,-17.562,+9.125,+12.062,0, -6, -11, -8, -7, 2, -1, -9,3.11608488384346,0.9529050938717044,7
1503604467056,-0.865,-0.443,-0.213,+0.099,+0.766,-0.420,-0.473,-14.750,+2.125,+9.312,14, -6, -5, 0, 0, 0, 0, 18,3.1219674787486387,0.9510344715203989,7
1503604467076,-0.865,-0.443,-0.212,+0.102,+0.700,-0.451,-0.471,-15.750,+0.688,+9.500,5, 3, -5, 1, -4, -2, -3, -2,3.128800702079474,0.9495549540106651,7
1503604467091,-0.865,-0.443,-0.211,+0.105,+0.674,-0.490,-0.465,-18.438,+12.625,+10.500,4, 1, 0, 3, 1, 0, 2, 16,3.135635120253443,0.948085704868536,7
1503604467114,-0.863,-0.446,-0.209,+0.111,+0.661,-0.483,-0.488,-22.250,+29.375,+15.375,-26, -5, 6, -1, -5, -2, -3, 7,-3.1357800366322826,0.9522944590331712,7
1503604467135,-0.861,-0.452,-0.205,+0.116,+0.678,-0.438,-0.525,-22.688,+50.062,+12.062,12, -3, -4, -4, -2, -1, 2, 13,-3.125401081326288,0.9639442810962864,7
1503604467151,-0.858,-0.457,-0.202,+0.119,+0.759,-0.398,-0.526,-15.438,+44.250,+1.812,11, -6, -5, -7, -3, 0, -2, -11,-3.1196013363368498,0.9735067956708894,7
1503604467172,-0.856,-0.461,-0.199,+0.118,+0.779,-0.411,-0.476,-3.625,+26.938,-8.750,-17, -5, -2, -2, -2, -3, -4, 4,-3.12077846891853,0.9819448322920099,7
1503604467195,-0.856,-0.464,-0.198,+0.116,+0.746,-0.426,-0.489,+3.125,+16.438,-16.562,7, -2, -2, -3, -3, 1, 2, -7,-3.1250239249382226,0.9901880140321686,7
1503604467211,-0.854,-0.467,-0.197,+0.114,+0.719,-0.418,-0.494,+5.375,+23.250,-16.875,15, -6, -2, 2, 0, -2, -1, 6,-3.1296197341525747,0.9972879919597075,7
1503604467232,-0.851,-0.474,-0.196,+0.114,+0.729,-0.426,-0.468,+4.562,+45.000,-11.062,2, -1, 4, 1, -1, 0, -1, 9,-3.132436726351634,1.0145325880757323,7
1503604467256,-0.846,-0.483,-0.196,+0.113,+0.797,-0.430,-0.433,+10.000,+58.062,-11.000,-1, 2, -3, 2, 0, -1, 2, 9,-3.139521410129065,1.037229371012039,7
1503604467271,-0.842,-0.490,-0.195,+0.110,+0.905,-0.395,-0.409,+17.812,+42.438,-15.125,-1, 10, 2, 5, 1, -1, 1, -15,3.135068063725285,1.054793294979427,7
1503604467293,-0.841,-0.493,-0.196,+0.105,+0.920,-0.412,-0.391,+21.812,+9.500,-20.500,-13, -4, 0, -1, 1, 0, 0, 5,3.1231127554591165,1.0644199650276216,7
1503604467315,-0.841,-0.493,-0.198,+0.100,+0.807,-0.436,-0.389,+23.000,-6.438,-20.938,5, -3, -1, 1, 0, -2, -1, -11,3.1115925524874952,1.0667873945069497,7
1503604467331,-0.840,-0.495,-0.200,+0.096,+0.738,-0.427,-0.395,+20.688,+7.938,-12.875,7, 19, 3, -1, 1, 0, 1, 0,3.100871764269126,1.0740812012654706,7
1503604467353,-0.838,-0.499,-0.202,+0.095,+0.809,-0.411,-0.428,+19.375,+26.938,-6.875,-28, -12, -7, -1, -1, 1, -5, -13,3.0946725784573705,1.0859068270350443,7
1503604467375,-0.835,-0.503,-0.204,+0.092,+0.849,-0.383,-0.411,+23.375,+28.250,-5.188,-12, -5, -1, -1, -2, 0, -2, -26,3.084369427655571,1.0977100841288379,7
1503604467392,-0.833,-0.506,-0.206,+0.088,+0.831,-0.375,-0.427,+32.000,+12.438,-13.000,16, 0, -3, -1, -2, -2, 2, 30,3.0729514249220413,1.10746014292099,7
1503604467415,-0.833,-0.506,-0.210,+0.081,+0.789,-0.415,-0.362,+35.438,-1.938,-23.750,11, 1, -1, -1, 0, 0, -3, 9,3.055597563600136,1.1118669730949116,7
1503604467435,-0.832,-0.507,-0.213,+0.075,+0.871,-0.491,-0.309,+31.938,-10.500,-26.438,-6, -2, 5, 4, 1, -2, -3, -13,3.040461567024785,1.117735077216106,7
1503604467458,-0.831,-0.509,-0.215,+0.069,+0.914,-0.503,-0.271,+21.438,-1.062,-22.438,13, 2, 0, 0, 0, -1, -3, -10,3.026245886191564,1.125698848846293,7
1503604467473,-0.829,-0.511,-0.216,+0.066,+0.847,-0.439,-0.269,+12.125,+8.438,-15.625,12, -1, -1, 1, 1, 0, 4, 4,3.018079375022826,1.1317908672001804,7
1503604467495,-0.827,-0.515,-0.216,+0.065,+0.846,-0.417,-0.294,+8.312,+17.188,-9.812,-13, -2, -4, -3, -3, -1, -1, 0,3.0142996145062115,1.1423439774839144,7
1503604467511,-0.826,-0.518,-0.216,+0.063,+0.856,-0.404,-0.313,+8.312,+16.000,-10.938,-16, 1, 4, -1, 0, 3, 2, 4,3.009542669508729,1.1507503262456509,7
1503604467533,-0.826,-0.518,-0.216,+0.059,+0.903,-0.404,-0.283,+8.625,-7.125,-16.750,11, -6, -5, 1, 1, -1, -1, 12,3.0023443532321807,1.1515255733570304,7
1503604467555,-0.827,-0.517,-0.215,+0.055,+0.856,-0.425,-0.285,+6.062,-16.250,-20.562,16, 0, 0, -2, -2, -2, -3, -1,2.9970679732141448,1.1491318262764705,7
1503604467571,-0.827,-0.517,-0.215,+0.053,+0.828,-0.437,-0.296,+1.938,-0.188,-14.188,-2, -2, -1, -2, -2, 0, 2, 4,2.9934802629286272,1.1495177387976443,7
1503604467593,-0.825,-0.520,-0.215,+0.053,+0.867,-0.431,-0.310,-3.188,+15.312,-3.938,-14, -2, -3, -3, -3, -4, -1, -8,2.991789399875508,1.157034399793515,7
1503604467617,-0.824,-0.522,-0.214,+0.053,+0.868,-0.377,-0.336,-2.375,+13.938,-1.625,2, -1, -4, -2, -2, -4, -3, -6,2.9920160616049967,1.161393922668263,7
1503604467637,-0.825,-0.522,-0.212,+0.052,+0.847,-0.374,-0.312,-2.625,-2.812,-12.500,-11, -2, 0, -1, -1, 1, 1, -3,2.993139488881657,1.1604166581046023,7
1503604467653,-0.826,-0.521,-0.211,+0.048,+0.863,-0.412,-0.314,-0.688,-14.625,-20.125,-5, 0, -3, -1, 3, 1, 3, -11,2.9879091946049323,1.15800120041463,7
1503604467675,-0.826,-0.521,-0.209,+0.046,+0.852,-0.414,-0.319,-1.875,-3.250,-17.625,7, 1, -1, 2, -1, 0, 0, 9,2.98659651677259,1.1567755914657791,7
1503604467697,-0.826,-0.522,-0.208,+0.045,+0.875,-0.408,-0.335,-4.500,+8.938,-6.875,-3, 6, 10, 0, -2, -1, -2, -3,2.985845241925203,1.1589645816376921,7
1503604467713,-0.825,-0.524,-0.207,+0.045,+0.869,-0.348,-0.313,-6.125,+7.250,-4.812,2, -7, -1, -3, -4, -1, -4, -29,2.986128785027419,1.1633194843348729,7
1503604467735,-0.825,-0.524,-0.205,+0.044,+0.858,-0.348,-0.319,-4.625,+1.250,-11.062,3, 7, 25, 4, 4, 1, -1, 13,2.986606969141134,1.1619329199314792,7
1503604467751,-0.826,-0.524,-0.203,+0.041,+0.864,-0.374,-0.330,-1.688,-3.750,-17.438,6, -11, -16, -5, 2, -1, 1, 1,2.984197538606922,1.1613639049110114,7
1503604467773,-0.826,-0.524,-0.202,+0.039,+0.897,-0.373,-0.340,+1.062,-3.625,-14.938,-12, 11, 1, 1, -2, -1, -3, -4,2.9817900559420774,1.1609443745051624,7
1503604467795,-0.827,-0.524,-0.201,+0.036,+0.879,-0.358,-0.332,+1.750,-2.000,-13.125,-1, -6, -6, -1, -1, -1, -3, 9,2.9782811753639225,1.161148867179311,7
1503604467811,-0.827,-0.525,-0.200,+0.033,+0.860,-0.321,-0.342,+5.688,-0.812,-16.188,4, 0, -3, 3, -3, -2, 1, -2,2.974080692387435,1.1636767760523214,7
1503604467833,-0.827,-0.525,-0.200,+0.029,+0.871,-0.349,-0.351,+8.000,-6.438,-23.812,-3, -2, -7, -1, 0, 0, -1, -4,2.9670908977905963,1.1643560093339818,7
1503604467855,-0.828,-0.524,-0.198,+0.025,+0.874,-0.361,-0.353,+6.438,-9.562,-23.812,5, 8, 4, 0, 4, -1, -1, -1,2.9630299288160193,1.161194251553633,7
1503604467877,-0.828,-0.524,-0.198,+0.021,+0.899,-0.353,-0.318,+6.750,-6.250,-22.062,-5, -7, -3, 1, -3, -2, 0, 0,2.956068363873252,1.1618677301986595,7
1503604467893,-0.828,-0.524,-0.198,+0.017,+0.917,-0.362,-0.314,+7.250,-1.625,-15.938,9, 3, 4, 0, -4, -1, -1, 7,2.9491249426896067,1.1625391220332708,7
1503604467917,-0.828,-0.524,-0.197,+0.015,+0.902,-0.331,-0.311,+5.938,-5.250,-13.438,5, 11, 0, 1, 4, -1, -1, 1,2.946756035941852,1.1621145699975848,7
1503604467937,-0.828,-0.524,-0.197,+0.013,+0.914,-0.326,-0.330,+2.812,-4.375,-8.875,0, 0, -4, -3, -1, -1, 0, 0,2.9432945608753758,1.162447744010529,7
1503604467953,-0.828,-0.525,-0.197,+0.011,+0.870,-0.308,-0.346,+2.875,+2.750,-6.125,-4, -16, -13, -5, -3, 0, 1, 3,2.939874439334638,1.1655242847049678,7
1503604467976,-0.828,-0.525,-0.196,+0.009,+0.890,-0.300,-0.320,+3.938,-3.312,-8.938,0, -5, 1, 5, 5, 1, -2, -2,2.9375217622335392,1.165094994224966,7
1503604467991,-0.829,-0.524,-0.196,+0.007,+0.903,-0.327,-0.333,+4.562,-10.625,-12.500,-5, 1, -4, -3, -2, 2, 1, 1,2.934767559422981,1.163125186206976,7
1503604468013,-0.830,-0.523,-0.196,+0.004,+0.864,-0.329,-0.337,+5.125,-8.062,-12.938,2, -7, -4, -1, 23, -4, -6, 0,2.930300695826163,1.161326981523861,7
1503604468035,-0.830,-0.523,-0.195,+0.002,+0.895,-0.315,-0.333,+3.438,-0.375,-10.125,-1, 0, -5, 2, -2, 15, 24, 1,2.9279512744552196,1.1609001921287618,7
1503604468052,-0.829,-0.523,-0.196,+0.001,+0.928,-0.319,-0.343,+5.750,-0.938,-4.688,-4, 0, 0, -4, -6, -3, -2, -2,2.9244015398317282,1.1613817596674552,7
1503604468075,-0.829,-0.523,-0.196,-0.000,+0.883,-0.326,-0.314,+2.688,-0.625,-3.188,1, 29, 32, 2, 0, 1, -5, 2,2.9226865724249596,1.1615468531541642,7
1503604468095,-0.829,-0.524,-0.196,-0.001,+0.880,-0.317,-0.316,+2.125,+0.812,-4.438,1, 9, 4, 9, 11, -2, -4, 0,2.921052929210049,1.1644391644239067,7
1503604468111,-0.829,-0.524,-0.196,-0.002,+0.917,-0.319,-0.318,-1.375,-0.375,-2.375,3, -11, -14, -2, 2, -3, -6, 2,2.9193444046982595,1.1646028494896112,7
1503604468133,-0.829,-0.524,-0.196,-0.001,+0.896,-0.319,-0.322,-3.375,+0.188,-0.500,-1, -16, -8, -5, -11, -3, -4, -3,2.921052929210049,1.1644391644239067,7
1503604468156,-0.829,-0.524,-0.195,-0.001,+0.885,-0.312,-0.326,-5.250,-2.250,+1.188,-3, 0, -10, -4, -9, -3, -2, -1,2.92213354124844,1.163679445176198,7
1503604468171,-0.829,-0.524,-0.195,-0.000,+0.886,-0.300,-0.325,-5.312,+3.625,+2.625,-4, -9, 5, -1, -2, -1, -2, 0,2.9238441991277617,1.1635162369637548,7
1503604468194,-0.828,-0.526,-0.194,+0.001,+0.913,-0.306,-0.325,-6.250,+12.312,+6.812,-12, -3, -3, -3, -3, -1, -1, -7,2.926035480730938,1.1676207735843893,7
1503604468216,-0.827,-0.528,-0.194,+0.004,+0.916,-0.325,-0.319,-6.438,+11.750,+10.062,-4, -1, -1, -3, -2, 1, 0, 21,2.9305588006539107,1.1721733720194076,7
1503604468231,-0.827,-0.527,-0.194,+0.006,+0.900,-0.314,-0.335,-7.375,-0.562,+10.750,3, -3, 0, 5, 11, -2, -2, -5,2.933920456265398,1.1691159314764035,7
1503604468254,-0.828,-0.527,-0.194,+0.008,+0.875,-0.353,-0.300,-12.438,-2.000,+8.750,-5, -11, -4, -3, -2, -1, -4, -1,2.938079464864078,1.169230974446912,7
1503604468276,-0.827,-0.528,-0.193,+0.011,+0.895,-0.337,-0.326,-13.125,+9.375,+13.875,5, -3, -2, -1, 4, 0, -1, -5,2.9436477190517922,1.1703095262211938,7
1503604468297,-0.827,-0.529,-0.193,+0.015,+0.903,-0.319,-0.339,-12.500,+11.188,+15.062,7, -6, -5, 1, -2, 0, 0, -2,2.950553550800481,1.1724193476139881,7
1503604468314,-0.827,-0.528,-0.193,+0.017,+0.863,-0.313,-0.359,-8.688,+4.688,+12.188,-11, 3, 1, -3, 0, 1, 0, -1,2.9539777022319353,1.1693506042363995,7
1503604468335,-0.828,-0.527,-0.192,+0.018,+0.837,-0.298,-0.359,-4.688,-4.875,+3.375,26, 0, 4, 3, -1, -2, -2, 26,2.9574776523186985,1.1661418177999865,7
1503604468358,-0.828,-0.526,-0.191,+0.017,+0.814,-0.315,-0.346,-1.562,-3.125,-7.000,-7, 7, -1, -1, -2, 2, -1, -8,2.956837754379335,1.1628213180665423,7
1503604468373,-0.829,-0.526,-0.191,+0.015,+0.837,-0.344,-0.362,+1.375,-2.188,-12.625,-4, -12, -15, -3, -5, 0, -1, -7,2.954066287379708,1.163584938964071,7
1503604468396,-0.829,-0.526,-0.190,+0.012,+0.839,-0.333,-0.344,+4.750,-2.188,-17.938,-4, -6, -1, -4, -2, -5, 0, 2,2.9499893319268473,1.1633348494657918,7
1503604468421,-0.829,-0.526,-0.189,+0.008,+0.876,-0.324,-0.329,+6.312,-2.688,-21.625,7, 3, 5, 3, 27, 5, 1, -2,2.944199995454287,1.1632426725210037,7
1503604468434,-0.829,-0.527,-0.188,+0.004,+0.886,-0.319,-0.317,+5.938,-0.188,-23.312,-3, 13, 5, 2, -10, -2, 1, 0,2.938483720037785,1.1658779749252022,7
1503604468456,-0.829,-0.528,-0.187,-0.000,+0.877,-0.301,-0.295,+4.188,-2.750,-27.062,5, 19, 4, 0, -9, -5, 0, -1,2.932811590403157,1.168501198787032,7
1503604468477,-0.829,-0.528,-0.185,-0.005,+0.916,-0.303,-0.313,+2.562,-4.062,-27.562,-5, -9, -13, -7, -12, -2, -2, -8,2.926476544996802,1.1678249926692672,7
1503604468494,-0.829,-0.529,-0.183,-0.008,+0.945,-0.298,-0.318,+0.562,-1.125,-22.562,-5, -18, 2, -5, 2, 2, -1, -7,2.92365217726107,1.1695651931885396,7
1503604468516,-0.828,-0.530,-0.182,-0.011,+0.928,-0.279,-0.316,-0.562,-1.250,-17.250,6, 7, 4, 4, 0, 2, 0, -3,2.9190357510950364,1.1715836811266775,7
1503604468537,-0.828,-0.531,-0.180,-0.013,+0.897,-0.270,-0.299,-2.875,-0.375,-17.250,4, -7, -10, -4, -2, -1, 0, -2,2.9179456836759017,1.173176720269024,7
1503604468554,-0.828,-0.531,-0.177,-0.016,+0.941,-0.246,-0.325,-3.500,-0.500,-16.875,4, 3, 0, 1, 6, 1, -3, -5,2.916134473723373,1.1715174057819753,7
1503604468575,-0.828,-0.532,-0.176,-0.017,+0.949,-0.250,-0.320,-4.750,-2.750,-12.875,-1, 2, 5, 3, 0, 0, 0, -1,2.915669873194884,1.1736763028982844,7
1503604468591,-0.829,-0.532,-0.174,-0.019,+0.940,-0.237,-0.331,-3.875,-2.562,-7.938,1, 5, 5, 5, 3, 3, -1, -13,2.9152050876911213,1.1730158334948897,7
1503604468613,-0.829,-0.532,-0.173,-0.019,+0.954,-0.242,-0.346,-4.312,+0.000,-2.438,0, 3, 4, 2, 4, 3, 2, 0,2.916279634526542,1.1723369700019002,7
1503604468635,-0.829,-0.532,-0.173,-0.018,+0.951,-0.253,-0.339,-4.375,-0.625,+6.375,9, -8, -10, -5, -3, -4, 0, 6,2.9179551241210975,1.1721976864269035,7
1503604468651,-0.829,-0.531,-0.173,-0.016,+0.942,-0.266,-0.337,-7.250,+0.000,+12.625,-26, -3, -5, 0, 2, -4, -2, -16,2.9211779674846565,1.1692143980882752,7
1503604468674,-0.829,-0.532,-0.174,-0.013,+0.941,-0.250,-0.332,-6.625,+3.375,+18.438,42, -10, 9, 2, -2, 4, 4, 16,2.9252721656343326,1.17217505205167,7
1503604468696,-0.829,-0.532,-0.175,-0.009,+0.899,-0.238,-0.335,-6.312,+6.750,+21.812,4, 12, 0, -3, -3, -1, 0, 4,2.9309264564537076,1.172289537275053,7
1503604468717,-0.828,-0.532,-0.176,-0.006,+0.917,-0.277,-0.313,-5.812,+1.938,+22.500,8, -5, -8, -5, 1, -6, -2, -13,2.93420741933822,1.1721135164703345,7
1503604468734,-0.828,-0.531,-0.177,-0.002,+0.890,-0.302,-0.324,-6.188,+2.062,+20.938,16, -2, -7, -3, -2, -1, -2, 19,2.9398122528048436,1.1695020465020907,7
1503604468756,-0.828,-0.531,-0.178,+0.001,+0.845,-0.277,-0.325,-7.500,+4.938,+17.875,-15, -1, -7, -5, -2, -3, -1, 3,2.943824882513854,1.1697513154381498,7
1503604468777,-0.828,-0.532,-0.179,+0.004,+0.880,-0.296,-0.354,-6.438,+9.000,+15.125,-10, -1, -5, -3, -2, -2, -1, -2,2.9479047412833217,1.1727288748440923,7
1503604468797,-0.828,-0.532,-0.180,+0.006,+0.914,-0.312,-0.333,-3.688,+3.125,+15.312,17, 16, 1, 2, 1, 1, -2, 3,2.9502155137223323,1.1731271697881613,7
1503604468816,-0.828,-0.531,-0.181,+0.009,+0.880,-0.311,-0.321,-4.125,-0.375,+13.250,-12, -5, 0, 2, 1, -1, -1, 3,2.954191057035471,1.1706451159184166,7
1503604468837,-0.828,-0.531,-0.181,+0.010,+0.840,-0.292,-0.337,-3.125,+0.562,+8.062,15, -1, -3, -3, -15, -3, -1, 0,2.955901092190942,1.1704968127755677,7
1503604468855,-0.828,-0.530,-0.181,+0.010,+0.868,-0.305,-0.353,-1.750,-2.000,+2.562,-13, -12, -10, -5, -5, -6, -3, -10,2.955863169155572,1.1677609724815066,7
1503604468875,-0.828,-0.530,-0.181,+0.010,+0.873,-0.312,-0.331,+0.125,-1.625,-0.875,2, 4, 6, 0, -1, 1, 0, 1,2.955863169155572,1.1677609724815066,7
1503604468898,-0.829,-0.529,-0.182,+0.009,+0.859,-0.303,-0.334,+2.688,-3.000,-3.438,-10, -1, -2, -3, 0, 0, -1, -5,2.9536831320529244,1.1663090245136745,7
1503604468923,-0.829,-0.529,-0.181,+0.008,+0.874,-0.293,-0.331,+2.500,-1.188,-9.250,-28, 1, 2, -1, 1, -9, -2, 3,2.9530633330940446,1.165764556607496,7
1503604468936,-0.829,-0.530,-0.181,+0.005,+0.891,-0.283,-0.332,+4.500,-0.938,-11.875,18, 5, -2, 1, -1, 3, -1, -4,2.947985785945796,1.1689423408994912,7
1503604468958,-0.829,-0.530,-0.180,+0.003,+0.902,-0.279,-0.354,+6.625,-1.812,-12.062,-5, -6, 0, 0, 10, 9, 2, 4,2.9456665098217516,1.168545018305914,7
1503604468973,-0.829,-0.529,-0.180,-0.000,+0.895,-0.295,-0.331,+6.812,-5.562,-12.125,-20, -6, -5, -1, 8, 4, -1, -8,2.940486961542857,1.1662651176819265,7
1503604468996,-0.829,-0.529,-0.181,-0.002,+0.894,-0.310,-0.320,+6.125,-4.625,-9.312,-4, -7, -4, 0, 38, 15, 2, 0,2.935995674303139,1.1672590532822873,7
1503604469017,-0.829,-0.529,-0.181,-0.003,+0.891,-0.317,-0.306,+2.750,+1.375,-8.000,10, 21, 32, 8, -16, -6, 0, 4,2.9342954020213523,1.1674079298444742,7
1503604469033,-0.828,-0.530,-0.181,-0.004,+0.903,-0.290,-0.329,+1.562,+4.312,-6.562,-6, -5, -13, -8, -8, 1, 2, 2,2.9319731418161963,1.1698426768713728,7
1503604469057,-0.828,-0.530,-0.180,-0.006,+0.902,-0.297,-0.312,-0.312,-1.500,-8.938,16, 1, -2, 6, 5, 5, 1, 0,2.9296649967727477,1.169437939368273,7
1503604469077,-0.829,-0.530,-0.179,-0.007,+0.896,-0.293,-0.320,-1.812,-2.562,-10.562,5, 21, 9, 1, -2, 0, -2, 4,2.9297701773947455,1.1693213068494595,7
1503604469094,-0.829,-0.531,-0.178,-0.008,+0.899,-0.287,-0.311,-5.250,+0.438,-11.500,13, -12, -14, -6, -10, -4, -2, -2,2.9292633407290394,1.1714884882843033,7
1503604469116,-0.828,-0.532,-0.176,-0.010,+0.920,-0.247,-0.347,-2.500,+4.625,-9.688,-8, -10, -6, -2, 29, -2, -1, -12,2.9274490467613665,1.1726831476772823,7
1503604469138,-0.828,-0.532,-0.175,-0.011,+0.922,-0.259,-0.325,-0.562,+0.625,-7.188,3, -3, 1, 14, -37, -20, -3, 2,2.9268459940917086,1.172142424589766,7
1503604469154,-0.828,-0.533,-0.175,-0.012,+0.928,-0.265,-0.338,+1.000,+0.812,-4.375,1, -8, -12, -9, -41, -22, -1, 3,2.9252800920957416,1.174994886220134,7
1503604469176,-0.828,-0.533,-0.175,-0.012,+0.943,-0.273,-0.324,-0.062,+2.188,-0.500,-5, -5, 0, -4, -4, -1, -2, 15,2.9252800920957416,1.174994886220134,7
1503604469199,-0.827,-0.534,-0.175,-0.011,+0.967,-0.254,-0.333,-0.625,+5.312,+6.250,-7, -9, -3, 1, 5, 7, -1, -2,2.926367896860137,1.1771402869321645,7
1503604469214,-0.827,-0.534,-0.176,-0.010,+0.943,-0.277,-0.320,-3.562,+2.688,+10.438,-6, -7, -7, -5, 5, 6, -1, -1,2.926964105287859,1.177683764515663,7
1503604469236,-0.827,-0.534,-0.177,-0.008,+0.915,-0.266,-0.307,-2.938,-2.562,+13.500,18, 0, -6, -6, 9, 6, 0, 6,2.929244552877494,1.1780889441215767,7
1503604469258,-0.827,-0.533,-0.178,-0.006,+0.874,-0.281,-0.314,-3.750,+0.938,+12.625,-20, 6, 5, 3, 5, 5, -2, -11,2.9314260892821857,1.1757755914346582,7
1503604469273,-0.827,-0.534,-0.178,-0.004,+0.842,-0.296,-0.336,-4.312,+7.625,+10.062,-2, -5, -2, -4, -3, 2, 2, 6,2.934902353873937,1.1782112654468002,7
1503604469297,-0.827,-0.534,-0.178,-0.003,+0.872,-0.291,-0.334,-3.688,+4.125,+3.688,-20, 7, 1, -1, 5, 0, 0, 1,2.936591706433069,1.1780689740104777,7
1503604469318,-0.827,-0.534,-0.178,-0.003,+0.887,-0.306,-0.318,-2.688,-2.625,-3.062,-8, -5, -5, 0, 2, 4, 0, -10,2.936591706433069,1.1780689740104777,7
1503604469333,-0.827,-0.533,-0.178,-0.004,+0.851,-0.295,-0.318,-1.562,-2.438,-7.312,-13, 0, 3, 0, -1, -2, -3, -21,2.934808753381677,1.1754892219718427,7
1503604469358,-0.827,-0.534,-0.177,-0.005,+0.869,-0.283,-0.326,-1.688,+2.188,-10.625,6, -7, -3, 8, -12, 0, -1, 1,2.934304115220242,1.177664750459706,7
1503604469378,-0.827,-0.535,-0.176,-0.007,+0.918,-0.280,-0.324,-0.938,+3.875,-11.312,6, -2, -1, -3, -14, -8, -2, -16,2.9321232647587543,1.1799802626196474,7
1503604469394,-0.827,-0.535,-0.174,-0.009,+0.900,-0.272,-0.312,-1.500,-0.938,-13.125,-2, 5, -2, -5, 5, -2, -1, 3,2.9309351289933083,1.1788979430214979,7
1503604469416,-0.827,-0.535,-0.172,-0.011,+0.968,-0.294,-0.290,-5.938,-4.938,-15.188,-15, 0, 6, 5, 10, 4, -1, 1,2.9297475966341344,1.1778272108077366,7
1503604469438,-0.827,-0.535,-0.171,-0.012,+0.927,-0.247,-0.327,-3.875,-3.688,-8.938,8, 3, 4, 0, 2, 0, -1, 4,2.9291540576345576,1.1772961561123052,7
1503604476061,-0.847,-0.492,-0.049,+0.195,+0.855,-0.239,-0.464,+3.000,-5.625,+11.875,7, 0, -2, 0, 0, 0, 0, -5,-2.843728686063685,1.0103370467205564,8
1503604476083,-0.847,-0.491,-0.051,+0.197,+0.824,-0.261,-0.459,+4.312,-5.188,+12.000,8, 3, -3, -4, 0, 0, 4, 17,-2.841611717794813,1.0074724632683274,8
1503604476097,-0.847,-0.491,-0.053,+0.198,+0.796,-0.272,-0.456,+3.125,-2.250,+10.188,-8, 8, 4, -1, 0, 2, -3, -5,-2.8418804735949807,1.007341418693332,8
1503604476119,-0.847,-0.491,-0.053,+0.198,+0.790,-0.279,-0.460,+0.750,-0.562,+4.500,16, 4, 5, 7, 1, 2, 5, 12,-2.8418804735949807,1.007341418693332,8
1503604476142,-0.847,-0.491,-0.053,+0.198,+0.804,-0.300,-0.436,-2.938,-1.250,-2.125,22, 1, -1, 1, 3, 2, 3, 0,-2.8418804735949807,1.007341418693332,8
1503604476159,-0.847,-0.491,-0.052,+0.198,+0.821,-0.305,-0.437,-6.750,-1.938,-7.500,2, 17, 0, -1, -1, -1, -1, -1,-2.8409032131123335,1.0073768244782555,8
1503604476180,-0.848,-0.490,-0.051,+0.197,+0.798,-0.300,-0.462,-7.688,-0.312,-12.438,-2, 4, 2, 1, 3, 0, -6, -3,-2.841557759763806,1.0053483129727763,8
1503604476202,-0.848,-0.491,-0.048,+0.195,+0.807,-0.277,-0.487,-8.562,+3.938,-14.312,-7, -15, -3, -7, -2, -1, -2, -30,-2.842703467574777,1.0082579587975742,8
1503604476217,-0.848,-0.491,-0.046,+0.194,+0.831,-0.264,-0.492,-8.062,+7.625,-12.312,-10, 1, 6, 6, -1, 1, 0, 1,-2.84243754981119,1.0084105771847058,8
1503604476239,-0.847,-0.492,-0.044,+0.193,+0.853,-0.265,-0.491,-6.188,+10.062,-9.562,-4, 0, -4, -6, -5, 0, 2, 7,-2.842205861617117,1.0106923454790653,8
1503604476265,-0.847,-0.494,-0.043,+0.193,+0.900,-0.250,-0.470,-5.125,+6.000,-5.750,1, -16, -5, -5, 2, -5, -4, -5,-2.842606945923599,1.0160803040592445,8
1503604476277,-0.847,-0.494,-0.042,+0.192,+0.915,-0.248,-0.481,-1.625,+1.688,-1.375,-2, 5, 2, 3, -2, 4, 17, 3,-2.8433057138880935,1.0161870364623469,8
1503604476300,-0.847,-0.494,-0.042,+0.192,+0.901,-0.220,-0.502,+1.438,-3.750,+3.812,-6, -4, 0, 2, 0, -2, -7, 10,-2.8433057138880935,1.0161870364623469,8
1503604476322,-0.848,-0.493,-0.044,+0.193,+0.868,-0.225,-0.497,+5.625,-6.125,+9.875,17, 0, -1, 8, 2, 0, -3, 11,-2.8435462851821565,1.0138974916813837,8
1503604476337,-0.847,-0.492,-0.046,+0.194,+0.855,-0.249,-0.484,+8.125,-5.000,+15.562,5, 2, 2, -3, 20, 5, 3, -7,-2.8424781156792567,1.0105323647449693,8
1503604476362,-0.847,-0.492,-0.049,+0.195,+0.832,-0.261,-0.468,+8.562,-3.250,+16.938,6, 0, 0, -4, -7, -4, -7, 21,-2.843728686063685,1.0103370467205564,8
1503604476382,-0.847,-0.492,-0.052,+0.197,+0.822,-0.270,-0.453,+7.938,-2.500,+14.688,-13, -4, -5, -3, -5, -2, -4, -16,-2.843295152077964,1.0101086752645723,8
