Timestamp,Orientation X,Orientation Y,Orientation Z,Orientation W,Accelerometer X,Accelerometer Y,Accelerometer Z,Gyroscope X,Gyroscope Y,Gyroscope Z,EMG1,EMG2,EMG3,EMG4,EMG5,EMG6,EMG7,EMG8,Roll,Yaw
1503696690003,+0.484,+0.092,-0.323,-0.808,+0.625,+0.182,-0.743,-1.938,-0.375,+1.000,-2, 7, 3, 0, 0, -1, -2, -2,-1.0220189408984561,0.6680065788499292
1503696690020,+0.484,+0.092,-0.323,-0.808,+0.620,+0.177,-0.737,-1.125,-0.188,+0.688,2, 2, -1, -1, 0, -1, -1, -2,-1.0220189408984561,0.6680065788499292
1503696690041,+0.484,+0.092,-0.323,-0.808,+0.619,+0.178,-0.734,-1.062,+0.688,+0.500,-1, -1, 1, -2, -1, -2, 0, -2,-1.0220189408984561,0.6680065788499292
1503696690063,+0.484,+0.092,-0.323,-0.808,+0.635,+0.179,-0.737,-1.000,+1.562,+0.375,-2, 0, 3, -1, 1, -1, -2, -1,-1.0220189408984561,0.6680065788499292
1503696690078,+0.484,+0.092,-0.323,-0.808,+0.643,+0.174,-0.734,-0.750,+0.500,+0.875,0, -1, -1, -1, -1, -2, 3, 0,-1.0220189408984561,0.6680065788499292
1503696690101,+0.484,+0.092,-0.323,-0.808,+0.631,+0.176,-0.720,-1.375,-1.125,+0.812,0, -2, -4, -1, 0, -2, -2, -1,-1.0220189408984561,0.6680065788499292
1503696690123,+0.484,+0.092,-0.323,-0.808,+0.629,+0.175,-0.734,-0.875,-0.938,+0.625,-1, -6, -1, -1, -1, 0, 0, 2,-1.0220189408984561,0.6680065788499292
1503696690138,+0.484,+0.092,-0.323,-0.808,+0.627,+0.177,-0.738,-0.938,-1.250,+0.312,-3, 2, -1, -2, -1, -1, 0, -1,-1.0220189408984561,0.6680065788499292
1503696690161,+0.484,+0.092,-0.323,-0.808,+0.630,+0.179,-0.731,-0.875,-0.500,-0.062,-3, -2, 1, 0, 1, 1, 0, -3,-1.0220189408984561,0.6680065788499292
1503696690183,+0.484,+0.092,-0.323,-0.808,+0.622,+0.171,-0.741,-0.438,-0.875,+0.562,0, 0, -2, -1, -2, -1, -4, 0,-1.0220189408984561,0.6680065788499292
1503696690198,+0.484,+0.092,-0.323,-0.808,+0.629,+0.175,-0.729,-0.938,-1.438,+0.000,-1, -3, -2, 1, -1, 0, 0, -1,-1.0220189408984561,0.6680065788499292
1503696690221,+0.484,+0.092,-0.323,-0.808,+0.626,+0.170,-0.741,-1.375,+0.250,+0.188,1, -1, 1, -1, -2, -3, 0, 0,-1.0220189408984561,0.6680065788499292
1503696690243,+0.484,+0.092,-0.323,-0.808,+0.629,+0.175,-0.735,-1.438,-0.438,+0.062,-3, -1, -3, -2, -1, -1, -3, -2,-1.0220189408984561,0.6680065788499292
1503696690259,+0.484,+0.092,-0.323,-0.808,+0.632,+0.180,-0.730,-1.812,-0.250,-0.062,-1, -2, -1, 0, 0, -1, -2, -1,-1.0220189408984561,0.6680065788499292
1503696690281,+0.484,+0.092,-0.323,-0.808,+0.631,+0.179,-0.739,-0.812,-0.438,+0.250,-3, -1, -1, -1, 0, 0, -1, -2,-1.0220189408984561,0.6680065788499292
1503696690303,+0.484,+0.092,-0.323,-0.808,+0.631,+0.183,-0.736,-1.062,-1.188,+0.250,2, 1, 1, -2, -1, -1, -1, 1,-1.0220189408984561,0.6680065788499292
1503696690320,+0.484,+0.092,-0.323,-0.808,+0.624,+0.173,-0.732,-0.875,-0.750,-0.062,-2, 4, 2, 0, 0, 0, -2, -1,-1.0220189408984561,0.6680065788499292
1503696690341,+0.484,+0.092,-0.323,-0.808,+0.624,+0.174,-0.731,-0.938,-0.438,+0.500,-1, -1, -3, -1, 0, -1, 1, -1,-1.0220189408984561,0.6680065788499292
1503696690363,+0.484,+0.092,-0.323,-0.808,+0.625,+0.180,-0.734,-1.438,-0.750,+0.312,0, 1, 1, -3, -2, -2, -1, -3,-1.0220189408984561,0.6680065788499292
1503696690380,+0.484,+0.092,-0.323,-0.808,+0.636,+0.174,-0.741,-1.312,-0.375,+0.562,0, -3, 0, 0, -1, -1, -2, -3,-1.0220189408984561,0.6680065788499292
1503696690400,+0.484,+0.092,-0.323,-0.808,+0.628,+0.176,-0.736,-1.312,-1.250,+0.312,-1, -5, -1, 0, -1, 1, -2, 1,-1.0220189408984561,0.6680065788499292
1503696690422,+0.484,+0.092,-0.323,-0.808,+0.622,+0.178,-0.734,-1.375,-0.625,+0.188,0, 3, -1, -1, -1, -1, -1, -1,-1.0220189408984561,0.6680065788499292
1503696690438,+0.484,+0.092,-0.323,-0.808,+0.625,+0.176,-0.743,-1.000,-0.438,+0.312,2, -3, -1, 1, -1, -3, -2, -1,-1.0220189408984561,0.6680065788499292
1503696690460,+0.484,+0.092,-0.323,-0.808,+0.629,+0.176,-0.729,-1.125,-0.750,+0.125,0, 0, -1, 1, -2, -2, -2, -1,-1.0220189408984561,0.6680065788499292
1503696690483,+0.484,+0.092,-0.323,-0.808,+0.633,+0.174,-0.737,-1.125,-0.562,+0.062,-1, -6, -3, 0, 1, -1, 1, 0,-1.0220189408984561,0.6680065788499292
1503696690498,+0.484,+0.092,-0.323,-0.808,+0.631,+0.178,-0.733,-1.562,-1.000,+0.062,-2, -2, -1, 0, -2, -1, -1, 1,-1.0220189408984561,0.6680065788499292
1503696690521,+0.484,+0.092,-0.323,-0.808,+0.624,+0.174,-0.730,-1.312,+0.188,+0.125,-3, 2, -3, -1, -1, -2, -1, -2,-1.0220189408984561,0.6680065788499292
1503696690543,+0.484,+0.092,-0.323,-0.808,+0.627,+0.179,-0.734,-0.875,-1.062,+0.250,0, 1, 1, -2, 1, -1, -1, -1,-1.0220189408984561,0.6680065788499292
1503696690559,+0.484,+0.092,-0.323,-0.808,+0.632,+0.174,-0.735,-1.312,-0.938,-0.062,-2, -5, -4, -3, -1, 0, 0, 0,-1.0220189408984561,0.6680065788499292
1503696690581,+0.484,+0.092,-0.323,-0.808,+0.625,+0.173,-0.736,-0.750,-0.875,+0.062,1, -2, 4, -1, -1, 0, 1, -2,-1.0220189408984561,0.6680065788499292
1503696690602,+0.484,+0.092,-0.322,-0.808,+0.615,+0.178,-0.738,-1.375,-1.625,+0.188,-2, -3, -3, 1, -1, -1, -2, -2,-1.0219216213164517,0.6659104786371066
1503696690618,+0.484,+0.092,-0.322,-0.808,+0.625,+0.179,-0.732,-1.562,+0.000,+0.000,-2, -8, -2, -1, 1, 0, 0, -1,-1.0219216213164517,0.6659104786371066
1503696690639,+0.484,+0.092,-0.322,-0.808,+0.631,+0.178,-0.737,-1.000,-0.750,+0.375,2, 8, 4, -1, -1, -3, -1, 0,-1.0219216213164517,0.6659104786371066
1503696690662,+0.484,+0.092,-0.322,-0.808,+0.625,+0.180,-0.740,-1.188,-0.938,+0.188,-3, -1, -3, 1, -3, 1, -2, -3,-1.0219216213164517,0.6659104786371066
1503696690677,+0.484,+0.092,-0.322,-0.808,+0.630,+0.171,-0.739,-1.250,+0.500,+0.562,1, -3, -2, -2, 0, -2, -2, -1,-1.0219216213164517,0.6659104786371066
1503696690699,+0.484,+0.092,-0.322,-0.808,+0.626,+0.174,-0.744,-1.438,-0.625,+0.500,3, 10, 4, 1, -3, -1, -2, 1,-1.0219216213164517,0.6659104786371066
1503696690722,+0.484,+0.092,-0.322,-0.808,+0.625,+0.180,-0.738,-1.500,-0.062,+0.375,-5, -3, -3, -1, 0, -2, -1, -1,-1.0219216213164517,0.6659104786371066
1503696690737,+0.484,+0.092,-0.322,-0.808,+0.621,+0.177,-0.731,-1.125,-0.188,+0.375,0, -2, 5, 1, -2, -1, -1, -2,-1.0219216213164517,0.6659104786371066
1503696690759,+0.484,+0.091,-0.322,-0.808,+0.626,+0.180,-0.736,-1.062,-0.438,+0.312,0, -2, -1, -2, 0, 2, -3, 1,-1.021264121315229,0.6649093112020045
1503696690782,+0.484,+0.091,-0.322,-0.808,+0.631,+0.175,-0.733,-0.938,+0.000,+0.500,0, 4, -1, -2, 0, -1, 4, 0,-1.021264121315229,0.6649093112020045
1503696690797,+0.484,+0.091,-0.322,-0.808,+0.626,+0.177,-0.741,-0.938,-1.125,+0.500,-1, -5, -4, -3, -2, -1, 0, 0,-1.021264121315229,0.6649093112020045
1503696690820,+0.484,+0.091,-0.322,-0.808,+0.625,+0.172,-0.729,-1.062,-0.625,+0.500,-2, -1, -2, -3, -3, -1, -1, 0,-1.021264121315229,0.6649093112020045
1503696690842,+0.484,+0.091,-0.322,-0.808,+0.621,+0.177,-0.728,-1.000,-0.938,+0.250,-1, -6, -2, -1, -1, 1, -1, -1,-1.021264121315229,0.6649093112020045
1503696690858,+0.484,+0.091,-0.322,-0.808,+0.626,+0.169,-0.738,-1.188,-0.875,+0.312,0, 1, -2, -1, -2, -1, -1, 0,-1.021264121315229,0.6649093112020045
1503696690879,+0.484,+0.091,-0.322,-0.808,+0.618,+0.178,-0.739,-1.062,-0.312,+0.562,0, -3, -2, -2, 1, -2, 1, -2,-1.021264121315229,0.6649093112020045
1503696690902,+0.484,+0.091,-0.322,-0.808,+0.617,+0.179,-0.735,-1.688,-0.125,+0.500,-1, 0, -3, -2, -2, -1, 0, -1,-1.021264121315229,0.6649093112020045
1503696690917,+0.484,+0.091,-0.322,-0.808,+0.625,+0.179,-0.737,-1.562,+1.062,+0.250,0, 0, 1, 1, -1, -3, -3, -2,-1.021264121315229,0.6649093112020045
1503696690940,+0.484,+0.091,-0.322,-0.808,+0.631,+0.183,-0.738,-1.500,+0.438,+0.438,-1, -1, -3, -1, 0, -1, -5, -1,-1.021264121315229,0.6649093112020045
1503696690962,+0.484,+0.091,-0.322,-0.808,+0.625,+0.173,-0.733,-0.938,-0.625,+0.750,0, 14, 7, 0, 0, 0, 0, 1,-1.021264121315229,0.6649093112020045
1503696690985,+0.484,+0.091,-0.322,-0.808,+0.622,+0.171,-0.732,-1.062,-1.312,+0.312,0, -6, -4, -1, -2, -2, 0, 0,-1.021264121315229,0.6649093112020045
1503696690999,+0.484,+0.091,-0.322,-0.808,+0.622,+0.181,-0.735,-1.062,-0.562,+0.688,-2, -4, -4, -2, 0, 2, 0, 0,-1.021264121315229,0.6649093112020045
1503696691022,+0.484,+0.091,-0.322,-0.808,+0.623,+0.176,-0.743,-1.125,-0.438,+1.062,0, 1, 0, 0, -2, 1, 2, 0,-1.021264121315229,0.6649093112020045
1503696691037,+0.484,+0.091,-0.322,-0.808,+0.620,+0.174,-0.737,-1.562,-0.188,+0.625,-1, -5, -3, 0, 0, -2, -1, -1,-1.021264121315229,0.6649093112020045
1503696691060,+0.484,+0.091,-0.322,-0.808,+0.618,+0.176,-0.740,-0.875,+0.750,+0.875,-3, 2, -1, -1, 0, 2, -1, 0,-1.021264121315229,0.6649093112020045
1503696691082,+0.484,+0.091,-0.322,-0.808,+0.625,+0.173,-0.729,-1.250,+1.062,+0.438,-2, -3, 0, 0, -2, -2, -1, -2,-1.021264121315229,0.6649093112020045
1503696691097,+0.484,+0.091,-0.322,-0.808,+0.637,+0.170,-0.740,-1.312,+0.750,+0.500,0, 0, -2, 0, 0, 0, 0, -1,-1.021264121315229,0.6649093112020045
1503696691119,+0.484,+0.091,-0.322,-0.808,+0.632,+0.177,-0.732,-1.375,-0.312,+0.562,1, -1, 0, -2, -1, 0, -1, 0,-1.021264121315229,0.6649093112020045
1503696691142,+0.484,+0.091,-0.322,-0.808,+0.623,+0.174,-0.736,-1.500,-0.375,+0.250,-1, 0, 0, 0, 0, -2, -2, 0,-1.021264121315229,0.6649093112020045
1503696691157,+0.484,+0.091,-0.322,-0.808,+0.621,+0.175,-0.742,-1.000,-0.062,+0.562,1, -1, -2, -2, -3, 0, -1, -2,-1.021264121315229,0.6649093112020045
1503696691179,+0.484,+0.091,-0.322,-0.808,+0.624,+0.179,-0.738,-1.438,-0.125,+0.188,-1, 3, 3, 1, -1, 0, -1, -2,-1.021264121315229,0.6649093112020045
1503696691202,+0.484,+0.091,-0.322,-0.808,+0.627,+0.178,-0.735,-1.500,+0.875,+0.500,-1, -7, 0, -1, 3, 0, 1, -2,-1.021264121315229,0.6649093112020045
1503696691220,+0.484,+0.091,-0.322,-0.808,+0.620,+0.182,-0.743,-1.125,+0.562,+0.812,-3, -1, -1, -2, -5, 1, 0, 0,-1.021264121315229,0.6649093112020045
1503696691239,+0.484,+0.091,-0.322,-0.808,+0.625,+0.174,-0.729,-1.438,+1.000,+0.375,0, -2, 0, 1, 0, 1, -3, -1,-1.021264121315229,0.6649093112020045
1503696691262,+0.484,+0.091,-0.322,-0.808,+0.635,+0.175,-0.732,-1.000,+0.625,+0.438,1, -1, -1, -2, -1, -3, -1, 0,-1.021264121315229,0.6649093112020045
1503696691277,+0.484,+0.091,-0.322,-0.808,+0.628,+0.181,-0.733,-1.125,-0.750,+0.625,0, 6, 6, 1, -2, 0, 1, -3,-1.021264121315229,0.6649093112020045
1503696691299,+0.484,+0.091,-0.322,-0.808,+0.621,+0.173,-0.730,-1.062,+0.250,+0.688,0, -3, -6, -4, 0, 0, 1, 0,-1.021264121315229,0.6649093112020045
1503696691322,+0.484,+0.091,-0.322,-0.808,+0.625,+0.174,-0.746,-1.062,-0.062,+0.625,-1, -5, -1, 1, 1, -2, -2, -1,-1.021264121315229,0.6649093112020045
1503696691337,+0.484,+0.091,-0.322,-0.808,+0.628,+0.177,-0.738,-1.375,+0.312,+0.562,-2, 7, 1, -1, 1, -1, -1, 0,-1.021264121315229,0.6649093112020045
1503696691359,+0.484,+0.091,-0.322,-0.808,+0.636,+0.172,-0.738,-1.250,+0.750,+1.000,0, 7, 7, -1, -3, -1, -1, 0,-1.021264121315229,0.6649093112020045
1503696691382,+0.484,+0.091,-0.322,-0.808,+0.623,+0.179,-0.741,-1.375,+0.062,+0.875,-2, -7, -2, -1, 1, -1, 1, 0,-1.021264121315229,0.6649093112020045
1503696691397,+0.484,+0.091,-0.323,-0.808,+0.621,+0.178,-0.733,-1.375,+1.438,+0.875,0, -4, -4, 0, 0, 1, 0, 0,-1.0213605217308008,0.6670060567526789
1503696691420,+0.484,+0.091,-0.323,-0.808,+0.631,+0.177,-0.734,-1.062,+1.688,+0.562,-2, -3, -2, -2, -3, -2, -1, -1,-1.0213605217308008,0.6670060567526789
1503696691442,+0.484,+0.091,-0.323,-0.808,+0.634,+0.181,-0.730,-1.062,+0.500,+0.625,0, -2, -2, -1, -2, -2, -2, -1,-1.0213605217308008,0.6670060567526789
1503696691457,+0.484,+0.091,-0.323,-0.808,+0.634,+0.170,-0.733,-0.688,+0.188,+0.625,-2, -6, -5, -1, 1, 0, -2, -1,-1.0213605217308008,0.6670060567526789
1503696691479,+0.484,+0.091,-0.323,-0.808,+0.635,+0.176,-0.732,-1.125,-0.562,+0.438,0, 0, 0, -2, -1, 1, 1, -1,-1.0213605217308008,0.6670060567526789
1503696691502,+0.484,+0.091,-0.323,-0.808,+0.630,+0.181,-0.727,-1.312,-0.438,+0.312,1, -1, -3, 2, -1, -1, 1, 1,-1.0213605217308008,0.6670060567526789
1503696691517,+0.484,+0.091,-0.323,-0.808,+0.631,+0.173,-0.736,-0.750,-0.938,+0.312,0, -4, -2, -1, -2, -2, -1, -2,-1.0213605217308008,0.6670060567526789
1503696691540,+0.484,+0.091,-0.323,-0.808,+0.616,+0.180,-0.734,-1.000,-1.000,+0.250,0, 1, -2, -2, 0, -1, -2, -2,-1.0213605217308008,0.6670060567526789
1503696691563,+0.484,+0.091,-0.323,-0.808,+0.624,+0.169,-0.741,-0.750,+0.625,+0.562,-1, -1, 0, -2, -2, 0, 1, -2,-1.0213605217308008,0.6670060567526789
1503696691584,+0.484,+0.091,-0.323,-0.808,+0.627,+0.174,-0.740,-1.188,-0.500,+0.125,-1, 0, 0, 3, -1, -2, -1, -1,-1.0213605217308008,0.6670060567526789
1503696691599,+0.484,+0.091,-0.323,-0.808,+0.628,+0.173,-0.737,-1.688,+0.375,+0.312,-1, -4, -4, -2, -1, 1, -3, -3,-1.0213605217308008,0.6670060567526789
1503696691622,+0.484,+0.091,-0.323,-0.808,+0.633,+0.179,-0.735,-1.438,-0.125,+0.500,-1, 2, 0, -1, 0, -2, -3, -2,-1.0213605217308008,0.6670060567526789
1503696691638,+0.484,+0.091,-0.323,-0.808,+0.626,+0.184,-0.732,-1.688,-0.750,+0.250,0, 2, 2, -1, 1, 1, -2, 3,-1.0213605217308008,0.6670060567526789
1503696691660,+0.484,+0.091,-0.323,-0.808,+0.625,+0.183,-0.738,-0.938,-0.750,+0.188,-1, 4, 2, 0, -2, -2, -1, -1,-1.0213605217308008,0.6670060567526789
1503696691682,+0.484,+0.091,-0.323,-0.808,+0.624,+0.173,-0.743,-0.938,-1.000,+0.812,-1, -1, -6, -2, 1, -1, -1, 1,-1.0213605217308008,0.6670060567526789
1503696691697,+0.484,+0.091,-0.323,-0.808,+0.621,+0.170,-0.737,-1.312,-0.062,+0.562,-1, 0, -1, -1, 0, -1, -2, -3,-1.0213605217308008,0.6670060567526789
1503696691719,+0.484,+0.091,-0.323,-0.808,+0.621,+0.174,-0.734,-1.062,+0.250,+0.750,-1, -3, 0, -1, -2, 1, -1, 0,-1.0213605217308008,0.6670060567526789
1503696691742,+0.484,+0.091,-0.323,-0.808,+0.633,+0.172,-0.730,-1.188,-0.062,+0.438,1, 0, -2, 0, -2, 1, 1, -1,-1.0213605217308008,0.6670060567526789
1503696691760,+0.484,+0.091,-0.323,-0.808,+0.633,+0.174,-0.730,-1.188,+0.062,+0.562,-1, 2, 0, -1, 1, -2, -1, 0,-1.0213605217308008,0.6670060567526789
1503696691779,+0.484,+0.091,-0.323,-0.808,+0.632,+0.171,-0.730,-1.062,-0.312,+0.188,-1, 4, 3, -2, -2, -2, 1, 1,-1.0213605217308008,0.6670060567526789
1503696691802,+0.484,+0.091,-0.323,-0.808,+0.628,+0.175,-0.731,-1.188,-0.875,+0.438,0, 0, 2, 2, -1, -1, 1, -4,-1.0213605217308008,0.6670060567526789
1503696691817,+0.484,+0.091,-0.323,-0.808,+0.622,+0.172,-0.735,-1.312,-1.125,+0.062,2, -1, 0, -3, 0, -1, 0, -2,-1.0213605217308008,0.6670060567526789
1503696691839,+0.484,+0.091,-0.323,-0.808,+0.619,+0.177,-0.739,-1.250,-0.188,+0.500,-2, -1, -3, -1, -1, 0, 1, 0,-1.0213605217308008,0.6670060567526789
1503696691862,+0.484,+0.091,-0.323,-0.808,+0.628,+0.179,-0.741,-1.250,+0.250,+0.375,-3, -2, 0, 0, 0, 0, 1, 1,-1.0213605217308008,0.6670060567526789
1503696691877,+0.484,+0.091,-0.323,-0.808,+0.625,+0.175,-0.726,-1.125,+0.375,+0.312,-4, -2, -3, -1, -1, -2, -1, 1,-1.0213605217308008,0.6670060567526789
1503696691899,+0.484,+0.091,-0.323,-0.808,+0.636,+0.173,-0.739,-0.812,-0.438,+0.375,-3, -6, -4, -1, 0, -3, -1, -2,-1.0213605217308008,0.6670060567526789
1503696691924,+0.484,+0.091,-0.323,-0.808,+0.624,+0.176,-0.732,-1.312,-0.750,+0.312,-1, 1, 1, 0, -1, -1, -3, -3,-1.0213605217308008,0.6670060567526789
1503696691937,+0.484,+0.091,-0.323,-0.808,+0.631,+0.177,-0.737,-1.500,-0.062,+0.125,1, 1, -3, -1, -1, -1, 0, 1,-1.0213605217308008,0.6670060567526789
1503696691962,+0.484,+0.091,-0.323,-0.808,+0.625,+0.177,-0.737,-1.438,-0.562,+0.250,0, 1, 3, 0, -2, 0, -2, -6,-1.0213605217308008,0.6670060567526789
1503696691982,+0.484,+0.091,-0.323,-0.808,+0.617,+0.181,-0.736,-1.188,-0.688,+0.500,-1, 1, 1, -1, 1, -2, -5, -1,-1.0213605217308008,0.6670060567526789
1503696691999,+0.484,+0.091,-0.323,-0.808,+0.624,+0.174,-0.739,-1.125,-0.125,+0.562,0, -5, -2, 0, -1, -1, 3, 2,-1.0213605217308008,0.6670060567526789
1503696692019,+0.484,+0.091,-0.323,-0.808,+0.626,+0.183,-0.740,-0.938,-0.188,+0.312,0, -2, -4, -3, -1, -2, 0, 0,-1.0213605217308008,0.6670060567526789
1503696692042,+0.484,+0.091,-0.323,-0.808,+0.624,+0.175,-0.735,-0.875,-0.438,+0.750,0, 0, 1, 0, -2, 0, -2, -1,-1.0213605217308008,0.6670060567526789
1503696692058,+0.484,+0.091,-0.323,-0.808,+0.624,+0.181,-0.734,-1.562,+0.125,+0.500,-1, 2, 2, -2, -2, 0, -3, -1,-1.0213605217308008,0.6670060567526789
1503696692079,+0.484,+0.091,-0.323,-0.808,+0.632,+0.169,-0.742,-1.312,+0.250,+0.438,0, 8, -2, 0, -2, -2, -4, -3,-1.0213605217308008,0.6670060567526789
1503696692103,+0.484,+0.091,-0.323,-0.808,+0.622,+0.179,-0.739,-1.375,-0.500,+0.750,0, -3, 0, -2, -1, 0, -3, 1,-1.0213605217308008,0.6670060567526789
1503696692117,+0.484,+0.091,-0.323,-0.808,+0.615,+0.177,-0.734,-1.500,+0.375,+0.375,-3, -3, -2, 0, 3, -2, 0, -2,-1.0213605217308008,0.6670060567526789
1503696692139,+0.484,+0.091,-0.323,-0.808,+0.623,+0.181,-0.734,-0.938,+0.688,+0.625,-2, -4, -6, -2, -1, -1, 0, 2,-1.0213605217308008,0.6670060567526789
1503696692162,+0.484,+0.091,-0.323,-0.808,+0.637,+0.178,-0.735,-1.000,+0.438,+0.375,0, -2, -1, -1, 0, 0, 1, 1,-1.0213605217308008,0.6670060567526789
1503696692177,+0.484,+0.091,-0.323,-0.808,+0.630,+0.177,-0.734,-0.875,-0.562,+0.500,-1, -1, 1, 0, 0, 0, 3, -1,-1.0213605217308008,0.6670060567526789
1503696692201,+0.484,+0.091,-0.323,-0.808,+0.625,+0.176,-0.737,-1.062,-0.750,+0.688,-1, 1, 0, 1, -2, 1, 0, 1,-1.0213605217308008,0.6670060567526789
1503696692222,+0.484,+0.091,-0.323,-0.808,+0.626,+0.175,-0.731,-1.062,-0.625,+0.312,-1, -1, -3, 0, -1, -1, -3, 0,-1.0213605217308008,0.6670060567526789
1503696692237,+0.484,+0.091,-0.322,-0.808,+0.632,+0.175,-0.738,-1.062,-0.062,+0.188,0, -6, -1, -2, -4, 0, -2, -3,-1.021264121315229,0.6649093112020045
1503696692260,+0.484,+0.091,-0.322,-0.808,+0.624,+0.176,-0.739,-0.750,-1.312,+0.438,-1, 2, -2, -2, 0, -1, -2, 0,-1.021264121315229,0.6649093112020045
1503696692282,+0.484,+0.091,-0.322,-0.809,+0.617,+0.175,-0.736,-1.188,-0.188,+0.375,-1, -3, -2, -1, 0, 1, 1, 0,-1.021776496073123,0.665423034618997
1503696692298,+0.484,+0.091,-0.322,-0.809,+0.629,+0.174,-0.747,-1.188,-0.062,+0.312,0, 2, -1, -1, 0, -1, -2, -4,-1.021776496073123,0.665423034618997
1503696692319,+0.484,+0.091,-0.322,-0.809,+0.623,+0.185,-0.737,-1.750,-0.188,+0.188,1, 0, 0, 0, -1, -2, 0, -2,-1.021776496073123,0.665423034618997
1503696692342,+0.484,+0.091,-0.322,-0.809,+0.627,+0.175,-0.732,-1.312,+0.375,+0.500,-1, 0, 0, 3, -1, 1, 0, 0,-1.021776496073123,0.665423034618997
1503696692357,+0.484,+0.091,-0.322,-0.809,+0.630,+0.180,-0.733,-1.062,-0.750,+0.375,-3, -5, -3, -3, -3, -2, -2, -3,-1.021776496073123,0.665423034618997
1503696692380,+0.484,+0.091,-0.322,-0.809,+0.626,+0.171,-0.737,-0.875,-0.500,+0.625,-1, -6, -3, 1, 0, -1, 0, 1,-1.021776496073123,0.665423034618997
1503696692402,+0.484,+0.091,-0.322,-0.809,+0.624,+0.175,-0.739,-1.000,-0.750,+0.500,0, 1, -2, 0, 0, 0, -1, 2,-1.021776496073123,0.665423034618997
1503696692418,+0.484,+0.091,-0.322,-0.809,+0.628,+0.170,-0.734,-1.500,-0.188,+0.625,2, 0, 4, -1, 0, -2, 0, 0,-1.021776496073123,0.665423034618997
1503696692439,+0.484,+0.091,-0.322,-0.809,+0.624,+0.178,-0.741,-1.188,-0.938,+0.688,-1, 2, 1, -2, 0, -2, 0, -2,-1.021776496073123,0.665423034618997
1503696692462,+0.484,+0.091,-0.322,-0.809,+0.619,+0.180,-0.730,-1.188,-0.500,+0.562,-2, -3, -7, -1, -1, -1, -4, -2,-1.021776496073123,0.665423034618997
1503696692477,+0.484,+0.091,-0.322,-0.808,+0.623,+0.172,-0.729,-1.250,+1.062,+0.188,2, 2, -1, 1, 0, 0, -2, 0,-1.021264121315229,0.6649093112020045
1503696692500,+0.484,+0.091,-0.322,-0.808,+0.632,+0.175,-0.742,-1.125,-0.188,+0.438,-2, -1, 1, -2, -1, -1, 2, -1,-1.021264121315229,0.6649093112020045
1503696692522,+0.484,+0.091,-0.322,-0.808,+0.631,+0.174,-0.733,-1.312,-0.562,+0.500,0, -4, -1, 0, -1, -4, -3, -1,-1.021264121315229,0.6649093112020045
1503696692538,+0.484,+0.091,-0.322,-0.808,+0.623,+0.171,-0.733,-0.938,-0.500,+0.062,0, 2, 1, 0, -2, -1, 0, -1,-1.021264121315229,0.6649093112020045
1503696692561,+0.484,+0.091,-0.322,-0.808,+0.626,+0.176,-0.731,-1.250,-1.000,+0.312,-1, -3, 0, -1, 0, -1, 1, 1,-1.021264121315229,0.6649093112020045
1503696692582,+0.484,+0.091,-0.322,-0.808,+0.630,+0.173,-0.739,-1.562,+0.188,+0.125,2, 13, 5, 2, -1, 1, 1, -1,-1.021264121315229,0.6649093112020045
1503696692599,+0.484,+0.091,-0.322,-0.808,+0.627,+0.181,-0.743,-1.062,-0.562,+0.500,-3, -5, -2, -3, -3, -2, -4, -1,-1.021264121315229,0.6649093112020045
1503696692619,+0.484,+0.091,-0.322,-0.808,+0.621,+0.180,-0.730,-1.500,-0.125,+0.188,0, 0, 1, 1, 0, -1, 0, -1,-1.021264121315229,0.6649093112020045
1503696692642,+0.484,+0.091,-0.322,-0.808,+0.625,+0.174,-0.740,-1.000,+0.562,+0.500,-2, -4, -5, -2, -1, 0, -2, -2,-1.021264121315229,0.6649093112020045
1503696692658,+0.484,+0.091,-0.322,-0.808,+0.622,+0.175,-0.739,-1.062,-0.188,+0.312,0, -1, -2, -1, -3, 0, 0, 0,-1.021264121315229,0.6649093112020045
1503696692680,+0.484,+0.091,-0.322,-0.808,+0.632,+0.173,-0.734,-1.438,+0.688,+0.375,-3, -3, -3, -3, 2, -2, -2, 0,-1.021264121315229,0.6649093112020045
1503696692702,+0.484,+0.091,-0.322,-0.808,+0.628,+0.178,-0.731,-1.312,-0.812,+0.375,2, 5, 6, 0, 1, -1, -1, -2,-1.021264121315229,0.6649093112020045
1503696692718,+0.484,+0.091,-0.322,-0.808,+0.622,+0.176,-0.738,-1.125,-0.500,+0.625,1, -2, -3, -1, -1, 1, 1, -1,-1.021264121315229,0.6649093112020045
1503696692740,+0.484,+0.091,-0.322,-0.808,+0.624,+0.173,-0.742,-1.125,-0.688,+0.438,-2, 4, 2, 2, -1, -2, -2, -2,-1.021264121315229,0.6649093112020045
1503696692764,+0.484,+0.091,-0.322,-0.808,+0.620,+0.178,-0.734,-1.438,+0.312,+0.312,-1, -5, -4, -2, -1, -1, -2, -1,-1.021264121315229,0.6649093112020045
1503696692778,+0.484,+0.091,-0.322,-0.808,+0.627,+0.180,-0.744,-1.188,+0.438,+0.938,0, -1, 4, 1, -1, -2, 0, -2,-1.021264121315229,0.6649093112020045
1503696692800,+0.484,+0.091,-0.322,-0.808,+0.621,+0.176,-0.737,-1.500,+0.250,+0.438,2, -4, -4, -2, -2, -1, 1, 1,-1.021264121315229,0.6649093112020045
1503696692822,+0.484,+0.091,-0.322,-0.808,+0.621,+0.182,-0.741,-1.312,+1.250,+0.812,-1, -1, -2, 1, -1, 1, 0, 0,-1.021264121315229,0.6649093112020045
1503696692839,+0.484,+0.091,-0.322,-0.808,+0.626,+0.174,-0.737,-1.000,+0.375,+0.438,-1, -1, -2, 0, -1, -1, -4, -1,-1.021264121315229,0.6649093112020045
1503696692860,+0.484,+0.091,-0.322,-0.808,+0.632,+0.175,-0.727,-1.312,+0.875,+0.125,-3, -1, -1, -1, 1, -1, 3, 0,-1.021264121315229,0.6649093112020045
1503696692882,+0.484,+0.091,-0.322,-0.808,+0.637,+0.176,-0.736,-1.062,+0.000,+0.312,0, 1, 1, -1, -1, -2, -1, -1,-1.021264121315229,0.6649093112020045
1503696692899,+0.484,+0.091,-0.322,-0.808,+0.622,+0.171,-0.737,-1.250,-0.812,+0.125,0, 1, 4, 0, -1, 0, -2, -2,-1.021264121315229,0.6649093112020045
1503696692920,+0.484,+0.091,-0.322,-0.808,+0.623,+0.178,-0.729,-1.188,-0.188,+0.375,-2, -3, -6, -1, -1, -2, -2, -2,-1.021264121315229,0.6649093112020045
1503696692942,+0.484,+0.091,-0.322,-0.808,+0.626,+0.173,-0.737,-1.000,-0.500,+0.188,0, -4, -2, -2, 0, -1, 0, -1,-1.021264121315229,0.6649093112020045
1503696692958,+0.484,+0.091,-0.322,-0.808,+0.626,+0.176,-0.734,-0.875,+0.312,+0.312,-3, 1, -5, 0, -2, 0, 0, -1,-1.021264121315229,0.6649093112020045
1503696692980,+0.484,+0.091,-0.322,-0.808,+0.629,+0.174,-0.735,-0.625,-1.250,+0.188,1, 0, 0, 0, -1, -2, -1, -1,-1.021264121315229,0.6649093112020045
1503696693004,+0.484,+0.091,-0.322,-0.808,+0.623,+0.176,-0.734,-1.125,-0.812,-0.188,0, -1, 0, -1, -1, 2, -1, 0,-1.021264121315229,0.6649093112020045
1503696693018,+0.484,+0.091,-0.322,-0.808,+0.626,+0.175,-0.734,-1.438,+0.000,+0.375,-2, 4, 3, 0, -2, 1, -1, 0,-1.021264121315229,0.6649093112020045
1503696693047,+0.484,+0.090,-0.322,-0.808,+0.623,+0.179,-0.742,-1.375,-0.875,+0.188,0, 7, 0, -2, 1, -2, -1, -3,-1.0206096033203773,0.6639100159400382
1503696693062,+0.484,+0.090,-0.322,-0.808,+0.620,+0.176,-0.733,-1.312,+0.000,+0.312,-3, -7, -2, -2, 2, -1, 0, 0,-1.0206096033203773,0.6639100159400382
1503696693084,+0.484,+0.090,-0.322,-0.808,+0.629,+0.176,-0.735,-0.938,-0.625,+0.500,1, -1, -2, 1, -1, 0, -2, 0,-1.0206096033203773,0.6639100159400382
1503696693101,+0.484,+0.090,-0.322,-0.808,+0.634,+0.177,-0.733,-1.500,-0.188,+0.125,0, -3, -1, -2, -2, -2, -2, -1,-1.0206096033203773,0.6639100159400382
1503696693122,+0.484,+0.090,-0.322,-0.808,+0.628,+0.181,-0.740,-1.062,-0.812,+0.438,-2, 1, -2, -1, 0, -2, -1, -2,-1.0206096033203773,0.6639100159400382
1503696693144,+0.484,+0.090,-0.322,-0.808,+0.618,+0.182,-0.741,-1.188,-1.062,+0.312,1, -4, 1, 0, -2, -1, 1, 0,-1.0206096033203773,0.6639100159400382
1503696693160,+0.484,+0.090,-0.322,-0.808,+0.623,+0.173,-0.732,-1.188,+0.188,+0.312,1, -2, -2, -1, -1, -1, 1, -1,-1.0206096033203773,0.6639100159400382
1503696693182,+0.484,+0.090,-0.322,-0.808,+0.627,+0.178,-0.746,-1.188,-0.438,+0.250,0, 0, -2, -2, 0, 0, -3, 0,-1.0206096033203773,0.6639100159400382
1503696693204,+0.484,+0.090,-0.322,-0.808,+0.624,+0.173,-0.735,-1.188,-0.375,+0.375,-2, -3, 0, -1, 0, 0, 1, -2,-1.0206096033203773,0.6639100159400382
1503696693220,+0.484,+0.090,-0.322,-0.808,+0.625,+0.170,-0.743,-1.312,+0.125,+0.500,0, -4, -1, -2, 0, 0, -2, -1,-1.0206096033203773,0.6639100159400382
1503696693242,+0.484,+0.090,-0.322,-0.808,+0.628,+0.173,-0.738,-1.625,-0.312,+0.000,-2, 0, 0, -1, 0, -1, -2, -3,-1.0206096033203773,0.6639100159400382
1503696693266,+0.484,+0.090,-0.322,-0.808,+0.630,+0.179,-0.729,-1.688,-0.062,-0.062,-1, -4, -3, -1, -2, -1, 1, 2,-1.0206096033203773,0.6639100159400382
1503696693280,+0.484,+0.090,-0.322,-0.808,+0.624,+0.177,-0.741,-1.188,-0.438,+0.250,1, 0, 0, 1, 0, 0, 0, -1,-1.0206096033203773,0.6639100159400382
1503696693303,+0.484,+0.090,-0.322,-0.808,+0.624,+0.181,-0.736,-1.500,-0.750,+0.000,-3, 0, 1, 2, 0, 1, 1, -2,-1.0206096033203773,0.6639100159400382
1503696693324,+0.484,+0.090,-0.322,-0.808,+0.625,+0.175,-0.740,-1.125,-0.188,+0.125,-1, 1, 2, 0, -1, -1, -4, -1,-1.0206096033203773,0.6639100159400382
1503696693341,+0.484,+0.090,-0.322,-0.808,+0.627,+0.181,-0.733,-1.062,-0.688,+0.500,1, 3, 0, 0, -1, -2, -3, -2,-1.0206096033203773,0.6639100159400382
1503696693361,+0.484,+0.090,-0.322,-0.808,+0.620,+0.177,-0.735,-1.312,-0.375,+0.188,-1, 0, -2, -3, -2, -3, -1, -1,-1.0206096033203773,0.6639100159400382
1503696693384,+0.484,+0.090,-0.322,-0.808,+0.624,+0.176,-0.740,-1.188,+0.375,+0.375,-5, -1, -2, -2, -1, 0, -1, 0,-1.0206096033203773,0.6639100159400382
1503696693400,+0.484,+0.090,-0.322,-0.808,+0.628,+0.176,-0.735,-1.562,-0.500,+0.500,2, 0, 3, -1, -2, -1, 0, -1,-1.0206096033203773,0.6639100159400382
1503696693421,+0.484,+0.090,-0.322,-0.808,+0.624,+0.177,-0.732,-1.375,+0.125,+0.000,2, 4, 4, 0, 0, 1, 1, 2,-1.0206096033203773,0.6639100159400382
1503696693444,+0.484,+0.090,-0.322,-0.808,+0.622,+0.174,-0.736,-1.000,-0.250,+0.625,0, 0, -2, -1, -4, -2, 1, 0,-1.0206096033203773,0.6639100159400382
1503696693460,+0.484,+0.090,-0.322,-0.808,+0.622,+0.181,-0.738,-1.438,-0.312,+0.125,-1, 5, -2, 0, 0, -2, -3, -3,-1.0206096033203773,0.6639100159400382
1503696693482,+0.484,+0.090,-0.322,-0.808,+0.625,+0.175,-0.743,-1.125,-0.250,+0.375,0, -6, -2, 0, 1, -1, 1, -1,-1.0206096033203773,0.6639100159400382
1503696693505,+0.484,+0.090,-0.322,-0.808,+0.623,+0.188,-0.741,-1.688,-0.375,+0.625,-2, -2, -2, -1, -1, 1, 0, -2,-1.0206096033203773,0.6639100159400382
1503696693527,+0.484,+0.090,-0.322,-0.808,+0.616,+0.179,-0.729,-1.500,+0.688,+0.562,0, -1, -1, -2, -1, 1, -1, -1,-1.0206096033203773,0.6639100159400382
1503696693549,+0.484,+0.090,-0.322,-0.808,+0.624,+0.174,-0.744,-1.062,-0.062,+0.812,-1, -4, -4, -2, -1, -1, 0, 0,-1.0206096033203773,0.6639100159400382
1503696693564,+0.484,+0.090,-0.322,-0.808,+0.627,+0.178,-0.735,-1.375,+0.438,+0.250,-1, 0, 0, -2, 2, -1, -2, -2,-1.0206096033203773,0.6639100159400382
1503696693580,+0.484,+0.090,-0.322,-0.808,+0.627,+0.176,-0.740,-1.250,+0.250,+0.750,0, -3, -1, 0, -2, 0, -2, 0,-1.0206096033203773,0.6639100159400382
1503696693602,+0.484,+0.090,-0.322,-0.808,+0.626,+0.181,-0.739,-1.562,+0.000,+0.312,-1, -1, -1, -2, 0, 0, 0, 0,-1.0206096033203773,0.6639100159400382
1503696693624,+0.484,+0.090,-0.322,-0.808,+0.627,+0.179,-0.735,-1.125,+0.125,+0.688,0, -3, -1, -2, -2, -2, -2, -4,-1.0206096033203773,0.6639100159400382
1503696693640,+0.484,+0.090,-0.322,-0.808,+0.624,+0.177,-0.742,-0.938,-0.375,+0.938,1, 4, 4, 0, -2, 0, 1, -1,-1.0206096033203773,0.6639100159400382
1503696693669,+0.484,+0.090,-0.322,-0.808,+0.624,+0.176,-0.736,-0.875,-0.062,+0.688,0, -3, -2, -2, 0, 0, 2, 1,-1.0206096033203773,0.6639100159400382
1503696693684,+0.484,+0.090,-0.322,-0.808,+0.626,+0.170,-0.734,-0.812,+0.062,+0.750,0, -2, -3, 0, -2, -1, 0, 1,-1.0206096033203773,0.6639100159400382
1503696693700,+0.484,+0.090,-0.322,-0.808,+0.630,+0.173,-0.738,-1.250,-0.500,+0.750,-2, -7, -2, 2, 1, 0, 1, 0,-1.0206096033203773,0.6639100159400382
1503696693722,+0.484,+0.090,-0.322,-0.808,+0.623,+0.175,-0.735,-1.250,-0.500,+0.688,-3, 0, 0, -3, -1, -2, -1, -1,-1.0206096033203773,0.6639100159400382
1503696693745,+0.484,+0.090,-0.322,-0.808,+0.612,+0.176,-0.738,-1.250,-0.125,+0.438,0, 1, 6, -1, 0, -2, -2, 0,-1.0206096033203773,0.6639100159400382
1503696693760,+0.484,+0.090,-0.322,-0.808,+0.625,+0.182,-0.745,-1.312,+0.312,+0.250,-2, 0, -2, -1, -2, -1, 0, 0,-1.0206096033203773,0.6639100159400382
1503696693782,+0.484,+0.090,-0.322,-0.808,+0.631,+0.178,-0.738,-1.250,+0.062,+0.250,-1, 3, -3, -1, 2, -1, -1, -1,-1.0206096033203773,0.6639100159400382
1503696693807,+0.484,+0.090,-0.322,-0.808,+0.625,+0.178,-0.739,-1.312,+0.000,+0.500,-1, 0, -4, -1, -2, 1, -4, -2,-1.0206096033203773,0.6639100159400382
1503696693820,+0.484,+0.090,-0.322,-0.808,+0.624,+0.179,-0.734,-1.062,-0.938,+0.500,0, -1, -1, -1, -3, -1, -1, -1,-1.0206096033203773,0.6639100159400382
1503696693843,+0.484,+0.090,-0.322,-0.808,+0.625,+0.180,-0.742,-1.188,+0.375,+0.688,0, -1, -3, 0, 0, -3, 0, -2,-1.0206096033203773,0.6639100159400382
1503696693864,+0.484,+0.090,-0.322,-0.808,+0.626,+0.182,-0.740,-0.938,-0.438,+0.812,-1, 1, 1, 0, -2, 0, 2, 0,-1.0206096033203773,0.6639100159400382
1503696693880,+0.484,+0.090,-0.322,-0.808,+0.624,+0.175,-0.731,-1.500,+0.062,+0.688,-1, 2, -4, -1, 1, -1, 1, 0,-1.0206096033203773,0.6639100159400382
1503696693905,+0.484,+0.090,-0.322,-0.808,+0.624,+0.174,-0.739,-1.188,+0.438,+0.625,-1, -4, -2, -2, 1, -3, -2, -1,-1.0206096033203773,0.6639100159400382
1503696693924,+0.485,+0.090,-0.322,-0.808,+0.623,+0.180,-0.732,-1.250,+0.000,+0.812,-2, -3, -2, 0, -3, -1, -1, 3,-1.0231422106762047,0.6640538028637012
1503696693943,+0.485,+0.090,-0.322,-0.808,+0.629,+0.176,-0.739,-1.188,+0.312,+0.750,0, -1, -2, -2, 0, -2, -1, 0,-1.0231422106762047,0.6640538028637012
1503696693963,+0.485,+0.090,-0.322,-0.808,+0.629,+0.176,-0.740,-0.812,-0.188,+0.500,2, 0, 2, -1, -1, 1, 0, 1,-1.0231422106762047,0.6640538028637012
1503696693984,+0.485,+0.090,-0.322,-0.808,+0.625,+0.176,-0.738,-1.312,-0.188,+0.562,-2, 7, -3, -3, -1, 0, -2, -2,-1.0231422106762047,0.6640538028637012
1503696694000,+0.485,+0.090,-0.322,-0.808,+0.623,+0.176,-0.736,-1.250,-0.250,+0.562,2, 3, 2, 1, -1, 0, -1, 0,-1.0231422106762047,0.6640538028637012
1503696694022,+0.485,+0.090,-0.322,-0.808,+0.624,+0.175,-0.737,-1.375,+0.375,+0.500,-1, -3, -4, 0, 0, 0, 1, -2,-1.0231422106762047,0.6640538028637012
1503696694044,+0.485,+0.090,-0.322,-0.808,+0.623,+0.178,-0.738,-1.312,-0.062,+0.438,-2, -4, -3, 2, -1, 0, -1, 0,-1.0231422106762047,0.6640538028637012
1503696694060,+0.485,+0.090,-0.322,-0.808,+0.625,+0.175,-0.739,-1.125,-0.188,+0.500,2, 1, -1, -2, 1, -1, -1, 0,-1.0231422106762047,0.6640538028637012
1503696694082,+0.485,+0.090,-0.322,-0.808,+0.620,+0.178,-0.731,-1.250,+0.500,+0.625,-3, -9, -6, 1, 0, -2, -2, 1,-1.0231422106762047,0.6640538028637012
1503696694106,+0.484,+0.090,-0.322,-0.808,+0.624,+0.175,-0.740,-1.000,+1.250,+0.750,-1, -4, -4, -4, 0, 0, -2, -2,-1.0206096033203773,0.6639100159400382
1503696694120,+0.485,+0.090,-0.322,-0.808,+0.629,+0.180,-0.729,-0.875,+0.312,+0.688,-1, -1, 0, -2, -1, 0, -1, -2,-1.0231422106762047,0.6640538028637012
1503696694142,+0.484,+0.090,-0.322,-0.808,+0.632,+0.174,-0.731,-1.000,+0.125,+0.438,-1, -1, -3, -1, 0, 1, -2, -3,-1.0206096033203773,0.6639100159400382
1503696694164,+0.484,+0.090,-0.322,-0.808,+0.630,+0.172,-0.735,-1.125,+0.250,+0.500,-3, -4, -1, 0, -2, -2, -3, 1,-1.0206096033203773,0.6639100159400382
1503696694181,+0.484,+0.090,-0.322,-0.808,+0.625,+0.173,-0.732,-1.188,+0.125,+0.000,2, -1, 0, 0, -1, -4, -2, -3,-1.0206096033203773,0.6639100159400382
1503696694202,+0.484,+0.090,-0.322,-0.808,+0.642,+0.162,-0.737,-1.938,+1.000,-0.375,1, 0, 2, 0, 0, 1, 1, 2,-1.0206096033203773,0.6639100159400382
1503696694224,+0.485,+0.090,-0.322,-0.808,+0.630,+0.163,-0.752,-3.000,-0.375,-0.562,-4, -3, -4, -2, -2, 0, 0, 0,-1.0231422106762047,0.6640538028637012
1503696694241,+0.485,+0.089,-0.322,-0.808,+0.594,+0.176,-0.757,-4.250,+0.188,-0.812,1, 1, 1, -2, -1, -1, 4, 0,-1.0224918479465859,0.6630549327646352
1503696694262,+0.484,+0.089,-0.323,-0.808,+0.596,+0.185,-0.732,-4.875,+3.875,+0.750,0, -2, -2, -2, 0, -3, -4, -5,-1.0200526192129624,0.665010632107583
1503696694284,+0.484,+0.088,-0.324,-0.808,+0.628,+0.223,-0.752,-6.438,+8.500,+1.438,-1, -1, 0, 0, 0, 0, 0, 0,-1.0194967299406235,0.6661170114624735
1503696694300,+0.483,+0.089,-0.326,-0.807,+0.660,+0.211,-0.748,-4.312,+11.812,+2.500,-2, 0, -2, -1, 0, 0, 0, 1,-1.0172902966649593,0.6706604661156238
1503696694322,+0.483,+0.089,-0.328,-0.807,+0.620,+0.171,-0.711,-4.125,+10.562,+2.875,-2, 4, 0, -1, 0, -2, -1, -3,-1.0174803039565106,0.6748788970096611
1503696694344,+0.482,+0.090,-0.330,-0.807,+0.635,+0.164,-0.710,-4.938,+10.000,+2.250,-2, -2, -1, -1, -2, -2, -3, 0,-1.0158038430103673,0.6799568910654088
1503696694360,+0.481,+0.090,-0.331,-0.806,+0.663,+0.168,-0.723,-5.938,+8.312,+1.625,2, 0, -1, -1, 1, -1, 2, -1,-1.012857861762767,0.6814108961877411
1503696694383,+0.481,+0.091,-0.333,-0.806,+0.665,+0.166,-0.710,-6.750,+5.562,+2.062,0, -3, -2, -2, -3, 0, -1, -1,-1.0137212147937964,0.6866424008653947
1503696694404,+0.480,+0.090,-0.334,-0.806,+0.645,+0.170,-0.709,-6.688,+3.312,+1.062,-1, 1, 1, 3, 0, 0, -1, 2,-1.0106247602043306,0.6876376141796573
1503696694420,+0.480,+0.090,-0.334,-0.806,+0.642,+0.181,-0.726,-6.688,+2.562,-0.750,-3, -4, 0, 0, -3, -2, -1, -3,-1.0106247602043306,0.6876376141796573
1503696694442,+0.480,+0.089,-0.335,-0.806,+0.639,+0.200,-0.732,-6.125,+4.688,+0.312,-2, -1, 1, -2, 0, -2, -4, 1,-1.0100520133354067,0.6887817121932088
1503696694464,+0.480,+0.089,-0.336,-0.806,+0.629,+0.180,-0.715,-4.562,+5.500,+0.250,0, 1, 1, 1, 1, -1, 0, -2,-1.0101481919493946,0.6909131974875522
1503696694480,+0.479,+0.089,-0.337,-0.805,+0.635,+0.177,-0.717,-4.812,+6.500,-0.312,-1, -1, -5, -1, -1, 0, 1, -1,-1.0072025446969515,0.6923808609670173
1503696694502,+0.479,+0.089,-0.339,-0.805,+0.651,+0.193,-0.718,-5.062,+8.000,-0.938,-2, -1, -6, 0, -1, 0, -1, 0,-1.007395911622218,0.6966562143216644
1503696694525,+0.479,+0.089,-0.340,-0.804,+0.663,+0.203,-0.697,-4.000,+7.000,-0.750,-1, -2, -2, -1, 0, 0, -3, -5,-1.0069720880199766,0.6982682442455762
1503696694542,+0.479,+0.089,-0.341,-0.804,+0.659,+0.205,-0.703,-3.875,+4.875,-0.125,0, 0, 0, 0, 0, 0, 0, 1,-1.00706885680672,0.7004119180179261
1503696694563,+0.479,+0.089,-0.342,-0.804,+0.661,+0.201,-0.694,-2.500,+3.312,-0.375,-3, -6, 2, -3, -3, -2, -4, -4,-1.0071655959762273,0.7025582426934203
1503696694585,+0.479,+0.089,-0.343,-0.803,+0.656,+0.200,-0.697,-2.750,+1.688,-0.750,-3, 2, 0, 0, -2, -1, 2, 0,-1.006741463226976,0.7041753513877107
1503696694600,+0.479,+0.089,-0.343,-0.803,+0.662,+0.194,-0.711,-2.750,+0.938,-0.375,0, -2, -2, -1, 1, 0, -2, -2,-1.006741463226976,0.7041753513877107
1503696694623,+0.479,+0.089,-0.343,-0.803,+0.657,+0.200,-0.713,-3.188,+0.438,+0.312,-1, -4, -1, -2, 0, 1, -1, 3,-1.006741463226976,0.7041753513877107
1503696694646,+0.479,+0.089,-0.343,-0.803,+0.645,+0.204,-0.719,-2.625,+2.812,+0.812,-1, 1, -3, -1, -1, 0, 1, -2,-1.006741463226976,0.7041753513877107
1503696694660,+0.479,+0.089,-0.344,-0.803,+0.642,+0.192,-0.708,-1.875,+4.688,+0.062,-2, -6, -9, 0, 0, 0, -1, -2,-1.0068383026101413,0.7063264024030499
1503696694683,+0.479,+0.089,-0.345,-0.803,+0.653,+0.197,-0.707,-2.312,+5.125,+0.312,-3, -8, -5, 0, -2, -3, 0, -2,-1.0069351123479782,0.7084801150659469
1503696694705,+0.478,+0.089,-0.346,-0.802,+0.658,+0.199,-0.718,-2.438,+7.312,+0.625,-1, 6, 2, -2, -1, -1, -3, -4,-1.0039897753695335,0.7099649815932733
1503696694720,+0.478,+0.090,-0.347,-0.802,+0.656,+0.200,-0.691,-2.688,+7.750,+1.125,0, 6, 6, 0, 0, -1, -2, -4,-1.0047738154309338,0.7130985401003946
1503696694744,+0.477,+0.091,-0.349,-0.801,+0.817,+0.192,-0.660,-1.750,+6.500,+2.125,-1, -2, 0, 0, -2, -2, -2, 4,-1.0026240168607308,0.7177231111556712
1503696694765,+0.477,+0.091,-0.349,-0.801,+0.638,+0.196,-0.728,-3.875,+1.312,+1.625,0, 1, 1, 2, -2, -2, -1, -3,-1.0026240168607308,0.7177231111556712
1503696694780,+0.476,+0.091,-0.351,-0.801,+0.667,+0.197,-0.695,-5.062,+7.438,+2.688,-1, -1, -4, -3, 0, -1, 2, 0,-1.0003095043911696,0.7219165438060554
1503696694803,+0.476,+0.091,-0.352,-0.801,+0.647,+0.199,-0.694,-4.625,+8.562,+2.875,1, 1, 1, -2, 0, 1, -1, 1,-1.0004095846224341,0.7240870728967643
1503696694826,+0.475,+0.092,-0.353,-0.801,+0.670,+0.200,-0.708,-5.062,+9.688,+2.438,1, 1, 4, 0, -1, -1, -1, 1,-0.9987010037950755,0.727092292434994
1503696694840,+0.475,+0.092,-0.353,-0.801,+0.622,+0.184,-0.692,-1.125,-0.438,+5.062,-2, -5, -4, -1, -3, -1, -4, -4,-0.9987010037950755,0.727092292434994
1503696694863,+0.474,+0.092,-0.354,-0.801,+0.641,+0.186,-0.695,-3.938,+7.000,+3.812,-2, -3, -4, -1, 1, 1, 3, -2,-0.9962945855322205,0.7291279289970986
1503696694885,+0.473,+0.092,-0.355,-0.801,+0.688,+0.204,-0.675,-5.375,+7.938,+4.062,1, 10, 12, 0, 1, -1, -1, 3,-0.9938908022981557,0.7311667405687845
1503696694901,+0.473,+0.092,-0.355,-0.801,+0.642,+0.186,-0.708,-5.062,+1.562,+2.750,0, -1, 3, -1, 1, 1, 2, -5,-0.9938908022981557,0.7311667405687845
1503696694923,+0.472,+0.092,-0.356,-0.801,+0.686,+0.182,-0.693,-4.875,+5.875,+3.250,1, -1, -1, 0, 0, -2, -4, 1,-0.9914896671583773,0.7332087298360971
1503696694945,+0.471,+0.092,-0.358,-0.801,+0.735,+0.212,-0.698,-5.625,+5.625,+1.750,-2, 0, -2, -1, -1, 0, -5, -3,-0.9891941610411065,0.7374409846387897
1503696694960,+0.471,+0.093,-0.359,-0.800,+0.660,+0.202,-0.722,-2.750,+10.062,+0.375,-10, -3, -2, -1, 1, -2, -2, 1,-0.989486733142529,0.7400533121520827
1503696694984,+0.472,+0.093,-0.360,-0.800,+0.702,+0.192,-0.669,+0.625,+5.438,-3.125,10, 2, -1, 0, -1, -1, 2, 2,-0.9920903610353532,0.7423840870046746
1503696695005,+0.471,+0.096,-0.362,-0.799,+0.730,+0.135,-0.660,+2.125,+19.188,+0.750,30, 8, 2, -3, -4, -15, -8, -17,-0.9914506968293967,0.7489892835786985
1503696695021,+0.472,+0.098,-0.363,-0.797,+0.676,+0.104,-0.664,+1.000,+10.875,-7.062,21, -6, -1, -3, -1, -1, 3, 1,-0.9944735215971953,0.7521919938307093
1503696695045,+0.471,+0.097,-0.364,-0.798,+0.828,+0.207,-0.703,-7.000,-4.188,-0.125,-93, -12, -3, -3, -1, 17, 3, -1,-0.9918742292561674,0.7538121667538482
1503696695065,+0.470,+0.097,-0.362,-0.799,+0.721,+0.154,-0.651,-3.625,-15.000,+6.438,-31, -31, -5, -6, 1, -5, -5, -10,-0.9896896244695708,0.7498142700512029
1503696695080,+0.470,+0.094,-0.359,-0.801,+0.573,+0.186,-0.619,-9.438,-21.500,+3.125,31, 0, 6, 19, 20, 32, -9, -20,-0.988236381014129,0.7414164124653867
1503696695103,+0.469,+0.091,-0.358,-0.802,+0.686,+0.185,-0.644,-14.062,-21.312,+3.438,-9, 9, -2, -11, -7, 27, -37, 3,-0.9840131631694424,0.7367454509392914
1503696695131,+0.468,+0.086,-0.357,-0.804,+0.713,+0.286,-0.696,-16.938,-23.188,+4.938,7, -5, 2, 3, -1, -5, 11, 4,-0.9789522913504901,0.7307482668142096
1503696695140,+0.467,+0.082,-0.354,-0.806,+0.666,+0.277,-0.678,-13.375,-27.812,+4.812,-19, -3, 1, -2, -7, -22, 4, 2,-0.9744725819932291,0.7213686742921864
1503696695163,+0.467,+0.079,-0.351,-0.808,+0.611,+0.247,-0.712,-8.188,-21.812,+4.312,12, 2, -3, -2, -5, -14, 1, 0,-0.973238584923749,0.7130892473099432
1503696695185,+0.466,+0.077,-0.351,-0.808,+0.644,+0.247,-0.706,-8.000,-9.750,+1.438,3, 4, -5, -1, -1, -9, 2, 4,-0.9693997569151941,0.7111101858054883
1503696695200,+0.466,+0.075,-0.350,-0.809,+0.633,+0.235,-0.710,-5.562,-8.438,+4.000,-4, 0, 0, 0, 2, 8, 10, 2,-0.9685279254099874,0.7076177890181075
1503696695223,+0.466,+0.074,-0.349,-0.810,+0.664,+0.209,-0.697,-5.375,-8.500,+1.312,12, 2, -2, 0, 0, -4, -1, -1,-0.9683256821644859,0.7050536754310762
1503696695247,+0.465,+0.073,-0.347,-0.811,+0.696,+0.197,-0.739,-4.938,-12.250,+6.000,-6, 5, -1, -2, -4, -12, -12, -9,-0.9655380490493165,0.7001960752489234
1503696695260,+0.464,+0.073,-0.346,-0.812,+0.703,+0.208,-0.741,-4.375,-10.188,+4.312,2, -13, -3, -1, 0, 13, 5, -1,-0.9634894242489723,0.6984436870137654
1503696695284,+0.464,+0.072,-0.345,-0.813,+0.637,+0.184,-0.748,-2.250,-8.500,+3.562,-10, 6, 1, 1, -2, -20, -3, -3,-0.9632998705645011,0.6958896242929398
1503696695305,+0.463,+0.073,-0.343,-0.814,+0.645,+0.172,-0.759,+1.938,-4.625,+7.062,8, -8, -5, -3, -2, -2, 0, 3,-0.9618136201589261,0.6928820604821974
1503696695326,+0.462,+0.074,-0.341,-0.816,+0.629,+0.131,-0.751,+4.125,-9.062,+11.812,6, -2, 0, 0, -2, -7, 1, 2,-0.9608687167776111,0.6904187856070212
1503696695343,+0.461,+0.073,-0.336,-0.818,+0.578,+0.187,-0.794,+4.750,-22.688,+8.438,-5, -5, -1, -4, -3, -3, 1, 1,-0.9583815847625258,0.6796424597913852
1503696695365,+0.461,+0.071,-0.330,-0.821,+0.623,+0.181,-0.765,-2.000,-40.250,+8.188,-4, -3, 0, -2, -3, 7, 1, -3,-0.9582353616235016,0.6664958181105031
1503696695382,+0.460,+0.069,-0.324,-0.824,+0.572,+0.179,-0.756,+2.062,-36.188,+8.375,-4, -2, -2, -2, -3, -3, 5, 0,-0.9556336389110466,0.6532985325598613
1503696695403,+0.460,+0.067,-0.318,-0.826,+0.571,+0.171,-0.761,+4.562,-38.625,+7.062,-3, -10, -5, -5, 8, -3, -2, 0,-0.9550291028675096,0.6397546027090288
1503696695425,+0.460,+0.065,-0.312,-0.829,+0.606,+0.197,-0.751,+2.812,-40.625,+6.875,5, 10, -1, -9, -10, -8, 1, -2,-0.9550066508309848,0.6267906473030838
1503696695449,+0.460,+0.062,-0.305,-0.832,+0.569,+0.183,-0.729,+2.375,-47.188,+7.062,0, 3, 1, 2, -1, -1, -3, 0,-0.9543865173740765,0.6108729529536714
1503696695463,+0.460,+0.058,-0.298,-0.835,+0.522,+0.186,-0.729,-0.250,-46.188,+5.312,3, 0, -2, 4, 2, 16, 2, 0,-0.9533020554906076,0.5941258868508599
1503696695486,+0.460,+0.055,-0.293,-0.836,+0.490,+0.194,-0.702,-1.625,-34.375,+3.062,3, 0, -1, 4, 0, -1, 0, -1,-0.9519056640612161,0.5815151988299607
1503696695507,+0.460,+0.053,-0.291,-0.837,+0.483,+0.183,-0.673,-5.062,-17.000,+1.312,1, -1, 3, 3, 1, 0, 3, 1,-0.9512743186466905,0.5760607367271167
1503696695523,+0.460,+0.051,-0.291,-0.837,+0.531,+0.207,-0.673,-8.812,-8.500,-3.250,-3, -8, -2, -1, -1, 7, 1, -11,-0.9502422066450446,0.5742607250993613
1503696695545,+0.460,+0.049,-0.292,-0.837,+0.548,+0.220,-0.662,-11.625,-6.312,-6.875,1, -2, -1, 1, -2, 7, 1, -9,-0.9492799464996818,0.5745424112310697
1503696695567,+0.461,+0.045,-0.293,-0.837,+0.550,+0.222,-0.667,-15.750,-10.938,-8.312,-7, -4, -1, 1, 5, 7, 1, 8,-0.9498436173777778,0.5731344708576436
1503696695583,+0.461,+0.038,-0.291,-0.837,+0.271,+0.252,-0.766,-28.938,-11.125,-6.688,-2, 0, 3, 16, 5, -7, -16, 4,-0.9463482996954883,0.5627810983182747
1503696695605,+0.462,+0.036,-0.292,-0.836,+0.794,+0.245,-0.811,-12.562,-18.438,-14.500,-3, -3, -3, -2, -3, -4, 2, 7,-0.9474304062554649,0.5626658780540339
1503696695627,+0.462,+0.034,-0.290,-0.838,+0.926,+0.359,-0.959,-2.062,-31.562,+2.812,-2, -2, -2, -4, -4, -5, 1, -3,-0.9475226794909222,0.557754487988259
1503696695643,+0.460,+0.034,-0.287,-0.840,+0.619,+0.162,-0.756,+2.750,-22.125,+14.875,1, 5, -1, -5, -4, -5, 0, -2,-0.9434394093080204,0.5523994987800526
1503696695666,+0.460,+0.033,-0.284,-0.841,+0.455,+0.153,-0.715,-3.500,-19.750,+1.125,6, 1, -1, -3, -2, -3, -4, 37,-0.9434173360067324,0.5458008477822627
1503696695687,+0.459,+0.029,-0.283,-0.842,+0.561,+0.176,-0.720,-16.375,-24.312,-4.750,1, 7, 0, -3, 1, -1, 3, 25,-0.9396271845316139,0.540691416635739
1503696695703,+0.459,+0.023,-0.278,-0.843,+0.540,+0.242,-0.807,-20.375,-45.312,-2.500,-1, -4, -4, -1, -1, 1, 1, -71,-0.9374736020251571,0.5256591876183904
1503696695725,+0.458,+0.016,-0.273,-0.846,+0.437,+0.291,-0.832,-19.812,-45.500,+6.312,4, 6, 1, 1, -1, -1, -1, -34,-0.9336907744762337,0.5107847480612145
1503696695747,+0.457,+0.010,-0.267,-0.848,+0.373,+0.279,-0.834,-12.938,-37.750,+6.125,1, -2, 3, 3, 0, 0, 1, -12,-0.9299304052499996,0.49429483319571715
1503696695763,+0.456,+0.007,-0.263,-0.850,+0.348,+0.267,-0.847,-7.500,-23.375,+6.000,1, 0, 0, 0, -1, 0, 3, 0,-0.927403279069254,0.48450452610992295
1503696695785,+0.456,+0.005,-0.261,-0.851,+0.389,+0.279,-0.849,-2.938,-13.938,+3.000,-3, -1, -3, -2, 0, -1, -2, -1,-0.927265220808208,0.4792037619676635
1503696695807,+0.456,+0.005,-0.260,-0.851,+0.430,+0.234,-0.847,+0.938,-3.625,+3.000,2, 3, -1, -2, -1, 0, -1, -1,-0.9272590567041606,0.47715881022228124
1503696695823,+0.456,+0.005,-0.259,-0.852,+0.462,+0.228,-0.841,+1.000,-4.438,+3.812,0, 0, -3, -1, -2, 1, -2, -1,-0.9278146515464405,0.47558933035962525
1503696695845,+0.455,+0.005,-0.258,-0.852,+0.481,+0.226,-0.824,+0.062,-1.562,+4.688,-3, -6, -3, -1, -2, -1, -3, 0,-0.9252620743549126,0.47353880208503946
1503696695862,+0.454,+0.006,-0.259,-0.852,+0.508,+0.242,-0.820,+1.875,-0.188,+3.438,-4, 0, -1, 1, 1, 1, 1, 3,-0.923062785837094,0.4764099862391695
1503696695882,+0.454,+0.007,-0.258,-0.853,+0.516,+0.232,-0.809,+3.625,-2.562,+2.375,-2, -3, -1, 1, 1, -2, -3, -2,-0.9239577635125069,0.47568068610366976
1503696695904,+0.454,+0.008,-0.257,-0.853,+0.517,+0.226,-0.805,+4.188,-8.562,+1.188,-1, -2, -1, -3, -1, -2, -2, -1,-0.9242912069158608,0.47448407038097906
1503696695927,+0.454,+0.008,-0.256,-0.853,+0.509,+0.208,-0.820,+4.125,-12.000,+1.250,-2, -1, -2, 0, -1, 1, -2, 2,-0.9242813262784378,0.47244826187388006
1503696695941,+0.454,+0.008,-0.253,-0.854,+0.489,+0.210,-0.851,+3.250,-15.188,+0.438,-1, 0, -2, -3, -1, -3, -1, -2,-0.9248120439805974,0.4668183247198361
1503696695971,+0.455,+0.007,-0.251,-0.855,+0.443,+0.208,-0.851,+2.688,-14.625,+0.062,-1, -3, -2, -2, -1, -2, -2, 0,-0.927558127378635,0.4623926746505659
1503696695989,+0.455,+0.007,-0.248,-0.855,+0.425,+0.211,-0.850,+2.438,-12.188,-1.188,-3, -6, 0, -2, -1, -1, 2, 1,-0.927532336018056,0.45632527775697695
1503696696001,+0.456,+0.006,-0.246,-0.855,+0.421,+0.216,-0.854,+1.250,-9.562,-1.812,0, 0, -1, 0, 0, 1, -2, 0,-0.9297346890929372,0.4514536498736604
1503696696024,+0.456,+0.005,-0.245,-0.856,+0.421,+0.243,-0.859,+0.438,-6.938,-1.438,1, 1, -1, -1, 0, -2, 0, -1,-0.9299676257504653,0.44904108306450885
1503696696046,+0.456,+0.005,-0.244,-0.856,+0.417,+0.224,-0.853,+0.625,-5.750,+0.188,-1, -1, 1, 0, -2, -1, -1, -1,-0.9299615060295837,0.44702767942640886
1503696696062,+0.456,+0.005,-0.243,-0.856,+0.410,+0.215,-0.840,+0.688,-1.562,+0.375,2, 1, -1, -1, -2, -2, 1, -4,-0.9299553862082746,0.44501662271890136
1503696696087,+0.456,+0.005,-0.243,-0.856,+0.443,+0.225,-0.854,+0.062,+0.250,+0.812,-1, -1, 0, -1, 0, 2, 0, 0,-0.9299553862082746,0.44501662271890136
1503696696107,+0.456,+0.006,-0.243,-0.856,+0.454,+0.225,-0.847,+0.188,-1.125,+1.625,-2, -2, 0, 0, 0, -3, 1, -1,-0.9302707419100044,0.44586853588708164
1503696696122,+0.456,+0.006,-0.242,-0.856,+0.444,+0.217,-0.844,+0.000,-1.875,+2.062,-3, -1, 0, -1, -2, 0, -3, -1,-0.9302634039251056,0.44386046228589493
1503696696144,+0.456,+0.006,-0.242,-0.856,+0.445,+0.220,-0.847,+0.000,-0.375,+1.812,-3, -3, 0, -2, -1, -3, 0, 2,-0.9302634039251056,0.44386046228589493
1503696696167,+0.456,+0.006,-0.242,-0.857,+0.449,+0.215,-0.845,+0.438,-0.500,+1.375,-1, -1, -1, -2, -1, -2, -1, -1,-0.9308206792531415,0.44430751932842355
1503696696181,+0.456,+0.007,-0.242,-0.857,+0.447,+0.208,-0.846,-0.125,-0.688,+0.750,-1, -2, -2, -1, 0, 1, 0, -1,-0.9311374077065568,0.44516083698633163
1503696696204,+0.456,+0.007,-0.242,-0.857,+0.447,+0.223,-0.849,-0.750,-1.062,+1.062,0, -2, 0, 0, 0, -1, -3, -2,-0.9311374077065568,0.44516083698633163
1503696696227,+0.456,+0.007,-0.242,-0.857,+0.438,+0.226,-0.846,-0.688,-1.312,+1.562,0, 0, 0, -1, -2, -1, 2, -1,-0.9311374077065568,0.44516083698633163
1503696696241,+0.455,+0.007,-0.242,-0.857,+0.431,+0.217,-0.847,-0.250,-0.938,+2.125,-2, 4, 0, -1, -1, -2, -1, -2,-0.9285969012357196,0.44514791838598744
1503696696264,+0.455,+0.007,-0.242,-0.857,+0.442,+0.201,-0.853,-1.062,-0.375,+1.562,-3, -3, -2, -1, -1, 0, -2, -1,-0.9285969012357196,0.44514791838598744
1503696696289,+0.455,+0.007,-0.241,-0.857,+0.441,+0.215,-0.854,-1.312,+0.500,+1.125,-1, 0, -1, -1, 1, -1, -1, -1,-0.9285883281326044,0.4431413120533119
1503696696302,+0.455,+0.007,-0.241,-0.857,+0.438,+0.221,-0.840,-0.688,+0.062,+0.938,0, -1, -2, -2, -2, 0, -1, -1,-0.9285883281326044,0.4431413120533119
1503696696324,+0.455,+0.007,-0.241,-0.857,+0.439,+0.214,-0.844,-0.938,+0.500,+0.500,-1, -1, -2, 0, -1, -1, 0, 1,-0.9285883281326044,0.4431413120533119
1503696696346,+0.455,+0.007,-0.242,-0.857,+0.456,+0.222,-0.856,-0.562,+0.938,+0.625,4, 0, 0, 0, -2, -2, -2, 0,-0.9285969012357196,0.44514791838598744
1503696696361,+0.455,+0.007,-0.242,-0.857,+0.446,+0.208,-0.844,-0.438,-1.062,+0.750,-1, 2, 0, 0, 1, 1, -3, -2,-0.9285969012357196,0.44514791838598744
1503696696384,+0.455,+0.007,-0.242,-0.857,+0.437,+0.210,-0.845,-1.125,-0.938,+0.312,-3, -1, 0, 1, -1, 0, 2, -2,-0.9285969012357196,0.44514791838598744
1503696696406,+0.455,+0.007,-0.242,-0.857,+0.441,+0.214,-0.845,-1.062,+0.062,+0.125,-3, -1, -2, 0, -2, -1, 0, -3,-0.9285969012357196,0.44514791838598744
1503696696422,+0.455,+0.007,-0.242,-0.857,+0.443,+0.210,-0.842,-1.125,-0.562,-0.125,-1, 1, -1, -1, -1, -2, -2, 0,-0.9285969012357196,0.44514791838598744
1503696696444,+0.455,+0.007,-0.242,-0.857,+0.438,+0.210,-0.854,-1.188,-0.625,+0.125,0, -2, 1, -2, 1, -2, 0, 1,-0.9285969012357196,0.44514791838598744
1503696696467,+0.455,+0.007,-0.242,-0.857,+0.444,+0.225,-0.845,-1.750,-1.062,-0.188,-1, -4, -4, -3, -1, 0, -1, 0,-0.9285969012357196,0.44514791838598744
1503696696481,+0.455,+0.007,-0.242,-0.857,+0.435,+0.217,-0.839,-1.500,-0.750,+0.312,-1, -3, 0, -3, -1, 0, -1, 0,-0.9285969012357196,0.44514791838598744
1503696696504,+0.455,+0.007,-0.242,-0.857,+0.441,+0.215,-0.850,-1.062,-0.688,+0.625,0, 1, -1, -1, 1, 0, -1, 0,-0.9285969012357196,0.44514791838598744
1503696696527,+0.455,+0.007,-0.242,-0.857,+0.444,+0.214,-0.842,-1.375,-1.125,+0.625,0, 0, -2, 0, -3, -1, -2, -1,-0.9285969012357196,0.44514791838598744
1503696696541,+0.455,+0.007,-0.241,-0.857,+0.439,+0.210,-0.850,-1.375,-1.375,+0.688,-1, 0, -2, 1, -1, -2, -1, 0,-0.9285883281326044,0.4431413120533119
1503696696565,+0.455,+0.007,-0.241,-0.857,+0.436,+0.217,-0.846,-1.500,-0.500,+0.438,1, -1, 0, 0, -2, -3, -2, 0,-0.9285883281326044,0.4431413120533119
1503696696596,+0.455,+0.007,-0.241,-0.857,+0.433,+0.219,-0.842,-1.250,+0.188,+0.750,-1, -1, -3, -2, 1, 2, 2, 1,-0.9285883281326044,0.4431413120533119
1503696696602,+0.455,+0.007,-0.241,-0.857,+0.449,+0.220,-0.853,-1.188,-0.250,+0.125,-1, -2, -2, -1, -2, -1, 0, -2,-0.9285883281326044,0.4431413120533119
1503696696626,+0.455,+0.007,-0.241,-0.857,+0.443,+0.220,-0.843,-1.250,-0.125,+0.000,-2, 0, 0, -1, 0, 0, 0, 0,-0.9285883281326044,0.4431413120533119
1503696696648,+0.455,+0.007,-0.241,-0.857,+0.438,+0.218,-0.843,-0.812,-0.875,+0.125,-2, -5, -1, -2, 1, -3, -2, -2,-0.9285883281326044,0.4431413120533119
1503696696662,+0.455,+0.007,-0.241,-0.857,+0.441,+0.211,-0.850,-1.000,-0.188,+0.438,1, -1, -1, 0, -2, -2, 0, -3,-0.9285883281326044,0.4431413120533119
1503696696684,+0.455,+0.007,-0.241,-0.857,+0.446,+0.216,-0.851,-1.312,-0.250,+0.125,-1, 2, 1, -1, -3, 2, -2, -2,-0.9285883281326044,0.4431413120533119
1503696696706,+0.455,+0.007,-0.241,-0.857,+0.438,+0.218,-0.849,-1.000,-0.375,+0.250,0, 2, -1, 0, 0, 0, -1, -1,-0.9285883281326044,0.4431413120533119
1503696696725,+0.455,+0.007,-0.241,-0.857,+0.432,+0.220,-0.850,-1.312,-0.500,+0.375,-1, -1, -1, 0, -1, 1, 0, 0,-0.9285883281326044,0.4431413120533119
1503696696744,+0.455,+0.007,-0.241,-0.857,+0.434,+0.210,-0.851,-0.938,+0.438,+0.125,2, 2, -1, -1, -2, -1, 2, 0,-0.9285883281326044,0.4431413120533119
1503696696766,+0.455,+0.007,-0.241,-0.857,+0.440,+0.221,-0.848,-1.188,+0.438,+0.188,0, -2, -1, -1, -1, -1, -2, 0,-0.9285883281326044,0.4431413120533119
1503696696781,+0.455,+0.007,-0.241,-0.857,+0.442,+0.219,-0.850,-1.000,+0.625,+0.125,-2, -2, -1, 0, -2, -3, -3, -3,-0.9285883281326044,0.4431413120533119
1503696696804,+0.455,+0.007,-0.241,-0.857,+0.439,+0.217,-0.850,-1.000,-0.125,+0.375,0, 0, -1, -2, 0, -1, 1, 0,-0.9285883281326044,0.4431413120533119
1503696696828,+0.455,+0.007,-0.241,-0.857,+0.445,+0.216,-0.855,-0.938,-0.312,+0.188,-3, -2, -3, -1, -1, 0, 0, -2,-0.9285883281326044,0.4431413120533119
1503696696841,+0.455,+0.007,-0.241,-0.857,+0.439,+0.213,-0.843,-1.438,-0.062,+0.562,-4, -4, -2, -2, 1, 0, -3, 1,-0.9285883281326044,0.4431413120533119
1503696696864,+0.455,+0.007,-0.241,-0.857,+0.441,+0.220,-0.841,-1.250,-0.188,+0.500,1, 4, 2, 2, 1, 0, 1, 0,-0.9285883281326044,0.4431413120533119
1503696696886,+0.455,+0.007,-0.241,-0.857,+0.439,+0.216,-0.853,-1.375,+0.250,+0.938,-1, 0, 1, 0, 0, -4, -2, 0,-0.9285883281326044,0.4431413120533119
1503696696901,+0.455,+0.007,-0.241,-0.857,+0.442,+0.218,-0.849,-1.188,+0.250,+0.250,2, 1, 1, -1, -2, 0, -1, -1,-0.9285883281326044,0.4431413120533119
1503696696926,+0.455,+0.007,-0.241,-0.857,+0.440,+0.216,-0.852,-0.812,+0.000,+0.562,0, -5, -2, -2, 0, 0, -1, 0,-0.9285883281326044,0.4431413120533119
1503696696947,+0.455,+0.007,-0.241,-0.857,+0.438,+0.212,-0.846,-0.875,-0.312,+0.625,-2, 1, -1, -1, 0, -1, 0, 0,-0.9285883281326044,0.4431413120533119
1503696696963,+0.455,+0.007,-0.241,-0.857,+0.441,+0.218,-0.849,-1.188,-0.250,+0.625,-2, 0, -2, -2, -3, -2, -1, -3,-0.9285883281326044,0.4431413120533119
1503696696984,+0.455,+0.007,-0.241,-0.857,+0.438,+0.221,-0.853,-0.938,+0.250,+0.562,-2, 0, 1, 0, 0, 0, 1, 2,-0.9285883281326044,0.4431413120533119
1503696697007,+0.455,+0.007,-0.241,-0.857,+0.444,+0.211,-0.845,-0.938,-0.062,+0.875,-2, 0, 0, -2, -2, -1, 0, -2,-0.9285883281326044,0.4431413120533119
1503696697022,+0.455,+0.007,-0.241,-0.857,+0.445,+0.217,-0.847,-1.000,-0.250,+0.688,1, 0, -1, -2, -2, 1, 0, -1,-0.9285883281326044,0.4431413120533119
1503696697044,+0.455,+0.007,-0.241,-0.857,+0.436,+0.215,-0.841,-0.750,-0.062,+0.750,-2, -2, -3, -1, 0, -1, -2, -2,-0.9285883281326044,0.4431413120533119
1503696697067,+0.455,+0.007,-0.241,-0.857,+0.439,+0.210,-0.849,-1.188,+0.625,+0.625,0, -1, -1, -1, 0, -3, -1, -1,-0.9285883281326044,0.4431413120533119
1503696697081,+0.455,+0.007,-0.241,-0.857,+0.447,+0.222,-0.854,-1.125,+0.125,+0.438,0, 1, 1, -1, -1, -2, -2, -2,-0.9285883281326044,0.4431413120533119
1503696697104,+0.455,+0.007,-0.241,-0.857,+0.443,+0.217,-0.842,-1.062,+0.438,+1.000,-1, 0, 0, -1, -1, 0, 0, -1,-0.9285883281326044,0.4431413120533119
1503696697128,+0.455,+0.007,-0.241,-0.857,+0.431,+0.217,-0.850,-0.750,+0.188,+1.125,0, -1, 1, -1, -1, 0, 0, 2,-0.9285883281326044,0.4431413120533119
1503696697141,+0.455,+0.007,-0.241,-0.857,+0.441,+0.219,-0.849,-0.875,+0.562,+0.625,0, -1, -1, -2, 1, 0, -1, -1,-0.9285883281326044,0.4431413120533119
1503696697164,+0.455,+0.007,-0.241,-0.857,+0.443,+0.210,-0.851,-1.188,+1.125,+0.688,0, 1, 1, 0, 0, -1, 0, -3,-0.9285883281326044,0.4431413120533119
1503696697186,+0.455,+0.007,-0.241,-0.857,+0.449,+0.216,-0.854,-1.062,+0.188,+0.625,0, 1, 1, -2, -1, 0, 0, 0,-0.9285883281326044,0.4431413120533119
1503696697202,+0.455,+0.007,-0.241,-0.857,+0.443,+0.217,-0.835,-1.438,-0.062,+0.812,-3, -2, -1, -2, -2, -1, -1, 0,-0.9285883281326044,0.4431413120533119
1503696697224,+0.455,+0.007,-0.241,-0.857,+0.440,+0.209,-0.855,-1.125,-0.500,+0.938,-2, -1, -2, -1, -1, 0, -2, -3,-0.9285883281326044,0.4431413120533119
1503696697246,+0.455,+0.007,-0.241,-0.857,+0.443,+0.216,-0.853,-1.312,+0.312,+0.625,-1, -1, -2, 0, 0, -1, -1, -1,-0.9285883281326044,0.4431413120533119
1503696697262,+0.455,+0.007,-0.241,-0.857,+0.433,+0.215,-0.847,-0.812,+0.688,+0.688,0, -2, -2, -1, 0, -1, 0, -2,-0.9285883281326044,0.4431413120533119
1503696697284,+0.455,+0.007,-0.241,-0.857,+0.442,+0.206,-0.852,-0.750,+0.312,+0.500,-2, -2, 0, -2, 0, -1, 0, 0,-0.9285883281326044,0.4431413120533119
1503696697306,+0.455,+0.007,-0.241,-0.857,+0.449,+0.213,-0.849,-1.375,+0.250,+0.625,-2, 0, 0, 1, -4, -2, -1, 0,-0.9285883281326044,0.4431413120533119
1503696697329,+0.455,+0.007,-0.241,-0.857,+0.441,+0.209,-0.844,-1.250,+0.438,+0.625,-1, 0, -3, 1, -1, 0, -2, -3,-0.9285883281326044,0.4431413120533119
1503696697344,+0.455,+0.007,-0.241,-0.857,+0.447,+0.212,-0.848,-1.562,-0.312,+0.438,-2, -1, 0, -1, 0, 0, -1, -1,-0.9285883281326044,0.4431413120533119
1503696697366,+0.455,+0.007,-0.241,-0.857,+0.450,+0.217,-0.843,-1.625,-0.062,+0.250,-2, -2, -3, -3, 0, -1, -1, 2,-0.9285883281326044,0.4431413120533119
1503696697389,+0.455,+0.007,-0.241,-0.857,+0.438,+0.215,-0.842,-0.812,-0.375,+0.562,1, -1, 0, -1, 0, -1, -1, -2,-0.9285883281326044,0.4431413120533119
1503696697404,+0.455,+0.007,-0.241,-0.857,+0.442,+0.213,-0.842,-0.812,+0.188,+0.438,-3, -1, -1, -1, -1, -1, -1, -1,-0.9285883281326044,0.4431413120533119
1503696697429,+0.455,+0.007,-0.241,-0.857,+0.446,+0.212,-0.856,-0.875,-0.438,+0.562,-1, 0, -1, -2, -2, -1, 0, 0,-0.9285883281326044,0.4431413120533119
1503696697442,+0.455,+0.007,-0.241,-0.857,+0.444,+0.212,-0.848,-1.438,+0.000,+0.812,-1, -2, -2, -1, 1, -1, -1, -2,-0.9285883281326044,0.4431413120533119
1503696697464,+0.455,+0.007,-0.241,-0.857,+0.448,+0.211,-0.844,-1.938,+0.500,+0.750,0, -3, -1, -2, -1, -1, 1, 1,-0.9285883281326044,0.4431413120533119
1503696697489,+0.455,+0.007,-0.241,-0.857,+0.448,+0.225,-0.852,-1.500,-0.312,+0.688,-2, -1, 0, -1, 0, -2, -2, -1,-0.9285883281326044,0.4431413120533119
1503696697502,+0.455,+0.007,-0.241,-0.857,+0.439,+0.217,-0.844,-1.062,-0.062,+0.812,-1, 1, 0, 0, 0, -2, -1, -2,-0.9285883281326044,0.4431413120533119
1503696697524,+0.455,+0.007,-0.241,-0.857,+0.436,+0.209,-0.854,-0.625,-0.250,+0.750,0, 0, -3, -1, 0, 2, 0, -1,-0.9285883281326044,0.4431413120533119
1503696697546,+0.455,+0.008,-0.241,-0.857,+0.446,+0.208,-0.850,-0.938,+0.688,+0.188,1, 1, 1, 0, 0, -3, 0, -1,-0.9289079319132284,0.44399454453843784
1503696697567,+0.455,+0.008,-0.241,-0.857,+0.446,+0.212,-0.849,-1.250,+0.625,+0.562,0, -1, 0, -1, -2, -1, -1, -1,-0.9289079319132284,0.44399454453843784
1503696697584,+0.455,+0.008,-0.241,-0.857,+0.446,+0.217,-0.845,-1.312,-0.875,+0.812,-2, -1, -3, -3, -2, -2, -3, -2,-0.9289079319132284,0.44399454453843784
1503696697606,+0.455,+0.008,-0.241,-0.857,+0.440,+0.212,-0.843,-1.375,-0.375,+0.750,0, 0, -3, 1, -1, -1, -1, -1,-0.9289079319132284,0.44399454453843784
1503696697623,+0.455,+0.008,-0.241,-0.857,+0.443,+0.214,-0.847,-1.000,+0.000,+0.438,2, -1, -3, 0, -2, 1, 1, 1,-0.9289079319132284,0.44399454453843784
1503696697644,+0.455,+0.008,-0.241,-0.857,+0.450,+0.215,-0.852,-1.125,-0.062,+0.625,-1, 0, 1, 0, 0, 1, -2, -1,-0.9289079319132284,0.44399454453843784
1503696697667,+0.455,+0.008,-0.241,-0.857,+0.440,+0.211,-0.846,-1.000,-1.000,+0.562,2, 1, 0, 1, -2, -1, 1, 0,-0.9289079319132284,0.44399454453843784
1503696697682,+0.455,+0.008,-0.241,-0.857,+0.437,+0.213,-0.851,-1.188,+0.000,+0.562,-2, 0, 0, 0, 0, -2, 0, 0,-0.9289079319132284,0.44399454453843784
1503696697706,+0.455,+0.008,-0.241,-0.857,+0.446,+0.218,-0.843,-1.375,+0.562,+0.625,-2, 0, -1, 1, 0, 1, -2, -1,-0.9289079319132284,0.44399454453843784
1503696697726,+0.455,+0.008,-0.241,-0.857,+0.447,+0.215,-0.855,-1.250,+0.125,+0.625,0, -2, -1, -2, -1, -2, 0, -1,-0.9289079319132284,0.44399454453843784
1503696697742,+0.455,+0.008,-0.241,-0.857,+0.448,+0.213,-0.849,-1.188,-0.188,+0.688,-1, 2, 0, 1, 0, 1, -3, -2,-0.9289079319132284,0.44399454453843784
1503696697770,+0.455,+0.008,-0.241,-0.857,+0.439,+0.218,-0.839,-1.250,+0.062,+0.438,1, -2, -1, -1, -1, -2, -1, -2,-0.9289079319132284,0.44399454453843784
1503696697786,+0.455,+0.008,-0.241,-0.857,+0.447,+0.219,-0.849,-0.688,+0.125,+0.500,-3, 0, 1, 0, -4, -1, 1, -2,-0.9289079319132284,0.44399454453843784
1503696697802,+0.455,+0.008,-0.241,-0.857,+0.454,+0.215,-0.844,-0.938,-0.250,+0.750,0, 0, -1, -2, 1, -1, 0, 0,-0.9289079319132284,0.44399454453843784
1503696697824,+0.455,+0.008,-0.241,-0.857,+0.443,+0.209,-0.850,-1.000,-0.438,+0.750,0, 0, -1, -2, -2, 0, -1, 2,-0.9289079319132284,0.44399454453843784
1503696697846,+0.455,+0.008,-0.241,-0.857,+0.433,+0.214,-0.846,-1.250,-0.188,+0.562,1, 0, 1, -1, 0, -1, -2, -1,-0.9289079319132284,0.44399454453843784
1503696697862,+0.455,+0.008,-0.241,-0.857,+0.434,+0.213,-0.841,-1.062,+0.750,+0.688,-2, -2, -1, -1, -1, 0, 1, 0,-0.9289079319132284,0.44399454453843784
1503696697884,+0.455,+0.008,-0.241,-0.857,+0.456,+0.210,-0.849,-0.938,+0.688,+0.312,-4, -6, -3, -1, -2, -1, -1, 0,-0.9289079319132284,0.44399454453843784
1503696697908,+0.455,+0.008,-0.241,-0.857,+0.454,+0.211,-0.851,-1.125,-0.562,+0.438,-1, -2, -1, 0, -1, -1, -1, -1,-0.9289079319132284,0.44399454453843784
1503696697922,+0.455,+0.008,-0.241,-0.857,+0.440,+0.210,-0.840,-1.250,-1.312,+0.500,-3, 0, -1, 0, -2, -1, 1, 0,-0.9289079319132284,0.44399454453843784
1503696697951,+0.455,+0.008,-0.241,-0.857,+0.437,+0.210,-0.849,-1.125,-0.125,+0.312,1, -2, 0, -1, 2, -2, -2, -2,-0.9289079319132284,0.44399454453843784
1503696697967,+0.455,+0.008,-0.241,-0.857,+0.445,+0.218,-0.851,-1.000,+0.125,+0.438,0, -2, -2, 0, -2, 2, 1, 1,-0.9289079319132284,0.44399454453843784
1503696697983,+0.455,+0.008,-0.241,-0.857,+0.448,+0.207,-0.850,-1.312,-0.312,+0.375,0, -1, -1, -2, 2, 0, -1, -1,-0.9289079319132284,0.44399454453843784
1503696698004,+0.455,+0.008,-0.241,-0.857,+0.440,+0.209,-0.849,-1.250,-0.438,+0.250,-1, 0, -1, -1, -3, 0, -2, -1,-0.9289079319132284,0.44399454453843784
1503696698026,+0.455,+0.008,-0.241,-0.857,+0.438,+0.218,-0.845,-1.625,-0.500,+0.438,-1, -2, -2, -1, 2, -1, 0, -1,-0.9289079319132284,0.44399454453843784
1503696698042,+0.455,+0.008,-0.241,-0.857,+0.445,+0.215,-0.844,-1.250,-0.188,+0.562,0, 0, -1, 0, 0, -2, -3, 1,-0.9289079319132284,0.44399454453843784
1503696698064,+0.455,+0.008,-0.241,-0.857,+0.446,+0.220,-0.851,-1.062,-0.250,+0.750,-2, -4, 0, -1, 0, 0, -2, -3,-0.9289079319132284,0.44399454453843784
1503696698086,+0.455,+0.008,-0.241,-0.857,+0.437,+0.213,-0.849,-0.875,-0.938,+0.625,-1, -2, 0, -1, -2, 1, 0, -1,-0.9289079319132284,0.44399454453843784
1503696698104,+0.455,+0.008,-0.241,-0.857,+0.440,+0.210,-0.853,-1.000,+0.250,+0.312,-3, 0, -1, -1, -2, 1, -1, 0,-0.9289079319132284,0.44399454453843784
1503696698125,+0.455,+0.008,-0.241,-0.857,+0.444,+0.216,-0.846,-1.188,-0.062,+0.375,-2, -1, -1, -1, -1, -2, 1, -3,-0.9289079319132284,0.44399454453843784
1503696698146,+0.455,+0.008,-0.241,-0.857,+0.448,+0.208,-0.842,-1.250,-0.125,+0.438,2, 1, 0, -1, -2, -1, 1, 0,-0.9289079319132284,0.44399454453843784
1503696698162,+0.455,+0.008,-0.241,-0.857,+0.447,+0.211,-0.851,-1.375,-0.250,+0.688,2, -1, -1, 0, -1, 0, -3, -2,-0.9289079319132284,0.44399454453843784
1503696698184,+0.455,+0.008,-0.241,-0.857,+0.443,+0.222,-0.846,-1.312,+0.188,+0.438,3, 1, 1, -2, 0, 0, -1, 1,-0.9289079319132284,0.44399454453843784
1503696698206,+0.455,+0.008,-0.241,-0.857,+0.439,+0.207,-0.844,-0.500,+0.188,+0.562,0, -2, 0, -1, -2, -2, -1, -1,-0.9289079319132284,0.44399454453843784
1503696698222,+0.455,+0.008,-0.241,-0.857,+0.443,+0.220,-0.850,-0.562,-0.250,+0.375,1, 4, 1, 0, -2, 0, 0, -1,-0.9289079319132284,0.44399454453843784
1503696698244,+0.455,+0.008,-0.241,-0.857,+0.452,+0.204,-0.845,-0.562,+0.250,+0.250,-2, -1, -2, -2, 0, -2, -3, 1,-0.9289079319132284,0.44399454453843784
1503696698268,+0.455,+0.008,-0.241,-0.857,+0.446,+0.208,-0.847,-0.938,-0.500,+0.625,-2, -2, 0, -1, -1, -2, -2, -1,-0.9289079319132284,0.44399454453843784
1503696698282,+0.455,+0.008,-0.241,-0.857,+0.438,+0.212,-0.843,-1.500,-0.812,+0.688,-2, 0, -5, -1, -2, 0, 1, -2,-0.9289079319132284,0.44399454453843784
1503696698305,+0.455,+0.008,-0.241,-0.857,+0.435,+0.214,-0.851,-0.938,+0.000,+0.562,-1, -2, -1, -2, 0, -1, -2, 0,-0.9289079319132284,0.44399454453843784
1503696698326,+0.455,+0.008,-0.241,-0.857,+0.447,+0.214,-0.851,-0.938,+0.312,+0.438,-1, -2, 1, 1, -2, -3, -2, -1,-0.9289079319132284,0.44399454453843784
1503696698344,+0.455,+0.008,-0.241,-0.857,+0.450,+0.208,-0.844,-0.812,+0.250,+0.250,-1, -2, -1, -2, -1, 0, -1, -2,-0.9289079319132284,0.44399454453843784
1503696698365,+0.455,+0.008,-0.241,-0.857,+0.446,+0.210,-0.852,-1.062,-0.125,+0.375,-4, -2, -1, 0, -2, 1, -1, -5,-0.9289079319132284,0.44399454453843784
1503696698386,+0.455,+0.008,-0.241,-0.857,+0.444,+0.209,-0.844,-1.750,-0.500,+0.500,0, -1, -1, 2, -1, -3, -2, 1,-0.9289079319132284,0.44399454453843784
1503696698403,+0.455,+0.008,-0.241,-0.857,+0.442,+0.215,-0.847,-1.625,-0.562,+0.625,-3, -2, 2, 0, 0, -1, -2, 0,-0.9289079319132284,0.44399454453843784
1503696698424,+0.455,+0.008,-0.241,-0.857,+0.445,+0.222,-0.845,-1.375,-0.438,+0.812,1, 1, -1, -1, -2, 1, -1, 1,-0.9289079319132284,0.44399454453843784
1503696698446,+0.455,+0.008,-0.241,-0.857,+0.436,+0.216,-0.847,-0.938,+0.000,+0.938,0, 1, -2, -2, 1, -1, 1, 1,-0.9289079319132284,0.44399454453843784
1503696698462,+0.455,+0.008,-0.241,-0.857,+0.437,+0.211,-0.854,-0.625,+0.375,+0.562,-2, -3, -2, -1, 0, -2, 0, 1,-0.9289079319132284,0.44399454453843784
1503696698484,+0.455,+0.008,-0.241,-0.857,+0.450,+0.210,-0.850,-0.812,+0.000,+0.375,1, 1, 0, -1, -2, -1, -1, 0,-0.9289079319132284,0.44399454453843784
1503696698507,+0.455,+0.008,-0.241,-0.857,+0.447,+0.208,-0.843,-1.250,+0.312,+0.625,1, 1, 0, -2, 0, 0, -1, 4,-0.9289079319132284,0.44399454453843784
1503696698522,+0.455,+0.008,-0.241,-0.857,+0.452,+0.212,-0.852,-1.500,+0.000,+0.500,0, 1, 0, 0, 0, -1, -2, 2,-0.9289079319132284,0.44399454453843784
1503696698545,+0.455,+0.008,-0.241,-0.857,+0.442,+0.211,-0.855,-1.562,-0.438,+0.375,-3, -4, -2, 0, -1, -2, 2, 2,-0.9289079319132284,0.44399454453843784
1503696698566,+0.455,+0.008,-0.241,-0.857,+0.440,+0.213,-0.853,-1.312,-0.938,+0.375,-1, -2, -1, -3, -2, -1, -3, 1,-0.9289079319132284,0.44399454453843784
1503696698582,+0.455,+0.008,-0.241,-0.857,+0.440,+0.211,-0.847,-1.625,-0.250,+0.562,-1, 0, 1, 1, -2, -1, 0, -1,-0.9289079319132284,0.44399454453843784
1503696698606,+0.455,+0.008,-0.241,-0.857,+0.439,+0.213,-0.852,-1.625,+0.062,+0.500,0, 1, -1, -1, 0, 0, -2, -2,-0.9289079319132284,0.44399454453843784
1503696698634,+0.455,+0.008,-0.241,-0.857,+0.437,+0.213,-0.840,-1.375,+0.938,+0.750,-2, -3, 0, -3, -1, 1, 0, -3,-0.9289079319132284,0.44399454453843784
1503696698642,+0.455,+0.008,-0.241,-0.857,+0.446,+0.218,-0.844,-1.375,+0.688,+0.312,-3, 0, -1, 0, 0, -1, 1, -5,-0.9289079319132284,0.44399454453843784
1503696698665,+0.455,+0.008,-0.241,-0.857,+0.454,+0.207,-0.857,-0.938,+0.375,+0.500,0, -4, 0, -1, 0, 0, -2, -5,-0.9289079319132284,0.44399454453843784
1503696698696,+0.455,+0.008,-0.241,-0.857,+0.451,+0.210,-0.841,-1.375,-0.562,+0.438,-2, -1, -1, 1, 1, 0, -1, -4,-0.9289079319132284,0.44399454453843784
1503696698704,+0.455,+0.008,-0.241,-0.857,+0.438,+0.213,-0.847,-1.625,+0.000,+0.375,-1, 0, -1, 0, 0, -2, 0, -3,-0.9289079319132284,0.44399454453843784
1503696698724,+0.455,+0.008,-0.241,-0.857,+0.443,+0.212,-0.854,-1.250,-0.875,+0.375,-2, 0, -1, 0, 1, -1, -1, -3,-0.9289079319132284,0.44399454453843784
1503696698746,+0.455,+0.008,-0.241,-0.857,+0.453,+0.210,-0.849,-1.625,-0.188,+0.438,-1, 0, -2, -1, -3, 1, -2, -1,-0.9289079319132284,0.44399454453843784
1503696698762,+0.455,+0.008,-0.241,-0.857,+0.438,+0.206,-0.849,-1.562,-0.438,+0.875,3, 2, 0, -3, -2, -1, -1, 0,-0.9289079319132284,0.44399454453843784
1503696698791,+0.455,+0.008,-0.241,-0.857,+0.434,+0.210,-0.850,-2.062,+0.312,+0.562,-1, 0, 0, 0, 0, -1, -2, -2,-0.9289079319132284,0.44399454453843784
1503696698807,+0.455,+0.008,-0.242,-0.857,+0.438,+0.224,-0.859,-1.812,+3.250,+0.625,-1, -2, -5, 1, -2, -2, 0, -2,-0.9289177218584562,0.44600052149634967
1503696698822,+0.455,+0.009,-0.243,-0.857,+0.447,+0.225,-0.871,-0.188,+8.562,-1.688,-2, 0, 0, 0, 0, 0, 1, 0,-0.9292525784966956,0.4488619147724398
1503696698845,+0.457,+0.011,-0.244,-0.855,+0.467,+0.194,-0.842,+3.688,+13.312,-8.250,-1, 0, 1, -1, 0, -1, -1, -1,-0.9338903587036567,0.45172401573166704
1503696698866,+0.459,+0.013,-0.246,-0.854,+0.516,+0.226,-0.860,+9.438,+13.125,-11.812,-1, 0, -1, -2, 0, -1, -3, -2,-0.939120565605646,0.4570585701716624
1503696698889,+0.462,+0.017,-0.249,-0.851,+0.522,+0.286,-0.872,+19.500,+24.938,-15.312,1, -1, 0, -1, -2, -1, -1, 0,-0.9465369883390358,0.46528753108615595
1503696698905,+0.464,+0.023,-0.251,-0.849,+0.418,+0.284,-0.962,+31.500,+38.688,-6.062,0, -1, -2, -1, 0, -1, 0, 2,-0.952755976322515,0.47374290654321355
1503696698926,+0.469,+0.034,-0.260,-0.843,+0.383,+0.337,-0.987,+42.250,+94.875,-17.875,-1, 2, 0, -1, -3, -3, -2, 1,-0.966846584871954,0.4991715635846778
1503696698949,+0.472,+0.054,-0.272,-0.837,+0.464,+0.332,-0.909,+72.500,+126.438,-0.625,-1, -1, -1, -2, -1, -1, 1, 0,-0.980883559617855,0.5391881777004521
1503696698964,+0.473,+0.081,-0.288,-0.829,+0.465,+0.241,-0.875,+94.812,+166.438,+15.312,-1, -1, -2, -3, 0, -1, 0, -1,-0.9949784423750611,0.5937176590858544
1503696698986,+0.473,+0.109,-0.302,-0.820,+0.554,+0.355,-0.828,+104.375,+158.688,+16.688,-2, -2, 1, 0, -1, -1, -2, -2,-1.0098016271244628,0.6459326491449325
1503696699009,+0.475,+0.137,-0.308,-0.813,+0.868,+0.469,-0.833,+131.312,+116.938,+17.812,-2, 4, 0, -1, -2, -1, 1, 1,-1.0328119527827961,0.6847373184378388
1503696699024,+0.476,+0.167,-0.310,-0.806,+0.810,+0.263,-0.864,+143.875,+104.625,+31.562,-1, -3, -3, -1, 1, -1, 0, 2,-1.0573470007929033,0.7193454739704976
1503696699047,+0.478,+0.191,-0.299,-0.804,+0.898,+0.250,-0.993,+153.750,+16.250,+42.125,-1, -1, -1, -5, -4, -1, -1, -2,-1.0815262832310641,0.7253637342463994
1503696699069,+0.480,+0.217,-0.283,-0.801,+0.801,+0.123,-0.979,+175.062,+4.625,+49.438,-1, -1, -6, 0, -1, 0, 2, 0,-1.107928584331731,0.7258111376127153
1503696699085,+0.483,+0.245,-0.266,-0.798,+0.608,+0.026,-0.895,+190.375,+0.375,+47.688,-2, 0, -6, 2, 2, -2, -1, -5,-1.1407421782274707,0.7302743194432267
1503696699108,+0.484,+0.276,-0.250,-0.792,+0.586,-0.142,-0.867,+202.562,+27.125,+55.188,1, -2, 5, -1, -5, -3, -4, -7,-1.173938638062119,0.7425039291436729
1503696699129,+0.481,+0.310,-0.236,-0.785,+0.598,-0.257,-0.738,+203.375,+49.812,+66.625,-1, -2, 5, 5, -15, -6, -11, 3,-1.205216867427121,0.7651335381979739
1503696699145,+0.476,+0.345,-0.222,-0.778,+0.710,-0.380,-0.601,+205.875,+53.500,+72.562,4, 7, 28, 56, 18, 4, -4, -6,-1.2381583536660683,0.7932424359440885
1503696699166,+0.472,+0.378,-0.206,-0.769,+0.784,-0.516,-0.529,+204.750,+32.875,+72.188,-3, -10, -23, -27, -9, -1, 2, -2,-1.275013959609811,0.8193830167579806
1503696699189,+0.468,+0.409,-0.187,-0.761,+0.712,-0.529,-0.498,+199.750,+20.250,+70.750,-3, -6, -25, -31, -5, 1, 2, -5,-1.3138082791132462,0.8422975118114855
1503696699205,+0.464,+0.438,-0.169,-0.752,+0.612,-0.473,-0.428,+195.625,+15.188,+71.250,-6, -9, 40, 18, 7, 2, 13, 8,-1.3546722934809703,0.8683745311578149
1503696699227,+0.459,+0.465,-0.149,-0.742,+0.570,-0.541,-0.344,+191.938,+11.500,+70.000,-1, 2, 17, 21, 8, 3, 11, 4,-1.394314044182044,0.8915929853445204
1503696699250,+0.453,+0.491,-0.131,-0.732,+0.579,-0.616,-0.256,+180.250,+15.812,+71.625,1, -2, -27, -26, -5, -2, -12, 1,-1.4359597174118186,0.9212473586044211
1503696699265,+0.445,+0.516,-0.116,-0.722,+0.523,-0.604,-0.214,+168.562,+29.250,+70.000,2, -2, -31, 3, 4, 1, -4, 2,-1.4773544941063992,0.9580865062104587
1503696699287,+0.437,+0.540,-0.102,-0.712,+0.512,-0.598,-0.196,+160.000,+34.625,+63.312,0, -1, -25, -25, -5, 0, -2, -3,-1.5232356673386263,1.0003588175495377
1503696699309,+0.430,+0.561,-0.090,-0.702,+0.536,-0.641,-0.181,+146.750,+31.562,+59.688,0, 8, 15, -5, 4, -1, -2, 0,-1.5697206921877347,1.0436868960644572
1503696699325,+0.423,+0.580,-0.077,-0.692,+0.555,-0.679,-0.143,+132.375,+17.938,+52.438,4, -6, 10, 9, 2, 0, 0, 1,-1.6162010518465921,1.0850069146890742
1503696699347,+0.420,+0.594,-0.065,-0.683,+0.551,-0.722,-0.098,+112.750,-1.438,+40.125,-2, 2, 2, -6, -3, -4, -3, -3,-1.6603829076088286,1.1180927455896423
1503696699369,+0.418,+0.605,-0.054,-0.675,+0.518,-0.712,-0.069,+93.750,-10.438,+27.562,5, 12, 12, 9, 2, 1, 4, 4,-1.6995165343889191,1.1454848709329142
1503696699386,+0.417,+0.615,-0.044,-0.668,+0.476,-0.724,-0.065,+78.625,-14.125,+19.062,0, -1, 2, 8, 0, 0, -2, 0,-1.73969297823899,1.1738130505136903
1503696699414,+0.416,+0.622,-0.037,-0.662,+0.442,-0.757,-0.043,+58.250,-6.688,+12.812,-2, -4, 0, 9, 1, 0, 0, 0,-1.7690256654550267,1.1950205885799456
1503696699429,+0.414,+0.628,-0.033,-0.658,+0.452,-0.761,-0.046,+41.312,+8.750,+7.625,1, -1, 2, 0, -3, 0, -1, -1,-1.7915405217671216,1.215493194605769
1503696699445,+0.411,+0.633,-0.033,-0.655,+0.499,-0.769,-0.032,+23.938,+17.562,+0.312,5, 12, 16, 6, 0, 1, -2, 1,-1.806300368846863,1.2353876550249578
1503696699467,+0.410,+0.636,-0.035,-0.653,+0.563,-0.792,-0.025,+4.000,+14.250,-5.875,-2, 2, -2, -1, 4, -2, -1, -4,-1.8160946508431144,1.2498689446214468
1503696699489,+0.410,+0.636,-0.039,-0.652,+0.569,-0.809,-0.013,-14.062,+5.938,-17.812,0, 2, -3, 0, -4, -7, -4, -5,-1.814372999690605,1.2534959171335909
1503696699505,+0.412,+0.634,-0.044,-0.653,+0.570,-0.812,-0.012,-31.062,+5.375,-25.438,2, 1, -2, -2, -1, -2, 1, 3,-1.8077302414924143,1.2507187733800131
1503696699527,+0.413,+0.631,-0.052,-0.654,+0.620,-0.813,-0.033,-42.562,+12.688,-31.500,-2, -2, 1, -1, -2, -3, -3, -2,-1.7939147534819218,1.2462033680926108
1503696699549,+0.414,+0.628,-0.061,-0.656,+0.703,-0.795,-0.070,-49.875,+16.438,-35.312,-5, -8, -7, 1, -3, 0, 2, 1,-1.7799592541196059,1.2433797063312129
1503696699565,+0.417,+0.622,-0.071,-0.658,+0.750,-0.805,-0.078,-57.938,+7.250,-35.938,-4, 1, 17, 3, 4, 2, -3, -5,-1.7593122382302722,1.2313801651319216
1503696699587,+0.423,+0.614,-0.078,-0.662,+0.666,-0.789,-0.150,-63.500,-20.000,-44.438,5, 3, 0, 1, -3, 3, 3, 10,-1.7397167939391611,1.2115730984405648
1503696699613,+0.429,+0.605,-0.087,-0.665,+0.538,-0.706,-0.236,-65.688,-5.812,-59.188,-3, 0, 2, -1, 4, 1, -1, -2,-1.71788562157222,1.1917955371594007
1503696699625,+0.435,+0.597,-0.092,-0.668,-0.104,-0.842,-0.297,-52.750,-4.375,-80.500,2, 7, -5, -9, -12, -6, -4, -1,-1.7021157376208391,1.1725237807109747
1503696699647,+0.438,+0.589,-0.122,-0.669,+1.286,-0.672,+0.381,-116.125,+76.000,-109.438,-5, -2, 4, 7, 12, 3, -1, -4,-1.6766397072198909,1.1843261530670182
1503696699669,+0.441,+0.573,-0.131,-0.678,+1.280,+0.158,-1.135,-55.125,+8.375,+38.500,6, 10, -20, -5, 9, 0, -2, 2,-1.631700270409415,1.1459230160229512
1503696699686,+0.442,+0.563,-0.136,-0.685,+1.007,-0.886,-0.097,-97.000,-31.125,-9.625,1, 5, 15, 3, 1, -2, -2, -2,-1.6032967810837948,1.1223924202678863
1503696699707,+0.451,+0.555,-0.141,-0.685,+0.562,-0.183,-0.470,-17.250,-20.250,-47.062,-11, -4, 4, -1, 5, 1, -1, -10,-1.6002978247129083,1.1102692540724988
1503696699729,+0.448,+0.552,-0.142,-0.689,+0.792,-0.546,-0.633,-15.375,+17.750,+30.312,-1, -9, -9, -5, -4, -7, -8, -1,-1.5847675560833054,1.101220892612696
1503696699746,+0.446,+0.549,-0.143,-0.692,+0.679,-0.387,-0.380,-15.562,+2.500,+22.250,-4, -13, -19, -20, -18, -13, -9, -6,-1.571615153958145,1.0927232541914091
1503696699767,+0.441,+0.551,-0.143,-0.694,+0.820,-0.617,-0.392,+3.562,+23.188,+30.688,4, -8, -26, -1, 9, -3, -6, -4,-1.5658125693008396,1.0959139275623704
1503696699789,+0.437,+0.553,-0.143,-0.694,+0.740,-0.640,-0.361,+3.062,+19.688,+20.438,-17, -81, 21, -17, 5, -4, 0, -6,-1.5623698464645877,1.0994567236484574
1503696699805,+0.436,+0.554,-0.140,-0.695,+0.699,-0.583,-0.333,+8.125,-8.000,+20.250,26, 0, -32, 3, -29, -12, 0, 17,-1.562945313583764,1.0976045207079745
1503696699827,+0.435,+0.555,-0.138,-0.695,+0.657,-0.566,-0.289,+8.875,-0.188,+12.938,10, 52, 3, 2, -6, 7, 20, 11,-1.563538889853528,1.0970888991364156
1503696699850,+0.433,+0.557,-0.139,-0.695,+0.635,-0.535,-0.283,+8.438,+15.375,+10.188,-36, -3, 23, 17, 10, 28, 2, -12,-1.5648179331807048,1.1035151726350103
1503696699865,+0.431,+0.560,-0.140,-0.694,+0.676,-0.518,-0.285,+8.562,+20.812,+12.500,27, 52, 57, 6, -13, -11, -6, 5,-1.5691036759534958,1.1129791409193113
1503696699889,+0.428,+0.562,-0.142,-0.694,+0.743,-0.546,-0.277,+3.938,+20.250,+16.312,-11, 18, -22, 17, 10, 20, 12, -3,-1.5682169611175574,1.1203283479032777
1503696699916,+0.425,+0.564,-0.143,-0.694,+0.727,-0.516,-0.229,+2.312,+17.938,+17.062,7, -7, 22, 27, 22, -8, -6, -4,-1.5673911397710418,1.1262471401597924
1503696699925,+0.423,+0.565,-0.144,-0.694,+0.673,-0.508,-0.222,+4.188,+8.062,+12.875,-1, 8, 11, -4, 2, 4, 7, 9,-1.5658726757878696,1.1296451934463787
1503696699948,+0.422,+0.566,-0.143,-0.694,+0.631,-0.614,-0.274,+3.125,+4.562,+8.688,-3, 10, -12, 3, 4, -2, -9, -5,-1.5666230632742393,1.130731131131795
1503696699969,+0.420,+0.567,-0.144,-0.694,+0.622,-0.623,-0.249,-5.500,+13.500,+2.938,2, 2, -8, -24, -9, -5, -3, -4,-1.5651388112041251,1.1341541076305115
1503696700002,+0.418,+0.567,-0.148,-0.694,+0.599,-0.607,-0.223,-7.562,+21.875,-7.938,0, -11, 10, 6, -3, 11, 5, 2,-1.5606712209481788,1.1388398228200358
1503696700008,+0.416,+0.568,-0.153,-0.693,+0.630,-0.626,-0.224,-10.750,+30.250,-12.250,1, 1, 3, 22, 13, 13, 4, 4,-1.5592827308020514,1.1481261946463852
1503696700031,+0.414,+0.569,-0.159,-0.693,+0.651,-0.692,-0.254,-15.250,+37.500,-13.250,-2, -3, -4, -1, -3, 1, 2, -3,-1.5579635747182154,1.1591361027762275
1503696700054,+0.411,+0.569,-0.166,-0.693,+0.625,-0.717,-0.278,-20.062,+39.500,-20.062,4, 11, 1, -8, -10, -3, 4, 0,-1.5515041153415083,1.1679507041560575
1503696700067,+0.409,+0.569,-0.175,-0.692,+0.650,-0.683,-0.252,-23.125,+42.438,-29.062,-5, -10, -7, -8, -4, 1, 4, -2,-1.547387300560268,1.180375372453494
1503696700089,+0.409,+0.568,-0.184,-0.690,+0.696,-0.658,-0.283,-22.500,+42.438,-36.125,1, -1, -2, 6, 1, 8, 3, 1,-1.5446982305948656,1.1907430551521474
1503696700105,+0.410,+0.565,-0.194,-0.689,+0.715,-0.640,-0.264,-29.562,+35.438,-46.562,-4, -5, -7, -9, -1, 23, -6, -5,-1.5384816423170558,1.1973594030782804
1503696700127,+0.413,+0.561,-0.203,-0.688,+0.729,-0.645,-0.242,-30.250,+18.062,-56.312,-2, -3, 3, -3, 1, -4, 16, 0,-1.5338558471107169,1.200716043670083
1503696700150,+0.419,+0.557,-0.212,-0.685,+0.731,-0.652,-0.218,-30.875,+7.625,-67.312,1, 0, 0, 5, 5, -31, -4, -1,-1.5357821683122552,1.2054865069116827
1503696700165,+0.424,+0.551,-0.222,-0.683,+0.729,-0.604,-0.221,-34.250,+12.188,-71.562,4, 1, 0, 2, -1, -1, 4, 1,-1.5304627015331036,1.2060172340605375
1503696700189,+0.428,+0.546,-0.234,-0.681,+0.752,-0.575,-0.260,-40.000,+25.188,-67.562,-12, -9, -2, 0, -1, 13, -29, -12,-1.5262205007628395,1.2126118706624107
1503696700209,+0.430,+0.542,-0.246,-0.679,+0.804,-0.572,-0.269,-42.188,+36.562,-59.875,-2, -2, -1, -1, 2, -15, 7, 13,-1.5206716431097012,1.2215148810606933
1503696700225,+0.431,+0.538,-0.257,-0.678,+0.894,-0.606,-0.280,-37.688,+31.312,-53.250,-1, -1, 0, -2, -4, -4, 6, -1,-1.5132619350265828,1.228946181387764
1503696700254,+0.434,+0.532,-0.266,-0.677,+0.952,-0.589,-0.297,-37.625,+15.188,-52.500,-3, -2, -1, 1, -6, 6, -7, 3,-1.5051475704967587,1.228970594501893
1503696700269,+0.437,+0.526,-0.273,-0.677,+0.919,-0.550,-0.306,-39.500,+5.750,-45.500,-2, -3, -1, 1, 2, -11, 1, 0,-1.4973023099248124,1.226289076504352
1503696700285,+0.438,+0.521,-0.279,-0.677,+0.898,-0.524,-0.320,-36.938,+7.438,-33.688,-2, -4, -2, -3, -1, -7, 7, -9,-1.4878995073611927,1.224033888421796
1503696700308,+0.438,+0.517,-0.284,-0.678,+0.932,-0.526,-0.307,-32.062,+11.312,-19.875,0, 2, 7, 2, 0, 10, 5, -3,-1.478969368960716,1.222674522172611
1503696700330,+0.437,+0.515,-0.288,-0.679,+0.958,-0.535,-0.307,-27.125,+9.938,-9.750,2, -1, -2, 1, -2, 0, 1, -8,-1.4726814410352917,1.2243728537959442
1503696700346,+0.436,+0.512,-0.289,-0.681,+0.938,-0.527,-0.307,-22.750,-2.188,-7.312,0, 7, 1, 0, 2, -15, -17, -11,-1.4638520832499178,1.2186802232158946
1503696700367,+0.437,+0.509,-0.289,-0.683,+0.900,-0.526,-0.288,-17.875,-13.188,-7.875,-4, -4, -11, -1, 0, 2, 5, 0,-1.4591593266287,1.2120977050034285
1503696700391,+0.438,+0.507,-0.289,-0.684,+0.855,-0.520,-0.278,-10.562,-8.750,-7.625,0, -17, -8, 4, 2, 1, -2, 3,-1.4567334334972017,1.20779913195211
1503696700406,+0.438,+0.507,-0.289,-0.684,+0.844,-0.549,-0.281,-4.750,-3.500,-7.625,7, 5, 1, 5, -1, 4, 1, 3,-1.4567334334972017,1.20779913195211
1503696700428,+0.438,+0.506,-0.289,-0.684,+0.884,-0.547,-0.285,-8.375,-1.625,-7.125,13, 10, 28, 2, 1, 10, 9, 10,-1.4544179991256527,1.2053433792695396
1503696700451,+0.440,+0.504,-0.288,-0.685,+0.818,-0.503,-0.295,-7.438,-14.188,-7.188,-1, 0, -3, 6, 5, 15, 5, 2,-1.4540222949395019,1.199739215782004
1503696700465,+0.442,+0.502,-0.286,-0.687,+0.798,-0.523,-0.243,-9.062,-22.062,-9.688,-13, -3, -16, -10, -7, 0, 3, -12,-1.4536497000297517,1.192654407394097
1503696700488,+0.445,+0.499,-0.285,-0.687,+0.808,-0.516,-0.250,-12.500,-23.312,-19.000,-5, -6, -29, -14, -3, -1, 2, 4,-1.4530790928258035,1.1848675675313751
1503696700510,+0.448,+0.495,-0.285,-0.688,+0.771,-0.483,-0.260,-14.625,-19.812,-24.688,2, -27, -20, -12, -3, 7, -7, 2,-1.4505883069788654,1.176719149073129
1503696700526,+0.451,+0.491,-0.287,-0.687,+0.772,-0.472,-0.280,-14.562,-12.750,-31.062,2, 10, 7, 2, -3, 4, -1, 5,-1.4482465766991297,1.1716791763142127
1503696700550,+0.455,+0.488,-0.288,-0.687,+0.826,-0.446,-0.296,-11.125,-11.562,-29.750,1, -6, -8, 3, 9, -3, -5, 4,-1.450376512783582,1.1680057984039982
1503696700570,+0.458,+0.486,-0.290,-0.686,+0.867,-0.448,-0.292,-9.750,-6.625,-22.750,-4, -13, -15, -7, -1, 16, -9, -9,-1.4526138127089205,1.1678118064480068
1503696700585,+0.459,+0.484,-0.292,-0.685,+0.899,-0.423,-0.332,-10.750,-2.188,-19.062,-3, -10, -4, 7, 13, 5, -6, -5,-1.4505588369921196,1.166810544599756
1503696700608,+0.461,+0.482,-0.293,-0.685,+0.888,-0.394,-0.342,-7.812,-4.438,-14.625,0, -5, -13, 0, -11, -15, -2, 36,-1.4506908263038814,1.1647441881326992
1503696700630,+0.463,+0.480,-0.293,-0.685,+0.895,-0.402,-0.342,-6.000,-11.250,-9.312,-2, -10, -9, -11, -14, -11, -15, -28,-1.4507309117605118,1.1609436885982403
1503696700645,+0.464,+0.479,-0.292,-0.686,+0.907,-0.432,-0.334,-6.875,-10.188,-3.125,1, 1, 4, 1, -2, -8, -2, 5,-1.450759918412898,1.1575489690424752
1503696700668,+0.464,+0.478,-0.292,-0.686,+0.911,-0.418,-0.342,-3.812,-3.750,+1.875,15, 10, 7, 0, 3, -10, -2, 7,-1.4486245587767266,1.1552454392867442
1503696700690,+0.463,+0.478,-0.290,-0.687,+0.904,-0.410,-0.324,-1.812,-8.812,+9.438,-6, 6, 6, 10, 13, 28, 8, 5,-1.4463133259536196,1.1515646230812875
1503696700705,+0.462,+0.479,-0.288,-0.689,+0.904,-0.462,-0.285,-2.250,-10.938,+13.375,-3, -4, -11, -4, -1, 16, 5, 1,-1.446266001312788,1.150448560412311
1503696700727,+0.461,+0.479,-0.286,-0.690,+0.875,-0.436,-0.286,-3.938,-7.438,+10.688,-2, -1, 3, 1, 0, 6, -5, -10,-1.443948576421694,1.1467667954843428
1503696700750,+0.460,+0.479,-0.285,-0.691,+0.845,-0.409,-0.302,-5.000,-6.062,+10.562,4, 0, 2, -3, -3, -15, -2, -6,-1.4417588564588175,1.1448372828870523
1503696700765,+0.459,+0.479,-0.284,-0.693,+0.870,-0.433,-0.318,-5.688,-8.875,+10.625,-4, 53, 22, 0, -7, -5, -6, -14,-1.4396984259035772,1.1431624934113258
1503696700789,+0.459,+0.478,-0.282,-0.694,+0.885,-0.432,-0.310,-4.250,-15.438,+6.375,-4, -28, -34, -11, -7, 6, 23, -5,-1.437400939054038,1.137588964565526
1503696700810,+0.460,+0.476,-0.280,-0.695,+0.888,-0.389,-0.353,-1.062,-20.125,+1.500,-18, -11, -3, -3, 1, 0, -4, 1,-1.4351515803742134,1.130147291790088
1503696700825,+0.463,+0.474,-0.276,-0.696,+0.788,-0.384,-0.356,-1.812,-25.188,+0.000,-2, 7, 6, 1, 0, 3, -3, -12,-1.4370622261241173,1.1201211555044714
1503696700848,+0.465,+0.473,-0.274,-0.697,+0.802,-0.422,-0.336,+1.625,-23.188,-4.250,-6, -15, -6, 0, 1, -2, -8, -12,-1.4392156712038184,1.1154893435657662
1503696700869,+0.469,+0.471,-0.271,-0.696,+0.784,-0.406,-0.351,+4.562,-22.062,-15.188,3, -2, 11, 5, 8, -8, 0, 6,-1.4433202694636968,1.107225885221859
1503696700888,+0.473,+0.468,-0.271,-0.695,+0.734,-0.398,-0.366,+0.750,-17.938,-28.500,1, -9, -12, 1, -2, -5, 0, 0,-1.4457894786636483,1.1019284678874655
1503696700908,+0.477,+0.467,-0.271,-0.693,+0.749,-0.422,-0.352,+1.000,-9.188,-30.875,-3, 3, 8, 1, 4, -5, 1, 2,-1.4523857683165617,1.1009541222362655
1503696700930,+0.480,+0.467,-0.274,-0.690,+0.805,-0.431,-0.328,+4.188,+9.188,-29.938,9, -1, -3, 4, 5, 8, -5, 4,-1.4590776645481702,1.106713209365502
1503696700945,+0.482,+0.468,-0.279,-0.686,+0.841,-0.383,-0.357,+2.188,+21.062,-30.375,-13, 7, 1, 2, 1, 1, 0, -15,-1.4657004402815654,1.1174658311670078
1503696700967,+0.483,+0.469,-0.283,-0.683,+0.868,-0.353,-0.352,+0.625,+23.938,-26.625,0, 10, 28, 2, -5, -2, -1, 3,-1.4700825015480863,1.1263040744949413
1503696700992,+0.485,+0.470,-0.289,-0.679,+0.888,-0.347,-0.331,-0.688,+24.750,-26.562,4, -3, -10, -5, -2, 0, 3, 3,-1.476749164181853,1.1387711867014894
1503696701005,+0.486,+0.470,-0.295,-0.675,+0.943,-0.309,-0.338,-2.125,+27.250,-27.625,-6, -23, -13, -4, 5, 10, -9, -21,-1.4791234205944,1.1485654808156716
1503696701028,+0.487,+0.471,-0.300,-0.672,+0.935,-0.302,-0.327,-1.562,+21.250,-20.750,3, -12, -6, -2, -3, -5, -6, -2,-1.483538416847917,1.1591523766406515
1503696701050,+0.486,+0.472,-0.304,-0.670,+0.872,-0.277,-0.285,-5.562,+23.875,-14.500,-15, -23, -19, -3, -3, 5, 1, -7,-1.4835756270816467,1.1674706715073024
1503696701065,+0.485,+0.472,-0.311,-0.667,+0.908,-0.249,-0.274,-13.375,+32.750,-12.250,-3, 14, 13, 4, 2, -4, -1, -4,-1.4817444462647476,1.1785863419486393
1503696701089,+0.482,+0.475,-0.320,-0.664,+0.964,-0.214,-0.325,-8.188,+54.625,-10.312,2, 11, 11, 5, 4, 2, 5, 11,-1.481948808767057,1.1992995447896102
1503696701110,+0.481,+0.477,-0.325,-0.660,+0.939,-0.213,-0.386,+7.375,+44.250,-8.875,11, 37, 47, 8, -2, 1, 4, 6,-1.4840068436472396,1.2112958996972376
1503696701126,+0.480,+0.479,-0.328,-0.658,+0.953,-0.277,-0.312,+2.500,+23.688,-5.250,-6, -14, -22, -8, -3, -5, -2, 5,-1.486088151924422,1.22027035605094
1503696701148,+0.479,+0.480,-0.331,-0.656,+0.965,-0.290,-0.263,-3.688,+16.438,-4.438,0, -4, -24, -1, -3, -4, 0, 1,-1.4861152372329627,1.227026386276569
1503696701172,+0.478,+0.480,-0.335,-0.655,+0.965,-0.256,-0.260,-6.188,+20.750,-6.938,14, 38, 63, 9, 3, 4, 7, 6,-1.4842503080319778,1.2335812712748235
1503696701193,+0.478,+0.481,-0.338,-0.653,+0.960,-0.221,-0.283,-2.188,+20.250,-3.562,8, -8, -21, -2, 0, 0, 2, 8,-1.4864090828181795,1.2407122502522792
1503696701207,+0.477,+0.482,-0.340,-0.652,+0.921,-0.272,-0.299,-0.188,+17.375,+1.062,-20, -21, -10, -8, -4, -2, -3, -1,-1.4864562291761985,1.2459705089084638
1503696701230,+0.475,+0.483,-0.342,-0.651,+0.932,-0.286,-0.275,-2.438,+16.750,+3.562,8, 0, -14, 3, 1, 1, 3, 1,-1.48440764529235,1.2509223290142728
1503696701253,+0.473,+0.484,-0.344,-0.651,+0.949,-0.280,-0.249,-4.562,+19.000,+2.688,-4, 9, 19, 5, -2, 3, 5, 4,-1.4824658168384854,1.2561185265564458
1503696701267,+0.471,+0.486,-0.346,-0.650,+0.949,-0.289,-0.237,-3.875,+17.062,+4.812,-13, -4, 3, 3, -2, -4, -3, -1,-1.482553663395786,1.2633536064395112
1503696701290,+0.469,+0.487,-0.348,-0.650,+0.933,-0.296,-0.244,-4.688,+15.938,+3.875,-18, -15, 6, -1, -1, 0, 1, -1,-1.4806603485001177,1.268585826790977
1503696701304,+0.468,+0.487,-0.349,-0.650,+0.929,-0.303,-0.230,-5.500,+9.125,+4.688,14, 32, 25, 6, -2, 1, -2, 2,-1.4786697891893872,1.2700852574562622
1503696701327,+0.466,+0.487,-0.350,-0.650,+0.929,-0.314,-0.224,-7.750,+6.500,+2.500,10, 4, -10, 0, 2, 0, 5, 2,-1.474601063171778,1.2712872039792142
1503696701349,+0.466,+0.487,-0.352,-0.650,+0.877,-0.254,-0.233,-9.938,+8.562,-3.875,-8, -23, -5, 0, -1, -3, -4, 0,-1.4747973826012624,1.2749078948159676
1503696701366,+0.466,+0.486,-0.354,-0.649,+0.874,-0.260,-0.250,-6.562,+10.938,-6.812,-30, -58, -5, -2, 2, 3, -1, -8,-1.4727969037216975,1.2760822056857104
1503696701386,+0.465,+0.485,-0.356,-0.649,+0.903,-0.288,-0.255,-7.375,+8.625,-8.375,14, 35, 2, 0, 0, 0, -2, 0,-1.468821189764559,1.2771942717453317
1503696701409,+0.465,+0.485,-0.358,-0.648,+0.909,-0.273,-0.253,-8.500,+10.688,-6.062,7, -6, 2, 0, -3, -3, -2, -3,-1.4689288679140988,1.2806268132751264
1503696701425,+0.465,+0.484,-0.360,-0.648,+0.899,-0.286,-0.242,-7.625,+8.875,-5.938,-3, -5, -10, -8, -4, -2, -2, -2,-1.4670424704203546,1.2820599697234005
1503696701446,+0.464,+0.483,-0.362,-0.648,+0.923,-0.298,-0.235,-9.625,+3.625,-6.250,3, 16, -4, 3, 2, 0, 2, 4,-1.4630905569302552,1.2832230654851005
1503696701469,+0.465,+0.482,-0.363,-0.648,+0.904,-0.290,-0.230,-8.938,+0.500,-9.062,29, 55, 16, 3, -2, 0, 1, 7,-1.4631881795682822,1.2831369563484851
1503696701484,+0.466,+0.479,-0.364,-0.648,+0.915,-0.286,-0.239,-11.250,-5.312,-12.812,-22, -29, -11, -4, -2, -2, 0, -3,-1.4591477041617473,1.2786658127410935
1503696701506,+0.467,+0.477,-0.365,-0.649,+0.947,-0.284,-0.255,-11.875,-6.250,-10.000,-22, -22, 10, 3, 2, -1, -2, -4,-1.457322421516752,1.2766415891692173
1503696701529,+0.468,+0.475,-0.365,-0.649,+0.895,-0.270,-0.262,-8.688,-6.188,-9.562,5, -3, -18, -7, -5, -5, -5, -8,-1.4552988398695637,1.2725713466298167
1503696701544,+0.470,+0.472,-0.365,-0.650,+0.933,-0.307,-0.216,-11.062,-13.938,-10.125,8, -3, 2, 1, -1, 0, 0, 2,-1.4534675429159496,1.2668692283795682
1503696702670,+0.539,+0.496,-0.277,-0.622,+0.902,-0.322,-0.354,+61.000,+19.750,+25.312,-10, 4, 2, 0, -8, 0, 1, 0,-1.64794534228278,1.1875481537559474
1503696702691,+0.538,+0.505,-0.272,-0.618,+0.911,-0.331,-0.346,+60.688,+17.500,+21.250,-3, -2, 0, -1, 0, 1, -1, -1,-1.6651615327793148,1.199977900245543
1503696702708,+0.538,+0.513,-0.265,-0.614,+0.905,-0.340,-0.312,+61.188,+12.562,+21.750,-13, 2, -2, -4, -4, -1, -2, 1,-1.683157434149448,1.2078515421691158
1503696702733,+0.538,+0.521,-0.259,-0.610,+0.862,-0.360,-0.295,+60.250,+8.062,+20.438,-26, -3, -1, -1, -1, -4, -3, -4,-1.701513964403372,1.2177989606142055
1503696702751,+0.537,+0.529,-0.252,-0.607,+0.809,-0.375,-0.262,+57.125,+11.000,+20.375,39, 8, 8, -1, -1, 2, 3, 7,-1.7182378149856516,1.2266154411517995
1503696702767,+0.536,+0.538,-0.246,-0.602,+0.825,-0.353,-0.280,+60.188,+17.312,+20.938,2, 0, 0, -1, 1, -3, -1, -5,-1.7378759851859538,1.239686163022438
1503696702789,+0.535,+0.546,-0.241,-0.598,+0.814,-0.385,-0.270,+60.000,+21.250,+19.438,-6, -6, -1, 1, -1, 1, 0, -3,-1.755463280506669,1.2523635179742054
1503696702817,+0.534,+0.554,-0.235,-0.594,+0.834,-0.388,-0.243,+56.812,+15.375,+18.250,6, 7, 5, 2, 3, -4, 4, 4,-1.7737624554119873,1.2641740691928953
1503696702826,+0.534,+0.561,-0.229,-0.590,+0.830,-0.375,-0.239,+55.625,+9.875,+18.438,2, -1, -1, -4, 1, 1, -1, 0,-1.7922888265744414,1.2742128785699256
1503696702849,+0.534,+0.567,-0.223,-0.586,+0.770,-0.381,-0.207,+50.688,+6.750,+15.438,-5, -4, 0, 0, 0, 1, 0, 1,-1.8089165782229026,1.28199749044001
1503696702871,+0.533,+0.574,-0.219,-0.582,+0.741,-0.361,-0.182,+47.062,+12.188,+14.938,14, 2, 0, 5, 1, -1, 0, 0,-1.8256539877036844,1.2951984605243643
1503696702886,+0.532,+0.580,-0.214,-0.578,+0.770,-0.341,-0.212,+51.375,+16.375,+14.062,4, 3, -8, 0, 1, -2, -6, -2,-1.8407334010043144,1.3047228146720637
1503696702909,+0.532,+0.586,-0.210,-0.574,+0.767,-0.376,-0.189,+47.750,+14.688,+9.938,0, -6, -6, -2, -2, 5, -1, -4,-1.8577321229857282,1.316194097235554
1503696702934,+0.532,+0.591,-0.207,-0.570,+0.809,-0.378,-0.184,+42.312,+9.188,+7.250,6, 0, -6, 1, 0, -4, 0, 1,-1.8722081192767706,1.3263194383410464
1503696702947,+0.533,+0.595,-0.203,-0.566,+0.780,-0.372,-0.178,+37.562,+6.750,+6.375,-10, -3, -10, 0, 1, -1, -1, -1,-1.8867689428820762,1.332893225742096
1503696702969,+0.533,+0.599,-0.200,-0.563,+0.785,-0.390,-0.160,+33.750,+4.750,+4.500,4, -5, -1, -3, -1, -2, -4, -4,-1.8988147711339933,1.340620261808177
1503696702991,+0.534,+0.602,-0.197,-0.560,+0.848,-0.391,-0.176,+33.125,-0.250,+4.625,8, -1, 8, 0, 0, 1, -2, 5,-1.9104290731158247,1.3458813587684648
1503696703007,+0.536,+0.604,-0.194,-0.557,+0.801,-0.406,-0.143,+26.625,-7.500,-0.562,-11, 8, 1, 1, 3, 8, 3, -1,-1.9215590459031184,1.348616761267976
1503696703029,+0.538,+0.605,-0.191,-0.555,+0.818,-0.419,-0.146,+22.750,-7.562,-0.875,-13, 7, 2, -2, -3, -4, -5, -2,-1.9299154496651179,1.348582905869672
1503696703051,+0.539,+0.607,-0.189,-0.553,+0.827,-0.421,-0.139,+18.625,-3.438,-0.062,6, 2, -1, -1, -2, -1, 1, 3,-1.9384019002699846,1.3523505913703648
1503696703068,+0.540,+0.607,-0.188,-0.551,+0.854,-0.424,-0.125,+12.562,-5.312,-0.375,2, -14, -8, -3, 0, -1, 3, -4,-1.9416043814422599,1.3513599675080905
1503696703089,+0.541,+0.608,-0.186,-0.550,+0.828,-0.405,-0.130,+9.688,-5.938,+0.562,-7, 6, 1, 2, 1, -2, 3, 12,-1.9472861224825952,1.3523228367184446
1503696703111,+0.542,+0.608,-0.185,-0.549,+0.829,-0.423,-0.120,+7.000,-4.938,-0.750,-4, -19, -13, -3, -3, 0, -3, 4,-1.9500675580552416,1.3514405170749384
1503696703127,+0.543,+0.607,-0.186,-0.549,+0.930,-0.430,-0.025,-7.438,-15.938,-2.188,-9, -3, -2, -1, -1, -4, -5, -8,-1.948981619380772,1.349880700490724
1503696703149,+0.544,+0.605,-0.186,-0.550,+0.827,-0.396,-0.179,-8.062,-6.812,+1.562,29, 14, 1, -2, -1, -2, -1, 2,-1.9455715652487633,1.3443924608057556
1503696703171,+0.544,+0.604,-0.185,-0.552,+0.854,-0.434,-0.218,-7.812,-3.562,+3.750,-46, -7, 0, -1, -3, 0, -4, 0,-1.9427810656143487,1.3405445512624374
1503696703187,+0.545,+0.602,-0.185,-0.553,+0.874,-0.426,-0.171,-10.500,-9.375,+3.062,4, 0, -2, 4, 2, 1, 5, 7,-1.9393983694632921,1.3350839486157675
1503696703209,+0.545,+0.601,-0.186,-0.555,+0.861,-0.415,-0.150,-12.250,-4.938,+5.750,-40, -9, -4, -2, -2, -5, -5, -7,-1.935644098832272,1.333458831139619
1503696703231,+0.543,+0.600,-0.187,-0.557,+0.863,-0.425,-0.157,-14.500,+2.500,+7.438,14, -4, -4, -4, -1, -2, 3, 5,-1.9282022876128482,1.3312070453485594
1503696703247,+0.542,+0.599,-0.188,-0.559,+0.872,-0.434,-0.194,-14.750,+2.625,+6.562,11, 6, -6, -2, -3, -1, 1, -1,-1.9226270979324027,1.3292864185071351
1503696703270,+0.542,+0.597,-0.189,-0.561,+0.874,-0.445,-0.202,-16.688,-1.625,+4.125,35, 2, -3, -1, 0, 4, 8, 11,-1.9165447061775422,1.3247898928532842
1503696703291,+0.541,+0.595,-0.190,-0.563,+0.864,-0.438,-0.144,-21.875,-0.438,+5.938,3, 5, -3, -4, 1, 3, 4, 5,-1.9086107462811561,1.3199914018237446
1503696703308,+0.539,+0.594,-0.192,-0.566,+0.884,-0.414,-0.172,-22.312,+8.625,+9.688,18, -3, 1, 5, 2, 2, -3, 2,-1.900363399526647,1.3190464876324584
1503696703329,+0.536,+0.593,-0.194,-0.569,+0.868,-0.425,-0.208,-25.562,+9.562,+14.875,15, 10, -3, -4, -1, -2, 2, 4,-1.8902660077059739,1.3177976607096626
1503696703351,+0.533,+0.591,-0.196,-0.573,+0.868,-0.436,-0.195,-29.438,+9.938,+15.312,1, 5, -3, 1, 2, 5, 8, 7,-1.8774203244976497,1.3137949462976881
1503696703367,+0.530,+0.589,-0.198,-0.577,+0.867,-0.396,-0.223,-31.500,+5.562,+17.562,1, 0, 3, 2, 0, -2, 1, 1,-1.8646217179688107,1.3098347562266768
1503696703389,+0.528,+0.586,-0.200,-0.582,+0.841,-0.392,-0.205,-33.312,+1.125,+15.500,9, 6, 7, 6, 6, 5, 8, 8,-1.8510450901259194,1.3035072674668011
1503696703412,+0.526,+0.582,-0.201,-0.586,+0.877,-0.402,-0.222,-33.062,-9.562,+14.438,27, -1, -3, -2, -4, -2, -6, -14,-1.8358034521344202,1.2930298264067879
1503696703427,+0.527,+0.576,-0.202,-0.592,+0.786,-0.387,-0.247,-38.188,-19.250,+9.312,21, 6, 0, 0, -3, -1, -2, 5,-1.8210875028598321,1.2783008689080877
1503696703449,+0.526,+0.570,-0.203,-0.597,+0.684,-0.369,-0.263,-40.812,-12.062,+8.250,-7, -13, -4, -4, 1, 2, 4, 7,-1.8029067365023672,1.2628881609999683
1503696703472,+0.524,+0.566,-0.206,-0.602,+0.679,-0.360,-0.243,-41.125,+2.812,+8.750,7, 4, 1, -1, 2, 0, 1, 3,-1.7870868118279946,1.2554588550665624
1503696703489,+0.521,+0.562,-0.209,-0.607,+0.832,-0.386,-0.256,-40.000,+5.125,+11.000,-33, -9, -5, -3, -7, -3, -3, -6,-1.7693976613695122,1.2477881541055256
1503696703510,+0.520,+0.557,-0.211,-0.612,+0.821,-0.414,-0.288,-42.688,-9.000,+8.312,18, 2, 4, 1, 1, -3, -5, -12,-1.7537993287106455,1.2369754026951003
1503696703531,+0.522,+0.549,-0.212,-0.618,+0.738,-0.412,-0.315,-48.438,-29.562,+0.312,15, 10, 4, 1, -1, -1, -2, 1,-1.7375426162537004,1.2182180425141755
1503696703547,+0.523,+0.540,-0.213,-0.624,+0.706,-0.412,-0.315,-50.500,-28.750,-2.000,6, 1, -3, -2, -1, -2, -6, 3,-1.717299443857448,1.1967446225979173
1503696703568,+0.523,+0.533,-0.215,-0.629,+0.813,-0.383,-0.300,-47.812,-17.938,-0.812,57, 13, 3, 2, 1, 3, 12, 8,-1.6999714311288512,1.181805679078142
1503696703591,+0.524,+0.526,-0.217,-0.634,+0.874,-0.415,-0.312,-47.562,-26.625,+1.875,-21, -5, 0, -4, 0, 2, 5, 1,-1.6851182962874374,1.1676469510975414
1503696703608,+0.527,+0.516,-0.217,-0.640,+0.837,-0.462,-0.336,-52.188,-45.250,-4.875,-20, -4, -3, -1, -1, 0, 1, 3,-1.6683924616676642,1.1443256508968953
1503696703629,+0.530,+0.505,-0.216,-0.646,+0.751,-0.460,-0.356,-55.188,-53.750,-7.688,-32, -6, -2, 0, -4, -1, -10, -11,-1.6502041561450609,1.1175641540692678
1503696703651,+0.533,+0.494,-0.215,-0.653,+0.689,-0.440,-0.362,-58.625,-50.375,-11.000,-4, -5, 4, -1, -2, -1, -10, 0,-1.6326314138611933,1.0916347841085159
1503696703667,+0.535,+0.485,-0.218,-0.657,+0.785,-0.427,-0.345,-57.312,-31.125,-12.500,-1, 2, -2, 1, 4, 5, 7, 6,-1.6176754005929772,1.0760621659953822
1503696703696,+0.536,+0.477,-0.221,-0.661,+0.903,-0.407,-0.389,-52.250,-24.312,-8.750,-17, -2, 1, 2, 0, -1, 0, -6,-1.6030335358321077,1.0628729260502763
1503696703712,+0.537,+0.468,-0.222,-0.666,+0.905,-0.430,-0.428,-50.000,-33.250,-6.625,33, 10, 5, 1, 2, -1, 1, 6,-1.5868131396972247,1.044885365774148
1503696703727,+0.540,+0.458,-0.221,-0.671,+0.866,-0.448,-0.433,-53.000,-51.375,-8.250,-45, -13, -6, -2, -4, -2, -3, -9,-1.573738776420379,1.0229231484695154
1503696703757,+0.543,+0.447,-0.220,-0.676,+0.810,-0.432,-0.462,-53.000,-57.875,-9.250,9, 4, -4, -4, -4, -3, -5, 2,-1.559318729887655,0.9991871040839754
1503696703779,+0.546,+0.436,-0.219,-0.681,+0.807,-0.401,-0.474,-50.750,-54.062,-7.562,17, -2, 3, 1, 0, -3, -2, 1,-1.5455764498989637,0.9760070005008775
1503696703787,+0.547,+0.428,-0.219,-0.685,+0.808,-0.379,-0.477,-43.875,-36.188,-4.062,-21, -4, -1, -3, -3, -5, 3, -1,-1.533226512970722,0.9601344863062552
1503696703809,+0.548,+0.421,-0.219,-0.689,+0.847,-0.386,-0.502,-39.625,-30.125,-2.250,-6, -10, -3, -2, 2, 1, 2, 2,-1.5230327963484291,0.9466926461317748
1503696703831,+0.549,+0.414,-0.219,-0.692,+0.898,-0.379,-0.530,-36.938,-36.438,-4.812,-8, -2, 2, 0, -1, 0, 0, -1,-1.5130524682866935,0.9332045399717864
1503696703847,+0.552,+0.407,-0.217,-0.695,+0.886,-0.378,-0.520,-32.438,-42.562,-4.500,-3, 0, 3, 3, 1, 0, 0, -1,-1.508061858869716,0.9177295830992602
1503696703869,+0.553,+0.401,-0.216,-0.698,+0.820,-0.361,-0.507,-27.875,-38.625,-3.500,17, 8, 0, -3, -1, 0, -4, -7,-1.500263306097049,0.9050795419890032
1503696703891,+0.555,+0.395,-0.214,-0.700,+0.817,-0.353,-0.581,-23.062,-35.812,-1.312,28, 0, 7, 3, 1, 3, 0, 1,-1.4949427356352822,0.8911851879328353
1503696703908,+0.556,+0.391,-0.212,-0.703,+0.829,-0.365,-0.600,-20.250,-28.375,+2.125,5, -10, -11, -1, -1, 0, 0, -2,-1.490793941263764,0.8812096885407582
1503696703929,+0.556,+0.387,-0.210,-0.705,+0.852,-0.369,-0.554,-20.000,-27.438,+5.375,-13, -2, 0, -1, -3, 0, -2, 0,-1.4841778939443926,0.8704850429448068
1503696703951,+0.557,+0.383,-0.209,-0.707,+0.860,-0.353,-0.536,-16.812,-29.000,+4.000,-22, 4, 7, 0, 0, -2, -2, -4,-1.4801676457817958,0.8619771434940425
1503696703967,+0.557,+0.381,-0.207,-0.708,+0.832,-0.359,-0.564,-11.688,-23.938,+2.438,-16, -1, 1, 0, -2, -1, -2, -5,-1.4768475260097902,0.8550313453922411
1503696703989,+0.558,+0.379,-0.205,-0.709,+0.818,-0.358,-0.567,-9.750,-20.250,+1.750,1, -8, 0, -3, -3, -1, -7, -1,-1.4760180064130397,0.8486264476759543
1503696704011,+0.558,+0.378,-0.205,-0.710,+0.821,-0.361,-0.580,-7.188,-14.312,-0.875,26, -2, 0, -1, -2, -1, -1, 6,-1.4745045902896725,0.8469420774624589
1503696704027,+0.559,+0.376,-0.204,-0.710,+0.811,-0.331,-0.576,-5.000,-13.562,-0.500,-30, -7, -4, -3, -2, -2, -2, -7,-1.4736713302305648,0.8419066734156793
1503696704050,+0.560,+0.375,-0.203,-0.711,+0.783,-0.328,-0.587,-4.938,-14.812,-1.312,4, 10, 10, 1, -1, 0, 0, -1,-1.4745806350773778,0.8391264097040575
1503696704071,+0.560,+0.373,-0.202,-0.711,+0.750,-0.329,-0.600,-7.062,-12.812,-1.750,-1, -3, 4, 1, 1, 1, 0, -3,-1.4712941203302956,0.8335863646256132
1503696704087,+0.561,+0.372,-0.201,-0.712,+0.744,-0.312,-0.588,-7.188,-11.875,-2.500,-12, 11, 2, -2, -1, 0, 2, 2,-1.4722247862695474,0.8308173314777016
1503696704110,+0.562,+0.370,-0.201,-0.712,+0.752,-0.305,-0.583,-6.125,-10.188,-1.938,22, 2, -2, -1, -3, -3, -6, 0,-1.471535403525552,0.8274556605840842
1503696704131,+0.563,+0.369,-0.201,-0.712,+0.729,-0.309,-0.582,-4.500,-7.812,-3.125,-20, -1, -10, -2, 0, -2, 0, -4,-1.4724461729726839,0.8260418253949554
1503696704147,+0.563,+0.368,-0.200,-0.712,+0.740,-0.315,-0.586,-5.875,-8.750,-2.812,7, 2, -1, 0, 2, 3, 3, 5,-1.4707908747015979,0.8224762142577252
1503696704169,+0.564,+0.367,-0.200,-0.712,+0.727,-0.307,-0.592,-7.125,-7.500,-3.250,-14, -5, -4, -2, -1, 2, 3, 3,-1.471715137584841,0.8210685696866372
1503696704191,+0.564,+0.365,-0.200,-0.713,+0.724,-0.306,-0.604,-7.188,-9.000,-2.562,-11, -10, -4, -1, -3, -2, 0, 0,-1.4686989285733225,0.8175018748737143
1503696704210,+0.565,+0.364,-0.199,-0.713,+0.729,-0.319,-0.627,-8.188,-7.688,-2.000,-3, 5, -1, -1, -3, -1, -2, -1,-1.4695636554160878,0.814472801693582
1503696704229,+0.565,+0.362,-0.199,-0.714,+0.740,-0.300,-0.623,-9.062,-8.562,-1.062,-4, 7, 2, 1, 1, -3, -4, -2,-1.4665771145767255,0.8109277346852085
1503696704251,+0.566,+0.360,-0.199,-0.715,+0.732,-0.293,-0.612,-9.312,-12.188,-1.438,15, -8, -5, 0, 1, 1, 2, -2,-1.4661187245251421,0.8079194862897138
1503696704267,+0.567,+0.358,-0.198,-0.715,+0.715,-0.302,-0.614,-7.812,-13.750,-2.375,10, 15, 6, -1, -1, 1, -1, 0,-1.4654805991503048,0.8030044527907866
1503696704289,+0.567,+0.356,-0.197,-0.716,+0.721,-0.309,-0.617,-7.438,-12.812,-2.188,11, -1, 3, -2, 0, 1, -3, -4,-1.462474742370008,0.7978709612144831
1503696704311,+0.568,+0.355,-0.197,-0.716,+0.716,-0.303,-0.625,-6.938,-8.000,-0.312,-19, -5, -3, 0, -1, -1, 0, 0,-1.4634710766912962,0.7965003275440703
1503696704327,+0.568,+0.354,-0.196,-0.717,+0.713,-0.297,-0.627,-6.875,-4.875,+1.250,-7, 0, -5, -3, -1, 1, 1, 6,-1.4620046805649183,0.7932696934084336
1503696704349,+0.567,+0.353,-0.196,-0.717,+0.708,-0.287,-0.630,-6.438,-5.250,+2.625,3, 8, 3, 1, 0, 0, 0, 1,-1.457973010718961,0.7908698954426238
1503696704371,+0.567,+0.352,-0.196,-0.718,+0.707,-0.282,-0.650,-5.125,-5.875,+3.750,7, 0, -1, -1, -3, -1, -3, -1,-1.4565983809432823,0.7892801956019886
1503696704387,+0.567,+0.351,-0.195,-0.719,+0.711,-0.291,-0.663,-5.062,-6.562,+4.125,11, 0, -2, -2, 0, 0, 0, 1,-1.4551460267099459,0.7860589341612851
1503696704411,+0.567,+0.350,-0.194,-0.720,+0.715,-0.286,-0.664,-6.688,-7.188,+5.875,-24, -1, -5, -3, -1, 0, 1, 7,-1.453698914843714,0.7828406242167232
1503696704431,+0.566,+0.349,-0.193,-0.721,+0.714,-0.279,-0.644,-6.938,-8.812,+6.188,26, -4, 3, 0, -1, 0, -1, -1,-1.4497300350426685,0.7791072675885553
1503696704448,+0.566,+0.347,-0.193,-0.722,+0.705,-0.284,-0.649,-6.375,-9.688,+5.938,-14, -4, -3, 1, -2, -2, -4, -8,-1.4468923936092515,0.7756740970325436
1503696704469,+0.566,+0.346,-0.192,-0.724,+0.705,-0.296,-0.647,-6.625,-9.188,+6.375,-4, -3, -2, -1, -1, -1, -4, -3,-1.4456123181794205,0.7727547929347757
1503696704491,+0.565,+0.345,-0.191,-0.725,+0.703,-0.280,-0.648,-5.625,-8.438,+5.500,-8, 6, 3, -1, 1, 0, 0, -6,-1.4416611228688916,0.7690342337291524
1503696704507,+0.565,+0.344,-0.190,-0.725,+0.702,-0.293,-0.650,-5.625,-8.438,+4.125,17, 0, -1, -2, -1, -2, -1, 1,-1.4400910876644022,0.7655475674060263
1503696704529,+0.565,+0.343,-0.189,-0.726,+0.689,-0.302,-0.654,-5.438,-5.562,+1.812,14, -1, -3, 0, -2, 2, 2, 4,-1.4386783595217407,0.7623501483239825
1503696704551,+0.565,+0.343,-0.190,-0.726,+0.708,-0.287,-0.654,-5.000,-1.625,+1.688,-3, -1, -3, -2, 0, -2, -1, -1,-1.4387725860533869,0.7639909624745085
1503696704567,+0.565,+0.342,-0.190,-0.726,+0.725,-0.276,-0.667,-2.938,-1.812,+0.562,-14, 10, -2, 2, 1, 0, -2, -5,-1.4373040865471525,0.7621522990751682
1503696704589,+0.565,+0.342,-0.190,-0.726,+0.716,-0.286,-0.657,-2.500,-4.188,-1.750,14, 8, 6, 1, -1, -2, 1, 2,-1.4373040865471525,0.7621522990751682
1503696704614,+0.566,+0.341,-0.190,-0.726,+0.694,-0.279,-0.666,-2.188,-3.250,-3.500,-11, -8, -4, -2, -1, -1, -4, -2,-1.4383779476127778,0.7608321367520178
1503696704627,+0.567,+0.341,-0.190,-0.726,+0.686,-0.275,-0.670,-0.812,-1.750,-4.438,-20, -6, -3, -4, -3, -1, -1, -1,-1.4409148693253981,0.7613464528404738
1503696704650,+0.567,+0.341,-0.190,-0.725,+0.691,-0.277,-0.667,-0.625,-0.062,-4.375,12, -3, -2, -1, 1, -1, 0, -1,-1.4407618512973834,0.7610599459269425
1503696704671,+0.568,+0.341,-0.190,-0.725,+0.696,-0.262,-0.665,+0.000,+0.812,-3.812,-33, -10, 5, 0, 0, -1, -1, -7,-1.443299736698992,0.761574038914845
1503696704688,+0.568,+0.341,-0.191,-0.724,+0.697,-0.269,-0.661,+0.875,+0.375,-3.688,0, 6, -4, -1, 0, 0, 0, 0,-1.4432396378158656,0.7629258350915887
1503696704709,+0.569,+0.341,-0.191,-0.724,+0.691,-0.271,-0.660,+1.125,-0.375,-3.375,8, -5, -2, -5, -2, 0, -1, -1,-1.4457765838283856,0.7634386623740693
1503696704731,+0.569,+0.341,-0.191,-0.723,+0.694,-0.272,-0.669,+0.562,+0.250,-2.625,-12, -3, -1, -3, 0, 0, -1, -1,-1.4456288538300168,0.7631514809218785
1503696704751,+0.570,+0.341,-0.191,-0.723,+0.691,-0.283,-0.666,+0.062,+1.438,-2.938,0, 0, -1, -1, -1, 0, 0, -3,-1.448166746200132,0.7636640869372214
1503696704769,+0.570,+0.341,-0.191,-0.723,+0.692,-0.277,-0.668,-0.625,+0.750,-2.062,30, 3, -7, -2, -1, -3, -3, 0,-1.448166746200132,0.7636640869372214
1503696704792,+0.570,+0.341,-0.191,-0.722,+0.691,-0.275,-0.666,-0.750,-0.062,-1.500,-19, -4, -1, 0, -2, 0, 1, -1,-1.4480215748620924,0.7633770293950765
1503696704808,+0.570,+0.341,-0.191,-0.722,+0.689,-0.269,-0.664,-1.312,+0.125,-1.188,21, 3, 6, -1, -1, -1, 0, 1,-1.4480215748620924,0.7633770293950765
1503696704830,+0.570,+0.341,-0.191,-0.722,+0.687,-0.265,-0.662,-1.625,+0.625,-0.375,-9, 3, 1, 3, 0, -1, 2, -1,-1.4480215748620924,0.7633770293950765
1503696704852,+0.570,+0.341,-0.192,-0.722,+0.689,-0.266,-0.662,-1.812,+3.625,-0.062,-2, -8, -3, 1, -1, 2, -3, -3,-1.4481084640472013,0.7650126367933212
1503696704867,+0.570,+0.342,-0.192,-0.722,+0.686,-0.265,-0.664,-1.375,+3.062,-0.438,-8, -4, -6, -5, -1, -4, -4, -2,-1.449567412171548,0.7668519124952738
1503696704890,+0.570,+0.341,-0.192,-0.722,+0.685,-0.267,-0.672,-1.438,+2.062,-0.750,-48, -6, 2, -1, 0, 0, -1, -5,-1.4481084640472013,0.7650126367933212
1503696704912,+0.570,+0.341,-0.193,-0.722,+0.697,-0.270,-0.667,-1.750,+1.000,-1.562,0, 3, 0, 0, -1, 0, 1, -2,-1.4481952309506052,0.7666496069941392
1503696704927,+0.571,+0.341,-0.193,-0.722,+0.684,-0.263,-0.659,-1.875,+1.125,-1.312,-16, 1, -1, -4, 0, -3, -6, -2,-1.450730282679032,0.767159910335656
1503696704952,+0.571,+0.341,-0.193,-0.721,+0.677,-0.255,-0.667,-1.812,+2.500,-1.438,1, -2, -2, 1, -1, 1, 1, 0,-1.4505880858299307,0.7668711492699279
1503696704972,+0.571,+0.341,-0.194,-0.721,+0.688,-0.250,-0.667,-1.250,+2.562,-1.438,8, 0, -10, -1, -1, -2, -3, -3,-1.450673045776543,0.7685075404422334
1503696704988,+0.571,+0.341,-0.194,-0.721,+0.692,-0.255,-0.664,-1.250,+1.312,-1.688,6, -4, -2, -2, -2, -2, 0, 0,-1.450673045776543,0.7685075404422334
1503696705010,+0.572,+0.341,-0.194,-0.721,+0.686,-0.256,-0.659,-1.500,+0.062,-2.625,7, 0, 4, -1, 1, -2, -3, -2,-1.4532071424570863,0.7690165855242742
1503696705039,+0.572,+0.340,-0.195,-0.720,+0.681,-0.264,-0.666,-1.688,-0.188,-3.375,-1, -3, -1, 0, 0, -2, 0, 0,-1.4516989431092955,0.7685264937832992
1503696705049,+0.573,+0.340,-0.195,-0.720,+0.685,-0.261,-0.661,-2.250,+0.250,-3.812,-6, 3, -5, 2, -1, 0, -1, 2,-1.45423442939873,0.7690336005462228
1503696705070,+0.573,+0.340,-0.195,-0.720,+0.689,-0.268,-0.654,-2.438,+0.312,-3.688,-13, -2, -1, 1, -1, -3, -2, -7,-1.45423442939873,0.7690336005462228
1503696705092,+0.573,+0.340,-0.196,-0.719,+0.688,-0.266,-0.647,-2.750,+0.938,-4.312,15, 0, 0, 1, -1, 0, 0, -1,-1.454178198946182,0.7703786394995427
1503696705107,+0.574,+0.339,-0.196,-0.719,+0.693,-0.262,-0.661,-2.750,+0.562,-4.688,-2, 0, -3, 1, 2, 0, -2, -2,-1.4552679836757645,0.7690503946678411
1503696705130,+0.574,+0.339,-0.197,-0.719,+0.693,-0.264,-0.658,-3.250,+1.312,-5.250,10, 0, -1, -2, 0, -1, 1, 2,-1.4553489384525298,0.7706871152512192
1503696705154,+0.575,+0.339,-0.197,-0.718,+0.693,-0.260,-0.660,-3.188,+0.938,-5.812,3, -4, -1, -2, -1, 2, 5, 3,-1.4577477491854685,0.7708981462087442
1503696705167,+0.576,+0.338,-0.198,-0.717,+0.702,-0.245,-0.659,-3.000,+0.812,-6.562,-5, 0, -6, 1, 0, -2, -4, 0,-1.4587890726903427,0.7709115991833919
1503696705190,+0.577,+0.338,-0.199,-0.717,+0.697,-0.240,-0.669,-1.812,+1.062,-6.500,1, -2, 2, -2, -5, -1, -1, -1,-1.4614007543253502,0.773048382433416
1503696705212,+0.577,+0.338,-0.199,-0.716,+0.709,-0.254,-0.658,-2.438,+0.000,-5.938,-1, 1, -1, -2, -1, -1, -3, -1,-1.4612704072463039,0.7727537552864903
1503696705227,+0.578,+0.337,-0.200,-0.716,+0.704,-0.248,-0.666,-1.938,-0.312,-6.125,-6, -2, -2, 1, -1, 0, -5, -1,-1.4624488579933244,0.7730598207569636
1503696705251,+0.579,+0.337,-0.200,-0.715,+0.705,-0.244,-0.668,-1.625,-0.562,-5.438,-8, -3, 0, -4, -3, 0, 1, -2,-1.464855454581378,0.7732623901247632
1503696705272,+0.580,+0.336,-0.200,-0.715,+0.703,-0.249,-0.656,-1.750,-0.875,-4.750,1, -1, -5, -1, 0, -2, -2, -3,-1.4659651887271847,0.7719329692892901
1503696705288,+0.580,+0.336,-0.201,-0.714,+0.700,-0.236,-0.655,-1.062,-0.625,-4.250,-19, -4, 1, 0, 1, -1, -2, -3,-1.4659124712933078,0.7732705484231053
1503696705310,+0.581,+0.336,-0.201,-0.714,+0.702,-0.236,-0.658,+0.125,+0.750,-3.062,-6, -1, -2, 0, 0, 0, 1, -2,-1.4684477404826326,0.773766624743954
1503696705332,+0.581,+0.336,-0.201,-0.714,+0.709,-0.240,-0.664,-0.875,+0.500,-1.562,1, 2, 2, 0, 0, 0, 2, 0,-1.4684477404826326,0.773766624743954
1503696705347,+0.581,+0.336,-0.201,-0.713,+0.705,-0.237,-0.658,-1.375,-2.125,-1.562,-8, 3, -2, -4, -2, 1, -1, -1,-1.468325177733591,0.7734699225640258
1503696705370,+0.581,+0.336,-0.201,-0.713,+0.696,-0.235,-0.651,-2.000,-1.438,-0.938,0, -5, -2, -3, -2, -1, -1, 0,-1.468325177733591,0.7734699225640258
1503696705393,+0.582,+0.336,-0.201,-0.713,+0.703,-0.238,-0.664,-1.250,+0.188,-0.312,4, -4, -1, -2, -2, -1, -2, 1,-1.4708613304843667,0.7739658058127497
1503696705407,+0.582,+0.336,-0.201,-0.713,+0.708,-0.236,-0.660,-1.500,+0.625,-1.250,13, 8, 3, 0, -1, -3, 1, 2,-1.4708613304843667,0.7739658058127497
1503696705430,+0.582,+0.335,-0.202,-0.713,+0.713,-0.224,-0.653,-1.875,+0.625,-1.188,0, 4, 4, 1, 2, 0, 0, 0,-1.4695126323813361,0.7737727634536969
1503696705452,+0.582,+0.335,-0.202,-0.713,+0.711,-0.223,-0.660,-0.625,+0.500,-1.562,32, 0, -3, 0, 0, -2, 0, 0,-1.4695126323813361,0.7737727634536969
1503696705467,+0.583,+0.335,-0.202,-0.712,+0.707,-0.235,-0.668,-0.688,-0.188,-3.250,22, 10, 5, 0, 1, -1, -2, 1,-1.4719288151737708,0.7739688403662438
1503696705490,+0.583,+0.335,-0.202,-0.712,+0.711,-0.224,-0.654,-1.500,-0.875,-3.125,-12, -7, -9, -1, -1, 0, 2, -1,-1.4719288151737708,0.7739688403662438
1503696705512,+0.584,+0.335,-0.203,-0.712,+0.706,-0.229,-0.658,-0.188,-0.625,-2.500,20, 1, -3, -1, -1, -3, -1, -1,-1.4745306322732623,0.7760936274938799
1503696705534,+0.584,+0.335,-0.203,-0.711,+0.695,-0.254,-0.650,-1.062,+0.688,-2.625,9, 5, 5, -1, 0, 0, -1, -3,-1.4744150103640674,0.775795216824211
1503696705552,+0.584,+0.335,-0.203,-0.711,+0.706,-0.249,-0.660,-2.000,+1.938,-1.688,-9, 1, -3, -2, -1, -2, -2, 0,-1.4744150103640674,0.775795216824211
1503696705572,+0.584,+0.335,-0.203,-0.711,+0.715,-0.243,-0.655,-1.875,+2.375,-1.250,-31, -4, -3, -3, -3, -2, -2, -3,-1.4744150103640674,0.775795216824211
1503696705588,+0.584,+0.335,-0.204,-0.711,+0.716,-0.240,-0.646,-2.312,+0.000,-1.625,12, 8, 0, 2, 0, 1, 1, 2,-1.4744813684119282,0.7774270782407292
1503696705610,+0.584,+0.335,-0.204,-0.711,+0.702,-0.244,-0.657,-2.500,-1.625,-2.250,9, -6, -7, -4, -2, -1, 0, -4,-1.4744813684119282,0.7774270782407292
1503696705632,+0.585,+0.335,-0.204,-0.710,+0.692,-0.244,-0.658,-2.188,+1.438,-2.875,-29, -6, -4, -1, -1, -1, -4, -6,-1.4769013507895612,0.7776192777202717
1503696705647,+0.585,+0.335,-0.205,-0.710,+0.698,-0.236,-0.663,-1.500,+3.812,-1.688,15, 4, 5, -2, 1, 0, 0, 3,-1.4769659558344297,0.779250774392468
1503696705670,+0.585,+0.335,-0.205,-0.710,+0.712,-0.229,-0.660,-1.250,+3.812,-2.438,14, -1, -1, 2, 1, 1, 0, -1,-1.4769659558344297,0.779250774392468
1503696705692,+0.585,+0.335,-0.206,-0.709,+0.712,-0.220,-0.667,-0.188,+3.125,-2.688,0, 2, -4, -1, 2, 1, 0, 3,-1.476917751510997,0.7805827305937197
1503696705707,+0.585,+0.336,-0.206,-0.709,+0.712,-0.223,-0.665,+1.188,+2.000,-2.562,-55, -8, 0, -1, -3, -4, -4, -9,-1.4783318977832205,0.7824095882785882
1503696705730,+0.586,+0.336,-0.206,-0.708,+0.715,-0.226,-0.658,+0.938,-0.188,-2.062,28, -2, -5, -2, -2, 0, 3, 0,-1.4807540762096407,0.7825992669919348
1503696705752,+0.586,+0.336,-0.206,-0.708,+0.705,-0.229,-0.657,+1.625,+0.688,-2.250,11, 2, 3, -1, -1, -2, -1, -3,-1.4807540762096407,0.7825992669919348
1503696705774,+0.587,+0.336,-0.206,-0.707,+0.702,-0.228,-0.651,+2.375,+1.812,-2.000,9, 4, 12, 2, 0, 0, -1, 2,-1.4831798218102372,0.7827888741779085
1503696705791,+0.587,+0.337,-0.206,-0.707,+0.706,-0.229,-0.648,+2.438,+3.312,-1.875,-4, 1, 0, -2, 1, -1, -2, -1,-1.4845956858387195,0.784621386567225
1503696705812,+0.587,+0.338,-0.206,-0.706,+0.705,-0.222,-0.651,+2.562,+4.750,-1.688,8, 0, -3, -2, -2, 0, 1, 3,-1.4859124691183472,0.7861578094482939
1503696705834,+0.587,+0.339,-0.207,-0.706,+0.713,-0.225,-0.652,+2.438,+7.500,-1.500,-7, -4, -3, 0, 0, -1, -1, -2,-1.4873946626802255,0.7896244226691872
1503696705850,+0.587,+0.340,-0.208,-0.705,+0.726,-0.227,-0.645,+0.875,+6.375,-1.625,-11, -1, 1, 1, 0, 0, 0, -3,-1.4887795303570492,0.7927944868337818
1503696705872,+0.587,+0.340,-0.208,-0.704,+0.732,-0.231,-0.640,-0.875,+3.875,-2.688,-3, 1, -4, -3, -2, -1, -2, -3,-1.4886804993091791,0.7924940410857865
1503696705898,+0.587,+0.340,-0.209,-0.704,+0.722,-0.240,-0.642,-1.625,+1.875,-3.875,7, 2, -3, -1, 0, 1, 4, 3,-1.4887378887692884,0.7941216759855245
1503696705910,+0.588,+0.340,-0.210,-0.703,+0.723,-0.231,-0.633,-2.375,+1.000,-4.438,3, 2, -2, 0, -1, -1, -1, -1,-1.491222809946733,0.7959378617939151
1503696705932,+0.588,+0.340,-0.210,-0.703,+0.715,-0.224,-0.635,-2.875,+1.625,-5.562,0, -3, -1, -2, -2, -1, -2, 0,-1.491222809946733,0.7959378617939151
1503696705955,+0.589,+0.340,-0.211,-0.702,+0.711,-0.222,-0.640,-2.938,+2.938,-6.312,-4, -2, -3, -1, -1, 1, 1, 0,-1.4937078238886445,0.7977518597963098
1503696705970,+0.589,+0.340,-0.212,-0.701,+0.701,-0.221,-0.647,-2.562,+5.938,-6.688,-7, 0, 0, -1, -1, -2, -3, -4,-1.4936684007023584,0.7990768350904829
1503696705999,+0.590,+0.340,-0.214,-0.701,+0.719,-0.217,-0.652,-2.250,+7.438,-7.125,-6, -1, 1, 0, 1, -1, -2, 0,-1.4962968550863995,0.802821946018676
1503696706014,+0.590,+0.341,-0.215,-0.699,+0.719,-0.216,-0.642,-0.938,+9.188,-7.812,19, 6, -1, 0, 1, -1, -1, 1,-1.4975957341786184,0.8056880188039377
1503696706033,+0.591,+0.341,-0.217,-0.698,+0.720,-0.217,-0.641,-0.938,+11.062,-8.688,-21, -5, 4, -1, 0, -1, -1, -2,-1.5001291227126232,0.8091268284208025
1503696706052,+0.591,+0.342,-0.219,-0.697,+0.716,-0.208,-0.646,+0.625,+13.312,-7.812,6, -4, -5, 1, -2, -1, -3, -3,-1.5015700920640513,0.8139332664675489
1503696706074,+0.591,+0.344,-0.221,-0.695,+0.723,-0.215,-0.639,+1.000,+15.500,-6.438,18, 1, -2, -3, 0, -2, -1, 0,-1.5043677882498627,0.820290813461328
1503696706098,+0.591,+0.345,-0.223,-0.694,+0.733,-0.214,-0.630,+1.250,+16.438,-6.375,3, 2, 0, 1, 0, 1, 0, 2,-1.5058197334719359,0.8251089487181388
1503696706112,+0.591,+0.347,-0.225,-0.693,+0.738,-0.207,-0.616,+0.938,+19.062,-5.438,6, -1, 2, 0, -1, 0, 2, 3,-1.5087194247135647,0.831795979125715
1503696706134,+0.590,+0.350,-0.228,-0.691,+0.731,-0.197,-0.616,+2.000,+23.125,-4.938,-2, -1, -2, -2, -1, -3, -3, -1,-1.5105603561111312,0.8412188999246867
1503696706150,+0.589,+0.353,-0.231,-0.689,+0.731,-0.198,-0.613,+3.562,+27.500,-4.125,-9, -7, -3, -2, -2, 1, -5, -4,-1.5124463422571168,0.850674046021072
1503696706172,+0.588,+0.356,-0.234,-0.687,+0.756,-0.208,-0.606,+3.625,+32.188,-3.938,3, 0, 0, -1, -2, 0, 0, -2,-1.51437717895052,0.8601619048003486
1503696706194,+0.587,+0.359,-0.238,-0.685,+0.774,-0.210,-0.602,+2.688,+32.188,-3.750,-26, -5, -1, 0, -2, -3, 1, -4,-1.5163926590479953,0.8713306356999343
1503696706210,+0.586,+0.363,-0.241,-0.683,+0.778,-0.204,-0.583,+3.312,+32.750,-4.750,-5, -3, 1, 0, 0, 0, -1, -3,-1.5199197632292065,0.8827963976952711
1503696706232,+0.584,+0.367,-0.245,-0.681,+0.779,-0.200,-0.567,+4.750,+35.750,-5.562,5, -1, -2, -1, 0, -1, -2, -2,-1.5210955861806936,0.8954995819430066
1503696706254,+0.583,+0.371,-0.249,-0.678,+0.798,-0.207,-0.566,+5.938,+35.688,-7.125,22, 3, -3, -2, -1, 2, -1, 2,-1.524751049313109,0.9084212119975277
1503696706270,+0.583,+0.375,-0.253,-0.675,+0.819,-0.202,-0.553,+5.812,+35.312,-10.250,1, 0, -2, 1, 0, -1, -1, 0,-1.5309198516530134,0.9218674320217329
1503696706300,+0.582,+0.378,-0.257,-0.672,+0.804,-0.201,-0.526,+6.062,+32.562,-11.562,-5, 2, 0, 0, -1, 0, -1, -2,-1.533144901986268,0.9329547297283648
1503696706314,+0.582,+0.382,-0.261,-0.669,+0.807,-0.195,-0.521,+6.188,+32.750,-9.625,0, 0, -1, -1, -2, 1, -1, 2,-1.5394157999897888,0.9465024801591143
1503696706330,+0.581,+0.386,-0.265,-0.666,+0.814,-0.209,-0.534,+8.188,+36.312,-10.188,-11, 0, 0, 1, -1, 1, 1, 1,-1.5433257025776301,0.9596521480381044
1503696706352,+0.580,+0.390,-0.269,-0.662,+0.828,-0.222,-0.512,+8.125,+35.625,-14.125,-7, -1, 5, -3, -1, -1, -1, -3,-1.5472770282388741,0.9725549081227838
1503696706374,+0.581,+0.394,-0.273,-0.659,+0.861,-0.193,-0.484,+6.688,+29.688,-16.000,-5, -6, -3, 0, 0, -3, 0, -3,-1.556110600749225,0.9867197149850006
1503696706392,+0.581,+0.396,-0.275,-0.655,+0.872,-0.187,-0.483,+9.938,+21.812,-15.812,-13, -3, -1, 0, -2, -6, -3, -2,-1.559308544172086,0.9928317783292299
1503696706412,+0.582,+0.398,-0.277,-0.652,+0.851,-0.204,-0.483,+7.812,+16.812,-16.125,15, 11, 1, -1, 0, -1, 1, 2,-1.5649316985995725,0.9997067880457787
1503696706434,+0.583,+0.400,-0.279,-0.649,+0.835,-0.197,-0.485,+6.062,+17.688,-16.188,2, -4, 3, -4, -3, -1, -2, -3,-1.5705697809293566,1.0065933496002089
1503696706450,+0.584,+0.402,-0.282,-0.646,+0.822,-0.180,-0.472,+6.062,+17.500,-14.500,-11, -5, -4, 0, -1, 1, -1, -2,-1.5762178965744122,1.0151612264643246
1503696706471,+0.585,+0.404,-0.284,-0.644,+0.846,-0.186,-0.475,+7.875,+18.812,-11.875,1, -3, -3, -1, 1, -3, 0, 0,-1.5818666084185673,1.0223715907741793
1503696706496,+0.585,+0.407,-0.286,-0.641,+0.890,-0.192,-0.470,+7.375,+20.875,-11.250,2, -3, 0, 0, 4, 0, -2, 1,-1.586818985451653,1.0308962399034611
1503696706508,+0.586,+0.408,-0.287,-0.639,+0.904,-0.198,-0.479,+6.375,+12.375,-11.688,-21, 0, -2, -1, -3, 1, -2, 0,-1.5908526341591847,1.0344271814634016
1503696706531,+0.588,+0.408,-0.288,-0.637,+0.856,-0.189,-0.466,+4.000,-1.062,-16.438,-5, -2, -2, -3, -2, 0, -1, -3,-1.595601220723757,1.0363448736465863
1503696706553,+0.590,+0.407,-0.288,-0.635,+0.836,-0.159,-0.447,+1.812,-3.750,-14.938,26, 4, -2, 0, -1, 10, 3, -1,-1.598741784960467,1.0345573065568339
1503696706569,+0.591,+0.407,-0.289,-0.633,+0.838,-0.175,-0.452,+3.438,+5.625,-12.000,15, 3, -5, -2, 2, -4, -4, 0,-1.6011494394193957,1.0360467287599637
1503696706594,+0.591,+0.409,-0.291,-0.632,+0.856,-0.190,-0.451,+1.688,+15.125,-10.312,-36, -14, -6, -3, -6, -3, -4, -3,-1.604409971124562,1.0431545303125551
1503696706614,+0.591,+0.410,-0.293,-0.630,+0.904,-0.176,-0.455,+1.000,+12.375,-10.250,2, -4, 1, -2, -4, -1, -1, -3,-1.6060759196882182,1.0479354442007072
1503696706630,+0.593,+0.410,-0.293,-0.628,+0.890,-0.171,-0.437,+1.500,+1.188,-13.750,-2, 5, 0, 2, 4, 0, 7, -1,-1.6108715833202727,1.048172494771682
1503696706651,+0.595,+0.409,-0.294,-0.626,+0.887,-0.171,-0.431,+1.188,-2.062,-17.938,1, 7, 0, 0, -4, -2, 3, 1,-1.6140113534831806,1.048033112083827
1503696706674,+0.597,+0.409,-0.295,-0.624,+0.881,-0.152,-0.435,+0.750,-1.688,-17.812,11, -2, -3, -1, 3, 0, -3, -2,-1.618794341305518,1.0499303501148916
1503696706688,+0.599,+0.408,-0.296,-0.622,+0.888,-0.148,-0.461,-0.750,-0.875,-16.875,-7, 1, 0, -3, -1, -2, -4, 0,-1.621963150602363,1.0497863903720226
1503696706711,+0.601,+0.406,-0.297,-0.621,+0.885,-0.144,-0.469,-1.375,-2.062,-18.312,12, 5, 2, 1, 0, -2, -1, -3,-1.623475048681469,1.0479097495569176
1503696706734,+0.603,+0.405,-0.298,-0.619,+0.907,-0.133,-0.458,-1.250,-4.062,-16.625,4, 5, 3, 0, -2, 0, 0, -5,-1.6266833424284357,1.047767715712619
1503696706748,+0.605,+0.404,-0.299,-0.618,+0.927,-0.135,-0.458,-1.312,-7.750,-15.375,-5, -8, -2, -1, 4, -1, -1, 1,-1.6298378501442683,1.0479263436600652
1503696706771,+0.607,+0.403,-0.299,-0.616,+0.919,-0.129,-0.448,+0.312,-3.125,-12.250,-20, -4, -4, -4, -3, -2, -1, -1,-1.6331293836708973,1.046115012801162
1503696706796,+0.608,+0.403,-0.299,-0.615,+0.951,-0.139,-0.479,+3.875,-3.875,-6.000,5, -3, 3, 0, -6, -3, -1, 2,-1.6355759031462536,1.046220145244024
1503696706808,+0.610,+0.402,-0.298,-0.615,+0.946,-0.156,-0.480,+1.500,-13.812,-7.125,-14, -6, 3, 1, -1, 2, 1, -2,-1.6387876795881422,1.0433498337119034
1503696706832,+0.612,+0.400,-0.296,-0.615,+0.931,-0.146,-0.420,-1.438,-21.875,-8.500,-1, 6, -7, -1, -4, -2, -1, -2,-1.6405001072934535,1.036809714471058
1503696706854,+0.614,+0.397,-0.295,-0.615,+0.888,-0.127,-0.435,-0.688,-22.000,-9.375,-3, 15, -1, 1, 0, 1, 2, 0,-1.6406305329206685,1.0299338824862936
1503696706871,+0.617,+0.395,-0.293,-0.615,+0.851,-0.111,-0.484,+1.000,-20.625,-7.250,5, 2, -1, -1, 0, 0, 0, 1,-1.6448021622454054,1.0238460036103167
1503696706891,+0.619,+0.393,-0.291,-0.615,+0.869,-0.129,-0.465,-0.062,-18.188,-7.375,-13, -9, 1, -4, -8, 0, 1, -1,-1.6466230957072328,1.0173654693353096
1503696708141,+0.578,+0.554,-0.188,-0.569,+0.835,-0.378,-0.303,+41.250,+14.438,+13.812,0, -2, -3, 0, 1, 3, 4, 6,-1.8855794319195687,1.2170715027094732
