Timestamp,Orientation X,Orientation Y,Orientation Z,Orientation W,Accelerometer X,Accelerometer Y,Accelerometer Z,Gyroscope X,Gyroscope Y,Gyroscope Z,EMG1,EMG2,EMG3,EMG4,EMG5,EMG6,EMG7,EMG8,Roll,Yaw,Window
1503525030780,+0.338,-0.123,+0.589,-0.724,-1.000,-0.206,-0.293,+4.062,+7.438,+11.750,-7, -3, -3, 1, 6, 10, -7, -11,-0.707814904349125,-1.2841550115408715,0
1503525030801,+0.336,-0.123,+0.587,-0.726,-0.936,-0.217,-0.280,+4.750,+12.750,+14.875,-6, -2, -3, -2, -3, 1, -1, -2,-0.7044289002698548,-1.279231600422082,0
1503525030818,+0.334,-0.123,+0.585,-0.728,-0.887,-0.202,-0.260,+3.562,+8.688,+16.500,-4, -1, -1, -4, -2, -6, -3, -9,-0.7010460088374019,-1.2743226623878512,0
1503525030840,+0.332,-0.124,+0.585,-0.730,-0.937,-0.204,-0.235,+0.688,+5.562,+14.125,-2, 1, -1, -5, -9, -5, 0, -8,-0.6992921456308727,-1.2755551359626272,0
1503525030864,+0.331,-0.125,+0.584,-0.731,-0.994,-0.204,-0.266,+1.438,+4.000,+11.062,-1, -2, -1, 3, -1, 8, 2, 8,-0.6988431894987689,-1.2737940380147572,0
1503525030878,+0.329,-0.125,+0.582,-0.733,-1.010,-0.191,-0.280,-0.125,+10.000,+12.438,2, -6, 3, 6, 0, -3, -6, -25,-0.6954627283466712,-1.2689147519412267,0
1503525030900,+0.328,-0.125,+0.579,-0.736,-0.969,-0.199,-0.292,+0.375,+18.875,+15.438,1, 1, -7, -4, 1, 2, 3, 10,-0.694410048723081,-1.261777209390671,0
1503525030922,+0.326,-0.126,+0.576,-0.739,-0.931,-0.192,-0.266,-0.438,+23.375,+17.312,0, 0, 1, -1, 0, -5, -12, -31,-0.6925737424151652,-1.2552908282987592,0
1503525030944,+0.324,-0.126,+0.573,-0.742,-0.933,-0.171,-0.284,+0.812,+19.688,+18.812,-1, 0, -1, 0, 8, -1, 3, -18,-0.6895000673233237,-1.2481479534712137,0
1503525030960,+0.322,-0.127,+0.571,-0.744,-0.953,-0.168,-0.272,-3.125,+12.562,+15.750,-6, 0, -5, -4, -2, -3, -2, -5,-0.6873390484232592,-1.2440476918501955,0
1503525030982,+0.321,-0.128,+0.570,-0.746,-0.956,-0.174,-0.292,+1.625,+8.500,+11.562,-8, -1, -1, 0, -2, 7, -3, -1,-0.6873743705927768,-1.242728607259914,0
1503525031004,+0.319,-0.128,+0.568,-0.748,-0.950,-0.174,-0.302,+4.000,+9.125,+15.188,-3, -1, 0, 1, 3, 1, -5, -13,-0.6839845018959694,-1.237955654068247,0
1503525031021,+0.317,-0.128,+0.567,-0.750,-0.966,-0.180,-0.324,+5.375,+10.938,+15.375,3, -4, -6, -5, -6, -8, 3, 4,-0.6807980013401014,-1.2358669162306102,0
1503525031042,+0.315,-0.128,+0.565,-0.752,-0.959,-0.174,-0.303,+5.188,+13.625,+14.562,4, 1, 6, 4, -2, -1, -2, -4,-0.6774116083383733,-1.2311161802148707,0
1503525031064,+0.313,-0.127,+0.563,-0.754,-1.001,-0.184,-0.261,+1.812,+19.250,+12.000,8, 1, 0, -5, 1, -2, -7, 11,-0.6728124883476682,-1.22567764017806,0
1503525031080,+0.313,-0.127,+0.562,-0.755,-0.960,-0.146,-0.302,-0.188,+9.750,+5.375,1, 1, -2, 0, 1, 0, 2, 0,-0.6731072204398264,-1.2234010024583324,0
1503525031102,+0.312,-0.128,+0.560,-0.757,-0.924,-0.124,-0.312,-1.000,+10.188,+6.312,1, -3, -1, -1, -2, -3, 5, 46,-0.6729172529525006,-1.2194741742236685,0
1503525031124,+0.312,-0.128,+0.558,-0.758,-0.961,-0.151,-0.282,-4.625,+13.500,+7.250,-7, -3, -3, -2, 0, -13, -2, -17,-0.6730059042559479,-1.21455743106706,0
1503525031148,+0.312,-0.129,+0.556,-0.759,-0.993,-0.146,-0.267,-7.188,+13.688,+5.125,1, 5, 2, 0, 5, 21, 4, 4,-0.674298492763564,-1.210360525507777,0
1503525031163,+0.312,-0.129,+0.554,-0.761,-0.925,-0.128,-0.357,-4.250,+10.312,+3.875,0, -6, 8, 5, -2, -4, -3, -10,-0.6748767745765308,-1.205866264806958,0
1503525031184,+0.312,-0.130,+0.551,-0.763,-0.910,-0.127,-0.327,-6.875,+17.125,+6.312,-3, -9, -3, 1, 0, -2, -3, -11,-0.6764476363957592,-1.1994684672601268,0
1503525031200,+0.312,-0.130,+0.549,-0.764,-0.889,-0.128,-0.365,-5.625,+9.125,+7.625,1, 4, 2, -1, 15, 43, 23, 57,-0.6765296017306013,-1.1946066214390507,0
1503525031224,+0.312,-0.131,+0.547,-0.766,-0.928,-0.148,-0.338,-8.125,+11.000,+7.250,-8, -5, -9, -6, -7, -8, 5, -28,-0.6782944754356884,-1.1908892078505995,0
1503525031255,+0.313,-0.131,+0.545,-0.767,-0.991,-0.154,-0.332,-10.250,+17.062,+0.125,-1, -1, -4, -1, -3, -8, -18, -15,-0.6803714174442181,-1.1861523029451846,0
1503525031261,+0.315,-0.131,+0.542,-0.768,-0.969,-0.119,-0.349,-8.625,+19.312,-2.125,-9, -2, -16, -1, -3, -4, -1, -12,-0.6842536843403381,-1.1789116756225122,0
1503525031283,+0.316,-0.131,+0.538,-0.770,-0.900,-0.120,-0.385,-8.688,+20.438,+0.375,4, 3, -1, -2, -10, -9, 0, -4,-0.6864302360301402,-1.1694068553725672,0
1503525031304,+0.317,-0.131,+0.535,-0.772,-0.899,-0.154,-0.345,-10.188,+22.562,+0.000,0, 1, 6, -5, -9, 1, -11, 5,-0.6888192290536033,-1.1625487460918211,0
1503525031322,+0.319,-0.131,+0.532,-0.773,-0.936,-0.152,-0.336,-10.750,+17.688,-1.688,5, 1, -2, 0, 2, -16, 11, 52,-0.6927433788168254,-1.1553947196153538,0
1503525031342,+0.320,-0.131,+0.529,-0.775,-0.948,-0.123,-0.388,-8.938,+18.375,-1.250,-4, -2, 1, -2, -2, -5, 8, -15,-0.6951515474804901,-1.148595421927302,0
1503525031365,+0.321,-0.131,+0.526,-0.776,-0.929,-0.129,-0.387,-8.188,+20.438,-0.625,-18, -5, -6, -2, 3, 24, 8, 1,-0.6970702624223049,-1.14138476408231,0
1503525031380,+0.323,-0.131,+0.523,-0.778,-0.918,-0.135,-0.390,-8.250,+18.938,-0.938,5, 4, -1, 0, -4, 1, -2, -4,-0.7015318033640021,-1.1347541771696685,0
1503525031402,+0.324,-0.130,+0.521,-0.779,-0.908,-0.137,-0.396,-6.250,+15.062,-1.438,-6, -6, -2, -4, -3, 3, 5, 36,-0.7025264586494586,-1.1294099562677795,0
1503525031425,+0.325,-0.130,+0.519,-0.780,-0.928,-0.132,-0.400,-6.125,+13.312,+0.188,-8, -3, -1, -3, -5, -6, -11, -20,-0.704672828025308,-1.1248311163521032,0
1503525031440,+0.325,-0.130,+0.516,-0.781,-0.965,-0.122,-0.422,-3.875,+18.438,+0.250,-3, -7, -5, -3, -1, -2, 8, 0,-0.7045728807790712,-1.11758600177962,0
1503525031462,+0.326,-0.129,+0.514,-0.783,-0.952,-0.131,-0.433,-1.562,+16.250,-2.875,-4, 1, -1, 0, -6, -21, 1, 1,-0.7060983526979878,-1.1127343192686012,0
1503525031484,+0.327,-0.127,+0.512,-0.784,-0.915,-0.127,-0.431,+1.312,+13.938,-6.625,1, 6, 4, 1, 7, 8, 2, 7,-0.7060188462869,-1.106681943240391,0
1503525031500,+0.328,-0.125,+0.511,-0.784,-0.934,-0.134,-0.437,+4.438,+11.688,-9.000,-4, 12, 2, 2, 0, -7, 7, 15,-0.7056556642672459,-1.102734836678016,0
1503525031524,+0.329,-0.122,+0.510,-0.785,-0.959,-0.158,-0.442,+7.375,+12.000,-12.688,11, -5, -4, -3, -8, 13, 10, 54,-0.704711610478913,-1.0985195748074907,0
1503525031544,+0.331,-0.119,+0.510,-0.785,-0.937,-0.166,-0.438,+9.000,+12.000,-15.062,-6, -4, -1, 1, 2, -2, -13, -10,-0.7055556859424533,-1.096527673614952,0
1503525031560,+0.333,-0.114,+0.509,-0.786,-0.942,-0.186,-0.446,+12.625,+13.438,-17.688,-1, -3, 1, 1, 10, 1, 1, -21,-0.7045963154034347,-1.0910177976237643,0
1503525034327,+0.276,-0.127,+0.609,-0.733,-1.023,-0.183,-0.174,-6.500,+12.812,+8.125,-4, -2, -4, -7, -1, 0, 3, 26,-0.601221745895914,-1.3402806547912836,1
1503525034342,+0.276,-0.128,+0.606,-0.735,-1.020,-0.165,-0.179,-8.938,+19.062,+10.125,3, 0, 2, 6, 5, 1, -13, -14,-0.6028088091664877,-1.3332797726023795,1
1503525034364,+0.277,-0.128,+0.603,-0.737,-0.969,-0.158,-0.193,-8.625,+24.875,+10.625,-4, 0, -1, -3, 17, 12, -5, -13,-0.6049496392758692,-1.3257387217836427,1
1503525034387,+0.277,-0.129,+0.599,-0.740,-0.952,-0.154,-0.178,-9.500,+22.875,+11.000,-1, -4, -4, -10, -8, -6, -4, -9,-0.6067703785104015,-1.316389510225272,1
1503525034401,+0.277,-0.131,+0.597,-0.741,-0.955,-0.142,-0.197,-12.062,+12.875,+8.500,3, 1, -4, 1, 1, -3, -3, -9,-0.6093811294684159,-1.3125627515929916,1
1503525034424,+0.278,-0.133,+0.596,-0.742,-1.015,-0.146,-0.207,-15.250,+7.812,+5.562,2, -2, -1, 6, 0, 0, -2, 12,-0.6140737348006883,-1.311545073124096,1
1503525034447,+0.279,-0.134,+0.593,-0.743,-1.048,-0.121,-0.247,-13.875,+12.688,+3.375,-2, -4, -7, -2, 5, 10, -3, -9,-0.6170354914724548,-1.304475239120585,1
1503525034462,+0.280,-0.136,+0.589,-0.746,-1.007,-0.110,-0.226,-13.188,+24.500,+7.375,1, -1, 1, 2, 0, -4, 3, 10,-0.6219763668213435,-1.296059454045453,1
1503525034484,+0.280,-0.137,+0.586,-0.748,-0.931,-0.119,-0.220,-11.875,+24.000,+10.625,-6, -2, -1, -3, -6, -3, -8, -8,-0.62350570914801,-1.2893218564641982,1
1503525034507,+0.281,-0.138,+0.582,-0.751,-0.933,-0.130,-0.235,-10.188,+21.625,+10.938,-1, 0, 0, -2, -3, -2, 0, -4,-0.6271461382920455,-1.280353938861185,1
1503525034522,+0.281,-0.139,+0.580,-0.752,-0.950,-0.132,-0.271,-12.500,+12.188,+7.750,1, -2, -1, -2, -6, -14, -3, 12,-0.6284273392315975,-1.2760352221090796,1
1503525034546,+0.282,-0.141,+0.578,-0.753,-0.966,-0.118,-0.269,-13.500,+5.562,+8.125,-3, -2, 2, 12, -2, -2, -1, 7,-0.6328694902102396,-1.2725236091556165,1
1503525034567,+0.282,-0.143,+0.576,-0.754,-0.936,-0.083,-0.290,-8.500,+4.438,+5.938,0, -2, -2, 1, 8, 8, 13, -3,-0.635414273554634,-1.268961505706162,1
1503525034582,+0.281,-0.144,+0.575,-0.754,-0.942,-0.093,-0.258,-7.750,+3.750,+11.375,-1, 2, 2, -2, 7, 24, -4, -6,-0.63456335544158,-1.2669322837928254,1
1503525034606,+0.281,-0.146,+0.574,-0.755,-0.988,-0.128,-0.265,-7.375,+5.625,+9.875,5, -3, 0, -3, -5, -9, -9, -7,-0.6373353548784386,-1.2660703727180782,1
1503525034626,+0.281,-0.147,+0.572,-0.756,-1.014,-0.085,-0.288,-6.750,+9.312,+5.562,-3, -16, -9, -2, -4, -3, -3, -10,-0.6385921713506408,-1.2618393334111293,1
1503525034642,+0.281,-0.147,+0.570,-0.758,-0.956,-0.089,-0.301,-4.438,+9.875,+3.375,-5, -1, -1, -1, -10, -20, -7, -12,-0.6390246017294777,-1.257239580855242,1
1503525034664,+0.282,-0.147,+0.569,-0.758,-0.931,-0.104,-0.273,-5.562,+9.625,+2.500,4, 0, -1, -1, -4, 1, 5, 2,-0.6406852226167801,-1.2546824418471474,1
1503525034687,+0.282,-0.147,+0.568,-0.759,-0.932,-0.083,-0.301,-2.188,+0.125,-1.000,-1, 7, 5, -7, -3, -7, 1, 16,-0.6409027150784017,-1.2523918781904144,1
1503525034702,+0.282,-0.147,+0.569,-0.758,-0.967,-0.084,-0.293,-0.188,-6.312,-1.375,-2, 1, 10, 2, 0, 6, 4, -9,-0.6406852226167801,-1.2546824418471474,1
1503525034724,+0.282,-0.146,+0.569,-0.758,-1.008,-0.103,-0.322,+3.688,-2.250,-1.812,4, 9, 1, 4, 5, 0, -4, -10,-0.6394161017829252,-1.253946057213005,1
1503525034747,+0.282,-0.145,+0.568,-0.759,-1.000,-0.103,-0.289,+4.250,+11.688,+0.250,-3, -1, -2, -8, -4, -1, 0, 3,-0.638370068072279,-1.2509212984665712,1
1503525034761,+0.281,-0.144,+0.567,-0.761,-0.947,-0.116,-0.265,+4.312,+12.438,+2.938,-4, -3, -7, -2, -5, -9, -3, 5,-0.6358825079602357,-1.2481726310644499,1
1503525034784,+0.281,-0.143,+0.566,-0.762,-0.919,-0.122,-0.227,+2.812,+9.812,+3.500,-3, 24, 21, 1, 1, 8, 0, 7,-0.6348461877025621,-1.2451630247871828,1
1503525034810,+0.280,-0.143,+0.565,-0.763,-0.976,-0.107,-0.251,+1.500,+8.000,+5.750,0, -7, -5, -1, -2, -4, 3, 4,-0.633166291668422,-1.2427912907544831,1
1503525034822,+0.279,-0.143,+0.564,-0.764,-0.966,-0.065,-0.303,+2.438,+10.875,+5.625,-3, -1, -6, 4, -7, 3, 1, -25,-0.6314860809323022,-1.2404224591474513,1
1503525034844,+0.279,-0.143,+0.562,-0.766,-0.947,-0.073,-0.270,-0.438,+12.250,+7.125,-2, -8, -5, 5, -2, -6, -1, -2,-0.6319270679664966,-1.2358823050177192,1
1503525034866,+0.278,-0.144,+0.561,-0.766,-0.943,-0.053,-0.252,-2.812,+7.312,+6.062,-9, -14, -4, -15, 3, 5, 8, 39,-0.6310427117122511,-1.2338793523504161,1
1503525034883,+0.278,-0.144,+0.560,-0.767,-0.985,-0.071,-0.263,-4.812,+4.625,+3.250,10, 2, 0, 8, 4, 3, 5, 17,-0.6312599931394607,-1.2316177896598253,1
1503525034904,+0.279,-0.145,+0.560,-0.767,-0.992,-0.072,-0.282,-7.812,+5.312,-2.562,12, 0, -12, 1, 3, 6, 4, 16,-0.6344134252835241,-1.2324472842190421,1
1503525034926,+0.280,-0.145,+0.558,-0.768,-0.995,-0.054,-0.299,-7.250,+11.188,-1.688,-2, -4, 4, -6, -5, -9, -4, -17,-0.6363028715760156,-1.2276597760580792,1
1503525034942,+0.281,-0.146,+0.555,-0.769,-0.958,-0.064,-0.317,-7.188,+17.125,+1.500,-7, -2, -3, 5, -3, -1, -9, -47,-0.6392071870683552,-1.2210019334861066,1
1503525034964,+0.282,-0.146,+0.553,-0.770,-0.952,-0.099,-0.286,-10.375,+17.688,-0.250,3, 2, 2, 0, 1, 1, 0, 6,-0.6411045899465019,-1.216243772333311,1
1503525034987,+0.284,-0.146,+0.550,-0.771,-0.983,-0.090,-0.297,-12.188,+16.125,-2.750,1, -6, -8, 1, 7, 19, 0, -5,-0.6446947285427082,-1.2089852187758432,1
1503525035002,+0.286,-0.146,+0.548,-0.773,-0.956,-0.079,-0.331,-10.438,+17.375,-3.500,-5, -5, -8, -2, -1, -11, -11, -22,-0.648993242859711,-1.204754799546774,1
1503525035024,+0.288,-0.147,+0.545,-0.774,-0.929,-0.083,-0.337,-11.438,+18.000,-2.375,-3, 2, 0, -3, -2, -17, 10, -11,-0.6538453223776937,-1.198302263120991,1
1503525035047,+0.290,-0.147,+0.542,-0.775,-0.940,-0.102,-0.343,-11.000,+15.812,-3.688,-2, 1, 3, -2, 8, 34, -13, 5,-0.6574828898088749,-1.1911193520168624,1
1503525035062,+0.291,-0.147,+0.540,-0.776,-0.938,-0.085,-0.337,-9.438,+14.000,-2.750,6, 12, 1, -8, -4, -17, 2, -14,-0.6594223277065995,-1.1864426778900004,1
1503525035091,+0.292,-0.147,+0.538,-0.777,-0.937,-0.076,-0.358,-8.062,+12.500,-1.062,-9, -3, -3, -4, -10, -18, -12, -18,-0.6613672923809346,-1.1817780306537544,1
1503525035115,+0.294,-0.147,+0.536,-0.778,-0.938,-0.107,-0.345,-7.750,+14.438,-2.750,-4, 0, -3, -3, -6, -9, -8, -14,-0.6652737575807925,-1.177238576238159,1
1503525035122,+0.295,-0.147,+0.534,-0.779,-0.938,-0.098,-0.342,-8.812,+12.812,-1.812,1, -4, 1, 0, -6, 1, -3, 5,-0.6672336585946983,-1.1725992798667322,1
1503525035144,+0.296,-0.147,+0.532,-0.780,-0.938,-0.069,-0.356,-7.750,+13.250,-0.812,0, 0, -2, -7, -10, -23, -8, -7,-0.669199045778476,-1.167972037606754,1
1503525035166,+0.297,-0.147,+0.530,-0.781,-0.941,-0.066,-0.364,-6.625,+12.812,-0.438,-3, -9, -10, -5, -4, -10, -3, 26,-0.6711699072016812,-1.1633568565417824,1
1503525035182,+0.299,-0.147,+0.528,-0.781,-0.924,-0.093,-0.380,-6.312,+10.812,-2.812,-4, 0, 1, -4, 1, -3, -7, -13,-0.6746515862452485,-1.1584473908677373,1
1503525035204,+0.300,-0.146,+0.526,-0.782,-0.927,-0.079,-0.389,-6.750,+10.500,-5.625,0, -1, 1, 3, 12, 12, 0, 2,-0.6754446100865058,-1.153072790368235,1
1503525035226,+0.302,-0.146,+0.525,-0.783,-0.947,-0.063,-0.389,-3.688,+10.125,-8.062,3, -10, -2, -5, -3, -4, 7, 15,-0.6796502029924777,-1.1511738793837314,1
1503525035243,+0.303,-0.145,+0.523,-0.783,-0.960,-0.071,-0.398,-1.500,+10.938,-8.875,0, 10, -1, -2, -3, 4, 5, -2,-0.6799965800175554,-1.1453847701233253,1
1503525035264,+0.305,-0.143,+0.522,-0.784,-0.959,-0.081,-0.402,+1.375,+12.938,-13.250,-3, -4, -2, -1, -4, -3, 2, -1,-0.6818701130228203,-1.1419380938601893,1
1503525035286,+0.307,-0.140,+0.520,-0.784,-0.975,-0.068,-0.414,+4.312,+15.312,-15.312,-1, -2, 1, -2, -6, -13, 1, 13,-0.6819113376888005,-1.1347305346182275,1
1503525035302,+0.309,-0.136,+0.519,-0.785,-0.951,-0.099,-0.441,+7.562,+17.438,-20.062,4, 11, 3, -3, 3, 9, -6, 5,-0.6815441568221895,-1.1297843870954176,1
1503525035324,+0.312,-0.132,+0.518,-0.785,-0.935,-0.103,-0.443,+8.875,+10.312,-26.000,-4, -8, -3, 3, -1, -10, -11, -2,-0.6827776472402985,-1.1245452399176075,1
1503525035347,+0.315,-0.127,+0.518,-0.785,-0.967,-0.079,-0.462,+17.250,+8.438,-33.188,-2, 4, -3, -1, 2, -3, -2, 1,-0.6831555503517494,-1.1211636386294783,1
1503525035362,+0.318,-0.121,+0.519,-0.785,-1.002,-0.111,-0.426,+19.375,+10.312,-34.625,-2, -3, -7, -9, -8, -16, -4, -9,-0.6826896447064646,-1.1196929241210967,1
1503525035385,+0.321,-0.113,+0.519,-0.784,-0.945,-0.150,-0.450,+23.562,+12.188,-39.562,3, -2, 1, -2, 6, 7, 4, 11,-0.679419621661138,-1.113876515376377,1
1503525035406,+0.324,-0.105,+0.520,-0.784,-0.946,-0.153,-0.471,+30.562,+9.812,-43.750,3, 11, -4, 3, 6, 6, 1, 26,-0.6769866484100425,-1.1112776446243557,1
1503525038048,+0.407,-0.217,+0.509,-0.727,-1.001,-0.098,-0.312,-2.312,+12.188,+5.125,-4, 5, 4, -1, -13, -1, -1, -10,-0.9554235700849537,-1.1707266361864896,2
1503525038070,+0.408,-0.217,+0.508,-0.727,-0.969,-0.086,-0.335,-2.938,+12.438,-1.688,1, 3, -3, -1, 3, -7, -1, -17,-0.9573527276914087,-1.168444972384099,2
1503525038085,+0.409,-0.216,+0.506,-0.728,-0.945,-0.102,-0.334,-6.250,+15.625,+1.000,-7, -6, -2, 2, 4, 4, 1, -14,-0.9582106334581927,-1.162996058982607,2
1503525038115,+0.410,-0.215,+0.503,-0.730,-0.936,-0.091,-0.384,-2.625,+18.438,-0.312,-12, -10, 22, 6, 1, 6, 2, -2,-0.9593072959645017,-1.1555235564890398,2
1503525038130,+0.410,-0.214,+0.500,-0.732,-0.918,-0.097,-0.389,-3.125,+20.188,+2.750,3, 14, -4, -5, -3, 17, -4, 4,-0.9582264177118801,-1.147903913169127,2
1503525038145,+0.411,-0.214,+0.499,-0.733,-0.906,-0.106,-0.368,-5.000,+11.875,-0.562,3, -1, -7, -3, 0, -10, -4, 4,-0.9606483988304999,-1.1460588267740672,2
1503525038167,+0.412,-0.213,+0.498,-0.733,-0.875,-0.124,-0.360,-5.438,+4.375,-1.625,1, 3, 15, 18, 0, -3, -5, -21,-0.961324701524784,-1.1426810960968388,2
1503525038194,+0.413,-0.214,+0.498,-0.732,-0.925,-0.109,-0.418,-4.562,-6.938,-1.062,-1, 0, -10, -7, 3, -2, -7, 0,-0.964328587584873,-1.143568477650825,2
1503525038205,+0.412,-0.214,+0.498,-0.732,-0.960,-0.082,-0.431,-1.000,+1.312,+3.625,8, 3, -5, 1, 1, -2, -2, 9,-0.9621274075119327,-1.1433902280487684,2
1503525038234,+0.412,-0.213,+0.497,-0.734,-0.887,-0.106,-0.401,+3.375,+5.438,+5.000,-4, 2, 3, 1, 3, -4, -8, -17,-0.9615535190932033,-1.1406663071859295,2
1503525038249,+0.411,-0.213,+0.498,-0.734,-0.852,-0.124,-0.381,+2.500,-6.562,+4.750,0, -9, -6, -3, 1, 6, 5, -3,-0.9595991121629067,-1.1429187013617625,2
1503525038266,+0.410,-0.214,+0.500,-0.733,-0.871,-0.117,-0.377,+0.562,-17.562,+6.375,7, 15, 16, 5, 0, -2, 13, 48,-0.9586998529600919,-1.1483159368495794,2
1503525038287,+0.408,-0.216,+0.502,-0.731,-0.979,-0.090,-0.382,-0.250,-20.062,+9.000,-6, -4, -8, -6, -1, -11, 5, 6,-0.9564423708961602,-1.154265468787889,2
1503525038310,+0.407,-0.217,+0.503,-0.731,-0.990,-0.086,-0.375,+1.688,-8.250,+5.938,2, -4, -4, -5, -14, -17, -12, -20,-0.9558015376183701,-1.1576558530553562,2
1503525038325,+0.406,-0.217,+0.503,-0.731,-0.944,-0.108,-0.333,-0.500,+0.625,+4.250,-1, -3, -3, -4, 0, 0, -5, 7,-0.9536202087260406,-1.1574808038492475,2
1503525038354,+0.407,-0.218,+0.503,-0.731,-0.975,-0.083,-0.312,-5.750,+1.500,-1.688,-1, -17, -8, -6, -2, -7, -4, 2,-0.9570975933073149,-1.1587837482346035,2
1503525038370,+0.407,-0.219,+0.502,-0.731,-0.957,-0.052,-0.363,-4.938,+6.000,-0.125,2, 1, -10, -6, 1, 2, 3, -2,-0.9581433273786913,-1.1574781809962922,2
1503525038384,+0.407,-0.218,+0.500,-0.733,-0.937,-0.075,-0.396,-2.312,+16.062,+2.312,-2, -3, -5, -1, -1, -15, -6, 11,-0.9572825511760041,-1.1522907627750414,2
1503525038407,+0.408,-0.217,+0.498,-0.734,-0.955,-0.096,-0.367,-3.875,+17.188,+1.812,12, 4, -2, -2, 0, 11, -5, 27,-0.9581455259247988,-1.1468872570572195,2
1503525038431,+0.409,-0.217,+0.496,-0.735,-0.964,-0.087,-0.346,-5.562,+16.312,+2.250,3, 4, 16, 60, 4, 3, 2, -10,-0.9603053226439207,-1.1426275416837193,2
1503525038444,+0.410,-0.216,+0.493,-0.736,-0.954,-0.066,-0.363,-4.562,+19.312,+0.750,-5, 0, -13, -28, 1, 6, 6, 2,-0.9609415311637896,-1.1348280141641094,2
1503525038467,+0.410,-0.215,+0.491,-0.738,-0.949,-0.060,-0.402,-1.688,+19.875,+0.688,-8, -7, -3, -13, -5, -10, 1, -11,-0.960113939510414,-1.1297001373365136,2
1503525038495,+0.411,-0.214,+0.488,-0.740,-0.951,-0.100,-0.386,-1.188,+18.875,+3.188,-3, 1, 4, 0, -1, -4, -5, -7,-0.961249772124107,-1.1223637330469454,2
1503525038511,+0.411,-0.213,+0.486,-0.741,-0.932,-0.117,-0.407,-2.000,+16.188,+2.000,-1, -3, -7, -13, -2, 3, 4, -13,-0.9599688931576322,-1.116844285575577,2
1503525038530,+0.412,-0.212,+0.484,-0.743,-0.920,-0.089,-0.437,-1.375,+16.875,+3.750,5, 8, -3, 5, 3, 5, 11, -3,-0.9613766480095881,-1.111953509331001,2
1503525038549,+0.412,-0.211,+0.482,-0.743,-0.862,-0.096,-0.438,-2.125,+7.812,+0.688,-3, -3, -2, -4, 4, 6, -10, -9,-0.959638664555212,-1.1060241044050994,2
1503525038564,+0.413,-0.211,+0.483,-0.742,-0.860,-0.091,-0.400,-4.062,-6.312,-5.812,0, 0, 7, 1, 2, 2, 11, -7,-0.9616190715900698,-1.108180832463962,2
1503525038586,+0.414,-0.213,+0.485,-0.741,-0.931,-0.054,-0.403,-7.000,-13.125,-6.938,1, 1, -2, 1, 2, -1, 15, -1,-0.9663501201109483,-1.1150038149019998,2
1503525038609,+0.414,-0.213,+0.485,-0.740,-0.982,-0.062,-0.452,-3.500,-5.375,-2.688,1, 1, 0, -8, -6, -13, 2, 10,-0.965877713933811,-1.1145751462756428,2
1503525038627,+0.415,-0.212,+0.483,-0.741,-0.938,-0.082,-0.454,-0.875,+10.438,+0.188,0, -3, -4, 0, 7, 12, 1, -16,-0.966825892661376,-1.1092582165836733,2
1503525038646,+0.415,-0.211,+0.481,-0.743,-0.861,-0.096,-0.394,-1.875,+19.438,+1.062,-4, -12, -2, -6, -6, 3, -12, 6,-0.9660415422129865,-1.1041972374244726,2
1503525038669,+0.416,-0.210,+0.480,-0.743,-0.781,-0.117,-0.385,-1.812,+7.875,-0.062,-9, -8, 4, -3, -4, 8, -16, -5,-0.9667781779157855,-1.1008623165465565,2
1503525038684,+0.417,-0.210,+0.481,-0.742,-0.810,-0.127,-0.438,-2.562,-10.375,-1.875,-2, 0, -11, -4, 1, 17, 3, -7,-0.9687663003817713,-1.1030121717230137,2
1503525038706,+0.417,-0.211,+0.481,-0.742,-0.929,-0.077,-0.462,-2.938,-7.062,-1.312,-7, -2, -7, -4, -3, -17, -3, 2,-0.970009707926786,-1.1041439579896684,2
1503525038732,+0.417,-0.210,+0.480,-0.742,-0.966,-0.081,-0.457,-0.938,+6.500,+0.125,1, 5, 2, -3, -6, -18, -3, 27,-0.9685273965899167,-1.100616680162825,2
1503525038744,+0.418,-0.209,+0.478,-0.744,-0.928,-0.099,-0.459,-0.188,+15.062,+2.125,-3, -5, -7, -3, -1, -7, -2, -5,-0.9699889447856519,-1.0957685857773147,2
1503525038766,+0.418,-0.207,+0.476,-0.745,-0.916,-0.081,-0.443,+1.562,+18.562,+0.000,0, -1, 3, -3, 1, 7, 10, 24,-0.9675292348197505,-1.089175459591487,2
1503525038789,+0.419,-0.206,+0.474,-0.747,-0.951,-0.073,-0.446,+3.125,+17.125,-2.625,0, -2, 3, -2, -5, -20, 10, 29,-0.9690216858095212,-1.0843595972047222,2
1503525038804,+0.419,-0.203,+0.473,-0.748,-0.951,-0.094,-0.473,+4.375,+14.312,-5.875,1, 6, 12, 2, 3, -9, -4, -9,-0.9656186753702198,-1.0790617048193993,2
1503525038829,+0.420,-0.201,+0.472,-0.748,-0.931,-0.087,-0.451,+6.312,+13.500,-6.625,-5, 10, -7, -3, 0, 3, -4, -20,-0.9652136524943199,-1.0746407699459821,2
1503525038849,+0.421,-0.198,+0.472,-0.749,-0.903,-0.084,-0.447,+8.938,+8.562,-9.625,2, -9, -6, -5, -8, -20, -2, 1,-0.9643427112142705,-1.0719603674955613,2
1503525038864,+0.421,-0.196,+0.473,-0.749,-0.928,-0.079,-0.467,+11.562,+2.562,-12.250,-3, 1, 15, 6, 10, 19, -2, -43,-0.9621835999010344,-1.072148113133495,2
1503525038886,+0.422,-0.193,+0.474,-0.749,-0.958,-0.087,-0.473,+13.188,+4.062,-12.688,-4, -8, 12, 3, -1, 3, 6, 74,-0.961100309791016,-1.071450728774842,2
1503525038909,+0.423,-0.190,+0.475,-0.748,-0.917,-0.102,-0.452,+14.375,+4.312,-14.938,5, -4, -14, -12, 1, 6, -8, -13,-0.9595536447704113,-1.070323765429206,2
1503525038932,+0.423,-0.186,+0.476,-0.748,-0.878,-0.106,-0.445,+18.688,+1.938,-17.000,4, -4, -9, -2, -2, 3, 8, 21,-0.9550875183780435,-1.0684323755269156,2
1503525038954,+0.424,-0.182,+0.478,-0.747,-0.922,-0.116,-0.472,+22.000,-0.375,-18.500,-8, -7, -6, -5, -12, -6, 7, -17,-0.9526399640412088,-1.06872555811011,2
1503525038969,+0.424,-0.177,+0.480,-0.747,-0.951,-0.118,-0.478,+23.250,+2.562,-19.875,1, 1, -2, 3, 17, 2, -12, -39,-0.9472987190598994,-1.0683310443633505,2
1503525041550,+0.441,-0.200,+0.524,-0.701,-0.956,-0.215,-0.362,+4.562,+4.812,-0.375,-17, -9, -5, 2, 2, 1, 0, -6,-1.0004610647495755,-1.1842216102813792,3
1503525041571,+0.442,-0.198,+0.524,-0.701,-0.906,-0.222,-0.351,+2.125,+4.000,-5.875,8, 8, 5, 7, 2, -11, -6, -10,-1.0002288483887072,-1.1821968458452576,3
1503525041587,+0.442,-0.198,+0.524,-0.700,-0.916,-0.226,-0.288,-0.562,+0.750,-2.250,-4, 3, -2, 1, -5, -12, 2, -6,-0.9997427078931078,-1.1817924877812744,3
1503525041610,+0.442,-0.198,+0.524,-0.700,-0.932,-0.233,-0.304,-1.562,+0.625,-0.438,0, 3, 2, -1, 2, -7, -2, -15,-0.9997427078931078,-1.1817924877812744,3
1503525041631,+0.442,-0.198,+0.524,-0.700,-0.925,-0.222,-0.343,-3.312,+0.250,+4.875,1, -1, -2, -1, 1, -1, -38, -8,-0.9997427078931078,-1.1817924877812744,3
1503525041648,+0.442,-0.199,+0.523,-0.701,-0.936,-0.221,-0.309,-4.188,+7.750,+9.562,3, 4, -4, -4, -3, 5, 6, 3,-1.0012657732277457,-1.1807732825075756,3
1503525041669,+0.442,-0.199,+0.522,-0.702,-0.934,-0.226,-0.301,-5.812,+9.000,+9.125,-2, -1, -6, -9, -7, 2, -4, -23,-1.001532263420116,-1.1786693023292385,3
1503525041691,+0.442,-0.200,+0.521,-0.703,-0.922,-0.214,-0.312,-9.562,+7.312,+8.750,5, 2, 5, 5, 2, -7, 16, -7,-1.0030519362536394,-1.1776628728309166,3
1503525041710,+0.442,-0.201,+0.519,-0.704,-0.918,-0.172,-0.355,-9.750,+4.938,+7.562,-1, 0, 1, 4, 24, 7, -15, 12,-1.00435122132477,-1.1741672903023233,3
1503525041729,+0.442,-0.202,+0.517,-0.705,-0.947,-0.148,-0.365,-8.625,+9.312,+8.250,3, -1, 5, 4, -15, -4, 6, 0,-1.0056482247241938,-1.1706906186359043,3
1503525041751,+0.442,-0.203,+0.514,-0.706,-0.930,-0.160,-0.370,-6.625,+12.125,+7.062,0, -6, -19, -5, 2, 2, -11, -5,-1.0067227914174428,-1.1647491741649405,3
1503525041767,+0.442,-0.203,+0.512,-0.708,-0.917,-0.153,-0.358,-5.000,+11.875,+6.562,2, 1, -5, -17, -6, 3, -9, -2,-1.007241022388765,-1.1606155400486384,3
1503525041789,+0.441,-0.203,+0.510,-0.710,-0.892,-0.125,-0.413,-1.250,+10.375,+8.375,13, 3, 39, 77, 7, 1, -3, -3,-1.0054769799254515,-1.1563323427155214,3
1503525041813,+0.441,-0.203,+0.508,-0.712,-0.909,-0.158,-0.378,-1.500,+11.125,+11.125,3, -3, -12, -31, -7, 7, 0, -3,-1.005993348096911,-1.152229266663627,3
1503525041827,+0.441,-0.203,+0.507,-0.713,-0.947,-0.196,-0.351,-3.875,+10.625,+6.625,-3, -2, -8, -6, 13, 12, 5, 6,-1.0062512169949498,-1.1501836385235216,3
1503525041850,+0.440,-0.203,+0.506,-0.714,-0.914,-0.146,-0.363,-4.375,+7.375,+6.812,-3, -3, -8, -7, -4, -15, -7, -3,-1.0042293260987603,-1.1479734059102302,3
1503525041871,+0.440,-0.204,+0.504,-0.715,-0.924,-0.100,-0.388,-2.188,+8.312,+7.688,5, 0, -7, 13, -9, -13, -2, 3,-1.0055082111084404,-1.1445960781826026,3
1503525041887,+0.439,-0.204,+0.502,-0.717,-0.894,-0.142,-0.418,+0.125,+6.688,+8.875,6, 1, -5, -6, 2, 8, 2, -2,-1.003742073561473,-1.1403654890511845,3
1503525041910,+0.438,-0.204,+0.501,-0.718,-0.892,-0.161,-0.389,-0.188,+6.062,+8.188,-10, 3, 14, 6, 0, 8, -10, -8,-1.0017220703191347,-1.1381684221382293,3
1503525041931,+0.437,-0.204,+0.501,-0.718,-0.902,-0.160,-0.364,-1.438,-1.438,+7.188,-5, -3, -5, -11, -10, -15, -8, -7,-0.999449126798676,-1.1379954474962934,3
1503525041948,+0.437,-0.205,+0.502,-0.717,-0.920,-0.164,-0.355,-3.312,-5.000,+2.750,3, -2, 9, 6, 9, 10, 3, -1,-1.0004389934203377,-1.1411416764135016,3
1503525041969,+0.437,-0.206,+0.502,-0.717,-0.942,-0.136,-0.385,-4.688,-4.625,+3.312,1, 16, 2, 1, -2, 0, 11, 0,-1.0016861451483086,-1.1422649714244426,3
1503525041991,+0.437,-0.207,+0.501,-0.718,-0.951,-0.123,-0.392,-4.625,+4.938,+4.062,-6, -5, 11, 12, 5, -1, -12, -16,-1.0031855325070869,-1.1413665931204382,3
1503525042010,+0.437,-0.207,+0.500,-0.719,-0.938,-0.163,-0.361,-5.500,+10.000,+5.250,7, -4, -16, -25, -3, -1, 5, 11,-1.0034351806505675,-1.1393460583837574,3
1503525042029,+0.438,-0.207,+0.498,-0.719,-0.937,-0.176,-0.353,-6.625,+12.000,+1.688,-3, -1, -3, 2, 9, 16, 18, -3,-1.0052566854833616,-1.1346439716088894,3
1503525042051,+0.439,-0.207,+0.496,-0.720,-0.897,-0.131,-0.412,-7.188,+10.062,+0.625,1, -2, 0, 6, 1, 14, -8, -7,-1.0075567986681702,-1.1303786744640778,3
1503525042067,+0.439,-0.207,+0.494,-0.721,-0.920,-0.118,-0.433,-5.875,+10.750,+2.750,6, -13, -5, -16, -12, -20, -5, 11,-1.0075837497575166,-1.125947831288788,3
1503525042089,+0.440,-0.207,+0.492,-0.723,-0.947,-0.128,-0.406,-5.438,+14.625,+4.625,-8, 2, -10, 4, 2, 13, -8, -7,-1.010360977044275,-1.1221402119459445,3
1503525042111,+0.440,-0.206,+0.490,-0.724,-0.901,-0.157,-0.385,-3.438,+13.375,+4.000,19, 6, 15, 10, 35, 37, 3, 8,-1.0091575539369182,-1.1165974487432175,3
1503525042127,+0.440,-0.206,+0.489,-0.724,-0.880,-0.131,-0.425,-4.375,+6.625,+2.250,-8, -2, 1, 2, -28, -55, -13, -19,-1.0089361246086406,-1.114180588854759,3
1503525042150,+0.440,-0.206,+0.488,-0.725,-0.913,-0.106,-0.412,-2.750,+4.500,+2.875,7, -9, 4, -1, -6, 7, 9, -3,-1.0091876391015902,-1.1122014583368767,3
1503525042171,+0.440,-0.206,+0.487,-0.725,-0.915,-0.120,-0.418,-0.750,+0.375,+3.000,3, 6, -4, 4, 7, 14, 2, 13,-1.0089662309493486,-1.109789020371735,3
1503525042187,+0.440,-0.206,+0.487,-0.726,-0.919,-0.147,-0.402,-0.375,+3.562,+4.688,-2, 1, -1, 0, -15, -37, -8, -15,-1.0094389526736023,-1.1102259114337372,3
1503525042210,+0.439,-0.206,+0.486,-0.727,-0.924,-0.135,-0.427,+1.375,+7.750,+6.188,-2, 5, 3, 11, 31, 56, 3, 6,-1.0074092663144762,-1.1080685645875397,3
1503525042231,+0.438,-0.205,+0.484,-0.729,-0.923,-0.141,-0.414,+1.125,+15.688,+9.438,6, 1, -3, -6, -10, -14, 8, 63,-1.0044093261585973,-1.1028095873752017,3
1503525042250,+0.438,-0.204,+0.482,-0.731,-0.902,-0.140,-0.418,+0.062,+18.000,+8.625,-1, -3, -1, 13, 19, 50, -7, -5,-1.003696438126243,-1.0977515282896344,3
1503525042270,+0.438,-0.203,+0.480,-0.733,-0.871,-0.119,-0.431,+1.188,+12.188,+5.500,-1, -10, 5, 2, -20, -26, -1, 15,-1.0029918729335863,-1.0927087678765022,3
1503525042292,+0.437,-0.203,+0.479,-0.734,-0.871,-0.095,-0.443,+2.562,+5.312,+7.000,-4, 3, -4, 5, 2, 11, -13, -25,-1.0009653219625019,-1.090570121082551,3
1503525042307,+0.436,-0.202,+0.479,-0.735,-0.924,-0.109,-0.463,+6.188,+1.375,+5.062,0, 1, 3, -4, -16, -26, 4, -3,-0.9979535749221959,-1.0896977922994935,3
1503525044154,+0.288,-0.113,+0.606,-0.733,-0.964,-0.213,-0.196,-1.312,+2.875,+6.062,-1, -2, -2, -5, 2, -5, -5, 8,-0.6050278062111362,-1.3242202012349917,4
1503525044174,+0.287,-0.114,+0.605,-0.734,-0.989,-0.190,-0.197,-2.812,+2.938,+8.500,9, 7, -1, -4, -9, -6, 2, -68,-0.6047022980667792,-1.322303112265064,4
1503525044189,+0.286,-0.114,+0.603,-0.736,-1.018,-0.193,-0.219,-2.438,+13.875,+9.875,0, -3, -9, -9, -1, 6, 4, 28,-0.6033883461562322,-1.317356733895917,4
1503525044211,+0.285,-0.115,+0.600,-0.738,-0.970,-0.174,-0.198,-2.562,+21.000,+10.500,-2, 9, -6, -13, -8, -2, -9, 22,-0.6031480958311384,-1.3102822774493883,4
1503525044234,+0.285,-0.115,+0.598,-0.740,-0.926,-0.175,-0.208,-3.062,+14.750,+11.188,1, -4, -2, -11, -6, -4, 2, -22,-0.6037164886063727,-1.3054353414461537,4
1503525044249,+0.284,-0.116,+0.597,-0.741,-0.937,-0.182,-0.206,-4.875,+5.625,+8.125,-1, -4, 2, -3, -5, -29, 4, -49,-0.6033706334896214,-1.3035615296250767,4
1503525044271,+0.284,-0.117,+0.596,-0.742,-0.993,-0.165,-0.243,-5.625,+3.125,+7.375,-1, 3, -4, -12, -8, -17, -37, -15,-0.6049143459839558,-1.3017585763435606,4
1503525044294,+0.284,-0.118,+0.595,-0.743,-1.020,-0.167,-0.251,-5.250,+9.500,+6.688,1, 4, -1, -11, 7, 10, 23, -19,-0.606455518734206,-1.299965190574199,4
1503525044308,+0.283,-0.119,+0.592,-0.745,-1.013,-0.140,-0.239,-5.000,+16.812,+10.500,-9, -8, -2, 2, -13, -17, 0, 13,-0.6061760768531418,-1.2930000389990115,4
1503525044331,+0.282,-0.119,+0.589,-0.748,-0.978,-0.138,-0.246,-2.812,+23.000,+13.938,-3, 1, 1, -5, -6, -5, 8, -2,-0.6050986452955621,-1.2857779180175515,4
1503525044357,+0.281,-0.120,+0.586,-0.750,-0.916,-0.155,-0.251,-1.875,+15.750,+12.625,-3, -14, -5, 0, 4, 1, 0, 41,-0.6047973445167242,-1.278878185822692,4
1503525044369,+0.280,-0.121,+0.585,-0.751,-0.916,-0.153,-0.237,-3.188,+3.125,+9.062,2, 0, 1, -4, 7, 14, -1, -12,-0.6044211421369361,-1.2770737448200213,4
1503525044391,+0.279,-0.122,+0.585,-0.752,-1.001,-0.118,-0.262,-1.375,+0.688,+7.938,-15, -5, -7, -2, -4, -5, 1, 4,-0.6042461633551778,-1.2779781446966452,4
1503525044414,+0.278,-0.122,+0.583,-0.753,-1.028,-0.136,-0.277,+1.062,+11.688,+10.188,4, 3, -9, -2, -6, -11, -7, -10,-0.6024130436619318,-1.272848607604794,4
1503525044429,+0.277,-0.122,+0.581,-0.756,-0.983,-0.161,-0.262,+0.375,+20.188,+12.500,-2, 1, -1, 2, 4, 4, 1, -9,-0.6015020010283644,-1.268425528795065,4
1503525044451,+0.276,-0.122,+0.578,-0.758,-0.951,-0.154,-0.224,-1.438,+20.562,+11.250,2, 1, -2, -1, -5, 1, 4, -12,-0.599921862965085,-1.2609832551422056,4
1503525044474,+0.275,-0.122,+0.576,-0.760,-0.956,-0.106,-0.265,-0.750,+11.000,+5.750,1, -1, 5, 5, 1, 9, 5, 25,-0.5985415646762248,-1.2562492566219439,4
1503525044496,+0.276,-0.122,+0.576,-0.760,-0.978,-0.127,-0.250,-4.625,+7.000,+2.312,-19, -11, -5, -2, 9, 3, 4, 15,-0.6004347790146874,-1.2563253949728048,4
1503525044511,+0.277,-0.123,+0.575,-0.760,-0.990,-0.167,-0.244,-7.375,+4.438,-1.938,-4, 5, 0, 1, 0, -1, -7, -13,-0.6033636170740242,-1.2543619698219584,4
1503525044534,+0.278,-0.123,+0.574,-0.760,-0.980,-0.141,-0.250,-8.625,+5.438,-1.812,2, -4, -4, -3, -7, -3, 4, -7,-0.6050575260788923,-1.2517578408980448,4
1503525044549,+0.279,-0.124,+0.573,-0.760,-0.978,-0.112,-0.277,-8.750,+5.812,-1.625,-8, -1, -5, -4, -8, -14, -26, -23,-0.6079883778439151,-1.2498060547372447,4
1503525044571,+0.280,-0.125,+0.572,-0.761,-0.968,-0.119,-0.281,-11.125,+8.000,-2.812,-16, -9, -10, -4, -5, 9, 4, -2,-0.6113827925824871,-1.248228843201331,4
1503525044594,+0.283,-0.125,+0.571,-0.761,-0.973,-0.177,-0.245,-15.125,+8.750,-4.750,1, -7, -1, 15, 1, -9, -3, 10,-0.6169040410525303,-1.2457958916167897,4
1503525044608,+0.286,-0.126,+0.569,-0.761,-0.975,-0.156,-0.267,-18.188,+7.188,-6.188,1, -2, -7, -7, 3, 7, 6, -1,-0.6234725601827451,-1.241362341227841,4
1503525044633,+0.288,-0.127,+0.567,-0.762,-0.980,-0.103,-0.315,-15.125,+13.562,-3.375,2, 1, -3, 0, 4, 8, -2, -6,-0.6286033145969054,-1.2372396955714333,4
1503525044658,+0.289,-0.128,+0.563,-0.764,-0.963,-0.097,-0.344,-13.375,+21.000,+2.750,5, -5, 5, 7, 6, 8, 11, -5,-0.6318657059289565,-1.2281198717904362,4
1503525044668,+0.290,-0.129,+0.559,-0.766,-0.909,-0.130,-0.333,-11.438,+21.812,+3.250,-4, -5, -7, -6, -6, 0, -1, -14,-0.6351243823377674,-1.2190552136567285,4
1503525044691,+0.291,-0.130,+0.556,-0.767,-0.911,-0.140,-0.279,-11.188,+15.562,+5.250,3, -5, 3, 5, 5, 4, 8, 5,-0.6381187317051253,-1.2122933525474362,4
1503525044715,+0.291,-0.131,+0.554,-0.769,-0.980,-0.113,-0.303,-10.000,+12.562,+4.562,-6, 4, 2, 3, 5, 23, 2, -11,-0.6398495825865683,-1.2085021639629179,4
1503525044729,+0.292,-0.131,+0.550,-0.771,-1.006,-0.104,-0.352,-9.875,+24.625,+6.062,-4, -1, 2, -1, -3, -17, -2, 1,-0.6418906154168456,-1.1988628640006866,4
1503525044751,+0.293,-0.131,+0.545,-0.775,-0.965,-0.137,-0.355,-9.250,+37.625,+3.625,10, 3, 4, 5, 2, -1, 2, 1,-0.6446729030358223,-1.1874664731542122,4
1503525044774,+0.295,-0.130,+0.540,-0.777,-0.875,-0.131,-0.326,-10.938,+33.938,+0.125,1, 0, -3, 2, 5, 4, 7, 5,-0.647301625832773,-1.1747111678401299,4
1503525044794,+0.297,-0.130,+0.537,-0.779,-0.876,-0.113,-0.352,-10.688,+21.875,-3.625,-5, -6, -2, 7, 0, -2, 1, 2,-0.6515630891149132,-1.1679353493764753,4
1503525044811,+0.300,-0.130,+0.535,-0.780,-0.925,-0.124,-0.359,-12.125,+12.312,-7.375,-4, -2, -4, -6, -5, -7, -5, 7,-0.6575554782550641,-1.1634671159330476,4
1503525044834,+0.302,-0.130,+0.533,-0.780,-0.946,-0.137,-0.353,-11.875,+11.375,-5.625,-3, 4, 3, -4, 2, 12, 16, -17,-0.6611099413404631,-1.1584808918482656,4
1503525044848,+0.303,-0.130,+0.530,-0.781,-0.951,-0.131,-0.381,-9.500,+16.812,-2.625,-2, 0, 3, 1, -1, 18, 7, 20,-0.6629599853964011,-1.1512383046577146,4
1503525044871,+0.305,-0.129,+0.527,-0.783,-0.947,-0.120,-0.392,-7.375,+23.875,+0.000,-3, -13, -4, -4, -12, -18, -20, -8,-0.6661387048581713,-1.1438355001248106,4
1503525044894,+0.305,-0.129,+0.522,-0.786,-0.974,-0.126,-0.391,-6.500,+30.750,+1.938,0, -2, -5, -1, 1, -5, 3, 3,-0.6665661324582395,-1.132263487519838,4
1503525044908,+0.307,-0.127,+0.518,-0.789,-0.970,-0.121,-0.423,-3.250,+33.562,-0.250,1, 2, -4, -8, -6, -20, -4, -11,-0.6689415879680948,-1.1220873550698944,4
1503525047035,+0.245,-0.124,+0.585,-0.764,-0.999,-0.097,-0.230,-6.000,+2.938,-0.750,7, 15, 5, 9, 3, 5, -1, -9,-0.5489656999556856,-1.280872106418596,5
1503525047054,+0.245,-0.124,+0.584,-0.764,-0.985,-0.090,-0.236,-6.375,+2.938,-1.125,6, -13, -1, 0, 3, -8, 34, 78,-0.548753148983589,-1.278182547737836,5
1503525047070,+0.246,-0.125,+0.583,-0.764,-0.961,-0.083,-0.250,-6.250,+7.750,+0.438,-6, 7, -5, -7, -1, -11, 15, -19,-0.5516253644789739,-1.276187713272081,5
1503525047092,+0.247,-0.125,+0.581,-0.765,-0.957,-0.117,-0.260,-6.750,+10.875,+2.812,10, 7, 8, 10, 5, 2, -4, 41,-0.553446882509439,-1.2712301064456977,5
1503525047114,+0.247,-0.125,+0.579,-0.766,-0.959,-0.112,-0.268,-8.500,+11.312,+3.000,-3, -12, 1, -2, -6, -5, -23, -53,-0.5534417541587777,-1.2662081034747223,5
1503525047130,+0.248,-0.126,+0.577,-0.768,-0.972,-0.108,-0.284,-9.500,+11.938,+5.625,-9, -7, -5, -8, 4, 15, -3, -10,-0.5569445696755043,-1.2622561955587688,5
1503525047152,+0.248,-0.127,+0.575,-0.770,-0.978,-0.120,-0.299,-8.062,+14.812,+8.750,-3, -5, 1, -2, -1, 27, -30, -6,-0.5586088921324903,-1.2582511895829902,5
1503525047174,+0.248,-0.128,+0.571,-0.772,-0.950,-0.103,-0.266,-8.312,+20.688,+9.188,-2, -2, -2, 5, -9, -16, 1, -19,-0.559831755838167,-1.2489384873639127,5
1503525047196,+0.248,-0.129,+0.570,-0.773,-0.889,-0.069,-0.255,-8.812,+7.750,+9.062,11, 8, -5, 5, -2, -9, -10, -37,-0.5612789458590056,-1.2472852834366095,5
1503525047212,+0.248,-0.131,+0.570,-0.772,-0.943,-0.085,-0.263,-10.125,-5.750,+4.938,-5, -3, -3, -5, 1, 20, 3, -12,-0.5633496576976647,-1.248227631557149,5
1503525047236,+0.249,-0.133,+0.571,-0.771,-1.036,-0.077,-0.262,-11.938,-6.000,+4.000,6, -1, 1, -4, 4, -5, 41, 71,-0.5674942741595498,-1.251930921439758,5
1503525047256,+0.249,-0.135,+0.570,-0.771,-1.050,-0.030,-0.265,-11.312,+5.688,+5.125,2, -1, 4, 10, -3, -9, -8, -5,-0.5697755078254595,-1.2506065560915043,5
1503525047272,+0.249,-0.137,+0.567,-0.773,-0.994,-0.016,-0.286,-9.000,+17.438,+7.000,-11, -6, -4, -5, 1, 17, -6, -8,-0.5724354691338825,-1.244719737876636,5
1503525047295,+0.249,-0.138,+0.564,-0.775,-0.920,-0.056,-0.297,-9.625,+17.562,+6.750,9, 3, -3, -11, 0, -7, -7, -7,-0.5738310209899452,-1.2381931039244167,5
1503525047317,+0.250,-0.139,+0.562,-0.776,-0.896,-0.069,-0.263,-11.125,+7.438,+1.938,-8, -11, -5, -4, -4, -22, 9, 1,-0.5768821478824627,-1.2340585053606863,5
1503525047332,+0.251,-0.141,+0.562,-0.775,-0.963,-0.052,-0.288,-12.250,-4.938,+1.125,-1, 13, 2, -3, -10, -10, -8, 8,-0.5808121741955128,-1.2351705435929772,5
1503525047354,+0.252,-0.142,+0.562,-0.775,-1.040,-0.038,-0.341,-11.125,+0.562,+1.000,1, 3, 9, 3, 0, -1, -9, -32,-0.5839163748150152,-1.2359653533835697,5
1503525047376,+0.253,-0.143,+0.559,-0.777,-1.017,-0.059,-0.331,-10.312,+17.438,+3.938,-10, -10, -4, 1, 0, -10, -1, -1,-0.587152444111303,-1.2296086537437032,5
1503525047392,+0.254,-0.143,+0.555,-0.779,-0.914,-0.075,-0.305,-8.000,+21.625,+5.000,-2, -9, 1, -1, 1, 9, -12, 7,-0.5889044869228206,-1.2199508380596769,5
1503525047414,+0.254,-0.144,+0.554,-0.780,-0.860,-0.085,-0.312,-6.375,+8.312,+4.375,6, -1, -6, -8, -4, 0, -7, -17,-0.5903314416494602,-1.2184250261604201,5
1503525047436,+0.255,-0.144,+0.554,-0.779,-0.947,-0.091,-0.309,-7.750,-4.438,+1.438,-3, -4, -3, -4, 0, -6, 1, -7,-0.5917729538662585,-1.2181414539610331,5
1503525047452,+0.255,-0.145,+0.554,-0.779,-1.055,-0.058,-0.325,-7.375,-0.188,+0.625,-12, 3, 2, 11, 27, 32, -1, -51,-0.5930170075689004,-1.2188612789387971,5
1503525047475,+0.256,-0.146,+0.551,-0.781,-1.017,-0.043,-0.314,-6.188,+17.625,+2.375,1, 5, 2, -2, -13, -9, 7, 0,-0.5962514632250195,-1.212601483670333,5
1503525047497,+0.257,-0.146,+0.549,-0.782,-0.887,-0.055,-0.311,-5.625,+17.625,+2.750,-3, 5, 1, 2, -4, 0, 1, -14,-0.5980646972570509,-1.2078668353026294,5
1503525047515,+0.258,-0.146,+0.548,-0.782,-0.875,-0.078,-0.283,-8.000,+3.125,-0.312,5, -4, -3, -2, -2, -1, -5, 39,-0.5996983535532525,-1.2053599827277808,5
1503525047541,+0.259,-0.147,+0.549,-0.781,-1.012,-0.055,-0.309,-8.812,-3.750,-5.938,-1, -5, -2, -3, 0, 4, 5, -13,-0.6026279775505374,-1.2084168909006232,5
1503525047556,+0.260,-0.147,+0.547,-0.782,-1.088,-0.036,-0.352,-8.812,+9.875,-3.750,-9, -2, 4, 5, -16, -33, 5, 25,-0.6044498868970167,-1.2036949737101936,5
1503525047572,+0.262,-0.147,+0.542,-0.785,-0.996,-0.035,-0.359,-6.812,+33.688,+1.688,-8, 0, -3, 0, 1, 6, -3, 5,-0.6082995054878859,-1.192087153878527,5
1503525047594,+0.263,-0.146,+0.537,-0.788,-0.857,-0.056,-0.311,-7.250,+35.062,+5.000,2, 1, 0, 1, 2, 30, 5, 9,-0.6090613972672813,-1.179701519339514,5
1503525047616,+0.264,-0.146,+0.535,-0.789,-0.804,-0.086,-0.307,-9.438,+11.000,+0.750,2, 7, 2, -2, -8, -16, -3, 10,-0.6109136677802024,-1.1750479183782596,5
1503525047632,+0.266,-0.148,+0.537,-0.787,-0.876,-0.085,-0.344,-11.875,-17.375,-5.188,6, 0, 1, 3, 12, 10, -6, -5,-0.6167635020637511,-1.1811204658945187,5
1503525047654,+0.267,-0.150,+0.539,-0.785,-1.038,-0.047,-0.385,-11.938,-17.750,-5.062,4, 3, 1, 0, 9, 12, 0, 8,-0.6207290350395507,-1.1871056887024987,5
1503525047676,+0.268,-0.151,+0.539,-0.784,-1.050,-0.032,-0.355,-11.250,+0.688,-0.438,2, 12, 0, -1, -5, 1, 16, -15,-0.6234233024279009,-1.187574020489477,5
1503525047692,+0.268,-0.152,+0.536,-0.786,-0.938,-0.055,-0.345,-8.312,+14.562,+3.375,5, -7, 1, 4, -5, -14, 2, 6,-0.6247837957893598,-1.1813899258838974,5
1503525047714,+0.269,-0.152,+0.534,-0.787,-0.899,-0.062,-0.335,-7.250,+12.062,+2.438,-6, -4, -2, 0, -2, 8, 8, 1,-0.6266323978316928,-1.1767522282664638,5
1503525047736,+0.270,-0.152,+0.534,-0.787,-0.937,-0.044,-0.348,-7.750,+4.938,-0.625,-6, -3, -3, -2, -4, -15, -23, -32,-0.6285416207395679,-1.1768690445120509,5
1503525047752,+0.271,-0.153,+0.532,-0.788,-0.979,-0.022,-0.367,-6.375,+8.625,-0.812,-4, -12, -5, -4, -8, 2, 14, -4,-0.6316198629028489,-1.1730173694970183,5
1503525047774,+0.272,-0.153,+0.530,-0.789,-0.951,-0.037,-0.367,-5.562,+14.562,+1.188,-7, -3, -17, 0, 4, 4, -1, -13,-0.633479910920527,-1.1684063911198257,5
1503525047796,+0.273,-0.153,+0.528,-0.790,-0.894,-0.059,-0.359,-6.938,+11.688,+0.375,1, 7, 0, -1, -2, -5, 14, -13,-0.6353454926773043,-1.163807132477059,5
1503525047812,+0.273,-0.153,+0.527,-0.790,-0.915,-0.037,-0.362,-6.188,+3.875,-1.812,-3, 2, 5, -2, 5, 3, -23, -60,-0.6350989311736154,-1.1612409669426471,5
1503525047834,+0.274,-0.154,+0.527,-0.790,-0.955,-0.031,-0.374,-4.438,+0.438,-3.188,-5, -5, 4, 1, 4, -2, 6, 25,-0.6382354835523839,-1.162144848531981,5
1503525047857,+0.275,-0.153,+0.526,-0.790,-0.970,-0.018,-0.376,-3.375,+5.875,-4.375,4, 0, 4, -2, -4, -2, 5, 11,-0.6387010777381396,-1.1589207858401454,5
1503525047876,+0.276,-0.153,+0.525,-0.791,-0.941,-0.030,-0.385,-2.375,+8.625,-5.375,1, 3, 4, 3, 6, 1, 4, -24,-0.6408261289969549,-1.1569036722780737,5
1503525047895,+0.277,-0.151,+0.524,-0.791,-0.949,-0.051,-0.386,-0.875,+10.188,-7.375,-1, -2, -2, -3, 13, 39, -7, -46,-0.6401020624529895,-1.1529049040823804,5
1503525047917,+0.279,-0.150,+0.523,-0.792,-0.898,-0.069,-0.389,-1.438,+6.938,-8.125,-7, -3, -2, -2, 1, -7, -2, -24,-0.6429784586640541,-1.1502399109433081,5
1503525047932,+0.280,-0.149,+0.522,-0.791,-0.906,-0.082,-0.375,-2.000,+3.312,-6.125,1, -3, 0, -1, -5, 1, 2, 22,-0.6430342441939032,-1.1465985595656543,5
1503525047955,+0.281,-0.148,+0.522,-0.791,-0.979,-0.048,-0.399,-0.438,+3.375,-7.375,2, 5, -1, -2, 0, 8, -17, -29,-0.6437828586488618,-1.1459470298709407,5
1503525047977,+0.282,-0.147,+0.521,-0.792,-0.972,-0.049,-0.385,+0.188,+10.875,-4.688,10, 1, 1, 5, -4, 2, 27, 31,-0.6447526806205778,-1.143170442041016,5
1503525047994,+0.283,-0.146,+0.519,-0.793,-0.910,-0.081,-0.385,+0.500,+13.250,-2.312,-1, 12, 3, 4, 12, 32, 2, -42,-0.6454999365730022,-1.1378441359310916,5
1503525048017,+0.284,-0.145,+0.518,-0.793,-0.875,-0.094,-0.363,-1.875,+7.250,-3.812,-6, 6, 0, -4, -5, -9, -23, -29,-0.6460393494306493,-1.1346432477615336,5
1503525048037,+0.285,-0.145,+0.518,-0.793,-0.925,-0.057,-0.393,-1.062,-0.562,-4.625,-4, -10, -3, 0, 11, 25, 6, 0,-0.6479952443396869,-1.1347660630987373,5
1503525048054,+0.285,-0.145,+0.518,-0.794,-0.968,-0.034,-0.400,-0.750,+4.750,-2.625,-8, -5, -2, -2, -2, -12, -7, 11,-0.6484505714227768,-1.1352042821249357,5
1503525048075,+0.285,-0.144,+0.517,-0.794,-0.922,-0.048,-0.370,-0.500,+11.500,-1.250,-1, -7, 9, 4, -7, -15, 0, -1,-0.6470430705124731,-1.1318851404549688,5
1503525048097,+0.286,-0.143,+0.516,-0.795,-0.875,-0.067,-0.377,+0.125,+5.062,-5.500,0, -4, -4, -3, 0, -1, -2, 6,-0.6480579132287037,-1.1291329104102026,5
1503525048114,+0.287,-0.142,+0.516,-0.794,-0.923,-0.054,-0.405,-0.750,-0.500,-8.500,-4, -3, -5, -6, -13, -15, -7, -10,-0.6483937469005505,-1.1280501899903153,5
1503525048134,+0.288,-0.141,+0.516,-0.794,-1.007,-0.027,-0.411,+0.500,+6.562,-10.188,6, 4, 1, -1, -7, -8, -2, -20,-0.6491918179414082,-1.1274117704006628,5
1503525048157,+0.290,-0.139,+0.514,-0.795,-0.966,-0.034,-0.414,+3.562,+16.875,-11.812,-4, 3, -4, -5, -6, -7, -9, -17,-0.6508223159916492,-1.1214823828665965,5
1503525048173,+0.292,-0.136,+0.512,-0.796,-0.922,-0.069,-0.429,+5.062,+17.688,-15.375,6, 11, -3, -7, -3, 9, 6, 27,-0.6513431029914389,-1.1148189974294027,5
1503525048195,+0.294,-0.133,+0.511,-0.796,-0.913,-0.078,-0.421,+5.625,+8.438,-21.375,-5, -12, 2, 6, 6, 9, 9, 44,-0.6516645419803484,-1.1102738592502,5
1503525048216,+0.297,-0.130,+0.513,-0.795,-0.953,-0.079,-0.419,+6.312,-0.312,-26.375,7, -4, -1, -2, 2, -14, 4, 73,-0.6541708100246276,-1.1130642452800863,5
1503525048232,+0.300,-0.126,+0.514,-0.794,-0.990,-0.088,-0.431,+8.875,+0.062,-30.938,-6, 0, -1, -2, -9, -5, -5, -37,-0.6553634888440386,-1.1125994805342825,5
1503525048254,+0.304,-0.122,+0.514,-0.793,-0.979,-0.095,-0.395,+8.625,+8.625,-31.000,0, 14, 2, -13, 2, 5, -13, -38,-0.6584145525998208,-1.1097155859744252,5
1503525048278,+0.308,-0.118,+0.514,-0.792,-0.931,-0.136,-0.387,+7.062,+9.000,-31.500,1, -10, -3, 2, -3, 1, 9, -41,-0.6615398941023496,-1.106852887565984,5
1503525048292,+0.312,-0.113,+0.516,-0.790,-0.912,-0.161,-0.455,+9.938,-2.125,-38.625,2, 7, -3, -7, 0, -5, 0, -13,-0.6635035985265126,-1.1080034593698898,5
1503525048316,+0.317,-0.107,+0.518,-0.787,-0.976,-0.147,-0.437,+12.500,-7.500,-47.188,0, -5, 0, 7, 1, -1, -19, 18,-0.6659678716977936,-1.10817373381634,5
1503525048337,+0.322,-0.103,+0.520,-0.785,-0.990,-0.123,-0.413,+11.000,-2.812,-46.438,-9, 5, 3, 10, 22, 53, 7, 9,-0.6711967231025556,-1.1102202606029619,5
1503525050533,+0.386,-0.190,+0.589,-0.685,-0.990,-0.195,-0.183,-11.812,+0.938,+5.188,-3, 0, -1, 32, 5, 6, 12, 4,-0.8740165341933959,-1.3302090020996142,6
1503525050558,+0.386,-0.191,+0.587,-0.686,-1.019,-0.191,-0.205,-10.875,+7.188,+4.625,-8, -9, -3, 13, 1, 12, -7, -8,-0.8753869662990525,-1.3261179725622745,6
1503525050571,+0.387,-0.192,+0.584,-0.687,-0.991,-0.192,-0.216,-11.375,+13.000,+5.875,7, -5, 3, -16, 3, 7, 17, 3,-0.8786091446340079,-1.3194900850450881,6
1503525050593,+0.388,-0.192,+0.582,-0.688,-0.960,-0.213,-0.199,-12.000,+16.312,+3.500,-1, 7, 4, 0, 9, 5, 11, 38,-0.8807223165237088,-1.3145852674858975,6
1503525050616,+0.390,-0.193,+0.580,-0.689,-0.941,-0.204,-0.205,-13.250,+12.688,+1.375,9, 0, -5, -16, -4, -11, -21, -3,-0.8863111212468905,-1.310756936495263,6
1503525050632,+0.391,-0.194,+0.577,-0.690,-0.964,-0.190,-0.225,-12.750,+9.500,+3.625,0, 2, 2, -5, -7, -3, -14, -56,-0.8895394968575701,-1.3042170806203774,6
1503525050659,+0.392,-0.195,+0.575,-0.691,-0.974,-0.176,-0.236,-12.250,+14.875,+5.312,-2, -10, -6, -7, 0, -5, -3, -35,-0.8930165425585909,-1.3003421532249821,6
1503525050676,+0.394,-0.195,+0.572,-0.693,-0.965,-0.191,-0.238,-12.625,+15.625,+5.312,4, -1, 0, 0, 6, 6, 4, 56,-0.8975262397312034,-1.293310421530978,6
1503525050698,+0.395,-0.196,+0.569,-0.694,-0.932,-0.208,-0.221,-13.375,+15.562,+7.250,-10, 2, -12, -6, -7, -2, 23, -10,-0.9007596735549573,-1.2868713243957541,6
1503525050714,+0.396,-0.198,+0.567,-0.695,-0.940,-0.210,-0.206,-16.938,+10.188,+7.625,-3, 1, -4, -3, -4, 6, -16, 17,-0.9055827414958523,-1.2840742144982888,6
1503525050736,+0.397,-0.200,+0.565,-0.695,-0.994,-0.174,-0.216,-17.812,+5.375,+2.875,5, 2, 4, 0, -8, -14, -8, 23,-0.9099108941751634,-1.2809873776875538,6
1503525050763,+0.399,-0.201,+0.563,-0.695,-0.991,-0.178,-0.253,-17.750,+6.812,+1.438,-1, -1, 16, 24, 7, 18, 0, -1,-0.9150395624238377,-1.2770357016593106,6
1503525050774,+0.401,-0.202,+0.560,-0.696,-0.967,-0.186,-0.270,-16.312,+16.938,+6.562,6, 6, -3, -11, 9, 14, 10, 2,-0.9204237095604785,-1.2708501296878982,6
1503525050798,+0.401,-0.204,+0.556,-0.699,-0.932,-0.182,-0.261,-16.500,+21.438,+14.188,5, -2, 0, -2, -5, -7, 1, 34,-0.9235819720771781,-1.2635930713768933,6
1503525050820,+0.402,-0.206,+0.553,-0.701,-0.923,-0.173,-0.240,-18.125,+17.125,+13.250,-3, -1, 1, 11, -2, -9, -10, -25,-0.9286389332964344,-1.2587694207666154,6
1503525050834,+0.403,-0.208,+0.550,-0.702,-0.945,-0.161,-0.256,-18.688,+12.750,+10.500,-6, 1, -3, -9, -1, 15, -7, 0,-0.9332048532951053,-1.253659526802482,6
1503525050858,+0.404,-0.210,+0.546,-0.703,-0.987,-0.139,-0.285,-18.250,+14.625,+10.312,-2, -2, 0, -4, -3, -7, 5, 14,-0.9375183386307243,-1.2460569424434804,6
1503525050878,+0.405,-0.212,+0.542,-0.705,-0.975,-0.131,-0.308,-18.375,+18.000,+9.938,2, 1, 0, 0, -6, -10, -10, -10,-0.9423106018203227,-1.2388838556056798,6
1503525050894,+0.406,-0.213,+0.538,-0.707,-0.930,-0.141,-0.294,-17.375,+22.562,+8.188,1, 2, 4, 4, -5, -12, 7, -11,-0.945762145653647,-1.230706734194347,6
1503525050916,+0.408,-0.214,+0.535,-0.708,-0.923,-0.149,-0.280,-17.375,+19.062,+5.250,-2, -2, -9, -11, -2, -9, -12, -4,-0.9511545112756744,-1.2248877410002252,6
1503525050938,+0.409,-0.215,+0.532,-0.710,-0.956,-0.103,-0.330,-14.500,+14.438,+5.125,-3, -2, 4, -3, -5, -10, -5, 4,-0.9548582542295982,-1.2193310253566456,6
1503525050958,+0.411,-0.216,+0.528,-0.711,-0.957,-0.096,-0.354,-14.062,+15.750,+4.875,6, 15, -1, 0, 5, 11, 11, 2,-0.9600130416252829,-1.2110986190060196,6
1503525050976,+0.412,-0.216,+0.525,-0.712,-0.940,-0.149,-0.333,-15.375,+14.812,+2.062,-7, -10, -2, 4, 1, 8, 3, -2,-0.9619221142345279,-1.2041457452148752,6
1503525050998,+0.414,-0.217,+0.523,-0.712,-0.953,-0.156,-0.303,-17.188,+10.188,-0.812,1, 0, -1, 0, 4, 6, -11, -2,-0.9671182591940903,-1.2005965925709168,6
1503525051014,+0.416,-0.218,+0.521,-0.712,-0.987,-0.116,-0.332,-13.688,+9.250,-1.750,0, -2, -2, -1, -9, -17, -10, -19,-0.9723251852882021,-1.1970700590238748,6
1503525051036,+0.417,-0.219,+0.519,-0.713,-0.989,-0.099,-0.361,-12.188,+10.312,+0.625,7, -4, 3, 8, -3, -5, 4, 11,-0.9758154780384642,-1.1937889171436202,6
1503525051059,+0.419,-0.219,+0.517,-0.714,-0.943,-0.109,-0.345,-11.062,+12.938,-1.375,-2, 2, -2, -2, 3, -6, 5, -3,-0.9801927905175969,-1.1895599559266474,6
1503525051074,+0.421,-0.219,+0.515,-0.714,-0.921,-0.125,-0.358,-7.562,+6.688,-6.750,-6, -7, 3, 5, 7, -12, 7, -33,-0.9841145898934629,-1.1849585083708287,6
1503525051097,+0.422,-0.218,+0.515,-0.714,-0.951,-0.121,-0.384,-4.125,+1.438,-5.500,-2, -6, -4, -9, -9, -7, -13, 29,-0.9850177821490688,-1.183988948760841,6
1503525051118,+0.423,-0.218,+0.514,-0.714,-0.967,-0.105,-0.399,-1.438,+4.625,-5.062,0, 2, 0, 0, 3, 3, -20, 10,-0.9869891565607996,-1.1816918251111677,6
1503525051134,+0.424,-0.216,+0.513,-0.714,-0.913,-0.140,-0.380,+2.062,+6.875,-4.938,0, 6, 3, 1, -7, 12, -6, -7,-0.9863646412103312,-1.1771269599980676,6
1503525051158,+0.424,-0.214,+0.513,-0.714,-0.921,-0.158,-0.337,+2.250,+3.688,-4.562,-5, -5, -4, -6, -6, -7, 0, -2,-0.9837744608374017,-1.1748669011848287,6
1503525051178,+0.425,-0.213,+0.514,-0.714,-0.965,-0.140,-0.349,+3.562,+1.875,-5.188,-3, 2, -13, -7, -4, 3, 1, -8,-0.9849461615957715,-1.176375409177525,6
1503525051201,+0.425,-0.212,+0.513,-0.715,-0.940,-0.149,-0.344,+2.750,+6.500,-3.812,2, 0, -5, 1, 8, 11, -2, -6,-0.983895720556949,-1.1731848937961502,6
1503525051216,+0.426,-0.211,+0.513,-0.715,-0.916,-0.169,-0.328,+1.312,+10.250,-0.188,6, -1, 4, 5, 20, -2, 17, 29,-0.9848407339705457,-1.1722306132018525,6
1503525051238,+0.426,-0.209,+0.512,-0.716,-0.920,-0.164,-0.317,-1.000,+11.812,+0.750,1, 1, 1, -1, -9, -7, -12, -5,-0.9825243698476144,-1.1679334848868912,6
1503525051257,+0.427,-0.209,+0.511,-0.716,-0.921,-0.146,-0.330,-4.188,+8.812,+0.250,0, 17, 1, 0, 1, 16, -10, -8,-0.984525378525165,-1.1656316994938087,6
1503525051276,+0.427,-0.209,+0.509,-0.717,-0.927,-0.139,-0.334,-6.875,+8.188,+2.062,-19, -8, -8, 3, -1, 3, -3, -20,-0.9845354329556715,-1.161110732699879,6
1503525051298,+0.428,-0.210,+0.507,-0.718,-0.959,-0.142,-0.339,-8.188,+13.938,+2.625,4, 2, -4, -2, -2, -3, -10, 1,-0.9880546115837996,-1.1578920354241566,6
1503525051314,+0.429,-0.209,+0.504,-0.720,-0.956,-0.136,-0.359,-8.562,+21.312,+4.000,-1, 1, 2, 1, 1, 13, 15, -12,-0.9892830983799893,-1.1504083740563507,6
1503525051336,+0.430,-0.209,+0.500,-0.722,-0.921,-0.125,-0.370,-9.375,+25.125,+8.188,16, -4, -1, -2, 4, -1, -10, -26,-0.9915549480260127,-1.1416386133101095,6
1503525051360,+0.430,-0.209,+0.496,-0.724,-0.918,-0.100,-0.387,-8.812,+26.250,+6.562,-1, 5, 0, 0, -5, -9, -6, -7,-0.9915814419256034,-1.1327402189607316,6
1503525051374,+0.431,-0.209,+0.493,-0.727,-0.917,-0.107,-0.404,-7.625,+22.750,+4.250,-2, -6, -1, -4, -10, -15, 3, 2,-0.9945647987499774,-1.1269164645510898,6
1503525051396,+0.432,-0.208,+0.490,-0.728,-0.910,-0.105,-0.424,-6.938,+16.938,+1.688,1, 0, 2, 4, 18, 24, -1, -9,-0.9953643670126835,-1.1191360187495565,6
1503525051418,+0.433,-0.208,+0.487,-0.730,-0.948,-0.072,-0.451,-3.062,+17.250,+1.812,-1, -10, 3, 0, 0, 0, 15, 43,-0.9978881955549518,-1.112946719833961,6
1503525051434,+0.433,-0.206,+0.484,-0.732,-0.952,-0.083,-0.520,+5.438,+18.625,-1.000,-12, -2, 4, 5, -6, -12, -4, -10,-0.9956943052109544,-1.1043296165689225,6
1503525051457,+0.434,-0.202,+0.482,-0.734,-0.954,-0.127,-0.438,+7.750,+25.250,-8.250,6, 7, -2, -6, -1, 10, 3, -5,-0.9935899775802567,-1.096076745344409,6
1503525051478,+0.435,-0.198,+0.481,-0.734,-0.920,-0.140,-0.409,+8.500,+17.688,-10.375,5, 5, 2, 4, 18, 27, 6, 38,-0.9908210827407298,-1.0893802804283903,6
1503525051494,+0.437,-0.195,+0.481,-0.735,-0.951,-0.168,-0.415,+9.875,+19.188,-12.812,-8, -17, -6, -5, -5, -6, -3, -19,-0.9922854196466624,-1.0868665828380681,6
1503525051516,+0.438,-0.190,+0.479,-0.736,-0.977,-0.153,-0.433,+10.000,+25.000,-11.000,11, 9, 10, 12, 0, -7, -10, -14,-0.9887278128962963,-1.0771808479193412,6
1503525051538,+0.439,-0.184,+0.477,-0.738,-0.860,-0.145,-0.545,+20.312,+23.500,-15.500,1, 5, -3, -7, -11, -30, -8, -2,-0.9846067549020828,-1.0669356356394215,6
1503525053894,+0.436,-0.184,+0.524,-0.708,-0.948,-0.194,-0.378,-12.688,-4.312,+8.875,1, 4, -4, -8, -11, -10, 1, 39,-0.9726458771812395,-1.1692989198684767,7
1503525053917,+0.435,-0.186,+0.522,-0.709,-0.969,-0.192,-0.387,-11.812,+5.250,+11.375,-8, 0, -2, 2, 6, 15, -6, -21,-0.9728877733030357,-1.1665962232875293,7
1503525053939,+0.436,-0.187,+0.521,-0.710,-0.907,-0.190,-0.374,-11.000,+4.438,+8.312,5, -3, -6, -1, -10, -12, 1, 2,-0.9766774620445585,-1.1656896169018927,7
1503525053961,+0.435,-0.189,+0.521,-0.709,-0.865,-0.206,-0.350,-9.062,-8.688,+7.188,-10, 4, 0, 5, 0, -3, 6, -5,-0.9763592867596781,-1.167227090866563,7
1503525053978,+0.435,-0.191,+0.521,-0.709,-0.987,-0.209,-0.349,-8.562,-4.875,+5.438,-2, -11, -5, -14, -6, -9, 2, 11,-0.9788272946804646,-1.1693440410763596,7
1503525053999,+0.436,-0.191,+0.519,-0.710,-1.038,-0.189,-0.392,-6.438,+9.938,+4.750,-3, 11, 3, -3, 11, 31, -1, -26,-0.9811630750217271,-1.1648876739000373,7
1503525054021,+0.437,-0.191,+0.516,-0.712,-0.929,-0.203,-0.392,-6.312,+19.062,+3.438,5, -6, -3, 0, -6, -16, 9, 6,-0.9837800829770504,-1.1583631964929393,7
1503525054037,+0.437,-0.190,+0.514,-0.713,-0.842,-0.182,-0.372,-5.062,+15.938,+3.000,-26, 2, -2, -1, -1, -8, -11, -16,-0.9826183721946236,-1.152718970311927,7
1503525054058,+0.438,-0.190,+0.513,-0.713,-0.850,-0.222,-0.337,-5.250,+0.062,+1.188,1, -5, -2, -5, 3, 4, 33, 23,-0.9846883823207822,-1.1503788992055368,7
1503525054081,+0.438,-0.191,+0.514,-0.712,-0.922,-0.200,-0.360,-6.375,-7.812,+1.188,55, -8, -7, 3, -3, -1, 4, -5,-0.9856328305595222,-1.1535210205120414,7
1503525054096,+0.438,-0.192,+0.513,-0.712,-0.982,-0.170,-0.369,-6.312,+1.438,+5.125,-3, -3, 1, -7, -1, -4, -13, -4,-0.9866434144300766,-1.1520982187738302,7
1503525054118,+0.438,-0.193,+0.511,-0.714,-0.956,-0.176,-0.394,-6.750,+12.500,+6.812,-6, 11, 2, 3, 2, -4, 10, 33,-0.9884184840874549,-1.1490432636340864,7
1503525054141,+0.438,-0.193,+0.509,-0.715,-0.867,-0.156,-0.390,-5.875,+11.000,+6.812,-4, -5, -2, 3, -3, 3, 8, -36,-0.988476545573694,-1.1445006822676784,7
1503525054155,+0.438,-0.194,+0.509,-0.716,-0.852,-0.162,-0.367,-4.500,-2.125,+4.938,-7, 18, -1, -6, 0, -2, 1, 12,-0.9901879899294647,-1.1460089350409939,7
1503525054179,+0.438,-0.195,+0.510,-0.715,-0.926,-0.170,-0.363,-5.312,-10.750,+2.875,-12, 2, 5, 2, 0, 4, -13, -20,-0.9911433499729383,-1.149147790131381,7
1503525054201,+0.437,-0.197,+0.510,-0.714,-0.958,-0.160,-0.377,-3.625,-9.500,+4.500,-7, -9, -2, 1, 0, -10, -14, 2,-0.9908423348725394,-1.1507387577388173,7
1503525054216,+0.436,-0.197,+0.510,-0.715,-0.946,-0.159,-0.404,-1.562,+1.000,+8.875,-8, -2, -3, -1, -7, -17, -5, -13,-0.9890534091980745,-1.150997473107298,7
1503525054240,+0.435,-0.198,+0.509,-0.716,-0.899,-0.165,-0.387,+0.375,+4.188,+9.000,-7, -3, 2, 3, 5, 7, -4, 19,-0.98828340104648,-1.1498696323956807,7
1503525054261,+0.435,-0.198,+0.509,-0.716,-0.892,-0.185,-0.366,-0.938,+0.250,+7.562,-3, 0, 19, 27, 5, 6, 1, 9,-0.98828340104648,-1.1498696323956807,7
1503525054277,+0.435,-0.198,+0.509,-0.716,-0.942,-0.195,-0.345,-4.688,-4.688,+1.062,23, 4, -7, -7, -4, -6, -9, 15,-0.98828340104648,-1.1498696323956807,7
1503525054298,+0.435,-0.200,+0.510,-0.715,-0.959,-0.149,-0.366,-5.188,-5.875,+1.375,4, -6, -3, -3, -1, -3, 4, -5,-0.9905015383101771,-1.154113794141765,7
1503525054321,+0.435,-0.200,+0.509,-0.716,-0.983,-0.132,-0.392,-2.688,+4.375,+0.938,-1, -3, -2, -4, -2, -8, -12, -12,-0.9907623194899505,-1.1520593265895371,7
1503525054339,+0.435,-0.199,+0.508,-0.716,-0.934,-0.158,-0.379,-1.375,+8.625,+1.062,-9, 0, 7, 2, 1, 9, 6, -14,-0.9893003583746623,-1.1484907582817605,7
1503525054358,+0.436,-0.199,+0.507,-0.717,-0.893,-0.173,-0.361,-3.000,+5.062,-0.562,-2, -2, -10, -14, -1, -1, -10, -19,-0.9918332895877758,-1.146608583307366,7
1503525054381,+0.437,-0.199,+0.507,-0.716,-0.946,-0.191,-0.333,-5.750,+2.562,-3.688,-7, 6, -1, 1, -8, -33, -19, -8,-0.9936234523840607,-1.146351861219348,7
1503525054398,+0.438,-0.199,+0.507,-0.716,-0.934,-0.162,-0.366,-7.062,+1.438,-3.500,1, -17, -6, -1, -2, 4, 12, 4,-0.9958991335344687,-1.1465177637158508,7
1503525054418,+0.439,-0.199,+0.505,-0.716,-0.938,-0.167,-0.374,-7.750,+9.188,-0.312,-5, -8, -11, 0, 1, 3, 11, 10,-0.9977402478944231,-1.1417533369116912,7
1503525054441,+0.440,-0.199,+0.503,-0.717,-0.910,-0.183,-0.383,-10.312,+11.688,+1.688,7, 9, 3, 8, -3, 3, 5, 6,-1.000068025147388,-1.1374263226802876,7
1503525054455,+0.441,-0.200,+0.501,-0.717,-0.903,-0.187,-0.371,-11.750,+12.125,+3.125,-24, -5, -4, -8, 11, 38, 0, -21,-1.0031461590736126,-1.1337940866245788,7
1503525054481,+0.442,-0.201,+0.499,-0.718,-0.904,-0.168,-0.384,-12.062,+9.312,+3.062,6, 5, 3, -2, -14, -19, -9, 7,-1.0067052775342096,-1.130611935149552,7
1503525054500,+0.443,-0.202,+0.497,-0.718,-0.904,-0.158,-0.389,-12.750,+5.000,+4.875,8, 1, 13, 0, 7, 13, 3, 17,-1.0097871393105633,-1.1270202748406946,7
1503525054516,+0.443,-0.203,+0.496,-0.719,-0.907,-0.151,-0.417,-10.688,+4.125,+5.500,40, -14, -3, 5, 3, -4, -4, -2,-1.0112731633101688,-1.1261385325094617,7
1503525054539,+0.443,-0.204,+0.494,-0.720,-0.895,-0.153,-0.401,-11.562,+7.125,+8.250,-3, -3, -8, -8, -6, -11, -16, -8,-1.0125397293149159,-1.122833606694464,7
1503525054561,+0.444,-0.205,+0.492,-0.720,-0.897,-0.137,-0.408,-10.125,+6.750,+7.562,-5, 9, -8, -9, -3, -1, 1, 11,-1.0156216416596637,-1.1192934781210537,7
1503525054576,+0.444,-0.206,+0.490,-0.722,-0.916,-0.126,-0.427,-8.875,+8.500,+9.000,-9, -1, 4, 5, 11, 23, 15, -1,-1.0173563468206144,-1.1164593214207919,7
1503525054598,+0.444,-0.207,+0.487,-0.723,-0.927,-0.130,-0.406,-8.875,+11.375,+8.438,3, 2, 0, -2, -4, -7, 1, -20,-1.018397405483001,-1.110799423597218,7
1503525054621,+0.443,-0.208,+0.485,-0.724,-0.877,-0.112,-0.424,-7.000,+8.688,+8.062,-25, -31, -4, 2, -1, -3, -7, -7,-1.0173653695513192,-1.107385163025087,7
1503525054635,+0.443,-0.208,+0.483,-0.726,-0.873,-0.119,-0.415,-5.500,+10.438,+9.188,0, 3, -4, -10, -2, 0, -1, -42,-1.0178634360251757,-1.1034590935735584,7
1503525054658,+0.443,-0.209,+0.481,-0.727,-0.912,-0.127,-0.426,-5.688,+9.688,+8.875,1, 5, 0, -6, -5, 1, -7, 37,-1.0191162592082037,-1.1002610766680914,7
1503525054681,+0.443,-0.209,+0.479,-0.728,-0.912,-0.135,-0.431,-6.812,+11.625,+10.000,6, 10, -3, -11, -1, 3, 3, -29,-1.0191426644759198,-1.0959213667023906,7
1503525054696,+0.443,-0.210,+0.477,-0.730,-0.881,-0.118,-0.438,-5.875,+11.938,+9.500,-2, -10, -2, 1, -3, -10, 9, 24,-1.0208578350441853,-1.0931945566951096,7
1503525054718,+0.442,-0.210,+0.475,-0.731,-0.890,-0.102,-0.425,-4.438,+11.500,+9.562,-3, 9, 0, 2, -6, -15, -13, 19,-1.0185936856148332,-1.0886839160745838,7
1503525054741,+0.441,-0.210,+0.473,-0.733,-0.893,-0.097,-0.451,-1.312,+8.312,+10.438,-2, 4, 0, 3, -2, -6, 27, 4,-1.0167968315190163,-1.0846257020619647,7
1503525054756,+0.440,-0.210,+0.471,-0.735,-0.937,-0.118,-0.476,+1.000,+11.188,+12.062,-4, -35, -8, -14, -2, 1, -1, 4,-1.0150008540136184,-1.08057809230479,7
1503525054779,+0.440,-0.209,+0.469,-0.737,-0.978,-0.126,-0.473,+0.312,+17.375,+7.250,-2, 1, -2, -1, -2, -7, -4, -20,-1.014275651629794,-1.0755799491190583,7
1503525054801,+0.440,-0.208,+0.467,-0.739,-0.910,-0.082,-0.473,+4.438,+15.750,+3.188,-6, 5, 1, 0, -4, -14, -12, -4,-1.0135587350743398,-1.0705964967039527,7
1503525054816,+0.439,-0.205,+0.466,-0.740,-0.888,-0.080,-0.496,+9.938,+12.062,+1.750,-1, 6, 0, 2, -8, -14, -14, 9,-1.0079146043070124,-1.0650273484881725,7
1503525054843,+0.438,-0.202,+0.466,-0.741,-0.926,-0.104,-0.495,+15.438,+7.188,-3.688,0, -2, 2, 10, 8, 0, -7, -5,-1.002516714299551,-1.0618500419032995,7
1503525054860,+0.438,-0.199,+0.467,-0.742,-0.942,-0.113,-0.497,+18.938,+5.438,-4.188,19, 13, 20, 8, -2, 8, -1, 12,-0.9996512755761626,-1.0612714560884922,7
1503525054877,+0.437,-0.195,+0.468,-0.743,-0.960,-0.151,-0.479,+20.562,+9.438,-7.125,0, 5, -8, 1, -2, 4, 9, 2,-0.9933438481819308,-1.0594201887789247,7
1503525054898,+0.437,-0.190,+0.469,-0.743,-0.929,-0.120,-0.501,+25.125,+8.188,-15.500,-4, -1, -1, 1, 6, 18, 19, 3,-0.9877224432019255,-1.056258267294256,7
1503525054921,+0.437,-0.185,+0.471,-0.744,-0.904,-0.105,-0.505,+30.000,+6.062,-12.250,-8, -12, -3, 0, 2, -7, -13, 24,-0.9828541799980073,-1.056040590533297,7
1503525056660,+0.284,-0.136,+0.583,-0.749,-0.979,-0.130,-0.241,+1.625,+18.250,+4.250,-6, -12, -2, -3, -6, -12, -6, -26,-0.6295760815536957,-1.2812173709886796,8
1503525056677,+0.284,-0.135,+0.581,-0.751,-0.948,-0.162,-0.237,+0.562,+18.062,+4.625,9, -2, 0, 4, 11, 0, -12, -8,-0.6287899123254269,-1.275839687937281,8
1503525056699,+0.285,-0.134,+0.579,-0.752,-0.958,-0.167,-0.255,-1.500,+12.125,+1.500,1, 0, -5, -7, -10, -6, 20, 16,-0.6294507690915465,-1.2702145054034866,8
1503525056721,+0.285,-0.134,+0.578,-0.753,-0.978,-0.139,-0.253,-2.500,+7.188,+0.812,-6, 6, 4, 7, -2, 4, -9, -10,-0.6296968912451288,-1.2678825934761186,8
1503525056737,+0.285,-0.134,+0.577,-0.754,-0.982,-0.127,-0.261,-1.188,+11.000,+4.062,-3, -5, -3, -2, -3, 0, -7, -57,-0.6299429251527214,-1.2655549976572946,8
1503525056759,+0.284,-0.134,+0.575,-0.756,-0.966,-0.126,-0.280,+0.250,+15.188,+6.938,-3, -1, 1, -4, -9, -18, -7, 48,-0.6285281104628735,-1.2608303789029285,8
1503525056780,+0.284,-0.133,+0.573,-0.757,-0.940,-0.134,-0.269,+0.188,+12.938,+7.562,-8, -4, 0, -3, -3, 1, 0, 20,-0.6273035004880678,-1.2551575897846525,8
1503525056797,+0.283,-0.134,+0.572,-0.758,-0.923,-0.123,-0.260,-2.062,+4.250,+7.562,4, -5, 5, 14, -3, -5, -20, 4,-0.6268916258497405,-1.253453927084926,8
1503525056819,+0.282,-0.135,+0.572,-0.758,-0.964,-0.106,-0.266,-2.188,-0.250,+6.625,2, -2, -3, -8, 0, 6, 9, 4,-0.6262384506743255,-1.2540618848549403,8
1503525056840,+0.282,-0.135,+0.571,-0.759,-1.005,-0.100,-0.287,+0.000,+5.750,+5.312,-2, -1, 1, -4, -8, -9, 3, -13,-0.6264783173535292,-1.2517570390341628,8
1503525056857,+0.281,-0.135,+0.569,-0.761,-0.992,-0.098,-0.293,+0.875,+14.250,+7.000,-6, 0, 5, 9, 6, 27, -2, -14,-0.6250521885039372,-1.2470735892667217,8
1503525056886,+0.280,-0.135,+0.567,-0.763,-0.927,-0.121,-0.300,+0.562,+13.125,+7.812,-3, 0, 3, 3, 2, 4, 5, 8,-0.6236229277017318,-1.2424046517204712,8
1503525056901,+0.280,-0.135,+0.566,-0.763,-0.904,-0.145,-0.272,-1.812,+4.562,+4.938,-2, -5, -5, -4, 6, 6, -4, -11,-0.6234023520236555,-1.2397496411377935,8
1503525056926,+0.280,-0.135,+0.566,-0.763,-0.954,-0.122,-0.270,-4.250,+0.000,+2.438,-1, -3, -3, -2, -7, -17, 0, -1,-0.6234023520236555,-1.2397496411377935,8
1503525056946,+0.280,-0.135,+0.566,-0.764,-1.013,-0.089,-0.291,-1.688,+4.062,+0.250,2, -3, -3, -2, 9, 8, -5, 7,-0.6238597643718014,-1.2401196814121347,8
1503525056961,+0.280,-0.135,+0.564,-0.765,-0.997,-0.106,-0.312,-2.625,+11.938,+2.625,5, 4, -4, -4, -4, -10, 2, 5,-0.6238760949598017,-1.2351888368067363,8
1503525056993,+0.281,-0.135,+0.562,-0.766,-0.963,-0.129,-0.298,-3.812,+14.250,+1.500,4, 3, 0, -2, 0, 6, 15, -9,-0.6258027519789804,-1.2303579178207011,8
1503525056999,+0.282,-0.135,+0.561,-0.767,-0.916,-0.114,-0.284,-5.188,+9.875,+0.062,-4, 1, -2, -3, -6, 37, -2, -1,-0.6279548421693966,-1.2281821388115346,8
1503525057021,+0.282,-0.135,+0.560,-0.767,-0.922,-0.092,-0.275,-6.438,+1.188,-1.312,-2, 2, 1, -3, -7, -19, -10, -16,-0.6277350305521212,-1.225538777192767,8
1503525057041,+0.283,-0.136,+0.560,-0.767,-0.995,-0.085,-0.310,-5.562,+0.562,-0.938,-6, -3, -3, -1, -6, -6, -8, -18,-0.6308832978838259,-1.2263361686754881,8
1503525057059,+0.284,-0.136,+0.558,-0.768,-0.984,-0.088,-0.320,-6.375,+8.500,-0.875,7, 2, 28, 43, 6, -3, 9, 54,-0.6328215094206598,-1.221532489615579,8
1503525057080,+0.284,-0.137,+0.557,-0.768,-0.945,-0.093,-0.287,-7.875,+9.938,+0.625,-6, -6, -6, -15, -2, 8, -2, 2,-0.6338291550575147,-1.2196074308778702,8
1503525057101,+0.285,-0.137,+0.556,-0.769,-0.933,-0.111,-0.304,-8.500,+5.000,-0.750,1, 2, 0, -5, 3, 47, -1, 15,-0.6359912993900082,-1.2174542093904535,8
1503525057119,+0.287,-0.138,+0.555,-0.768,-0.957,-0.105,-0.309,-10.688,+0.312,-4.688,-2, -3, -4, -9, -5, -15, -7, -22,-0.6403880964613813,-1.2153444048052824,8
1503525057141,+0.288,-0.139,+0.555,-0.768,-0.971,-0.093,-0.303,-10.812,-0.375,-3.938,-2, -1, 9, 13, 1, -12, -10, -45,-0.6435457601446419,-1.2161648581175215,8
1503525057163,+0.290,-0.140,+0.554,-0.768,-0.961,-0.098,-0.326,-9.000,+4.375,-3.938,-11, 10, -2, -10, -5, -21, -11, -43,-0.6484165170663063,-1.2144600908386012,8
1503525057179,+0.291,-0.140,+0.553,-0.768,-0.951,-0.110,-0.319,-8.875,+6.062,-3.500,7, 2, -1, 4, 15, 10, 22, 37,-0.6501291900381965,-1.2119324213707037,8
1503525057201,+0.293,-0.141,+0.552,-0.768,-0.938,-0.114,-0.317,-10.250,+3.125,-2.250,-26, -8, -7, -7, -2, -9, -17, -42,-0.6550122866169423,-1.2102430365861385,8
1503525057223,+0.294,-0.141,+0.552,-0.767,-0.949,-0.112,-0.297,-10.438,+0.688,-4.750,12, -8, -5, -7, -8, -3, -6, 5,-0.6564881494639444,-1.2099511940589098,8
1503525057239,+0.296,-0.142,+0.552,-0.767,-0.963,-0.107,-0.331,-8.812,-0.062,-6.062,0, 4, -1, -3, -4, -6, 8, 27,-0.6616084583196319,-1.210894023133303,8
1503525057261,+0.298,-0.142,+0.550,-0.767,-0.952,-0.123,-0.351,-9.188,+4.375,-4.125,12, -4, -5, -10, -13, -28, -3, -33,-0.665061890763237,-1.205856611774849,8
1503525057286,+0.299,-0.142,+0.549,-0.767,-0.955,-0.134,-0.308,-10.688,+6.000,-4.875,-5, -13, 2, -5, -4, -13, -3, -13,-0.6667931983307076,-1.2033406280850236,8
1503525057299,+0.301,-0.143,+0.548,-0.767,-0.917,-0.120,-0.306,-9.562,+6.062,-2.188,-6, -4, -4, -3, 0, 2, -19, -40,-0.6717095284282244,-1.2016837396257196,8
1503525057321,+0.302,-0.143,+0.547,-0.767,-0.944,-0.111,-0.322,-8.562,+5.000,-2.625,-9, 9, 0, 11, 3, 3, 8, 10,-0.6734480163182894,-1.199174087858317,8
1503525057343,+0.303,-0.143,+0.546,-0.768,-0.970,-0.110,-0.346,-7.812,+6.812,-0.375,-11, -14, -17, -1, 0, 5, 3, 9,-0.675665564772407,-1.197067853888635,8
1503525057360,+0.305,-0.144,+0.544,-0.769,-0.979,-0.133,-0.347,-10.250,+14.500,-1.188,0, 2, -1, -2, 0, -7, -4, 7,-0.6808516789606079,-1.1932295185616357,8
1503525057381,+0.306,-0.144,+0.542,-0.770,-0.972,-0.124,-0.331,-10.562,+16.062,-4.000,2, 2, 3, -2, -2, 1, 6, 10,-0.682855600925617,-1.1885379107884677,8
1503525057404,+0.308,-0.144,+0.539,-0.770,-0.939,-0.090,-0.333,-10.000,+14.125,-5.438,6, 1, -4, -2, -5, -2, -1, 16,-0.6861452933974825,-1.1809606371511092,8
1503525057422,+0.310,-0.143,+0.537,-0.771,-0.958,-0.098,-0.377,-7.875,+15.312,-6.188,-15, -1, 18, 5, 3, 3, 2, -16,-0.6889520850426352,-1.175633625960865,8
1503525057444,+0.312,-0.142,+0.534,-0.772,-0.979,-0.129,-0.368,-8.812,+17.312,-8.500,5, -7, -5, -3, 1, 8, -2, 6,-0.6915648230713474,-1.1677289234436599,8
1503525057463,+0.315,-0.141,+0.532,-0.773,-0.949,-0.137,-0.386,-5.938,+15.312,-11.438,-4, -3, -6, -4, -10, -4, -11, -46,-0.6964330066959142,-1.16254233915375,8
1503525057479,+0.318,-0.140,+0.531,-0.773,-0.928,-0.142,-0.351,-5.875,+10.062,-13.312,2, 1, 0, -2, -6, -20, -11, -12,-0.7010697970420786,-1.15952295083691,8
1503525057501,+0.320,-0.139,+0.531,-0.772,-0.941,-0.145,-0.348,-7.750,+3.625,-13.125,9, 27, 14, 3, 3, 8, 8, 30,-0.7034369996391482,-1.1585470560073872,8
1503525057524,+0.322,-0.138,+0.530,-0.773,-0.999,-0.115,-0.410,-1.688,+10.562,-10.375,15, -3, -5, 1, 0, 9, 20, 43,-0.7065904923992222,-1.1558457379239622,8
1503525057539,+0.323,-0.136,+0.526,-0.775,-0.947,-0.128,-0.394,-0.188,+28.375,-3.188,-1, -3, -2, -1, 10, 21, -5, -14,-0.7064337263710396,-1.1449669644501057,8
1503525060141,+0.269,-0.161,+0.586,-0.748,-1.010,-0.038,-0.290,-6.750,+14.688,-0.062,5, 3, 1, -2, 0, -1, 3, 16,-0.6343088362720343,-1.305844439862308,9
1503525060163,+0.269,-0.161,+0.582,-0.750,-0.991,-0.062,-0.276,-7.875,+20.312,+4.000,-4, -3, 1, 1, 9, 26, -2, 1,-0.6341376178853297,-1.2958396570064372,9
1503525060186,+0.271,-0.161,+0.580,-0.752,-0.953,-0.094,-0.225,-8.250,+17.312,+2.062,3, -1, -11, -23, -7, -17, -3, 1,-0.6381981755840821,-1.291348864078258,9
1503525060202,+0.272,-0.162,+0.579,-0.751,-0.929,-0.077,-0.196,-8.812,+3.875,-1.625,1, 4, 11, 24, 1, -7, -2, -8,-0.6406791511600383,-1.2892401114032235,9
1503525060223,+0.273,-0.163,+0.580,-0.750,-0.965,-0.059,-0.234,-6.750,-7.250,-3.188,-1, -1, -6, -11, 1, -1, -9, -1,-0.6436831837885252,-1.2924363464340327,9
1503525060248,+0.273,-0.163,+0.580,-0.750,-1.006,-0.065,-0.289,-5.000,-2.812,-1.438,-2, -3, 1, 0, -2, 1, 7, -3,-0.6436831837885252,-1.2924363464340327,9
1503525060261,+0.273,-0.163,+0.578,-0.751,-0.992,-0.075,-0.277,-3.562,+8.375,+3.938,-6, -3, -4, -7, -5, -4, -24, -4,-0.6435981681744707,-1.287460517293746,9
1503525060283,+0.274,-0.163,+0.576,-0.752,-0.944,-0.098,-0.229,-4.000,+10.500,+5.312,-1, -3, -5, -4, -1, -2, 10, 6,-0.6453777901505278,-1.2825860439007177,9
1503525060300,+0.274,-0.164,+0.576,-0.753,-0.940,-0.086,-0.208,-5.438,+4.062,+4.375,2, 1, -5, -8, -3, -15, -2, 5,-0.6471331268818834,-1.2836982916837316,9
1503525060320,+0.274,-0.164,+0.575,-0.753,-0.997,-0.061,-0.251,-2.312,+5.188,+3.625,-5, 12, 6, -5, -11, -21, 11, -19,-0.6468708130132486,-1.28105717573889,9
1503525060343,+0.273,-0.165,+0.573,-0.755,-0.997,-0.064,-0.290,-2.875,+11.188,+8.375,3, -2, 3, 1, -8, -8, 5, 13,-0.6466682781706498,-1.2771360547669457,9
1503525060359,+0.273,-0.165,+0.571,-0.757,-0.978,-0.075,-0.265,-3.688,+14.125,+9.562,-16, -14, -1, 8, 5, 9, -1, -5,-0.6470136596017819,-1.272536803944064,9
1503525060380,+0.273,-0.165,+0.570,-0.758,-0.921,-0.059,-0.253,-2.688,+6.375,+5.062,9, -1, 2, 2, 3, 5, -5, 6,-0.6471862827569307,-1.2702433390309849,9
1503525060403,+0.273,-0.166,+0.570,-0.757,-0.914,-0.058,-0.251,-3.312,-8.375,+1.750,-5, -1, -3, -1, 3, 5, -2, -3,-0.6480608793636673,-1.2707006207566702,9
1503525060419,+0.272,-0.166,+0.572,-0.756,-1.010,-0.050,-0.285,+0.062,-11.500,-1.250,4, 16, 3, -2, -7, 5, -1, 3,-0.646288416168079,-1.27553113799006,9
1503525060441,+0.272,-0.166,+0.572,-0.756,-1.043,-0.061,-0.286,+0.312,+1.500,+0.875,2, -11, -1, -3, -3, -13, -4, -3,-0.646288416168079,-1.27553113799006,9
1503525060463,+0.273,-0.165,+0.570,-0.757,-1.005,-0.080,-0.246,-1.000,+11.062,+1.500,1, 3, -4, 0, 5, 3, -7, -5,-0.6467498428135067,-1.2699051345911339,9
1503525060486,+0.273,-0.165,+0.569,-0.758,-0.948,-0.081,-0.206,-1.875,+10.125,-0.438,-2, -5, -2, 0, -1, -1, -4, -4,-0.6469225347794145,-1.2676139668006583,9
1503525060503,+0.274,-0.165,+0.569,-0.758,-0.962,-0.077,-0.232,-3.062,+4.562,-1.312,-1, 1, -2, 0, 4, 4, -3, 0,-0.6487949311358079,-1.2677126356350639,9
1503525060523,+0.274,-0.165,+0.568,-0.758,-1.005,-0.059,-0.272,-4.250,+7.188,+0.500,1, -8, -2, 0, -1, 3, -3, -13,-0.6485314627664563,-1.2650839504964673,9
1503525060546,+0.275,-0.165,+0.566,-0.759,-1.002,-0.071,-0.279,-5.625,+13.125,+1.500,1, 6, 1, 2, -2, -2, -1, 2,-0.6503187887234136,-1.2602744312810774,9
1503525060561,+0.276,-0.165,+0.564,-0.760,-0.962,-0.058,-0.233,-7.875,+13.438,+1.938,-8, -1, -1, -4, -1, 6, -11, -12,-0.6521118138000936,-1.2554766232664658,9
1503525060583,+0.277,-0.165,+0.562,-0.761,-0.951,-0.048,-0.250,-5.625,+13.062,+0.438,1, -6, 0, -1, 1, -3, 0, 2,-0.6539105309195581,-1.2506905703306292,9
1503525060607,+0.277,-0.165,+0.561,-0.762,-0.973,-0.062,-0.288,-5.000,+9.375,+1.500,-6, 0, 2, -2, -4, -10, 7, 4,-0.6540886613103506,-1.2484277509697908,9
1503525060620,+0.278,-0.166,+0.559,-0.763,-0.991,-0.059,-0.298,-7.500,+11.188,+2.562,3, -2, -1, -1, -3, -6, -14, -10,-0.6571864340145138,-1.2444677357635308,9
1503525060644,+0.279,-0.166,+0.557,-0.764,-0.958,-0.048,-0.297,-7.062,+11.938,+1.375,1, -12, -3, 2, 4, -3, -9, -6,-0.6589944094532151,-1.2397145834172463,9
1503525060666,+0.279,-0.166,+0.555,-0.765,-0.928,-0.046,-0.279,-6.562,+12.188,+1.000,-5, -4, 1, -3, -6, -20, 0, -2,-0.6589104505903228,-1.2348636033057752,9
1503525060680,+0.280,-0.167,+0.554,-0.766,-0.936,-0.038,-0.303,-5.375,+4.688,+1.188,6, 12, 1, -2, -1, -9, -3, 17,-0.66227375962485,-1.233551312897683,9
1503525060703,+0.280,-0.167,+0.553,-0.766,-0.977,-0.043,-0.304,-4.062,+4.875,+0.438,0, -3, -5, -4, -6, 9, 6, 15,-0.6620099215246189,-1.2309493365308068,9
1503525060726,+0.281,-0.167,+0.552,-0.767,-0.983,-0.052,-0.314,-5.062,+6.750,+0.688,3, 17, 2, 2, 3, 17, 13, 1,-0.6640909463733032,-1.2288310826727602,9
1503525060744,+0.282,-0.167,+0.550,-0.768,-0.964,-0.043,-0.287,-5.562,+12.938,-0.562,-4, -12, -3, -3, 1, 2, -8, 8,-0.6659137749734527,-1.224122745411033,9
1503525060763,+0.283,-0.167,+0.549,-0.769,-0.942,-0.037,-0.303,-3.438,+12.688,-1.875,-6, -1, 1, 0, -1, -12, -3, -22,-0.668004840690625,-1.2220181396740146,9
1503525060786,+0.284,-0.166,+0.547,-0.770,-0.954,-0.060,-0.320,-4.188,+13.250,-1.562,-2, -1, 0, 0, 2, 8, -11, -30,-0.6685656015317443,-1.2165076495496128,9
1503525060800,+0.285,-0.166,+0.545,-0.771,-0.973,-0.075,-0.317,-6.750,+15.562,-2.875,-3, 0, -1, -5, -10, -20, -13, -12,-0.6704083549221259,-1.2118294676539152,9
1503525060823,+0.287,-0.166,+0.543,-0.772,-0.954,-0.063,-0.301,-8.562,+14.312,-1.812,-8, -14, -4, -4, -1, 2, -3, -9,-0.6741810744233755,-1.2072814502465339,9
1503525060846,+0.288,-0.166,+0.541,-0.773,-0.924,-0.060,-0.298,-7.875,+13.562,+2.062,-1, 2, -2, 1, 0, -4, 0, 10,-0.6760389441343837,-1.202628649557863,9
1503525060860,+0.288,-0.167,+0.539,-0.774,-0.935,-0.054,-0.319,-6.438,+10.812,+3.625,11, 8, -2, 0, -8, -4, -1, 7,-0.6772294164937038,-1.1986977245222508,9
1503525060883,+0.288,-0.168,+0.537,-0.775,-0.977,-0.041,-0.338,-6.938,+12.938,+7.250,0, -4, 1, 4, 6, 5, 0, -23,-0.6784159246786291,-1.1947823940167441,9
1503525060906,+0.288,-0.168,+0.534,-0.777,-0.969,-0.047,-0.346,-6.312,+16.500,+7.125,3, 4, 0, -1, 0, 4, -1, -17,-0.6785281585850939,-1.1878748600383842,9
1503525060921,+0.288,-0.168,+0.531,-0.779,-0.937,-0.054,-0.350,-6.250,+18.000,+6.812,19, 18, 30, 6, 4, 2, -4, 3,-0.6786403721839639,-1.1809924830060268,9
1503525060943,+0.289,-0.168,+0.529,-0.780,-0.924,-0.042,-0.354,-6.500,+15.000,+4.250,-5, -5, -12, -6, -2, -3, 0, 16,-0.6805061835289615,-1.1764117525159712,9
1503525060965,+0.289,-0.169,+0.527,-0.781,-0.924,-0.046,-0.355,-6.312,+10.625,+3.188,-5, -9, -10, -10, -5, -15, 2, 13,-0.6816774466605809,-1.1725587960133674,9
1503525060981,+0.290,-0.169,+0.526,-0.781,-0.941,-0.039,-0.356,-5.750,+4.875,+1.438,-4, -2, -7, -2, -10, 6, -1, -17,-0.6833592432646232,-1.1701398545923967,9
1503525061005,+0.290,-0.169,+0.525,-0.782,-0.979,-0.015,-0.371,-4.438,+8.375,+0.188,2, 2, -2, -1, -10, -23, -29, 6,-0.6835470633842454,-1.168002655328412,9
1503525061025,+0.291,-0.169,+0.523,-0.783,-0.944,-0.025,-0.357,-4.750,+12.125,-0.125,-6, 18, 3, -2, 9, 9, 24, 1,-0.685422208526747,-1.1634585242333009,9
1503525061041,+0.292,-0.169,+0.521,-0.784,-0.930,-0.051,-0.348,-4.188,+10.750,-2.562,-5, -4, -1, 1, 4, -13, -3, -16,-0.6873028716257756,-1.1589264022670913,9
1503525061063,+0.294,-0.168,+0.520,-0.784,-0.942,-0.045,-0.370,-4.375,+9.625,-5.688,-1, -2, -1, 1, -2, 16, 3, 2,-0.6897236052626995,-1.1558050635219377,9
1503525061085,+0.295,-0.168,+0.519,-0.785,-0.952,-0.023,-0.372,-5.125,+12.125,-3.625,5, -1, -5, -2, -5, -6, -13, -16,-0.6918802559383399,-1.153824425490815,9
1503525061101,+0.296,-0.168,+0.516,-0.786,-0.942,-0.023,-0.350,-5.375,+16.375,-2.750,5, -12, -10, 1, 0, -4, 9, -2,-0.6935244407017376,-1.1467864795428688,9
1503525061123,+0.297,-0.167,+0.515,-0.787,-0.904,-0.028,-0.372,-3.750,+13.438,-7.812,-20, -14, 1, -4, -3, 2, 10, 26,-0.6944702176136143,-1.143965798880319,9
1503525061146,+0.299,-0.166,+0.514,-0.787,-0.912,-0.016,-0.392,-3.938,+5.375,-10.312,3, 5, 0, -2, -4, 5, -5, 5,-0.6969443794351418,-1.140861194401434,9
1503525061162,+0.301,-0.166,+0.514,-0.786,-0.948,-0.005,-0.392,-4.250,+2.875,-12.625,2, 18, 5, 0, -5, -11, 8, -1,-0.7004411714482451,-1.1407093095477778,9
1503525061183,+0.303,-0.165,+0.514,-0.786,-0.972,-0.007,-0.395,-1.250,+2.750,-14.688,3, -5, -2, 0, 1, -6, -13, -26,-0.7031925934644833,-1.1401313422143293,9
1503525061207,+0.305,-0.163,+0.513,-0.786,-0.976,-0.039,-0.378,-0.875,+10.188,-13.750,-5, -2, 3, 3, 5, 5, 16, 11,-0.7045000161448921,-1.136177553276222,9
1503525061221,+0.308,-0.160,+0.513,-0.785,-0.931,-0.065,-0.445,+4.000,+4.875,-21.250,-2, -9, -3, -5, -7, 1, -12, -43,-0.7064097116148023,-1.1336157905451778,9
1503525061245,+0.311,-0.157,+0.514,-0.784,-0.960,-0.048,-0.416,+3.812,-1.312,-28.500,-8, -8, -3, -1, -4, -16, -20, 2,-0.7085988661790202,-1.1335993395539417,9
1503525061266,+0.314,-0.154,+0.514,-0.783,-0.972,-0.027,-0.424,+7.250,+1.875,-30.438,-5, -3, -2, -1, -6, -6, 12, 83,-0.7105849437324621,-1.1310657024942168,9
1503525061282,+0.318,-0.150,+0.515,-0.782,-0.947,-0.098,-0.433,+8.250,+2.688,-29.125,7, 1, -4, -2, 3, -4, 1, 12,-0.7136861524170984,-1.1303941807427766,9
1503525061304,+0.321,-0.145,+0.516,-0.781,-0.971,-0.139,-0.434,+10.688,+0.000,-32.500,-5, 1, -7, 3, 16, 32, -52, -45,-0.7136523342267961,-1.1288245617740904,9
1503525061327,+0.325,-0.139,+0.518,-0.779,-1.009,-0.115,-0.444,+16.062,+4.750,-39.125,0, -1, 2, 3, -10, 1, 2, -3,-0.7142889101185974,-1.1287601501770352,9
1503525061341,+0.328,-0.133,+0.518,-0.778,-0.962,-0.103,-0.404,+16.938,+10.312,-38.375,1, -2, -2, 3, 11, 15, -6, -31,-0.7130452358364006,-1.1239943744805825,9
1503525061363,+0.332,-0.126,+0.519,-0.778,-0.907,-0.146,-0.420,+22.125,+8.312,-38.562,1, 1, 1, -2, -6, -18, -16, -6,-0.713545696236528,-1.121693922449703,9
1503525061386,+0.335,-0.119,+0.521,-0.776,-0.931,-0.173,-0.433,+25.750,+1.438,-42.250,-7, 17, 2, 0, 5, 13, -1, 10,-0.7112717162393359,-1.1210815436706254,9
1503525061401,+0.338,-0.111,+0.523,-0.775,-0.975,-0.174,-0.429,+27.062,+4.750,-43.250,8, -4, 0, 1, 6, 19, 17, 47,-0.7084963665668772,-1.1203708277274977,9
1503525061423,+0.341,-0.102,+0.523,-0.774,-0.960,-0.202,-0.421,+30.562,+13.938,-41.562,2, -5, 0, 3, 9, 12, -6, 17,-0.7044353553404605,-1.1139508060215257,9
1503525063404,+0.387,-0.219,+0.584,-0.679,-1.031,-0.167,-0.164,-15.438,+8.000,+8.438,10, 5, -4, -2, 11, 30, 20, 18,-0.9122839098632711,-1.344162584739687,10
1503525063426,+0.388,-0.221,+0.581,-0.680,-1.049,-0.158,-0.197,-14.875,+14.875,+5.000,-3, -3, -10, -20, -7, -17, -4, -11,-0.9168791683504791,-1.3387954171514551,10
1503525063451,+0.390,-0.221,+0.578,-0.682,-0.975,-0.149,-0.213,-12.688,+22.875,+6.312,6, 7, 5, 15, 4, -4, 5, -23,-0.921194281946119,-1.331746117393755,10
1503525063464,+0.391,-0.222,+0.575,-0.684,-0.914,-0.154,-0.188,-13.938,+15.938,+9.000,4, 1, -6, -10, 7, 23, -5, -6,-0.9248464389815119,-1.3256892637038273,10
1503525063486,+0.392,-0.224,+0.573,-0.684,-0.977,-0.140,-0.189,-14.500,+6.125,+5.562,-1, -8, -5, -2, -7, -13, -12, 13,-0.9292350797778395,-1.322759531757516,10
1503525063508,+0.393,-0.225,+0.571,-0.685,-1.059,-0.145,-0.230,-13.500,+7.625,+4.438,-6, 3, 5, 12, -3, -26, -10, -11,-0.9326823647454899,-1.319070031241723,10
1503525063526,+0.394,-0.226,+0.567,-0.687,-1.048,-0.134,-0.232,-13.875,+22.750,+8.875,-1, -3, -3, -1, -3, -5, -26, -34,-0.9360611422724633,-1.3105538309002382,10
1503525063546,+0.395,-0.226,+0.562,-0.691,-0.958,-0.140,-0.221,-11.312,+34.250,+11.312,-6, -1, 0, 5, -3, -18, 2, 7,-0.9387027178267874,-1.2990527082657262,10
1503525063568,+0.396,-0.226,+0.558,-0.693,-0.850,-0.137,-0.186,-12.688,+21.625,+8.562,-7, -5, 4, 3, -2, -8, -11, -33,-0.9406801068757649,-1.2895757543712392,10
1503525063585,+0.397,-0.229,+0.558,-0.692,-0.896,-0.138,-0.201,-14.062,-3.125,+6.125,6, 3, 7, 24, 5, -1, 11, 25,-0.9465349503322139,-1.2926996174513292,10
1503525063606,+0.397,-0.231,+0.558,-0.691,-1.042,-0.124,-0.276,-14.312,-10.375,+2.250,1, -4, 3, 19, -2, 4, 3, 21,-0.9488867072535299,-1.294613487206713,10
1503525063628,+0.399,-0.232,+0.556,-0.692,-1.080,-0.123,-0.296,-13.438,+8.188,+2.688,-12, -1, -15, -16, -2, 1, -1, -23,-0.9544514473949891,-1.2912132413012987,10
1503525063644,+0.400,-0.232,+0.551,-0.694,-1.003,-0.124,-0.264,-11.562,+28.000,+7.500,4, 5, 11, 30, 40, 17, 14, 2,-0.9561519678924446,-1.2793070977870087,10
1503525063666,+0.401,-0.231,+0.547,-0.698,-0.932,-0.121,-0.240,-9.062,+31.500,+7.625,-3, 1, 4, 2, -7, 4, -5, -40,-0.957663308063282,-1.2695090522986705,10
1503525063689,+0.402,-0.232,+0.544,-0.699,-0.914,-0.131,-0.252,-9.750,+17.438,+6.375,8, 4, -4, -8, -7, 10, 2, 54,-0.960849047961382,-1.2635596500513089,10
1503525063704,+0.404,-0.232,+0.542,-0.700,-0.968,-0.141,-0.281,-10.188,+8.688,+1.062,2, 4, 4, 2, -1, -5, -6, -20,-0.9650500777947704,-1.259156154727636,10
1503525063727,+0.405,-0.232,+0.541,-0.700,-0.996,-0.127,-0.264,-11.625,+7.062,-1.875,-8, -2, -2, -14, -19, -20, -7, 71,-0.9669247953272785,-1.2567931157619505,10
1503525063748,+0.407,-0.233,+0.539,-0.700,-0.973,-0.107,-0.275,-11.625,+11.688,-2.688,7, 3, -15, -16, -5, 3, 7, 16,-0.9720706687243951,-1.2532205196968658,10
1503525063764,+0.408,-0.232,+0.537,-0.701,-0.949,-0.118,-0.285,-8.375,+14.188,+1.062,1, -6, -4, -6, 1, -2, 1, -24,-0.9727717274006245,-1.2475639959097833,10
1503525063786,+0.409,-0.232,+0.534,-0.703,-0.988,-0.124,-0.298,-8.125,+17.125,+4.000,0, -3, -6, -15, -15, 1, 41, 4,-0.9750624434739388,-1.240921972975081,10
1503525063808,+0.411,-0.232,+0.531,-0.704,-1.000,-0.112,-0.314,-8.750,+19.000,+1.938,-2, 1, 2, 3, 4, -22, -7, -10,-0.9790590534976125,-1.2341150515229893,10
1503525063824,+0.412,-0.231,+0.528,-0.706,-0.956,-0.110,-0.318,-6.938,+21.125,+2.188,-3, 6, 19, 9, -3, -3, -5, -7,-0.980001244830963,-1.226382753234971,10
1503525063846,+0.413,-0.230,+0.525,-0.707,-0.899,-0.129,-0.319,-5.312,+16.000,+1.375,-4, -10, -9, -11, -1, 0, -14, -46,-0.980498726760204,-1.2183160080664572,10
1503525063868,+0.414,-0.230,+0.524,-0.708,-0.906,-0.146,-0.314,-5.938,+2.688,+3.688,-8, -3, -8, -8, 4, 29, -8, -3,-0.9828785302887884,-1.2163681854308102,10
1503525063886,+0.414,-0.231,+0.524,-0.708,-0.978,-0.134,-0.328,-5.625,-0.438,+5.125,-1, -10, -4, -2, -4, -10, 0, 11,-0.9842343615531902,-1.217526405076941,10
1503525063906,+0.413,-0.232,+0.523,-0.709,-0.984,-0.105,-0.338,-3.312,+6.625,+7.125,-3, -5, -13, -7, -1, 5, -4, -2,-0.9836216331621851,-1.2164230240412737,10
1503525063929,+0.413,-0.232,+0.521,-0.711,-0.943,-0.097,-0.316,-2.500,+12.625,+9.875,-2, 1, -3, -3, 1, -2, -4, -2,-0.9840245285446095,-1.2122280456535703,10
1503525063944,+0.413,-0.232,+0.520,-0.711,-0.936,-0.116,-0.284,-2.438,+8.438,+6.375,0, -2, 4, 1, -10, -17, 16, 30,-0.9837663755174627,-1.2097676953902166,10
1503525063966,+0.413,-0.233,+0.520,-0.711,-0.959,-0.120,-0.251,-6.500,+0.000,+4.438,0, 0, -6, -8, 11, 25, 25, -17,-0.9851228081892496,-1.2109345619243594,10
1503525063989,+0.413,-0.234,+0.519,-0.711,-1.021,-0.097,-0.274,-7.250,+6.000,+3.562,-2, 6, 1, -3, -1, -4, -16, -14,-0.9862222965252155,-1.2096482003931013,10
1503525064004,+0.413,-0.234,+0.516,-0.713,-1.024,-0.062,-0.333,-6.250,+17.562,+5.625,-1, -4, 0, -8, -1, -8, -7, -2,-0.9863597466976985,-1.2030320767109108,10
1503525064027,+0.414,-0.233,+0.512,-0.716,-0.936,-0.062,-0.341,-5.438,+26.750,+7.688,-5, 0, -7, -1, 7, 16, -1, -4,-0.9875241965402148,-1.1933741136521918,10
1503525064049,+0.414,-0.233,+0.509,-0.718,-0.902,-0.089,-0.305,-9.750,+23.250,+7.062,2, 2, -2, 2, 4, 19, -7, -8,-0.9876668124328967,-1.186822793966908,10
1503525064064,+0.415,-0.234,+0.506,-0.719,-0.925,-0.098,-0.321,-12.438,+12.188,+4.188,0, 0, -4, -11, -5, -15, 15, -4,-0.9908769136977446,-1.1812735427357837,10
1503525064089,+0.417,-0.235,+0.504,-0.719,-0.978,-0.081,-0.350,-13.500,+14.250,+0.625,-4, 0, -8, -12, 5, 2, 4, 11,-0.9960783241618851,-1.1779728664865126,10
1503525064108,+0.418,-0.235,+0.500,-0.721,-0.967,-0.064,-0.417,-11.000,+19.875,+3.625,-1, -4, -2, 0, -2, -10, -8, 0,-0.9981553727669701,-1.1692677786814798,10
1503525064124,+0.420,-0.234,+0.495,-0.723,-0.928,-0.085,-0.382,-10.125,+28.750,+5.000,2, -2, 0, 2, -1, -2, -1, -8,-1.0008569843098905,-1.1571963691822647,10
1503525064146,+0.421,-0.234,+0.493,-0.725,-0.881,-0.093,-0.342,-11.938,+18.312,+2.500,3, -1, 0, -5, -2, -8, -8, 4,-1.003463647095329,-1.1533864945622372,10
1503525064168,+0.422,-0.235,+0.491,-0.725,-0.854,-0.083,-0.371,-9.688,+2.125,+1.625,1, 0, 0, 1, -8, -8, -7, 7,-1.0064886913602307,-1.1499929373473525,10
1503525064184,+0.423,-0.236,+0.492,-0.724,-0.912,-0.065,-0.401,-8.062,-9.750,+0.500,-4, 0, -2, 6, 11, 12, 3, 0,-1.0098212177817074,-1.1533828599964149,10
1503525064206,+0.422,-0.238,+0.492,-0.723,-0.956,-0.051,-0.416,-4.938,-8.062,+3.000,-9, -4, -1, -3, -1, -12, -1, 0,-1.0098232793089943,-1.1552152870255066,10
1503525064229,+0.422,-0.238,+0.492,-0.723,-0.967,-0.074,-0.373,-3.562,-2.062,+4.062,-3, 0, -2, 0, -5, -7, -28, 3,-1.0098232793089943,-1.1552152870255066,10
1503525064244,+0.422,-0.239,+0.492,-0.723,-0.938,-0.068,-0.350,-3.750,-0.062,+0.938,-2, 4, 1, 3, -3, 0, 0, -10,-1.0111578083525754,-1.1564317817376086,10
1503525064266,+0.423,-0.239,+0.492,-0.723,-0.934,-0.073,-0.358,-3.125,+1.562,-1.750,7, 16, 8, 6, 0, 0, 2, -1,-1.013362275378404,-1.156624612723164,10
1503525064289,+0.424,-0.239,+0.492,-0.722,-0.953,-0.087,-0.374,-4.688,+1.875,-4.000,5, 12, -4, -6, -3, -2, 3, -2,-1.0151205503224976,-1.1564204809538374,10
1503525064304,+0.425,-0.238,+0.491,-0.722,-0.961,-0.088,-0.392,-5.625,+6.812,-4.688,-4, -9, -2, -4, -5, 1, 8, 5,-1.0157459797267971,-1.1530064195715397,10
1503525064327,+0.427,-0.237,+0.489,-0.723,-0.973,-0.098,-0.373,-6.625,+14.875,-5.812,-2, -5, -3, -4, 0, -4, 7, 8,-1.0187979390398576,-1.147806535445476,10
1503525064348,+0.429,-0.236,+0.487,-0.723,-0.926,-0.104,-0.377,-6.562,+15.000,-5.562,1, -2, 4, 6, 1, 2, -1, 2,-1.0214247402966417,-1.1422161489633853,10
1503525064364,+0.431,-0.235,+0.485,-0.724,-0.912,-0.101,-0.375,-6.250,+12.562,-3.500,4, -1, -5, -6, -3, -14, -8, -15,-1.02452474394769,-1.1370437929184471,10
1503525064389,+0.432,-0.235,+0.484,-0.724,-0.930,-0.094,-0.379,-6.188,+9.500,-1.750,-1, -6, 0, -3, -4, -13, 7, 7,-1.0265134033506649,-1.1348679707581768,10
1503525064408,+0.433,-0.234,+0.483,-0.724,-0.938,-0.083,-0.380,-4.500,+7.750,-2.625,-4, -5, -2, -1, 4, 16, 10, -3,-1.0271994372615139,-1.1314746307790227,10
1503525064424,+0.433,-0.234,+0.482,-0.725,-0.942,-0.073,-0.410,-2.688,+9.375,-0.812,2, 5, 0, -6, 5, 8, -5, -5,-1.0274059012924512,-1.1295162792136815,10
1503525064449,+0.434,-0.233,+0.480,-0.726,-0.973,-0.071,-0.391,-3.062,+16.125,-0.562,-4, -11, -3, -7, -5, -8, -15, 3,-1.0283115901931206,-1.1241769008965812,10
1503525064469,+0.435,-0.232,+0.478,-0.727,-0.922,-0.087,-0.382,-3.375,+16.500,-3.250,-3, 1, 4, 10, 10, 11, 2, 6,-1.029230453893732,-1.1188498303342194,10
1503525064483,+0.437,-0.230,+0.477,-0.727,-0.905,-0.063,-0.444,-1.750,+10.062,-5.438,0, 0, -4, -3, -6, -3, 10, -7,-1.0309178808667574,-1.1144608948892516,10
1503525064505,+0.437,-0.229,+0.477,-0.727,-0.880,-0.049,-0.500,+6.312,-5.375,-7.812,-4, 0, -4, -5, 3, 9, 8, -8,-1.0296352009368155,-1.113247046302076,10
1503525064528,+0.438,-0.227,+0.479,-0.726,-0.951,-0.084,-0.442,+11.562,-4.250,-13.250,2, -12, -7, 1, -1, -2, -3, -15,-1.0293532297299666,-1.1153397344523286,10
1503525064543,+0.437,-0.226,+0.482,-0.725,-0.983,-0.075,-0.437,+12.000,-14.250,-8.062,-1, -3, 10, 32, 1, -5, -6, -2,-1.0260690654593754,-1.1206354798024967,10
1503525064565,+0.436,-0.223,+0.483,-0.726,-0.979,-0.069,-0.457,+21.000,+3.875,-2.125,-1, -1, -3, -11, -5, -2, -1, 3,-1.0206795342272752,-1.119659365837034,10
1503525064590,+0.435,-0.218,+0.483,-0.729,-0.969,-0.099,-0.472,+24.438,+14.812,-3.438,-2, 1, -5, -7, 0, 7, 2, 3,-1.0134827024235318,-1.114841765229392,10
1503525067413,+0.430,-0.243,+0.517,-0.699,-0.910,-0.106,-0.315,-0.938,-0.812,+6.938,-12, -10, -11, -9, -7, -8, 1, -7,-1.0298070059691025,-1.2139849428069203,11
1503525067430,+0.429,-0.244,+0.517,-0.699,-0.958,-0.116,-0.286,-1.562,-3.062,+6.125,-1, -7, -5, -13, 10, 17, 2, -1,-1.028977210142849,-1.2150334179399715,11
1503525067446,+0.429,-0.244,+0.518,-0.699,-0.986,-0.126,-0.323,-1.812,-1.688,+2.125,3, -3, 6, 9, 9, 32, 10, 16,-1.0292301613898844,-1.2174729822831252,11
1503525067470,+0.429,-0.244,+0.517,-0.699,-0.991,-0.109,-0.300,-4.125,+3.125,+0.250,-5, -1, 3, 5, -10, -19, -7, -11,-1.028977210142849,-1.2150334179399715,11
1503525067490,+0.430,-0.244,+0.516,-0.699,-0.954,-0.076,-0.306,-4.000,+6.688,-0.562,2, -3, 1, -8, 1, -15, 0, 7,-1.03092941899627,-1.2127668059143588,11
1503525067507,+0.430,-0.244,+0.516,-0.700,-0.921,-0.095,-0.322,-1.125,+3.375,+0.125,2, 0, 0, -2, 4, 2, 3, 4,-1.031373650969445,-1.213130185586979,11
1503525067528,+0.431,-0.244,+0.515,-0.700,-0.938,-0.134,-0.315,-4.438,+0.312,-0.062,-5, -6, 0, -10, -10, 7, -13, -9,-1.0333293407576023,-1.2108682902012,11
1503525067550,+0.431,-0.245,+0.515,-0.699,-0.988,-0.114,-0.306,-7.500,+2.438,+0.375,7, 2, -5, -1, -5, -7, 12, 31,-1.034260440082616,-1.2117291084934116,11
1503525067566,+0.432,-0.245,+0.513,-0.700,-0.979,-0.104,-0.320,-8.250,+9.938,+3.062,-1, 2, 32, 44, 0, 11, 0, -4,-1.0364102415869045,-1.2074072690447955,11
1503525067595,+0.433,-0.245,+0.510,-0.702,-0.949,-0.098,-0.339,-7.250,+19.750,+5.688,4, 2, 1, -6, 1, 0, 0, 0,-1.0387562587838066,-1.2010477590971553,11
1503525067613,+0.434,-0.244,+0.507,-0.704,-0.934,-0.108,-0.331,-7.688,+21.375,+5.938,6, -7, -8, -6, -2, -2, 9, -1,-1.039744885900447,-1.1934876858502566,11
1503525067626,+0.435,-0.244,+0.504,-0.705,-0.934,-0.107,-0.308,-10.375,+17.438,+5.125,-2, -4, -5, -6, 21, 20, 8, 6,-1.0416645332046548,-1.186812606072434,11
1503525067648,+0.436,-0.244,+0.502,-0.706,-0.928,-0.125,-0.311,-9.812,+13.188,+1.938,-2, 2, -1, -5, -14, -19, -11, 5,-1.0438369372220015,-1.1825658315985068,11
1503525067671,+0.437,-0.245,+0.501,-0.705,-0.915,-0.079,-0.378,-11.062,-0.500,-3.438,-11, -4, 10, 2, 0, 1, 3, -28,-1.0467342960047399,-1.1812094624488385,11
1503525067686,+0.438,-0.246,+0.500,-0.705,-0.930,-0.023,-0.400,-6.125,-2.938,-1.312,3, 14, 5, 6, -1, -12, 2, 8,-1.050075367534886,-1.1802447985582087,11
1503525067709,+0.438,-0.246,+0.499,-0.706,-0.969,-0.067,-0.367,-2.125,+5.562,-1.438,-3, -8, -6, -4, 0, -1, -11, -2,-1.0502672040195982,-1.1782320194768632,11
1503525067730,+0.438,-0.245,+0.499,-0.706,-0.965,-0.093,-0.342,-1.500,+7.688,+1.562,-3, -3, -4, -4, -14, -17, 0, 9,-1.0489128009820465,-1.1769838597222566,11
1503525067747,+0.439,-0.244,+0.498,-0.707,-0.918,-0.117,-0.328,-0.750,+8.562,-1.688,1, 2, -2, 13, 4, 13, -4, -5,-1.0499908411554344,-1.1739179899696506,11
1503525067768,+0.440,-0.244,+0.498,-0.707,-0.887,-0.083,-0.392,-1.312,-2.312,-3.875,-4, -4, -2, -30, 1, 1, 9, -14,-1.05222795927162,-1.1741073309825714,11
1503525067790,+0.440,-0.244,+0.498,-0.707,-0.927,-0.064,-0.366,+1.062,-1.500,-0.312,-1, -7, -10, -11, -9, -11, -10, -7,-1.05222795927162,-1.1741073309825714,11
1503525067806,+0.439,-0.244,+0.498,-0.707,-0.949,-0.086,-0.359,+2.875,+2.562,+4.312,-9, -3, -2, -11, -10, -10, -12, -13,-1.0499908411554344,-1.1739179899696506,11
1503525067828,+0.438,-0.243,+0.498,-0.708,-0.953,-0.125,-0.343,+3.812,+3.938,+5.375,2, -3, -14, -2, 3, 2, 2, 4,-1.0468481118784108,-1.1728731064962568,11
1503525067850,+0.438,-0.242,+0.497,-0.709,-0.912,-0.116,-0.342,+3.375,+3.875,+6.188,0, -5, -6, -3, 0, 0, 2, -2,-1.0457012234173197,-1.1696277581050971,11
1503525067866,+0.437,-0.242,+0.497,-0.710,-0.928,-0.104,-0.347,+0.062,+2.625,+8.000,2, -1, 2, 3, -5, -6, -11, 0,-1.0439074617254087,-1.1698276561290977,11
1503525067888,+0.436,-0.243,+0.497,-0.710,-0.959,-0.075,-0.345,+0.188,-0.312,+4.625,-1, -2, 7, 27, 1, -10, -6, -7,-1.0430191345421538,-1.170876093454484,11
1503525067910,+0.436,-0.243,+0.497,-0.710,-0.983,-0.104,-0.350,-0.062,+0.438,+0.812,-3, -4, -1, -5, 1, 4, -3, 3,-1.0430191345421538,-1.170876093454484,11
1503525067926,+0.436,-0.242,+0.497,-0.710,-0.955,-0.103,-0.378,-0.188,+0.125,-2.812,-6, -4, -6, -17, -7, -8, 10, -3,-1.0416749517895851,-1.169637953544714,11
1503525067949,+0.437,-0.242,+0.497,-0.710,-0.946,-0.090,-0.334,-1.875,+1.750,-1.250,6, 5, 0, 0, -2, -9, 3, 3,-1.0439074617254087,-1.1698276561290977,11
1503525067970,+0.436,-0.242,+0.497,-0.710,-0.926,-0.094,-0.352,+0.688,-0.125,+3.500,5, 1, 1, -3, 4, 7, 3, 4,-1.0416749517895851,-1.169637953544714,11
1503525067986,+0.436,-0.242,+0.497,-0.711,-0.938,-0.102,-0.362,-0.312,+1.875,+7.000,-3, -2, -7, -13, -3, -3, 11, 1,-1.0421166162729225,-1.1700273658151554,11
1503525068008,+0.435,-0.243,+0.496,-0.711,-0.945,-0.107,-0.363,-0.438,+4.000,+9.125,-1, -3, 6, 1, -1, 4, -3, -7,-1.0409847007196196,-1.1686825659742974,11
1503525068030,+0.434,-0.243,+0.495,-0.713,-0.957,-0.102,-0.336,-2.812,+7.188,+10.875,-2, -1, 8, 10, 6, 11, -2, 0,-1.0393931730473736,-1.1668814779876477,11
1503525068047,+0.433,-0.244,+0.493,-0.714,-0.933,-0.070,-0.335,-4.062,+8.000,+10.500,0, 4, 1, 10, 25, 81, 0, 11,-1.0384583519131947,-1.1635485340645286,11
1503525068078,+0.433,-0.244,+0.492,-0.715,-0.915,-0.068,-0.371,-2.438,+4.312,+7.312,2, -4, -4, -11, -9, -26, -1, 7,-1.038650749040223,-1.1615582348724232,11
1503525068090,+0.432,-0.245,+0.491,-0.716,-0.913,-0.056,-0.393,-1.250,+1.875,+7.375,-1, -2, -5, -4, -1, -9, -9, 2,-1.037964484302576,-1.1606208610883622,11
1503525068111,+0.432,-0.245,+0.490,-0.717,-0.935,-0.079,-0.370,-1.812,+7.438,+8.750,10, 8, 18, 29, 0, 0, 0, -7,-1.0381548824904947,-1.1586372093780393,11
1503525068128,+0.431,-0.245,+0.488,-0.718,-0.960,-0.091,-0.350,-2.812,+12.188,+8.062,-4, -6, -8, 0, 0, -3, 1, -1,-1.0358738389734385,-1.1540863099591163,11
1503525068150,+0.431,-0.245,+0.487,-0.719,-0.942,-0.081,-0.345,-4.375,+10.375,+7.188,-2, 3, 0, -5, -8, -10, -4, -8,-1.0360639162103513,-1.1521115819707182,11
1503525068166,+0.431,-0.245,+0.485,-0.720,-0.921,-0.069,-0.379,-3.375,+11.125,+8.000,3, 3, -4, -10, -3, -1, 7, 23,-1.036003636101287,-1.147773732683503,11
1503525068188,+0.431,-0.245,+0.483,-0.722,-0.925,-0.069,-0.404,-2.750,+12.000,+10.375,13, 7, 37, 46, 9, 5, 1, 0,-1.036383502209901,-1.1438469944233323,11
1503525068211,+0.430,-0.245,+0.481,-0.724,-0.956,-0.073,-0.394,-2.188,+12.812,+9.312,-2, -8, -13, -21, -5, -6, 7, 4,-1.03454024864699,-1.1397289891151423,11
1503525068226,+0.430,-0.244,+0.480,-0.725,-0.916,-0.070,-0.359,-3.312,+11.062,+4.375,-4, -3, -15, -20, -15, -57, -18, -9,-1.0333963546814333,-1.1365263038826696,11
1503525068250,+0.430,-0.245,+0.479,-0.725,-0.886,-0.038,-0.400,-1.312,-0.375,+1.562,-4, 0, -3, -4, 7, -6, -3, -5,-1.0344788390744892,-1.1354235361959306,11
1503525068270,+0.430,-0.245,+0.479,-0.725,-0.950,-0.043,-0.417,+0.875,-2.312,+0.625,0, -2, -4, -6, -10, -5, 2, -4,-1.0344788390744892,-1.1354235361959306,11
1503525068286,+0.430,-0.244,+0.479,-0.725,-0.979,-0.059,-0.413,+2.188,+4.625,+1.812,-25, -13, -10, -10, 4, 17, -5, -16,-1.0331460610005003,-1.1341715882636518,11
1503525071652,+0.304,-0.166,+0.590,-0.730,-1.004,-0.131,-0.211,-2.812,+0.125,-1.062,-6, -3, 0, -1, -5, -7, -2, -15,-0.6996409710014744,-1.3179056764983552,12
1503525071668,+0.304,-0.166,+0.589,-0.730,-0.994,-0.125,-0.235,-2.562,+3.375,-0.562,3, 4, 10, 18, 2, -8, 3, 11,-0.6993852348099363,-1.315239035317975,12
1503525071692,+0.305,-0.166,+0.588,-0.731,-0.985,-0.112,-0.222,-1.812,+7.875,+1.438,5, 15, 26, 47, 6, 0, 2, 5,-0.7015133132866203,-1.3129594079831008,12
1503525071712,+0.304,-0.165,+0.586,-0.732,-1.001,-0.115,-0.217,+0.062,+11.812,+4.625,-2, -4, -14, -9, -5, -4, -5, -7,-0.6982225709744305,-1.3070479974256801,12
1503525071728,+0.304,-0.164,+0.584,-0.734,-1.000,-0.111,-0.226,+2.062,+17.000,+2.562,2, -7, -10, -15, 1, -5, 0, 4,-0.6973247120301085,-1.3015420477062212,12
1503525071750,+0.304,-0.164,+0.582,-0.736,-0.944,-0.093,-0.224,-0.875,+14.688,+2.812,1, 2, -1, -12, -4, -4, -1, 0,-0.6977567552698044,-1.2968536808382873,12
1503525071773,+0.305,-0.164,+0.581,-0.737,-0.930,-0.099,-0.217,-2.312,+8.625,+0.875,0, 5, 0, 2, 1, -2, -1, 10,-0.6998966776674037,-1.2946060410645963,12
1503525071788,+0.306,-0.163,+0.581,-0.736,-0.970,-0.132,-0.222,-3.000,+0.562,-6.812,-8, -10, -5, -8, -3, -4, 2, 18,-0.7000340149926272,-1.2935751915697766,12
1503525071810,+0.309,-0.163,+0.582,-0.735,-0.998,-0.119,-0.194,-12.812,-1.625,-14.375,-1, -1, -6, -9, -3, 2, 4, -1,-0.7056043498768659,-1.2961812820975958,12
1503525071833,+0.313,-0.164,+0.581,-0.733,-1.014,-0.100,-0.183,-19.438,+2.438,-19.062,5, 5, 13, 22, 0, -4, 3, -3,-0.713475363688652,-1.2940497517924068,12
1503525071848,+0.317,-0.164,+0.580,-0.732,-1.006,-0.125,-0.215,-18.375,+6.438,-17.000,-16, -11, -13, -22, 1, -3, -4, -13,-0.7205387598261221,-1.291434950000649,12
1503525071877,+0.321,-0.164,+0.578,-0.732,-0.998,-0.170,-0.256,-16.812,+13.500,-14.188,2, -3, 5, 10, 0, 0, 2, -6,-0.7278774542221462,-1.2864937799866258,12
1503525071893,+0.324,-0.164,+0.576,-0.733,-0.910,-0.166,-0.302,-16.375,+9.625,-7.688,-4, 16, 1, -10, -7, -8, -13, -7,-0.7337759819019579,-1.2818025282420227,12
1503525071908,+0.325,-0.164,+0.574,-0.734,-0.866,-0.109,-0.299,-7.750,+6.562,+4.000,0, -5, 1, -9, 2, 2, 8, -2,-0.7357464332507406,-1.2769381665756185,12
1503525071930,+0.323,-0.165,+0.572,-0.736,-0.916,-0.116,-0.304,+0.875,+4.250,+15.688,-10, -7, -3, -9, 0, -9, -5, -6,-0.7335742312759296,-1.2729590633311132,12
1503525071953,+0.320,-0.165,+0.571,-0.738,-0.967,-0.156,-0.322,+7.812,+5.375,+16.562,0, -11, -7, -16, -3, 5, -2, 0,-0.7283783411130285,-1.270705160150858,12
1503525071969,+0.318,-0.164,+0.570,-0.740,-0.990,-0.146,-0.315,+10.375,+6.000,+14.250,3, 11, 33, 24, 1, 5, 16, 5,-0.7238589106595328,-1.2677307815274388,12
1503525071991,+0.316,-0.163,+0.570,-0.741,-0.950,-0.110,-0.307,+12.312,+1.625,+10.688,-12, -9, -8, -3, -6, -15, -9, -19,-0.7191147632260259,-1.2670578546007745,12
1503525072012,+0.313,-0.161,+0.569,-0.743,-0.975,-0.097,-0.284,+16.812,+8.875,+6.938,-3, 0, 2, -2, -6, -9, -10, 0,-0.7113603428523076,-1.2631905980490756,12
1503525072029,+0.311,-0.159,+0.568,-0.745,-1.017,-0.112,-0.236,+13.250,+14.312,+6.000,1, 0, -2, -8, 0, 0, -2, 2,-0.7055815207792534,-1.2594433665038303,12
1503525072050,+0.310,-0.157,+0.568,-0.746,-0.983,-0.119,-0.228,+12.062,+13.812,+2.500,6, -3, 4, -6, -1, 1, 9, 1,-0.7015362979870794,-1.258101394547097,12
1503525072074,+0.310,-0.156,+0.567,-0.747,-0.974,-0.118,-0.196,+6.812,+14.312,-0.500,13, -1, 1, 3, 1, 6, 2, 6,-0.7004924446740668,-1.255023144386759,12
1503525072088,+0.310,-0.154,+0.566,-0.748,-0.978,-0.104,-0.217,+3.938,+11.000,-2.312,6, 0, 1, 9, 1, 3, -4, 12,-0.6981806992990877,-1.2511639758663013,12
1503525072110,+0.310,-0.154,+0.566,-0.749,-0.971,-0.090,-0.262,-1.062,+7.062,+1.312,-5, -3, -7, 0, -2, -1, -10, -4,-0.6986589611121463,-1.2515219760007723,12
1503525072133,+0.310,-0.155,+0.564,-0.750,-1.001,-0.107,-0.233,-8.062,+14.875,+3.812,-6, 11, -9, -2, 0, -5, -1, -6,-0.6999317791368839,-1.2473990824506422,12
1503525072148,+0.311,-0.156,+0.561,-0.751,-0.991,-0.110,-0.231,-12.312,+21.000,+5.875,-3, 1, 17, -7, 0, 4, 3, 2,-0.7029223286049283,-1.2407666688371324,12
1503525072171,+0.311,-0.158,+0.558,-0.753,-0.947,-0.096,-0.271,-13.500,+18.875,+7.125,-7, -7, -10, -2, 1, 0, -3, 0,-0.7056886644921734,-1.2352365907330012,12
1503525072196,+0.312,-0.160,+0.555,-0.755,-0.924,-0.095,-0.313,-16.125,+12.875,+8.438,2, 4, 7, 2, -1, -9, 1, -3,-0.7104110062906598,-1.2298644179762932,12
1503525072208,+0.314,-0.162,+0.552,-0.755,-0.960,-0.116,-0.287,-19.688,+10.000,+6.562,5, -2, 1, 9, 0, 2, 1, 7,-0.716150092638858,-1.223905008618554,12
1503525072238,+0.315,-0.165,+0.550,-0.755,-0.977,-0.105,-0.278,-21.562,+9.250,+5.188,-5, -4, 1, 5, 3, 2, -5, -6,-0.7214300117266207,-1.221316630459945,12
1503525072253,+0.316,-0.167,+0.548,-0.756,-0.983,-0.060,-0.343,-19.000,+7.562,+3.562,-1, 4, 20, -6, -1, -2, 0, 3,-0.7259195687665825,-1.2183107624358454,12
1503525072275,+0.318,-0.169,+0.544,-0.758,-0.975,-0.039,-0.401,-14.750,+13.375,+3.250,-6, 6, -2, -4, 0, 1, -6, 6,-0.7323621147145633,-1.2106762689039414,12
1503525072290,+0.319,-0.169,+0.541,-0.759,-0.942,-0.067,-0.346,-12.938,+18.062,+2.250,-3, -13, -6, -5, 1, 4, 2, 8,-0.7340687716015791,-1.203448822767192,12
1503525072312,+0.321,-0.170,+0.539,-0.760,-0.933,-0.110,-0.296,-11.125,+16.688,+0.875,-2, -7, -11, -11, -3, 2, -4, -6,-0.7392871271061293,-1.1998060757656457,12
1503525072335,+0.323,-0.170,+0.537,-0.761,-0.932,-0.114,-0.320,-11.688,+10.250,-4.750,6, 8, 5, -3, -1, -3, -8, -4,-0.7432587285129114,-1.19531320526233,12
1503525072351,+0.325,-0.170,+0.535,-0.761,-0.939,-0.089,-0.361,-11.812,+6.625,-4.188,-9, -6, -5, -2, -9, -16, 5, -5,-0.7467673029020241,-1.1904372456811683,12
1503525072373,+0.326,-0.170,+0.533,-0.762,-0.951,-0.084,-0.359,-9.125,+11.125,-2.000,-4, 0, 0, 5, 5, -6, -2, 0,-0.748755984160566,-1.1858441706285827,12
1503525072388,+0.327,-0.171,+0.531,-0.763,-0.932,-0.094,-0.340,-9.125,+17.312,+2.750,4, -7, -6, 1, 0, 8, 2, 2,-0.7519964014255504,-1.1821460970108115,12
1503525072410,+0.328,-0.171,+0.528,-0.765,-0.934,-0.100,-0.336,-8.625,+18.688,+3.312,1, 0, 7, 1, 1, -1, -4, -2,-0.754222109143463,-1.1754403898126509,12
1503525072433,+0.329,-0.171,+0.526,-0.765,-0.919,-0.108,-0.339,-9.250,+11.938,+1.188,-8, -5, -10, -1, 1, 1, 7, -2,-0.75574410265107,-1.1704831935563957,12
1503525072455,+0.330,-0.171,+0.525,-0.766,-0.915,-0.089,-0.364,-8.500,+4.625,-1.938,-1, 0, -13, -9, -2, -3, -5, 13,-0.7580006815815613,-1.168487092570212,12
1503525072471,+0.331,-0.172,+0.524,-0.766,-0.923,-0.079,-0.378,-8.062,+1.438,-0.750,-2, 14, -3, -8, 5, 7, 1, -5,-0.7610164908778717,-1.1669762701373245,12
1503525072492,+0.332,-0.173,+0.523,-0.766,-0.927,-0.088,-0.367,-8.250,+3.875,+0.500,2, -4, 0, -11, -3, 0, -1, -3,-0.7640344144060554,-1.1654746147511867,12
1503525072509,+0.333,-0.173,+0.522,-0.766,-0.930,-0.090,-0.375,-7.250,+7.875,+1.750,-2, 2, 9, 5, 3, 2, 2, 13,-0.7658169794263033,-1.163078188637482,12
1503525072531,+0.333,-0.173,+0.520,-0.767,-0.936,-0.092,-0.359,-6.938,+6.562,+1.750,-2, 2, -6, 1, -1, 14, -2, -13,-0.7657981738835146,-1.1584326620698402,12
1503525072552,+0.334,-0.174,+0.520,-0.767,-0.920,-0.087,-0.346,-7.812,+2.812,+0.062,3, 0, 14, 21, -1, -8, -1, 3,-0.7690693432205973,-1.1594779343939943,12
1503525072569,+0.335,-0.175,+0.519,-0.767,-0.930,-0.053,-0.387,-5.750,+2.250,+0.312,-5, 3, -6, -11, 0, -1, -5, -11,-0.7720924741786291,-1.1580025272253882,12
1503525072590,+0.335,-0.175,+0.518,-0.767,-0.950,-0.061,-0.391,-4.562,+5.062,+1.875,2, 0, 6, -2, -3, -4, -14, -2,-0.7718408985830196,-1.1554787152120696,12
1503525072612,+0.335,-0.175,+0.517,-0.768,-0.965,-0.082,-0.382,-2.562,+7.875,+0.375,-4, -5, -6, 0, -4, -3, 3, 19,-0.7720709153842429,-1.1533765640495588,12
1503525072630,+0.336,-0.174,+0.516,-0.769,-0.963,-0.095,-0.375,-4.375,+9.625,+0.562,-8, -7, -2, -3, 18, 33, 5, -13,-0.7731150235381145,-1.1505073669495138,12
1503525072650,+0.337,-0.174,+0.514,-0.769,-0.958,-0.078,-0.377,-4.375,+12.250,-3.438,3, 2, -5, -4, -6, -8, 1, -2,-0.7746627625423667,-1.145615868360882,12
1503525072673,+0.339,-0.173,+0.512,-0.770,-0.944,-0.089,-0.382,-2.875,+12.812,-5.875,1, 0, -3, -4, 0, -7, 0, 4,-0.7775317732636786,-1.1403886626412492,12
1503525072688,+0.340,-0.172,+0.511,-0.771,-0.929,-0.090,-0.387,-2.312,+12.812,-6.938,1, 1, -2, -3, -8, -4, 1, -1,-0.7786109886586778,-1.1375382850362734,12
1503525072711,+0.342,-0.170,+0.510,-0.771,-0.915,-0.101,-0.366,-3.375,+10.812,-6.312,-4, -17, -8, -2, -3, 2, -3, -5,-0.7800697481233673,-1.1334962154930164,12
1503525072734,+0.343,-0.170,+0.510,-0.770,-0.911,-0.110,-0.360,-4.188,+2.375,-6.938,-5, -4, -2, -2, -6, -6, 1, 13,-0.7816481508023767,-1.133207039678031,12
1503525072748,+0.344,-0.170,+0.510,-0.770,-0.931,-0.083,-0.382,-5.188,-2.562,-8.188,-3, 1, 1, 3, -3, -4, -4, -3,-0.783717168195143,-1.1333516722879695,12
1503525072771,+0.345,-0.170,+0.510,-0.769,-0.960,-0.080,-0.413,-3.438,+0.938,-5.188,0, -10, 2, 3, -1, -1, 1, 4,-0.7852987428773804,-1.1330623175862817,12
1503525072793,+0.346,-0.169,+0.509,-0.770,-0.950,-0.093,-0.407,-3.062,+8.375,-3.125,0, 5, -12, -6, -5, -4, -15, -5,-0.786417811875884,-1.1302211451003323,12
1503525072808,+0.347,-0.169,+0.508,-0.770,-0.924,-0.083,-0.392,-3.375,+8.875,-4.375,4, 0, 18, -1, -7, -5, 0, 3,-0.7882558179032461,-1.127858598826697,12
1503525072831,+0.349,-0.168,+0.507,-0.770,-0.901,-0.073,-0.407,-2.562,+3.875,-7.875,4, 2, 2, 3, -8, -12, 5, 2,-0.7909828561682425,-1.1247318354090434,12
1503525072852,+0.350,-0.168,+0.507,-0.769,-0.891,-0.093,-0.415,-3.312,-2.375,-10.000,-4, -6, -9, -6, -1, 1, 3, -5,-0.7925753932614588,-1.124437815045734,12
1503525072871,+0.352,-0.167,+0.508,-0.768,-0.921,-0.101,-0.412,-3.438,-3.500,-9.562,-2, -9, 2, 2, 0, 5, 2, 1,-0.7953000404305535,-1.1258837714358534,12
1503525072890,+0.353,-0.167,+0.508,-0.768,-0.921,-0.094,-0.398,-2.812,-0.938,-9.375,3, -3, -6, -1, -1, -1, 0, -2,-0.7973928912185531,-1.1260282414630538,12
1503525072913,+0.354,-0.166,+0.508,-0.767,-0.885,-0.100,-0.396,-3.438,-0.625,-8.312,6, 1, -1, 0, -4, -8, -8, -7,-0.7977991243143576,-1.1248217817350876,12
1503525072931,+0.355,-0.166,+0.508,-0.767,-0.860,-0.097,-0.379,-3.938,-3.188,-3.875,-6, 3, -1, -3, -11, 32, 5, 4,-0.7998971985132993,-1.1249658031341045,12
1503525072950,+0.355,-0.167,+0.508,-0.766,-0.858,-0.088,-0.382,-3.188,-4.438,+1.938,-2, 16, 1, -3, -10, -20, -11, -1,-0.8005922271936174,-1.1254376981459113,12
1503525072974,+0.354,-0.169,+0.509,-0.766,-0.884,-0.092,-0.391,-4.312,-7.125,+7.500,5, -9, 7, -8, 10, 3, -3, 5,-0.8011253951913049,-1.1296346241523048,12
1503525072988,+0.353,-0.170,+0.509,-0.767,-0.920,-0.078,-0.397,-3.750,-2.000,+10.125,-12, -4, -5, -4, 1, -6, 2, 16,-0.8007286321947029,-1.1308447969944346,12
1503525073010,+0.352,-0.171,+0.508,-0.768,-0.917,-0.082,-0.408,-3.000,+2.688,+12.438,-6, -5, 0, -3, -12, -36, 0, -17,-0.8000961571085735,-1.1295508787649664,12
1503525073035,+0.351,-0.172,+0.506,-0.769,-0.920,-0.082,-0.400,-3.688,+5.875,+10.000,-3, 3, -2, 0, 0, -27, -7, -10,-0.7992235677385033,-1.1257624233416024,12
1503525073055,+0.351,-0.172,+0.505,-0.769,-0.932,-0.082,-0.407,-2.688,+4.125,+4.562,4, -6, -8, -1, -1, 6, 5, 6,-0.7989826707695827,-1.1232639626827923,12
1503525073079,+0.351,-0.172,+0.505,-0.769,-0.954,-0.108,-0.425,-2.188,+3.438,-1.062,4, -1, -6, 0, 4, 11, -1, 16,-0.7989826707695827,-1.1232639626827923,12
1503525073093,+0.352,-0.171,+0.504,-0.770,-0.983,-0.113,-0.427,-2.562,+6.625,-4.250,-4, -3, -4, 6, 15, 74, 14, -7,-0.8001241394145965,-1.120429328003434,12
1503525073108,+0.354,-0.170,+0.503,-0.770,-0.977,-0.109,-0.434,-0.562,+10.188,-8.000,-9, -7, 4, 0, -3, -14, -11, -9,-0.8028796251322029,-1.117307648345274,12
1503525073133,+0.355,-0.167,+0.502,-0.770,-0.971,-0.115,-0.410,+2.750,+14.125,-11.125,2, 0, 2, -1, 6, -5, 1, -2,-0.8011774215859697,-1.112195641141409,12
1503525073153,+0.357,-0.165,+0.501,-0.771,-0.952,-0.116,-0.411,+5.188,+12.875,-12.188,0, -1, 3, 2, 3, -6, -4, -7,-0.8032934654858777,-1.1086125796560773,12
1503525073175,+0.359,-0.162,+0.501,-0.771,-0.944,-0.135,-0.396,+5.188,+11.625,-15.750,-4, -2, 1, 1, -1, -2, 4, -3,-0.8040009066028175,-1.1061762573611518,12
1503525073191,+0.361,-0.159,+0.501,-0.770,-0.958,-0.136,-0.411,+4.938,+7.625,-19.500,2, 1, 13, -1, -3, -10, 8, 6,-0.8042427858496457,-1.1033047865114745,12
1503525073213,+0.363,-0.155,+0.502,-0.770,-0.954,-0.143,-0.467,+9.562,+4.688,-22.375,-3, -3, -5, 1, 1, 7, -8, -15,-0.8040895201905083,-1.1025190753448253,12
1503525073240,+0.366,-0.151,+0.502,-0.769,-0.922,-0.169,-0.412,+8.375,+9.250,-20.875,-4, -3, 4, 4, 2, -2, 5, 3,-0.8053998068588676,-1.0989470824218244,12
1503525073251,+0.367,-0.148,+0.503,-0.768,-0.866,-0.170,-0.388,+7.000,+3.438,-15.750,4, 18, 6, 2, 0, 4, 5, 17,-0.8038223625540168,-1.09851314936944,12
1503525073274,+0.369,-0.146,+0.504,-0.767,-0.900,-0.164,-0.391,+7.750,-2.125,-15.875,4, -5, -6, -3, -7, -13, 0, -2,-0.8055404763610692,-1.0991040413470525,12
1503525073295,+0.370,-0.144,+0.505,-0.766,-0.941,-0.134,-0.410,+7.500,-1.375,-14.938,-1, -1, -6, -2, -7, -7, -7, -3,-0.8051177559808548,-1.099572302657005,12
1503525073311,+0.370,-0.141,+0.505,-0.766,-0.938,-0.132,-0.446,+9.938,+5.625,-11.188,-3, -3, -4, -3, -5, -2, -1, 0,-0.8017413353248379,-1.0970066842094723,12
1503525073341,+0.371,-0.138,+0.505,-0.767,-0.908,-0.128,-0.439,+10.750,+9.562,-13.250,1, 3, 0, -2, -3, -16, -10, -7,-0.8010686058163768,-1.095064957603449,12
1503525075853,+0.271,-0.152,+0.648,-0.695,-0.993,-0.178,-0.077,+8.312,-4.938,+6.875,-6, -3, -3, -6, -1, -3, -5, -14,-0.6180449004960957,-1.455368735465366,13
1503525075875,+0.269,-0.152,+0.650,-0.694,-0.989,-0.169,-0.050,+4.938,-9.812,+8.125,-13, -4, 4, 10, -5, -11, 1, -14,-0.6145505566780641,-1.4606799008049993,13
1503525075890,+0.268,-0.153,+0.651,-0.693,-1.012,-0.129,-0.044,+3.750,-11.312,+6.375,-5, -6, 8, 16, 5, 23, -12, -3,-0.6140181170907375,-1.463940196300348,13
1503525075914,+0.266,-0.153,+0.652,-0.693,-1.034,-0.132,-0.062,+5.438,-5.312,+3.938,-1, -2, -6, -3, 0, -6, -4, 1,-0.6107416746379783,-1.4666397043508248,13
1503525075935,+0.265,-0.153,+0.652,-0.693,-1.013,-0.140,-0.068,+3.375,-2.500,+4.875,1, -14, -7, 4, 2, 3, 8, 13,-0.6089811033934668,-1.466607572922886,13
1503525075951,+0.264,-0.153,+0.653,-0.693,-1.014,-0.116,-0.040,+1.125,-0.250,+4.688,2, 2, 6, -1, -2, 12, -8, -10,-0.6074766660652358,-1.4693405102231278,13
1503525075972,+0.264,-0.154,+0.652,-0.694,-1.011,-0.113,-0.044,+0.000,+2.000,+2.875,-1, 2, 6, 8, 5, 3, 1, 5,-0.6090939058070157,-1.467383476909524,13
1503525075995,+0.264,-0.154,+0.652,-0.694,-1.018,-0.129,-0.042,-1.375,+0.750,+3.062,-7, -6, -9, -8, -1, -7, -2, -10,-0.6090939058070157,-1.467383476909524,13
1503525076013,+0.264,-0.154,+0.651,-0.694,-1.026,-0.127,-0.059,-3.750,+5.562,+3.000,4, 14, 19, 16, 1, 8, 3, -5,-0.6088390774997975,-1.4646218166067937,13
1503525076032,+0.264,-0.155,+0.650,-0.696,-1.005,-0.127,-0.072,-5.438,+9.312,+4.250,-4, -11, -7, -13, -4, 8, 4, 3,-0.6108889904151091,-1.4628197242565941,13
1503525076062,+0.264,-0.156,+0.648,-0.697,-1.017,-0.129,-0.034,-7.562,+10.375,+5.562,-7, -4, -10, -1, -2, 10, -9, -13,-0.6122426380620218,-1.4581352430697685,13
1503525076080,+0.265,-0.157,+0.647,-0.697,-1.004,-0.123,-0.047,-9.000,+8.188,+3.000,-7, -3, -5, -3, -4, -10, -11, -14,-0.6151779409055118,-1.456104665534312,13
1503525076093,+0.266,-0.158,+0.645,-0.698,-1.038,-0.111,-0.048,-12.562,+12.000,+7.312,8, 12, 19, 17, 4, -6, -3, -17,-0.6182920626126165,-1.4514826777094536,13
1503525076117,+0.267,-0.159,+0.642,-0.701,-1.062,-0.109,-0.095,-10.375,+22.625,+7.688,0, 0, -10, -1, -2, -2, -4, -2,-0.6220210493946492,-1.4444563329252158,13
1503525076138,+0.268,-0.160,+0.637,-0.705,-1.010,-0.101,-0.097,-11.188,+33.688,+7.125,0, -1, -7, -13, -7, -13, -6, -45,-0.625665678761803,-1.432187053884023,13
1503525076153,+0.269,-0.161,+0.633,-0.708,-0.935,-0.131,-0.082,-14.250,+27.000,+8.250,-3, -5, 1, 5, 2, 2, -3, 33,-0.6291323416206056,-1.4225650103034508,13
1503525076175,+0.271,-0.162,+0.631,-0.709,-0.942,-0.127,-0.086,-16.312,+13.062,+6.000,2, -8, -11, -7, 8, 24, 9, 19,-0.6340417470855594,-1.4181205370728667,13
1503525076198,+0.272,-0.164,+0.629,-0.710,-1.007,-0.096,-0.110,-16.188,+9.500,+4.438,-10, -1, 3, 2, -4, 21, 7, 11,-0.6385697680289987,-1.4143823192964742,13
1503525076216,+0.273,-0.167,+0.626,-0.711,-1.047,-0.088,-0.112,-17.312,+15.250,+6.188,2, -4, -8, -2, -12, -14, 2, 5,-0.644238761916608,-1.4087118229706503,13
1503525076235,+0.275,-0.168,+0.622,-0.714,-1.017,-0.093,-0.123,-16.938,+26.312,+5.875,2, 4, -5, 0, 13, 10, 2, -2,-0.6495043127262188,-1.3993558143697078,13
1503525076258,+0.276,-0.169,+0.618,-0.716,-0.967,-0.082,-0.157,-15.875,+23.438,+7.500,-1, 8, 4, -8, -3, -11, -4, -13,-0.6525241693943,-1.3897914612508036,13
1503525076272,+0.277,-0.171,+0.614,-0.719,-0.957,-0.054,-0.193,-12.312,+20.688,+7.250,1, -4, -6, -6, -1, -3, 6, 15,-0.657378753917846,-1.3812881399860653,13
1503525076295,+0.278,-0.172,+0.610,-0.721,-0.982,-0.083,-0.165,-11.750,+23.250,+10.062,-1, 0, -5, 4, -3, -4, 0, -24,-0.6603909139061794,-1.3718418940980686,13
1503525076317,+0.279,-0.173,+0.607,-0.723,-0.984,-0.091,-0.122,-12.875,+20.812,+9.312,-2, -3, 30, 6, 1, -4, -10, -8,-0.6636751097695086,-1.365131411343419,13
1503525076332,+0.280,-0.175,+0.605,-0.725,-0.968,-0.093,-0.164,-12.875,+14.312,+6.562,2, 6, -12, -3, -3, 1, 0, 34,-0.6686210484047603,-1.3619413879953592,13
1503525076357,+0.281,-0.176,+0.602,-0.726,-1.007,-0.083,-0.186,-13.688,+15.000,+6.500,3, 9, 6, 1, 18, 30, 13, -24,-0.6714614812789075,-1.355053450554066,13
1503525076378,+0.282,-0.177,+0.599,-0.729,-1.028,-0.062,-0.220,-12.688,+20.750,+5.250,-1, -1, 3, 0, 3, 1, 2, 2,-0.6751848451697986,-1.3487223097204206,13
1503525076393,+0.283,-0.178,+0.594,-0.732,-0.993,-0.073,-0.176,-12.500,+28.250,+9.125,-1, -4, -1, 3, -5, -3, 1, 9,-0.6783529310747463,-1.3371302388930875,13
1503525076416,+0.285,-0.179,+0.591,-0.734,-0.949,-0.096,-0.157,-14.188,+25.812,+3.750,15, 12, 13, -4, 0, 1, 0, 6,-0.6834954538363177,-1.330724048958898,13
1503525076438,+0.287,-0.179,+0.588,-0.735,-0.963,-0.070,-0.225,-13.750,+13.000,-1.250,-2, 2, -12, -8, 0, 3, 5, -7,-0.6868381189516231,-1.3232369796862624,13
1503525076453,+0.288,-0.179,+0.585,-0.737,-1.013,-0.040,-0.312,-8.250,+15.188,+0.062,0, 7, 1, -2, -1, 0, 1, -7,-0.6887693282676335,-1.3159766084116833,13
1503525076475,+0.289,-0.179,+0.580,-0.740,-1.020,-0.082,-0.263,-7.938,+30.312,+5.062,7, 6, 0, -2, 0, 3, 3, -5,-0.6906022576270839,-1.3037780398288432,13
1503525076497,+0.291,-0.179,+0.576,-0.743,-1.002,-0.102,-0.194,-10.000,+37.375,+6.375,-3, 0, -3, -2, -9, 11, -1, 6,-0.6946130276572864,-1.2943776019932942,13
1503525076514,+0.292,-0.178,+0.572,-0.746,-0.976,-0.081,-0.213,-7.562,+30.625,+1.750,1, 0, -1, 48, 14, -12, 2, 1,-0.6954127185245693,-1.2840885732467924,13
1503525076535,+0.293,-0.177,+0.568,-0.748,-0.963,-0.056,-0.288,-5.125,+26.062,+0.500,2, 5, 6, -6, 0, 3, -2, -5,-0.6957882235445392,-1.273519670185511,13
1503525076558,+0.294,-0.177,+0.564,-0.751,-0.975,-0.077,-0.272,-5.312,+27.688,+2.562,-4, -1, -1, -6, -3, -2, 6, 3,-0.697960884198452,-1.264181732947244,13
1503525076572,+0.296,-0.176,+0.562,-0.752,-0.967,-0.105,-0.217,-7.750,+20.562,-1.688,5, -1, -8, -21, -3, -1, -12, 5,-0.700380973127421,-1.2586692723295612,13
1503525076595,+0.298,-0.176,+0.560,-0.752,-0.929,-0.087,-0.244,-8.938,+8.250,-5.250,-2, -5, -3, -3, 4, 38, 0, -9,-0.7036827303119388,-1.2536748049940645,13
1503525076617,+0.299,-0.176,+0.560,-0.752,-0.964,-0.061,-0.280,-7.688,+0.688,-4.438,-5, 5, -16, -15, -12, -25, -2, -13,-0.7056070171265028,-1.2537848810317538,13
1503525076632,+0.300,-0.176,+0.559,-0.753,-1.014,-0.058,-0.301,-6.125,+9.562,-2.125,2, 5, 4, 8, 3, -6, -2, 11,-0.7077225725098867,-1.2516431790322715,13
1503525076655,+0.301,-0.176,+0.556,-0.755,-0.992,-0.069,-0.293,-4.438,+21.125,+2.062,-4, 14, 9, -4, -1, -2, -11, 9,-0.7097652770370738,-1.2446685398049813,13
1503525076677,+0.302,-0.175,+0.552,-0.757,-0.940,-0.077,-0.283,-5.062,+24.500,+3.500,-6, -7, -3, -10, -2, -14, 0, -15,-0.710251155088811,-1.2342708405607135,13
1503525076693,+0.303,-0.174,+0.549,-0.759,-0.909,-0.070,-0.313,-3.375,+20.188,+2.812,-4, 0, 2, 4, -4, -7, -3, 5,-0.7110251333982766,-1.226496723561294,13
1503525076717,+0.303,-0.174,+0.547,-0.761,-0.930,-0.066,-0.292,-3.438,+17.875,+1.875,2, -10, -7, -9, 2, 3, 0, -11,-0.7114169346505423,-1.2220751439675084,13
1503525076737,+0.303,-0.174,+0.545,-0.762,-0.954,-0.058,-0.309,-3.438,+12.875,+3.188,-1, -14, -2, 10, -3, -6, 3, 4,-0.7113486162682596,-1.2172914416620497,13
1503525076753,+0.304,-0.174,+0.543,-0.764,-0.950,-0.055,-0.305,-3.438,+15.438,+4.062,2, -5, -2, -4, -3, -9, 3, 0,-0.7136936142458332,-1.2130203571402673,13
1503525076775,+0.304,-0.174,+0.540,-0.765,-0.934,-0.058,-0.325,-3.375,+13.688,+3.125,-4, 1, -4, -9, -4, -18, -23, -5,-0.7133633437722199,-1.2056902542078471,13
1503525076791,+0.304,-0.174,+0.539,-0.766,-0.921,-0.059,-0.309,-4.375,+9.250,+3.312,-3, 1, -2, -4, 25, 22, 6, -3,-0.7135603167849206,-1.203508984537762,13
1503525076813,+0.305,-0.174,+0.538,-0.766,-0.938,-0.036,-0.306,-5.812,+5.000,+1.062,-1, -2, 1, -1, -9, -13, 0, 10,-0.7152561125255222,-1.2010680690367586,13
1503525076835,+0.305,-0.175,+0.537,-0.767,-1.003,-0.022,-0.316,-5.188,+7.938,-4.562,4, -3, 0, -1, -2, -20, -1, 3,-0.7167249062114346,-1.1997670942736847,13
1503525079574,+0.410,-0.265,+0.531,-0.693,-0.924,-0.056,-0.284,-3.875,+14.500,+8.000,-4, -2, 2, 4, -4, 6, -5, -1,-1.0187454871973447,-1.2700800827084795,14
1503525079598,+0.410,-0.265,+0.529,-0.694,-0.860,-0.055,-0.288,-1.750,+4.875,+7.500,2, 2, 2, 3, 2, 19, -5, -3,-1.0186193362571114,-1.2655120617267472,14
1503525079618,+0.409,-0.266,+0.529,-0.694,-0.970,-0.052,-0.236,-1.438,-0.312,+7.438,0, 3, 0, -3, 5, -8, 2, 11,-1.017954342986404,-1.2666141207365422,14
1503525079634,+0.408,-0.266,+0.529,-0.695,-1.064,-0.066,-0.284,+1.625,+4.062,+4.625,-5, -10, 12, 27, 3, -7, 3, -11,-1.0162602062070816,-1.266771957962664,14
1503525079656,+0.409,-0.265,+0.528,-0.696,-0.998,-0.075,-0.280,-1.625,+10.188,-2.688,-8, -2, -2, -11, 0, -3, -7, -13,-1.0170742943788047,-1.26355118783976,14
1503525079678,+0.411,-0.264,+0.526,-0.696,-0.914,-0.093,-0.248,-6.750,+8.250,-2.312,-7, -8, -9, -5, -1, -2, 3, -3,-1.0193226962863644,-1.257740720342228,14
1503525079693,+0.411,-0.265,+0.525,-0.696,-0.929,-0.038,-0.255,-5.250,+5.250,+0.875,4, 6, -1, -3, -1, -6, -2, -3,-1.0205001231288011,-1.2565689565773166,14
1503525079716,+0.411,-0.264,+0.525,-0.697,-1.003,-0.053,-0.265,-1.312,+6.375,+0.750,7, -1, 1, 5, -3, -9, -6, -7,-1.0194770435868699,-1.2556313704184492,14
1503525079739,+0.412,-0.263,+0.523,-0.698,-1.029,-0.083,-0.276,-2.688,+12.875,-1.562,0, -4, -9, -13, 5, 18, -2, 3,-1.0200433414555856,-1.2499991600596865,14
1503525079753,+0.414,-0.263,+0.521,-0.698,-1.002,-0.060,-0.266,-6.000,+17.625,-3.125,2, 0, -4, -10, -5, -15, 10, 8,-1.0237785204797074,-1.245475740450694,14
1503525079776,+0.415,-0.262,+0.519,-0.700,-0.974,-0.041,-0.296,-5.000,+19.250,-1.375,-11, -5, -4, -7, -6, -5, 1, -5,-1.024802241762581,-1.240203006474168,14
1503525079800,+0.417,-0.261,+0.517,-0.701,-0.909,-0.049,-0.296,-4.375,+14.875,-2.938,8, -1, -2, -10, -6, -17, -6, 0,-1.0275633202859664,-1.2347812275978653,14
1503525079813,+0.418,-0.260,+0.516,-0.701,-0.880,-0.103,-0.312,-5.938,+0.375,-3.438,5, 3, -7, -4, -2, -1, -5, 1,-1.028023378486024,-1.2312733261901574,14
1503525079838,+0.419,-0.261,+0.516,-0.700,-0.972,-0.122,-0.330,-8.188,-5.500,-0.062,1, 5, 3, 7, 2, 4, -4, 8,-1.0311805848331501,-1.2323669159480806,14
1503525079858,+0.419,-0.262,+0.516,-0.699,-1.003,-0.100,-0.331,-9.812,-2.812,+4.812,8, -1, -2, 3, -6, 37, 13, 12,-1.0321802808497258,-1.23329178211031,14
1503525079874,+0.419,-0.264,+0.515,-0.699,-0.918,-0.068,-0.307,-7.500,-4.938,+9.062,-1, -4, -6, -10, 4, 10, 1, 2,-1.0347805424779601,-1.2334238071127805,14
1503525079904,+0.417,-0.265,+0.514,-0.701,-0.960,-0.050,-0.324,+0.750,+4.688,+17.438,8, 11, 3, -11, -9, -7, -1, 8,-1.032490356275833,-1.2326230356066883,14
1503525079918,+0.416,-0.264,+0.512,-0.703,-0.984,-0.080,-0.283,+2.625,+13.062,+15.000,-9, -8, -11, -10, 3, 1, -2, 0,-1.0292111208102999,-1.2270389798316887,14
1503525079933,+0.415,-0.265,+0.512,-0.704,-0.988,-0.035,-0.256,-1.000,+4.562,+5.062,-8, 1, -5, -4, -5, -2, 2, -8,-1.028924142826838,-1.2284837204712504,14
1503525079956,+0.415,-0.265,+0.513,-0.703,-0.996,-0.021,-0.270,+0.438,-6.812,-3.375,4, 1, 2, -2, 5, 0, -9, -17,-1.0287691881854792,-1.2305461649511238,14
1503525079978,+0.414,-0.265,+0.514,-0.703,-0.948,-0.042,-0.294,+2.625,-7.125,+0.000,-1, -2, -4, -6, -1, -8, -3, 6,-1.026894320012191,-1.2327778527309587,14
1503525079993,+0.414,-0.265,+0.515,-0.703,-0.924,-0.054,-0.277,+2.500,-0.562,-1.250,2, 4, 1, 0, 2, 1, -8, -6,-1.0271688417092752,-1.2351874419526732,14
1503525080022,+0.414,-0.264,+0.514,-0.703,-0.979,-0.030,-0.254,+1.438,+10.375,-0.312,6, 14, -4, -14, 0, -1, 4, -3,-1.0254545425128847,-1.2315028232043879,14
1503525080039,+0.414,-0.263,+0.513,-0.704,-0.939,-0.036,-0.302,+2.500,+7.750,+0.938,-3, -4, 15, 40, 1, -7, -7, -4,-1.0241745405666878,-1.228163555475443,14
1503525080060,+0.414,-0.262,+0.512,-0.705,-0.917,-0.064,-0.313,+1.688,+8.500,+1.812,-6, -1, -11, -13, -7, -2, 2, 11,-1.022899861443088,-1.224829843372299,14
1503525080076,+0.416,-0.262,+0.510,-0.706,-0.995,-0.090,-0.272,-7.188,+14.625,+2.125,0, -6, 0, -7, -16, -6, 6, -3,-1.0270960326570537,-1.2207236086523021,14
1503525080101,+0.416,-0.262,+0.508,-0.707,-1.005,-0.038,-0.293,-8.250,+18.500,+4.188,2, -4, 0, 1, -4, -13, -4, 0,-1.0269841210382606,-1.2162712922711643,14
1503525080120,+0.418,-0.261,+0.504,-0.709,-1.003,-0.046,-0.311,-7.812,+26.562,+1.438,5, -20, -1, 8, 3, -4, 4, -1,-1.0296701954041532,-1.2064919117353472,14
1503525080136,+0.419,-0.260,+0.500,-0.712,-0.952,-0.066,-0.345,-7.312,+28.250,+3.500,-2, 4, -8, -12, 5, 6, 9, -13,-1.0306477597125625,-1.1969379275941832,14
