Timestamp,Orientation X,Orientation Y,Orientation Z,Orientation W,Accelerometer X,Accelerometer Y,Accelerometer Z,Gyroscope X,Gyroscope Y,Gyroscope Z,EMG1,EMG2,EMG3,EMG4,EMG5,EMG6,EMG7,EMG8
1503525236747,+0.408,-0.230,+0.527,-0.709,-0.960,-0.105,-0.303,-11.688,+3.062,+3.188,-2, 0, 3, 1, 12, 0, -6, -26
1503525236770,+0.410,-0.231,+0.526,-0.709,-0.965,-0.114,-0.296,-14.688,+4.938,-1.250,2, 8, 3, -1, -11, -36, 4, 25
1503525236797,+0.412,-0.232,+0.524,-0.708,-0.968,-0.098,-0.310,-16.188,+5.062,-3.375,0, -4, 0, 2, 16, 2, 5, 10
1503525236808,+0.414,-0.232,+0.522,-0.709,-0.956,-0.081,-0.362,-12.875,+11.438,-3.500,1, -1, 1, -2, -8, -19, -6, -20
1503525236830,+0.416,-0.232,+0.518,-0.710,-0.941,-0.092,-0.374,-10.875,+19.812,-2.688,3, -3, -3, 0, -2, -5, 0, 16
1503525236852,+0.418,-0.231,+0.515,-0.712,-0.890,-0.102,-0.403,-8.000,+12.375,-3.250,-2, -1, -1, -2, 0, -8, -8, -16
1503525236869,+0.419,-0.231,+0.514,-0.712,-0.852,-0.124,-0.370,-5.812,+2.000,-3.250,0, -2, -2, -1, -8, 8, -2, 0
1503525236889,+0.420,-0.231,+0.515,-0.710,-0.874,-0.128,-0.325,-6.250,-11.375,-3.312,1, 11, 3, 0, 0, -12, -3, 8
1503525236912,+0.420,-0.233,+0.517,-0.708,-0.949,-0.110,-0.337,-5.000,-19.125,-1.938,-5, -5, 0, 1, -9, 5, 7, -1
1503525236935,+0.420,-0.234,+0.519,-0.707,-1.016,-0.115,-0.346,-1.625,-15.188,-0.562,8, 1, 1, 3, 1, 5, 0, 27
1503525236949,+0.420,-0.234,+0.519,-0.707,-1.020,-0.116,-0.336,-2.188,-2.688,+2.438,7, -4, -14, -4, 8, 6, 3, -16
1503525236972,+0.419,-0.234,+0.518,-0.708,-0.986,-0.095,-0.282,+0.438,+11.312,+3.688,-5, -3, -4, -3, -2, -4, -4, -12
1503525236988,+0.418,-0.233,+0.517,-0.710,-0.930,-0.084,-0.322,+4.875,+12.062,+12.688,-12, -21, 4, 5, 1, -3, -1, -4
1503525237009,+0.417,-0.232,+0.515,-0.712,-0.955,-0.117,-0.340,+3.000,+15.562,+10.562,-5, -1, 1, -1, 0, 1, -7, -30
1503525237032,+0.418,-0.232,+0.514,-0.712,-0.951,-0.140,-0.292,-3.938,+8.625,+0.875,-4, -1, -3, -4, -4, 8, -1, -5
1503525237047,+0.418,-0.233,+0.514,-0.712,-0.963,-0.095,-0.294,-7.250,+2.500,+0.875,4, 1, 0, -3, 0, 1, 0, 2
1503525237071,+0.418,-0.233,+0.512,-0.713,-0.989,-0.074,-0.349,-2.500,+7.938,+1.562,-3, 1, -2, 1, 4, 8, 0, -9
1503525237092,+0.419,-0.232,+0.510,-0.714,-0.976,-0.079,-0.376,-2.562,+12.438,+1.250,1, 1, 3, -2, -1, -6, -2, 8
1503525237107,+0.420,-0.232,+0.508,-0.716,-0.931,-0.089,-0.355,-4.562,+13.812,+1.750,0, 2, 3, -5, -7, -13, 5, 24
1503525237133,+0.421,-0.232,+0.507,-0.716,-0.910,-0.082,-0.327,-5.312,+8.000,-2.500,-7, -5, -4, -3, -1, 10, -2, -38
1503525237153,+0.422,-0.232,+0.507,-0.715,-0.912,-0.093,-0.310,-5.750,-2.750,-5.875,6, 8, 3, 4, 23, 20, 5, -18
1503525237168,+0.423,-0.232,+0.508,-0.713,-0.944,-0.087,-0.354,-6.375,-8.125,-8.500,4, 0, -3, -3, -9, -19, -12, -2
1503525237190,+0.424,-0.233,+0.508,-0.712,-0.952,-0.084,-0.354,-7.438,-3.562,-7.625,-3, -3, 2, -2, -7, -8, -1, -9
1503525237212,+0.426,-0.233,+0.508,-0.712,-0.918,-0.083,-0.379,-6.438,+0.062,-6.312,3, 5, 0, -3, -13, -9, 11, 83
1503525237230,+0.427,-0.232,+0.507,-0.712,-0.905,-0.086,-0.362,-5.438,+2.375,-6.062,2, -7, -3, 2, 3, -7, 5, 14
1503525237249,+0.428,-0.233,+0.507,-0.711,-0.933,-0.098,-0.345,-7.188,+0.500,-6.188,-6, -8, -4, 0, 6, 61, -18, -28
1503525237272,+0.430,-0.233,+0.506,-0.710,-0.944,-0.091,-0.353,-6.750,-0.312,-7.312,-5, -10, -2, -1, -5, -7, 10, 4
1503525237289,+0.431,-0.233,+0.506,-0.710,-0.941,-0.095,-0.358,-6.375,+2.438,-3.688,1, -1, -1, -2, -5, -8, 0, -8
1503525237310,+0.432,-0.233,+0.505,-0.710,-0.940,-0.102,-0.362,-5.188,+5.250,-2.375,-1, -4, -4, -5, -9, -24, -2, 8
1503525237333,+0.433,-0.232,+0.504,-0.710,-0.927,-0.108,-0.364,-4.938,+4.750,-3.188,-2, -1, -1, -4, -12, -6, -5, -6
1503525237348,+0.434,-0.232,+0.504,-0.710,-0.941,-0.125,-0.339,-4.812,+3.750,-2.438,-3, -3, 1, 2, 8, 29, 8, 18
1503525237370,+0.435,-0.232,+0.503,-0.710,-0.961,-0.121,-0.341,-6.688,+2.812,-3.375,4, -2, -4, -6, -8, -6, 5, 31
1503525237392,+0.436,-0.232,+0.502,-0.710,-0.973,-0.113,-0.360,-5.125,+6.438,-3.750,-5, -6, -3, -4, -7, -13, -5, -6
1503525237408,+0.437,-0.231,+0.501,-0.710,-0.967,-0.116,-0.398,-1.875,+7.625,-3.188,-2, 6, 4, -1, -1, -5, 0, -17
1503525237433,+0.438,-0.229,+0.500,-0.711,-0.971,-0.124,-0.413,+0.250,+9.500,-5.562,10, 0, -1, 1, -3, 20, 4, 30
1503525237452,+0.439,-0.228,+0.500,-0.711,-0.984,-0.122,-0.382,+1.750,+8.875,-8.500,-7, 1, 1, 3, 9, 7, 4, 3
1503525237468,+0.440,-0.225,+0.500,-0.711,-0.986,-0.125,-0.384,+5.938,+6.375,-12.125,2, 0, 0, 2, 0, 7, -2, 1
1503525237490,+0.442,-0.222,+0.501,-0.710,-0.989,-0.141,-0.410,+9.938,+3.875,-17.375,-1, -1, 0, 0, 8, 9, -5, -16
1503525237512,+0.443,-0.218,+0.503,-0.710,-1.016,-0.154,-0.438,+15.375,+0.625,-21.500,-3, -8, -5, -1, -5, -9, -9, -11
1503525237540,+0.445,-0.212,+0.505,-0.709,-1.029,-0.176,-0.456,+24.438,+1.875,-28.812,1, -2, 0, 2, 3, -6, 4, 2
1503525239793,+0.380,-0.273,+0.541,-0.699,-1.009,-0.000,-0.192,+2.688,+9.625,+8.312,2, -4, 1, -2, -2, -11, -3, 13
1503525239816,+0.380,-0.273,+0.540,-0.700,-1.039,-0.013,-0.206,-0.688,+11.312,+7.188,0, 1, -1, -4, 2, 12, 2, -4
1503525239830,+0.380,-0.273,+0.537,-0.702,-1.030,+0.000,-0.221,-2.625,+21.062,+3.125,6, 17, -9, 35, 9, 15, 3, -12
1503525239856,+0.381,-0.272,+0.534,-0.704,-1.022,+0.019,-0.212,-4.250,+26.250,+1.438,-1, -6, -1, 1, -2, -3, -1, 7
1503525239876,+0.382,-0.271,+0.531,-0.706,-0.965,+0.000,-0.225,-3.625,+21.938,+1.312,-5, 1, 7, 5, 7, 12, 2, -8
1503525239897,+0.383,-0.271,+0.528,-0.708,-0.953,-0.014,-0.226,-7.000,+20.312,+2.938,-6, -7, 5, -3, 4, 10, 2, -1
1503525239916,+0.385,-0.271,+0.526,-0.708,-0.958,-0.021,-0.239,-10.938,+15.062,+0.938,-2, -10, -9, -2, 4, 3, 3, -10
1503525239935,+0.386,-0.272,+0.524,-0.708,-0.962,-0.025,-0.230,-14.062,+8.125,-0.625,-2, 2, 0, -1, 11, 23, -3, -26
1503525239950,+0.388,-0.273,+0.523,-0.708,-1.002,-0.014,-0.255,-15.750,+6.750,-1.375,-2, -4, -2, -2, -6, -6, 0, -2
1503525239973,+0.390,-0.273,+0.520,-0.709,-1.031,+0.005,-0.320,-11.375,+13.875,-1.438,-1, 0, 1, 7, 12, 22, 5, 6
1503525239995,+0.392,-0.273,+0.516,-0.711,-0.989,-0.014,-0.344,-7.812,+23.938,+0.875,1, 2, -3, -4, -7, -16, -8, 1
1503525240011,+0.393,-0.272,+0.513,-0.713,-0.918,-0.028,-0.292,-8.062,+23.375,+3.500,-4, 3, -5, -4, -5, -10, -2, -4
1503525240040,+0.394,-0.272,+0.511,-0.714,-0.885,-0.029,-0.297,-5.375,+7.625,+1.812,-3, -2, -1, -2, -6, -7, -1, -15
1503525240059,+0.394,-0.272,+0.512,-0.713,-0.893,-0.039,-0.319,-3.125,-10.062,-0.438,-4, 5, -1, -2, -3, -19, 1, -33
1503525240072,+0.394,-0.273,+0.514,-0.712,-0.965,-0.028,-0.350,-0.875,-17.438,-0.438,-4, 1, 1, 4, 15, 13, 1, 6
1503525240092,+0.393,-0.273,+0.515,-0.711,-1.000,-0.012,-0.333,+3.062,-9.250,+2.250,5, 2, -1, -2, -9, -10, -1, 25
1503525240116,+0.392,-0.272,+0.515,-0.712,-0.958,-0.013,-0.298,+6.500,-2.188,+4.875,1, 1, 0, 3, 13, 4, -3, 0
1503525240129,+0.391,-0.272,+0.517,-0.712,-0.896,-0.022,-0.272,+8.062,-8.125,+2.812,1, -4, -1, 1, -8, -2, 5, -3
1503525240152,+0.389,-0.272,+0.520,-0.710,-0.888,-0.017,-0.271,+8.688,-26.000,+1.188,-3, -4, 0, -3, 0, 1, 0, -5
1503525240175,+0.387,-0.273,+0.525,-0.707,-0.985,-0.029,-0.263,+8.062,-32.875,-1.688,3, 1, -1, -1, 4, 9, 5, 15
1503525240197,+0.385,-0.273,+0.528,-0.706,-1.107,-0.018,-0.275,+10.688,-18.312,-1.625,-2, 0, 2, 0, -4, 2, 7, -3
1503525240212,+0.384,-0.271,+0.528,-0.708,-1.090,-0.005,-0.296,+10.938,+9.750,+1.438,-9, -3, 2, 14, -4, -11, 0, -9
1503525240234,+0.384,-0.269,+0.526,-0.710,-0.976,-0.052,-0.207,+5.562,+23.625,+3.875,-3, -5, -6, -15, 3, 6, 0, -1
1503525240257,+0.385,-0.267,+0.524,-0.711,-0.951,-0.062,-0.187,+3.375,+20.688,+1.188,3, -1, 2, 0, -1, -6, 1, 19
1503525240272,+0.385,-0.266,+0.524,-0.712,-0.971,-0.030,-0.254,+3.125,+9.688,-0.562,7, 0, 0, -1, -4, -5, 3, 31
1503525240294,+0.385,-0.266,+0.523,-0.713,-0.946,-0.016,-0.262,-1.562,+6.312,+2.062,0, 14, 4, 4, 0, -6, -2, -13
1503525240318,+0.385,-0.266,+0.522,-0.713,-0.948,-0.029,-0.250,-6.438,+7.562,+4.000,4, -9, -4, -6, -2, -5, 15, 73
1503525240332,+0.386,-0.267,+0.521,-0.713,-0.964,-0.022,-0.241,-8.625,+2.688,+3.625,-5, -1, 7, 18, 4, 6, -7, -41
1503525240354,+0.386,-0.268,+0.520,-0.713,-0.992,+0.005,-0.253,-9.062,+2.875,+1.688,-2, 0, -1, -7, -4, -6, -3, -9
1503525240369,+0.387,-0.269,+0.518,-0.714,-1.008,+0.022,-0.299,-9.250,+9.562,+2.688,0, -4, -1, -10, 5, 1, 0, -17
1503525240392,+0.388,-0.269,+0.515,-0.715,-0.979,+0.016,-0.287,-9.938,+17.500,+2.375,1, 0, 2, -1, 8, 4, -1, -6
1503525240414,+0.390,-0.270,+0.513,-0.716,-0.915,+0.005,-0.278,-10.625,+13.000,+0.312,1, -2, 1, 0, 12, 3, 1, 13
1503525240429,+0.391,-0.270,+0.512,-0.716,-0.907,+0.005,-0.294,-8.500,+3.125,-1.750,-3, -3, -1, -1, -7, -4, 2, -11
1503525240453,+0.392,-0.271,+0.511,-0.715,-0.979,+0.003,-0.320,-7.625,-0.625,-3.750,-3, -1, -4, -4, -4, -10, 4, 2
1503525240474,+0.393,-0.271,+0.510,-0.715,-1.021,+0.006,-0.331,-7.812,+7.500,-3.875,-5, -3, 0, -2, -12, -8, -5, -14
1503525240497,+0.395,-0.270,+0.507,-0.717,-0.979,+0.005,-0.322,-6.938,+21.188,-3.188,1, 1, -2, 2, 11, 15, -3, 3
1503525240512,+0.397,-0.269,+0.504,-0.719,-0.910,-0.009,-0.299,-5.688,+23.688,-2.312,3, 0, 1, -2, -9, -18, 0, -5
1503525240535,+0.398,-0.268,+0.502,-0.719,-0.904,-0.014,-0.294,-4.938,+14.875,-2.938,1, -1, -1, -2, -4, 1, 5, -1
1503525240559,+0.400,-0.267,+0.501,-0.719,-0.967,-0.006,-0.314,-5.500,+11.125,-7.375,-4, -2, -1, -1, 2, 20, 0, -5
1503525240572,+0.402,-0.266,+0.499,-0.720,-0.979,-0.004,-0.326,-5.312,+13.125,-8.500,1, 1, -3, -3, -11, -26, -7, 9
1503525240596,+0.404,-0.265,+0.498,-0.720,-0.937,+0.001,-0.333,-3.562,+13.250,-7.688,-8, -3, -2, 0, 1, -6, 9, 7
1503525240610,+0.406,-0.264,+0.497,-0.720,-0.912,-0.016,-0.327,-3.500,+6.688,-6.938,3, 2, 22, 3, 2, 7, 1, 2
1503525240632,+0.407,-0.263,+0.497,-0.719,-0.982,-0.019,-0.323,-3.750,+0.750,-10.438,-2, -5, -7, 2, -2, -9, -9, -9
1503525240655,+0.409,-0.262,+0.497,-0.719,-1.026,-0.007,-0.356,-1.312,+4.938,-12.812,2, 1, -3, -3, -7, -6, 9, 28
1503525240677,+0.411,-0.260,+0.495,-0.720,-1.039,+0.012,-0.364,+1.000,+18.812,-10.125,-5, 0, 1, -1, 1, 5, 4, -1
1503525240692,+0.413,-0.257,+0.493,-0.722,-0.991,-0.018,-0.368,+3.375,+27.125,-13.312,1, -2, -3, -1, 3, 13, 1, 0
1503525240714,+0.415,-0.253,+0.491,-0.723,-0.965,-0.034,-0.373,+4.312,+20.562,-14.562,-1, -1, -7, -7, -4, -7, -2, -3
1503525240737,+0.418,-0.251,+0.491,-0.722,-1.007,-0.033,-0.370,+2.938,+11.938,-17.625,6, -2, -2, -2, 10, 3, -1, -7
1503525240752,+0.420,-0.249,+0.492,-0.721,-1.057,+0.025,-0.350,+4.375,+6.250,-23.125,-4, -2, 1, 6, -5, -3, -5, -20
1503525240774,+0.421,-0.246,+0.492,-0.721,-1.076,+0.068,-0.345,+12.812,+9.500,-24.500,-2, -2, -2, -3, -1, -7, -1, -3
1503525243393,+0.480,-0.380,+0.470,-0.636,-0.973,+0.021,-0.234,-4.125,+6.500,+4.688,-2, -2, -2, -6, -12, -11, -4, -10
1503525243416,+0.481,-0.379,+0.468,-0.637,-0.976,+0.030,-0.225,-5.562,+13.312,+6.062,-2, -3, -4, -12, -7, -8, -22, -5
1503525243436,+0.482,-0.379,+0.466,-0.638,-0.960,+0.034,-0.238,-4.188,+15.188,+3.812,-4, -1, -1, -2, -7, 1, 5, -1
1503525243453,+0.482,-0.379,+0.464,-0.639,-0.938,+0.034,-0.238,-5.375,+7.250,+6.000,0, -3, 1, -1, -18, -5, 4, -5
1503525243476,+0.482,-0.380,+0.464,-0.639,-0.964,+0.036,-0.224,-8.312,-1.625,+5.125,-2, -2, -1, 1, -11, -18, 1, 1
1503525243497,+0.482,-0.382,+0.464,-0.637,-0.953,+0.035,-0.238,-9.125,-11.688,+1.438,4, 1, 1, 2, 0, -5, -3, -4
1503525243516,+0.482,-0.383,+0.464,-0.636,-0.973,+0.060,-0.237,-10.000,-7.500,-0.875,-1, 1, 1, 4, 2, 1, -3, -7
1503525243535,+0.483,-0.384,+0.464,-0.636,-1.011,+0.079,-0.260,-7.062,-2.438,-0.438,-4, -1, -2, 4, 4, 4, 5, -3
1503525243557,+0.484,-0.385,+0.463,-0.636,-0.997,+0.055,-0.271,-5.500,+1.688,-1.000,3, -3, 0, 1, -1, 1, -4, 2
1503525243577,+0.485,-0.384,+0.462,-0.636,-0.972,+0.045,-0.227,-6.812,+7.625,-2.938,1, 0, -2, -2, 1, 3, -2, -6
1503525243595,+0.486,-0.384,+0.461,-0.636,-0.977,+0.045,-0.248,-3.750,+7.938,-3.312,4, -3, 1, 3, 11, 7, 3, -2
1503525243617,+0.487,-0.383,+0.460,-0.636,-0.963,+0.044,-0.272,-0.562,+5.875,-2.125,-9, -7, -7, -4, -2, -3, 4, -6
1503525243633,+0.487,-0.382,+0.460,-0.636,-0.947,+0.033,-0.253,-1.500,+3.250,+0.500,5, -2, -2, -4, 0, 5, 7, 1
1503525243655,+0.487,-0.382,+0.459,-0.637,-0.964,+0.040,-0.233,-2.312,+3.188,+3.438,-7, -4, -3, -7, -5, -10, -8, 16
1503525243677,+0.487,-0.382,+0.459,-0.637,-0.966,+0.037,-0.241,+1.500,+1.125,+5.500,5, 1, 0, 0, 4, 15, -3, 1
1503525243712,+0.486,-0.382,+0.459,-0.638,-0.957,+0.027,-0.258,+2.938,-2.625,+7.812,-3, -2, -7, -3, -12, -1, -1, -1
1503525243716,+0.484,-0.383,+0.459,-0.639,-0.954,+0.035,-0.270,+2.625,-4.188,+9.438,-1, -2, -2, -4, -5, -20, -6, -3
1503525243737,+0.483,-0.383,+0.459,-0.640,-0.977,+0.058,-0.266,+2.938,-2.312,+10.125,2, 0, -2, -3, 0, 2, -3, -12
1503525243753,+0.481,-0.383,+0.459,-0.641,-1.004,+0.049,-0.246,+4.688,+1.312,+10.562,-1, -3, -4, -2, -2, -18, -1, 8
1503525243779,+0.480,-0.383,+0.459,-0.642,-1.001,+0.043,-0.234,+4.000,+2.938,+8.125,7, 3, 1, -1, -3, -13, -8, 5
1503525243796,+0.480,-0.382,+0.458,-0.643,-0.992,+0.049,-0.252,+3.938,+5.000,+4.625,3, 3, 7, 6, 13, 14, 6, 6
1503525243813,+0.480,-0.381,+0.458,-0.644,-0.985,+0.041,-0.251,+3.875,+8.250,+0.062,-5, -6, -4, -6, -4, 2, 2, -4
1503525243835,+0.481,-0.380,+0.458,-0.644,-0.989,+0.039,-0.249,+1.500,+7.250,-1.375,-1, 1, -3, -2, -2, 1, -5, 0
1503525243857,+0.482,-0.379,+0.457,-0.644,-0.988,+0.041,-0.219,-2.438,+7.062,-2.375,1, -1, -1, -1, 4, 5, 9, 0
1503525243877,+0.482,-0.379,+0.457,-0.644,-0.982,+0.042,-0.217,-1.625,+8.938,-2.062,0, 0, 0, -1, -1, 7, 3, 1
1503525243901,+0.483,-0.378,+0.456,-0.645,-0.985,+0.041,-0.242,-3.062,+7.938,-0.750,-2, -1, -1, -3, -3, 2, 2, -4
1503525243918,+0.485,-0.378,+0.455,-0.645,-0.994,+0.051,-0.251,-5.250,+10.250,-2.250,-4, 0, 0, 1, 1, -6, -1, 8
1503525243933,+0.486,-0.378,+0.454,-0.644,-0.977,+0.042,-0.235,-8.500,+6.562,-3.438,4, 1, 3, -1, -4, -2, -1, 1
1503525243955,+0.487,-0.378,+0.453,-0.643,-0.968,+0.063,-0.254,-9.438,+2.875,-3.812,1, 0, -3, -5, 0, 9, -1, -4
1503525243978,+0.488,-0.378,+0.453,-0.643,-0.968,+0.062,-0.297,-6.438,+0.750,-4.625,2, 0, -1, 0, -2, -4, 0, 0
1503525243993,+0.490,-0.378,+0.453,-0.642,-0.973,+0.060,-0.293,-6.188,+0.438,-6.000,-2, -2, 0, 3, -1, -4, 0, -5
1503525244016,+0.491,-0.378,+0.452,-0.642,-0.982,+0.057,-0.299,-4.375,+4.688,-4.938,1, 0, -3, 0, -5, -2, -4, -9
1503525244037,+0.492,-0.377,+0.451,-0.642,-0.971,+0.042,-0.290,-3.250,+6.312,-2.875,-1, -3, -2, -3, -4, -8, -1, -4
1503525244053,+0.493,-0.376,+0.450,-0.643,-0.968,+0.046,-0.294,-1.438,+9.125,-2.312,5, 3, 2, -1, -3, -6, -3, 4
1503525244078,+0.494,-0.375,+0.449,-0.644,-0.962,+0.043,-0.298,+0.375,+10.125,-0.375,-1, 1, 0, 1, 2, 8, 4, 5
1503525244097,+0.494,-0.374,+0.448,-0.645,-0.958,+0.037,-0.273,-0.625,+9.750,+2.312,1, -4, 1, 1, -1, 0, 2, 0
1503525244113,+0.494,-0.373,+0.447,-0.645,-0.941,+0.047,-0.281,-0.188,+7.250,+1.625,2, 1, -2, 2, 3, -16, 10, 15
1503525244135,+0.494,-0.373,+0.447,-0.646,-0.937,+0.042,-0.282,+1.125,+3.438,+2.312,-5, -3, -4, -3, -4, 0, -4, 5
1503525244157,+0.494,-0.373,+0.447,-0.646,-0.958,+0.046,-0.294,+0.750,-2.062,+3.188,-4, -4, -5, -6, -3, -3, -3, 2
1503525244173,+0.494,-0.372,+0.447,-0.647,-0.974,+0.049,-0.311,+2.750,+2.938,+1.312,0, 0, -1, -1, 2, 8, 6, 19
1503525244195,+0.494,-0.371,+0.446,-0.648,-0.986,+0.057,-0.291,+3.562,+7.625,+2.062,-2, -3, 2, 2, 11, 23, 0, -22
1503525244217,+0.494,-0.370,+0.445,-0.649,-0.960,+0.048,-0.298,+4.812,+9.062,+1.375,0, -1, -2, -2, -6, -8, 4, 6
1503525244233,+0.494,-0.368,+0.445,-0.650,-0.953,+0.059,-0.321,+7.375,+10.812,-2.250,1, -1, -6, -6, -3, 3, 0, -5
1503525244255,+0.495,-0.365,+0.444,-0.652,-0.967,+0.060,-0.331,+8.000,+11.250,-3.438,0, -1, 0, 0, -1, -11, 4, 2
1503525244279,+0.494,-0.363,+0.444,-0.653,-0.979,+0.061,-0.323,+11.812,+10.188,-1.438,-1, 0, -1, 0, 8, 15, -6, -23
1503525244293,+0.494,-0.360,+0.445,-0.655,-1.000,+0.041,-0.325,+16.250,+7.000,-1.875,-3, -1, 1, 2, 7, 2, -10, -5
1503525244322,+0.493,-0.357,+0.446,-0.656,-0.988,+0.042,-0.306,+16.812,+8.562,-5.000,-4, -1, 1, 3, -7, -18, -8, 0
1503525244337,+0.493,-0.354,+0.446,-0.658,-0.999,+0.087,-0.342,+18.938,+10.562,-4.438,1, 1, 1, 3, 16, 7, 6, 6
1503525244359,+0.493,-0.349,+0.447,-0.660,-1.007,+0.083,-0.385,+27.812,+16.938,-8.688,0, -17, -3, -5, -9, -2, 8, 26
1503525244375,+0.493,-0.343,+0.448,-0.663,-0.988,+0.054,-0.388,+32.062,+15.125,-14.375,-4, -2, -1, -2, -7, -7, -1, -15
1503525244397,+0.492,-0.337,+0.451,-0.664,-0.976,+0.056,-0.371,+36.062,+7.188,-18.438,-2, -1, -3, 0, -1, 2, -1, 0
1503525244419,+0.491,-0.330,+0.455,-0.665,-1.017,+0.073,-0.399,+45.812,+1.812,-24.500,0, 4, -2, 1, 10, 13, 6, -2
1503525244435,+0.490,-0.321,+0.460,-0.668,-1.077,+0.070,-0.446,+57.438,+9.188,-27.250,0, 4, 1, -2, -4, -7, -2, 7
1503525244458,+0.490,-0.309,+0.463,-0.671,-1.066,-0.000,-0.425,+63.812,+26.312,-30.562,-3, 0, -2, -6, -10, -3, 0, -16
1503525244481,+0.490,-0.296,+0.468,-0.673,-0.964,-0.022,-0.382,+68.688,+23.000,-36.000,4, 17, 1, -1, -4, 4, -4, -4
1503525244495,+0.488,-0.283,+0.475,-0.675,-0.939,-0.045,-0.412,+80.875,+9.625,-40.250,-2, -6, 2, 3, 6, 4, -1, 1
1503525244517,+0.487,-0.269,+0.483,-0.676,-1.007,-0.087,-0.423,+85.188,+4.875,-44.875,1, 0, -1, 6, 1, 2, 2, 4
1503525244539,+0.485,-0.253,+0.491,-0.678,-1.041,-0.113,-0.388,+89.688,+16.375,-48.062,-3, -3, -3, -5, -1, 1, -5, -5
1503525244556,+0.483,-0.237,+0.498,-0.680,-0.970,-0.165,-0.352,+94.500,+22.938,-45.438,-2, 2, 4, 0, -1, -4, -4, 22
1503525244578,+0.481,-0.219,+0.506,-0.681,-0.884,-0.189,-0.371,+99.562,+18.875,-47.375,-6, -6, -2, 0, 2, 35, 7, 35
1503525244599,+0.478,-0.202,+0.514,-0.683,-0.901,-0.220,-0.351,+100.375,+16.188,-46.250,11, 1, -1, -1, 2, -3, -4, 4
1503525246463,+0.489,-0.337,+0.504,-0.627,-0.979,-0.073,-0.211,-4.562,+6.125,+8.625,-20, 10, 3, -5, -3, -5, -3, 4
1503525246474,+0.489,-0.338,+0.502,-0.628,-0.949,-0.075,-0.258,-3.938,+4.688,+8.000,-1, -4, -7, -3, -12, -30, -1, 3
1503525246498,+0.490,-0.338,+0.501,-0.629,-0.979,-0.086,-0.240,-6.625,+6.938,+6.375,9, 4, -20, -2, -5, -5, -1, -2
1503525246519,+0.490,-0.339,+0.499,-0.629,-0.980,-0.078,-0.208,-8.688,+7.438,+5.062,3, 6, 4, -6, 2, 2, 4, 1
1503525246536,+0.491,-0.339,+0.497,-0.630,-0.951,-0.066,-0.220,-8.875,+8.188,+7.375,-2, -3, -4, -8, 4, 18, 4, -1
1503525246566,+0.491,-0.340,+0.496,-0.630,-0.968,-0.051,-0.247,-9.188,+4.250,+6.688,0, -6, 3, 20, 0, 0, 0, -3
1503525246580,+0.492,-0.340,+0.494,-0.631,-0.977,-0.053,-0.261,-7.375,+6.312,+3.000,-6, -12, -12, -4, -4, -9, -3, -5
1503525246596,+0.493,-0.341,+0.493,-0.631,-0.992,-0.077,-0.241,-10.500,+6.125,+2.812,-7, -2, -6, -6, -1, 1, 0, -7
1503525246617,+0.494,-0.341,+0.491,-0.631,-0.983,-0.052,-0.249,-9.812,+8.562,+2.312,-4, 11, 14, 0, -1, -1, -3, 2
1503525246639,+0.494,-0.342,+0.489,-0.632,-0.965,-0.038,-0.274,-7.125,+8.688,+5.250,3, -11, -7, -3, -3, -3, -1, -3
1503525246655,+0.495,-0.341,+0.487,-0.633,-0.961,-0.067,-0.261,-6.812,+11.125,+5.250,-2, 0, -5, -4, 2, -1, 0, 3
1503525246677,+0.496,-0.342,+0.485,-0.634,-0.970,-0.083,-0.252,-8.875,+9.000,+5.562,11, -32, -4, -3, -1, 1, -3, -1
1503525246700,+0.496,-0.342,+0.484,-0.635,-0.973,-0.053,-0.255,-7.625,+9.438,+6.375,-11, 0, 0, -1, -4, -4, -3, -23
1503525246714,+0.497,-0.342,+0.481,-0.636,-0.975,-0.038,-0.281,-5.500,+12.250,+8.875,-6, -7, 0, -3, -4, -15, -1, 7
1503525246736,+0.497,-0.342,+0.478,-0.638,-0.975,-0.037,-0.293,-5.875,+15.312,+11.250,5, 5, 14, 1, 1, 2, -1, 18
1503525246759,+0.498,-0.341,+0.475,-0.640,-1.000,-0.060,-0.285,-4.875,+20.875,+9.312,-18, -7, -6, -1, 3, 0, -3, 3
1503525246775,+0.499,-0.341,+0.473,-0.641,-1.007,-0.071,-0.230,-11.062,+21.125,+5.125,7, -3, -6, -7, -6, -3, 0, -3
1503525246797,+0.500,-0.342,+0.471,-0.641,-0.959,-0.053,-0.238,-13.812,+9.625,+5.188,2, -11, 3, 0, 1, -3, 2, -8
1503525246819,+0.501,-0.342,+0.468,-0.642,-0.954,-0.013,-0.263,-9.625,+15.250,+5.438,-1, -2, 4, 6, 24, 49, 6, -10
1503525246835,+0.501,-0.343,+0.465,-0.644,-0.927,+0.021,-0.315,-9.500,+11.438,+11.812,1, -2, -7, -4, -16, -28, 0, 3
1503525246856,+0.501,-0.345,+0.462,-0.646,-0.939,+0.003,-0.311,-12.562,+10.500,+13.375,-5, -10, -3, -3, -7, -10, -2, 8
1503525246879,+0.501,-0.346,+0.461,-0.646,-0.965,-0.027,-0.294,-10.938,+1.812,+7.375,-5, 2, 4, 3, -2, -4, 3, 2
1503525246897,+0.502,-0.347,+0.459,-0.645,-0.989,-0.025,-0.281,-11.250,+3.938,+5.938,0, 12, -1, 0, -1, 3, -2, -2
1503525246916,+0.502,-0.348,+0.457,-0.646,-0.976,+0.006,-0.315,-11.812,+6.188,+6.438,2, 8, 2, 1, 5, 18, 3, -7
1503525246940,+0.503,-0.349,+0.454,-0.647,-0.961,+0.017,-0.337,-10.938,+10.812,+7.188,-1, 8, 3, -2, -3, -7, -6, -6
1503525246954,+0.504,-0.349,+0.452,-0.648,-0.971,+0.003,-0.327,-9.500,+14.312,+7.312,16, -2, 0, 0, 3, 2, -2, 7
1503525246976,+0.505,-0.349,+0.449,-0.649,-0.977,-0.009,-0.310,-9.500,+13.562,+4.750,-1, -4, -2, 3, 4, 15, 1, -15
1503525247000,+0.506,-0.349,+0.447,-0.649,-0.956,-0.016,-0.311,-9.938,+13.625,+2.688,1, 4, -5, 0, 2, -3, 1, -1
1503525247015,+0.508,-0.349,+0.445,-0.650,-0.948,-0.013,-0.322,-11.812,+10.812,+0.812,5, 6, 12, 6, 0, -11, -2, -6
1503525247037,+0.509,-0.350,+0.443,-0.650,-0.940,+0.024,-0.352,-10.312,+5.875,+0.938,-10, -10, -2, 0, 1, 0, 0, -7
1503525247059,+0.509,-0.350,+0.442,-0.650,-0.939,+0.021,-0.348,-7.750,+3.250,+2.938,-5, 7, 5, 1, 1, 3, 1, 4
1503525247077,+0.510,-0.350,+0.441,-0.650,-0.955,-0.013,-0.336,-5.250,+3.562,+3.125,-5, -6, -3, -2, -4, -16, -7, -5
1503525247101,+0.510,-0.351,+0.440,-0.650,-0.962,-0.027,-0.312,-5.812,+5.500,+3.125,-2, 0, 1, 3, -5, -7, -2, 0
1503525247119,+0.511,-0.351,+0.439,-0.650,-0.935,-0.004,-0.331,-7.375,+4.812,+4.188,-3, -9, -5, -3, 0, 2, -2, -1
1503525247135,+0.511,-0.351,+0.438,-0.651,-0.927,+0.034,-0.355,-4.438,+5.500,+3.312,-2, 12, 5, 2, -2, -2, -1, 1
1503525247156,+0.511,-0.351,+0.437,-0.652,-0.931,+0.036,-0.382,-1.625,-0.188,+5.188,-4, 0, -6, -5, 2, 4, -4, -2
1503525247179,+0.511,-0.351,+0.437,-0.652,-0.979,+0.001,-0.364,-0.438,-0.062,+3.375,-5, -5, 2, 0, 1, 1, -1, -3
1503525247195,+0.511,-0.350,+0.437,-0.652,-0.984,-0.005,-0.340,+0.875,+4.000,-1.438,0, -5, 2, 1, -2, -1, -3, -1
1503525247216,+0.511,-0.350,+0.436,-0.653,-0.949,+0.031,-0.364,+3.250,+3.625,+0.750,2, 0, 1, -2, -5, -3, -2, 0
1503525247239,+0.510,-0.348,+0.436,-0.654,-0.958,+0.045,-0.394,+9.250,+3.188,+1.188,-2, -2, 3, -3, -11, -20, -6, 3
1503525247255,+0.509,-0.346,+0.437,-0.655,-0.978,+0.027,-0.396,+13.812,+2.188,+0.312,5, 2, 0, -3, 4, 13, 3, 1
1503525247277,+0.509,-0.344,+0.438,-0.656,-1.005,+0.022,-0.391,+16.938,+2.500,-4.688,3, -4, 4, -5, 5, 1, -2, -2
1503525247302,+0.509,-0.340,+0.441,-0.657,-1.000,+0.030,-0.399,+21.812,+0.875,-11.750,1, -1, -2, 0, -6, -13, 6, 6
1503525247321,+0.508,-0.336,+0.444,-0.658,-0.991,+0.036,-0.403,+27.812,-1.500,-13.688,-1, -13, -9, -11, -17, -31, -9, -13
1503525247337,+0.507,-0.331,+0.447,-0.659,-1.011,+0.028,-0.419,+35.188,+0.625,-16.500,-3, -3, 0, 4, -3, -4, -5, 4
1503525248859,+0.378,-0.243,+0.561,-0.695,-0.985,-0.076,-0.214,+3.062,+11.438,+10.875,-11, -1, 2, 3, -7, -3, 2, 2
1503525248886,+0.375,-0.243,+0.560,-0.698,-0.988,-0.082,-0.216,+4.562,+12.750,+18.938,7, 0, -1, -3, -2, 23, 9, 13
1503525248898,+0.373,-0.244,+0.557,-0.701,-1.024,-0.080,-0.203,+2.250,+16.188,+20.312,0, 0, 3, 2, 2, 11, 0, -6
1503525248921,+0.372,-0.244,+0.554,-0.704,-1.039,-0.061,-0.217,+2.125,+20.438,+18.625,1, 0, -3, -5, -4, -6, -30, -3
1503525248941,+0.370,-0.244,+0.551,-0.707,-1.019,-0.050,-0.228,+1.000,+25.000,+19.250,-11, -12, 24, -2, -6, -8, 4, -4
1503525248957,+0.369,-0.244,+0.547,-0.710,-1.000,-0.071,-0.229,-1.688,+25.750,+17.500,-7, 2, 1, -1, -6, -16, -12, -7
1503525248980,+0.369,-0.245,+0.545,-0.712,-0.994,-0.069,-0.243,-6.438,+15.188,+14.062,-1, 7, 1, -3, -10, -8, -1, -1
1503525249001,+0.370,-0.245,+0.542,-0.714,-1.011,-0.070,-0.240,-10.875,+14.875,+6.250,0, -7, -1, -1, -2, -2, 11, 33
1503525249018,+0.372,-0.244,+0.539,-0.716,-1.015,-0.030,-0.261,-6.188,+29.688,-3.312,-2, -4, 3, 2, 7, 22, 4, 0
1503525249040,+0.373,-0.244,+0.534,-0.719,-0.984,-0.021,-0.256,-9.625,+30.750,+5.938,-6, -7, 2, -2, -4, -26, -6, -7
1503525249061,+0.375,-0.243,+0.530,-0.721,-0.921,-0.026,-0.287,-8.812,+30.125,+0.562,-2, 4, 0, 1, 10, 4, -1, -12
1503525249080,+0.377,-0.243,+0.527,-0.722,-0.866,-0.037,-0.282,-11.000,+11.875,-4.125,-2, -11, 0, 0, 6, 12, -3, -21
1503525249099,+0.379,-0.244,+0.526,-0.721,-0.925,-0.025,-0.278,-14.312,+1.812,-3.625,-7, -5, -2, -4, -4, 13, -3, -16
1503525249121,+0.381,-0.246,+0.526,-0.720,-0.992,-0.026,-0.291,-15.688,-2.562,-7.000,4, 3, -1, 0, -6, -9, -23, -6
1503525249139,+0.383,-0.247,+0.525,-0.719,-0.998,-0.021,-0.304,-13.750,+0.000,-6.750,2, 5, 5, 3, 2, 16, 8, 8
1503525249160,+0.385,-0.247,+0.523,-0.719,-0.959,-0.030,-0.323,-12.000,+10.438,-6.938,1, 16, 2, -2, -1, 4, -6, -1
1503525249182,+0.387,-0.247,+0.521,-0.719,-0.935,-0.047,-0.319,-13.312,+13.500,-5.438,1, -9, -3, 3, -4, -4, 6, -11
1503525249197,+0.390,-0.247,+0.519,-0.719,-0.938,-0.051,-0.291,-13.875,+10.562,-6.062,-3, -1, -2, -1, 0, 2, -5, -15
1503525249220,+0.392,-0.247,+0.518,-0.719,-0.937,-0.043,-0.301,-12.562,+5.000,-9.062,-1, -3, -1, 1, 10, 20, 19, 3
1503525249241,+0.394,-0.248,+0.518,-0.718,-0.927,-0.045,-0.323,-12.062,-1.062,-7.625,-3, -1, -2, -2, -5, 0, 0, 9
1503525249257,+0.396,-0.248,+0.517,-0.717,-0.943,-0.051,-0.327,-11.375,-0.688,-6.125,-2, -4, -1, -3, -2, -6, -1, 37
1503525249281,+0.398,-0.249,+0.516,-0.716,-0.958,-0.041,-0.323,-10.438,+0.688,-6.812,-2, -1, -2, -1, 3, -2, -3, -3
1503525249301,+0.399,-0.249,+0.516,-0.716,-0.961,-0.051,-0.308,-9.625,+0.938,-5.062,0, -1, 0, -1, -2, -5, 6, -6
1503525249319,+0.401,-0.250,+0.515,-0.715,-0.927,-0.066,-0.326,-8.000,+0.875,-4.062,0, -5, 1, 2, 22, 27, 1, -9
1503525249340,+0.402,-0.250,+0.515,-0.715,-0.944,-0.061,-0.303,-9.500,+0.125,-4.750,1, 6, 3, -1, -8, -7, 0, 13
1503525249361,+0.403,-0.251,+0.515,-0.714,-0.956,-0.058,-0.316,-9.250,-4.000,-3.625,1, -4, -5, -5, -7, -5, -4, -3
1503525249377,+0.404,-0.251,+0.515,-0.713,-0.961,-0.058,-0.331,-7.500,-0.750,-1.562,-3, 0, -1, -1, 0, -5, -2, 11
1503525249399,+0.405,-0.252,+0.514,-0.713,-0.961,-0.062,-0.317,-7.000,+2.688,-1.688,1, 5, -4, -4, -8, -11, -20, 0
1503525249423,+0.406,-0.252,+0.514,-0.713,-0.969,-0.062,-0.298,-6.938,+0.625,-1.812,-3, -5, 1, 2, -2, -2, 5, -8
1503525249444,+0.407,-0.252,+0.513,-0.712,-0.960,-0.058,-0.329,-4.750,+1.000,-1.250,-5, -12, 0, 0, -2, -2, 7, -7
1503525249460,+0.407,-0.252,+0.512,-0.713,-0.972,-0.063,-0.337,-4.062,+5.125,+0.062,-2, -7, -3, 0, -4, -6, -16, -7
1503525249482,+0.408,-0.252,+0.511,-0.713,-0.974,-0.077,-0.305,-5.562,+8.250,+1.000,1, 3, -3, -4, -3, -3, 13, -8
1503525249497,+0.409,-0.252,+0.510,-0.714,-0.962,-0.060,-0.299,-4.625,+6.062,+0.875,-1, 1, -2, -1, -11, -34, -14, -17
1503525249521,+0.409,-0.252,+0.510,-0.714,-0.946,-0.061,-0.327,-2.438,+3.500,-0.375,1, 5, 2, 0, 2, 12, 14, -5
1503525249542,+0.410,-0.252,+0.509,-0.714,-0.963,-0.075,-0.328,-2.375,+2.312,-0.750,1, 2, 0, -3, -11, -7, 1, 3
1503525249559,+0.410,-0.252,+0.509,-0.714,-0.981,-0.053,-0.318,-1.375,+0.438,-1.500,0, 1, -1, -2, 5, 4, -1, -3
1503525249580,+0.410,-0.251,+0.509,-0.714,-0.988,-0.038,-0.335,+0.812,+2.875,-1.500,-8, -5, -3, -2, -3, -6, -24, -29
1503525249602,+0.410,-0.250,+0.508,-0.715,-1.001,-0.062,-0.345,+3.188,+9.438,-2.750,0, -4, 0, 0, 1, -12, -13, -17
1503525249618,+0.411,-0.248,+0.507,-0.715,-1.016,-0.073,-0.346,+2.438,+13.000,-4.875,4, -4, -2, 0, 1, -7, 7, 14
1503525249646,+0.413,-0.245,+0.506,-0.717,-1.017,-0.055,-0.381,+7.188,+16.625,-9.500,2, 21, 5, 1, 3, 4, 8, 0
1503525249662,+0.414,-0.241,+0.505,-0.718,-0.993,-0.073,-0.376,+10.812,+21.188,-13.625,-4, -7, -1, 1, 1, -2, -1, -4
1503525249677,+0.416,-0.236,+0.504,-0.719,-0.979,-0.090,-0.382,+13.062,+19.438,-16.188,-3, -8, -3, -2, -3, -2, -9, -20
1503525249700,+0.418,-0.231,+0.504,-0.720,-0.967,-0.095,-0.385,+16.125,+14.125,-21.000,4, -2, 0, 7, 12, 21, 2, 16
1503525252564,+0.408,-0.245,+0.539,-0.694,-0.919,-0.117,-0.303,-8.312,+5.750,+0.062,0, -1, 1, -2, -9, -46, -8, 9
1503525252580,+0.409,-0.245,+0.538,-0.695,-0.918,-0.125,-0.310,-4.000,+4.500,+5.125,-5, -3, 0, 1, 8, 14, -7, -35
1503525252604,+0.408,-0.246,+0.537,-0.696,-0.953,-0.134,-0.279,-4.438,+1.938,+9.438,0, -1, -3, -1, -3, -5, -6, -9
1503525252624,+0.408,-0.246,+0.536,-0.697,-0.964,-0.135,-0.290,-2.688,+3.625,+12.500,-2, 0, -1, 0, 2, 11, 2, -8
1503525252641,+0.406,-0.247,+0.535,-0.698,-0.978,-0.111,-0.251,-4.562,+7.062,+15.062,1, -1, 0, -3, -5, -3, -5, -4
1503525252662,+0.406,-0.248,+0.533,-0.700,-0.953,-0.080,-0.233,-4.188,+10.438,+13.062,-5, 0, -1, 0, 0, -8, -9, -8
1503525252683,+0.404,-0.249,+0.531,-0.702,-0.934,-0.067,-0.273,+1.000,+11.688,+15.750,-3, -3, -3, -4, -11, -12, 4, -1
1503525252700,+0.402,-0.250,+0.528,-0.705,-0.942,-0.053,-0.260,-3.062,+13.625,+19.312,-6, 6, -4, -5, -3, 6, 2, -16
1503525252721,+0.403,-0.251,+0.526,-0.706,-0.980,-0.060,-0.245,-7.125,+13.562,+8.000,5, -7, -1, 2, 3, 10, 6, 18
1503525252744,+0.403,-0.252,+0.526,-0.706,-0.993,-0.049,-0.229,-9.938,+4.375,+0.938,-3, -3, 2, 1, 0, 1, 0, -3
1503525252759,+0.404,-0.253,+0.525,-0.705,-0.996,-0.031,-0.261,-10.812,+1.688,-0.375,-2, 0, 1, -1, -6, -4, -15, -16
1503525252781,+0.405,-0.254,+0.523,-0.705,-0.967,-0.015,-0.302,-9.625,+4.812,-1.750,10, 5, 4, 1, -1, -16, 8, 9
1503525252807,+0.406,-0.255,+0.522,-0.706,-0.961,-0.052,-0.283,-10.750,+7.062,+2.062,-2, -4, -4, -1, 2, 18, 6, 8
1503525252819,+0.407,-0.256,+0.520,-0.706,-0.999,-0.076,-0.263,-13.125,+10.250,+1.625,-4, -2, -2, -6, -14, -26, -3, -8
1503525252841,+0.409,-0.256,+0.518,-0.706,-1.005,-0.054,-0.313,-11.750,+12.062,-0.562,-8, -4, 0, 1, 16, 2, -5, -6
1503525252863,+0.410,-0.257,+0.515,-0.707,-0.975,-0.063,-0.318,-12.000,+15.000,+2.438,-3, -2, -1, -1, -1, 2, -2, -6
1503525252879,+0.412,-0.257,+0.512,-0.709,-0.937,-0.065,-0.333,-11.062,+15.625,+2.750,2, 0, 1, 1, -3, 6, -9, -4
1503525252901,+0.413,-0.257,+0.510,-0.709,-0.949,-0.072,-0.313,-10.125,+13.125,+1.375,2, 0, -3, 1, 7, -16, -1, -2
1503525252924,+0.414,-0.257,+0.509,-0.710,-0.935,-0.071,-0.329,-8.750,+4.000,+1.438,-5, -3, -3, -2, -6, 34, -16, -10
1503525252940,+0.415,-0.258,+0.508,-0.709,-0.941,-0.069,-0.347,-7.000,-0.250,+1.750,2, -2, -1, -1, -3, -2, 0, 18
1503525252961,+0.415,-0.258,+0.508,-0.709,-0.966,-0.067,-0.328,-6.562,-0.250,+0.562,-3, 0, 2, 8, 30, 39, 23, 6
1503525252984,+0.416,-0.259,+0.508,-0.709,-0.961,-0.057,-0.318,-4.688,-1.188,+0.875,-2, 4, -1, -4, -11, -8, -7, -18
1503525253001,+0.416,-0.259,+0.508,-0.709,-0.949,-0.076,-0.332,-2.938,-0.625,+1.750,4, -2, 0, -4, -11, -20, 4, -2
1503525253021,+0.416,-0.259,+0.507,-0.709,-0.957,-0.082,-0.327,-3.125,+3.438,+0.688,-1, 0, -1, -1, -2, 0, -3, -1
1503525253044,+0.417,-0.259,+0.507,-0.709,-0.939,-0.069,-0.297,-4.312,+2.938,+0.688,-1, 8, -4, -5, -12, -27, -7, -12
1503525253059,+0.417,-0.259,+0.506,-0.709,-0.933,-0.061,-0.323,-3.438,+1.250,-1.125,-1, -5, -1, -1, 3, -23, 0, -5
1503525253082,+0.418,-0.258,+0.506,-0.709,-0.958,-0.057,-0.349,-1.688,+1.562,+0.500,0, 2, -1, 1, 6, 10, -6, 17
1503525253104,+0.418,-0.258,+0.505,-0.710,-0.965,-0.061,-0.347,-1.875,+6.125,+1.625,-4, -16, 1, 1, 2, 0, 3, 3
1503525253119,+0.418,-0.258,+0.504,-0.711,-0.954,-0.048,-0.310,-3.562,+8.438,+2.188,0, -3, -9, -20, -5, -6, -4, -19
1503525253142,+0.418,-0.258,+0.503,-0.711,-0.901,-0.057,-0.313,-2.438,+2.500,+2.312,-4, 4, 7, 8, -1, -3, -2, -26
1503525253164,+0.418,-0.258,+0.503,-0.711,-0.930,-0.057,-0.330,-0.625,-0.875,+2.625,1, 0, -4, 2, 3, 8, 8, 4
1503525253180,+0.418,-0.258,+0.503,-0.711,-0.972,-0.051,-0.341,-1.375,+1.000,+2.688,5, 11, 39, 7, -2, -4, 3, 7
1503525253202,+0.418,-0.258,+0.502,-0.711,-0.976,-0.049,-0.320,-3.062,+4.188,+1.125,-2, -11, -11, 1, 3, -1, -11, 5
1503525253223,+0.418,-0.259,+0.501,-0.712,-0.940,-0.050,-0.316,-4.062,+4.062,+2.188,-2, 0, -8, -3, -2, -5, 3, 2
1503525253242,+0.419,-0.259,+0.501,-0.712,-0.933,-0.045,-0.320,-4.312,+3.750,+0.438,2, 2, -2, -1, -5, -4, 12, 37
1503525253262,+0.419,-0.259,+0.500,-0.712,-0.953,-0.038,-0.327,-5.125,+1.875,-0.812,-11, -2, 5, 2, 8, 60, 4, 7
1503525253285,+0.420,-0.259,+0.499,-0.712,-0.972,-0.046,-0.334,-5.875,+5.812,+0.500,-2, -3, -1, -3, -5, -20, 8, 7
1503525253300,+0.421,-0.259,+0.497,-0.713,-0.961,-0.037,-0.343,-5.062,+11.250,+1.062,0, -2, 0, 1, -2, 11, 5, -4
1503525253322,+0.421,-0.259,+0.496,-0.714,-0.924,-0.027,-0.345,-4.000,+10.188,+4.375,-6, -5, -4, -2, -2, 4, -6, -38
1503525253344,+0.421,-0.259,+0.494,-0.715,-0.932,-0.037,-0.312,-5.000,+8.250,+4.438,1, -2, 1, 2, -3, -9, -12, 0
1503525253360,+0.422,-0.260,+0.494,-0.714,-0.959,-0.049,-0.314,-5.188,+1.188,+0.438,1, -3, 1, -2, -2, 4, 5, 38
1503525253382,+0.422,-0.260,+0.494,-0.714,-0.951,-0.045,-0.344,-5.188,-2.562,-0.938,0, 0, 1, 4, 23, 65, 9, 34
1503525253404,+0.422,-0.261,+0.494,-0.714,-0.958,-0.034,-0.360,-4.938,-0.500,+1.375,-1, -2, 2, 1, -3, 15, 1, 4
1503525253420,+0.422,-0.261,+0.493,-0.715,-0.983,-0.044,-0.354,-2.938,+5.750,+3.938,-2, -3, -1, -4, -11, -19, 1, -1
1503525253444,+0.422,-0.261,+0.492,-0.715,-0.959,-0.042,-0.335,-3.625,+7.750,+4.688,6, 5, 0, 0, -1, 10, -4, -17
1503525253464,+0.422,-0.261,+0.491,-0.716,-0.937,-0.032,-0.333,-2.062,+8.062,+2.625,2, -6, -2, -3, -2, -18, -9, 10
1503525253480,+0.423,-0.261,+0.490,-0.717,-0.945,-0.035,-0.358,-1.000,+5.625,+0.875,-2, -1, -2, -2, -3, -16, -10, 15
1503525253502,+0.423,-0.260,+0.489,-0.717,-0.987,-0.024,-0.374,+1.688,+5.938,-2.500,-2, -3, -4, 0, 5, -8, 12, 21
1503525253524,+0.424,-0.258,+0.488,-0.718,-0.961,-0.029,-0.364,+2.438,+10.625,-3.188,1, 2, 0, 1, 6, 13, -1, 2
1503525253540,+0.425,-0.257,+0.487,-0.719,-0.935,-0.031,-0.356,+3.000,+13.188,-6.625,-6, -10, 1, 0, -4, -11, -10, -17
1503525253562,+0.426,-0.255,+0.487,-0.719,-0.943,-0.025,-0.381,+4.188,+7.750,-9.812,3, -4, 0, -1, -8, -12, 1, 42
1503525253584,+0.427,-0.252,+0.487,-0.719,-0.971,-0.045,-0.423,+6.938,+5.250,-11.312,-5, -7, -3, -3, -7, -7, -1, 3
1503525253606,+0.429,-0.249,+0.487,-0.719,-0.984,-0.043,-0.400,+8.938,+9.250,-18.938,-1, -6, -2, -2, -3, -22, -11, -17
1503525253622,+0.431,-0.246,+0.488,-0.718,-0.975,-0.031,-0.346,+5.688,+7.500,-20.188,4, 3, 0, -1, 3, -2, 0, 0
1503525253645,+0.432,-0.242,+0.488,-0.719,-0.971,-0.021,-0.400,+14.375,+12.375,-20.875,-8, 2, 0, -2, -9, -1, -13, -44
1503525253666,+0.434,-0.237,+0.488,-0.719,-1.002,-0.069,-0.420,+17.375,+16.125,-22.500,1, 1, 0, 1, 6, 1, 1, 7
1503525253682,+0.437,-0.231,+0.488,-0.720,-0.982,-0.083,-0.438,+19.062,+20.000,-27.312,6, 3, -1, -5, -10, 1, 2, 13
1503525253703,+0.439,-0.223,+0.488,-0.720,-0.973,-0.084,-0.424,+23.750,+20.125,-33.000,3, 3, 1, 1, -3, 11, 5, 17
1503525256621,+0.515,-0.376,+0.443,-0.630,-0.946,+0.015,-0.284,+3.500,-6.062,+15.562,-6, -2, -7, -4, 2, 0, 3, 6
1503525256646,+0.513,-0.377,+0.443,-0.631,-0.966,+0.023,-0.286,+2.250,-8.875,+12.375,0, 0, 0, 2, 4, 7, 5, 2
1503525256666,+0.512,-0.378,+0.443,-0.631,-0.984,+0.035,-0.282,+3.062,-3.500,+8.312,-4, -2, 2, 2, 18, 30, 31, -3
1503525256681,+0.511,-0.378,+0.443,-0.633,-0.977,+0.011,-0.285,+3.688,+5.250,+12.312,0, 1, 0, -2, -3, -7, -6, -1
1503525256705,+0.511,-0.377,+0.441,-0.634,-1.053,+0.013,-0.227,-2.000,+20.250,+9.000,0, 0, 8, 16, -5, -6, -5, 1
1503525256726,+0.512,-0.376,+0.439,-0.636,-1.000,+0.043,-0.264,-4.375,+19.938,+0.875,-7, -1, -6, -5, -4, -4, -7, -1
1503525256756,+0.513,-0.376,+0.436,-0.636,-0.922,+0.031,-0.275,-6.750,+13.312,+4.688,-2, -1, -2, 1, -3, -8, -10, -15
1503525256764,+0.514,-0.375,+0.434,-0.638,-0.930,+0.044,-0.314,-2.000,+17.250,+4.125,-13, -25, 1, 0, 0, 6, 13, -10
1503525256786,+0.515,-0.373,+0.432,-0.640,-0.981,+0.026,-0.312,-3.062,+18.938,+5.188,0, 3, -1, -2, -5, -6, -6, 0
1503525256810,+0.516,-0.373,+0.429,-0.641,-0.977,+0.024,-0.292,-8.188,+20.250,+5.125,1, 1, -2, 1, -1, 1, -3, -1
1503525256823,+0.518,-0.372,+0.426,-0.642,-0.956,+0.037,-0.311,-10.750,+23.812,-0.438,-2, 3, 1, -1, -1, -4, 0, -2
1503525256846,+0.521,-0.371,+0.423,-0.642,-0.917,+0.054,-0.339,-11.688,+15.500,-2.938,3, 2, -3, -3, -1, -1, -3, -2
1503525256870,+0.522,-0.371,+0.421,-0.642,-0.883,+0.061,-0.349,-9.812,+4.938,-3.562,1, 11, -4, 0, -2, -1, -1, 2
1503525256883,+0.523,-0.372,+0.421,-0.641,-0.921,+0.054,-0.357,-7.000,-2.812,-2.188,0, -6, -4, -3, 0, -2, -1, -6
1503525256906,+0.523,-0.372,+0.421,-0.641,-0.959,+0.057,-0.360,-4.750,-0.688,-1.500,-1, 0, 3, 2, -1, -4, 1, -4
1503525256922,+0.523,-0.373,+0.420,-0.641,-0.959,+0.050,-0.343,-3.938,-0.625,-0.188,0, 4, 3, -5, 0, 2, -5, 2
1503525256944,+0.523,-0.373,+0.420,-0.641,-0.928,+0.058,-0.351,-2.500,-0.812,+1.625,3, -2, -4, -1, 2, -1, 0, 3
1503525256968,+0.523,-0.373,+0.420,-0.641,-0.915,+0.060,-0.365,+0.938,-1.250,+2.312,-2, 5, 3, 4, 1, -2, -9, -32
1503525256982,+0.523,-0.372,+0.420,-0.641,-0.928,+0.024,-0.355,+1.812,-2.625,+2.312,-3, -4, 0, 1, 2, 19, 10, 12
1503525257004,+0.522,-0.373,+0.421,-0.641,-0.940,+0.037,-0.338,+1.250,-5.812,+0.875,1, -4, -1, -4, -11, -28, -9, -9
1503525257026,+0.522,-0.373,+0.422,-0.641,-0.967,+0.034,-0.329,+0.062,-4.062,+1.000,2, 1, -2, 0, -3, 12, 7, 21
1503525257042,+0.522,-0.373,+0.422,-0.641,-0.959,+0.029,-0.343,+0.625,-4.875,+1.812,-3, -2, -4, 0, 3, 1, -3, -1
1503525257063,+0.521,-0.373,+0.423,-0.641,-0.963,+0.023,-0.336,+2.000,-4.750,+1.062,-2, 11, -7, -5, 3, 0, 1, -7
1503525257086,+0.520,-0.373,+0.423,-0.641,-0.968,+0.037,-0.329,+1.375,-3.688,+4.250,4, -5, 2, 2, 1, -4, 0, 9
1503525257103,+0.520,-0.373,+0.424,-0.641,-0.971,+0.032,-0.324,+2.125,-0.688,+5.375,-8, -4, 4, 2, 12, 6, -6, -19
1503525257123,+0.519,-0.373,+0.424,-0.642,-0.958,+0.035,-0.304,+2.875,+4.000,+4.062,1, 3, 2, -3, -3, -15, -8, -2
1503525257146,+0.519,-0.372,+0.423,-0.643,-0.954,+0.036,-0.314,+2.188,+5.625,+7.312,0, -5, 8, 8, -2, 0, -1, 3
1503525257162,+0.518,-0.373,+0.422,-0.644,-0.977,+0.046,-0.318,-0.875,+4.188,+5.438,-6, -20, -8, -7, -4, -2, -2, 2
1503525257183,+0.518,-0.373,+0.422,-0.644,-0.981,+0.052,-0.306,-2.062,+3.688,+3.312,12, 0, 0, 12, 0, 0, 2, 1
1503525257206,+0.518,-0.373,+0.421,-0.644,-0.949,+0.048,-0.335,-2.000,+4.750,+2.438,3, 2, 0, 1, -2, 5, 13, 66
1503525257222,+0.519,-0.373,+0.421,-0.644,-0.959,+0.050,-0.325,-3.938,+4.062,+0.125,-2, 4, -1, -7, 2, 7, -7, -15
1503525257245,+0.520,-0.373,+0.420,-0.644,-0.978,+0.054,-0.311,-5.562,+5.812,-1.688,-4, -13, -6, -7, 2, 0, 0, -14
1503525257278,+0.521,-0.373,+0.419,-0.644,-0.967,+0.062,-0.319,-6.625,+8.000,-2.688,1, 1, 11, 9, 1, -6, -2, -5
1503525257282,+0.522,-0.372,+0.418,-0.644,-0.932,+0.048,-0.336,-6.438,+8.062,-4.625,-5, -2, -2, -4, -1, 0, 0, -10
1503525257305,+0.524,-0.372,+0.417,-0.643,-0.907,+0.047,-0.360,-6.438,+5.188,-5.812,-3, 3, 1, -4, -4, 0, -2, -27
1503525257326,+0.525,-0.371,+0.416,-0.643,-0.912,+0.042,-0.355,-6.188,+3.188,-5.000,-3, -6, 3, 2, 0, -1, -6, -2
1503525257342,+0.526,-0.371,+0.416,-0.643,-0.929,+0.058,-0.354,-5.875,+2.500,-3.312,0, 4, 3, 8, 25, 51, 3, -4
1503525257363,+0.527,-0.371,+0.415,-0.643,-0.950,+0.061,-0.362,-3.375,+5.812,-2.375,-4, 1, 2, -2, -8, -14, -5, 4
1503525257386,+0.528,-0.370,+0.414,-0.643,-0.932,+0.051,-0.367,-2.500,+6.688,-1.750,-2, 2, -1, -2, -8, -5, -3, -5
1503525257404,+0.528,-0.370,+0.413,-0.644,-0.913,+0.073,-0.372,-1.375,+5.938,+1.812,1, 0, 1, -1, -3, -9, -4, 1
1503525257423,+0.528,-0.369,+0.412,-0.644,-0.908,+0.068,-0.368,+0.312,+2.812,+1.000,6, 3, 1, 1, -6, 9, 0, 2
1503525257446,+0.528,-0.369,+0.412,-0.645,-0.927,+0.040,-0.357,+2.375,+3.625,+4.000,-4, -2, -2, -3, -10, 1, -5, -9
1503525257462,+0.528,-0.368,+0.412,-0.646,-0.955,+0.043,-0.354,+3.500,+3.625,+0.750,-1, 3, -3, -7, -13, -27, 7, 7
1503525257483,+0.527,-0.368,+0.412,-0.646,-0.941,+0.044,-0.359,+1.625,+2.438,+2.562,4, 4, -10, -17, 7, 4, -4, -4
1503525257506,+0.527,-0.367,+0.412,-0.647,-0.904,+0.023,-0.356,+4.812,+2.312,+3.438,4, 8, -1, -2, 4, -3, 2, 3
1503525257521,+0.526,-0.366,+0.412,-0.648,-0.910,+0.037,-0.354,+4.250,+0.125,+6.938,-2, -5, -6, -3, -2, -12, -3, -9
1503525257544,+0.525,-0.366,+0.412,-0.648,-0.963,+0.048,-0.359,+5.188,-0.688,+4.938,-8, -4, 1, 0, -13, -48, -5, -1
1503525257566,+0.524,-0.366,+0.413,-0.649,-1.004,+0.046,-0.347,+4.438,-0.812,+4.438,0, -3, 0, 4, 6, -4, -2, -2
1503525257582,+0.524,-0.365,+0.414,-0.649,-0.986,+0.039,-0.347,+4.562,+1.250,-1.375,0, -4, 3, 3, -2, 2, 3, 6
1503525257605,+0.524,-0.365,+0.414,-0.649,-0.955,+0.071,-0.374,+4.938,+0.000,-1.438,-1, -2, -4, -5, 3, 14, 10, 11
1503525257626,+0.523,-0.364,+0.415,-0.649,-0.974,+0.059,-0.363,+6.812,-1.000,-3.250,11, -3, 5, 5, 6, 10, 6, 27
1503525257642,+0.523,-0.362,+0.416,-0.649,-0.971,+0.052,-0.372,+9.312,+0.375,-7.375,-3, -2, -5, 1, -3, -11, -6, -14
1503525257663,+0.523,-0.360,+0.417,-0.650,-0.923,+0.091,-0.420,+12.188,+0.562,-6.438,-4, 2, -6, 1, 5, 4, -1, -14
1503525257687,+0.524,-0.357,+0.418,-0.651,-0.955,+0.104,-0.413,+17.312,+2.500,-14.438,-1, -2, -8, 12, -2, -2, -4, -1
1503525257710,+0.523,-0.353,+0.421,-0.652,-1.012,+0.163,-0.451,+28.500,+1.938,-15.438,1, -5, -5, -6, -1, 7, -5, -3
1503525257723,+0.522,-0.346,+0.422,-0.655,-1.028,+0.170,-0.516,+44.750,+14.750,-18.062,-3, 2, 10, 4, 0, 4, -13, -11
1503525257749,+0.522,-0.336,+0.424,-0.659,-0.979,+0.053,-0.464,+52.938,+31.125,-20.875,-6, 2, 2, -4, 3, 7, 2, -1
1503525257769,+0.523,-0.325,+0.428,-0.662,-0.894,-0.039,-0.424,+55.812,+22.688,-26.250,1, -2, 4, -3, -2, 2, -5, -2
1503525257791,+0.522,-0.315,+0.435,-0.663,-0.889,-0.038,-0.439,+64.562,-2.500,-32.062,1, -1, 2, -1, 3, -4, 1, 0
1503525257815,+0.520,-0.305,+0.444,-0.663,-0.971,-0.034,-0.447,+70.250,-11.938,-35.062,-1, 0, 0, -1, 4, 50, 19, 0
1503525257828,+0.519,-0.294,+0.453,-0.663,-1.041,-0.091,-0.410,+72.812,-0.750,-37.938,0, 0, 0, -2, -9, -26, 2, 4
1503525257846,+0.518,-0.281,+0.461,-0.664,-1.001,-0.127,-0.397,+76.000,+12.688,-37.938,6, -2, 1, 0, 1, -2, 4, 10
1503525260469,+0.497,-0.362,+0.465,-0.637,-0.991,+0.008,-0.282,-2.500,+0.500,+8.750,-2, -4, -6, -11, -2, 16, -8, -2
1503525260485,+0.496,-0.362,+0.463,-0.639,-0.995,+0.028,-0.313,-0.375,+6.688,+10.875,4, 0, 2, 0, 0, -10, 6, -3
1503525260507,+0.496,-0.361,+0.462,-0.640,-0.956,-0.005,-0.312,+4.000,+8.125,+8.000,6, 2, 10, 7, -3, -4, 1, 2
1503525260529,+0.496,-0.361,+0.462,-0.641,-0.948,-0.035,-0.254,-0.500,+1.312,+3.562,-6, -9, -17, -24, -6, 8, 0, -2
1503525260544,+0.495,-0.362,+0.463,-0.640,-0.925,-0.004,-0.249,-2.250,-9.375,+1.750,5, 2, 11, 14, -1, 4, -1, 0
1503525260568,+0.494,-0.364,+0.464,-0.639,-0.983,+0.021,-0.274,-2.375,-12.875,+6.188,-4, -3, -4, -7, 0, 1, -4, -3
1503525260589,+0.493,-0.364,+0.464,-0.640,-1.035,+0.034,-0.341,+3.500,-1.938,+5.062,-1, 1, -4, -6, 9, 1, -14, 2
1503525260604,+0.493,-0.363,+0.463,-0.641,-1.004,-0.025,-0.277,+2.250,+10.062,+5.375,-6, 5, 15, 8, -3, -5, 1, -8
1503525260627,+0.493,-0.362,+0.463,-0.641,-0.951,-0.043,-0.209,-1.250,+5.000,+4.188,1, 1, 2, -1, -7, -4, -3, -2
1503525260649,+0.493,-0.363,+0.463,-0.641,-0.912,-0.008,-0.248,-1.438,-2.875,+2.812,3, 1, -9, -6, -4, -3, 2, 2
1503525260664,+0.492,-0.364,+0.463,-0.641,-0.957,+0.001,-0.270,-3.188,-5.125,+6.688,1, 3, -1, 4, 41, 41, -13, -1
1503525260687,+0.491,-0.365,+0.463,-0.641,-1.002,+0.023,-0.283,-2.500,-4.000,+7.312,-14, -17, -7, -9, -7, -19, -3, -2
1503525260709,+0.491,-0.365,+0.463,-0.642,-0.964,+0.026,-0.286,-1.438,-2.812,+5.500,-10, -1, -9, -7, -1, -4, 0, -4
1503525260727,+0.490,-0.366,+0.462,-0.642,-0.980,+0.010,-0.257,-1.938,+1.438,+5.750,5, 1, 0, 2, 6, 4, 1, 4
1503525260747,+0.490,-0.366,+0.461,-0.643,-0.982,+0.022,-0.273,-1.625,+2.625,+6.938,1, 2, -5, -4, 1, 0, -5, 3
1503525260771,+0.490,-0.366,+0.460,-0.644,-0.982,+0.018,-0.268,-3.250,+7.375,+6.250,-4, 0, -1, 3, 1, -3, 2, 0
1503525260784,+0.490,-0.366,+0.459,-0.644,-0.966,+0.045,-0.288,-2.500,+6.500,+4.188,4, 1, -2, -2, -3, -8, -5, 0
1503525260807,+0.491,-0.366,+0.458,-0.645,-0.959,+0.036,-0.261,-1.188,+8.250,+1.188,0, 0, -1, 1, 1, -2, 3, -3
1503525260833,+0.491,-0.366,+0.458,-0.645,-0.972,+0.013,-0.253,-3.938,+1.000,+0.375,6, 2, -7, -15, 3, 5, 3, 1
1503525260844,+0.491,-0.366,+0.458,-0.645,-0.990,+0.032,-0.289,-3.688,-0.188,-0.625,-10, -6, 5, 10, 1, -1, -1, 3
1503525260867,+0.491,-0.366,+0.457,-0.645,-0.992,+0.046,-0.312,-2.438,+2.938,+2.188,-2, -5, -5, 2, 19, 16, 2, 16
1503525260889,+0.492,-0.365,+0.455,-0.646,-0.980,+0.033,-0.298,-0.438,+12.688,+2.000,-1, -3, -11, -12, -11, -53, -5, -4
1503525260905,+0.493,-0.364,+0.454,-0.647,-0.969,+0.007,-0.274,-1.500,+14.062,+1.500,3, 0, 4, 3, 10, 4, 1, 1
1503525260931,+0.493,-0.363,+0.453,-0.648,-0.931,+0.023,-0.288,-1.062,+5.875,+0.312,11, -3, -8, 3, 43, 58, 0, 4
1503525260949,+0.494,-0.363,+0.453,-0.648,-0.938,+0.007,-0.288,-1.750,+2.562,+0.500,-3, 2, 1, -1, -9, -6, -2, -2
1503525260964,+0.494,-0.363,+0.452,-0.648,-0.957,+0.030,-0.284,-3.562,+0.438,+0.562,-2, -5, -4, -9, -26, -10, 1, 2
1503525260987,+0.494,-0.363,+0.452,-0.648,-0.964,+0.047,-0.315,-0.750,+1.250,-1.500,-6, -3, 1, -1, -1, -5, 5, 17
1503525261009,+0.495,-0.362,+0.452,-0.648,-0.968,+0.023,-0.291,-2.312,+4.562,-0.438,3, 15, 7, 3, -1, -17, -5, -19
1503525261024,+0.495,-0.362,+0.451,-0.648,-0.962,+0.041,-0.295,-1.250,+5.938,+0.438,2, -3, -7, -9, -3, 12, -1, 2
1503525261047,+0.495,-0.362,+0.450,-0.649,-0.958,+0.033,-0.284,-1.000,+7.438,+3.562,1, -4, 5, -4, -18, -30, -3, -1
1503525261070,+0.495,-0.362,+0.449,-0.650,-0.956,+0.035,-0.285,+0.062,+6.562,+7.000,-3, -3, -2, -4, -5, -10, 5, 15
1503525261084,+0.494,-0.361,+0.448,-0.651,-0.954,+0.032,-0.304,+1.375,+6.188,+5.250,8, 1, -3, -4, -9, -7, 22, 36
1503525261106,+0.494,-0.361,+0.447,-0.652,-0.958,+0.034,-0.285,-0.062,+4.750,+6.188,-5, 10, 5, -2, 4, 3, -10, -11
1503525261131,+0.493,-0.361,+0.447,-0.653,-0.986,+0.040,-0.299,+0.312,+5.125,+9.750,1, -5, -1, 2, 14, 16, 0, -8
1503525261151,+0.492,-0.361,+0.445,-0.656,-0.992,+0.056,-0.345,+4.688,+10.125,+11.812,-2, 1, 5, 2, -9, 38, 2, -1
1503525261167,+0.492,-0.360,+0.443,-0.658,-0.984,+0.023,-0.304,+3.500,+15.875,+11.875,-5, -5, -11, -9, -10, -22, -10, -6
1503525261188,+0.491,-0.359,+0.441,-0.660,-0.946,+0.030,-0.273,+1.688,+14.438,+9.938,11, 1, -1, 1, 4, 0, -10, -12
1503525261211,+0.491,-0.359,+0.440,-0.661,-0.961,+0.033,-0.311,+0.750,+7.312,+7.750,1, 12, 7, 4, 8, 0, 4, -5
1503525261226,+0.491,-0.358,+0.439,-0.662,-0.991,+0.049,-0.389,+2.312,+7.000,+3.688,-4, -11, -1, 0, -6, -18, 0, -6
1503525261248,+0.491,-0.356,+0.438,-0.664,-0.996,+0.045,-0.331,+3.438,+18.125,+2.812,-7, -3, -3, -5, -2, -21, -7, 2
1503525261271,+0.492,-0.354,+0.436,-0.665,-0.961,+0.018,-0.291,+3.312,+20.188,+1.500,6, 1, -1, -2, -10, -18, -7, -15
1503525261286,+0.493,-0.352,+0.435,-0.666,-0.927,+0.022,-0.348,+2.312,+10.562,+0.500,2, 15, 2, 0, 3, 9, -4, -8
1503525261309,+0.493,-0.351,+0.435,-0.667,-0.978,+0.061,-0.376,+2.562,+7.000,-2.000,2, -2, 11, 19, -4, -1, -4, 0
1503525261333,+0.494,-0.349,+0.434,-0.668,-1.001,+0.075,-0.397,+8.688,+10.562,-4.500,-2, -5, -8, -13, 17, 54, 15, 25
1503525261346,+0.494,-0.346,+0.434,-0.669,-0.981,+0.049,-0.370,+12.125,+14.562,-5.688,-3, -5, 0, 0, 0, -12, 5, 8
1503525261370,+0.495,-0.342,+0.434,-0.671,-0.962,+0.053,-0.400,+17.000,+12.688,-9.438,-12, 1, 2, 15, 1, -11, -5, -9
1503525261391,+0.495,-0.337,+0.435,-0.672,-0.982,+0.039,-0.424,+21.188,+9.625,-10.875,-5, -4, -4, 4, -3, -3, 0, -2
1503525263672,+0.407,-0.276,+0.531,-0.690,-0.958,-0.051,-0.217,+1.438,+10.625,+0.750,-3, 0, 1, 1, -3, 15, 3, -18
1503525263687,+0.408,-0.275,+0.530,-0.691,-0.944,-0.041,-0.244,+2.438,+8.562,-0.375,0, -2, -2, -2, -8, -15, 5, -11
1503525263711,+0.408,-0.274,+0.528,-0.692,-0.984,-0.039,-0.256,+0.938,+12.875,+2.688,0, -1, -5, -4, 3, 3, 2, -9
1503525263731,+0.408,-0.273,+0.526,-0.694,-1.003,-0.061,-0.262,+0.500,+18.250,+4.125,-1, 0, 0, 0, 0, -4, 5, -2
1503525263755,+0.408,-0.272,+0.524,-0.696,-0.970,-0.052,-0.257,+0.500,+18.188,+3.625,2, 1, 3, 2, 2, -3, -4, 0
1503525263769,+0.409,-0.271,+0.523,-0.697,-0.945,-0.051,-0.256,-1.250,+12.188,-0.062,1, 1, 2, 4, 9, 17, -12, -13
1503525263792,+0.410,-0.270,+0.522,-0.698,-0.959,-0.040,-0.270,-2.688,+6.562,-2.625,-1, -4, -3, -2, 2, 1, 21, 2
1503525263807,+0.411,-0.269,+0.521,-0.698,-0.985,-0.042,-0.283,-2.125,+9.000,-2.625,-2, -3, -4, -6, -4, -10, -1, 0
1503525263829,+0.412,-0.269,+0.519,-0.699,-0.970,-0.038,-0.285,-2.938,+14.562,-1.188,0, -2, -4, -8, -1, 8, 17, 1
1503525263851,+0.413,-0.267,+0.517,-0.701,-0.953,-0.039,-0.291,-1.750,+18.062,+0.625,0, 0, 0, 1, 2, 5, 40, 5
1503525263867,+0.413,-0.267,+0.515,-0.702,-0.946,-0.044,-0.285,-1.562,+13.750,+1.188,0, 1, -3, -3, -4, -12, -19, -2
1503525263889,+0.414,-0.266,+0.513,-0.704,-0.956,-0.029,-0.280,-0.250,+16.625,+0.688,-3, -1, 1, 4, -7, 12, -9, -1
1503525263911,+0.414,-0.265,+0.511,-0.706,-0.947,-0.035,-0.316,-0.438,+16.875,+5.812,0, -2, -1, -2, -1, -9, -5, -1
1503525263927,+0.414,-0.264,+0.509,-0.707,-0.933,-0.051,-0.316,-0.875,+14.562,+3.688,-1, -1, 1, 1, -4, -11, -10, -5
1503525263950,+0.414,-0.264,+0.508,-0.708,-0.929,-0.045,-0.283,-2.375,+8.000,+1.875,1, -1, 0, 5, 0, -7, 2, 13
1503525263970,+0.414,-0.263,+0.507,-0.708,-0.970,-0.020,-0.309,+0.438,+6.250,+0.500,0, -3, -3, -8, -19, -24, -5, 12
1503525263987,+0.415,-0.263,+0.505,-0.710,-0.983,-0.020,-0.338,-0.125,+11.938,+2.750,-5, -1, 1, -1, -2, -10, 8, -12
1503525264009,+0.415,-0.262,+0.503,-0.711,-0.958,-0.036,-0.327,-0.375,+14.875,+2.750,0, 0, -1, 0, 2, 4, -4, -2
1503525264031,+0.415,-0.261,+0.502,-0.713,-0.919,-0.029,-0.314,+0.375,+10.125,+2.188,-2, 0, 0, 0, 11, 21, -11, -2
1503525264047,+0.415,-0.261,+0.501,-0.713,-0.920,-0.045,-0.302,-1.438,+4.250,+0.250,-4, -1, 1, 2, 3, 2, -3, -5
1503525264069,+0.415,-0.261,+0.502,-0.713,-0.967,-0.051,-0.299,-2.938,+0.875,+0.125,-1, -1, -2, -2, 4, -2, -14, -6
1503525264091,+0.416,-0.261,+0.500,-0.713,-1.013,-0.035,-0.335,-3.062,+10.062,+1.125,4, 1, -1, 2, 5, 2, 8, 3
1503525264107,+0.417,-0.260,+0.498,-0.715,-0.968,-0.050,-0.340,-3.500,+17.938,+0.875,-1, 0, 1, -1, -2, 12, -2, -3
1503525264130,+0.418,-0.258,+0.496,-0.716,-0.897,-0.068,-0.340,-3.312,+14.688,-0.938,-3, -3, -1, 0, -7, -11, 5, -12
1503525264156,+0.419,-0.258,+0.496,-0.716,-0.872,-0.055,-0.330,-4.000,+1.750,-1.875,0, 1, -1, 0, -1, 1, 13, 1
1503525264167,+0.419,-0.259,+0.496,-0.715,-0.919,-0.042,-0.349,-3.625,-8.250,+0.500,-2, -1, -1, 2, 2, -4, -11, -10
1503525264194,+0.419,-0.260,+0.496,-0.715,-0.995,-0.041,-0.374,-2.125,-4.438,+2.000,-1, 1, 1, 2, 1, 0, -2, 6
1503525264212,+0.418,-0.259,+0.496,-0.715,-0.979,-0.053,-0.383,+0.062,+2.062,+4.500,3, 2, -2, -5, -1, -6, -9, 3
1503525264227,+0.418,-0.259,+0.495,-0.716,-0.935,-0.065,-0.366,+2.688,+5.562,+5.125,-2, -3, -1, -4, 0, -2, 2, 7
1503525264252,+0.417,-0.258,+0.495,-0.717,-0.911,-0.050,-0.328,+2.938,-0.875,+4.688,0, -2, -1, -1, 5, 9, 6, -10
1503525264270,+0.416,-0.259,+0.496,-0.717,-0.936,-0.029,-0.332,+4.375,-6.625,+4.438,0, 0, 2, 2, 0, -5, 2, 8
1503525264287,+0.415,-0.258,+0.497,-0.717,-0.978,-0.030,-0.365,+6.125,-1.562,+3.438,0, 1, -2, -1, -1, 0, -5, -5
1503525264309,+0.414,-0.258,+0.497,-0.718,-0.973,-0.037,-0.353,+4.688,+0.062,+2.188,3, 1, 1, -1, -1, -3, -6, -3
1503525264331,+0.414,-0.257,+0.497,-0.718,-0.962,-0.027,-0.324,+5.562,+4.875,+1.000,1, -3, -1, 1, 5, 7, 1, 5
1503525264347,+0.413,-0.256,+0.496,-0.719,-0.969,-0.024,-0.321,+4.688,+8.750,+1.625,-8, -1, -2, -5, -9, -1, -7, -4
1503525264370,+0.414,-0.255,+0.496,-0.720,-0.952,-0.038,-0.319,+0.938,+9.438,+0.500,1, -2, 4, 7, -2, -3, -7, -4
1503525264392,+0.414,-0.255,+0.495,-0.720,-0.933,-0.032,-0.320,-1.625,+4.250,-1.188,4, 24, -9, 2, 1, 0, 7, 15
1503525264407,+0.414,-0.255,+0.495,-0.721,-0.931,-0.018,-0.339,-1.125,+4.688,+0.750,-4, -12, -2, -6, -1, -3, -10, -6
1503525264430,+0.414,-0.254,+0.493,-0.721,-0.970,-0.013,-0.353,-1.500,+8.438,+1.312,0, -4, 2, 0, -1, 1, -3, 1
1503525264456,+0.414,-0.254,+0.492,-0.722,-0.962,-0.032,-0.346,-3.625,+9.938,+2.250,8, -2, 1, -3, 1, 0, -4, -1
1503525264473,+0.415,-0.254,+0.491,-0.723,-0.941,-0.038,-0.330,-5.250,+8.625,+0.125,-3, -16, 0, -3, 1, -1, -24, 2
1503525264491,+0.416,-0.254,+0.490,-0.723,-0.929,-0.016,-0.349,-5.188,+5.312,-3.000,-7, -12, -3, -4, 0, -8, 4, -8
1503525264513,+0.417,-0.254,+0.489,-0.722,-0.926,-0.021,-0.363,-5.312,+2.688,-3.750,-7, 4, -1, -1, -2, 10, -2, -1
1503525264533,+0.418,-0.255,+0.489,-0.722,-0.939,-0.038,-0.371,-6.750,+2.938,-3.688,1, 19, 5, -2, -3, -3, -4, 2
1503525264549,+0.420,-0.254,+0.488,-0.722,-0.965,-0.058,-0.353,-7.000,+3.562,-5.875,-2, 10, 0, 0, 3, 4, 18, 5
1503525264571,+0.421,-0.254,+0.488,-0.721,-0.938,-0.050,-0.359,-5.625,+3.750,-7.500,2, -5, -3, -3, -3, 1, 0, -4
1503525264597,+0.423,-0.254,+0.487,-0.721,-0.938,-0.047,-0.380,-5.062,+2.188,-5.625,-1, -15, -2, -3, -2, -4, 3, -3
1503525264614,+0.424,-0.253,+0.487,-0.720,-0.950,-0.062,-0.388,-4.938,+4.312,-7.375,-18, -17, -4, -2, 1, -1, -18, -9
1503525264632,+0.426,-0.252,+0.486,-0.720,-0.950,-0.064,-0.378,-5.375,+5.062,-7.812,-3, 5, -6, -2, 1, 6, 14, 11
1503525264660,+0.427,-0.252,+0.486,-0.720,-0.924,-0.058,-0.366,-4.875,+3.750,-6.562,7, 1, 4, -2, -2, -8, -18, -5
1503525264670,+0.429,-0.251,+0.486,-0.719,-0.914,-0.056,-0.370,-3.812,+3.062,-7.000,-1, 2, -5, -5, -3, -6, -15, 6
1503525264701,+0.430,-0.250,+0.485,-0.719,-0.922,-0.059,-0.393,-2.062,+3.062,-6.750,1, 2, -1, 1, -2, 1, -6, 1
1503525264713,+0.431,-0.250,+0.485,-0.719,-0.924,-0.053,-0.380,-2.812,+3.562,-4.188,9, 20, -4, -1, 0, 1, -2, -5
1503525264733,+0.432,-0.249,+0.484,-0.719,-0.922,-0.047,-0.375,-2.688,+4.000,-3.438,5, -4, -2, -1, -3, -3, 5, 8
1503525264751,+0.432,-0.249,+0.484,-0.719,-0.902,-0.045,-0.375,-2.438,+3.250,-3.250,-8, 2, -6, -3, -3, -5, -8, 19
1503525264773,+0.432,-0.249,+0.483,-0.719,-0.886,-0.041,-0.375,-2.750,-0.438,+0.250,-2, -7, -4, -2, 0, 6, 2, -5
1503525264790,+0.432,-0.250,+0.483,-0.719,-0.912,-0.039,-0.353,-3.625,-0.438,+2.125,3, -2, -1, -1, -2, -6, 2, 9
1503525264811,+0.432,-0.251,+0.483,-0.719,-0.929,-0.046,-0.367,-1.312,-1.500,+4.062,17, -6, -5, -3, -1, 0, -5, 10
1503525264833,+0.431,-0.251,+0.483,-0.720,-0.922,-0.062,-0.374,-2.250,+2.000,+6.750,-7, -6, 1, -1, 0, 6, 9, 8
1503525264849,+0.431,-0.252,+0.482,-0.720,-0.926,-0.066,-0.375,-4.875,+1.438,+6.125,-3, 2, -6, -1, 0, -6, -11, -17
1503525264871,+0.431,-0.252,+0.482,-0.720,-0.932,-0.064,-0.369,-5.250,+0.000,+3.938,0, 2, 0, 0, 9, 10, -1, -15
1503525264894,+0.431,-0.253,+0.481,-0.720,-0.948,-0.066,-0.379,-5.938,-0.188,+2.188,2, -3, 2, 2, 1, -2, 4, -7
1503525264910,+0.432,-0.254,+0.481,-0.719,-0.946,-0.072,-0.370,-6.875,-0.188,+0.875,-9, 4, -2, 0, -3, -4, 7, -1
1503525264932,+0.433,-0.254,+0.480,-0.719,-0.930,-0.066,-0.374,-8.375,+2.750,+0.000,-4, -3, -1, -5, -11, -19, -10, 4
1503525264953,+0.434,-0.254,+0.480,-0.719,-0.940,-0.048,-0.388,-7.188,+2.500,-1.250,-8, 5, -4, -3, -12, -27, -13, -11
1503525264969,+0.435,-0.254,+0.479,-0.719,-0.961,-0.053,-0.392,-4.688,+2.688,-2.875,-2, -5, 0, -3, -5, 7, -3, 12
1503525264991,+0.436,-0.254,+0.479,-0.718,-0.976,-0.062,-0.367,-4.125,+2.938,-5.062,0, -4, 0, 2, 10, 23, -1, 4
1503525265013,+0.437,-0.253,+0.479,-0.718,-0.972,-0.053,-0.382,-1.250,+4.625,-7.375,-4, -2, 1, -2, -2, -10, 11, -4
1503525265030,+0.438,-0.252,+0.478,-0.718,-0.969,-0.051,-0.413,+0.812,+8.188,-7.750,2, 0, 0, 0, 8, 30, 13, 1
1503525265053,+0.439,-0.250,+0.478,-0.719,-0.972,-0.053,-0.422,+3.125,+9.250,-9.875,-3, -9, 0, 0, -4, 3, 32, -5
1503525265073,+0.441,-0.247,+0.477,-0.719,-0.976,-0.048,-0.428,+6.188,+8.500,-11.438,0, -1, -2, -1, 0, -9, -5, 5
1503525265092,+0.441,-0.245,+0.478,-0.719,-0.987,-0.054,-0.420,+9.562,+2.250,-12.375,0, -3, -2, -4, -3, -9, 2, -10
1503525265112,+0.442,-0.242,+0.480,-0.718,-0.990,-0.071,-0.420,+11.312,+0.375,-14.375,1, -2, 2, 4, -3, -4, 4, -14
1503525268231,+0.406,-0.289,+0.517,-0.696,-1.003,-0.015,-0.299,-9.625,+8.812,-0.562,-5, -2, -3, -3, -2, 0, -10, -18
1503525268253,+0.408,-0.289,+0.515,-0.697,-0.999,-0.008,-0.279,-9.062,+14.750,-0.312,1, 16, 2, 3, 1, -9, -20, 7
1503525268276,+0.409,-0.289,+0.513,-0.698,-0.954,-0.002,-0.280,-7.562,+13.062,+1.125,0, -4, -1, -2, 0, 0, 2, -5
1503525268291,+0.410,-0.289,+0.511,-0.698,-0.936,-0.014,-0.277,-5.062,+11.312,+2.312,-4, -2, 0, -1, -3, 0, 2, -13
1503525268314,+0.410,-0.289,+0.510,-0.699,-0.962,-0.031,-0.288,-4.312,+4.062,-0.188,-5, 3, 1, 2, 3, -6, -1, -10
1503525268335,+0.411,-0.289,+0.510,-0.699,-0.974,-0.014,-0.302,-4.500,-0.750,+0.250,-1, 0, -1, -2, -2, -7, -1, 5
1503525268352,+0.411,-0.289,+0.509,-0.699,-0.982,-0.006,-0.296,-4.312,+3.688,+1.312,2, 0, 0, -1, -1, -2, 1, -14
1503525268374,+0.411,-0.289,+0.508,-0.699,-0.963,-0.015,-0.297,-3.750,+4.125,+3.625,-2, -1, -3, -4, -3, -5, -8, -4
1503525268395,+0.411,-0.290,+0.507,-0.700,-0.945,-0.026,-0.276,-4.188,+3.625,+6.938,1, -1, -1, 0, -3, -4, 1, 19
1503525268414,+0.411,-0.291,+0.506,-0.700,-0.976,-0.013,-0.272,-4.375,+0.688,+6.375,2, 0, 2, 0, -2, -2, 2, 31
1503525268433,+0.411,-0.291,+0.506,-0.701,-0.985,-0.005,-0.274,-3.625,+1.562,+6.500,-1, -2, 0, 1, 4, 5, 8, -7
1503525268456,+0.410,-0.292,+0.505,-0.701,-0.965,-0.011,-0.281,-2.625,+4.625,+6.375,1, -1, -2, -2, -6, -6, -5, -17
1503525268471,+0.410,-0.292,+0.504,-0.702,-0.918,-0.014,-0.285,-3.000,+6.312,+8.062,1, 4, 0, -2, -2, 3, -3, 2
1503525268493,+0.410,-0.293,+0.503,-0.703,-0.902,-0.023,-0.256,-5.812,+2.625,+7.562,-2, -2, -2, -1, -4, 41, 6, 13
1503525268516,+0.409,-0.294,+0.503,-0.702,-0.930,-0.018,-0.256,-6.000,-8.875,+6.125,-3, -1, 0, -1, 1, -5, -2, -12
1503525268531,+0.409,-0.296,+0.504,-0.701,-0.980,+0.000,-0.299,-5.062,-8.188,+5.875,7, -2, -2, 1, 5, -4, 8, 15
1503525268553,+0.409,-0.296,+0.503,-0.702,-1.004,+0.005,-0.313,-5.312,+1.500,+4.688,1, 1, 1, -1, -2, -3, -3, -9
1503525268576,+0.409,-0.296,+0.501,-0.702,-0.976,+0.011,-0.282,-6.000,+8.875,+2.500,-5, -1, -2, 0, -1, -4, 8, -16
1503525268592,+0.410,-0.296,+0.500,-0.703,-0.937,+0.024,-0.284,-3.625,+9.500,+1.500,3, 1, -1, 2, 1, -5, -6, -12
1503525268622,+0.411,-0.296,+0.499,-0.704,-0.964,+0.010,-0.298,-2.688,+6.875,+0.375,-8, 1, 2, 2, 4, 14, -12, -8
1503525268635,+0.412,-0.295,+0.498,-0.704,-0.987,+0.011,-0.299,-3.250,+6.375,-3.625,-2, -4, -2, 0, 2, -2, 4, -2
1503525268651,+0.413,-0.295,+0.497,-0.704,-0.976,+0.021,-0.278,-4.312,+10.250,-1.938,1, 10, 2, 1, 0, -8, 7, 2
1503525268673,+0.413,-0.295,+0.496,-0.705,-0.953,+0.029,-0.284,-3.438,+10.625,-0.062,0, -2, 0, 0, 3, 2, -9, -17
1503525268696,+0.414,-0.295,+0.495,-0.705,-0.945,+0.002,-0.277,-3.688,+5.938,+0.188,-5, -2, -2, -1, -1, 0, 13, 22
1503525268711,+0.414,-0.295,+0.495,-0.705,-0.953,+0.000,-0.280,-3.938,+0.625,+0.875,-3, 4, -3, -1, -1, -4, -7, -28
1503525268733,+0.414,-0.296,+0.494,-0.705,-0.977,+0.015,-0.281,-4.438,+0.938,+3.188,-5, -12, -2, -2, 1, -10, -6, -3
1503525268760,+0.414,-0.296,+0.494,-0.705,-0.967,+0.016,-0.301,-3.688,+2.312,+2.625,-3, -1, 0, 0, 13, 21, -4, -13
1503525268771,+0.414,-0.296,+0.493,-0.706,-0.960,+0.015,-0.307,-2.938,+4.188,+3.875,1, 2, 1, 0, -7, -20, 7, 19
1503525268793,+0.414,-0.296,+0.492,-0.706,-0.957,-0.003,-0.308,-3.938,+5.188,+3.250,2, 2, -1, -4, -8, -8, -5, 5
1503525268817,+0.415,-0.296,+0.491,-0.706,-0.966,+0.001,-0.306,-4.000,+6.562,+1.312,3, -2, -2, 1, 3, -1, -9, 2
1503525268831,+0.416,-0.296,+0.490,-0.707,-0.969,+0.018,-0.319,-2.812,+8.875,+0.750,1, -4, -1, 0, -6, 21, 6, 4
1503525268853,+0.416,-0.295,+0.488,-0.708,-0.961,+0.020,-0.317,-3.312,+12.062,+0.812,-5, 0, -1, -2, -7, -9, -2, -11
1503525268875,+0.417,-0.294,+0.487,-0.709,-0.943,+0.022,-0.306,-2.625,+11.688,-0.875,-6, -2, -1, -4, -5, -25, -9, -11
1503525268893,+0.418,-0.294,+0.486,-0.709,-0.928,+0.013,-0.307,-2.875,+10.062,-3.438,9, 14, 1, 2, 0, -11, -11, -2
1503525268913,+0.419,-0.293,+0.485,-0.709,-0.938,+0.022,-0.333,-3.938,+1.312,-4.812,6, -8, -2, -2, -1, -4, 0, 41
1503525268935,+0.420,-0.293,+0.485,-0.709,-0.978,+0.042,-0.338,-2.688,+0.438,-6.688,6, -1, 1, -4, -1, 4, 38, 37
1503525268952,+0.422,-0.292,+0.485,-0.708,-0.991,+0.034,-0.349,+0.312,+5.125,-9.625,0, 0, -1, -3, -4, -4, -5, 15
1503525268973,+0.423,-0.290,+0.484,-0.709,-0.988,+0.006,-0.341,-0.125,+9.562,-9.625,-2, -3, 0, 0, 4, -20, 2, -1
1503525268995,+0.424,-0.288,+0.484,-0.709,-0.960,+0.034,-0.374,+3.562,+6.125,-11.375,-1, -3, -12, -4, -3, -1, -6, 14
1503525269011,+0.426,-0.286,+0.484,-0.709,-0.990,+0.053,-0.361,+8.750,+7.438,-15.562,4, 2, -4, -2, -4, 3, 3, -10
1503525269033,+0.427,-0.282,+0.484,-0.709,-1.010,+0.024,-0.379,+11.125,+9.188,-16.938,-3, -4, -5, 0, 2, -3, -4, -8
1503525269056,+0.429,-0.278,+0.485,-0.710,-1.004,-0.014,-0.372,+15.062,+12.938,-21.062,0, -5, -1, -1, -1, 5, 4, 47
1503525269072,+0.431,-0.272,+0.486,-0.710,-0.977,-0.020,-0.407,+20.750,+10.312,-26.938,-2, -2, -3, 0, 1, 20, -8, -21
1503525269094,+0.433,-0.266,+0.489,-0.709,-0.996,-0.001,-0.388,+25.312,+6.438,-32.938,3, 2, 3, -1, -1, -7, -3, -12
1503525269115,+0.435,-0.260,+0.491,-0.709,-1.005,-0.011,-0.365,+27.688,+4.938,-32.625,-7, 1, 0, -2, -6, -18, 0, 25
1503525269132,+0.436,-0.252,+0.494,-0.708,-1.032,-0.043,-0.399,+35.938,+7.938,-36.625,0, 2, 3, 2, -5, -4, 0, 0
1503525269154,+0.438,-0.243,+0.497,-0.708,-1.031,-0.091,-0.385,+38.812,+14.625,-38.438,-1, 5, -2, -1, -5, -14, -1, -8
1503525269176,+0.440,-0.233,+0.500,-0.708,-0.967,-0.090,-0.366,+40.938,+15.688,-40.562,0, -4, -1, -3, -7, -17, -8, -13
1503525269192,+0.441,-0.223,+0.503,-0.709,-0.949,-0.092,-0.374,+47.500,+14.438,-41.625,-3, 0, -1, -1, 7, -3, -1, -23
1503525269213,+0.443,-0.213,+0.508,-0.707,-0.948,-0.153,-0.380,+48.812,+4.062,-45.438,-1, 2, 2, 1, 12, 28, 22, 37
1503525271517,+0.546,-0.360,+0.467,-0.595,-0.984,-0.091,-0.283,-6.000,+4.812,-2.875,-2, -2, -4, -3, -1, -1, -1, -1
1503525271539,+0.548,-0.359,+0.466,-0.595,-0.965,-0.098,-0.246,-11.188,+11.250,-3.875,-2, -1, -2, -6, -10, -24, -5, -1
1503525271554,+0.549,-0.359,+0.464,-0.595,-0.961,-0.084,-0.256,-11.562,+11.812,-0.125,-2, -2, 0, 4, -3, -6, -4, 3
1503525271583,+0.550,-0.359,+0.461,-0.596,-0.962,-0.070,-0.283,-6.688,+14.438,+2.500,0, -3, -4, -7, -5, -2, 2, -5
1503525271598,+0.552,-0.358,+0.459,-0.597,-0.976,-0.081,-0.280,-6.875,+16.500,+2.000,3, 5, 5, 15, 6, 10, -6, 1
1503525271613,+0.553,-0.358,+0.457,-0.597,-0.966,-0.094,-0.281,-10.062,+11.188,+1.500,-5, 1, 2, 10, -2, -2, -1, -3
1503525271637,+0.554,-0.358,+0.456,-0.598,-0.977,-0.082,-0.299,-9.688,+9.250,+2.812,1, -2, -7, -17, -2, 44, 4, 2
1503525271658,+0.555,-0.356,+0.452,-0.600,-0.951,-0.072,-0.333,-2.125,+20.750,+9.125,-4, -3, -3, -5, -2, -31, -3, -2
1503525271673,+0.555,-0.354,+0.448,-0.605,-0.896,-0.094,-0.343,+1.188,+30.188,+19.438,-3, 0, -1, 1, 3, 8, -10, -4
1503525271695,+0.554,-0.356,+0.444,-0.608,-0.908,+0.022,-0.297,-11.438,+18.500,+19.750,-1, -1, -9, -21, -7, 0, 4, -4
1503525271718,+0.554,-0.356,+0.443,-0.609,-0.862,-0.042,-0.295,-0.312,+5.812,+7.750,1, 1, -1, -3, -4, 5, -1, 5
1503525271733,+0.553,-0.357,+0.444,-0.608,-0.960,-0.040,-0.308,-2.250,-15.062,+3.312,-2, -2, 4, 5, 3, -1, 2, 2
1503525271755,+0.552,-0.358,+0.445,-0.607,-1.028,-0.060,-0.333,+0.250,-10.125,+1.250,1, 0, -1, 4, 10, 30, 30, 4
1503525271778,+0.552,-0.357,+0.444,-0.609,-1.001,-0.076,-0.349,+2.562,+10.938,+3.812,4, 3, 14, 38, 0, -33, -11, 2
1503525271793,+0.553,-0.356,+0.441,-0.611,-0.927,-0.072,-0.289,-3.938,+21.312,+12.312,1, 1, -1, -3, -6, -27, -2, -1
1503525271815,+0.553,-0.355,+0.437,-0.614,-0.888,-0.065,-0.271,-2.625,+28.250,+16.812,-1, -3, -2, -9, -8, -22, -2, -4
1503525271838,+0.553,-0.355,+0.435,-0.616,-0.929,-0.055,-0.275,-5.250,+18.125,+12.438,-1, -1, -5, -7, 0, -1, -11, 1
1503525271861,+0.553,-0.355,+0.433,-0.617,-0.960,-0.023,-0.361,-7.312,+8.125,+9.250,0, -2, -4, -12, -4, 2, 2, -1
1503525271883,+0.553,-0.355,+0.431,-0.619,-0.936,-0.017,-0.399,-3.438,+7.250,+4.750,0, 1, 0, -1, -2, -15, -8, 4
1503525271899,+0.553,-0.355,+0.429,-0.620,-0.926,-0.053,-0.334,-4.062,+11.875,+9.562,-6, -4, -4, -4, 0, 0, -4, -6
1503525271914,+0.553,-0.355,+0.428,-0.621,-0.943,-0.060,-0.321,-5.750,+7.500,+8.438,0, 0, -1, 0, 2, 12, -7, -2
1503525271935,+0.553,-0.356,+0.427,-0.621,-0.966,-0.022,-0.377,-4.562,-1.375,+7.812,0, -3, 0, -1, -6, -24, 4, -5
1503525271958,+0.553,-0.355,+0.426,-0.622,-0.988,-0.032,-0.420,-0.750,+4.312,+1.125,1, -5, -4, -6, 7, -1, 6, -2
1503525271973,+0.554,-0.354,+0.425,-0.622,-0.982,-0.048,-0.388,-2.688,+11.938,-2.000,2, -14, -6, -8, -6, -3, -10, -8
1503525271995,+0.556,-0.352,+0.423,-0.623,-0.923,-0.053,-0.353,-3.000,+12.750,+0.000,0, 1, -2, -7, 1, 6, 4, -1
1503525272018,+0.556,-0.352,+0.423,-0.623,-0.922,-0.041,-0.334,-4.250,+6.062,+0.750,-1, 0, -5, -4, -2, -11, -2, -1
1503525272033,+0.557,-0.352,+0.423,-0.622,-0.961,-0.028,-0.378,-3.062,-1.812,-2.562,-4, 1, -4, -7, -10, -15, -2, 0
1503525272055,+0.557,-0.352,+0.423,-0.622,-0.999,-0.034,-0.396,-4.000,-0.562,-1.438,1, 0, 3, 6, -5, -8, -3, 2
1503525272078,+0.558,-0.352,+0.422,-0.622,-0.941,-0.022,-0.396,-2.750,+5.125,-1.125,1, 1, -2, -2, -4, 1, 3, 1
1503525272093,+0.558,-0.351,+0.420,-0.624,-0.885,-0.018,-0.352,+1.125,+10.375,+3.062,1, -2, -2, -4, -1, -2, -3, 4
1503525272116,+0.558,-0.351,+0.420,-0.624,-0.886,-0.041,-0.326,-0.125,+1.125,+4.125,0, -1, 1, 2, 0, 4, 3, -8
1503525272141,+0.557,-0.352,+0.421,-0.623,-0.939,-0.030,-0.362,+0.000,-8.625,+2.125,-2, 0, 0, 2, -2, -3, 0, -4
1503525272153,+0.556,-0.352,+0.422,-0.624,-0.975,-0.046,-0.395,-1.438,-4.000,+4.750,0, 2, -3, -10, -2, -23, -5, 1
1503525272176,+0.556,-0.352,+0.420,-0.624,-0.950,-0.025,-0.381,-1.688,+6.688,+4.375,-5, -1, -1, 0, 0, 2, -1, -2
1503525272198,+0.556,-0.351,+0.419,-0.626,-0.911,-0.026,-0.371,+1.750,+8.625,+10.062,1, -3, 2, 2, -2, 5, 1, 1
1503525272213,+0.555,-0.351,+0.419,-0.627,-0.893,-0.028,-0.342,-1.625,+2.438,+5.625,1, 1, -1, -2, -2, -7, -1, 4
1503525272235,+0.555,-0.353,+0.419,-0.626,-0.957,-0.019,-0.353,-3.562,-5.125,+3.000,-2, 1, 1, 8, 2, 13, 1, -3
1503525272258,+0.555,-0.353,+0.419,-0.626,-0.997,-0.019,-0.367,-5.812,-0.250,+2.062,-2, -3, -4, -3, 3, 8, -4, -3
1503525272275,+0.556,-0.353,+0.417,-0.627,-0.985,-0.003,-0.373,-2.750,+12.125,+0.750,-6, -3, -4, -7, 2, 3, 8, 1
1503525272295,+0.557,-0.351,+0.415,-0.628,-0.933,-0.014,-0.397,+0.062,+15.500,+1.812,4, -5, -3, -4, -3, 9, -11, -1
1503525272319,+0.558,-0.350,+0.414,-0.629,-0.908,-0.021,-0.377,-1.562,+11.562,-2.188,-9, -1, -2, -4, -1, -2, -3, -6
1503525272333,+0.558,-0.349,+0.413,-0.629,-0.929,-0.041,-0.335,-5.125,+9.750,+0.500,1, 1, 3, 3, -3, -12, 1, -2
1503525272355,+0.559,-0.349,+0.412,-0.629,-0.941,-0.013,-0.357,-7.375,+7.625,-1.375,-1, -3, 0, 0, -2, 0, 8, -1
1503525272378,+0.560,-0.349,+0.410,-0.629,-0.960,+0.010,-0.406,-3.562,+9.375,+1.625,-3, 0, -3, 3, 9, 10, 1, -7
1503525272393,+0.561,-0.347,+0.409,-0.631,-0.946,-0.014,-0.410,+0.688,+18.125,+0.625,-3, -1, 1, -2, 2, 2, -1, -6
1503525272416,+0.562,-0.345,+0.407,-0.632,-0.870,-0.017,-0.432,+1.875,+13.562,+2.188,0, 1, -7, -10, -5, -1, -4, 3
1503525272438,+0.562,-0.345,+0.406,-0.633,-0.860,-0.025,-0.375,+0.312,+5.188,+3.062,1, -2, -1, 0, 3, 13, 5, 0
1503525272453,+0.561,-0.345,+0.407,-0.632,-0.892,-0.031,-0.369,-0.562,-6.438,-0.125,-4, 1, 0, 2, 0, -2, -12, -4
1503525272477,+0.560,-0.346,+0.408,-0.632,-0.947,+0.016,-0.418,+0.562,-12.750,+3.812,1, 0, 2, 2, -6, -6, 5, 3
1503525272498,+0.559,-0.346,+0.408,-0.633,-0.995,+0.009,-0.454,+4.125,-2.062,+4.312,7, 4, 0, 1, 3, 4, 3, 2
1503525272514,+0.559,-0.345,+0.408,-0.634,-0.966,-0.001,-0.422,+4.438,+11.375,+2.250,2, 2, 2, -2, 4, 1, 1, 4
1503525272535,+0.559,-0.344,+0.407,-0.636,-0.900,+0.000,-0.384,+4.875,+11.250,+2.812,3, 0, 5, 7, -3, -2, -1, -2
1503525272558,+0.559,-0.342,+0.407,-0.636,-0.886,-0.010,-0.395,+6.312,+1.688,-2.688,1, 1, -4, -5, -2, -4, -11, -3
1503525272573,+0.559,-0.342,+0.409,-0.635,-0.932,+0.015,-0.435,+7.500,-10.500,-9.188,-4, -6, -4, -1, -1, -1, -14, -5
1503525272595,+0.559,-0.340,+0.411,-0.634,-1.006,+0.012,-0.445,+11.312,-5.375,-12.000,-1, -2, -2, 2, 0, -5, 3, 0
1503525272618,+0.560,-0.337,+0.413,-0.634,-1.023,-0.016,-0.422,+15.062,+6.625,-14.062,0, -2, -2, 2, 3, -3, 4, 1
1503525272640,+0.560,-0.333,+0.415,-0.634,-0.935,-0.027,-0.397,+18.250,+7.250,-15.750,-2, -1, 1, -3, -2, -1, 3, -3
1503525272655,+0.561,-0.330,+0.418,-0.634,-0.903,-0.044,-0.429,+19.812,-0.438,-18.125,1, -2, -2, -1, 0, 6, 2, -1
1503525272678,+0.562,-0.325,+0.421,-0.634,-0.992,-0.025,-0.500,+26.500,-1.500,-23.750,4, 18, 3, -1, -2, -7, 5, 10
1503525272700,+0.563,-0.319,+0.424,-0.634,-1.052,-0.056,-0.493,+32.062,+13.812,-23.875,0, -4, -1, 0, -1, 1, -2, 5
1503525272716,+0.564,-0.311,+0.426,-0.636,-0.957,-0.089,-0.430,+36.125,+22.875,-22.938,-1, -3, -2, 1, -2, 1, 0, -1
1503525272738,+0.564,-0.303,+0.430,-0.637,-0.871,-0.073,-0.423,+42.500,+16.562,-23.312,-3, -2, -1, 1, 0, -1, -5, -6
1503525272760,+0.563,-0.295,+0.435,-0.637,-0.911,-0.100,-0.489,+48.062,-0.062,-24.812,-4, -4, -3, -4, 0, 2, 3, -1
1503525272777,+0.563,-0.287,+0.441,-0.638,-1.003,-0.121,-0.501,+51.688,+4.250,-27.625,0, -2, -2, -1, -3, -3, -2, 18
1503525272798,+0.562,-0.277,+0.445,-0.640,-0.983,-0.138,-0.449,+55.625,+20.688,-26.938,-4, 0, -1, 1, 2, 1, 2, -18
1503525272821,+0.561,-0.266,+0.450,-0.642,-0.873,-0.137,-0.440,+62.500,+18.938,-25.562,-10, -7, 1, 1, -2, -1, 2, -3
1503525274816,+0.509,-0.308,+0.570,-0.566,-0.958,-0.234,-0.116,+2.750,-21.375,+0.062,0, 0, 5, 4, 3, -8, 5, 9
1503525274838,+0.507,-0.309,+0.571,-0.566,-0.968,-0.211,-0.121,+3.812,-12.125,+5.125,-1, 1, 1, 1, 3, -7, -3, -17
1503525274860,+0.506,-0.310,+0.572,-0.567,-0.964,-0.230,-0.122,+2.438,-6.375,+12.438,3, -1, 2, 12, 10, 16, 6, -1
1503525274876,+0.504,-0.313,+0.571,-0.567,-0.932,-0.231,-0.089,-3.875,-6.000,+18.125,-4, -3, -5, -11, -8, -7, -3, -2
1503525274898,+0.503,-0.315,+0.571,-0.568,-0.952,-0.218,-0.083,-5.312,-4.312,+16.438,-2, -5, -7, -12, -3, 7, -7, -17
1503525274920,+0.502,-0.317,+0.570,-0.568,-1.000,-0.223,-0.091,-8.000,-1.125,+14.625,3, 5, 7, 16, -2, -15, 0, 12
1503525274936,+0.502,-0.319,+0.567,-0.570,-0.999,-0.228,-0.097,-14.562,+9.188,+17.812,-2, -2, -2, -3, 7, 23, 6, -13
1503525274961,+0.502,-0.322,+0.563,-0.572,-0.947,-0.227,-0.072,-17.938,+17.062,+22.938,0, 3, -2, -6, -1, 0, 4, -17
1503525274980,+0.503,-0.324,+0.559,-0.574,-0.924,-0.218,-0.084,-20.938,+17.188,+24.125,-20, -12, -7, -13, 1, 9, -3, 31
1503525275001,+0.503,-0.328,+0.555,-0.576,-0.945,-0.173,-0.082,-24.312,+8.625,+22.500,8, 20, 0, -7, 7, 1, 10, 21
1503525275018,+0.504,-0.332,+0.550,-0.577,-0.969,-0.141,-0.129,-26.562,+7.375,+22.062,2, 0, 1, -3, 1, 17, 10, -6
1503525275040,+0.505,-0.336,+0.546,-0.578,-0.991,-0.159,-0.161,-27.312,+10.000,+18.875,4, 0, 8, 13, -4, -5, -14, -20
1503525275056,+0.507,-0.338,+0.541,-0.580,-0.998,-0.162,-0.165,-25.812,+16.250,+20.188,-3, 0, 4, 6, 2, 2, -16, -13
1503525275078,+0.508,-0.341,+0.536,-0.582,-1.010,-0.171,-0.133,-29.000,+19.125,+21.688,-2, -7, -5, -9, -5, -5, 21, 60
1503525275102,+0.510,-0.345,+0.530,-0.584,-1.025,-0.153,-0.153,-29.500,+21.250,+26.250,0, 1, 0, 1, -9, -8, 5, 75
1503525275116,+0.512,-0.346,+0.522,-0.588,-1.041,-0.132,-0.188,-27.500,+40.375,+22.500,7, 1, 1, 9, 1, -3, -2, 9
1503525275138,+0.515,-0.348,+0.515,-0.590,-0.927,-0.146,-0.140,-32.312,+31.438,+21.062,2, 1, -1, -6, 3, 8, -6, -65
1503525275163,+0.516,-0.352,+0.510,-0.592,-0.923,-0.095,-0.171,-32.375,+15.938,+24.438,4, -1, -4, -3, -3, -2, 6, 11
1503525275176,+0.517,-0.355,+0.503,-0.594,-0.975,-0.084,-0.229,-27.625,+19.375,+25.375,-4, 1, 6, 14, 12, 34, 9, -20
1503525275199,+0.518,-0.359,+0.497,-0.596,-0.966,-0.074,-0.188,-30.125,+16.750,+27.812,-1, -3, -2, -4, 2, 25, 11, 1
1503525275220,+0.518,-0.362,+0.492,-0.599,-0.957,-0.034,-0.233,-25.875,+14.250,+26.312,-1, -2, 3, 10, -3, -16, -4, -17
1503525275243,+0.518,-0.365,+0.487,-0.600,-1.009,-0.053,-0.241,-23.000,+10.875,+21.875,0, 0, -4, -8, -5, -9, -5, -12
1503525275258,+0.518,-0.369,+0.483,-0.602,-1.045,-0.044,-0.242,-22.500,+8.812,+21.438,-12, -3, -1, -3, -2, -1, -14, -25
1503525275280,+0.519,-0.369,+0.477,-0.606,-0.991,-0.010,-0.277,-11.750,+32.312,+24.438,2, -1, -1, 1, 1, 9, -3, -19
1503525275299,+0.519,-0.369,+0.469,-0.612,-0.928,-0.034,-0.271,-10.125,+42.312,+35.000,-4, -3, -2, 2, 6, 17, -8, -5
1503525275318,+0.519,-0.369,+0.462,-0.617,-0.942,-0.014,-0.273,-12.688,+36.500,+32.250,-2, -2, -2, -2, -5, -18, -11, -17
1503525275340,+0.519,-0.370,+0.458,-0.619,-0.979,+0.004,-0.268,-12.812,+15.812,+18.250,-3, -3, -2, -3, -5, -3, 2, -1
1503525275356,+0.519,-0.373,+0.456,-0.620,-0.943,+0.014,-0.294,-16.312,-4.250,+13.312,-2, 0, 2, 4, 0, -10, -5, 5
1503525275379,+0.517,-0.376,+0.454,-0.620,-0.931,+0.045,-0.305,-12.688,-5.500,+18.875,-1, 1, 1, -2, 2, -6, -1, -3
1503525275400,+0.516,-0.378,+0.451,-0.622,-0.989,-0.003,-0.297,-8.688,+7.250,+19.625,-1, -3, -1, 1, -1, 2, 2, 3
1503525275416,+0.516,-0.379,+0.448,-0.624,-1.033,-0.034,-0.263,-11.875,+9.062,+19.312,1, 1, 1, 3, -4, -11, 1, 1
1503525275438,+0.516,-0.381,+0.445,-0.625,-0.989,+0.013,-0.298,-11.625,+9.750,+15.062,-4, 2, 7, 12, -3, -1, -19, -7
1503525275465,+0.516,-0.381,+0.443,-0.626,-0.936,+0.034,-0.308,-9.188,+7.312,+11.188,-11, -7, -5, -4, 0, -4, -5, -11
1503525275476,+0.516,-0.382,+0.441,-0.627,-0.967,+0.012,-0.255,-8.625,+8.125,+9.375,-1, -2, -2, -5, -4, 4, -4, -12
1503525275500,+0.517,-0.382,+0.439,-0.628,-0.971,+0.021,-0.286,-5.938,+8.062,+6.688,2, 0, -6, -8, -4, 19, 4, 2
1503525275521,+0.516,-0.383,+0.437,-0.629,-0.938,+0.040,-0.316,-4.875,+7.312,+11.250,1, -2, 1, -3, -2, -9, 3, 2
1503525275536,+0.516,-0.383,+0.435,-0.631,-0.959,+0.064,-0.311,-3.875,+11.188,+12.062,9, 2, -4, -5, -1, -6, 10, -2
1503525275570,+0.516,-0.383,+0.433,-0.632,-0.965,+0.060,-0.290,-1.312,+13.062,+6.188,0, 2, 2, 3, -1, -11, 12, 10
1503525275581,+0.516,-0.382,+0.432,-0.633,-0.933,+0.056,-0.293,-2.188,+6.438,+3.688,-2, 0, -4, -2, -4, -7, -10, -2
1503525275598,+0.516,-0.382,+0.431,-0.634,-0.923,+0.072,-0.340,+0.875,+4.000,+4.375,0, -2, 0, 1, 0, -3, 13, 4
1503525275619,+0.516,-0.382,+0.430,-0.635,-0.975,+0.047,-0.320,+1.562,+5.000,+7.312,-2, 1, 1, 5, 2, -2, 0, -2
1503525275641,+0.516,-0.381,+0.430,-0.636,-1.030,+0.009,-0.277,+1.750,+7.938,+3.625,-5, -6, -4, -7, -1, 4, -20, -4
1503525275656,+0.516,-0.381,+0.430,-0.636,-0.979,+0.020,-0.258,-1.688,+5.750,+0.562,0, 1, -1, 1, 2, 20, -1, -1
1503525275679,+0.516,-0.380,+0.429,-0.637,-0.930,+0.052,-0.306,+1.250,+2.312,+2.375,1, 1, 2, -2, -1, -4, 8, 16
1503525275701,+0.515,-0.380,+0.429,-0.637,-0.959,+0.021,-0.338,+2.562,-0.125,+3.938,-2, 0, -1, 1, 3, 4, -4, -4
1503525275723,+0.515,-0.380,+0.430,-0.637,-1.014,+0.005,-0.312,-0.938,-0.625,+4.188,-2, -3, -5, -7, -2, 9, -17, -10
1503525275739,+0.515,-0.380,+0.429,-0.637,-1.010,+0.038,-0.306,-3.312,+3.500,+5.188,-2, -2, 0, 2, 19, -4, 2, -3
1503525275761,+0.515,-0.380,+0.428,-0.638,-0.938,+0.073,-0.325,-0.062,+5.812,+4.062,-3, -3, 1, 0, -4, -6, -1, -6
1503525275776,+0.515,-0.379,+0.427,-0.640,-0.939,+0.045,-0.333,+2.000,+5.375,+5.625,0, 2, -1, 0, -2, -3, -2, -3
1503525275799,+0.515,-0.379,+0.427,-0.640,-0.973,+0.029,-0.310,+0.750,+3.688,+4.312,0, 0, 0, 2, 3, -5, -1, -6
1503525275821,+0.515,-0.378,+0.426,-0.640,-0.995,+0.020,-0.299,-0.188,+5.938,+1.188,1, 1, 2, 0, 2, 23, 5, 4
1503525275837,+0.515,-0.378,+0.425,-0.641,-0.977,+0.050,-0.313,-2.062,+7.250,+3.125,2, 0, 0, -1, -6, -13, 0, 0
1503525275867,+0.515,-0.377,+0.424,-0.642,-0.945,+0.063,-0.337,+1.812,+8.625,+1.438,-1, -1, -3, 0, 5, 3, -3, 0
1503525275881,+0.516,-0.376,+0.424,-0.643,-0.932,+0.034,-0.327,+1.875,+4.000,+0.375,-1, -1, 0, 0, 7, -9, -15, -6
1503525275896,+0.516,-0.376,+0.425,-0.642,-0.967,+0.003,-0.286,-1.312,+0.188,-1.188,-2, 0, -1, 1, 11, 25, -8, -2
1503525275919,+0.516,-0.377,+0.426,-0.641,-0.965,+0.038,-0.288,-4.875,-6.875,-2.438,0, -5, 3, -3, -5, -11, -11, 4
1503525275943,+0.516,-0.377,+0.427,-0.640,-0.947,+0.070,-0.325,-1.000,-7.750,-0.750,3, -1, -1, -5, -4, 7, 9, 2
1503525275956,+0.515,-0.377,+0.427,-0.641,-0.965,+0.051,-0.338,+1.000,-1.438,+3.375,-1, 3, 8, 7, 1, -21, -6, 0
1503525275979,+0.515,-0.377,+0.427,-0.641,-0.967,+0.040,-0.340,+2.312,+2.000,+1.688,-8, -9, -21, -19, -9, -14, -4, -9
1503525276001,+0.515,-0.376,+0.427,-0.641,-0.949,+0.024,-0.311,+2.375,+1.438,+2.062,0, 1, 12, 15, 6, 4, -4, 1
1503525276016,+0.515,-0.375,+0.427,-0.641,-0.975,+0.008,-0.289,+0.188,+4.625,+0.938,-2, -1, 6, 10, 2, 3, 0, -3
1503525276039,+0.516,-0.375,+0.427,-0.641,-0.988,+0.022,-0.300,-2.000,+6.250,-0.500,-5, -1, 1, -2, -3, -5, -5, -6
1503525276061,+0.517,-0.374,+0.425,-0.642,-0.950,+0.049,-0.337,-2.875,+7.812,-0.375,-1, -2, -4, -1, -9, -2, 9, 5
1503525276078,+0.518,-0.373,+0.424,-0.643,-0.945,+0.050,-0.345,-1.875,+11.250,-0.188,0, 0, 4, -2, 2, 1, -3, -2
1503525276101,+0.518,-0.372,+0.423,-0.643,-0.944,+0.041,-0.316,-2.188,+9.000,-2.000,2, 3, -9, -7, 0, 5, -1, -2
1503525276121,+0.519,-0.372,+0.423,-0.643,-0.933,+0.046,-0.293,-3.625,+2.812,-3.562,-1, -2, -3, -1, 1, 1, -2, 1
1503525276136,+0.519,-0.373,+0.423,-0.642,-0.901,+0.045,-0.299,-3.062,-3.500,-2.062,-3, -2, -3, -4, -2, -3, -2, 6
1503525276159,+0.519,-0.373,+0.424,-0.642,-0.906,+0.046,-0.342,-2.188,-8.062,+1.625,6, -4, 11, 35, 3, 5, 2, 1
1503525276181,+0.518,-0.374,+0.424,-0.642,-0.941,+0.061,-0.362,-0.062,-8.812,+4.812,7, 0, 6, -2, -1, 6, 13, 11
1503525276197,+0.517,-0.375,+0.424,-0.642,-0.952,+0.052,-0.343,+1.312,-4.250,+8.062,5, -4, -10, -8, -3, -4, 1, -1
1503525276219,+0.516,-0.375,+0.424,-0.643,-0.958,+0.053,-0.331,+2.250,+1.875,+7.938,2, 2, -15, -17, -2, -1, -14, 1
1503525276242,+0.515,-0.375,+0.423,-0.644,-0.958,+0.049,-0.340,+2.188,+3.125,+6.812,3, 20, 29, 2, 1, 0, 5, -2
1503525276256,+0.515,-0.374,+0.423,-0.645,-0.953,+0.055,-0.347,+3.188,+3.688,+3.188,-6, -11, -1, 1, 2, 0, 2, -6
1503525276279,+0.515,-0.373,+0.423,-0.646,-0.970,+0.044,-0.325,+3.250,+5.938,+1.375,7, -5, 5, 20, -1, 1, -1, 6
1503525276303,+0.515,-0.372,+0.423,-0.646,-0.960,+0.048,-0.322,+3.438,+6.625,-1.812,2, -35, -12, -8, -4, -1, -6, -1
1503525276316,+0.516,-0.370,+0.423,-0.647,-0.944,+0.037,-0.308,+3.562,+6.438,-1.875,2, -2, -4, -8, -1, 3, 9, -1
1503525276340,+0.516,-0.370,+0.423,-0.647,-0.951,+0.025,-0.323,+2.375,+3.812,-1.062,-8, 3, 3, 7, 0, -2, -5, -1
1503525276361,+0.516,-0.369,+0.423,-0.647,-0.955,+0.035,-0.338,+2.312,+0.625,-0.250,2, 5, 1, -4, 0, 1, 3, 0
1503525276376,+0.516,-0.368,+0.423,-0.648,-0.963,+0.045,-0.341,+3.938,+2.000,+1.625,-10, -7, 1, 0, -1, 0, -4, -8
1503525276399,+0.515,-0.367,+0.423,-0.648,-0.951,+0.042,-0.340,+4.375,+4.312,+3.688,-11, -8, -10, 0, -1, 0, -12, -9
1503525276421,+0.515,-0.367,+0.423,-0.650,-0.949,+0.030,-0.317,+4.062,+6.875,+5.812,1, 7, 4, -4, 2, 0, 8, 1
1503525276440,+0.514,-0.366,+0.423,-0.650,-0.941,+0.029,-0.319,+3.188,+4.812,+5.625,-2, -4, -10, -1, -3, -2, -1, 1
1503525276459,+0.514,-0.366,+0.423,-0.651,-0.926,+0.029,-0.332,+2.250,-0.062,+4.375,-3, 4, 3, -3, 0, -3, 0, -1
1503525276481,+0.513,-0.366,+0.423,-0.651,-0.936,+0.037,-0.347,+1.062,-3.062,+2.812,-9, 3, 10, -2, -2, 0, -2, 0
1503525276496,+0.513,-0.366,+0.423,-0.651,-0.961,+0.066,-0.348,+1.125,-2.062,+1.750,4, 13, -8, -5, 0, -3, -3, 7
1503525276519,+0.512,-0.366,+0.423,-0.652,-0.988,+0.063,-0.351,+2.938,+3.312,+2.812,7, -2, 12, 2, 2, 4, 0, 5
1503525276543,+0.512,-0.364,+0.422,-0.653,-0.986,+0.046,-0.363,+4.625,+11.562,+1.438,2, 2, -13, 6, 18, 21, 1, -7
1503525276556,+0.513,-0.362,+0.421,-0.654,-0.959,+0.048,-0.369,+3.625,+13.750,-0.875,-7, -5, -11, -9, -7, -5, -2, -6
1503525276580,+0.514,-0.360,+0.420,-0.655,-0.918,+0.051,-0.364,+4.688,+10.625,-1.625,-19, -4, -27, -25, -1, 9, 2, -4
1503525276601,+0.514,-0.359,+0.421,-0.656,-0.916,+0.041,-0.346,+4.938,+2.562,-2.125,4, 3, -4, 2, -9, -9, 0, 3
1503525276616,+0.514,-0.358,+0.422,-0.656,-0.936,+0.036,-0.350,+5.188,-1.438,-2.938,-1, -1, -4, 1, 7, 8, 1, -1
1503525276641,+0.514,-0.358,+0.423,-0.655,-0.963,+0.042,-0.352,+4.500,-2.062,-3.312,-2, -8, 0, 5, 2, 19, 7, 3
1503525276661,+0.513,-0.357,+0.423,-0.656,-0.968,+0.051,-0.364,+5.812,+2.062,-1.750,1, -1, -10, -8, -12, -18, -3, -6
1503525276676,+0.513,-0.355,+0.423,-0.657,-0.951,+0.050,-0.372,+9.312,+7.312,-1.062,-8, 1, -3, -5, -7, -10, -5, -8
1503525276699,+0.513,-0.353,+0.423,-0.659,-0.944,+0.046,-0.380,+11.000,+9.500,+1.188,-8, 2, -1, 1, -3, -2, -2, -1
1503525276721,+0.513,-0.350,+0.423,-0.660,-0.966,+0.060,-0.392,+12.000,+11.875,-1.250,10, 2, -1, -7, -11, 15, 8, 28
1503525276745,+0.513,-0.346,+0.422,-0.662,-0.977,+0.053,-0.391,+14.438,+17.562,-5.375,-5, -2, -5, -19, -9, -24, -6, -5
1503525276759,+0.514,-0.343,+0.422,-0.664,-0.969,+0.051,-0.409,+16.688,+17.375,-6.375,2, 0, -2, -3, -3, 0, 15, -3
1503525276782,+0.514,-0.338,+0.422,-0.666,-0.953,+0.045,-0.429,+22.562,+18.875,-7.625,0, 2, 1, 11, 27, 25, -1, -6
1503525276806,+0.515,-0.331,+0.422,-0.668,-0.952,+0.008,-0.442,+24.688,+21.062,-14.125,2, 0, 0, 4, -10, -8, -3, -10
1503525276826,+0.516,-0.326,+0.425,-0.669,-0.930,+0.010,-0.433,+28.125,+7.125,-18.875,3, 14, 4, 6, 2, -18, -4, 2
1503525276841,+0.516,-0.320,+0.428,-0.669,-0.923,+0.003,-0.427,+33.875,+0.875,-18.938,2, -6, -8, -11, -4, 3, -3, 1
1503525276862,+0.516,-0.314,+0.432,-0.670,-0.989,+0.004,-0.465,+40.375,+3.500,-22.938,-6, -10, -3, 1, 2, -2, -10, -2
1503525276881,+0.515,-0.306,+0.437,-0.671,-1.005,-0.021,-0.440,+44.625,+6.625,-22.750,-1, 4, 4, 13, 40, 43, 2, -7
1503525276900,+0.515,-0.298,+0.441,-0.672,-0.970,-0.039,-0.446,+49.000,+13.062,-22.438,1, 6, 6, -15, -16, -20, -7, 0
1503525281281,+0.433,-0.252,+0.493,-0.712,-0.936,-0.072,-0.349,-2.062,-0.438,-0.125,4, 3, 2, 2, 11, 26, 12, 7
1503525281304,+0.433,-0.252,+0.493,-0.711,-0.938,-0.066,-0.353,-3.000,-2.062,+0.500,-3, -2, -1, -1, 2, -14, -12, -23
1503525281325,+0.433,-0.253,+0.493,-0.711,-0.951,-0.058,-0.353,-2.812,-1.000,+0.875,1, -6, -2, -3, -6, -9, 2, -6
1503525281341,+0.433,-0.253,+0.493,-0.711,-0.953,-0.058,-0.365,-1.562,-0.875,+1.750,-1, 2, -2, 1, 6, 7, -1, 6
1503525281363,+0.432,-0.253,+0.493,-0.712,-0.947,-0.070,-0.360,-0.750,+1.188,+2.000,3, 1, -1, -3, -14, -3, 2, 32
1503525281386,+0.432,-0.253,+0.493,-0.712,-0.937,-0.073,-0.359,-0.375,+0.188,+1.688,0, 1, -2, -1, -4, -13, -5, -16
1503525281401,+0.432,-0.253,+0.493,-0.712,-0.948,-0.062,-0.354,-0.500,-0.375,+0.625,-5, -5, -2, 0, 10, 5, -12, -11
1503525281423,+0.432,-0.253,+0.493,-0.711,-0.948,-0.072,-0.349,-0.750,-1.500,-0.188,-2, -7, -1, -3, -7, -13, 3, -7
1503525281447,+0.433,-0.253,+0.493,-0.711,-0.946,-0.065,-0.350,-1.375,-0.750,-1.000,-2, -1, 1, -1, 0, -4, -2, -1
1503525281461,+0.433,-0.253,+0.493,-0.711,-0.943,-0.059,-0.357,-0.500,+0.812,-0.375,0, 3, 1, -1, -9, 13, 3, -13
1503525281483,+0.433,-0.252,+0.493,-0.711,-0.943,-0.065,-0.360,-0.938,+1.750,-0.562,-1, 6, 0, 1, -2, -16, -9, -12
1503525281506,+0.433,-0.252,+0.493,-0.711,-0.933,-0.067,-0.353,-1.688,-0.375,-1.125,-3, 1, 0, -2, 1, -7, -1, 1
1503525281521,+0.433,-0.253,+0.493,-0.711,-0.938,-0.057,-0.352,-1.875,-2.000,-0.375,5, -22, -4, -3, -1, -6, -2, -1
1503525281543,+0.433,-0.253,+0.493,-0.711,-0.946,-0.059,-0.350,-1.625,-2.125,-0.125,-5, -3, -3, 1, 5, 3, 14, 3
1503525281565,+0.433,-0.253,+0.493,-0.711,-0.948,-0.064,-0.354,-0.500,-0.125,+0.750,-2, 1, 1, 2, 5, -6, -5, -8
1503525281582,+0.433,-0.253,+0.493,-0.711,-0.933,-0.076,-0.356,-0.938,-0.188,+1.375,-1, 5, -3, -4, -5, -5, -9, -7
1503525281606,+0.433,-0.253,+0.493,-0.711,-0.944,-0.068,-0.351,-1.438,-0.438,+1.000,2, 13, 1, 0, 1, 3, 2, 2
1503525281626,+0.433,-0.253,+0.493,-0.711,-0.938,-0.060,-0.352,-1.250,-2.062,+0.625,4, -2, -2, -4, -9, -17, -7, 35
1503525281641,+0.433,-0.253,+0.494,-0.711,-0.944,-0.056,-0.355,-0.438,-2.500,+0.812,2, -1, 1, -1, -1, -7, -5, -6
1503525281663,+0.433,-0.253,+0.494,-0.711,-0.944,-0.064,-0.360,+0.188,+0.312,+0.375,-3, 0, -1, -3, -5, -10, 1, -5
1503525281685,+0.433,-0.253,+0.493,-0.711,-0.938,-0.068,-0.345,-0.250,+1.750,+0.125,-2, -3, -2, 0, 0, 4, -12, 0
1503525281701,+0.433,-0.253,+0.493,-0.711,-0.935,-0.066,-0.336,-0.562,+1.625,+0.250,0, -3, 2, 3, 10, 7, 17, -1
1503525281723,+0.433,-0.253,+0.493,-0.711,-0.930,-0.078,-0.356,-0.625,-0.125,+0.000,-1, 0, -1, 1, 0, 11, 1, -6
1503525281746,+0.433,-0.253,+0.493,-0.711,-0.940,-0.078,-0.352,-1.812,-1.062,+0.625,-4, 3, -1, -2, 10, 11, -2, -7
1503525281761,+0.433,-0.253,+0.493,-0.711,-0.944,-0.062,-0.353,-1.812,-1.062,+1.062,-3, -4, -3, -2, -1, 1, -14, 3
1503525281784,+0.433,-0.253,+0.493,-0.711,-0.947,-0.057,-0.354,-0.562,-0.125,+1.125,1, -6, -3, 1, 9, -2, -1, -2
1503525281809,+0.433,-0.253,+0.493,-0.711,-0.950,-0.066,-0.354,+0.062,+0.062,+1.000,1, -1, -3, -3, -2, -19, -8, -6
1503525281822,+0.433,-0.253,+0.493,-0.711,-0.950,-0.067,-0.352,-0.062,+0.188,+0.750,1, 4, 0, -1, 4, 7, 1, -17
1503525281844,+0.433,-0.253,+0.493,-0.711,-0.939,-0.058,-0.348,-0.188,+0.750,+0.500,2, 1, 3, 1, 0, -6, -5, -27
1503525281865,+0.433,-0.253,+0.493,-0.711,-0.937,-0.057,-0.345,-0.062,-0.438,+0.250,2, 0, 0, 1, 7, 8, 6, -5
1503525281884,+0.433,-0.253,+0.493,-0.711,-0.945,-0.058,-0.351,-0.188,-1.188,+0.750,0, 1, 1, 0, 4, 30, 3, 8
1503525281903,+0.433,-0.253,+0.493,-0.711,-0.945,-0.063,-0.357,-1.312,+0.125,+0.000,0, 26, 7, 4, -1, -13, -1, -9
1503525281925,+0.433,-0.253,+0.493,-0.711,-0.940,-0.060,-0.345,-1.375,+0.375,+0.500,0, -15, -4, -3, -1, -9, 1, 19
1503525281942,+0.433,-0.253,+0.493,-0.711,-0.937,-0.062,-0.356,-1.562,+0.875,+0.688,-1, -4, -1, 0, 1, 13, 0, -3
1503525281963,+0.433,-0.253,+0.493,-0.711,-0.943,-0.062,-0.361,-1.750,+2.125,+0.812,-1, 0, -2, -4, -6, -10, 0, 5
1503525281986,+0.433,-0.253,+0.492,-0.711,-0.945,-0.052,-0.349,-2.875,+2.688,+1.312,-2, -1, -2, 1, -1, -6, -15, -8
1503525282001,+0.433,-0.253,+0.492,-0.711,-0.943,-0.044,-0.352,-2.562,+2.438,+0.625,-1, -2, -2, -2, 1, 0, 9, 3
1503525282023,+0.434,-0.253,+0.491,-0.712,-0.944,-0.046,-0.358,-1.750,+4.062,+0.438,0, 15, 1, -4, -7, 2, 22, 3
1503525282046,+0.434,-0.253,+0.490,-0.712,-0.931,-0.061,-0.359,-2.000,+4.875,-1.188,-3, 0, -2, -2, 1, -2, 0, -9
1503525282061,+0.435,-0.253,+0.490,-0.712,-0.928,-0.055,-0.346,-3.375,+3.688,-1.688,3, 4, 1, 3, 5, 5, 3, 3
1503525282082,+0.436,-0.252,+0.490,-0.712,-0.933,-0.063,-0.348,-4.312,+2.812,-3.625,-1, 2, -1, -2, 3, 9, 2, -3
1503525282105,+0.437,-0.252,+0.489,-0.711,-0.945,-0.065,-0.350,-5.500,+1.438,-5.188,2, 2, -3, 0, -4, 1, 3, 8
1503525282127,+0.438,-0.253,+0.489,-0.711,-0.941,-0.062,-0.347,-5.562,+3.500,-3.812,-5, -5, 1, 0, -2, -9, -1, -20
1503525282144,+0.439,-0.252,+0.488,-0.711,-0.933,-0.076,-0.357,-6.000,+6.000,-1.562,-3, -4, 1, 3, -3, 0, 0, -20
1503525282165,+0.440,-0.252,+0.487,-0.711,-0.938,-0.079,-0.359,-6.375,+5.812,-1.250,0, 3, 1, -5, -2, -8, -7, -8
1503525282180,+0.440,-0.253,+0.487,-0.711,-0.947,-0.068,-0.358,-5.625,+3.188,-0.750,-6, 2, 1, -3, -10, -17, -4, -4
1503525282202,+0.441,-0.253,+0.485,-0.711,-0.965,-0.070,-0.385,-4.688,+6.125,+0.375,3, 1, 0, -1, 2, -1, -4, -32
1503525282225,+0.442,-0.252,+0.484,-0.712,-0.958,-0.089,-0.379,-4.438,+10.375,-1.188,0, 2, 1, 1, 9, 21, 3, 4
1503525282240,+0.443,-0.251,+0.483,-0.712,-0.934,-0.083,-0.379,-4.125,+10.062,-2.188,3, -2, -3, -3, -2, -9, -7, 12
1503525282262,+0.444,-0.250,+0.482,-0.713,-0.917,-0.087,-0.377,-4.312,+8.500,-3.000,-2, 1, -2, -2, -1, -11, -1, -3
1503525284347,+0.389,-0.285,+0.556,-0.677,-0.980,-0.053,-0.175,-2.375,-0.375,-1.875,0, 2, -2, -3, 0, -1, 0, 24
1503525284363,+0.390,-0.285,+0.556,-0.676,-1.001,-0.067,-0.188,-4.688,-1.000,-3.000,-4, 0, 0, 0, 6, 8, 2, -3
1503525284385,+0.392,-0.285,+0.556,-0.676,-1.012,-0.074,-0.190,-5.812,+4.000,-5.938,2, 0, -1, -2, -10, 2, 21, 13
1503525284407,+0.393,-0.284,+0.555,-0.676,-0.982,-0.073,-0.203,-5.125,+4.250,-5.312,5, -1, 0, -2, -5, -9, -11, -15
1503525284424,+0.395,-0.284,+0.554,-0.676,-0.967,-0.083,-0.189,-8.125,+7.188,-2.562,-3, 0, -1, 0, 0, -8, 0, -12
1503525284445,+0.397,-0.283,+0.553,-0.676,-0.974,-0.090,-0.191,-10.188,+6.562,-5.125,1, -3, -2, 1, 2, 12, -6, -23
1503525284469,+0.399,-0.283,+0.552,-0.676,-0.984,-0.076,-0.202,-9.125,+7.312,-4.438,-4, -1, -4, -4, -6, 20, 3, 15
1503525284483,+0.400,-0.283,+0.551,-0.675,-0.963,-0.082,-0.220,-6.562,+2.250,-2.625,-6, 1, 0, -1, 0, 1, 2, -1
1503525284505,+0.401,-0.283,+0.550,-0.676,-0.953,-0.071,-0.234,-5.062,+2.938,+0.562,-2, -1, 0, -2, -2, -3, 3, -18
1503525284527,+0.401,-0.283,+0.549,-0.676,-0.944,-0.052,-0.192,-5.688,+3.438,+4.750,-5, -2, -4, 3, 4, 9, 13, 3
1503525284543,+0.400,-0.284,+0.549,-0.677,-0.968,-0.033,-0.184,-1.625,-0.250,+7.375,2, 0, -2, -1, 0, 19, -6, 26
1503525284565,+0.399,-0.285,+0.548,-0.677,-0.986,-0.027,-0.195,-0.125,-1.438,+10.000,3, 1, 0, -2, 3, 3, -12, -19
1503525284587,+0.398,-0.287,+0.548,-0.678,-0.980,-0.039,-0.176,-4.062,-0.312,+10.562,2, 0, 1, 0, 2, 4, 10, -26
1503525284603,+0.397,-0.288,+0.547,-0.678,-1.003,-0.010,-0.147,-6.062,+4.312,+6.938,-1, -2, 2, -2, 0, 2, -12, 20
1503525284627,+0.396,-0.289,+0.545,-0.679,-1.041,+0.019,-0.167,-3.125,+8.875,+9.938,-2, 0, -1, 2, 10, 4, -2, -4
1503525284647,+0.396,-0.290,+0.542,-0.682,-1.021,+0.038,-0.178,-6.625,+19.125,+10.250,-3, -3, -2, -2, -7, -27, -33, 4
1503525284670,+0.397,-0.291,+0.539,-0.683,-1.015,-0.001,-0.165,-9.000,+20.688,+3.375,-1, 0, -2, -1, 5, 5, 4, 2
1503525284695,+0.398,-0.292,+0.537,-0.684,-0.984,-0.007,-0.172,-12.000,+11.875,+3.062,5, 1, 1, -4, -3, -2, -9, 0
1503525284707,+0.399,-0.293,+0.535,-0.684,-1.006,+0.005,-0.201,-12.125,+9.500,+2.625,-4, 0, -2, 0, 1, 19, -18, 5
1503525284723,+0.401,-0.294,+0.533,-0.685,-1.031,+0.000,-0.223,-12.625,+14.312,+4.562,-2, 0, 2, -1, -5, -16, -4, -33
1503525284745,+0.402,-0.294,+0.529,-0.687,-1.003,-0.018,-0.258,-11.688,+20.938,+4.062,-4, -2, -1, -2, -5, -8, 29, -4
1503525284767,+0.404,-0.294,+0.526,-0.688,-0.952,-0.039,-0.231,-13.312,+20.000,+4.750,-10, -4, -1, 3, -16, -21, 2, 37
1503525284783,+0.406,-0.295,+0.523,-0.689,-0.937,-0.034,-0.220,-15.250,+12.938,+3.562,0, 0, -2, -1, 4, 4, 3, -4
1503525284805,+0.407,-0.296,+0.522,-0.689,-0.952,-0.026,-0.245,-14.062,+4.375,+0.188,5, 0, -1, -6, -11, -15, -2, -6
1503525284831,+0.409,-0.297,+0.522,-0.687,-0.970,-0.028,-0.268,-12.688,-4.750,-3.812,-4, -1, 5, 11, 4, 3, 40, 19
1503525284843,+0.410,-0.298,+0.521,-0.686,-0.979,-0.025,-0.285,-10.562,-4.688,-3.250,2, 0, -1, 19, 4, 8, -8, -3
1503525284867,+0.411,-0.298,+0.521,-0.686,-1.002,-0.021,-0.264,-9.250,+2.562,-1.562,-1, -2, -3, -5, 0, -1, -13, 3
1503525284887,+0.413,-0.298,+0.520,-0.686,-0.991,-0.023,-0.252,-6.438,+5.750,-2.000,-1, -8, -12, -32, 2, 6, -12, -24
1503525284904,+0.414,-0.298,+0.519,-0.687,-0.979,-0.035,-0.256,-3.812,+6.875,-1.750,-6, -4, -7, -22, -4, -7, -5, -4
1503525284925,+0.415,-0.297,+0.518,-0.687,-0.961,-0.046,-0.274,-3.500,+8.125,-1.625,3, 4, -1, -8, -6, 3, 0, 27
1503525284947,+0.416,-0.296,+0.516,-0.688,-0.946,-0.047,-0.263,-4.375,+8.438,-0.938,5, 2, -1, 4, 6, 5, -12, 44
1503525284964,+0.416,-0.296,+0.516,-0.688,-0.936,-0.035,-0.240,-4.812,+5.312,+2.062,-1, -6, 5, 13, 7, 0, 2, -29
1503525284985,+0.416,-0.296,+0.515,-0.688,-0.972,-0.029,-0.246,-2.312,+1.688,+3.125,1, 3, -2, -2, -2, 2, 1, -2
1503525285007,+0.416,-0.296,+0.515,-0.689,-1.006,-0.026,-0.268,-1.312,+3.500,+5.188,-3, -8, -1, -2, -5, -4, -3, 20
1503525285023,+0.416,-0.296,+0.513,-0.690,-1.000,-0.033,-0.273,-1.562,+9.500,+5.562,-4, 1, -5, -4, 10, 33, 18, -17
1503525285045,+0.417,-0.296,+0.511,-0.691,-0.968,-0.025,-0.254,-4.375,+12.750,+4.312,1, 2, 2, 5, -2, -19, -19, -20
1503525285070,+0.417,-0.296,+0.510,-0.692,-0.943,-0.005,-0.244,-4.688,+8.500,+3.375,-1, 3, -2, -7, -4, -1, -13, -40
1503525285083,+0.417,-0.296,+0.509,-0.692,-0.966,-0.012,-0.257,-3.812,+3.188,+2.500,0, 0, 3, 6, 0, 6, 0, 15
1503525285106,+0.418,-0.297,+0.509,-0.692,-1.021,-0.012,-0.273,-3.625,+3.250,+0.750,-1, 12, 3, -1, -2, -8, -11, -8
1503525285127,+0.418,-0.296,+0.507,-0.693,-1.028,+0.002,-0.298,-2.812,+12.688,+0.938,-2, -3, 0, 2, -1, 8, 4, 1
1503525285143,+0.419,-0.295,+0.504,-0.695,-0.978,-0.006,-0.271,-3.625,+21.062,+2.062,-1, -2, 2, 3, 1, -4, 5, 3
1503525285166,+0.420,-0.294,+0.502,-0.696,-0.936,-0.021,-0.250,-3.875,+17.062,+1.938,-2, -2, -4, 3, 0, 0, 11, -1
1503525285187,+0.421,-0.294,+0.501,-0.696,-0.949,-0.015,-0.277,-4.062,+8.375,-0.125,5, 0, 3, 15, -6, -1, 23, 45
1503525285205,+0.422,-0.294,+0.500,-0.696,-0.979,-0.006,-0.291,-5.875,+4.688,-1.750,2, -2, 2, 3, 32, 67, 8, 18
1503525285226,+0.423,-0.294,+0.499,-0.697,-0.983,-0.006,-0.295,-7.250,+7.938,-0.562,-2, -5, 0, 0, -3, -11, -9, -12
1503525285247,+0.424,-0.294,+0.497,-0.697,-0.966,+0.010,-0.294,-5.938,+11.188,-0.500,-1, 2, 0, -2, -1, -7, 5, -15
1503525285272,+0.425,-0.294,+0.496,-0.698,-0.923,+0.015,-0.290,-4.938,+6.250,-0.250,-4, 0, -8, -9, -9, -6, 13, 36
1503525285285,+0.425,-0.294,+0.496,-0.698,-0.929,-0.001,-0.295,-4.250,-0.750,-1.188,-4, -6, 2, 0, -8, -26, -1, -30
1503525285307,+0.426,-0.295,+0.497,-0.696,-0.983,-0.009,-0.288,-4.188,-7.688,-4.250,0, -2, -2, -2, -2, -13, -4, -15
1503525285323,+0.426,-0.295,+0.497,-0.696,-1.020,+0.027,-0.314,-2.750,-2.375,-6.250,4, 1, 4, 3, 1, -3, -4, -1
1503525285346,+0.427,-0.294,+0.496,-0.696,-1.001,+0.021,-0.323,-0.250,+10.312,-4.688,-3, -4, -9, -19, -9, -5, -2, 1
1503525285371,+0.429,-0.292,+0.495,-0.697,-0.958,+0.002,-0.310,-0.438,+16.062,-5.188,4, 2, 1, 2, -7, 1, 4, 11
1503525285383,+0.430,-0.291,+0.493,-0.698,-0.945,+0.021,-0.307,+0.375,+11.812,-8.562,2, 2, 0, -2, 5, -10, 2, 7
1503525285406,+0.431,-0.289,+0.493,-0.698,-0.980,+0.038,-0.321,+3.125,+10.625,-11.625,-2, -3, -1, -1, -4, -4, -12, -7
1503525285427,+0.433,-0.286,+0.493,-0.699,-1.003,+0.002,-0.341,+7.438,+12.500,-16.812,-1, 3, 3, 4, -2, -1, -1, -3
1503525285443,+0.436,-0.282,+0.493,-0.698,-0.952,-0.026,-0.375,+9.500,+5.500,-24.000,-5, 0, -2, -5, -9, -6, 0, -4
1503525285467,+0.438,-0.279,+0.495,-0.697,-0.976,+0.003,-0.333,+9.312,-0.750,-25.875,4, 6, 2, 0, 4, 9, 9, 19
1503525285487,+0.439,-0.275,+0.497,-0.696,-1.016,+0.000,-0.363,+15.750,+2.500,-26.750,-2, -5, -3, -2, 4, -7, -13, -15
1503525285505,+0.442,-0.269,+0.498,-0.696,-1.034,-0.060,-0.369,+18.375,+13.875,-30.750,-1, -1, -1, 0, -2, -5, 12, 2
1503525285525,+0.445,-0.262,+0.499,-0.696,-0.986,-0.089,-0.347,+18.500,+18.812,-31.625,-2, -1, -1, 0, 3, 2, -3, -7
1503525285547,+0.448,-0.254,+0.500,-0.696,-0.940,-0.073,-0.429,+25.750,+13.188,-39.375,-2, 0, -1, -2, -1, 4, 1, 17
1503525285563,+0.452,-0.246,+0.502,-0.695,-0.985,-0.094,-0.363,+26.938,+16.062,-45.312,-2, -2, 1, -1, -2, 0, -7, -12
1503525287925,+0.543,-0.383,+0.442,-0.602,-0.949,-0.025,-0.296,-0.750,+13.750,+9.188,-2, -5, -3, -5, -13, -37, -4, 24
1503525287947,+0.544,-0.383,+0.440,-0.603,-0.944,-0.048,-0.290,-3.062,+11.938,+7.500,-3, -1, -2, -4, -5, -13, -1, -10
1503525287970,+0.545,-0.382,+0.438,-0.604,-0.983,-0.036,-0.253,-7.812,+13.562,+3.750,-7, -4, -1, -1, 3, 17, -2, 0
1503525287985,+0.546,-0.382,+0.437,-0.604,-0.986,-0.017,-0.272,-7.812,+10.375,-0.500,-4, -8, -6, -10, -11, -16, 6, -3
1503525288007,+0.547,-0.381,+0.435,-0.605,-0.978,-0.025,-0.319,-4.438,+11.688,+1.312,1, 2, 0, -2, 9, 37, 3, 12
1503525288030,+0.549,-0.380,+0.433,-0.606,-0.989,-0.028,-0.339,-3.750,+20.562,+4.938,-8, -5, 3, 6, -2, -2, -7, -14
1503525288044,+0.550,-0.378,+0.430,-0.608,-0.982,-0.027,-0.330,-3.875,+21.438,+2.312,1, 5, 0, 4, 3, 11, -8, 12
1503525288067,+0.551,-0.376,+0.428,-0.609,-0.947,-0.011,-0.327,-1.625,+17.062,+0.188,3, -1, 6, 14, 1, -1, 4, -1
1503525288090,+0.552,-0.375,+0.428,-0.610,-0.894,-0.016,-0.315,+1.250,+4.438,+2.062,-10, -5, 1, 4, -5, -10, -5, 12
1503525288104,+0.550,-0.376,+0.428,-0.610,-0.924,-0.015,-0.306,+4.250,-5.625,+6.312,7, 3, -2, -11, -4, -14, 1, -5
1503525288127,+0.548,-0.377,+0.430,-0.611,-0.983,-0.010,-0.328,+5.750,-10.312,+8.125,1, -1, -5, -6, -5, 3, 4, -8
1503525288153,+0.546,-0.377,+0.430,-0.612,-0.964,-0.002,-0.340,+7.188,-9.062,+10.625,-3, 0, 2, 4, 1, -13, -5, 2
1503525288165,+0.544,-0.378,+0.432,-0.613,-0.930,-0.007,-0.315,+7.812,-11.250,+11.875,3, 2, -1, -2, -2, 28, 3, -29
1503525288187,+0.542,-0.379,+0.434,-0.612,-0.950,-0.019,-0.274,+7.688,-16.188,+7.188,1, 1, -3, -5, -5, -16, -9, -3
1503525288211,+0.540,-0.380,+0.437,-0.611,-0.969,-0.044,-0.252,+5.812,-19.812,+0.812,10, 11, 13, 23, 8, 7, 3, -7
1503525288227,+0.540,-0.380,+0.439,-0.610,-1.097,-0.044,-0.261,+1.000,-6.062,-4.625,1, 2, -8, -17, -4, -9, 0, -36
1503525288247,+0.541,-0.379,+0.439,-0.609,-1.044,+0.000,-0.314,+0.375,+3.438,-10.938,3, -2, 2, 5, 7, 27, 6, 27
1503525288270,+0.542,-0.378,+0.438,-0.610,-0.929,+0.000,-0.281,-1.188,+10.375,-1.250,-1, -3, 2, 10, 5, -10, -1, 22
1503525288286,+0.542,-0.377,+0.437,-0.611,-0.916,-0.024,-0.258,+0.375,+13.812,+2.625,-7, -5, -5, -10, 0, 0, 10, 0
1503525288307,+0.542,-0.376,+0.437,-0.611,-0.927,-0.032,-0.262,-0.062,+6.438,+4.750,-4, -6, -5, -8, -4, -5, 10, 0
1503525288330,+0.542,-0.377,+0.436,-0.612,-0.939,-0.021,-0.271,-4.875,-0.875,+7.062,4, 5, -6, -11, -2, -1, 10, 18
1503525288344,+0.542,-0.378,+0.435,-0.611,-0.963,-0.009,-0.307,-7.000,-0.250,+3.375,-12, -4, -1, 3, 3, 22, -4, -3
1503525288367,+0.542,-0.379,+0.434,-0.611,-0.970,+0.002,-0.308,-7.188,+1.938,+3.250,9, 4, 11, 15, -5, -10, -5, 2
1503525288390,+0.542,-0.379,+0.433,-0.612,-0.953,+0.008,-0.309,-7.062,+4.500,+5.250,-1, 0, 6, 4, -3, -8, -7, 0
1503525288404,+0.543,-0.379,+0.431,-0.612,-0.971,-0.005,-0.312,-6.812,+8.688,+2.125,0, -1, -9, -8, -4, -4, -6, -3
1503525288429,+0.544,-0.379,+0.430,-0.612,-0.976,-0.015,-0.315,-7.062,+7.750,+0.000,3, 2, 4, 2, -1, -6, -6, 0
1503525288450,+0.546,-0.379,+0.429,-0.613,-0.968,-0.012,-0.327,-7.562,+7.438,+0.812,0, -1, -6, -6, -4, -8, -2, 0
1503525288464,+0.547,-0.378,+0.427,-0.613,-0.946,-0.007,-0.338,-5.250,+8.562,+1.500,-3, -4, -4, -6, 0, -6, -8, -11
1503525288488,+0.547,-0.378,+0.426,-0.613,-0.938,-0.007,-0.302,-4.188,+2.812,+3.062,2, -1, -2, -3, -5, -8, 3, -3
1503525288509,+0.546,-0.379,+0.427,-0.613,-0.929,-0.008,-0.298,-3.375,-4.125,+4.625,-2, -1, 1, -3, -3, 5, 1, -4
1503525288532,+0.545,-0.380,+0.427,-0.613,-0.949,-0.003,-0.325,-1.500,-8.250,+5.375,-4, 12, -7, -7, -3, -7, -24, -5
1503525288547,+0.544,-0.381,+0.427,-0.613,-0.972,+0.000,-0.347,+0.062,-8.250,+6.812,9, 5, 2, 4, -1, 2, -9, 0
1503525288570,+0.543,-0.382,+0.427,-0.614,-0.986,+0.004,-0.328,+0.375,-4.250,+8.500,-5, -1, 1, -1, -1, -2, -10, -10
1503525288587,+0.542,-0.382,+0.427,-0.615,-0.969,+0.015,-0.284,+1.688,+0.812,+8.438,2, 6, 2, 3, 3, 1, 4, 10
1503525288607,+0.541,-0.382,+0.427,-0.616,-0.966,+0.014,-0.290,+5.062,+4.000,+6.375,1, 0, 1, 2, 0, -1, 3, -2
1503525288631,+0.540,-0.381,+0.427,-0.616,-0.959,+0.006,-0.311,+3.875,-1.688,+3.812,-3, 1, -1, -2, -1, -1, 13, 3
1503525288645,+0.541,-0.381,+0.428,-0.616,-0.979,-0.017,-0.308,+0.500,-2.438,-1.188,-2, 4, 4, 9, 11, 9, 1, -1
1503525288667,+0.541,-0.381,+0.429,-0.615,-1.006,-0.008,-0.282,-2.875,-0.375,-4.250,0, 2, 0, -6, -6, -4, -5, -3
1503525288690,+0.542,-0.381,+0.428,-0.615,-0.986,+0.017,-0.300,-2.688,+7.125,-3.938,3, 11, 2, 0, -4, 1, -9, -11
1503525288705,+0.543,-0.379,+0.427,-0.615,-0.961,+0.012,-0.333,-2.000,+10.438,-2.812,-2, -5, 1, 2, 0, 2, 0, -2
1503525288730,+0.545,-0.378,+0.426,-0.616,-0.936,-0.008,-0.319,-4.125,+11.250,-2.000,-6, 0, 0, -3, -1, -4, -2, 6
1503525288749,+0.546,-0.378,+0.425,-0.615,-0.937,-0.012,-0.286,-6.500,+6.000,-3.188,0, -4, -2, -2, -3, -1, 1, -10
1503525288765,+0.547,-0.378,+0.425,-0.615,-0.957,+0.013,-0.286,-7.438,+2.000,-3.125,-2, 1, -3, -2, -2, 11, 2, 6
1503525288790,+0.547,-0.378,+0.424,-0.614,-0.961,+0.028,-0.343,-4.625,+2.562,-2.125,2, 1, -2, -2, 1, 2, 0, 0
1503525288809,+0.548,-0.378,+0.422,-0.615,-0.966,+0.025,-0.362,-3.312,+10.125,-0.125,-8, -4, -3, 0, -2, -3, -9, -10
1503525288826,+0.549,-0.376,+0.420,-0.616,-0.928,+0.021,-0.363,-1.938,+13.312,+0.562,0, 1, 0, -1, -1, -3, -7, -15
1503525288849,+0.550,-0.376,+0.419,-0.617,-0.898,+0.019,-0.308,-2.812,+8.500,+0.938,2, 10, 1, -2, 0, 0, 2, 2
1503525288869,+0.550,-0.376,+0.419,-0.617,-0.900,+0.007,-0.310,-1.812,-0.312,-1.688,-3, -10, -4, -3, -5, -2, -4, -2
1503525288885,+0.550,-0.377,+0.420,-0.616,-0.950,+0.010,-0.319,-2.875,-8.062,-2.000,-3, 0, 1, -2, 2, -2, -6, 1
1503525288907,+0.550,-0.377,+0.420,-0.615,-0.978,+0.006,-0.341,-2.562,-2.938,-1.500,-1, -1, 0, -2, -6, -9, -1, -11
1503525288930,+0.550,-0.376,+0.420,-0.616,-0.959,+0.000,-0.352,-1.375,+4.375,+1.438,5, 2, -2, 2, 2, 2, -13, 4
1503525288945,+0.551,-0.376,+0.419,-0.617,-0.930,-0.002,-0.346,-1.938,+8.188,+3.312,-1, -8, 0, -2, 3, 6, 12, 1
1503525288967,+0.551,-0.376,+0.418,-0.617,-0.919,+0.004,-0.322,-3.562,+4.938,+3.438,3, 2, 0, -2, -3, 0, 5, 2
1503525288992,+0.551,-0.376,+0.417,-0.617,-0.940,+0.001,-0.312,-3.812,+0.188,+1.750,2, -1, 0, 1, 3, 27, 14, 35
1503525289005,+0.551,-0.377,+0.418,-0.616,-0.961,+0.003,-0.320,-4.250,-2.875,-0.625,-1, 1, -4, -4, -13, -16, -2, -12
1503525289030,+0.552,-0.377,+0.417,-0.616,-0.955,+0.005,-0.347,-4.250,-1.062,+0.062,-2, 0, -2, -4, 1, 1, 5, 6
1503525289049,+0.552,-0.377,+0.417,-0.616,-0.954,+0.009,-0.350,-3.188,+3.688,+1.625,-17, -11, -5, -2, 0, -8, -5, -5
1503525289068,+0.552,-0.377,+0.416,-0.617,-0.956,+0.008,-0.333,-2.312,+5.438,+4.125,1, 2, -2, -2, 1, -1, 2, 4
1503525289087,+0.552,-0.376,+0.415,-0.618,-0.964,+0.009,-0.338,-1.500,+7.750,+3.312,2, 3, 1, -4, -5, -12, 5, 28
1503525289109,+0.553,-0.376,+0.414,-0.618,-0.949,-0.000,-0.345,-2.125,+6.375,+2.625,1, 2, 0, 0, 8, 9, 4, -19
1503525289126,+0.553,-0.375,+0.413,-0.618,-0.949,+0.009,-0.342,-2.125,+5.938,+1.312,-4, -6, -4, -3, -10, 1, -8, -10
1503525289147,+0.554,-0.375,+0.412,-0.619,-0.959,+0.013,-0.347,-2.062,+6.188,+0.312,3, 9, -1, -3, -7, -9, -5, 0
1503525289169,+0.554,-0.374,+0.412,-0.619,-0.975,+0.008,-0.351,-1.250,+7.188,-0.250,0, -5, 2, 1, 0, 3, 11, 33
1503525289185,+0.555,-0.373,+0.411,-0.620,-0.973,+0.010,-0.357,-0.375,+9.938,-0.125,3, -2, -1, 3, 1, -5, -1, -20
1503525289207,+0.556,-0.372,+0.410,-0.621,-0.959,+0.005,-0.352,-0.750,+13.438,-0.188,-2, 1, -1, -2, -8, -7, -2, -2
1503525289231,+0.557,-0.371,+0.409,-0.621,-0.938,+0.006,-0.348,-0.812,+11.250,-0.375,-2, 0, 1, -3, 0, -11, -3, -2
1503525289245,+0.557,-0.370,+0.408,-0.621,-0.924,+0.006,-0.354,+0.500,+4.875,-1.938,2, -2, -1, -3, -3, -11, -11, -3
1503525289268,+0.557,-0.369,+0.409,-0.622,-0.930,+0.000,-0.367,+1.188,+0.250,-0.875,-10, 0, -1, 0, 0, 3, 4, -8
1503525289289,+0.557,-0.369,+0.409,-0.621,-0.965,+0.005,-0.371,+1.938,-0.250,-1.500,4, -6, -1, 1, 0, 5, -10, -5
1503525289305,+0.557,-0.368,+0.409,-0.622,-0.963,+0.004,-0.371,+2.938,+1.500,-1.938,1, -2, -2, -2, 6, 8, -7, -1
1503525289333,+0.558,-0.367,+0.409,-0.622,-0.957,+0.006,-0.367,+3.750,+6.625,-2.625,5, 4, 2, 3, 5, -1, -14, 1
1503525289349,+0.558,-0.365,+0.409,-0.623,-0.943,+0.004,-0.375,+6.062,+7.375,-3.312,2, 0, -1, -2, -3, -3, 1, -5
1503525289372,+0.558,-0.363,+0.409,-0.624,-0.945,+0.009,-0.397,+7.812,+7.875,-1.812,-1, 4, -2, 0, 4, 8, 2, -3
1503525289387,+0.559,-0.361,+0.409,-0.625,-0.954,+0.022,-0.388,+8.875,+9.375,-3.125,-16, -12, -1, -1, -1, -4, -5, -1
1503525289409,+0.559,-0.358,+0.409,-0.626,-0.966,+0.042,-0.396,+13.062,+10.562,-6.750,4, 18, 3, -2, 1, 4, 4, 0
1503525289435,+0.559,-0.355,+0.410,-0.627,-0.966,+0.042,-0.429,+18.688,+10.062,-8.000,1, -3, 0, 3, 5, 11, 2, 3
1503525289447,+0.559,-0.350,+0.411,-0.629,-0.967,+0.031,-0.441,+24.125,+11.188,-9.438,-4, -4, -4, -2, -3, -7, 3, -6
1503525289470,+0.559,-0.345,+0.413,-0.631,-0.960,+0.006,-0.441,+29.375,+13.188,-13.250,-1, 0, 2, 0, 0, 4, -5, -8
1503525291592,+0.508,-0.415,+0.463,-0.596,-1.031,+0.035,-0.197,-4.438,+17.250,+10.375,0, 1, -3, -5, -14, -25, -27, 1
1503525291610,+0.510,-0.414,+0.460,-0.598,-1.040,+0.003,-0.209,-4.500,+17.750,+4.062,1, -4, -1, -2, -5, 4, 11, 12
1503525291637,+0.511,-0.412,+0.458,-0.600,-0.981,+0.027,-0.191,+1.000,+21.125,+2.188,-7, 1, -4, -7, 5, 20, 30, -4
1503525291653,+0.510,-0.410,+0.455,-0.604,-0.908,+0.057,-0.261,+8.250,+21.500,+15.562,-7, -2, -3, -4, -4, -15, 18, -5
1503525291668,+0.509,-0.409,+0.452,-0.608,-0.958,+0.049,-0.239,+7.438,+21.250,+23.188,-1, 0, -3, -2, -4, -27, -35, -2
1503525291690,+0.508,-0.407,+0.450,-0.611,-0.999,+0.009,-0.233,+7.125,+14.500,+15.250,-3, -2, -2, -3, -10, -35, -26, 5
1503525291713,+0.507,-0.407,+0.450,-0.612,-1.010,+0.014,-0.205,+2.312,+4.125,+7.375,0, 2, 1, 0, -3, -5, -8, -21
1503525291728,+0.506,-0.407,+0.451,-0.612,-0.952,+0.076,-0.251,+4.312,-7.750,+3.062,-1, 0, -1, -4, -6, -16, 0, 15
1503525291756,+0.505,-0.407,+0.451,-0.613,-0.955,+0.059,-0.261,+7.938,-4.562,+6.562,4, -2, 4, 7, 5, 13, -1, 6
1503525291772,+0.504,-0.406,+0.451,-0.615,-1.034,-0.005,-0.229,+7.625,+2.625,+9.062,5, -1, -4, -5, -4, 1, -11, -5
1503525291788,+0.503,-0.405,+0.451,-0.616,-1.025,+0.017,-0.206,+4.500,+7.938,+8.188,3, 4, 1, 2, 4, 29, 10, 2
1503525291812,+0.503,-0.404,+0.451,-0.617,-0.957,+0.025,-0.212,+3.438,+6.312,+3.875,-5, 2, 1, -3, -17, -35, -3, -4
1503525291833,+0.502,-0.404,+0.451,-0.617,-0.937,+0.039,-0.241,+3.438,-2.500,+3.188,2, 3, 0, 1, 5, 14, -17, -23
1503525291848,+0.501,-0.404,+0.452,-0.617,-0.982,+0.050,-0.242,+5.250,-6.750,+2.000,-6, -1, 3, 1, 0, -8, -4, -3
1503525291871,+0.500,-0.404,+0.453,-0.617,-1.014,+0.042,-0.190,+3.375,-6.000,+3.125,9, 2, -5, -3, -1, 1, -12, 4
1503525291893,+0.500,-0.404,+0.453,-0.618,-1.008,+0.042,-0.219,+5.188,+0.875,+4.688,9, -8, 3, -2, 10, 35, -5, 19
1503525291908,+0.499,-0.403,+0.452,-0.620,-0.982,+0.060,-0.253,+6.250,+10.312,+4.562,-3, -1, 0, 0, -4, 3, 2, 0
1503525291930,+0.499,-0.401,+0.452,-0.621,-0.951,+0.053,-0.227,+5.750,+10.062,+5.812,-3, -3, -4, -4, -6, -9, -2, -5
1503525291953,+0.498,-0.401,+0.451,-0.622,-0.950,+0.046,-0.198,+3.875,+4.500,+4.000,-5, -1, 1, 7, 3, 7, 13, 39
1503525291968,+0.498,-0.401,+0.452,-0.622,-0.983,+0.032,-0.167,-0.500,+3.000,+3.875,-7, 0, -2, -2, 10, 27, -1, -19
1503525291990,+0.498,-0.401,+0.451,-0.623,-0.999,+0.075,-0.217,-2.000,+4.312,+5.375,-1, 2, -3, 0, -5, -24, -1, -9
1503525292014,+0.498,-0.401,+0.449,-0.624,-0.975,+0.094,-0.254,-2.125,+8.938,+6.938,3, 8, 1, -6, -2, -3, -17, -10
1503525292028,+0.498,-0.401,+0.448,-0.625,-0.966,+0.057,-0.240,-3.375,+7.875,+3.875,-6, 0, -2, 9, 0, 3, 8, 9
1503525292052,+0.499,-0.401,+0.447,-0.625,-0.981,+0.058,-0.243,-4.625,+4.500,+1.125,-1, -8, -8, -12, 1, -3, 5, -2
1503525292073,+0.499,-0.401,+0.446,-0.625,-0.991,+0.078,-0.246,-4.125,+2.000,+0.000,-1, 2, 0, -9, 1, -2, 21, 8
1503525292088,+0.500,-0.401,+0.446,-0.625,-0.990,+0.054,-0.245,-1.875,+4.875,+0.125,-4, -5, -2, 5, -7, -15, 0, -5
1503525292114,+0.500,-0.401,+0.445,-0.625,-0.984,+0.042,-0.228,-3.438,+6.812,+0.250,-9, -9, -1, -2, 8, 7, -2, 10
1503525292132,+0.501,-0.400,+0.444,-0.626,-0.960,+0.065,-0.266,-2.688,+3.562,+1.812,-15, -17, -13, -22, -3, 3, -10, 17
1503525292148,+0.501,-0.400,+0.444,-0.626,-0.966,+0.074,-0.271,-1.250,+0.875,+2.438,8, 13, 4, -1, 2, -4, 14, -36
1503525292170,+0.501,-0.400,+0.444,-0.626,-0.984,+0.055,-0.258,+0.000,-2.312,+0.938,-1, 2, -1, -2, 0, 15, 1, 13
1503525292193,+0.500,-0.401,+0.445,-0.626,-0.993,+0.046,-0.240,+0.188,-4.125,+1.062,16, -8, 3, 2, -3, -9, 2, -13
1503525292208,+0.500,-0.400,+0.445,-0.626,-0.983,+0.049,-0.246,+1.125,-0.438,+0.688,-5, 0, -2, 5, -9, -7, -5, -12
1503525292231,+0.500,-0.400,+0.445,-0.626,-0.970,+0.055,-0.253,+2.188,+2.438,+0.625,-4, 0, 11, 26, 0, -10, 7, 9
1503525292256,+0.500,-0.399,+0.445,-0.627,-0.964,+0.048,-0.271,+2.562,+1.188,+2.250,-7, 1, -4, -11, 3, 13, -10, -8
1503525292268,+0.500,-0.398,+0.445,-0.627,-0.982,+0.030,-0.263,+1.875,-0.938,-0.125,1, 2, 1, -1, -5, 4, 14, 4
1503525292291,+0.500,-0.398,+0.446,-0.627,-0.998,+0.039,-0.238,-1.312,-1.500,+0.188,-6, -5, -1, -2, -20, -17, 2, 0
1503525292315,+0.500,-0.398,+0.446,-0.627,-0.981,+0.059,-0.224,+0.000,+2.188,-0.062,-9, -3, -2, 0, -1, -11, -1, -3
1503525292328,+0.500,-0.398,+0.446,-0.627,-0.964,+0.054,-0.247,+1.562,+2.562,+0.938,-4, -2, 1, 5, 11, -3, 5, -1
1503525292351,+0.500,-0.397,+0.445,-0.627,-0.980,+0.056,-0.244,-0.250,+3.812,+1.562,2, 0, -3, -14, -3, -3, -7, -3
1503525292373,+0.500,-0.397,+0.445,-0.627,-0.974,+0.053,-0.244,-1.375,+1.688,-0.500,-5, -3, -4, -8, -9, 2, -12, -10
1503525292389,+0.501,-0.397,+0.446,-0.627,-0.966,+0.047,-0.239,-2.875,-1.812,-1.562,-3, 0, 0, 2, -3, -2, -3, -1
1503525292410,+0.501,-0.398,+0.446,-0.626,-0.950,+0.049,-0.261,-3.562,-4.000,-1.312,1, 2, 3, 5, 1, 7, -1, -7
1503525292433,+0.501,-0.398,+0.446,-0.626,-0.964,+0.079,-0.253,-2.625,-4.750,+1.188,1, 3, 2, 4, 1, -2, -19, 1
1503525292449,+0.501,-0.398,+0.445,-0.626,-0.995,+0.065,-0.241,-2.062,+2.625,+2.812,-9, -8, -4, -7, -7, -2, 3, 0
1503525292477,+0.501,-0.398,+0.445,-0.626,-0.970,+0.061,-0.244,-3.062,+3.688,+1.875,4, 2, -1, 2, -7, -14, -13, -2
1503525292493,+0.501,-0.399,+0.444,-0.627,-0.948,+0.064,-0.239,-3.000,+1.312,+1.500,-1, -2, -3, -1, 2, 16, 2, 2
1503525292508,+0.501,-0.399,+0.444,-0.627,-0.958,+0.072,-0.261,-2.688,+0.312,+1.625,1, 0, -4, -1, 7, 4, -7, 0
1503525292530,+0.501,-0.399,+0.443,-0.627,-0.988,+0.080,-0.265,-1.938,+1.688,+1.375,-2, -1, -3, -6, -3, -14, -2, -5
1503525292553,+0.501,-0.399,+0.443,-0.627,-0.983,+0.070,-0.248,-1.938,+5.812,+1.875,-4, -3, -6, -11, -18, -14, 3, 6
1503525292574,+0.502,-0.398,+0.442,-0.628,-0.973,+0.058,-0.245,-1.562,+7.688,+1.750,4, 4, 3, 8, 13, 11, 45, 8
1503525292593,+0.502,-0.398,+0.441,-0.629,-0.971,+0.067,-0.264,-0.812,+8.312,+1.688,-3, -2, -2, -3, -19, -13, 8, -6
1503525292612,+0.503,-0.397,+0.439,-0.630,-0.976,+0.066,-0.284,-0.500,+8.938,+3.062,-12, -11, -8, -11, -4, -6, -7, -4
1503525292627,+0.504,-0.396,+0.438,-0.631,-0.991,+0.059,-0.279,-1.312,+13.125,+2.125,6, 6, 5, 10, 3, 3, -4, 4
1503525292651,+0.504,-0.395,+0.437,-0.631,-0.988,+0.047,-0.238,-2.062,+10.938,+0.938,3, 0, 4, 1, -1, -12, -7, 3
1503525292672,+0.505,-0.394,+0.436,-0.632,-0.943,+0.053,-0.242,-1.312,+7.938,-1.875,6, -2, -6, -9, -13, -5, 9, 9
1503525292688,+0.506,-0.394,+0.436,-0.632,-0.940,+0.064,-0.286,-0.875,+3.562,-0.375,6, 2, 8, 7, 5, 0, -5, 2
1503525292709,+0.506,-0.393,+0.435,-0.633,-0.978,+0.068,-0.305,+0.750,+4.188,+1.500,1, 15, -12, 0, -3, -2, 7, -1
1503525292732,+0.506,-0.392,+0.435,-0.633,-0.993,+0.059,-0.282,+1.875,+7.250,+2.375,-7, -10, -6, -8, -1, 0, -6, -3
1503525292753,+0.506,-0.392,+0.434,-0.635,-0.962,+0.057,-0.249,+0.375,+11.625,+4.750,1, 1, -1, 0, -1, -1, -3, -8
1503525292769,+0.506,-0.391,+0.432,-0.636,-0.919,+0.069,-0.273,+1.250,+9.312,+5.375,-3, -1, 2, 2, -1, -10, 6, -3
1503525292792,+0.505,-0.391,+0.432,-0.637,-0.929,+0.063,-0.294,+0.688,+1.625,+6.875,0, -1, -2, -4, 1, 2, -13, -1
1503525292807,+0.505,-0.391,+0.432,-0.637,-0.984,+0.065,-0.289,+0.250,-2.688,+3.000,-3, -3, 7, 17, -2, -3, -7, -9
1503525292829,+0.504,-0.391,+0.432,-0.637,-0.989,+0.069,-0.264,+0.875,-2.188,+3.188,-2, 0, 35, -19, -2, -7, -3, 1
1503525292852,+0.504,-0.392,+0.432,-0.637,-0.973,+0.062,-0.233,-2.438,+7.125,+5.938,-4, -5, -10, -7, 0, 4, 3, -2
1503525292874,+0.504,-0.391,+0.430,-0.639,-0.948,+0.092,-0.298,-0.750,+8.250,+6.188,-3, -2, 7, 9, 2, 2, -5, -6
1503525292891,+0.504,-0.391,+0.429,-0.640,-0.979,+0.083,-0.322,+0.625,+5.812,+2.750,-1, 0, -16, -3, -4, 6, -4, 0
1503525292912,+0.505,-0.390,+0.429,-0.640,-0.992,+0.070,-0.312,+0.250,+7.938,-1.812,-3, -3, -10, -8, -4, -2, -12, -5
1503525292934,+0.506,-0.388,+0.428,-0.641,-0.971,+0.067,-0.298,+1.688,+10.625,-2.062,-1, -2, -13, 6, -2, -10, -6, 5
1503525292953,+0.507,-0.386,+0.427,-0.641,-0.952,+0.064,-0.308,+3.312,+9.625,-3.688,-2, 1, -5, -5, 1, 7, 10, -5
1503525292972,+0.507,-0.385,+0.427,-0.642,-0.967,+0.068,-0.312,+4.688,+5.875,-4.750,6, 23, 22, 15, 3, 1, 0, -1
1503525292994,+0.507,-0.383,+0.428,-0.642,-0.998,+0.066,-0.335,+7.625,+4.438,-3.688,-3, -9, -8, -5, 2, 1, 8, 3
1503525293010,+0.508,-0.380,+0.428,-0.643,-1.012,+0.060,-0.331,+9.750,+10.375,-5.188,0, -4, -5, -6, -3, -3, -2, 4
1503525293032,+0.508,-0.377,+0.429,-0.645,-0.991,+0.078,-0.362,+15.812,+8.938,-6.125,1, -5, -19, -3, -2, -3, -11, 6
1503525293057,+0.508,-0.374,+0.430,-0.646,-0.995,+0.067,-0.359,+21.125,+6.438,-8.438,3, -7, -17, -6, -3, -2, 4, -1
1503525293071,+0.508,-0.369,+0.432,-0.647,-1.024,+0.042,-0.357,+24.625,+7.688,-12.312,-7, -4, 8, 1, -1, 1, 2, -2
1503525294854,+0.413,-0.301,+0.537,-0.672,-0.971,-0.045,-0.190,+1.750,+2.250,+3.250,2, 11, 3, -6, -12, -19, -28, -6
1503525294870,+0.413,-0.301,+0.537,-0.672,-0.987,-0.044,-0.207,+0.562,-1.875,+3.688,-5, -4, -7, -12, -6, 20, 8, -7
1503525294900,+0.412,-0.301,+0.536,-0.672,-1.028,-0.029,-0.223,+0.188,+1.188,+2.250,-6, 0, 7, 15, -12, -27, -13, -5
1503525294922,+0.412,-0.300,+0.535,-0.673,-1.019,-0.026,-0.222,+1.500,+9.438,+3.875,-6, -2, 0, -2, -3, -13, -9, -35
1503525294934,+0.412,-0.300,+0.534,-0.675,-0.977,-0.048,-0.208,+1.875,+11.875,+6.812,1, 12, 4, 7, -8, -14, -13, -35
1503525294951,+0.412,-0.299,+0.533,-0.676,-0.966,-0.055,-0.200,+1.438,+9.938,+5.375,-1, 5, 1, -1, -7, -42, -38, 4
1503525294975,+0.411,-0.299,+0.532,-0.677,-0.997,-0.030,-0.205,+2.062,+4.312,+3.000,2, -12, -3, -3, -3, 3, 24, 4
1503525294990,+0.411,-0.298,+0.532,-0.678,-1.037,-0.024,-0.231,+3.312,+6.500,+2.562,29, -18, 1, 8, -1, -14, 10, 17
1503525295012,+0.411,-0.297,+0.531,-0.679,-1.015,-0.055,-0.232,+2.562,+11.875,+3.500,-9, 5, 9, 11, -1, 6, 13, 32
1503525295034,+0.411,-0.295,+0.529,-0.681,-0.972,-0.061,-0.230,+2.312,+12.562,+4.125,-11, 0, -1, -7, -22, -13, -4, -29
1503525295050,+0.411,-0.294,+0.528,-0.682,-0.973,-0.055,-0.225,+2.438,+10.000,+3.688,-10, -12, 1, 5, -2, 15, 9, 39
1503525295076,+0.412,-0.294,+0.527,-0.683,-1.000,-0.022,-0.235,+1.750,+8.875,+0.250,-10, -9, -6, -10, -1, -9, -2, -30
1503525295094,+0.412,-0.293,+0.527,-0.684,-0.994,-0.019,-0.231,+1.688,+9.062,-0.375,8, 0, -3, -5, 5, -10, -12, -11
1503525295110,+0.412,-0.292,+0.526,-0.685,-0.960,-0.035,-0.236,+2.688,+8.250,-0.375,-2, 8, -1, -2, -11, -15, 4, -10
1503525295133,+0.412,-0.291,+0.526,-0.685,-0.941,-0.042,-0.238,+2.562,+2.625,-1.125,3, -1, 6, 10, 9, -1, 23, -6
1503525295154,+0.413,-0.290,+0.527,-0.684,-0.972,-0.042,-0.210,-0.438,-2.188,-4.188,9, 19, 6, -1, -18, -26, -30, -1
1503525295172,+0.413,-0.290,+0.527,-0.684,-1.013,-0.012,-0.217,-1.938,-0.188,-6.125,-6, -1, -3, -3, 2, 2, 15, -7
1503525295192,+0.413,-0.290,+0.527,-0.684,-0.993,-0.007,-0.262,+0.250,+2.312,-3.000,-3, -2, -2, -4, 13, 22, 4, -2
1503525295214,+0.414,-0.289,+0.526,-0.685,-0.970,-0.032,-0.253,-0.562,+9.938,-2.625,-20, -11, -3, 3, 5, -3, 25, 2
1503525295235,+0.415,-0.288,+0.524,-0.685,-0.964,-0.037,-0.236,-2.562,+12.438,-1.188,8, 5, -1, 0, -1, 6, -13, 18
1503525295252,+0.416,-0.288,+0.523,-0.686,-0.944,-0.029,-0.246,-3.312,+5.812,+0.438,1, 4, -2, -8, -17, -25, -13, -19
1503525295276,+0.416,-0.288,+0.523,-0.686,-0.969,-0.024,-0.238,-3.875,+1.812,-1.812,4, -3, -3, 0, -4, 6, -6, 0
1503525295291,+0.417,-0.288,+0.523,-0.685,-0.992,-0.025,-0.257,-5.250,-0.562,-1.500,-1, 1, 1, 3, 23, 19, 0, -11
1503525295312,+0.417,-0.288,+0.522,-0.686,-0.985,-0.026,-0.275,-3.250,+2.625,-0.438,-7, -6, -6, -8, -13, -21, -38, -31
1503525295335,+0.418,-0.288,+0.521,-0.686,-0.961,-0.026,-0.282,-1.938,+5.812,+1.062,4, -4, 0, 3, 3, 13, -38, 17
1503525295350,+0.418,-0.288,+0.520,-0.687,-0.960,-0.039,-0.260,-2.375,+6.250,+1.500,6, -8, -5, -4, -3, 0, -21, -2
1503525295373,+0.419,-0.287,+0.520,-0.687,-0.961,-0.072,-0.258,-1.938,+2.625,+0.562,-12, -3, -2, 2, -3, 5, -10, 6
1503525295402,+0.419,-0.287,+0.520,-0.687,-0.963,-0.062,-0.258,-1.938,+0.625,+1.438,-7, -5, 4, 5, 17, -14, 21, -15
1503525295411,+0.419,-0.287,+0.519,-0.688,-0.975,-0.041,-0.265,-1.188,+1.750,+2.750,-1, 2, -5, -9, -22, -36, -3, -16
1503525295432,+0.418,-0.287,+0.519,-0.688,-0.973,-0.042,-0.264,+0.125,+2.250,+4.688,-3, 7, -2, -6, -7, -16, -11, -20
1503525295454,+0.418,-0.287,+0.518,-0.689,-0.987,-0.053,-0.263,+1.938,+4.125,+5.625,16, 4, -2, -4, -13, -42, -26, 30
1503525295470,+0.417,-0.286,+0.518,-0.690,-0.993,-0.046,-0.251,+1.750,+6.625,+5.688,-10, -1, -3, -2, -8, -11, 11, -3
1503525295492,+0.417,-0.286,+0.517,-0.691,-0.980,-0.041,-0.253,+1.688,+5.438,+4.688,-5, -7, -1, -1, -3, 4, -10, 14
1503525295514,+0.417,-0.286,+0.517,-0.691,-0.977,-0.038,-0.252,-0.438,+3.812,+2.625,2, 1, 0, 1, 11, 48, -18, 21
1503525295530,+0.417,-0.286,+0.516,-0.691,-0.989,-0.033,-0.241,-2.312,+5.688,+0.875,6, -1, 1, 0, 3, 45, 18, 21
1503525295552,+0.418,-0.286,+0.515,-0.692,-0.989,-0.021,-0.247,-3.500,+10.188,-0.188,3, -3, -1, -5, -11, -12, -22, -17
1503525295575,+0.418,-0.285,+0.514,-0.693,-0.967,-0.021,-0.261,-4.125,+10.562,+0.438,2, 0, -5, -6, -3, -20, 9, 8
1503525295590,+0.419,-0.285,+0.512,-0.693,-0.938,-0.012,-0.284,-4.375,+6.125,-0.500,-6, 6, 2, -2, 1, -2, -16, -24
1503525295613,+0.420,-0.285,+0.512,-0.693,-0.964,-0.010,-0.273,-5.000,+4.500,-1.188,-9, -4, -4, -3, -20, -22, -17, -3
1503525295638,+0.420,-0.286,+0.511,-0.693,-0.966,-0.013,-0.265,-5.125,+0.750,-1.500,-1, 1, 2, 3, 5, 2, 10, 14
1503525295655,+0.420,-0.286,+0.511,-0.693,-0.956,-0.008,-0.290,-3.250,-1.125,+0.438,-20, -6, 0, 3, 2, 10, 1, -4
1503525295673,+0.420,-0.286,+0.511,-0.693,-0.953,-0.019,-0.277,-2.250,-0.562,+0.188,7, 15, 4, 1, 3, -3, 8, 4
1503525295694,+0.421,-0.286,+0.511,-0.693,-0.972,-0.030,-0.280,-1.750,-0.125,-1.125,-3, -9, -2, 2, 30, 70, -3, -6
1503525295710,+0.421,-0.286,+0.511,-0.693,-0.974,-0.039,-0.278,-1.875,+2.500,+0.562,8, -1, -5, -5, -13, -20, 30, -24
1503525295732,+0.421,-0.286,+0.510,-0.693,-0.974,-0.041,-0.284,-1.812,+4.250,-1.000,-4, -4, 0, -3, 0, -15, 2, 5
1503525295754,+0.422,-0.286,+0.510,-0.693,-0.969,-0.031,-0.275,-4.188,+2.812,-1.625,7, 12, 6, 9, 0, -5, -3, -7
1503525295772,+0.423,-0.286,+0.509,-0.693,-0.976,-0.029,-0.287,-5.062,+3.188,-5.125,-6, -8, -4, -2, -3, -25, -5, -15
1503525295792,+0.425,-0.285,+0.509,-0.692,-0.971,-0.046,-0.277,-6.000,+4.188,-6.812,5, -4, -4, -6, -4, -5, -8, -4
1503525295814,+0.427,-0.285,+0.508,-0.692,-0.971,-0.059,-0.271,-8.250,+5.250,-7.688,-12, -3, -5, -10, -4, 5, -1, 15
1503525295830,+0.429,-0.284,+0.508,-0.691,-0.966,-0.048,-0.283,-7.688,+4.562,-8.062,2, -4, 2, 3, -11, 6, -12, 7
1503525295852,+0.430,-0.284,+0.507,-0.690,-0.953,-0.051,-0.292,-8.375,+2.188,-5.312,-2, -4, -6, -1, 0, -35, 12, 10
1503525295874,+0.432,-0.284,+0.507,-0.690,-0.978,-0.047,-0.300,-7.750,+2.938,-5.875,7, -4, -4, -4, -5, -8, -9, -7
1503525295890,+0.433,-0.284,+0.506,-0.690,-0.974,-0.051,-0.294,-7.562,+3.688,-3.938,-9, 3, 0, 13, 6, 10, 0, -18
1503525295920,+0.434,-0.284,+0.505,-0.689,-0.960,-0.049,-0.294,-5.688,+2.688,-2.375,8, 7, 8, 12, 19, 71, 9, 8
1503525295934,+0.435,-0.285,+0.505,-0.689,-0.958,-0.033,-0.309,-4.500,+2.062,-0.312,-3, -2, -4, -2, -3, -8, -21, -12
1503525295950,+0.435,-0.284,+0.504,-0.690,-0.958,-0.046,-0.325,-3.250,+2.125,-0.875,-13, -6, -2, -11, -3, -12, -11, -2
1503525295974,+0.436,-0.284,+0.504,-0.690,-0.955,-0.048,-0.297,-4.062,+1.938,-1.625,5, -5, -4, -12, -10, -15, 16, 1
1503525295994,+0.437,-0.285,+0.503,-0.689,-0.957,-0.042,-0.291,-5.062,+1.062,-2.375,0, -1, 4, 2, 3, 5, 57, 7
1503525296013,+0.437,-0.285,+0.503,-0.689,-0.947,-0.047,-0.295,-4.750,+0.062,-1.312,-5, -10, -3, -3, -8, -28, -18, -4
1503525296033,+0.437,-0.285,+0.503,-0.689,-0.938,-0.045,-0.299,-4.125,-2.250,+0.750,-1, 2, 0, 0, -3, -15, -6, -12
1503525296055,+0.437,-0.286,+0.503,-0.689,-0.931,-0.036,-0.306,-4.375,-1.188,+3.438,2, -2, -8, -18, -1, 4, -13, 1
1503525296073,+0.437,-0.286,+0.502,-0.689,-0.940,-0.037,-0.291,-2.750,-0.500,+4.500,1, -4, 16, 19, 6, 5, -9, -7
1503525296093,+0.437,-0.287,+0.502,-0.689,-0.941,-0.043,-0.299,-1.312,-2.625,+4.750,0, 0, -6, -4, 23, 44, 2, 0
1503525296115,+0.436,-0.287,+0.502,-0.689,-0.975,-0.037,-0.310,-1.875,-2.625,+2.250,-3, -3, -7, -11, -8, -8, -7, 12
1503525296130,+0.436,-0.287,+0.502,-0.689,-0.993,-0.027,-0.311,-0.625,+2.812,+0.000,4, -2, -7, -20, -4, 1, 4, -16
1503525296153,+0.437,-0.286,+0.501,-0.690,-0.985,-0.042,-0.311,+0.125,+8.188,-1.500,-10, -7, -4, 1, -11, -28, -24, -15
1503525296183,+0.438,-0.285,+0.500,-0.690,-0.952,-0.053,-0.303,-0.688,+8.938,-4.250,-2, -1, 0, 3, -4, -1, 3, -13
1503525296190,+0.439,-0.284,+0.500,-0.690,-0.951,-0.054,-0.305,-2.375,+5.562,-6.875,-1, -14, -1, 1, 2, 6, 20, 22
1503525296213,+0.441,-0.283,+0.500,-0.690,-0.961,-0.049,-0.312,-3.438,+2.375,-6.875,-11, -7, 1, 0, 2, 12, 2, 12
1503525296235,+0.442,-0.283,+0.500,-0.689,-0.980,-0.033,-0.289,-3.312,+3.125,-4.938,-12, -2, -6, -9, -2, -5, -5, 12
1503525296250,+0.442,-0.283,+0.499,-0.689,-0.961,-0.041,-0.285,-2.250,+2.062,-1.375,-4, -7, -5, -9, -17, -17, -17, -38
1503525296275,+0.442,-0.283,+0.499,-0.689,-0.951,-0.051,-0.292,-2.500,+1.875,+1.312,3, -1, -2, -3, -3, -24, 0, 2
1503525296295,+0.442,-0.284,+0.499,-0.689,-0.944,-0.045,-0.301,-2.500,-2.062,+3.375,-3, -14, -5, -3, 1, 10, -9, 5
1503525296311,+0.441,-0.285,+0.499,-0.689,-0.949,-0.032,-0.299,-3.438,-2.562,+5.562,7, 13, 2, -5, 4, 12, 13, 16
1503525296333,+0.440,-0.286,+0.499,-0.690,-0.962,-0.034,-0.286,-2.250,-2.250,+5.375,-1, 12, -1, -3, -3, -2, -2, -14
1503525296355,+0.440,-0.286,+0.499,-0.690,-0.959,-0.040,-0.305,-2.312,-1.562,+4.625,0, 0, 1, 1, -3, -3, 3, 18
1503525296370,+0.440,-0.287,+0.499,-0.690,-0.964,-0.040,-0.315,-3.375,-1.000,+2.062,0, 7, -3, -3, -6, -2, -12, -26
1503525296393,+0.441,-0.287,+0.498,-0.690,-0.980,-0.029,-0.318,-2.938,+2.625,-1.688,-1, -5, 0, -5, 4, 6, 3, 5
1503525296416,+0.441,-0.286,+0.498,-0.690,-0.983,-0.042,-0.311,-2.312,+5.062,-4.438,-7, -16, -4, 1, 4, 2, 6, 0
1503525296430,+0.443,-0.285,+0.497,-0.690,-0.968,-0.050,-0.317,-2.625,+6.750,-8.125,4, 3, -3, -3, -4, -4, 5, 15
1503525296453,+0.445,-0.284,+0.497,-0.689,-0.958,-0.059,-0.312,-2.750,+5.125,-10.000,-2, 2, 5, 6, 3, 23, -4, 3
1503525296478,+0.446,-0.283,+0.497,-0.688,-0.958,-0.056,-0.314,-3.250,+1.938,-11.250,-3, -2, -6, -8, -6, -1, -5, -7
1503525296490,+0.448,-0.282,+0.497,-0.688,-0.961,-0.061,-0.307,-2.125,+2.500,-9.750,-7, -12, -1, -3, 1, 15, -3, -7
1503525296515,+0.449,-0.281,+0.497,-0.687,-0.968,-0.066,-0.313,-0.125,+1.188,-6.562,-1, 10, 6, 7, 2, 1, -1, -5
1503525296535,+0.449,-0.280,+0.498,-0.687,-0.956,-0.055,-0.296,+1.312,+0.938,-3.188,3, -4, -9, -16, -4, -7, -3, -3
1503525296552,+0.449,-0.280,+0.498,-0.687,-0.943,-0.068,-0.303,+1.750,-2.000,+1.000,3, 5, 6, 7, 1, 8, 1, -10
1503525296573,+0.448,-0.280,+0.499,-0.687,-0.938,-0.055,-0.315,+1.000,-4.125,+2.500,-7, -19, -7, -1, 15, 20, 9, -6
1503525296595,+0.447,-0.281,+0.499,-0.687,-0.936,-0.048,-0.316,+0.438,-4.000,+5.312,-3, -4, -4, -4, -3, -9, -2, 18
1503525296612,+0.446,-0.281,+0.499,-0.688,-0.924,-0.050,-0.313,+0.375,-1.438,+7.812,-4, 1, -1, -5, -2, -14, -17, -6
1503525296633,+0.445,-0.282,+0.498,-0.688,-0.914,-0.042,-0.307,+0.000,-2.438,+10.062,-1, -2, 4, 1, -3, -4, -1, -5
1503525296655,+0.444,-0.283,+0.498,-0.689,-0.915,-0.040,-0.306,-1.000,-1.750,+11.312,3, -1, -6, -5, -3, -5, -8, 2
1503525296671,+0.442,-0.284,+0.497,-0.690,-0.938,-0.041,-0.306,-1.812,-0.875,+11.188,-1, -2, -1, -1, -6, -3, 6, 5
