Timestamp,Orientation X,Orientation Y,Orientation Z,Orientation W,Accelerometer X,Accelerometer Y,Accelerometer Z,Gyroscope X,Gyroscope Y,Gyroscope Z,EMG1,EMG2,EMG3,EMG4,EMG5,EMG6,EMG7,EMG8,Roll,Yaw,Window
1503525230883,+0.707,-0.246,+0.146,-0.647,-0.548,+0.118,-0.827,-1.188,-0.250,+0.312,1, 0, 2, -1, 0, -1, -2, -3,-1.6925497113395023,-0.5705955038561934,0
1503525230906,+0.707,-0.246,+0.146,-0.647,-0.535,+0.123,-0.840,-0.750,-0.188,+0.438,1, 0, -1, -2, -2, -13, -1, -1,-1.6925497113395023,-0.5705955038561934,0
1503525230928,+0.707,-0.246,+0.146,-0.647,-0.538,+0.106,-0.826,-0.750,+0.000,+0.438,0, -5, -4, -1, 3, 4, 2, 1,-1.6925497113395023,-0.5705955038561934,0
1503525230952,+0.707,-0.246,+0.146,-0.647,-0.538,+0.118,-0.824,-0.375,-1.125,+0.750,0, -1, -3, -3, 0, 0, -3, -1,-1.6925497113395023,-0.5705955038561934,0
1503525230965,+0.707,-0.246,+0.146,-0.647,-0.540,+0.122,-0.829,-0.562,-1.125,+0.250,-1, -1, -2, -3, -4, -14, -1, -1,-1.6925497113395023,-0.5705955038561934,0
1503525230987,+0.707,-0.246,+0.146,-0.647,-0.539,+0.125,-0.833,-0.625,-0.562,+0.438,0, 0, -1, -1, 2, 3, -2, -1,-1.6925497113395023,-0.5705955038561934,0
1503525231003,+0.707,-0.246,+0.146,-0.647,-0.535,+0.120,-0.833,-0.625,-1.812,-0.250,-2, 1, 0, 1, -3, -1, 0, 0,-1.6925497113395023,-0.5705955038561934,0
1503525231026,+0.707,-0.246,+0.146,-0.647,-0.530,+0.117,-0.822,-0.625,-3.312,-0.875,1, -2, -2, 0, 7, 13, 2, 0,-1.6925497113395023,-0.5705955038561934,0
1503525231047,+0.707,-0.246,+0.147,-0.646,-0.533,+0.124,-0.839,-0.500,-5.000,-1.562,0, 1, 0, -1, -2, -3, -1, 0,-1.6926624650348632,-0.5717608066275262,0
1503525231063,+0.707,-0.247,+0.148,-0.646,-0.518,+0.124,-0.822,-0.375,-7.500,-2.062,-1, -2, 0, -1, 2, 5, 1, -3,-1.6935506566878848,-0.5749082235336668,0
1503525231090,+0.707,-0.248,+0.149,-0.646,-0.548,+0.103,-0.805,-0.500,-10.062,-0.562,-1, 1, 0, -2, 4, 6, -1, -1,-1.694440730286802,-0.578059095533952,0
1503525231107,+0.706,-0.249,+0.150,-0.645,-0.590,+0.123,-0.819,-0.562,-6.812,+0.688,-1, -2, -3, -2, -4, -4, 1, 1,-1.6928465912976247,-0.5805423088738216,0
1503525231124,+0.706,-0.249,+0.151,-0.646,-0.595,+0.113,-0.820,+0.625,-2.875,+3.375,1, -2, -3, -3, -5, -2, -2, 0,-1.6926128196181394,-0.5822133748459609,0
1503525231145,+0.706,-0.249,+0.151,-0.646,-0.545,+0.116,-0.819,+0.125,+0.500,+2.125,-1, -2, 1, 1, -2, 7, -2, -1,-1.6926128196181394,-0.5822133748459609,0
1503525231167,+0.706,-0.249,+0.151,-0.646,-0.557,+0.109,-0.816,-1.688,-1.750,+0.750,1, -4, -2, -1, 2, 2, -3, 0,-1.6926128196181394,-0.5822133748459609,0
1503525231183,+0.706,-0.249,+0.151,-0.646,-0.572,+0.119,-0.823,-1.125,+0.062,+0.625,-2, -2, -1, -3, -2, 1, -2, -2,-1.6926128196181394,-0.5822133748459609,0
1503525231205,+0.706,-0.249,+0.151,-0.646,-0.554,+0.119,-0.819,-1.250,+1.688,+0.000,-1, -3, 0, -3, -4, 15, 0, -1,-1.6926128196181394,-0.5822133748459609,0
1503525231230,+0.706,-0.249,+0.150,-0.646,-0.537,+0.114,-0.817,-1.062,+2.375,-0.062,-1, -1, -1, -2, -3, -4, -1, -1,-1.6926736856843494,-0.5807946765215449,0
1503525231243,+0.706,-0.249,+0.150,-0.646,-0.563,+0.142,-0.825,-1.938,-0.500,+0.500,0, -1, -1, 2, 1, 7, 1, 0,-1.6926736856843494,-0.5807946765215449,0
1503525231265,+0.706,-0.249,+0.150,-0.646,-0.542,+0.121,-0.825,-1.500,-1.062,-1.000,-1, -2, -1, -1, 0, -6, 0, -2,-1.6926736856843494,-0.5807946765215449,0
1503525231290,+0.706,-0.249,+0.150,-0.646,-0.553,+0.116,-0.818,-0.750,+0.000,+1.188,0, 2, -3, -1, 0, 13, 0, -3,-1.6926736856843494,-0.5807946765215449,0
1503525231303,+0.706,-0.249,+0.150,-0.646,-0.554,+0.118,-0.815,-0.750,+0.062,+0.625,-1, 0, -1, 0, 1, -10, -2, 1,-1.6926736856843494,-0.5807946765215449,0
1503525231330,+0.706,-0.249,+0.150,-0.646,-0.550,+0.108,-0.821,-0.562,+0.562,+0.875,1, -1, 0, -1, 1, 3, -2, 0,-1.6926736856843494,-0.5807946765215449,0
1503525231347,+0.706,-0.249,+0.150,-0.646,-0.542,+0.113,-0.823,-1.125,-0.812,+0.750,-1, -1, 2, -2, 1, -3, 0, -2,-1.6926736856843494,-0.5807946765215449,0
1503525231364,+0.706,-0.249,+0.150,-0.646,-0.554,+0.118,-0.824,-1.750,-0.938,+0.250,1, -3, -1, -3, 0, 0, -4, -1,-1.6926736856843494,-0.5807946765215449,0
1503525231385,+0.706,-0.249,+0.150,-0.646,-0.554,+0.125,-0.815,-0.938,+0.188,+0.438,-2, 1, -1, -1, -6, -10, 0, -2,-1.6926736856843494,-0.5807946765215449,0
1503525231407,+0.706,-0.249,+0.150,-0.646,-0.546,+0.119,-0.822,-1.062,-0.250,-0.125,-1, 0, 0, 1, -1, 3, 2, -2,-1.6926736856843494,-0.5807946765215449,0
1503525231425,+0.706,-0.249,+0.150,-0.646,-0.556,+0.121,-0.823,-0.688,+0.438,+0.062,0, 0, -1, 0, 1, -4, -3, 0,-1.6926736856843494,-0.5807946765215449,0
1503525231445,+0.706,-0.249,+0.150,-0.646,-0.548,+0.123,-0.821,-0.750,-0.438,-0.312,0, 0, -2, -1, -2, 3, 2, -1,-1.6926736856843494,-0.5807946765215449,0
1503525231470,+0.706,-0.249,+0.150,-0.646,-0.551,+0.114,-0.817,-1.000,-0.375,-0.688,-1, 0, -2, 0, -2, 5, 2, -1,-1.6926736856843494,-0.5807946765215449,0
1503525231484,+0.706,-0.249,+0.150,-0.646,-0.554,+0.117,-0.821,-1.062,-0.375,-0.562,-2, 1, -2, -3, 0, -5, 0, 1,-1.6926736856843494,-0.5807946765215449,0
1503525231505,+0.706,-0.249,+0.150,-0.645,-0.554,+0.113,-0.819,-1.000,+0.875,-0.875,-1, 1, -3, 0, 3, 0, -3, -1,-1.6928465912976247,-0.5805423088738216,0
1503525231528,+0.707,-0.248,+0.150,-0.645,-0.551,+0.110,-0.822,-0.750,+0.812,-0.250,0, -2, -2, -1, -2, 0, -2, -1,-1.6945546265182212,-0.5792234790410575,0
1503525231543,+0.707,-0.248,+0.150,-0.645,-0.550,+0.111,-0.826,-1.062,-0.188,+0.062,-1, 0, -1, 0, 0, 1, -1, -1,-1.6945546265182212,-0.5792234790410575,0
1503525231566,+0.707,-0.248,+0.150,-0.645,-0.555,+0.108,-0.823,-1.125,+0.125,+0.312,-1, -2, -1, -1, -3, -2, 1, 1,-1.6945546265182212,-0.5792234790410575,0
1503525231587,+0.707,-0.248,+0.150,-0.645,-0.550,+0.115,-0.824,-0.625,-0.125,+1.188,-2, 0, 1, -2, 1, -4, -1, -3,-1.6945546265182212,-0.5792234790410575,0
1503525231603,+0.707,-0.248,+0.150,-0.645,-0.545,+0.116,-0.823,-0.875,-0.125,+0.812,1, -3, 0, -1, -3, -8, -3, -1,-1.6945546265182212,-0.5792234790410575,0
1503525231625,+0.707,-0.248,+0.150,-0.645,-0.547,+0.117,-0.824,-0.750,-1.000,+1.250,-1, 3, -2, -1, -4, -4, -1, 1,-1.6945546265182212,-0.5792234790410575,0
1503525231647,+0.707,-0.248,+0.150,-0.645,-0.552,+0.121,-0.824,-0.688,-1.250,+1.000,0, -1, 1, 1, 0, 3, 0, -2,-1.6945546265182212,-0.5792234790410575,0
1503525231663,+0.707,-0.248,+0.150,-0.645,-0.554,+0.113,-0.825,-1.062,-0.625,+0.750,-2, 0, -1, 1, 2, 4, -1, 1,-1.6945546265182212,-0.5792234790410575,0
1503525231685,+0.707,-0.248,+0.150,-0.645,-0.548,+0.120,-0.821,-0.812,+0.625,+0.812,1, -2, 0, 0, 4, -1, -1, -1,-1.6945546265182212,-0.5792234790410575,0
1503525231707,+0.707,-0.248,+0.150,-0.645,-0.546,+0.113,-0.820,-1.125,-0.062,-0.062,-2, -1, -1, -3, 3, 14, -1, 0,-1.6945546265182212,-0.5792234790410575,0
1503525231726,+0.707,-0.248,+0.150,-0.645,-0.555,+0.112,-0.824,-1.125,+0.125,+0.062,1, -1, -1, -1, -1, 0, 1, 0,-1.6945546265182212,-0.5792234790410575,0
1503525231745,+0.707,-0.248,+0.150,-0.645,-0.553,+0.114,-0.822,-1.188,+0.500,+0.062,-2, 0, 1, 0, -1, -2, 0, -2,-1.6945546265182212,-0.5792234790410575,0
1503525231767,+0.707,-0.248,+0.150,-0.645,-0.548,+0.115,-0.825,-1.000,+0.875,+0.062,0, 0, -1, 0, 3, -4, 1, 1,-1.6945546265182212,-0.5792234790410575,0
1503525231783,+0.707,-0.248,+0.150,-0.645,-0.545,+0.113,-0.823,-0.750,-0.125,+0.438,1, -1, -1, -1, 2, 7, -1, 1,-1.6945546265182212,-0.5792234790410575,0
1503525231805,+0.707,-0.248,+0.150,-0.645,-0.544,+0.118,-0.816,-0.938,-0.625,+0.438,-2, -1, -1, 0, -5, -9, -2, -3,-1.6945546265182212,-0.5792234790410575,0
1503525231830,+0.707,-0.248,+0.150,-0.645,-0.553,+0.116,-0.826,-0.500,-0.500,+0.750,0, 0, 0, -1, -2, 9, 2, -2,-1.6945546265182212,-0.5792234790410575,0
1503525231844,+0.707,-0.248,+0.150,-0.645,-0.547,+0.113,-0.823,-0.562,-0.812,+0.875,-1, -2, -1, -2, 2, -1, 0, -2,-1.6945546265182212,-0.5792234790410575,0
1503525231865,+0.707,-0.248,+0.150,-0.645,-0.553,+0.114,-0.817,-1.188,-1.188,+0.875,-2, -2, 0, -2, -1, 8, 1, -3,-1.6945546265182212,-0.5792234790410575,0
1503525231887,+0.707,-0.248,+0.150,-0.645,-0.555,+0.116,-0.821,-1.125,-1.062,+1.188,-1, -1, -2, -3, -4, -11, 1, 0,-1.6945546265182212,-0.5792234790410575,0
1503525231903,+0.707,-0.248,+0.150,-0.645,-0.554,+0.115,-0.819,-1.188,-0.250,+0.500,0, 0, -2, 0, -3, -4, -3, 0,-1.6945546265182212,-0.5792234790410575,0
1503525231927,+0.707,-0.248,+0.150,-0.645,-0.553,+0.116,-0.817,-0.875,+0.312,+0.750,-2, -1, 0, -1, -2, 0, -1, 1,-1.6945546265182212,-0.5792234790410575,0
1503525231947,+0.707,-0.248,+0.150,-0.645,-0.549,+0.117,-0.828,-0.938,-0.188,+0.375,0, 1, 1, -1, 0, -1, 0, -2,-1.6945546265182212,-0.5792234790410575,0
1503525231964,+0.707,-0.248,+0.150,-0.645,-0.548,+0.115,-0.819,-0.938,+0.438,+0.312,-1, -1, -1, 1, 0, 4, 1, -1,-1.6945546265182212,-0.5792234790410575,0
1503525231985,+0.707,-0.248,+0.150,-0.645,-0.547,+0.108,-0.822,-0.938,+0.188,+0.625,0, -3, -1, -3, -2, -6, -1, -1,-1.6945546265182212,-0.5792234790410575,0
1503525232007,+0.707,-0.248,+0.150,-0.645,-0.549,+0.113,-0.827,-1.250,-0.625,+0.375,0, 2, -1, 1, -1, -3, 0, 1,-1.6945546265182212,-0.5792234790410575,0
1503525232024,+0.707,-0.248,+0.150,-0.645,-0.551,+0.113,-0.819,-1.312,-0.438,+0.500,1, 0, -1, -1, 1, 0, -2, 2,-1.6945546265182212,-0.5792234790410575,0
1503525232045,+0.707,-0.248,+0.150,-0.645,-0.550,+0.121,-0.825,-0.812,-0.438,+0.625,-2, -1, 0, -2, -1, -3, 1, -1,-1.6945546265182212,-0.5792234790410575,0
1503525232069,+0.707,-0.248,+0.150,-0.645,-0.547,+0.119,-0.818,-0.688,-0.438,+0.312,-3, 1, -1, -2, -5, -4, -2, -1,-1.6945546265182212,-0.5792234790410575,0
1503525232084,+0.707,-0.248,+0.150,-0.645,-0.554,+0.120,-0.813,-0.688,-0.312,+0.312,1, -2, 0, 0, -3, -5, -2, -1,-1.6945546265182212,-0.5792234790410575,0
1503525232105,+0.707,-0.248,+0.150,-0.645,-0.552,+0.115,-0.817,-0.500,+0.312,+0.125,-1, 0, -2, 0, 6, 2, 2, -1,-1.6945546265182212,-0.5792234790410575,0
1503525232131,+0.707,-0.248,+0.150,-0.645,-0.546,+0.112,-0.828,-0.688,+0.000,+0.312,0, 0, -1, -1, -1, 1, -3, -1,-1.6945546265182212,-0.5792234790410575,0
1503525232143,+0.707,-0.248,+0.150,-0.645,-0.546,+0.110,-0.820,-1.125,-0.125,+0.062,-2, 0, 0, -2, -1, -14, 0, -1,-1.6945546265182212,-0.5792234790410575,0
1503525232166,+0.707,-0.248,+0.150,-0.645,-0.556,+0.107,-0.822,-1.312,-0.062,+0.438,0, -3, -1, -1, 6, 15, 1, -1,-1.6945546265182212,-0.5792234790410575,0
1503525232188,+0.707,-0.248,+0.150,-0.645,-0.549,+0.115,-0.828,-1.250,-0.125,+0.625,0, 0, 0, -2, -5, -5, -3, -1,-1.6945546265182212,-0.5792234790410575,0
1503525232210,+0.707,-0.248,+0.150,-0.645,-0.546,+0.114,-0.819,-1.188,-0.125,+0.750,1, 1, 0, 2, 5, 2, 1, -1,-1.6945546265182212,-0.5792234790410575,0
1503525232228,+0.707,-0.248,+0.150,-0.645,-0.549,+0.116,-0.824,-1.125,-0.750,+1.125,-3, 0, -2, -1, -4, -1, -4, 0,-1.6945546265182212,-0.5792234790410575,0
1503525232247,+0.707,-0.248,+0.150,-0.645,-0.548,+0.121,-0.823,-1.188,-0.750,+0.875,1, -2, 0, 0, 8, 2, -1, -2,-1.6945546265182212,-0.5792234790410575,0
1503525232271,+0.707,-0.248,+0.150,-0.645,-0.552,+0.111,-0.823,-0.625,-0.500,+1.062,0, -1, -3, -1, -1, -2, -2, -2,-1.6945546265182212,-0.5792234790410575,0
1503525232285,+0.707,-0.248,+0.150,-0.645,-0.555,+0.119,-0.825,-0.750,-0.688,+0.312,-2, -1, 0, -1, -4, -11, 1, -2,-1.6945546265182212,-0.5792234790410575,0
1503525232308,+0.707,-0.248,+0.150,-0.645,-0.554,+0.113,-0.820,-0.562,-0.188,+0.312,0, -1, -1, 0, 1, 3, 0, 1,-1.6945546265182212,-0.5792234790410575,0
1503525232330,+0.707,-0.248,+0.150,-0.645,-0.552,+0.115,-0.822,-0.625,-0.188,+0.188,0, 0, 0, -1, -3, 4, -1, -2,-1.6945546265182212,-0.5792234790410575,0
1503525232345,+0.707,-0.248,+0.150,-0.645,-0.556,+0.115,-0.825,-0.875,-0.250,+0.250,-1, -2, 2, 3, 0, 4, 1, 2,-1.6945546265182212,-0.5792234790410575,0
1503525232368,+0.707,-0.248,+0.150,-0.645,-0.548,+0.120,-0.820,-0.688,+0.312,+0.312,-1, -1, -1, -3, -4, -10, -2, -3,-1.6945546265182212,-0.5792234790410575,0
1503525232389,+0.707,-0.248,+0.150,-0.645,-0.546,+0.112,-0.826,-1.000,-0.250,-0.062,-3, -2, -2, -3, -3, 0, -1, -1,-1.6945546265182212,-0.5792234790410575,0
1503525232406,+0.707,-0.248,+0.150,-0.645,-0.548,+0.115,-0.824,-0.500,-0.312,+0.562,-2, -1, -2, -1, -4, -1, 1, -2,-1.6945546265182212,-0.5792234790410575,0
1503525232427,+0.707,-0.248,+0.150,-0.645,-0.555,+0.119,-0.828,-0.500,-0.688,+0.188,-1, 1, 0, -1, 0, -13, -1, -2,-1.6945546265182212,-0.5792234790410575,0
1503525232449,+0.707,-0.248,+0.150,-0.645,-0.556,+0.115,-0.827,-0.312,+0.438,+0.125,0, -1, -4, -2, -2, -1, -2, 0,-1.6945546265182212,-0.5792234790410575,0
1503525232467,+0.707,-0.248,+0.151,-0.645,-0.549,+0.112,-0.816,+0.125,-0.250,+0.312,-1, 0, -3, -1, 4, 4, 0, 2,-1.6944930619008878,-0.580640586497839,0
1503525232487,+0.707,-0.248,+0.151,-0.645,-0.543,+0.107,-0.824,-0.188,-0.875,-0.375,-2, -1, -2, -2, -4, 2, -1, 0,-1.6944930619008878,-0.580640586497839,0
1503525232510,+0.707,-0.248,+0.151,-0.645,-0.558,+0.111,-0.822,-0.375,-1.000,+0.750,1, -5, 0, 7, -3, -2, -1, 1,-1.6944930619008878,-0.580640586497839,0
1503525232525,+0.707,-0.247,+0.151,-0.645,-0.543,+0.116,-0.825,-0.250,-1.375,+0.000,-1, -1, -1, -2, 1, 8, 1, 0,-1.6935422809535736,-0.5789055454273397,0
1503525232547,+0.707,-0.248,+0.151,-0.645,-0.550,+0.112,-0.822,-0.750,-2.125,-0.062,0, 1, 1, -1, -2, -1, 1, -2,-1.6944930619008878,-0.580640586497839,0
1503525232570,+0.707,-0.248,+0.151,-0.645,-0.546,+0.113,-0.820,-0.312,-3.562,-0.250,-3, -2, 1, -2, -5, -1, 2, -3,-1.6944930619008878,-0.580640586497839,0
1503525232585,+0.707,-0.248,+0.152,-0.645,-0.557,+0.113,-0.823,-0.875,-3.000,-0.375,-1, -1, -1, 0, 1, -5, -2, -1,-1.6944315581925267,-0.5820593227611237,0
1503525232608,+0.707,-0.248,+0.152,-0.645,-0.553,+0.108,-0.819,-0.188,-3.188,+0.562,0, 0, -2, -3, -4, -4, -1, 1,-1.6944315581925267,-0.5820593227611237,0
1503525232632,+0.707,-0.249,+0.153,-0.645,-0.568,+0.102,-0.819,-1.375,-1.562,-0.062,0, -1, 0, -1, 3, 5, -1, -1,-1.6953226895909232,-0.5852165704018802,0
1503525232646,+0.707,-0.249,+0.153,-0.645,-0.562,+0.111,-0.831,-1.688,+0.188,+1.062,0, -1, -2, -2, -6, -5, -2, 0,-1.6953226895909232,-0.5852165704018802,0
1503525232668,+0.707,-0.249,+0.153,-0.645,-0.553,+0.113,-0.821,-1.000,+0.750,+0.750,-1, -1, -2, -3, -3, 3, 1, -2,-1.6953226895909232,-0.5852165704018802,0
1503525232690,+0.707,-0.248,+0.153,-0.645,-0.541,+0.113,-0.817,-1.375,+0.312,+0.312,-1, -1, -1, -1, -1, -6, -1, 0,-1.6943701153032569,-0.5834796954323006,0
1503525232706,+0.707,-0.248,+0.153,-0.645,-0.557,+0.118,-0.823,-1.062,+0.562,+0.125,-2, -2, -2, -1, 0, 5, 3, -2,-1.6943701153032569,-0.5834796954323006,0
1503525232728,+0.707,-0.248,+0.153,-0.645,-0.558,+0.115,-0.830,-0.312,+0.250,+0.250,0, -1, 0, -2, 2, -5, -1, 1,-1.6943701153032569,-0.5834796954323006,0
1503525232750,+0.707,-0.248,+0.153,-0.645,-0.548,+0.109,-0.828,-0.375,+0.375,+0.062,-1, -2, -3, 0, 0, 0, 1, 0,-1.6943701153032569,-0.5834796954323006,0
1503525232766,+0.707,-0.248,+0.153,-0.645,-0.556,+0.110,-0.820,-0.375,+0.375,+0.500,1, -1, 0, -1, 3, -1, -1, -2,-1.6943701153032569,-0.5834796954323006,0
1503525232788,+0.707,-0.248,+0.153,-0.645,-0.557,+0.105,-0.823,-0.812,+0.250,+0.188,-1, -2, 1, 3, -2, 9, -2, 0,-1.6943701153032569,-0.5834796954323006,0
1503525232810,+0.707,-0.248,+0.153,-0.645,-0.556,+0.105,-0.814,-1.125,+0.500,+0.625,-2, 1, -2, -2, 1, -4, 0, 0,-1.6943701153032569,-0.5834796954323006,0
1503525232827,+0.707,-0.248,+0.153,-0.645,-0.547,+0.112,-0.823,-1.438,-0.312,+0.688,0, 2, -3, -3, -1, -2, -1, -1,-1.6943701153032569,-0.5834796954323006,0
1503525232848,+0.707,-0.248,+0.153,-0.645,-0.559,+0.114,-0.823,-1.438,-0.312,+0.250,-1, -3, 1, -2, -2, -1, 3, 0,-1.6943701153032569,-0.5834796954323006,0
1503525232870,+0.707,-0.248,+0.153,-0.645,-0.558,+0.113,-0.823,-0.938,-0.250,+0.688,-2, 5, 0, 1, 0, -7, -4, 1,-1.6943701153032569,-0.5834796954323006,0
1503525232886,+0.707,-0.248,+0.153,-0.645,-0.549,+0.113,-0.825,-1.125,-0.188,+0.062,0, -2, 0, -3, -1, -5, 0, -2,-1.6943701153032569,-0.5834796954323006,0
1503525232909,+0.707,-0.248,+0.153,-0.645,-0.554,+0.112,-0.816,-0.625,+0.312,+0.625,-3, 1, 0, -1, 2, 11, 0, 1,-1.6943701153032569,-0.5834796954323006,0
1503525232930,+0.707,-0.248,+0.153,-0.645,-0.551,+0.117,-0.818,-0.875,-0.750,+0.625,-1, -3, -1, -3, -2, -1, 0, -1,-1.6943701153032569,-0.5834796954323006,0
1503525232946,+0.707,-0.248,+0.153,-0.645,-0.562,+0.107,-0.817,-1.188,-0.500,+0.625,0, -1, -2, -2, -1, 2, 0, 0,-1.6943701153032569,-0.5834796954323006,0
1503525232968,+0.707,-0.248,+0.153,-0.645,-0.560,+0.110,-0.822,-1.000,-0.500,+0.938,-2, -2, -2, -3, -2, -2, -1, 0,-1.6943701153032569,-0.5834796954323006,0
1503525232990,+0.707,-0.248,+0.153,-0.645,-0.548,+0.110,-0.823,-1.250,-0.438,+0.250,-1, -1, -2, -1, 3, 7, -1, 0,-1.6943701153032569,-0.5834796954323006,0
1503525233006,+0.707,-0.248,+0.153,-0.645,-0.557,+0.112,-0.817,-1.438,+0.062,+0.562,0, -1, -2, 1, -2, -7, 0, -1,-1.6943701153032569,-0.5834796954323006,0
1503525233028,+0.707,-0.248,+0.153,-0.645,-0.550,+0.110,-0.822,-1.188,-0.500,+0.500,0, 1, -3, -2, -1, 1, 0, -1,-1.6943701153032569,-0.5834796954323006,0
1503525233050,+0.707,-0.248,+0.153,-0.645,-0.556,+0.111,-0.816,-1.438,-0.438,+0.062,-3, -2, 1, 0, -1, -3, 0, 0,-1.6943701153032569,-0.5834796954323006,0
1503525233071,+0.707,-0.248,+0.153,-0.645,-0.555,+0.112,-0.819,-0.750,-0.125,+0.562,1, 0, -1, 0, -1, -5, -3, -2,-1.6943701153032569,-0.5834796954323006,0
1503525233088,+0.707,-0.248,+0.153,-0.645,-0.551,+0.114,-0.826,-0.938,-0.125,-0.062,0, 1, 0, 0, -1, -3, -5, -4,-1.6943701153032569,-0.5834796954323006,0
1503525233112,+0.707,-0.248,+0.153,-0.645,-0.558,+0.110,-0.814,-0.625,+0.375,+0.375,-1, 5, 0, -3, -1, -1, -2, 1,-1.6943701153032569,-0.5834796954323006,0
1503525233128,+0.707,-0.248,+0.153,-0.645,-0.550,+0.111,-0.824,-0.750,-1.062,-0.062,1, -4, -4, 1, -2, -2, -4, -1,-1.6943701153032569,-0.5834796954323006,0
1503525233148,+0.707,-0.248,+0.153,-0.645,-0.550,+0.110,-0.811,-0.875,-1.188,+0.562,0, -3, 1, -2, -2, -4, 12, -2,-1.6943701153032569,-0.5834796954323006,0
1503525233170,+0.707,-0.248,+0.153,-0.645,-0.547,+0.114,-0.826,-0.438,-3.750,+0.375,-2, -3, 0, -1, -2, -11, -16, -1,-1.6943701153032569,-0.5834796954323006,0
1503525233186,+0.707,-0.249,+0.154,-0.644,-0.554,+0.113,-0.804,-0.625,-4.562,-0.375,-3, 4, 5, 14, 3, 12, 10, 0,-1.6954370297786376,-0.5863804441004643,0
1503525233209,+0.706,-0.250,+0.154,-0.644,-0.551,+0.110,-0.818,-1.188,-5.875,-0.875,0, -4, -4, -14, 0, -6, -4, -2,-1.6937345353108828,-0.5877013826077649,0
1503525233230,+0.706,-0.250,+0.155,-0.644,-0.555,+0.108,-0.836,-0.625,-9.750,+0.188,0, 0, 9, 0, 0, 1, 6, -1,-1.6936728709857205,-0.5891235886530004,0
1503525233247,+0.706,-0.252,+0.156,-0.643,-0.540,+0.106,-0.804,-2.438,-12.188,+0.812,2, -22, -24, 24, 1, -5, -20, -2,-1.6957126845221306,-0.5937696680941976,0
1503525233271,+0.705,-0.253,+0.157,-0.643,-0.580,+0.122,-0.816,-2.125,-8.062,-0.188,-9, 5, 10, -8, 8, -1, -2, 3,-1.6939619044225098,-0.596517128422251,0
1503525233290,+0.705,-0.254,+0.158,-0.643,-0.603,+0.131,-0.821,-0.250,-3.375,-0.188,1, -3, -6, -12, -5, -4, 6, 0,-1.6948722075191027,-0.5996882449800917,0
1503525233307,+0.705,-0.253,+0.158,-0.643,-0.568,+0.103,-0.801,+1.188,+0.812,+0.250,0, -1, -1, -2, -3, 17, 7, -2,-1.693899371203382,-0.597942605189371,0
1503525233328,+0.705,-0.253,+0.158,-0.643,-0.560,+0.111,-0.818,+0.938,+0.500,-0.250,-2, 3, -3, -8, -8, -10, -9, -2,-1.693899371203382,-0.597942605189371,0
1503525233350,+0.706,-0.252,+0.158,-0.643,-0.574,+0.107,-0.808,+0.812,+0.875,-0.625,1, 3, 2, -8, -5, -2, 4, -1,-1.6955865014129465,-0.5966185428118437,0
1503525233366,+0.706,-0.252,+0.158,-0.643,-0.581,+0.104,-0.812,+1.438,+3.562,-1.562,2, -5, 2, 2, -1, -1, -3, -1,-1.6955865014129465,-0.5966185428118437,0
1503525233390,+0.706,-0.251,+0.158,-0.643,-0.572,+0.107,-0.809,+1.312,+5.438,-1.188,0, 6, 8, 17, 5, -5, 3, -1,-1.694622691203872,-0.5948765353245502,0
1503525233411,+0.707,-0.250,+0.158,-0.643,-0.561,+0.101,-0.824,+1.250,+6.562,-1.250,0, -1, 0, -2, -5, 0, -5, -1,-1.6963196437424086,-0.5935534701289744,0
1503525233426,+0.707,-0.249,+0.158,-0.643,-0.544,+0.104,-0.826,+1.250,+3.375,-1.062,-4, -1, -4, -3, -2, -8, -4, -5,-1.6953648563165382,-0.5918150461006544,0
1503525233448,+0.707,-0.248,+0.158,-0.643,-0.546,+0.099,-0.815,+2.062,+1.938,-0.750,-2, 1, -3, -11, -2, -8, -4, -2,-1.694413218064941,-0.5900789958610226,0
1503525233472,+0.707,-0.247,+0.158,-0.643,-0.564,+0.102,-0.814,+2.625,+1.000,-0.688,-1, -1, -7, -13, 7, 3, 12, -1,-1.6934647362800348,-0.588345312225633,0
1503525233486,+0.707,-0.247,+0.158,-0.643,-0.583,+0.106,-0.831,+2.000,+1.938,+0.250,1, 3, -2, -5, -4, -6, 3, 1,-1.6934647362800348,-0.588345312225633,0
1503525233508,+0.707,-0.246,+0.158,-0.643,-0.555,+0.101,-0.819,+2.250,+3.125,+0.188,0, -3, -4, 0, -1, 3, -6, -2,-1.6925194182204042,-0.5866139879746328,0
1503525233530,+0.707,-0.245,+0.158,-0.644,-0.553,+0.110,-0.824,+1.188,+4.312,+1.562,0, -2, 2, 1, -2, -2, -7, 1,-1.6914060914487128,-0.5851496340467482,0
1503525233546,+0.707,-0.245,+0.158,-0.644,-0.546,+0.085,-0.819,+1.500,+0.625,+0.062,5, 4, 4, 8, 5, -8, 0, 2,-1.6914060914487128,-0.5851496340467482,0
1503525233570,+0.707,-0.244,+0.158,-0.644,-0.536,+0.069,-0.817,-1.062,+1.625,+3.188,-3, -2, -6, -6, 3, 3, 0, -3,-1.6904683732776313,-0.5834232993938272,0
1503525233590,+0.707,-0.245,+0.158,-0.645,-0.566,+0.111,-0.838,-2.375,-2.000,+4.250,1, -7, 0, 1, -4, 7, 8, 4,-1.6912353939715539,-0.5854141594851944,0
1503525233606,+0.707,-0.245,+0.157,-0.645,-0.557,+0.106,-0.822,-2.750,+0.500,+3.062,0, 2, -4, -1, 0, -4, -9, 4,-1.6912944920942126,-0.5839846590892763,0
1503525233629,+0.706,-0.245,+0.157,-0.645,-0.541,+0.104,-0.819,-2.500,-1.312,+2.312,0, 3, 3, 5, 0, -7, -4, 5,-1.6886295678555225,-0.5835739725447759,0
1503525233650,+0.706,-0.245,+0.157,-0.645,-0.574,+0.111,-0.824,-1.875,-0.625,+1.438,-3, -2, -3, -5, -1, -2, 5, 1,-1.6886295678555225,-0.5835739725447759,0
1503525233674,+0.706,-0.245,+0.157,-0.645,-0.563,+0.110,-0.813,-1.375,+1.125,+1.000,-1, 0, -2, -5, -1, 1, 6, 1,-1.6886295678555225,-0.5835739725447759,0
1503525233688,+0.707,-0.245,+0.157,-0.645,-0.553,+0.101,-0.817,-1.062,+2.000,+0.562,-3, -3, -2, 3, -3, -11, -4, -1,-1.6912944920942126,-0.5839846590892763,0
1503525233711,+0.707,-0.245,+0.157,-0.645,-0.547,+0.102,-0.825,-0.938,+0.812,+0.688,-1, -1, 1, -1, -1, -5, 7, 1,-1.6912944920942126,-0.5839846590892763,0
1503525233726,+0.707,-0.245,+0.157,-0.645,-0.551,+0.096,-0.820,-0.688,+0.312,+0.312,-2, -1, -1, -4, 2, 4, -2, 2,-1.6912944920942126,-0.5839846590892763,0
1503525233748,+0.707,-0.245,+0.157,-0.645,-0.563,+0.102,-0.826,-1.250,+0.688,+0.500,1, -3, -5, -5, -3, 3, 7, 2,-1.6912944920942126,-0.5839846590892763,0
1503525233772,+0.707,-0.244,+0.156,-0.645,-0.549,+0.107,-0.827,-0.875,+1.625,+0.250,0, 4, -1, -3, 6, 15, -3, -1,-1.6904158334353903,-0.5808302574077221,0
1503525233786,+0.707,-0.244,+0.156,-0.645,-0.553,+0.092,-0.818,-1.188,+1.125,+0.562,-3, -4, 0, -3, 0, 0, -4, -2,-1.6904158334353903,-0.5808302574077221,0
1503525233809,+0.707,-0.244,+0.156,-0.645,-0.547,+0.107,-0.830,-1.562,-1.000,+0.812,-3, -2, -1, 0, -2, 2, -5, -2,-1.6904158334353903,-0.5808302574077221,0
1503525233830,+0.707,-0.244,+0.156,-0.645,-0.559,+0.096,-0.816,-1.312,-0.500,+0.812,1, 0, -1, 0, 1, 6, 0, 0,-1.6904158334353903,-0.5808302574077221,0
1503525233847,+0.707,-0.244,+0.156,-0.645,-0.551,+0.103,-0.822,-1.562,-1.312,+0.750,-1, -1, -2, -1, -3, -5, -8, 0,-1.6904158334353903,-0.5808302574077221,0
1503525233883,+0.707,-0.244,+0.156,-0.645,-0.564,+0.105,-0.820,-1.625,-0.438,+0.625,0, 2, -1, -2, 0, -6, 1, 2,-1.6904158334353903,-0.5808302574077221,0
1503525233890,+0.707,-0.244,+0.156,-0.645,-0.558,+0.102,-0.827,-0.938,+0.938,+0.625,1, 8, -1, -1, 0, -4, -9, 1,-1.6904158334353903,-0.5808302574077221,0
1503525233908,+0.707,-0.244,+0.156,-0.645,-0.547,+0.103,-0.822,-1.250,-0.188,+1.000,-3, -4, -1, 1, -4, -13, -2, -3,-1.6904158334353903,-0.5808302574077221,0
1503525233928,+0.707,-0.244,+0.156,-0.645,-0.552,+0.104,-0.825,-1.188,+0.188,+0.312,0, -1, -3, -2, 0, 0, -2, -2,-1.6904158334353903,-0.5808302574077221,0
1503525233951,+0.707,-0.244,+0.156,-0.645,-0.554,+0.097,-0.824,-1.125,-0.312,+0.875,1, -1, -1, 0, 7, -1, 0, 1,-1.6904158334353903,-0.5808302574077221,0
1503525233966,+0.707,-0.244,+0.156,-0.645,-0.553,+0.102,-0.827,-1.125,-0.625,+1.000,1, -3, -4, -8, -3, -3, -4, 1,-1.6904158334353903,-0.5808302574077221,0
1503525233990,+0.707,-0.244,+0.156,-0.645,-0.551,+0.101,-0.822,-1.250,-0.125,+1.125,-2, 9, -1, -4, -2, 3, -1, 0,-1.6904158334353903,-0.5808302574077221,0
1503525234011,+0.707,-0.244,+0.156,-0.645,-0.555,+0.109,-0.819,-1.062,-0.438,+1.312,-2, -7, -3, -4, -3, -3, 1, -2,-1.6904158334353903,-0.5808302574077221,0
1503525234026,+0.707,-0.244,+0.156,-0.645,-0.558,+0.104,-0.818,-0.875,+0.062,+0.812,-1, 1, -2, -2, 0, 4, 5, 1,-1.6904158334353903,-0.5808302574077221,0
1503525234050,+0.707,-0.244,+0.156,-0.645,-0.558,+0.105,-0.822,-0.938,-0.312,+1.250,0, -1, 2, 5, -1, -6, 4, 0,-1.6904158334353903,-0.5808302574077221,0
1503525234071,+0.707,-0.244,+0.156,-0.645,-0.553,+0.105,-0.828,-0.875,+0.125,+0.562,1, -2, -2, -4, 4, 19, -2, -1,-1.6904158334353903,-0.5808302574077221,0
1503525234086,+0.707,-0.244,+0.156,-0.645,-0.558,+0.102,-0.816,-1.375,+0.750,+0.938,0, -1, 1, 1, 1, -3, -4, -2,-1.6904158334353903,-0.5808302574077221,0
1503525234115,+0.707,-0.244,+0.156,-0.645,-0.549,+0.104,-0.832,-1.688,-0.438,+0.812,-1, -3, -2, -2, -2, -5, -12, -1,-1.6904158334353903,-0.5808302574077221,0
1503525234130,+0.707,-0.244,+0.156,-0.645,-0.561,+0.100,-0.816,-1.812,+0.125,+0.688,-1, 0, -2, -3, -1, 0, 2, 0,-1.6904158334353903,-0.5808302574077221,0
1503525234146,+0.707,-0.244,+0.156,-0.645,-0.552,+0.108,-0.827,-1.188,-0.438,+1.125,-1, 0, 0, -1, -3, -6, -2, 0,-1.6904158334353903,-0.5808302574077221,0
1503525234168,+0.707,-0.244,+0.156,-0.645,-0.553,+0.106,-0.822,-1.188,-0.375,+0.500,-1, -2, 3, 5, -1, -3, -2, -2,-1.6904158334353903,-0.5808302574077221,0
1503525234190,+0.707,-0.244,+0.156,-0.645,-0.553,+0.101,-0.820,-1.312,-0.875,+1.250,-1, -1, -1, -2, -3, 4, -4, 0,-1.6904158334353903,-0.5808302574077221,0
1503525234206,+0.707,-0.244,+0.156,-0.645,-0.554,+0.105,-0.827,-1.500,-0.625,+0.562,-2, 2, 3, 11, -7, -20, -2, -2,-1.6904158334353903,-0.5808302574077221,0
1503525234228,+0.707,-0.244,+0.156,-0.645,-0.562,+0.107,-0.817,-1.250,+0.188,+0.875,0, 16, -1, -3, 0, 2, 0, -1,-1.6904158334353903,-0.5808302574077221,0
1503525234252,+0.707,-0.244,+0.156,-0.645,-0.552,+0.103,-0.821,-1.062,-0.812,+0.750,-3, -6, -3, -6, -4, 10, -1, -1,-1.6904158334353903,-0.5808302574077221,0
1503525234266,+0.707,-0.244,+0.156,-0.645,-0.555,+0.105,-0.824,-1.562,-0.125,+0.500,1, -3, -1, -1, 7, 1, -3, -1,-1.6904158334353903,-0.5808302574077221,0
1503525234288,+0.707,-0.244,+0.156,-0.645,-0.560,+0.106,-0.825,-1.125,-0.125,+1.125,0, 2, 2, 3, -3, -1, -3, -2,-1.6904158334353903,-0.5808302574077221,0
1503525234313,+0.707,-0.244,+0.156,-0.645,-0.547,+0.103,-0.823,-1.500,+0.062,+0.750,-1, 0, 1, 3, 0, -5, -1, 0,-1.6904158334353903,-0.5808302574077221,0
1503525234326,+0.707,-0.244,+0.156,-0.645,-0.551,+0.105,-0.824,-1.250,-1.562,+1.125,2, 1, 1, -1, 4, 16, -1, -1,-1.6904158334353903,-0.5808302574077221,0
1503525234349,+0.707,-0.244,+0.156,-0.645,-0.555,+0.107,-0.815,-1.250,-1.188,+0.625,-1, 1, 4, 8, 0, -5, -8, 1,-1.6904158334353903,-0.5808302574077221,0
1503525234370,+0.707,-0.244,+0.156,-0.645,-0.549,+0.107,-0.819,-0.812,-2.000,+0.375,-1, -3, -4, -4, -3, -5, 2, -2,-1.6904158334353903,-0.5808302574077221,0
1503525234386,+0.707,-0.244,+0.157,-0.645,-0.544,+0.102,-0.824,-0.500,-3.375,-0.375,0, -3, -2, -3, 0, 2, 1, 1,-1.6903573499421458,-0.582258348233259,0
1503525234416,+0.706,-0.245,+0.157,-0.645,-0.547,+0.097,-0.814,-1.500,-4.875,-0.125,-2, 0, -3, -3, -1, -5, -1, -2,-1.6886295678555225,-0.5835739725447759,0
1503525234430,+0.707,-0.245,+0.158,-0.645,-0.514,+0.118,-0.819,+1.750,-7.125,-2.750,-3, -4, -3, -4, -2, 0, 4, -5,-1.6912353939715539,-0.5854141594851944,0
1503525234450,+0.707,-0.245,+0.161,-0.644,-0.448,+0.152,-0.814,+13.188,-15.312,-8.875,-3, 3, -4, -5, 1, 4, 16, 0,-1.6912286435734214,-0.5894441714035242,0
1503525234470,+0.706,-0.245,+0.167,-0.643,-0.485,+0.197,-0.875,+28.812,-36.375,-17.375,1, -9, -6, -9, -6, -5, -11, -2,-1.68838468605754,-0.5973965263049177,0
1503525234491,+0.704,-0.250,+0.179,-0.640,-0.710,+0.210,-0.848,+38.188,-65.750,-23.562,-3, -3, -11, -20, 15, 17, -7, 0,-1.6875948740566975,-0.6217934092326455,0
1503525234506,+0.704,-0.254,+0.196,-0.634,-0.857,+0.148,-0.857,+47.438,-77.000,-43.875,0, -7, -9, -15, -10, -7, 18, 3,-1.6914125311107664,-0.6519557215720618,0
1503525234528,+0.706,-0.261,+0.218,-0.621,-1.031,+0.169,-0.737,+48.750,-98.375,-93.500,2, 19, 12, 22, 6, 20, 1, 3,-1.7043669023055528,-0.6937365733032921,0
1503525234551,+0.712,-0.263,+0.246,-0.602,-1.142,+0.486,-0.842,+83.062,-123.750,-147.062,-2, 1, 2, -5, -24, -50, -1, 2,-1.7238759404221708,-0.7358866787675481,0
1503525234566,+0.714,-0.255,+0.281,-0.588,-0.904,+0.896,-1.172,+158.188,-110.062,-141.438,-5, 4, 14, 37, -11, -46, -16, -9,-1.7218703326618578,-0.7730060048160615,0
1503525234589,+0.712,-0.244,+0.323,-0.574,-0.769,+0.452,-0.763,+209.188,-124.000,-139.938,12, 26, 36, 70, 10, 0, -15, 10,-1.7063295330527701,-0.818459831937847,0
1503525234613,+0.713,-0.235,+0.368,-0.548,-0.586,-0.536,-0.774,+173.312,-167.188,-191.375,-1, -10, -12, -24, 11, 23, -8, -1,-1.7032795017756324,-0.8733970211565663,0
1503525234633,+0.720,-0.225,+0.404,-0.517,-1.130,-0.594,-0.617,+124.062,-132.500,-219.000,-6, -4, -18, -31, -1, 25, -5, -13,-1.7187443403913325,-0.913618573986914,0
1503525234650,+0.726,-0.214,+0.437,-0.486,-1.203,-0.500,-0.503,+116.125,-115.000,-222.062,1, -6, -1, 2, -7, -9, -1, -1,-1.732629126408281,-0.9495405171185183,0
1503525234671,+0.727,-0.201,+0.467,-0.461,-0.951,-0.518,-0.447,+130.500,-90.125,-181.875,0, -7, -12, -38, -9, -41, -1, -8,-1.730105525277907,-0.9817077533642297,0
1503525234693,+0.727,-0.182,+0.490,-0.445,-0.735,-0.582,-0.519,+127.312,-21.750,-151.125,-1, -6, -5, -3, 19, -6, 4, -10,-1.7190908148279165,-0.9963509169500773,0
1503525234709,+0.727,-0.158,+0.506,-0.435,-0.547,-0.619,-0.358,+121.625,+26.625,-123.375,3, -12, -5, -11, -18, -19, 0, 12,-1.7050022702887822,-0.9917696750345766,0
1503525234730,+0.725,-0.139,+0.522,-0.427,-0.332,-0.741,-0.174,+108.312,+15.938,-96.938,-2, 0, 0, 1, -11, 39, 10, 14,-1.6878771339603749,-0.999192029213495,0
1503525234753,+0.724,-0.126,+0.538,-0.414,-0.215,-0.752,-0.147,+79.625,-29.938,-82.875,-1, -4, 2, 9, 24, 3, 1, -4,-1.6793458781566148,-1.015737837411049,0
1503525234775,+0.724,-0.122,+0.552,-0.395,-0.172,-0.625,-0.190,+55.562,-81.250,-85.625,-5, -4, -9, -7, 2, 6, -10, -12,-1.680899334511672,-1.0385982404944654,0
1503525234791,+0.722,-0.124,+0.567,-0.377,-0.244,-0.622,-0.294,+49.625,-104.250,-68.438,4, 4, -14, 4, 23, 45, 17, 2,-1.677426226641109,-1.0772982505949216,0
1503525234814,+0.721,-0.126,+0.576,-0.364,-0.449,-0.726,-0.248,+28.750,-77.250,-51.875,4, 6, 11, 6, -18, 21, -2, -6,-1.6770066883820118,-1.101592393498197,0
1503525234828,+0.720,-0.127,+0.583,-0.353,-0.519,-0.696,-0.324,+25.688,-63.438,-38.125,-4, -14, -1, 7, -2, -31, -34, -10,-1.6756175943360432,-1.119707979406999,0
1503525234853,+0.719,-0.126,+0.588,-0.347,-0.522,-0.654,-0.421,+32.938,-35.938,-35.750,-10, -9, -14, -15, -17, 22, -4, -5,-1.6719301104468403,-1.1317026299120057,0
1503525234872,+0.719,-0.121,+0.593,-0.342,-0.501,-0.645,-0.371,+39.375,-14.875,-43.625,3, 5, -3, -3, 27, -16, 7, 13,-1.6699565806205885,-1.138519850152971,0
1503525234887,+0.717,-0.114,+0.601,-0.334,-0.452,-0.718,-0.327,+51.875,-20.812,-50.938,9, 7, 31, 6, 7, 107, 41, 23,-1.6585112711666312,-1.1518039688915063,0
1503525234909,+0.715,-0.107,+0.610,-0.324,-0.326,-0.830,-0.335,+58.812,-33.562,-55.750,-14, -8, -7, 1, 5, -25, -19, 4,-1.6470098529993003,-1.1691130036102304,0
1503525234932,+0.714,-0.100,+0.619,-0.312,-0.528,-0.781,-0.443,+65.562,-44.812,-80.188,9, 6, 5, 24, 86, 65, -14, -29,-1.64022521152544,-1.1869449515550559,0
1503525234949,+0.713,-0.089,+0.627,-0.301,-0.441,-0.901,-0.285,+54.812,-9.938,-85.875,5, 12, 30, 12, 17, 68, -5, -31,-1.6309641340180154,-1.1968828539794014,0
1503525234970,+0.709,-0.058,+0.625,-0.322,+0.891,-0.829,+0.344,+62.812,+203.125,+0.688,20, 5, 9, 3, 24, -34, -2, 113,-1.593642646651497,-1.1584785253083778,0
1503525234992,+0.698,-0.062,+0.634,-0.328,-0.678,-1.383,+0.399,+32.312,+7.750,+67.625,-14, -55, -46, 6, 43, -51, -20, -4,-1.53743710097299,-1.2120622989604368,0
1503525235007,+0.705,-0.054,+0.616,-0.347,-1.082,-1.108,+0.481,-89.062,+146.250,+37.562,39, 46, -82, -50, 12, 15, 39, -107,-1.5705840194490133,-1.1338070502356112,0
1503525235030,+0.732,-0.055,+0.586,-0.341,+0.768,-1.287,+0.291,-236.625,+42.562,-43.500,1, -81, -51, -11, -18, 22, 10, 63,-1.7077728124653813,-1.0017078557478933,0
1503525235052,+0.738,-0.082,+0.563,-0.362,-0.239,-0.924,+0.274,-175.562,+8.562,+178.375,17, -28, 53, 127, 8, 36, 26, -114,-1.7332970530639342,-0.9825519243379541,0
1503525235068,+0.742,-0.100,+0.538,-0.388,-0.261,-0.519,-0.380,-149.125,+62.500,+181.250,-108, 94, -47, -82, -35, -40, -6, 70,-1.7462197120355223,-0.9541762555765874,0
1503525235091,+0.736,-0.135,+0.525,-0.405,-1.122,+1.015,-1.166,-104.188,-73.000,+207.250,13, -122, 81, -6, -23, -27, -61, -53,-1.7317979535203316,-0.9868878813684895,0
1503525235112,+0.730,-0.160,+0.524,-0.409,-0.652,+0.941,-0.889,-30.750,-107.000,+90.500,-117, -36, -34, -69, -11, -10, -54, -4,-1.722596653855334,-1.027817245904886,0
1503525235127,+0.722,-0.174,+0.525,-0.416,-0.943,-0.123,-0.782,+35.375,-58.000,+55.375,111, 61, -21, -8, -9, -45, 60, 34,-1.7016745732054068,-1.0571199324643707,0
1503525235151,+0.711,-0.181,+0.531,-0.424,-1.096,-0.836,-0.548,+51.375,-34.000,+75.250,14, -5, 76, 41, 82, 72, -30, -23,-1.6667891407415585,-1.088425291555992,0
1503525235172,+0.705,-0.180,+0.536,-0.428,-0.994,-0.886,-0.342,+41.562,+2.500,+23.625,48, 38, 64, 75, -19, -6, 1, -8,-1.644553601604945,-1.1023330940421128,0
1503525235187,+0.701,-0.177,+0.540,-0.431,-0.801,-0.700,-0.177,+28.562,+19.375,+8.125,-12, -21, 63, -20, -19, 7, 36, 29,-1.6278862747463012,-1.1101519477722601,0
1503525235209,+0.697,-0.179,+0.543,-0.434,-0.732,-0.655,-0.166,+15.812,-5.750,+29.312,-35, -30, -13, 1, -3, -20, -22, -11,-1.6154257250012762,-1.1230373533427727,0
1503525235232,+0.692,-0.183,+0.544,-0.438,-0.782,-0.573,-0.200,+10.562,-4.875,+39.312,-2, -20, 2, -28, -27, -6, -12, -7,-1.6014661091691755,-1.1335289110264157,0
1503525235250,+0.685,-0.191,+0.544,-0.444,-0.807,-0.402,-0.188,+6.812,-14.938,+55.375,44, -31, -37, -16, -24, -19, -4, 15,-1.5847792014716988,-1.1479065574355538,0
1503525235270,+0.678,-0.202,+0.543,-0.452,-0.736,-0.198,-0.273,+6.938,-23.312,+66.625,-25, -46, -8, -3, 4, 6, -7, -10,-1.5719690028917719,-1.1648782883009137,0
1503525235292,+0.669,-0.214,+0.543,-0.460,-0.673,-0.086,-0.371,+15.312,-40.625,+72.562,-27, 15, 17, 11, 6, 1, 10, -5,-1.5551280127779208,-1.1855239310450079,0
1503525235307,+0.659,-0.227,+0.543,-0.468,-0.742,-0.011,-0.361,+22.062,-40.500,+74.938,-11, -18, 10, -8, -4, -3, -1, 1,-1.5379360548060586,-1.207195858730132,0
1503525235330,+0.648,-0.239,+0.544,-0.476,-0.813,-0.015,-0.291,+29.250,-43.312,+73.000,-8, -4, 8, -10, 0, -1, -1, -8,-1.5184453753678437,-1.2295918921923479,0
1503525235356,+0.637,-0.249,+0.547,-0.484,-0.849,-0.146,-0.243,+34.875,-38.062,+70.312,-17, -17, 6, 1, -1, -1, -7, 5,-1.4984163463291031,-1.2540078538788775,0
1503525235367,+0.624,-0.257,+0.550,-0.492,-0.897,-0.325,-0.250,+44.250,-35.500,+79.188,-5, -13, -11, 8, 4, 7, -5, 0,-1.4717036262558263,-1.274746484592712,0
1503525235390,+0.611,-0.263,+0.553,-0.501,-0.933,-0.453,-0.275,+48.875,-23.688,+86.375,0, -2, 11, 11, 1, -1, 2, -3,-1.4441170287531697,-1.2925986511546776,0
1503525235412,+0.600,-0.267,+0.556,-0.510,-0.962,-0.473,-0.269,+46.812,-13.750,+77.562,-5, 11, 14, 0, 0, -1, -8, -9,-1.420737601040753,-1.3075890661722298,0
1503525235427,+0.590,-0.271,+0.558,-0.517,-0.950,-0.514,-0.296,+41.312,-14.125,+72.125,0, -6, -1, 2, -5, -13, -2, -3,-1.40049631958308,-1.3193190877341752,0
1503525235455,+0.582,-0.272,+0.558,-0.525,-0.990,-0.591,-0.257,+35.500,+0.375,+68.625,2, 0, -4, -3, -3, -5, 9, 3,-1.3821902143940994,-1.3219868116532045,0
1503525235472,+0.575,-0.272,+0.559,-0.531,-1.017,-0.683,-0.231,+29.188,+3.750,+59.375,-3, 3, 21, -3, 2, 3, -23, -33,-1.365181012652064,-1.3253447733987798,0
1503525235488,+0.570,-0.273,+0.561,-0.535,-1.024,-0.671,-0.200,+20.125,-2.000,+50.062,-1, 5, -7, -3, 5, -19, 8, -2,-1.3546867701988068,-1.3324084573455253,0
1503525235510,+0.565,-0.275,+0.562,-0.538,-1.035,-0.592,-0.167,+12.500,-8.812,+42.875,4, 0, -1, -3, 26, 5, -8, 5,-1.3453693249027496,-1.3379890387482314,0
1503525235532,+0.561,-0.278,+0.563,-0.540,-1.071,-0.503,-0.198,+9.000,-13.938,+35.000,-3, 2, -4, 1, -11, -8, 9, -4,-1.3399362879644083,-1.34482692706996,0
1503525235549,+0.558,-0.280,+0.563,-0.541,-1.048,-0.430,-0.250,+5.125,-7.875,+24.625,-2, 29, 3, 14, -8, -2, 14, 13,-1.3353507751303333,-1.3475291755464804,0
1503525235569,+0.557,-0.280,+0.562,-0.543,-1.044,-0.393,-0.190,+3.562,+6.125,+15.625,-3, -16, -6, -15, -9, -13, -17, -15,-1.333203480831691,-1.3453520608229614,0
1503525235593,+0.556,-0.278,+0.562,-0.546,-1.064,-0.468,-0.141,+6.750,+16.750,+12.125,-9, -3, 5, 3, 5, -4, -12, -23,-1.3286299879080288,-1.3431941969149628,0
1503525235607,+0.554,-0.277,+0.563,-0.547,-1.014,-0.492,-0.146,+10.562,+7.125,+15.562,54, 2, 20, 3, -11, -26, -12, -3,-1.3225236307297354,-1.3443664623792866,0
1503525235629,+0.552,-0.276,+0.564,-0.549,-0.956,-0.478,-0.145,+14.062,+4.000,+13.812,-2, 6, 5, 7, 16, 16, 9, 18,-1.3167246231007552,-1.3458162256008923,0
1503525235658,+0.551,-0.274,+0.566,-0.549,-0.964,-0.527,-0.134,+10.438,+2.250,+10.000,-14, -8, 5, -7, -8, 4, -1, -6,-1.3116209237648238,-1.3480728796961134,0
1503525235667,+0.550,-0.272,+0.566,-0.550,-0.969,-0.526,-0.145,+8.062,+6.062,+12.875,0, 37, 0, -2, -10, 0, 3, 33,-1.306525163559424,-1.3454431050284272,0
1503525235691,+0.549,-0.272,+0.566,-0.552,-0.946,-0.463,-0.111,+3.750,+11.000,+17.438,-13, -14, 2, -7, -4, -3, -13, 3,-1.3045877893536857,-1.3458487834587438,0
1503525235712,+0.548,-0.271,+0.566,-0.553,-0.905,-0.434,-0.120,+1.938,+7.875,+17.125,1, 30, 0, 7, -11, -9, -3, -20,-1.3009300664949253,-1.3446114206063964,0
1503525235728,+0.547,-0.272,+0.565,-0.555,-0.902,-0.417,-0.141,-0.438,+4.375,+18.750,-11, -21, -14, -5, -6, -8, -4, 1,-1.3002780250559585,-1.3438069887132407,0
1503525235759,+0.546,-0.273,+0.565,-0.556,-0.940,-0.375,-0.140,-5.375,+0.688,+16.062,-8, -7, -3, -3, -11, -17, 0, -19,-1.2994794420731202,-1.345321703020879,0
1503525235772,+0.545,-0.276,+0.564,-0.556,-0.981,-0.321,-0.161,-8.875,-2.625,+11.125,6, -5, 2, -4, -7, 9, 10, 3,-1.3010910527404296,-1.346761268796954,0
1503525235787,+0.545,-0.277,+0.562,-0.557,-1.011,-0.271,-0.226,-5.875,+0.500,+6.375,-8, -17, -6, -2, 4, 5, 4, 23,-1.302520660271534,-1.3432807952110903,0
1503525235810,+0.545,-0.277,+0.560,-0.559,-1.002,-0.240,-0.256,-4.500,+9.438,+2.688,-2, -6, -1, -3, -6, -6, 6, 43,-1.302818645405723,-1.3386984265217108,0
1503525235832,+0.547,-0.275,+0.557,-0.562,-0.973,-0.239,-0.271,-2.188,+22.312,-0.500,-2, -12, -7, -2, 2, -11, -1, -14,-1.30545221948979,-1.3293517619099393,0
1503525235847,+0.548,-0.272,+0.554,-0.564,-0.927,-0.269,-0.250,-0.812,+23.750,-4.000,0, -2, -16, -11, 6, 24, 8, -17,-1.3038906752686639,-1.3182417888880051,0
1503525235869,+0.550,-0.270,+0.553,-0.565,-0.926,-0.283,-0.238,+1.875,+17.438,-7.312,-21, -12, -14, -9, -8, -11, -12, -35,-1.3063071004592233,-1.3134935421333493,0
1503525235892,+0.551,-0.267,+0.552,-0.566,-0.910,-0.302,-0.266,+0.562,+11.062,-9.188,25, 7, 10, 6, 0, -11, -11, 6,-1.304828039806804,-1.307228966037928,0
1503525235907,+0.553,-0.264,+0.550,-0.567,-0.916,-0.326,-0.274,+0.500,+20.250,-6.125,-4, 0, 2, 3, 5, 1, -1, -4,-1.305800424411589,-1.2985812590290111,0
1503525235930,+0.555,-0.260,+0.547,-0.570,-0.971,-0.379,-0.222,-2.312,+35.375,-2.500,-5, -4, 4, 1, 0, 4, 3, -2,-1.3059443961591668,-1.2866693472028863,0
1503525235954,+0.557,-0.257,+0.543,-0.573,-0.958,-0.381,-0.204,-6.188,+38.250,+3.625,-3, 2, 11, -1, -7, -3, -10, -9,-1.3073897889638215,-1.2736631932450342,0
1503525235967,+0.559,-0.254,+0.538,-0.577,-0.907,-0.317,-0.230,-3.812,+41.688,+5.812,-3, -2, -7, -1, 18, -1, -1, -7,-1.3090740072562246,-1.2585527221647048,0
1503525235994,+0.560,-0.251,+0.533,-0.582,-0.847,-0.304,-0.287,-3.062,+42.438,+14.125,3, 0, -1, 0, -11, -4, -10, -9,-1.3085465190640775,-1.2437548586602607,0
1503525236012,+0.560,-0.248,+0.527,-0.589,-0.887,-0.338,-0.276,-3.375,+51.250,+22.875,2, 2, -1, 2, 4, -4, 19, 12,-1.305969123718216,-1.2271629807956508,0
1503525236034,+0.560,-0.246,+0.520,-0.596,-0.950,-0.340,-0.307,-4.000,+52.938,+28.625,-4, -2, 1, -5, -29, 13, 0, -7,-1.3046021941312642,-1.2096698952730387,0
1503525236058,+0.559,-0.243,+0.513,-0.604,-0.915,-0.265,-0.374,+1.625,+56.625,+32.438,-2, -2, 3, 3, -10, -9, -6, 6,-1.2997395883085505,-1.1912450544246371,0
1503525236075,+0.557,-0.238,+0.505,-0.614,-0.850,-0.244,-0.411,+10.938,+65.312,+36.062,-5, -3, -3, -4, -4, -19, -6, 6,-1.2903910199434696,-1.1685225620954065,0
1503525236091,+0.555,-0.234,+0.499,-0.624,-0.845,-0.268,-0.424,+14.188,+54.000,+38.812,5, 1, -1, -6, -21, -27, -10, -4,-1.2827243369330208,-1.1523190634627938,0
1503525236109,+0.551,-0.232,+0.495,-0.631,-0.841,-0.240,-0.433,+14.500,+30.125,+36.312,2, 4, 0, -6, -19, -28, -16, -12,-1.2717822862770558,-1.1421550538821224,0
1503525236133,+0.547,-0.230,+0.493,-0.636,-0.870,-0.211,-0.469,+24.188,+15.938,+28.875,-3, -1, -1, -1, -15, -4, -5, -5,-1.2605413648691959,-1.1360074866291818,0
1503525236147,+0.542,-0.228,+0.493,-0.641,-0.920,-0.214,-0.488,+32.938,+9.375,+20.688,0, -2, -1, -2, -2, -16, -6, -8,-1.247135399362825,-1.134495251056147,0
1503525236169,+0.538,-0.224,+0.495,-0.644,-0.926,-0.228,-0.491,+38.250,+1.312,+13.000,0, -2, 1, -2, -3, 8, 40, 4,-1.2335240216715035,-1.1345504470693932,0
1503525236195,+0.533,-0.222,+0.499,-0.646,-0.908,-0.189,-0.410,+38.500,-8.625,+10.500,-3, 0, 0, -1, 1, -15, -20, -6,-1.2198194459913851,-1.1415279834627972,0
1503525236207,+0.527,-0.221,+0.505,-0.647,-0.837,-0.188,-0.351,+40.875,-26.188,+10.812,-9, -4, -2, 3, 9, -3, -8, -7,-1.2048490478205574,-1.1541645867392833,0
1503525236230,+0.520,-0.221,+0.513,-0.646,-0.860,-0.217,-0.329,+45.500,-47.875,+10.000,1, 0, -1, -1, -2, -6, -15, -3,-1.1882926233682032,-1.1721470777619156,0
1503525236252,+0.513,-0.222,+0.524,-0.642,-0.928,-0.219,-0.304,+44.688,-62.812,+2.688,1, 0, -2, 1, 5, 24, 8, 5,-1.1724744191978258,-1.197928015258292,0
1503525236267,+0.507,-0.224,+0.534,-0.638,-1.019,-0.191,-0.283,+39.875,-61.500,+1.625,-2, -2, -1, -3, -11, -19, 2, 15,-1.160421021058444,-1.2230317710709118,0
1503525236291,+0.500,-0.225,+0.542,-0.637,-1.069,-0.181,-0.307,+38.625,-44.375,+9.688,-4, 0, 3, 2, 3, -3, -10, -11,-1.1457308442689382,-1.2431074810678189,0
1503525236312,+0.493,-0.224,+0.546,-0.639,-1.001,-0.190,-0.314,+41.812,-19.438,+14.188,4, 3, 4, 8, 8, 0, 4, -1,-1.1291353595182871,-1.2517927344746829,0
1503525236328,+0.487,-0.222,+0.549,-0.642,-0.950,-0.209,-0.262,+39.938,+1.188,+19.500,4, 1, -2, -2, -6, -12, -5, 0,-1.1140190368393574,-1.2572929690378363,0
1503525236349,+0.481,-0.221,+0.551,-0.645,-0.932,-0.221,-0.207,+32.688,+0.438,+24.875,-1, 0, -1, -2, 2, 16, -3, 7,-1.1001551150896807,-1.2614563508259629,0
1503525236372,+0.475,-0.220,+0.553,-0.648,-0.917,-0.214,-0.240,+29.438,-5.062,+24.875,-3, -3, -3, -4, -9, -23, -2, 0,-1.0864215697937585,-1.2656450546635163,0
1503525236387,+0.469,-0.220,+0.555,-0.650,-0.907,-0.214,-0.278,+27.438,-11.562,+25.688,0, 0, 2, 2, 13, 29, 5, 3,-1.0736957995099268,-1.2706691809025417,0
1503525236409,+0.464,-0.221,+0.557,-0.653,-0.934,-0.191,-0.265,+22.938,-10.500,+27.375,-1, -4, -3, -2, -4, -7, -6, -4,-1.0652290981047694,-1.2773131378499607,0
1503525236433,+0.458,-0.223,+0.558,-0.655,-0.941,-0.176,-0.251,+20.562,-7.938,+30.000,0, 1, 1, -2, -10, 0, 1, 5,-1.0552472004393185,-1.282049540544468,0
1503525236448,+0.451,-0.224,+0.559,-0.659,-0.958,-0.176,-0.263,+19.312,-7.312,+36.312,2, 1, 2, 0, 5, -9, -4, 15,-1.0427070124437252,-1.286151894972263,0
1503525236470,+0.446,-0.225,+0.558,-0.663,-0.990,-0.153,-0.293,+19.562,+4.438,+35.812,-3, 1, 1, 0, 1, 16, 0, -19,-1.034383290211049,-1.285358916442088,0
1503525236493,+0.441,-0.225,+0.556,-0.668,-0.990,-0.137,-0.284,+18.500,+15.688,+31.562,-2, -2, -5, -5, -9, -26, 1, -2,-1.0249960389375286,-1.2811942040407247,0
1503525236507,+0.436,-0.225,+0.553,-0.673,-0.954,-0.129,-0.274,+15.125,+16.062,+28.562,1, -1, -2, -2, 0, -9, -2, -4,-1.015437416222772,-1.274498128195307,0
1503525236530,+0.432,-0.225,+0.552,-0.677,-0.894,-0.137,-0.302,+15.688,+9.562,+27.188,4, 0, 1, 1, -4, -2, 2, 3,-1.0081755718509886,-1.2727291581298512,0
1503525236552,+0.428,-0.226,+0.550,-0.680,-0.922,-0.133,-0.314,+13.250,+6.812,+27.688,-1, 0, 1, 0, -1, -3, 1, 0,-1.001615691547986,-1.269225144108465,0
1503525236568,+0.424,-0.226,+0.548,-0.684,-0.985,-0.119,-0.294,+10.375,+11.375,+25.750,2, 0, 2, 4, 5, 19, 12, 8,-0.994189452612182,-1.2649333184245362,0
1503525236597,+0.421,-0.226,+0.546,-0.688,-1.015,-0.125,-0.271,+10.688,+16.562,+27.375,-1, 1, 2, -1, 0, -11, 1, -6,-0.9889866384014185,-1.2607968419647126,0
1503525236612,+0.417,-0.226,+0.543,-0.693,-0.983,-0.111,-0.275,+9.562,+23.125,+29.938,1, -2, -3, -1, 3, -13, -6, -1,-0.9818375104785858,-1.254357091567995,0
1503525236629,+0.414,-0.226,+0.539,-0.698,-0.941,-0.116,-0.303,+9.125,+27.750,+30.000,0, 0, 0, 2, 11, 15, -1, 0,-0.9766329453420327,-1.2455867130320084,0
1503525236649,+0.411,-0.226,+0.535,-0.703,-0.962,-0.122,-0.278,+6.125,+27.625,+26.375,3, 7, -2, -1, 6, 1, 3, 3,-0.9714376299780302,-1.2368744037796504,0
1503525236672,+0.409,-0.225,+0.532,-0.706,-0.979,-0.114,-0.241,+2.125,+24.312,+17.812,-3, -9, -1, 2, 14, 23, 0, 0,-0.9663810148051796,-1.229015339314914,0
1503525236688,+0.408,-0.226,+0.531,-0.708,-0.959,-0.107,-0.235,-3.750,+13.125,+13.938,-2, 0, -1, -2, -3, -10, -2, 5,-0.9662507147127862,-1.2282187255577541,0
1503525236709,+0.408,-0.227,+0.529,-0.709,-0.937,-0.077,-0.285,-4.562,+6.688,+8.188,2, 0, 0, -3, -8, 6, -1, -8,-0.9675550613675873,-1.2247367943935832,0
1503525236732,+0.407,-0.229,+0.528,-0.709,-0.940,-0.087,-0.311,-7.750,+0.250,+6.312,4, 3, 0, 6, 20, 40, 3, 6,-0.9678526815770476,-1.224379137610426,0
1503525237550,+0.447,-0.205,+0.508,-0.708,-1.039,-0.200,-0.393,+28.375,+7.000,-31.875,4, 0, -4, -5, -11, -14, 3, 41,-1.020305502620379,-1.1538056083446946,1
1503525237572,+0.448,-0.198,+0.511,-0.706,-1.010,-0.179,-0.393,+33.250,+1.688,-35.312,-1, 3, 0, -4, -5, 0, -9, -18,-1.0136180736068587,-1.1527381845867875,1
1503525237594,+0.449,-0.189,+0.516,-0.705,-1.009,-0.185,-0.434,+44.812,+2.375,-39.938,1, 1, -2, -5, -24, -45, -3, -4,-1.0054786971258853,-1.1551304503550688,1
1503525237610,+0.450,-0.179,+0.520,-0.703,-1.001,-0.235,-0.425,+48.688,+1.125,-44.375,-2, -7, 3, 2, 1, -7, -1, -11,-0.99557321040714,-1.1539057526310568,1
1503525237635,+0.451,-0.168,+0.526,-0.701,-0.976,-0.269,-0.417,+54.188,-0.375,-48.938,-3, 0, 1, -2, 2, 0, -2, -24,-0.9850293273333761,-1.1571895571829445,1
1503525237654,+0.452,-0.156,+0.532,-0.699,-0.959,-0.271,-0.378,+59.625,-0.875,-53.000,-3, -1, -2, -1, 4, 5, 2, -9,-0.9734811856275186,-1.160097139365782,1
1503525237671,+0.452,-0.143,+0.538,-0.697,-0.931,-0.310,-0.366,+63.375,-1.125,-51.812,1, -6, -1, 2, 3, 38, 0, 5,-0.9585952951911789,-1.1626468604906393,1
1503525237692,+0.452,-0.130,+0.544,-0.694,-0.948,-0.338,-0.371,+65.750,+2.875,-52.625,0, 3, -1, -2, -5, -7, 1, 16,-0.9433173007548372,-1.1655560471768251,1
1503525237714,+0.453,-0.117,+0.550,-0.692,-0.917,-0.350,-0.328,+66.938,+7.125,-53.625,-1, -1, 5, 0, -7, -23, 0, 10,-0.9311472169059113,-1.1698430252645358,1
1503525237730,+0.452,-0.104,+0.555,-0.690,-0.844,-0.356,-0.325,+67.438,+5.375,-49.375,0, -2, 0, -2, -4, -7, 0, 1,-0.9141286092948029,-1.1720288318667307,1
1503525237752,+0.451,-0.091,+0.561,-0.688,-0.817,-0.354,-0.313,+67.250,-0.875,-46.750,-2, -2, -4, -2, 1, -6, -1, -23,-0.8973276953666663,-1.1778472451981206,1
1503525237776,+0.450,-0.080,+0.568,-0.685,-0.835,-0.353,-0.299,+67.812,-6.375,-45.938,-6, 1, 3, 3, 2, 3, 1, 1,-0.8821653527127888,-1.1883769700013191,1
1503525237790,+0.448,-0.068,+0.574,-0.682,-0.836,-0.369,-0.326,+68.500,-9.312,-42.625,5, -2, 0, 1, 2, 1, -2, -9,-0.8632954108900477,-1.1961732466735513,1
1503525237812,+0.446,-0.057,+0.580,-0.679,-0.807,-0.394,-0.310,+67.062,-7.375,-40.625,2, -1, -5, -3, 1, 3, 3, 2,-0.845381757677079,-1.2054854441856009,1
1503525237836,+0.444,-0.047,+0.586,-0.676,-0.768,-0.417,-0.248,+62.500,-9.250,-39.188,0, 1, -1, 2, 2, 13, -2, -4,-0.8283912884169857,-1.216198071000916,1
1503525237850,+0.442,-0.038,+0.593,-0.672,-0.772,-0.433,-0.255,+58.688,-16.000,-35.688,3, -1, -3, -7, -5, -8, 3, -14,-0.8116723245182744,-1.2307901108654873,1
1503525237876,+0.440,-0.029,+0.597,-0.669,-0.810,-0.454,-0.280,+53.188,-8.875,-33.188,-2, -2, -3, -3, -9, 13, -8, -11,-0.7953033530908548,-1.237375119750696,1
1503525237894,+0.439,-0.021,+0.601,-0.668,-0.795,-0.454,-0.242,+45.500,+1.250,-27.438,-5, 0, 1, 2, 11, 44, 2, 19,-0.7838231970558949,-1.2458445726086531,1
1503525237910,+0.437,-0.014,+0.603,-0.667,-0.742,-0.473,-0.188,+37.688,+3.875,-20.562,-3, -3, 1, 2, -5, -33, -8, 16,-0.7707562330045585,-1.248850349699971,1
1503525237934,+0.436,-0.008,+0.606,-0.665,-0.750,-0.481,-0.217,+33.312,-5.875,-19.000,-3, -3, 0, 0, -5, -11, 0, 42,-0.760508658286006,-1.255241824554539,1
1503525237954,+0.434,-0.004,+0.609,-0.664,-0.810,-0.481,-0.251,+29.750,-5.188,-15.375,2, -1, -2, 1, 7, -4, -3, -9,-0.7505159313500074,-1.2629994872831998,1
1503525237971,+0.433,-0.000,+0.609,-0.664,-0.810,-0.504,-0.218,+21.375,+9.000,-6.812,-1, 1, -2, -6, -21, -27, -17, -34,-0.7437588424066438,-1.2617245774494688,1
1503525237992,+0.431,+0.003,+0.609,-0.665,-0.778,-0.512,-0.187,+14.375,+14.000,-2.562,-5, 0, -1, -2, 1, -13, 32, -41,-0.7362872418939268,-1.2612539189794556,1
1503525238014,+0.430,+0.005,+0.609,-0.666,-0.738,-0.510,-0.185,+9.750,+7.000,-0.062,-2, -1, -2, -5, 1, 0, -3, -47,-0.7324072618086981,-1.2611115495956138,1
1503525238030,+0.430,+0.005,+0.609,-0.667,-0.786,-0.516,-0.214,+3.688,+3.250,+2.938,7, -2, -3, -3, -1, 8, -12, 66,-0.7331613114775896,-1.2615491002835575,1
1503525238052,+0.429,+0.005,+0.608,-0.668,-0.857,-0.483,-0.234,-0.250,+8.625,+4.750,-3, -3, -1, -3, 5, 7, -3, -7,-0.7313992703435777,-1.2587794455596895,1
1503525238078,+0.427,+0.004,+0.606,-0.671,-0.823,-0.465,-0.195,-2.938,+18.688,+9.688,-4, -2, -3, -1, 0, 6, 4, 5,-0.7296817111387648,-1.25399860024394,1
1503525238090,+0.426,+0.004,+0.604,-0.673,-0.758,-0.480,-0.187,-4.938,+15.625,+11.938,4, 1, 2, 6, 28, 41, 7, 46,-0.7286797528471011,-1.2485152181521764,1
1503525238112,+0.426,+0.002,+0.603,-0.675,-0.793,-0.486,-0.226,-6.000,+6.750,+11.250,-1, 4, 3, -2, -14, -12, 8, -28,-0.7322528259751714,-1.2468404569328009,1
1503525238137,+0.425,+0.000,+0.602,-0.676,-0.832,-0.478,-0.241,-9.875,+5.250,+10.688,-3, -1, -2, 0, -3, -8, -6, -13,-0.7325771898789621,-1.244749732422633,1
1503525238150,+0.425,-0.002,+0.599,-0.679,-0.816,-0.471,-0.257,-11.250,+10.250,+12.188,1, 1, 2, 8, 35, 50, 4, 13,-0.73684685218851,-1.2373050507520305,1
1503525238172,+0.424,-0.004,+0.597,-0.681,-0.807,-0.476,-0.229,-13.188,+9.812,+13.000,-5, -3, -4, -3, -10, -15, -5, 7,-0.7378728814859545,-1.2326243577370002,1
1503525238189,+0.424,-0.006,+0.596,-0.682,-0.808,-0.464,-0.251,-12.812,+2.750,+9.500,3, 0, -2, -4, -7, -12, -3, -4,-0.7406530984416856,-1.230657355712763,1
1503525238210,+0.425,-0.009,+0.595,-0.682,-0.827,-0.489,-0.233,-18.188,+2.625,+8.938,-1, -4, -3, -3, -15, -19, 4, 12,-0.7462171850671365,-1.2286323693307122,1
1503525238232,+0.426,-0.012,+0.593,-0.683,-0.836,-0.478,-0.258,-23.188,+0.375,+6.000,1, -1, 2, 1, -7, -22, 14, -24,-0.7524700609349854,-1.2240328557752453,1
1503525238254,+0.428,-0.016,+0.591,-0.684,-0.839,-0.445,-0.289,-25.125,-1.000,+5.812,4, -1, -3, -3, -4, 6, -7, 32,-0.7622078447058243,-1.2199321793771518,1
1503525238272,+0.430,-0.020,+0.589,-0.684,-0.873,-0.472,-0.258,-28.750,+1.812,+6.625,-2, -1, 2, 1, -6, -5, -12, -21,-0.7712192876751685,-1.21549138589903,1
1503525238292,+0.432,-0.025,+0.587,-0.685,-0.837,-0.480,-0.206,-32.000,+3.062,+10.375,-11, -4, 1, 3, 14, 18, 0, 2,-0.781939423945088,-1.2120885616585213,1
1503525238314,+0.434,-0.030,+0.585,-0.685,-0.815,-0.500,-0.190,-38.562,+0.562,+13.250,2, 2, -2, -2, -1, -4, -3, -7,-0.7919455518701706,-1.2083847017053038,1
1503525238330,+0.436,-0.037,+0.583,-0.684,-0.806,-0.500,-0.205,-43.375,-9.250,+15.438,1, -1, -4, -7, -14, -27, -10, -6,-0.8033167648774084,-1.2053799161018752,1
1503525238353,+0.438,-0.045,+0.581,-0.685,-0.857,-0.440,-0.240,-47.812,-6.875,+22.688,-2, -1, -3, -2, -8, -10, 1, -9,-0.817087393148851,-1.2041187939449776,1
1503525238375,+0.440,-0.054,+0.577,-0.686,-0.835,-0.447,-0.247,-51.812,-2.625,+28.125,4, 1, -2, -2, -12, -20, 3, -10,-0.8317354884697281,-1.1978690842583275,1
1503525238390,+0.442,-0.064,+0.574,-0.686,-0.747,-0.495,-0.216,-59.438,-9.188,+36.125,-7, -3, 2, 5, -2, 28, 2, 1,-0.8468487817186272,-1.1951869354849793,1
1503525238414,+0.443,-0.077,+0.574,-0.684,-0.649,-0.493,-0.228,-63.375,-39.562,+43.062,4, 2, 0, -4, -4, -9, -9, 10,-0.8618158081577625,-1.202664943491661,1
1503525238434,+0.443,-0.093,+0.577,-0.680,-0.732,-0.389,-0.271,-61.062,-72.438,+48.000,0, -2, 1, -2, -8, -12, -3, 4,-0.8771379643844351,-1.2204694751968257,1
1503525238450,+0.441,-0.111,+0.580,-0.676,-1.019,-0.327,-0.307,-55.125,-74.188,+52.500,1, -4, 0, 2, 11, 2, 1, 11,-0.8906937804609136,-1.2403602588520917,1
1503525238473,+0.438,-0.127,+0.582,-0.674,-1.008,-0.361,-0.310,-51.125,-57.812,+57.312,-4, 12, -1, -6, -10, -19, -1, -11,-0.9014867920250874,-1.2574098690154762,1
1503525238494,+0.434,-0.141,+0.581,-0.674,-0.835,-0.374,-0.269,-46.188,-43.000,+73.375,3, -5, -2, -4, -4, -21, 2, 38,-0.9088648069968579,-1.2657765929536589,1
1503525238511,+0.427,-0.157,+0.583,-0.673,-0.769,-0.276,-0.273,-37.375,-64.188,+76.062,-4, -3, -2, -3, -3, 3, 1, 7,-0.9125210042259716,-1.2840539522914378,1
1503525238533,+0.420,-0.173,+0.587,-0.670,-0.919,-0.188,-0.286,-26.875,-76.875,+70.750,6, 18, 7, 2, -2, -1, -4, 0,-0.9165898834436244,-1.3076936926354557,1
1503525238554,+0.413,-0.188,+0.593,-0.666,-1.033,-0.232,-0.276,-23.875,-85.688,+61.562,-8, 0, -9, -18, 2, 11, 4, -24,-0.9204093935816654,-1.3360771953176898,1
1503525238573,+0.406,-0.201,+0.597,-0.662,-0.954,-0.291,-0.198,-24.500,-74.438,+62.062,1, -6, 1, -1, 11, 77, -10, -20,-0.9220705451739878,-1.357670083222413,1
1503525238593,+0.398,-0.214,+0.602,-0.658,-0.918,-0.257,-0.102,-18.875,-66.375,+68.312,-6, -14, -3, 1, -3, -10, 7, 4,-0.9227797873983236,-1.3823220109834826,1
1503525238616,+0.389,-0.227,+0.605,-0.657,-1.095,-0.098,-0.131,-12.062,-57.812,+68.062,2, 1, 3, 22, -6, -21, -8, -1,-0.923285628765404,-1.402682197942821,1
1503525238630,+0.382,-0.236,+0.603,-0.660,-1.243,-0.023,-0.314,-2.812,-24.812,+57.312,-6, -17, -3, -14, -5, -19, -3, 3,-0.9231558916130347,-1.4069641520636331,1
1503525238652,+0.376,-0.241,+0.599,-0.664,-1.056,-0.096,-0.254,-1.188,+4.312,+51.875,-1, 4, 4, -1, -3, -17, 15, -30,-0.919181891724112,-1.4022108193919738,1
1503525238676,+0.370,-0.246,+0.597,-0.668,-0.840,-0.113,-0.098,+0.000,-0.062,+54.500,0, -7, 2, 8, -4, 0, -8, 21,-0.9159141389486581,-1.4027905814245079,1
1503525238691,+0.364,-0.252,+0.599,-0.667,-0.883,-0.102,-0.063,-0.250,-32.875,+41.875,0, -5, -5, -2, 0, 5, 5, -16,-0.9133062699269946,-1.4139412890718772,1
1503525238713,+0.360,-0.258,+0.605,-0.662,-1.107,-0.084,-0.114,-5.500,-58.938,+18.250,-1, 0, -5, -12, 8, 12, -2, -57,-0.9143943304804495,-1.435008863464317,1
1503525238734,+0.358,-0.262,+0.608,-0.658,-1.302,-0.044,-0.204,-7.000,-42.375,+4.562,3, -1, -2, -5, -5, 12, 10, 45,-0.915970744791334,-1.4465220784626072,1
1503525238750,+0.357,-0.262,+0.606,-0.661,-1.249,-0.028,-0.186,+2.625,+12.312,+9.250,-5, -3, -5, -13, -4, -14, -14, -35,-0.9146967013130884,-1.441746227188427,1
1503525238776,+0.356,-0.260,+0.601,-0.667,-1.048,-0.065,-0.075,+7.188,+42.188,+14.312,-1, 1, 11, 21, 1, 10, 6, 21,-0.9106343737379119,-1.4274905539280438,1
1503525238794,+0.356,-0.258,+0.598,-0.670,-0.903,-0.108,-0.058,+6.812,+30.938,+7.312,1, 2, -1, 1, 6, 0, -13, -20,-0.9078749932097694,-1.4180249405289391,1
1503525238811,+0.357,-0.257,+0.598,-0.670,-0.894,-0.117,-0.083,+1.625,+0.625,-4.000,0, 1, -4, -5, 29, 28, -5, 0,-0.9082771138596746,-1.416973213908434,1
1503525238832,+0.356,-0.258,+0.602,-0.667,-0.979,-0.085,-0.064,-2.938,-24.625,-6.062,0, -1, 1, 0, 7, 11, 6, 23,-0.9078305342213774,-1.4278092526321127,1
1503525238854,+0.355,-0.259,+0.605,-0.664,-1.075,-0.055,-0.094,+0.188,-26.500,-4.125,-2, -5, 4, 5, -11, -18, -1, -5,-0.9070874919588581,-1.4361118218057154,1
1503525238870,+0.354,-0.259,+0.607,-0.663,-1.079,-0.069,-0.117,+5.000,-14.062,-1.375,-2, 7, 1, -2, -7, -11, -5, -29,-0.9053482583789871,-1.4410566735536428,1
1503525238892,+0.354,-0.258,+0.607,-0.663,-1.038,-0.101,-0.097,+5.750,+1.125,+0.625,-3, -7, -5, -10, -11, 0, 2, 5,-0.9037792339568407,-1.439935349956836,1
1503525238914,+0.353,-0.258,+0.607,-0.663,-1.000,-0.089,-0.051,+3.375,+1.062,+0.188,-1, -2, -1, 4, -9, 5, 2, 2,-0.9018401119859338,-1.4398677173399481,1
1503525238931,+0.352,-0.258,+0.609,-0.663,-0.963,-0.090,-0.062,+5.000,-6.438,+1.062,2, 4, 1, 9, 22, 21, 7, 23,-0.90054727410725,-1.4449840849933615,1
1503525238953,+0.351,-0.258,+0.611,-0.661,-0.962,-0.096,-0.078,+5.125,-17.812,-0.625,-3, -5, -8, -12, -16, -20, -2, -6,-0.898382307156944,-1.4498054938522413,1
1503525238978,+0.350,-0.258,+0.614,-0.659,-1.017,-0.095,-0.081,+3.750,-21.500,-1.812,-3, -6, 0, 12, 11, 14, -9, -32,-0.8965470663909823,-1.4572495873864393,1
1503525238990,+0.350,-0.258,+0.615,-0.658,-1.062,-0.108,-0.089,+3.312,-13.188,-1.250,2, 16, 3, 0, 14, 18, -3, -19,-0.8964317259755324,-1.4597113838653581,1
1503525239017,+0.349,-0.257,+0.616,-0.658,-1.058,-0.116,-0.062,+3.125,+1.375,+0.438,-1, -6, 6, 8, 25, 44, -1, -24,-0.8932533331725901,-1.4611515930679597,1
1503525239034,+0.349,-0.257,+0.615,-0.659,-1.001,-0.116,-0.060,+1.250,+8.625,+2.438,-2, -1, -5, -4, -9, -20, -2, 0,-0.8933691393352693,-1.4586856182724668,1
1503525239051,+0.350,-0.256,+0.614,-0.660,-0.969,-0.121,-0.058,+0.312,+9.875,+3.375,-2, -2, -2, -4, -4, -13, -3, 3,-0.8938338461671831,-1.4551797445652435,1
1503525239073,+0.350,-0.256,+0.613,-0.660,-0.979,-0.136,-0.048,-2.312,+3.938,+3.750,2, -2, 5, 15, -2, 1, -4, 0,-0.8935117005909241,-1.4525776389734228,1
1503525239094,+0.351,-0.256,+0.613,-0.660,-1.020,-0.122,-0.052,-5.750,+1.812,+2.125,0, 1, 1, 3, -2, 8, -2, -15,-0.8954396365544379,-1.4526382798134259,1
1503525239111,+0.352,-0.256,+0.612,-0.660,-1.025,-0.114,-0.082,-6.562,+5.625,+1.000,-4, -3, 2, -2, -4, 1, 1, -15,-0.8970493601476132,-1.450098184439856,1
1503525239132,+0.353,-0.257,+0.611,-0.661,-1.020,-0.117,-0.063,-8.812,+10.812,+2.125,-2, 0, 1, 1, -5, -2, -6, 8,-0.9006741112287695,-1.4488190050814782,1
1503525239155,+0.354,-0.257,+0.609,-0.662,-1.012,-0.107,-0.068,-10.062,+10.188,+2.938,1, -2, 0, 2, 9, 10, 9, 20,-0.9024115188583365,-1.4438458226610356,1
1503525239170,+0.355,-0.258,+0.607,-0.663,-1.019,-0.106,-0.090,-10.688,+13.562,+3.438,-1, 0, -3, -3, -4, -15, 0, -5,-0.9057208649378329,-1.4400029131357384,1
1503525239193,+0.357,-0.258,+0.604,-0.664,-1.007,-0.094,-0.114,-11.000,+17.312,+3.500,-2, 2, 2, 8, -1, 3, 0, 9,-0.9090974496679605,-1.4325410896294393,1
1503525239216,+0.358,-0.258,+0.601,-0.667,-0.992,-0.079,-0.106,-9.438,+20.938,+5.625,-1, 0, -2, -4, 8, 7, -4, -26,-0.9114182096484614,-1.4253774367562237,1
1503525239230,+0.359,-0.258,+0.598,-0.669,-0.984,-0.075,-0.086,-8.812,+21.938,+6.375,1, -1, 2, -1, -1, 7, -7, -2,-0.9133064817901588,-1.4180786698443193,1
1503525239254,+0.360,-0.259,+0.595,-0.670,-0.991,-0.074,-0.110,-8.438,+18.562,+4.875,-2, -2, -1, -1, -1, -1, -2, 5,-0.9163124978274745,-1.4117612924805265,1
1503525239279,+0.361,-0.259,+0.592,-0.672,-1.005,-0.065,-0.137,-6.938,+15.938,+6.000,0, 0, 3, 5, 2, 4, 6, 12,-0.9182116885177386,-1.4045233732337365,1
1503525239290,+0.362,-0.259,+0.589,-0.675,-1.006,-0.065,-0.144,-7.188,+21.312,+7.188,-1, -2, 0, 2, 7, -3, -10, 16,-0.9205582733083473,-1.3975215815421504,1
1503525239314,+0.363,-0.259,+0.586,-0.677,-0.975,-0.084,-0.116,-10.125,+20.062,+7.312,-5, -1, -4, -3, -8, -4, -5, -28,-0.922472813484471,-1.390355612216515,1
1503525239369,+0.364,-0.261,+0.584,-0.677,-0.993,-0.083,-0.090,-12.938,+9.938,+6.938,1, 0, 0, -2, 0, 8, 8, -4,-0.9269038092829991,-1.3876591479281755,1
1503525239370,+0.364,-0.262,+0.582,-0.678,-1.062,-0.057,-0.156,-10.750,+7.438,+5.375,1, -2, 0, 3, -4, -19, -2, 7,-0.9282528370383629,-1.383942954964332,1
1503525239374,+0.365,-0.262,+0.579,-0.680,-1.079,-0.052,-0.195,-9.000,+22.250,+7.688,-2, -1, -5, -3, -2, 2, -4, -3,-0.9301701271315364,-1.3768515852812788,1
1503525239396,+0.366,-0.263,+0.574,-0.684,-0.982,-0.073,-0.153,-10.375,+31.750,+13.875,-8, 0, -4, -7, -4, -5, -8, -29,-0.9338732454362028,-1.3663690942528874,1
1503525239419,+0.367,-0.263,+0.570,-0.687,-0.944,-0.089,-0.124,-12.375,+29.500,+13.438,2, -1, -5, -3, 1, 10, 3, 20,-0.9359264045128733,-1.3570879677075232,1
1503525239433,+0.368,-0.264,+0.567,-0.688,-0.993,-0.062,-0.162,-11.812,+17.750,+7.000,-2, -2, 0, -4, -2, 1, 7, 8,-0.9389511436277704,-1.3510760788794738,1
1503525239455,+0.369,-0.264,+0.564,-0.690,-1.014,-0.033,-0.215,-8.938,+16.125,+6.000,3, -2, 0, 1, -6, -3, -1, 8,-0.9408920724419653,-1.3441511837510638,1
1503525239471,+0.370,-0.265,+0.560,-0.692,-0.979,-0.036,-0.196,-12.375,+20.750,+8.312,-2, 1, 5, 16, 10, 13, -2, -10,-0.9440458748829911,-1.3359559882608778,1
1503525239493,+0.372,-0.266,+0.557,-0.694,-0.931,-0.058,-0.179,-14.125,+19.875,+7.312,-1, -2, -2, -4, -3, -6, -7, -6,-0.9495302334681782,-1.3304415211389566,1
1503525239515,+0.373,-0.267,+0.555,-0.694,-0.958,-0.057,-0.166,-14.062,+11.875,+3.000,0, 0, -1, -4, -7, 7, -14, -6,-0.9524459649214502,-1.3267969179175085,1
1503525239530,+0.375,-0.268,+0.553,-0.694,-0.985,-0.035,-0.229,-13.812,+5.812,+3.000,-1, 0, -2, -4, 0, -4, 4, -11,-0.9573918487805532,-1.3232995759625878,1
1503525239553,+0.376,-0.269,+0.550,-0.695,-1.021,-0.013,-0.239,-14.438,+13.062,+2.188,-4, 1, 2, 4, 0, 3, 4, -21,-0.9604410643982567,-1.3174815887532423,1
1503525239575,+0.378,-0.270,+0.547,-0.696,-0.991,-0.025,-0.235,-14.438,+16.125,+0.062,-1, -1, -2, -3, 1, -5, -4, 3,-0.9655294529888323,-1.311834945272485,1
1503525239590,+0.380,-0.270,+0.545,-0.697,-0.954,-0.024,-0.211,-12.000,+13.938,-1.500,-2, -2, 0, -3, -3, -7, 3, 10,-0.9694273610009222,-1.307452644229137,1
1503525239619,+0.381,-0.271,+0.543,-0.697,-0.981,-0.026,-0.252,-10.562,+6.438,-1.062,0, 0, -2, -2, -15, -5, 8, 19,-0.9723694637450849,-1.3039043139233635,1
1503525239635,+0.383,-0.270,+0.542,-0.698,-1.001,-0.040,-0.274,-8.125,+8.750,-3.812,3, 0, -3, -3, -8, -18, 9, 1,-0.9750878812496453,-1.3007685414798256,1
1503525239652,+0.385,-0.270,+0.540,-0.698,-0.964,-0.058,-0.253,-7.312,+7.938,-5.625,-1, 1, 1, 2, 1, -2, 8, 3,-0.9785940965662722,-1.2961369245656136,1
1503525239673,+0.386,-0.270,+0.541,-0.697,-0.891,-0.060,-0.226,-6.938,-5.688,-2.562,-4, -1, -1, -4, -3, -2, -2, -3,-0.9805245624699608,-1.29845082892757,1
1503525239695,+0.386,-0.271,+0.543,-0.695,-0.924,-0.083,-0.231,-3.062,-19.000,+0.375,-4, -1, 2, 3, -10, 28, -2, -22,-0.9817706276147987,-1.3040462990011499,1
1503525239710,+0.385,-0.272,+0.545,-0.693,-1.028,-0.083,-0.266,-0.500,-20.375,+3.812,-2, 0, -1, -5, -13, -27, -5, -10,-0.9809705626049136,-1.3095173389675252,1
1503525239733,+0.384,-0.272,+0.545,-0.694,-1.056,-0.082,-0.267,+1.750,-3.312,+9.750,-1, -2, -2, 2, 6, -2, -6, -22,-0.979347390640454,-1.309658487928784,1
1503525239756,+0.382,-0.273,+0.544,-0.696,-0.954,-0.078,-0.229,+0.312,+7.625,+16.812,0, 0, -1, 0, 4, -2, 0, -10,-0.9773156135786562,-1.3087271352713379,1
1503525239770,+0.381,-0.273,+0.542,-0.697,-0.962,-0.040,-0.180,+1.500,+11.562,+13.688,-2, 2, -3, -1, -1, -4, -1, -5,-0.9750856342972085,-1.3039444299255374,1
1503525240797,+0.423,-0.241,+0.493,-0.721,-1.062,+0.004,-0.353,+20.188,+17.250,-26.875,-6, -3, -5, -5, -5, 8, 0, -3,-1.0153976343582556,-1.160664989069981,2
1503525240812,+0.425,-0.234,+0.495,-0.721,-1.040,-0.042,-0.372,+28.312,+17.062,-34.188,-1, 2, -3, -1, -7, -11, 4, -12,-1.0109894313157912,-1.157341539414981,2
1503525240834,+0.426,-0.225,+0.497,-0.722,-1.017,-0.055,-0.394,+36.250,+16.125,-36.312,1, -1, 3, 3, 8, 27, 1, 10,-1.0023548930136432,-1.152050128982761,2
1503525240857,+0.428,-0.215,+0.499,-0.722,-0.980,-0.087,-0.407,+43.250,+15.375,-40.125,3, -2, 7, 11, -3, -27, -2, 13,-0.9944289584776171,-1.145665045013692,2
1503525240872,+0.430,-0.204,+0.503,-0.722,-0.933,-0.116,-0.425,+49.438,+12.625,-46.500,-3, -5, -1, -6, -6, -5, -3, -1,-0.9859803942357656,-1.1433845850848126,2
1503525240894,+0.432,-0.192,+0.507,-0.720,-0.897,-0.183,-0.434,+54.250,+5.438,-53.375,-1, 7, 3, -3, -7, 3, -2, -7,-0.9756134550534944,-1.1396311298808923,2
1503525240917,+0.435,-0.179,+0.512,-0.718,-0.892,-0.217,-0.438,+57.188,+5.062,-59.188,5, -3, -4, 0, 4, 12, 5, 20,-0.9668314936350929,-1.1380029912000662,2
1503525240932,+0.438,-0.165,+0.518,-0.716,-0.875,-0.255,-0.418,+57.188,+6.375,-61.438,-4, -2, -1, -4, -2, -19, -4, -4,-0.9574242020403508,-1.1385438227264253,2
1503525240957,+0.441,-0.152,+0.523,-0.713,-0.860,-0.283,-0.402,+57.000,+4.500,-62.938,-2, -1, 2, 2, 4, 4, -1, -11,-0.9488056591713308,-1.137785464965343,2
1503525240977,+0.444,-0.138,+0.528,-0.711,-0.854,-0.286,-0.424,+59.250,+5.000,-65.188,3, 0, 3, 2, 6, 28, 4, 24,-0.9399164897773677,-1.1372047852283684,2
1503525240992,+0.447,-0.124,+0.533,-0.708,-0.853,-0.328,-0.415,+58.188,+4.625,-61.062,-3, -1, -2, -4, -12, -17, -2, -1,-0.9308360845742171,-1.1368945936219677,2
1503525241017,+0.449,-0.111,+0.537,-0.705,-0.866,-0.312,-0.407,+58.688,+7.375,-60.938,3, 2, 9, 14, 9, 8, 6, 1,-0.9205847557704845,-1.1353604934343362,2
1503525241037,+0.450,-0.098,+0.541,-0.704,-0.857,-0.334,-0.337,+57.812,+15.062,-55.438,-3, -2, 1, 3, 1, -3, 4, -25,-0.9093156280065661,-1.1353321542387589,2
1503525241052,+0.451,-0.085,+0.545,-0.701,-0.800,-0.377,-0.342,+59.875,+8.500,-50.125,2, -1, -7, -6, -2, -7, 0, 38,-0.8970769756898026,-1.1350042425759062,2
1503525241076,+0.451,-0.073,+0.550,-0.699,-0.797,-0.410,-0.347,+59.500,+2.812,-47.062,0, 1, -3, -6, -11, -10, -17, -2,-0.8842431827755689,-1.1393028410267898,2
1503525241097,+0.451,-0.062,+0.554,-0.697,-0.828,-0.403,-0.330,+55.375,+4.000,-43.625,-1, -2, -1, 0, -1, 2, -4, -3,-0.8723867504666534,-1.1421438605210532,2
1503525241112,+0.451,-0.052,+0.558,-0.695,-0.800,-0.435,-0.285,+50.312,+7.562,-36.438,1, -1, 0, 3, 8, 37, 17, 15,-0.8615694197825006,-1.1461965039133775,2
1503525241142,+0.450,-0.042,+0.562,-0.692,-0.750,-0.469,-0.275,+46.375,+0.812,-31.812,2, 0, -5, -12, 3, 5, -6, -9,-0.8475749465635543,-1.150228260740503,2
1503525241158,+0.450,-0.035,+0.567,-0.690,-0.765,-0.468,-0.283,+43.312,-7.062,-28.375,-3, -1, 1, 3, 6, 19, 5, -4,-0.8397157509220963,-1.1599703677959168,2
1503525241172,+0.448,-0.028,+0.570,-0.688,-0.800,-0.474,-0.289,+38.312,-3.875,-23.250,-1, -1, -2, 3, 11, 13, -14, -7,-0.8266020093888267,-1.1640868353020644,2
1503525241196,+0.447,-0.022,+0.573,-0.686,-0.790,-0.491,-0.274,+34.125,-0.312,-19.562,-2, 1, -1, -5, -7, 4, 3, 14,-0.8169586347475049,-1.1690320564116188,2
1503525241217,+0.446,-0.016,+0.576,-0.685,-0.782,-0.526,-0.271,+29.750,+4.375,-15.750,-3, -4, -1, 4, -3, -19, 7, 34,-0.8079723634486264,-1.1747444731449037,2
1503525241234,+0.446,-0.011,+0.578,-0.684,-0.736,-0.551,-0.263,+24.938,+0.250,-12.438,2, 0, -1, -4, 13, 17, -2, -9,-0.8024756281078376,-1.178091470381362,2
1503525241254,+0.445,-0.008,+0.580,-0.682,-0.773,-0.557,-0.245,+19.125,-6.188,-8.938,0, -1, -3, -1, -5, 0, 3, 2,-0.7955922070361607,-1.1819204743170577,2
1503525241278,+0.444,-0.005,+0.582,-0.681,-0.872,-0.521,-0.255,+15.062,-2.062,-8.188,-7, 0, 8, 11, 5, 2, 4, -29,-0.7894023320079487,-1.1863462251815071,2
1503525241293,+0.443,-0.003,+0.582,-0.682,-0.820,-0.502,-0.258,+11.625,+9.750,-3.062,1, 0, 1, -2, -4, -7, -18, -8,-0.7856121150147851,-1.1860419830796538,2
1503525241316,+0.442,-0.000,+0.581,-0.683,-0.760,-0.513,-0.273,+11.750,+15.375,+0.562,-2, 0, -1, 2, 0, -5, -7, -17,-0.7808641462376885,-1.182256750363553,2
1503525241337,+0.441,+0.002,+0.581,-0.684,-0.749,-0.518,-0.263,+8.938,+9.250,+2.062,0, 1, -2, 0, 0, 24, 17, 12,-0.7770930327085487,-1.1819992768822183,2
1503525241352,+0.440,+0.002,+0.582,-0.684,-0.769,-0.513,-0.244,+5.125,-0.188,+3.625,6, 0, -3, 1, 1, 7, 0, 24,-0.7745109540165632,-1.1851162616420403,2
1503525241374,+0.439,+0.002,+0.583,-0.684,-0.818,-0.509,-0.250,+2.250,-1.812,+3.938,4, -1, -3, -5, -7, -8, -7, -1,-0.7719339342436519,-1.1882346930690313,2
1503525241391,+0.438,+0.002,+0.582,-0.685,-0.846,-0.491,-0.293,+3.125,+3.062,+4.000,-6, 1, 0, -5, -4, -20, -5, 4,-0.7701016223892557,-1.185629834267897,2
1503525241412,+0.437,+0.002,+0.581,-0.686,-0.786,-0.497,-0.307,+2.750,+8.438,+6.438,0, 0, -2, 0, 21, 23, -1, -4,-0.7682731177110089,-1.1830317093374385,2
1503525241434,+0.436,+0.003,+0.580,-0.688,-0.770,-0.518,-0.273,-1.750,+9.875,+5.188,3, 0, 1, -1, -6, -29, 3, -3,-0.7662152532379067,-1.1805784525554952,2
1503525241450,+0.437,+0.002,+0.580,-0.688,-0.770,-0.501,-0.277,-5.312,-0.250,+0.438,-4, -3, 0, -1, -9, -8, -11, -24,-0.7697369299666313,-1.1809512243917173,2
1503525241471,+0.438,+0.001,+0.580,-0.687,-0.797,-0.516,-0.282,-9.562,-3.688,-1.750,2, -1, -3, -2, 0, -1, 4, 21,-0.7725324074853053,-1.1808176035482454,2
1503525241494,+0.439,-0.000,+0.579,-0.687,-0.813,-0.488,-0.316,-10.938,-2.125,-3.562,3, 0, -3, -6, -12, -26, 30, 12,-0.7760598546587119,-1.17810576696082,2
1503525241510,+0.441,-0.002,+0.577,-0.688,-0.791,-0.489,-0.290,-15.250,+5.250,+0.375,-2, -3, 3, 3, -2, -5, -4, -9,-0.783836066768913,-1.1732396133427132,2
1503525241533,+0.443,-0.003,+0.576,-0.687,-0.776,-0.523,-0.269,-17.750,+2.250,-1.500,-5, -4, 1, 3, -2, -3, -12, -23,-0.7892140812889408,-1.1700513748353925,2
1503525241554,+0.445,-0.005,+0.575,-0.686,-0.840,-0.517,-0.255,-22.312,-3.312,-6.000,0, 1, -2, -4, 10, 41, -6, -10,-0.7955519707511259,-1.1672973290696729,2
1503525241577,+0.448,-0.009,+0.574,-0.686,-0.876,-0.492,-0.244,-30.500,-1.688,-5.188,0, 0, 0, 3, 17, 59, -8, 15,-0.8071027888480281,-1.1659916183678174,2
1503525241594,+0.451,-0.013,+0.571,-0.685,-0.851,-0.454,-0.252,-35.250,+3.500,-4.375,0, -1, -3, -7, -15, -22, 4, 29,-0.8179069256526929,-1.1581673477844494,2
1503525241614,+0.455,-0.018,+0.568,-0.685,-0.788,-0.429,-0.256,-42.125,+2.938,-2.875,-2, 0, -1, 0, 1, 0, -1, -8,-0.8329548263697653,-1.151547634637598,2
1503525241637,+0.460,-0.025,+0.566,-0.684,-0.756,-0.419,-0.228,-51.562,-11.000,-2.125,-2, 1, -3, -2, -3, -4, -7, -9,-0.8518220781358432,-1.14871618603934,2
1503525241652,+0.466,-0.034,+0.565,-0.680,-0.728,-0.419,-0.228,-63.750,-30.688,-4.188,-1, 0, 3, 5, 0, -25, -3, -12,-0.8732323481877603,-1.1487758853497145,2
1503525241674,+0.473,-0.047,+0.565,-0.674,-0.809,-0.389,-0.257,-72.562,-49.125,-4.375,8, 1, -1, 0, 13, -8, 17, 65,-0.8999936816154097,-1.15373976005868,2
1503525241697,+0.479,-0.060,+0.564,-0.670,-0.906,-0.349,-0.295,-77.625,-39.812,-2.812,3, 0, 0, -3, 2, 19, -6, -17,-0.9257069002842313,-1.157544518409406,2
1503525241712,+0.485,-0.073,+0.560,-0.668,-0.805,-0.346,-0.257,-86.062,-21.625,+12.375,-4, -3, -2, -3, -3, 2, -18, -27,-0.9526703040274469,-1.1544544577459042,2
1503525241734,+0.491,-0.088,+0.554,-0.666,-0.679,-0.380,-0.218,-98.438,-20.062,+23.000,-1, 2, 0, -1, 0, -2, 2, -30,-0.9815609241585547,-1.1482196543500545,2
1503525241757,+0.498,-0.107,+0.548,-0.664,-0.716,-0.371,-0.219,-115.375,-33.688,+29.250,-5, -7, 13, 0, -2, 6, 1, 3,-1.017330850609381,-1.146894518345399,2
1503525241772,+0.505,-0.129,+0.541,-0.660,-0.811,-0.304,-0.211,-134.562,-48.375,+37.625,-1, -10, -5, -4, -3, -19, -4, -36,-1.0554033820421864,-1.1465925267451094,2
1503525241796,+0.511,-0.154,+0.534,-0.656,-0.877,-0.217,-0.327,-138.312,-52.062,+45.875,-4, -1, -12, -3, -1, 24, 9, 81,-1.0948891619559786,-1.1516726340604264,2
1503525241817,+0.515,-0.176,+0.526,-0.654,-0.975,-0.225,-0.414,-124.812,-39.062,+53.750,-1, -1, -1, -1, -1, -16, 1, -22,-1.1276508274418817,-1.1541621905010933,2
1503525241833,+0.518,-0.197,+0.517,-0.652,-0.946,-0.358,-0.389,-120.625,-35.375,+59.000,2, 7, 6, 0, -8, -10, -7, -49,-1.15733893927679,-1.1549836963043731,2
1503525241855,+0.522,-0.219,+0.509,-0.649,-0.873,-0.417,-0.360,-121.750,-40.438,+55.500,-4, 0, -1, -1, -4, -5, -8, -31,-1.1913331024385003,-1.1613727934170612,2
1503525241878,+0.524,-0.240,+0.503,-0.644,-0.867,-0.339,-0.415,-113.500,-52.688,+53.125,2, 1, 2, 8, 24, 33, 0, 43,-1.219686077382588,-1.1721851073441947,2
1503525241892,+0.526,-0.259,+0.497,-0.640,-0.934,-0.208,-0.519,-100.938,-61.938,+45.188,0, 1, -5, 0, 4, 12, 6, -15,-1.2468774252117907,-1.1823752783201111,2
1503525241914,+0.527,-0.276,+0.492,-0.635,-1.023,-0.175,-0.502,-87.875,-52.812,+36.000,0, 0, -8, -14, -10, -27, -3, -15,-1.2696874248975285,-1.1929074763483363,2
1503525241938,+0.529,-0.290,+0.489,-0.630,-1.030,-0.224,-0.451,-77.188,-47.188,+29.062,2, -2, -5, -13, -13, -4, 3, -18,-1.2918704306152862,-1.2049696980496496,2
1503525241952,+0.530,-0.301,+0.486,-0.626,-0.992,-0.223,-0.455,-63.062,-45.375,+23.375,-5, -2, -1, 2, -17, -21, -3, -6,-1.3082133224482768,-1.2133671102829267,2
1503525241974,+0.531,-0.310,+0.484,-0.623,-1.000,-0.178,-0.453,-46.375,-37.375,+21.875,-5, 1, 0, -2, -3, 4, -1, -4,-1.3224427056335417,-1.2217642202255716,2
1503525241998,+0.531,-0.317,+0.483,-0.621,-1.049,-0.124,-0.466,-31.438,-29.812,+15.688,-3, -3, 2, 21, 4, -2, -20, 6,-1.3319971908451527,-1.2297003942845777,2
1503525242012,+0.530,-0.322,+0.482,-0.619,-1.043,-0.113,-0.405,-21.562,-23.438,+12.688,-4, -5, -3, -6, 4, 7, 12, -30,-1.3363663929106129,-1.2344336184465,2
1503525242036,+0.529,-0.325,+0.482,-0.618,-0.983,-0.131,-0.355,-13.812,-22.688,+12.000,-1, 0, -2, 1, 1, -2, 2, 18,-1.338231964811782,-1.238640498140453,2
1503525242057,+0.528,-0.328,+0.484,-0.617,-0.937,-0.129,-0.339,-5.125,-25.000,+9.125,6, 4, 8, 18, 4, -11, -3, 21,-1.340438328980564,-1.2473502943699162,2
1503525242073,+0.525,-0.331,+0.486,-0.615,-0.943,-0.129,-0.324,+1.000,-31.938,+11.312,-7, -5, -10, -25, 2, 3, 4, -55,-1.3377622915888039,-1.2553653421634106,2
1503525242094,+0.522,-0.334,+0.490,-0.614,-1.003,-0.125,-0.292,+5.812,-31.875,+10.000,4, 0, -7, -18, 5, 4, -4, 35,-1.3357207225063648,-1.268215351210228,2
1503525242117,+0.519,-0.336,+0.493,-0.613,-1.020,-0.147,-0.263,+8.125,-26.938,+9.188,-1, -1, -2, -2, -8, -1, 0, -32,-1.3320637981990817,-1.2772674300209939,2
1503525242136,+0.516,-0.338,+0.496,-0.612,-1.002,-0.155,-0.231,+6.875,-24.312,+11.812,-1, -2, -5, -10, -7, 12, 3, -40,-1.3284671027411412,-1.28635639408259,2
1503525242154,+0.513,-0.339,+0.498,-0.611,-0.992,-0.130,-0.227,+8.125,-21.625,+13.375,-2, 3, 11, 26, 3, -17, -1, 29,-1.3231969584921126,-1.2916254688065623,2
1503525242177,+0.509,-0.341,+0.500,-0.612,-0.985,-0.115,-0.240,+9.625,-18.000,+15.438,4, 8, 13, 30, 3, 3, -5, 40,-1.317758091606332,-1.2988713927529207,2
1503525242192,+0.507,-0.342,+0.502,-0.612,-1.000,-0.129,-0.210,+8.250,-12.250,+13.188,1, -2, -1, 3, 1, -1, -4, -4,-1.3151162664716107,-1.3046326595748123,2
1503525242214,+0.505,-0.342,+0.503,-0.612,-0.983,-0.142,-0.202,+5.000,-9.000,+10.375,-7, 6, -9, -24, 3, 1, -18, -17,-1.3107346724940339,-1.3065423063754646,2
1503525242237,+0.504,-0.344,+0.504,-0.612,-0.950,-0.146,-0.188,-4.562,-8.062,+11.188,2, -3, -2, -3, 6, 15, 8, 27,-1.3118191698548145,-1.3118191698548145,2
1503525242252,+0.503,-0.346,+0.503,-0.611,-0.981,-0.084,-0.179,-11.312,-1.375,+9.812,1, 1, 4, 6, -2, -9, 11, 3,-1.3123103237365161,-1.3123103237365161,2
1503525242274,+0.503,-0.348,+0.501,-0.613,-1.004,-0.052,-0.206,-7.188,+5.812,+12.250,-3, -11, -2, 3, 8, 32, 1, -17,-1.3156747435047529,-1.3115114815011486,2
1503525242299,+0.502,-0.349,+0.499,-0.614,-0.978,-0.085,-0.222,-4.125,+3.375,+16.875,-1, -3, 5, 11, 5, 5, 1, 1,-1.3149211352145085,-1.3086909425943494,2
1503525242312,+0.501,-0.351,+0.498,-0.614,-0.970,-0.063,-0.212,-7.875,-4.312,+13.812,0, 15, -4, 2, -4, -18, -12, -29,-1.315708280063521,-1.309491954098133,2
1503525242336,+0.499,-0.354,+0.499,-0.614,-0.971,-0.034,-0.209,-7.625,-12.938,+10.312,-6, -8, -4, -6, -10, -11, -1, -33,-1.3162446765407818,-1.3162446765407818,2
1503525242356,+0.498,-0.356,+0.499,-0.613,-1.006,-0.037,-0.214,-3.938,-15.188,+6.875,1, 0, 2, -5, -9, -11, -5, -16,-1.3170076830042847,-1.319071412288476,2
1503525242372,+0.497,-0.358,+0.500,-0.613,-1.026,-0.045,-0.239,-2.375,-11.062,+5.188,1, -4, -2, -4, 3, 3, 6, 5,-1.3182202277511508,-1.3244008433841397,2
1503525242394,+0.497,-0.358,+0.500,-0.612,-1.025,-0.050,-0.224,-2.625,-4.438,+3.500,-1, -1, 0, -1, -6, -16, -1, 44,-1.3179713443067935,-1.3241564581236003,2
1503525242424,+0.496,-0.359,+0.500,-0.612,-1.001,-0.055,-0.200,-1.938,-4.188,+0.125,2, -4, -3, -4, -4, 7, 1, -19,-1.317379664751784,-1.3256174084911723,2
1503525242441,+0.496,-0.360,+0.501,-0.611,-0.976,-0.066,-0.187,-0.750,-8.812,+0.375,-4, 0, -1, 1, 6, -5, 4, -7,-1.3189569012095206,-1.3292553151769835,2
1503525242454,+0.495,-0.360,+0.503,-0.610,-0.978,-0.064,-0.201,+1.750,-12.625,+1.000,0, -2, 1, 3, 0, 18, -2, -7,-1.3168409692475282,-1.3333343713395633,2
1503525242477,+0.494,-0.361,+0.504,-0.610,-0.982,-0.067,-0.208,+3.062,-12.875,+1.000,-2, -1, -5, -8, -6, -11, 2, 3,-1.3164492779813475,-1.3370482292173589,2
1503525242492,+0.493,-0.361,+0.506,-0.609,-0.985,-0.071,-0.199,+3.625,-13.438,+1.188,2, -1, -1, -3, -1, -4, -4, 2,-1.3143438119033064,-1.341148185039486,2
1503525242514,+0.492,-0.362,+0.508,-0.608,-0.987,-0.073,-0.179,+3.375,-13.500,+2.250,-3, 0, -3, -2, 1, -3, 2, 0,-1.3139018791037824,-1.34689515134572,2
1503525242537,+0.490,-0.363,+0.509,-0.607,-1.008,-0.074,-0.171,+3.312,-12.188,+2.750,0, 0, 0, 0, -3, -9, -5, 4,-1.31107483579432,-1.3502394737626942,2
1503525242552,+0.489,-0.363,+0.511,-0.607,-1.007,-0.081,-0.179,+3.562,-8.750,+2.188,0, 1, -2, -3, -8, -17, -4, 2,-1.3092410481626529,-1.3545990401619579,2
1503525242574,+0.488,-0.363,+0.512,-0.607,-0.993,-0.074,-0.182,+4.312,-6.000,+3.875,0, -2, -3, -3, -2, -2, 1, -9,-1.3072245554246855,-1.3567049270915232,2
1503525242596,+0.488,-0.363,+0.512,-0.607,-0.984,-0.076,-0.186,+3.562,-5.625,+1.938,-2, -1, -3, -1, -2, 1, -7, -1,-1.3072245554246855,-1.3567049270915232,2
1503525242612,+0.487,-0.362,+0.513,-0.606,-0.967,-0.067,-0.184,+4.062,-6.938,-0.500,0, 0, 1, -2, -1, -20, -1, -2,-1.3032824190265981,-1.3569707740968002,2
1503525242634,+0.487,-0.362,+0.515,-0.606,-1.024,-0.089,-0.164,+3.000,-4.750,-0.062,-4, -1, 0, 5, 1, -1, 2, 1,-1.3036657431555774,-1.3615100665595827,2
1503525242657,+0.487,-0.361,+0.515,-0.606,-1.066,-0.104,-0.172,+0.688,+2.375,-1.625,0, -1, 2, -2, 1, 5, -1, 0,-1.3019956523722764,-1.3598898657633922,2
1503525242673,+0.488,-0.360,+0.513,-0.607,-1.026,-0.092,-0.173,-0.750,+15.125,+0.250,-1, 1, -1, -4, 1, 0, 0, 4,-1.3024115567867574,-1.3540984094528534,2
1503525242694,+0.489,-0.358,+0.511,-0.609,-0.970,-0.101,-0.155,+0.438,+21.375,+6.250,1, 0, 3, 5, 0, 4, -1, -1,-1.3014406735376602,-1.3469264383820398,2
1503525242716,+0.489,-0.357,+0.511,-0.610,-0.961,-0.123,-0.127,+1.688,+11.375,+8.000,-4, -3, -4, -5, -2, 5, 2, -4,-1.3000474366378203,-1.3455388008048583,2
1503525242734,+0.488,-0.358,+0.512,-0.610,-0.985,-0.129,-0.143,-0.062,-7.312,+8.938,0, 1, -1, -2, -2, -6, -10, 1,-1.2996804870447995,-1.3492637899128348,2
1503525242754,+0.486,-0.360,+0.513,-0.609,-1.035,-0.102,-0.155,-1.688,-12.938,+11.938,1, 1, 2, -1, -3, -8, 1, 1,-1.2985191890614334,-1.3542302478313195,2
1503525242778,+0.484,-0.362,+0.513,-0.610,-1.059,-0.073,-0.176,-1.500,-6.562,+12.625,1, -1, -2, -2, 1, 4, 2, 6,-1.297719911016787,-1.3573811798576787,2
1503525242792,+0.483,-0.363,+0.512,-0.611,-1.034,-0.059,-0.194,-1.562,+1.688,+15.375,0, 1, -4, -3, -1, -2, -5, -6,-1.2972658337606309,-1.3568040214044514,2
1503525242814,+0.482,-0.364,+0.509,-0.613,-0.999,-0.047,-0.188,-3.000,+6.625,+19.000,-1, -4, -10, -17, -2, 3, 2, 2,-1.2966841756673984,-1.351936895672399,2
1503525242837,+0.481,-0.365,+0.507,-0.615,-0.984,-0.025,-0.188,-3.500,+7.000,+18.625,1, 1, 6, 16, 11, 5, -6, 3,-1.2963026191928462,-1.3493495753077178,2
1503525242852,+0.480,-0.366,+0.505,-0.617,-0.965,+0.005,-0.194,-0.812,+9.438,+13.688,-2, 0, -3, -2, 5, 3, 2, -5,-1.2959247062265358,-1.3467793229990905,2
1503525242875,+0.479,-0.367,+0.503,-0.619,-0.938,+0.011,-0.192,-3.812,+8.500,+14.562,-6, -3, 0, -3, 1, 0, 2, -9,-1.2955504130638364,-1.3442259694270882,2
1503525242897,+0.478,-0.368,+0.501,-0.620,-0.919,+0.029,-0.184,-6.938,+3.625,+12.438,-2, -2, -3, -1, -1, 11, 3, 13,-1.2949193525321216,-1.341461604471989,2
1503525242913,+0.477,-0.370,+0.500,-0.621,-0.961,+0.020,-0.195,-5.500,-4.250,+8.938,-2, -2, -1, -9, -10, -12, -3, -7,-1.2961884783604867,-1.3425987147042384,2
1503525242936,+0.477,-0.371,+0.499,-0.621,-1.022,+0.027,-0.199,-5.812,-0.312,+6.625,2, -1, -2, -2, -1, 2, 4, 0,-1.2976852924357056,-1.3420307908585427,2
1503525242956,+0.477,-0.372,+0.497,-0.622,-1.009,+0.029,-0.195,-5.812,+8.812,+6.938,-1, -2, -3, -4, -5, 3, 0, 2,-1.2992416922018066,-1.3394757693845059,2
1503525242974,+0.477,-0.372,+0.495,-0.624,-0.965,+0.030,-0.193,-5.688,+11.188,+8.000,3, 1, 5, 8, 15, 10, 18, 2,-1.299354326261232,-1.3354978142017007,2
1503525242995,+0.477,-0.372,+0.492,-0.626,-0.960,+0.017,-0.182,-4.625,+16.438,+10.188,3, 1, 4, 3, -3, -4, -4, -5,-1.2992674451663841,-1.329324181109303,2
1503525243016,+0.478,-0.372,+0.489,-0.627,-0.947,+0.012,-0.192,-7.438,+17.438,+9.562,2, 1, -3, 3, 0, -7, 0, 6,-1.3011022193244526,-1.323118379728044,2
1503525243033,+0.479,-0.373,+0.487,-0.628,-0.942,+0.029,-0.194,-10.438,+8.250,+3.812,-2, 2, 3, 7, -1, 0, -5, -9,-1.304835259665908,-1.3208194368597772,2
1503525243055,+0.480,-0.374,+0.486,-0.627,-0.971,+0.001,-0.196,-12.500,+0.500,-3.062,-1, -4, -3, -1, 1, 12, -3, -1,-1.308265526286917,-1.3202521807064795,2
1503525243080,+0.482,-0.375,+0.485,-0.626,-1.003,+0.019,-0.203,-13.562,+1.250,-4.438,-2, -1, 0, -3, -6, -5, -3, -3,-1.3138865050967308,-1.3198805684243933,2
1503525243093,+0.483,-0.376,+0.483,-0.626,-1.015,+0.038,-0.240,-12.000,+8.375,+1.438,-1, 0, -1, -1, -3, -7, 2, -7,-1.3173887887523281,-1.3173887887523281,2
1503525243115,+0.484,-0.376,+0.481,-0.627,-1.011,+0.032,-0.243,-9.438,+13.938,+2.438,-2, -3, -7, -10, -4, -2, -6, 5,-1.3194403772831411,-1.3134581576677098,2
1503525243139,+0.486,-0.375,+0.479,-0.628,-0.967,-0.011,-0.227,-8.250,+12.625,+2.000,-4, -3, -6, -9, 3, 7, -1, -23,-1.3219956420568002,-1.3080354628741975,2
1503525243153,+0.486,-0.376,+0.477,-0.628,-0.966,+0.009,-0.223,-7.875,+3.062,+6.500,-4, 0, 3, 2, -10, -25, -4, -7,-1.3233175087351021,-1.305392044843399,2
1503525243176,+0.485,-0.377,+0.476,-0.629,-0.985,+0.005,-0.270,-1.500,+0.000,+11.375,0, 0, -1, 1, -2, 5, 4, 10,-1.322873546982863,-1.3049833309732015,2
1503525243197,+0.484,-0.377,+0.475,-0.631,-0.982,-0.010,-0.269,+1.562,+1.062,+14.375,4, -1, 1, 1, -1, -6, -9, -2,-1.3209761541228042,-1.303118704472724,2
1503525243213,+0.483,-0.377,+0.474,-0.632,-0.988,-0.009,-0.266,+1.812,+1.812,+15.500,-4, -1, -1, 3, 1, 20, 4, 38,-1.3188414547913616,-1.3010047017675337,2
1503525243235,+0.481,-0.378,+0.473,-0.634,-0.996,+0.001,-0.240,+1.188,+3.188,+14.875,1, 1, -3, -2, 7, -8, 2, -11,-1.316465987701388,-1.3006563273400444,2
1503525243256,+0.480,-0.378,+0.473,-0.635,-0.990,+0.016,-0.209,-0.125,+0.688,+11.750,-1, -1, -2, -1, -1, 1, -4, -10,-1.314528011699067,-1.3007070402142193,2
1503525243274,+0.479,-0.379,+0.473,-0.635,-0.987,+0.019,-0.204,-1.188,-1.312,+9.188,-1, -1, 5, 5, 4, 3, -2, 3,-1.3140549047949812,-1.3022206127241875,2
1503525243295,+0.479,-0.380,+0.473,-0.635,-1.012,+0.022,-0.216,-0.625,-1.062,+4.625,6, 0, -1, -2, -6, -9, 4, 34,-1.3157630936101192,-1.3039381467455047,2
1503525243317,+0.479,-0.380,+0.473,-0.635,-1.012,+0.032,-0.226,-1.125,+1.188,+1.875,-4, -1, -2, -5, -7, -3, 10, -18,-1.3157630936101192,-1.3039381467455047,2
1503525243333,+0.479,-0.380,+0.472,-0.635,-0.999,+0.032,-0.199,-3.938,+3.875,+0.625,-1, -1, 0, 0, 6, 11, -1, -3,-1.3155712523247887,-1.3017789039742,2
1503525243355,+0.480,-0.380,+0.471,-0.635,-1.003,+0.042,-0.194,-3.562,+6.938,-0.438,-2, -1, -2, 1, 1, -5, -8, -5,-1.3175569988887683,-1.2998240895607258,2
1503525243377,+0.480,-0.380,+0.471,-0.635,-0.984,+0.031,-0.226,-2.812,+3.500,+0.562,4, 2, -3, 2, 31, 27, -2, -1,-1.3175569988887683,-1.2998240895607258,2
1503525244616,+0.475,-0.185,+0.522,-0.683,-0.938,-0.251,-0.326,+98.188,+16.375,-45.688,-1, -3, 0, -3, -12, -31, 2, -20,-1.0524000399858897,-1.1605305148388472,3
1503525244637,+0.472,-0.169,+0.529,-0.684,-0.914,-0.282,-0.288,+94.812,+20.312,-44.188,-1, 15, 1, 2, -2, -3, -6, -5,-1.0280513901540587,-1.1614381485677885,3
1503525244659,+0.469,-0.154,+0.536,-0.685,-0.881,-0.332,-0.249,+87.750,+15.812,-32.250,-4, -10, -6, -8, -7, -12, -2, -10,-1.0052072334694988,-1.1645983550692343,3
1503525244675,+0.464,-0.140,+0.543,-0.685,-0.874,-0.319,-0.292,+85.625,+10.375,-28.688,-3, -3, -2, -10, -5, 11, -1, -12,-0.978358623678079,-1.1691929959503438,3
1503525244697,+0.460,-0.126,+0.549,-0.686,-0.874,-0.322,-0.282,+83.875,+16.688,-30.562,-2, -3, -1, 0, -2, -20, 9, -16,-0.9544923220184208,-1.1727734340102065,3
1503525244719,+0.456,-0.113,+0.554,-0.687,-0.846,-0.362,-0.265,+77.125,+14.500,-29.562,2, 1, 6, 12, 12, 11, 5, 12,-0.9317549495755052,-1.1754877182340733,3
1503525244735,+0.453,-0.100,+0.559,-0.687,-0.849,-0.344,-0.294,+75.625,+17.125,-29.562,-4, -4, 0, 1, 0, 6, -1, -10,-0.911009967995978,-1.1787267422816035,3
1503525244758,+0.449,-0.088,+0.563,-0.688,-0.813,-0.327,-0.292,+73.750,+14.812,-30.375,2, -1, -6, -8, 16, 9, 28, 9,-0.8894728541764692,-1.1811456029170067,3
1503525244782,+0.446,-0.075,+0.568,-0.687,-0.798,-0.371,-0.275,+71.000,+11.938,-32.000,-5, 9, 0, -1, -10, -16, -7, -19,-0.8682896224302854,-1.1856499425569071,3
1503525244795,+0.443,-0.064,+0.573,-0.686,-0.817,-0.387,-0.307,+68.562,+1.250,-30.188,1, -5, -1, 0, 0, -22, -16, -1,-0.8492185942340947,-1.1923310556389275,3
1503525244818,+0.440,-0.054,+0.578,-0.685,-0.840,-0.409,-0.260,+63.062,+4.625,-25.562,-3, 0, -4, -8, 4, 14, 3, -11,-0.8311580269338062,-1.200345499714079,3
1503525244840,+0.437,-0.044,+0.582,-0.684,-0.834,-0.419,-0.247,+59.375,+4.188,-25.750,-2, -2, -2, -2, -4, -14, 13, -5,-0.8129730224341196,-1.2060590789334595,3
1503525244856,+0.433,-0.036,+0.587,-0.683,-0.842,-0.450,-0.236,+56.438,-0.812,-22.750,-2, -1, 1, 7, 19, 18, 5, -7,-0.7944030562323231,-1.2163600870668458,3
1503525244878,+0.430,-0.028,+0.591,-0.682,-0.834,-0.471,-0.217,+48.812,+0.250,-18.562,-2, 0, -1, 3, -1, -1, -12, -21,-0.7781753653518786,-1.2241784939326847,3
1503525244900,+0.428,-0.021,+0.594,-0.681,-0.858,-0.455,-0.225,+41.938,+4.438,-17.250,2, 4, 1, 2, 4, 25, -8, 9,-0.765357868619822,-1.229824925689797,3
1503525244917,+0.425,-0.015,+0.596,-0.681,-0.831,-0.460,-0.231,+37.562,+5.625,-11.625,-1, 0, 0, 1, -4, -13, -1, -11,-0.7517517645580615,-1.2335356762933052,3
1503525244938,+0.423,-0.011,+0.598,-0.681,-0.830,-0.479,-0.221,+30.375,+3.875,-7.875,-1, 1, 0, 0, -7, -22, -18, 0,-0.7426863635661825,-1.2382083421542625,3
1503525244960,+0.421,-0.007,+0.600,-0.680,-0.832,-0.491,-0.212,+22.688,+1.625,-7.750,2, 0, 1, 0, 6, 12, 1, 15,-0.7328852901994826,-1.2425583547424122,3
1503525244985,+0.420,-0.005,+0.602,-0.679,-0.822,-0.480,-0.193,+16.750,-3.000,-3.812,3, 2, 2, 18, 3, 14, 7, -5,-0.7276217000283828,-1.2476919019198625,3
1503525244998,+0.418,-0.004,+0.604,-0.679,-0.842,-0.456,-0.189,+11.750,-2.938,+0.125,-4, -3, -3, -8, -3, -10, -7, -1,-0.7216707912770038,-1.2536308210979192,3
1503525245021,+0.416,-0.004,+0.604,-0.680,-0.865,-0.456,-0.182,+7.312,+2.188,+4.188,-8, -2, -1, -2, 9, 23, 2, -22,-0.7175014355655203,-1.254059138347621,3
1503525245035,+0.415,-0.005,+0.604,-0.680,-0.845,-0.501,-0.187,-2.688,+1.312,+8.250,1, -4, -3, -4, -4, -7, 0, 0,-0.7161256883994022,-1.2543735454866936,3
1503525245061,+0.415,-0.010,+0.604,-0.680,-0.844,-0.504,-0.239,-19.625,-11.562,+15.688,-2, -4, 0, -7, -1, 1, 9, 8,-0.72145874754353,-1.2560167704634206,3
1503525245080,+0.415,-0.015,+0.604,-0.680,-0.849,-0.397,-0.298,-19.375,-12.875,+14.938,-1, 1, 1, 10, 0, 11, -7, 0,-0.7268204374318505,-1.2577539172974628,3
1503525245095,+0.415,-0.019,+0.603,-0.681,-0.840,-0.392,-0.220,-15.062,-1.750,+12.062,0, -2, -2, -7, -7, -7, 2, -6,-0.7318007101312133,-1.2565462748799343,3
1503525245118,+0.415,-0.021,+0.602,-0.682,-0.824,-0.450,-0.225,-9.125,-2.625,+9.688,1, -1, 0, 1, -18, -45, -6, -18,-0.734620509245414,-1.2546471796295684,3
1503525245140,+0.415,-0.023,+0.602,-0.682,-0.844,-0.470,-0.215,-12.750,-5.188,+6.438,1, -1, 0, -2, 4, 7, 9, 37,-0.736776157346985,-1.2554204092851005,3
1503525245156,+0.416,-0.026,+0.602,-0.681,-0.843,-0.459,-0.207,-17.250,-3.188,+5.125,3, 0, 0, 2, -6, -3, 15, 19,-0.7417290451210766,-1.2562051793642843,3
1503525245178,+0.417,-0.029,+0.600,-0.682,-0.854,-0.465,-0.199,-20.062,+1.438,+5.625,-1, -1, -4, -8, 10, -5, 13, 14,-0.7479776748703817,-1.2517655779848285,3
1503525245200,+0.419,-0.032,+0.598,-0.682,-0.855,-0.458,-0.193,-27.562,+5.375,+8.625,1, -1, -2, -3, -2, 7, -7, -4,-0.7559291627279953,-1.2470017984287665,3
1503525245215,+0.421,-0.037,+0.596,-0.683,-0.824,-0.436,-0.186,-34.438,+2.750,+8.625,-2, 0, -1, -2, 5, 19, -8, -1,-0.766707344355522,-1.243660909294543,3
1503525245238,+0.424,-0.042,+0.593,-0.683,-0.847,-0.428,-0.212,-41.812,+2.500,+7.188,-4, -1, 3, 6, 7, 32, -5, -9,-0.7791387460968657,-1.2370794275206816,3
1503525245267,+0.428,-0.049,+0.590,-0.683,-0.844,-0.405,-0.255,-47.125,-1.125,+9.125,1, 3, -6, -10, 0, 7, -13, -23,-0.7961253704521749,-1.231771357677358,3
1503525245276,+0.431,-0.057,+0.586,-0.683,-0.829,-0.424,-0.201,-53.625,-2.750,+14.125,3, 2, 0, -2, 1, -12, 10, -12,-0.8116693872135204,-1.2243549367331295,3
1503525245302,+0.435,-0.066,+0.583,-0.682,-0.786,-0.396,-0.188,-64.188,-9.750,+15.062,0, -1, -2, 1, 0, -22, -5, -13,-0.8301476917204847,-1.2205117232272162,3
1503525245320,+0.440,-0.078,+0.580,-0.680,-0.805,-0.379,-0.206,-75.000,-21.000,+17.875,-1, 0, 2, 5, 10, 16, 4, 4,-0.8537268176994787,-1.2186964815484722,3
1503525245335,+0.446,-0.094,+0.577,-0.677,-0.829,-0.338,-0.215,-92.312,-33.438,+21.438,-2, 0, -1, 1, -5, -2, -1, -56,-0.8836759027467583,-1.220101200980596,3
1503525245357,+0.452,-0.111,+0.574,-0.674,-0.795,-0.287,-0.196,-104.438,-41.625,+27.500,-19, 5, 4, -2, -6, -13, -24, -19,-0.9150672467689235,-1.2234882822028759,3
1503525245379,+0.458,-0.128,+0.570,-0.670,-0.863,-0.298,-0.265,-98.375,-38.250,+25.062,15, 24, 37, 10, 22, 12, 1, -4,-0.9461119145757138,-1.2249848294290224,3
1503525245395,+0.463,-0.147,+0.567,-0.666,-0.898,-0.340,-0.311,-104.375,-48.812,+34.625,-3, -6, -25, -29, -5, 20, -8, 32,-0.977713812858823,-1.2322977931478991,3
1503525245416,+0.468,-0.166,+0.562,-0.662,-0.914,-0.333,-0.285,-105.250,-40.125,+37.125,3, -2, -2, 13, 28, 53, -2, 13,-1.0095656518235152,-1.2357193908625925,3
1503525245439,+0.473,-0.184,+0.557,-0.657,-0.856,-0.318,-0.263,-105.500,-42.750,+32.375,9, -1, -1, 5, -5, -29, 10, 5,-1.0402823908661605,-1.2393394287316342,3
1503525245454,+0.477,-0.200,+0.553,-0.653,-0.815,-0.307,-0.332,-91.812,-41.312,+36.438,-4, 9, -2, -4, -9, 4, 9, 40,-1.0673595057787073,-1.2450660543757763,3
1503525245477,+0.480,-0.215,+0.549,-0.649,-0.881,-0.328,-0.396,-82.812,-48.750,+39.250,1, -3, -6, 6, -11, -10, -1, -22,-1.0912653069615064,-1.250599782344806,3
1503525245499,+0.483,-0.229,+0.546,-0.646,-1.067,-0.277,-0.395,-78.312,-42.250,+31.625,1, -7, -3, -4, -7, -3, -1, 8,-1.1149693993422567,-1.2587855469814613,3
1503525245514,+0.486,-0.240,+0.542,-0.642,-1.084,-0.212,-0.359,-61.938,-26.312,+11.750,-4, -4, -2, -5, -11, -19, -4, -12,-1.1343653326337997,-1.2611661709367643,3
1503525245537,+0.488,-0.248,+0.539,-0.640,-0.959,-0.250,-0.394,-51.938,-23.625,+24.062,-12, -7, -3, -3, 5, 16, 8, 2,-1.148584757643562,-1.2633139125221076,3
1503525245559,+0.489,-0.256,+0.535,-0.640,-0.983,-0.264,-0.302,-46.125,-8.875,+26.688,1, -2, -11, 17, 2, 11, 4, 10,-1.16118200932167,-1.263788181186321,3
1503525245574,+0.490,-0.263,+0.536,-0.635,-0.938,-0.225,-0.282,-36.250,-39.750,+6.438,4, 3, 0, -3, 13, 1, 5, 34,-1.171587351163946,-1.273940304491965,3
1503525245597,+0.490,-0.271,+0.539,-0.630,-0.933,-0.147,-0.290,-27.688,-57.188,+5.250,1, -1, -3, -8, -3, 3, -10, 5,-1.181692111778877,-1.2903880227189646,3
1503525245622,+0.488,-0.280,+0.541,-0.625,-1.031,-0.163,-0.205,-27.625,-50.875,+11.750,-5, -6, -8, -1, -10, 1, 1, -4,-1.1886593391046925,-1.3056471137652559,3
1503525245634,+0.487,-0.288,+0.543,-0.620,-1.089,-0.175,-0.181,-27.875,-42.562,+15.750,-11, 2, -3, -2, 0, -4, 4, -4,-1.1967819151097105,-1.3199493778199582,3
1503525245657,+0.485,-0.295,+0.543,-0.619,-1.061,-0.130,-0.223,-24.688,-29.750,+26.500,21, 26, -6, -3, 6, 8, 1, 1,-1.20234957198161,-1.3291043095172181,3
1503525245679,+0.482,-0.301,+0.542,-0.619,-1.005,-0.098,-0.248,-16.750,-18.062,+26.938,2, -5, 30, 4, -4, 24, 3, 22,-1.2044249765096398,-1.334669443431957,3
1503525245695,+0.480,-0.306,+0.541,-0.619,-0.967,-0.097,-0.226,-13.000,-17.438,+19.938,4, -10, -8, 11, 6, -12, 3, -24,-1.2073643106456737,-1.3390607510254038,3
1503525245716,+0.479,-0.311,+0.541,-0.617,-0.963,-0.137,-0.183,-14.812,-24.062,+17.812,9, 21, -26, -14, -8, -9, 0, 9,-1.2121858695353693,-1.3455901521799618,3
1503525245739,+0.477,-0.316,+0.542,-0.615,-1.007,-0.140,-0.180,-14.750,-28.438,+16.000,33, -10, -7, 16, 0, -3, -8, -26,-1.2150861960631274,-1.3544699581764648,3
1503525245757,+0.476,-0.320,+0.542,-0.614,-1.043,-0.119,-0.209,-13.750,-21.938,+13.375,6, 8, 34, -10, 1, -13, -3, 28,-1.218848390845821,-1.3599310655713717,3
1503525245784,+0.475,-0.323,+0.541,-0.614,-1.027,-0.130,-0.217,-11.625,-7.750,+11.812,42, 76, 14, 33, 0, -3, -2, 18,-1.2211761720415477,-1.3618046158925552,3
1503525245799,+0.475,-0.325,+0.541,-0.614,-1.003,-0.111,-0.181,-10.312,-6.750,+11.688,-23, -33, -16, 6, 9, 22, -3, 4,-1.2243717985403664,-1.3647517312447455,3
1503525245814,+0.474,-0.327,+0.540,-0.614,-0.994,-0.116,-0.175,-6.438,-2.812,+10.938,-31, -19, -16, 0, -10, -16, 1, 45,-1.225139958349263,-1.36519461407914,3
1503525245836,+0.475,-0.328,+0.539,-0.614,-1.010,-0.160,-0.189,-9.000,+1.625,+8.250,-16, 1, -2, -19, -4, -7, -9, -69,-1.22873773536478,-1.3644371420934156,3
1503525245860,+0.476,-0.329,+0.538,-0.614,-1.024,-0.153,-0.168,-12.000,+1.750,+4.062,9, 35, 10, 4, 1, 0, 4, -24,-1.2323382887040146,-1.3636891887242961,3
1503525245874,+0.476,-0.330,+0.537,-0.613,-1.003,-0.129,-0.176,-11.375,-2.188,+1.562,19, -16, 6, 16, 36, 64, 13, 22,-1.2334099366296365,-1.3625907654535645,3
1503525245897,+0.477,-0.331,+0.536,-0.613,-0.998,-0.108,-0.184,-8.250,+1.750,+6.938,-13, -31, 4, -18, -8, -13, 1, -1,-1.2370179442138833,-1.3618607758573653,3
1503525245919,+0.477,-0.332,+0.534,-0.614,-1.014,-0.115,-0.189,-6.062,+3.875,+7.500,2, -6, 9, 20, -2, 0, 1, 8,-1.2385072640017394,-1.3588660585233217,3
1503525245934,+0.477,-0.332,+0.534,-0.614,-0.997,-0.120,-0.188,-6.000,+1.812,+4.875,-13, 10, -11, -19, -5, -9, 1, 1,-1.2385072640017394,-1.3588660585233217,3
1503525245958,+0.477,-0.333,+0.533,-0.614,-0.992,-0.117,-0.159,-6.625,-1.562,+5.062,20, -36, -19, -14, -3, -16, -24, -10,-1.2399030530109607,-1.3580178625896024,3
1503525245979,+0.477,-0.335,+0.533,-0.613,-0.992,-0.096,-0.170,-8.000,-9.688,+2.125,-17, 37, 8, -15, -21, -30, -1, -4,-1.2428276127961282,-1.3608217180734763,3
1503525245994,+0.477,-0.337,+0.534,-0.612,-1.004,-0.070,-0.190,-6.062,-13.438,+2.062,15, -19, -21, -7, 4, 11, -1, -14,-1.245982045597532,-1.365989498420209,3
1503525246016,+0.476,-0.337,+0.534,-0.612,-1.027,-0.080,-0.205,-2.250,-2.188,+3.750,-4, -1, -3, -14, -6, 7, 7, 10,-1.2437746866359456,-1.3658517699956663,3
1503525246039,+0.476,-0.337,+0.532,-0.614,-1.064,-0.084,-0.195,-3.062,+8.250,+7.625,-8, -14, -2, -10, -8, -6, -20, 4,-1.2439540380004492,-1.3615941239647462,3
1503525246054,+0.476,-0.337,+0.529,-0.616,-1.016,-0.077,-0.178,-0.500,+18.250,+8.188,-25, 12, 4, -4, 1, -3, 11, 2,-1.2439159900787586,-1.355012551438213,3
1503525246076,+0.477,-0.335,+0.527,-0.618,-0.993,-0.116,-0.150,-0.062,+20.688,+4.938,-2, -10, 5, -5, -5, -2, -7, -9,-1.2430702578574557,-1.347888963151026,3
1503525246100,+0.478,-0.334,+0.526,-0.619,-0.958,-0.127,-0.167,-4.125,+13.375,-0.562,3, -1, 2, 11, 15, 6, 4, -1,-1.2437659448137486,-1.3444120191208055,3
1503525246114,+0.479,-0.334,+0.525,-0.619,-0.942,-0.093,-0.167,-5.188,+4.688,-1.688,6, -3, -5, -6, 12, -2, -1, 4,-1.2457699400050675,-1.3422265806155722,3
1503525246137,+0.480,-0.334,+0.525,-0.618,-0.972,-0.086,-0.164,-5.062,+1.688,+1.125,2, 2, 3, 10, 28, 24, -4, -6,-1.2476849213018018,-1.3421396296159638,3
1503525246160,+0.480,-0.334,+0.524,-0.619,-1.009,-0.109,-0.179,-4.375,+6.000,+0.812,1, -3, -3, -1, -11, -3, -4, -1,-1.2477780303961508,-1.3400447064181744,3
1503525246174,+0.481,-0.334,+0.523,-0.619,-1.006,-0.119,-0.168,-7.125,+6.250,+3.000,-3, -16, -5, -2, -7, -18, -12, -8,-1.2497902083630923,-1.337866412150252,3
1503525246198,+0.482,-0.335,+0.522,-0.619,-0.973,-0.106,-0.182,-8.938,+4.938,+4.250,1, 12, 2, 3, 2, 14, 13, 11,-1.2534104499292311,-1.3372232411079084,3
1503525246219,+0.482,-0.336,+0.521,-0.619,-0.948,-0.086,-0.197,-9.312,-1.188,+3.125,-2, 0, -2, 13, -4, -10, 0, 3,-1.2548068980265767,-1.336432969971496,3
1503525246235,+0.482,-0.337,+0.520,-0.619,-0.961,-0.075,-0.189,-9.188,-0.188,+6.938,5, 2, -6, -10, -10, -15, -4, -2,-1.256206100110479,-1.3356503608634998,3
1503525246266,+0.482,-0.339,+0.519,-0.619,-0.993,-0.102,-0.174,-9.562,+3.938,+10.000,0, 7, -2, -3, 11, 4, 11, -6,-1.259221526040256,-1.336422546393297,3
1503525246279,+0.483,-0.340,+0.517,-0.620,-1.032,-0.096,-0.170,-12.312,+7.250,+8.500,1, 5, 0, -14, -7, -12, -8, -7,-1.2629379337578914,-1.3337527119952028,3
1503525246296,+0.484,-0.340,+0.514,-0.621,-1.054,-0.058,-0.221,-7.375,+16.500,+3.375,-2, -3, 5, 1, 1, 0, -3, 2,-1.264837713303508,-1.3272471933527759,3
1503525246316,+0.485,-0.339,+0.512,-0.622,-0.976,-0.039,-0.252,-5.062,+13.625,-1.188,-12, -1, 4, 0, -3, 1, 2, -1,-1.265340675207643,-1.3215046160194381,3
1503525246339,+0.486,-0.338,+0.510,-0.624,-0.952,-0.049,-0.224,-3.688,+13.375,+1.438,-2, -1, -15, 3, -7, -7, -2, -13,-1.26614790238869,-1.3160324443367108,3
1503525246354,+0.487,-0.337,+0.508,-0.625,-0.991,-0.090,-0.222,-2.125,+14.562,+1.688,-4, -4, -1, -7, -3, -1, -3, -3,-1.2666743018724216,-1.3103194236738924,3
1503525246376,+0.488,-0.336,+0.507,-0.625,-1.002,-0.093,-0.206,-3.875,+10.688,+0.375,2, 20, -4, 3, 5, 37, 0, 2,-1.2671210803142576,-1.3066437780663818,3
1503525246401,+0.489,-0.336,+0.507,-0.625,-0.963,-0.082,-0.219,-4.750,+3.438,+0.375,-6, -8, 2, 7, 27, 30, 1, -3,-1.2693664189894216,-1.3068197787459634,3
1503525246414,+0.489,-0.337,+0.506,-0.625,-0.940,-0.079,-0.226,-5.188,+1.688,+1.438,-2, -13, 2, -3, -14, -24, -1, 8,-1.270757085553138,-1.3060900319378181,3
1503525246436,+0.489,-0.337,+0.505,-0.626,-0.969,-0.074,-0.200,-3.125,+7.000,+6.250,-8, 1, 6, 10, -4, -9, -7, -4,-1.2708471948060263,-1.3040698188520268,3
1503525247359,+0.506,-0.324,+0.451,-0.660,-1.030,+0.011,-0.434,+42.438,+6.125,-21.312,1, 1, 0, 2, 21, 55, 2, 0,-1.2889931021414942,-1.177320201358994,4
1503525247382,+0.506,-0.315,+0.455,-0.661,-1.027,-0.061,-0.388,+45.688,+8.250,-25.500,-5, 0, -2, -1, -6, 2, 1, 1,-1.276650233647189,-1.1722651371138761,4
1503525247396,+0.506,-0.306,+0.460,-0.662,-0.982,-0.065,-0.393,+50.188,+7.938,-31.062,1, -3, 3, 4, 2, -4, 0, -2,-1.2647323610403123,-1.1697784255426604,4
1503525247419,+0.505,-0.297,+0.466,-0.663,-0.982,-0.045,-0.428,+59.000,+5.875,-29.750,4, 4, -2, -2, -4, -5, 4, 0,-1.250897437702491,-1.1696932691922015,4
1503525247442,+0.504,-0.286,+0.471,-0.665,-1.010,-0.084,-0.419,+64.375,+10.500,-29.688,-2, -7, -1, -1, 0, -11, -4, 0,-1.2346242269059644,-1.165254511925183,4
1503525247456,+0.503,-0.274,+0.477,-0.667,-0.990,-0.124,-0.409,+71.312,+12.750,-31.562,1, 1, -2, -2, -7, 6, -8, -2,-1.2175085585287615,-1.1622518585359636,4
1503525247479,+0.501,-0.262,+0.484,-0.668,-0.989,-0.139,-0.394,+76.188,+11.062,-32.188,-1, 10, 6, 12, 8, -4, -1, -2,-1.1982269215660655,-1.1616700963145588,4
1503525247503,+0.499,-0.248,+0.491,-0.670,-0.978,-0.163,-0.406,+80.688,+12.250,-36.938,2, 2, -2, -3, -2, -21, 0, -1,-1.1770253525177428,-1.1595932409283198,4
1503525247516,+0.496,-0.234,+0.499,-0.671,-0.955,-0.153,-0.409,+87.125,+9.125,-41.688,-2, -2, 1, 7, -5, -7, -5, -3,-1.153661370436181,-1.1602912183551506,4
1503525247547,+0.493,-0.219,+0.507,-0.672,-0.950,-0.194,-0.413,+93.500,+9.062,-39.250,-3, -6, -4, -9, -15, -12, 1, -7,-1.1294090593654722,-1.1608271040568618,4
1503525247570,+0.490,-0.203,+0.515,-0.674,-0.940,-0.238,-0.375,+95.562,+12.188,-39.312,2, 3, -1, 0, 10, 21, 13, 5,-1.104780811136281,-1.1617980101039873,4
1503525247579,+0.486,-0.187,+0.523,-0.675,-0.959,-0.277,-0.341,+98.875,+17.500,-38.375,-2, -5, -2, -3, -3, 4, -2, 0,-1.0777098299910024,-1.1635163467099152,4
1503525247599,+0.482,-0.170,+0.530,-0.677,-0.917,-0.272,-0.330,+100.938,+21.438,-38.000,10, 0, 8, 6, 6, 3, -5, 0,-1.0501577079679665,-1.1634017078185734,4
1503525247621,+0.477,-0.154,+0.537,-0.678,-0.872,-0.289,-0.304,+100.562,+19.875,-35.875,-3, -4, -5, -3, -4, 1, 4, -3,-1.021207126196742,-1.165139902723031,4
1503525247639,+0.472,-0.138,+0.544,-0.679,-0.848,-0.329,-0.274,+96.625,+15.438,-33.938,-2, -1, -3, -6, -4, -19, -3, -1,-0.9925431301384982,-1.1682389346697444,4
1503525247659,+0.468,-0.123,+0.552,-0.679,-0.861,-0.352,-0.248,+92.812,+12.375,-34.500,-6, -8, -11, -19, -7, 0, 3, -6,-0.9672770963088524,-1.1759815590528937,4
1503525247681,+0.463,-0.109,+0.559,-0.679,-0.825,-0.343,-0.280,+91.625,+5.812,-30.500,-3, 15, -5, -8, -3, -4, -7, 2,-0.9406094967254345,-1.1830405827913058,4
1503525247697,+0.457,-0.096,+0.566,-0.679,-0.819,-0.366,-0.258,+83.750,+8.375,-24.938,-2, -4, -2, 3, 6, -3, -1, -3,-0.9126184501735638,-1.191995171606617,4
1503525247719,+0.453,-0.084,+0.572,-0.679,-0.823,-0.396,-0.196,+74.875,+8.062,-26.438,5, -1, 4, 9, 26, 55, 7, 4,-0.8905469505201951,-1.2000634764117342,4
1503525247744,+0.449,-0.074,+0.578,-0.678,-0.781,-0.392,-0.208,+68.625,+2.000,-21.125,-4, -1, 7, 9, -9, 3, -10, -1,-0.8699788291180423,-1.2099160310928476,4
1503525247757,+0.445,-0.066,+0.582,-0.677,-0.794,-0.407,-0.229,+56.438,+0.000,-15.500,-2, -1, -1, -3, -8, -29, -5, -4,-0.8512970567072939,-1.2158599156396828,4
1503525247779,+0.441,-0.059,+0.586,-0.677,-0.834,-0.386,-0.236,+47.375,+3.562,-14.688,-2, -10, -5, -4, -9, -16, -4, -1,-0.8343114436164298,-1.2232815354455002,4
1503525247805,+0.438,-0.054,+0.589,-0.677,-0.840,-0.458,-0.138,+32.250,+6.938,-4.312,0, 4, 3, -1, -5, 1, 7, -1,-0.8218293550393547,-1.229234313748774,4
1503525247817,+0.437,-0.052,+0.592,-0.675,-0.793,-0.416,-0.132,+18.250,-7.562,-7.750,-5, 0, -7, -5, 16, 24, 0, -8,-0.8161311359238937,-1.2361932133529112,4
1503525247839,+0.436,-0.052,+0.595,-0.673,-0.794,-0.388,-0.241,+9.562,-22.688,-2.562,-1, -1, -3, -6, -14, -21, 7, -4,-0.8125746087902768,-1.2442985066461738,4
1503525247861,+0.434,-0.053,+0.596,-0.673,-0.918,-0.340,-0.272,+7.500,-7.312,+0.188,3, -1, 1, 2, 2, 21, 14, 10,-0.8088482240584295,-1.2477624572691792,4
1503525247878,+0.432,-0.054,+0.595,-0.675,-0.882,-0.374,-0.198,-0.688,+8.750,+15.250,-2, -6, -2, -1, -3, -16, -11, -5,-0.8063194391215764,-1.2460667654988977,4
1503525247899,+0.431,-0.055,+0.595,-0.676,-0.880,-0.430,-0.208,-0.500,+7.625,+7.750,-2, -6, 2, 6, 4, 8, 5, -1,-0.8056489776686175,-1.246986967304174,4
1503525247921,+0.430,-0.055,+0.593,-0.679,-0.861,-0.374,-0.293,-0.500,+11.562,+7.938,0, -4, -2, -1, 15, 33, -14, -6,-0.8050450555173156,-1.2422484578732238,4
1503525247938,+0.429,-0.056,+0.591,-0.681,-0.742,-0.388,-0.267,-3.438,+12.000,+11.375,-1, -2, 1, 0, -7, -11, -4, -2,-0.8048638488859905,-1.2376564782703487,4
1503525247959,+0.429,-0.057,+0.591,-0.681,-0.834,-0.400,-0.287,-0.438,-7.875,+4.375,-3, 0, -2, -4, -7, -19, 1, -2,-0.8059513446273492,-1.2382034969458733,4
1503525247982,+0.428,-0.058,+0.591,-0.681,-0.895,-0.391,-0.279,-2.062,-3.000,+1.000,7, 6, 2, 2, 13, 46, 14, 5,-0.8046292692160438,-1.2387119766420396,4
1503525247997,+0.428,-0.058,+0.589,-0.683,-0.874,-0.387,-0.273,-3.500,+11.500,+6.500,-3, 1, -1, 0, -6, -35, -4, 4,-0.8057629457842894,-1.2336498813863974,4
1503525248019,+0.428,-0.058,+0.587,-0.684,-0.817,-0.414,-0.216,-8.500,+15.250,+5.062,1, 1, 2, 0, 6, -15, -10, 1,-0.8062401274724083,-1.2281769051330498,4
1503525248035,+0.429,-0.060,+0.586,-0.685,-0.805,-0.410,-0.215,-13.625,+1.500,+5.000,2, 1, -4, -4, -8, -25, 1, 3,-0.8113767512775608,-1.2268374885276343,4
1503525248057,+0.430,-0.063,+0.586,-0.684,-0.872,-0.386,-0.222,-17.938,-2.938,+4.688,-7, -4, 0, -1, 3, -4, -4, 4,-0.8163878669671596,-1.2281691899523166,4
1503525248082,+0.431,-0.067,+0.584,-0.685,-0.875,-0.368,-0.221,-27.062,+2.875,+10.375,6, -4, 0, 0, 6, -26, -15, 1,-0.8235918199768955,-1.2251481186110844,4
1503525248102,+0.433,-0.073,+0.581,-0.686,-0.869,-0.364,-0.186,-37.562,+5.188,+11.938,-7, 0, -3, -2, -9, -3, 21, -3,-0.8352599137774768,-1.2206243001302306,4
1503525248117,+0.436,-0.080,+0.578,-0.686,-0.826,-0.364,-0.200,-48.250,+1.750,+12.500,-2, -7, -2, 0, -2, -5, 3, 11,-0.849781037429736,-1.21661534369145,4
1503525248141,+0.439,-0.088,+0.575,-0.685,-0.830,-0.312,-0.277,-53.062,-9.062,+11.688,-6, -5, -2, -6, -14, -13, -7, -11,-0.8647884493796738,-1.2131595110008033,4
1503525248161,+0.442,-0.098,+0.571,-0.685,-0.812,-0.284,-0.252,-57.875,-8.125,+18.375,-2, 1, -5, -8, -10, -14, -7, -5,-0.8825218665740987,-1.2091312462461004,4
1503525248178,+0.445,-0.109,+0.570,-0.682,-0.766,-0.302,-0.257,-59.500,-33.812,+20.812,-2, 3, 2, 0, 0, 17, 6, -1,-0.9000741337079332,-1.2135260502457859,4
1503525248199,+0.448,-0.122,+0.571,-0.677,-0.788,-0.325,-0.299,-60.375,-57.875,+18.500,1, 0, -1, -7, -30, -18, 2, 20,-0.919289651029276,-1.224769884244733,4
1503525248221,+0.450,-0.136,+0.573,-0.672,-0.872,-0.291,-0.337,-60.125,-65.688,+20.562,3, -1, -3, -2, 0, 1, -7, -11,-0.937882002170606,-1.240152235472933,4
1503525248237,+0.450,-0.149,+0.573,-0.668,-0.958,-0.214,-0.373,-48.875,-54.438,+27.500,5, 1, 3, -11, -1, 0, -14, 2,-0.9512314339728675,-1.2499824515291118,4
1503525248259,+0.449,-0.160,+0.572,-0.668,-0.968,-0.229,-0.344,-41.812,-29.625,+37.062,4, 0, 0, 4, 0, -2, -3, 8,-0.9621606347389386,-1.2571886040633713,4
1503525248282,+0.447,-0.169,+0.569,-0.669,-0.873,-0.287,-0.320,-38.125,-20.562,+40.312,-5, -2, 0, -6, 1, 42, -14, -7,-0.9686339914795906,-1.2577312275745904,4
1503525248297,+0.446,-0.178,+0.568,-0.668,-0.814,-0.305,-0.328,-34.812,-27.250,+40.438,-1, -5, -6, -3, -14, -32, 1, -1,-0.9769547301233084,-1.2633248098526002,4
1503525248319,+0.444,-0.187,+0.568,-0.668,-0.869,-0.255,-0.330,-28.625,-33.812,+38.312,-1, -1, 4, 27, 6, 8, 6, -3,-0.9839008117187512,-1.2720720667769634,4
1503525248342,+0.441,-0.195,+0.568,-0.667,-0.948,-0.226,-0.309,-21.750,-35.125,+35.688,-4, -4, -4, -5, 2, -2, 8, 5,-0.9869841098115657,-1.2795453917892725,4
1503525248357,+0.437,-0.203,+0.569,-0.666,-0.976,-0.244,-0.289,-15.062,-34.750,+39.188,-3, 4, 1, -3, -3, -16, -27, 1,-0.9882810773802018,-1.2897086404228586,4
1503525248379,+0.433,-0.209,+0.570,-0.667,-0.993,-0.262,-0.255,-8.438,-21.188,+40.625,3, -1, 4, -6, -1, -11, 10, 4,-0.9881255436510868,-1.298523331035336,4
1503525248401,+0.429,-0.214,+0.570,-0.667,-0.981,-0.275,-0.249,-4.500,-17.750,+37.500,0, -1, -4, 4, 27, 61, 12, -3,-0.9860560317917101,-1.303405183089951,4
1503525248417,+0.425,-0.218,+0.571,-0.667,-0.992,-0.260,-0.210,-5.188,-18.688,+32.062,1, 2, -5, -7, -10, -19, -3, -11,-0.9829934334668389,-1.3098657427915066,4
1503525248439,+0.422,-0.222,+0.572,-0.668,-1.005,-0.230,-0.229,-2.375,-18.375,+31.562,-5, -4, -1, -3, -12, -14, -17, -7,-0.9827169696536057,-1.31676455601191,4
1503525248461,+0.417,-0.225,+0.572,-0.670,-1.034,-0.212,-0.232,+0.938,-7.000,+35.375,-2, -2, -2, -3, 2, 0, 5, -11,-0.9770041547472063,-1.3200559533183194,4
1503525248477,+0.413,-0.228,+0.570,-0.672,-1.050,-0.237,-0.207,+1.562,+4.250,+37.250,-1, -1, -2, -8, -13, -30, 5, 3,-0.973033047688818,-1.3183077110150745,4
1503525248499,+0.410,-0.230,+0.570,-0.674,-1.026,-0.224,-0.184,-0.438,-1.562,+29.000,-3, 0, -2, -2, -5, -28, -8, -3,-0.9703696299075932,-1.3207492435208446,4
1503525248521,+0.407,-0.233,+0.569,-0.675,-0.995,-0.157,-0.211,+0.000,-4.688,+25.938,0, -4, -3, -3, 1, 4, -4, 3,-0.9684391709155641,-1.3214526965481546,4
1503525248538,+0.403,-0.235,+0.568,-0.678,-1.048,-0.135,-0.233,+4.188,+4.625,+29.875,10, 1, -7, 21, -1, -11, 1, 2,-0.9639318837049757,-1.3215093450672566,4
1503525248560,+0.400,-0.236,+0.566,-0.681,-1.055,-0.162,-0.224,+6.188,+12.438,+24.750,3, -2, -5, -11, 0, 4, 0, 6,-0.9598706892904261,-1.3180139018213028,4
1503525248582,+0.398,-0.236,+0.565,-0.683,-0.987,-0.161,-0.188,+4.000,+4.500,+20.125,5, 1, 0, 0, 10, 32, 13, 10,-0.956306651538596,-1.3157938892926933,4
1503525248598,+0.396,-0.238,+0.565,-0.684,-0.962,-0.129,-0.188,+3.062,-1.188,+18.500,-7, 8, 10, 6, -4, -5, -5, -19,-0.9554390299079795,-1.318091248840993,4
1503525248620,+0.393,-0.239,+0.565,-0.685,-1.033,-0.125,-0.195,+5.562,+1.000,+19.438,-7, -12, -12, -22, -4, -6, -7, -3,-0.9510595016174305,-1.3191441346097112,4
1503525248644,+0.390,-0.239,+0.565,-0.686,-1.088,-0.145,-0.207,+4.625,+0.438,+15.438,2, -3, -3, -1, -4, 8, 1, 5,-0.9452616786891159,-1.3190678953976673,4
1503525248657,+0.389,-0.239,+0.564,-0.688,-1.037,-0.128,-0.241,+4.125,+4.562,+12.500,3, 1, 4, 6, 1, -18, 17, 19,-0.9438177166376256,-1.316969278706436,4
1503525248682,+0.387,-0.239,+0.562,-0.690,-0.974,-0.113,-0.227,+5.188,+13.500,+14.750,6, 7, 6, 6, -5, -8, 3, 0,-0.9400138625230767,-1.3122124133302697,4
1503525248701,+0.386,-0.239,+0.561,-0.692,-0.976,-0.129,-0.175,+2.000,+11.188,+14.625,2, -10, -4, -13, 4, 18, 7, -3,-0.9385724319158015,-1.3101283877967609,4
1503525248719,+0.385,-0.240,+0.561,-0.693,-1.011,-0.136,-0.175,+0.000,+1.812,+9.438,5, 3, 3, 1, -1, 16, -5, 6,-0.9384007150756383,-1.311424086785036,4
1503525248740,+0.384,-0.240,+0.562,-0.692,-1.012,-0.100,-0.202,-0.125,-4.062,+5.875,-1, 11, -15, 2, 2, -5, -2, 35,-0.9361593444231494,-1.3135499678360782,4
1503525248761,+0.383,-0.241,+0.562,-0.692,-0.972,-0.090,-0.205,-0.750,-5.438,+6.500,1, 8, 4, -7, -2, -1, -11, -30,-0.9355415270988301,-1.3145582213054563,4
1503525248778,+0.382,-0.242,+0.563,-0.692,-0.985,-0.099,-0.216,+0.562,-10.312,+6.312,-2, -4, 3, 9, 34, 43, 13, -2,-0.9352190473765886,-1.3181067223742169,4
1503525248800,+0.380,-0.243,+0.564,-0.692,-1.044,-0.083,-0.215,+2.250,-7.938,+6.000,0, 4, -2, 17, -3, -15, -3, 12,-0.9328508480517121,-1.321535941856195,4
1503525248822,+0.379,-0.243,+0.564,-0.692,-1.049,-0.091,-0.198,+2.750,+2.875,+5.375,-6, -1, -6, -8, -1, 10, 3, -15,-0.9307983231354084,-1.3214155180590341,4
1503525248837,+0.379,-0.243,+0.563,-0.693,-1.010,-0.101,-0.202,+1.500,+6.938,+6.688,-3, -9, -6, -4, -3, 4, -13, -4,-0.930961427234816,-1.319158258925776,4
1503525249722,+0.420,-0.225,+0.505,-0.720,-0.980,-0.093,-0.398,+21.438,+8.750,-27.750,2, 0, -1, -3, -7, -19, -3, 17,-0.9901095442887027,-1.1695591188698655,5
1503525249737,+0.422,-0.219,+0.507,-0.719,-0.991,-0.109,-0.390,+25.125,+8.688,-30.188,-4, -11, 0, -1, -6, -1, -4, 8,-0.9867222160477489,-1.167469968381474,5
1503525249760,+0.423,-0.212,+0.509,-0.719,-0.964,-0.121,-0.376,+27.062,+12.438,-30.000,4, -3, -6, -1, 5, 3, 3, 0,-0.9803943617182324,-1.1646116068887793,5
1503525249785,+0.424,-0.204,+0.510,-0.720,-0.951,-0.142,-0.388,+32.125,+15.625,-27.500,-8, -6, -5, -4, -7, 0, -4, 9,-0.9731680788962003,-1.1587707530258973,5
1503525249797,+0.426,-0.195,+0.512,-0.720,-0.929,-0.174,-0.389,+34.812,+15.875,-29.750,-5, 2, 0, -4, -3, -6, 0, -6,-0.9668590072707637,-1.1542906988222534,5
1503525249820,+0.427,-0.187,+0.514,-0.720,-0.918,-0.173,-0.376,+34.750,+11.812,-32.812,3, -3, -6, -6, -2, -17, -3, -14,-0.9597188781556505,-1.1509648523935814,5
1503525249842,+0.429,-0.180,+0.517,-0.719,-0.933,-0.158,-0.371,+35.562,+4.875,-36.938,2, 3, -3, -1, 7, 10, 2, -5,-0.9559015692025812,-1.151120657794675,5
1503525249858,+0.430,-0.171,+0.520,-0.718,-0.949,-0.180,-0.396,+39.500,+4.875,-41.250,-2, -1, 0, -1, -4, 6, 5, -9,-0.9475292244082912,-1.1493230866106843,5
1503525249880,+0.432,-0.161,+0.523,-0.717,-0.973,-0.224,-0.409,+41.875,+11.688,-42.750,-8, -6, -1, -5, -5, 2, -9, 0,-0.9404277651214142,-1.1469968905055152,5
1503525249902,+0.434,-0.150,+0.525,-0.717,-0.973,-0.229,-0.405,+45.375,+18.000,-44.625,0, 2, -1, 2, 5, 17, 7, -5,-0.9327369510120805,-1.1419527330366779,5
1503525249920,+0.435,-0.138,+0.527,-0.717,-0.918,-0.255,-0.394,+48.625,+24.812,-44.812,-2, -5, 1, 0, -3, -32, -5, -2,-0.921884024822083,-1.1362738015853497,5
1503525249940,+0.437,-0.126,+0.529,-0.716,-0.879,-0.294,-0.379,+49.938,+21.688,-47.312,5, 2, -4, -4, -3, 10, 6, 9,-0.9131231165421897,-1.1307092190450432,5
1503525249962,+0.439,-0.114,+0.532,-0.715,-0.889,-0.302,-0.404,+53.250,+14.500,-51.500,1, 1, -2, -1, 2, -4, 16, -8,-0.9048154156790419,-1.128243751978795,5
1503525249977,+0.440,-0.101,+0.535,-0.714,-0.897,-0.328,-0.401,+55.438,+14.750,-53.500,1, 1, 1, 3, 2, 10, -7, -4,-0.8933403807541145,-1.1253986598277215,5
1503525250000,+0.442,-0.088,+0.538,-0.712,-0.895,-0.343,-0.377,+56.688,+17.438,-54.312,-6, -1, -2, 2, 9, 45, 0, 0,-0.8839578017072863,-1.1227467174337475,5
1503525250022,+0.443,-0.075,+0.541,-0.711,-0.860,-0.347,-0.360,+59.375,+19.188,-51.125,5, -2, -3, -3, -8, -25, 0, 26,-0.8730182560803783,-1.1211128742697327,5
1503525250037,+0.443,-0.062,+0.545,-0.710,-0.803,-0.389,-0.349,+61.875,+16.625,-46.750,-7, 1, -3, 0, 15, 0, -2, -6,-0.8599450211607688,-1.1228619978103103,5
1503525250060,+0.443,-0.049,+0.548,-0.708,-0.822,-0.402,-0.363,+62.062,+13.125,-46.750,1, -2, 1, 2, -10, -15, 1, -10,-0.8463124174960824,-1.1220009172813081,5
1503525250082,+0.442,-0.037,+0.552,-0.706,-0.813,-0.424,-0.323,+58.000,+6.875,-43.688,5, -2, -4, -2, -11, 6, 4, -5,-0.8313105422127623,-1.1252490588978337,5
1503525250104,+0.442,-0.026,+0.556,-0.704,-0.809,-0.435,-0.314,+56.688,+9.375,-38.562,1, 0, 6, 10, 7, 7, 5, -3,-0.8197946151049771,-1.1297749235468668,5
1503525250122,+0.440,-0.015,+0.559,-0.702,-0.793,-0.457,-0.320,+54.438,+9.125,-33.875,-5, 6, 4, 8, 17, -5, 0, -5,-0.803184687355265,-1.1319373631255798,5
1503525250142,+0.439,-0.006,+0.562,-0.701,-0.775,-0.483,-0.307,+49.688,+6.562,-28.250,-4, -1, -5, -12, -4, -11, 1, -4,-0.7916533983451964,-1.1361548561167785,5
1503525250160,+0.437,+0.002,+0.565,-0.699,-0.765,-0.498,-0.295,+44.312,+3.875,-22.812,2, 1, -1, -3, -6, 34, -14, 3,-0.7777453846624413,-1.1406991692887172,5
1503525250180,+0.435,+0.009,+0.568,-0.698,-0.767,-0.488,-0.304,+40.438,+1.062,-17.500,0, 2, -1, -1, -4, 22, 2, -6,-0.7654143496890735,-1.1465705902902228,5
1503525250202,+0.433,+0.014,+0.570,-0.698,-0.799,-0.488,-0.300,+35.625,+4.688,-11.000,2, 13, -3, -6, 4, 4, -2, -9,-0.7556312856537725,-1.1509287587670096,5
1503525250224,+0.431,+0.019,+0.572,-0.698,-0.769,-0.507,-0.282,+29.562,+6.188,-6.688,13, -3, -6, -8, -8, 9, 23, 91,-0.7458260871040001,-1.155463834426335,5
1503525250240,+0.429,+0.022,+0.573,-0.698,-0.759,-0.520,-0.280,+22.375,+4.250,-1.875,-13, -13, -3, 1, -3, -18, -21, -77,-0.7378854228274829,-1.1576634045552372,5
1503525250263,+0.427,+0.024,+0.574,-0.698,-0.766,-0.488,-0.286,+16.000,+0.375,+1.000,-4, -6, -1, 2, 9, -20, -3, 2,-0.7308681221997448,-1.1602228675719735,5
1503525250277,+0.425,+0.025,+0.576,-0.698,-0.791,-0.481,-0.272,+11.750,-0.875,+4.000,-7, 0, -2, -4, -18, -13, -4, -17,-0.7247405533417122,-1.1662363568095524,5
1503525250302,+0.423,+0.025,+0.576,-0.699,-0.820,-0.479,-0.283,+8.312,+2.938,+6.688,-5, 6, 0, -5, -9, 14, -5, -5,-0.7203951365772616,-1.1668142638925723,5
1503525250322,+0.421,+0.025,+0.575,-0.701,-0.778,-0.481,-0.273,+2.938,+9.375,+8.438,-5, -4, -1, -7, -3, -12, -6, -14,-0.7168552290894135,-1.1647982442892513,5
1503525250337,+0.420,+0.024,+0.575,-0.702,-0.774,-0.486,-0.247,-2.875,+8.500,+10.188,4, -10, 0, 6, 15, 34, 4, -10,-0.7160071840853622,-1.1656337968113728,5
1503525250361,+0.419,+0.022,+0.575,-0.702,-0.756,-0.472,-0.268,-6.938,-2.938,+9.188,1, -2, -2, -1, -7, 9, -1, 9,-0.7153708274730417,-1.166228621954,5
1503525250382,+0.419,+0.019,+0.575,-0.703,-0.825,-0.480,-0.277,-11.375,-5.438,+9.438,-3, -17, -4, -2, -6, -28, 0, 10,-0.7189414008122389,-1.1676400434627554,5
1503525250398,+0.419,+0.016,+0.574,-0.704,-0.847,-0.456,-0.294,-13.688,+1.062,+10.125,-1, 1, 2, 3, -1, 33, 3, 1,-0.7225424271247083,-1.1659956553543558,5
1503525250422,+0.419,+0.013,+0.572,-0.706,-0.809,-0.456,-0.287,-19.875,+9.062,+13.438,1, 4, -4, -3, -9, -22, -15, -13,-0.7268800233742939,-1.161859968602457,5
1503525250442,+0.419,+0.009,+0.569,-0.707,-0.788,-0.464,-0.298,-24.625,+5.062,+10.438,-3, 4, -1, 1, 6, 16, 5, 12,-0.7314333548350119,-1.1545821360990105,5
1503525250465,+0.421,+0.004,+0.568,-0.707,-0.798,-0.470,-0.299,-29.750,-2.750,+8.562,-3, 13, 1, 6, 20, 14, -4, -8,-0.741150726845848,-1.1533444293976203,5
1503525250480,+0.423,-0.001,+0.566,-0.708,-0.823,-0.429,-0.319,-32.812,-5.312,+7.625,3, -2, 0, 1, -2, -26, 0, 21,-0.7515689824592039,-1.1497576839740367,5
1503525250502,+0.425,-0.007,+0.563,-0.708,-0.829,-0.423,-0.340,-34.938,-0.750,+8.812,-8, -10, -3, -4, -9, -2, 0, -6,-0.7621953979757292,-1.143248589506971,5
1503525250527,+0.428,-0.012,+0.561,-0.709,-0.798,-0.438,-0.315,-38.812,+0.000,+8.750,-3, -3, -2, -2, 1, -8, 6, 12,-0.7750484685046112,-1.1400511956069967,5
1503525250540,+0.430,-0.019,+0.559,-0.708,-0.768,-0.423,-0.289,-42.438,-11.688,+7.812,7, 5, 0, 6, 39, 91, 5, 12,-0.7859094367730326,-1.1369135422771088,5
1503525250563,+0.434,-0.026,+0.558,-0.707,-0.796,-0.406,-0.316,-45.000,-16.500,+5.812,6, 13, 1, -5, -7, -9, 0, 7,-0.8018094215431173,-1.1370235733042213,5
1503525250584,+0.437,-0.034,+0.556,-0.706,-0.812,-0.410,-0.331,-47.562,-15.812,+9.438,-3, -3, 1, 3, 4, 21, -2, 7,-0.8161628426521245,-1.1349942925592347,5
1503525250599,+0.440,-0.042,+0.553,-0.706,-0.775,-0.390,-0.336,-50.812,-9.375,+11.000,-1, 8, -2, -3, -14, -25, 0, 13,-0.8311452500879586,-1.1309449107664695,5
1503525250624,+0.444,-0.051,+0.551,-0.705,-0.705,-0.369,-0.314,-57.625,-19.062,+16.750,0, -3, -2, -3, 14, 6, -4, -26,-0.8490150702290326,-1.130277557796292,5
1503525250644,+0.447,-0.063,+0.550,-0.702,-0.725,-0.365,-0.354,-59.188,-37.438,+18.562,4, 14, 2, -2, -8, -6, -5, -4,-0.8662279580372503,-1.1337545610366886,5
1503525250660,+0.449,-0.076,+0.551,-0.699,-0.830,-0.354,-0.358,-60.500,-48.562,+19.750,-7, -12, -1, -2, -3, -15, 8, 12,-0.8824227030539268,-1.1440811446021735,5
1503525250681,+0.451,-0.089,+0.551,-0.696,-0.871,-0.323,-0.350,-61.250,-42.562,+25.000,0, -11, 0, 4, 5, -4, -4, -14,-0.8988674053658341,-1.1521861544672758,5
1503525250704,+0.452,-0.102,+0.549,-0.695,-0.842,-0.304,-0.384,-59.688,-31.812,+32.938,-3, -5, -1, 3, 2, 1, -4, 0,-0.9141331500764832,-1.156240398876796,5
1503525250719,+0.453,-0.114,+0.547,-0.695,-0.870,-0.330,-0.361,-57.000,-23.938,+37.750,6, 0, -1, 0, 9, 41, 1, 8,-0.9291638252695271,-1.1605661030776575,5
1503525250741,+0.453,-0.126,+0.545,-0.694,-0.852,-0.333,-0.349,-56.688,-31.062,+36.250,-1, -2, 2, 1, 8, 3, -1, 8,-0.9414338556225916,-1.1648600489702567,5
1503525250764,+0.454,-0.138,+0.544,-0.692,-0.833,-0.329,-0.373,-56.500,-40.375,+34.312,-9, -3, -3, -3, -5, -23, -8, 12,-0.9559921769504893,-1.172011233853526,5
1503525250779,+0.455,-0.150,+0.544,-0.689,-0.912,-0.314,-0.403,-53.688,-40.062,+32.312,-21, -12, -1, -4, 0, -4, -8, 6,-0.9704930057996954,-1.181878919308844,5
1503525250801,+0.455,-0.161,+0.542,-0.688,-0.986,-0.317,-0.391,-50.125,-29.625,+30.500,2, 0, -2, 2, 9, 61, 18, -3,-0.9824721120206984,-1.1867115696192385,5
1503525250825,+0.455,-0.170,+0.541,-0.687,-0.950,-0.334,-0.376,-45.500,-24.000,+31.188,1, 7, -2, -5, -15, -34, -6, 1,-0.9924873308489157,-1.1925724882841613,5
1503525250839,+0.456,-0.178,+0.539,-0.686,-0.904,-0.306,-0.380,-41.312,-23.875,+27.812,3, 14, 2, 2, 4, 11, 0, -10,-1.0036122903583558,-1.1952201832776705,5
1503525250863,+0.456,-0.185,+0.537,-0.685,-0.915,-0.267,-0.390,-35.188,-17.875,+22.500,-2, -9, -2, -3, -16, -39, -3, 33,-1.011283385096683,-1.1969339967932795,5
1503525250884,+0.455,-0.191,+0.536,-0.684,-0.922,-0.265,-0.376,-26.375,-20.188,+24.875,3, 1, -2, 6, 15, 2, 3, 6,-1.0156879946870239,-1.2001911906028513,5
1503525250900,+0.454,-0.197,+0.537,-0.683,-0.927,-0.291,-0.318,-21.438,-27.250,+22.438,2, -1, 0, 3, 16, 45, -6, -7,-1.0206175233560266,-1.2086790907613847,5
1503525250922,+0.453,-0.203,+0.540,-0.679,-0.949,-0.261,-0.283,-18.625,-39.312,+16.625,5, -1, 0, 0, 12, 21, 15, 28,-1.024654987634927,-1.2212158474259036,5
1503525250944,+0.451,-0.209,+0.543,-0.677,-1.007,-0.217,-0.298,-13.000,-36.250,+15.688,-1, -8, -6, -5, -12, -15, -2, -10,-1.027520716983523,-1.2344774208126204,5
1503525250959,+0.448,-0.213,+0.546,-0.675,-1.044,-0.238,-0.320,-4.875,-30.125,+16.625,4, 5, 1, -1, -5, -24, -4, 15,-1.0256344050571555,-1.2454479663767084,5
1503525250982,+0.446,-0.216,+0.548,-0.674,-1.043,-0.259,-0.291,-1.562,-21.062,+16.688,-1, -6, -4, -6, -13, -28, -11, -36,-1.025050343315555,-1.253282882098401,5
1503525251004,+0.444,-0.218,+0.549,-0.674,-1.030,-0.256,-0.267,+0.625,-14.438,+14.000,2, -1, -1, -1, -2, -20, -6, -5,-1.0234255173398237,-1.2578065833375132,5
