Timestamp,Orientation X,Orientation Y,Orientation Z,Orientation W,Accelerometer X,Accelerometer Y,Accelerometer Z,Gyroscope X,Gyroscope Y,Gyroscope Z,EMG1,EMG2,EMG3,EMG4,EMG5,EMG6,EMG7,EMG8
1503523878218,+0.517,+0.091,-0.258,-0.811,+0.531,+0.115,-0.821,-0.875,-0.625,+0.375,-1, -4, -1, -2, -1, -1, -1, 0
1503523878241,+0.517,+0.091,-0.258,-0.812,+0.529,+0.118,-0.822,-0.938,-0.375,+0.562,0, -1, -2, -1, -2, -4, -1, 0
1503523878268,+0.517,+0.091,-0.258,-0.812,+0.535,+0.115,-0.826,-0.688,-0.250,+0.500,1, -1, 0, 0, -1, 0, 0, -1
1503523878280,+0.516,+0.091,-0.258,-0.812,+0.532,+0.114,-0.827,-0.188,-0.375,+0.625,-4, -2, 1, -1, -1, -2, -1, 0
1503523878300,+0.516,+0.091,-0.258,-0.812,+0.534,+0.113,-0.825,-0.125,+0.188,+0.812,0, -2, 0, -3, -2, -1, -1, -1
1503523878323,+0.516,+0.091,-0.257,-0.812,+0.532,+0.107,-0.820,-0.062,+0.625,+0.938,-1, -1, -1, 0, 0, -1, -1, -1
1503523878338,+0.516,+0.091,-0.258,-0.812,+0.536,+0.107,-0.825,-0.125,+1.188,+0.812,1, 0, -1, 2, 0, -1, -1, -1
1503523878360,+0.516,+0.091,-0.258,-0.812,+0.546,+0.105,-0.814,-0.375,+0.625,+0.875,-2, -2, -2, -2, -2, 1, -1, 1
1503523878383,+0.516,+0.091,-0.258,-0.812,+0.547,+0.109,-0.820,-0.438,+0.188,+0.938,0, -2, -1, -1, -1, -2, 0, -1
1503523878398,+0.516,+0.091,-0.258,-0.812,+0.540,+0.110,-0.817,-0.438,-0.062,+1.250,-1, 1, 0, -2, -1, -2, -2, 0
1503523878420,+0.516,+0.091,-0.258,-0.812,+0.541,+0.107,-0.823,-0.250,-0.312,+1.375,-2, -1, -1, -1, -3, -1, -1, -2
1503523878443,+0.516,+0.091,-0.258,-0.812,+0.546,+0.109,-0.829,-0.375,-0.500,+1.188,1, -3, -3, -1, 0, -1, 1, -1
1503523878458,+0.516,+0.092,-0.258,-0.812,+0.538,+0.109,-0.821,-0.312,-0.938,+1.188,2, 2, 2, 2, -1, 1, -1, 1
1503523878480,+0.516,+0.092,-0.257,-0.812,+0.534,+0.099,-0.821,-0.312,-0.250,+1.062,-1, 1, 0, 0, -1, 0, -1, -1
1503523878503,+0.515,+0.092,-0.258,-0.812,+0.539,+0.101,-0.819,-0.875,+0.438,+1.000,-2, -3, -1, -1, 0, 0, -2, -1
1503523878519,+0.515,+0.092,-0.258,-0.812,+0.539,+0.101,-0.824,-1.125,+0.375,+0.688,0, -1, 0, -1, -1, -1, -1, -3
1503523878540,+0.515,+0.092,-0.258,-0.812,+0.549,+0.108,-0.824,-1.375,-0.125,+0.500,-2, -1, -2, -1, 0, -2, -1, 0
1503523878564,+0.515,+0.092,-0.258,-0.813,+0.536,+0.113,-0.823,-1.188,-0.125,+0.562,-1, 1, 0, -2, -1, 0, -1, 0
1503523878578,+0.515,+0.092,-0.258,-0.813,+0.531,+0.114,-0.824,-1.000,+0.125,+0.500,-1, -1, 0, 0, 0, 0, 1, 1
1503523878600,+0.514,+0.092,-0.258,-0.813,+0.532,+0.107,-0.817,-0.750,+0.375,+0.938,0, 0, -2, -2, -1, -2, -1, -1
1503523878623,+0.514,+0.092,-0.258,-0.813,+0.540,+0.113,-0.825,-0.812,+1.250,+0.750,-3, -2, 0, 0, 0, 0, -1, -1
1503523878641,+0.514,+0.092,-0.258,-0.813,+0.541,+0.108,-0.816,-0.750,+0.938,+0.938,-1, -1, -1, 0, -1, 2, 0, -2
1503523878660,+0.514,+0.092,-0.258,-0.813,+0.549,+0.101,-0.822,-0.562,+0.938,+0.812,-1, 2, 0, 0, 0, -1, -1, 0
1503523878683,+0.514,+0.092,-0.259,-0.813,+0.547,+0.105,-0.816,-0.875,+0.938,+0.750,-2, -2, -2, -2, -1, 0, 0, 0
1503523878698,+0.513,+0.092,-0.259,-0.813,+0.543,+0.108,-0.816,-1.375,+0.250,+0.875,-1, -1, 0, 0, -3, 0, 1, -1
1503523878720,+0.513,+0.092,-0.259,-0.813,+0.537,+0.110,-0.816,-1.250,+0.375,+0.812,0, 0, 0, 0, -1, -1, -1, -1
1503523878744,+0.513,+0.092,-0.259,-0.813,+0.538,+0.108,-0.825,-0.875,+0.188,+0.688,-2, 2, -2, -2, -2, -2, -1, 0
1503523878758,+0.513,+0.092,-0.259,-0.813,+0.539,+0.102,-0.814,-1.062,+0.250,+0.875,-1, -2, 0, -1, -2, -1, -1, -1
1503523878784,+0.513,+0.092,-0.259,-0.813,+0.542,+0.109,-0.819,-1.125,+1.250,+0.688,-1, -1, 1, 0, 2, 0, -1, -1
1503523878803,+0.512,+0.092,-0.259,-0.814,+0.543,+0.105,-0.820,-0.875,+1.188,+0.938,-1, -1, -1, -2, 0, -1, -3, -1
1503523878818,+0.512,+0.092,-0.260,-0.814,+0.551,+0.109,-0.816,-0.875,+1.188,+0.812,-1, -1, -1, 0, -1, -2, 0, -1
1503523878841,+0.512,+0.093,-0.260,-0.814,+0.549,+0.108,-0.813,-0.812,+0.000,+0.875,-1, -2, 0, 0, 0, 1, -1, 0
1503523878863,+0.512,+0.093,-0.260,-0.814,+0.544,+0.104,-0.817,-0.938,-0.375,+0.938,-2, -2, 0, -1, -2, 0, 0, 0
1503523878878,+0.511,+0.093,-0.260,-0.814,+0.540,+0.108,-0.813,-0.875,-0.375,+1.188,-1, -1, -1, 1, -2, 0, -1, -1
1503523878900,+0.511,+0.093,-0.260,-0.814,+0.542,+0.107,-0.819,-0.938,-0.188,+1.250,0, 0, -1, -1, 0, -2, 1, -1
1503523878923,+0.511,+0.093,-0.260,-0.814,+0.542,+0.107,-0.827,-0.750,-0.250,+0.938,1, -1, -2, -1, -1, 0, -2, 0
1503523878937,+0.511,+0.093,-0.260,-0.814,+0.541,+0.097,-0.820,-1.062,+0.000,+0.438,-1, -2, 0, -2, -2, -1, 0, -2
1503523878960,+0.510,+0.093,-0.260,-0.814,+0.542,+0.099,-0.812,-1.375,+0.438,+0.562,-2, -2, -1, 0, 0, 1, -1, -1
1503523878983,+0.510,+0.093,-0.260,-0.815,+0.553,+0.107,-0.813,-1.562,+0.312,+0.500,0, 0, -1, 1, -1, 0, 0, 1
1503523878998,+0.510,+0.092,-0.260,-0.815,+0.551,+0.115,-0.821,-1.750,-0.188,+0.375,0, -2, -1, -1, 0, 0, -1, -1
1503523879020,+0.510,+0.092,-0.260,-0.815,+0.532,+0.126,-0.816,-1.375,-0.625,+0.812,1, -1, -3, -2, -2, -2, -1, -2
1503523879044,+0.510,+0.092,-0.260,-0.815,+0.530,+0.122,-0.825,-0.500,-0.188,+1.438,-1, -2, -2, 0, -3, -1, 0, -2
1503523879057,+0.510,+0.092,-0.260,-0.815,+0.536,+0.107,-0.820,+0.062,+0.625,+1.875,-3, -1, 0, 1, 0, 0, 0, -1
1503523879080,+0.509,+0.092,-0.260,-0.815,+0.544,+0.098,-0.822,-0.125,+1.312,+1.500,1, 0, -1, -2, -2, -2, -2, 0
1503523879102,+0.509,+0.093,-0.260,-0.815,+0.545,+0.102,-0.815,-0.312,+1.062,+1.375,0, -3, 0, -2, 0, 0, 1, 0
1503523879119,+0.509,+0.093,-0.260,-0.815,+0.558,+0.100,-0.811,-0.500,+0.875,+1.250,0, 1, -1, -1, 0, 0, 0, 0
1503523879140,+0.508,+0.093,-0.261,-0.815,+0.559,+0.097,-0.815,-0.875,-0.062,+0.938,-1, -1, -1, 0, -2, -2, -2, 0
1503523879163,+0.508,+0.093,-0.261,-0.816,+0.554,+0.103,-0.818,-1.688,-1.188,+0.500,0, 1, -1, -3, 0, 0, -2, 0
1503523879185,+0.508,+0.093,-0.260,-0.816,+0.551,+0.111,-0.822,-1.688,-1.875,+0.375,-3, 0, 1, 0, -1, 1, -1, 0
1503523879204,+0.508,+0.092,-0.260,-0.816,+0.539,+0.108,-0.812,-1.438,-2.000,+0.188,1, 1, -1, 1, -2, 1, 1, 1
1503523879223,+0.508,+0.092,-0.260,-0.816,+0.534,+0.107,-0.825,-1.125,-1.500,+0.375,0, 0, 1, -1, -1, -2, -1, -1
1503523879238,+0.508,+0.092,-0.260,-0.816,+0.533,+0.100,-0.818,-1.438,-0.375,+0.125,-2, -3, -4, -1, -3, 0, 0, 0
1503523879260,+0.508,+0.092,-0.260,-0.816,+0.543,+0.110,-0.824,-1.250,+0.000,+0.062,-1, -4, 0, 0, 0, -1, -1, -2
1503523879283,+0.508,+0.092,-0.260,-0.816,+0.547,+0.115,-0.818,-1.062,+0.062,+0.125,0, -1, 0, -1, 0, -2, 0, -3
1503523879298,+0.507,+0.092,-0.260,-0.816,+0.545,+0.112,-0.815,-0.625,-0.438,+0.312,-3, 0, -1, 0, -1, 0, 0, 1
1503523879320,+0.507,+0.092,-0.260,-0.816,+0.543,+0.107,-0.820,-0.750,-0.312,+0.562,-4, 0, -2, 0, -1, 0, -2, -2
1503523879350,+0.507,+0.092,-0.260,-0.817,+0.540,+0.114,-0.823,-0.688,+0.125,+1.062,0, 2, 0, -1, 0, -1, -1, 0
1503523879365,+0.507,+0.092,-0.260,-0.817,+0.543,+0.106,-0.818,-0.312,-0.125,+0.938,-2, 1, 0, -1, -2, 0, 1, -1
1503523879381,+0.507,+0.092,-0.260,-0.817,+0.551,+0.098,-0.812,-0.688,-0.312,+0.562,1, -3, -3, -2, 1, -1, 0, -2
1503523879403,+0.507,+0.092,-0.260,-0.817,+0.542,+0.101,-0.814,-1.125,-0.750,+0.562,2, -1, -1, -1, -1, -2, 0, -2
1503523879419,+0.507,+0.092,-0.260,-0.817,+0.545,+0.103,-0.818,-1.500,-0.438,+0.562,-3, 0, 0, -1, -2, 0, 1, 0
1503523879440,+0.506,+0.091,-0.260,-0.817,+0.548,+0.105,-0.818,-1.812,-0.750,+0.375,-1, -1, -2, -2, -1, -1, -2, 1
1503523879463,+0.506,+0.091,-0.260,-0.817,+0.552,+0.107,-0.819,-1.812,-1.625,+0.438,0, 0, 2, 0, 0, 0, 0, 0
1503523879479,+0.506,+0.091,-0.260,-0.817,+0.549,+0.102,-0.810,-1.750,-2.375,+0.312,-1, -1, 0, -1, -1, -1, -2, -2
1503523879500,+0.506,+0.091,-0.260,-0.818,+0.538,+0.105,-0.820,-2.062,-2.250,+0.500,0, -1, -2, 0, -1, 0, -3, 1
1503523879523,+0.506,+0.090,-0.260,-0.818,+0.535,+0.102,-0.818,-2.062,-2.250,+0.438,-2, 0, 0, -1, -1, -1, 0, 0
1503523879538,+0.505,+0.090,-0.259,-0.818,+0.542,+0.105,-0.824,-2.188,-1.688,+0.438,0, 0, 0, 0, 0, -1, 0, -1
1503523879560,+0.505,+0.090,-0.259,-0.818,+0.543,+0.110,-0.823,-1.938,-1.812,+0.062,-3, -1, 1, -1, 0, -2, -1, 0
1503523879584,+0.505,+0.089,-0.259,-0.818,+0.537,+0.111,-0.821,-1.750,-1.812,+0.312,5, -1, -2, -1, -2, -1, 0, 0
1503523879598,+0.505,+0.089,-0.259,-0.818,+0.534,+0.113,-0.821,-1.625,-1.250,+0.625,-2, -2, -1, -1, 0, -1, -1, -2
1503523879622,+0.505,+0.089,-0.259,-0.819,+0.540,+0.109,-0.821,-1.812,-1.188,+0.875,-5, -1, -1, -2, 1, 0, -1, -1
1503523879642,+0.505,+0.088,-0.259,-0.819,+0.542,+0.106,-0.823,-1.875,-1.500,+0.875,1, -1, 1, 0, -1, -3, -2, -1
1503523879658,+0.504,+0.088,-0.259,-0.819,+0.537,+0.113,-0.825,-1.750,-1.188,+0.438,5, -4, -2, -1, -2, 1, -1, 1
1503523879682,+0.504,+0.088,-0.259,-0.819,+0.532,+0.105,-0.825,-1.500,-1.312,+0.562,-3, 2, -2, 1, 0, 2, 0, -2
1503523879702,+0.504,+0.088,-0.259,-0.819,+0.533,+0.108,-0.828,-1.375,-0.125,+0.562,-2, 0, 1, -1, 0, -1, 0, -2
1503523879719,+0.504,+0.088,-0.259,-0.819,+0.535,+0.104,-0.828,-1.188,-0.250,+0.438,0, -2, -2, -2, -1, -1, 0, 1
1503523879740,+0.504,+0.088,-0.259,-0.819,+0.542,+0.110,-0.820,-1.312,+0.312,+0.312,-2, -2, 1, 0, -2, -1, -1, -1
1503523879763,+0.504,+0.088,-0.259,-0.820,+0.544,+0.114,-0.814,-1.062,-0.500,+0.438,-4, -1, -4, -1, -1, -1, -1, -1
1503523879781,+0.504,+0.088,-0.259,-0.820,+0.534,+0.113,-0.822,-0.875,-0.562,+0.625,2, -2, 1, 0, -1, -2, 0, -1
1503523879800,+0.503,+0.087,-0.259,-0.820,+0.535,+0.115,-0.821,-0.562,-0.500,+0.875,4, -1, -1, 0, -1, 0, -1, 0
1503523879824,+0.503,+0.087,-0.259,-0.820,+0.534,+0.110,-0.825,-0.438,-0.375,+1.125,-1, 0, -1, -2, -1, -2, -3, 0
1503523879838,+0.503,+0.088,-0.259,-0.820,+0.536,+0.108,-0.825,-0.188,-0.062,+1.188,-1, 0, -1, -2, 0, 0, 0, 0
1503523879860,+0.503,+0.088,-0.259,-0.820,+0.535,+0.097,-0.821,-0.312,-0.250,+0.875,-4, -1, -1, -2, 1, -1, 1, -2
1503523879884,+0.503,+0.088,-0.259,-0.820,+0.537,+0.104,-0.823,-0.562,+0.250,+0.562,-2, 0, 1, 1, 0, 0, -1, -1
1503523879898,+0.503,+0.088,-0.259,-0.820,+0.538,+0.104,-0.823,-0.875,+0.500,+0.312,-2, 0, 0, 0, -1, -1, -2, 0
1503523879920,+0.503,+0.088,-0.259,-0.820,+0.546,+0.104,-0.819,-1.250,+0.438,+0.312,4, -1, 0, 0, -1, -2, -1, -2
1503523879943,+0.503,+0.088,-0.259,-0.820,+0.543,+0.113,-0.815,-1.188,+0.312,+0.250,0, 0, 0, -2, -2, -2, 1, -2
1503523879960,+0.502,+0.088,-0.259,-0.820,+0.543,+0.107,-0.819,-1.188,-0.500,+0.375,-3, -2, -2, -1, -2, 1, -2, -1
1503523879985,+0.502,+0.088,-0.259,-0.820,+0.540,+0.113,-0.821,-1.125,-0.688,+0.625,-2, 0, -1, -1, -2, -1, -1, -2
1503523880002,+0.502,+0.087,-0.259,-0.820,+0.538,+0.111,-0.822,-1.062,-0.250,+0.812,-8, -2, -2, -1, 1, 0, -1, 0
1503523880018,+0.502,+0.087,-0.259,-0.821,+0.536,+0.108,-0.823,-1.000,-0.375,+1.000,4, 0, -1, 0, -2, -2, -2, 2
1503523880040,+0.502,+0.088,-0.259,-0.821,+0.544,+0.101,-0.818,-0.875,-0.438,+0.625,0, -1, 1, 0, 0, -1, 0, -1
1503523880062,+0.501,+0.087,-0.259,-0.821,+0.540,+0.103,-0.826,-1.125,-0.188,+0.312,-6, -1, -1, -1, 0, 0, -3, -2
1503523880078,+0.501,+0.087,-0.259,-0.821,+0.537,+0.107,-0.821,-1.312,+0.688,+0.125,-2, -1, -2, 0, -2, 0, -1, -2
1503523880100,+0.501,+0.087,-0.259,-0.821,+0.542,+0.113,-0.821,-1.688,-0.125,+0.500,-1, 0, -1, 0, -1, 0, -1, -1
1503523880123,+0.501,+0.087,-0.260,-0.821,+0.543,+0.112,-0.816,-1.625,+0.000,+0.500,4, -1, -1, -2, 0, -1, 0, 0
1503523880139,+0.501,+0.087,-0.259,-0.821,+0.535,+0.110,-0.815,-1.188,-0.875,+0.375,0, 0, -1, -2, 0, -1, 1, -1
1503523880161,+0.501,+0.087,-0.259,-0.821,+0.537,+0.108,-0.831,-1.188,-0.500,+0.375,2, 0, 1, -1, -3, 0, 0, -1
1503523880185,+0.501,+0.087,-0.259,-0.821,+0.532,+0.109,-0.819,-1.250,-0.062,+0.312,-1, -2, -1, 0, 0, 0, -2, 0
1503523880199,+0.500,+0.087,-0.259,-0.821,+0.536,+0.108,-0.824,-1.125,-0.125,+0.250,-2, 0, 0, -2, 1, -2, 0, -1
1503523880225,+0.500,+0.087,-0.259,-0.822,+0.543,+0.111,-0.816,-1.062,-0.312,+0.375,0, -1, -3, -2, -2, -2, -1, 0
1503523880242,+0.500,+0.087,-0.260,-0.822,+0.540,+0.113,-0.821,-0.938,-0.500,+0.250,6, -3, -1, 0, -1, 0, -2, -1
1503523880259,+0.500,+0.086,-0.259,-0.822,+0.537,+0.111,-0.826,-0.688,-0.688,+0.438,-4, -1, -1, -1, -2, 0, 0, -2
1503523880281,+0.500,+0.086,-0.259,-0.822,+0.534,+0.109,-0.819,-0.875,-0.562,+0.562,0, -1, -1, -1, -1, -2, -3, -1
1503523880303,+0.500,+0.086,-0.259,-0.822,+0.537,+0.105,-0.827,-0.688,-0.875,+0.562,2, -2, -3, -2, -1, -1, -2, 0
1503523880322,+0.500,+0.086,-0.259,-0.822,+0.533,+0.106,-0.824,-0.938,-0.250,+0.312,-3, 0, -2, 1, 0, 0, 0, 0
1503523880341,+0.500,+0.086,-0.259,-0.822,+0.537,+0.105,-0.817,-0.938,-0.688,+0.312,-4, 0, 0, -1, 0, -2, -1, 0
1503523880363,+0.499,+0.086,-0.259,-0.822,+0.535,+0.106,-0.819,-1.188,-0.188,+0.375,2, -2, 1, 2, -1, 0, -1, 0
1503523880379,+0.499,+0.086,-0.259,-0.822,+0.539,+0.114,-0.820,-1.312,+0.125,+0.438,-10, 1, 0, -1, -2, 0, 0, -1
1503523880401,+0.499,+0.086,-0.259,-0.822,+0.538,+0.111,-0.821,-1.250,-0.625,+0.750,4, 0, -2, -1, 0, 0, -1, 0
1503523880423,+0.499,+0.086,-0.259,-0.823,+0.541,+0.111,-0.823,-1.125,-0.125,+0.625,0, -2, -2, -1, 0, 1, 0, -1
1503523880439,+0.499,+0.086,-0.259,-0.823,+0.538,+0.108,-0.820,-1.062,-0.625,+0.938,1, -1, 2, 0, -1, 0, -2, -3
1503523880461,+0.498,+0.086,-0.259,-0.823,+0.535,+0.106,-0.819,-1.000,-0.188,+1.000,0, -2, -2, -2, 0, 0, -1, 1
1503523880483,+0.498,+0.086,-0.259,-0.823,+0.538,+0.111,-0.819,-1.062,-0.562,+0.812,-4, 1, 0, -2, -3, -2, 0, -1
1503523880500,+0.498,+0.086,-0.259,-0.823,+0.533,+0.100,-0.825,-1.125,-0.312,+0.688,-1, -2, 1, 0, -2, -1, 0, -1
1503523880522,+0.498,+0.086,-0.259,-0.823,+0.540,+0.109,-0.824,-1.188,+0.125,+0.312,-5, 2, 0, -1, 0, 0, -1, -1
1503523880543,+0.498,+0.086,-0.259,-0.823,+0.541,+0.112,-0.817,-1.125,-0.312,+0.375,-5, -2, -1, -2, 0, -2, -2, 1
1503523880560,+0.498,+0.086,-0.259,-0.823,+0.536,+0.109,-0.817,-1.000,-0.062,+0.750,3, 1, -1, -2, -1, 1, 0, -1
1503523880581,+0.497,+0.086,-0.259,-0.823,+0.541,+0.112,-0.819,-1.125,+0.250,+0.688,-2, -1, -1, 0, -2, -3, -2, -1
1503523880602,+0.497,+0.086,-0.259,-0.824,+0.539,+0.110,-0.823,-1.000,-0.562,+0.812,4, -1, -1, -1, -2, -1, -1, 0
1503523880621,+0.497,+0.086,-0.259,-0.824,+0.539,+0.108,-0.822,-1.188,-0.312,+0.625,1, -5, -2, 0, 0, 0, 1, -1
1503523880648,+0.497,+0.085,-0.259,-0.824,+0.533,+0.104,-0.826,-1.000,-0.375,+0.312,-1, 0, -1, 0, -1, 0, 0, -2
1503523880664,+0.497,+0.085,-0.259,-0.824,+0.526,+0.107,-0.822,-0.938,+0.125,+0.312,-4, -2, -1, 0, -1, 0, 0, -2
1503523880679,+0.497,+0.085,-0.259,-0.824,+0.537,+0.111,-0.826,-0.875,+0.750,+0.250,-2, -1, 1, 0, 0, 0, -1, -1
1503523880701,+0.496,+0.085,-0.260,-0.824,+0.545,+0.110,-0.818,-0.938,+0.312,+0.500,-3, 0, 0, -1, 0, -2, -2, 0
1503523880723,+0.496,+0.086,-0.260,-0.824,+0.545,+0.110,-0.821,-0.625,-0.125,+0.625,0, -2, -1, 1, -2, -3, -1, -2
1503523880741,+0.496,+0.086,-0.260,-0.824,+0.542,+0.112,-0.821,-0.562,-0.750,+0.688,-1, -1, -3, -1, -1, 0, -1, -1
1503523880767,+0.496,+0.086,-0.260,-0.824,+0.542,+0.106,-0.817,-0.625,-0.938,+0.688,-2, -2, -1, -2, -1, -2, -1, -1
1503523880783,+0.496,+0.085,-0.259,-0.824,+0.535,+0.108,-0.824,-0.875,-1.125,+0.500,1, 1, -1, -1, 0, -1, -1, 1
1503523880801,+0.496,+0.085,-0.259,-0.825,+0.533,+0.107,-0.823,-0.938,-0.938,+0.438,-6, -1, 0, -1, -2, 1, -2, -3
1503523880824,+0.496,+0.085,-0.259,-0.825,+0.536,+0.111,-0.827,-1.125,-0.500,+0.250,-1, -1, 1, -1, 0, 0, 1, -1
1503523880842,+0.495,+0.085,-0.259,-0.825,+0.532,+0.107,-0.819,-1.125,-0.688,+0.438,7, 0, 0, 0, -1, 0, -1, 0
1503523880860,+0.495,+0.085,-0.259,-0.825,+0.532,+0.108,-0.814,-1.250,+0.125,+0.438,0, 0, -1, -1, -1, -2, -1, -1
1503523880881,+0.495,+0.085,-0.259,-0.825,+0.539,+0.109,-0.825,-1.188,-0.188,+0.750,1, 0, 0, 1, 0, 0, 1, -2
1503523880902,+0.495,+0.085,-0.259,-0.825,+0.542,+0.109,-0.822,-1.062,-0.312,+0.625,-2, -3, -1, -2, 0, -2, 1, 0
1503523880919,+0.495,+0.085,-0.259,-0.825,+0.540,+0.106,-0.818,-1.125,-0.875,+0.562,3, 0, -1, -1, -1, -1, 0, 0
1503523880941,+0.495,+0.085,-0.259,-0.825,+0.535,+0.111,-0.823,-1.375,-0.625,+0.500,-5, -1, -3, 0, -1, -1, -1, 0
1503523880963,+0.494,+0.084,-0.259,-0.825,+0.530,+0.110,-0.817,-1.125,-0.875,+0.750,0, -1, 0, 0, 0, -1, -1, 0
1503523880979,+0.494,+0.084,-0.259,-0.826,+0.533,+0.110,-0.824,-1.125,+0.000,+0.625,-1, -1, 1, -1, 0, -2, 0, -3
1503523881001,+0.494,+0.084,-0.259,-0.826,+0.533,+0.109,-0.823,-0.938,-0.188,+0.562,5, -2, -2, -1, 0, 0, -2, -1
1503523881024,+0.494,+0.084,-0.259,-0.826,+0.531,+0.105,-0.823,-1.000,+0.312,+0.438,-4, -2, -1, -1, -1, 0, -1, 0
1503523881039,+0.494,+0.084,-0.259,-0.826,+0.539,+0.113,-0.829,-0.875,+0.000,+0.438,-2, 0, -1, -1, 0, 0, -2, 0
1503523881061,+0.494,+0.084,-0.259,-0.826,+0.541,+0.111,-0.821,-0.938,+0.188,+0.688,6, -2, -1, -2, -2, -2, 1, 0
1503523881083,+0.493,+0.084,-0.259,-0.826,+0.541,+0.109,-0.814,-0.812,+0.125,+0.812,-3, 0, 0, -1, -2, -1, 0, 0
1503523881099,+0.493,+0.084,-0.259,-0.826,+0.528,+0.115,-0.819,-0.812,+0.125,+0.938,-3, 1, 0, -1, -1, 0, -1, -1
1503523881123,+0.493,+0.084,-0.260,-0.826,+0.538,+0.113,-0.821,-0.750,-0.062,+1.000,-4, -4, -3, -1, -3, -1, -2, -1
1503523881143,+0.493,+0.084,-0.259,-0.826,+0.535,+0.108,-0.832,-0.562,-0.188,+1.000,3, 0, 0, -2, 1, 1, 1, -1
1503523881166,+0.493,+0.084,-0.259,-0.826,+0.533,+0.107,-0.824,-0.188,+0.188,+0.875,-9, 0, 0, 0, -1, -1, 1, -4
1503523881181,+0.493,+0.084,-0.259,-0.826,+0.533,+0.102,-0.817,-0.188,+0.750,+1.062,2, -1, 0, -2, 1, 1, -2, 0
1503523881203,+0.493,+0.084,-0.259,-0.826,+0.547,+0.109,-0.818,-0.125,+0.625,+1.125,-10, -4, -1, -1, -2, -3, -1, -2
1503523881225,+0.493,+0.084,-0.259,-0.826,+0.548,+0.111,-0.816,-0.125,+0.625,+0.562,2, 0, -1, -2, -2, -1, -1, 0
1503523881241,+0.493,+0.085,-0.259,-0.826,+0.545,+0.100,-0.817,+0.062,-0.688,+0.500,3, -1, 0, -1, -1, 0, 0, 1
1503523881271,+0.493,+0.085,-0.259,-0.826,+0.539,+0.098,-0.815,-0.500,-0.688,+0.375,-5, 0, -2, 0, -2, -1, -1, 0
1503523881285,+0.492,+0.085,-0.259,-0.827,+0.540,+0.104,-0.823,-0.875,-0.750,+0.250,-1, -1, 0, -2, -2, -2, -1, 0
1503523881301,+0.492,+0.084,-0.259,-0.827,+0.532,+0.110,-0.823,-1.125,-0.625,+0.375,-1, 0, -1, 0, 1, -1, 1, -2
1503523881326,+0.492,+0.084,-0.259,-0.827,+0.535,+0.108,-0.815,-1.000,-0.312,+0.312,2, -2, -1, -1, -1, -1, -1, 2
1503523881345,+0.492,+0.084,-0.259,-0.827,+0.536,+0.109,-0.822,-1.062,-0.188,+0.125,-4, -1, -1, 0, 0, -1, 0, -1
1503523881361,+0.492,+0.084,-0.259,-0.827,+0.536,+0.106,-0.820,-1.125,+0.000,+0.312,0, 0, -2, 0, -1, 0, 0, -1
1503523881383,+0.492,+0.084,-0.259,-0.827,+0.537,+0.107,-0.813,-1.062,-0.062,+0.688,-3, -1, -3, -1, -1, -1, -1, -2
1503523881405,+0.492,+0.084,-0.259,-0.827,+0.537,+0.110,-0.820,-1.312,+0.062,+1.062,2, 1, -1, -1, 0, -1, -1, 0
1503523881421,+0.491,+0.084,-0.260,-0.827,+0.547,+0.106,-0.820,-1.375,-0.062,+1.062,-1, 0, 0, -1, 2, 0, 0, -1
1503523881443,+0.491,+0.084,-0.259,-0.827,+0.537,+0.106,-0.817,-1.188,-0.812,+0.938,-1, 0, 0, 0, -2, 0, -1, 0
1503523881465,+0.491,+0.084,-0.260,-0.828,+0.537,+0.106,-0.818,-1.500,-0.438,+0.812,3, -2, -1, 0, -3, 0, -1, 0
1503523881481,+0.491,+0.084,-0.260,-0.828,+0.534,+0.103,-0.820,-1.375,-0.312,+0.812,-1, -1, 0, -1, 1, 0, -1, -1
1503523881503,+0.490,+0.084,-0.260,-0.828,+0.541,+0.107,-0.819,-1.562,-0.062,+0.562,-10, -2, -1, -1, -2, -2, -2, 0
1503523881528,+0.490,+0.084,-0.260,-0.828,+0.534,+0.108,-0.821,-1.500,-0.250,+0.625,3, 1, -1, -1, 1, 1, 1, -2
1503523881541,+0.490,+0.084,-0.260,-0.828,+0.534,+0.106,-0.821,-1.125,-0.125,+0.438,1, -1, 1, 0, -1, 0, -3, -2
1503523881563,+0.490,+0.084,-0.260,-0.828,+0.539,+0.110,-0.819,-1.250,+0.062,+0.312,3, 0, 0, 0, -2, -1, -2, 0
1503523881585,+0.490,+0.084,-0.260,-0.828,+0.538,+0.105,-0.824,-0.938,-0.438,+0.438,6, -1, -4, -1, -1, -1, -1, -1
1503523881602,+0.490,+0.084,-0.260,-0.828,+0.543,+0.108,-0.817,-1.062,-0.125,+0.562,0, 0, 1, -1, -1, 1, 0, 1
1503523881623,+0.489,+0.084,-0.260,-0.828,+0.538,+0.109,-0.816,-1.062,-0.062,+0.812,-4, -1, 0, 0, -1, 0, 0, -1
1503523881645,+0.489,+0.083,-0.260,-0.828,+0.545,+0.108,-0.820,-1.375,-0.312,+0.812,0, -2, 0, -1, 0, -2, -2, -1
1503523881663,+0.489,+0.083,-0.260,-0.828,+0.538,+0.107,-0.820,-1.250,-0.688,+0.688,-14, -2, -3, -2, -1, -1, -1, 0
1503523881683,+0.489,+0.083,-0.260,-0.829,+0.534,+0.105,-0.816,-1.188,-0.625,+0.375,1, -2, -2, 0, -2, -1, -2, -1
1503523881705,+0.489,+0.083,-0.260,-0.829,+0.533,+0.106,-0.824,-1.188,+0.000,+0.188,-3, 0, -2, 1, 0, 0, 0, -1
1503523881721,+0.489,+0.083,-0.260,-0.829,+0.536,+0.108,-0.821,-1.000,+0.188,+0.188,-8, -3, -1, 0, -1, -2, -3, -1
1503523881743,+0.488,+0.083,-0.260,-0.829,+0.540,+0.107,-0.817,-0.812,+0.125,+0.250,3, 1, -3, -2, -1, -1, 0, -1
1503523881765,+0.488,+0.083,-0.260,-0.829,+0.546,+0.109,-0.818,-0.750,-0.188,+0.438,-4, -2, 1, 0, -1, 2, 0, -2
1503523881781,+0.488,+0.083,-0.260,-0.829,+0.537,+0.109,-0.817,-0.625,-1.062,+0.812,3, -1, -1, -1, -2, -1, -1, 0
1503523881804,+0.488,+0.083,-0.260,-0.829,+0.545,+0.107,-0.818,-1.000,-0.750,+0.750,-1, 0, 1, -1, -1, -2, -1, -1
1503523881825,+0.488,+0.083,-0.260,-0.829,+0.534,+0.104,-0.823,-0.812,-1.000,+0.812,0, 1, -3, -1, -2, 0, 0, -2
1503523881841,+0.488,+0.083,-0.260,-0.829,+0.533,+0.106,-0.824,-0.875,-0.812,+0.500,-4, -2, 0, 0, -1, 0, -2, -2
1503523881864,+0.487,+0.083,-0.260,-0.830,+0.529,+0.104,-0.829,-0.938,-0.438,+0.375,-8, 0, 0, 1, -1, 0, 0, -3
1503523881885,+0.487,+0.083,-0.260,-0.830,+0.533,+0.109,-0.824,-1.062,+0.250,+0.375,7, -1, -2, -1, 0, -1, -1, 2
1503523881902,+0.487,+0.083,-0.260,-0.830,+0.538,+0.110,-0.826,-1.000,+0.312,+0.500,2, -2, 1, -2, 1, -1, -1, 0
1503523881931,+0.487,+0.083,-0.260,-0.830,+0.542,+0.109,-0.824,-1.188,+0.250,+0.812,7, 0, -1, 0, -2, -1, -1, -1
1503523881945,+0.487,+0.083,-0.260,-0.830,+0.545,+0.108,-0.819,-1.250,-0.375,+0.938,-6, 0, -2, -2, -1, -1, -1, 0
1503523881963,+0.486,+0.083,-0.260,-0.830,+0.544,+0.106,-0.820,-1.188,-0.750,+0.938,0, 0, 0, 0, 0, 0, 0, -1
1503523881983,+0.486,+0.083,-0.260,-0.830,+0.535,+0.112,-0.824,-1.250,-0.812,+0.750,0, 0, 1, 0, 0, -3, -1, 0
1503523882006,+0.486,+0.082,-0.260,-0.830,+0.534,+0.112,-0.820,-1.188,-0.688,+0.688,-10, -3, -1, 0, 0, 0, 0, -2
1503523882021,+0.486,+0.082,-0.260,-0.830,+0.538,+0.105,-0.829,-1.188,+0.000,+0.750,1, 0, -1, 2, -1, -1, 0, -1
1503523882044,+0.486,+0.082,-0.260,-0.831,+0.539,+0.109,-0.822,-1.188,+0.312,+0.500,-3, 0, 0, -1, 1, -1, -4, -3
1503523882068,+0.486,+0.082,-0.260,-0.831,+0.534,+0.106,-0.821,-0.938,+0.188,+0.500,-2, -1, -2, -1, -1, 1, 0, -2
1503523882081,+0.485,+0.082,-0.260,-0.831,+0.543,+0.106,-0.819,-1.125,+0.375,+0.500,4, -1, 0, -1, -1, 0, -2, 0
1503523882111,+0.485,+0.082,-0.260,-0.831,+0.543,+0.109,-0.815,-1.188,+0.062,+0.500,9, -1, -1, -1, -1, -3, -1, 1
1503523882126,+0.485,+0.082,-0.260,-0.831,+0.548,+0.109,-0.827,-1.250,-0.375,+0.438,2, 1, -1, 0, 0, 0, -1, 0
1503523882141,+0.485,+0.082,-0.260,-0.831,+0.539,+0.107,-0.822,-1.062,-0.938,+0.750,0, -1, -2, -2, -2, 0, -1, 0
1503523882164,+0.485,+0.082,-0.260,-0.831,+0.533,+0.109,-0.825,-1.000,-0.562,+0.750,-3, -2, -1, 0, 0, -1, -2, -2
1503523882186,+0.484,+0.082,-0.260,-0.831,+0.531,+0.108,-0.829,-1.188,-0.500,+1.125,-7, 1, 0, -1, -1, 0, 0, -1
1503523882201,+0.484,+0.082,-0.260,-0.831,+0.538,+0.113,-0.824,-1.375,+0.312,+0.750,3, -1, -1, 0, -1, -1, -2, -1
1503523882225,+0.484,+0.082,-0.260,-0.831,+0.533,+0.102,-0.824,-0.938,+0.062,+0.562,2, -2, -3, 1, 0, 0, -1, 1
1503523882246,+0.484,+0.082,-0.260,-0.831,+0.538,+0.103,-0.829,-0.938,+0.625,+0.250,-1, 1, 0, -1, 0, 1, 0, 0
1503523882261,+0.484,+0.082,-0.261,-0.831,+0.541,+0.105,-0.814,-1.062,+0.750,+0.250,1, -2, -1, -1, 0, -1, -3, -1
1503523882284,+0.484,+0.082,-0.261,-0.832,+0.549,+0.105,-0.825,-1.125,+0.188,+0.375,-2, -2, -2, -1, -2, -2, -2, 0
1503523882306,+0.483,+0.082,-0.261,-0.832,+0.542,+0.110,-0.820,-1.062,-0.688,+0.562,4, -3, -1, 0, -1, -2, -1, 1
1503523882321,+0.483,+0.082,-0.261,-0.832,+0.535,+0.108,-0.814,-0.812,-0.875,+0.750,-19, -1, -2, 0, -2, -1, 0, -3
1503523882343,+0.483,+0.082,-0.260,-0.832,+0.531,+0.107,-0.831,-0.812,-1.000,+0.812,-4, -1, -1, 0, -1, 1, -1, 1
1503523882366,+0.483,+0.082,-0.260,-0.832,+0.537,+0.106,-0.826,-0.938,-0.500,+0.688,-2, -1, 0, -1, -2, 0, 0, -2
1503523882381,+0.483,+0.082,-0.260,-0.832,+0.533,+0.108,-0.825,-0.750,-0.625,+0.688,3, 0, 0, 0, 0, -2, -1, 0
1503523882404,+0.483,+0.082,-0.260,-0.832,+0.537,+0.108,-0.824,-1.000,+0.188,+0.562,-8, -1, -1, 0, 1, 0, -1, -3
1503523882426,+0.482,+0.082,-0.260,-0.832,+0.540,+0.108,-0.816,-1.000,-0.188,+0.625,-5, -3, -2, -2, -1, 0, -1, 0
1503523882441,+0.482,+0.082,-0.260,-0.832,+0.542,+0.104,-0.825,-1.250,+0.000,+0.688,-1, 0, 2, 0, 1, 0, -1, -3
1503523882464,+0.482,+0.082,-0.260,-0.833,+0.539,+0.106,-0.817,-0.875,-0.188,+0.750,1, -1, -2, -1, -1, -2, 2, 0
1503523882486,+0.482,+0.082,-0.260,-0.833,+0.538,+0.110,-0.818,-0.812,+0.000,+0.562,-4, -2, 0, -1, -1, -1, -2, -2
1503523882501,+0.482,+0.082,-0.260,-0.833,+0.541,+0.106,-0.822,-1.125,-0.562,+0.562,0, -3, -2, -2, -1, -1, 0, 0
1503523882524,+0.482,+0.081,-0.260,-0.833,+0.530,+0.106,-0.821,-1.125,-0.688,+0.562,-4, 0, -2, -2, -1, -1, -2, -1
1503523882546,+0.481,+0.081,-0.260,-0.833,+0.533,+0.108,-0.822,-1.438,+0.250,+0.625,-5, -1, -2, -2, -1, 0, 1, 1
1503523882561,+0.481,+0.081,-0.261,-0.833,+0.545,+0.108,-0.819,-1.188,+0.188,+0.812,1, -1, 0, -1, -2, 0, -1, -3
1503523882584,+0.481,+0.081,-0.261,-0.833,+0.542,+0.107,-0.820,-1.000,-0.250,+0.500,0, 0, -1, 0, -2, -2, -2, 0
1503523882606,+0.481,+0.081,-0.261,-0.833,+0.538,+0.109,-0.820,-0.938,+0.062,+0.625,7, -1, -1, -1, 0, -1, -3, -1
1503523882621,+0.481,+0.081,-0.261,-0.833,+0.542,+0.108,-0.818,-0.938,-0.188,+0.750,-2, -1, -2, -2, 0, -1, -1, -1
1503523882644,+0.480,+0.081,-0.261,-0.833,+0.542,+0.104,-0.829,-1.000,-0.688,+0.938,0, 0, -1, 0, 1, -2, 0, 0
1503523882670,+0.480,+0.081,-0.261,-0.834,+0.534,+0.111,-0.817,-1.062,-0.125,+0.812,2, -3, -1, -1, -2, -1, -2, 0
1503523882681,+0.480,+0.081,-0.261,-0.834,+0.524,+0.111,-0.832,-0.125,+0.938,+0.938,-1, -1, 1, 0, -2, 1, -1, 0
1503523882705,+0.480,+0.082,-0.261,-0.834,+0.535,+0.111,-0.834,+1.562,+5.500,+1.562,-2, -1, -2, -1, -1, 0, 0, 1
1503523882737,+0.479,+0.083,-0.262,-0.833,+0.555,+0.104,-0.818,+2.125,+4.562,+1.438,-12, 1, 0, 0, -2, 0, 2, -4
1503523882741,+0.479,+0.084,-0.262,-0.833,+0.555,+0.110,-0.807,+1.188,+4.000,+1.500,-4, -2, 0, -3, -2, -1, 0, 0
1503523882764,+0.479,+0.084,-0.263,-0.833,+0.551,+0.105,-0.810,+0.188,+0.562,+2.062,-4, -4, -2, -2, -1, 2, -2, 0
1503523882790,+0.479,+0.084,-0.263,-0.834,+0.540,+0.091,-0.812,-0.375,+0.438,+1.188,5, 4, -1, -1, -1, -1, -1, 2
1503523882801,+0.479,+0.084,-0.262,-0.834,+0.526,+0.094,-0.823,-1.250,-1.938,-0.062,2, -2, -2, -2, -1, -1, -2, -1
1503523882824,+0.479,+0.083,-0.262,-0.834,+0.532,+0.104,-0.833,-1.688,+0.312,+0.562,-8, -3, -1, 0, 0, -2, 2, -2
1503523882846,+0.478,+0.084,-0.263,-0.834,+0.539,+0.112,-0.822,-0.625,+3.250,+1.188,0, -6, -2, -1, -1, 0, -1, -2
1503523882861,+0.478,+0.085,-0.263,-0.834,+0.539,+0.110,-0.827,+2.062,+7.562,+1.000,-1, 0, 0, 0, 0, 0, 1, 0
1503523882884,+0.478,+0.086,-0.265,-0.833,+0.544,+0.108,-0.816,+2.312,+11.438,+2.312,-5, 2, 1, 0, -1, 2, -1, -3
1503523882906,+0.477,+0.087,-0.266,-0.833,+0.590,+0.100,-0.794,+1.875,+8.750,+3.188,3, -2, -1, -1, 0, -1, -1, -1
1503523882921,+0.476,+0.089,-0.267,-0.833,+0.614,+0.091,-0.795,+1.750,+6.375,+4.188,-10, -2, 0, -1, -3, 0, -1, 0
1503523882947,+0.476,+0.090,-0.268,-0.833,+0.573,+0.132,-0.827,+4.750,+9.375,+5.375,8, 0, -4, 0, -1, 0, -2, -2
1503523882966,+0.475,+0.094,-0.270,-0.832,+0.630,+0.105,-0.818,+11.375,+15.625,+7.000,-3, 0, 0, 1, 1, 0, 3, 0
1503523882981,+0.474,+0.099,-0.272,-0.832,+0.589,+0.111,-0.851,+18.938,+23.500,+8.938,15, 17, 0, 0, -3, 0, 1, 0
1503523883005,+0.473,+0.107,-0.275,-0.830,+0.615,+0.100,-0.854,+29.625,+39.938,+13.375,-6, 2, -1, -2, 0, -2, -1, -1
1503523883026,+0.466,+0.121,-0.283,-0.830,+0.683,+0.060,-0.856,+37.500,+81.812,+47.938,1, 2, 0, 0, 0, 0, 1, -1
1503523883041,+0.458,+0.139,-0.293,-0.827,+0.723,+0.074,-0.871,+47.375,+111.250,+55.875,-6, -14, -4, -1, 0, -1, -1, -2
1503523883064,+0.448,+0.163,-0.308,-0.823,+0.793,+0.061,-0.805,+65.312,+149.750,+68.250,-12, -6, -1, 12, 0, -8, -1, -1
1503523883086,+0.442,+0.185,-0.317,-0.819,+0.834,+0.233,-0.918,+77.000,+118.688,+51.375,11, -5, -7, -17, -3, 2, -5, 0
1503523883108,+0.438,+0.208,-0.320,-0.814,+0.841,+0.042,-0.710,+104.312,+85.750,+51.438,-8, 13, 5, 21, 0, 6, 1, -1
1503523883124,+0.429,+0.229,-0.318,-0.814,+0.839,-0.183,-0.845,+84.750,+57.875,+80.375,-7, -5, 3, -17, -3, -9, -2, -4
1503523883146,+0.421,+0.241,-0.307,-0.819,+0.956,+0.010,-0.790,+74.688,-28.000,+92.750,8, 3, 0, 25, -2, -11, 1, 1
1503523883167,+0.417,+0.253,-0.291,-0.823,+0.768,-0.008,-0.727,+96.438,-47.125,+84.188,-3, 1, -10, -25, -1, 13, 2, 0
1503523883190,+0.412,+0.269,-0.272,-0.827,+0.578,-0.099,-0.786,+110.688,-46.625,+88.750,-7, 5, 3, -9, -4, -7, -3, -4
1503523883205,+0.405,+0.287,-0.256,-0.829,+0.589,-0.178,-0.782,+113.438,-26.312,+96.188,0, 2, 10, -1, 2, 5, 0, -2
1503523883228,+0.397,+0.307,-0.241,-0.831,+0.564,-0.144,-0.700,+121.938,-10.250,+103.125,3, 3, 0, -23, 13, 5, -3, 1
1503523883242,+0.387,+0.334,-0.223,-0.830,+0.593,-0.401,-0.611,+156.188,-7.500,+114.188,-5, -2, -1, 31, -7, 3, 0, 0
1503523883265,+0.376,+0.356,-0.207,-0.830,+0.636,-0.352,-0.644,+136.750,-6.500,+113.125,5, 8, 10, 2, 4, 5, -3, 1
1503523883287,+0.368,+0.380,-0.190,-0.827,+0.611,-0.501,-0.569,+147.688,-8.562,+99.500,1, 12, 4, 11, -2, 3, -1, -13
1503523883302,+0.360,+0.403,-0.172,-0.823,+0.568,-0.554,-0.546,+152.125,-16.000,+96.625,-1, 6, -5, -10, 2, 14, 15, -3
1503523883325,+0.353,+0.426,-0.155,-0.818,+0.560,-0.603,-0.475,+151.125,-10.750,+86.625,-1, -4, -18, -21, -7, 0, 0, 10
1503523883349,+0.346,+0.449,-0.141,-0.812,+0.505,-0.691,-0.450,+146.688,+0.500,+72.312,21, 4, 8, 18, 21, 39, 6, -3
1503523883362,+0.338,+0.471,-0.131,-0.804,+0.463,-0.724,-0.328,+137.812,+22.000,+70.812,-9, 0, 4, -15, -4, 19, -3, 6
1503523883385,+0.328,+0.492,-0.123,-0.797,+0.498,-0.755,-0.260,+124.938,+35.188,+66.312,3, -7, -4, 1, 5, -25, -7, 1
1503523883408,+0.318,+0.511,-0.118,-0.790,+0.507,-0.767,-0.262,+110.625,+45.500,+60.188,-12, -29, 4, -12, -24, -12, -2, 2
1503523883422,+0.310,+0.528,-0.112,-0.783,+0.487,-0.768,-0.218,+95.688,+28.125,+50.312,2, 8, 0, 6, 15, -2, -5, -5
1503523883445,+0.304,+0.541,-0.106,-0.777,+0.432,-0.761,-0.194,+81.938,+15.375,+42.500,-22, 24, 17, 19, -38, -6, -1, 3
1503523883467,+0.298,+0.553,-0.100,-0.772,+0.345,-0.757,-0.170,+67.625,+13.562,+37.062,-28, -47, -23, -19, 24, -3, -20, -10
1503523883483,+0.292,+0.562,-0.094,-0.768,+0.318,-0.789,-0.154,+48.875,+12.625,+33.375,5, 2, 12, 1, -22, 1, 11, 0
1503523883514,+0.286,+0.568,-0.091,-0.767,+0.311,-0.798,-0.137,+27.750,+13.500,+30.250,7, -5, -5, 4, 0, -14, 0, 0
1503523883527,+0.282,+0.571,-0.088,-0.766,+0.333,-0.822,-0.116,+7.562,+5.688,+24.062,5, 47, 25, 3, -18, 4, 2, -3
1503523883546,+0.279,+0.570,-0.086,-0.768,+0.356,-0.898,-0.118,-14.500,-5.938,+10.438,-8, 19, -11, -8, 16, -15, -27, -5
1503523883575,+0.280,+0.565,-0.084,-0.771,+0.344,-0.967,-0.080,-47.500,-25.938,-6.625,17, -15, -30, 1, -25, -7, -13, 4
1503523883587,+0.285,+0.555,-0.082,-0.777,+0.335,-1.017,-0.064,-81.375,-46.312,-23.750,28, 43, 5, 2, 23, 15, 9, 5
1503523883602,+0.293,+0.537,-0.087,-0.786,+0.220,-1.124,-0.097,-119.688,-42.250,-53.188,21, 12, -7, 1, 10, 4, 9, 0
1503523883625,+0.303,+0.515,-0.097,-0.796,+0.280,-1.137,-0.293,-147.562,-29.875,-77.938,-27, -34, 11, -4, 13, -19, -13, -3
1503523883648,+0.314,+0.488,-0.111,-0.807,+0.474,-1.254,-0.128,-187.312,-24.375,-94.375,-3, -31, 2, 1, -19, -2, 38, 4
1503523883662,+0.328,+0.455,-0.129,-0.818,+0.423,-1.129,-0.288,-219.875,-19.188,-122.688,16, 8, 16, 9, 29, -17, 15, 3
1503523883685,+0.344,+0.418,-0.153,-0.827,+0.525,-0.821,-0.594,-234.312,-7.938,-154.875,17, -8, -16, -4, 11, -4, 31, 10
1503523883713,+0.366,+0.382,-0.183,-0.829,+1.026,-0.300,-0.963,-217.062,+16.875,-204.312,-53, 12, -3, -2, 73, 13, 27, -22
1503523883723,+0.387,+0.355,-0.210,-0.824,+0.656,+0.151,-2.749,-155.438,+32.188,-201.625,8, -55, 1, 28, -49, -53, 55, 19
1503523883747,+0.438,+0.346,-0.213,-0.802,+3.955,+1.298,-1.161,+60.188,-87.812,-314.500,22, -38, -5, 1, -75, -3, -48, -29
1503523883767,+0.445,+0.329,-0.157,-0.818,-1.398,-0.225,-1.500,+43.875,-343.812,+99.438,34, -70, -89, -18, 78, 14, -24, 84
1503523883783,+0.440,+0.363,-0.176,-0.802,-0.064,+1.599,-1.238,+136.062,+209.625,-18.875,-39, 123, 28, 19, 59, 28, 96, 45
1503523883805,+0.414,+0.419,-0.181,-0.787,+1.901,+0.122,-1.111,+273.250,+227.188,+149.500,-72, -125, -128, -46, -59, -34, 57, -77
1503523883827,+0.402,+0.467,-0.154,-0.772,+1.020,-0.531,-0.783,+315.188,+36.688,+136.938,-85, 82, -21, -20, 75, 70, -128, 38
1503523883844,+0.384,+0.514,-0.125,-0.757,+0.351,-1.005,-0.500,+307.062,+48.750,+165.312,91, -24, 34, 1, -87, -1, 57, -75
1503523883865,+0.355,+0.560,-0.100,-0.741,+0.493,-0.895,-0.076,+283.312,+88.062,+198.438,13, -15, 20, 99, 61, -53, -46, -36
1503523883887,+0.327,+0.600,-0.075,-0.726,+0.575,-0.754,+0.160,+255.750,+71.688,+199.312,12, 49, -67, -104, 22, 41, 2, -67
1503523883902,+0.301,+0.634,-0.048,-0.710,+0.399,-0.689,+0.227,+236.438,+44.812,+189.625,32, 14, 89, -12, -56, -44, -43, -54
1503523883925,+0.278,+0.664,-0.024,-0.693,+0.151,-0.695,+0.291,+220.375,+42.500,+160.562,28, -51, 10, 112, -52, -30, 44, 110
1503523883948,+0.258,+0.690,-0.004,-0.676,+0.086,-0.720,+0.314,+194.750,+40.562,+130.875,19, -2, 32, 22, -39, -9, 18, 127
1503523883962,+0.241,+0.710,+0.009,-0.661,+0.113,-0.662,+0.302,+160.375,+45.062,+100.375,-9, 18, 7, -58, -30, -3, -2, -105
1503523883985,+0.227,+0.726,+0.018,-0.648,+0.114,-0.592,+0.271,+125.938,+45.250,+72.500,0, 2, 18, -21, -24, -5, -2, -127
1503523884007,+0.216,+0.739,+0.025,-0.637,+0.146,-0.616,+0.256,+97.062,+33.250,+49.938,10, -2, 13, 5, -6, -8, -6, -56
1503523884022,+0.210,+0.749,+0.027,-0.628,+0.201,-0.638,+0.240,+73.312,+22.000,+16.562,6, 45, 12, -12, -9, -3, 15, -10
1503523884052,+0.211,+0.755,+0.027,-0.620,+0.175,-0.641,+0.203,+50.688,+2.875,-18.500,-1, -21, -2, -3, -12, -6, 5, 5
1503523884067,+0.216,+0.758,+0.026,-0.615,+0.122,-0.738,+0.211,+28.625,-17.000,-36.375,-5, 0, -5, -5, -12, -3, 0, 27
1503523884084,+0.222,+0.757,+0.025,-0.614,+0.109,-0.859,+0.233,-4.188,-29.625,-41.812,0, 1, 3, 0, -6, -3, -1, 6
1503523884105,+0.229,+0.752,+0.022,-0.617,+0.133,-0.935,+0.260,-38.688,-29.812,-48.500,1, -9, 4, 3, -2, -1, 1, 6
1503523884128,+0.235,+0.746,+0.014,-0.623,+0.173,-0.944,+0.262,-63.938,-9.438,-60.250,-1, -6, 4, -2, -2, -5, 0, -1
1503523884146,+0.241,+0.739,+0.000,-0.629,+0.264,-0.959,+0.238,-79.000,+14.875,-77.438,-1, -2, 8, -5, -5, -1, 2, 6
1503523884165,+0.247,+0.730,-0.017,-0.636,+0.373,-0.971,+0.184,-89.938,+18.625,-91.062,2, 3, -1, 0, -3, -1, 0, -2
1503523884188,+0.256,+0.720,-0.034,-0.644,+0.437,-0.981,+0.145,-97.438,+7.125,-97.500,0, 7, 3, 4, 0, 0, -3, 3
1503523884203,+0.267,+0.708,-0.051,-0.652,+0.480,-0.960,+0.136,-105.500,+2.875,-103.875,0, -4, 2, 7, -1, -1, 0, -1
1503523884225,+0.276,+0.696,-0.072,-0.659,+0.495,-0.927,+0.137,-106.625,+16.875,-113.812,1, -3, -4, 1, 0, 0, -2, -6
1503523884248,+0.285,+0.684,-0.096,-0.665,+0.563,-0.953,+0.119,-107.062,+33.875,-129.562,-1, 3, 1, -1, -2, 0, 0, 6
1503523884262,+0.296,+0.670,-0.121,-0.670,+0.607,-0.904,+0.050,-109.188,+28.875,-143.812,-1, -1, -3, 1, -1, -1, 1, 3
1503523884285,+0.309,+0.655,-0.147,-0.674,+0.654,-0.824,+0.015,-112.250,+14.812,-156.375,-1, -2, 1, -11, 1, 0, -2, 1
1503523884307,+0.325,+0.637,-0.173,-0.677,+0.707,-0.744,-0.016,-114.562,+7.625,-169.938,2, -2, -1, 7, -1, 1, -1, 3
1503523884323,+0.339,+0.620,-0.200,-0.679,+0.730,-0.693,-0.059,-114.938,+20.812,-169.062,-5, 0, 2, -19, 0, -4, -2, 2
1503523884347,+0.346,+0.605,-0.229,-0.680,+0.773,-0.613,-0.082,-111.250,+56.062,-152.125,3, 1, 1, 12, -2, 0, 1, 0
1503523884367,+0.351,+0.591,-0.257,-0.679,+0.825,-0.524,-0.108,-101.312,+68.875,-132.625,-2, -3, 3, -11, 0, -2, 0, 1
1503523884384,+0.356,+0.580,-0.284,-0.676,+0.915,-0.440,-0.097,-83.875,+71.250,-135.750,0, -1, -1, -2, 0, 1, 0, 2
1503523884405,+0.364,+0.567,-0.311,-0.670,+0.971,-0.364,-0.069,-72.312,+63.188,-152.812,-1, -1, -2, 8, -1, 0, -1, -2
1503523884429,+0.370,+0.555,-0.337,-0.664,+0.929,-0.286,-0.098,-66.375,+65.500,-145.688,4, -2, -1, 25, -3, -2, 1, -3
1503523884442,+0.373,+0.548,-0.364,-0.654,+1.006,-0.158,-0.095,-49.562,+97.250,-127.188,-1, 1, -1, -2, -1, 1, -2, -1
1503523884472,+0.372,+0.546,-0.387,-0.643,+1.060,-0.158,-0.115,-25.688,+113.062,-94.375,-3, -2, -2, -9, 3, -2, -1, 0
1503523884488,+0.369,+0.547,-0.407,-0.632,+1.185,-0.180,-0.119,-8.438,+114.750,-68.562,2, -4, 2, -7, 0, -2, -1, -8
1503523884502,+0.369,+0.545,-0.424,-0.622,+1.271,-0.225,-0.100,-7.562,+85.062,-64.375,14, 10, 17, -7, -5, 0, 0, -3
1503523884525,+0.374,+0.541,-0.434,-0.615,+1.217,-0.191,-0.008,+0.312,+30.688,-60.688,-4, -1, -7, 23, -21, 1, 4, 1
1503523884553,+0.383,+0.536,-0.439,-0.611,+1.142,-0.216,+0.013,+11.188,-9.812,-56.062,39, 0, -2, 25, 16, 7, 4, 8
1503523884562,+0.388,+0.534,-0.443,-0.607,+1.007,-0.248,+0.000,+9.062,+4.750,-41.625,0, 8, 1, -19, -2, 1, -5, -10
1503523884588,+0.388,+0.535,-0.448,-0.602,+0.896,-0.216,-0.008,+7.062,+33.875,-23.438,1, -3, -2, -8, -12, 8, -30, 2
1503523884607,+0.387,+0.537,-0.455,-0.596,+0.997,-0.188,+0.003,+12.188,+48.438,-15.625,-15, 4, 1, 5, -1, -3, -3, -14
1503523884623,+0.388,+0.539,-0.458,-0.590,+1.071,-0.245,+0.003,+20.750,+34.125,-16.562,3, -1, -4, -10, 7, -8, -2, 14
1503523884645,+0.390,+0.541,-0.460,-0.586,+1.051,-0.276,+0.058,+17.750,+13.062,-18.688,-15, -7, 0, 46, -8, 9, 1, 22
1503523884667,+0.392,+0.541,-0.461,-0.583,+1.007,-0.270,+0.100,+13.938,+2.188,-16.938,-20, -3, -7, -14, -4, 2, -4, 7
1503523884683,+0.394,+0.542,-0.463,-0.580,+0.973,-0.241,+0.119,+14.375,+6.062,-17.312,-5, -9, -13, -40, -2, -3, 1, 1
1503523884705,+0.395,+0.543,-0.466,-0.575,+0.962,-0.227,+0.110,+16.750,+20.750,-18.312,6, -5, 0, -40, -5, -1, 3, 26
1503523884728,+0.396,+0.545,-0.470,-0.571,+0.960,-0.223,+0.099,+15.812,+23.438,-19.625,-3, -1, -4, -5, 4, -1, 18, 21
1503523884742,+0.398,+0.546,-0.472,-0.566,+0.995,-0.222,+0.140,+13.500,+13.438,-21.625,-8, -5, -6, -13, -15, -7, -2, 2
1503523884765,+0.400,+0.545,-0.475,-0.563,+1.026,-0.251,+0.167,+7.625,+6.000,-23.875,2, 0, 3, -5, -17, -5, -22, 0
1503523884788,+0.401,+0.545,-0.478,-0.560,+0.957,-0.225,+0.134,+4.688,+12.250,-18.438,-9, -13, -15, -18, 5, -3, -1, -12
1503523884803,+0.400,+0.546,-0.481,-0.558,+0.981,-0.195,+0.131,-0.562,+20.188,-11.438,-9, -3, -3, 4, -3, -3, 3, 11
1503523884826,+0.399,+0.546,-0.485,-0.555,+1.024,-0.174,+0.156,-1.062,+17.375,-12.812,-7, 5, 3, 11, 4, -3, 4, -12
1503523884852,+0.401,+0.545,-0.487,-0.553,+1.015,-0.169,+0.166,+1.688,+4.375,-16.188,3, 1, 5, 3, -8, 3, -3, -14
1503523884863,+0.402,+0.543,-0.489,-0.552,+1.015,-0.198,+0.156,-3.500,-2.250,-19.312,-1, -2, 3, -4, -8, 1, 6, 2
1503523884885,+0.403,+0.541,-0.492,-0.551,+1.000,-0.159,+0.162,-8.562,+0.312,-15.375,-4, -2, 2, 8, -1, -4, -4, 14
1503523884907,+0.402,+0.540,-0.495,-0.549,+1.009,-0.139,+0.156,-6.625,+9.438,-10.125,1, 6, -4, -11, 6, -2, 11, -6
1503523884930,+0.402,+0.539,-0.497,-0.548,+1.029,-0.151,+0.119,-4.625,+12.438,-9.250,-4, 10, 6, 3, -5, -1, -1, -5
1503523884945,+0.402,+0.538,-0.499,-0.548,+1.020,-0.155,+0.133,-5.312,+4.000,-6.500,-59, -11, -3, 1, 0, -2, -8, -4
1503523884967,+0.402,+0.537,-0.500,-0.548,+1.021,-0.156,+0.137,-5.125,-1.812,-6.188,17, 2, 11, 7, 13, 1, -3, 0
1503523884984,+0.403,+0.535,-0.501,-0.548,+1.012,-0.146,+0.134,-6.438,-5.062,-5.125,7, -6, -7, 6, 4, -1, -6, -6
1503523885005,+0.402,+0.534,-0.501,-0.549,+1.020,-0.137,+0.145,-11.562,-5.500,+1.875,6, -3, -4, -4, 1, -2, -7, -12
1503523885027,+0.400,+0.534,-0.501,-0.551,+0.986,-0.146,+0.118,-10.875,+1.875,+16.000,2, -11, -21, -1, 4, 0, -2, 2
1503523885043,+0.397,+0.535,-0.500,-0.554,+1.056,-0.148,+0.116,-11.875,-2.125,+25.562,13, 5, 2, 1, -5, -1, -6, 5
1503523885065,+0.396,+0.535,-0.497,-0.558,+1.061,-0.156,+0.095,-8.938,-15.625,+26.875,10, -10, -10, -4, 4, 0, -1, -14
1503523885089,+0.396,+0.533,-0.492,-0.563,+1.001,-0.172,+0.081,-7.438,-31.875,+22.375,-12, -25, -25, -5, -5, -4, 5, 3
1503523885103,+0.397,+0.532,-0.488,-0.567,+0.956,-0.187,+0.075,-4.250,-34.875,+19.188,4, -2, 3, -5, 3, 1, 15, 8
1503523885125,+0.398,+0.532,-0.483,-0.571,+0.912,-0.203,+0.061,+2.812,-25.562,+17.938,-1, 4, 5, 7, -4, -1, -1, 0
1503523885147,+0.398,+0.533,-0.479,-0.573,+0.949,-0.232,+0.050,+8.562,-18.062,+16.250,-2, 4, 4, 0, -4, -1, -13, -6
1503523885163,+0.400,+0.533,-0.476,-0.574,+0.981,-0.243,+0.068,+11.500,-17.250,+9.625,7, 7, 5, -4, 2, 4, 1, 0
1503523885187,+0.404,+0.532,-0.472,-0.575,+0.976,-0.224,+0.073,+13.750,-30.438,-2.500,-4, -7, -12, -3, 4, 1, 8, -2
1503523885207,+0.412,+0.529,-0.468,-0.576,+0.934,-0.203,+0.019,+19.250,-50.000,-18.312,-7, -8, -10, -7, -2, 1, 2, 6
1503523885223,+0.421,+0.525,-0.463,-0.577,+0.833,-0.185,-0.025,+23.062,-51.500,-24.875,-9, -9, -5, -2, -1, -2, -5, 0
1503523885245,+0.429,+0.524,-0.459,-0.576,+0.829,-0.186,-0.035,+29.312,-37.125,-20.812,14, 7, -2, 5, 11, -3, -2, -2
1503523885267,+0.435,+0.524,-0.455,-0.574,+0.899,-0.185,-0.031,+35.312,-24.625,-15.625,-8, 3, 9, -1, -7, 0, -5, 4
1503523885283,+0.442,+0.525,-0.452,-0.570,+0.958,-0.199,-0.025,+39.250,-15.188,-22.000,-1, -9, 9, 5, 2, 0, 0, 3
1503523885305,+0.450,+0.524,-0.450,-0.566,+1.006,-0.184,+0.014,+39.812,-25.125,-31.188,5, 37, 13, 2, 0, -1, -7, 4
1503523885328,+0.459,+0.523,-0.447,-0.562,+1.001,-0.157,+0.035,+39.938,-33.250,-33.938,-2, -1, -10, -5, 1, 4, 10, 3
1503523885343,+0.468,+0.522,-0.444,-0.559,+0.943,-0.135,+0.014,+38.875,-30.750,-30.750,2, -6, -3, -4, -4, -1, -2, 4
1503523885365,+0.475,+0.522,-0.443,-0.554,+0.905,-0.099,-0.012,+37.562,-15.188,-32.250,-11, 3, 3, -1, -2, 0, 6, -1
1503523885389,+0.482,+0.522,-0.442,-0.548,+0.945,-0.090,-0.016,+38.562,-4.562,-32.125,-10, -2, -1, 1, -2, -2, -10, -12
1503523885403,+0.487,+0.523,-0.442,-0.542,+1.066,-0.112,+0.029,+36.188,-4.125,-31.688,9, 5, 8, -1, -1, -5, 9, 23
1503523885426,+0.494,+0.523,-0.442,-0.536,+1.095,-0.066,+0.024,+33.312,-7.875,-34.125,8, 15, 10, -1, -1, 1, 6, 4
1503523885447,+0.502,+0.521,-0.443,-0.530,+1.007,+0.000,-0.011,+36.562,-13.250,-40.125,-3, 1, 4, -3, -2, 0, -3, 4
1503523885463,+0.511,+0.519,-0.442,-0.524,+0.989,-0.005,-0.004,+39.625,-24.375,-45.125,11, 30, 2, -1, 0, 0, -7, 0
1503523886625,+0.555,+0.469,-0.384,-0.569,+1.076,-0.083,-0.285,+42.500,-27.750,+62.375,-3, 6, 2, -2, -1, -3, 0, 20
1503523886647,+0.555,+0.475,-0.372,-0.573,+1.065,-0.094,-0.288,+49.375,-28.750,+63.562,31, 9, 1, -1, -2, 0, -2, 1
1503523886671,+0.555,+0.481,-0.358,-0.576,+1.032,-0.126,-0.278,+57.000,-28.438,+63.625,-2, 9, -3, -2, 1, 0, -1, -2
1503523886686,+0.554,+0.488,-0.345,-0.579,+1.018,-0.169,-0.260,+60.188,-28.750,+65.438,6, -17, -3, -3, -2, 1, -5, -12
1503523886708,+0.553,+0.496,-0.331,-0.582,+1.003,-0.190,-0.249,+61.875,-25.750,+69.062,-4, -9, 2, -2, 0, 1, -2, -11
1503523886731,+0.552,+0.504,-0.317,-0.584,+0.964,-0.212,-0.255,+65.500,-23.812,+72.000,-18, 2, -8, 1, -1, -1, -1, -10
1503523886746,+0.550,+0.512,-0.302,-0.586,+0.950,-0.233,-0.260,+67.125,-20.000,+70.625,-2, 4, 7, -2, -2, -2, -6, -23
1503523886768,+0.548,+0.521,-0.289,-0.587,+0.918,-0.271,-0.227,+67.250,-13.812,+71.375,-6, 1, 5, 1, 1, -2, -2, -15
1503523886791,+0.545,+0.531,-0.275,-0.588,+0.898,-0.287,-0.235,+69.562,-5.812,+71.938,-4, 31, 9, 2, 0, 1, 4, 11
1503523886806,+0.541,+0.540,-0.263,-0.588,+0.919,-0.312,-0.227,+69.500,-3.625,+67.312,3, -19, -7, -1, -1, -2, -2, 3
1503523886831,+0.538,+0.550,-0.251,-0.588,+0.902,-0.366,-0.187,+67.812,-4.312,+62.500,3, 1, -5, -1, -2, -1, -1, -16
1503523886850,+0.535,+0.558,-0.239,-0.587,+0.865,-0.388,-0.181,+65.188,-2.438,+57.000,10, 8, -7, -1, -2, 1, -2, 0
1503523886866,+0.532,+0.567,-0.229,-0.585,+0.854,-0.387,-0.187,+62.125,+2.250,+52.312,8, -11, -1, -1, -1, -2, -1, 13
1503523886888,+0.529,+0.575,-0.220,-0.584,+0.863,-0.394,-0.168,+57.750,+4.625,+48.375,-12, -10, -4, -2, -1, 0, 2, -1
1503523886910,+0.526,+0.582,-0.212,-0.582,+0.818,-0.405,-0.166,+52.875,+6.688,+43.188,-8, 17, 13, 0, 1, -1, 1, 0
1503523886926,+0.523,+0.589,-0.205,-0.581,+0.802,-0.427,-0.153,+46.500,+10.188,+40.125,-13, -6, 26, 3, 1, 2, 3, 3
1503523886948,+0.520,+0.596,-0.199,-0.579,+0.820,-0.433,-0.141,+40.938,+12.438,+36.875,6, 30, -10, -2, -3, -2, -3, 0
1503523886971,+0.516,+0.601,-0.193,-0.578,+0.826,-0.447,-0.133,+37.125,+10.500,+33.312,-6, -27, -12, -2, -4, -1, -9, -24
1503523886986,+0.514,+0.606,-0.188,-0.577,+0.812,-0.448,-0.155,+33.500,+4.312,+31.000,5, 9, -4, -1, -1, -2, -1, 39
1503523887015,+0.512,+0.610,-0.183,-0.577,+0.768,-0.479,-0.148,+29.062,+5.000,+29.000,-1, -37, -8, 0, -1, -1, 1, -3
1503523887039,+0.509,+0.613,-0.178,-0.577,+0.749,-0.492,-0.126,+24.250,+5.875,+26.250,-2, -12, 17, 0, 0, 0, 1, 0
1503523887046,+0.506,+0.617,-0.175,-0.577,+0.788,-0.510,-0.102,+17.375,+7.500,+24.312,-3, 55, -7, -4, -2, -2, -1, 0
1503523887075,+0.504,+0.619,-0.172,-0.577,+0.837,-0.478,-0.115,+14.375,+3.062,+23.500,-7, -15, -10, 0, 0, 1, -6, -2
1503523887090,+0.504,+0.620,-0.169,-0.578,+0.812,-0.487,-0.122,+12.062,-7.500,+20.125,7, 0, 10, 4, 0, -1, 4, -2
1503523887107,+0.503,+0.620,-0.165,-0.579,+0.739,-0.507,-0.123,+9.312,-10.938,+16.750,4, -12, -5, -2, -1, -1, 7, -1
1503523887128,+0.502,+0.621,-0.162,-0.580,+0.767,-0.516,-0.131,+3.438,-1.812,+18.062,-2, -40, -5, 2, 0, -1, -4, -3
1503523887150,+0.499,+0.622,-0.162,-0.582,+0.788,-0.509,-0.098,-2.750,+5.250,+18.062,-3, -4, 1, 0, 1, 0, 1, -2
1503523887169,+0.497,+0.622,-0.161,-0.583,+0.814,-0.518,-0.083,-8.688,+2.625,+15.562,-4, -20, -10, -4, -4, -2, 0, -3
1503523887188,+0.496,+0.621,-0.162,-0.585,+0.838,-0.548,-0.086,-13.062,-0.125,+12.062,12, 22, -10, -3, -1, 0, 3, -1
1503523887210,+0.495,+0.619,-0.162,-0.588,+0.847,-0.553,-0.099,-18.938,-7.250,+9.062,-1, 12, 4, -1, -2, -1, 4, 7
1503523887226,+0.494,+0.616,-0.163,-0.592,+0.831,-0.539,-0.117,-27.625,-7.500,+6.500,-18, -10, -2, 1, 0, -1, -2, -5
1503523887248,+0.493,+0.612,-0.165,-0.595,+0.803,-0.504,-0.146,-31.375,-2.250,+5.562,-1, -7, 4, -5, -3, -2, 1, 11
1503523887272,+0.492,+0.609,-0.168,-0.599,+0.830,-0.521,-0.147,-32.500,-0.438,+4.062,3, 7, -8, -1, -2, 0, -2, -4
1503523887286,+0.491,+0.606,-0.171,-0.603,+0.842,-0.561,-0.136,-35.688,+0.562,+4.125,-5, 0, -3, 2, 0, 0, -1, -1
1503523887310,+0.489,+0.602,-0.174,-0.607,+0.854,-0.552,-0.157,-40.500,-0.188,+4.188,-5, -21, -2, -1, -2, -1, 2, -5
1503523887330,+0.488,+0.596,-0.177,-0.612,+0.815,-0.520,-0.203,-43.000,-7.938,+4.375,2, 24, 15, 3, 0, 1, -1, 0
1503523887346,+0.486,+0.591,-0.179,-0.618,+0.765,-0.538,-0.220,-46.875,-3.312,+7.438,-3, -9, -2, 3, -1, -3, -2, -1
1503523887369,+0.481,+0.587,-0.184,-0.625,+0.725,-0.575,-0.212,-53.812,+17.000,+13.125,-1, -6, 6, -2, 1, 1, -1, 9
1503523887390,+0.474,+0.584,-0.190,-0.630,+0.776,-0.560,-0.209,-54.688,+35.188,+14.750,1, 21, -10, -3, -2, -3, -2, 15
1503523887406,+0.468,+0.582,-0.197,-0.635,+0.877,-0.533,-0.220,-49.875,+38.250,+13.750,-11, -21, -10, -3, -1, 1, -6, -28
1503523887428,+0.462,+0.580,-0.203,-0.639,+0.890,-0.562,-0.201,-45.625,+29.188,+12.438,-3, 1, 1, 1, 2, -1, 6, 1
1503523887450,+0.457,+0.577,-0.207,-0.644,+0.870,-0.591,-0.188,-45.250,+15.562,+14.062,-2, 23, -3, -2, -2, -1, -2, -3
1503523887469,+0.451,+0.574,-0.211,-0.650,+0.800,-0.597,-0.248,-44.062,+23.312,+21.938,7, -8, -6, -2, -1, -1, -2, 4
1503523887488,+0.442,+0.574,-0.216,-0.655,+0.772,-0.601,-0.250,-39.250,+43.500,+26.062,-2, 5, 15, 2, 3, 0, 0, -7
1503523887510,+0.433,+0.575,-0.220,-0.659,+0.783,-0.604,-0.250,-33.125,+49.812,+28.562,-2, -13, -4, -1, -1, -2, -3, 3
1503523887526,+0.424,+0.576,-0.223,-0.662,+0.829,-0.604,-0.235,-26.125,+41.625,+32.875,-4, -7, -2, -3, -2, 0, 0, 1
1503523887548,+0.416,+0.577,-0.225,-0.666,+0.816,-0.606,-0.227,-19.688,+36.750,+35.625,5, -4, -1, 0, -4, -2, 2, 2
1503523887570,+0.407,+0.579,-0.226,-0.669,+0.769,-0.625,-0.216,-15.438,+30.250,+39.562,-6, -2, 1, -1, -1, 0, -1, -9
1503523887586,+0.398,+0.581,-0.225,-0.673,+0.729,-0.617,-0.206,-12.250,+29.938,+45.250,-1, -6, -3, 1, -1, -3, -1, 8
1503523887612,+0.390,+0.584,-0.224,-0.676,+0.695,-0.617,-0.183,-7.500,+29.562,+45.875,-4, -3, 3, 2, 2, 0, 0, 31
1503523887630,+0.382,+0.587,-0.223,-0.678,+0.725,-0.623,-0.146,-3.750,+25.125,+40.625,0, -2, -2, -4, -1, -1, -1, -12
1503523887646,+0.376,+0.589,-0.222,-0.680,+0.791,-0.613,-0.120,-2.188,+16.812,+36.188,1, 0, 0, -1, 0, 1, -3, 3
1503523887671,+0.372,+0.590,-0.220,-0.682,+0.808,-0.622,-0.133,-3.812,+5.688,+34.312,1, -1, 0, 0, -1, -3, -1, -9
1503523887690,+0.368,+0.591,-0.217,-0.685,+0.771,-0.638,-0.145,-7.125,-2.812,+34.250,-1, -2, 2, 1, 1, -1, -1, -12
1503523887707,+0.364,+0.590,-0.213,-0.688,+0.733,-0.640,-0.151,-11.000,-10.375,+32.812,-3, -2, -3, -1, -3, 0, -1, -8
1503523887728,+0.362,+0.589,-0.209,-0.691,+0.714,-0.643,-0.146,-8.625,-15.750,+27.688,2, -1, 1, 0, 0, -3, -1, 6
1503523887750,+0.362,+0.588,-0.206,-0.693,+0.704,-0.647,-0.129,-6.688,-15.250,+13.312,-1, -4, -2, -1, -1, -1, -1, -8
1503523887766,+0.363,+0.587,-0.205,-0.694,+0.749,-0.626,-0.122,-7.000,-14.125,+4.188,2, 0, 0, 1, 0, 0, 1, -4
1503523887789,+0.364,+0.586,-0.205,-0.695,+0.770,-0.622,-0.134,-5.438,-13.438,+1.188,3, 1, 2, 1, 1, 1, -2, -5
1503523887812,+0.365,+0.585,-0.204,-0.695,+0.752,-0.626,-0.142,-5.062,-10.375,-0.062,-2, 0, 0, 0, -2, 1, -3, -2
1503523887826,+0.365,+0.584,-0.205,-0.695,+0.748,-0.652,-0.134,-5.875,-2.875,-4.688,1, -1, -3, -2, -4, -4, 1, 3
1503523887855,+0.366,+0.583,-0.206,-0.695,+0.738,-0.659,-0.146,-4.062,-2.938,-7.562,0, -1, -2, -1, 0, -1, 0, -2
1503523887871,+0.368,+0.583,-0.208,-0.694,+0.743,-0.661,-0.142,-4.562,-1.375,-15.750,1, 2, -1, -1, -1, -1, -1, -2
1503523887886,+0.370,+0.581,-0.212,-0.693,+0.772,-0.672,-0.134,-7.500,+0.562,-26.500,-2, -1, -1, -1, -1, 1, -1, -2
1503523887912,+0.374,+0.579,-0.215,-0.692,+0.779,-0.677,-0.158,-9.250,-3.688,-36.750,-2, 0, 1, 0, -2, 1, -2, -1
1503523887931,+0.380,+0.576,-0.220,-0.690,+0.796,-0.620,-0.179,-10.188,-6.750,-43.562,0, -1, 2, 1, -1, -1, -1, 0
1503523887947,+0.385,+0.572,-0.226,-0.688,+0.780,-0.584,-0.206,-12.000,+0.750,-47.250,0, 0, -2, -1, 0, 0, -1, -1
1503523887968,+0.389,+0.570,-0.231,-0.686,+0.754,-0.565,-0.175,-9.875,+2.938,-42.500,-2, 0, -1, 0, 1, -1, 0, -1
1503523887991,+0.393,+0.567,-0.236,-0.684,+0.759,-0.560,-0.157,-10.375,+3.000,-39.250,-1, -2, 1, 0, 0, 0, 1, -2
1503523888014,+0.397,+0.564,-0.241,-0.682,+0.753,-0.569,-0.150,-14.062,-1.500,-41.438,-1, -3, -1, -5, -2, -4, -2, -1
1503523888030,+0.401,+0.560,-0.247,-0.681,+0.754,-0.546,-0.178,-19.500,+2.688,-43.375,2, 7, -1, 1, -2, 1, 1, -1
1503523888050,+0.404,+0.557,-0.254,-0.680,+0.769,-0.531,-0.190,-18.562,+13.250,-42.562,-2, -4, 0, -2, 1, -1, -2, -1
1503523888080,+0.407,+0.556,-0.259,-0.677,+0.889,-0.651,-0.190,-7.188,+12.062,-42.938,0, -1, -1, 0, -1, -3, -2, -2
1503523888089,+0.409,+0.557,-0.269,-0.671,+1.034,-0.673,-0.189,+1.000,+39.875,-53.312,6, 5, -1, -2, -2, -1, 0, 1
1503523888111,+0.412,+0.555,-0.277,-0.668,+0.837,-0.500,-0.187,-13.500,+23.438,-50.438,-5, -6, 0, 1, 1, 1, -1, -1
1503523888126,+0.416,+0.549,-0.282,-0.668,+0.732,-0.479,-0.197,-22.562,-9.312,-43.375,-2, 2, 0, -3, -1, -3, 0, 1
1503523888149,+0.421,+0.545,-0.287,-0.666,+0.802,-0.479,-0.186,-14.750,-0.062,-47.250,1, -1, -2, -3, -2, -1, -1, -2
1503523888172,+0.423,+0.544,-0.294,-0.663,+0.856,-0.524,-0.158,-11.750,+19.375,-43.500,2, 1, -1, 0, -1, -2, -1, -1
1503523888186,+0.423,+0.542,-0.302,-0.661,+0.891,-0.506,-0.152,-18.188,+28.500,-35.625,7, 1, 2, 1, 1, -2, -1, 1
1503523888208,+0.423,+0.539,-0.310,-0.658,+0.938,-0.431,-0.164,-24.125,+26.125,-38.188,-7, 2, -1, 3, 2, 0, 0, -1
1503523888230,+0.426,+0.536,-0.318,-0.656,+0.907,-0.345,-0.182,-14.688,+16.750,-40.125,0, 15, 2, 10, -4, 1, -1, 1
1503523888246,+0.430,+0.534,-0.322,-0.653,+0.873,-0.382,-0.195,-4.125,+8.812,-38.688,3, -2, -2, -7, -13, 0, -2, -3
1503523888268,+0.431,+0.533,-0.328,-0.650,+0.940,-0.419,-0.195,-6.250,+16.875,-32.562,8, -4, 0, -2, 2, 0, -3, 0
1503523888297,+0.432,+0.532,-0.334,-0.647,+0.963,-0.372,-0.168,-6.375,+24.438,-28.062,-10, -6, 0, 0, 0, 0, 2, -1
1503523888307,+0.433,+0.531,-0.339,-0.644,+0.974,-0.355,-0.175,-2.062,+18.812,-25.062,-2, -5, 0, 9, -9, 1, -1, 0
1503523888329,+0.435,+0.530,-0.342,-0.642,+0.934,-0.343,-0.187,-0.250,+10.938,-23.500,-1, 1, -4, -6, 3, -3, -1, 0
1503523888351,+0.437,+0.529,-0.346,-0.640,+0.933,-0.352,-0.164,+0.562,+8.500,-22.375,-6, -5, 1, -4, 3, 0, 1, 1
1503523888366,+0.438,+0.529,-0.349,-0.638,+0.955,-0.349,-0.147,+2.188,+12.438,-17.438,13, -1, 0, -8, 15, 1, 2, -4
1503523888388,+0.438,+0.530,-0.352,-0.635,+0.990,-0.353,-0.147,+4.812,+16.188,-13.250,-8, -6, -3, 1, -5, -1, 0, -1
1503523888411,+0.439,+0.530,-0.354,-0.633,+0.984,-0.345,-0.128,+4.125,+8.188,-12.000,-13, -6, -2, -6, -3, -2, -3, 0
1503523888426,+0.441,+0.530,-0.355,-0.631,+0.939,-0.336,-0.127,+5.500,+0.688,-14.000,1, 8, -1, 0, -1, 2, 1, 1
1503523888447,+0.443,+0.530,-0.356,-0.630,+0.888,-0.333,-0.143,+6.625,+3.312,-15.688,9, 14, 1, 3, -5, -3, -4, 1
1503523888470,+0.444,+0.530,-0.358,-0.627,+0.900,-0.341,-0.124,+6.938,+5.562,-15.625,-8, -5, -2, -1, 6, 1, 2, -4
1503523888486,+0.445,+0.531,-0.360,-0.625,+0.958,-0.357,-0.112,+5.750,+8.875,-15.750,2, -1, -3, -11, -1, 1, 3, 1
1503523888510,+0.446,+0.531,-0.362,-0.623,+0.978,-0.359,-0.110,+5.750,+7.938,-15.812,0, 0, -7, -3, -7, -1, -1, 0
1503523888530,+0.448,+0.531,-0.363,-0.621,+0.960,-0.358,-0.088,+5.000,+2.750,-16.188,-2, -3, 0, 0, -2, -1, -2, 3
1503523888545,+0.449,+0.531,-0.364,-0.619,+0.940,-0.340,-0.087,+2.938,-0.750,-16.375,3, 4, -5, -7, -2, -1, 2, -2
1503523888567,+0.451,+0.530,-0.366,-0.618,+0.919,-0.334,-0.096,+1.000,+2.375,-17.312,10, 2, 3, 3, -2, 0, 0, 3
1503523888590,+0.452,+0.530,-0.368,-0.616,+0.960,-0.335,-0.100,-1.500,+4.312,-16.688,1, 3, -1, -2, 1, -3, -2, -2
1503523888605,+0.453,+0.529,-0.370,-0.615,+0.995,-0.325,-0.101,-3.500,+2.562,-15.500,-7, -2, 0, 6, 13, 1, -3, -3
1503523888627,+0.454,+0.527,-0.372,-0.614,+0.994,-0.324,-0.095,-4.062,-0.625,-18.688,-5, -3, 2, 6, -12, -2, -2, -3
1503523888650,+0.457,+0.525,-0.374,-0.613,+0.985,-0.317,-0.098,-3.188,-9.750,-19.938,7, 3, -3, 2, 0, -3, -1, -1
1503523888665,+0.459,+0.523,-0.374,-0.613,+0.970,-0.301,-0.119,-4.312,-12.875,-18.125,-7, -1, 1, -5, 2, 0, 4, 1
1503523888687,+0.462,+0.520,-0.375,-0.613,+0.969,-0.284,-0.094,-3.000,-12.812,-15.500,28, 16, 0, -1, -3, -3, -4, 1
1503523888713,+0.465,+0.518,-0.375,-0.613,+1.001,-0.296,-0.095,-2.562,-19.500,-16.438,-9, -13, -4, 3, 6, -1, -1, -4
1503523888725,+0.468,+0.514,-0.375,-0.613,+0.984,-0.287,-0.086,-7.188,-24.875,-18.000,-7, -1, 2, 4, 13, 0, 0, -1
1503523888749,+0.471,+0.511,-0.375,-0.614,+0.929,-0.277,-0.124,-8.938,-24.000,-18.375,0, -1, 2, -9, -6, 0, 3, 2
1503523888770,+0.473,+0.508,-0.376,-0.614,+0.914,-0.252,-0.160,-10.000,-10.438,-13.438,3, 0, -7, -5, -6, -3, -4, -13
1503523888786,+0.474,+0.505,-0.377,-0.615,+0.932,-0.246,-0.189,-9.500,-4.625,-12.250,13, 1, 1, -2, -2, 1, -4, -3
1503523888807,+0.476,+0.502,-0.378,-0.615,+0.941,-0.248,-0.157,-10.938,-10.562,-15.000,-20, -8, -1, -1, -1, -2, 3, 0
1503523888830,+0.477,+0.499,-0.379,-0.616,+0.976,-0.261,-0.159,-13.250,-11.938,-13.750,7, 10, 1, -2, -6, -1, -2, 3
1503523888849,+0.479,+0.496,-0.380,-0.616,+0.976,-0.240,-0.165,-9.562,-10.250,-14.562,-1, 5, -3, -2, -3, -1, 2, -1
1503523888867,+0.481,+0.494,-0.382,-0.616,+0.905,-0.211,-0.208,-6.250,-3.562,-15.938,-11, -8, -1, -3, -1, -3, 5, 3
1503523890729,+0.429,+0.515,-0.164,-0.724,+0.690,-0.613,-0.346,+45.562,-12.938,+17.875,5, 1, 0, -2, -1, -3, -2, -1
1503523890750,+0.429,+0.520,-0.158,-0.721,+0.696,-0.625,-0.346,+43.188,-11.750,+17.062,-7, 0, -4, -2, -2, 0, -5, -51
1503523890772,+0.429,+0.525,-0.152,-0.719,+0.692,-0.637,-0.333,+42.438,-11.625,+16.000,5, 13, 0, 0, 0, -1, 1, 17
1503523890788,+0.429,+0.530,-0.147,-0.717,+0.680,-0.639,-0.319,+40.875,-11.500,+14.125,26, 10, -12, -3, 0, -2, -1, 5
1503523890810,+0.429,+0.535,-0.141,-0.714,+0.679,-0.660,-0.306,+39.312,-10.562,+14.062,-1, 14, 14, 0, 1, -1, -1, 6
1503523890833,+0.428,+0.539,-0.136,-0.712,+0.679,-0.670,-0.304,+36.438,-8.312,+14.375,2, -1, -6, 0, -2, -1, 0, -9
1503523890855,+0.428,+0.544,-0.132,-0.710,+0.690,-0.676,-0.297,+34.875,-6.062,+14.625,-9, -4, 0, 1, 1, 0, 0, 3
1503523890877,+0.427,+0.548,-0.127,-0.708,+0.668,-0.667,-0.303,+34.312,-5.750,+13.938,11, -20, -8, 0, -1, 0, -2, 5
1503523890892,+0.427,+0.552,-0.123,-0.706,+0.685,-0.680,-0.296,+33.000,-9.125,+14.562,-6, 2, -1, 1, 0, 1, -3, -23
1503523890908,+0.427,+0.555,-0.118,-0.704,+0.675,-0.688,-0.281,+30.500,-9.250,+13.875,-5, 0, 1, -5, -4, -2, -2, 3
1503523890930,+0.426,+0.559,-0.114,-0.702,+0.663,-0.694,-0.284,+30.438,-6.375,+14.312,5, 2, -1, -3, 0, -1, 2, 25
1503523890952,+0.426,+0.562,-0.110,-0.700,+0.668,-0.706,-0.290,+28.500,-5.625,+14.312,-4, -1, 2, 4, 1, 2, 6, 33
1503523890969,+0.425,+0.565,-0.106,-0.699,+0.651,-0.686,-0.291,+27.438,-5.688,+14.312,2, 5, 3, -3, -1, 0, 1, -4
1503523890998,+0.424,+0.568,-0.102,-0.697,+0.647,-0.704,-0.286,+27.500,-4.938,+14.625,12, -3, 2, -2, -2, -3, -1, 10
1503523891012,+0.423,+0.572,-0.099,-0.696,+0.659,-0.716,-0.268,+27.562,-2.188,+15.875,-14, -2, 3, -1, -3, -1, -7, -17
1503523891028,+0.422,+0.575,-0.095,-0.694,+0.673,-0.722,-0.260,+26.750,-4.875,+14.750,-4, -10, -6, 0, 0, -3, -5, -66
1503523891050,+0.421,+0.578,-0.091,-0.693,+0.635,-0.736,-0.258,+25.562,-5.500,+15.688,13, 17, -6, -1, 0, 1, 5, 10
1503523891072,+0.420,+0.581,-0.088,-0.692,+0.625,-0.710,-0.258,+24.625,-3.125,+15.562,-11, 0, -10, -4, -3, -1, 1, 7
1503523891089,+0.418,+0.584,-0.084,-0.691,+0.624,-0.755,-0.231,+22.750,-1.625,+16.375,-2, -10, 1, 2, 3, 0, 0, 12
1503523891110,+0.417,+0.587,-0.081,-0.689,+0.621,-0.753,-0.232,+21.750,+1.375,+14.750,-8, -10, -2, -1, 0, 0, -2, -12
1503523891132,+0.415,+0.590,-0.079,-0.688,+0.641,-0.764,-0.213,+19.250,-1.375,+14.188,10, -4, -2, -3, -1, 0, -2, 19
1503523891148,+0.414,+0.592,-0.076,-0.687,+0.631,-0.759,-0.223,+16.750,-3.812,+13.000,-6, -2, -8, -2, -1, 0, -2, 0
1503523891170,+0.413,+0.594,-0.073,-0.687,+0.600,-0.757,-0.215,+13.438,-1.188,+12.875,-11, -4, -5, 0, -1, 1, 2, 14
1503523891195,+0.411,+0.595,-0.072,-0.687,+0.592,-0.765,-0.210,+10.625,+2.438,+12.812,5, 4, 2, -1, 1, 1, 2, 11
1503523891208,+0.409,+0.597,-0.071,-0.686,+0.635,-0.766,-0.206,+9.375,+3.375,+11.688,-11, -2, -2, -2, -1, -2, 2, 3
1503523891230,+0.408,+0.598,-0.069,-0.686,+0.642,-0.776,-0.196,+7.562,+0.188,+12.438,-22, 4, 6, 0, 0, -1, 0, -5
1503523891252,+0.407,+0.599,-0.067,-0.686,+0.621,-0.777,-0.198,+6.562,-4.750,+11.500,-8, -33, -12, -4, -2, -1, -4, -9
1503523891268,+0.406,+0.600,-0.065,-0.686,+0.591,-0.764,-0.211,+5.188,-2.188,+11.812,5, -5, -7, -1, 1, -1, -1, -4
1503523891297,+0.404,+0.601,-0.064,-0.687,+0.584,-0.776,-0.208,+3.625,+3.062,+14.125,5, 3, 2, 0, -1, -1, -3, -1
1503523891312,+0.402,+0.602,-0.063,-0.688,+0.604,-0.787,-0.201,+2.062,+4.250,+13.812,11, -3, -2, 0, 0, -2, -10, -76
1503523891328,+0.400,+0.602,-0.062,-0.688,+0.616,-0.796,-0.206,+0.688,+1.250,+13.375,-6, 12, 5, 2, 1, 2, 5, 21
1503523891351,+0.398,+0.602,-0.061,-0.689,+0.600,-0.787,-0.196,-2.250,+2.188,+13.625,5, -17, -11, 1, 0, 0, 0, -10
1503523891372,+0.396,+0.602,-0.061,-0.691,+0.581,-0.790,-0.205,-4.500,+5.125,+15.750,-1, 10, -2, -4, -3, -3, -3, -14
1503523891388,+0.393,+0.602,-0.060,-0.692,+0.587,-0.798,-0.193,-6.188,+5.500,+16.125,12, -4, -1, 0, 1, 2, 2, 23
1503523891410,+0.391,+0.602,-0.060,-0.694,+0.598,-0.794,-0.187,-8.000,+2.500,+14.938,4, 33, 24, 2, -1, -3, -3, 7
1503523891432,+0.388,+0.602,-0.059,-0.696,+0.588,-0.807,-0.205,-9.938,+3.000,+16.125,-6, -20, -16, -1, 0, 0, 2, -8
1503523891449,+0.385,+0.601,-0.059,-0.698,+0.568,-0.791,-0.207,-11.875,+7.688,+16.875,2, -9, -2, -2, 0, -1, 0, 2
1503523891470,+0.382,+0.600,-0.060,-0.700,+0.560,-0.797,-0.210,-13.375,+11.438,+18.500,-9, 3, 3, 1, 1, 0, 3, 21
1503523891492,+0.378,+0.600,-0.061,-0.703,+0.580,-0.805,-0.213,-14.250,+12.500,+18.375,15, -12, -3, -3, -2, -1, -4, -40
1503523891509,+0.375,+0.599,-0.061,-0.705,+0.596,-0.810,-0.204,-15.625,+8.062,+18.000,-4, 13, 4, 1, -2, 1, 1, 11
1503523891532,+0.372,+0.597,-0.061,-0.708,+0.566,-0.821,-0.205,-19.125,+6.250,+18.562,-2, -5, 1, -3, -1, -1, 0, -9
1503523891552,+0.368,+0.596,-0.062,-0.711,+0.546,-0.806,-0.204,-22.188,+10.250,+19.312,-12, -11, 0, 1, 1, -1, -3, -12
1503523891569,+0.364,+0.594,-0.063,-0.715,+0.530,-0.808,-0.229,-25.312,+14.812,+20.812,1, -3, -5, 0, 1, -1, 1, 4
1503523891591,+0.359,+0.592,-0.065,-0.719,+0.512,-0.812,-0.224,-27.312,+19.625,+19.375,-6, 3, 2, -3, -1, 0, -2, -3
1503523891613,+0.353,+0.590,-0.068,-0.722,+0.538,-0.848,-0.213,-30.125,+22.250,+20.562,-3, 7, -2, -1, -1, -1, -3, -9
1503523891632,+0.348,+0.588,-0.070,-0.727,+0.554,-0.838,-0.229,-33.438,+21.375,+20.438,-5, -4, -4, -2, -4, -1, -1, 7
1503523891650,+0.343,+0.585,-0.073,-0.731,+0.551,-0.814,-0.233,-35.688,+21.125,+18.438,-1, 0, 0, -1, -1, -4, 2, 19
1503523891673,+0.339,+0.582,-0.076,-0.735,+0.519,-0.799,-0.260,-37.562,+20.375,+18.812,0, 6, 0, 2, 3, 1, -1, 12
1503523891689,+0.333,+0.579,-0.080,-0.740,+0.474,-0.784,-0.298,-34.438,+28.375,+18.688,-2, 12, -7, -2, -3, -1, -2, -8
1503523891710,+0.326,+0.577,-0.084,-0.744,+0.463,-0.785,-0.304,-29.562,+36.125,+17.875,2, -21, -5, -4, -2, -1, -1, 3
1503523891734,+0.320,+0.576,-0.089,-0.747,+0.485,-0.810,-0.289,-26.188,+41.438,+15.125,2, 15, 9, 0, 0, -2, -3, -3
1503523891748,+0.314,+0.576,-0.094,-0.749,+0.516,-0.821,-0.278,-24.125,+41.375,+13.562,2, -5, -5, 0, -1, -3, -3, -7
1503523891770,+0.308,+0.575,-0.099,-0.752,+0.512,-0.811,-0.281,-22.625,+37.688,+11.688,-2, -6, -4, -2, -1, 0, -2, -5
1503523891792,+0.303,+0.574,-0.104,-0.754,+0.489,-0.812,-0.271,-23.688,+37.062,+8.312,-3, -20, -9, -3, -1, 2, 2, 10
1503523891808,+0.297,+0.573,-0.109,-0.756,+0.488,-0.816,-0.259,-22.000,+41.312,+8.062,2, 0, -1, 1, -2, 0, 0, 13
1503523891832,+0.291,+0.573,-0.116,-0.757,+0.503,-0.797,-0.272,-19.750,+49.438,+2.875,1, -3, -2, -1, -2, 0, 1, 19
1503523891852,+0.286,+0.574,-0.123,-0.758,+0.493,-0.788,-0.259,-16.125,+50.812,-0.438,-6, -8, -3, 2, 0, -1, 1, 11
1503523891869,+0.281,+0.574,-0.131,-0.758,+0.504,-0.796,-0.267,-13.500,+49.812,-5.562,-3, 3, -4, 1, -1, 0, -1, -4
1503523891890,+0.277,+0.574,-0.138,-0.758,+0.504,-0.797,-0.235,-16.438,+46.500,-12.875,-3, -2, -5, -1, -3, -1, 0, -7
1503523891912,+0.275,+0.573,-0.146,-0.758,+0.525,-0.829,-0.217,-19.562,+43.500,-17.750,0, 1, -2, 0, 1, -1, -1, -10
1503523891928,+0.271,+0.573,-0.155,-0.758,+0.569,-0.840,-0.193,-21.750,+46.812,-19.562,0, -3, -1, 1, 1, -2, -2, -7
1503523891950,+0.268,+0.572,-0.165,-0.757,+0.588,-0.815,-0.206,-22.875,+49.875,-20.125,-1, 1, 2, -3, -2, -2, -1, -5
1503523891972,+0.265,+0.571,-0.175,-0.757,+0.612,-0.789,-0.232,-24.250,+54.812,-21.438,-1, -2, -7, -2, -2, 0, -1, -2
1503523891988,+0.263,+0.569,-0.185,-0.757,+0.627,-0.756,-0.213,-24.750,+47.250,-23.688,-2, 0, -1, 0, 0, -2, -2, -2
1503523892010,+0.263,+0.567,-0.193,-0.756,+0.649,-0.751,-0.227,-22.250,+30.750,-29.562,-4, -4, -4, 0, 0, 0, 1, -1
1503523892034,+0.265,+0.564,-0.200,-0.756,+0.657,-0.779,-0.218,-22.125,+19.875,-32.938,-1, -2, 1, 2, -1, 0, -1, -2
1503523892048,+0.266,+0.561,-0.207,-0.756,+0.646,-0.770,-0.218,-24.250,+18.875,-34.062,2, 1, 1, -1, -2, 0, -1, 1
1503523892076,+0.267,+0.557,-0.214,-0.756,+0.649,-0.735,-0.220,-24.938,+21.625,-33.125,-1, 1, 0, -2, 0, -2, -2, -2
1503523892092,+0.269,+0.554,-0.221,-0.756,+0.679,-0.717,-0.222,-22.750,+19.938,-30.750,1, 1, 1, 0, -1, 0, -1, -1
1503523892115,+0.270,+0.552,-0.227,-0.756,+0.683,-0.713,-0.221,-19.875,+13.375,-27.688,-2, -1, -4, -4, -2, 0, 1, -1
1503523892138,+0.272,+0.548,-0.232,-0.756,+0.660,-0.708,-0.224,-20.812,+11.562,-30.125,-2, -3, -3, -3, 0, 0, -2, -2
1503523892159,+0.274,+0.545,-0.238,-0.756,+0.656,-0.694,-0.229,-21.875,+15.188,-30.188,-1, -2, -1, 1, 0, 1, 2, 0
1503523892169,+0.275,+0.543,-0.244,-0.755,+0.641,-0.686,-0.208,-18.500,+17.938,-30.938,3, 0, -2, 0, -2, -1, 0, -1
1503523892190,+0.277,+0.540,-0.250,-0.755,+0.675,-0.692,-0.205,-20.438,+14.938,-35.375,-1, -4, -1, 1, -1, -1, -1, 0
1503523892212,+0.279,+0.537,-0.257,-0.754,+0.706,-0.688,-0.187,-21.188,+16.312,-37.375,-3, -2, 0, 0, -1, -2, -2, -3
1503523892229,+0.281,+0.533,-0.264,-0.753,+0.717,-0.675,-0.232,-22.062,+21.188,-37.125,-1, -3, 0, -1, -2, -2, 0, -1
1503523892250,+0.281,+0.530,-0.271,-0.753,+0.710,-0.648,-0.253,-24.375,+25.688,-32.938,-1, -4, -1, 1, 0, 1, 0, 0
1503523892273,+0.282,+0.526,-0.278,-0.752,+0.742,-0.632,-0.241,-24.500,+21.688,-32.250,0, -9, -15, -3, 0, 2, 0, -2
1503523892288,+0.284,+0.522,-0.284,-0.752,+0.777,-0.617,-0.235,-23.000,+12.125,-33.938,-2, -4, -1, -2, -1, -2, -2, 0
1503523892311,+0.287,+0.518,-0.290,-0.752,+0.773,-0.614,-0.235,-21.625,+9.750,-35.062,3, 0, -4, -2, -2, -2, -3, -3
1503523892334,+0.289,+0.514,-0.296,-0.751,+0.768,-0.597,-0.219,-21.875,+11.750,-34.750,2, -4, -3, -4, -3, -1, 0, 1
1503523892348,+0.291,+0.511,-0.301,-0.751,+0.783,-0.608,-0.208,-22.000,+13.312,-30.688,0, 4, 2, 0, 0, -1, -1, -2
1503523892371,+0.292,+0.508,-0.307,-0.750,+0.815,-0.600,-0.226,-22.562,+14.125,-26.750,-1, 3, 6, 0, 0, 0, -2, -4
1503523892393,+0.293,+0.504,-0.312,-0.750,+0.837,-0.578,-0.258,-22.375,+13.375,-24.062,-3, -2, 3, 1, -3, -1, 1, 0
1503523892409,+0.294,+0.500,-0.317,-0.750,+0.825,-0.546,-0.257,-21.062,+8.625,-22.188,-1, 15, 2, 2, 2, -1, 0, 0
1503523892431,+0.295,+0.497,-0.320,-0.751,+0.809,-0.540,-0.262,-17.688,+1.000,-20.188,1, -3, -2, -2, -1, 0, -1, -1
1503523892453,+0.297,+0.494,-0.322,-0.751,+0.809,-0.543,-0.252,-15.438,+0.438,-19.562,-3, -1, -2, 1, -3, 0, 0, -2
1503523892471,+0.298,+0.491,-0.325,-0.751,+0.805,-0.553,-0.248,-15.438,+1.688,-18.750,0, -4, -2, -2, 1, -2, -1, -4
1503523892491,+0.299,+0.488,-0.328,-0.751,+0.819,-0.542,-0.259,-15.938,+5.375,-17.250,-5, 16, 29, 8, 2, 0, -2, 0
1503523892513,+0.300,+0.486,-0.331,-0.751,+0.829,-0.518,-0.258,-13.250,+5.562,-16.625,-1, -11, -17, -5, -1, -1, -1, 3
1503523892528,+0.301,+0.483,-0.334,-0.751,+0.830,-0.526,-0.265,-12.312,+2.875,-17.750,-2, -3, 0, -2, -5, -2, 2, -2
1503523892559,+0.303,+0.481,-0.335,-0.751,+0.821,-0.525,-0.266,-10.562,-1.562,-16.375,0, -2, -4, -1, 5, 0, -1, 2
1503523892573,+0.304,+0.479,-0.337,-0.751,+0.810,-0.528,-0.254,-9.938,-2.312,-16.688,-1, -2, -2, -4, -4, -1, -1, -3
1503523892589,+0.306,+0.477,-0.339,-0.751,+0.803,-0.521,-0.250,-9.812,+1.375,-18.062,0, -9, -8, -3, -1, -1, 1, 0
1503523892614,+0.307,+0.474,-0.341,-0.751,+0.811,-0.511,-0.248,-10.188,+1.500,-18.625,2, 5, -6, -2, -3, -1, -1, 1
1503523892633,+0.309,+0.472,-0.344,-0.751,+0.822,-0.512,-0.254,-10.125,+1.438,-18.750,-2, -4, 4, -1, 0, -3, -2, 0
1503523892649,+0.310,+0.470,-0.346,-0.750,+0.830,-0.514,-0.263,-10.750,+2.312,-17.062,-2, -4, 2, -1, -4, 0, -1, 1
1503523892674,+0.311,+0.468,-0.348,-0.750,+0.833,-0.510,-0.276,-11.000,+5.375,-15.562,-1, 0, -8, -3, -5, -1, -1, -1
1503523892694,+0.311,+0.466,-0.351,-0.750,+0.835,-0.483,-0.285,-10.125,+5.438,-14.312,0, 1, 2, -1, 1, -1, -1, -1
1503523892716,+0.312,+0.465,-0.353,-0.750,+0.832,-0.481,-0.283,-7.125,+5.438,-12.875,1, 12, 5, 1, 0, -2, -9, -1
1503523892731,+0.313,+0.464,-0.354,-0.749,+0.845,-0.482,-0.264,-3.812,+4.812,-11.000,0, -1, -8, -3, -2, -2, 0, -1
1503523892753,+0.313,+0.463,-0.356,-0.749,+0.861,-0.494,-0.259,-4.438,+5.812,-8.938,1, -8, -10, -4, 0, 1, 0, -1
1503523892769,+0.313,+0.463,-0.358,-0.748,+0.868,-0.483,-0.257,-5.500,+5.125,-8.312,6, 19, 10, 0, -1, -1, -1, 1
1503523892791,+0.314,+0.461,-0.359,-0.748,+0.864,-0.477,-0.255,-6.562,+2.625,-9.625,-7, -10, -8, -3, -2, -2, -1, -2
1503523892814,+0.314,+0.460,-0.361,-0.748,+0.863,-0.473,-0.254,-8.438,+2.750,-12.312,0, -3, -6, 0, -2, -1, 0, 0
1503523892829,+0.316,+0.458,-0.363,-0.748,+0.841,-0.462,-0.275,-8.812,-2.188,-15.000,2, 2, -2, 2, 1, 1, -3, -3
1503523892851,+0.317,+0.456,-0.364,-0.748,+0.842,-0.476,-0.281,-7.812,-1.688,-15.500,0, 4, 1, -2, -1, -2, 0, 3
1503523892875,+0.318,+0.453,-0.365,-0.748,+0.852,-0.473,-0.251,-10.812,-4.250,-14.062,-8, -5, -8, -1, -2, -2, -2, -6
1503523892889,+0.319,+0.451,-0.367,-0.748,+0.880,-0.467,-0.241,-12.375,-2.125,-11.750,10, 11, 19, 4, 1, 0, 2, -16
1503523892911,+0.319,+0.450,-0.368,-0.748,+0.867,-0.444,-0.241,-12.000,+0.938,-11.000,-3, -2, 8, 3, 1, 0, 0, 14
1503523892933,+0.320,+0.448,-0.370,-0.749,+0.855,-0.451,-0.249,-11.500,-0.312,-11.062,-9, -8, -1, -2, -1, 0, -2, 0
1503523892949,+0.321,+0.445,-0.371,-0.749,+0.874,-0.441,-0.260,-11.062,-5.688,-11.188,1, -15, -24, -5, -4, -2, -3, -1
1503523892975,+0.322,+0.443,-0.372,-0.750,+0.861,-0.437,-0.264,-13.188,-8.000,-13.250,4, -3, 4, 1, 0, -1, 2, -11
1503523892993,+0.323,+0.440,-0.373,-0.751,+0.849,-0.427,-0.281,-15.125,-4.625,-12.250,-5, 3, 3, 0, 0, 1, 0, 12
1503523893016,+0.323,+0.437,-0.374,-0.751,+0.858,-0.405,-0.282,-14.438,-1.312,-11.312,-9, 23, 12, -2, -2, -2, -7, -11
1503523893035,+0.324,+0.435,-0.376,-0.752,+0.878,-0.399,-0.297,-12.125,-2.438,-9.688,4, -7, -9, 0, 0, -2, -1, 4
1503523893053,+0.325,+0.433,-0.377,-0.752,+0.887,-0.395,-0.281,-8.812,-4.375,-8.500,5, -3, -7, 1, 1, 1, -3, -18
1503523893076,+0.326,+0.431,-0.377,-0.752,+0.870,-0.387,-0.291,-6.188,-1.938,-8.938,2, -1, 7, -1, -2, -1, -7, 13
1503523893095,+0.327,+0.430,-0.378,-0.752,+0.855,-0.377,-0.299,-3.062,-3.438,-7.875,-4, -1, -5, 0, 0, -2, 3, 7
1503523893114,+0.328,+0.429,-0.378,-0.752,+0.869,-0.407,-0.282,-0.812,-1.688,-8.250,-1, -8, -1, -1, 1, 1, -5, 2
1503523893129,+0.329,+0.429,-0.379,-0.751,+0.871,-0.397,-0.286,-0.500,-1.125,-8.500,22, 0, -3, -3, -3, -3, 8, 68
1503523893151,+0.330,+0.428,-0.380,-0.751,+0.857,-0.404,-0.313,-2.188,+1.062,-10.688,-45, -17, -8, -2, -1, -2, -4, 0
1503523893175,+0.331,+0.427,-0.381,-0.751,+0.861,-0.408,-0.321,-1.250,+4.438,-9.688,0, -3, -1, -2, -2, -1, -12, -30
1503523893189,+0.331,+0.427,-0.381,-0.750,+0.885,-0.438,-0.326,+0.750,+1.688,-6.375,1, 0, 0, 0, -4, -2, -1, -13
1503523893211,+0.331,+0.426,-0.381,-0.751,+0.877,-0.457,-0.257,-7.188,-7.750,-5.125,-3, 5, 7, 1, 0, -1, 1, -46
1503523893233,+0.331,+0.425,-0.382,-0.751,+0.886,-0.418,-0.205,-13.375,-4.125,-5.312,-6, -7, 0, -2, -2, -1, 2, -1
1503523893251,+0.331,+0.422,-0.384,-0.751,+0.878,-0.391,-0.219,-16.750,-0.125,-9.750,-22, 2, -5, -1, 1, 3, -1, -8
1503523893271,+0.331,+0.420,-0.386,-0.752,+0.867,-0.386,-0.250,-17.375,-1.062,-14.938,-8, 2, -3, 0, 0, -3, 5, 2
1503523893293,+0.331,+0.416,-0.388,-0.753,+0.857,-0.399,-0.276,-22.562,-2.750,-16.125,4, -3, -2, -2, -2, 0, 5, 1
1503523893320,+0.332,+0.412,-0.391,-0.753,+0.857,-0.388,-0.281,-25.750,-1.938,-18.000,17, -2, -2, 1, 2, -1, -5, 6
1503523893331,+0.332,+0.407,-0.393,-0.755,+0.875,-0.388,-0.292,-28.688,-2.125,-19.250,-5, 9, 14, 2, -1, -1, -3, 7
1503523893353,+0.332,+0.402,-0.397,-0.755,+0.928,-0.374,-0.285,-32.500,+1.125,-17.000,4, -4, -2, 0, 0, 0, -1, 1
1503523893379,+0.331,+0.398,-0.401,-0.756,+0.888,-0.322,-0.303,-31.750,+11.438,-13.875,9, 4, -3, -2, -1, -1, -5, -15
1503523893391,+0.330,+0.394,-0.405,-0.756,+0.882,-0.296,-0.322,-27.875,+12.562,-12.000,-21, -27, -14, -4, -4, -5, -3, -12
1503523893415,+0.328,+0.390,-0.409,-0.757,+0.919,-0.308,-0.336,-24.875,+10.000,-8.688,0, 7, 0, 1, -1, 0, -5, 1
1503523893444,+0.328,+0.387,-0.412,-0.757,+0.924,-0.293,-0.350,-21.625,+8.438,-8.688,-6, -16, -21, -5, -1, 2, 3, -2
1503523893453,+0.328,+0.383,-0.413,-0.758,+0.943,-0.298,-0.374,-18.250,-2.625,-9.812,19, 12, 16, 1, 1, -4, -4, -3
1503523893487,+0.328,+0.380,-0.413,-0.760,+0.917,-0.302,-0.343,-15.750,-8.125,-8.000,-19, -11, 1, -2, 1, -1, 0, 17
1503523893495,+0.329,+0.377,-0.414,-0.760,+0.881,-0.294,-0.316,-13.562,-4.750,-6.250,35, 19, 11, -1, 0, 1, 3, 0
1503523893512,+0.328,+0.376,-0.415,-0.761,+0.891,-0.297,-0.312,-10.250,+2.375,-3.188,-21, -7, -9, -2, -1, 0, -5, -3
1503523893533,+0.327,+0.375,-0.416,-0.761,+0.890,-0.306,-0.327,-8.125,+4.875,-2.625,0, -4, 0, 2, 1, 8, -5, 16
1503523893552,+0.327,+0.374,-0.418,-0.761,+0.906,-0.292,-0.315,-7.750,+3.875,-2.438,20, 6, -2, -2, -3, -46, -19, -29
1503523893571,+0.326,+0.373,-0.419,-0.761,+0.898,-0.284,-0.300,-7.938,+4.312,-2.250,10, -5, -3, -1, -2, 16, 45, 11
1503523893593,+0.326,+0.372,-0.420,-0.761,+0.904,-0.280,-0.294,-6.125,+4.000,-2.625,7, -21, -2, 0, -2, 2, -9, -3
1503523893615,+0.326,+0.372,-0.421,-0.760,+0.909,-0.281,-0.295,-2.562,+2.500,-3.625,0, 12, 0, 0, -1, 10, 14, 4
1503523893631,+0.326,+0.371,-0.422,-0.760,+0.910,-0.294,-0.312,-2.500,+1.188,-4.750,6, -5, -2, -3, -2, -13, -22, 15
1503523893654,+0.326,+0.371,-0.423,-0.760,+0.887,-0.290,-0.310,-2.812,+4.812,-5.812,15, 1, -1, 1, 4, 23, 7, 0
1503523893677,+0.326,+0.370,-0.424,-0.759,+0.889,-0.275,-0.319,-2.250,+5.500,-5.062,-25, -12, -1, -1, -1, 4, 46, -26
1503523893690,+0.326,+0.370,-0.426,-0.758,+0.900,-0.272,-0.315,-0.688,+8.812,-4.312,32, 4, -1, 1, 0, -12, -8, -10
1503523893714,+0.326,+0.371,-0.428,-0.757,+0.910,-0.270,-0.327,+1.250,+11.438,-2.438,4, 3, 2, -1, 0, -3, -19, -2
1503523893735,+0.326,+0.372,-0.429,-0.756,+0.912,-0.269,-0.314,+3.438,+11.438,-2.750,-28, 2, -4, -1, -2, 3, -10, -18
1503523893753,+0.326,+0.372,-0.431,-0.755,+0.916,-0.269,-0.313,+6.062,+11.000,-4.188,-9, -5, 1, 1, 3, 1, -1, 34
1503523893772,+0.327,+0.374,-0.431,-0.753,+0.895,-0.287,-0.311,+8.312,+8.938,-5.250,20, 0, -4, -3, 0, 12, -29, 27
1503523893794,+0.327,+0.375,-0.432,-0.752,+0.863,-0.299,-0.289,+8.750,+11.250,-5.812,-29, 0, -2, -3, -1, 0, 8, -16
1503523893810,+0.327,+0.377,-0.435,-0.750,+0.876,-0.298,-0.263,+6.188,+16.125,-6.750,-5, -1, 0, 1, 0, -10, 7, -5
1503523893832,+0.327,+0.378,-0.437,-0.748,+0.913,-0.309,-0.250,+1.750,+17.375,-9.125,13, 2, 2, 1, -2, 1, -7, -26
1503523893856,+0.327,+0.378,-0.440,-0.746,+0.933,-0.306,-0.250,-0.438,+15.875,-12.062,7, 4, -1, -1, -2, -4, 12, -12
1503523893870,+0.328,+0.378,-0.443,-0.744,+0.915,-0.276,-0.245,+0.062,+14.750,-14.062,-19, 1, 3, 0, 1, 5, 8, 13
1503523893892,+0.328,+0.378,-0.446,-0.742,+0.902,-0.277,-0.257,-0.250,+17.812,-14.375,30, 4, 0, -2, 0, -10, -14, 28
1503523893915,+0.328,+0.378,-0.450,-0.740,+0.916,-0.267,-0.275,-2.250,+21.812,-12.688,9, 0, -1, -2, -1, -8, -8, -40
1503523893929,+0.328,+0.378,-0.454,-0.737,+0.964,-0.274,-0.241,-1.000,+20.938,-12.688,-3, 11, -2, -2, -5, -9, 3, 15
1503523895632,+0.388,+0.427,-0.360,-0.734,+0.870,-0.348,-0.335,+69.312,+2.188,+26.188,20, 19, 9, -2, -2, -3, -7, 6
1503523895654,+0.388,+0.437,-0.353,-0.730,+0.848,-0.375,-0.314,+69.625,+3.312,+26.750,-25, 15, 7, 0, 1, 1, 1, 17
1503523895670,+0.388,+0.448,-0.347,-0.727,+0.854,-0.397,-0.291,+68.750,+3.938,+31.688,0, 3, -1, 0, 2, 3, 5, 13
1503523895694,+0.387,+0.459,-0.340,-0.724,+0.868,-0.391,-0.294,+70.188,+4.312,+33.062,-10, 76, 34, 4, 1, 1, -2, -40
1503523895714,+0.387,+0.469,-0.333,-0.720,+0.865,-0.416,-0.276,+69.562,-1.188,+33.125,6, -19, -10, -4, -2, 0, 8, 37
1503523895732,+0.387,+0.480,-0.326,-0.717,+0.823,-0.435,-0.256,+69.312,-3.375,+32.750,-20, -26, -9, 0, -1, 0, 4, 15
1503523895752,+0.386,+0.490,-0.319,-0.713,+0.783,-0.447,-0.241,+67.812,+2.438,+32.062,20, 13, -1, 1, -1, -2, -2, 7
1503523895775,+0.385,+0.501,-0.312,-0.709,+0.798,-0.454,-0.238,+67.688,+8.062,+32.812,6, 34, 0, -1, -1, -3, -5, -39
1503523895790,+0.384,+0.511,-0.306,-0.705,+0.823,-0.474,-0.226,+67.438,+8.062,+32.312,-15, -27, -13, -4, 0, 0, 0, 13
1503523895812,+0.384,+0.521,-0.299,-0.701,+0.841,-0.469,-0.197,+65.938,-1.125,+30.500,-5, -6, -8, -1, 0, -3, -3, -4
1503523895835,+0.384,+0.530,-0.292,-0.697,+0.803,-0.491,-0.189,+65.812,-4.750,+28.250,9, 11, 3, 0, 0, -1, 0, -9
1503523895850,+0.384,+0.539,-0.285,-0.694,+0.757,-0.517,-0.180,+63.188,-1.875,+28.312,26, 5, 5, -1, -3, -1, -9, -32
1503523895872,+0.383,+0.547,-0.279,-0.690,+0.774,-0.532,-0.160,+58.938,+2.500,+29.062,-8, 1, -11, -1, -2, -3, -3, 13
1503523895895,+0.382,+0.556,-0.273,-0.686,+0.803,-0.523,-0.154,+57.062,+2.938,+29.188,2, -12, 2, 1, -1, 1, 1, 26
1503523895910,+0.381,+0.563,-0.267,-0.683,+0.825,-0.542,-0.138,+54.500,-3.188,+26.188,10, 5, -1, -2, -1, -1, 3, -5
1503523895932,+0.381,+0.570,-0.261,-0.679,+0.808,-0.564,-0.132,+50.062,-3.625,+25.812,28, -34, -23, -1, -1, 2, 4, 104
1503523895954,+0.381,+0.576,-0.256,-0.677,+0.792,-0.564,-0.136,+45.562,-4.938,+22.625,-5, -18, -6, -2, -1, -2, -5, 25
1503523895977,+0.381,+0.582,-0.250,-0.674,+0.790,-0.562,-0.124,+41.688,-5.500,+21.062,8, 13, 7, -1, -3, -1, 1, -9
1503523896001,+0.380,+0.587,-0.246,-0.671,+0.779,-0.573,-0.113,+39.188,-1.000,+16.938,-16, -17, 5, -1, 0, -1, 1, -65
1503523896014,+0.380,+0.592,-0.243,-0.668,+0.795,-0.594,-0.102,+37.750,+1.000,+15.750,-1, -9, 2, -2, -3, -5, -3, -6
1503523896037,+0.380,+0.596,-0.239,-0.665,+0.813,-0.606,-0.109,+33.625,-1.125,+12.812,-8, 31, 11, 2, 0, 0, -2, -17
1503523896053,+0.380,+0.600,-0.237,-0.663,+0.802,-0.601,-0.089,+28.375,+0.250,+12.500,-9, -12, -12, 1, -1, 1, -3, -47
1503523896074,+0.378,+0.604,-0.234,-0.661,+0.775,-0.607,-0.081,+22.688,+4.562,+14.875,5, -6, -1, -2, -3, -2, -5, 0
1503523896098,+0.376,+0.607,-0.233,-0.660,+0.775,-0.609,-0.061,+18.938,+8.562,+14.375,-1, -7, 2, 0, -1, 1, 6, 39
1503523896112,+0.375,+0.610,-0.232,-0.658,+0.812,-0.593,-0.069,+16.062,+5.250,+12.625,26, -14, -1, 1, 0, -3, -2, 22
1503523896137,+0.373,+0.613,-0.231,-0.657,+0.806,-0.607,-0.044,+12.250,+9.125,+13.688,-1, 11, 10, 2, 1, 1, -5, -14
1503523896157,+0.371,+0.615,-0.231,-0.656,+0.782,-0.636,-0.026,+5.125,+8.625,+11.000,5, -8, -9, -3, -4, -2, -5, -32
1503523896173,+0.367,+0.617,-0.233,-0.656,+0.735,-0.653,-0.009,-5.188,+23.062,+10.688,1, -14, -3, 2, 2, -1, -2, -17
1503523896196,+0.361,+0.619,-0.236,-0.657,+0.765,-0.683,-0.002,-12.688,+31.562,+9.875,-8, 0, -4, 0, 0, 0, -4, -66
1503523896217,+0.357,+0.619,-0.239,-0.657,+0.809,-0.642,-0.067,-12.375,+24.688,+6.750,-10, 11, 1, -3, -2, -2, 3, 4
1503523896233,+0.355,+0.617,-0.241,-0.659,+0.803,-0.635,-0.078,-18.188,+9.125,+1.188,22, 24, -11, -6, -2, -3, -1, -28
1503523896254,+0.354,+0.615,-0.243,-0.661,+0.743,-0.659,-0.055,-23.312,+3.188,-0.500,-21, -41, 2, 1, 1, -2, 3, 68
1503523896277,+0.350,+0.614,-0.245,-0.664,+0.676,-0.641,-0.068,-26.688,+17.250,+6.062,0, 49, -9, -1, 0, 2, 4, 41
1503523896293,+0.344,+0.612,-0.249,-0.667,+0.705,-0.616,-0.069,-30.438,+28.750,+10.812,-3, 35, 8, 0, 1, 3, 1, -11
1503523896314,+0.338,+0.611,-0.253,-0.670,+0.781,-0.617,-0.062,-34.000,+27.875,+12.562,-7, -30, -7, 1, -1, -1, 2, 2
1503523896338,+0.333,+0.608,-0.257,-0.673,+0.772,-0.624,-0.070,-35.625,+22.188,+13.688,-11, -17, 2, 3, -2, -2, -5, 19
1503523896353,+0.328,+0.606,-0.259,-0.677,+0.730,-0.650,-0.062,-37.750,+13.812,+15.375,-6, -1, 1, -1, 0, 0, 2, 24
1503523896374,+0.322,+0.602,-0.260,-0.682,+0.717,-0.671,-0.061,-44.250,+9.688,+16.938,-2, -8, 3, 1, -1, 1, 2, 7
1503523896399,+0.317,+0.598,-0.262,-0.688,+0.699,-0.648,-0.062,-49.562,+7.688,+18.875,-1, 63, 20, 0, -1, 0, -1, -49
1503523896413,+0.311,+0.593,-0.263,-0.694,+0.703,-0.641,-0.085,-52.812,+5.500,+20.250,8, -8, 3, 1, -1, -2, -6, -6
1503523896436,+0.306,+0.588,-0.264,-0.701,+0.679,-0.648,-0.115,-55.375,+4.062,+20.562,10, 14, 8, 0, 1, -1, -1, -20
1503523896457,+0.299,+0.582,-0.265,-0.708,+0.658,-0.642,-0.118,-58.562,+3.375,+25.562,-11, 15, 12, 0, -2, -1, 0, 13
1503523896473,+0.292,+0.577,-0.266,-0.715,+0.646,-0.630,-0.142,-59.688,+12.375,+27.250,-6, 20, -3, -3, -3, -2, -3, 1
1503523896494,+0.284,+0.572,-0.268,-0.721,+0.697,-0.606,-0.175,-55.188,+15.500,+27.875,-1, -4, -7, 1, -2, -1, 0, -11
1503523896517,+0.280,+0.566,-0.269,-0.727,+0.791,-0.624,-0.211,-47.688,-0.938,+27.500,-10, -1, 3, -1, -2, -2, -5, -36
1503523896533,+0.277,+0.560,-0.266,-0.734,+0.776,-0.627,-0.214,-45.688,-22.250,+26.500,-8, 7, 0, -1, -1, -1, -2, 18
1503523896554,+0.275,+0.554,-0.261,-0.741,+0.674,-0.630,-0.226,-40.188,-33.625,+27.000,-8, 5, -3, -2, 0, 1, 12, 95
1503523896577,+0.272,+0.549,-0.256,-0.747,+0.592,-0.660,-0.251,-36.125,-24.000,+29.312,11, 2, -3, 0, 1, 1, 15, 94
1503523896592,+0.266,+0.546,-0.253,-0.753,+0.569,-0.672,-0.256,-32.812,-8.062,+32.438,3, 1, 6, 2, 2, 2, -3, -44
1503523896614,+0.260,+0.544,-0.251,-0.757,+0.625,-0.680,-0.253,-30.375,+4.688,+31.875,19, -21, -11, -4, -2, -2, -8, -59
1503523896637,+0.255,+0.542,-0.251,-0.761,+0.687,-0.694,-0.280,-25.875,+10.938,+27.250,-12, 23, 55, 4, 2, 0, -2, -12
1503523896653,+0.251,+0.539,-0.252,-0.763,+0.750,-0.694,-0.270,-22.125,+5.188,+22.062,-17, -12, -9, 1, -1, -2, 0, 4
1503523896675,+0.249,+0.537,-0.250,-0.766,+0.767,-0.687,-0.250,-17.875,-7.000,+19.750,-3, 21, 2, -2, -3, 0, -4, -40
1503523896700,+0.247,+0.536,-0.248,-0.769,+0.724,-0.708,-0.279,-13.438,-13.562,+19.875,-5, 47, -18, -3, -4, -2, -1, 16
1503523896712,+0.246,+0.534,-0.245,-0.771,+0.692,-0.725,-0.293,-10.562,-14.000,+17.062,13, -29, -8, -3, -1, -1, -4, -24
1503523896734,+0.245,+0.533,-0.242,-0.773,+0.679,-0.727,-0.257,-7.938,-14.750,+14.938,-7, -31, -9, -3, -1, -1, -1, 23
1503523896757,+0.244,+0.532,-0.239,-0.774,+0.689,-0.721,-0.259,-5.375,-15.938,+13.188,19, 7, 5, 2, 0, -3, -1, 6
1503523896773,+0.243,+0.532,-0.237,-0.776,+0.664,-0.720,-0.261,-5.000,-10.062,+11.125,5, -12, -5, -2, -1, 0, 1, 15
1503523896795,+0.242,+0.531,-0.237,-0.777,+0.654,-0.710,-0.249,-7.062,-1.125,+11.125,9, 0, -15, -1, -1, -2, 1, 6
1503523896817,+0.239,+0.531,-0.238,-0.777,+0.671,-0.711,-0.252,-7.562,+8.438,+10.312,-8, -84, -7, 0, 0, -2, -3, -6
1503523896837,+0.237,+0.531,-0.239,-0.778,+0.681,-0.705,-0.252,-7.812,+12.375,+9.062,12, -9, -4, -1, 0, -2, 3, 41
1503523896854,+0.235,+0.531,-0.241,-0.778,+0.691,-0.701,-0.253,-7.500,+10.375,+6.188,-4, -15, -2, -1, -1, 1, 3, 36
1503523896877,+0.234,+0.530,-0.243,-0.778,+0.710,-0.696,-0.237,-9.188,+6.438,+3.812,0, 7, -2, -4, -2, -3, -2, 7
1503523896892,+0.233,+0.529,-0.244,-0.779,+0.703,-0.684,-0.238,-12.125,+2.000,+4.812,3, -26, -2, -1, -2, -1, 0, 3
1503523896914,+0.231,+0.528,-0.246,-0.780,+0.784,-0.747,-0.229,-15.125,+5.312,+5.750,2, 1, -2, -1, -2, -2, -1, 9
1503523896937,+0.232,+0.530,-0.241,-0.779,+0.637,-1.173,-0.366,+16.250,-15.188,-11.625,0, 6, 2, 1, -2, -1, -2, 29
1503523896953,+0.230,+0.532,-0.254,-0.774,+0.795,-0.618,-0.149,-1.688,+65.688,-22.000,2, 4, 1, -2, -2, -1, -1, 10
1503523896976,+0.227,+0.529,-0.257,-0.776,+0.552,-0.500,-0.299,-18.375,+18.812,+9.062,2, 3, 3, 1, 1, 0, 1, 1
1503523896997,+0.226,+0.528,-0.254,-0.778,+0.595,-0.704,-0.329,-9.938,-6.875,+10.812,-4, 16, 0, 1, -2, -2, 2, -2
1503523897014,+0.226,+0.528,-0.256,-0.778,+0.763,-0.714,-0.261,-0.125,+2.062,-1.500,-1, -1, -2, -2, -3, -1, -1, -10
1503523897043,+0.227,+0.528,-0.256,-0.778,+0.721,-0.725,-0.227,+0.312,-6.562,-2.688,-6, -5, -1, -2, 1, 0, -2, -22
1503523897057,+0.227,+0.527,-0.255,-0.778,+0.648,-0.708,-0.253,-4.875,-5.438,+0.062,3, 0, -1, 0, 1, -1, -1, 15
1503523897073,+0.226,+0.526,-0.256,-0.779,+0.623,-0.670,-0.252,-4.750,+5.500,+0.188,-6, -6, -2, -1, -1, 0, -2, -8
1503523897095,+0.225,+0.527,-0.258,-0.778,+0.656,-0.706,-0.250,+1.562,+13.312,+0.938,3, -5, -3, -1, -1, 0, -2, -1
1503523897117,+0.224,+0.528,-0.259,-0.777,+0.685,-0.739,-0.264,+2.000,+11.562,+1.938,5, 6, 1, 0, 0, 0, 0, -2
1503523897135,+0.223,+0.528,-0.260,-0.777,+0.674,-0.713,-0.268,-3.062,+7.188,+0.812,-5, -2, -1, -1, -3, -3, -4, -4
1503523897155,+0.223,+0.527,-0.260,-0.778,+0.674,-0.715,-0.258,-5.125,-0.125,+0.625,-3, -6, 0, -1, -2, -2, 1, 4
1503523897178,+0.222,+0.527,-0.260,-0.778,+0.681,-0.725,-0.281,-2.750,-1.938,+0.688,-1, 1, 1, -1, 1, 0, 1, -2
1503523897193,+0.222,+0.526,-0.261,-0.779,+0.656,-0.703,-0.289,-3.250,+2.812,+0.812,-1, -4, 0, -1, 0, 0, 1, 2
1503523897215,+0.221,+0.526,-0.260,-0.779,+0.647,-0.714,-0.278,-4.062,-0.312,+1.938,-1, 1, -2, -2, -1, -2, -4, -34
1503523897237,+0.221,+0.525,-0.260,-0.780,+0.669,-0.715,-0.267,-4.938,-1.875,+1.750,-3, -4, -1, 3, 0, -1, 1, 9
1503523897253,+0.221,+0.524,-0.260,-0.780,+0.671,-0.718,-0.271,-3.500,-1.125,+2.250,-2, -5, 0, -1, 0, 1, -1, 3
1503523897282,+0.220,+0.524,-0.260,-0.780,+0.661,-0.712,-0.265,-2.688,+0.938,+4.188,-8, -3, -2, -2, -3, -2, -1, 1
1503523897297,+0.219,+0.524,-0.260,-0.781,+0.662,-0.698,-0.246,-3.250,+2.062,+5.125,1, 1, 2, 0, -1, -3, -3, 0
1503523897313,+0.218,+0.524,-0.260,-0.781,+0.672,-0.715,-0.250,-2.188,+2.562,+5.250,2, -1, -4, 0, -2, -3, -2, 0
1503523897338,+0.217,+0.525,-0.261,-0.781,+0.671,-0.715,-0.247,-2.000,+3.062,+4.938,0, -1, 0, 0, -2, 0, -1, -2
1503523897357,+0.216,+0.525,-0.261,-0.781,+0.655,-0.719,-0.254,-2.875,+2.438,+3.938,-9, -7, 1, 1, 2, 2, 1, -1
1503523897374,+0.215,+0.524,-0.261,-0.782,+0.659,-0.730,-0.260,-4.688,+1.562,+4.062,-2, 1, 0, -1, -3, -3, -2, -2
1503523897395,+0.213,+0.524,-0.261,-0.782,+0.661,-0.716,-0.252,-6.625,+3.250,+3.875,14, 2, -4, 0, -1, 0, -3, 1
1503523897417,+0.213,+0.523,-0.262,-0.783,+0.671,-0.716,-0.241,-6.188,+0.375,+3.250,-10, 0, 3, 1, 0, 0, 2, 1
1503523897433,+0.212,+0.523,-0.262,-0.783,+0.668,-0.716,-0.242,-3.750,-0.688,+1.250,-4, 0, 0, 0, 0, -2, -2, 1
1503523897455,+0.212,+0.523,-0.262,-0.783,+0.636,-0.726,-0.251,-3.125,-0.312,+0.375,7, -7, -6, -2, -3, -1, -2, 1
1503523897477,+0.211,+0.523,-0.262,-0.784,+0.632,-0.733,-0.268,-4.062,+0.875,+1.375,3, -1, 1, 2, 0, 0, 0, -1
1503523897493,+0.210,+0.522,-0.262,-0.784,+0.644,-0.714,-0.270,-4.750,+2.875,+1.812,-2, 0, -3, -3, 1, 0, -1, -1
1503523897515,+0.210,+0.522,-0.263,-0.784,+0.652,-0.709,-0.262,-4.250,+2.250,+1.000,1, 1, -1, -1, -1, 1, -1, 0
1503523897543,+0.210,+0.521,-0.263,-0.784,+0.663,-0.705,-0.255,-2.688,+1.062,-0.312,3, 1, 0, 0, 1, -1, 0, 0
1503523897553,+0.210,+0.521,-0.263,-0.784,+0.659,-0.707,-0.268,-1.875,+0.750,-1.500,-8, -1, 1, -1, -1, -2, 1, -2
1503523897575,+0.210,+0.521,-0.264,-0.784,+0.646,-0.716,-0.260,-1.875,+1.750,-1.500,-5, 5, -3, -1, -4, -1, -1, -1
1503523897597,+0.209,+0.521,-0.265,-0.784,+0.657,-0.716,-0.258,-2.438,+2.500,-2.000,3, 0, 2, 0, 2, 0, -1, -2
1503523897614,+0.209,+0.520,-0.265,-0.784,+0.662,-0.712,-0.253,-2.062,+2.375,-1.750,1, 4, 0, -1, -2, -1, -1, 0
1503523897635,+0.209,+0.520,-0.266,-0.784,+0.664,-0.712,-0.252,-1.312,+1.875,-1.562,-7, -12, -3, -1, 0, -1, 0, 0
1503523897657,+0.209,+0.520,-0.267,-0.784,+0.663,-0.713,-0.251,-1.500,+2.875,-1.875,-8, -8, -1, -1, 0, -3, -2, -4
1503523897674,+0.209,+0.520,-0.267,-0.784,+0.668,-0.719,-0.248,-0.875,+1.938,-1.312,2, 3, -1, -1, -2, -1, -1, -1
1503523897695,+0.209,+0.520,-0.268,-0.784,+0.668,-0.709,-0.255,-1.000,+1.438,-1.438,-1, 0, -2, -1, -4, -1, -2, 0
1503523897717,+0.209,+0.520,-0.268,-0.784,+0.665,-0.709,-0.248,-1.562,+1.188,-1.500,1, -1, -2, 1, 0, -1, -1, 1
1503523897733,+0.209,+0.520,-0.269,-0.783,+0.674,-0.714,-0.244,-1.438,+1.000,-1.812,7, 3, 1, -1, 0, 0, -1, 0
1503523897755,+0.209,+0.520,-0.270,-0.783,+0.671,-0.705,-0.253,-1.500,+1.812,-1.875,-3, 2, -1, -3, 0, -2, -2, 0
1503523897777,+0.209,+0.520,-0.270,-0.783,+0.669,-0.706,-0.248,-1.812,+1.625,-1.812,-2, 2, 1, -1, 0, 0, 0, 0
1503523897793,+0.209,+0.520,-0.271,-0.783,+0.667,-0.708,-0.248,-2.062,+0.625,-1.938,2, -7, -2, -3, -1, 0, -1, -2
1503523897816,+0.209,+0.519,-0.271,-0.783,+0.668,-0.716,-0.254,-2.312,+0.375,-3.062,-2, -1, -2, -1, -1, -1, 0, -1
1503523897837,+0.209,+0.519,-0.272,-0.783,+0.672,-0.717,-0.256,-2.500,+0.875,-2.312,-2, -2, 0, 0, -1, -1, 1, 0
1503523897853,+0.209,+0.518,-0.272,-0.783,+0.658,-0.697,-0.253,-3.625,+1.312,-1.812,-2, 1, -2, -1, -1, 1, -1, -1
1503523897876,+0.209,+0.518,-0.273,-0.783,+0.680,-0.697,-0.245,-4.500,+1.188,-1.562,-2, -5, -3, -1, -2, -2, 0, 1
1503523897897,+0.209,+0.518,-0.274,-0.783,+0.686,-0.696,-0.243,-2.938,+0.938,-1.938,-1, 5, 3, 0, 0, -1, 0, -1
1503523897913,+0.209,+0.517,-0.274,-0.783,+0.670,-0.708,-0.251,-2.500,+0.250,-2.312,-2, -5, -3, -1, 0, 0, -1, -2
1503523897936,+0.209,+0.517,-0.274,-0.784,+0.667,-0.710,-0.246,-3.312,+0.312,-1.750,3, 2, -1, -1, -2, -1, 1, -1
1503523897957,+0.209,+0.517,-0.275,-0.784,+0.671,-0.705,-0.250,-3.250,-0.062,-1.125,-1, -3, -2, -2, -1, -2, -1, -1
1503523897975,+0.208,+0.516,-0.275,-0.784,+0.672,-0.705,-0.250,-2.750,+1.188,-0.562,3, 2, 3, 0, 0, 0, -1, 0
1503523897995,+0.208,+0.516,-0.276,-0.784,+0.667,-0.697,-0.260,-3.688,+2.188,-0.625,-14, -4, 0, -1, -1, -2, -2, -1
1503523898018,+0.208,+0.515,-0.276,-0.784,+0.685,-0.692,-0.268,-4.500,+2.125,-0.625,6, 3, -1, -1, 0, 0, -1, 1
1503523898033,+0.208,+0.515,-0.277,-0.784,+0.688,-0.688,-0.267,-4.500,+1.812,-1.062,-2, -1, -3, -1, -1, -1, -2, -1
1503523898056,+0.208,+0.514,-0.278,-0.785,+0.683,-0.692,-0.263,-4.062,+0.688,-2.688,3, 1, -2, -1, -3, 0, -1, -1
1503523898078,+0.208,+0.513,-0.278,-0.785,+0.683,-0.697,-0.257,-3.438,-1.500,-3.000,1, 1, -3, -1, 0, -1, -2, -2
1503523898093,+0.208,+0.513,-0.279,-0.785,+0.678,-0.704,-0.251,-2.188,-0.875,-2.812,-1, 5, -1, -2, -1, -1, -2, -1
1503523898116,+0.208,+0.513,-0.279,-0.785,+0.669,-0.691,-0.261,-1.562,+0.688,-1.375,-11, -8, -4, -2, -2, -2, 0, -1
1503523898137,+0.208,+0.513,-0.279,-0.785,+0.675,-0.694,-0.258,-0.625,+0.812,-0.938,3, 3, 1, -2, -2, -2, -1, -1
1503523898153,+0.208,+0.513,-0.280,-0.784,+0.675,-0.697,-0.259,-0.188,+1.562,-0.625,4, 7, 6, -1, -1, 1, 1, -1
1503523898177,+0.208,+0.513,-0.280,-0.784,+0.680,-0.691,-0.257,-0.375,+2.062,-0.625,5, 8, 0, 1, 1, -1, -2, -1
1503523898197,+0.208,+0.513,-0.280,-0.784,+0.679,-0.694,-0.263,-0.625,+1.438,-0.688,-4, -3, 0, 0, 0, 0, -2, 0
1503523898213,+0.208,+0.513,-0.281,-0.784,+0.691,-0.697,-0.254,-0.812,+0.750,-0.125,-9, 0, -1, -2, -2, -1, -1, -1
1503523898236,+0.207,+0.513,-0.281,-0.784,+0.689,-0.690,-0.246,-1.188,+0.625,-0.312,8, -3, -2, -1, 1, -1, -2, -2
1503523898257,+0.208,+0.513,-0.282,-0.784,+0.688,-0.688,-0.248,-0.625,-0.312,-1.062,0, -4, -3, -2, 0, 0, -2, 2
1503523898273,+0.208,+0.513,-0.282,-0.784,+0.681,-0.696,-0.243,-0.312,+0.688,-1.875,1, 7, 3, -2, -2, -2, -1, 0
1503523898295,+0.207,+0.513,-0.282,-0.784,+0.681,-0.699,-0.247,-1.188,+1.500,-1.000,-14, -8, -2, 2, 0, 0, 1, -1
1503523898317,+0.207,+0.513,-0.283,-0.784,+0.683,-0.695,-0.256,-1.625,+1.438,+0.125,5, -1, -3, -2, -1, -3, -1, 0
1503523898333,+0.207,+0.513,-0.283,-0.784,+0.693,-0.689,-0.248,-1.812,+2.312,-0.125,5, 0, 1, 0, -2, -1, 0, -1
1503523898355,+0.207,+0.513,-0.284,-0.784,+0.689,-0.686,-0.263,-1.812,+1.000,-0.250,-2, -4, -1, 0, -1, 1, -1, -1
1503523898378,+0.207,+0.513,-0.284,-0.784,+0.686,-0.689,-0.246,-0.875,+0.188,-1.438,7, 1, 2, 1, 0, -1, -1, -2
1503523898393,+0.207,+0.512,-0.284,-0.783,+0.682,-0.689,-0.256,-0.188,-0.438,-1.500,-1, 2, -2, -3, -2, -1, -2, 0
1503523898416,+0.207,+0.512,-0.284,-0.783,+0.681,-0.694,-0.254,+0.438,+0.188,-0.625,0, -4, -3, -1, -1, -1, 2, -1
1503523898437,+0.207,+0.513,-0.285,-0.783,+0.683,-0.695,-0.253,-0.125,+1.000,-0.312,-3, -3, 1, 1, 0, 0, 0, 0
1503523898453,+0.207,+0.513,-0.285,-0.783,+0.680,-0.689,-0.249,-0.438,+0.562,+0.000,-7, 0, 0, -1, -1, 0, 0, 1
1503523898482,+0.207,+0.513,-0.285,-0.783,+0.686,-0.695,-0.245,-0.562,+0.125,-0.562,2, -2, -3, -1, 0, 0, -1, 0
1503523898497,+0.207,+0.513,-0.285,-0.783,+0.687,-0.695,-0.249,-0.562,+0.438,-1.562,-2, -3, -4, -1, 0, -1, -1, -1
1503523898513,+0.207,+0.513,-0.286,-0.783,+0.678,-0.690,-0.255,-0.500,+0.000,-2.000,-9, -8, 0, 0, -1, -2, 0, -1
1503523898536,+0.207,+0.512,-0.286,-0.783,+0.681,-0.686,-0.249,-1.188,+0.500,-2.562,5, 6, 6, -1, -1, 0, -2, 1
1503523898558,+0.207,+0.512,-0.287,-0.783,+0.692,-0.693,-0.250,-0.625,-0.188,-3.125,1, -4, -6, -1, 0, 0, -1, -1
1503523898573,+0.208,+0.512,-0.287,-0.782,+0.685,-0.687,-0.242,+0.625,+0.000,-3.625,0, 3, 0, -2, -3, 1, 0, 1
1503523898595,+0.208,+0.512,-0.288,-0.782,+0.688,-0.688,-0.246,+0.250,+0.500,-2.938,0, -5, -2, -1, 0, 0, -2, -1
1503523898617,+0.208,+0.512,-0.288,-0.782,+0.692,-0.677,-0.250,+0.688,+1.625,-2.750,-2, 1, -4, 0, -2, -1, 2, -2
1503523898633,+0.208,+0.512,-0.289,-0.781,+0.699,-0.685,-0.250,+1.125,+0.938,-2.750,-1, -2, -2, -2, 0, 1, -3, 0
1503523898656,+0.209,+0.512,-0.289,-0.781,+0.701,-0.687,-0.248,+1.000,-0.562,-2.562,4, 1, 1, -1, -2, -2, -1, -4
1503523898680,+0.209,+0.512,-0.289,-0.781,+0.696,-0.686,-0.244,+0.625,-1.562,-3.125,-4, 5, 3, -1, 0, -1, -2, -1
1503523898693,+0.210,+0.512,-0.289,-0.781,+0.694,-0.688,-0.242,+0.125,-2.000,-3.312,1, 1, -1, 0, -1, -3, -1, 0
1503523898716,+0.210,+0.512,-0.290,-0.781,+0.698,-0.683,-0.239,-0.062,-0.688,-3.688,-2, 0, -1, 1, 0, 0, -1, -1
1503523898738,+0.211,+0.512,-0.290,-0.780,+0.693,-0.687,-0.244,-0.125,-0.312,-3.938,7, 0, -1, 0, -2, -2, -1, -1
1503523898753,+0.211,+0.512,-0.291,-0.780,+0.694,-0.692,-0.244,-0.688,+0.250,-3.875,-2, 3, -7, -3, -2, 0, -1, 0
1503523898775,+0.212,+0.512,-0.291,-0.780,+0.694,-0.677,-0.241,-1.188,+0.250,-4.688,3, 1, 2, 1, 1, 1, -1, 0
1503523898798,+0.212,+0.511,-0.292,-0.780,+0.694,-0.680,-0.250,-0.812,+0.812,-4.562,-3, -1, -2, 0, 0, -4, -2, -1
1503523898814,+0.212,+0.511,-0.293,-0.780,+0.699,-0.678,-0.245,-0.625,+1.000,-4.688,0, -3, -4, -1, -1, -1, -1, 0
1503523898835,+0.213,+0.511,-0.293,-0.779,+0.712,-0.675,-0.243,-0.812,+0.375,-4.062,3, 2, -1, 0, -1, 0, -1, -1
1503523898858,+0.213,+0.511,-0.294,-0.779,+0.710,-0.673,-0.250,-0.875,+0.438,-3.562,1, 1, 8, 1, 0, 0, 0, 1
1503523898873,+0.214,+0.510,-0.295,-0.779,+0.705,-0.671,-0.236,-1.500,+0.688,-3.375,0, -3, -2, -1, 0, -1, 0, -1
1503523898895,+0.214,+0.510,-0.295,-0.779,+0.707,-0.673,-0.242,-1.500,-0.062,-3.688,-4, -2, -6, -2, 1, -2, -2, -2
1503523898918,+0.214,+0.510,-0.296,-0.779,+0.710,-0.675,-0.241,-1.125,-0.188,-4.062,-1, -2, -3, -3, -2, 1, 0, 1
1503523898933,+0.215,+0.509,-0.296,-0.779,+0.713,-0.674,-0.247,-1.688,-1.812,-3.812,5, 0, -1, -1, 0, -1, -3, -1
1503523898956,+0.215,+0.509,-0.296,-0.779,+0.703,-0.673,-0.245,-1.562,-1.500,-4.562,-2, 0, -3, -1, 0, -2, -2, 0
1503523898978,+0.216,+0.509,-0.297,-0.779,+0.702,-0.668,-0.250,-1.812,-0.625,-4.438,3, 0, -2, 0, -1, 0, 0, 0
1503523898993,+0.216,+0.508,-0.297,-0.779,+0.703,-0.667,-0.234,-1.500,+0.438,-4.250,1, -1, 1, -1, 0, 0, -1, -1
1503523899016,+0.216,+0.508,-0.298,-0.779,+0.706,-0.669,-0.251,-1.000,+0.625,-3.188,0, -2, -2, 1, -1, -1, 0, -2
1503523899038,+0.217,+0.508,-0.299,-0.778,+0.705,-0.671,-0.247,-1.125,+1.500,-3.938,2, 4, -2, 1, -1, -1, -2, 0
1503523899053,+0.217,+0.508,-0.299,-0.778,+0.715,-0.676,-0.239,-1.312,+0.875,-3.250,-4, -8, 0, 0, 0, 0, -2, -2
1503523899075,+0.217,+0.507,-0.299,-0.778,+0.717,-0.664,-0.256,-2.062,+0.125,-2.562,-4, 0, -2, -3, -1, -1, -1, 0
1503523899098,+0.217,+0.507,-0.300,-0.778,+0.715,-0.656,-0.246,-2.125,+1.500,-2.812,1, 2, 4, 0, -2, 0, -1, -1
1503523899112,+0.217,+0.507,-0.301,-0.778,+0.713,-0.658,-0.250,-1.438,+2.250,-3.938,1, 3, -1, -2, 0, 0, 0, -1
1503523899142,+0.218,+0.506,-0.302,-0.778,+0.716,-0.650,-0.250,-1.000,+2.125,-4.438,0, 7, -2, -4, -1, -1, -1, -1
1503523899159,+0.218,+0.506,-0.303,-0.778,+0.711,-0.660,-0.246,-0.938,+0.938,-5.812,2, 1, -1, 0, -1, 0, -2, -1
1503523899172,+0.219,+0.506,-0.303,-0.777,+0.707,-0.663,-0.248,-0.688,-1.000,-6.938,1, -1, 5, 2, -3, -1, -1, 0
1503523899194,+0.220,+0.505,-0.304,-0.777,+0.713,-0.654,-0.250,-1.188,-0.438,-7.625,2, 1, -1, -1, 0, -1, 0, -1
1503523899217,+0.221,+0.505,-0.305,-0.777,+0.708,-0.649,-0.245,-1.000,+1.625,-7.375,-2, -2, -1, 0, 0, -2, 1, -1
1503523899239,+0.221,+0.504,-0.306,-0.777,+0.712,-0.654,-0.235,-0.438,+1.312,-8.375,-1, 0, -2, -2, -2, -1, -1, -2
1503523899255,+0.223,+0.504,-0.307,-0.776,+0.712,-0.657,-0.247,-0.438,+0.062,-10.750,-1, 7, 6, 1, -2, -1, -1, 0
1503523899277,+0.224,+0.503,-0.308,-0.776,+0.711,-0.662,-0.246,-1.750,-0.375,-12.250,-4, -9, -3, -1, -1, 1, -1, -1
1503523899299,+0.225,+0.502,-0.309,-0.776,+0.716,-0.651,-0.246,-3.875,+1.938,-13.250,2, 2, 9, 0, -1, 0, -1, -2
1503523899314,+0.227,+0.501,-0.311,-0.775,+0.710,-0.644,-0.242,-4.000,+1.625,-16.438,-2, -2, -2, 0, -1, -1, 0, -1
1503523899344,+0.229,+0.500,-0.313,-0.775,+0.700,-0.634,-0.241,-3.812,-0.500,-21.375,0, -1, -6, -1, -1, 0, -1, 1
1503523899359,+0.232,+0.498,-0.315,-0.774,+0.727,-0.633,-0.243,-4.062,-0.688,-24.625,-2, 0, -3, 0, 0, 1, 1, 0
1503523899374,+0.235,+0.496,-0.318,-0.773,+0.753,-0.622,-0.245,-3.438,+4.562,-25.938,-1, 2, 7, -1, 0, -1, 0, -1
1503523899397,+0.238,+0.495,-0.322,-0.772,+0.759,-0.610,-0.225,-2.500,+5.312,-28.188,-1, 0, -14, 0, -1, -2, 1, 1
1503523899419,+0.242,+0.493,-0.325,-0.770,+0.771,-0.611,-0.233,-4.000,+0.000,-31.438,0, -6, 3, 0, -1, 0, 0, -1
1503523899434,+0.246,+0.490,-0.327,-0.769,+0.763,-0.605,-0.229,-4.875,-2.375,-33.500,-2, 1, 3, -1, -1, -1, 0, 0
1503523899457,+0.250,+0.488,-0.330,-0.769,+0.740,-0.602,-0.250,-5.312,-2.438,-36.875,1, -2, -3, -2, 0, 1, -2, -2
1503523899479,+0.254,+0.485,-0.333,-0.768,+0.750,-0.577,-0.264,-4.500,+0.312,-35.000,-3, 1, 4, 1, 0, -1, -1, -1
1503523899495,+0.258,+0.483,-0.337,-0.766,+0.772,-0.564,-0.268,-4.125,+3.688,-34.375,-3, -7, -2, -2, -3, -1, -1, -1
1503523899522,+0.262,+0.480,-0.340,-0.765,+0.791,-0.551,-0.237,-3.438,+3.062,-35.875,-3, 0, -1, 0, -1, 1, 0, -1
1503523899539,+0.267,+0.477,-0.344,-0.763,+0.810,-0.544,-0.239,-4.062,-0.938,-40.500,1, -3, -3, 1, 1, -2, 0, -1
1503523899555,+0.272,+0.474,-0.348,-0.762,+0.819,-0.530,-0.244,-5.000,-0.062,-41.000,-1, 0, -3, -1, -1, -1, -1, 0
1503523899577,+0.277,+0.471,-0.352,-0.760,+0.810,-0.513,-0.261,-6.000,+3.500,-37.750,-1, -2, 0, 0, -3, 0, 0, -2
1503523899599,+0.281,+0.469,-0.355,-0.759,+0.818,-0.500,-0.251,-6.500,+4.500,-36.500,-2, 5, 2, -2, -3, -1, -2, -1
1503523899614,+0.285,+0.466,-0.359,-0.757,+0.836,-0.500,-0.241,-6.375,+2.125,-39.250,-2, -2, -4, 3, 1, 3, -1, 0
1503523899637,+0.290,+0.462,-0.363,-0.755,+0.839,-0.488,-0.245,-6.062,-1.500,-41.750,-2, 4, 4, 0, -2, -3, -1, -1
1503523899660,+0.295,+0.459,-0.367,-0.754,+0.849,-0.474,-0.242,-7.125,-1.562,-42.562,0, -3, 1, -2, -1, -2, -1, -4
1503523899674,+0.300,+0.455,-0.371,-0.752,+0.851,-0.445,-0.235,-8.312,+1.438,-40.875,-2, -2, -1, 0, -1, -1, 2, 0
1503523899697,+0.304,+0.452,-0.375,-0.750,+0.864,-0.431,-0.235,-7.188,+5.875,-40.375,-2, -2, -6, 0, 0, 1, -2, 1
1503523899721,+0.308,+0.449,-0.380,-0.748,+0.872,-0.430,-0.254,-8.375,+8.125,-39.062,0, -8, -7, -2, -2, -2, 1, -1
1503523899734,+0.311,+0.446,-0.385,-0.746,+0.884,-0.404,-0.251,-8.562,+8.125,-37.312,4, -2, 1, -1, 0, 0, -2, 0
1503523899762,+0.315,+0.442,-0.389,-0.744,+0.894,-0.391,-0.252,-8.250,+4.625,-36.688,2, -9, -1, -3, 2, -2, 1, -2
1503523899779,+0.319,+0.439,-0.393,-0.743,+0.908,-0.395,-0.263,-6.250,+5.438,-34.062,-4, 3, 0, -2, 0, 0, -2, -1
1503523899795,+0.322,+0.437,-0.396,-0.741,+0.906,-0.389,-0.258,-5.062,+4.688,-32.438,0, 5, 5, -1, 0, 0, 2, -1
1503523899825,+0.325,+0.434,-0.400,-0.739,+0.907,-0.363,-0.253,-5.438,+6.188,-30.938,-3, -4, -4, 2, -1, -1, -1, 0
1503523899839,+0.328,+0.432,-0.403,-0.737,+0.905,-0.361,-0.263,-3.188,+6.625,-28.125,9, 3, -1, -2, 0, 0, -3, 1
1503523899856,+0.331,+0.430,-0.406,-0.735,+0.899,-0.358,-0.252,-2.375,+7.625,-27.250,14, 2, 1, -2, -4, 1, -2, -2
1503523899877,+0.333,+0.428,-0.409,-0.734,+0.914,-0.349,-0.257,-2.625,+5.188,-25.938,-14, 1, -1, 0, -2, -3, 0, -1
1503523899899,+0.336,+0.427,-0.411,-0.732,+0.940,-0.349,-0.241,-2.750,+4.875,-22.750,7, 2, 1, 0, -1, -1, -2, -2
1503523899914,+0.338,+0.425,-0.414,-0.731,+0.951,-0.338,-0.229,-2.438,+5.312,-21.438,-8, -8, -5, -4, -1, -2, -2, -2
1503523902561,+0.328,+0.430,-0.300,-0.786,+0.793,-0.488,-0.398,+41.188,-13.750,+27.250,0, 13, 8, 0, -2, 1, -2, -6
1503523902578,+0.327,+0.437,-0.294,-0.785,+0.756,-0.491,-0.398,+43.375,-14.125,+28.312,-3, -2, -10, 0, -1, 0, 1, 16
1503523902600,+0.326,+0.443,-0.287,-0.784,+0.746,-0.513,-0.398,+44.625,-13.938,+28.688,-8, -11, -9, -4, -3, -3, -4, -8
1503523902622,+0.325,+0.450,-0.281,-0.783,+0.748,-0.553,-0.377,+44.125,-11.062,+28.625,1, 10, 47, 7, 2, 1, 2, 2
1503523902640,+0.323,+0.457,-0.276,-0.781,+0.764,-0.572,-0.357,+42.188,-4.062,+28.688,-1, 3, -18, -3, -3, -2, -2, -4
1503523902660,+0.321,+0.464,-0.272,-0.779,+0.797,-0.581,-0.359,+40.875,-0.125,+28.562,2, 4, 10, 1, -2, 0, -1, 1
1503523902683,+0.320,+0.472,-0.268,-0.777,+0.812,-0.601,-0.362,+43.438,-1.062,+25.750,4, 6, -9, 0, -1, -1, 1, -3
1503523902698,+0.320,+0.479,-0.264,-0.774,+0.809,-0.616,-0.342,+44.875,-3.688,+20.625,9, -40, -33, -4, -1, 0, -4, 0
1503523902720,+0.319,+0.486,-0.260,-0.771,+0.777,-0.625,-0.326,+45.125,+0.500,+17.062,-4, -10, -5, 1, 1, 2, -1, -2
1503523902743,+0.318,+0.493,-0.257,-0.768,+0.789,-0.627,-0.315,+46.438,+4.000,+17.812,-12, -7, 12, 2, 1, -2, 0, 2
1503523902758,+0.318,+0.501,-0.254,-0.764,+0.805,-0.633,-0.321,+50.000,+5.188,+16.250,-15, 7, 3, -5, -2, -2, -5, -25
1503523902787,+0.318,+0.508,-0.250,-0.760,+0.790,-0.642,-0.312,+51.750,+2.188,+16.188,5, -3, -5, 0, -1, -1, 2, 2
1503523902802,+0.318,+0.516,-0.247,-0.756,+0.743,-0.650,-0.287,+51.500,+3.625,+17.000,4, 42, -1, -1, 0, 0, 0, -1
1503523902818,+0.316,+0.524,-0.244,-0.752,+0.697,-0.641,-0.275,+52.812,+12.562,+17.312,-8, -25, -17, -2, -2, -2, -2, 9
1503523902842,+0.314,+0.533,-0.242,-0.748,+0.717,-0.651,-0.247,+52.125,+18.812,+19.938,9, -1, -5, -2, 0, -3, 0, 7
1503523902861,+0.312,+0.541,-0.240,-0.743,+0.755,-0.645,-0.237,+52.000,+18.250,+19.312,7, -12, -4, 0, -2, -4, 0, 7
1503523902878,+0.311,+0.549,-0.237,-0.739,+0.736,-0.650,-0.216,+51.562,+10.062,+18.750,-4, 7, 7, -1, 0, 1, -1, -2
1503523902900,+0.310,+0.557,-0.234,-0.734,+0.670,-0.659,-0.205,+50.250,+8.125,+17.250,4, -3, -5, -3, -2, 3, 0, 8
1503523902922,+0.308,+0.564,-0.232,-0.730,+0.632,-0.666,-0.175,+45.938,+16.250,+17.000,-1, -19, -9, -1, -1, -2, -1, 4
1503523902938,+0.305,+0.572,-0.231,-0.726,+0.653,-0.663,-0.155,+41.812,+23.500,+17.250,1, 35, 27, 0, -1, -1, -2, -9
1503523902960,+0.302,+0.578,-0.230,-0.722,+0.705,-0.670,-0.139,+39.562,+24.375,+15.938,3, 4, 13, 0, -1, -1, 2, 14
1503523902984,+0.300,+0.584,-0.230,-0.718,+0.725,-0.677,-0.128,+36.812,+16.062,+12.625,-7, 27, -1, 0, -3, -2, -3, -10
1503523902998,+0.300,+0.589,-0.228,-0.715,+0.688,-0.681,-0.115,+32.562,+5.125,+10.000,1, 1, 12, 1, 1, 0, 0, 0
1503523903020,+0.299,+0.594,-0.226,-0.712,+0.643,-0.688,-0.112,+29.688,+4.312,+9.000,8, -10, -11, -2, 1, -2, -2, -31
1503523903044,+0.297,+0.598,-0.225,-0.710,+0.625,-0.695,-0.107,+23.750,+11.188,+9.188,3, -18, -8, -2, 1, 0, 0, 0
1503523903058,+0.295,+0.602,-0.225,-0.708,+0.651,-0.687,-0.104,+19.500,+19.250,+11.188,-16, -28, -17, -1, -3, -1, -1, -10
1503523903080,+0.292,+0.605,-0.225,-0.706,+0.703,-0.706,-0.097,+15.625,+13.688,+11.812,-2, 44, 36, 2, 0, -1, -4, -16
1503523903102,+0.291,+0.607,-0.224,-0.705,+0.682,-0.694,-0.092,+12.750,+7.062,+12.000,12, -8, -7, 0, -2, 0, 3, 47
1503523903119,+0.289,+0.609,-0.223,-0.704,+0.658,-0.714,-0.104,+11.375,+3.562,+12.250,17, 4, -6, 0, -1, -2, 4, 15
1503523903140,+0.287,+0.611,-0.222,-0.704,+0.646,-0.728,-0.098,+8.812,+6.438,+15.500,-14, -11, -10, -4, -2, -3, -6, -44
1503523903161,+0.284,+0.613,-0.221,-0.704,+0.640,-0.731,-0.095,+5.625,+8.688,+15.438,-23, 2, 14, 2, 2, 0, 4, 56
1503523903178,+0.281,+0.614,-0.220,-0.704,+0.634,-0.742,-0.074,-1.312,+9.750,+15.000,-12, 12, 8, 0, 0, 1, 1, 6
1503523903200,+0.277,+0.615,-0.220,-0.705,+0.636,-0.748,-0.052,-7.125,+13.250,+17.250,2, -6, -5, -3, -2, 0, 0, 67
1503523903222,+0.272,+0.615,-0.221,-0.706,+0.656,-0.745,-0.043,-12.375,+14.562,+17.375,14, 5, -22, -2, -2, -1, 0, -7
1503523903238,+0.269,+0.614,-0.221,-0.708,+0.708,-0.739,-0.077,-15.062,+9.312,+17.062,10, 14, 7, -1, -1, -1, -5, -34
1503523903262,+0.267,+0.613,-0.221,-0.710,+0.698,-0.731,-0.087,-18.625,-0.375,+14.500,23, 31, 17, 0, 0, 0, 2, 4
1503523903282,+0.265,+0.610,-0.220,-0.713,+0.614,-0.721,-0.115,-19.875,-3.688,+13.750,-7, 9, -5, 1, 0, -2, -11, -97
1503523903298,+0.260,+0.609,-0.220,-0.716,+0.586,-0.747,-0.094,-21.812,+6.000,+18.375,-2, -1, -13, -1, -1, 1, -2, -18
1503523903321,+0.255,+0.608,-0.220,-0.719,+0.611,-0.759,-0.077,-25.188,+14.562,+21.312,10, 12, 7, 0, -2, -2, -4, -69
1503523903341,+0.249,+0.606,-0.221,-0.722,+0.623,-0.766,-0.083,-28.812,+19.750,+25.938,11, -7, 7, 0, -2, -1, 1, 7
1503523903358,+0.242,+0.604,-0.222,-0.726,+0.632,-0.792,-0.090,-33.812,+16.188,+30.250,-2, 1, 7, 2, 2, 0, -6, -113
1503523903380,+0.234,+0.601,-0.222,-0.731,+0.603,-0.779,-0.091,-41.688,+15.125,+32.938,-15, -8, 7, -1, 0, 2, 3, 34
1503523903402,+0.227,+0.597,-0.222,-0.736,+0.584,-0.736,-0.111,-44.938,+14.875,+32.000,32, -16, 1, -4, -2, -1, -4, 29
1503523903419,+0.220,+0.593,-0.223,-0.742,+0.593,-0.757,-0.106,-50.125,+10.500,+31.812,-4, -37, -9, -2, -1, -4, -1, 13
1503523903440,+0.212,+0.588,-0.223,-0.748,+0.547,-0.758,-0.125,-53.562,+12.188,+33.188,10, 39, 7, -1, 0, -1, -3, -19
1503523903462,+0.203,+0.583,-0.223,-0.755,+0.525,-0.739,-0.155,-57.500,+17.438,+35.938,-11, 14, -10, -3, -1, -4, -1, 37
1503523903479,+0.193,+0.577,-0.224,-0.761,+0.508,-0.730,-0.199,-58.375,+26.250,+39.375,1, -28, -14, -2, -3, 0, 4, -8
1503523903500,+0.183,+0.572,-0.226,-0.767,+0.512,-0.741,-0.222,-53.750,+26.812,+38.250,11, -5, -5, 1, -1, 4, 3, 23
1503523903523,+0.174,+0.567,-0.226,-0.772,+0.498,-0.742,-0.215,-50.250,+22.438,+34.812,1, 14, 6, 2, -1, -1, -4, -11
1503523903538,+0.167,+0.563,-0.226,-0.777,+0.503,-0.745,-0.221,-46.188,+15.438,+33.438,16, 58, -2, -4, -4, -5, -7, 7
1503523903560,+0.159,+0.559,-0.226,-0.782,+0.503,-0.769,-0.247,-40.875,+15.625,+31.750,-20, -20, -6, 0, 2, -1, -3, -11
1503523903584,+0.153,+0.555,-0.227,-0.786,+0.531,-0.790,-0.267,-36.125,+16.750,+26.062,-2, -24, 3, -5, -3, 0, 6, 23
1503523903598,+0.147,+0.552,-0.228,-0.789,+0.555,-0.782,-0.257,-31.875,+15.375,+20.562,0, -19, -4, 1, -2, -1, -3, -10
1503523903620,+0.144,+0.549,-0.229,-0.791,+0.559,-0.783,-0.249,-26.188,+7.688,+13.312,-6, 1, -2, -1, 0, 1, 0, -1
1503523903642,+0.143,+0.546,-0.228,-0.794,+0.531,-0.807,-0.275,-22.000,-2.250,+5.375,-2, 19, 14, 0, 0, 1, 4, 25
1503523903658,+0.142,+0.542,-0.228,-0.796,+0.522,-0.824,-0.273,-20.812,-5.938,-1.062,12, -18, -11, -1, 1, 0, -1, -14
1503523903682,+0.143,+0.539,-0.228,-0.798,+0.542,-0.816,-0.257,-19.938,-8.375,-6.375,-13, -7, -1, 3, 0, 0, 3, 9
1503523903702,+0.144,+0.536,-0.229,-0.799,+0.567,-0.816,-0.257,-18.562,-6.812,-10.125,1, 42, 11, -2, 0, -1, 0, 7
1503523903719,+0.146,+0.533,-0.231,-0.801,+0.586,-0.821,-0.261,-19.500,+1.625,-14.500,-1, -22, 1, -2, 0, 1, -1, -26
1503523903740,+0.146,+0.530,-0.235,-0.801,+0.608,-0.784,-0.247,-21.562,+11.812,-17.062,11, 27, 20, 1, 0, -1, -1, 63
1503523903762,+0.150,+0.531,-0.239,-0.799,+0.708,-1.250,-0.232,+2.625,+4.250,-38.438,-5, -20, -8, -1, 0, -1, -3, -17
1503523903783,+0.149,+0.535,-0.256,-0.791,+0.922,-1.018,-0.134,+15.750,+86.188,-43.125,-21, -21, -1, -1, 0, -1, 1, -23
1503523903800,+0.147,+0.532,-0.270,-0.789,+0.604,-0.352,-0.210,-15.438,+67.438,-24.312,-12, 4, -1, -3, 1, -2, -2, -43
1503523903823,+0.148,+0.530,-0.271,-0.790,+0.512,-0.670,-0.307,-7.312,+7.562,-11.625,1, -54, -4, 0, 0, 3, 0, 6
1503523903838,+0.151,+0.529,-0.276,-0.788,+0.739,-0.711,-0.203,+1.438,+9.000,-24.000,9, 13, 11, 0, -2, -3, 0, -2
1503523903860,+0.157,+0.529,-0.279,-0.786,+0.735,-0.793,-0.232,+13.250,-3.875,-36.375,-4, 43, 7, 1, 1, 0, -2, -25
1503523903887,+0.163,+0.529,-0.283,-0.783,+0.685,-0.752,-0.210,+11.938,+3.000,-40.125,3, -9, -9, -3, -3, 0, -1, -5
1503523903898,+0.167,+0.528,-0.287,-0.781,+0.623,-0.720,-0.244,+6.375,+5.688,-35.438,-9, -10, -9, -3, -2, -1, 0, 8
1503523903922,+0.170,+0.527,-0.290,-0.781,+0.560,-0.749,-0.283,+1.625,+8.438,-29.250,5, 47, 27, 2, 2, -1, -1, 10
1503523903942,+0.173,+0.525,-0.293,-0.780,+0.618,-0.763,-0.262,-0.750,+9.312,-32.438,6, -1, -3, -1, 1, 1, 6, 34
1503523903958,+0.176,+0.524,-0.296,-0.779,+0.666,-0.759,-0.245,+0.000,+6.375,-28.562,-3, -5, 1, 0, -1, -2, 1, 24
1503523903980,+0.178,+0.523,-0.299,-0.778,+0.653,-0.761,-0.243,-0.500,+4.750,-24.312,2, 13, 2, 1, -1, -3, -7, -24
1503523904002,+0.180,+0.522,-0.301,-0.777,+0.654,-0.754,-0.252,+0.562,+6.312,-20.062,2, 1, 0, -2, 0, -3, -1, -7
1503523904019,+0.181,+0.522,-0.304,-0.776,+0.652,-0.706,-0.236,+2.500,+11.375,-18.812,1, -11, -3, -2, -3, -1, 0, -1
1503523904039,+0.183,+0.522,-0.306,-0.775,+0.675,-0.706,-0.212,+3.750,+8.000,-18.625,-4, -5, -2, -2, -2, 0, -2, -14
1503523904062,+0.186,+0.522,-0.309,-0.773,+0.728,-0.709,-0.206,+6.875,+4.312,-17.312,-1, 1, -1, -1, -1, -1, -1, 2
1503523904078,+0.188,+0.522,-0.311,-0.771,+0.729,-0.687,-0.195,+8.250,+3.438,-16.938,-1, -3, -1, -1, -2, 0, -1, -6
1503523904100,+0.190,+0.523,-0.312,-0.770,+0.727,-0.679,-0.201,+8.375,+1.438,-14.875,-9, -12, -2, 0, -2, 1, 0, -4
1503523904126,+0.193,+0.523,-0.314,-0.768,+0.737,-0.659,-0.181,+9.375,+2.625,-13.000,-2, -3, -2, -1, 2, 4, -1, -2
1503523904138,+0.195,+0.524,-0.315,-0.767,+0.742,-0.667,-0.178,+11.875,-0.750,-12.000,2, 2, -1, 0, 0, -3, -1, -4
1503523904160,+0.198,+0.525,-0.316,-0.765,+0.747,-0.668,-0.175,+12.500,-4.500,-15.312,-2, 1, 0, 0, 0, -5, -12, -2
1503523904184,+0.202,+0.525,-0.316,-0.764,+0.737,-0.676,-0.184,+9.625,-8.500,-19.750,2, 3, -1, -2, -2, -1, 3, 0
1503523904198,+0.206,+0.524,-0.316,-0.763,+0.702,-0.685,-0.194,+6.875,-12.000,-19.188,-2, -2, 0, -2, -3, 1, 4, -2
1503523904221,+0.208,+0.524,-0.317,-0.763,+0.699,-0.680,-0.202,+4.500,-5.250,-17.562,9, 5, 2, 0, -2, -1, 2, 1
1503523904242,+0.210,+0.524,-0.318,-0.762,+0.694,-0.662,-0.208,+5.000,+1.750,-15.250,-5, -4, -2, -1, -4, -4, -5, 0
1503523904260,+0.212,+0.524,-0.319,-0.761,+0.719,-0.662,-0.209,+7.250,+3.062,-13.812,-1, 0, 0, 0, 0, 1, 1, -3
1503523904280,+0.214,+0.524,-0.321,-0.759,+0.717,-0.652,-0.196,+8.000,+1.438,-15.438,-3, -1, -2, 1, -1, 1, 3, 0
1503523904302,+0.218,+0.524,-0.322,-0.758,+0.721,-0.672,-0.186,+9.562,-3.375,-19.438,-1, 0, -1, -1, -2, -1, 2, -1
1503523904319,+0.221,+0.524,-0.323,-0.756,+0.728,-0.666,-0.191,+11.188,-4.500,-22.375,0, -2, -3, -1, -1, 4, 18, -2
1503523904340,+0.225,+0.525,-0.324,-0.755,+0.718,-0.655,-0.181,+11.688,-1.062,-22.688,0, -4, 0, -1, 1, 0, -6, -1
1503523904362,+0.228,+0.525,-0.326,-0.753,+0.724,-0.640,-0.193,+11.750,+3.250,-23.125,3, 2, -1, -2, -1, -3, -2, -1
1503523904378,+0.231,+0.525,-0.328,-0.750,+0.747,-0.625,-0.183,+12.750,+2.875,-23.875,0, 1, -2, 3, -2, -1, -2, 0
1503523904400,+0.235,+0.526,-0.329,-0.748,+0.755,-0.639,-0.170,+14.438,-1.438,-25.250,-3, -2, -4, -4, 0, -4, 0, 0
1503523904422,+0.240,+0.526,-0.331,-0.746,+0.768,-0.641,-0.152,+13.688,-3.312,-27.250,-2, -2, 2, 0, -1, -11, -3, -2
1503523904436,+0.244,+0.526,-0.333,-0.744,+0.755,-0.626,-0.146,+11.875,-1.625,-28.125,-4, -10, -1, -2, -1, 3, -2, -1
1503523904461,+0.247,+0.526,-0.335,-0.741,+0.752,-0.620,-0.137,+9.438,+2.938,-27.688,-5, -2, 0, 1, -1, -1, -1, -2
1503523904481,+0.250,+0.526,-0.339,-0.739,+0.781,-0.605,-0.138,+8.375,+7.625,-26.875,1, -2, -1, -3, -7, 6, 0, 0
1503523904497,+0.253,+0.526,-0.342,-0.736,+0.810,-0.597,-0.150,+8.562,+10.000,-25.625,6, 12, -1, -3, 0, 9, 1, 2
1503523904521,+0.256,+0.526,-0.345,-0.734,+0.828,-0.602,-0.142,+7.750,+5.562,-25.125,-5, -2, -1, -1, 0, -7, -2, -1
1503523904542,+0.260,+0.525,-0.347,-0.732,+0.824,-0.597,-0.131,+4.625,+0.812,-25.750,-1, 0, 0, -3, -5, 3, -1, -2
1503523904557,+0.263,+0.524,-0.350,-0.730,+0.819,-0.572,-0.117,+3.062,-1.375,-24.938,-2, -2, 0, -1, 2, -1, -3, 0
1503523904579,+0.266,+0.524,-0.352,-0.729,+0.831,-0.575,-0.132,+4.438,+1.750,-22.812,-5, -7, -1, -4, -4, 5, -3, -1
1503523904602,+0.268,+0.523,-0.355,-0.727,+0.824,-0.576,-0.118,+3.375,+4.375,-21.062,-4, -6, -2, 2, 4, 0, 0, -3
1503523904617,+0.270,+0.523,-0.357,-0.726,+0.834,-0.576,-0.131,+1.188,+2.875,-18.938,3, -11, -3, -4, -11, -1, -1, 0
1503523904639,+0.272,+0.522,-0.359,-0.724,+0.838,-0.567,-0.118,+0.062,+0.688,-18.938,-7, -2, 0, -3, 2, -1, -17, -1
1503523904662,+0.274,+0.521,-0.361,-0.724,+0.833,-0.557,-0.119,-1.125,-0.062,-17.812,1, 1, 0, 0, -1, -11, 1, -2
1503523904684,+0.276,+0.520,-0.363,-0.723,+0.854,-0.553,-0.145,-2.062,+4.188,-14.688,-1, 3, 0, 0, -1, 4, 6, 1
1503523904699,+0.276,+0.519,-0.365,-0.722,+0.852,-0.529,-0.142,-3.062,+7.500,-11.875,3, 3, 0, -4, -1, 1, 3, 0
1503523904722,+0.277,+0.518,-0.367,-0.721,+0.847,-0.533,-0.132,-3.000,+2.750,-11.625,-1, -1, -1, -1, -1, 2, 0, 1
1503523904737,+0.279,+0.516,-0.368,-0.721,+0.854,-0.534,-0.133,-3.688,-3.688,-13.938,3, 4, -5, -3, 0, -1, 0, 0
1503523904761,+0.281,+0.515,-0.369,-0.721,+0.839,-0.546,-0.121,-5.562,-3.750,-14.438,-2, 1, 5, 0, 1, 2, 1, 0
1503523904781,+0.281,+0.513,-0.371,-0.721,+0.845,-0.517,-0.129,-7.000,+2.500,-12.562,3, 6, 0, -5, -2, -3, -2, -3
1503523904798,+0.282,+0.512,-0.373,-0.720,+0.856,-0.521,-0.134,-5.625,+5.250,-11.438,-5, -3, -2, 2, 0, 1, 1, -1
1503523904819,+0.283,+0.511,-0.375,-0.720,+0.844,-0.516,-0.148,-5.125,+2.500,-11.250,0, 0, -3, 0, 1, 0, 0, 1
1503523904841,+0.284,+0.510,-0.376,-0.720,+0.845,-0.526,-0.129,-6.125,-0.688,-11.250,-3, -3, 1, 0, 0, 0, 1, -1
1503523904857,+0.284,+0.508,-0.378,-0.720,+0.860,-0.529,-0.131,-6.438,+0.438,-9.938,4, -1, -4, 0, -2, -1, -1, -1
1503523904879,+0.284,+0.507,-0.379,-0.720,+0.869,-0.516,-0.132,-6.312,+3.188,-7.938,1, 5, -1, 0, -2, -2, 0, 0
1503523904901,+0.285,+0.506,-0.381,-0.720,+0.866,-0.505,-0.151,-5.688,+3.938,-7.500,-2, -2, 1, -2, 0, 0, 0, -1
1503523904916,+0.285,+0.505,-0.382,-0.720,+0.854,-0.501,-0.144,-6.062,+0.438,-7.500,0, -1, -3, 0, -1, -1, -1, 0
1503523904946,+0.285,+0.504,-0.383,-0.720,+0.862,-0.495,-0.138,-6.625,+0.000,-7.625,-2, 0, 0, 0, 1, 0, 1, -3
1503523904963,+0.286,+0.502,-0.385,-0.720,+0.859,-0.487,-0.146,-5.562,+1.812,-8.438,-4, -2, 3, 0, -1, 0, 0, 0
1503523904984,+0.286,+0.501,-0.385,-0.720,+0.855,-0.507,-0.139,-4.500,-0.125,-7.688,-1, 3, 6, 0, 0, -1, -1, 0
1503523904999,+0.287,+0.500,-0.386,-0.720,+0.874,-0.506,-0.137,-5.938,+0.750,-5.938,0, -4, -16, -2, -1, 0, 0, -2
1503523905025,+0.286,+0.500,-0.388,-0.720,+0.880,-0.494,-0.137,-6.625,+5.375,-5.312,4, 3, -3, 1, 0, -4, -2, 1
1503523905036,+0.286,+0.498,-0.390,-0.720,+0.871,-0.478,-0.151,-6.500,+5.812,-5.938,-7, -7, -3, -3, -2, -1, 1, -2
1503523905059,+0.286,+0.497,-0.391,-0.720,+0.875,-0.479,-0.154,-5.625,+2.125,-6.438,7, 3, -4, -2, 1, 0, -1, 1
1503523905082,+0.287,+0.496,-0.392,-0.720,+0.874,-0.487,-0.142,-5.875,-3.500,-8.688,2, -5, -2, -3, -2, -1, -3, 0
1503523905097,+0.288,+0.494,-0.393,-0.720,+0.867,-0.476,-0.146,-5.688,-3.000,-10.312,-2, 2, 8, 1, -1, 0, -3, -2
1503523905119,+0.289,+0.493,-0.394,-0.720,+0.857,-0.482,-0.158,-5.250,+0.062,-11.562,-2, -7, 0, 0, -3, -1, 0, -1
1503523905142,+0.291,+0.491,-0.395,-0.720,+0.859,-0.473,-0.183,-4.875,+1.812,-14.500,-4, -2, -3, 0, -3, 0, -2, -2
1503523905158,+0.292,+0.490,-0.397,-0.719,+0.840,-0.508,-0.189,-3.750,+2.688,-18.000,-6, 1, -1, -2, 0, -1, -1, -1
1503523905179,+0.294,+0.487,-0.398,-0.719,+0.875,-0.493,-0.177,-6.188,-4.688,-19.125,-16, -10, 4, 0, -1, 0, 1, -2
1503523905202,+0.297,+0.485,-0.398,-0.720,+0.908,-0.484,-0.129,-6.188,-16.125,-19.938,-1, 1, 0, -2, -1, -1, 1, -3
1503523905226,+0.300,+0.482,-0.399,-0.720,+0.897,-0.466,-0.119,-7.938,-17.125,-19.375,2, 0, -1, -1, -2, -1, -1, -1
1503523905239,+0.302,+0.480,-0.400,-0.720,+0.846,-0.432,-0.131,-5.562,-4.500,-18.062,4, 2, -1, -1, 0, -2, -1, 0
1503523905263,+0.303,+0.479,-0.402,-0.719,+0.848,-0.418,-0.124,-4.625,+3.312,-14.188,6, 1, 1, 0, 0, 0, 0, -1
1503523905284,+0.303,+0.478,-0.404,-0.718,+0.909,-0.431,-0.125,-5.125,+7.250,-10.250,-2, 1, 0, 1, -2, 0, -1, 1
1503523905299,+0.304,+0.477,-0.407,-0.717,+0.911,-0.422,-0.129,-7.062,+5.938,-11.688,9, -3, -4, 0, 0, -3, -2, 0
1503523905321,+0.305,+0.474,-0.409,-0.717,+0.892,-0.405,-0.158,-9.125,+1.438,-15.562,-2, 1, 3, -2, -2, 0, 0, 0
1503523905337,+0.306,+0.472,-0.411,-0.717,+0.885,-0.405,-0.159,-9.125,+1.812,-17.500,5, -3, -5, -2, -1, -1, -1, 0
1503523905361,+0.308,+0.470,-0.413,-0.716,+0.890,-0.415,-0.171,-7.000,+1.500,-18.625,-14, -3, -1, -1, -1, -1, -2, -2
1503523905382,+0.310,+0.468,-0.415,-0.716,+0.898,-0.431,-0.153,-8.750,-2.375,-20.250,-1, 4, 0, 0, -2, -2, -1, -1
1503523905404,+0.311,+0.465,-0.417,-0.716,+0.908,-0.428,-0.152,-11.375,-3.250,-20.562,16, -12, -7, -1, 0, -1, -2, -2
1503523905419,+0.313,+0.462,-0.420,-0.716,+0.913,-0.398,-0.160,-13.188,+0.625,-20.062,1, 4, 8, -2, 0, 1, 1, 0
1503523905441,+0.314,+0.459,-0.422,-0.716,+0.913,-0.362,-0.169,-10.438,+4.250,-18.188,-2, 2, -4, -2, -1, -1, 0, -1
1503523905466,+0.316,+0.457,-0.425,-0.715,+0.916,-0.354,-0.173,-7.375,+4.375,-18.062,-5, 0, 1, -1, 0, -1, 0, 1
1503523905479,+0.317,+0.455,-0.427,-0.714,+0.913,-0.364,-0.178,-6.000,+1.188,-17.438,-5, 1, 0, 0, -1, -1, -1, -2
1503523905503,+0.319,+0.453,-0.428,-0.714,+0.921,-0.380,-0.174,-6.812,-2.500,-18.500,5, 1, 0, -3, -1, -2, -1, -1
1503523905524,+0.320,+0.451,-0.430,-0.714,+0.938,-0.378,-0.160,-8.188,-0.625,-17.812,-13, -10, -8, -1, -1, -1, -1, -3
1503523905539,+0.321,+0.448,-0.433,-0.713,+0.936,-0.349,-0.171,-8.750,+2.812,-15.688,3, -3, -3, 0, 0, -1, -2, -2
1503523905566,+0.322,+0.447,-0.435,-0.713,+0.941,-0.333,-0.187,-6.000,+4.188,-13.375,-1, 4, -1, 0, 2, -2, -2, 0
1503523905577,+0.323,+0.445,-0.437,-0.712,+0.928,-0.330,-0.168,-3.688,+5.625,-11.875,-1, -5, -3, 0, 0, 1, -1, -1
1503523905606,+0.325,+0.444,-0.438,-0.711,+0.943,-0.333,-0.179,-2.750,-0.062,-12.562,-4, -3, 1, -1, -4, -2, -1, 0
1503523905621,+0.326,+0.443,-0.439,-0.711,+0.942,-0.353,-0.167,-3.250,-3.500,-13.062,-16, -5, -1, 0, -1, -1, -1, -3
1503523905637,+0.327,+0.441,-0.439,-0.711,+0.915,-0.340,-0.168,-4.938,-3.750,-12.562,5, 0, 3, 1, -2, -2, 0, 1
1503523905661,+0.328,+0.440,-0.441,-0.711,+0.914,-0.338,-0.167,-4.875,+2.938,-10.375,-5, 4, 4, 3, -2, 0, -1, -1
1503523905681,+0.327,+0.439,-0.443,-0.710,+0.949,-0.340,-0.149,-6.500,+8.688,-5.688,-20, -12, -18, -2, -1, 0, -1, -2
1503523905698,+0.326,+0.438,-0.445,-0.709,+1.005,-0.330,-0.138,-7.938,+6.750,-3.812,7, -1, 2, 1, -2, -1, 0, 0
1503523905719,+0.326,+0.437,-0.446,-0.709,+0.998,-0.325,-0.156,-7.688,+0.250,-5.188,9, -3, -3, -1, 2, -1, 0, 3
1503523905741,+0.327,+0.435,-0.447,-0.710,+0.929,-0.310,-0.165,-7.625,-5.625,-6.438,0, 3, 2, 1, 1, 2, 4, 19
1503523905757,+0.328,+0.433,-0.446,-0.711,+0.920,-0.303,-0.174,-8.125,-10.062,-5.500,23, 9, 7, -1, 0, -1, -3, 17
1503523905779,+0.328,+0.432,-0.447,-0.712,+0.923,-0.316,-0.165,-8.938,-3.062,-3.938,3, 15, 13, 4, 1, 2, 2, -6
1503523905802,+0.327,+0.430,-0.449,-0.712,+0.921,-0.297,-0.167,-9.375,+5.875,-4.562,7, 10, 19, -1, -1, -1, -1, -11
1503523905817,+0.327,+0.429,-0.450,-0.711,+0.948,-0.294,-0.192,-5.312,+4.938,-4.438,-18, -1, 3, 1, 2, -1, 2, 7
1503523905845,+0.328,+0.428,-0.451,-0.711,+0.949,-0.310,-0.192,-3.438,-0.688,-5.750,-4, -1, -9, -3, -4, -3, -2, 17
1503523905863,+0.329,+0.427,-0.451,-0.712,+0.911,-0.317,-0.184,-3.812,-6.938,-9.812,-26, -1, -5, -1, 2, -1, -1, 1
1503523905877,+0.330,+0.425,-0.450,-0.712,+0.913,-0.335,-0.165,-5.375,-10.500,-12.688,6, -1, -3, 0, 1, -1, -2, -28
1503523905899,+0.331,+0.423,-0.451,-0.712,+0.925,-0.296,-0.187,-6.188,-1.500,-11.562,-4, -5, -9, -2, -2, 0, -1, 7
1503523905921,+0.332,+0.422,-0.453,-0.712,+0.961,-0.282,-0.191,-3.250,+4.625,-8.750,-11, -11, -16, -3, 0, 0, 2, 5
1503523905938,+0.333,+0.421,-0.454,-0.711,+0.996,-0.292,-0.177,-2.188,-1.812,-8.125,21, -4, -7, -2, -3, -2, -2, 18
1503523905959,+0.334,+0.419,-0.454,-0.712,+0.973,-0.292,-0.172,-3.375,-7.875,-9.938,1, -3, 0, 0, -1, 2, -1, 4
1503523905981,+0.336,+0.418,-0.454,-0.712,+0.941,-0.286,-0.185,-2.562,-10.875,-12.438,-24, -13, -10, 0, 0, 0, -1, -28
1503523905997,+0.339,+0.416,-0.453,-0.712,+0.904,-0.282,-0.185,-1.438,-11.812,-14.875,3, -1, 1, -3, -2, -2, 1, -5
1503523906019,+0.341,+0.414,-0.454,-0.712,+0.916,-0.272,-0.190,-2.312,-10.312,-16.000,11, 0, 0, -1, 0, -1, 0, 7
1503523906041,+0.343,+0.412,-0.454,-0.711,+0.947,-0.267,-0.196,+0.375,-3.062,-15.500,-5, 2, 7, -1, 0, -3, -2, -1
1503523906064,+0.345,+0.411,-0.455,-0.711,+0.977,-0.268,-0.183,-1.562,-2.312,-13.562,-3, -6, -1, 0, 2, -4, 1, -1
1503523906079,+0.346,+0.409,-0.456,-0.711,+0.985,-0.273,-0.192,-2.000,-6.438,-13.625,-2, -4, -4, 1, 0, 1, 1, 1
1503523906102,+0.349,+0.407,-0.456,-0.711,+0.957,-0.255,-0.199,-1.938,-12.312,-16.500,12, -4, -6, -4, -1, -1, -8, 11
1503523906124,+0.352,+0.404,-0.456,-0.711,+0.948,-0.246,-0.186,-2.312,-14.500,-17.438,-15, 5, 5, -2, 0, 0, 1, 3
1503523906140,+0.355,+0.402,-0.455,-0.711,+0.949,-0.231,-0.208,-0.812,-14.250,-17.062,-4, -10, -5, 0, -2, 0, 1, 5
1503523906161,+0.358,+0.400,-0.455,-0.711,+0.912,-0.220,-0.211,+1.125,-14.688,-17.312,1, 6, 7, -1, -1, 0, -2, -1
1503523906184,+0.360,+0.398,-0.454,-0.711,+0.943,-0.253,-0.185,-2.188,-11.250,-11.250,18, -3, -4, -1, 0, -1, -2, -16
1503523906199,+0.359,+0.398,-0.456,-0.711,+1.016,-0.252,-0.176,-4.750,+3.688,-1.625,-20, -10, -8, 0, 0, 1, 0, 9
1503523906231,+0.359,+0.397,-0.457,-0.711,+1.043,-0.214,-0.193,-5.812,-0.938,+0.938,-1, -3, -6, 0, 0, 1, 3, 4
1503523906244,+0.359,+0.395,-0.455,-0.712,+1.029,-0.202,-0.199,-7.062,-20.375,+0.312,0, 0, 0, -2, -1, 0, -1, 10
1503523906259,+0.361,+0.393,-0.453,-0.715,+0.951,-0.196,-0.218,-4.625,-29.062,-1.500,-2, -8, 0, -1, -2, 0, 5, 12
1503523906281,+0.362,+0.390,-0.450,-0.717,+0.899,-0.205,-0.238,-5.625,-22.562,+0.562,-2, 1, 0, 1, 0, -1, -4, -13
1503523906304,+0.361,+0.390,-0.449,-0.718,+0.912,-0.217,-0.240,-5.000,-6.562,+9.125,2, 5, 4, 0, -2, -2, 2, -2
1503523906319,+0.360,+0.390,-0.449,-0.719,+0.972,-0.207,-0.216,-4.938,-0.125,+11.625,21, 3, -6, -2, -1, -2, -4, -2
1503523908143,+0.340,+0.324,-0.427,-0.773,+0.939,-0.183,-0.380,+27.812,-14.188,+27.188,-16, -3, 3, -1, -4, -2, 2, -4
1503523908164,+0.340,+0.329,-0.421,-0.774,+0.896,-0.193,-0.407,+30.500,-17.438,+28.750,54, 26, 15, 2, -1, 0, 2, 55
1503523908181,+0.339,+0.334,-0.415,-0.775,+0.877,-0.211,-0.402,+33.125,-13.812,+31.312,19, 27, 10, 0, 0, -3, -2, -33
1503523908202,+0.338,+0.341,-0.410,-0.776,+0.898,-0.222,-0.384,+35.250,-10.938,+33.125,9, 2, 4, -1, -1, 1, -1, -1
1503523908225,+0.337,+0.347,-0.405,-0.776,+0.931,-0.255,-0.396,+38.500,-13.625,+33.812,-43, -10, -11, 0, 0, -3, -9, -101
1503523908240,+0.336,+0.353,-0.398,-0.777,+0.917,-0.268,-0.393,+40.312,-19.562,+33.875,39, 26, 1, -6, -6, -4, -5, 44
1503523908262,+0.336,+0.360,-0.391,-0.778,+0.860,-0.280,-0.393,+40.938,-22.125,+33.875,15, 12, 10, 1, 0, -1, 4, 7
1503523908285,+0.335,+0.366,-0.384,-0.779,+0.845,-0.294,-0.386,+42.250,-17.062,+35.438,15, -16, -8, 0, 1, 2, 2, 10
1503523908300,+0.334,+0.374,-0.377,-0.779,+0.874,-0.304,-0.387,+44.000,-16.188,+36.938,-9, -26, -9, 1, 0, 1, 2, 5
1503523908322,+0.333,+0.381,-0.370,-0.779,+0.863,-0.329,-0.370,+45.625,-17.750,+36.125,-16, 11, -14, 1, 0, -1, -1, 11
1503523908347,+0.333,+0.388,-0.363,-0.779,+0.846,-0.350,-0.375,+45.438,-19.938,+36.000,1, -1, -6, -1, 0, -4, -8, -46
1503523908360,+0.333,+0.395,-0.355,-0.779,+0.830,-0.337,-0.371,+49.375,-21.250,+35.625,16, 13, -2, -3, -2, -2, -3, 0
1503523908383,+0.333,+0.403,-0.348,-0.779,+0.830,-0.369,-0.374,+52.562,-20.125,+34.125,50, -17, -6, -2, 0, 1, 6, 41
