Timestamp,Orientation X,Orientation Y,Orientation Z,Orientation W,Accelerometer X,Accelerometer Y,Accelerometer Z,Gyroscope X,Gyroscope Y,Gyroscope Z,EMG1,EMG2,EMG3,EMG4,EMG5,EMG6,EMG7,EMG8,Roll,Yaw,Window
1503523878218,+0.517,+0.091,-0.258,-0.811,+0.531,+0.115,-0.821,-0.875,-0.625,+0.375,-1, -4, -1, -2, -1, -1, -1, 0,-1.1016575841136445,0.5424784824471345,0
1503523878241,+0.517,+0.091,-0.258,-0.812,+0.529,+0.118,-0.822,-0.938,-0.375,+0.562,0, -1, -2, -1, -2, -4, -1, 0,-1.1021280307956443,0.5429234633955579,0
1503523878268,+0.517,+0.091,-0.258,-0.812,+0.535,+0.115,-0.826,-0.688,-0.250,+0.500,1, -1, 0, 0, -1, 0, 0, -1,-1.1021280307956443,0.5429234633955579,0
1503523878280,+0.516,+0.091,-0.258,-0.812,+0.532,+0.114,-0.827,-0.188,-0.375,+0.625,-4, -2, 1, -1, -1, -2, -1, 0,-1.0995336117962313,0.5427665400152543,0
1503523878300,+0.516,+0.091,-0.258,-0.812,+0.534,+0.113,-0.825,-0.125,+0.188,+0.812,0, -2, 0, -3, -2, -1, -1, -1,-1.0995336117962313,0.5427665400152543,0
1503523878323,+0.516,+0.091,-0.257,-0.812,+0.532,+0.107,-0.820,-0.062,+0.625,+0.938,-1, -1, -1, 0, 0, -1, -1, -1,-1.0994504026333825,0.540830515455002,0
1503523878338,+0.516,+0.091,-0.258,-0.812,+0.536,+0.107,-0.825,-0.125,+1.188,+0.812,1, 0, -1, 2, 0, -1, -1, -1,-1.0995336117962313,0.5427665400152543,0
1503523878360,+0.516,+0.091,-0.258,-0.812,+0.546,+0.105,-0.814,-0.375,+0.625,+0.875,-2, -2, -2, -2, -2, 1, -1, 1,-1.0995336117962313,0.5427665400152543,0
1503523878383,+0.516,+0.091,-0.258,-0.812,+0.547,+0.109,-0.820,-0.438,+0.188,+0.938,0, -2, -1, -1, -1, -2, 0, -1,-1.0995336117962313,0.5427665400152543,0
1503523878398,+0.516,+0.091,-0.258,-0.812,+0.540,+0.110,-0.817,-0.438,-0.062,+1.250,-1, 1, 0, -2, -1, -2, -2, 0,-1.0995336117962313,0.5427665400152543,0
1503523878420,+0.516,+0.091,-0.258,-0.812,+0.541,+0.107,-0.823,-0.250,-0.312,+1.375,-2, -1, -1, -1, -3, -1, -1, -2,-1.0995336117962313,0.5427665400152543,0
1503523878443,+0.516,+0.091,-0.258,-0.812,+0.546,+0.109,-0.829,-0.375,-0.500,+1.188,1, -3, -3, -1, 0, -1, 1, -1,-1.0995336117962313,0.5427665400152543,0
1503523878458,+0.516,+0.092,-0.258,-0.812,+0.538,+0.109,-0.821,-0.312,-0.938,+1.188,2, 2, 2, 2, -1, 1, -1, 1,-1.1000976541716325,0.5438465617121714,0
1503523878480,+0.516,+0.092,-0.257,-0.812,+0.534,+0.099,-0.821,-0.312,-0.250,+1.062,-1, 1, 0, 0, -1, 0, -1, -1,-1.1000136484489915,0.5419109165223428,0
1503523878503,+0.515,+0.092,-0.258,-0.812,+0.539,+0.101,-0.819,-0.875,+0.438,+1.000,-2, -3, -1, -1, 0, 0, -2, -1,-1.097505214099463,0.5436880222944802,0
1503523878519,+0.515,+0.092,-0.258,-0.812,+0.539,+0.101,-0.824,-1.125,+0.375,+0.688,0, -1, 0, -1, -1, -1, -1, -3,-1.097505214099463,0.5436880222944802,0
1503523878540,+0.515,+0.092,-0.258,-0.812,+0.549,+0.108,-0.824,-1.375,-0.125,+0.500,-2, -1, -2, -1, 0, -2, -1, 0,-1.097505214099463,0.5436880222944802,0
1503523878564,+0.515,+0.092,-0.258,-0.813,+0.536,+0.113,-0.823,-1.188,-0.125,+0.562,-1, 1, 0, -2, -1, 0, -1, 0,-1.0979775857760568,0.5441325450777267,0
1503523878578,+0.515,+0.092,-0.258,-0.813,+0.531,+0.114,-0.824,-1.000,+0.125,+0.500,-1, -1, 0, 0, 0, 0, 1, 1,-1.0979775857760568,0.5441325450777267,0
1503523878600,+0.514,+0.092,-0.258,-0.813,+0.532,+0.107,-0.817,-0.750,+0.375,+0.938,0, 0, -2, -2, -1, -2, -1, -1,-1.0953877957569942,0.5439740604947756,0
1503523878623,+0.514,+0.092,-0.258,-0.813,+0.540,+0.113,-0.825,-0.812,+1.250,+0.750,-3, -2, 0, 0, 0, 0, -1, -1,-1.0953877957569942,0.5439740604947756,0
1503523878641,+0.514,+0.092,-0.258,-0.813,+0.541,+0.108,-0.816,-0.750,+0.938,+0.938,-1, -1, -1, 0, -1, 2, 0, -2,-1.0953877957569942,0.5439740604947756,0
1503523878660,+0.514,+0.092,-0.258,-0.813,+0.549,+0.101,-0.822,-0.562,+0.938,+0.812,-1, 2, 0, 0, 0, -1, -1, 0,-1.0953877957569942,0.5439740604947756,0
1503523878683,+0.514,+0.092,-0.259,-0.813,+0.547,+0.105,-0.816,-0.875,+0.938,+0.750,-2, -2, -2, -2, -1, 0, 0, 0,-1.0954725586031178,0.5459135330630598,0
1503523878698,+0.513,+0.092,-0.259,-0.813,+0.543,+0.108,-0.816,-1.375,+0.250,+0.875,-1, -1, 0, 0, -3, 0, 1, -1,-1.0928841869456922,0.5457551976963487,0
1503523878720,+0.513,+0.092,-0.259,-0.813,+0.537,+0.110,-0.816,-1.250,+0.375,+0.812,0, 0, 0, 0, -1, -1, -1, -1,-1.0928841869456922,0.5457551976963487,0
1503523878744,+0.513,+0.092,-0.259,-0.813,+0.538,+0.108,-0.825,-0.875,+0.188,+0.688,-2, 2, -2, -2, -2, -2, -1, 0,-1.0928841869456922,0.5457551976963487,0
1503523878758,+0.513,+0.092,-0.259,-0.813,+0.539,+0.102,-0.814,-1.062,+0.250,+0.875,-1, -2, 0, -1, -2, -1, -1, -1,-1.0928841869456922,0.5457551976963487,0
1503523878784,+0.513,+0.092,-0.259,-0.813,+0.542,+0.109,-0.819,-1.125,+1.250,+0.688,-1, -1, 1, 0, 2, 0, -1, -1,-1.0928841869456922,0.5457551976963487,0
1503523878803,+0.512,+0.092,-0.259,-0.814,+0.543,+0.105,-0.820,-0.875,+1.188,+0.938,-1, -1, -1, -2, 0, -1, -3, -1,-1.0907732124533254,0.5460425882746593,0
1503523878818,+0.512,+0.092,-0.260,-0.814,+0.551,+0.109,-0.816,-0.875,+1.188,+0.812,-1, -1, -1, 0, -1, -2, 0, -1,-1.0908587280775595,0.5479858841397072,0
1503523878841,+0.512,+0.093,-0.260,-0.814,+0.549,+0.108,-0.813,-0.812,+0.000,+0.875,-1, -2, 0, 0, 0, 1, -1, 0,-1.091430497630206,0.5490596447556186,0
1503523878863,+0.512,+0.093,-0.260,-0.814,+0.544,+0.104,-0.817,-0.938,-0.375,+0.938,-2, -2, 0, -1, -2, 0, 0, 0,-1.091430497630206,0.5490596447556186,0
1503523878878,+0.511,+0.093,-0.260,-0.814,+0.540,+0.108,-0.813,-0.875,-0.375,+1.188,-1, -1, -1, 1, -2, 0, -1, -1,-1.0888472615133895,0.5488999360288463,0
1503523878900,+0.511,+0.093,-0.260,-0.814,+0.542,+0.107,-0.819,-0.938,-0.188,+1.250,0, 0, -1, -1, 0, -2, 1, -1,-1.0888472615133895,0.5488999360288463,0
1503523878923,+0.511,+0.093,-0.260,-0.814,+0.542,+0.107,-0.827,-0.750,-0.250,+0.938,1, -1, -2, -1, -1, 0, -2, 0,-1.0888472615133895,0.5488999360288463,0
1503523878937,+0.511,+0.093,-0.260,-0.814,+0.541,+0.097,-0.820,-1.062,+0.000,+0.438,-1, -2, 0, -2, -2, -1, 0, -2,-1.0888472615133895,0.5488999360288463,0
1503523878960,+0.510,+0.093,-0.260,-0.814,+0.542,+0.099,-0.812,-1.375,+0.438,+0.562,-2, -2, -1, 0, 0, 1, -1, -1,-1.0862650185941851,0.5487401960963403,0
1503523878983,+0.510,+0.093,-0.260,-0.815,+0.553,+0.107,-0.813,-1.562,+0.312,+0.500,0, 0, -1, 1, -1, 0, 0, 1,-1.0867430749364282,0.5491867025245128,0
1503523878998,+0.510,+0.092,-0.260,-0.815,+0.551,+0.115,-0.821,-1.750,-0.188,+0.375,0, -2, -1, -1, 0, 0, -1, -1,-1.0861698911225748,0.5481164899804882,0
1503523879020,+0.510,+0.092,-0.260,-0.815,+0.532,+0.126,-0.816,-1.375,-0.625,+0.812,1, -1, -3, -2, -2, -2, -1, -2,-1.0861698911225748,0.5481164899804882,0
1503523879044,+0.510,+0.092,-0.260,-0.815,+0.530,+0.122,-0.825,-0.500,-0.188,+1.438,-1, -2, -2, 0, -3, -1, 0, -2,-1.0861698911225748,0.5481164899804882,0
1503523879057,+0.510,+0.092,-0.260,-0.815,+0.536,+0.107,-0.820,+0.062,+0.625,+1.875,-3, -1, 0, 1, 0, 0, 0, -1,-1.0861698911225748,0.5481164899804882,0
1503523879080,+0.509,+0.092,-0.260,-0.815,+0.544,+0.098,-0.822,-0.125,+1.312,+1.500,1, 0, -1, -2, -2, -2, -2, 0,-1.083589271566731,0.547958385519586,0
1503523879102,+0.509,+0.093,-0.260,-0.815,+0.545,+0.102,-0.815,-0.312,+1.062,+1.375,0, -3, 0, -2, 0, 0, 1, 0,-1.0841634843338939,0.5490270186273963,0
1503523879119,+0.509,+0.093,-0.260,-0.815,+0.558,+0.100,-0.811,-0.500,+0.875,+1.250,0, 1, -1, -1, 0, 0, 0, 0,-1.0841634843338939,0.5490270186273963,0
1503523879140,+0.508,+0.093,-0.261,-0.815,+0.559,+0.097,-0.815,-0.875,-0.062,+0.938,-1, -1, -1, 0, -2, -2, -2, 0,-1.0816729368111069,0.5508144018618016,0
1503523879163,+0.508,+0.093,-0.261,-0.816,+0.554,+0.103,-0.818,-1.688,-1.188,+0.500,0, 1, -1, -3, 0, 0, -2, 0,-1.0821532269714766,0.5512620371062132,0
1503523879185,+0.508,+0.093,-0.260,-0.816,+0.551,+0.111,-0.822,-1.688,-1.875,+0.375,-3, 0, 1, 0, -1, 1, -1, 0,-1.0820653646729763,0.549313740537047,0
1503523879204,+0.508,+0.092,-0.260,-0.816,+0.539,+0.108,-0.812,-1.438,-2.000,+0.188,1, 1, -1, 1, -2, 1, 1, 1,-1.0814907859432323,0.548247074996343,0
1503523879223,+0.508,+0.092,-0.260,-0.816,+0.534,+0.107,-0.825,-1.125,-1.500,+0.375,0, 0, 1, -1, -1, -2, -1, -1,-1.0814907859432323,0.548247074996343,0
1503523879238,+0.508,+0.092,-0.260,-0.816,+0.533,+0.100,-0.818,-1.438,-0.375,+0.125,-2, -3, -4, -1, -3, 0, 0, 0,-1.0814907859432323,0.548247074996343,0
1503523879260,+0.508,+0.092,-0.260,-0.816,+0.543,+0.110,-0.824,-1.250,+0.000,+0.062,-1, -4, 0, 0, 0, -1, -1, -2,-1.0814907859432323,0.548247074996343,0
1503523879283,+0.508,+0.092,-0.260,-0.816,+0.547,+0.115,-0.818,-1.062,+0.062,+0.125,0, -1, 0, -1, 0, -2, 0, -3,-1.0814907859432323,0.548247074996343,0
1503523879298,+0.507,+0.092,-0.260,-0.816,+0.545,+0.112,-0.815,-0.625,-0.438,+0.312,-3, 0, -1, 0, -1, 0, 0, 1,-1.0789138517177046,0.548088995744629,0
1503523879320,+0.507,+0.092,-0.260,-0.816,+0.543,+0.107,-0.820,-0.750,-0.312,+0.562,-4, 0, -2, 0, -1, 0, -2, -2,-1.0789138517177046,0.548088995744629,0
1503523879350,+0.507,+0.092,-0.260,-0.817,+0.540,+0.114,-0.823,-0.688,+0.125,+1.062,0, 2, 0, -1, 0, -1, -1, 0,-1.079395698107901,0.5485356627162097,0
1503523879365,+0.507,+0.092,-0.260,-0.817,+0.543,+0.106,-0.818,-0.312,-0.125,+0.938,-2, 1, 0, -1, -2, 0, 1, -1,-1.079395698107901,0.5485356627162097,0
1503523879381,+0.507,+0.092,-0.260,-0.817,+0.551,+0.098,-0.812,-0.688,-0.312,+0.562,1, -3, -3, -2, 1, -1, 0, -2,-1.079395698107901,0.5485356627162097,0
1503523879403,+0.507,+0.092,-0.260,-0.817,+0.542,+0.101,-0.814,-1.125,-0.750,+0.562,2, -1, -1, -1, -1, -2, 0, -2,-1.079395698107901,0.5485356627162097,0
1503523879419,+0.507,+0.092,-0.260,-0.817,+0.545,+0.103,-0.818,-1.500,-0.438,+0.562,-3, 0, 0, -1, -2, 0, 1, 0,-1.079395698107901,0.5485356627162097,0
1503523879440,+0.506,+0.091,-0.260,-0.817,+0.548,+0.105,-0.818,-1.812,-0.750,+0.375,-1, -1, -2, -2, -1, -1, -2, 1,-1.0762486772084727,0.5473161617383921,0
1503523879463,+0.506,+0.091,-0.260,-0.817,+0.552,+0.107,-0.819,-1.812,-1.625,+0.438,0, 0, 2, 0, 0, 0, 0, 0,-1.0762486772084727,0.5473161617383921,0
1503523879479,+0.506,+0.091,-0.260,-0.817,+0.549,+0.102,-0.810,-1.750,-2.375,+0.312,-1, -1, 0, -1, -1, -1, -2, -2,-1.0762486772084727,0.5473161617383921,0
1503523879500,+0.506,+0.091,-0.260,-0.818,+0.538,+0.105,-0.820,-2.062,-2.250,+0.500,0, -1, -2, 0, -1, 0, -3, 1,-1.076731902588954,0.5477630572549901,0
1503523879523,+0.506,+0.090,-0.260,-0.818,+0.535,+0.102,-0.818,-2.062,-2.250,+0.438,-2, 0, 0, -1, -1, -1, 0, 0,-1.076163032683136,0.5467036007440371,0
1503523879538,+0.505,+0.090,-0.259,-0.818,+0.542,+0.105,-0.824,-2.188,-1.688,+0.438,0, 0, 0, 0, 0, -1, 0, -1,-1.0735029160606564,0.54459864391211,0
1503523879560,+0.505,+0.090,-0.259,-0.818,+0.543,+0.110,-0.823,-1.938,-1.812,+0.062,-3, -1, 1, -1, 0, -2, -1, 0,-1.0735029160606564,0.54459864391211,0
1503523879584,+0.505,+0.089,-0.259,-0.818,+0.537,+0.111,-0.821,-1.750,-1.812,+0.312,5, -1, -2, -1, -2, -1, 0, 0,-1.0729370937180378,0.5435420174594698,0
1503523879598,+0.505,+0.089,-0.259,-0.818,+0.534,+0.113,-0.821,-1.625,-1.250,+0.625,-2, -2, -1, -1, 0, -1, -1, -2,-1.0729370937180378,0.5435420174594698,0
1503523879622,+0.505,+0.089,-0.259,-0.819,+0.540,+0.109,-0.821,-1.812,-1.188,+0.875,-5, -1, -1, -2, 1, 0, -1, -1,-1.073422478324362,0.543988314214536,0
1503523879642,+0.505,+0.088,-0.259,-0.819,+0.542,+0.106,-0.823,-1.875,-1.500,+0.875,1, -1, 1, 0, -1, -3, -2, -1,-1.0728605141552312,0.5429336908551482,0
1503523879658,+0.504,+0.088,-0.259,-0.819,+0.537,+0.113,-0.825,-1.750,-1.188,+0.438,5, -4, -2, -1, -2, 1, -1, 1,-1.0702870332671177,0.5427819502583671,0
1503523879682,+0.504,+0.088,-0.259,-0.819,+0.532,+0.105,-0.825,-1.500,-1.312,+0.562,-3, 2, -2, 1, 0, 2, 0, -2,-1.0702870332671177,0.5427819502583671,0
1503523879702,+0.504,+0.088,-0.259,-0.819,+0.533,+0.108,-0.828,-1.375,-0.125,+0.562,-2, 0, 1, -1, 0, -1, 0, -2,-1.0702870332671177,0.5427819502583671,0
1503523879719,+0.504,+0.088,-0.259,-0.819,+0.535,+0.104,-0.828,-1.188,-0.250,+0.438,0, -2, -2, -2, -1, -1, 0, 1,-1.0702870332671177,0.5427819502583671,0
1503523879740,+0.504,+0.088,-0.259,-0.819,+0.542,+0.110,-0.820,-1.312,+0.312,+0.312,-2, -2, 1, 0, -2, -1, -1, -1,-1.0702870332671177,0.5427819502583671,0
1503523879763,+0.504,+0.088,-0.259,-0.820,+0.544,+0.114,-0.814,-1.062,-0.500,+0.438,-4, -1, -4, -1, -1, -1, -1, -1,-1.0707737550405483,0.5432284709774765,0
1503523879781,+0.504,+0.088,-0.259,-0.820,+0.534,+0.113,-0.822,-0.875,-0.562,+0.625,2, -2, 1, 0, -1, -2, 0, -1,-1.0707737550405483,0.5432284709774765,0
1503523879800,+0.503,+0.087,-0.259,-0.820,+0.535,+0.115,-0.821,-0.562,-0.500,+0.875,4, -1, -1, 0, -1, 0, -1, 0,-1.0676427969658606,0.5420273475352113,0
1503523879824,+0.503,+0.087,-0.259,-0.820,+0.534,+0.110,-0.825,-0.438,-0.375,+1.125,-1, 0, -1, -2, -1, -2, -3, 0,-1.0676427969658606,0.5420273475352113,0
1503523879838,+0.503,+0.088,-0.259,-0.820,+0.536,+0.108,-0.825,-0.188,-0.062,+1.188,-1, 0, -1, -2, 0, 0, 0, 0,-1.0682029227510583,0.5430767843672519,0
1503523879860,+0.503,+0.088,-0.259,-0.820,+0.535,+0.097,-0.821,-0.312,-0.250,+0.875,-4, -1, -1, -2, 1, -1, 1, -2,-1.0682029227510583,0.5430767843672519,0
1503523879884,+0.503,+0.088,-0.259,-0.820,+0.537,+0.104,-0.823,-0.562,+0.250,+0.562,-2, 0, 1, 1, 0, 0, -1, -1,-1.0682029227510583,0.5430767843672519,0
1503523879898,+0.503,+0.088,-0.259,-0.820,+0.538,+0.104,-0.823,-0.875,+0.500,+0.312,-2, 0, 0, 0, -1, -1, -2, 0,-1.0682029227510583,0.5430767843672519,0
1503523879920,+0.503,+0.088,-0.259,-0.820,+0.546,+0.104,-0.819,-1.250,+0.438,+0.312,4, -1, 0, 0, -1, -2, -1, -2,-1.0682029227510583,0.5430767843672519,0
1503523879943,+0.503,+0.088,-0.259,-0.820,+0.543,+0.113,-0.815,-1.188,+0.312,+0.250,0, 0, 0, -2, -2, -2, 1, -2,-1.0682029227510583,0.5430767843672519,0
1503523879960,+0.502,+0.088,-0.259,-0.820,+0.543,+0.107,-0.819,-1.188,-0.500,+0.375,-3, -2, -2, -1, -2, 1, -2, -1,-1.065633197322099,0.5429250699747773,0
1503523879985,+0.502,+0.088,-0.259,-0.820,+0.540,+0.113,-0.821,-1.125,-0.688,+0.625,-2, 0, -1, -1, -2, -1, -1, -2,-1.065633197322099,0.5429250699747773,0
1503523880002,+0.502,+0.087,-0.259,-0.820,+0.538,+0.111,-0.822,-1.062,-0.250,+0.812,-8, -2, -2, -1, 1, 0, -1, 0,-1.06507207266647,0.5418772292139407,0
1503523880018,+0.502,+0.087,-0.259,-0.821,+0.536,+0.108,-0.823,-1.000,-0.375,+1.000,4, 0, -1, 0, -2, -2, -2, 2,-1.0655616467199902,0.5423240533257537,0
1503523880040,+0.502,+0.088,-0.259,-0.821,+0.544,+0.101,-0.818,-0.875,-0.438,+0.625,0, -1, 1, 0, 0, -1, 0, -1,-1.066122135425196,0.5433715135715991,0
1503523880062,+0.501,+0.087,-0.259,-0.821,+0.540,+0.103,-0.826,-1.125,-0.188,+0.312,-6, -1, -1, -1, 0, 0, -3, -2,-1.0629935745736303,0.5421739886527959,0
1503523880078,+0.501,+0.087,-0.259,-0.821,+0.537,+0.107,-0.821,-1.312,+0.688,+0.125,-2, -1, -2, 0, -2, 0, -1, -2,-1.0629935745736303,0.5421739886527959,0
1503523880100,+0.501,+0.087,-0.259,-0.821,+0.542,+0.113,-0.821,-1.688,-0.125,+0.500,-1, 0, -1, 0, -1, 0, -1, -1,-1.0629935745736303,0.5421739886527959,0
1503523880123,+0.501,+0.087,-0.260,-0.821,+0.543,+0.112,-0.816,-1.625,+0.000,+0.500,4, -1, -1, -2, 0, -1, 0, 0,-1.0630787659863292,0.5441296393070096,0
1503523880139,+0.501,+0.087,-0.259,-0.821,+0.535,+0.110,-0.815,-1.188,-0.875,+0.375,0, 0, -1, -2, 0, -1, 1, -1,-1.0629935745736303,0.5421739886527959,0
1503523880161,+0.501,+0.087,-0.259,-0.821,+0.537,+0.108,-0.831,-1.188,-0.500,+0.375,2, 0, 1, -1, -3, 0, 0, -1,-1.0629935745736303,0.5421739886527959,0
1503523880185,+0.501,+0.087,-0.259,-0.821,+0.532,+0.109,-0.819,-1.250,-0.062,+0.312,-1, -2, -1, 0, 0, 0, -2, 0,-1.0629935745736303,0.5421739886527959,0
1503523880199,+0.500,+0.087,-0.259,-0.821,+0.536,+0.108,-0.824,-1.125,-0.125,+0.250,-2, 0, 0, -2, 1, -2, 0, -1,-1.0604266417782535,0.5420238968440642,0
1503523880225,+0.500,+0.087,-0.259,-0.822,+0.543,+0.111,-0.816,-1.062,-0.312,+0.375,0, -1, -3, -2, -2, -2, -1, 0,-1.0609183744536224,0.5424706420294636,0
1503523880242,+0.500,+0.087,-0.260,-0.822,+0.540,+0.113,-0.821,-0.938,-0.500,+0.250,6, -3, -1, 0, -1, 0, -2, -1,-1.061003847706649,0.5444276768435329,0
1503523880259,+0.500,+0.086,-0.259,-0.822,+0.537,+0.111,-0.826,-0.688,-0.688,+0.438,-4, -1, -1, -1, -2, 0, 0, -2,-1.060359732750669,0.5414283732471743,0
1503523880281,+0.500,+0.086,-0.259,-0.822,+0.534,+0.109,-0.819,-0.875,-0.562,+0.562,0, -1, -1, -1, -1, -2, -3, -1,-1.060359732750669,0.5414283732471743,0
1503523880303,+0.500,+0.086,-0.259,-0.822,+0.537,+0.105,-0.827,-0.688,-0.875,+0.562,2, -2, -3, -2, -1, -1, -2, 0,-1.060359732750669,0.5414283732471743,0
1503523880322,+0.500,+0.086,-0.259,-0.822,+0.533,+0.106,-0.824,-0.938,-0.250,+0.312,-3, 0, -2, 1, 0, 0, 0, 0,-1.060359732750669,0.5414283732471743,0
1503523880341,+0.500,+0.086,-0.259,-0.822,+0.537,+0.105,-0.817,-0.938,-0.688,+0.312,-4, 0, 0, -1, 0, -2, -1, 0,-1.060359732750669,0.5414283732471743,0
1503523880363,+0.499,+0.086,-0.259,-0.822,+0.535,+0.106,-0.819,-1.188,-0.188,+0.375,2, -2, 1, 2, -1, 0, -1, 0,-1.0577944643626098,0.5412799339504281,0
1503523880379,+0.499,+0.086,-0.259,-0.822,+0.539,+0.114,-0.820,-1.312,+0.125,+0.438,-10, 1, 0, -1, -2, 0, 0, -1,-1.0577944643626098,0.5412799339504281,0
1503523880401,+0.499,+0.086,-0.259,-0.822,+0.538,+0.111,-0.821,-1.250,-0.625,+0.750,4, 0, -2, -1, 0, 0, -1, 0,-1.0577944643626098,0.5412799339504281,0
1503523880423,+0.499,+0.086,-0.259,-0.823,+0.541,+0.111,-0.823,-1.125,-0.125,+0.625,0, -2, -2, -1, 0, 1, 0, -1,-1.058287453915616,0.5417268976170007,0
1503523880439,+0.499,+0.086,-0.259,-0.823,+0.538,+0.108,-0.820,-1.062,-0.625,+0.938,1, -1, 2, 0, -1, 0, -2, -3,-1.058287453915616,0.5417268976170007,0
1503523880461,+0.498,+0.086,-0.259,-0.823,+0.535,+0.106,-0.819,-1.000,-0.188,+1.000,0, -2, -2, -2, 0, 0, -1, 1,-1.055724832493145,0.5415785116214707,0
1503523880483,+0.498,+0.086,-0.259,-0.823,+0.538,+0.111,-0.819,-1.062,-0.562,+0.812,-4, 1, 0, -2, -3, -2, 0, -1,-1.055724832493145,0.5415785116214707,0
1503523880500,+0.498,+0.086,-0.259,-0.823,+0.533,+0.100,-0.825,-1.125,-0.312,+0.688,-1, -2, 1, 0, -2, -1, 0, -1,-1.055724832493145,0.5415785116214707,0
1503523880522,+0.498,+0.086,-0.259,-0.823,+0.540,+0.109,-0.824,-1.188,+0.125,+0.312,-5, 2, 0, -1, 0, 0, -1, -1,-1.055724832493145,0.5415785116214707,0
1503523880543,+0.498,+0.086,-0.259,-0.823,+0.541,+0.112,-0.817,-1.125,-0.312,+0.375,-5, -2, -1, -2, 0, -2, -2, 1,-1.055724832493145,0.5415785116214707,0
1503523880560,+0.498,+0.086,-0.259,-0.823,+0.536,+0.109,-0.817,-1.000,-0.062,+0.750,3, 1, -1, -2, -1, 1, 0, -1,-1.055724832493145,0.5415785116214707,0
1503523880581,+0.497,+0.086,-0.259,-0.823,+0.541,+0.112,-0.819,-1.125,+0.250,+0.688,-2, -1, -1, 0, -2, -3, -2, -1,-1.0531633882777212,0.5414300991296647,0
1503523880602,+0.497,+0.086,-0.259,-0.824,+0.539,+0.110,-0.823,-1.000,-0.562,+0.812,4, -1, -1, -1, -2, -1, -1, 0,-1.0536584525575845,0.5418769820714457,0
1503523880621,+0.497,+0.086,-0.259,-0.824,+0.539,+0.108,-0.822,-1.188,-0.312,+0.625,1, -5, -2, 0, 0, 0, 1, -1,-1.0536584525575845,0.5418769820714457,0
1503523880648,+0.497,+0.085,-0.259,-0.824,+0.533,+0.104,-0.826,-1.000,-0.375,+0.312,-1, 0, -1, 0, -1, 0, 0, -2,-1.0531013094065331,0.5408418866561577,0
1503523880664,+0.497,+0.085,-0.259,-0.824,+0.526,+0.107,-0.822,-0.938,+0.125,+0.312,-4, -2, -1, 0, -1, 0, 0, -2,-1.0531013094065331,0.5408418866561577,0
1503523880679,+0.497,+0.085,-0.259,-0.824,+0.537,+0.111,-0.826,-0.875,+0.750,+0.250,-2, -1, 1, 0, 0, 0, -1, -1,-1.0531013094065331,0.5408418866561577,0
1503523880701,+0.496,+0.085,-0.260,-0.824,+0.545,+0.110,-0.818,-0.938,+0.312,+0.500,-3, 0, 0, -1, 0, -2, -2, 0,-1.050626644602325,0.5426560534526764,0
1503523880723,+0.496,+0.086,-0.260,-0.824,+0.545,+0.110,-0.821,-0.625,-0.125,+0.625,0, -2, -1, 1, -2, -3, -1, -2,-1.0511856539125288,0.543689155311874,0
1503523880741,+0.496,+0.086,-0.260,-0.824,+0.542,+0.112,-0.821,-0.562,-0.750,+0.688,-1, -1, -3, -1, -1, 0, -1, -1,-1.0511856539125288,0.543689155311874,0
1503523880767,+0.496,+0.086,-0.260,-0.824,+0.542,+0.106,-0.817,-0.625,-0.938,+0.688,-2, -2, -1, -2, -1, -2, -1, -1,-1.0511856539125288,0.543689155311874,0
1503523880783,+0.496,+0.085,-0.259,-0.824,+0.535,+0.108,-0.824,-0.875,-1.125,+0.500,1, 1, -1, -1, 0, -1, -1, 1,-1.0505415364655604,0.5406951290807007,0
1503523880801,+0.496,+0.085,-0.259,-0.825,+0.533,+0.107,-0.823,-0.938,-0.938,+0.438,-6, -1, 0, -1, -2, 1, -2, -3,-1.0510378109543452,0.5411422273782369,0
1503523880824,+0.496,+0.085,-0.259,-0.825,+0.536,+0.111,-0.827,-1.125,-0.500,+0.250,-1, -1, 1, -1, 0, 0, 1, -1,-1.0510378109543452,0.5411422273782369,0
1503523880842,+0.495,+0.085,-0.259,-0.825,+0.532,+0.107,-0.819,-1.125,-0.688,+0.438,7, 0, 0, 0, -1, 0, -1, 0,-1.0484806787622225,0.5409955227504918,0
1503523880860,+0.495,+0.085,-0.259,-0.825,+0.532,+0.108,-0.814,-1.250,+0.125,+0.438,0, 0, -1, -1, -1, -2, -1, -1,-1.0484806787622225,0.5409955227504918,0
1503523880881,+0.495,+0.085,-0.259,-0.825,+0.539,+0.109,-0.825,-1.188,-0.188,+0.750,1, 0, 0, 1, 0, 0, 1, -2,-1.0484806787622225,0.5409955227504918,0
1503523880902,+0.495,+0.085,-0.259,-0.825,+0.542,+0.109,-0.822,-1.062,-0.312,+0.625,-2, -3, -1, -2, 0, -2, 1, 0,-1.0484806787622225,0.5409955227504918,0
1503523880919,+0.495,+0.085,-0.259,-0.825,+0.540,+0.106,-0.818,-1.125,-0.875,+0.562,3, 0, -1, -1, -1, -1, 0, 0,-1.0484806787622225,0.5409955227504918,0
1503523880941,+0.495,+0.085,-0.259,-0.825,+0.535,+0.111,-0.823,-1.375,-0.625,+0.500,-5, -1, -3, 0, -1, -1, -1, 0,-1.0484806787622225,0.5409955227504918,0
1503523880963,+0.494,+0.084,-0.259,-0.825,+0.530,+0.110,-0.817,-1.125,-0.875,+0.750,0, -1, 0, 0, 0, -1, -1, 0,-1.0453685106998274,0.5398205010234395,0
1503523880979,+0.494,+0.084,-0.259,-0.826,+0.533,+0.110,-0.824,-1.125,+0.000,+0.625,-1, -1, 1, -1, 0, -2, 0, -3,-1.0458673952991027,0.5402678911952316,0
1503523881001,+0.494,+0.084,-0.259,-0.826,+0.533,+0.109,-0.823,-0.938,-0.188,+0.562,5, -2, -2, -1, 0, 0, -2, -1,-1.0458673952991027,0.5402678911952316,0
1503523881024,+0.494,+0.084,-0.259,-0.826,+0.531,+0.105,-0.823,-1.000,+0.312,+0.438,-4, -2, -1, -1, -1, 0, -1, 0,-1.0458673952991027,0.5402678911952316,0
1503523881039,+0.494,+0.084,-0.259,-0.826,+0.539,+0.113,-0.829,-0.875,+0.000,+0.438,-2, 0, -1, -1, 0, 0, -2, 0,-1.0458673952991027,0.5402678911952316,0
1503523881061,+0.494,+0.084,-0.259,-0.826,+0.541,+0.111,-0.821,-0.938,+0.188,+0.688,6, -2, -1, -2, -2, -2, 1, 0,-1.0458673952991027,0.5402678911952316,0
1503523881083,+0.493,+0.084,-0.259,-0.826,+0.541,+0.109,-0.814,-0.812,+0.125,+0.812,-3, 0, 0, -1, -2, -1, 0, 0,-1.0433131538962617,0.5401228179749203,0
1503523881099,+0.493,+0.084,-0.259,-0.826,+0.528,+0.115,-0.819,-0.812,+0.125,+0.938,-3, 1, 0, -1, -1, 0, -1, -1,-1.0433131538962617,0.5401228179749203,0
1503523881123,+0.493,+0.084,-0.260,-0.826,+0.538,+0.113,-0.821,-0.750,-0.062,+1.000,-4, -4, -3, -1, -3, -1, -2, -1,-1.0433983100399167,0.5420870657211402,0
1503523881143,+0.493,+0.084,-0.259,-0.826,+0.535,+0.108,-0.832,-0.562,-0.188,+1.000,3, 0, 0, -2, 1, 1, 1, -1,-1.0433131538962617,0.5401228179749203,0
1503523881166,+0.493,+0.084,-0.259,-0.826,+0.533,+0.107,-0.824,-0.188,+0.188,+0.875,-9, 0, 0, 0, -1, -1, 1, -4,-1.0433131538962617,0.5401228179749203,0
1503523881181,+0.493,+0.084,-0.259,-0.826,+0.533,+0.102,-0.817,-0.188,+0.750,+1.062,2, -1, 0, -2, 1, 1, -2, 0,-1.0433131538962617,0.5401228179749203,0
1503523881203,+0.493,+0.084,-0.259,-0.826,+0.547,+0.109,-0.818,-0.125,+0.625,+1.125,-10, -4, -1, -1, -2, -3, -1, -2,-1.0433131538962617,0.5401228179749203,0
1503523881225,+0.493,+0.084,-0.259,-0.826,+0.548,+0.111,-0.816,-0.125,+0.625,+0.562,2, 0, -1, -2, -2, -1, -1, 0,-1.0433131538962617,0.5401228179749203,0
1503523881241,+0.493,+0.085,-0.259,-0.826,+0.545,+0.100,-0.817,+0.062,-0.688,+0.500,3, -1, 0, -1, -1, 0, 0, 1,-1.0438697456771018,0.5411491304882062,0
1503523881271,+0.493,+0.085,-0.259,-0.826,+0.539,+0.098,-0.815,-0.500,-0.688,+0.375,-5, 0, -2, 0, -2, -1, -1, 0,-1.0438697456771018,0.5411491304882062,0
1503523881285,+0.492,+0.085,-0.259,-0.827,+0.540,+0.104,-0.823,-0.875,-0.750,+0.250,-1, -1, 0, -2, -2, -2, -1, 0,-1.041817906949549,0.5414493603350267,0
1503523881301,+0.492,+0.084,-0.259,-0.827,+0.532,+0.110,-0.823,-1.125,-0.625,+0.375,-1, 0, -1, 0, 1, -1, 1, -2,-1.041260975966602,0.5404250253652186,0
1503523881326,+0.492,+0.084,-0.259,-0.827,+0.535,+0.108,-0.815,-1.000,-0.312,+0.312,2, -2, -1, -1, -1, -1, -1, 2,-1.041260975966602,0.5404250253652186,0
1503523881345,+0.492,+0.084,-0.259,-0.827,+0.536,+0.109,-0.822,-1.062,-0.188,+0.125,-4, -1, -1, 0, 0, -1, 0, -1,-1.041260975966602,0.5404250253652186,0
1503523881361,+0.492,+0.084,-0.259,-0.827,+0.536,+0.106,-0.820,-1.125,+0.000,+0.312,0, 0, -2, 0, -1, 0, 0, -1,-1.041260975966602,0.5404250253652186,0
1503523881383,+0.492,+0.084,-0.259,-0.827,+0.537,+0.107,-0.813,-1.062,-0.062,+0.688,-3, -1, -3, -1, -1, -1, -1, -2,-1.041260975966602,0.5404250253652186,0
1503523881405,+0.492,+0.084,-0.259,-0.827,+0.537,+0.110,-0.820,-1.312,+0.062,+1.062,2, 1, -1, -1, 0, -1, -1, 0,-1.041260975966602,0.5404250253652186,0
1503523881421,+0.491,+0.084,-0.260,-0.827,+0.547,+0.106,-0.820,-1.375,-0.062,+1.062,-1, 0, 0, -1, 2, 0, 0, -1,-1.0387964468837025,0.5422457728334424,0
1503523881443,+0.491,+0.084,-0.259,-0.827,+0.537,+0.106,-0.817,-1.188,-0.812,+0.938,-1, 0, 0, 0, -2, 0, -1, 0,-1.038710617543946,0.5402799794908362,0
1503523881465,+0.491,+0.084,-0.260,-0.828,+0.537,+0.106,-0.818,-1.500,-0.438,+0.812,3, -2, -1, 0, -3, 0, -1, 0,-1.0392976395000462,0.5426941288777943,0
1503523881481,+0.491,+0.084,-0.260,-0.828,+0.534,+0.103,-0.820,-1.375,-0.312,+0.812,-1, -1, 0, -1, 1, 0, -1, -1,-1.0392976395000462,0.5426941288777943,0
1503523881503,+0.490,+0.084,-0.260,-0.828,+0.541,+0.107,-0.819,-1.562,-0.062,+0.562,-10, -2, -1, -1, -2, -2, -2, 0,-1.0367503189424032,0.542549301887229,0
1503523881528,+0.490,+0.084,-0.260,-0.828,+0.534,+0.108,-0.821,-1.500,-0.250,+0.625,3, 1, -1, -1, 1, 1, 1, -2,-1.0367503189424032,0.542549301887229,0
1503523881541,+0.490,+0.084,-0.260,-0.828,+0.534,+0.106,-0.821,-1.125,-0.125,+0.438,1, -1, 1, 0, -1, 0, -3, -2,-1.0367503189424032,0.542549301887229,0
1503523881563,+0.490,+0.084,-0.260,-0.828,+0.539,+0.110,-0.819,-1.250,+0.062,+0.312,3, 0, 0, 0, -2, -1, -2, 0,-1.0367503189424032,0.542549301887229,0
1503523881585,+0.490,+0.084,-0.260,-0.828,+0.538,+0.105,-0.824,-0.938,-0.438,+0.438,6, -1, -4, -1, -1, -1, -1, -1,-1.0367503189424032,0.542549301887229,0
1503523881602,+0.490,+0.084,-0.260,-0.828,+0.543,+0.108,-0.817,-1.062,-0.125,+0.562,0, 0, 1, -1, -1, 1, 0, 1,-1.0367503189424032,0.542549301887229,0
1503523881623,+0.489,+0.084,-0.260,-0.828,+0.538,+0.109,-0.816,-1.062,-0.062,+0.812,-4, -1, 0, 0, -1, 0, 0, -1,-1.034204271135657,0.5424044496007535,0
1503523881645,+0.489,+0.083,-0.260,-0.828,+0.545,+0.108,-0.820,-1.375,-0.312,+0.812,0, -2, 0, -1, 0, -2, -2, -1,-1.033647347249166,0.5413873234639248,0
1503523881663,+0.489,+0.083,-0.260,-0.828,+0.538,+0.107,-0.820,-1.250,-0.688,+0.688,-14, -2, -3, -2, -1, -1, -1, 0,-1.033647347249166,0.5413873234639248,0
1503523881683,+0.489,+0.083,-0.260,-0.829,+0.534,+0.105,-0.816,-1.188,-0.625,+0.375,1, -2, -2, 0, -2, -1, -2, -1,-1.0341510057714074,0.5418359670905042,0
1503523881705,+0.489,+0.083,-0.260,-0.829,+0.533,+0.106,-0.824,-1.188,+0.000,+0.188,-3, 0, -2, 1, 0, 0, 0, -1,-1.0341510057714074,0.5418359670905042,0
1503523881721,+0.489,+0.083,-0.260,-0.829,+0.536,+0.108,-0.821,-1.000,+0.188,+0.188,-8, -3, -1, 0, -1, -2, -3, -1,-1.0341510057714074,0.5418359670905042,0
1503523881743,+0.488,+0.083,-0.260,-0.829,+0.540,+0.107,-0.817,-0.812,+0.125,+0.250,3, 1, -3, -2, -1, -1, 0, -1,-1.031606639401587,0.5416927725570977,0
1503523881765,+0.488,+0.083,-0.260,-0.829,+0.546,+0.109,-0.818,-0.750,-0.188,+0.438,-4, -2, 1, 0, -1, 2, 0, -2,-1.031606639401587,0.5416927725570977,0
1503523881781,+0.488,+0.083,-0.260,-0.829,+0.537,+0.109,-0.817,-0.625,-1.062,+0.812,3, -1, -1, -1, -2, -1, -1, 0,-1.031606639401587,0.5416927725570977,0
1503523881804,+0.488,+0.083,-0.260,-0.829,+0.545,+0.107,-0.818,-1.000,-0.750,+0.750,-1, 0, 1, -1, -1, -2, -1, -1,-1.031606639401587,0.5416927725570977,0
1503523881825,+0.488,+0.083,-0.260,-0.829,+0.534,+0.104,-0.823,-0.812,-1.000,+0.812,0, 1, -3, -1, -2, 0, 0, -2,-1.031606639401587,0.5416927725570977,0
1503523881841,+0.488,+0.083,-0.260,-0.829,+0.533,+0.106,-0.824,-0.875,-0.812,+0.500,-4, -2, 0, 0, -1, 0, -2, -2,-1.031606639401587,0.5416927725570977,0
1503523881864,+0.487,+0.083,-0.260,-0.830,+0.529,+0.104,-0.829,-0.938,-0.438,+0.375,-8, 0, 0, 1, -1, 0, 0, -3,-1.0295690321035407,0.5419981094091852,0
1503523881885,+0.487,+0.083,-0.260,-0.830,+0.533,+0.109,-0.824,-1.062,+0.250,+0.375,7, -1, -2, -1, 0, -1, -1, 2,-1.0295690321035407,0.5419981094091852,0
1503523881902,+0.487,+0.083,-0.260,-0.830,+0.538,+0.110,-0.826,-1.000,+0.312,+0.500,2, -2, 1, -2, 1, -1, -1, 0,-1.0295690321035407,0.5419981094091852,0
1503523881931,+0.487,+0.083,-0.260,-0.830,+0.542,+0.109,-0.824,-1.188,+0.250,+0.812,7, 0, -1, 0, -2, -1, -1, -1,-1.0295690321035407,0.5419981094091852,0
1503523881945,+0.487,+0.083,-0.260,-0.830,+0.545,+0.108,-0.819,-1.250,-0.375,+0.938,-6, 0, -2, -2, -1, -1, -1, 0,-1.0295690321035407,0.5419981094091852,0
1503523881963,+0.486,+0.083,-0.260,-0.830,+0.544,+0.106,-0.820,-1.188,-0.750,+0.938,0, 0, 0, 0, 0, 0, 0, -1,-1.0270285919878746,0.5418549428270617,0
1503523881983,+0.486,+0.083,-0.260,-0.830,+0.535,+0.112,-0.824,-1.250,-0.812,+0.750,0, 0, 1, 0, 0, -3, -1, 0,-1.0270285919878746,0.5418549428270617,0
1503523882006,+0.486,+0.082,-0.260,-0.830,+0.534,+0.112,-0.820,-1.188,-0.688,+0.688,-10, -3, -1, 0, 0, 0, 0, -2,-1.0264732142472983,0.5408450121716708,0
1503523882021,+0.486,+0.082,-0.260,-0.830,+0.538,+0.105,-0.829,-1.188,+0.000,+0.750,1, 0, -1, 2, -1, -1, 0, -1,-1.0264732142472983,0.5408450121716708,0
1503523882044,+0.486,+0.082,-0.260,-0.831,+0.539,+0.109,-0.822,-1.188,+0.312,+0.500,-3, 0, 0, -1, 1, -1, -4, -3,-1.0269797313796576,0.5412937744208199,0
1503523882068,+0.486,+0.082,-0.260,-0.831,+0.534,+0.106,-0.821,-0.938,+0.188,+0.500,-2, -1, -2, -1, -1, 1, 0, -2,-1.0269797313796576,0.5412937744208199,0
1503523882081,+0.485,+0.082,-0.260,-0.831,+0.543,+0.106,-0.819,-1.125,+0.375,+0.500,4, -1, 0, -1, -1, 0, -2, 0,-1.0244409751817347,0.5411522678396389,0
1503523882111,+0.485,+0.082,-0.260,-0.831,+0.543,+0.109,-0.815,-1.188,+0.062,+0.500,9, -1, -1, -1, -1, -3, -1, 1,-1.0244409751817347,0.5411522678396389,0
1503523882126,+0.485,+0.082,-0.260,-0.831,+0.548,+0.109,-0.827,-1.250,-0.375,+0.438,2, 1, -1, 0, 0, 0, -1, 0,-1.0244409751817347,0.5411522678396389,0
1503523882141,+0.485,+0.082,-0.260,-0.831,+0.539,+0.107,-0.822,-1.062,-0.938,+0.750,0, -1, -2, -2, -2, 0, -1, 0,-1.0244409751817347,0.5411522678396389,0
1503523882164,+0.485,+0.082,-0.260,-0.831,+0.533,+0.109,-0.825,-1.000,-0.562,+0.750,-3, -2, -1, 0, 0, -1, -2, -2,-1.0244409751817347,0.5411522678396389,0
1503523882186,+0.484,+0.082,-0.260,-0.831,+0.531,+0.108,-0.829,-1.188,-0.500,+1.125,-7, 1, 0, -1, -1, 0, 0, -1,-1.0219035538343322,0.5410107371855003,0
1503523882201,+0.484,+0.082,-0.260,-0.831,+0.538,+0.113,-0.824,-1.375,+0.312,+0.750,3, -1, -1, 0, -1, -1, -2, -1,-1.0219035538343322,0.5410107371855003,0
1503523882225,+0.484,+0.082,-0.260,-0.831,+0.533,+0.102,-0.824,-0.938,+0.062,+0.562,2, -2, -3, 1, 0, 0, -1, 1,-1.0219035538343322,0.5410107371855003,0
1503523882246,+0.484,+0.082,-0.260,-0.831,+0.538,+0.103,-0.829,-0.938,+0.625,+0.250,-1, 1, 0, -1, 0, 1, 0, 0,-1.0219035538343322,0.5410107371855003,0
1503523882261,+0.484,+0.082,-0.261,-0.831,+0.541,+0.105,-0.814,-1.062,+0.750,+0.250,1, -2, -1, -1, 0, -1, -3, -1,-1.0219897191679,0.5429855347723577,0
1503523882284,+0.484,+0.082,-0.261,-0.832,+0.549,+0.105,-0.825,-1.125,+0.188,+0.375,-2, -2, -2, -1, -2, -2, -2, 0,-1.02249781054933,0.5434354131925234,0
1503523882306,+0.483,+0.082,-0.261,-0.832,+0.542,+0.110,-0.820,-1.062,-0.688,+0.562,4, -3, -1, 0, -1, -2, -1, 1,-1.0199633955830405,0.543294098410771,0
1503523882321,+0.483,+0.082,-0.261,-0.832,+0.535,+0.108,-0.814,-0.812,-0.875,+0.750,-19, -1, -2, 0, -2, -1, 0, -3,-1.0199633955830405,0.543294098410771,0
1503523882343,+0.483,+0.082,-0.260,-0.832,+0.531,+0.107,-0.831,-0.812,-1.000,+0.812,-4, -1, -1, 0, -1, 1, -1, 1,-1.0198769812056432,0.5413179316751922,0
1503523882366,+0.483,+0.082,-0.260,-0.832,+0.537,+0.106,-0.826,-0.938,-0.500,+0.688,-2, -1, 0, -1, -2, 0, 0, -2,-1.0198769812056432,0.5413179316751922,0
1503523882381,+0.483,+0.082,-0.260,-0.832,+0.533,+0.108,-0.825,-0.750,-0.625,+0.688,3, 0, 0, 0, 0, -2, -1, 0,-1.0198769812056432,0.5413179316751922,0
1503523882404,+0.483,+0.082,-0.260,-0.832,+0.537,+0.108,-0.824,-1.000,+0.188,+0.562,-8, -1, -1, 0, 1, 0, -1, -3,-1.0198769812056432,0.5413179316751922,0
1503523882426,+0.482,+0.082,-0.260,-0.832,+0.540,+0.108,-0.816,-1.000,-0.188,+0.625,-5, -3, -2, -2, -1, 0, -1, 0,-1.0173435312399228,0.5411764292039808,0
1503523882441,+0.482,+0.082,-0.260,-0.832,+0.542,+0.104,-0.825,-1.250,+0.000,+0.688,-1, 0, 2, 0, 1, 0, -1, -3,-1.0173435312399228,0.5411764292039808,0
1503523882464,+0.482,+0.082,-0.260,-0.833,+0.539,+0.106,-0.817,-0.875,-0.188,+0.750,1, -1, -2, -1, -1, -2, 2, 0,-1.0178534304111684,0.5416250127339061,0
1503523882486,+0.482,+0.082,-0.260,-0.833,+0.538,+0.110,-0.818,-0.812,+0.000,+0.562,-4, -2, 0, -1, -1, -1, -2, -2,-1.0178534304111684,0.5416250127339061,0
1503523882501,+0.482,+0.082,-0.260,-0.833,+0.541,+0.106,-0.822,-1.125,-0.562,+0.562,0, -3, -2, -2, -1, -1, 0, 0,-1.0178534304111684,0.5416250127339061,0
1503523882524,+0.482,+0.081,-0.260,-0.833,+0.530,+0.106,-0.821,-1.125,-0.688,+0.562,-4, 0, -2, -2, -1, -1, -2, -1,-1.0172992878022478,0.5406242611481046,0
1503523882546,+0.481,+0.081,-0.260,-0.833,+0.533,+0.108,-0.822,-1.438,+0.250,+0.625,-5, -1, -2, -2, -1, 0, 1, 1,-1.0147675324946788,0.5404844214775578,0
1503523882561,+0.481,+0.081,-0.261,-0.833,+0.545,+0.108,-0.819,-1.188,+0.188,+0.812,1, -1, 0, -1, -2, 0, -1, -3,-1.0148536242727744,0.5424625182810155,0
1503523882584,+0.481,+0.081,-0.261,-0.833,+0.542,+0.107,-0.820,-1.000,-0.250,+0.500,0, 0, -1, 0, -2, -2, -2, 0,-1.0148536242727744,0.5424625182810155,0
1503523882606,+0.481,+0.081,-0.261,-0.833,+0.538,+0.109,-0.820,-0.938,+0.062,+0.625,7, -1, -1, -1, 0, -1, -3, -1,-1.0148536242727744,0.5424625182810155,0
1503523882621,+0.481,+0.081,-0.261,-0.833,+0.542,+0.108,-0.818,-0.938,-0.188,+0.750,-2, -1, -2, -2, 0, -1, -1, -1,-1.0148536242727744,0.5424625182810155,0
1503523882644,+0.480,+0.081,-0.261,-0.833,+0.542,+0.104,-0.829,-1.000,-0.688,+0.938,0, 0, -1, 0, 1, -2, 0, 0,-1.0123236385177161,0.5423228165710724,0
1503523882670,+0.480,+0.081,-0.261,-0.834,+0.534,+0.111,-0.817,-1.062,-0.125,+0.812,2, -3, -1, -1, -2, -1, -2, 0,-1.0128356020867635,0.5427728823025119,0
1503523882681,+0.480,+0.081,-0.261,-0.834,+0.524,+0.111,-0.832,-0.125,+0.938,+0.938,-1, -1, 1, 0, -2, 1, -1, 0,-1.0128356020867635,0.5427728823025119,0
1503523882705,+0.480,+0.082,-0.261,-0.834,+0.535,+0.111,-0.834,+1.562,+5.500,+1.562,-2, -1, -2, -1, -1, 0, 0, 1,-1.013391936990018,0.5437696472364373,0
1503523882737,+0.479,+0.083,-0.262,-0.833,+0.555,+0.104,-0.818,+2.125,+4.562,+1.438,-12, 1, 0, 0, -2, 0, 2, -4,-1.0110026155001515,0.5461556344388611,0
1503523882741,+0.479,+0.084,-0.262,-0.833,+0.555,+0.110,-0.807,+1.188,+4.000,+1.500,-4, -2, 0, -3, -2, -1, 0, 0,-1.011567641128928,0.5471540769743005,0
1503523882764,+0.479,+0.084,-0.263,-0.833,+0.551,+0.105,-0.810,+0.188,+0.562,+2.062,-4, -4, -2, -2, -1, 2, -2, 0,-1.0116573541573297,0.54913573412688,0
1503523882790,+0.479,+0.084,-0.263,-0.834,+0.540,+0.091,-0.812,-0.375,+0.438,+1.188,5, 4, -1, -1, -1, -1, -1, 2,-1.0121684408695317,0.5495871470340843,0
1503523882801,+0.479,+0.084,-0.262,-0.834,+0.526,+0.094,-0.823,-1.250,-1.938,-0.062,2, -2, -2, -2, -1, -1, -2, -1,-1.0120788743586917,0.5476043060932104,0
1503523882824,+0.479,+0.083,-0.262,-0.834,+0.532,+0.104,-0.833,-1.688,+0.312,+0.562,-8, -3, -1, 0, 0, -2, 2, -2,-1.0115144476938867,0.5466062338017119,0
1503523882846,+0.478,+0.084,-0.263,-0.834,+0.539,+0.112,-0.822,-0.625,+3.250,+1.188,0, -6, -2, -1, -1, 0, -1, -2,-1.0096459595762861,0.5494429966469231,0
1503523882861,+0.478,+0.085,-0.263,-0.834,+0.539,+0.110,-0.827,+2.062,+7.562,+1.000,-1, 0, 0, 0, 0, 0, 1, 0,-1.0102153575356896,0.550440745597128,0
1503523882884,+0.478,+0.086,-0.265,-0.833,+0.544,+0.108,-0.816,+2.312,+11.438,+2.312,-5, 2, 1, 0, -1, 2, -1, -3,-1.010460780624405,0.5549581372022289,0
1503523882906,+0.477,+0.087,-0.266,-0.833,+0.590,+0.100,-0.794,+1.875,+8.750,+3.188,3, -2, -1, -1, 0, -1, -1, -1,-1.008613481621543,0.5577976152880751,0
1503523882921,+0.476,+0.089,-0.267,-0.833,+0.614,+0.091,-0.795,+1.750,+6.375,+4.188,-10, -2, 0, -1, -3, 0, -1, 0,-1.0073632468996825,0.561637559201883,0
1503523882947,+0.476,+0.090,-0.268,-0.833,+0.573,+0.132,-0.827,+4.750,+9.375,+5.375,8, 0, -4, 0, -1, 0, -2, -2,-1.0080509405771296,0.5646303296492263,0
1503523882966,+0.475,+0.094,-0.270,-0.832,+0.630,+0.105,-0.818,+11.375,+15.625,+7.000,-3, 0, 0, 1, 1, 0, 3, 0,-1.0076338565650125,0.5720240106982908,0
1503523882981,+0.474,+0.099,-0.272,-0.832,+0.589,+0.111,-0.851,+18.938,+23.500,+8.938,15, 17, 0, 0, -3, 0, 1, 0,-1.0084286035631642,0.5809056448135814,0
1503523883005,+0.473,+0.107,-0.275,-0.830,+0.615,+0.100,-0.854,+29.625,+39.938,+13.375,-6, 2, -1, -2, 0, -2, -1, -1,-1.0103883785268515,0.5939758138871438,0
1503523883026,+0.466,+0.121,-0.283,-0.830,+0.683,+0.060,-0.856,+37.500,+81.812,+47.938,1, 2, 0, 0, 0, 0, 1, -1,-1.0035951237683705,0.6231801108863446,0
1503523883041,+0.458,+0.139,-0.293,-0.827,+0.723,+0.074,-0.871,+47.375,+111.250,+55.875,-6, -14, -4, -1, 0, -1, -1, -2,-0.9973685222925192,0.6592780251186781,0
1503523883064,+0.448,+0.163,-0.308,-0.823,+0.793,+0.061,-0.805,+65.312,+149.750,+68.250,-12, -6, -1, 12, 0, -8, -1, -1,-0.9936884423792349,0.7116971992920594,0
1503523883086,+0.442,+0.185,-0.317,-0.819,+0.834,+0.233,-0.918,+77.000,+118.688,+51.375,11, -5, -7, -17, -3, 2, -5, 0,-0.9994628120202093,0.7516007788109046,0
1503523883108,+0.438,+0.208,-0.320,-0.814,+0.841,+0.042,-0.710,+104.312,+85.750,+51.438,-8, 13, 5, 21, 0, 6, 1, -1,-1.0114164112696131,0.7814997243979683,0
1503523883124,+0.429,+0.229,-0.318,-0.814,+0.839,-0.183,-0.845,+84.750,+57.875,+80.375,-7, -5, 3, -17, -3, -9, -2, -4,-1.012622251965698,0.8005463661186643,0
1503523883146,+0.421,+0.241,-0.307,-0.819,+0.956,+0.010,-0.790,+74.688,-28.000,+92.750,8, 3, 0, 25, -2, -11, 1, 1,-1.007170177743651,0.7928548742434103,0
1503523883167,+0.417,+0.253,-0.291,-0.823,+0.768,-0.008,-0.727,+96.438,-47.125,+84.188,-3, 1, -10, -25, -1, 13, 2, 0,-1.009453005500586,0.7763276614545559,0
1503523883190,+0.412,+0.269,-0.272,-0.827,+0.578,-0.099,-0.786,+110.688,-46.625,+88.750,-7, 5, 3, -9, -4, -7, -3, -4,-1.0135663939229367,0.7594650466359737,0
1503523883205,+0.405,+0.287,-0.256,-0.829,+0.589,-0.178,-0.782,+113.438,-26.312,+96.188,0, 2, 10, -1, 2, 5, 0, -2,-1.0159922129746837,0.7506815890352259,0
1503523883228,+0.397,+0.307,-0.241,-0.831,+0.564,-0.144,-0.700,+121.938,-10.250,+103.125,3, 3, 0, -23, 13, 5, -3, 1,-1.019874646713575,0.7473167944943939,0
1503523883242,+0.387,+0.334,-0.223,-0.830,+0.593,-0.401,-0.611,+156.188,-7.500,+114.188,-5, -2, -1, 31, -7, 3, 0, 0,-1.0280390927735885,0.7481035965286913,0
1503523883265,+0.376,+0.356,-0.207,-0.830,+0.636,-0.352,-0.644,+136.750,-6.500,+113.125,5, 8, 10, 2, 4, 5, -3, 1,-1.0295675370926685,0.746509213161852,0
1503523883287,+0.368,+0.380,-0.190,-0.827,+0.611,-0.501,-0.569,+147.688,-8.562,+99.500,1, 12, 4, 11, -2, 3, -1, -13,-1.041672315609835,0.7488676312302214,0
1503523883302,+0.360,+0.403,-0.172,-0.823,+0.568,-0.554,-0.546,+152.125,-16.000,+96.625,-1, 6, -5, -10, 2, 14, 15, -3,-1.0535513430936756,0.7494744141817254,0
1503523883325,+0.353,+0.426,-0.155,-0.818,+0.560,-0.603,-0.475,+151.125,-10.750,+86.625,-1, -4, -18, -21, -7, 0, 0, 10,-1.070588787746104,0.7550908458384193,0
1503523883349,+0.346,+0.449,-0.141,-0.812,+0.505,-0.691,-0.450,+146.688,+0.500,+72.312,21, 4, 8, 18, 21, 39, 6, -3,-1.0920381008580533,0.7695851684262083,0
1503523883362,+0.338,+0.471,-0.131,-0.804,+0.463,-0.724,-0.328,+137.812,+22.000,+70.812,-9, 0, 4, -15, -4, 19, -3, 6,-1.113916618637799,0.792103801965464,0
1503523883385,+0.328,+0.492,-0.123,-0.797,+0.498,-0.755,-0.260,+124.938,+35.188,+66.312,3, -7, -4, 1, 5, -25, -7, 1,-1.133870600855788,0.8184397722636544,0
1503523883408,+0.318,+0.511,-0.118,-0.790,+0.507,-0.767,-0.262,+110.625,+45.500,+60.188,-12, -29, 4, -12, -24, -12, -2, 2,-1.1544431112809044,0.8493108470072359,0
1503523883422,+0.310,+0.528,-0.112,-0.783,+0.487,-0.768,-0.218,+95.688,+28.125,+50.312,2, 8, 0, 6, 15, -2, -5, -5,-1.1778738613048414,0.8779580207216063,0
1503523883445,+0.304,+0.541,-0.106,-0.777,+0.432,-0.761,-0.194,+81.938,+15.375,+42.500,-22, 24, 17, 19, -38, -6, -1, 3,-1.1977080381862546,0.8994683659657293,0
1503523883467,+0.298,+0.553,-0.100,-0.772,+0.345,-0.757,-0.170,+67.625,+13.562,+37.062,-28, -47, -23, -19, 24, -3, -20, -10,-1.2170167482383865,0.9202044768955566,0
1503523883483,+0.292,+0.562,-0.094,-0.768,+0.318,-0.789,-0.154,+48.875,+12.625,+33.375,5, 2, 12, 1, -22, 1, 11, 0,-1.2279854813793316,0.9324666574919932,0
1503523883514,+0.286,+0.568,-0.091,-0.767,+0.311,-0.798,-0.137,+27.750,+13.500,+30.250,7, -5, -5, 4, 0, -14, 0, 0,-1.2317816332536144,0.9414664450336139,0
1503523883527,+0.282,+0.571,-0.088,-0.766,+0.333,-0.822,-0.116,+7.562,+5.688,+24.062,5, 47, 25, 3, -18, 4, 2, -3,-1.2299653365961125,0.9417593085593665,0
1503523883546,+0.279,+0.570,-0.086,-0.768,+0.356,-0.898,-0.118,-14.500,-5.938,+10.438,-8, 19, -11, -8, 16, -15, -27, -5,-1.2169478201888146,0.9304432227428459,0
1503523883575,+0.280,+0.565,-0.084,-0.771,+0.344,-0.967,-0.080,-47.500,-25.938,-6.625,17, -15, -30, 1, -25, -7, -13, 4,-1.20002049142512,0.9089082168241787,0
1503523883587,+0.285,+0.555,-0.082,-0.777,+0.335,-1.017,-0.064,-81.375,-46.312,-23.750,28, 43, 5, 2, 23, 15, 9, 5,-1.1775422506599562,0.8751451300322989,0
1503523883602,+0.293,+0.537,-0.087,-0.786,+0.220,-1.124,-0.097,-119.688,-42.250,-53.188,21, 12, -7, 1, 10, 4, 9, 0,-1.144572250639757,0.8357551730126779,0
1503523883625,+0.303,+0.515,-0.097,-0.796,+0.280,-1.137,-0.293,-147.562,-29.875,-77.938,-27, -34, 11, -4, 13, -19, -13, -3,-1.1143336829224637,0.8026023189909666,0
1503523883648,+0.314,+0.488,-0.111,-0.807,+0.474,-1.254,-0.128,-187.312,-24.375,-94.375,-3, -31, 2, 1, -19, -2, 38, 4,-1.0828033298833506,0.7717378331664864,0
1503523883662,+0.328,+0.455,-0.129,-0.818,+0.423,-1.129,-0.288,-219.875,-19.188,-122.688,16, 8, 16, 9, 29, -17, 15, 3,-1.055035385905168,0.7448025865657422,0
1503523883685,+0.344,+0.418,-0.153,-0.827,+0.525,-0.821,-0.594,-234.312,-7.938,-154.875,17, -8, -16, -4, 11, -4, 31, 10,-1.0348735651938725,0.7303253686405413,0
1503523883713,+0.366,+0.382,-0.183,-0.829,+1.026,-0.300,-0.963,-217.062,+16.875,-204.312,-53, 12, -3, -2, 73, 13, 27, -22,-1.0380380563117724,0.7379453063129767,0
1503523883723,+0.387,+0.355,-0.210,-0.824,+0.656,+0.151,-2.749,-155.438,+32.188,-201.625,8, -55, 1, 28, -49, -53, 55, 19,-1.0528307460615105,0.7550311151744357,0
1503523883747,+0.438,+0.346,-0.213,-0.802,+3.955,+1.298,-1.161,+60.188,-87.812,-314.500,22, -38, -5, 1, -75, -3, -48, -29,-1.1534316623197642,0.7663205909521392,0
1503523883767,+0.445,+0.329,-0.157,-0.818,-1.398,-0.225,-1.500,+43.875,-343.812,+99.438,34, -70, -89, -18, 78, 14, -24, 84,-1.13464749131572,0.6426262469947871,0
1503523883783,+0.440,+0.363,-0.176,-0.802,-0.064,+1.599,-1.238,+136.062,+209.625,-18.875,-39, 123, 28, 19, 59, 28, 96, 45,-1.174008059757672,0.7284445275595205,0
1503523883805,+0.414,+0.419,-0.181,-0.787,+1.901,+0.122,-1.111,+273.250,+227.188,+149.500,-72, -125, -128, -46, -59, -34, 57, -77,-1.2067503871033078,0.8252640597448204,0
1503523883827,+0.402,+0.467,-0.154,-0.772,+1.020,-0.531,-0.783,+315.188,+36.688,+136.938,-85, 82, -21, -20, 75, 70, -128, 38,-1.2658866691702833,0.8709282638987897,0
1503523883844,+0.384,+0.514,-0.125,-0.757,+0.351,-1.005,-0.500,+307.062,+48.750,+165.312,91, -24, 34, 1, -87, -1, 57, -75,-1.3268427942684171,0.9247177589436099,0
1503523883865,+0.355,+0.560,-0.100,-0.741,+0.493,-0.895,-0.076,+283.312,+88.062,+198.438,13, -15, 20, 99, 61, -53, -46, -36,-1.3837769837957938,0.9969626426862197,0
1503523883887,+0.327,+0.600,-0.075,-0.726,+0.575,-0.754,+0.160,+255.750,+71.688,+199.312,12, 49, -67, -104, 22, 41, 2, -67,-1.454221178398123,1.0786827393398417,0
1503523883902,+0.301,+0.634,-0.048,-0.710,+0.399,-0.689,+0.227,+236.438,+44.812,+189.625,32, 14, 89, -12, -56, -44, -43, -54,-1.540319410085911,1.1683550920558794,0
1503523883925,+0.278,+0.664,-0.024,-0.693,+0.151,-0.695,+0.291,+220.375,+42.500,+160.562,28, -51, 10, 112, -52, -30, 44, 110,-1.6577332616415712,1.2877458605985055,0
1503523883948,+0.258,+0.690,-0.004,-0.676,+0.086,-0.720,+0.314,+194.750,+40.562,+130.875,19, -2, 32, 22, -39, -9, 18, 127,-1.8071079794962461,1.439400440921295,0
1503523883962,+0.241,+0.710,+0.009,-0.661,+0.113,-0.662,+0.302,+160.375,+45.062,+100.375,-9, 18, 7, -58, -30, -3, -2, -105,-1.9570208357465768,1.5961056143065173,0
1503523883985,+0.227,+0.726,+0.018,-0.648,+0.114,-0.592,+0.271,+125.938,+45.250,+72.500,0, 2, 18, -21, -24, -5, -2, -127,-2.1012167674122875,1.7478464362777804,0
1503523884007,+0.216,+0.739,+0.025,-0.637,+0.146,-0.616,+0.256,+97.062,+33.250,+49.938,10, -2, 13, 5, -6, -8, -6, -56,-2.2325214621130427,1.8853040431046968,0
1503523884022,+0.210,+0.749,+0.027,-0.628,+0.201,-0.638,+0.240,+73.312,+22.000,+16.562,6, 45, 12, -12, -9, -3, 15, -10,-2.3259579962824994,1.9852019447470024,0
1503523884052,+0.211,+0.755,+0.027,-0.620,+0.175,-0.641,+0.203,+50.688,+2.875,-18.500,-1, -21, -2, -3, -12, -6, 5, 5,-2.374465111050081,2.0314738756301005,0
1503523884067,+0.216,+0.758,+0.026,-0.615,+0.122,-0.738,+0.211,+28.625,-17.000,-36.375,-5, 0, -5, -5, -12, -3, 0, 27,-2.390692984386967,2.041840298505615,0
1503523884084,+0.222,+0.757,+0.025,-0.614,+0.109,-0.859,+0.233,-4.188,-29.625,-41.812,0, 1, 3, 0, -6, -3, -1, 6,-2.3768409911405857,2.020316006625728,0
1503523884105,+0.229,+0.752,+0.022,-0.617,+0.133,-0.935,+0.260,-38.688,-29.812,-48.500,1, -9, 4, 3, -2, -1, 1, 6,-2.328166528061029,1.9649991449007778,0
1503523884128,+0.235,+0.746,+0.014,-0.623,+0.173,-0.944,+0.262,-63.938,-9.438,-60.250,-1, -6, 4, -2, -2, -5, 0, -1,-2.258725543097632,1.8989226313123804,0
1503523884146,+0.241,+0.739,+0.000,-0.629,+0.264,-0.959,+0.238,-79.000,+14.875,-77.438,-1, -2, 8, -5, -5, -1, 2, 6,-2.173014517140175,1.8241925325690287,0
1503523884165,+0.247,+0.730,-0.017,-0.636,+0.373,-0.971,+0.184,-89.938,+18.625,-91.062,2, 3, -1, 0, -3, -1, 0, -2,-2.0767274500358464,1.7427351849626267,0
1503523884188,+0.256,+0.720,-0.034,-0.644,+0.437,-0.981,+0.145,-97.438,+7.125,-97.500,0, 7, 3, 4, 0, 0, -3, 3,-1.9880637188671815,1.665346170125925,0
1503523884203,+0.267,+0.708,-0.051,-0.652,+0.480,-0.960,+0.136,-105.500,+2.875,-103.875,0, -4, 2, 7, -1, -1, 0, -1,-1.903166154917857,1.5881819282741891,0
1503523884225,+0.276,+0.696,-0.072,-0.659,+0.495,-0.927,+0.137,-106.625,+16.875,-113.812,1, -3, -4, 1, 0, 0, -2, -6,-1.8262664639662192,1.5274077512373694,0
1503523884248,+0.285,+0.684,-0.096,-0.665,+0.563,-0.953,+0.119,-107.062,+33.875,-129.562,-1, 3, 1, -1, -2, 0, 0, 6,-1.7608080147914245,1.482426723680856,0
1503523884262,+0.296,+0.670,-0.121,-0.670,+0.607,-0.904,+0.050,-109.188,+28.875,-143.812,-1, -1, -3, 1, -1, -1, 1, 3,-1.7007586750265025,1.44103457319653,0
1503523884285,+0.309,+0.655,-0.147,-0.674,+0.654,-0.824,+0.015,-112.250,+14.812,-156.375,-1, -2, 1, -11, 1, 0, -2, 1,-1.6510893293894322,1.4084874806443763,0
1503523884307,+0.325,+0.637,-0.173,-0.677,+0.707,-0.744,-0.016,-114.562,+7.625,-169.938,2, -2, -1, 7, -1, 1, -1, 3,-1.605286287315125,1.3749651276513437,0
1503523884323,+0.339,+0.620,-0.200,-0.679,+0.730,-0.693,-0.059,-114.938,+20.812,-169.062,-5, 0, 2, -19, 0, -4, -2, 2,-1.5688792302590402,1.3556679263683473,0
1503523884347,+0.346,+0.605,-0.229,-0.680,+0.773,-0.613,-0.082,-111.250,+56.062,-152.125,3, 1, 1, 12, -2, 0, 1, 0,-1.5326712929998192,1.3510527167976096,0
1503523884367,+0.351,+0.591,-0.257,-0.679,+0.825,-0.524,-0.108,-101.312,+68.875,-132.625,-2, -3, 3, -11, 0, -2, 0, 1,-1.500392961941358,1.3526425138063014,0
1503523884384,+0.356,+0.580,-0.284,-0.676,+0.915,-0.440,-0.097,-83.875,+71.250,-135.750,0, -1, -1, -2, 0, 1, 0, 2,-1.4801079698432695,1.3655677068975076,0
1503523884405,+0.364,+0.567,-0.311,-0.670,+0.971,-0.364,-0.069,-72.312,+63.188,-152.812,-1, -1, -2, 8, -1, 0, -1, -2,-1.461727936792586,1.3760951628593774,0
1503523884429,+0.370,+0.555,-0.337,-0.664,+0.929,-0.286,-0.098,-66.375,+65.500,-145.688,4, -2, -1, 25, -3, -2, 1, -3,-1.444199237730998,1.3900755103047546,0
1503523884442,+0.373,+0.548,-0.364,-0.654,+1.006,-0.158,-0.095,-49.562,+97.250,-127.188,-1, 1, -1, -2, -1, 1, -2, -1,-1.4350439934207713,1.420070079486021,0
1503523884472,+0.372,+0.546,-0.387,-0.643,+1.060,-0.158,-0.115,-25.688,+113.062,-94.375,-3, -2, -2, -9, 3, -2, -1, 0,-1.4307637481473503,1.4559927029032962,0
1503523884488,+0.369,+0.547,-0.407,-0.632,+1.185,-0.180,-0.119,-8.438,+114.750,-68.562,2, -4, 2, -7, 0, -2, -1, -8,-1.4299519554386664,1.494394416382841,0
1503523884502,+0.369,+0.545,-0.424,-0.622,+1.271,-0.225,-0.100,-7.562,+85.062,-64.375,14, 10, 17, -7, -5, 0, 0, -3,-1.4267418765709554,1.5209294560625077,0
1503523884525,+0.374,+0.541,-0.434,-0.615,+1.217,-0.191,-0.008,+0.312,+30.688,-60.688,-4, -1, -7, 23, -21, 1, 4, 1,-1.4267020929501588,1.5304064929630496,0
1503523884553,+0.383,+0.536,-0.439,-0.611,+1.142,-0.216,+0.013,+11.188,-9.812,-56.062,39, 0, -2, 25, 16, 7, 4, 8,-1.4310513119666515,1.5286201223646265,0
1503523884562,+0.388,+0.534,-0.443,-0.607,+1.007,-0.248,+0.000,+9.062,+4.750,-41.625,0, 8, 1, -19, -2, 1, -5, -10,-1.4354230753579,1.5317586741461815,0
1503523884588,+0.388,+0.535,-0.448,-0.602,+0.896,-0.216,-0.008,+7.062,+33.875,-23.438,1, -3, -2, -8, -12, 8, -30, 2,-1.4379744943844783,1.5434165013048313,0
1503523884607,+0.387,+0.537,-0.455,-0.596,+0.997,-0.188,+0.003,+12.188,+48.438,-15.625,-15, 4, 1, 5, -1, -3, -3, -14,-1.4412859538894418,1.5611807366937471,0
1503523884623,+0.388,+0.539,-0.458,-0.590,+1.071,-0.245,+0.003,+20.750,+34.125,-16.562,3, -1, -4, -10, 7, -8, -2, 14,-1.4475543427626407,1.5713908793709124,0
1503523884645,+0.390,+0.541,-0.460,-0.586,+1.051,-0.276,+0.058,+17.750,+13.062,-18.688,-15, -7, 0, 46, -8, 9, 1, 22,-1.4556419360324446,1.5797046334344529,0
1503523884667,+0.392,+0.541,-0.461,-0.583,+1.007,-0.270,+0.100,+13.938,+2.188,-16.938,-20, -3, -7, -14, -4, 2, -4, 7,-1.4590006675784,1.5816145847425047,0
1503523884683,+0.394,+0.542,-0.463,-0.580,+0.973,-0.241,+0.119,+14.375,+6.062,-17.312,-5, -9, -13, -40, -2, -3, 1, 1,-1.4648264489026652,1.587665090498304,0
1503523884705,+0.395,+0.543,-0.466,-0.575,+0.962,-0.227,+0.110,+16.750,+20.750,-18.312,6, -5, 0, -40, -5, -1, 3, 26,-1.468839993653267,1.5956753737095544,0
1503523884728,+0.396,+0.545,-0.470,-0.571,+0.960,-0.223,+0.099,+15.812,+23.438,-19.625,-3, -1, -4, -5, 4, -1, 18, 21,-1.4753742638181147,1.6078000192407698,0
1503523884742,+0.398,+0.546,-0.472,-0.566,+0.995,-0.222,+0.140,+13.500,+13.438,-21.625,-8, -5, -6, -13, -15, -7, -2, 2,-1.48101391731064,1.6139104096640045,0
1503523884765,+0.400,+0.545,-0.475,-0.563,+1.026,-0.251,+0.167,+7.625,+6.000,-23.875,2, 0, 3, -5, -17, -5, -22, 0,-1.4822508967432593,1.617422651795673,0
1503523884788,+0.401,+0.545,-0.478,-0.560,+0.957,-0.225,+0.134,+4.688,+12.250,-18.438,-9, -13, -15, -18, 5, -3, -1, -12,-1.4840702646526371,1.6232116383821522,0
1503523884803,+0.400,+0.546,-0.481,-0.558,+0.981,-0.195,+0.131,-0.562,+20.188,-11.438,-9, -3, -3, 4, -3, -3, 3, 11,-1.4847970333686742,1.6312753176911339,0
1503523884826,+0.399,+0.546,-0.485,-0.555,+1.024,-0.174,+0.156,-1.062,+17.375,-12.812,-7, 5, 3, 11, 4, -3, 4, -12,-1.4832416948015774,1.6391476198188133,0
1503523884852,+0.401,+0.545,-0.487,-0.553,+1.015,-0.169,+0.166,+1.688,+4.375,-16.188,3, 1, 5, 3, -8, 3, -3, -14,-1.4844418944347004,1.6407722418158621,0
1503523884863,+0.402,+0.543,-0.489,-0.552,+1.015,-0.198,+0.156,-3.500,-2.250,-19.312,-1, -2, 3, -4, -8, 1, 6, 2,-1.4816930621467492,1.640264506634944,0
1503523884885,+0.403,+0.541,-0.492,-0.551,+1.000,-0.159,+0.162,-8.562,+0.312,-15.375,-4, -2, 2, 8, -1, -4, -4, 14,-1.479068187235463,1.6417136635115563,0
1503523884907,+0.402,+0.540,-0.495,-0.549,+1.009,-0.139,+0.156,-6.625,+9.438,-10.125,1, 6, -4, -11, 6, -2, 11, -6,-1.475194814663437,1.6455796358824148,0
1503523884930,+0.402,+0.539,-0.497,-0.548,+1.029,-0.151,+0.119,-4.625,+12.438,-9.250,-4, 10, 6, 3, -5, -1, -1, -5,-1.473040378007036,1.6473893275257019,0
1503523884945,+0.402,+0.538,-0.499,-0.548,+1.020,-0.155,+0.133,-5.312,+4.000,-6.500,-59, -11, -3, 1, 0, -2, -8, -4,-1.4709733149287831,1.6491384186303224,0
1503523884967,+0.402,+0.537,-0.500,-0.548,+1.021,-0.156,+0.137,-5.125,-1.812,-6.188,17, 2, 11, 7, 13, 1, -3, 0,-1.468804059569652,1.6489609711286795,0
1503523884984,+0.403,+0.535,-0.501,-0.548,+1.012,-0.146,+0.134,-6.438,-5.062,-5.125,7, -6, -7, 6, 4, -1, -6, -6,-1.466111478023438,1.6465985208315523,0
1503523885005,+0.402,+0.534,-0.501,-0.549,+1.020,-0.137,+0.145,-11.562,-5.500,+1.875,6, -3, -4, -4, 1, -2, -7, -12,-1.4621789793197426,1.644495042638341,0
1503523885027,+0.400,+0.534,-0.501,-0.551,+0.986,-0.146,+0.118,-10.875,+1.875,+16.000,2, -11, -21, -1, 4, 0, -2, 2,-1.4588656736413677,1.6445049405408534,0
1503523885043,+0.397,+0.535,-0.500,-0.554,+1.056,-0.148,+0.116,-11.875,-2.125,+25.562,13, 5, 2, 1, -5, -1, -6, 5,-1.4560753060003715,1.644681548871735,0
1503523885065,+0.396,+0.535,-0.497,-0.558,+1.061,-0.156,+0.095,-8.938,-15.625,+26.875,10, -10, -10, -4, 4, 0, -1, -14,-1.4543339014846288,1.6386294430423,0
1503523885089,+0.396,+0.533,-0.492,-0.563,+1.001,-0.172,+0.081,-7.438,-31.875,+22.375,-12, -25, -25, -5, -5, -4, 5, 3,-1.449594167571982,1.6243303128539974,0
1503523885103,+0.397,+0.532,-0.488,-0.567,+0.956,-0.187,+0.075,-4.250,-34.875,+19.188,4, -2, 3, -5, 3, 1, 15, 8,-1.4489251432205814,1.614155074880503,0
1503523885125,+0.398,+0.532,-0.483,-0.571,+0.912,-0.203,+0.061,+2.812,-25.562,+17.938,-1, 4, 5, 7, -4, -1, -1, 0,-1.450418134931207,1.604244421206879,0
1503523885147,+0.398,+0.533,-0.479,-0.573,+0.949,-0.232,+0.050,+8.562,-18.062,+16.250,-2, 4, 4, 0, -4, -1, -13, -6,-1.4523797574193802,1.5985942861573725,0
1503523885163,+0.400,+0.533,-0.476,-0.574,+0.981,-0.243,+0.068,+11.500,-17.250,+9.625,7, 7, 5, -4, 2, 4, 1, 0,-1.4556242858189936,1.5927181306840184,0
1503523885187,+0.404,+0.532,-0.472,-0.575,+0.976,-0.224,+0.073,+13.750,-30.438,-2.500,-4, -7, -12, -3, 4, 1, 8, -2,-1.460040113614248,1.5827383163621367,0
1503523885207,+0.412,+0.529,-0.468,-0.576,+0.934,-0.203,+0.019,+19.250,-50.000,-18.312,-7, -8, -10, -7, -2, 1, 2, 6,-1.467195259948727,1.5684682022833512,0
1503523885223,+0.421,+0.525,-0.463,-0.577,+0.833,-0.185,-0.025,+23.062,-51.500,-24.875,-9, -9, -5, -2, -1, -2, -5, 0,-1.4741135710263475,1.5503024902898963,0
1503523885245,+0.429,+0.524,-0.459,-0.576,+0.829,-0.186,-0.035,+29.312,-37.125,-20.812,14, 7, -2, 5, 11, -3, -2, -2,-1.4861318872591063,1.5406672563291788,0
1503523885267,+0.435,+0.524,-0.455,-0.574,+0.899,-0.185,-0.031,+35.312,-24.625,-15.625,-8, 3, 9, -1, -7, 0, -5, 4,-1.4967702792526114,1.5331967504459663,0
1503523885283,+0.442,+0.525,-0.452,-0.570,+0.958,-0.199,-0.025,+39.250,-15.188,-22.000,-1, -9, 9, 5, 2, 0, 0, 3,-1.5115675881109978,1.529832100629909,0
1503523885305,+0.450,+0.524,-0.450,-0.566,+1.006,-0.184,+0.014,+39.812,-25.125,-31.188,5, 37, 13, 2, 0, -1, -7, 4,-1.5240943263037847,1.5240943263037847,0
1503523885328,+0.459,+0.523,-0.447,-0.562,+1.001,-0.157,+0.035,+39.938,-33.250,-33.938,-2, -1, -10, -5, 1, 4, 10, 3,-1.5386968260336664,1.516578045077851,0
1503523885343,+0.468,+0.522,-0.444,-0.559,+0.943,-0.135,+0.014,+38.875,-30.750,-30.750,2, -6, -3, -4, -4, -1, -2, 4,-1.5535861407985794,1.5091881102662068,0
1503523885365,+0.475,+0.522,-0.443,-0.554,+0.905,-0.099,-0.012,+37.562,-15.188,-32.250,-11, 3, 3, -1, -2, 0, 6, -1,-1.5669714763136198,1.507506878617638,0
1503523885389,+0.482,+0.522,-0.442,-0.548,+0.945,-0.090,-0.016,+38.562,-4.562,-32.125,-10, -2, -1, 1, -2, -2, -10, -12,-1.5805119003299255,1.5057793512980222,0
1503523885403,+0.487,+0.523,-0.442,-0.542,+1.066,-0.112,+0.029,+36.188,-4.125,-31.688,9, 5, 8, -1, -1, -5, 9, 23,-1.5923998484718471,1.507943350137196,0
1503523885426,+0.494,+0.523,-0.442,-0.536,+1.095,-0.066,+0.024,+33.312,-7.875,-34.125,8, 15, 10, -1, -1, 1, 6, 4,-1.6061984061839412,1.5080710618078295,0
1503523885447,+0.502,+0.521,-0.443,-0.530,+1.007,+0.000,-0.011,+36.562,-13.250,-40.125,-3, 1, 4, -3, -2, 0, -3, 4,-1.617947398482996,1.5057904924853953,0
1503523885463,+0.511,+0.519,-0.442,-0.524,+0.989,-0.005,-0.004,+39.625,-24.375,-45.125,11, 30, 2, -1, 0, 0, -7, 0,-1.6320316793065277,1.4999132822113581,0
1503523886625,+0.555,+0.469,-0.384,-0.569,+1.076,-0.083,-0.285,+42.500,-27.750,+62.375,-3, 6, 2, -2, -1, -3, 0, 20,-1.627172314386365,1.3006533634727568,1
1503523886647,+0.555,+0.475,-0.372,-0.573,+1.065,-0.094,-0.288,+49.375,-28.750,+63.562,31, 9, 1, -1, -2, 0, -2, 1,-1.6387106790758752,1.2929468749793622,1
1503523886671,+0.555,+0.481,-0.358,-0.576,+1.032,-0.126,-0.278,+57.000,-28.438,+63.625,-2, 9, -3, -2, 1, 0, -1, -2,-1.6506985507166256,1.282199769556286,1
1503523886686,+0.554,+0.488,-0.345,-0.579,+1.018,-0.169,-0.260,+60.188,-28.750,+65.438,6, -17, -3, -3, -2, 1, -5, -12,-1.662660538366585,1.2758326202751185,1
1503523886708,+0.553,+0.496,-0.331,-0.582,+1.003,-0.190,-0.249,+61.875,-25.750,+69.062,-4, -9, 2, -2, 0, 1, -2, -11,-1.6770258999562238,1.2708263793200425,1
1503523886731,+0.552,+0.504,-0.317,-0.584,+0.964,-0.212,-0.255,+65.500,-23.812,+72.000,-18, 2, -8, 1, -1, -1, -1, -10,-1.6919908091835827,1.2665307682614015,1
1503523886746,+0.550,+0.512,-0.302,-0.586,+0.950,-0.233,-0.260,+67.125,-20.000,+70.625,-2, 4, 7, -2, -2, -2, -6, -23,-1.7055188949070244,1.2612734809344435,1
1503523886768,+0.548,+0.521,-0.289,-0.587,+0.918,-0.271,-0.227,+67.250,-13.812,+71.375,-6, 1, 5, 1, 1, -2, -2, -15,-1.721566680691672,1.2623102174338139,1
1503523886791,+0.545,+0.531,-0.275,-0.588,+0.898,-0.287,-0.235,+69.562,-5.812,+71.938,-4, 31, 9, 2, 0, 1, 4, 11,-1.7385270931680472,1.2649921480598068,1
1503523886806,+0.541,+0.540,-0.263,-0.588,+0.919,-0.312,-0.227,+69.500,-3.625,+67.312,3, -19, -7, -1, -1, -2, -2, 3,-1.7519567167050416,1.2687048602692537,1
1503523886831,+0.538,+0.550,-0.251,-0.588,+0.902,-0.366,-0.187,+67.812,-4.312,+62.500,3, 1, -5, -1, -2, -1, -1, -16,-1.770444925878893,1.2763372949227654,1
1503523886850,+0.535,+0.558,-0.239,-0.587,+0.865,-0.388,-0.181,+65.188,-2.438,+57.000,10, 8, -7, -1, -2, 1, -2, 0,-1.785553965778586,1.2796153136294603,1
1503523886866,+0.532,+0.567,-0.229,-0.585,+0.854,-0.387,-0.187,+62.125,+2.250,+52.312,8, -11, -1, -1, -1, -2, -1, 13,-1.803462132437718,1.289082375078702,1
1503523886888,+0.529,+0.575,-0.220,-0.584,+0.863,-0.394,-0.168,+57.750,+4.625,+48.375,-12, -10, -4, -2, -1, 0, 2, -1,-1.819245424804348,1.2981485880933592,1
1503523886910,+0.526,+0.582,-0.212,-0.582,+0.818,-0.405,-0.166,+52.875,+6.688,+43.188,-8, 17, 13, 0, 1, -1, 1, 0,-1.8332723204887262,1.306297641062758,1
1503523886926,+0.523,+0.589,-0.205,-0.581,+0.802,-0.427,-0.153,+46.500,+10.188,+40.125,-13, -6, 26, 3, 1, 2, 3, 3,-1.847208124521704,1.3164403728135532,1
1503523886948,+0.520,+0.596,-0.199,-0.579,+0.820,-0.433,-0.141,+40.938,+12.438,+36.875,6, 30, -10, -2, -3, -2, -3, 0,-1.8616208088774768,1.3282593076183724,1
1503523886971,+0.516,+0.601,-0.193,-0.578,+0.826,-0.447,-0.133,+37.125,+10.500,+33.312,-6, -27, -12, -2, -4, -1, -9, -24,-1.8692913567437281,1.3344684603174066,1
1503523886986,+0.514,+0.606,-0.188,-0.577,+0.812,-0.448,-0.155,+33.500,+4.312,+31.000,5, 9, -4, -1, -1, -2, -1, 39,-1.880654122280591,1.3428534775988348,1
1503523887015,+0.512,+0.610,-0.183,-0.577,+0.768,-0.479,-0.148,+29.062,+5.000,+29.000,-1, -37, -8, 0, -1, -1, 1, -3,-1.8893581795393748,1.3486142494946793,1
1503523887039,+0.509,+0.613,-0.178,-0.577,+0.749,-0.492,-0.126,+24.250,+5.875,+26.250,-2, -12, 17, 0, 0, 0, 1, 0,-1.8938444592839452,1.3512398481969636,1
1503523887046,+0.506,+0.617,-0.175,-0.577,+0.788,-0.510,-0.102,+17.375,+7.500,+24.312,-3, 55, -7, -4, -2, -2, -1, 0,-1.9002068318113008,1.3593603793113826,1
1503523887075,+0.504,+0.619,-0.172,-0.577,+0.837,-0.478,-0.115,+14.375,+3.062,+23.500,-7, -15, -10, 0, 0, 1, -6, -2,-1.9032725393834136,1.3617116819068114,1
1503523887090,+0.504,+0.620,-0.169,-0.578,+0.812,-0.487,-0.122,+12.062,-7.500,+20.125,7, 0, 10, 4, 0, -1, 4, -2,-1.9069847981585237,1.3616918688910924,1
1503523887107,+0.503,+0.620,-0.165,-0.579,+0.739,-0.507,-0.123,+9.312,-10.938,+16.750,4, -12, -5, -2, -1, -1, 7, -1,-1.9067262922825743,1.357178979701567,1
1503523887128,+0.502,+0.621,-0.162,-0.580,+0.767,-0.516,-0.131,+3.438,-1.812,+18.062,-2, -40, -5, 2, 0, -1, -4, -3,-1.908671997315804,1.3569265000901027,1
1503523887150,+0.499,+0.622,-0.162,-0.582,+0.788,-0.509,-0.098,-2.750,+5.250,+18.062,-3, -4, 1, 0, 1, 0, 1, -2,-1.9051264910059125,1.3593280284368447,1
1503523887169,+0.497,+0.622,-0.161,-0.583,+0.814,-0.518,-0.083,-8.688,+2.625,+15.562,-4, -20, -10, -4, -4, -2, 0, -3,-1.9015879459472178,1.357714529267235,1
1503523887188,+0.496,+0.621,-0.162,-0.585,+0.838,-0.548,-0.086,-13.062,-0.125,+12.062,12, 22, -10, -3, -1, 0, 3, -1,-1.8957747718138613,1.355425447727493,1
1503523887210,+0.495,+0.619,-0.162,-0.588,+0.847,-0.553,-0.099,-18.938,-7.250,+9.062,-1, 12, 4, -1, -2, -1, 4, 7,-1.8873403547470635,1.3489575919065901,1
1503523887226,+0.494,+0.616,-0.163,-0.592,+0.831,-0.539,-0.117,-27.625,-7.500,+6.500,-18, -10, -2, 1, 0, -1, -2, -5,-1.875360425525409,1.3404880504262124,1
1503523887248,+0.493,+0.612,-0.165,-0.595,+0.803,-0.504,-0.146,-31.375,-2.250,+5.562,-1, -7, 4, -5, -3, -2, 1, 11,-1.8606201813976282,1.329921198484774,1
1503523887272,+0.492,+0.609,-0.168,-0.599,+0.830,-0.521,-0.147,-32.500,-0.438,+4.062,3, 7, -8, -1, -2, 0, -2, -4,-1.847956230617222,1.3238669453451835,1
1503523887286,+0.491,+0.606,-0.171,-0.603,+0.842,-0.561,-0.136,-35.688,+0.562,+4.125,-5, 0, -3, 2, 0, 0, -1, -1,-1.8354366492130356,1.3179445859249246,1
1503523887310,+0.489,+0.602,-0.174,-0.607,+0.854,-0.552,-0.157,-40.500,-0.188,+4.188,-5, -21, -2, -1, -2, -1, 2, -5,-1.818426919606471,1.308667156935623,1
1503523887330,+0.488,+0.596,-0.177,-0.612,+0.815,-0.520,-0.203,-43.000,-7.938,+4.375,2, 24, 15, 3, 0, 1, -1, 0,-1.7978185212683817,1.2938733114294139,1
1503523887346,+0.486,+0.591,-0.179,-0.618,+0.765,-0.538,-0.220,-46.875,-3.312,+7.438,-3, -9, -2, 3, -1, -3, -2, -1,-1.7782323684143913,1.2809000289516113,1
1503523887369,+0.481,+0.587,-0.184,-0.625,+0.725,-0.575,-0.212,-53.812,+17.000,+13.125,-1, -6, 6, -2, 1, 1, -1, 9,-1.7545156743957748,1.2738744105425968,1
1503523887390,+0.474,+0.584,-0.190,-0.630,+0.776,-0.560,-0.209,-54.688,+35.188,+14.750,1, 21, -10, -3, -2, -3, -2, 15,-1.7299257650124746,1.2703654391080301,1
1503523887406,+0.468,+0.582,-0.197,-0.635,+0.877,-0.533,-0.220,-49.875,+38.250,+13.750,-11, -21, -10, -3, -1, 1, -6, -28,-1.710109548417668,1.2719107939411807,1
1503523887428,+0.462,+0.580,-0.203,-0.639,+0.890,-0.562,-0.201,-45.625,+29.188,+12.438,-3, 1, 1, 1, 2, -1, 6, 1,-1.6909151856219664,1.2722311333578822,1
1503523887450,+0.457,+0.577,-0.207,-0.644,+0.870,-0.591,-0.188,-45.250,+15.562,+14.062,-2, 23, -3, -2, -2, -1, -2, -3,-1.6714299851311551,1.2675433274777308,1
1503523887469,+0.451,+0.574,-0.211,-0.650,+0.800,-0.597,-0.248,-44.062,+23.312,+21.938,7, -8, -6, -2, -1, -1, -2, 4,-1.6499927704957444,1.262754176807555,1
1503523887488,+0.442,+0.574,-0.216,-0.655,+0.772,-0.601,-0.250,-39.250,+43.500,+26.062,-2, 5, 15, 2, 3, 0, 0, -7,-1.6307976412925673,1.2670546879807865,1
1503523887510,+0.433,+0.575,-0.220,-0.659,+0.783,-0.604,-0.250,-33.125,+49.812,+28.562,-2, -13, -4, -1, -1, -2, -3, 3,-1.6147503518213013,1.2728584697727656,1
1503523887526,+0.424,+0.576,-0.223,-0.662,+0.829,-0.604,-0.235,-26.125,+41.625,+32.875,-4, -7, -2, -3, -2, 0, 0, 1,-1.5990239372558093,1.2771401832683933,1
1503523887548,+0.416,+0.577,-0.225,-0.666,+0.816,-0.606,-0.227,-19.688,+36.750,+35.625,5, -4, -1, 0, -4, -2, 2, 2,-1.5855047265516153,1.280560296098374,1
1503523887570,+0.407,+0.579,-0.226,-0.669,+0.769,-0.625,-0.216,-15.438,+30.250,+39.562,-6, -2, 1, -1, -1, 0, -1, -9,-1.5730040094290554,1.284972182803178,1
1503523887586,+0.398,+0.581,-0.225,-0.673,+0.729,-0.617,-0.206,-12.250,+29.938,+45.250,-1, -6, -3, 1, -1, -3, -1, 8,-1.5606732090019315,1.2865110777098792,1
1503523887612,+0.390,+0.584,-0.224,-0.676,+0.695,-0.617,-0.183,-7.500,+29.562,+45.875,-4, -3, 3, 2, 2, 0, 0, 31,-1.5534475899179145,1.2914492502252022,1
1503523887630,+0.382,+0.587,-0.223,-0.678,+0.725,-0.623,-0.146,-3.750,+25.125,+40.625,0, -2, -2, -4, -1, -1, -1, -12,-1.5464177946491815,1.296350279762688,1
1503523887646,+0.376,+0.589,-0.222,-0.680,+0.791,-0.613,-0.120,-2.188,+16.812,+36.188,1, 0, 0, -1, 0, 1, -3, 3,-1.5405212911835686,1.2989924454032182,1
1503523887671,+0.372,+0.590,-0.220,-0.682,+0.808,-0.622,-0.133,-3.812,+5.688,+34.312,1, -1, 0, 0, -1, -3, -1, -9,-1.535567468446108,1.297701299994473,1
1503523887690,+0.368,+0.591,-0.217,-0.685,+0.771,-0.638,-0.145,-7.125,-2.812,+34.250,-1, -2, 2, 1, 1, -1, -1, -12,-1.530602592008472,1.2949715823360621,1
1503523887707,+0.364,+0.590,-0.213,-0.688,+0.733,-0.640,-0.151,-11.000,-10.375,+32.812,-3, -2, -3, -1, -3, 0, -1, -8,-1.519249642420561,1.284069661282873,1
1503523887728,+0.362,+0.589,-0.209,-0.691,+0.714,-0.643,-0.146,-8.625,-15.750,+27.688,2, -1, 1, 0, 0, -3, -1, 6,-1.5118281647150549,1.2739435916904438,1
1503523887750,+0.362,+0.588,-0.206,-0.693,+0.704,-0.647,-0.129,-6.688,-15.250,+13.312,-1, -4, -2, -1, -1, -1, -1, -8,-1.5084782679806672,1.2661431558317346,1
1503523887766,+0.363,+0.587,-0.205,-0.694,+0.749,-0.626,-0.122,-7.000,-14.125,+4.188,2, 0, 0, 1, 0, 0, 1, -4,-1.5073181126090822,1.261875527125188,1
1503523887789,+0.364,+0.586,-0.205,-0.695,+0.770,-0.622,-0.134,-5.438,-13.438,+1.188,3, 1, 2, 1, 1, 1, -2, -5,-1.5062723684439077,1.2592339611926902,1
1503523887812,+0.365,+0.585,-0.204,-0.695,+0.752,-0.626,-0.142,-5.062,-10.375,-0.062,-2, 0, 0, 0, -2, 1, -3, -2,-1.505076061530685,1.254821996273944,1
1503523887826,+0.365,+0.584,-0.205,-0.695,+0.748,-0.652,-0.134,-5.875,-2.875,-4.688,1, -1, -3, -2, -4, -4, 1, 3,-1.5020261434894777,1.2531662940236015,1
1503523887855,+0.366,+0.583,-0.206,-0.695,+0.738,-0.659,-0.146,-4.062,-2.938,-7.562,0, -1, -2, -1, 0, -1, 0, -2,-1.5010638201803594,1.2520129527945723,1
1503523887871,+0.368,+0.583,-0.208,-0.694,+0.743,-0.661,-0.142,-4.562,-1.375,-15.750,1, 2, -1, -1, -1, -1, -1, -2,-1.5053473747786028,1.2560458717088585,1
1503523887886,+0.370,+0.581,-0.212,-0.693,+0.772,-0.672,-0.134,-7.500,+0.562,-26.500,-2, -1, -1, -1, -1, 1, -1, -2,-1.503615672233632,1.2568592497261837,1
1503523887912,+0.374,+0.579,-0.215,-0.692,+0.779,-0.677,-0.158,-9.250,-3.688,-36.750,-2, 0, 1, 0, -2, 1, -2, -1,-1.5059682922366218,1.2570521092850115,1
1503523887931,+0.380,+0.576,-0.220,-0.690,+0.796,-0.620,-0.179,-10.188,-6.750,-43.562,0, -1, 2, 1, -1, -1, -1, 0,-1.509615960976229,1.2581439283192888,1
1503523887947,+0.385,+0.572,-0.226,-0.688,+0.780,-0.584,-0.206,-12.000,+0.750,-47.250,0, 0, -2, -1, 0, 0, -1, -1,-1.5084874516384106,1.2574436071090298,1
1503523887968,+0.389,+0.570,-0.231,-0.686,+0.754,-0.565,-0.175,-9.875,+2.938,-42.500,-2, 0, -1, 0, 1, -1, 0, -1,-1.5111993124415721,1.2609113959758522,1
1503523887991,+0.393,+0.567,-0.236,-0.684,+0.759,-0.560,-0.157,-10.375,+3.000,-39.250,-1, -2, 1, 0, 0, 0, 1, -2,-1.5111043697006559,1.2614394995624758,1
1503523888014,+0.397,+0.564,-0.241,-0.682,+0.753,-0.569,-0.150,-14.062,-1.500,-41.438,-1, -3, -1, -5, -2, -4, -2, -1,-1.5111271051549748,1.262082880808378,1
1503523888030,+0.401,+0.560,-0.247,-0.681,+0.754,-0.546,-0.178,-19.500,+2.688,-43.375,2, 7, -1, 1, -2, 1, 1, -1,-1.5086524859014925,1.2617735516087096,1
1503523888050,+0.404,+0.557,-0.254,-0.680,+0.769,-0.531,-0.190,-18.562,+13.250,-42.562,-2, -4, 0, -2, 1, -1, -2, -1,-1.5071267888441204,1.2657627217082636,1
1503523888080,+0.407,+0.556,-0.259,-0.677,+0.889,-0.651,-0.190,-7.188,+12.062,-42.938,0, -1, -1, 0, -1, -3, -2, -2,-1.510767424956076,1.2718357400036866,1
1503523888089,+0.409,+0.557,-0.269,-0.671,+1.034,-0.673,-0.189,+1.000,+39.875,-53.312,6, 5, -1, -2, -2, -1, 0, 1,-1.5178844528467117,1.2908458256326918,1
1503523888111,+0.412,+0.555,-0.277,-0.668,+0.837,-0.500,-0.187,-13.500,+23.438,-50.438,-5, -6, 0, 1, 1, 1, -1, -1,-1.5190162213394731,1.2991080856641568,1
1503523888126,+0.416,+0.549,-0.282,-0.668,+0.732,-0.479,-0.197,-22.562,-9.312,-43.375,-2, 2, 0, -3, -1, -3, 0, 1,-1.5118339077665723,1.2924950832397817,1
1503523888149,+0.421,+0.545,-0.287,-0.666,+0.802,-0.479,-0.186,-14.750,-0.062,-47.250,1, -1, -2, -3, -2, -1, -1, -2,-1.511949648072238,1.2915334998543466,1
1503523888172,+0.423,+0.544,-0.294,-0.663,+0.856,-0.524,-0.158,-11.750,+19.375,-43.500,2, 1, -1, 0, -1, -2, -1, -1,-1.5137831218091344,1.3008042324207159,1
1503523888186,+0.423,+0.542,-0.302,-0.661,+0.891,-0.506,-0.152,-18.188,+28.500,-35.625,7, 1, 2, 1, 1, -2, -1, 1,-1.5092728944294906,1.3087537278920378,1
1503523888208,+0.423,+0.539,-0.310,-0.658,+0.938,-0.431,-0.164,-24.125,+26.125,-38.188,-7, 2, -1, 3, 2, 0, 0, -1,-1.502317233881469,1.3141204010325478,1
1503523888230,+0.426,+0.536,-0.318,-0.656,+0.907,-0.345,-0.182,-14.688,+16.750,-40.125,0, 15, 2, 10, -4, 1, -1, 1,-1.5014971109618083,1.320775100258647,1
1503523888246,+0.430,+0.534,-0.322,-0.653,+0.873,-0.382,-0.195,-4.125,+8.812,-38.688,3, -2, -2, -7, -13, 0, -2, -3,-1.5047527184109586,1.323276379870049,1
1503523888268,+0.431,+0.533,-0.328,-0.650,+0.940,-0.419,-0.195,-6.250,+16.875,-32.562,8, -4, 0, -2, 2, 0, -3, 0,-1.5046255510905167,1.3309319290934356,1
1503523888297,+0.432,+0.532,-0.334,-0.647,+0.963,-0.372,-0.168,-6.375,+24.438,-28.062,-10, -6, 0, 0, 0, 0, 2, -1,-1.5045057378671465,1.3386494707754153,1
1503523888307,+0.433,+0.531,-0.339,-0.644,+0.974,-0.355,-0.175,-2.062,+18.812,-25.062,-2, -5, 0, 9, -9, 1, -1, 0,-1.504316541277791,1.3446791418937796,1
1503523888329,+0.435,+0.530,-0.342,-0.642,+0.934,-0.343,-0.187,-0.250,+10.938,-23.500,-1, 1, -4, -6, 3, -3, -1, 0,-1.5060161854584255,1.347663328387566,1
1503523888351,+0.437,+0.529,-0.346,-0.640,+0.933,-0.352,-0.164,+0.562,+8.500,-22.375,-6, -5, 1, -4, 3, 0, 1, 1,-1.5077954874467476,1.3524172459536385,1
1503523888366,+0.438,+0.529,-0.349,-0.638,+0.955,-0.349,-0.147,+2.188,+12.438,-17.438,13, -1, 0, -8, 15, 1, 2, -4,-1.5098567153556959,1.3576117038804822,1
1503523888388,+0.438,+0.530,-0.352,-0.635,+0.990,-0.353,-0.147,+4.812,+16.188,-13.250,-8, -6, -3, 1, -5, -1, 0, -1,-1.512209294586347,1.3648397651253878,1
1503523888411,+0.439,+0.530,-0.354,-0.633,+0.984,-0.345,-0.128,+4.125,+8.188,-12.000,-13, -6, -2, -6, -3, -2, -3, 0,-1.5141896196997118,1.368282925271494,1
1503523888426,+0.441,+0.530,-0.355,-0.631,+0.939,-0.336,-0.127,+5.500,+0.688,-14.000,1, 8, -1, 0, -1, 2, 1, 1,-1.5180624766624,1.370193052534927,1
1503523888447,+0.443,+0.530,-0.356,-0.630,+0.888,-0.333,-0.143,+6.625,+3.312,-15.688,9, 14, 1, 3, -5, -3, -4, 1,-1.5219841997419994,1.3722490382270618,1
1503523888470,+0.444,+0.530,-0.358,-0.627,+0.900,-0.341,-0.124,+6.938,+5.562,-15.625,-8, -5, -2, -1, 6, 1, 2, -4,-1.5239119185372645,1.3755372851560208,1
1503523888486,+0.445,+0.531,-0.360,-0.625,+0.958,-0.357,-0.112,+5.750,+8.875,-15.750,2, -1, -3, -11, -1, 1, 3, 1,-1.5281742972428882,1.3813758320486866,1
1503523888510,+0.446,+0.531,-0.362,-0.623,+0.978,-0.359,-0.110,+5.750,+7.938,-15.812,0, 0, -7, -3, -7, -1, -1, 0,-1.5301384352515537,1.3848132752729043,1
1503523888530,+0.448,+0.531,-0.363,-0.621,+0.960,-0.358,-0.088,+5.000,+2.750,-16.188,-2, -3, 0, 0, -2, -1, -2, 3,-1.5340052170757839,1.3867014090095515,1
1503523888545,+0.449,+0.531,-0.364,-0.619,+0.940,-0.340,-0.087,+2.938,-0.750,-16.375,3, 4, -5, -7, -2, -1, 2, -2,-1.5359261783718883,1.3883816486045495,1
1503523888567,+0.451,+0.530,-0.366,-0.618,+0.919,-0.334,-0.096,+1.000,+2.375,-17.312,10, 2, 3, 3, -2, 0, 0, 3,-1.537597049866569,1.3897801261102776,1
1503523888590,+0.452,+0.530,-0.368,-0.616,+0.960,-0.335,-0.100,-1.500,+4.312,-16.688,1, 3, -1, -2, 1, -3, -2, -2,-1.5395564933646284,1.3932199790006132,1
1503523888605,+0.453,+0.529,-0.370,-0.615,+0.995,-0.325,-0.101,-3.500,+2.562,-15.500,-7, -2, 0, 6, 13, 1, -3, -3,-1.5392882839241635,1.394434423053556,1
1503523888627,+0.454,+0.527,-0.372,-0.614,+0.994,-0.324,-0.095,-4.062,-0.625,-18.688,-5, -3, 2, 6, -12, -2, -2, -3,-1.536784595196493,1.3933100596431387,1
1503523888650,+0.457,+0.525,-0.374,-0.613,+0.985,-0.317,-0.098,-3.188,-9.750,-19.938,7, 3, -3, 2, 0, -3, -1, -1,-1.5382238149409602,1.3926097876191934,1
1503523888665,+0.459,+0.523,-0.374,-0.613,+0.970,-0.301,-0.119,-4.312,-12.875,-18.125,-7, -1, 1, -5, 2, 0, 4, 1,-1.5377035355862416,1.388336426508612,1
1503523888687,+0.462,+0.520,-0.375,-0.613,+0.969,-0.284,-0.094,-3.000,-12.812,-15.500,28, 16, 0, -1, -3, -3, -4, 1,-1.5370245686199366,1.3837465682064622,1
1503523888713,+0.465,+0.518,-0.375,-0.613,+1.001,-0.296,-0.095,-2.562,-19.500,-16.438,-9, -13, -4, 3, 6, -1, -1, -4,-1.538570555595954,1.379736640958099,1
1503523888725,+0.468,+0.514,-0.375,-0.613,+0.984,-0.287,-0.086,-7.188,-24.875,-18.000,-7, -1, 2, 4, 13, 0, 0, -1,-1.535825580230199,1.371166484420905,1
1503523888749,+0.471,+0.511,-0.375,-0.614,+0.929,-0.277,-0.124,-8.938,-24.000,-18.375,0, -1, 2, -9, -6, 0, 3, 2,-1.535375775559172,1.3651091695429933,1
1503523888770,+0.473,+0.508,-0.376,-0.614,+0.914,-0.252,-0.160,-10.000,-10.438,-13.438,3, 0, -7, -5, -6, -3, -4, -13,-1.5329957591455927,1.360515431996584,1
1503523888786,+0.474,+0.505,-0.377,-0.615,+0.932,-0.246,-0.189,-9.500,-4.625,-12.250,13, 1, 1, -2, -2, 1, -4, -3,-1.5286979302985952,1.3559135268691807,1
1503523888807,+0.476,+0.502,-0.378,-0.615,+0.941,-0.248,-0.157,-10.938,-10.562,-15.000,-20, -8, -1, -1, -1, -2, 3, 0,-1.5264313065361672,1.3514168523254189,1
1503523888830,+0.477,+0.499,-0.379,-0.616,+0.976,-0.261,-0.159,-13.250,-11.938,-13.750,7, 10, 1, -2, -6, -1, -2, 3,-1.522237667624114,1.3469126494247032,1
1503523888849,+0.479,+0.496,-0.380,-0.616,+0.976,-0.240,-0.165,-9.562,-10.250,-14.562,-1, 5, -3, -2, -3, -1, 2, -1,-1.5200833483578484,1.3425115000539893,1
1503523888867,+0.481,+0.494,-0.382,-0.616,+0.905,-0.211,-0.208,-6.250,-3.562,-15.938,-11, -8, -1, -3, -1, -3, 5, 3,-1.5201123548498765,1.3421849284541572,1
1503523890729,+0.429,+0.515,-0.164,-0.724,+0.690,-0.613,-0.346,+45.562,-12.938,+17.875,5, 1, 0, -2, -1, -3, -2, -1,-1.4430731148447413,1.021599243936997,2
1503523890750,+0.429,+0.520,-0.158,-0.721,+0.696,-0.625,-0.346,+43.188,-11.750,+17.062,-7, 0, -4, -2, -2, 0, -5, -51,-1.454937935299802,1.025076075527153,2
1503523890772,+0.429,+0.525,-0.152,-0.719,+0.692,-0.637,-0.333,+42.438,-11.625,+16.000,5, 13, 0, 0, 0, -1, 1, 17,-1.4672812492136522,1.0291397742581423,2
1503523890788,+0.429,+0.530,-0.147,-0.717,+0.680,-0.639,-0.319,+40.875,-11.500,+14.125,26, 10, -12, -3, 0, -2, -1, 5,-1.4801022922760858,1.035186395177266,2
1503523890810,+0.429,+0.535,-0.141,-0.714,+0.679,-0.660,-0.306,+39.312,-10.562,+14.062,-1, 14, 14, 0, 1, -1, -1, 6,-1.4930627677390755,1.0398259517510415,2
1503523890833,+0.428,+0.539,-0.136,-0.712,+0.679,-0.670,-0.304,+36.438,-8.312,+14.375,2, -1, -6, 0, -2, -1, 0, -9,-1.5013520428131186,1.0428874321967954,2
1503523890855,+0.428,+0.544,-0.132,-0.710,+0.690,-0.676,-0.297,+34.875,-6.062,+14.625,-9, -4, 0, 1, 1, 0, 0, 3,-1.5152754134577395,1.0515605153294918,2
1503523890877,+0.427,+0.548,-0.127,-0.708,+0.668,-0.667,-0.303,+34.312,-5.750,+13.938,11, -20, -8, 0, -1, 0, -2, 5,-1.5241336937160888,1.0552079050938898,2
1503523890892,+0.427,+0.552,-0.123,-0.706,+0.685,-0.680,-0.296,+33.000,-9.125,+14.562,-6, 2, -1, 1, 0, 1, -3, -23,-1.5357038780160361,1.0613861379150427,2
1503523890908,+0.427,+0.555,-0.118,-0.704,+0.675,-0.688,-0.281,+30.500,-9.250,+13.875,-5, 0, 1, -5, -4, -2, -2, 3,-1.5444542851371321,1.0631212820905804,2
1503523890930,+0.426,+0.559,-0.114,-0.702,+0.663,-0.694,-0.284,+30.438,-6.375,+14.312,5, 2, -1, -3, 0, -1, 2, 25,-1.5541402970284608,1.0690785539863508,2
1503523890952,+0.426,+0.562,-0.110,-0.700,+0.668,-0.706,-0.290,+28.500,-5.625,+14.312,-4, -1, 2, 4, 1, 2, 6, 33,-1.5633524334033255,1.072747227095551,2
1503523890969,+0.425,+0.565,-0.106,-0.699,+0.651,-0.686,-0.291,+27.438,-5.688,+14.312,2, 5, 3, -3, -1, 0, 1, -4,-1.5703761175554156,1.0760062626116549,2
1503523890998,+0.424,+0.568,-0.102,-0.697,+0.647,-0.704,-0.286,+27.500,-4.938,+14.625,12, -3, 2, -2, -2, -3, -1, 10,-1.5775861642843498,1.079314062516286,2
1503523891012,+0.423,+0.572,-0.099,-0.696,+0.659,-0.716,-0.268,+27.562,-2.188,+15.875,-14, -2, 3, -1, -3, -1, -7, -17,-1.5882087351614205,1.0878197586696958,2
1503523891028,+0.422,+0.575,-0.095,-0.694,+0.673,-0.722,-0.260,+26.750,-4.875,+14.750,-4, -10, -6, 0, 0, -3, -5, -66,-1.5958534567135438,1.091561756272709,2
1503523891050,+0.421,+0.578,-0.091,-0.693,+0.635,-0.736,-0.258,+25.562,-5.500,+15.688,13, 17, -6, -1, 0, 1, 5, 10,-1.603672431529684,1.0956375776702267,2
1503523891072,+0.420,+0.581,-0.088,-0.692,+0.625,-0.710,-0.258,+24.625,-3.125,+15.562,-11, 0, -10, -4, -3, -1, 1, 7,-1.6116229762620407,1.1012968002957346,2
1503523891089,+0.418,+0.584,-0.084,-0.691,+0.624,-0.755,-0.231,+22.750,-1.625,+16.375,-2, -10, 1, 2, 3, 0, 0, 12,-1.617463456126068,1.1050064306719978,2
1503523891110,+0.417,+0.587,-0.081,-0.689,+0.621,-0.753,-0.232,+21.750,+1.375,+14.750,-8, -10, -2, -1, 0, 0, -2, -12,-1.6258621448650674,1.1109457999899253,2
1503523891132,+0.415,+0.590,-0.079,-0.688,+0.641,-0.764,-0.213,+19.250,-1.375,+14.188,10, -4, -2, -3, -1, 0, -2, 19,-1.631916023562401,1.1177441982405831,2
1503523891148,+0.414,+0.592,-0.076,-0.687,+0.631,-0.759,-0.223,+16.750,-3.812,+13.000,-6, -2, -8, -2, -1, 0, -2, 0,-1.6370602397323366,1.1203935145178896,2
1503523891170,+0.413,+0.594,-0.073,-0.687,+0.600,-0.757,-0.215,+13.438,-1.188,+12.875,-11, -4, -5, 0, -1, 1, 2, 14,-1.6422291525899093,1.1232544566664768,2
1503523891195,+0.411,+0.595,-0.072,-0.687,+0.592,-0.765,-0.210,+10.625,+2.438,+12.812,5, 4, 2, -1, 1, 1, 2, 11,-1.6412398810176654,1.1241981722699068,2
1503523891208,+0.409,+0.597,-0.071,-0.686,+0.635,-0.766,-0.206,+9.375,+3.375,+11.688,-11, -2, -2, -2, -1, -2, 2, 3,-1.6440177000016554,1.1289302037930569,2
1503523891230,+0.408,+0.598,-0.069,-0.686,+0.642,-0.776,-0.196,+7.562,+0.188,+12.438,-22, 4, 6, 0, 0, -1, 0, -5,-1.645599665102404,1.129425534812024,2
1503523891252,+0.407,+0.599,-0.067,-0.686,+0.621,-0.777,-0.198,+6.562,-4.750,+11.500,-8, -33, -12, -4, -2, -1, -4, -9,-1.6472125980255685,1.1299520024795557,2
1503523891268,+0.406,+0.600,-0.065,-0.686,+0.591,-0.764,-0.211,+5.188,-2.188,+11.812,5, -5, -7, -1, 1, -1, -1, -4,-1.6488570658256005,1.1305101668550661,2
1503523891297,+0.404,+0.601,-0.064,-0.687,+0.584,-0.776,-0.208,+3.625,+3.062,+14.125,5, 3, 2, 0, -1, -1, -3, -1,-1.6479091678665059,1.1316635000935713,2
1503523891312,+0.402,+0.602,-0.063,-0.688,+0.604,-0.787,-0.201,+2.062,+4.250,+13.812,11, -3, -2, 0, 0, -2, -10, -76,-1.6469851226475363,1.1328329863258335,2
1503523891328,+0.400,+0.602,-0.062,-0.688,+0.616,-0.796,-0.206,+0.688,+1.250,+13.375,-6, 12, 5, 2, 1, 2, 5, 21,-1.642361196514312,1.1299117607019584,2
1503523891351,+0.398,+0.602,-0.061,-0.689,+0.600,-0.787,-0.196,-2.250,+2.188,+13.625,5, -17, -11, 1, 0, 0, 0, -10,-1.6376155061540285,1.127049264044528,2
1503523891372,+0.396,+0.602,-0.061,-0.691,+0.581,-0.790,-0.205,-4.500,+5.125,+15.750,-1, 10, -2, -4, -3, -3, -3, -14,-1.6326458229899108,1.1255548661530175,2
1503523891388,+0.393,+0.602,-0.060,-0.692,+0.587,-0.798,-0.193,-6.188,+5.500,+16.125,12, -4, -1, 0, 1, 2, 2, 23,-1.625445890787539,1.1218012228044425,2
1503523891410,+0.391,+0.602,-0.060,-0.694,+0.598,-0.794,-0.187,-8.000,+2.500,+14.938,4, 33, 24, 2, -1, -3, -3, 7,-1.6204669581087827,1.1202722013042514,2
1503523891432,+0.388,+0.602,-0.059,-0.696,+0.588,-0.807,-0.205,-9.938,+3.000,+16.125,-6, -20, -16, -1, 0, 0, 2, -8,-1.6131448170824088,1.1165280840917122,2
1503523891449,+0.385,+0.601,-0.059,-0.698,+0.568,-0.791,-0.207,-11.875,+7.688,+16.875,2, -9, -2, -2, 0, -1, 0, 2,-1.6017737281664042,1.1099865297432594,2
1503523891470,+0.382,+0.600,-0.060,-0.700,+0.560,-0.797,-0.210,-13.375,+11.438,+18.500,-9, 3, 3, 1, 1, 0, 3, 21,-1.5903192251119525,1.104791621393309,2
1503523891492,+0.378,+0.600,-0.061,-0.703,+0.580,-0.805,-0.213,-14.250,+12.500,+18.375,15, -12, -3, -3, -2, -1, -4, -40,-1.580335156461589,1.102893550290499,2
1503523891509,+0.375,+0.599,-0.061,-0.705,+0.596,-0.810,-0.204,-15.625,+8.062,+18.000,-4, 13, 4, 1, -2, 1, 1, 11,-1.5688888073580856,1.0962593218807761,2
1503523891532,+0.372,+0.597,-0.061,-0.708,+0.566,-0.821,-0.205,-19.125,+6.250,+18.562,-2, -5, 1, -3, -1, -1, 0, -9,-1.5534294219768343,1.085571372177404,2
1503523891552,+0.368,+0.596,-0.062,-0.711,+0.546,-0.806,-0.204,-22.188,+10.250,+19.312,-12, -11, 0, 1, 1, -1, -3, -12,-1.5394603049359747,1.0794961300848294,2
1503523891569,+0.364,+0.594,-0.063,-0.715,+0.530,-0.808,-0.229,-25.312,+14.812,+20.812,1, -3, -5, 0, 1, -1, 1, 4,-1.5215620892840427,1.0694193596428543,2
1503523891591,+0.359,+0.592,-0.065,-0.719,+0.512,-0.812,-0.224,-27.312,+19.625,+19.375,-6, 3, 2, -3, -1, 0, -2, -3,-1.5012695639691662,1.0599448031811602,2
1503523891613,+0.353,+0.590,-0.068,-0.722,+0.538,-0.848,-0.213,-30.125,+22.250,+20.562,-3, 7, -2, -1, -1, -1, -3, -9,-1.4785426812690816,1.0510361577973166,2
1503523891632,+0.348,+0.588,-0.070,-0.727,+0.554,-0.838,-0.229,-33.438,+21.375,+20.438,-5, -4, -4, -2, -4, -1, -1, 7,-1.458567791112562,1.04182832223253,2
1503523891650,+0.343,+0.585,-0.073,-0.731,+0.551,-0.814,-0.233,-35.688,+21.125,+18.438,-1, 0, 0, -1, -1, -4, 2, 19,-1.4348948301675815,1.0302749409467997,2
1503523891673,+0.339,+0.582,-0.076,-0.735,+0.519,-0.799,-0.260,-37.562,+20.375,+18.812,0, 6, 0, 2, 3, 1, -1, 12,-1.414097488313551,1.0199713231675278,2
1503523891689,+0.333,+0.579,-0.080,-0.740,+0.474,-0.784,-0.298,-34.438,+28.375,+18.688,-2, 12, -7, -2, -3, -1, -2, -8,-1.3888123447515757,1.0097620579983881,2
1503523891710,+0.326,+0.577,-0.084,-0.744,+0.463,-0.785,-0.304,-29.562,+36.125,+17.875,2, -21, -5, -4, -2, -1, -1, 3,-1.3648493659079592,1.0025248126071307,2
1503523891734,+0.320,+0.576,-0.089,-0.747,+0.485,-0.810,-0.289,-26.188,+41.438,+15.125,2, 15, 9, 0, 0, -2, -3, -3,-1.3478248025879047,1.0020799716116384,2
1503523891748,+0.314,+0.576,-0.094,-0.749,+0.516,-0.821,-0.278,-24.125,+41.375,+13.562,2, -5, -5, 0, -1, -3, -3, -7,-1.3346344347818075,1.0055161946006883,2
1503523891770,+0.308,+0.575,-0.099,-0.752,+0.512,-0.811,-0.281,-22.625,+37.688,+11.688,-2, -6, -4, -2, -1, 0, -2, -5,-1.3180834699092745,1.0054888216505746,2
1503523891792,+0.303,+0.574,-0.104,-0.754,+0.489,-0.812,-0.271,-23.688,+37.062,+8.312,-3, -20, -9, -3, -1, 2, 2, 10,-1.304135866690729,1.0065269918093467,2
1503523891808,+0.297,+0.573,-0.109,-0.756,+0.488,-0.816,-0.259,-22.000,+41.312,+8.062,2, 0, -1, 1, -2, 0, 0, 13,-1.2877831359807634,1.0067371294728062,2
1503523891832,+0.291,+0.573,-0.116,-0.757,+0.503,-0.797,-0.272,-19.750,+49.438,+2.875,1, -3, -2, -1, -2, 0, 1, 19,-1.2762598110627812,1.014692130083567,2
1503523891852,+0.286,+0.574,-0.123,-0.758,+0.493,-0.788,-0.259,-16.125,+50.812,-0.438,-6, -8, -3, 2, 0, -1, 1, 11,-1.271343101394932,1.027649780936593,2
1503523891869,+0.281,+0.574,-0.131,-0.758,+0.504,-0.796,-0.267,-13.500,+49.812,-5.562,-3, 3, -4, 1, -1, 0, -1, -4,-1.263167257260962,1.0388624902250478,2
1503523891890,+0.277,+0.574,-0.138,-0.758,+0.504,-0.797,-0.235,-16.438,+46.500,-12.875,-3, -2, -5, -1, -3, -1, 0, -7,-1.2571520807492658,1.0492219535052307,2
1503523891912,+0.275,+0.573,-0.146,-0.758,+0.525,-0.829,-0.217,-19.562,+43.500,-17.750,0, 1, -2, 0, 1, -1, -1, -10,-1.253128557697217,1.0599138405287003,2
1503523891928,+0.271,+0.573,-0.155,-0.758,+0.569,-0.840,-0.193,-21.750,+46.812,-19.562,0, -3, -1, 1, 1, -2, -2, -7,-1.2485798875412093,1.0746741893779823,2
1503523891950,+0.268,+0.572,-0.165,-0.757,+0.588,-0.815,-0.206,-22.875,+49.875,-20.125,-1, 1, 2, -3, -2, -2, -1, -5,-1.2432841213396242,1.0886591876616292,2
1503523891972,+0.265,+0.571,-0.175,-0.757,+0.612,-0.789,-0.232,-24.250,+54.812,-21.438,-1, -2, -7, -2, -2, 0, -1, -2,-1.2384306879512448,1.1031004302687049,2
1503523891988,+0.263,+0.569,-0.185,-0.757,+0.627,-0.756,-0.213,-24.750,+47.250,-23.688,-2, 0, -1, 0, 0, -2, -2, -2,-1.2325259811541023,1.1149999782895113,2
1503523892010,+0.263,+0.567,-0.193,-0.756,+0.649,-0.751,-0.227,-22.250,+30.750,-29.562,-4, -4, -4, 0, 0, 0, 1, -1,-1.2299332785145156,1.1242462694307322,2
1503523892034,+0.265,+0.564,-0.200,-0.756,+0.657,-0.779,-0.218,-22.125,+19.875,-32.938,-1, -2, 1, 2, -1, 0, -1, -2,-1.228216304274846,1.129819020305972,2
1503523892048,+0.266,+0.561,-0.207,-0.756,+0.646,-0.770,-0.218,-24.250,+18.875,-34.062,2, 1, 1, -1, -2, 0, -1, 1,-1.2243404288456359,1.134809707986183,2
1503523892076,+0.267,+0.557,-0.214,-0.756,+0.649,-0.735,-0.220,-24.938,+21.625,-33.125,-1, 1, 0, -2, 0, -2, -2, -2,-1.2173112198610416,1.1366749735042054,2
1503523892092,+0.269,+0.554,-0.221,-0.756,+0.679,-0.717,-0.222,-22.750,+19.938,-30.750,1, 1, 1, 0, -1, 0, -1, -1,-1.2159366329513714,1.1427008725269556,2
1503523892115,+0.270,+0.552,-0.227,-0.756,+0.683,-0.713,-0.221,-19.875,+13.375,-27.688,-2, -1, -4, -4, -2, 0, 1, -1,-1.215057706328594,1.1493084407963325,2
1503523892138,+0.272,+0.548,-0.232,-0.756,+0.660,-0.708,-0.224,-20.812,+11.562,-30.125,-2, -3, -3, -3, 0, 0, -2, -2,-1.2095935063359378,1.1482746313326717,2
1503523892159,+0.274,+0.545,-0.238,-0.756,+0.656,-0.694,-0.229,-21.875,+15.188,-30.188,-1, -2, -1, 1, 0, 1, 2, 0,-1.2079230707957094,1.152586932489571,2
1503523892169,+0.275,+0.543,-0.244,-0.755,+0.641,-0.686,-0.208,-18.500,+17.938,-30.938,3, 0, -2, 0, -2, -1, 0, -1,-1.2069261900005102,1.1591686069432572,2
1503523892190,+0.277,+0.540,-0.250,-0.755,+0.675,-0.692,-0.205,-20.438,+14.938,-35.375,-1, -4, -1, 1, -1, -1, -1, 0,-1.2053668030013707,1.163655799641539,2
1503523892212,+0.279,+0.537,-0.257,-0.754,+0.706,-0.688,-0.187,-21.188,+16.312,-37.375,-3, -2, 0, 0, -1, -2, -2, -3,-1.2041236640976558,1.1700316085534372,2
1503523892229,+0.281,+0.533,-0.264,-0.753,+0.717,-0.675,-0.232,-22.062,+21.188,-37.125,-1, -3, 0, -1, -2, -2, 0, -1,-1.2000468160841702,1.1736129961779123,2
1503523892250,+0.281,+0.530,-0.271,-0.753,+0.710,-0.648,-0.253,-24.375,+25.688,-32.938,-1, -4, -1, 1, 0, 1, 0, 0,-1.1950317120394294,1.1794411877323758,2
1503523892273,+0.282,+0.526,-0.278,-0.752,+0.742,-0.632,-0.241,-24.500,+21.688,-32.250,0, -9, -15, -3, 0, 2, 0, -2,-1.1891278865807045,1.1828712057399613,2
1503523892288,+0.284,+0.522,-0.284,-0.752,+0.777,-0.617,-0.235,-23.000,+12.125,-33.938,-2, -4, -1, -2, -1, -2, -2, 0,-1.1852167575206143,1.1852167575206143,2
1503523892311,+0.287,+0.518,-0.290,-0.752,+0.773,-0.614,-0.235,-21.625,+9.750,-35.062,3, 0, -4, -2, -2, -2, -3, -3,-1.1835037097863388,1.1882287768293835,2
1503523892334,+0.289,+0.514,-0.296,-0.751,+0.768,-0.597,-0.219,-21.875,+11.750,-34.750,2, -4, -3, -4, -3, -1, 0, 1,-1.1795722928136259,1.1906359018882646,2
1503523892348,+0.291,+0.511,-0.301,-0.751,+0.783,-0.608,-0.208,-22.000,+13.312,-30.688,0, 4, 2, 0, 0, -1, -1, -2,-1.1781780486863471,1.1940285583442714,2
1503523892371,+0.292,+0.508,-0.307,-0.750,+0.815,-0.600,-0.226,-22.562,+14.125,-26.750,-1, 3, 6, 0, 0, 0, -2, -4,-1.1750049863351546,1.19885207913418,2
1503523892393,+0.293,+0.504,-0.312,-0.750,+0.837,-0.578,-0.258,-22.375,+13.375,-24.062,-3, -2, 3, 1, -3, -1, 1, 0,-1.1691259915039285,1.1994226458398665,2
1503523892409,+0.294,+0.500,-0.317,-0.750,+0.825,-0.546,-0.257,-21.062,+8.625,-22.188,-1, 15, 2, 2, 2, -1, 0, 0,-1.1633763083975177,1.2001624363935495,2
1503523892431,+0.295,+0.497,-0.320,-0.751,+0.809,-0.540,-0.262,-17.688,+1.000,-20.188,1, -3, -2, -2, -1, 0, -1, -1,-1.1595772864609957,1.1996440318012047,2
1503523892453,+0.297,+0.494,-0.322,-0.751,+0.809,-0.543,-0.252,-15.438,+0.438,-19.562,-3, -1, -2, 1, -3, 0, 0, -2,-1.157113267755729,1.1972672222512821,2
1503523892471,+0.298,+0.491,-0.325,-0.751,+0.805,-0.553,-0.248,-15.438,+1.688,-18.750,0, -4, -2, -2, 1, -2, -1, -4,-1.1531667947364124,1.196628436438272,2
1503523892491,+0.299,+0.488,-0.328,-0.751,+0.819,-0.542,-0.259,-15.938,+5.375,-17.250,-5, 16, 29, 8, 2, 0, -2, 0,-1.149285597946407,1.19607027287196,2
1503523892513,+0.300,+0.486,-0.331,-0.751,+0.829,-0.518,-0.258,-13.250,+5.562,-16.625,-1, -11, -17, -5, -1, -1, -1, 3,-1.1478793054839325,1.1979845308746817,2
1503523892528,+0.301,+0.483,-0.334,-0.751,+0.830,-0.526,-0.265,-12.312,+2.875,-17.750,-2, -3, 0, -2, -5, -2, 2, -2,-1.1441017346242923,1.197560065266043,2
1503523892559,+0.303,+0.481,-0.335,-0.751,+0.821,-0.525,-0.266,-10.562,-1.562,-16.375,0, -2, -4, -1, 5, 0, -1, 2,-1.1438412963995952,1.1957633349682488,2
1503523892573,+0.304,+0.479,-0.337,-0.751,+0.810,-0.528,-0.254,-9.938,-2.312,-16.688,-1, -2, -2, -4, -4, -1, -1, -3,-1.142056320703037,1.195687958786215,2
1503523892589,+0.306,+0.477,-0.339,-0.751,+0.803,-0.521,-0.250,-9.812,+1.375,-18.062,0, -9, -8, -3, -1, -1, 1, 0,-1.142315265533758,1.1960503843581034,2
1503523892614,+0.307,+0.474,-0.341,-0.751,+0.811,-0.511,-0.248,-10.188,+1.500,-18.625,2, 5, -6, -2, -3, -1, -1, 1,-1.1382545158200892,1.1937304130198805,2
1503523892633,+0.309,+0.472,-0.344,-0.751,+0.822,-0.512,-0.254,-10.125,+1.438,-18.750,-2, -4, 4, -1, 0, -3, -2, 0,-1.1390329746045185,1.196269217550969,2
1503523892649,+0.310,+0.470,-0.346,-0.750,+0.830,-0.514,-0.263,-10.750,+2.312,-17.062,-2, -4, 2, -1, -4, 0, -1, 1,-1.1370604711141472,1.196038855968932,2
1503523892674,+0.311,+0.468,-0.348,-0.750,+0.833,-0.510,-0.276,-11.000,+5.375,-15.562,-1, 0, -8, -3, -5, -1, -1, -1,-1.1354099886088254,1.1961288178329614,2
1503523892694,+0.311,+0.466,-0.351,-0.750,+0.835,-0.483,-0.285,-10.125,+5.438,-14.312,0, 1, 2, -1, 1, -1, -1, -1,-1.1322211607271309,1.1979744273822945,2
1503523892716,+0.312,+0.465,-0.353,-0.750,+0.832,-0.481,-0.283,-7.125,+5.438,-12.875,1, 12, 5, 1, 0, -2, -9, -1,-1.1328705899082003,1.2003551562050374,2
1503523892731,+0.313,+0.464,-0.354,-0.749,+0.845,-0.482,-0.264,-3.812,+4.812,-11.000,0, -1, -8, -3, -2, -2, 0, -1,-1.1327730863574204,1.2003357337963656,2
1503523892753,+0.313,+0.463,-0.356,-0.749,+0.861,-0.494,-0.259,-4.438,+5.812,-8.938,1, -8, -10, -4, 0, 1, 0, -1,-1.1314201563975141,1.2023498716685694,2
1503523892769,+0.313,+0.463,-0.358,-0.748,+0.868,-0.483,-0.257,-5.500,+5.125,-8.312,6, 19, 10, 0, -1, -1, -1, 1,-1.1320104691439539,1.2062952325679175,2
1503523892791,+0.314,+0.461,-0.359,-0.748,+0.864,-0.477,-0.255,-6.562,+2.625,-9.625,-7, -10, -8, -3, -2, -2, -1, -2,-1.1299867319878758,1.2043776372545094,2
1503523892814,+0.314,+0.460,-0.361,-0.748,+0.863,-0.473,-0.254,-8.438,+2.750,-12.312,0, -3, -6, 0, -2, -1, 0, 0,-1.1286485688241494,1.206424631607592,2
1503523892829,+0.316,+0.458,-0.363,-0.748,+0.841,-0.462,-0.275,-8.812,-2.188,-15.000,2, 2, -2, 2, 1, 1, -3, -3,-1.129103278323546,1.2070380710330308,2
1503523892851,+0.317,+0.456,-0.364,-0.748,+0.842,-0.476,-0.281,-7.812,-1.688,-15.500,0, 4, 1, -2, -1, -2, 0, 3,-1.127140541705869,1.2051886331842814,2
1503523892875,+0.318,+0.453,-0.365,-0.748,+0.852,-0.473,-0.251,-10.812,-4.250,-14.062,-8, -5, -8, -1, -2, -2, -2, -6,-1.1230210354926293,1.2012166388033005,2
1503523892889,+0.319,+0.451,-0.367,-0.748,+0.880,-0.467,-0.241,-12.375,-2.125,-11.750,10, 11, 19, 4, 1, 0, 2, -16,-1.1215561124687135,1.2015572184209053,2
1503523892911,+0.319,+0.450,-0.368,-0.748,+0.867,-0.444,-0.241,-12.000,+0.938,-11.000,-3, -2, 8, 3, 1, 0, 0, 14,-1.1198292462223496,1.2015572555485332,2
1503523892933,+0.320,+0.448,-0.370,-0.749,+0.855,-0.451,-0.249,-11.500,-0.312,-11.062,-9, -8, -1, -2, -1, 0, -2, 0,-1.1187063271787494,1.202237098018567,2
1503523892949,+0.321,+0.445,-0.371,-0.749,+0.874,-0.441,-0.260,-11.062,-5.688,-11.188,1, -15, -24, -5, -4, -2, -3, -1,-1.1147289057216325,1.1984212088542499,2
1503523892975,+0.322,+0.443,-0.372,-0.750,+0.861,-0.437,-0.264,-13.188,-8.000,-13.250,4, -3, 4, 1, 0, -1, 2, -11,-1.1132336130535119,1.1970373843508983,2
1503523892993,+0.323,+0.440,-0.373,-0.751,+0.849,-0.427,-0.281,-15.125,-4.625,-12.250,-5, 3, 3, 0, 0, 1, 0, 12,-1.1096608819069687,1.1936144704931377,2
1503523893016,+0.323,+0.437,-0.374,-0.751,+0.858,-0.405,-0.282,-14.438,-1.312,-11.312,-9, 23, 12, -2, -2, -2, -7, -11,-1.1038115413289633,1.1895854181288699,2
1503523893035,+0.324,+0.435,-0.376,-0.752,+0.878,-0.399,-0.297,-12.125,-2.438,-9.688,4, -7, -9, 0, 0, -2, -1, 4,-1.1028457297912508,1.1904482562163798,2
1503523893053,+0.325,+0.433,-0.377,-0.752,+0.887,-0.395,-0.281,-8.812,-4.375,-8.500,5, -3, -7, 1, 1, 1, -3, -18,-1.1011507541738683,1.1888877866709342,2
1503523893076,+0.326,+0.431,-0.377,-0.752,+0.870,-0.387,-0.291,-6.188,-1.938,-8.938,2, -1, 7, -1, -2, -1, -7, 13,-1.0990501185147472,1.1852053233961761,2
1503523893095,+0.327,+0.430,-0.378,-0.752,+0.855,-0.377,-0.299,-3.062,-3.438,-7.875,-4, -1, -5, 0, 0, -2, 3, 7,-1.0994439479075484,1.1856933461716155,2
1503523893114,+0.328,+0.429,-0.378,-0.752,+0.869,-0.407,-0.282,-0.812,-1.688,-8.250,-1, -8, -1, -1, 1, 1, -5, 2,-1.0994179605392975,1.1840419279996943,2
1503523893129,+0.329,+0.429,-0.379,-0.751,+0.871,-0.397,-0.286,-0.500,-1.125,-8.500,22, 0, -3, -3, -3, -3, 8, 68,-1.1015346829260948,1.1862268805176526,2
1503523893151,+0.330,+0.428,-0.380,-0.751,+0.857,-0.404,-0.313,-2.188,+1.062,-10.688,-45, -17, -8, -2, -1, -2, -4, 0,-1.1019371513016187,1.1867224738607238,2
1503523893175,+0.331,+0.427,-0.381,-0.751,+0.861,-0.408,-0.321,-1.250,+4.438,-9.688,0, -3, -1, -2, -2, -1, -12, -30,-1.1023440012436898,1.1872227168385079,2
1503523893189,+0.331,+0.427,-0.381,-0.750,+0.885,-0.438,-0.326,+0.750,+1.688,-6.375,1, 0, 0, 0, -4, -2, -1, -13,-1.1020195568838071,1.1869131626964085,2
1503523893211,+0.331,+0.426,-0.381,-0.751,+0.877,-0.457,-0.257,-7.188,-7.750,-5.125,-3, 5, 7, 1, 0, -1, 1, -46,-1.1003197298192484,1.1852380492073036,2
1503523893233,+0.331,+0.425,-0.382,-0.751,+0.886,-0.418,-0.205,-13.375,-4.125,-5.312,-6, -7, 0, -2, -2, -1, 2, -1,-1.0987189452753954,1.185403658824034,2
1503523893251,+0.331,+0.422,-0.384,-0.751,+0.878,-0.391,-0.219,-16.750,-0.125,-9.750,-22, 2, -5, -1, 1, 3, -1, -8,-1.0935264732921246,1.1837949119613072,2
1503523893271,+0.331,+0.420,-0.386,-0.752,+0.867,-0.386,-0.250,-17.375,-1.062,-14.938,-8, 2, -3, 0, 0, -3, 5, 2,-1.0906981696281475,1.184505590947369,2
1503523893293,+0.331,+0.416,-0.388,-0.753,+0.857,-0.399,-0.276,-22.562,-2.750,-16.125,4, -3, -2, -2, -2, 0, 5, 1,-1.0839360319855527,1.1813856648162002,2
1503523893320,+0.332,+0.412,-0.391,-0.753,+0.857,-0.388,-0.281,-25.750,-1.938,-18.000,17, -2, -2, 1, 2, -1, -5, 6,-1.0793533664746606,1.1805478864837409,2
1503523893331,+0.332,+0.407,-0.393,-0.755,+0.875,-0.388,-0.292,-28.688,-2.125,-19.250,-5, 9, 14, 2, -1, -1, -3, 7,-1.0711542873684423,1.1760662109989803,2
1503523893353,+0.332,+0.402,-0.397,-0.755,+0.928,-0.374,-0.285,-32.500,+1.125,-17.000,4, -4, -2, 0, 0, 0, -1, 1,-1.0632264938245872,1.1754400125564743,2
1503523893379,+0.331,+0.398,-0.401,-0.756,+0.888,-0.322,-0.303,-31.750,+11.438,-13.875,9, 4, -3, -2, -1, -1, -5, -15,-1.055624668165255,1.1768104068467076,2
1503523893391,+0.330,+0.394,-0.405,-0.756,+0.882,-0.296,-0.322,-27.875,+12.562,-12.000,-21, -27, -14, -4, -4, -5, -3, -12,-1.0477498496965354,1.1779817135196522,2
1503523893415,+0.328,+0.390,-0.409,-0.757,+0.919,-0.308,-0.336,-24.875,+10.000,-8.688,0, 7, 0, 1, -1, 0, -5, 1,-1.0382890433205052,1.1792938975380547,2
1503523893444,+0.328,+0.387,-0.412,-0.757,+0.924,-0.293,-0.350,-21.625,+8.438,-8.688,-6, -16, -21, -5, -1, 2, 3, -2,-1.0339858804809048,1.1805860343699606,2
1503523893453,+0.328,+0.383,-0.413,-0.758,+0.943,-0.298,-0.374,-18.250,-2.625,-9.812,19, 12, 16, 1, 1, -4, -4, -3,-1.0274084418126646,1.176083875290975,2
1503523893487,+0.328,+0.380,-0.413,-0.760,+0.917,-0.302,-0.343,-15.750,-8.125,-8.000,-19, -11, 1, -2, 1, -1, 0, 17,-1.0226584725312375,1.1715167570285385,2
1503523893495,+0.329,+0.377,-0.414,-0.760,+0.881,-0.294,-0.316,-13.562,-4.750,-6.250,35, 19, 11, -1, 0, 1, 3, 0,-1.0196572463470475,1.1688504271280888,2
1503523893512,+0.328,+0.376,-0.415,-0.761,+0.891,-0.297,-0.312,-10.250,+2.375,-3.188,-21, -7, -9, -2, -1, 0, -5, -3,-1.0166232715016819,1.1693824541969002,2
1503523893533,+0.327,+0.375,-0.416,-0.761,+0.890,-0.306,-0.327,-8.125,+4.875,-2.625,0, -4, 0, 2, 1, 8, -5, 16,-1.0132338903907256,1.1695843093558644,2
1503523893552,+0.327,+0.374,-0.418,-0.761,+0.906,-0.292,-0.315,-7.750,+3.875,-2.438,20, 6, -2, -2, -3, -46, -19, -29,-1.0122713335614484,1.1723315418648212,2
1503523893571,+0.326,+0.373,-0.419,-0.761,+0.898,-0.284,-0.300,-7.938,+4.312,-2.250,10, -5, -3, -1, -2, 16, 45, 11,-1.0088928674262376,1.1725546601519594,2
1503523893593,+0.326,+0.372,-0.420,-0.761,+0.904,-0.280,-0.294,-6.125,+4.000,-2.625,7, -21, -2, 0, -2, 2, -9, -3,-1.007522126393101,1.1730885948104046,2
1503523893615,+0.326,+0.372,-0.421,-0.760,+0.909,-0.281,-0.295,-2.562,+2.500,-3.625,0, 12, 0, 0, -1, 10, 14, 4,-1.0075734854360725,1.1749853670489017,2
1503523893631,+0.326,+0.371,-0.422,-0.760,+0.910,-0.294,-0.312,-2.500,+1.188,-4.750,6, -5, -2, -3, -2, -13, -22, 15,-1.0062050446412203,1.1755278200876846,2
1503523893654,+0.326,+0.371,-0.423,-0.760,+0.887,-0.290,-0.310,-2.812,+4.812,-5.812,15, 1, -1, 1, 4, 23, 7, 0,-1.0066195507656444,1.177767097078044,2
1503523893677,+0.326,+0.370,-0.424,-0.759,+0.889,-0.275,-0.319,-2.250,+5.500,-5.062,-25, -12, -1, -1, -1, 4, 46, -26,-1.004889177541099,1.1779795527796169,2
1503523893690,+0.326,+0.370,-0.426,-0.758,+0.900,-0.272,-0.315,-0.688,+8.812,-4.312,32, 4, -1, 1, 0, -12, -8, -10,-1.0053522746241936,1.182128598890311,2
1503523893714,+0.326,+0.371,-0.428,-0.757,+0.910,-0.270,-0.327,+1.250,+11.438,-2.438,4, 3, 2, -1, 0, -3, -19, -2,-1.0075972394733084,1.1879706116658086,2
1503523893735,+0.326,+0.372,-0.429,-0.756,+0.912,-0.269,-0.314,+3.438,+11.438,-2.750,-28, 2, -4, -1, -2, 3, -10, -18,-1.0094346192832575,1.191574050047922,2
1503523893753,+0.326,+0.372,-0.431,-0.755,+0.916,-0.269,-0.313,+6.062,+11.000,-4.188,-9, -5, 1, 1, 3, 1, -1, 34,-1.0098981882780795,1.19573611734827,2
1503523893772,+0.327,+0.374,-0.431,-0.753,+0.895,-0.287,-0.311,+8.312,+8.938,-5.250,20, 0, -4, -3, 0, 12, -29, 27,-1.0147525952036094,1.1987557110990446,2
1503523893794,+0.327,+0.375,-0.432,-0.752,+0.863,-0.299,-0.289,+8.750,+11.250,-5.812,-29, 0, -2, -3, -1, 0, 8, -16,-1.0166058145143593,1.2023774912909873,2
1503523893810,+0.327,+0.377,-0.435,-0.750,+0.876,-0.298,-0.263,+6.188,+16.125,-6.750,-5, -1, 0, 1, 0, -10, 7, -5,-1.0207399299687414,1.2118840241697133,2
1503523893832,+0.327,+0.378,-0.437,-0.748,+0.913,-0.309,-0.250,+1.750,+17.375,-9.125,13, 2, 2, 1, -2, 1, -7, -26,-1.022665165273176,1.2174542691370052,2
1503523893856,+0.327,+0.378,-0.440,-0.746,+0.933,-0.306,-0.250,-0.438,+15.875,-12.062,7, 4, -1, -1, -2, -4, 12, -12,-1.0231856843624345,1.2235735842681357,2
1503523893870,+0.328,+0.378,-0.443,-0.744,+0.915,-0.276,-0.245,+0.062,+14.750,-14.062,-19, 1, 3, 0, 1, 5, 8, 13,-1.0256719868012218,1.2299727074068174,2
1503523893892,+0.328,+0.378,-0.446,-0.742,+0.902,-0.277,-0.257,-0.250,+17.812,-14.375,30, 4, 0, -2, 0, -10, -14, 28,-1.0261865886374144,1.2361215596124795,2
1503523893915,+0.328,+0.378,-0.450,-0.740,+0.916,-0.267,-0.275,-2.250,+21.812,-12.688,9, 0, -1, -2, -1, -8, -8, -40,-1.0271059550220474,1.2445464949600706,2
1503523893929,+0.328,+0.378,-0.454,-0.737,+0.964,-0.274,-0.241,-1.000,+20.938,-12.688,-3, 11, -2, -2, -5, -9, 3, 15,-1.0276716497986655,1.2527018979934572,2
1503523895632,+0.388,+0.427,-0.360,-0.734,+0.870,-0.348,-0.335,+69.312,+2.188,+26.188,20, 19, 9, -2, -2, -3, -7, 6,-1.2066684005764197,1.158419563641328,3
1503523895654,+0.388,+0.437,-0.353,-0.730,+0.848,-0.375,-0.314,+69.625,+3.312,+26.750,-25, 15, 7, 0, 1, 1, 1, 17,-1.2232457485735786,1.1633040860991293,3
1503523895670,+0.388,+0.448,-0.347,-0.727,+0.854,-0.397,-0.291,+68.750,+3.938,+31.688,0, 3, -1, 0, 2, 3, 5, 13,-1.2430760127213254,1.1733121028858533,3
1503523895694,+0.387,+0.459,-0.340,-0.724,+0.868,-0.391,-0.294,+70.188,+4.312,+33.062,-10, 76, 34, 4, 1, 1, -2, -40,-1.2611960222800274,1.1817720830153602,3
1503523895714,+0.387,+0.469,-0.333,-0.720,+0.865,-0.416,-0.276,+69.562,-1.188,+33.125,6, -19, -10, -4, -2, 0, 8, 37,-1.279709021093162,1.1889711333736825,3
1503523895732,+0.387,+0.480,-0.326,-0.717,+0.823,-0.435,-0.256,+69.312,-3.375,+32.750,-20, -26, -9, 0, -1, 0, 4, 15,-1.3013757967366013,1.199523408832975,3
1503523895752,+0.386,+0.490,-0.319,-0.713,+0.783,-0.447,-0.241,+67.812,+2.438,+32.062,20, 13, -1, 1, -1, -2, -2, 7,-1.3192375219946033,1.207993489156082,3
1503523895775,+0.385,+0.501,-0.312,-0.709,+0.798,-0.454,-0.238,+67.688,+8.062,+32.812,6, 34, 0, -1, -1, -3, -5, -39,-1.340218592942148,1.2197328401255392,3
1503523895790,+0.384,+0.511,-0.306,-0.705,+0.823,-0.474,-0.226,+67.438,+8.062,+32.312,-15, -27, -13, -4, 0, 0, 0, 13,-1.359916634852711,1.23183299571788,3
1503523895812,+0.384,+0.521,-0.299,-0.701,+0.841,-0.469,-0.197,+65.938,-1.125,+30.500,-5, -6, -8, -1, 0, -3, -3, -4,-1.3822168227304656,1.2433366525918472,3
1503523895835,+0.384,+0.530,-0.292,-0.697,+0.803,-0.491,-0.189,+65.812,-4.750,+28.250,9, 11, 3, 0, 0, -1, 0, -9,-1.4027866683953285,1.2531314550093426,3
1503523895850,+0.384,+0.539,-0.285,-0.694,+0.757,-0.517,-0.180,+63.188,-1.875,+28.312,26, 5, 5, -1, -3, -1, -9, -32,-1.424220340037271,1.2639446514272614,3
1503523895872,+0.383,+0.547,-0.279,-0.690,+0.774,-0.532,-0.160,+58.938,+2.500,+29.062,-8, 1, -11, -1, -2, -3, -3, 13,-1.4417402103131756,1.2739927585084772,3
1503523895895,+0.382,+0.556,-0.273,-0.686,+0.803,-0.523,-0.154,+57.062,+2.938,+29.188,2, -12, 2, 1, -1, 1, 1, 26,-1.4626274941710553,1.2875451513457454,3
1503523895910,+0.381,+0.563,-0.267,-0.683,+0.825,-0.542,-0.138,+54.500,-3.188,+26.188,10, 5, -1, -2, -1, -1, 3, -5,-1.4788131656194663,1.2963393532013374,3
1503523895932,+0.381,+0.570,-0.261,-0.679,+0.808,-0.564,-0.132,+50.062,-3.625,+25.812,28, -34, -23, -1, -1, 2, 4, 104,-1.4974525949105475,1.3059174691806001,3
1503523895954,+0.381,+0.576,-0.256,-0.677,+0.792,-0.564,-0.136,+45.562,-4.938,+22.625,-5, -18, -6, -2, -1, -2, -5, 25,-1.513967109535152,1.3150734064412082,3
1503523895977,+0.381,+0.582,-0.250,-0.674,+0.790,-0.562,-0.124,+41.688,-5.500,+21.062,8, 13, 7, -1, -3, -1, 1, -9,-1.5307599633904705,1.3228883046266275,3
1503523896001,+0.380,+0.587,-0.246,-0.671,+0.779,-0.573,-0.113,+39.188,-1.000,+16.938,-16, -17, 5, -1, 0, -1, 1, -65,-1.543183173984591,1.3309565660818052,3
1503523896014,+0.380,+0.592,-0.243,-0.668,+0.795,-0.594,-0.102,+37.750,+1.000,+15.750,-1, -9, 2, -2, -3, -5, -3, -6,-1.5578826578144878,1.3412687666093153,3
1503523896037,+0.380,+0.596,-0.239,-0.665,+0.813,-0.606,-0.109,+33.625,-1.125,+12.812,-8, 31, 11, 2, 0, 0, -2, -17,-1.5698245294776703,1.3471502825026052,3
1503523896053,+0.380,+0.600,-0.237,-0.663,+0.802,-0.601,-0.089,+28.375,+0.250,+12.500,-9, -12, -12, 1, -1, 1, -3, -47,-1.581959409026306,1.356470691691717,3
1503523896074,+0.378,+0.604,-0.234,-0.661,+0.775,-0.607,-0.081,+22.688,+4.562,+14.875,5, -6, -1, -2, -3, -2, -5, 0,-1.5904771138689642,1.3638017818456443,3
1503523896098,+0.376,+0.607,-0.233,-0.660,+0.775,-0.609,-0.061,+18.938,+8.562,+14.375,-1, -7, 2, 0, -1, 1, 6, 39,-1.596009737632356,1.3712380609019137,3
1503523896112,+0.375,+0.610,-0.232,-0.658,+0.812,-0.593,-0.069,+16.062,+5.250,+12.625,26, -14, -1, 1, 0, -3, -2, 22,-1.603558185620616,1.3789662874957813,3
1503523896137,+0.373,+0.613,-0.231,-0.657,+0.806,-0.607,-0.044,+12.250,+9.125,+13.688,-1, 11, 10, 2, 1, 1, -5, -14,-1.6093068537442892,1.386611686412475,3
1503523896157,+0.371,+0.615,-0.231,-0.656,+0.782,-0.636,-0.026,+5.125,+8.625,+11.000,5, -8, -9, -3, -4, -2, -5, -32,-1.6119363402283247,1.392530385210864,3
1503523896173,+0.367,+0.617,-0.233,-0.656,+0.735,-0.653,-0.009,-5.188,+23.062,+10.688,1, -14, -3, 2, 2, -1, -2, -17,-1.610768470641108,1.4010145402485652,3
1503523896196,+0.361,+0.619,-0.236,-0.657,+0.765,-0.683,-0.002,-12.688,+31.562,+9.875,-8, 0, -4, 0, 0, 0, -4, -66,-1.6059589004216377,1.410644158281086,3
1503523896217,+0.357,+0.619,-0.239,-0.657,+0.809,-0.642,-0.067,-12.375,+24.688,+6.750,-10, 11, 1, -3, -2, -2, 3, 4,-1.5985285025476408,1.4141096818084415,3
1503523896233,+0.355,+0.617,-0.241,-0.659,+0.803,-0.635,-0.078,-18.188,+9.125,+1.188,22, 24, -11, -6, -2, -3, -1, -28,-1.588340953621765,1.4101460758866509,3
1503523896254,+0.354,+0.615,-0.243,-0.661,+0.743,-0.659,-0.055,-23.312,+3.188,-0.500,-21, -41, 2, 1, 1, -2, 3, 68,-1.5800309099841925,1.4064951562120516,3
1503523896277,+0.350,+0.614,-0.245,-0.664,+0.676,-0.641,-0.068,-26.688,+17.250,+6.062,0, 49, -9, -1, 0, 2, 4, 41,-1.5694798163102888,1.4055213856159356,3
1503523896293,+0.344,+0.612,-0.249,-0.667,+0.705,-0.616,-0.069,-30.438,+28.750,+10.812,-3, 35, 8, 0, 1, 3, 1, -11,-1.5521517386440604,1.40387460540894,3
1503523896314,+0.338,+0.611,-0.253,-0.670,+0.781,-0.617,-0.062,-34.000,+27.875,+12.562,-7, -30, -7, 1, -1, -1, 2, 2,-1.5381737921869272,1.4056510993841078,3
1503523896338,+0.333,+0.608,-0.257,-0.673,+0.772,-0.624,-0.070,-35.625,+22.188,+13.688,-11, -17, 2, 3, -2, -2, -5, 19,-1.519713598983963,1.4012032572187458,3
1503523896353,+0.328,+0.606,-0.259,-0.677,+0.730,-0.650,-0.062,-37.750,+13.812,+15.375,-6, -1, 1, -1, 0, 0, 2, 24,-1.504457571823296,1.396996791260494,3
1503523896374,+0.322,+0.602,-0.260,-0.682,+0.717,-0.671,-0.061,-44.250,+9.688,+16.938,-2, -8, 3, 1, -1, 1, 2, 7,-1.480877699446936,1.3844003357712984,3
1503523896399,+0.317,+0.598,-0.262,-0.688,+0.699,-0.648,-0.062,-49.562,+7.688,+18.875,-1, 63, 20, 0, -1, 0, -1, -49,-1.4594389295932417,1.373953068614099,3
1503523896413,+0.311,+0.593,-0.263,-0.694,+0.703,-0.641,-0.085,-52.812,+5.500,+20.250,8, -8, 3, 1, -1, -2, -6, -6,-1.4328111934334138,1.3582679580087202,3
1503523896436,+0.306,+0.588,-0.264,-0.701,+0.679,-0.648,-0.115,-55.375,+4.062,+20.562,10, 14, 8, 0, 1, -1, -1, -20,-1.408288219483636,1.3431364337281229,3
1503523896457,+0.299,+0.582,-0.265,-0.708,+0.658,-0.642,-0.118,-58.562,+3.375,+25.562,-11, 15, 12, 0, -2, -1, 0, 13,-1.3768438517596644,1.3241488339259584,3
1503523896473,+0.292,+0.577,-0.266,-0.715,+0.646,-0.630,-0.142,-59.688,+12.375,+27.250,-6, 20, -3, -3, -3, -2, -3, 1,-1.3486989200558492,1.3084544127125992,3
1503523896494,+0.284,+0.572,-0.268,-0.721,+0.697,-0.606,-0.175,-55.188,+15.500,+27.875,-1, -4, -7, 1, -2, -1, 0, -11,-1.318877339523041,1.294134283370167,3
1503523896517,+0.280,+0.566,-0.269,-0.727,+0.791,-0.624,-0.211,-47.688,-0.938,+27.500,-10, -1, 3, -1, -2, -2, -5, -36,-1.2935808850907142,1.2765688954422296,3
1503523896533,+0.277,+0.560,-0.266,-0.734,+0.776,-0.627,-0.214,-45.688,-22.250,+26.500,-8, 7, 0, -1, -1, -1, -2, 18,-1.2689873208900329,1.2519873033884825,3
1503523896554,+0.275,+0.554,-0.261,-0.741,+0.674,-0.630,-0.226,-40.188,-33.625,+27.000,-8, 5, -3, -2, 0, 1, 12, 95,-1.2455982398530183,1.2239799521710892,3
1503523896577,+0.272,+0.549,-0.256,-0.747,+0.592,-0.660,-0.251,-36.125,-24.000,+29.312,11, 2, -3, 0, 1, 1, 15, 94,-1.2229943685927804,1.1983169961746374,3
1503523896592,+0.266,+0.546,-0.253,-0.753,+0.569,-0.672,-0.256,-32.812,-8.062,+32.438,3, 1, 6, 2, 2, 2, -3, -44,-1.201153014435938,1.181139410119371,3
1503523896614,+0.260,+0.544,-0.251,-0.757,+0.625,-0.680,-0.253,-30.375,+4.688,+31.875,19, -21, -11, -4, -2, -2, -8, -59,-1.1822519652623709,1.168419737599504,3
1503523896637,+0.255,+0.542,-0.251,-0.761,+0.687,-0.694,-0.280,-25.875,+10.938,+27.250,-12, 23, 55, 4, 2, 0, -2, -12,-1.1665679614119888,1.1604252174390315,3
1503523896653,+0.251,+0.539,-0.252,-0.763,+0.750,-0.694,-0.270,-22.125,+5.188,+22.062,-17, -12, -9, 1, -1, -2, 0, 4,-1.1500414114280473,1.151576806454785,3
1503523896675,+0.249,+0.537,-0.250,-0.766,+0.767,-0.687,-0.250,-17.875,-7.000,+19.750,-3, 21, 2, -2, -3, 0, -4, -40,-1.1393087918123541,1.1408433759632473,3
1503523896700,+0.247,+0.536,-0.248,-0.769,+0.724,-0.708,-0.279,-13.438,-13.562,+19.875,-5, 47, -18, -3, -4, -2, -1, 16,-1.1315733757403719,1.1331070094660878,3
1503523896712,+0.246,+0.534,-0.245,-0.771,+0.692,-0.725,-0.293,-10.562,-14.000,+17.062,13, -29, -8, -3, -1, -1, -4, -24,-1.1220347076278478,1.1205020116984823,3
1503523896734,+0.245,+0.533,-0.242,-0.773,+0.679,-0.727,-0.257,-7.938,-14.750,+14.938,-7, -31, -9, -3, -1, -1, -1, 23,-1.1154739946451262,1.1108792293859093,3
1503523896757,+0.244,+0.532,-0.239,-0.774,+0.689,-0.721,-0.259,-5.375,-15.938,+13.188,19, 7, 5, 2, 0, -3, -1, 6,-1.1085724964856523,1.1009216229212084,3
1503523896773,+0.243,+0.532,-0.237,-0.776,+0.664,-0.720,-0.261,-5.000,-10.062,+11.125,5, -12, -5, -2, -1, 0, 1, 15,-1.1056218482146238,1.0964451352498423,3
1503523896795,+0.242,+0.531,-0.237,-0.777,+0.654,-0.710,-0.249,-7.062,-1.125,+11.125,9, 0, -15, -1, -1, -2, 1, 6,-1.1007098309690673,1.0930625122895048,3
1503523896817,+0.239,+0.531,-0.238,-0.777,+0.671,-0.711,-0.252,-7.562,+8.438,+10.312,-8, -84, -7, 0, 0, -2, -3, -6,-1.094723871902011,1.093195364854314,3
1503523896837,+0.237,+0.531,-0.239,-0.778,+0.681,-0.705,-0.252,-7.812,+12.375,+9.062,12, -9, -4, -1, 0, -2, 3, 41,-1.0912856322239841,1.0943424692498163,3
1503523896854,+0.235,+0.531,-0.241,-0.778,+0.691,-0.701,-0.253,-7.500,+10.375,+6.188,-4, -15, -2, -1, -1, 1, 3, 36,-1.0882490082505174,1.0974195582519013,3
1503523896877,+0.234,+0.530,-0.243,-0.778,+0.710,-0.696,-0.237,-9.188,+6.438,+3.812,0, 7, -2, -4, -2, -3, -2, 7,-1.0844485918796967,1.0982097433008617,3
1503523896892,+0.233,+0.529,-0.244,-0.779,+0.703,-0.684,-0.238,-12.125,+2.000,+4.812,3, -26, -2, -1, -2, -1, 0, 3,-1.0802733195330279,1.0970981092437189,3
1503523896914,+0.231,+0.528,-0.246,-0.780,+0.784,-0.747,-0.229,-15.125,+5.312,+5.750,2, 1, -2, -1, -2, -2, -1, 9,-1.0746192157528545,1.0975700681917027,3
1503523896937,+0.232,+0.530,-0.241,-0.779,+0.637,-1.173,-0.366,+16.250,-15.188,-11.625,0, 6, 2, 1, -2, -1, -2, 29,-1.0789099645182347,1.0926574602269066,3
1503523896953,+0.230,+0.532,-0.254,-0.774,+0.795,-0.618,-0.149,-1.688,+65.688,-22.000,2, 4, 1, -2, -2, -1, -1, 10,-1.0881675316574333,1.1249055775474701,3
1503523896976,+0.227,+0.529,-0.257,-0.776,+0.552,-0.500,-0.299,-18.375,+18.812,+9.062,2, 3, 3, 1, 1, 0, 1, 1,-1.075431644547455,1.1213886206390271,3
1503523896997,+0.226,+0.528,-0.254,-0.778,+0.595,-0.704,-0.329,-9.938,-6.875,+10.812,-4, 16, 0, 1, -2, -2, 2, -2,-1.068763490469392,1.1116264130826856,3
1503523897014,+0.226,+0.528,-0.256,-0.778,+0.763,-0.714,-0.261,-0.125,+2.062,-1.500,-1, -1, -2, -2, -3, -1, -1, -10,-1.0701969593179308,1.1161509371634164,3
1503523897043,+0.227,+0.528,-0.256,-0.778,+0.721,-0.725,-0.227,+0.312,-6.562,-2.688,-6, -5, -1, -2, 1, 0, -2, -22,-1.0723685199831685,1.116804118429094,3
1503523897057,+0.227,+0.527,-0.255,-0.778,+0.648,-0.708,-0.253,-4.875,-5.438,+0.062,3, 0, -1, 0, 1, -1, -1, 15,-1.0687015737999173,1.1115947632963186,3
1503523897073,+0.226,+0.526,-0.256,-0.779,+0.623,-0.670,-0.252,-4.750,+5.500,+0.188,-6, -6, -2, -1, -1, 0, -2, -8,-1.0646049669442057,1.1105777591736592,3
1503523897095,+0.225,+0.527,-0.258,-0.778,+0.656,-0.706,-0.250,+1.562,+13.312,+0.938,3, -5, -3, -1, -1, 0, -2, -1,-1.066504746998908,1.117075308977148,3
1503523897117,+0.224,+0.528,-0.259,-0.777,+0.685,-0.739,-0.264,+2.000,+11.562,+1.938,5, 6, 1, 0, 0, 0, 0, -2,-1.0677061242302557,1.1213251460065943,3
1503523897135,+0.223,+0.528,-0.260,-0.777,+0.674,-0.713,-0.268,-3.062,+7.188,+0.812,-5, -2, -1, -1, -3, -3, -4, -4,-1.0662638049966453,1.1229478126276098,3
1503523897155,+0.223,+0.527,-0.260,-0.778,+0.674,-0.715,-0.258,-5.125,-0.125,+0.625,-3, -6, 0, -1, -2, -2, 1, 4,-1.0636136081003267,1.1203159733149644,3
1503523897178,+0.222,+0.527,-0.260,-0.778,+0.681,-0.725,-0.281,-2.750,-1.938,+0.688,-1, 1, 1, -1, 1, 0, 1, -2,-1.061452003455123,1.1196691957536813,3
1503523897193,+0.222,+0.526,-0.261,-0.779,+0.656,-0.703,-0.289,-3.250,+2.812,+0.812,-1, -4, 0, -1, 0, 0, 1, 2,-1.0595364315865465,1.119324609201806,3
1503523897215,+0.221,+0.526,-0.260,-0.779,+0.647,-0.714,-0.278,-4.062,-0.312,+1.938,-1, 1, -2, -2, -1, -2, -4, -34,-1.056647784882832,1.1163984691153932,3
1503523897237,+0.221,+0.525,-0.260,-0.780,+0.669,-0.715,-0.267,-4.938,-1.875,+1.750,-3, -4, -1, 3, 0, -1, 1, 9,-1.054017980169446,1.1137886428685888,3
1503523897253,+0.221,+0.524,-0.260,-0.780,+0.671,-0.718,-0.271,-3.500,-1.125,+2.250,-2, -5, 0, -1, 0, 1, -1, 3,-1.0510917252733927,1.1108667899958127,3
1503523897282,+0.220,+0.524,-0.260,-0.780,+0.661,-0.712,-0.265,-2.688,+0.938,+4.188,-8, -3, -2, -2, -3, -2, -1, 1,-1.048922987226895,1.110211742230634,3
1503523897297,+0.219,+0.524,-0.260,-0.781,+0.662,-0.698,-0.246,-3.250,+2.062,+5.125,1, 1, 2, 0, -1, -3, -3, 0,-1.0470623752390247,1.1098810616225863,3
1503523897313,+0.218,+0.524,-0.260,-0.781,+0.672,-0.715,-0.250,-2.188,+2.562,+5.250,2, -1, -4, 0, -2, -3, -2, 0,-1.0448923809402237,1.1092234036140611,3
1503523897338,+0.217,+0.525,-0.261,-0.781,+0.671,-0.715,-0.247,-2.000,+3.062,+4.938,0, -1, 0, 0, -2, 0, -1, -2,-1.0463977927785257,1.1137893033964752,3
1503523897357,+0.216,+0.525,-0.261,-0.781,+0.655,-0.719,-0.254,-2.875,+2.438,+3.938,-9, -7, 1, 1, 2, 2, 1, -1,-1.0442320493565067,1.1131342091315417,3
1503523897374,+0.215,+0.524,-0.261,-0.782,+0.659,-0.730,-0.260,-4.688,+1.562,+4.062,-2, 1, 0, -1, -3, -3, -2, -2,-1.039438844621032,1.1098749710182958,3
1503523897395,+0.213,+0.524,-0.261,-0.782,+0.661,-0.716,-0.252,-6.625,+3.250,+3.875,14, 2, -4, 0, -1, 0, -3, 1,-1.0351001136232914,1.1085535050677586,3
1503523897417,+0.213,+0.523,-0.262,-0.783,+0.671,-0.716,-0.241,-6.188,+0.375,+3.250,-10, 0, 3, 1, 0, 0, 2, 1,-1.0332400836169517,1.1082752577762627,3
1503523897433,+0.212,+0.523,-0.262,-0.783,+0.668,-0.716,-0.242,-3.750,-0.688,+1.250,-4, 0, 0, 0, 0, -2, -2, 1,-1.0310715908213617,1.107614616622347,3
1503523897455,+0.212,+0.523,-0.262,-0.783,+0.636,-0.726,-0.251,-3.125,-0.312,+0.375,7, -7, -6, -2, -3, -1, -2, 1,-1.0310715908213617,1.107614616622347,3
1503523897477,+0.211,+0.523,-0.262,-0.784,+0.632,-0.733,-0.268,-4.062,+0.875,+1.375,3, -1, 1, 2, 0, 0, 0, -1,-1.0292107029578557,1.107284272535206,3
1503523897493,+0.210,+0.522,-0.262,-0.784,+0.644,-0.714,-0.270,-4.750,+2.875,+1.812,-2, 0, -3, -3, 1, 0, -1, -1,-1.0241220108225284,1.1037060851707903,3
1503523897515,+0.210,+0.522,-0.263,-0.784,+0.652,-0.709,-0.262,-4.250,+2.250,+1.000,1, 1, -1, -1, -1, 1, -1, 0,-1.0248901488718702,1.1060322215764948,3
1503523897543,+0.210,+0.521,-0.263,-0.784,+0.663,-0.705,-0.255,-2.688,+1.062,-0.312,3, 1, 0, 0, 1, -1, 0, 0,-1.0219829473445197,1.103128977089077,3
1503523897553,+0.210,+0.521,-0.263,-0.784,+0.659,-0.707,-0.268,-1.875,+0.750,-1.500,-8, -1, 1, -1, -1, -2, 1, -2,-1.0219829473445197,1.103128977089077,3
1503523897575,+0.210,+0.521,-0.264,-0.784,+0.646,-0.716,-0.260,-1.875,+1.750,-1.500,-5, 5, -3, -1, -4, -1, -1, -1,-1.0227506492823852,1.105456020123827,3
1503523897597,+0.209,+0.521,-0.265,-0.784,+0.657,-0.716,-0.258,-2.438,+2.500,-2.000,3, 0, 2, 0, 2, 0, -1, -2,-1.0213534070232566,1.1071247167431018,3
1503523897614,+0.209,+0.520,-0.265,-0.784,+0.662,-0.712,-0.253,-2.062,+2.375,-1.750,1, 4, 0, -1, -2, -1, -1, 0,-1.018457468968073,1.1042329981660641,3
1503523897635,+0.209,+0.520,-0.266,-0.784,+0.664,-0.712,-0.252,-1.312,+1.875,-1.562,-7, -12, -3, -1, 0, -1, 0, 0,-1.019226468092691,1.1065638134371998,3
1503523897657,+0.209,+0.520,-0.267,-0.784,+0.663,-0.713,-0.251,-1.500,+2.875,-1.875,-8, -8, -1, -1, 0, -3, -2, -4,-1.019993549725432,1.1088935893563128,3
1503523897674,+0.209,+0.520,-0.267,-0.784,+0.668,-0.719,-0.248,-0.875,+1.938,-1.312,2, 3, -1, -1, -2, -1, -1, -1,-1.019993549725432,1.1088935893563128,3
1503523897695,+0.209,+0.520,-0.268,-0.784,+0.668,-0.709,-0.255,-1.000,+1.438,-1.438,-1, 0, -2, -1, -4, -1, -2, 0,-1.0207587201298804,1.1112223222979458,3
1503523897717,+0.209,+0.520,-0.268,-0.784,+0.665,-0.709,-0.248,-1.562,+1.188,-1.500,1, -1, -2, 1, 0, -1, -1, 1,-1.0207587201298804,1.1112223222979458,3
1503523897733,+0.209,+0.520,-0.269,-0.783,+0.674,-0.714,-0.244,-1.438,+1.000,-1.812,7, 3, 1, -1, 0, 0, -1, 0,-1.021215440124856,1.1132163467886045,3
1503523897755,+0.209,+0.520,-0.270,-0.783,+0.671,-0.705,-0.253,-1.500,+1.812,-1.875,-3, 2, -1, -3, 0, -2, -2, 0,-1.0219775691871449,1.1155437620116269,3
1503523897777,+0.209,+0.520,-0.270,-0.783,+0.669,-0.706,-0.248,-1.812,+1.625,-1.812,-2, 2, 1, -1, 0, 0, 0, 0,-1.0219775691871449,1.1155437620116269,3
1503523897793,+0.209,+0.520,-0.271,-0.783,+0.667,-0.708,-0.248,-2.062,+0.625,-1.938,2, -7, -2, -3, -1, 0, -1, -2,-1.0227378031907057,1.1178701347571112,3
1503523897816,+0.209,+0.519,-0.271,-0.783,+0.668,-0.716,-0.254,-2.312,+0.375,-3.062,-2, -1, -2, -1, -1, -1, 0, -1,-1.0198593100944497,1.1149980192225248,3
1503523897837,+0.209,+0.519,-0.272,-0.783,+0.672,-0.717,-0.256,-2.500,+0.875,-2.312,-2, -2, 0, 0, -1, -1, 1, 0,-1.0206191037732844,1.1173253537453458,3
1503523897853,+0.209,+0.518,-0.272,-0.783,+0.658,-0.697,-0.253,-3.625,+1.312,-1.812,-2, 1, -2, -1, -1, 1, -1, -1,-1.0177518204308127,1.1144645509210183,3
1503523897876,+0.209,+0.518,-0.273,-0.783,+0.680,-0.697,-0.245,-4.500,+1.188,-1.562,-2, -5, -3, -1, -2, -2, 0, 1,-1.0185111513593423,1.1167928347731721,3
1503523897897,+0.209,+0.518,-0.274,-0.783,+0.686,-0.696,-0.243,-2.938,+0.938,-1.938,-1, 5, 3, 0, 0, -1, 0, -1,-1.019268615635064,1.1191201032695612,3
1503523897913,+0.209,+0.517,-0.274,-0.783,+0.670,-0.708,-0.251,-2.500,+0.250,-2.312,-2, -5, -3, -1, 0, 0, -1, -2,-1.0164138485919851,1.1162724953875116,3
1503523897936,+0.209,+0.517,-0.274,-0.784,+0.667,-0.710,-0.246,-3.312,+0.312,-1.750,3, 2, -1, -1, -2, -1, 1, -1,-1.0167200891768955,1.1166073047569827,3
1503523897957,+0.209,+0.517,-0.275,-0.784,+0.671,-0.705,-0.250,-3.250,-0.062,-1.125,-1, -3, -2, -2, -1, -2, -1, -1,-1.017476331343096,1.1189347139190702,3
1503523897975,+0.208,+0.516,-0.275,-0.784,+0.672,-0.705,-0.250,-2.750,+1.188,-0.562,3, 2, 3, 0, 0, 0, -1, 0,-1.0124977033875011,1.1154696800101147,3
1503523897995,+0.208,+0.516,-0.276,-0.784,+0.667,-0.697,-0.260,-3.688,+2.188,-0.625,-14, -4, 0, -1, -1, -2, -2, -1,-1.0132569868397985,1.1178018367946307,3
1503523898018,+0.208,+0.515,-0.276,-0.784,+0.685,-0.692,-0.268,-4.500,+2.125,-0.625,6, 3, -1, -1, 0, 0, -1, 1,-1.010423681479158,1.1149761959703781,3
1503523898033,+0.208,+0.515,-0.277,-0.784,+0.688,-0.688,-0.267,-4.500,+1.812,-1.062,-2, -1, -3, -1, -1, -1, -2, -1,-1.0111824294926857,1.1173092613393252,3
1503523898056,+0.208,+0.514,-0.278,-0.785,+0.683,-0.692,-0.263,-4.062,+0.688,-2.688,3, 1, -2, -1, -3, 0, -1, -1,-1.009424512901739,1.1171656428050583,3
1503523898078,+0.208,+0.513,-0.278,-0.785,+0.683,-0.697,-0.257,-3.438,-1.500,-3.000,1, 1, -3, -1, 0, -1, -2, -2,-1.006614032100016,1.1143636800379222,3
1503523898093,+0.208,+0.513,-0.279,-0.785,+0.678,-0.704,-0.251,-2.188,-0.875,-2.812,-1, 5, -1, -2, -1, -1, -2, -1,-1.0073709123828214,1.1166977027459077,3
1503523898116,+0.208,+0.513,-0.279,-0.785,+0.669,-0.691,-0.261,-1.562,+0.688,-1.375,-11, -8, -4, -2, -2, -2, 0, -1,-1.0073709123828214,1.1166977027459077,3
1503523898137,+0.208,+0.513,-0.279,-0.785,+0.675,-0.694,-0.258,-0.625,+0.812,-0.938,3, 3, 1, -2, -2, -2, -1, -1,-1.0073709123828214,1.1166977027459077,3
1503523898153,+0.208,+0.513,-0.280,-0.784,+0.675,-0.697,-0.259,-0.188,+1.562,-0.625,4, 7, 6, -1, -1, 1, 1, -1,-1.0078200514400861,1.1186937005266218,3
1503523898177,+0.208,+0.513,-0.280,-0.784,+0.680,-0.691,-0.257,-0.375,+2.062,-0.625,5, 8, 0, 1, 1, -1, -2, -1,-1.0078200514400861,1.1186937005266218,3
1503523898197,+0.208,+0.513,-0.280,-0.784,+0.679,-0.694,-0.263,-0.625,+1.438,-0.688,-4, -3, 0, 0, 0, 0, -2, 0,-1.0078200514400861,1.1186937005266218,3
1503523898213,+0.208,+0.513,-0.281,-0.784,+0.691,-0.697,-0.254,-0.812,+0.750,-0.125,-9, 0, -1, -2, -2, -1, -1, -1,-1.0085740493732687,1.1210266225728776,3
1503523898236,+0.207,+0.513,-0.281,-0.784,+0.689,-0.690,-0.246,-1.188,+0.625,-0.312,8, -3, -2, -1, 1, -1, -2, -2,-1.0064535831256178,1.1204116354040832,3
1503523898257,+0.208,+0.513,-0.282,-0.784,+0.688,-0.688,-0.248,-0.625,-0.312,-1.062,0, -4, -3, -2, 0, 0, -2, 2,-1.0093262469552382,1.1233585734392322,3
1503523898273,+0.208,+0.513,-0.282,-0.784,+0.681,-0.696,-0.243,-0.312,+0.688,-1.875,1, 7, 3, -2, -2, -2, -1, 0,-1.0093262469552382,1.1233585734392322,3
1503523898295,+0.207,+0.513,-0.282,-0.784,+0.681,-0.699,-0.247,-1.188,+1.500,-1.000,-14, -8, -2, 2, 0, 0, 1, -1,-1.007209228989052,1.122747336752211,3
1503523898317,+0.207,+0.513,-0.283,-0.784,+0.683,-0.695,-0.256,-1.625,+1.438,+0.125,5, -1, -3, -2, -1, -3, -1, 0,-1.0079630720794845,1.1250820563867954,3
1503523898333,+0.207,+0.513,-0.283,-0.784,+0.693,-0.689,-0.248,-1.812,+2.312,-0.125,5, 0, 1, 0, -2, -1, 0, -1,-1.0079630720794845,1.1250820563867954,3
1503523898355,+0.207,+0.513,-0.284,-0.784,+0.689,-0.686,-0.263,-1.812,+1.000,-0.250,-2, -4, -1, 0, -1, 1, -1, -1,-1.0087151179869163,1.1274157892771837,3
1503523898378,+0.207,+0.513,-0.284,-0.784,+0.686,-0.689,-0.246,-0.875,+0.188,-1.438,7, 1, 2, 1, 0, -1, -1, -2,-1.0087151179869163,1.1274157892771837,3
1503523898393,+0.207,+0.512,-0.284,-0.783,+0.682,-0.689,-0.256,-0.188,-0.438,-1.500,-1, 2, -2, -3, -2, -1, -2, 0,-1.005614472209191,1.124293854481138,3
