Timestamp,Orientation X,Orientation Y,Orientation Z,Orientation W,Accelerometer X,Accelerometer Y,Accelerometer Z,Gyroscope X,Gyroscope Y,Gyroscope Z,EMG1,EMG2,EMG3,EMG4,EMG5,EMG6,EMG7,EMG8,Roll,Yaw
1503523885486,+0.518,+0.518,-0.441,-0.519,+1.013,-0.069,+0.085,+30.375,-19.500,-36.312,-32, -11, 1, 1, 0, -1, -3, -22,-1.6443602493580922,1.496126931891006
1503523885507,+0.520,+0.518,-0.444,-0.514,+1.007,-0.034,+0.127,+12.250,+2.250,-26.438,-43, -6, -1, 2, -1, 0, -1, -5,-1.6485123596452964,1.501490972295024
1503523885523,+0.519,+0.520,-0.449,-0.508,+0.950,+0.055,+0.050,+7.062,+33.750,-15.188,10, -11, -3, 0, 0, 1, 5, 6,-1.6506072044641853,1.5146294122240376
1503523885545,+0.520,+0.522,-0.452,-0.503,+1.036,+0.077,-0.018,+14.562,+27.812,-12.188,-8, 3, 6, -1, 2, 2, -12, -40,-1.6567820867552583,1.5242938172869505
1503523885567,+0.522,+0.521,-0.453,-0.501,+1.166,+0.018,+0.070,+6.250,-1.750,-14.125,3, 3, 3, 1, 0, -5, 4, 10,-1.6588532663558446,1.5240288937318986
1503523885583,+0.522,+0.521,-0.454,-0.500,+1.013,-0.008,+0.101,-3.750,-4.312,-4.188,38, 1, -7, -3, -3, 1, -1, 5,-1.6588534424291312,1.5258472460977865
1503523885605,+0.519,+0.522,-0.457,-0.500,+0.858,+0.002,+0.056,-6.688,+18.500,+5.250,51, 11, -7, -4, -4, -14, -1, 9,-1.654616466072984,1.5334362112317805
1503523885627,+0.512,+0.526,-0.461,-0.498,+0.905,-0.021,+0.007,-14.000,+51.062,+12.312,-17, -14, 2, 1, 2, 3, 1, 1,-1.6486746105601036,1.549145638326145
1503523885643,+0.506,+0.531,-0.466,-0.495,+1.060,+0.006,+0.026,-12.125,+58.625,+12.125,-22, -9, 1, -1, 0, 0, -9, -15,-1.6469607757024298,1.5690280510964398
1503523885665,+0.502,+0.533,-0.469,-0.494,+1.190,-0.002,+0.040,-7.375,+30.125,+7.125,22, 11, 4, -1, -2, 1, -3, 21,-1.6431507968570287,1.5789082846125915
1503523885690,+0.501,+0.532,-0.470,-0.495,+1.129,-0.048,+0.042,-10.125,-0.438,+2.125,-1, -23, 0, -2, -3, -4, -2, -11,-1.6390088248583488,1.5786570252527499
1503523885703,+0.502,+0.530,-0.469,-0.497,+0.997,-0.055,+0.054,-6.250,-15.688,+1.188,0, 0, -10, -4, -3, 13, 23, -14,-1.6367642665449231,1.5725212471020455
1503523885726,+0.502,+0.529,-0.469,-0.498,+0.925,-0.088,+0.085,-2.938,-6.312,-2.688,-14, -4, -3, 2, -1, -5, 2, -3,-1.6346427615218286,1.5703996286268935
1503523885747,+0.500,+0.529,-0.471,-0.498,+0.997,-0.085,+0.083,-11.438,+9.188,-1.750,-9, 4, 1, -3, -9, -18, 9, 13,-1.6306273921025711,1.5741666637723348
1503523885764,+0.497,+0.529,-0.474,-0.498,+1.065,-0.038,+0.074,-14.562,+13.938,+1.188,-2, -7, 3, -12, -18, -1, 0, 14,-1.6246326480909836,1.5798488186801833
1503523885786,+0.496,+0.529,-0.475,-0.498,+1.064,-0.018,+0.006,-9.750,+7.500,-0.438,-12, -2, 2, -4, 1, 11, 4, -4,-1.6226420212734847,1.581751245360462
1503523885807,+0.498,+0.526,-0.475,-0.500,+1.027,-0.033,-0.046,-2.625,-12.312,-6.125,1, 21, -3, -8, -1, 15, -3, -10,-1.6202298107502344,1.5754033804229932
1503523885824,+0.502,+0.522,-0.474,-0.501,+1.053,-0.042,+0.061,+0.625,-31.000,-17.000,-6, -18, -2, -3, -3, -7, -1, 0,-1.6198380058558173,1.565110907250686
1503523885846,+0.506,+0.519,-0.473,-0.501,+0.984,-0.048,+0.056,+1.562,-27.375,-21.188,9, 21, 8, -1, -3, 4, 1, 5,-1.6216489521818231,1.5569657839589872
1503523885875,+0.510,+0.515,-0.473,-0.501,+0.908,-0.005,-0.003,+1.062,-17.562,-18.062,2, -7, -4, -4, -4, -22, -1, 0,-1.6214936737109769,1.548691257991509
1503523885883,+0.512,+0.514,-0.473,-0.500,+0.944,+0.005,-0.017,+4.750,-6.125,-9.750,10, 3, 0, -4, -4, 7, -2, -7,-1.6235200874710594,1.5466349831983695
1503523885905,+0.512,+0.514,-0.473,-0.499,+0.987,-0.014,+0.033,+1.938,+0.688,-4.438,-3, -26, 3, 0, 2, 6, -2, 5,-1.6235741266803956,1.5466120986301248
1503523885933,+0.511,+0.514,-0.474,-0.499,+1.031,+0.007,+0.041,-1.438,+6.062,+3.000,-14, 7, -1, -5, -3, 2, 1, 0,-1.6215263908188942,1.5485074587197407
1503523885943,+0.511,+0.515,-0.475,-0.498,+1.014,+0.051,+0.021,+1.062,+7.750,+3.312,17, 11, 2, 2, 2, 3, 6, 0,-1.62353407902704,1.5524879357605121
1503523885966,+0.512,+0.514,-0.475,-0.498,+1.052,+0.027,+0.058,+3.688,-6.375,-2.000,0, 2, -1, 10, 2, 4, -3, -2,-1.623519665724978,1.5504296549115795
1503523885987,+0.513,+0.513,-0.474,-0.498,+1.028,+0.001,+0.058,+0.438,-13.625,-1.562,23, 2, -1, -8, -11, -3, -6, -4,-1.6235673800528367,1.5464532023324313
1503523886003,+0.514,+0.512,-0.474,-0.499,+0.988,+0.019,+0.023,-2.438,-8.812,-1.062,-26, -3, -5, -5, -1, -3, -2, -4,-1.623514605297747,1.5444262986790191
1503523886026,+0.515,+0.511,-0.474,-0.499,+1.039,+0.032,+0.004,+0.312,-7.438,-1.250,-25, -18, 2, 2, 0, -3, -6, -2,-1.6235239559203316,1.542380411780622
1503523886047,+0.517,+0.509,-0.473,-0.501,+1.050,-0.022,+0.019,-1.250,-17.562,-4.312,-11, 0, -2, -5, -2, -8, -4, 0,-1.6235112924142412,1.5364385140919454
1503523886064,+0.518,+0.506,-0.472,-0.502,+1.031,-0.046,+0.014,-7.188,-16.125,-4.250,-20, -9, 4, 2, 4, 1, -5, 4,-1.6195881237011556,1.528381313327678
1503523886086,+0.518,+0.505,-0.473,-0.502,+0.973,-0.005,-0.008,-5.062,-0.625,-6.188,24, 29, -1, 0, -3, -3, 0, -5,-1.617563070292965,1.5282479386124077
1503523886107,+0.519,+0.504,-0.474,-0.502,+1.083,+0.012,-0.025,-0.812,-1.000,-4.438,-8, -13, 11, 13, -3, -21, 5, 12,-1.6175691741209255,1.5281655619538879
1503523886126,+0.521,+0.503,-0.473,-0.502,+1.101,-0.008,+0.022,+5.750,-17.562,-10.312,2, 37, 3, -2, 2, -2, 5, -17,-1.6197100509634028,1.5242602174569182
1503523886145,+0.526,+0.498,-0.470,-0.504,+1.061,-0.014,-0.014,+5.688,-41.688,-14.500,-11, 11, -3, 0, -3, -4, -10, -14,-1.620198765116256,1.5085387679869564
1503523886169,+0.531,+0.494,-0.468,-0.505,+0.959,+0.005,-0.044,+5.125,-34.625,-12.125,-16, -9, 7, 1, 3, 4, 2, 4,-1.6228113589428506,1.4968519705923289
1503523886183,+0.533,+0.492,-0.466,-0.507,+0.981,-0.018,-0.003,+1.375,-25.375,-4.188,-8, -29, -1, -2, -2, 4, -2, 10,-1.623106605066259,1.4891723393354201
1503523886206,+0.533,+0.491,-0.465,-0.508,+0.990,+0.003,-0.013,-5.688,-14.625,+1.438,9, -5, -7, -2, 3, 2, 10, 13,-1.6211865310192441,1.4852613556165692
1503523886228,+0.534,+0.490,-0.465,-0.509,+0.966,+0.029,-0.032,-4.688,-8.875,+3.000,25, -11, -2, -6, -9, 2, -15, -7,-1.6213001202398063,1.4833795912486245
1503523886243,+0.534,+0.488,-0.464,-0.511,+1.061,+0.010,-0.036,-1.688,-15.625,+2.562,11, 6, 0, 0, 1, -2, 1, 5,-1.6174272692698806,1.4775167328281362
1503523886266,+0.537,+0.485,-0.462,-0.513,+1.054,+0.008,-0.027,-2.375,-27.875,-2.000,-6, -2, 0, -2, -6, -31, 16, -6,-1.6179916674872468,1.4679721929895397
1503523886287,+0.540,+0.481,-0.460,-0.516,+0.988,+0.013,-0.013,-5.312,-39.562,-6.438,9, -3, -4, -3, -1, 10, -30, 0,-1.6166952539149113,1.4565524472451077
1503523886303,+0.544,+0.476,-0.458,-0.518,+0.915,+0.028,-0.055,-4.125,-39.812,-11.312,-2, -20, -6, -2, 0, 7, 7, 9,-1.615807920462713,1.4431952569542768
1503523886327,+0.546,+0.472,-0.457,-0.519,+0.900,+0.050,-0.110,-4.812,-23.562,-8.125,2, -12, 1, 2, 2, 2, 3, 5,-1.6126490940663132,1.4335207226476903
1503523886347,+0.547,+0.471,-0.457,-0.521,+0.940,+0.033,-0.084,-6.250,-10.625,+0.062,-6, 21, 10, 3, 3, 0, -12, 2,-1.6128518216357004,1.431883909521676
1503523886364,+0.546,+0.470,-0.458,-0.521,+1.026,+0.046,-0.060,-6.875,-4.812,+2.250,11, -6, 0, -1, 1, 8, -4, -16,-1.608830828606835,1.4316950778045072
1503523886394,+0.547,+0.468,-0.457,-0.523,+1.048,+0.054,-0.074,-3.812,-16.938,+0.375,1, 5, -5, -4, 1, -1, 6, -3,-1.6072493080720667,1.4261055253457227
1503523886407,+0.550,+0.464,-0.455,-0.525,+0.988,+0.052,-0.104,-2.375,-29.688,-3.000,12, 28, 2, 0, -1, 2, 10, 11,-1.6063825536184273,1.414851798606434
1503523886423,+0.552,+0.461,-0.452,-0.528,+0.974,+0.020,-0.109,-4.375,-33.688,+1.125,-5, -16, -10, -2, -1, 0, 0, 17,-1.6052445488630618,1.4037008697993785
1503523886445,+0.552,+0.459,-0.450,-0.531,+0.961,+0.018,-0.134,-4.812,-23.188,+8.250,-13, 2, 13, 0, -1, -1, -2, -8,-1.6015774162574286,1.396243596658306
1503523886468,+0.553,+0.457,-0.448,-0.534,+1.012,+0.039,-0.145,-2.375,-20.000,+13.562,-20, -13, -3, -1, -2, -1, -3, -25,-1.6001017068600865,1.3889738993404774
1503523886484,+0.554,+0.456,-0.444,-0.537,+1.048,+0.032,-0.165,+1.500,-24.875,+15.000,-1, 9, -6, -1, -1, -2, 0, 9,-1.6004938508822524,1.3798362820627397
1503523886505,+0.555,+0.454,-0.439,-0.541,+1.048,+0.023,-0.193,+5.250,-32.125,+18.125,-50, -25, 2, 1, 0, -2, -5, -19,-1.5990956232924844,1.3669869060294328
1503523886532,+0.556,+0.454,-0.433,-0.545,+1.045,+0.025,-0.214,+10.750,-32.562,+27.688,-1, 2, -2, -1, -2, -2, 0, -11,-1.6013151487291835,1.3563072678760113
1503523886543,+0.557,+0.454,-0.426,-0.550,+1.032,+0.031,-0.241,+17.062,-33.062,+39.125,-4, -6, 0, -1, -1, -4, -9, -1,-1.6035307407696877,1.3440319587184744
1503523886566,+0.557,+0.456,-0.417,-0.555,+1.040,+0.013,-0.258,+23.625,-33.250,+48.250,-1, -1, -6, -1, -1, -4, -5, -8,-1.6072021720192287,1.331996091305492
1503523886590,+0.557,+0.460,-0.407,-0.560,+1.058,-0.052,-0.246,+30.938,-30.688,+54.438,-28, -16, -7, -3, -2, -2, -2, 1,-1.6145416909382757,1.3224845223500443
1503523886604,+0.556,+0.464,-0.396,-0.565,+1.055,-0.081,-0.262,+36.562,-28.750,+59.188,4, 5, -3, 1, -1, -2, -5, -9,-1.6198286662516415,1.3113023155355155
1503523888890,+0.483,+0.491,-0.383,-0.615,+0.877,-0.209,-0.203,-4.688,-5.188,-18.875,8, 6, 0, 3, 0, 3, -1, 13,-1.5180107224093005,1.3376881689074205
1503523888905,+0.485,+0.489,-0.384,-0.615,+0.977,-0.251,-0.156,-6.000,-7.062,-18.938,-11, -1, 0, 0, -1, 0, -2, 0,-1.5180647870534991,1.3356009639134896
1503523888927,+0.486,+0.487,-0.386,-0.614,+1.071,-0.240,-0.131,-6.438,-5.312,-15.750,8, 3, 1, -2, -1, -1, -8, -20,-1.5160899336940141,1.3349512301563808
1503523888950,+0.488,+0.485,-0.387,-0.614,+1.025,-0.218,-0.173,-6.812,-11.000,-16.375,3, -3, -1, -1, -2, -1, 5, -4,-1.5162035421178768,1.3329112799918372
1503523888965,+0.491,+0.481,-0.387,-0.614,+0.989,-0.190,-0.189,-8.438,-20.500,-15.562,-12, 3, 5, -1, 0, -1, -3, 3,-1.5143411775986384,1.3249780520628969
1503523888988,+0.494,+0.478,-0.387,-0.615,+0.932,-0.193,-0.211,-5.812,-18.062,-15.562,11, 10, 1, -1, 0, 1, -4, 10,-1.5146356726393104,1.3194504941828706
1503523889012,+0.497,+0.475,-0.386,-0.615,+0.957,-0.186,-0.189,-3.875,-20.812,-13.938,-1, -8, -7, -1, 1, -2, -4, -7,-1.5148920208063794,1.3119266900168562
1503523889025,+0.499,+0.472,-0.386,-0.616,+1.009,-0.203,-0.176,-4.000,-22.062,-11.625,5, -10, -5, 3, 0, 2, 7, 26,-1.513228503961426,1.306242003290472
1503523889048,+0.501,+0.469,-0.386,-0.617,+0.960,-0.185,-0.208,-6.750,-17.438,-11.500,-18, -9, -6, -2, 1, 0, 2, 3,-1.511622522149094,1.300599729298485
1503523889071,+0.503,+0.467,-0.385,-0.617,+0.919,-0.152,-0.238,-3.375,-10.438,-8.812,4, -3, -4, -1, -1, -7, 6, -3,-1.5118984223386385,1.295039679585373
1503523889086,+0.504,+0.465,-0.385,-0.618,+0.920,-0.180,-0.260,-2.438,-9.062,-5.750,1, -1, 0, 1, 2, 1, 0, -8,-1.51019949073502,1.2913029739704707
1503523889107,+0.505,+0.464,-0.385,-0.618,+0.949,-0.198,-0.189,-7.062,-6.500,-4.938,-6, -8, 0, -2, -3, -1, -2, 0,-1.510390618672265,1.2894640183731703
1503523889130,+0.505,+0.462,-0.386,-0.618,+0.992,-0.187,-0.203,-7.000,-5.688,-6.438,15, 12, 4, 0, -1, -1, 0, 3,-1.506591088838884,1.2871296640534795
1503523889147,+0.506,+0.460,-0.387,-0.619,+0.994,-0.162,-0.221,-5.250,-8.562,-7.062,-2, -2, -6, -1, -1, -1, -4, -9,-1.5050083409856885,1.28529954404183
1503523889167,+0.507,+0.458,-0.386,-0.619,+0.987,-0.149,-0.236,-5.562,-13.062,-6.375,-17, 12, -3, -2, -1, 0, 0, -15,-1.5032563678489788,1.2795381644788069
1503523889190,+0.509,+0.456,-0.386,-0.620,+0.958,-0.166,-0.217,-4.812,-14.062,-6.250,22, 1, -3, -2, -3, -1, -6, -1,-1.5038030202424737,1.2761494627175451
1503523889216,+0.510,+0.454,-0.386,-0.621,+0.958,-0.169,-0.240,-4.812,-13.250,-5.062,1, 15, 2, 1, 3, 9, 4, 10,-1.5022308889642129,1.2725121362858327
1503523889227,+0.511,+0.452,-0.385,-0.621,+0.964,-0.162,-0.231,-4.625,-11.750,-3.625,-3, 8, -6, -4, -2, 0, 7, -8,-1.5005449130550144,1.2667912480742927
1503523889250,+0.511,+0.451,-0.385,-0.622,+0.954,-0.164,-0.233,-6.125,-12.688,-2.812,18, -4, -2, 2, 2, 0, 0, -7,-1.4987348305777464,1.264966340538728
1503523889264,+0.512,+0.449,-0.385,-0.623,+0.948,-0.166,-0.241,-7.438,-10.250,-3.188,-36, -11, -1, -2, -2, 8, -3, 15,-1.4972165553017895,1.2613710191060263
1503523889287,+0.513,+0.447,-0.384,-0.624,+0.947,-0.161,-0.252,-6.938,-11.812,-4.375,-28, -29, -3, 1, 1, -2, -7, -9,-1.4956533858164012,1.2559208740753949
1503523889310,+0.514,+0.444,-0.384,-0.625,+0.954,-0.160,-0.251,-8.312,-13.500,-5.062,-7, 8, -3, -4, -2, -1, -3, -4,-1.4923237098232909,1.2503226489446124
1503523889325,+0.515,+0.442,-0.384,-0.626,+0.960,-0.158,-0.254,-7.812,-16.375,-6.750,8, 15, -1, 1, -1, -3, -4, -28,-1.4908824274071724,1.2467872889763456
1503523889353,+0.516,+0.439,-0.383,-0.628,+0.957,-0.155,-0.260,-9.188,-17.625,-7.500,7, 0, -1, -1, -2, -1, 8, 6,-1.4876397936988213,1.2396193502646722
1503523889370,+0.517,+0.436,-0.383,-0.629,+0.954,-0.133,-0.257,-9.750,-15.688,-4.875,41, 11, -4, -2, -2, -4, 1, 9,-1.4844277254710427,1.2341151074906997
1503523889392,+0.518,+0.433,-0.383,-0.630,+0.962,-0.145,-0.262,-10.312,-15.375,-4.000,3, 0, 11, 1, 2, 10, 1, 7,-1.481258063350006,1.2286450893521614
1503523889407,+0.519,+0.431,-0.383,-0.631,+0.975,-0.130,-0.293,-9.125,-17.375,-4.250,-15, 5, -3, -3, -1, -1, -3, -29,-1.4799358194315877,1.2252033089890353
1503523889430,+0.521,+0.427,-0.382,-0.633,+0.957,-0.135,-0.292,-10.250,-22.375,-3.000,19, 7, 1, 2, 3, -1, 0, 8,-1.4772793865434743,1.2164808425910494
1503523889452,+0.521,+0.424,-0.380,-0.635,+0.910,-0.135,-0.295,-9.938,-18.750,-1.312,2, 22, -1, -1, 3, 4, 3, -3,-1.4719579324712475,1.2072968140936562
1503523889467,+0.521,+0.422,-0.380,-0.637,+0.909,-0.138,-0.298,-10.062,-12.625,+0.500,-20, -1, 6, 0, -4, -7, -12, 24,-1.4686114137745965,1.2038984424491557
1503523889491,+0.521,+0.420,-0.380,-0.638,+0.959,-0.141,-0.328,-9.438,-8.812,+1.625,-19, -7, -7, -3, -1, -2, 1, 5,-1.465176181271533,1.2002419609627009
1503523889512,+0.521,+0.418,-0.379,-0.640,+0.942,-0.134,-0.322,-10.375,-11.188,+0.625,23, 2, 2, 1, 5, 2, -1, -69,-1.4617788424628169,1.1949807924378353
1503523889527,+0.522,+0.416,-0.379,-0.642,+0.908,-0.143,-0.316,-11.312,-14.125,-0.625,-23, 17, 4, 1, 1, 3, 0, 17,-1.4607289194137665,1.1919478998119162
1503523889551,+0.522,+0.414,-0.379,-0.643,+0.896,-0.139,-0.312,-10.500,-9.625,-1.625,6, 0, -3, -1, -3, 2, -3, -20,-1.4573483455655358,1.1883397477487778
1503523889565,+0.522,+0.412,-0.379,-0.644,+0.949,-0.138,-0.324,-8.312,-7.625,-2.375,-6, 7, 1, -1, -1, -4, -1, -60,-1.4539831655817106,1.1847465864414142
1503523889587,+0.523,+0.410,-0.379,-0.645,+0.963,-0.122,-0.341,-7.562,-11.562,-4.125,-25, -27, -5, 2, 1, 0, 2, 46,-1.4528802179966989,1.1814824267591746
1503523889611,+0.524,+0.407,-0.378,-0.646,+0.920,-0.122,-0.329,-8.000,-16.562,-5.500,38, 15, 4, -4, -3, -4, -5, -60,-1.449980078159977,1.174403795547584
1503523889626,+0.524,+0.405,-0.378,-0.647,+0.895,-0.110,-0.342,-7.500,-9.375,-3.000,26, -16, 2, 3, 2, 1, 2, 41,-1.4466729281826123,1.1708613744947585
1503523889647,+0.524,+0.404,-0.379,-0.647,+0.907,-0.106,-0.351,-6.125,+0.062,+0.062,51, 3, 2, 2, 3, 5, 15, 59,-1.4450611122892454,1.1708613636046832
1503523889670,+0.523,+0.403,-0.380,-0.648,+0.967,-0.111,-0.341,-5.375,+1.875,+1.188,-34, 3, 2, 3, 2, 0, -1, 23,-1.4413289059303316,1.1708507294478694
1503523889688,+0.523,+0.403,-0.380,-0.648,+0.980,-0.122,-0.334,-4.062,-4.625,+0.688,11, 15, 5, -2, -1, -1, 2, 6,-1.4413289059303316,1.1708507294478694
1503523889707,+0.523,+0.401,-0.379,-0.649,+0.944,-0.133,-0.326,-5.000,-10.188,+0.812,3, -3, -10, -2, -3, -3, -13, -64,-1.437946491157356,1.165421557747276
1503523889730,+0.523,+0.400,-0.379,-0.650,+0.908,-0.116,-0.336,-6.500,-7.312,+1.875,17, -12, -10, -1, 1, -3, 0, 70,-1.436384332643855,1.1638232433734856
1503523889745,+0.522,+0.400,-0.379,-0.651,+0.925,-0.104,-0.338,-7.125,-0.875,+5.125,-80, -14, -1, 0, 0, 2, 3, -19,-1.4342620606615075,1.1638064859988693
1503523889767,+0.521,+0.399,-0.380,-0.652,+0.948,-0.107,-0.355,-6.500,+0.812,+6.750,-6, -15, -3, 0, -1, 2, 2, 63,-1.4305540891204562,1.163820212268809
1503523889791,+0.520,+0.399,-0.380,-0.653,+0.949,-0.114,-0.340,-6.312,-1.625,+7.688,-29, 5, 0, -2, 0, 0, 0, -4,-1.4284395524270372,1.1638050537655558
1503523889805,+0.519,+0.398,-0.380,-0.654,+0.962,-0.122,-0.331,-5.938,-3.625,+8.062,-5, 13, 3, -1, -1, 0, 1, -36,-1.4246280007764889,1.1618999679912474
1503523889827,+0.517,+0.398,-0.379,-0.656,+0.969,-0.125,-0.345,-6.312,-5.750,+10.625,4, 10, 1, -1, -1, -3, -1, 44,-1.4202942563863827,1.159939732900123
1503523889852,+0.516,+0.397,-0.378,-0.658,+0.977,-0.116,-0.352,-6.438,-7.688,+12.750,9, -8, 1, -2, -1, -3, -6, -75,-1.41652554624204,1.1564121803624978
1503523889872,+0.515,+0.397,-0.377,-0.660,+0.970,-0.124,-0.367,-5.562,-12.562,+15.750,-7, -8, -2, -3, -2, -3, -5, -59,-1.4144622476928168,1.154772987284553
1503523889888,+0.513,+0.396,-0.374,-0.663,+0.949,-0.127,-0.372,-4.875,-13.438,+20.125,-31, -3, -4, -1, -2, 3, 6, 24,-1.4083502170747852,1.1473738404652323
1503523889910,+0.511,+0.396,-0.372,-0.666,+0.933,-0.134,-0.367,-4.062,-9.562,+24.812,2, -10, -4, 0, 0, 3, 4, 51,-1.4040717957085902,1.1437906029090503
1503523889940,+0.508,+0.397,-0.370,-0.669,+0.924,-0.145,-0.371,-2.062,-6.062,+27.812,-1, -4, 5, -3, -1, -1, 0, -6,-1.399251259536562,1.1417611198160889
1503523889947,+0.505,+0.398,-0.367,-0.672,+0.960,-0.141,-0.363,-1.875,-8.500,+30.812,-9, 0, -1, -1, 0, 0, 2, -35,-1.3943115027079171,1.1378068581791854
1503523889969,+0.502,+0.399,-0.364,-0.676,+0.956,-0.154,-0.360,-2.250,-13.312,+32.438,0, 7, 3, 2, 1, 0, -2, -1,-1.3895686593310312,1.1341678178759165
1503523889992,+0.499,+0.399,-0.360,-0.680,+0.915,-0.158,-0.368,-0.188,-15.938,+33.375,7, -12, -1, -1, -2, -1, 0, -14,-1.3829632374262102,1.126712172838928
1503523890007,+0.496,+0.400,-0.356,-0.684,+0.897,-0.174,-0.383,-0.062,-16.562,+34.312,7, 8, 3, 1, -1, -2, 3, -7,-1.3780940071642114,1.1211632886967628
1503523890030,+0.493,+0.401,-0.352,-0.687,+0.877,-0.196,-0.399,+0.062,-12.000,+35.500,-2, 2, 4, 0, -2, 2, -1, 7,-1.373037293080448,1.1153060470728065
1503523890054,+0.489,+0.402,-0.349,-0.691,+0.891,-0.205,-0.384,+0.438,-9.438,+35.875,-4, 15, 18, 0, 0, 1, 1, 1,-1.3661012571989053,1.1113123500596565
1503523890069,+0.485,+0.403,-0.346,-0.694,+0.915,-0.229,-0.377,-0.125,-8.062,+35.812,8, -12, -13, -3, -1, -5, -6, -15,-1.358980049248634,1.1069916977601755
1503523890090,+0.482,+0.405,-0.342,-0.698,+0.895,-0.232,-0.382,-0.250,-10.875,+34.625,-27, 3, -4, -1, 0, -1, -1, -23,-1.3559278310052492,1.1033800913814025
1503523890112,+0.479,+0.405,-0.338,-0.701,+0.883,-0.238,-0.375,-0.312,-16.312,+32.062,6, 6, 1, -2, 1, 1, 0, -2,-1.3491124512446422,1.0955868163556826
1503523890129,+0.477,+0.406,-0.334,-0.705,+0.860,-0.251,-0.418,+1.875,-16.688,+30.250,11, 5, -3, 0, -1, 1, 1, 6,-1.3465390290687298,1.09043480337807
1503523890150,+0.474,+0.406,-0.330,-0.708,+0.839,-0.250,-0.430,+3.875,-12.562,+31.062,0, 8, -14, -2, -3, -2, -1, -3,-1.339704710007585,1.0826328448174098
1503523890172,+0.471,+0.408,-0.326,-0.711,+0.858,-0.277,-0.398,+1.812,-10.875,+31.625,23, 9, 2, 0, 0, 1, -1, 21,-1.3364608968892961,1.0787273274605094
1503523890192,+0.468,+0.409,-0.323,-0.714,+0.845,-0.289,-0.396,+1.312,-5.375,+32.000,-18, -15, -9, -3, -2, -2, -2, 22,-1.3316187913765483,1.0747615749152208
1503523890211,+0.464,+0.411,-0.320,-0.716,+0.869,-0.275,-0.412,+2.938,-3.500,+31.062,1, -1, 9, -2, -1, 2, 4, 16,-1.3261282039118305,1.0720297252405757
1503523890232,+0.461,+0.412,-0.317,-0.719,+0.870,-0.287,-0.414,+3.750,-8.188,+28.188,7, 5, 0, 0, -1, -1, -2, -15,-1.3213024050864,1.0680509610943156
1503523890247,+0.459,+0.413,-0.314,-0.721,+0.859,-0.299,-0.434,+4.750,-10.438,+27.312,13, 5, -4, -1, -3, -3, -3, -5,-1.318486186458963,1.0641653769396622
1503523890270,+0.457,+0.414,-0.310,-0.723,+0.847,-0.298,-0.449,+7.312,-9.188,+28.000,-11, 2, 6, 2, 1, 0, 0, -16,-1.3154489820943007,1.058394001473955
1503523890296,+0.455,+0.416,-0.306,-0.725,+0.868,-0.297,-0.444,+10.688,-8.812,+30.312,-7, -13, -5, -1, 0, -2, -2, -9,-1.3142688774553763,1.0546319871243273
1503523890308,+0.452,+0.418,-0.302,-0.727,+0.854,-0.317,-0.424,+11.812,-10.500,+29.875,-15, 2, -5, 1, -1, -2, -5, -54,-1.3108481480316956,1.050453074660556
1503523890330,+0.450,+0.421,-0.298,-0.729,+0.839,-0.331,-0.425,+14.375,-11.188,+29.125,-10, -4, -1, -1, 0, 2, 1, 5,-1.311587053206299,1.048764159309268
1503523890356,+0.448,+0.423,-0.293,-0.731,+0.847,-0.337,-0.439,+18.500,-9.750,+29.500,5, 6, 2, -1, -3, -3, -2, 6,-1.3102219239562194,1.043206410432835
1503523890367,+0.447,+0.426,-0.289,-0.732,+0.849,-0.345,-0.437,+21.250,-11.062,+30.000,-2, 0, 1, 1, 0, -2, -1, 7,-1.3130359815532597,1.041756300166361
1503523890392,+0.445,+0.429,-0.283,-0.733,+0.853,-0.357,-0.447,+24.000,-15.750,+30.062,4, 6, -2, -2, -1, 1, -2, -26,-1.3131662532319623,1.0361863509522637
1503523890412,+0.444,+0.432,-0.276,-0.734,+0.829,-0.362,-0.444,+26.812,-19.812,+30.375,-12, -11, -9, 1, -1, -1, 1, 6,-1.3153622760639345,1.029324493445282
1503523890428,+0.443,+0.436,-0.269,-0.735,+0.796,-0.384,-0.440,+30.375,-19.000,+30.938,0, -9, 0, -2, -1, 0, 1, 4,-1.319595098347623,1.0247052271906025
1503523890450,+0.442,+0.440,-0.263,-0.736,+0.789,-0.409,-0.439,+32.062,-16.188,+32.750,-2, 12, -1, -1, -1, -1, 0, -9,-1.324158077016973,1.0220770336649239
1503523890472,+0.440,+0.445,-0.256,-0.737,+0.783,-0.415,-0.436,+32.750,-10.812,+35.125,2, -5, -2, -2, -1, -1, -2, 1,-1.3283429447454662,1.019441649875258
1503523890489,+0.438,+0.450,-0.250,-0.737,+0.793,-0.426,-0.432,+36.438,-9.000,+35.438,-1, -1, -7, -1, 0, -1, 0, 7,-1.332684271503585,1.0185270892376088
1503523890510,+0.436,+0.455,-0.243,-0.737,+0.789,-0.440,-0.439,+39.562,-12.188,+35.625,9, -16, -2, -1, -3, -3, -1, -2,-1.336951520673534,1.016003506556139
1503523890532,+0.435,+0.460,-0.235,-0.738,+0.774,-0.463,-0.424,+39.688,-16.750,+33.812,-1, 8, 1, 0, 1, -1, 0, 1,-1.3436766940291949,1.012738643009434
1503523890548,+0.434,+0.465,-0.227,-0.737,+0.746,-0.477,-0.417,+40.812,-19.000,+31.750,-13, -4, -4, -1, -2, -1, 0, 13,-1.3501507965345583,1.0091774066281471
1503523890570,+0.432,+0.470,-0.220,-0.737,+0.724,-0.493,-0.415,+43.188,-15.000,+32.250,1, -10, 4, 1, 1, -1, -1, 1,-1.3549618313367844,1.0073626221037388
1503523890592,+0.431,+0.476,-0.213,-0.736,+0.730,-0.507,-0.418,+44.312,-11.062,+30.625,0, -4, -10, -5, -1, -1, 1, -2,-1.3643621018948948,1.0085247725420368
1503523890608,+0.430,+0.482,-0.206,-0.735,+0.726,-0.530,-0.396,+44.938,-10.438,+29.312,-1, -9, -1, -1, -1, -2, -1, -5,-1.374077779797441,1.010052133922802
1503523890630,+0.429,+0.488,-0.199,-0.734,+0.726,-0.538,-0.390,+45.438,-12.062,+26.938,-3, -2, 11, 1, -1, -1, 2, 0,-1.3841230365299044,1.0119567860385383
1503523890652,+0.428,+0.494,-0.192,-0.732,+0.728,-0.562,-0.394,+46.250,-11.125,+25.688,8, 1, -1, -1, 2, 1, -2, -4,-1.394331705506975,1.0140071456231394
1503523890668,+0.428,+0.499,-0.185,-0.730,+0.723,-0.564,-0.369,+47.438,-13.375,+23.062,-3, 16, -4, -1, -2, 0, -1, -6,-1.4047923992127451,1.0144997067399435
1503523890693,+0.428,+0.505,-0.178,-0.728,+0.710,-0.578,-0.364,+46.750,-18.188,+20.438,-1, 7, -6, -1, -2, 1, -1, 5,-1.41808429653715,1.0180138986650449
1503523890712,+0.429,+0.510,-0.171,-0.726,+0.691,-0.610,-0.353,+46.812,-15.875,+18.750,2, -7, 3, -3, -1, -1, -2, -2,-1.4315871213950462,1.019942361114812
1503523893952,+0.329,+0.378,-0.457,-0.735,+0.982,-0.282,-0.229,-1.875,+14.375,-15.188,-4, -4, 1, 1, -3, -5, 4, 10,-1.0301313868481707,1.2591537446075103
1503523893975,+0.329,+0.378,-0.459,-0.734,+0.979,-0.277,-0.232,+2.938,+11.000,-12.250,-13, -2, 1, 1, 5, 22, 5, -4,-1.030585575920993,1.2633974469202165
1503523893990,+0.329,+0.378,-0.461,-0.732,+0.966,-0.290,-0.242,-1.000,+12.688,-9.250,1, 3, 0, 0, 0, -1, 16, 14,-1.0306897190693496,1.2673628883876038
1503523894015,+0.329,+0.378,-0.463,-0.732,+0.996,-0.279,-0.277,-4.062,+8.938,-6.250,-2, -3, -4, -2, -1, -3, -4, -17,-1.0314918947055898,1.2719032252443492
1503523894037,+0.330,+0.377,-0.463,-0.732,+1.000,-0.267,-0.263,-2.812,-1.125,-5.688,-8, -2, -1, -3, -2, -5, -12, -6,-1.0316069017173226,1.2704448061105276
1503523894050,+0.331,+0.376,-0.463,-0.732,+0.984,-0.239,-0.235,-1.062,-8.625,-5.750,3, -6, -2, 0, 0, 0, 27, -1,-1.031728851034442,1.2689907149165214
1503523894072,+0.332,+0.374,-0.462,-0.732,+0.962,-0.226,-0.226,-0.250,-9.625,-7.125,1, 7, -1, -2, -4, 4, -9, 12,-1.0296471783273222,1.263592230355972
1503523894095,+0.333,+0.374,-0.462,-0.732,+1.032,-0.258,-0.166,+1.750,-8.312,-6.938,-6, -2, 0, 1, 0, 0, -10, -6,-1.0315981972658126,1.2638252166161419
1503523894109,+0.335,+0.373,-0.463,-0.731,+0.992,-0.223,-0.206,-1.812,-5.438,-11.312,-1, 0, -1, 0, 0, -4, -11, -7,-1.0337368975530188,1.2645983646010572
1503523894132,+0.337,+0.371,-0.462,-0.731,+0.954,-0.210,-0.230,+0.938,-13.375,-10.562,-6, -8, 2, 2, 0, -4, -2, -7,-1.0336560468295006,1.2594567907392105
1503523894156,+0.340,+0.370,-0.463,-0.731,+0.955,-0.223,-0.215,+2.375,-9.125,-15.938,-5, -13, -3, -6, -4, -19, -5, 9,-1.0381359740552711,1.260761173564451
1503523894170,+0.341,+0.369,-0.464,-0.729,+0.945,-0.218,-0.232,+2.312,+3.812,-16.438,3, 5, -3, -1, -1, 2, -8, -87,-1.0379865637193848,1.2610234082742744
1503523894192,+0.342,+0.369,-0.467,-0.727,+0.971,-0.208,-0.240,+0.125,+15.688,-13.750,8, 0, 0, 0, -1, -2, -2, 24,-1.0403912172065521,1.2674878675238221
1503523894216,+0.343,+0.368,-0.470,-0.725,+0.998,-0.190,-0.253,-3.438,+16.312,-12.625,-3, -1, 1, -1, 1, 3, -4, 7,-1.0410013714532595,1.2723136471352463
1503523894231,+0.344,+0.367,-0.473,-0.724,+1.021,-0.184,-0.249,-2.688,+9.250,-12.562,-9, 2, 1, 0, 1, 2, -3, 0,-1.0419615032005292,1.2774380316780867
1503523894252,+0.345,+0.366,-0.475,-0.722,+1.030,-0.181,-0.240,-2.000,+3.875,-15.625,-8, -8, -2, 0, -2, -1, -8, 29,-1.0421857557595053,1.2800181337929692
1503523894274,+0.347,+0.364,-0.476,-0.722,+1.026,-0.197,-0.230,-0.500,-2.688,-17.562,14, 6, 0, -2, 1, 1, 4, 28,-1.0429340498791706,1.2794683735417605
1503523894290,+0.350,+0.362,-0.475,-0.722,+1.006,-0.203,-0.254,+0.000,-14.312,-18.500,2, 7, 0, 0, -2, -2, -4, -5,-1.0449324036764152,1.2745877816256406
1503523894312,+0.354,+0.358,-0.474,-0.723,+0.913,-0.188,-0.292,-4.938,-19.312,-21.688,-7, -5, -3, -1, -4, -6, -23, -14,-1.045824053498193,1.2670153474187946
1503523894334,+0.356,+0.353,-0.474,-0.724,+0.872,-0.151,-0.297,-12.375,-14.250,-20.500,1, 6, 6, 0, 0, -2, 2, -12,-1.0414943483286223,1.2597687726434739
1503523894350,+0.358,+0.350,-0.474,-0.724,+0.880,-0.135,-0.293,-12.750,-6.812,-16.375,-10, -6, -4, -1, -1, -1, -1, -17,-1.0403282357742512,1.2554656984178165
1503523894372,+0.359,+0.347,-0.476,-0.724,+0.887,-0.148,-0.270,-12.125,+2.562,-16.125,2, 0, -2, 1, -1, 1, 0, -28,-1.037922633532476,1.2555508459416815
1503523894395,+0.359,+0.344,-0.479,-0.724,+0.911,-0.149,-0.267,-15.125,+6.875,-14.188,-26, -8, -4, -1, -1, -5, 1, -75,-1.0339027222005988,1.2577609306135804
1503523894409,+0.359,+0.341,-0.481,-0.724,+0.925,-0.131,-0.265,-17.188,+3.750,-11.562,12, -5, -1, 0, 1, 2, 12, 33,-1.0295519876486054,1.2577322455484679
1503523894432,+0.359,+0.338,-0.482,-0.724,+0.931,-0.138,-0.245,-15.500,-5.375,-11.812,3, 2, 0, 0, 1, 2, 2, 27,-1.0248724857732359,1.2554470166256007
1503523894455,+0.360,+0.334,-0.482,-0.725,+0.934,-0.146,-0.250,-14.688,-8.625,-12.688,0, -4, -1, -2, -1, -1, -4, -41,-1.0205880263932638,1.2498955092863573
1503523894469,+0.360,+0.331,-0.483,-0.726,+0.916,-0.145,-0.254,-17.438,-6.000,-11.312,5, -1, 0, 1, 1, 2, 11, 37,-1.0163588946631144,1.2480040289776866
1503523894492,+0.359,+0.327,-0.484,-0.727,+0.915,-0.121,-0.257,-21.125,-6.875,-7.562,-10, -4, -1, -2, 0, 0, 0, 0,-1.0085147050846937,1.2444600716356347
1503523894517,+0.359,+0.323,-0.485,-0.729,+0.937,-0.095,-0.256,-21.938,-11.438,-6.312,3, 1, -2, -1, -1, 0, 6, -10,-1.0031199039040786,1.2415150609498984
1503523894531,+0.359,+0.319,-0.485,-0.731,+0.950,-0.092,-0.259,-21.000,-15.938,-8.250,4, 2, 0, 1, 0, -1, -4, 21,-0.9974361586984862,1.2363179989493502
1503523894553,+0.360,+0.315,-0.485,-0.733,+0.944,-0.091,-0.250,-18.938,-17.375,-8.250,1, 0, 3, 0, -2, -1, -1, 35,-0.9938320710962757,1.2314010874302421
1503523894574,+0.359,+0.312,-0.485,-0.734,+0.946,-0.093,-0.254,-17.000,-9.562,-5.312,4, 0, -1, -1, 0, 0, -8, 8,-0.9874403805927033,1.2272250957949087
1503523894590,+0.358,+0.309,-0.486,-0.735,+0.951,-0.096,-0.285,-17.250,-4.188,-1.938,9, -4, 0, -1, -3, 0, -1, 31,-0.9814231060946703,1.2254234010834473
1503523894612,+0.357,+0.306,-0.486,-0.737,+0.970,-0.103,-0.286,-18.875,-10.438,-1.938,-2, 1, -4, 0, -1, 0, 8, 7,-0.9754916930522856,1.2216557121301446
1503523894634,+0.357,+0.302,-0.485,-0.739,+0.991,-0.100,-0.280,-21.688,-21.875,-2.938,3, -12, -3, 0, 0, 0, -5, -31,-0.9697172200387334,1.2144062879219057
1503523894651,+0.357,+0.297,-0.483,-0.742,+0.965,-0.093,-0.286,-22.938,-30.375,-3.250,4, 2, -4, -1, 0, -1, 3, 48,-0.9625391399271115,1.2038460169606573
1503523894672,+0.357,+0.291,-0.480,-0.746,+0.933,-0.090,-0.302,-23.562,-35.125,-2.938,-4, 2, 0, 0, -2, -2, 6, 38,-0.9540316974144731,1.190043277798838
1503523894694,+0.357,+0.286,-0.478,-0.750,+0.936,-0.092,-0.300,-23.938,-34.688,-2.688,13, -4, -3, 1, -2, -2, 1, 19,-0.9475141645502446,1.1800772532545005
1503523894719,+0.357,+0.282,-0.476,-0.753,+0.927,-0.091,-0.308,-20.375,-28.312,-4.188,8, -13, -2, 0, 1, 1, 7, 4,-0.9421663185458142,1.1711755899177765
1503523894732,+0.357,+0.278,-0.475,-0.755,+0.914,-0.091,-0.319,-17.375,-18.938,-4.562,-4, 4, 0, -1, -1, -2, -2, 1,-0.9367996107115959,1.1643177628922128
1503523894758,+0.356,+0.275,-0.474,-0.757,+0.906,-0.074,-0.331,-17.188,-12.812,-1.438,0, -4, -4, -2, -1, -1, 2, 5,-0.9308943093050253,1.1585974784606312
1503523894769,+0.355,+0.272,-0.474,-0.759,+0.917,-0.076,-0.343,-19.562,-13.688,+1.875,1, 3, 0, 2, -1, -1, 0, 3,-0.9253521412379562,1.1552680833844309
1503523894792,+0.354,+0.268,-0.473,-0.761,+0.936,-0.073,-0.337,-18.875,-17.938,+0.062,17, 1, 3, -1, 0, -2, -9, 33,-0.9180840676953608,1.1483524944137429
1503523894814,+0.354,+0.265,-0.472,-0.763,+0.942,-0.067,-0.329,-17.188,-21.812,-2.062,2, 4, -2, 0, 1, -1, 1, 5,-0.9143494133497286,1.1429792903381426
1503523894829,+0.353,+0.261,-0.470,-0.766,+0.908,-0.061,-0.355,-17.625,-24.375,+0.562,19, -5, -1, -2, -1, 2, 10, 15,-0.9073001444774592,1.1342159030369048
1503523894855,+0.352,+0.257,-0.467,-0.769,+0.907,-0.067,-0.382,-18.375,-27.250,+3.062,-19, -15, -2, -1, -2, -3, -2, -11,-0.8999984111697318,1.1231674580784303
1503523894875,+0.352,+0.254,-0.465,-0.772,+0.919,-0.063,-0.380,-15.938,-27.125,+1.688,-22, -1, -4, -1, 0, 1, -3, -14,-0.8965297883234743,1.1159922959000315
1503523894895,+0.352,+0.251,-0.463,-0.774,+0.928,-0.059,-0.369,-13.688,-21.875,-1.938,11, 3, 0, -1, 0, 0, 0, 14,-0.892666139846616,1.108451516732302
1503523894912,+0.352,+0.248,-0.461,-0.776,+0.916,-0.052,-0.397,-11.938,-19.562,-3.000,7, -9, -3, -1, 2, -2, 3, 18,-0.8888459748688565,1.100950089075614
1503523894935,+0.353,+0.245,-0.460,-0.777,+0.910,-0.050,-0.441,-10.125,-16.438,-2.938,-8, 6, 1, -1, -1, -1, 3, -30,-0.8870122446729902,1.0956412768129222
1503523894949,+0.353,+0.242,-0.458,-0.779,+0.922,-0.030,-0.450,-7.062,-14.688,-2.375,1, 19, 2, -1, -3, -1, -1, 7,-0.8832783593141837,1.0882134063639899
1503523894972,+0.353,+0.241,-0.457,-0.780,+0.945,-0.033,-0.427,-4.375,-15.188,-0.750,-9, -12, -5, -1, -2, -2, -2, 9,-0.8820909382735904,1.085105692214476
1503523894995,+0.354,+0.239,-0.455,-0.781,+0.922,-0.030,-0.440,-0.750,-13.625,-0.688,2, -9, -4, 0, 0, 2, 1, 11,-0.8813712385057747,1.0787035486207122
1503523895009,+0.355,+0.239,-0.454,-0.782,+0.902,-0.024,-0.454,+5.250,-10.500,+0.000,-11, 21, 1, -1, 0, -2, -2, -24,-0.8836088572931806,1.0770165698722434
1503523895032,+0.356,+0.240,-0.452,-0.782,+0.917,-0.027,-0.456,+8.125,-4.375,+2.438,-6, -7, -8, 0, 0, -1, -6, -5,-0.8864116905161712,1.0737460853852525
1503523895056,+0.356,+0.242,-0.452,-0.781,+0.928,-0.027,-0.443,+10.812,+2.938,+7.000,-10, -4, -1, -1, -1, 2, 12, 18,-0.8886022230411305,1.0756922585907585
1503523895075,+0.355,+0.245,-0.452,-0.781,+0.958,-0.023,-0.436,+16.312,+3.750,+10.000,9, -18, -2, -2, 1, -2, -4, 14,-0.8904949753244138,1.0790512958189995
1503523895092,+0.356,+0.248,-0.451,-0.780,+0.948,-0.048,-0.415,+20.125,+1.875,+8.500,11, 25, -2, 0, -2, 0, -6, -21,-0.8958400265419438,1.0801456320433354
1503523895114,+0.357,+0.251,-0.449,-0.780,+0.930,-0.067,-0.420,+22.562,-1.312,+6.938,2, 7, -2, -1, 0, -2, -6, -4,-0.9013421313196049,1.0793822631304464
1503523895131,+0.358,+0.255,-0.447,-0.779,+0.930,-0.048,-0.427,+22.812,-3.000,+7.250,-6, -7, -4, -3, -1, -2, -2, -12,-0.9077772584274783,1.0794859010785751
1503523895152,+0.358,+0.258,-0.445,-0.779,+0.917,-0.068,-0.445,+26.062,-0.750,+8.938,5, -14, 1, -2, 1, -1, -8, -12,-0.9112312915307623,1.0785938798986991
1503523895174,+0.359,+0.263,-0.443,-0.778,+0.935,-0.073,-0.417,+27.000,-2.375,+11.188,-6, -53, -2, 0, 0, 0, -1, 0,-0.9191129052915326,1.0801108660663332
1503523895194,+0.360,+0.267,-0.441,-0.778,+0.926,-0.081,-0.410,+28.375,-2.750,+11.375,6, 18, 3, 2, 0, -2, -5, 15,-0.9261046089101711,1.0808737436489608
1503523895212,+0.361,+0.272,-0.438,-0.777,+0.915,-0.100,-0.432,+31.812,-1.938,+9.750,-13, 21, -2, -2, -2, -1, 1, 0,-0.93378003607669,1.0803141013626902
1503523895234,+0.362,+0.277,-0.436,-0.776,+0.888,-0.109,-0.429,+30.812,+1.938,+10.750,19, 5, 0, 2, 0, 0, 11, 46,-0.9418483310231943,1.0821718120391866
1503523895251,+0.362,+0.282,-0.435,-0.775,+0.910,-0.106,-0.419,+31.312,+7.625,+12.500,0, 0, 1, -1, -1, -1, -1, 10,-0.9482225599189805,1.0861608558409692
1503523895272,+0.362,+0.288,-0.433,-0.773,+0.936,-0.114,-0.422,+33.938,+6.750,+14.562,8, -17, 1, 0, 0, -1, 0, -3,-0.9553724978418631,1.0889393946608579
1503523895294,+0.363,+0.293,-0.430,-0.773,+0.914,-0.134,-0.438,+37.375,-0.875,+12.812,14, 21, -3, -4, -2, -1, -2, 5,-0.9637613284790751,1.0893028439703787
1503523895310,+0.365,+0.299,-0.427,-0.772,+0.879,-0.157,-0.430,+36.188,+1.438,+11.438,10, 16, 6, -1, -2, -2, -4, 10,-0.9753820771693589,1.0910888305408313
1503523895333,+0.365,+0.305,-0.425,-0.770,+0.859,-0.146,-0.436,+36.500,+11.062,+11.625,-14, -14, -5, -6, -3, -3, -7, -29,-0.9828499180183464,1.0943492355642315
1503523895358,+0.366,+0.311,-0.424,-0.768,+0.931,-0.142,-0.436,+39.062,+8.750,+13.438,-30, -8, -4, 0, -2, -2, -4, -46,-0.9928833835650622,1.1003020632481253
1503523895370,+0.367,+0.317,-0.420,-0.767,+0.960,-0.150,-0.449,+41.438,-2.750,+14.000,14, 9, -6, -2, -1, 0, 1, 3,-1.0024085695071798,1.1001101846344539
1503523895393,+0.369,+0.322,-0.415,-0.766,+0.911,-0.191,-0.434,+41.375,-12.625,+12.312,3, -9, -4, 1, -1, 1, 0, 24,-1.0122358795517679,1.096694495637672
1503523895414,+0.371,+0.328,-0.410,-0.766,+0.871,-0.197,-0.434,+44.688,-9.062,+12.188,-11, -2, -6, -2, 0, -1, -1, 10,-1.0241210794877826,1.0953917682803709
1503523895431,+0.373,+0.335,-0.407,-0.764,+0.888,-0.222,-0.440,+47.688,+5.062,+12.125,2, 5, -5, 0, -3, -3, -1, 24,-1.0376407944394792,1.0995167645293769
1503523895452,+0.374,+0.343,-0.404,-0.761,+0.926,-0.217,-0.435,+49.625,+8.000,+12.938,-11, -16, -6, -2, 2, 1, 1, -35,-1.0504852169740027,1.1048160332987897
1503523895474,+0.376,+0.351,-0.400,-0.759,+0.942,-0.216,-0.425,+51.562,+5.125,+13.125,6, -18, -2, -1, 1, 1, 3, 42,-1.0657167165988297,1.1089668123779408
1503523895492,+0.378,+0.358,-0.396,-0.756,+0.924,-0.239,-0.405,+55.312,+1.000,+13.375,21, 1, -14, -2, -3, -4, 2, -10,-1.0791419028615292,1.1114459193545585
1503523895512,+0.380,+0.367,-0.391,-0.754,+0.904,-0.277,-0.389,+57.812,-1.250,+14.688,6, 14, -13, -2, -3, -2, 0, 2,-1.0962281522583035,1.1158572780200602
1503523895534,+0.381,+0.376,-0.387,-0.751,+0.891,-0.287,-0.386,+61.000,+3.562,+15.438,-7, -23, -5, -1, 1, -1, 0, 8,-1.1115294693205258,1.122178594435326
1503523895550,+0.383,+0.386,-0.382,-0.747,+0.902,-0.289,-0.367,+64.125,+6.250,+16.688,-22, -21, 2, -1, -2, 0, -3, -5,-1.1304061545547626,1.128641230388823
1503523895579,+0.384,+0.396,-0.377,-0.744,+0.926,-0.309,-0.356,+65.500,+2.188,+20.250,6, 13, -3, -3, -3, -3, -3, -8,-1.1479741366430536,1.1356939265386832
1503523895595,+0.386,+0.406,-0.372,-0.740,+0.915,-0.348,-0.342,+67.875,+3.438,+20.562,17, -3, -8, 0, 1, -2, -3, 0,-1.1677965455724044,1.1433668611265515
1503523895610,+0.387,+0.416,-0.366,-0.737,+0.904,-0.360,-0.333,+68.188,+0.938,+23.375,1, -14, -7, -2, -3, -2, -5, 9,-1.1859917141453478,1.1495697849016118
1503523899937,+0.340,+0.423,-0.416,-0.729,+0.927,-0.332,-0.228,-3.688,+2.625,-21.438,-3, 3, 1, -1, 2, -2, 0, 1,-1.1193840483553124,1.251086370747526
1503523899967,+0.342,+0.421,-0.419,-0.728,+0.940,-0.325,-0.215,-5.688,-0.938,-21.375,8, -1, 3, 0, 1, -1, 0, -3,-1.1201952211332138,1.2540114666723672
1503523899974,+0.344,+0.419,-0.421,-0.727,+0.932,-0.320,-0.224,-5.500,-0.438,-20.188,-12, -6, 0, -1, -2, 0, 0, -1,-1.1206322837007543,1.2547934456286556
1503523899997,+0.346,+0.417,-0.423,-0.726,+0.924,-0.307,-0.231,-6.125,+1.438,-19.375,4, -1, -2, 1, -1, 0, -1, -3,-1.1210866170805949,1.255595905787011
1503523900019,+0.347,+0.415,-0.425,-0.725,+0.933,-0.298,-0.235,-6.062,+3.875,-17.875,-8, -2, 6, 3, 2, 7, 0, 2,-1.1195795856571966,1.2561488892971702
1503523900034,+0.349,+0.414,-0.427,-0.724,+0.942,-0.289,-0.238,-5.688,+5.062,-16.938,-35, -10, -1, -2, -1, 0, 0, -1,-1.1220184450829607,1.258871110402221
1503523900057,+0.350,+0.412,-0.430,-0.724,+0.959,-0.288,-0.233,-7.125,+4.438,-15.938,5, 3, -3, -1, -2, -4, -1, 1,-1.121226128035031,1.2619108567142883
1503523900079,+0.351,+0.410,-0.432,-0.723,+0.986,-0.289,-0.221,-8.500,+0.000,-14.812,16, 7, 5, 0, 1, -3, -1, 1,-1.1197544854443318,1.2625309596633782
1503523900095,+0.352,+0.407,-0.433,-0.723,+0.970,-0.295,-0.225,-9.438,-7.500,-15.875,-11, -3, -3, 0, -2, -1, 1, -3,-1.1163218822867162,1.2594271636306642
1503523900117,+0.354,+0.404,-0.433,-0.723,+0.934,-0.270,-0.250,-7.688,-11.188,-15.500,3, 6, 3, 0, -2, -2, -3, 0,-1.1145450436486797,1.2544426834663747
1503523900139,+0.357,+0.402,-0.433,-0.724,+0.884,-0.258,-0.271,-5.875,-9.750,-15.688,7, -5, -6, -2, -2, 0, 0, -1,-1.1170367335094984,1.2518612782066822
1503523900158,+0.358,+0.400,-0.434,-0.724,+0.902,-0.252,-0.269,-4.000,-3.312,-12.312,-2, 7, 9, -3, 1, -1, -1, -3,-1.115613181226782,1.2506758077288362
1503523900177,+0.359,+0.399,-0.435,-0.723,+0.926,-0.245,-0.262,-2.125,+4.312,-10.000,1, -2, -6, 0, -1, -3, -3, -3,-1.115761310704133,1.251028965103638
1503523900199,+0.359,+0.398,-0.437,-0.722,+0.954,-0.255,-0.253,-1.812,+6.625,-8.750,0, 2, -4, -2, -1, -2, 0, 2,-1.1142795180074323,1.2533155956779103
1503523900214,+0.360,+0.398,-0.438,-0.721,+0.979,-0.262,-0.234,-2.438,+2.125,-9.188,-5, 2, 1, 0, 1, 1, 1, -1,-1.1163097226738743,1.2554779627026764
1503523900237,+0.361,+0.396,-0.439,-0.721,+0.977,-0.253,-0.237,-2.938,-3.875,-10.250,8, 3, -4, -1, -1, -1, -1, -3,-1.1149174071284547,1.2543345343014705
1503523900260,+0.363,+0.395,-0.439,-0.721,+0.953,-0.242,-0.256,-2.812,-6.375,-9.938,1, -4, -2, 0, 0, -1, -1, 0,-1.1170480490900492,1.2530575969904882
1503523900274,+0.364,+0.393,-0.439,-0.721,+0.947,-0.236,-0.257,-2.562,-6.062,-8.062,1, 10, 3, -2, -1, -3, -2, -1,-1.1153304600131324,1.249751596407431
1503523900297,+0.365,+0.393,-0.440,-0.721,+0.934,-0.231,-0.254,-0.938,-1.750,-5.312,0, -6, -2, -4, -2, -2, 2, 0,-1.1176905514932927,1.2521956844709854
1503523900319,+0.365,+0.392,-0.440,-0.721,+0.943,-0.247,-0.244,-1.375,-0.062,-4.562,3, -7, -5, -1, -2, 0, 0, 0,-1.1158380890110668,1.2504228371262054
1503523900334,+0.365,+0.392,-0.440,-0.721,+0.953,-0.246,-0.235,-2.500,-2.000,-4.125,2, -4, -1, 1, -1, -1, 1, -2,-1.1158380890110668,1.2504228371262054
1503523900362,+0.366,+0.391,-0.441,-0.721,+0.947,-0.239,-0.246,-4.500,-2.875,-5.000,3, -4, 9, 1, -1, -1, -1, 1,-1.1163499939449637,1.2510987190746083
1503523900379,+0.366,+0.389,-0.441,-0.721,+0.935,-0.230,-0.260,-4.688,-2.625,-4.938,-4, -2, 0, -1, -1, 0, 0, 2,-1.1126654623222234,1.24757430682035
1503523900395,+0.366,+0.388,-0.442,-0.721,+0.934,-0.226,-0.261,-3.562,-1.688,-4.875,1, 0, 3, 1, -2, -1, 1, 0,-1.1111827060607145,1.2480133295722542
1503523900417,+0.367,+0.387,-0.442,-0.721,+0.936,-0.225,-0.255,-4.500,-2.312,-5.062,5, -10, -8, -1, 0, 0, -1, -2,-1.1113598913575,1.2465148734429756
1503523900439,+0.367,+0.386,-0.443,-0.721,+0.942,-0.238,-0.244,-4.750,-3.375,-6.312,2, -4, 1, -1, 0, -2, -1, -1,-1.1098842802676476,1.2469650835708446
1503523900454,+0.368,+0.385,-0.443,-0.721,+0.933,-0.231,-0.253,-4.938,-4.938,-7.312,2, -1, 2, 1, 0, -3, -5, -5,-1.1100721083285285,1.2454747651734184
1503523900477,+0.369,+0.383,-0.443,-0.721,+0.922,-0.222,-0.247,-4.250,-3.750,-9.188,-9, -1, 4, 1, -1, 3, 3, 2,-1.108451324292784,1.2422529670755762
1503523900501,+0.370,+0.382,-0.444,-0.721,+0.915,-0.220,-0.265,-3.938,-1.312,-9.812,-3, 0, 3, -1, -1, -4, -9, -5,-1.1090075472133167,1.2429757724937822
1503523900515,+0.371,+0.381,-0.445,-0.721,+0.916,-0.223,-0.278,-2.938,-0.250,-8.625,4, -2, 2, 0, 1, -1, 2, -13,-1.1095679127227465,1.2437030803835198
1503523900537,+0.371,+0.380,-0.445,-0.721,+0.957,-0.235,-0.255,-3.688,-1.938,-8.562,0, 2, 5, -1, -1, 0, 0, 3,-1.107765503264216,1.2419819580660907
1503523900563,+0.371,+0.379,-0.446,-0.721,+0.992,-0.245,-0.231,-5.500,-1.000,-5.562,-3, -4, -6, 0, 0, -2, -1, 1,-1.106314291626107,1.242469306038168
1503523900574,+0.371,+0.378,-0.448,-0.721,+1.001,-0.225,-0.231,-9.125,+1.062,-4.062,8, 1, -3, -3, -2, 2, 3, 5,-1.105213935710364,1.245171652789941
1503523900597,+0.371,+0.376,-0.448,-0.721,+0.973,-0.193,-0.262,-9.938,-4.625,-3.500,-7, -4, -4, -1, 0, 0, 1, 0,-1.101633891206325,1.2417625008142992
1503523900619,+0.372,+0.374,-0.448,-0.722,+0.929,-0.180,-0.277,-8.000,-10.562,-5.625,-2, -1, -3, -1, -1, 1, 2, 2,-1.1004359123692065,1.2389140846414106
1503523900636,+0.372,+0.371,-0.447,-0.724,+0.918,-0.197,-0.268,-8.938,-12.500,-6.000,5, -2, -2, -1, -2, 1, -2, -3,-1.0954660348667622,1.2322392746697997
1503523900657,+0.373,+0.369,-0.447,-0.724,+0.952,-0.203,-0.233,-11.000,-10.625,-5.312,0, 3, 4, 1, 0, -2, -1, 4,-1.0939723542387225,1.2291333625243894
1503523900679,+0.373,+0.367,-0.448,-0.725,+0.920,-0.193,-0.247,-13.188,-5.562,-6.500,-4, -2, -3, 1, 0, -1, -1, -2,-1.0911599575294455,1.2283154298264611
1503523900695,+0.373,+0.365,-0.449,-0.726,+0.912,-0.183,-0.271,-12.188,-2.500,-7.688,-5, -2, -1, -2, -3, -1, 1, 1,-1.088364441972276,1.2275200402873638
1503523900717,+0.373,+0.362,-0.450,-0.726,+0.927,-0.184,-0.302,-11.250,-1.062,-6.812,-2, -1, -4, -2, 1, -2, 0, -3,-1.0834970445458643,1.2247909428733836
1503523900739,+0.372,+0.360,-0.451,-0.727,+0.951,-0.197,-0.308,-12.562,+0.188,-4.812,-2, -3, -3, -2, 0, -1, 0, 2,-1.0787058462579717,1.2237997508093144
1503523900755,+0.372,+0.358,-0.452,-0.727,+0.937,-0.187,-0.281,-13.500,-1.125,-4.812,-3, 4, -2, -2, -1, -1, -9, 0,-1.0756064653736221,1.2227676216400751
1503523900777,+0.372,+0.356,-0.453,-0.728,+0.997,-0.175,-0.265,-12.812,-6.125,-5.125,-2, -4, 0, 2, -2, 1, 5, 0,-1.0728815593260872,1.2220703150776806
1503523900799,+0.372,+0.354,-0.453,-0.728,+0.977,-0.174,-0.332,-6.375,-2.875,-4.250,-2, -2, -2, -3, 0, -2, 1, -5,-1.0694641377539613,1.218838558396256
1503523900815,+0.373,+0.352,-0.452,-0.730,+0.931,-0.160,-0.348,-5.188,-10.500,-2.188,0, -1, -2, -1, 4, 4, 11, 5,-1.0684866501018633,1.214268470610371
1503523900837,+0.373,+0.351,-0.451,-0.731,+0.943,-0.145,-0.278,-5.500,-12.062,-0.688,4, -6, -5, -3, -3, 0, -3, 1,-1.0668140386778993,1.2107481383644991
1503523900862,+0.373,+0.350,-0.451,-0.731,+0.929,-0.154,-0.282,-2.125,-5.625,+0.375,-5, -8, -16, -2, -3, -2, -3, -1,-1.065124060443626,1.209147790371226
1503523900876,+0.373,+0.350,-0.451,-0.731,+0.922,-0.163,-0.311,-0.062,+2.875,+3.250,-7, 1, 0, -1, 0, -1, 1, -2,-1.065124060443626,1.209147790371226
1503523900897,+0.372,+0.351,-0.452,-0.731,+0.937,-0.167,-0.294,-1.375,+3.188,+3.188,-2, -5, -1, 3, 1, 0, -2, -1,-1.0651157276439893,1.2127371298891672
1503523900919,+0.371,+0.350,-0.452,-0.732,+0.953,-0.191,-0.273,-2.688,-1.562,+1.562,1, 8, -4, 0, 2, 2, 0, -11,-1.0617498227676179,1.2112109704752816
1503523900935,+0.371,+0.350,-0.452,-0.732,+0.966,-0.196,-0.262,-3.938,-4.375,-0.062,2, -4, -4, -1, -3, -9, 0, 5,-1.0617498227676179,1.2112109704752816
1503523900957,+0.371,+0.349,-0.452,-0.732,+0.935,-0.184,-0.274,-5.625,-6.250,-2.875,2, 0, -3, 0, -1, 3, -2, 1,-1.0600619197640184,1.209616059313242
1503523900979,+0.371,+0.348,-0.451,-0.733,+0.936,-0.171,-0.297,-5.375,-7.875,-3.188,-3, -4, -2, 0, -2, 1, 4, -2,-1.0584001138793417,1.2061059057313213
1503523900998,+0.372,+0.346,-0.451,-0.734,+0.939,-0.178,-0.299,-6.500,-10.500,-2.125,8, -5, -1, -1, -1, 1, -7, 1,-1.0574609003168383,1.203513327015262
1503523901016,+0.371,+0.344,-0.451,-0.735,+0.955,-0.184,-0.280,-9.500,-7.000,-1.500,-3, 1, 0, -1, -2, -1, 2, -6,-1.0524447435888833,1.2004337494716757
1503523901040,+0.371,+0.343,-0.451,-0.736,+0.930,-0.155,-0.302,-9.125,-3.875,-1.125,-5, -1, -3, 1, 0, 0, -2, -17,-1.051153369205919,1.1991930226607417
1503523901055,+0.371,+0.341,-0.451,-0.737,+0.938,-0.164,-0.299,-9.625,-7.375,-1.062,2, 3, 1, -1, 0, 2, -5, 2,-1.0482100859171908,1.1963935390242268
1503523901077,+0.371,+0.339,-0.451,-0.738,+0.949,-0.165,-0.299,-10.688,-10.750,-2.812,-11, 2, 1, 1, -1, 0, -5, -6,-1.045283490672498,1.193611737606258
1503523901108,+0.371,+0.337,-0.450,-0.739,+0.927,-0.150,-0.320,-10.062,-10.688,-4.250,1, 2, -1, 0, -1, -1, 0, -2,-1.0420290231359826,1.1885951362494551
1503523901123,+0.371,+0.334,-0.450,-0.740,+0.923,-0.146,-0.326,-9.688,-11.312,-3.625,10, 2, 0, 1, 0, 3, 1, 3,-1.0375048904069237,1.1843076189183745
1503523901137,+0.372,+0.332,-0.449,-0.741,+0.930,-0.152,-0.323,-8.688,-10.312,-1.812,-5, 1, 7, -2, -2, -1, -5, -8,-1.0363535930255559,1.1795848421828439
1503523901159,+0.371,+0.331,-0.449,-0.742,+0.919,-0.150,-0.313,-8.438,-7.875,-1.000,-9, -3, -2, -1, -2, -1, 2, 18,-1.033056900263184,1.1781466699567393
1503523901175,+0.371,+0.329,-0.449,-0.743,+0.947,-0.148,-0.326,-7.438,-6.688,-1.375,-3, -6, -2, -1, -1, 0, -1, 0,-1.030214282729221,1.175449650038808
1503523901197,+0.371,+0.328,-0.449,-0.744,+0.948,-0.151,-0.337,-5.438,-6.875,-0.438,5, -3, -2, 0, -2, -6, -1, 5,-1.0289928392518641,1.1742832728116204
1503523901219,+0.371,+0.327,-0.448,-0.745,+0.962,-0.156,-0.351,-5.125,-7.125,+2.562,3, 4, -4, -1, -3, -1, -1, -2,-1.0274341934442288,1.170864315289036
1503523901237,+0.370,+0.326,-0.447,-0.746,+0.982,-0.145,-0.349,-5.625,-9.438,+6.125,1, -1, 0, 1, 3, 2, 1, -5,-1.0238146401835666,1.167191930575803
1503523901257,+0.370,+0.325,-0.445,-0.748,+0.965,-0.135,-0.345,-4.312,-15.062,+8.625,-54, -10, -4, -2, 0, 0, 3, -10,-1.0223126812615895,1.1618841623645757
1503523901279,+0.369,+0.324,-0.443,-0.750,+0.942,-0.141,-0.349,-2.125,-15.938,+10.312,12, 0, -1, -2, -2, -4, -10, -11,-1.0187480902588537,1.1563258720169807
1503523901297,+0.368,+0.324,-0.440,-0.752,+0.920,-0.153,-0.366,-1.312,-14.500,+13.125,20, 3, -1, 1, -1, 0, 2, 9,-1.0164270901162356,1.1500254196881388
1503523901324,+0.367,+0.324,-0.438,-0.754,+0.913,-0.153,-0.356,-1.000,-11.062,+14.562,1, -2, -1, 0, -2, 0, -1, 6,-1.0144482743887597,1.1459852858576378
1503523901339,+0.365,+0.325,-0.437,-0.755,+0.946,-0.165,-0.353,+0.188,-7.562,+17.500,-7, 0, 1, -1, -3, 1, -6, -1,-1.0119387553315633,1.1450651247579817
1503523901355,+0.363,+0.326,-0.435,-0.757,+0.938,-0.170,-0.365,-0.688,-8.812,+18.938,4, -4, 0, 0, -2, 0, 7, 10,-1.0094754728584585,1.142264509058085
1503523901377,+0.361,+0.326,-0.433,-0.759,+0.921,-0.185,-0.356,-1.938,-10.625,+18.875,1, -6, -2, -2, -1, -3, -1, -4,-1.0054189429556701,1.137954302197819
1503523901399,+0.359,+0.327,-0.430,-0.761,+0.883,-0.187,-0.364,-1.312,-10.938,+17.562,-3, -1, -1, -3, -2, -5, 3, -13,-1.002594424387768,1.1329135290190626
1503523901415,+0.357,+0.327,-0.428,-0.763,+0.853,-0.189,-0.364,-2.688,-10.125,+15.438,0, -3, -1, 1, 1, 3, 5, 33,-0.9985297064333752,1.128603838421562
1503523901437,+0.356,+0.327,-0.427,-0.764,+0.815,-0.200,-0.360,-4.000,-3.938,+11.312,21, 0, 0, -1, -1, -1, -1, 10,-0.9964963318662373,1.1264488532826158
1503523901459,+0.354,+0.327,-0.427,-0.765,+0.815,-0.224,-0.351,-5.938,+2.062,+7.312,-9, -1, -4, -1, 1, -1, 7, 11,-0.9927621109854493,1.1262497271635905
1503523901475,+0.352,+0.327,-0.428,-0.765,+0.864,-0.247,-0.346,-9.125,+11.000,+3.000,4, 8, 7, 1, 1, -2, -6, -9,-0.9890058398756819,1.1279232177342562
1503523901500,+0.350,+0.327,-0.431,-0.765,+0.900,-0.236,-0.330,-13.000,+12.375,-3.312,8, -7, -3, 0, -1, 1, 3, -6,-0.9859970794189481,1.1341081586430084
1503523901520,+0.350,+0.325,-0.434,-0.764,+0.938,-0.205,-0.349,-14.438,+6.438,-9.688,4, -3, -1, 1, 0, -1, 0, 4,-0.9835144285659929,1.137493080318633
1503523901535,+0.351,+0.321,-0.435,-0.765,+0.936,-0.162,-0.381,-13.375,-3.188,-13.000,2, -3, -2, -4, -3, -3, -1, 7,-0.9799866790174812,1.134428759484117
1503523901557,+0.352,+0.318,-0.435,-0.765,+0.914,-0.147,-0.385,-10.875,-9.562,-12.875,-2, -2, -3, -4, -3, -5, -4, -5,-0.9773243834900888,1.1302631739599092
1503523901579,+0.353,+0.315,-0.436,-0.765,+0.922,-0.149,-0.378,-9.062,-5.688,-11.375,-11, 1, -1, -1, -4, 0, 5, -17,-0.9750575571704606,1.1283944604874891
1503523901595,+0.354,+0.314,-0.436,-0.765,+0.939,-0.151,-0.413,-5.125,+0.562,-4.312,-8, 1, -2, -3, -2, -1, -4, 5,-0.9755635952742066,1.1272059895626354
1503523901617,+0.354,+0.313,-0.437,-0.765,+0.969,-0.143,-0.415,-2.062,+0.188,+0.562,-56, -5, 3, 1, 2, 0, 1, -10,-0.9743697727986307,1.1280151166379804
1503523901639,+0.354,+0.313,-0.436,-0.766,+0.979,-0.156,-0.410,+1.875,-5.688,+4.000,2, -8, -8, -3, 0, 0, -1, 6,-0.9744165155196728,1.1261279827165904
1503523901655,+0.354,+0.313,-0.433,-0.767,+0.928,-0.158,-0.414,+4.875,-13.312,+6.250,-18, -4, -5, -2, -3, -1, -3, -9,-0.9737489669092667,1.1197156699369906
1503523901677,+0.354,+0.314,-0.431,-0.768,+0.868,-0.167,-0.399,+6.125,-14.938,+6.312,11, -6, -4, -3, 1, -4, -1, -1,-0.974984632436841,1.1170377470508928
1503523901703,+0.355,+0.314,-0.429,-0.769,+0.831,-0.177,-0.368,+5.562,-9.312,+4.438,20, 5, 2, 1, -2, -1, -5, -9,-0.9767420264400506,1.1131889768476606
1503523901715,+0.355,+0.315,-0.428,-0.769,+0.841,-0.197,-0.356,+3.375,-2.062,+2.062,11, -11, -5, 1, 0, 1, 2, 16,-0.9779317946037256,1.1124010330589436
1503523901738,+0.354,+0.315,-0.429,-0.769,+0.884,-0.212,-0.352,+0.250,+3.062,-1.750,14, 3, 8, 1, 0, 0, 2, 7,-0.9762202175781999,1.11437241703217
1503523901759,+0.355,+0.315,-0.429,-0.768,+0.919,-0.199,-0.379,-0.312,+2.688,-5.250,-8, 8, -2, -1, -2, -2, -6, -10,-0.9778863408712216,1.114270220792474
1503523901778,+0.355,+0.314,-0.430,-0.768,+0.928,-0.181,-0.368,-2.500,-3.188,-6.000,6, -6, -2, 0, 2, 2, 5, 8,-0.9766953784491617,1.1150600084385438
1503523901798,+0.356,+0.313,-0.430,-0.768,+0.943,-0.151,-0.369,-2.875,-5.062,-6.125,5, 0, -8, -5, -1, -2, -1, 9,-0.9772212073005118,1.1138784863326117
1503523901819,+0.357,+0.312,-0.430,-0.768,+0.935,-0.139,-0.382,-0.375,-4.625,-2.500,-1, -12, 8, 2, -1, 0, -2, -4,-0.9777532741521874,1.1126999575869256
1503523901838,+0.357,+0.313,-0.430,-0.768,+0.940,-0.158,-0.396,+3.062,-1.188,+2.188,-11, -16, -11, -2, -1, 0, 0, 3,-0.9792938034364242,1.1141589099896407
1503523901857,+0.356,+0.313,-0.429,-0.769,+0.950,-0.171,-0.418,+3.562,-0.750,+8.062,10, 1, -12, 1, -1, 0, -1, 0,-0.9772700693940974,1.112008543904891
1503523901879,+0.355,+0.314,-0.428,-0.770,+0.927,-0.177,-0.405,+4.062,-5.312,+11.500,3, 10, 1, -1, -1, -1, 1, -1,-0.9767886679885518,1.1113203589890646
1503523901895,+0.354,+0.315,-0.426,-0.771,+0.912,-0.185,-0.393,+4.938,-9.000,+12.562,-33, 1, 0, 0, 1, 0, -3, -23,-0.9759501419784045,1.1083841487614838
1503523901917,+0.353,+0.316,-0.423,-0.772,+0.896,-0.201,-0.376,+3.625,-11.312,+12.500,12, 1, 5, 1, -1, 1, 0, 2,-0.9747486758609947,1.1032067759969204
1503523901939,+0.352,+0.317,-0.421,-0.773,+0.888,-0.208,-0.365,+0.500,-10.875,+11.562,2, 1, 0, -2, -2, -1, -4, -1,-0.9739047441767639,1.1002866777763203
1503523901955,+0.351,+0.317,-0.420,-0.774,+0.880,-0.201,-0.377,-0.250,-8.562,+9.000,5, 8, 5, 0, -2, -2, 0, 3,-0.9718709416065973,1.0981373218815718
1503523901978,+0.351,+0.317,-0.419,-0.775,+0.855,-0.192,-0.390,+0.188,-5.750,+6.500,-1, -12, -8, 1, 0, -1, 0, 6,-0.9719100471746339,1.0962835275480098
1503523901999,+0.350,+0.317,-0.418,-0.776,+0.872,-0.211,-0.382,-0.750,-6.312,+3.438,-14, 0, -5, -3, -1, -1, -1, -2,-0.9698745059219052,1.0941353017488917
1503523902015,+0.350,+0.317,-0.417,-0.777,+0.883,-0.209,-0.378,-3.375,-5.500,+1.812,13, -1, 0, 2, 2, 1, 3, 2,-0.9699125869867329,1.092284996980988
1503523902037,+0.350,+0.316,-0.417,-0.777,+0.871,-0.186,-0.393,-3.375,-2.188,-1.062,1, 0, -1, 3, 0, 0, 1, 1,-0.968365817731406,1.090809285494435
1503523902059,+0.350,+0.316,-0.417,-0.777,+0.892,-0.189,-0.418,-0.875,-0.875,-0.812,9, -3, -2, -1, -4, -2, -4, 27,-0.968365817731406,1.090809285494435
1503523902076,+0.350,+0.315,-0.417,-0.777,+0.923,-0.187,-0.434,-0.062,-2.000,-0.188,-8, 2, 1, 0, 0, 1, -2, 0,-0.9668225033629406,1.0893370826089679
1503523902097,+0.351,+0.315,-0.417,-0.777,+0.926,-0.176,-0.438,+2.375,-5.375,+1.188,-5, 2, -1, -2, -1, 1, -2, -39,-0.9688995832333411,1.0896346288085756
1503523902119,+0.351,+0.315,-0.415,-0.778,+0.933,-0.187,-0.449,+5.312,-11.688,+2.812,-11, 17, 14, 0, -1, -1, 0, 10,-0.968577194760028,1.0855484919193188
1503523902139,+0.352,+0.315,-0.412,-0.779,+0.920,-0.183,-0.446,+8.188,-14.688,+7.562,7, -14, -9, -4, -4, -2, 0, -2,-0.9699740579674101,1.0795368835371038
1503523902157,+0.352,+0.317,-0.409,-0.780,+0.903,-0.177,-0.474,+13.375,-10.625,+13.188,-1, 7, 19, 3, 2, -1, 0, 9,-0.9723652277010246,1.0761957172909324
1503523902179,+0.351,+0.319,-0.406,-0.781,+0.891,-0.174,-0.463,+17.812,-6.750,+18.062,1, -4, -7, 1, -1, 0, -9, -8,-0.9726726102140189,1.0725765611866966
1503523902195,+0.350,+0.323,-0.403,-0.782,+0.933,-0.185,-0.449,+20.312,-8.688,+23.375,0, -8, -7, -2, -1, 0, 1, 4,-0.9760956768825257,1.0719887452664791
1503523902217,+0.349,+0.326,-0.399,-0.783,+0.927,-0.202,-0.434,+22.312,-10.250,+25.188,1, 7, 3, 0, 2, -1, 1, -2,-0.9776126528875,1.0677406617349734
1503523902239,+0.348,+0.331,-0.394,-0.784,+0.905,-0.210,-0.437,+25.500,-13.000,+28.188,-2, -3, -5, -3, -4, -1, -1, -1,-0.9819283648056311,1.0644174627345016
1503523902261,+0.347,+0.336,-0.390,-0.784,+0.897,-0.233,-0.440,+29.125,-11.625,+31.250,-5, -8, -1, -1, -2, -3, 0, 7,-0.986288952475939,1.063039487241846
1503523902280,+0.345,+0.341,-0.384,-0.785,+0.881,-0.250,-0.446,+31.188,-11.438,+34.125,0, -3, -1, 0, -1, 1, 1, 3,-0.9882447716111697,1.0574508816096309
1503523902299,+0.343,+0.347,-0.379,-0.786,+0.867,-0.259,-0.444,+33.062,-14.062,+34.812,3, 10, 3, 0, 1, 0, -1, -1,-0.992286165444927,1.0557954892227737
1503523902321,+0.342,+0.352,-0.373,-0.788,+0.860,-0.267,-0.439,+35.000,-16.375,+35.438,-5, 8, 9, -1, 0, -1, 2, -10,-0.9968503573399206,1.051250786786408
1503523902339,+0.340,+0.358,-0.366,-0.788,+0.858,-0.294,-0.434,+37.125,-16.000,+36.375,-2, -4, -6, 0, 1, 0, 0, 10,-0.9998679000388191,1.0452020241814104
1503523902359,+0.339,+0.365,-0.360,-0.789,+0.841,-0.309,-0.435,+38.500,-13.688,+36.125,-17, -5, 0, 1, -2, -2, -1, -10,-1.0075957169840741,1.043992186412228
1503523902382,+0.337,+0.372,-0.354,-0.789,+0.807,-0.341,-0.421,+39.562,-12.312,+37.562,11, 2, -14, -2, -1, 1, 1, 1,-1.0129952681006111,1.0422748834028082
1503523902398,+0.335,+0.379,-0.348,-0.789,+0.821,-0.356,-0.401,+40.438,-10.625,+36.750,2, -10, 0, -4, -3, -1, -1, -5,-1.0185661562217325,1.0408192411755353
1503523902419,+0.333,+0.386,-0.342,-0.789,+0.811,-0.371,-0.437,+42.125,-8.125,+34.938,-3, -2, 5, -2, -2, -1, -1, 1,-1.0243162271806903,1.0396297176097289
1503523902443,+0.332,+0.392,-0.336,-0.789,+0.811,-0.390,-0.421,+41.438,-12.312,+33.812,-2, -3, 3, -2, 0, -2, 0, -1,-1.030533739902356,1.0373050116935587
1503523902457,+0.331,+0.399,-0.330,-0.789,+0.834,-0.417,-0.398,+40.188,-12.375,+33.188,-1, -7, -3, 1, 1, 0, 1, 0,-1.0387657128267387,1.0370820398691376
1503523902481,+0.329,+0.406,-0.324,-0.789,+0.784,-0.413,-0.416,+40.625,-11.500,+32.188,7, 7, -3, 1, 1, -1, 0, 1,-1.045077667050307,1.0367068304924618
1503523902502,+0.329,+0.412,-0.318,-0.788,+0.781,-0.420,-0.424,+42.500,-13.250,+28.688,-4, 4, -2, -1, -1, 0, -2, -4,-1.0535748298337961,1.0352414663697602
1503523902517,+0.329,+0.418,-0.312,-0.787,+0.780,-0.430,-0.428,+42.688,-12.625,+25.875,1, -2, 3, -2, 1, -2, -2, -3,-1.0622553143612685,1.0340465051721879
1503523902541,+0.328,+0.424,-0.306,-0.786,+0.792,-0.459,-0.420,+42.688,-12.625,+26.688,0, 2, 2, -1, 0, -2, -1, -1,-1.0689711451048043,1.0326361976894889
1503523906341,+0.357,+0.390,-0.448,-0.721,+0.953,-0.254,-0.243,-6.500,-3.812,+13.938,-12, -5, 2, -1, -1, -8, -5, 2,-1.099049769324175,1.2625072875064767
1503523906368,+0.356,+0.390,-0.447,-0.722,+0.912,-0.226,-0.271,-5.438,-4.938,+12.375,6, 1, -5, -1, 0, 2, -1, -7,-1.0970317814821224,1.2603323842350753
1503523906379,+0.355,+0.390,-0.446,-0.723,+0.863,-0.201,-0.308,+0.375,+1.375,+11.125,-4, -3, -8, -1, -3, -2, 1, 3,-1.0950126853982816,1.2581569174869727
1503523906402,+0.355,+0.390,-0.444,-0.724,+0.901,-0.214,-0.302,+3.125,-5.562,+6.562,-3, 0, -6, -1, 0, 1, 0, 17,-1.0946105085379862,1.2540206346875775
1503523906424,+0.354,+0.391,-0.443,-0.725,+0.945,-0.297,-0.240,+2.500,-2.938,+5.438,-12, -1, 2, 1, -2, 0, 2, -5,-1.0944423914854542,1.2536082611287653
1503523906440,+0.353,+0.393,-0.444,-0.724,+0.922,-0.287,-0.259,+2.250,+12.250,+4.938,14, 0, -2, 0, 0, 1, -1, 3,-1.09621554137543,1.2588167453714638
1503523906461,+0.352,+0.394,-0.445,-0.723,+0.934,-0.238,-0.282,+5.062,+14.625,+5.188,26, -8, -10, -1, 0, 0, -3, 14,-1.0961414178894853,1.2622687544322067
1503523906484,+0.352,+0.395,-0.445,-0.723,+0.992,-0.259,-0.289,+7.750,+1.875,+1.500,-17, 2, 5, 2, -2, -1, -1, -8,-1.0980143417838943,1.264045219962244
1503523906501,+0.354,+0.396,-0.443,-0.723,+0.950,-0.278,-0.292,+11.500,-9.875,-1.312,9, -7, -3, -5, -3, -4, -5, -11,-1.1031084217356455,1.2619138084709771
1503523906521,+0.354,+0.397,-0.441,-0.723,+0.949,-0.322,-0.229,+8.125,-9.438,+1.438,-10, -2, -4, -2, -4, -1, -2, -23,-1.1042472689059892,1.2593012820664515
1503523906544,+0.353,+0.398,-0.442,-0.723,+0.957,-0.287,-0.197,+2.312,+7.125,+5.688,-4, 4, -2, -1, -1, 0, 1, -5,-1.1045182104619367,1.2630410797831484
1503523906559,+0.351,+0.399,-0.443,-0.722,+0.942,-0.229,-0.192,-1.438,+11.062,+3.125,-18, -6, 6, 0, 0, 0, 2, -4,-1.1024945725642092,1.2662625446098141
1503523906581,+0.352,+0.399,-0.444,-0.721,+0.940,-0.231,-0.232,+1.312,-0.188,-2.438,9, 4, 3, 1, -1, -4, 3, 17,-1.1045142933084195,1.2684372101303467
1503523906604,+0.353,+0.398,-0.444,-0.721,+0.916,-0.274,-0.205,-1.688,-6.312,-10.875,-4, 3, 4, 0, -1, -1, -15, 5,-1.1046020253451685,1.2668894854849344
1503523906619,+0.354,+0.396,-0.445,-0.721,+0.915,-0.273,-0.197,-8.875,-2.062,-14.875,-21, 0, 2, -1, -2, -9, -2, 9,-1.1031867704570963,1.2657640359226596
1503523906641,+0.354,+0.394,-0.448,-0.720,+0.907,-0.258,-0.229,-10.438,+9.562,-12.500,40, 7, 1, 0, -1, 5, -1, 4,-1.1002150106547932,1.2685548799734725
1503523906664,+0.354,+0.392,-0.450,-0.720,+0.952,-0.266,-0.198,-12.500,+4.750,-11.125,0, 3, -1, 0, 0, 1, 11, -19,-1.0972189974645454,1.269445777287108
1503523906680,+0.355,+0.389,-0.452,-0.720,+0.979,-0.243,-0.186,-17.312,-6.375,-15.188,-9, -8, 1, 1, 1, 3, 6, -13,-1.094362798156788,1.2688545141455942
1503523906703,+0.357,+0.385,-0.454,-0.720,+0.959,-0.207,-0.172,-17.062,-13.312,-20.938,41, 11, 4, 0, 0, -2, 1, -12,-1.0916883536921604,1.2668181085072334
1503523906724,+0.359,+0.380,-0.454,-0.722,+0.919,-0.202,-0.240,-16.562,-16.500,-20.500,28, 3, -1, -2, -1, -10, -1, -4,-1.08722758115042,1.259262600126067
1503523906740,+0.360,+0.376,-0.455,-0.722,+0.917,-0.208,-0.280,-16.688,-7.438,-16.188,-24, -5, -4, -4, -5, 1, 0, -13,-1.082362406317706,1.2549250119972275
1503523906761,+0.360,+0.373,-0.457,-0.723,+0.940,-0.216,-0.296,-14.312,+2.062,-12.312,33, 7, 8, -2, -2, 1, -13, 3,-1.0780552016700478,1.2546242850578124
1503523906784,+0.361,+0.370,-0.457,-0.724,+0.970,-0.222,-0.277,-13.625,-7.812,-11.812,-43, 4, 3, -1, -3, -6, -17, -63,-1.0750627987168175,1.2501345792232628
1503523906799,+0.362,+0.367,-0.458,-0.724,+0.953,-0.216,-0.250,-14.250,-11.375,-14.000,27, 15, 5, -2, 0, 3, -8, 7,-1.0721187682398794,1.247628624882081
1503523906831,+0.364,+0.364,-0.458,-0.725,+0.940,-0.188,-0.268,-9.625,-9.875,-14.188,6, 29, -13, -2, -2, 1, -2, 11,-1.071219240602786,1.243454672346832
1503523906844,+0.365,+0.361,-0.458,-0.726,+0.945,-0.179,-0.265,-9.562,-8.375,-10.500,-16, -29, -9, -3, -3, -5, -5, 2,-1.0683571290668505,1.239081742521403
1503523906859,+0.365,+0.359,-0.459,-0.726,+0.945,-0.184,-0.262,-10.500,-2.188,-8.312,39, 8, 6, 3, 2, 4, -4, 33,-1.0652418924578093,1.2380724128582095
1503523906881,+0.366,+0.357,-0.461,-0.726,+0.944,-0.160,-0.254,-10.125,-2.562,-9.688,-6, -18, -3, -2, -2, 1, -4, 4,-1.064509175324603,1.2395722133168041
1503523906904,+0.366,+0.354,-0.461,-0.726,+0.957,-0.165,-0.251,-11.000,-6.562,-10.625,-28, -18, -4, -1, 3, 0, -3, 12,-1.0593529171535494,1.2347443395906514
1503523906919,+0.367,+0.352,-0.462,-0.727,+0.967,-0.165,-0.261,-10.500,-8.188,-11.125,-1, -4, 2, 2, 1, 1, 7, -5,-1.0586705891519252,1.2343481417482622
1503523906942,+0.368,+0.349,-0.463,-0.727,+0.964,-0.156,-0.272,-10.938,-6.688,-8.438,15, -11, 0, -1, 0, -3, -1, -6,-1.055943813195806,1.2320761346815123
1503523906964,+0.368,+0.347,-0.463,-0.728,+0.956,-0.150,-0.279,-11.562,-6.125,-7.125,-4, 12, 2, 0, -6, -1, -1, 6,-1.052930443844785,1.2292305013273257
1503523906980,+0.369,+0.344,-0.463,-0.729,+0.962,-0.141,-0.273,-10.375,-11.812,-8.375,0, 1, -5, -2, 1, -1, 7, -6,-1.050286116651883,1.2250724179930386
1503523907005,+0.370,+0.341,-0.463,-0.730,+0.937,-0.150,-0.289,-10.375,-14.625,-9.375,5, -16, -6, 0, -1, -4, -16, -1,-1.0476832795062005,1.220951516224297
1503523907024,+0.371,+0.338,-0.462,-0.731,+0.934,-0.150,-0.277,-10.562,-13.312,-9.125,13, -11, -4, 0, 2, 4, 3, 3,-1.0447785130448535,1.2145989022937587
1503523907040,+0.372,+0.336,-0.462,-0.732,+0.940,-0.145,-0.301,-10.375,-9.062,-6.625,0, 21, 12, -4, -5, 2, 4, 4,-1.0439024108994925,1.2120843354718596
1503523907072,+0.372,+0.333,-0.462,-0.733,+0.959,-0.136,-0.290,-11.000,-9.375,-4.938,6, -2, 2, 3, 1, 0, 4, 2,-1.0393654505279457,1.2078219301776902
1503523907084,+0.372,+0.331,-0.462,-0.734,+0.979,-0.137,-0.282,-10.000,-10.750,-4.438,-40, -37, -27, -1, 1, 0, -1, -4,-1.0364872523254043,1.2051114472794853
1503523907106,+0.372,+0.329,-0.462,-0.735,+0.966,-0.118,-0.315,-9.688,-11.312,-4.000,-25, 9, 20, 0, -3, -3, -3, -2,-1.03362527425322,1.2024183518912857
1503523907123,+0.373,+0.326,-0.461,-0.736,+0.950,-0.123,-0.322,-8.438,-14.625,-2.875,-3, -25, -28, -3, 2, -8, -2, -5,-1.0308848159745487,1.1962042914402076
1503523907144,+0.373,+0.324,-0.460,-0.738,+0.936,-0.126,-0.310,-9.500,-16.250,-1.750,12, -2, 0, -2, 2, -5, -3, 2,-1.0281156938564815,1.1916180318604235
1503523907159,+0.373,+0.322,-0.459,-0.739,+0.919,-0.124,-0.313,-10.125,-11.625,+0.812,18, 15, 19, -4, -4, -3, 0, 0,-1.0249766866870758,1.1867061198798814
1503523907182,+0.372,+0.320,-0.459,-0.740,+0.947,-0.125,-0.308,-10.188,-5.625,+3.000,9, -11, -8, 8, 3, 0, -2, -3,-1.020129467419985,1.1838435368871394
1503523907206,+0.371,+0.319,-0.459,-0.742,+0.969,-0.119,-0.316,-9.438,-8.938,+3.375,13, 6, 7, -4, -5, 1, -1, 1,-1.017271365741834,1.1828227254138381
1503523907220,+0.371,+0.317,-0.457,-0.743,+0.961,-0.115,-0.339,-9.062,-14.125,+2.000,-51, -15, 3, -3, -7, -5, -3, 3,-1.0138338897243135,1.175670693815135
1503523907242,+0.371,+0.315,-0.456,-0.745,+0.931,-0.125,-0.338,-7.750,-17.312,+2.562,17, 0, -5, -3, 3, 1, 6, 1,-1.0111497380181953,1.1711717881452264
1503523907264,+0.371,+0.313,-0.454,-0.747,+0.898,-0.127,-0.343,-7.750,-12.812,+3.750,-7, 4, 0, 3, 3, 1, -16, -27,-1.0081496514859833,1.1644151012190374
1503523907281,+0.370,+0.312,-0.454,-0.748,+0.902,-0.125,-0.359,-7.562,-5.562,+5.938,-7, 13, 6, 0, 4, 0, -5, -5,-1.0049243253058264,1.1630742324304828
1503523907302,+0.368,+0.312,-0.453,-0.749,+0.955,-0.124,-0.356,-7.375,-1.938,+8.750,-9, 1, 4, 1, 0, 0, 3, 10,-1.0008496625989942,1.1606568275320077
1503523907324,+0.366,+0.311,-0.454,-0.750,+0.987,-0.106,-0.350,-7.188,-2.250,+10.250,-12, -9, 1, -1, 0, 4, 5, 7,-0.9959075107437232,1.1613541896156139
1503523907341,+0.365,+0.311,-0.452,-0.752,+0.971,-0.112,-0.364,-2.750,-7.438,+10.625,31, 5, -5, 0, 1, -3, -3, -5,-0.993963595395997,1.157267994066631
1503523907362,+0.364,+0.311,-0.451,-0.753,+0.937,-0.125,-0.372,-0.688,-10.562,+11.438,3, 9, -2, 0, 0, 6, 27, 10,-0.9919589775675072,1.1551005187846737
1503523907384,+0.363,+0.311,-0.449,-0.755,+0.886,-0.126,-0.374,+0.062,-7.062,+14.125,34, 21, 0, 0, -3, -7, -14, 3,-0.9900116736884423,1.1510228686759563
1503523907400,+0.361,+0.313,-0.448,-0.756,+0.889,-0.142,-0.358,+0.375,+2.438,+16.062,-5, -7, 1, 0, -4, -6, -4, -6,-0.9890477082555931,1.151500430536452
1503523907422,+0.358,+0.315,-0.448,-0.756,+0.954,-0.152,-0.358,+1.812,+6.062,+19.125,-98, -26, 5, -3, -1, -2, -2, -2,-0.9859966983780114,1.1536397670104226
1503523907444,+0.356,+0.316,-0.447,-0.757,+0.967,-0.151,-0.346,+2.312,-0.438,+18.000,13, -1, -6, -4, -2, -2, -1, 2,-0.9835042154809908,1.1526718075756515
1503523907460,+0.355,+0.317,-0.445,-0.759,+0.948,-0.154,-0.356,+3.625,-8.562,+16.750,2, -3, -1, 1, 2, -1, -2, -5,-0.9831097195078303,1.1500580858193594
1503523907482,+0.353,+0.318,-0.443,-0.760,+0.910,-0.155,-0.364,+4.312,-9.938,+15.375,48, 1, -2, 0, 0, -3, -4, -29,-0.9802638806042296,1.1468191242244117
1503523907504,+0.352,+0.320,-0.440,-0.762,+0.889,-0.185,-0.345,+3.312,-9.188,+16.875,14, 4, 0, -2, -4, 1, -7, 9,-0.9810805315309347,1.143428979890533
1503523907520,+0.349,+0.321,-0.439,-0.763,+0.875,-0.193,-0.345,+1.000,-1.750,+18.125,21, 6, 1, 0, 1, -3, 1, 18,-0.9765509081683572,1.1422005086350113
1503523907542,+0.347,+0.323,-0.439,-0.764,+0.855,-0.200,-0.337,-0.688,+3.062,+15.500,8, -12, 0, 0, 0, -2, -2, -4,-0.9760324575421895,1.145000061789477
1503523907564,+0.345,+0.323,-0.439,-0.764,+0.865,-0.206,-0.338,-2.812,+4.250,+11.250,8, -26, -20, -3, -8, -3, -6, -10,-0.9719521956006529,1.1444563600244098
1503523907581,+0.343,+0.323,-0.439,-0.765,+0.854,-0.234,-0.322,-7.125,+2.688,+3.750,-47, 5, -3, -2, -1, 1, -4, 9,-0.9682738178129431,1.144281863969445
1503523907602,+0.342,+0.322,-0.440,-0.765,+0.825,-0.231,-0.317,-12.750,+3.125,-4.375,21, -5, -2, -4, -5, -3, -3, -14,-0.9650214254199946,1.1448004611181257
1503523907624,+0.342,+0.320,-0.443,-0.765,+0.807,-0.227,-0.306,-17.562,+7.375,-13.312,39, 10, 0, 0, 2, 1, 6, 44,-0.9629661496898357,1.1486841302396242
1503523907642,+0.342,+0.317,-0.446,-0.764,+0.846,-0.198,-0.315,-19.625,+11.562,-19.750,-15, 0, -1, -2, -1, 0, -6, -66,-0.9589412152038742,1.1507715127842943
1503523907662,+0.343,+0.313,-0.451,-0.762,+0.904,-0.115,-0.315,-18.000,+17.938,-22.125,5, 19, 3, 3, 1, 1, 5, 12,-0.9557291070510244,1.1559537280588676
1503523907684,+0.344,+0.310,-0.456,-0.760,+0.979,-0.109,-0.333,-15.375,+18.062,-21.438,-41, -13, -4, -1, 0, -1, 4, 56,-0.9540906243301308,1.1626739515719666
1503523907700,+0.344,+0.309,-0.460,-0.758,+1.080,-0.139,-0.414,-9.625,+16.812,-13.938,-7, -12, 0, -4, -2, -1, -5, -39,-0.953176470574822,1.169755898437584
1503523907722,+0.346,+0.307,-0.460,-0.758,+1.079,-0.100,-0.425,-1.750,-3.875,-12.438,9, -13, -3, 2, 0, 0, -3, -22,-0.9541182617537424,1.1674042339511599
1503523907744,+0.348,+0.305,-0.458,-0.759,+1.003,-0.164,-0.403,+0.188,-22.750,-8.125,-11, -1, 12, 2, 1, 1, 4, 9,-0.9547790849700396,1.160811387077159
1503523907760,+0.350,+0.303,-0.454,-0.761,+0.915,-0.181,-0.393,+1.812,-24.938,-2.375,8, -4, -3, -1, 0, 0, -10, -2,-0.9551811464811165,1.1500066298575211
1503523907782,+0.349,+0.303,-0.453,-0.762,+0.854,-0.158,-0.348,-0.812,-4.438,+5.688,4, -5, -1, 0, 0, -2, 0, -8,-0.9531923752177657,1.1478277908953451
1503523907804,+0.347,+0.304,-0.454,-0.762,+0.875,-0.125,-0.333,-4.438,+8.188,+9.875,26, 4, 0, 1, 0, -1, 1, 1,-0.9509994746990804,1.151038148982271
1503523907820,+0.344,+0.305,-0.456,-0.762,+0.899,-0.122,-0.298,-5.250,+15.062,+9.938,-10, 17, 12, 1, 0, 0, -2, -17,-0.9471521725857582,1.1563144165988126
1503523907844,+0.343,+0.306,-0.459,-0.761,+1.006,-0.128,-0.294,-3.625,+14.000,+5.875,-47, -10, -10, -4, -2, -4, -4, -8,-0.9473450945004164,1.1640435703013974
1503523907864,+0.343,+0.305,-0.459,-0.761,+1.012,-0.124,-0.335,-3.750,-7.812,-0.562,-27, -39, -7, 0, 0, -1, -3, -10,-0.9458000127519194,1.1626344819638534
1503523907881,+0.344,+0.302,-0.456,-0.763,+0.917,-0.123,-0.354,-3.062,-23.000,-4.812,26, 19, -1, -1, -2, -1, 1, 15,-0.9429533975384167,1.1524742516075495
1503523907902,+0.345,+0.300,-0.454,-0.764,+0.843,-0.153,-0.361,-3.125,-18.500,-3.562,-10, -2, -1, 0, 0, 1, -3, 19,-0.9416305445462304,1.1456849032582284
1503523907924,+0.345,+0.300,-0.453,-0.765,+0.889,-0.155,-0.375,-3.250,-2.750,+0.438,-3, 14, 2, 0, -2, 0, 0, 26,-0.9416840963678229,1.143754402237806
1503523907940,+0.345,+0.300,-0.454,-0.765,+0.962,-0.145,-0.392,-2.312,+0.688,+2.562,18, -16, -5, 1, 1, 2, 3, 4,-0.9420409072018967,1.146063340403135
1503523907962,+0.345,+0.299,-0.453,-0.766,+1.002,-0.134,-0.398,+0.750,-6.000,+3.625,56, 7, 4, 1, 0, -1, -5, 0,-0.9405767513651954,1.1427429233935036
1503523907984,+0.345,+0.299,-0.451,-0.767,+0.957,-0.119,-0.401,+6.500,-13.062,+4.312,-90, -22, -1, -3, -1, -2, -9, -23,-0.9402752726041157,1.1385097184282944
1503523908000,+0.346,+0.300,-0.448,-0.768,+0.925,-0.123,-0.394,+9.062,-14.375,+8.125,-7, 1, -14, 0, 0, -1, 0, 1,-0.9431749916508887,1.133632446658342
1503523908022,+0.346,+0.302,-0.446,-0.769,+0.913,-0.124,-0.417,+13.188,-3.000,+13.562,-1, -2, 17, 5, 3, 4, 5, 3,-0.9459053533997005,1.1322210325702742
1503523908046,+0.344,+0.305,-0.444,-0.769,+0.964,-0.136,-0.400,+15.688,+0.500,+18.000,-37, 9, -2, -3, -1, -1, -1, -12,-0.9456697757539033,1.1313406103999681
1503523908060,+0.343,+0.308,-0.442,-0.769,+0.980,-0.154,-0.396,+15.750,-3.875,+20.688,-9, -28, -13, -2, 1, -2, 0, 0,-0.9475034840098872,1.13076049661521
1503523908083,+0.342,+0.312,-0.439,-0.770,+0.937,-0.139,-0.379,+18.938,-9.125,+22.438,-6, 5, 2, 2, -2, -1, 2, 13,-0.9509477280372794,1.1297607737545372
1503523908104,+0.341,+0.315,-0.435,-0.771,+0.933,-0.169,-0.375,+22.500,-10.562,+24.000,-24, -13, -16, -4, 1, -1, -5, -11,-0.9524942464879157,1.1251024007816202
1503523908121,+0.341,+0.320,-0.431,-0.772,+0.943,-0.166,-0.391,+25.875,-11.188,+25.938,-16, -7, -5, 1, 0, -1, 3, 52,-0.9592367161882766,1.123736230230908
1503523913048,+0.299,+0.270,-0.637,-0.658,+1.087,+0.070,-0.025,+4.562,+4.938,-6.062,28, 5, -3, 6, 1, 6, -8, -6,-0.8292992107524433,1.5281496172688052
1503523913070,+0.300,+0.270,-0.635,-0.659,+1.058,+0.023,+0.011,+5.625,-13.250,-4.125,32, -28, -8, -7, 3, -4, 0, 2,-0.8307475806972615,1.5230315374734007
1503523913085,+0.302,+0.269,-0.634,-0.659,+0.973,+0.039,-0.028,+5.375,-10.500,-8.438,-9, -62, -5, -4, -6, 12, 12, -6,-0.8322887622283304,1.5193772907306375
1503523913108,+0.304,+0.268,-0.634,-0.658,+0.963,+0.059,-0.012,+8.938,+1.375,-11.000,25, -23, -4, 0, 6, -8, 0, 7,-0.8337999029663369,1.5182621049448708
1503523913129,+0.307,+0.268,-0.636,-0.655,+1.093,+0.029,+0.020,+11.250,+9.750,-16.938,46, 16, -11, -4, 10, 3, 9, 2,-0.8386548181612372,1.5233633236724482
1503523913145,+0.309,+0.269,-0.637,-0.653,+1.032,+0.033,-0.012,+13.875,+9.938,-12.500,-83, 21, 10, 8, -6, -2, -7, -2,-0.8434255267493258,1.5270038886519792
1503523913167,+0.310,+0.270,-0.638,-0.651,+1.070,+0.041,+0.007,+9.250,+16.938,-6.562,-48, 18, 3, -5, -9, -3, 37, 3,-0.8464084850642108,1.530628619278061
1503523913189,+0.310,+0.271,-0.641,-0.648,+1.112,+0.035,+0.042,+4.562,+20.688,-6.062,64, 5, 1, 4, 9, -10, -24, -3,-0.8479107487906343,1.539411580090424
1503523913205,+0.309,+0.273,-0.644,-0.644,+1.060,+0.041,+0.117,+4.562,+25.500,-4.938,-26, 30, 3, 0, -7, -3, 9, -1,-0.8489025099226986,1.5492906254786718
1503523913227,+0.309,+0.274,-0.647,-0.641,+1.119,+0.033,+0.121,+1.375,+17.438,-7.312,-32, -14, 1, -1, -11, 2, -3, -19,-0.8504377565019814,1.558151649291512
1503523913249,+0.308,+0.274,-0.648,-0.640,+1.130,+0.024,+0.115,+0.312,+1.938,-4.688,-37, -14, -4, -5, -3, 19, -15, -11,-0.8486173036724334,1.5607388031631988
1503523913265,+0.309,+0.272,-0.648,-0.641,+1.019,+0.076,+0.047,-5.000,-10.250,-6.375,27, 16, 1, -2, -2, -14, -6, -46,-0.8474442329290202,1.5585586434125236
1503523913287,+0.309,+0.270,-0.648,-0.641,+0.949,+0.073,+0.028,-6.688,-3.188,-7.562,-1, -32, 0, 2, 8, 8, 6, 26,-0.8440975821222242,1.556370645798003
1503523913312,+0.311,+0.267,-0.648,-0.642,+0.951,-0.040,+0.093,-7.562,-17.312,-23.312,55, 32, 2, -1, -1, -7, 0, 20,-0.8430747891514974,1.5531507342195863
1503523913325,+0.312,+0.262,-0.648,-0.643,+0.871,+0.126,-0.020,-14.438,-12.062,-17.500,24, 3, -7, -8, -8, -1, -6, 9,-0.8369988151169129,1.5478232098352762
1503523913348,+0.313,+0.258,-0.648,-0.645,+1.042,+0.151,-0.031,-12.500,-11.062,-7.812,-6, -8, -11, -2, -2, -9, -14, -16,-0.8330558509747162,1.543669194767457
1503523913369,+0.312,+0.256,-0.647,-0.647,+1.049,+0.090,+0.047,-11.875,-19.188,-0.625,-46, -28, -1, 2, -4, -3, -5, 2,-0.8284814928998817,1.5390004175999827
1503523913385,+0.313,+0.253,-0.642,-0.652,+1.007,+0.110,+0.073,-4.438,-46.875,+5.438,15, 13, 1, 5, 18, 8, 21, 2,-0.8258006220623169,1.522965634981912
1503523913407,+0.316,+0.248,-0.638,-0.657,+0.848,+0.147,+0.012,-8.688,-50.375,-6.750,21, 3, 4, 3, -5, 15, 29, -2,-0.8239835827422918,1.5076645535999416
1503523913428,+0.316,+0.246,-0.637,-0.659,+0.753,+0.181,-0.005,-7.500,-17.625,+2.875,-68, 10, 4, 1, -8, -17, -13, 10,-0.8213164789543871,1.503133519289012
1503523913447,+0.314,+0.246,-0.638,-0.659,+1.043,+0.116,+0.038,-8.938,+3.812,+9.500,-62, 2, 2, 4, -6, 6, 11, 0,-0.8180018717457628,1.5057067427920532
1503523913467,+0.312,+0.245,-0.638,-0.660,+1.138,+0.091,+0.051,-10.188,-9.875,+11.188,28, -43, -15, -18, 10, 27, -31, -7,-0.8131964830470402,1.5047024329379715
1503523913490,+0.311,+0.242,-0.635,-0.664,+0.972,+0.088,+0.008,-12.562,-29.312,+0.688,-43, 5, 6, 19, 4, 3, 13, -3,-0.807325760873834,1.494048904829756
1503523913505,+0.311,+0.239,-0.634,-0.667,+0.829,+0.116,-0.071,-13.938,-19.188,-0.500,28, -3, -7, -14, 16, 9, -21, 10,-0.803556171233005,1.48867566798755
1503523913527,+0.310,+0.237,-0.635,-0.667,+0.930,+0.101,-0.027,-15.250,-1.500,-2.062,-50, -1, -2, -10, -43, 2, -5, -4,-0.798920820060332,1.489277632570595
1503523913550,+0.309,+0.234,-0.636,-0.668,+1.009,+0.113,-0.046,-14.750,+0.688,-3.875,-57, -19, -7, 52, 63, 23, -4, 5,-0.7931611390304864,1.4890165973192768
1503523913565,+0.309,+0.231,-0.635,-0.669,+1.038,+0.127,-0.078,-13.812,-11.000,-3.562,91, 11, 15, -19, -15, -17, -6, -4,-0.7885887782624771,1.483524563932009
1503523913587,+0.309,+0.228,-0.633,-0.672,+1.002,+0.106,-0.083,-11.625,-18.625,-3.000,8, -7, 6, -28, -17, 11, -3, 0,-0.7845990231757737,1.4756341901552628
1503523913609,+0.308,+0.226,-0.632,-0.674,+1.003,+0.094,-0.109,-10.250,-13.812,+0.938,-57, -1, -10, 11, 6, -8, 1, 7,-0.7802369848398479,1.4712427532401848
1503523913625,+0.307,+0.225,-0.631,-0.676,+1.020,+0.094,-0.075,-9.125,-15.562,+1.625,31, 17, 1, -4, 8, 7, 5, 7,-0.7774239684625331,1.4678308473314674
1503523913647,+0.308,+0.223,-0.629,-0.679,+1.021,+0.101,-0.107,-6.250,-17.000,+0.125,-37, 5, 4, 4, 19, -14, 13, 3,-0.7768740383415927,1.4610479738682132
1503523913669,+0.307,+0.221,-0.627,-0.681,+1.008,+0.079,-0.091,-5.250,-15.812,+0.188,-43, -15, 5, 30, -38, -8, -13, -2,-0.772232961393738,1.4540578814452514
1503523913686,+0.308,+0.220,-0.626,-0.682,+0.992,+0.070,-0.100,-3.438,-10.688,-1.125,57, -13, -6, -18, -5, -9, -8, -2,-0.7726808257805268,1.450648154884652
1503523913707,+0.307,+0.219,-0.625,-0.684,+1.008,+0.062,-0.081,-3.375,-9.688,-1.625,-12, -9, -23, 1, 41, 2, -2, -24,-0.7698924829080936,1.4472924799353275
1503523913730,+0.308,+0.218,-0.624,-0.685,+0.998,+0.088,-0.106,-2.875,-9.125,-0.250,-76, 3, 13, -6, -13, -1, 4, 4,-0.7703558138712432,1.4438999000461696
1503523913759,+0.307,+0.218,-0.623,-0.686,+1.010,+0.080,-0.091,-2.625,-9.375,+0.625,67, 18, -14, -2, 28, 18, 20, 0,-0.7686380535674435,1.4413472917641916
1503523913767,+0.307,+0.217,-0.622,-0.687,+1.034,+0.074,-0.078,-2.625,-9.938,+1.562,10, -50, -5, -3, -17, -9, -5, 1,-0.7672622048574427,1.437908103952377
1503523913790,+0.307,+0.217,-0.620,-0.688,+0.974,+0.066,-0.094,-0.625,-9.938,+0.875,11, -3, -14, -6, -29, -7, -11, -8,-0.7670787050566475,1.4327626189893108
1503523913805,+0.308,+0.215,-0.619,-0.690,+0.976,+0.089,-0.088,-1.688,-13.125,-3.125,75, 39, -8, -8, -2, 6, -4, 5,-0.7665136835305018,1.4286245784187748
1503523913827,+0.308,+0.214,-0.618,-0.691,+0.958,+0.097,-0.109,-1.688,-11.312,-1.062,-6, -17, -10, 2, 25, 2, -13, 5,-0.7651573233502568,1.4252063402115036
1503523913852,+0.308,+0.213,-0.617,-0.692,+0.990,+0.093,-0.086,-3.312,-9.375,+0.125,-47, -7, 13, -4, -31, -17, 18, 2,-0.7638063444918742,1.4217936045384123
1503523913865,+0.308,+0.213,-0.616,-0.693,+1.025,+0.086,-0.100,-2.375,-8.000,+1.625,11, 20, 13, 4, 49, 9, 19, -12,-0.7639440559824098,1.4193234512094115
1503523913888,+0.308,+0.212,-0.616,-0.694,+1.014,+0.101,-0.083,-3.938,-9.125,-0.562,-53, 43, 9, -1, -46, 4, -5, -1,-0.7629077188624176,1.4185739838561762
1503523913910,+0.308,+0.210,-0.615,-0.695,+0.975,+0.102,-0.109,-2.125,-9.750,-2.062,46, -23, 1, -4, 9, -34, -16, 0,-0.760091389364304,1.4142455819194168
1503523913932,+0.309,+0.209,-0.614,-0.696,+0.969,+0.108,-0.124,-1.938,-11.062,-2.312,9, 23, 1, -2, -12, 1, -11, -3,-0.7606271643140917,1.4109223183405264
1503523913953,+0.309,+0.208,-0.613,-0.697,+0.970,+0.099,-0.110,-2.438,-6.625,-1.062,-112, -20, -3, -3, 50, 5, 10, -3,-0.759303867807818,1.4075389632745976
1503523913969,+0.309,+0.207,-0.613,-0.697,+0.975,+0.104,-0.097,-2.875,-5.500,-1.375,-19, -8, 3, 2, -24, -8, -20, -47,-0.7578372185997491,1.4066157128776262
1503523913985,+0.310,+0.206,-0.612,-0.698,+0.994,+0.120,-0.116,-1.688,-10.062,-3.688,76, -46, -14, -3, -12, 26, -6, 12,-0.758395823546373,1.4033091101953343
1503523914007,+0.310,+0.205,-0.611,-0.699,+0.954,+0.114,-0.158,+0.375,-11.375,-2.438,17, 4, 9, 7, 55, 28, 24, 21,-0.757088829155855,1.3999402428076695
1503523914029,+0.311,+0.204,-0.609,-0.700,+0.989,+0.108,-0.110,-0.125,-10.812,-0.438,-3, -48, -3, 1, 3, -28, 40, 5,-0.7573682296168717,1.3939910773292934
1503523914045,+0.311,+0.203,-0.608,-0.701,+1.005,+0.104,-0.110,+0.250,-10.188,+0.375,-42, -28, -1, -11, -67, 4, 0, -1,-0.75607486749062,1.3906344295192963
1503523914067,+0.312,+0.203,-0.607,-0.702,+0.995,+0.112,-0.141,+0.562,-11.625,+0.375,-7, 39, 6, -2, -7, 46, 10, 29,-0.7581174267392514,1.3882720377532907
1503523914089,+0.312,+0.202,-0.605,-0.704,+0.972,+0.119,-0.155,+2.625,-11.250,+1.438,9, 24, 3, 3, -25, -66, -11, 1,-0.7569935329329368,1.3824982274028506
1503523914105,+0.312,+0.202,-0.604,-0.704,+0.972,+0.092,-0.135,+1.688,-8.625,+0.562,-3, -11, -3, -7, 4, 27, -19, -4,-0.7566984830271837,1.3798449626761937
1503523914127,+0.313,+0.202,-0.604,-0.705,+0.967,+0.082,-0.131,+1.875,-5.438,-0.438,-25, -9, -8, -8, -4, -7, -21, -4,-0.7590454076797467,1.3801520947047416
1503523914150,+0.313,+0.201,-0.603,-0.705,+0.989,+0.094,-0.129,-1.188,-6.375,-1.625,28, 23, 3, 11, 81, -16, -24, 1,-0.7573144952889708,1.376585924126339
1503523914166,+0.313,+0.201,-0.602,-0.706,+0.975,+0.096,-0.147,-1.500,-7.250,+0.188,55, 52, 4, 2, -35, 13, 4, 8,-0.7574780176016466,1.374169445690822
1503523914187,+0.313,+0.200,-0.602,-0.707,+0.985,+0.104,-0.141,-3.062,-8.062,+2.625,50, -12, -1, -6, -4, -25, 23, -5,-0.7565027490747729,1.373492941338708
1503523914209,+0.312,+0.200,-0.601,-0.708,+0.985,+0.103,-0.148,-3.000,-8.062,+3.688,-50, 17, -6, -6, -22, 29, -19, -12,-0.7547719502752797,1.3710027466915238
1503523914226,+0.312,+0.199,-0.600,-0.709,+1.023,+0.097,-0.118,-3.500,-10.938,+1.875,17, -4, 4, 2, -23, -10, -14, 2,-0.753508764002471,1.3676845485428601
1503523914251,+0.312,+0.198,-0.599,-0.711,+1.000,+0.120,-0.151,-3.000,-12.688,+2.000,-29, -6, 1, 1, -8, 8, 14, -3,-0.7527084944832654,1.364618634600341
1503523914269,+0.312,+0.197,-0.597,-0.712,+0.977,+0.116,-0.174,-2.188,-13.750,+2.875,-3, 32, 5, -7, 7, -6, -3, -9,-0.7511676507103002,1.358669557122699
1503523914285,+0.311,+0.196,-0.596,-0.714,+0.982,+0.115,-0.183,-1.188,-12.250,+4.625,8, 7, -9, -23, -56, -19, -29, -17,-0.7484790630179635,1.3555443124281314
1503523914307,+0.311,+0.196,-0.594,-0.715,+0.989,+0.100,-0.160,-0.625,-9.000,+5.562,-39, -32, -3, -4, 17, -36, -10, 14,-0.7483598606191217,1.3505146513335624
1503523914329,+0.310,+0.196,-0.593,-0.716,+1.035,+0.108,-0.159,-1.125,-8.875,+8.062,35, 12, 6, 11, -1, 11, -8, 9,-0.7466268021020208,1.3480474140566017
1503523914345,+0.310,+0.196,-0.592,-0.718,+1.025,+0.116,-0.163,+0.125,-13.938,+6.438,17, -32, -18, 3, 1, 3, 3, -10,-0.7472514273536499,1.3459358222341917
1503523914367,+0.310,+0.195,-0.590,-0.720,+0.987,+0.115,-0.171,-0.062,-17.562,+7.062,29, -15, -6, 3, 3, -22, 4, -7,-0.7461851837659901,1.3402944185418557
1503523914390,+0.310,+0.195,-0.587,-0.722,+0.980,+0.125,-0.193,+1.375,-19.312,+8.875,29, 13, 5, 5, 9, 24, 13, 21,-0.7462367591619526,1.3329434962242013
1503523914405,+0.309,+0.195,-0.585,-0.724,+0.961,+0.109,-0.190,+2.188,-16.188,+11.438,52, -14, 5, 4, 10, -10, 0, 9,-0.7446658968287088,1.3281510722500272
1503523914428,+0.308,+0.196,-0.583,-0.726,+0.985,+0.083,-0.184,+1.312,-10.875,+13.375,-26, -25, -6, -2, -6, 1, -15, 1,-0.7444840741743285,1.3242837666442615
1503523914451,+0.306,+0.197,-0.581,-0.728,+1.004,+0.080,-0.187,+0.500,-11.250,+15.750,27, -14, -1, 2, 4, 1, -10, -7,-0.7423899946065367,1.3203378801413483
1503523914465,+0.305,+0.198,-0.579,-0.730,+1.027,+0.098,-0.184,+0.875,-20.375,+18.062,-13, 0, 7, 6, 13, 12, 17, 4,-0.7421962996946379,1.3165069955276278
1503523914488,+0.303,+0.198,-0.575,-0.734,+0.987,+0.076,-0.217,+1.312,-24.875,+20.312,-60, -9, -3, -3, 5, 20, 0, 2,-0.7390145673993093,1.3070475233392111
1503523914510,+0.302,+0.199,-0.571,-0.737,+0.956,+0.072,-0.237,+2.750,-23.438,+22.125,-30, 11, 13, -5, 2, -4, -3, -11,-0.7386614632430671,1.298368093728879
1503523914525,+0.300,+0.201,-0.567,-0.740,+0.970,+0.051,-0.230,+3.438,-21.562,+24.062,-2, 23, 8, -3, 3, 10, -4, 19,-0.7377675196912712,1.2905683985822327
1503523914547,+0.297,+0.203,-0.564,-0.743,+0.969,+0.036,-0.235,+3.938,-17.500,+25.000,-9, -12, 3, 9, 5, 2, 4, 14,-0.7352535527944458,1.2852984131074
1503523914569,+0.295,+0.205,-0.560,-0.746,+0.982,+0.029,-0.239,+5.250,-19.312,+24.750,-10, -6, -9, -2, 5, 11, 7, -12,-0.7343247692115858,1.2776052720757463
1503523914585,+0.294,+0.207,-0.557,-0.749,+0.967,+0.012,-0.244,+5.062,-22.875,+23.375,-34, 13, 5, -4, -1, -5, -10, 10,-0.7355824269709449,1.2726616852951287
1503523914607,+0.292,+0.209,-0.553,-0.752,+0.938,+0.009,-0.263,+6.562,-18.688,+21.812,8, 5, -2, -2, 2, 18, 11, 21,-0.7346160514970664,1.2650794408689479
1503523914629,+0.290,+0.210,-0.550,-0.754,+0.955,+0.006,-0.263,+5.125,-16.562,+20.125,3, -33, -7, -4, 3, -2, -2, -59,-0.7321311317737366,1.2587910657031778
1503523914653,+0.289,+0.212,-0.547,-0.757,+0.960,+0.016,-0.276,+7.062,-15.000,+19.500,-8, 10, -2, -3, -4, 7, 9, 13,-0.7333434918952736,1.2539803421283828
1503523914667,+0.288,+0.214,-0.544,-0.759,+0.980,-0.002,-0.278,+8.062,-16.062,+19.188,-53, -34, -4, -2, 2, -4, -3, -20,-0.7341142131408048,1.2488712933716457
1503523914690,+0.287,+0.216,-0.541,-0.761,+0.971,+0.007,-0.272,+10.062,-16.000,+19.250,62, 15, 5, 1, -5, -6, -4, 10,-0.7348746735777779,1.2438009701920736
1503523914714,+0.286,+0.218,-0.537,-0.763,+0.981,+0.021,-0.306,+13.812,-13.625,+20.250,9, 29, 5, 6, 5, 1, 0, 19,-0.7353015801262074,1.2362378690941456
1503523914729,+0.286,+0.221,-0.534,-0.764,+0.990,+0.013,-0.292,+15.750,-15.812,+21.312,3, 11, 1, 3, 1, 3, -12, -4,-0.7389011948708838,1.2320634432739732
1503523914753,+0.285,+0.224,-0.530,-0.766,+0.973,+0.016,-0.311,+18.500,-14.625,+23.562,-13, 7, 5, 5, 10, 4, 12, 3,-0.7406891692472484,1.2256387616629079
1503523914772,+0.285,+0.228,-0.527,-0.768,+0.985,+0.009,-0.323,+21.625,-13.562,+26.875,36, -13, -9, -8, -24, -37, 2, 10,-0.746095745576606,1.2230012080890802
1503523914797,+0.284,+0.233,-0.523,-0.769,+0.995,-0.018,-0.306,+23.812,-12.562,+28.062,-6, -10, 7, -4, -5, -1, -14, -18,-0.7502507997725598,1.2185041706110475
1503523914810,+0.283,+0.238,-0.519,-0.770,+0.983,-0.048,-0.314,+27.500,-11.250,+28.625,-50, -8, -11, 0, 4, 9, -8, -7,-0.7544232132778681,1.214137513881691
1503523914832,+0.282,+0.244,-0.515,-0.771,+0.987,-0.071,-0.330,+30.125,-9.312,+30.125,22, -32, -14, -4, -4, 1, 6, 9,-0.7600379169487546,1.2110161807719138
1503523914849,+0.281,+0.250,-0.511,-0.772,+0.962,-0.079,-0.319,+31.438,-8.812,+31.000,8, 5, 3, 7, 2, -11, 1, -4,-0.7656956702805787,1.208068598973845
1503523914870,+0.281,+0.257,-0.508,-0.773,+0.963,-0.094,-0.305,+31.938,-9.188,+31.500,-4, -12, -2, -3, 5, 13, 1, 0,-0.7751233097350684,1.2091075149894093
1503523914892,+0.279,+0.263,-0.504,-0.774,+0.971,-0.114,-0.311,+31.750,-8.812,+32.250,19, -8, 7, -3, -4, -2, -6, 6,-0.7789947201410448,1.2063391444884182
1503523918251,+0.087,+0.260,-0.502,-0.820,+0.938,-0.369,-0.273,-20.812,-12.875,-2.188,-3, -5, -1, 0, 0, -3, 2, 2,-0.44357369302044375,1.1770763489864386
1503523918273,+0.086,+0.256,-0.500,-0.823,+0.912,-0.358,-0.273,-23.562,-21.312,-5.438,-5, -10, -2, -1, 1, -1, 1, -1,-0.43562606568984746,1.1684965050598308
1503523918289,+0.086,+0.251,-0.498,-0.826,+0.876,-0.337,-0.290,-26.000,-26.438,-9.062,3, -2, -4, -1, -2, -2, -1, 5,-0.4280924918343168,1.1591880756920248
1503523918312,+0.086,+0.246,-0.495,-0.829,+0.861,-0.319,-0.298,-29.438,-27.562,-11.688,-16, -7, -3, -2, -1, -3, -1, -3,-0.4202032810851643,1.147404750300977
1503523918333,+0.086,+0.241,-0.493,-0.832,+0.856,-0.327,-0.331,-31.375,-18.375,-8.375,-4, -2, 1, 1, -2, -2, -4, 0,-0.41291485179475174,1.1384035623811792
1503523918349,+0.083,+0.235,-0.493,-0.833,+0.883,-0.332,-0.316,-35.500,-8.188,-4.812,3, 4, -1, -2, -2, 0, 1, -1,-0.39972634892513004,1.1323036161143782
1503523918374,+0.081,+0.229,-0.493,-0.835,+0.946,-0.308,-0.301,-39.812,-11.875,-3.500,14, 4, 5, 0, 1, 0, -1, 0,-0.38855903436109,1.1270387059253315
1503523918393,+0.080,+0.222,-0.491,-0.839,+0.929,-0.292,-0.337,-42.188,-24.750,-7.875,-11, 0, 1, -1, -1, 0, 0, -1,-0.377389623976041,1.116913124454765
1503523918411,+0.079,+0.215,-0.488,-0.842,+0.859,-0.267,-0.373,-40.875,-30.562,-11.688,2, 2, -5, -2, -1, -1, 1, 0,-0.3658291421192569,1.1039930234999626
1503523918431,+0.079,+0.207,-0.484,-0.847,+0.805,-0.269,-0.396,-41.062,-34.938,-13.688,-21, -8, -3, 1, 0, -2, 0, 0,-0.3548953876499295,1.0890297762881591
1503523918453,+0.077,+0.200,-0.481,-0.850,+0.812,-0.250,-0.397,-43.375,-22.000,-11.688,7, 3, 0, 1, 0, 0, -2, -1,-0.3420114141870257,1.0764956128179066
1503523918469,+0.076,+0.192,-0.480,-0.853,+0.854,-0.228,-0.422,-41.688,-16.875,-12.875,-63, -17, -3, -2, -2, 1, -1, -4,-0.3306472424932061,1.0688255212534512
1503523918491,+0.076,+0.185,-0.478,-0.855,+0.854,-0.237,-0.440,-39.938,-15.875,-16.875,17, 3, 1, -2, -1, -3, -1, 1,-0.3219011993319089,1.059316343369445
1503523918513,+0.076,+0.177,-0.477,-0.858,+0.883,-0.208,-0.476,-35.312,-17.062,-17.438,11, 0, -2, 0, -2, 2, 3, -1,-0.3126603802809459,1.0523837235803106
1503523918530,+0.077,+0.171,-0.475,-0.860,+0.856,-0.203,-0.479,-31.500,-18.562,-17.312,-13, -2, 0, -1, -1, -2, -1, 1,-0.3071627771507163,1.0442066892784136
1503523918552,+0.078,+0.165,-0.472,-0.862,+0.788,-0.168,-0.502,-27.250,-16.125,-17.688,22, 4, -1, -1, 0, 7, -4, -1,-0.3014690856830316,1.0336229221287843
1503523918575,+0.079,+0.160,-0.469,-0.865,+0.820,-0.206,-0.541,-23.000,-20.375,-14.562,18, -1, 1, 0, -2, -2, -1, -5,-0.2971833813490754,1.0243452534909474
1503523918589,+0.080,+0.155,-0.469,-0.866,+0.811,-0.195,-0.492,-19.375,-6.438,-15.250,-1, -2, -1, -2, -2, -3, -1, -2,-0.2936094072404875,1.0218451901262233
1503523918612,+0.081,+0.151,-0.468,-0.867,+0.870,-0.165,-0.525,-17.500,-9.062,-14.688,22, 3, 3, -4, -1, -4, -2, 0,-0.2908789114387442,1.0174906431802642
1503523918633,+0.082,+0.148,-0.466,-0.868,+0.877,-0.166,-0.509,-11.688,-12.375,-15.562,-25, -3, 1, -3, 0, -3, 0, 2,-0.28898784259574,1.011248263953695
1503523918650,+0.084,+0.145,-0.465,-0.869,+0.828,-0.156,-0.487,-9.812,-10.125,-14.625,3, 3, 0, 2, 3, 0, -2, 1,-0.28921049817313915,1.0077449351873107
1503523918671,+0.086,+0.143,-0.465,-0.869,+0.821,-0.148,-0.473,-4.188,-1.125,-14.000,2, 2, -1, -3, -3, -3, 6, 0,-0.29064536458966156,1.0068841040905545
1503523918693,+0.087,+0.141,-0.467,-0.869,+0.825,-0.170,-0.473,-3.750,+7.750,-13.250,-7, 2, 2, 0, -2, -1, -10, 1,-0.29084512625313136,1.0109531535103096
1503523918715,+0.088,+0.140,-0.469,-0.867,+0.867,-0.158,-0.460,-4.875,+13.625,-10.688,-41, -1, -4, -3, -4, -3, 1, -4,-0.2917657750107998,1.0146043184273068
1503523918732,+0.089,+0.139,-0.472,-0.866,+0.869,-0.154,-0.452,-4.312,+15.250,-10.250,4, 0, -2, -2, -2, -6, -13, -16,-0.2931143996208401,1.021310287895754
1503523918754,+0.089,+0.138,-0.475,-0.865,+0.885,-0.167,-0.444,-4.562,+15.688,-9.125,9, 1, -2, 0, 0, 1, -9, 6,-0.29266754504634807,1.0278839262668278
1503523918769,+0.089,+0.137,-0.478,-0.863,+0.892,-0.157,-0.455,-5.438,+16.125,-7.312,17, -4, 1, -1, -3, -2, 5, -2,-0.29203819212734916,1.0339808384365439
1503523918791,+0.090,+0.135,-0.480,-0.862,+0.890,-0.155,-0.444,-6.438,+11.562,-8.438,1, 3, -1, 2, 1, 1, 7, 0,-0.29199418000174066,1.0376087914362437
1503523918815,+0.090,+0.134,-0.482,-0.861,+0.895,-0.150,-0.451,-6.938,+7.875,-7.750,-31, -10, -1, 1, 1, -2, -2, -2,-0.2912531424499891,1.0416733953433988
1503523918829,+0.090,+0.132,-0.483,-0.861,+0.894,-0.146,-0.443,-8.250,+5.062,-7.500,5, 7, -3, -3, -1, 2, 2, -9,-0.2893347111306049,1.0431227259864357
1503523918852,+0.090,+0.130,-0.484,-0.861,+0.908,-0.140,-0.425,-9.438,+2.812,-6.812,1, -8, -4, -4, -3, -3, 3, 3,-0.2874152248311185,1.0445873429287047
1503523918873,+0.091,+0.128,-0.485,-0.861,+0.895,-0.126,-0.447,-9.750,+0.938,-7.500,-55, -14, -2, 1, 0, 9, -24, -4,-0.28726425928533195,1.046196555630168
1503523918889,+0.091,+0.125,-0.484,-0.861,+0.854,-0.120,-0.458,-9.250,-6.625,-10.688,27, 1, 2, 1, 0, -12, -13, 12,-0.2837752355206462,1.0420344531626393
1503523918914,+0.092,+0.123,-0.484,-0.861,+0.979,-0.152,-0.411,-9.875,-5.250,-11.188,7, 3, -1, 1, 1, 1, 10, 2,-0.283391609459004,1.0411110328118764
1503523918933,+0.092,+0.121,-0.485,-0.861,+0.837,-0.125,-0.428,-11.250,+0.188,-7.812,5, -7, -4, -1, -3, 2, 3, 5,-0.28147862240833654,1.0426364608627676
1503523918952,+0.092,+0.119,-0.486,-0.861,+0.886,-0.106,-0.445,-10.938,+6.688,-6.875,-5, -1, -2, -2, -1, -4, -10, 4,-0.279564137824462,1.0441771913604045
1503523918971,+0.092,+0.117,-0.487,-0.860,+0.919,-0.099,-0.471,-8.750,+5.438,-5.125,-39, -2, -2, 1, 0, 2, 3, -1,-0.27746999521077165,1.0452416577812658
1503523918993,+0.092,+0.116,-0.488,-0.860,+0.914,-0.104,-0.472,-7.312,-0.375,-4.250,-33, -2, -4, -2, -1, 0, -2, 1,-0.2766236038628045,1.0473088214139343
1503523919012,+0.092,+0.115,-0.487,-0.861,+0.887,-0.108,-0.476,-4.812,-3.625,-3.250,33, 2, -8, -6, -6, 0, -1, 1,-0.2755077110037612,1.0447400091455121
1503523919032,+0.092,+0.114,-0.487,-0.861,+0.878,-0.090,-0.463,-3.500,-1.062,-0.812,19, -2, -1, -1, 3, 5, 11, -7,-0.2744397517812755,1.0442487251640191
1503523919054,+0.092,+0.113,-0.487,-0.861,+0.885,-0.100,-0.458,-1.000,+1.312,-0.438,18, 9, 4, 1, 3, 0, -6, 7,-0.273373258435412,1.0437609883296162
1503523919072,+0.092,+0.113,-0.488,-0.861,+0.903,-0.101,-0.455,+0.375,+2.938,+0.312,2, -6, -3, -2, -6, -19, -6, 25,-0.27359206431095495,1.046325718243698
1503523919092,+0.092,+0.113,-0.488,-0.861,+0.919,-0.106,-0.445,+0.062,-0.438,+1.188,19, 16, 8, 1, -3, 4, 1, 1,-0.27359206431095495,1.046325718243698
1503523919114,+0.092,+0.114,-0.488,-0.861,+0.909,-0.111,-0.435,-0.438,-3.062,+0.938,38, 6, 1, -1, 1, 8, -3, -12,-0.2746604662145768,1.046813381135634
1503523919129,+0.091,+0.114,-0.487,-0.861,+0.898,-0.106,-0.439,-0.062,-6.688,+1.625,-25, -10, -2, -1, 4, 6, -5, -8,-0.27267271341212945,1.0441334597630745
1503523919154,+0.091,+0.114,-0.486,-0.862,+0.889,-0.099,-0.446,+0.688,-7.938,+2.250,19, -4, 5, 0, -1, 0, 10, 0,-0.27262815284226405,1.0420625786595668
1503523919173,+0.091,+0.114,-0.485,-0.862,+0.876,-0.111,-0.451,+1.812,-5.250,+2.938,17, -4, -6, -2, -5, -1, 4, 7,-0.2724072710207428,1.039500466352699
1503523919189,+0.091,+0.115,-0.485,-0.862,+0.910,-0.110,-0.451,+2.250,-5.188,+3.938,-6, -5, -2, -1, -1, 0, 6, 6,-0.2734711941858341,1.0399905708702613
1503523919212,+0.090,+0.115,-0.484,-0.863,+0.905,-0.113,-0.448,+2.500,-7.062,+3.938,5, -11, -6, -3, -8, -20, 7, -8,-0.27165407217940357,1.0378068938091558
1503523919233,+0.090,+0.116,-0.482,-0.864,+0.906,-0.102,-0.473,+3.312,-14.750,+3.812,-22, -2, -3, 1, 2, 13, 3, 17,-0.2724420511303179,1.0336780467987159
1503523919252,+0.090,+0.116,-0.479,-0.865,+0.891,-0.109,-0.477,+4.875,-17.438,+4.625,0, 3, 2, -2, 0, 6, 20, 44,-0.27194177816127646,1.026511806449669
1503523919271,+0.091,+0.117,-0.476,-0.867,+0.869,-0.103,-0.500,+6.500,-16.000,+5.625,-19, 7, 3, 1, -3, -1, -16, -24,-0.2744447668152759,1.0204810896054994
1503523919293,+0.090,+0.119,-0.474,-0.868,+0.864,-0.105,-0.504,+8.500,-13.500,+7.938,-12, -5, -1, 1, 0, -21, -6, -19,-0.274481481903386,1.0167680289385348
1503523919309,+0.090,+0.121,-0.472,-0.869,+0.866,-0.110,-0.502,+10.375,-10.688,+10.625,8, 0, -1, 1, 3, 2, -21, -22,-0.27628828514569914,1.0131988612278355
1503523919332,+0.089,+0.123,-0.470,-0.869,+0.889,-0.112,-0.491,+13.188,-8.125,+13.438,-5, -5, 2, 1, 2, 2, -13, -61,-0.27612645535679853,1.009013404947862
1503523919355,+0.088,+0.126,-0.469,-0.870,+0.898,-0.121,-0.500,+15.062,-8.625,+14.625,1, 1, -1, 0, -1, 0, -5, -9,-0.2774172332115144,1.008406932591648
1503523919369,+0.088,+0.130,-0.467,-0.870,+0.897,-0.131,-0.495,+17.562,-9.688,+16.500,-2, 7, -2, -1, 0, 5, 11, 52,-0.28112527879763494,1.0054607286610524
1503523919392,+0.087,+0.134,-0.464,-0.871,+0.884,-0.134,-0.500,+20.438,-13.562,+17.625,3, -2, 0, 0, 0, -1, -28, 19,-0.2829479230652134,1.0004009578093265
1503523919414,+0.086,+0.138,-0.461,-0.872,+0.859,-0.151,-0.504,+22.125,-16.000,+18.500,17, 17, 0, -2, -3, 6, 13, -5,-0.28474419610835944,0.9953967276724602
1503523919429,+0.086,+0.143,-0.458,-0.873,+0.826,-0.161,-0.498,+23.500,-13.188,+19.750,-6, -7, -2, -2, -2, -6, 2, -50,-0.28936765804824366,0.9911849968655183
1503523919452,+0.084,+0.148,-0.456,-0.873,+0.829,-0.178,-0.499,+25.250,-7.750,+21.688,38, 3, 0, -1, 1, 3, 3, 33,-0.2904982648290549,0.98875342422946
1503523919474,+0.083,+0.154,-0.454,-0.873,+0.854,-0.193,-0.499,+26.062,-5.000,+22.625,-29, -3, -1, -1, -4, 1, 6, 9,-0.2944961860256693,0.9871745092486542
1503523919490,+0.082,+0.159,-0.453,-0.874,+0.858,-0.208,-0.480,+25.938,-7.000,+22.625,-17, -15, 0, 2, -1, -10, -15, 5,-0.29790647500282524,0.9881110750234735
1503523919512,+0.081,+0.165,-0.451,-0.874,+0.845,-0.217,-0.479,+25.875,-10.062,+22.312,-6, -6, -3, -3, -4, -6, 1, -75,-0.30194100093064147,0.9867429125623285
1503523919534,+0.080,+0.170,-0.448,-0.874,+0.821,-0.231,-0.479,+25.188,-9.875,+21.250,13, -3, -2, -3, 2, 14, -3, -97,-0.30457243412871193,0.9822903775209032
1503523919552,+0.079,+0.175,-0.446,-0.874,+0.809,-0.245,-0.478,+24.750,-9.188,+19.875,13, 3, 1, -1, 2, 10, 10, 108,-0.3075334658605687,0.980442438481438
1503523919572,+0.078,+0.180,-0.444,-0.874,+0.817,-0.260,-0.483,+23.062,-7.500,+18.875,-11, -2, 0, -1, 1, -11, -2, 15,-0.3105024642200276,0.9786729051886492
1503523919594,+0.077,+0.185,-0.442,-0.874,+0.813,-0.265,-0.491,+21.062,-6.125,+19.438,19, 0, 1, 1, -3, -7, 1, 15,-0.31348046270223945,0.976981960604723
1503523919609,+0.075,+0.189,-0.441,-0.874,+0.807,-0.273,-0.474,+20.500,-3.000,+18.250,-5, 1, -1, -2, 0, 4, -1, -98,-0.3139093446457253,0.9769402090120105
1503523919632,+0.075,+0.193,-0.440,-0.874,+0.846,-0.280,-0.467,+20.562,-5.688,+15.500,-4, -9, -1, 1, 4, 0, 7, 29,-0.3179946121992326,0.9773869751075697
1503523919654,+0.075,+0.198,-0.438,-0.874,+0.836,-0.277,-0.505,+23.125,-8.812,+14.125,32, 15, 0, 0, 2, 0, 14, 66,-0.32283832188234646,0.9761313533825744
1503523919669,+0.075,+0.202,-0.435,-0.874,+0.812,-0.273,-0.505,+25.188,-12.125,+12.125,-20, -4, -2, -4, -12, -5, -5, 3,-0.3261682353308672,0.9716508336714965
1503523919692,+0.075,+0.206,-0.433,-0.874,+0.806,-0.296,-0.502,+24.688,-11.500,+12.812,15, 12, -3, -4, 2, 4, -1, 10,-0.3298963328557016,0.9697612045858273
1503523919718,+0.076,+0.211,-0.431,-0.874,+0.814,-0.296,-0.499,+25.250,-8.875,+14.062,-39, -8, 0, 0, -2, -3, -8, 9,-0.3366133075324006,0.9689999769668668
1503523919729,+0.075,+0.216,-0.429,-0.874,+0.837,-0.304,-0.515,+26.312,-7.625,+16.062,8, -4, 1, 0, 1, 1, -4, -4,-0.3396809091932399,0.9678320233755433
1503523919754,+0.075,+0.221,-0.426,-0.874,+0.846,-0.299,-0.520,+29.000,-9.812,+17.875,-12, 4, 0, 3, 2, 0, 6, -11,-0.34417147409714505,0.9644781596155235
1503523919774,+0.076,+0.226,-0.423,-0.874,+0.855,-0.299,-0.517,+31.750,-15.188,+19.062,3, -4, -2, 1, 1, 1, -13, -28,-0.3505183304750649,0.9614935882068196
1503523919789,+0.076,+0.232,-0.419,-0.875,+0.815,-0.313,-0.513,+35.000,-22.438,+18.812,-4, -24, -6, 0, -4, -5, -2, 0,-0.3558969689339071,0.9572202121540309
1503523919812,+0.077,+0.238,-0.414,-0.875,+0.771,-0.323,-0.538,+40.000,-20.938,+19.375,4, 15, 3, 0, 0, -1, 2, 54,-0.3625170842510811,0.9503380845847282
1503523919834,+0.078,+0.246,-0.410,-0.875,+0.768,-0.340,-0.547,+44.688,-15.750,+21.188,16, 19, 1, 1, 0, 1, 7, 80,-0.3720242915543514,0.9480488984819586
1503523919853,+0.078,+0.254,-0.406,-0.875,+0.780,-0.360,-0.523,+44.812,-17.438,+23.000,12, -12, 0, 1, 4, -2, -11, 32,-0.37973119841419156,0.945714615212589
1503523922916,+0.109,+0.225,-0.653,-0.715,+0.957,-0.167,+0.024,-11.625,-2.125,-18.438,8, -12, -14, -2, -2, -3, -1, -2,-0.4747632326683736,1.5240963509098386
1503523922931,+0.111,+0.221,-0.653,-0.716,+0.958,-0.168,+0.028,-13.625,-7.938,-23.000,-7, 31, 34, 2, 0, 1, -3, 1,-0.4715823291929059,1.520541873682348
1503523922953,+0.112,+0.216,-0.653,-0.717,+0.983,-0.186,+0.055,-12.375,-10.562,-25.750,14, -13, -17, -3, -1, -3, -1, 3,-0.46537388367883153,1.5161485516412918
1503523922978,+0.115,+0.212,-0.654,-0.717,+0.981,-0.193,+0.030,-11.062,-7.875,-29.188,12, 4, -8, 0, -1, 1, -2, -3,-0.4639870476919284,1.5154300814730677
1503523922991,+0.117,+0.207,-0.655,-0.718,+0.971,-0.171,+0.013,-14.688,-6.688,-32.750,-4, 3, 6, -1, 0, -1, 0, 0,-0.4597796283089701,1.513980919999762
1503523923014,+0.119,+0.201,-0.656,-0.718,+0.998,-0.164,+0.006,-12.438,-4.000,-34.812,11, 1, 1, -5, 5, -6, 0, 2,-0.4538642590145904,1.5117391901748622
1503523923036,+0.122,+0.196,-0.657,-0.718,+1.024,-0.128,+0.028,-11.125,-3.125,-34.312,-5, -8, -8, -1, -2, -5, -13, -12,-0.4510654629035326,1.5104727022240783
1503523923052,+0.125,+0.191,-0.658,-0.718,+1.040,-0.118,+0.001,-10.938,-7.875,-33.688,-2, 9, -3, 3, 2, -5, 2, 3,-0.448316057785672,1.5093106974380812
1503523923076,+0.127,+0.187,-0.658,-0.718,+1.042,-0.100,-0.022,-10.000,-4.312,-27.625,9, -4, 9, -2, -1, 5, 2, 0,-0.44527077654541514,1.5062600100169934
1503523923096,+0.130,+0.183,-0.659,-0.718,+1.019,-0.076,-0.038,-5.000,-4.125,-27.188,-3, -9, -9, 0, -2, 3, 1, 0,-0.44412278124059584,1.506031671644712
1503523923114,+0.134,+0.179,-0.659,-0.718,+0.999,-0.060,-0.045,+1.375,-4.500,-28.000,-8, -19, -6, 0, -1, 0, 2, -7,-0.44421242567316843,1.5031572637846433
1503523923134,+0.138,+0.177,-0.659,-0.718,+0.992,-0.034,-0.048,+4.125,+0.062,-25.625,-5, -4, 0, 1, 1, 1, 1, 4,-0.4473501196213357,1.501792653225175
1503523923155,+0.142,+0.175,-0.660,-0.717,+1.006,-0.036,-0.037,+7.938,+1.125,-22.812,5, 1, -1, -1, -3, 0, -1, -1,-0.4505780570031733,1.503088230203263
1503523923174,+0.145,+0.174,-0.660,-0.716,+1.064,-0.048,-0.017,+10.188,+0.000,-18.875,1, 13, 2, -2, -1, 0, 5, 6,-0.4534522555935402,1.5023524088172255
1503523923194,+0.148,+0.174,-0.661,-0.715,+1.063,-0.086,-0.024,+11.625,+8.188,-13.750,-21, 14, 7, 3, 0, 0, 1, 5,-0.458137460320166,1.5050701634412686
1503523923216,+0.150,+0.174,-0.662,-0.713,+1.074,-0.065,-0.025,+11.688,+6.688,-12.500,-15, -30, -12, 0, -1, -4, 1, 5,-0.46100742441113235,1.507680869318834
1503523923232,+0.153,+0.174,-0.661,-0.714,+1.101,-0.075,-0.013,+12.688,-11.438,-13.062,-4, 4, 0, 0, -2, -1, -2, -4,-0.46561468278123114,1.505097636215398
1503523923254,+0.157,+0.174,-0.658,-0.716,+1.071,-0.095,-0.009,+12.938,-29.688,-16.938,-4, 24, 8, -2, 1, -5, 1, -2,-0.4714653349909148,1.497180385601937
1503523923276,+0.160,+0.172,-0.655,-0.718,+1.010,-0.078,+0.026,+6.562,-27.312,-16.250,14, -3, -6, -2, -1, 2, -6, 1,-0.47283483462080284,1.4878409601360623
1503523923292,+0.162,+0.172,-0.654,-0.719,+0.989,-0.027,-0.008,+6.562,-10.750,-10.562,-4, 8, 1, -4, 0, 0, -4, -5,-0.47596227943236613,1.4852779360991115
1503523923314,+0.165,+0.172,-0.654,-0.718,+0.996,-0.018,-0.060,+13.812,-1.688,-8.688,-6, -11, -3, -2, -2, -2, 5, 2,-0.4804045919506476,1.485254351378632
1503523923336,+0.168,+0.173,-0.653,-0.718,+1.021,-0.030,-0.073,+16.562,-1.375,-8.438,6, -1, 3, 2, 1, 5, 3, 1,-0.48632276503642674,1.4833309164433595
1503523923352,+0.170,+0.173,-0.652,-0.718,+1.013,-0.032,-0.047,+13.500,-8.688,-9.125,-12, -7, -2, 1, 0, -2, -2, 0,-0.4891890021720883,1.4806636258871082
1503523923375,+0.172,+0.174,-0.651,-0.719,+1.000,-0.039,-0.032,+7.875,-4.938,-5.562,14, -9, -6, -4, 0, -2, -1, -4,-0.4938419165043671,1.4788409764337929
1503523923395,+0.172,+0.175,-0.652,-0.718,+0.974,-0.032,-0.038,+6.625,+7.312,+1.562,-5, -11, -4, -3, -2, 1, -1, -2,-0.49532488707462236,1.4821735898876607
1503523923413,+0.171,+0.176,-0.653,-0.716,+1.013,-0.028,-0.015,+1.812,+11.000,+4.750,1, 18, 19, 5, 2, -1, -1, -2,-0.49492405843580195,1.4853712251442244
1503523923434,+0.169,+0.177,-0.654,-0.716,+1.068,-0.038,-0.013,-2.688,+7.875,+9.375,-5, 3, 0, -2, -4, -2, -2, 1,-0.49355322805260454,1.4887710459035546
1503523923456,+0.168,+0.177,-0.654,-0.716,+1.037,-0.012,-0.031,-2.312,-3.438,+6.188,2, 6, -2, 0, 0, 2, 0, -2,-0.49197190303811755,1.4887420229995723
1503523923472,+0.167,+0.176,-0.653,-0.718,+1.003,-0.017,+0.000,-8.625,-14.062,+4.250,9, -2, 0, 0, -1, -5, -3, -3,-0.4891839937431308,1.4854739385443478
1503523923500,+0.166,+0.175,-0.652,-0.719,+0.964,-0.002,+0.001,-8.312,-11.250,+4.438,14, 4, 6, 0, -2, -4, -4, 0,-0.48610304046533204,1.4821031106630453
1503523923518,+0.166,+0.174,-0.652,-0.719,+0.960,-0.006,-0.042,-3.750,-2.500,-2.812,-21, -12, -5, -3, -3, -1, -2, -2,-0.4846231400729361,1.4813779655193484
1503523923532,+0.167,+0.172,-0.651,-0.720,+0.987,+0.004,-0.080,-3.625,-8.438,-7.500,-20, -15, -21, -1, 0, 2, -4, -3,-0.48324383498827933,1.4773601483170706
1503523923554,+0.169,+0.170,-0.649,-0.722,+1.010,-0.031,-0.068,-4.562,-15.500,-11.375,-8, -15, -15, -3, -2, 0, -1, -2,-0.4834736170188219,1.4707928132706443
1503523923576,+0.171,+0.167,-0.648,-0.723,+0.977,-0.025,-0.052,-0.125,-11.438,-17.625,0, 1, 2, 0, -2, -1, -1, -2,-0.48228199889658835,1.4661486369756416
1503523923592,+0.175,+0.165,-0.647,-0.723,+0.980,+0.022,-0.124,+8.188,-8.250,-22.188,12, 6, -3, -3, 1, -2, -1, 1,-0.4854859734892899,1.4621642704559061
1503523923615,+0.179,+0.164,-0.646,-0.724,+0.953,-0.015,-0.115,+11.562,-9.188,-24.000,-6, 12, 1, 1, 0, 0, -1, 12,-0.49049801522661657,1.459028124493182
1503523923636,+0.183,+0.163,-0.647,-0.723,+0.934,+0.006,-0.053,+10.688,+1.938,-20.562,8, -5, 1, -4, -4, -1, -3, 6,-0.49548748940864545,1.4610682273730384
1503523923653,+0.186,+0.163,-0.649,-0.719,+0.968,+0.023,-0.057,+11.125,+21.438,-15.188,-4, -14, -16, -2, -1, -2, 2, -10,-0.49962145260531904,1.466079446874434
1503523923675,+0.188,+0.164,-0.652,-0.716,+1.025,+0.030,-0.081,+13.188,+27.812,-10.188,-39, -7, 0, -2, -1, 2, -1, 9,-0.5041891504226607,1.4746431355573333
1503523923695,+0.190,+0.165,-0.654,-0.713,+1.085,+0.036,-0.088,+16.625,+16.375,-10.812,-4, -28, -5, -1, 0, 0, 0, -15,-0.5084672686859969,1.480499352455031
1503523923712,+0.194,+0.165,-0.653,-0.713,+1.074,+0.016,-0.065,+15.438,-5.125,-11.750,5, 2, -6, -2, 0, -1, 3, -1,-0.5146583234235498,1.4778851569287106
1503523923734,+0.197,+0.166,-0.651,-0.714,+0.997,+0.001,-0.046,+14.062,-11.562,-10.938,25, -18, -5, -2, -5, -3, -9, -23,-0.5207658268939963,1.473334365530604
1503523923755,+0.199,+0.166,-0.651,-0.714,+0.951,+0.014,-0.023,+10.938,-8.375,-9.312,6, 23, -3, 0, 1, -3, -6, -4,-0.5240318106478653,1.4733989496168738
1503523923772,+0.200,+0.166,-0.651,-0.713,+1.007,+0.023,-0.008,+7.312,+1.438,-5.312,-10, -18, -4, -2, 0, 1, -6, 4,-0.5253215712317153,1.4733045736339578
1503523923794,+0.202,+0.166,-0.651,-0.713,+1.031,+0.070,-0.073,+10.062,+1.688,-5.750,14, 15, -4, 2, 1, 2, 2, 14,-0.5285963134302117,1.4733691970719494
1503523923816,+0.204,+0.166,-0.649,-0.714,+1.030,+0.049,-0.072,+6.438,-16.062,-5.375,0, -38, -3, 1, -1, 4, 1, 6,-0.5316581308029796,1.4681060321137291
1503523923832,+0.206,+0.164,-0.647,-0.716,+0.948,+0.070,-0.029,+2.750,-18.438,-5.500,-7, 0, -1, -1, 0, 1, 5, 18,-0.5321895045475883,1.4615925637574216
1503523923855,+0.208,+0.164,-0.646,-0.716,+0.936,+0.095,-0.052,+7.750,-11.875,-8.188,37, 12, 0, 0, -1, 0, 4, 4,-0.5352167478617397,1.4589361770998017
1503523923876,+0.210,+0.163,-0.645,-0.717,+0.979,+0.083,-0.068,+5.312,-10.500,-3.125,-50, -26, 3, 0, -1, -6, -24, -30,-0.5371701131613413,1.4557308977810668
1503523923892,+0.211,+0.162,-0.643,-0.718,+0.995,+0.089,-0.050,+1.188,-11.875,+0.000,-2, -10, 0, 1, 2, -1, 5, -22,-0.5371979316023425,1.449768731006538
1503523923916,+0.211,+0.162,-0.641,-0.720,+0.980,+0.099,-0.089,+1.750,-16.750,+2.562,29, -13, -3, -5, -6, -25, -1, -1,-0.5373664398854645,1.4446297377785704
1503523923935,+0.211,+0.161,-0.639,-0.722,+0.951,+0.076,-0.066,-1.250,-17.000,+2.500,-6, -1, -5, -2, 0, 8, 0, 3,-0.5361054021800491,1.4388118813629454
1503523923952,+0.212,+0.160,-0.638,-0.723,+0.973,+0.098,-0.051,-2.312,-13.375,+2.750,-41, 18, 3, -2, 0, 3, 0, -2,-0.5364419669001911,1.4356065621881131
1503523923974,+0.212,+0.159,-0.637,-0.724,+1.013,+0.095,-0.062,-0.625,-16.062,+3.500,-10, 7, -1, 1, 1, 3, 9, 11,-0.5351092166272683,1.4323652165791214
1503523923996,+0.212,+0.158,-0.634,-0.727,+1.016,+0.088,-0.074,-3.312,-20.562,+3.875,-25, -37, -7, -1, -2, 3, 3, 2,-0.5339679060165237,1.4240475539667972
1503523924018,+0.211,+0.157,-0.632,-0.729,+0.974,+0.090,-0.088,-3.188,-20.750,+5.500,28, 24, 4, 1, 2, 2, 1, 3,-0.5310574710476156,1.4182472727615145
1503523924034,+0.211,+0.156,-0.630,-0.731,+0.991,+0.069,-0.104,-4.312,-19.625,+8.250,-1, -10, -15, -5, -1, 0, -1, -1,-0.5298393737413927,1.412511305974099
1503523926374,-0.005,+0.365,-0.484,-0.796,+0.774,-0.592,-0.217,+6.125,+1.000,-26.188,-6, -3, -1, -2, -1, 0, 0, -2,-0.4400474096357319,1.238040912801109
1503523926397,-0.002,+0.363,-0.486,-0.795,+0.814,-0.607,-0.180,+3.750,+1.938,-26.312,0, -1, -1, 0, -4, -6, -2, -2,-0.44327144687223763,1.2409301493190505
1503523926419,+0.002,+0.361,-0.489,-0.794,+0.829,-0.583,-0.181,+0.125,+3.625,-27.812,0, 1, 0, -2, -1, -3, -1, -1,-0.44899853875854906,1.2469756755804537
1503523926441,+0.006,+0.358,-0.491,-0.794,+0.827,-0.562,-0.178,-1.312,+0.062,-28.688,-4, -3, -1, 0, 0, -1, -2, -1,-0.45205250808203107,1.2488445114205784
1503523926456,+0.010,+0.355,-0.493,-0.794,+0.805,-0.551,-0.183,-2.750,-2.750,-32.250,0, 2, 0, -2, -3, -3, 1, -1,-0.4550897893299825,1.2507282669235902
1503523926478,+0.014,+0.353,-0.495,-0.794,+0.809,-0.544,-0.201,-2.375,-0.188,-30.125,-2, -1, 1, -1, 0, -4, 0, -3,-0.45991674932550475,1.2542364630999905
1503523926501,+0.017,+0.350,-0.497,-0.794,+0.827,-0.533,-0.224,-1.750,+4.312,-26.125,-2, -3, -1, 0, -2, -2, -3, 1,-0.46118973759789694,1.2558727449518163
1503523926515,+0.019,+0.348,-0.499,-0.793,+0.860,-0.522,-0.199,-1.500,+5.875,-22.688,2, -2, -1, -2, -1, -2, -1, -2,-0.46248773136629917,1.258496051032679
1503523926539,+0.023,+0.345,-0.501,-0.793,+0.884,-0.499,-0.183,-1.188,+0.062,-21.188,-2, 2, 0, -2, 0, 0, -1, -2,-0.46545647615908675,1.2604196430061068
1503523926563,+0.026,+0.343,-0.502,-0.793,+0.854,-0.511,-0.191,-1.062,-5.062,-22.625,-2, -5, -3, 0, -1, -2, -2, -1,-0.4677609399271233,1.2608577761581052
1503523926575,+0.029,+0.341,-0.503,-0.794,+0.824,-0.514,-0.199,-4.625,-7.000,-24.875,-4, -1, 1, 0, 1, -6, 0, 0,-0.4701246272603829,1.2616624822228792
1503523926598,+0.032,+0.338,-0.504,-0.794,+0.828,-0.508,-0.216,-4.500,-3.125,-23.562,-1, -2, -1, -2, 0, 1, -2, -2,-0.4706800575295406,1.2606022411921427
1503523926620,+0.034,+0.335,-0.505,-0.794,+0.833,-0.488,-0.237,-4.000,+3.938,-20.000,2, 1, -1, -2, -3, 1, 0, 0,-0.46955113735109,1.2593459563641576
1503523926636,+0.035,+0.334,-0.507,-0.794,+0.877,-0.483,-0.220,-2.688,+6.188,-14.375,-1, 2, -1, -2, -1, 1, -2, 0,-0.470890428273585,1.2636451503055828
1503523926658,+0.037,+0.332,-0.509,-0.793,+0.899,-0.471,-0.187,-1.188,+4.625,-11.375,2, -9, -12, -1, -2, -1, -2, -1,-0.4721087301913641,1.2663358347179015
1503523926682,+0.039,+0.331,-0.510,-0.793,+0.891,-0.478,-0.183,-2.188,-0.750,-13.875,0, 4, 14, 2, -1, 1, -2, -1,-0.47444535991091874,1.2680848762600856
1503523926704,+0.041,+0.329,-0.511,-0.793,+0.861,-0.490,-0.186,-4.562,-3.688,-16.938,-5, -6, -10, -1, -1, -2, 0, -1,-0.4750522295970835,1.268367352657864
1503523926718,+0.043,+0.326,-0.512,-0.794,+0.850,-0.476,-0.189,-7.062,-4.000,-19.562,0, 0, 4, 0, -1, -1, 0, 1,-0.47403813517194276,1.2675662403939252
1503523926741,+0.045,+0.324,-0.513,-0.794,+0.856,-0.458,-0.218,-6.625,-1.625,-19.375,-1, 8, 18, 2, 2, 0, 0, 0,-0.4746650387796362,1.2678885155424309
1503523926758,+0.047,+0.321,-0.514,-0.794,+0.854,-0.438,-0.223,-4.250,+4.812,-18.000,1, -1, -3, 0, 0, 0, -2, -1,-0.473602795878763,1.2668095179677972
1503523926778,+0.048,+0.319,-0.516,-0.794,+0.864,-0.445,-0.223,-3.438,+5.250,-15.312,0, -6, -12, -4, -4, 0, 0, -1,-0.4731960154512049,1.2697012278157327
1503523926809,+0.050,+0.317,-0.517,-0.793,+0.902,-0.473,-0.192,-5.562,+0.062,-15.250,-3, 1, -2, -1, -1, -1, 1, -2,-0.4737388798880662,1.269731400363329
1503523926815,+0.051,+0.315,-0.518,-0.794,+0.947,-0.472,-0.181,-7.750,-4.625,-14.750,10, 17, -2, -2, -2, -2, -2, 0,-0.4728012434875213,1.2702539977755536
1503523926838,+0.053,+0.312,-0.518,-0.795,+0.885,-0.440,-0.197,-11.000,-8.000,-18.562,-6, -11, -11, -3, 0, 0, -2, -2,-0.4712761800783794,1.2669039102531574
1503523926866,+0.055,+0.308,-0.518,-0.796,+0.846,-0.421,-0.211,-11.125,-12.688,-20.375,0, -2, 4, 1, -2, -1, 0, -1,-0.46815059877447524,1.2622640032768404
1503523926877,+0.057,+0.305,-0.517,-0.798,+0.832,-0.425,-0.223,-11.000,-11.000,-19.938,-1, -2, 3, -2, -1, -1, 1, -2,-0.46623610555918954,1.2566655639386621
1503523926900,+0.058,+0.302,-0.518,-0.798,+0.850,-0.416,-0.240,-10.750,-0.438,-14.438,-2, 6, 5, -2, 0, -1, -1, -2,-0.46365550178522247,1.2556494868515566
1503523926914,+0.058,+0.300,-0.520,-0.798,+0.897,-0.445,-0.226,-12.188,+9.750,-7.688,-2, -5, -4, -1, -2, -2, -1, 0,-0.4616112888553786,1.2584839196281403
1503523926940,+0.057,+0.298,-0.522,-0.797,+1.004,-0.438,-0.187,-14.375,+6.750,-4.500,-1, -3, 0, -3, 0, -2, 1, -3,-0.45776988788600737,1.2607884019331272
1503523926958,+0.057,+0.295,-0.522,-0.798,+0.971,-0.406,-0.185,-17.938,-7.312,-8.688,-2, 6, 11, 0, -1, 1, -1, -1,-0.4530741450341472,1.2573046204117122
1503523926974,+0.058,+0.291,-0.521,-0.800,+0.906,-0.404,-0.213,-20.250,-17.250,-12.938,0, -7, -9, -1, 0, -1, -2, -2,-0.4480576473922448,1.2504603904764167
1503523926996,+0.058,+0.287,-0.520,-0.802,+0.873,-0.406,-0.211,-21.875,-14.312,-10.938,-2, -4, -4, 0, -1, -1, -2, 0,-0.4414358743040629,1.2435172360200792
1503523927019,+0.057,+0.282,-0.520,-0.804,+0.868,-0.394,-0.204,-25.750,-10.312,-11.250,0, -5, -11, -5, 0, 0, 0, 1,-0.4322135140108844,1.2379800764167794
1503523927035,+0.057,+0.278,-0.520,-0.806,+0.898,-0.414,-0.197,-28.688,-6.688,-12.125,-2, 4, -5, -2, -1, 0, 1, -1,-0.4263018033649969,1.233961966690185
1503523927056,+0.056,+0.272,-0.521,-0.808,+0.917,-0.381,-0.247,-33.125,-8.000,-14.375,-1, -4, -5, -1, -1, -1, 0, 0,-0.4162742951583989,1.2302361605646095
1503523927079,+0.056,+0.265,-0.520,-0.810,+0.867,-0.354,-0.262,-35.812,-11.125,-19.000,-1, 3, 6, 1, 0, -1, -1, -1,-0.4055148148476684,1.2203755089204211
1503523927102,+0.056,+0.258,-0.520,-0.813,+0.847,-0.358,-0.243,-36.938,-14.250,-21.438,0, -4, -5, 0, -1, -1, -1, 0,-0.3955756739132255,1.2138657396091685
1503523927123,+0.056,+0.251,-0.520,-0.815,+0.859,-0.351,-0.248,-37.438,-12.438,-24.875,-2, 3, 8, 1, -2, 1, -1, -2,-0.3856910619904611,1.2072228693203775
1503523927138,+0.057,+0.243,-0.521,-0.816,+0.877,-0.346,-0.281,-37.375,-2.875,-27.062,-1, -5, -5, -2, -1, 0, -1, 0,-0.3766286812795447,1.2022959001375717
1503523927160,+0.058,+0.235,-0.521,-0.818,+0.881,-0.302,-0.309,-35.750,-5.062,-28.562,1, -1, -1, -1, -1, -1, -2, 1,-0.3673820995355509,1.195375328052972
1503523927178,+0.060,+0.228,-0.521,-0.820,+0.903,-0.285,-0.309,-33.812,-11.500,-29.875,-1, 1, 0, 0, -2, -1, 0, -1,-0.36139575255658524,1.1898696420029442
1503523927198,+0.061,+0.220,-0.521,-0.822,+0.892,-0.288,-0.292,-32.812,-13.125,-29.750,0, 2, 2, 0, -1, -2, 0, -2,-0.35250658541542695,1.1835042049658298
1503523927220,+0.062,+0.213,-0.522,-0.824,+0.910,-0.293,-0.328,-31.000,-7.500,-27.000,-5, 1, 7, 1, 1, 1, 1, 0,-0.3455372775637036,1.1809654095193425
1503523927237,+0.063,+0.206,-0.522,-0.825,+0.918,-0.266,-0.367,-31.375,-1.500,-23.312,0, -1, -2, -2, -1, -2, -2, 0,-0.33814462006163176,1.1755539303004026
1503523927261,+0.064,+0.200,-0.523,-0.826,+0.928,-0.241,-0.372,-28.125,-1.125,-20.875,-3, -1, -3, -1, -2, -1, -1, -1,-0.3325606889239923,1.1738262391961183
1503523927280,+0.065,+0.195,-0.523,-0.828,+0.922,-0.224,-0.368,-23.500,-6.312,-20.562,2, -2, -1, 0, -2, -2, -3, 0,-0.32807136776531404,1.1707981742944364
1503523927295,+0.066,+0.189,-0.522,-0.829,+0.913,-0.242,-0.340,-21.750,-12.375,-22.188,-1, -7, -6, -2, -1, -2, 0, -1,-0.32187643975159685,1.1640277155563108
1503523927318,+0.068,+0.185,-0.522,-0.830,+0.908,-0.248,-0.324,-19.500,-9.312,-20.938,-3, 3, -4, -2, -5, 2, -1, 0,-0.3203701120086865,1.1617116346152845
1503523927341,+0.069,+0.180,-0.522,-0.831,+0.903,-0.216,-0.339,-18.500,-5.312,-17.625,8, -3, -4, -2, 1, -1, 0, 0,-0.3159434323224819,1.158569070608728
1503523927355,+0.069,+0.176,-0.522,-0.831,+0.913,-0.199,-0.360,-18.062,+0.125,-14.188,6, 3, 8, 0, 1, -3, 0, -1,-0.31096627728780485,1.1556648133895844
1503523927379,+0.070,+0.172,-0.523,-0.832,+0.946,-0.182,-0.356,-15.625,+1.438,-13.750,3, -7, -5, -1, 6, -3, -2, -1,-0.3082035072927343,1.1560467424438339
1503523927403,+0.071,+0.169,-0.524,-0.832,+0.938,-0.181,-0.337,-13.000,-4.750,-14.250,-2, 8, 1, 0, 0, 0, 0, -1,-0.3065502346414319,1.1567430362111701
1503523927415,+0.072,+0.166,-0.523,-0.833,+0.951,-0.207,-0.332,-13.000,-9.750,-14.500,-9, 2, 2, -1, 1, 1, -3, 0,-0.30439568374115455,1.152615320829145
1503523927438,+0.073,+0.163,-0.523,-0.834,+0.933,-0.209,-0.334,-13.500,-9.312,-13.125,10, 9, 29, 2, 1, 1, 1, 0,-0.30259120467069844,1.1511660531510295
1503523927460,+0.073,+0.160,-0.522,-0.834,+0.924,-0.182,-0.362,-13.000,-4.750,-9.750,-5, 1, -2, -1, -3, 1, 0, -2,-0.29864004395517996,1.1465417439715817
1503523927476,+0.073,+0.157,-0.522,-0.835,+0.920,-0.168,-0.366,-12.312,-6.125,-7.375,-3, 0, -7, -3, 6, 3, 2, -3,-0.29516592088495885,1.1450311789801753
1503523927506,+0.073,+0.154,-0.521,-0.836,+0.938,-0.190,-0.331,-14.438,-8.062,-6.750,-5, -8, -4, -3, 1, -2, -1, -1,-0.2914090672299694,1.1409219983476424
1503523927520,+0.073,+0.151,-0.521,-0.837,+0.955,-0.159,-0.330,-13.250,-8.750,-7.562,1, -3, -3, 0, 0, -3, -3, 0,-0.2879749198196797,1.1394877656362832
1503523927538,+0.074,+0.149,-0.520,-0.838,+0.938,-0.163,-0.355,-10.875,-11.000,-8.688,4, 9, -6, 0, -2, -2, -1, -1,-0.2871685553512325,1.1361948993994817
1503523927558,+0.074,+0.147,-0.519,-0.839,+0.926,-0.166,-0.387,-9.688,-13.000,-6.562,3, 4, 23, 2, 4, -1, -2, -1,-0.2846619826706917,1.1327941976498876
1503523927574,+0.075,+0.145,-0.517,-0.841,+0.923,-0.158,-0.388,-8.625,-15.438,-5.312,3, -12, -14, 0, 7, 1, -1, -3,-0.2837543580344723,1.1273630025629484
1503523927595,+0.075,+0.143,-0.515,-0.842,+0.919,-0.165,-0.382,-8.438,-16.312,-2.688,-3, 15, 16, 1, 1, 2, -7, -1,-0.281004415778064,1.1213839189075512
1503523927618,+0.075,+0.141,-0.513,-0.843,+0.904,-0.150,-0.382,-6.688,-13.188,-1.562,-5, 30, 5, 5, 2, -5, -2, 4,-0.2782768341447227,1.1154294450577438
1503523927633,+0.075,+0.140,-0.511,-0.845,+0.921,-0.137,-0.403,-4.625,-12.812,+0.000,-15, -22, -14, -1, -3, 0, -1, -1,-0.27686781058802884,1.1105340703349147
1503523927655,+0.075,+0.140,-0.509,-0.846,+0.924,-0.130,-0.409,-2.062,-14.438,+1.438,2, 5, -6, -5, -6, -9, -2, -1,-0.27646824333219044,1.105767717228495
1503523927678,+0.075,+0.140,-0.507,-0.847,+0.903,-0.141,-0.414,+0.312,-14.375,+3.625,-5, -4, 6, 1, -1, 4, 2, -1,-0.2760685854571503,1.101009432394437
1503523927694,+0.074,+0.140,-0.505,-0.848,+0.911,-0.148,-0.414,+3.438,-10.312,+6.000,3, -2, 1, -6, -2, 0, -7, -6,-0.2739325535385946,1.0961295052845654
1503523927716,+0.074,+0.141,-0.504,-0.849,+0.932,-0.146,-0.421,+5.750,-7.062,+9.812,-13, -3, 5, 0, 0, -1, -2, -4,-0.27494171719320526,1.0945664424195518
1503523927740,+0.073,+0.143,-0.503,-0.849,+0.937,-0.135,-0.433,+10.250,-8.188,+13.500,11, 8, 1, 1, 9, 3, 2, 4,-0.2752049191438433,1.0929891541799452
1503523927760,+0.072,+0.146,-0.501,-0.850,+0.931,-0.117,-0.457,+15.812,-8.125,+17.000,2, -8, -2, 1, -1, 3, 3, 0,-0.27646386773006165,1.0898804606755281
1503523927782,+0.072,+0.151,-0.498,-0.851,+0.925,-0.135,-0.485,+22.938,-10.438,+20.812,-5, -3, -5, -3, -1, -4, -3, -3,-0.28144749829944504,1.0855596790341548
1503523927798,+0.071,+0.156,-0.495,-0.852,+0.917,-0.150,-0.481,+29.625,-10.062,+25.000,15, -5, -3, -2, -2, -3, -3, -1,-0.28466914414302047,1.0811919903007186
1503523927820,+0.070,+0.163,-0.492,-0.852,+0.894,-0.182,-0.430,+32.812,-12.000,+27.812,14, 8, 15, 0, -3, -2, -2, -1,-0.29003989868262214,1.0777399157262144
1503523927836,+0.070,+0.170,-0.490,-0.852,+0.929,-0.208,-0.402,+36.188,-15.250,+27.250,-10, 10, 1, 2, -11, -4, -3, -4,-0.29750682653742405,1.0772244567013847
1503523927858,+0.070,+0.177,-0.486,-0.853,+0.923,-0.224,-0.432,+38.938,-16.188,+26.562,-32, -1, 1, -2, -10, 0, -2, -3,-0.3044626074402326,1.072182291950169
1503523927880,+0.070,+0.185,-0.482,-0.854,+0.896,-0.200,-0.479,+44.625,-19.812,+29.000,7, -6, -13, 1, 6, -1, 2, 1,-0.3125935702480489,1.0680740975979328
1503523927896,+0.071,+0.194,-0.476,-0.855,+0.908,-0.227,-0.426,+47.188,-28.625,+31.125,-1, 5, -4, -1, 2, 5, 1, -2,-0.3229466052827517,1.060008147044617
1503523927918,+0.071,+0.203,-0.471,-0.856,+0.871,-0.268,-0.395,+46.500,-30.062,+30.250,18, 8, 9, 3, 6, 3, 2, 3,-0.3319087472927675,1.0546742882832967
1503523927943,+0.072,+0.212,-0.465,-0.856,+0.827,-0.271,-0.425,+49.500,-25.438,+30.438,-3, 8, -8, -2, 4, -1, -2, 5,-0.3421235661465213,1.04681687822251
1503523927956,+0.072,+0.222,-0.461,-0.857,+0.847,-0.295,-0.426,+51.750,-20.188,+34.125,35, 8, 8, -3, -1, -3, -3, 1,-0.3527979487102619,1.0456137975010176
1503523927978,+0.071,+0.231,-0.456,-0.856,+0.850,-0.317,-0.406,+50.062,-19.375,+34.625,13, -8, -1, 2, -3, 0, 0, 2,-0.35978825312202806,1.0400848851379447
1503523928000,+0.071,+0.241,-0.452,-0.856,+0.838,-0.336,-0.411,+50.188,-20.688,+35.188,3, 9, -6, 2, 7, -7, -7, -2,-0.3705154503193951,1.0391560927948957
1503523928016,+0.070,+0.251,-0.447,-0.856,+0.812,-0.335,-0.422,+51.688,-18.438,+35.438,6, -2, 3, 0, 13, 6, 12, 8,-0.37906390669176526,1.0357797482406144
1503523928038,+0.070,+0.261,-0.442,-0.855,+0.820,-0.375,-0.417,+52.312,-19.188,+34.688,-23, -7, 0, 4, 4, -3, -6, -9,-0.3893991660765649,1.032593928240298
1503523928060,+0.070,+0.270,-0.437,-0.855,+0.791,-0.401,-0.405,+50.375,-17.938,+35.250,-22, -22, 6, -5, -6, -4, -6, -1,-0.3986664445134342,1.0292349616693506
1503523928077,+0.068,+0.280,-0.433,-0.854,+0.784,-0.430,-0.385,+47.500,-12.750,+36.750,-15, -5, -9, -3, -2, -2, -6, 3,-0.40612299354269626,1.0288317349632627
1503523928098,+0.066,+0.290,-0.430,-0.852,+0.780,-0.428,-0.399,+46.500,-6.500,+38.250,-18, -6, -3, -2, -1, -4, 4, -2,-0.4142068465455637,1.0309492363072443
1503523928120,+0.064,+0.299,-0.427,-0.851,+0.784,-0.455,-0.374,+45.375,-5.812,+37.500,24, 8, -5, -3, -4, -7, 5, 1,-0.4212379457075426,1.0327596123318936
1503523928136,+0.062,+0.308,-0.424,-0.849,+0.800,-0.482,-0.372,+44.000,-8.312,+36.938,44, 4, 0, -3, -7, -3, -6, -9,-0.4283290644735135,1.0344274530342978
1503523928158,+0.061,+0.317,-0.421,-0.848,+0.771,-0.495,-0.371,+41.062,-9.125,+34.500,5, 8, -2, 1, -1, 3, -1, -4,-0.4376287984613327,1.0373159959462048
1503523933979,+0.142,+0.151,-0.522,-0.828,+0.910,-0.115,-0.355,-10.000,-14.438,-1.875,2, 2, 2, 0, 2, 0, 0, 3,-0.4058634262775997,1.1469000391709698
1503523934001,+0.141,+0.148,-0.520,-0.829,+0.916,-0.084,-0.363,-12.500,-12.000,+0.188,-2, 3, -7, -3, -1, -3, -1, 4,-0.4002199392872193,1.1400230368853024
1503523934024,+0.141,+0.146,-0.518,-0.831,+0.921,-0.058,-0.395,-9.750,-13.625,-1.375,6, 9, 13, -2, 0, -1, -1, -1,-0.3978164762130097,1.134400771530647
1503523934039,+0.141,+0.144,-0.517,-0.832,+0.909,-0.086,-0.371,-8.812,-13.750,-3.125,11, -3, -5, -2, -4, -3, -5, -17,-0.39544090212818844,1.1309547061944623
1503523934061,+0.141,+0.142,-0.515,-0.833,+0.917,-0.082,-0.390,-8.500,-13.062,-1.688,-11, -19, -4, 2, 1, 1, 0, 4,-0.3928167311028525,1.1249377807102527
1503523934084,+0.140,+0.141,-0.514,-0.834,+0.919,-0.073,-0.379,-8.938,-10.688,+0.438,-28, -38, -10, -3, 0, 1, 1, 1,-0.38987999642809185,1.1220385861062778
1503523934105,+0.140,+0.139,-0.513,-0.836,+0.945,-0.082,-0.383,-8.062,-13.312,+0.750,-30, 7, 0, -3, -2, -1, 0, 0,-0.3878054087023858,1.119092509993883
1503523934121,+0.140,+0.138,-0.511,-0.837,+0.933,-0.073,-0.417,-5.438,-13.188,-0.312,9, 22, -2, -1, -4, -3, 1, 6,-0.386388846424046,1.1137534091270085
