Timestamp,Orientation X,Orientation Y,Orientation Z,Orientation W,Accelerometer X,Accelerometer Y,Accelerometer Z,Gyroscope X,Gyroscope Y,Gyroscope Z,EMG1,EMG2,EMG3,EMG4,EMG5,EMG6,EMG7,EMG8,Roll,Yaw
1503618071649,-0.200,-0.036,+0.432,+0.879,+0.748,+0.127,-0.591,-6.250,-8.250,+5.188,9, 6, 4, 4, 3, -2, -5, 4,-0.39520961726896847,0.8920691790279122
1503618071671,-0.199,-0.035,+0.431,+0.880,+0.742,+0.111,-0.610,-6.250,-6.812,+3.375,-5, -12, -7, -6, -3, -2, -7, -8,-0.39271562887569694,0.8897443698420824
1503618071694,-0.199,-0.034,+0.431,+0.880,+0.787,+0.121,-0.600,-7.188,+0.938,+2.688,2, 0, -3, 2, -1, -3, 6, -2,-0.391861154862051,0.889384443027322
1503618071710,-0.197,-0.033,+0.432,+0.880,+0.829,+0.105,-0.565,-9.000,+1.562,+2.875,9, -4, 0, 1, -1, -2, 3, 21,-0.38718704141270294,0.8914077453125924
1503618071733,-0.197,-0.032,+0.431,+0.880,+0.801,+0.132,-0.591,-7.062,-4.438,+0.688,-4, -16, -4, 0, 1, 3, 5, 3,-0.38627274253230476,0.888592259407638
1503618071754,-0.197,-0.031,+0.430,+0.880,+0.750,+0.144,-0.596,-3.875,-4.812,-0.375,0, 0, 0, -1, -2, -3, -5, -3,-0.3853632670548312,0.8857801674321246
1503618071769,-0.197,-0.031,+0.430,+0.880,+0.728,+0.131,-0.621,+0.312,+1.500,+0.375,-20, -6, -2, 0, -2, -1, -6, 0,-0.3853632670548312,0.8857801674321246
1503618071791,-0.198,-0.032,+0.431,+0.880,+0.755,+0.121,-0.608,+1.000,+8.000,+0.562,6, 9, 3, 2, 4, 7, 1, -2,-0.3882133593736345,0.8886328722345167
1503618071814,-0.198,-0.032,+0.432,+0.879,+0.780,+0.126,-0.587,+1.500,+10.250,+0.625,0, 0, 3, -1, -1, -2, 1, -7,-0.3879040060103943,0.8905505668033997
1503618071830,-0.198,-0.033,+0.433,+0.879,+0.807,+0.128,-0.572,+2.000,+8.500,+1.125,0, -4, -6, -3, -2, -2, -4, -9,-0.38881996582992573,0.8933691463592257
1503618071852,-0.197,-0.034,+0.435,+0.878,+0.838,+0.112,-0.549,+0.812,+8.812,+2.250,-2, -5, -1, -4, -3, -3, 0, -7,-0.3874988598124518,0.8980722814246467
1503618071874,-0.197,-0.035,+0.436,+0.877,+0.846,+0.118,-0.547,-0.312,+2.250,+2.312,2, -1, -2, -2, 0, -1, -1, 2,-0.3880599875651502,0.9003536230458826
1503618071890,-0.197,-0.035,+0.436,+0.878,+0.824,+0.123,-0.545,+0.688,-4.000,+2.750,0, -1, 0, 1, -1, -3, 4, 0,-0.3884269014497535,0.90089853904511
1503618071911,-0.197,-0.035,+0.434,+0.878,+0.814,+0.117,-0.563,+1.438,-11.000,+3.250,0, -5, -3, -3, -1, 2, 1, 3,-0.38829653857120133,0.8959588865083628
1503618071934,-0.196,-0.035,+0.432,+0.879,+0.819,+0.115,-0.570,+1.188,-14.125,+2.750,-3, -4, -1, -1, -1, -1, -3, -2,-0.38659685763224816,0.8915283682519834
1503618071949,-0.196,-0.035,+0.430,+0.880,+0.806,+0.115,-0.588,+0.875,-14.062,+2.875,2, 1, 0, 0, -1, 0, 0, 1,-0.3868316260294254,0.8871502833708519
1503618071972,-0.197,-0.034,+0.427,+0.882,+0.787,+0.142,-0.606,-0.312,-19.312,+0.250,3, 4, 1, 0, -1, -1, -1, 0,-0.38845997667390875,0.880557759697271
1503618071997,-0.197,-0.034,+0.425,+0.883,+0.770,+0.102,-0.604,+1.250,-15.688,+2.062,-2, -1, -2, 1, 1, 3, -3, 1,-0.38870013787654284,0.8761999536380607
1503618072010,-0.197,-0.034,+0.422,+0.884,+0.759,+0.100,-0.618,-1.188,-14.500,+1.000,-2, -2, -1, -1, -3, 0, 1, -1,-0.388876970578629,0.8694048350939777
1503618072033,-0.196,-0.033,+0.420,+0.885,+0.767,+0.114,-0.631,-2.750,-11.875,+1.125,4, 0, 0, 0, 1, -4, -6, 5,-0.3863372148213145,0.8646646798502036
1503618072054,-0.196,-0.033,+0.419,+0.886,+0.754,+0.105,-0.627,-2.500,-4.812,+0.812,-3, -4, 0, -2, -1, -1, 1, -2,-0.38664088911953237,0.8627725832951407
1503618072070,-0.196,-0.033,+0.418,+0.886,+0.754,+0.120,-0.618,-2.125,-6.500,+1.688,-1, -2, -3, -2, -1, -1, 1, 3,-0.38657941510674526,0.8603342930949466
1503618072092,-0.196,-0.033,+0.417,+0.887,+0.751,+0.112,-0.616,-0.938,-3.812,+1.312,-2, 2, 1, 0, -1, -2, 3, -2,-0.3868830295341821,0.858446269316817
1503618072114,-0.196,-0.033,+0.417,+0.887,+0.771,+0.109,-0.613,-1.625,-3.250,+0.188,-3, -2, 0, 1, -1, -1, -1, -3,-0.3868830295341821,0.858446269316817
1503618072130,-0.196,-0.032,+0.416,+0.887,+0.775,+0.118,-0.622,-0.875,-2.625,+0.062,-1, -1, 1, -2, 1, -1, 1, 2,-0.3859972808960404,0.8556547382319487
1503618072151,-0.196,-0.032,+0.416,+0.887,+0.755,+0.115,-0.613,-0.312,-0.375,+0.688,2, -1, -2, -1, -1, -2, -1, -1,-0.3859972808960404,0.8556547382319487
1503618072174,-0.196,-0.032,+0.416,+0.887,+0.755,+0.115,-0.608,+0.375,-1.375,-0.125,-2, -2, -1, -1, -1, -2, 0, 7,-0.3859972808960404,0.8556547382319487
1503618072190,-0.196,-0.033,+0.416,+0.887,+0.772,+0.112,-0.611,+0.312,+0.562,+0.375,1, -3, -2, -1, -2, 1, 2, 1,-0.38682156764428566,0.8560119730857247
1503618072211,-0.197,-0.033,+0.416,+0.887,+0.777,+0.110,-0.601,+1.500,-0.375,+1.000,-1, 0, -1, -2, -1, -2, -1, -3,-0.38877190797255784,0.8560554794676843
1503618072235,-0.197,-0.034,+0.416,+0.887,+0.776,+0.113,-0.619,+1.875,+1.250,-0.250,-1, -2, -1, -2, -1, -1, 0, -4,-0.3895970663275453,0.8564168917682128
1503618072250,-0.197,-0.034,+0.416,+0.887,+0.761,+0.113,-0.608,+1.312,+2.625,+0.438,-5, -10, -5, -2, -6, 2, -1, -11,-0.3895970663275453,0.8564168917682128
1503618072273,-0.197,-0.034,+0.416,+0.887,+0.783,+0.107,-0.597,+1.000,-0.438,+0.500,21, 5, -1, -1, -2, -8, -1, -4,-0.3895970663275453,0.8564168917682128
1503618072294,-0.197,-0.035,+0.416,+0.887,+0.804,+0.112,-0.607,+0.375,-4.812,+0.688,-4, -1, 0, 1, 0, 2, 3, 2,-0.39042343636792326,0.8567811904529959
1503618072309,-0.197,-0.035,+0.415,+0.888,+0.775,+0.104,-0.617,-0.500,-5.750,+0.500,-3, -1, -1, -2, 0, 0, -3, 1,-0.3907245859295229,0.8548977806123409
1503618072331,-0.197,-0.034,+0.414,+0.888,+0.760,+0.113,-0.625,-0.688,-6.938,+0.188,2, -2, -4, -3, -2, 0, -1, 2,-0.38983700369427915,0.8521036509402401
1503618072354,-0.197,-0.034,+0.413,+0.888,+0.746,+0.108,-0.624,-0.688,-4.812,+0.438,3, -2, -1, 1, 0, -1, -4, 2,-0.3897737689779625,0.8496758970990832
1503618072370,-0.197,-0.034,+0.412,+0.889,+0.748,+0.111,-0.633,-0.312,-3.750,+0.562,1, -3, 0, -1, 1, -2, 0, 2,-0.3900768937634625,0.8477983512906743
1503618072391,-0.197,-0.034,+0.412,+0.889,+0.761,+0.102,-0.627,-1.312,-1.250,+0.500,2, 0, 0, -4, -2, -4, -2, 2,-0.3900768937634625,0.8477983512906743
1503618072414,-0.197,-0.034,+0.412,+0.889,+0.760,+0.111,-0.629,-1.375,+0.375,+0.312,0, -1, -2, -1, -1, 0, 1, 4,-0.3900768937634625,0.8477983512906743
1503618072431,-0.197,-0.034,+0.412,+0.889,+0.762,+0.104,-0.623,-1.375,+1.062,+0.438,1, -2, 1, -1, -1, 0, -3, 1,-0.3900768937634625,0.8477983512906743
1503618072451,-0.197,-0.034,+0.412,+0.889,+0.765,+0.108,-0.619,-1.125,+2.750,+0.125,0, 0, -3, 0, -1, -1, 0, 2,-0.3900768937634625,0.8477983512906743
1503618072474,-0.197,-0.034,+0.413,+0.888,+0.774,+0.112,-0.611,-1.000,+1.312,+0.438,-4, -2, -2, -1, -2, 0, 2, -3,-0.3897737689779625,0.8496758970990832
1503618072490,-0.197,-0.034,+0.413,+0.888,+0.774,+0.107,-0.610,-0.625,+0.125,+0.625,2, 1, 1, 2, -1, -3, 2, 2,-0.3897737689779625,0.8496758970990832
1503618072511,-0.197,-0.034,+0.413,+0.889,+0.773,+0.111,-0.614,-0.375,-1.375,+0.562,0, -1, -1, -2, 0, 0, -2, 1,-0.3901401127258713,0.8502239561897138
1503618072542,-0.197,-0.034,+0.412,+0.889,+0.773,+0.111,-0.615,-0.250,-2.562,+0.625,0, -1, -3, -1, -1, -2, 0, 0,-0.3900768937634625,0.8477983512906743
1503618072557,-0.197,-0.035,+0.412,+0.889,+0.763,+0.105,-0.616,-0.188,-2.625,+0.750,0, -2, -1, 1, 0, 0, 1, -1,-0.39089557588518253,0.8481643373320993
1503618072572,-0.198,-0.035,+0.411,+0.889,+0.770,+0.107,-0.620,-0.500,-3.438,+0.500,-1, -1, -1, -2, -1, -1, 0, -2,-0.3927853659877086,0.8457878130887113
1503618072594,-0.198,-0.034,+0.411,+0.889,+0.763,+0.113,-0.632,-0.750,-1.938,+0.438,0, -2, 2, -1, -1, 0, -1, -1,-0.3919688321761881,0.8454199365291936
1503618072609,-0.198,-0.034,+0.411,+0.889,+0.758,+0.104,-0.621,-0.875,-0.375,+0.938,-2, -1, -3, -1, -1, 0, 1, 0,-0.3919688321761881,0.8454199365291936
1503618072634,-0.198,-0.034,+0.411,+0.889,+0.751,+0.110,-0.628,-0.688,-0.250,-0.125,-3, 1, 1, 0, 0, 0, -4, -6,-0.3919688321761881,0.8454199365291936
1503618072654,-0.198,-0.035,+0.411,+0.889,+0.759,+0.115,-0.623,-0.375,+1.562,+0.688,1, -1, -1, 0, -1, -1, -2, 1,-0.3927853659877086,0.8457878130887113
1503618072670,-0.198,-0.035,+0.411,+0.889,+0.763,+0.107,-0.622,+0.250,+2.188,+1.312,-3, -3, 1, 1, 0, -1, 0, -2,-0.3927853659877086,0.8457878130887113
1503618072691,-0.197,-0.035,+0.411,+0.889,+0.771,+0.093,-0.621,-0.312,+0.938,+1.062,1, -2, -1, -1, -1, -2, 0, 0,-0.3908305281978743,0.8457411490858356
1503618072714,-0.197,-0.035,+0.412,+0.889,+0.772,+0.106,-0.615,-0.938,+1.562,+0.375,-1, -2, -3, 0, 1, -1, 1, 2,-0.39089557588518253,0.8481643373320993
1503618072729,-0.197,-0.035,+0.412,+0.889,+0.767,+0.109,-0.610,-0.688,-0.188,+0.750,0, 0, 0, -2, -1, 1, 2, 0,-0.39089557588518253,0.8481643373320993
1503618072751,-0.197,-0.035,+0.412,+0.889,+0.775,+0.107,-0.619,-0.375,-0.688,+1.062,-1, 2, 0, -1, -1, 0, -5, -2,-0.39089557588518253,0.8481643373320993
1503618072775,-0.197,-0.036,+0.412,+0.889,+0.770,+0.102,-0.608,-0.500,-1.938,+0.875,0, 1, -2, -1, -2, 0, -1, -1,-0.3917154858818197,0.8485331888163641
1503618072790,-0.197,-0.036,+0.411,+0.889,+0.767,+0.095,-0.622,-0.938,-2.750,+0.688,1, 1, 0, -2, -1, 1, 0, 3,-0.3916486145631697,0.8461105805832808
1503618072812,-0.197,-0.036,+0.411,+0.889,+0.762,+0.107,-0.630,-1.312,-1.312,+0.312,-1, -2, 0, 0, 0, -3, 1, 2,-0.3916486145631697,0.8461105805832808
1503618072834,-0.197,-0.036,+0.411,+0.889,+0.754,+0.103,-0.623,-1.375,-1.188,+0.500,0, -2, -2, -1, -2, -2, -3, -2,-0.3916486145631697,0.8461105805832808
1503618072850,-0.197,-0.036,+0.411,+0.889,+0.757,+0.108,-0.629,-1.375,-0.625,+0.375,0, -2, -1, -1, -3, 2, -1, 0,-0.3916486145631697,0.8461105805832808
1503618072872,-0.197,-0.036,+0.411,+0.889,+0.763,+0.113,-0.625,-1.375,+0.000,+0.438,-1, -2, -1, 0, 0, -1, 0, -3,-0.3916486145631697,0.8461105805832808
1503618072894,-0.197,-0.036,+0.411,+0.889,+0.766,+0.103,-0.619,-0.750,-0.062,+0.688,-1, -1, 0, -1, 0, -3, 0, -1,-0.3916486145631697,0.8461105805832808
1503618072910,-0.197,-0.036,+0.411,+0.889,+0.763,+0.104,-0.625,-1.250,-0.062,+0.438,0, 0, -2, 0, 0, -1, -2, -2,-0.3916486145631697,0.8461105805832808
1503618072932,-0.197,-0.036,+0.411,+0.889,+0.763,+0.109,-0.620,-0.812,-0.438,+0.438,-2, -2, -1, 0, 0, 0, 0, -2,-0.3916486145631697,0.8461105805832808
1503618072954,-0.197,-0.036,+0.411,+0.889,+0.766,+0.103,-0.617,-0.812,-0.688,+0.375,-1, -1, -1, -1, 0, -2, -1, -3,-0.3916486145631697,0.8461105805832808
1503618072971,-0.197,-0.036,+0.411,+0.889,+0.768,+0.100,-0.621,-1.000,-1.125,+0.125,-1, 1, 0, 0, -1, 1, -1, 1,-0.3916486145631697,0.8461105805832808
1503618072992,-0.197,-0.036,+0.411,+0.889,+0.766,+0.107,-0.623,-0.938,-1.000,-0.062,-3, 0, -1, 0, -2, -2, -1, 0,-0.3916486145631697,0.8461105805832808
1503618073014,-0.197,-0.036,+0.411,+0.889,+0.759,+0.110,-0.620,-0.625,-1.375,+0.062,0, -1, -1, -2, 0, 0, 0, -1,-0.3916486145631697,0.8461105805832808
1503618073030,-0.197,-0.036,+0.411,+0.889,+0.765,+0.107,-0.618,-0.688,-1.000,+0.062,1, 0, 1, 0, 0, -1, 1, -2,-0.3916486145631697,0.8461105805832808
1503618073052,-0.198,-0.036,+0.410,+0.890,+0.765,+0.107,-0.625,-0.375,-1.938,-0.125,-3, -1, -1, -1, -2, -1, 0, -1,-0.39390379751305976,0.8442854710039983
1503618073075,-0.198,-0.036,+0.410,+0.890,+0.766,+0.105,-0.625,-0.438,-1.000,-0.062,-1, -3, -2, 1, 0, 1, -1, 0,-0.39390379751305976,0.8442854710039983
1503618073090,-0.198,-0.036,+0.410,+0.890,+0.757,+0.104,-0.625,-0.312,-1.062,-0.125,0, -1, -1, 0, -1, -1, 0, 0,-0.39390379751305976,0.8442854710039983
1503618073112,-0.198,-0.036,+0.410,+0.890,+0.769,+0.100,-0.623,-0.688,-1.188,-0.062,0, -1, -2, 0, -1, 0, -2, 1,-0.39390379751305976,0.8442854710039983
1503618073136,-0.198,-0.036,+0.410,+0.890,+0.758,+0.107,-0.624,-0.562,-0.250,+0.000,1, 0, 0, -1, -1, 0, 0, 1,-0.39390379751305976,0.8442854710039983
1503618073150,-0.198,-0.036,+0.410,+0.890,+0.757,+0.108,-0.628,-0.500,-0.812,+0.188,-1, 0, 0, -3, 0, -1, -2, 2,-0.39390379751305976,0.8442854710039983
1503618073172,-0.198,-0.036,+0.410,+0.890,+0.762,+0.111,-0.627,-0.750,+0.125,+0.000,0, -1, -1, -1, -2, -2, 0, -1,-0.39390379751305976,0.8442854710039983
1503618073194,-0.198,-0.036,+0.410,+0.890,+0.764,+0.104,-0.624,-0.500,+0.000,+0.062,-3, 0, 0, -1, 0, -2, -1, -5,-0.39390379751305976,0.8442854710039983
1503618073212,-0.198,-0.036,+0.410,+0.890,+0.770,+0.105,-0.621,-0.250,-1.438,-0.312,-2, 0, -2, 0, -1, 0, 0, 0,-0.39390379751305976,0.8442854710039983
1503618073232,-0.198,-0.036,+0.410,+0.890,+0.765,+0.103,-0.628,-0.688,-0.875,-0.625,0, 0, 0, 0, -1, 0, -2, -2,-0.39390379751305976,0.8442854710039983
1503618073254,-0.198,-0.036,+0.410,+0.890,+0.755,+0.106,-0.622,-0.750,-1.250,-0.500,0, -3, -1, -1, -2, 0, 0, 0,-0.39390379751305976,0.8442854710039983
1503618073271,-0.198,-0.036,+0.410,+0.890,+0.766,+0.106,-0.631,-0.812,-1.812,-0.312,-1, -1, -3, -1, 0, -1, -3, -1,-0.39390379751305976,0.8442854710039983
1503618073292,-0.198,-0.036,+0.410,+0.890,+0.760,+0.105,-0.631,-1.062,-0.875,-0.250,-1, 0, 0, -2, -1, -2, -2, -1,-0.39390379751305976,0.8442854710039983
1503618073314,-0.198,-0.035,+0.409,+0.890,+0.761,+0.108,-0.622,-1.125,-1.625,-0.312,0, 0, -1, -1, 0, -3, -1, -1,-0.3930230577984252,0.8414954106298485
1503618073330,-0.198,-0.035,+0.409,+0.890,+0.758,+0.104,-0.631,-1.000,-0.625,-0.188,-1, 0, 0, -1, -1, 0, 0, -1,-0.3930230577984252,0.8414954106298485
1503618073352,-0.198,-0.035,+0.409,+0.890,+0.759,+0.101,-0.625,-1.312,-0.562,+0.062,-1, 0, -2, -1, -1, -2, -1, -2,-0.3930230577984252,0.8414954106298485
1503618073375,-0.198,-0.035,+0.409,+0.890,+0.763,+0.109,-0.624,-0.875,-0.938,-0.250,-1, -1, -1, -1, 0, -3, 1, 0,-0.3930230577984252,0.8414954106298485
1503618073390,-0.198,-0.035,+0.409,+0.890,+0.765,+0.101,-0.625,-0.875,-1.188,-0.062,1, -2, -1, 0, -2, 2, -3, -3,-0.3930230577984252,0.8414954106298485
1503618073413,-0.198,-0.035,+0.409,+0.890,+0.762,+0.101,-0.634,-0.812,-1.750,-0.125,-1, 0, 0, 0, -1, 0, 1, 1,-0.3930230577984252,0.8414954106298485
1503618073434,-0.198,-0.035,+0.409,+0.890,+0.761,+0.109,-0.626,-1.062,-1.688,-0.375,-1, -3, -1, -1, -1, 0, -2, 0,-0.3930230577984252,0.8414954106298485
1503618073450,-0.198,-0.035,+0.408,+0.890,+0.761,+0.102,-0.631,-1.188,-1.938,-0.188,-1, 0, 0, 0, -1, -1, -2, -4,-0.3929580685959875,0.8390781715139857
1503618073472,-0.198,-0.035,+0.408,+0.891,+0.762,+0.105,-0.635,-1.312,-2.000,-0.125,-1, -1, -2, 0, -1, 0, 0, -1,-0.39332567566255205,0.8396259399783004
1503618073495,-0.198,-0.035,+0.408,+0.891,+0.762,+0.109,-0.637,-2.938,-1.375,+0.812,0, 0, -1, -3, -1, 1, -4, -3,-0.39332567566255205,0.8396259399783004
1503618073510,-0.198,-0.035,+0.408,+0.891,+0.749,+0.113,-0.630,-2.125,-0.062,+0.125,0, -1, -1, -2, -1, -2, 1, 2,-0.39332567566255205,0.8396259399783004
1503618073532,-0.198,-0.034,+0.408,+0.891,+0.737,+0.113,-0.631,-1.312,+0.812,+0.188,0, -1, -1, -1, -1, -3, 1, 0,-0.39251499805385726,0.8392569898502688
1503618073554,-0.198,-0.034,+0.408,+0.891,+0.763,+0.109,-0.626,-1.000,+0.875,-0.062,-1, -1, -1, -1, -1, 0, -1, 1,-0.39251499805385726,0.8392569898502688
1503618073572,-0.198,-0.034,+0.408,+0.891,+0.762,+0.111,-0.623,-1.125,+1.000,-0.062,0, 1, -2, 1, -1, -2, 0, 0,-0.39251499805385726,0.8392569898502688
1503618073592,-0.198,-0.034,+0.408,+0.891,+0.756,+0.111,-0.622,-0.625,-0.125,+0.250,1, -1, -2, 0, 0, 1, -2, 1,-0.39251499805385726,0.8392569898502688
1503618073614,-0.198,-0.034,+0.408,+0.891,+0.760,+0.105,-0.625,-0.375,-1.562,+0.125,-1, -1, 0, 0, -2, 1, 0, 1,-0.39251499805385726,0.8392569898502688
1503618073630,-0.198,-0.034,+0.408,+0.891,+0.761,+0.104,-0.628,-0.500,-1.250,-0.125,0, -1, -1, -1, -1, -3, -2, -2,-0.39251499805385726,0.8392569898502688
1503618073652,-0.198,-0.034,+0.407,+0.891,+0.764,+0.104,-0.623,-0.938,-1.688,+0.000,0, -2, 0, -2, -1, -3, 0, -1,-0.3924518486349082,0.8368412833733888
1503618073677,-0.199,-0.034,+0.407,+0.891,+0.761,+0.109,-0.629,-0.688,-2.875,-0.188,-4, 0, 0, 1, 0, 1, -2, -7,-0.3944120981811065,0.8368870621034628
1503618073690,-0.199,-0.034,+0.407,+0.891,+0.756,+0.106,-0.632,-0.938,-2.500,-0.375,0, -2, -1, -2, -2, -2, 0, 2,-0.3944120981811065,0.8368870621034628
1503618073712,-0.199,-0.034,+0.406,+0.891,+0.760,+0.111,-0.632,-0.812,-2.438,-0.312,1, -1, 0, -2, -1, 0, -2, 0,-0.3943489936324752,0.8344733442415818
1503618073735,-0.199,-0.034,+0.406,+0.891,+0.752,+0.106,-0.629,-1.000,-1.562,-0.250,-2, 0, -1, -1, -2, -2, 0, -1,-0.3943489936324752,0.8344733442415818
1503618073750,-0.199,-0.034,+0.406,+0.891,+0.754,+0.108,-0.631,-1.125,-1.938,-0.438,-3, -2, -1, -2, 1, 0, -3, -2,-0.3943489936324752,0.8344733442415818
1503618073773,-0.199,-0.034,+0.405,+0.891,+0.753,+0.115,-0.634,-1.000,-1.750,-0.625,-1, -1, 0, 1, -3, -1, -1, 2,-0.3942858857693149,0.8320614914082749
1503618073795,-0.199,-0.034,+0.405,+0.892,+0.750,+0.108,-0.632,-0.938,-1.375,-0.250,0, -1, -1, -1, 0, -1, -1, -1,-0.3946552053028569,0.8326096032128828
1503618073812,-0.200,-0.034,+0.405,+0.892,+0.755,+0.112,-0.634,-1.000,-1.812,-0.125,-1, -1, 0, 1, 0, 0, -2, 0,-0.3966188647203614,0.8326555875117033
1503618073832,-0.200,-0.034,+0.405,+0.892,+0.753,+0.108,-0.636,-1.250,-1.125,-0.375,-1, -2, 0, -2, -1, -1, -1, -2,-0.3966188647203614,0.8326555875117033
1503618073854,-0.200,-0.034,+0.405,+0.892,+0.750,+0.111,-0.637,-1.375,-0.875,+0.062,-1, -1, -1, -2, -1, -2, -1, 1,-0.3966188647203614,0.8326555875117033
1503618073870,-0.200,-0.034,+0.405,+0.892,+0.751,+0.110,-0.627,-1.000,-0.750,+0.188,1, 0, -2, -2, 0, -2, -1, 1,-0.3966188647203614,0.8326555875117033
1503618073892,-0.200,-0.033,+0.404,+0.892,+0.758,+0.108,-0.638,-1.188,-1.562,-0.125,-1, -1, -1, -2, 0, -1, -2, -1,-0.3957545269288047,0.8298752111182981
1503618073915,-0.200,-0.033,+0.404,+0.892,+0.758,+0.115,-0.635,-1.312,-1.312,-0.188,-1, 0, -1, 1, -2, -1, 1, 0,-0.3957545269288047,0.8298752111182981
1503618073930,-0.200,-0.033,+0.404,+0.892,+0.746,+0.111,-0.628,-1.312,-0.812,+0.250,0, 1, 1, 0, -1, -1, 0, -3,-0.3957545269288047,0.8298752111182981
1503618073952,-0.200,-0.033,+0.404,+0.892,+0.749,+0.107,-0.629,-1.375,-1.250,+0.188,-1, -2, -1, -1, -1, -1, 3, 2,-0.3957545269288047,0.8298752111182981
1503618073975,-0.200,-0.033,+0.404,+0.892,+0.747,+0.111,-0.641,-1.125,+0.188,+0.000,-2, 0, -1, -1, 1, 0, 0, 1,-0.3957545269288047,0.8298752111182981
1503618073996,-0.200,-0.033,+0.404,+0.892,+0.752,+0.109,-0.629,-1.188,+0.625,+0.688,0, -2, -2, -1, -2, -1, 0, -1,-0.3957545269288047,0.8298752111182981
1503618074013,-0.200,-0.033,+0.404,+0.892,+0.759,+0.106,-0.632,-1.062,+0.250,+0.500,0, 0, 0, -1, -2, -1, -1, -1,-0.3957545269288047,0.8298752111182981
1503618074035,-0.200,-0.033,+0.404,+0.892,+0.748,+0.114,-0.629,-0.938,+0.562,+0.125,-1, -1, -2, 0, -1, 0, -1, 0,-0.3957545269288047,0.8298752111182981
1503618074056,-0.200,-0.033,+0.404,+0.892,+0.754,+0.111,-0.634,-0.688,+0.062,+0.750,-3, -1, 0, -2, -1, 0, -2, -1,-0.3957545269288047,0.8298752111182981
1503618074074,-0.200,-0.033,+0.404,+0.892,+0.755,+0.108,-0.634,-0.688,-0.125,+0.375,0, -1, -2, 0, -2, 0, 0, -1,-0.3957545269288047,0.8298752111182981
1503618074095,-0.200,-0.033,+0.404,+0.892,+0.754,+0.110,-0.635,-0.812,+0.062,+0.125,0, 0, 0, 1, -1, -1, 0, 4,-0.3957545269288047,0.8298752111182981
1503618074117,-0.200,-0.033,+0.404,+0.892,+0.759,+0.110,-0.631,-0.875,-0.625,+0.375,-1, -1, -1, 0, 1, 0, 0, -1,-0.3957545269288047,0.8298752111182981
1503618074132,-0.200,-0.033,+0.404,+0.892,+0.758,+0.108,-0.627,-0.875,-0.375,-0.312,0, 0, -1, -2, -2, -3, -2, 1,-0.3957545269288047,0.8298752111182981
1503618074154,-0.200,-0.033,+0.404,+0.892,+0.751,+0.110,-0.630,-0.875,-0.500,-0.250,0, 0, 0, -2, 0, -1, -2, -2,-0.3957545269288047,0.8298752111182981
1503618074177,-0.200,-0.033,+0.404,+0.892,+0.752,+0.111,-0.637,-0.938,-0.688,+0.188,1, -2, -2, -2, 0, 0, -2, 0,-0.3957545269288047,0.8298752111182981
1503618074192,-0.200,-0.033,+0.404,+0.892,+0.751,+0.110,-0.640,-0.875,-0.562,-0.125,-2, -1, -2, -1, -1, -2, 1, 1,-0.3957545269288047,0.8298752111182981
1503618074215,-0.200,-0.033,+0.404,+0.892,+0.750,+0.111,-0.635,-1.000,+0.250,+0.250,-1, 0, 0, -1, -2, 0, -2, -2,-0.3957545269288047,0.8298752111182981
1503618074236,-0.200,-0.033,+0.404,+0.892,+0.755,+0.111,-0.634,-0.875,+0.062,+0.250,-1, -1, -1, -1, -1, -1, 0, -3,-0.3957545269288047,0.8298752111182981
1503618074252,-0.200,-0.033,+0.404,+0.892,+0.757,+0.109,-0.638,-0.938,-0.562,+0.125,-2, 0, 0, 0, -1, -4, -3, 0,-0.3957545269288047,0.8298752111182981
1503618074276,-0.200,-0.033,+0.404,+0.892,+0.758,+0.113,-0.630,-0.875,+0.000,+0.250,-1, 0, -1, -1, -1, -1, -1, -1,-0.3957545269288047,0.8298752111182981
1503618074296,-0.200,-0.033,+0.404,+0.892,+0.753,+0.112,-0.630,-0.625,-1.188,+0.250,-1, -1, 0, 0, -2, -1, 0, 0,-0.3957545269288047,0.8298752111182981
1503618074312,-0.200,-0.033,+0.404,+0.892,+0.750,+0.107,-0.639,-0.625,-2.250,+0.312,-1, -2, -1, -1, 0, -1, 0, 2,-0.3957545269288047,0.8298752111182981
1503618074334,-0.200,-0.033,+0.404,+0.892,+0.750,+0.106,-0.640,-1.000,-0.812,+0.250,0, 0, 1, -1, -1, 1, 0, 0,-0.3957545269288047,0.8298752111182981
1503618074356,-0.200,-0.033,+0.404,+0.892,+0.746,+0.112,-0.638,-1.125,-0.562,+0.188,0, 0, 1, 0, -1, 0, -1, -2,-0.3957545269288047,0.8298752111182981
1503618074372,-0.200,-0.033,+0.404,+0.892,+0.750,+0.111,-0.636,-1.188,-0.875,+0.250,-1, -2, -1, 0, -2, -1, -1, 0,-0.3957545269288047,0.8298752111182981
1503618074394,-0.200,-0.033,+0.404,+0.892,+0.754,+0.105,-0.642,-1.188,-0.500,+0.188,0, -1, -3, -1, 0, -1, -1, 0,-0.3957545269288047,0.8298752111182981
1503618074417,-0.200,-0.033,+0.404,+0.892,+0.755,+0.115,-0.634,-1.125,-0.250,+0.125,0, 0, 0, 1, -1, -1, -1, -1,-0.3957545269288047,0.8298752111182981
1503618074432,-0.200,-0.033,+0.404,+0.892,+0.750,+0.111,-0.628,-1.125,-0.375,+0.062,0, 1, 0, 0, 0, 0, 0, -2,-0.3957545269288047,0.8298752111182981
1503618074454,-0.200,-0.033,+0.404,+0.892,+0.749,+0.111,-0.630,-1.062,-0.750,+0.375,0, -2, -1, -1, 0, -1, -1, -1,-0.3957545269288047,0.8298752111182981
1503618074476,-0.200,-0.033,+0.403,+0.892,+0.751,+0.107,-0.632,-1.062,-1.500,+0.500,-1, -1, -2, -1, -2, -1, -2, -1,-0.39569330271372805,0.8274668753187867
1503618074492,-0.200,-0.033,+0.403,+0.892,+0.749,+0.108,-0.634,-1.125,-1.250,+0.625,0, 0, -1, -1, -2, -2, 0, -2,-0.39569330271372805,0.8274668753187867
1503618074514,-0.200,-0.033,+0.403,+0.893,+0.751,+0.104,-0.632,-1.188,-2.312,+0.688,-2, -2, 0, -1, -1, 0, -1, -1,-0.39606431052854446,0.8280150331997911
1503618074536,-0.200,-0.033,+0.402,+0.893,+0.751,+0.106,-0.638,-1.438,-3.000,+0.062,1, -1, -1, -1, -1, -1, -2, 0,-0.3960031021654796,0.8256087743755568
1503618074552,-0.200,-0.033,+0.402,+0.893,+0.754,+0.105,-0.640,-1.375,-2.688,+0.000,-3, -2, -3, -1, 0, 2, 0, -2,-0.3960031021654796,0.8256087743755568
1503618074575,-0.200,-0.033,+0.402,+0.893,+0.752,+0.110,-0.639,-1.438,-2.750,-0.250,-2, 1, -1, 0, -2, -1, 0, 1,-0.3960031021654796,0.8256087743755568
1503618074596,-0.200,-0.033,+0.401,+0.893,+0.745,+0.118,-0.631,-1.375,-2.750,-0.625,1, -1, 1, -1, -1, -1, -1, 0,-0.39594189066953805,0.8232043959637302
1503618074613,-0.200,-0.032,+0.401,+0.893,+0.741,+0.113,-0.638,-1.250,-2.000,+0.062,0, -1, -1, 0, -1, -1, 0, -3,-0.3951475072512018,0.822835052195051
1503618074634,-0.200,-0.032,+0.401,+0.893,+0.746,+0.108,-0.640,-1.312,-1.875,+0.125,-1, -1, 0, -1, 0, 1, 0, 1,-0.3951475072512018,0.822835052195051
1503618074657,-0.200,-0.032,+0.400,+0.894,+0.745,+0.118,-0.644,-1.188,-1.562,+0.250,0, 0, -1, 0, 0, -1, 0, 1,-0.39545925947418525,0.8209803713254515
1503618074672,-0.200,-0.032,+0.400,+0.894,+0.744,+0.120,-0.644,-1.125,-1.375,+0.750,-1, -1, -3, -1, -1, -1, -1, -2,-0.39545925947418525,0.8209803713254515
1503618074695,-0.200,-0.032,+0.400,+0.894,+0.749,+0.117,-0.643,-1.000,-0.812,+0.812,1, -1, 0, -1, 0, -1, -2, 0,-0.39545925947418525,0.8209803713254515
1503618074717,-0.200,-0.032,+0.400,+0.894,+0.745,+0.113,-0.640,-1.125,+0.750,+0.938,-1, 0, -1, -2, -1, -1, -2, -2,-0.39545925947418525,0.8209803713254515
1503618074732,-0.200,-0.032,+0.400,+0.894,+0.745,+0.110,-0.642,-1.062,+0.250,+0.812,0, -1, 1, 1, -1, 0, -2, 0,-0.39545925947418525,0.8209803713254515
1503618074755,-0.200,-0.032,+0.400,+0.894,+0.749,+0.110,-0.646,-1.000,+0.438,+0.750,0, -1, -1, -1, -1, 0, -2, 0,-0.39545925947418525,0.8209803713254515
1503618074778,-0.200,-0.032,+0.400,+0.894,+0.751,+0.103,-0.637,-1.125,+0.750,+0.688,0, -1, 0, -1, 0, -2, 0, -1,-0.39545925947418525,0.8209803713254515
1503618074792,-0.200,-0.032,+0.400,+0.894,+0.749,+0.114,-0.640,-1.125,-0.812,+0.250,1, -1, 0, -1, 0, -1, 0, -1,-0.39545925947418525,0.8209803713254515
1503618074815,-0.200,-0.032,+0.400,+0.894,+0.748,+0.107,-0.639,-1.188,+0.125,+0.562,0, -1, 1, 1, -1, 0, 0, -2,-0.39545925947418525,0.8209803713254515
1503618074837,-0.200,-0.032,+0.400,+0.894,+0.756,+0.111,-0.633,-1.250,-0.375,+0.500,-3, -1, 1, -1, -1, 1, -2, -2,-0.39545925947418525,0.8209803713254515
1503618074853,-0.200,-0.032,+0.400,+0.894,+0.739,+0.112,-0.648,-1.250,-0.500,+0.250,-2, 0, -1, -2, 0, -1, 1, 0,-0.39545925947418525,0.8209803713254515
1503618074875,-0.200,-0.032,+0.400,+0.894,+0.739,+0.110,-0.643,-1.438,-0.062,+0.812,-2, -2, -1, -2, -1, -2, -2, -2,-0.39545925947418525,0.8209803713254515
1503618074897,-0.200,-0.032,+0.400,+0.894,+0.744,+0.111,-0.646,-1.312,+0.438,+0.625,0, 0, -3, -1, -1, 2, -3, 0,-0.39545925947418525,0.8209803713254515
1503618074913,-0.200,-0.032,+0.400,+0.894,+0.743,+0.112,-0.641,-1.375,+1.250,+0.750,0, 1, -1, 0, -2, 0, 0, 0,-0.39545925947418525,0.8209803713254515
1503618074935,-0.200,-0.032,+0.400,+0.894,+0.749,+0.109,-0.643,-1.250,+1.562,+0.750,-1, -2, -1, -1, -2, -1, -1, 0,-0.39545925947418525,0.8209803713254515
1503618074957,-0.200,-0.032,+0.401,+0.894,+0.751,+0.110,-0.638,-1.062,+1.250,+0.562,1, 0, 0, -1, 0, -2, -1, -3,-0.39551863165330764,0.8233832659978633
1503618074972,-0.200,-0.032,+0.401,+0.893,+0.749,+0.112,-0.638,-1.062,+1.625,+1.000,0, -1, -3, 0, -1, -1, -1, 0,-0.3951475072512018,0.822835052195051
1503618074995,-0.200,-0.032,+0.401,+0.893,+0.750,+0.109,-0.636,-1.188,+0.562,+0.938,-1, -2, -2, -1, -1, 0, -2, 1,-0.3951475072512018,0.822835052195051
1503618075017,-0.200,-0.032,+0.401,+0.893,+0.749,+0.105,-0.637,-1.125,+0.250,+1.000,-2, -1, -1, -1, 0, 1, 0, -5,-0.3951475072512018,0.822835052195051
1503618075032,-0.200,-0.032,+0.401,+0.893,+0.752,+0.108,-0.634,-1.500,+0.250,+0.688,-1, -2, 0, -2, -1, 0, -1, -1,-0.3951475072512018,0.822835052195051
1503618075055,-0.200,-0.032,+0.401,+0.893,+0.748,+0.112,-0.644,-1.312,+0.312,+0.750,-2, -1, -1, 0, 1, -2, -1, 1,-0.3951475072512018,0.822835052195051
1503618075084,-0.200,-0.032,+0.401,+0.893,+0.743,+0.107,-0.638,-1.438,+0.750,+1.250,0, -1, 0, 0, -1, 1, -2, -2,-0.3951475072512018,0.822835052195051
1503618075092,-0.200,-0.032,+0.401,+0.893,+0.747,+0.109,-0.641,-1.000,+0.125,+1.000,0, -1, -1, -1, 0, -2, -1, 1,-0.3951475072512018,0.822835052195051
1503618075115,-0.200,-0.032,+0.401,+0.893,+0.743,+0.113,-0.633,-1.250,+1.688,+1.188,-1, -1, -2, -1, 0, -3, -1, -2,-0.3951475072512018,0.822835052195051
1503618075137,-0.199,-0.033,+0.401,+0.893,+0.745,+0.111,-0.635,-0.875,+1.562,+1.188,0, -3, -2, -1, -2, -1, 0, 0,-0.39397614033973893,0.823159279507308
1503618075152,-0.199,-0.033,+0.402,+0.893,+0.753,+0.104,-0.634,-1.000,+2.062,+0.938,0, 0, 0, -2, 0, 0, 0, -1,-0.394037398983644,0.8255637850345477
1503618075175,-0.199,-0.033,+0.402,+0.893,+0.755,+0.111,-0.633,-0.688,+0.625,+0.750,0, -1, -1, 0, 0, 0, 0, -2,-0.394037398983644,0.8255637850345477
1503618075197,-0.199,-0.033,+0.402,+0.893,+0.754,+0.111,-0.632,-0.438,+0.000,+0.812,-1, 0, 0, 0, -1, 0, 1, 1,-0.394037398983644,0.8255637850345477
1503618075214,-0.199,-0.033,+0.402,+0.893,+0.753,+0.106,-0.632,-0.438,-0.750,+1.000,0, -1, 0, -2, -3, -1, -1, 0,-0.394037398983644,0.8255637850345477
1503618075235,-0.199,-0.033,+0.402,+0.893,+0.752,+0.108,-0.639,-0.688,-0.812,+0.750,-1, -2, -1, -1, -2, -2, 1, 0,-0.394037398983644,0.8255637850345477
1503618075265,-0.199,-0.033,+0.402,+0.893,+0.750,+0.108,-0.637,-0.625,-0.812,+0.938,0, -1, -1, 0, -1, -2, -1, -1,-0.394037398983644,0.8255637850345477
1503618075272,-0.199,-0.033,+0.402,+0.893,+0.744,+0.107,-0.636,-0.500,-0.750,+0.688,-2, 0, 0, 0, 1, 1, -2, -2,-0.394037398983644,0.8255637850345477
1503618075295,-0.199,-0.033,+0.402,+0.893,+0.753,+0.109,-0.637,-0.625,-0.812,+0.750,-1, 0, -1, 0, -2, 1, 0, -2,-0.394037398983644,0.8255637850345477
1503618075317,-0.199,-0.033,+0.402,+0.893,+0.749,+0.104,-0.637,-0.562,-0.438,+0.812,-2, -1, -1, -1, -2, -3, -2, -1,-0.394037398983644,0.8255637850345477
1503618075332,-0.199,-0.033,+0.402,+0.893,+0.750,+0.100,-0.639,-0.750,-0.938,+0.500,0, 0, -1, -1, -2, 0, 0, 0,-0.394037398983644,0.8255637850345477
1503618075355,-0.199,-0.033,+0.402,+0.893,+0.750,+0.109,-0.641,-1.000,+0.562,+0.375,0, -2, -1, -1, -2, 0, -4, -2,-0.394037398983644,0.8255637850345477
1503618075377,-0.199,-0.033,+0.402,+0.893,+0.752,+0.112,-0.640,-1.312,+0.688,+0.438,-1, 0, 0, -1, -2, 0, 0, -1,-0.394037398983644,0.8255637850345477
1503618075392,-0.199,-0.033,+0.402,+0.893,+0.753,+0.105,-0.637,-1.000,+0.125,+0.938,0, -1, -1, -1, 0, -1, -1, -1,-0.394037398983644,0.8255637850345477
1503618075415,-0.199,-0.033,+0.402,+0.893,+0.748,+0.108,-0.640,-1.125,+0.750,+1.000,-2, -2, -2, 0, 0, 0, -1, 1,-0.394037398983644,0.8255637850345477
1503618075437,-0.199,-0.033,+0.402,+0.893,+0.746,+0.110,-0.637,-1.250,-0.062,+0.750,-1, 0, -1, -2, 0, -1, -1, 1,-0.394037398983644,0.8255637850345477
1503618075452,-0.199,-0.033,+0.402,+0.893,+0.752,+0.111,-0.636,-0.938,+0.000,+1.000,-1, -1, -1, -2, 0, -1, -1, -2,-0.394037398983644,0.8255637850345477
1503618075475,-0.199,-0.033,+0.402,+0.893,+0.754,+0.105,-0.636,-0.750,-0.750,+0.875,0, -1, 0, -1, 0, 1, 0, 1,-0.394037398983644,0.8255637850345477
1503618075497,-0.199,-0.033,+0.402,+0.893,+0.753,+0.106,-0.635,-0.562,-0.812,+1.000,-3, 0, 1, -1, 1, -1, -3, 0,-0.394037398983644,0.8255637850345477
1503618075514,-0.199,-0.033,+0.402,+0.893,+0.745,+0.105,-0.638,-0.688,-0.875,+0.812,1, 0, 0, -1, -1, -3, -2, -2,-0.394037398983644,0.8255637850345477
1503618075535,-0.199,-0.033,+0.402,+0.893,+0.741,+0.107,-0.636,-0.750,-0.125,+0.750,0, 1, 0, -1, -3, 0, 0, -3,-0.394037398983644,0.8255637850345477
1503618075557,-0.199,-0.033,+0.402,+0.893,+0.748,+0.107,-0.636,-0.625,-0.938,+0.875,-2, 1, -1, 0, 0, -1, -1, 0,-0.394037398983644,0.8255637850345477
1503618075572,-0.199,-0.033,+0.402,+0.893,+0.756,+0.097,-0.642,-0.688,+0.062,+0.750,-1, -2, -1, -1, -1, -2, -1, -2,-0.394037398983644,0.8255637850345477
1503618075595,-0.199,-0.033,+0.401,+0.893,+0.747,+0.102,-0.641,-1.000,-0.438,+0.250,1, -1, -1, -1, 1, -1, 0, 2,-0.39397614033973893,0.823159279507308
1503618075620,-0.199,-0.033,+0.401,+0.893,+0.750,+0.103,-0.636,-1.188,-0.375,+0.062,-1, 1, 0, 0, -1, 0, 1, 0,-0.39397614033973893,0.823159279507308
1503618075632,-0.199,-0.033,+0.401,+0.893,+0.751,+0.110,-0.633,-1.062,-0.438,+0.250,-2, -2, -1, -1, -1, 0, -1, 0,-0.39397614033973893,0.823159279507308
1503618075655,-0.199,-0.033,+0.401,+0.893,+0.751,+0.108,-0.635,-0.625,-0.562,+0.500,-2, -2, -2, 0, 1, 0, -1, -3,-0.39397614033973893,0.823159279507308
1503618075676,-0.199,-0.033,+0.401,+0.893,+0.751,+0.103,-0.643,-0.750,-1.250,+0.562,-1, -2, -1, 0, -1, -1, 1, -1,-0.39397614033973893,0.823159279507308
1503618075691,-0.199,-0.033,+0.401,+0.893,+0.747,+0.100,-0.642,-1.188,-0.250,+0.688,0, -1, 0, -1, 0, 0, -1, 0,-0.39397614033973893,0.823159279507308
1503618075718,-0.199,-0.033,+0.401,+0.893,+0.745,+0.107,-0.636,-1.688,+0.625,+0.312,-1, -1, -1, -1, 0, 0, -1, 1,-0.39397614033973893,0.823159279507308
1503618075736,-0.199,-0.033,+0.402,+0.893,+0.745,+0.110,-0.635,-1.562,+1.125,+0.688,0, -2, 0, 0, -1, -3, -1, -1,-0.394037398983644,0.8255637850345477
1503618075751,-0.199,-0.033,+0.402,+0.893,+0.757,+0.106,-0.637,-1.438,+0.562,+0.938,-1, -1, 0, -2, -1, -3, -3, -1,-0.394037398983644,0.8255637850345477
1503618075774,-0.199,-0.033,+0.402,+0.893,+0.751,+0.106,-0.636,-1.000,+0.125,+0.438,-1, 1, -1, 0, -1, -3, -2, 0,-0.394037398983644,0.8255637850345477
1503618075804,-0.199,-0.033,+0.402,+0.893,+0.753,+0.104,-0.635,-0.938,-0.062,+0.750,1, -2, -2, -1, 0, 0, -1, 1,-0.394037398983644,0.8255637850345477
1503618075811,-0.199,-0.033,+0.402,+0.893,+0.752,+0.104,-0.636,-1.062,-0.125,+0.375,-3, 0, -2, 0, 0, 1, -2, 1,-0.394037398983644,0.8255637850345477
1503618075833,-0.199,-0.033,+0.402,+0.893,+0.749,+0.108,-0.631,-1.000,-0.500,-0.062,-1, 0, -1, 0, 0, 0, 2, -1,-0.394037398983644,0.8255637850345477
1503618075856,-0.199,-0.033,+0.401,+0.893,+0.753,+0.103,-0.637,-1.062,-0.125,+0.562,-1, 0, -3, -1, -2, -1, -1, -2,-0.39397614033973893,0.823159279507308
1503618075871,-0.199,-0.033,+0.401,+0.893,+0.751,+0.104,-0.639,-1.125,-1.500,+0.188,-1, -4, -2, -1, -1, -1, -3, 0,-0.39397614033973893,0.823159279507308
1503618075894,-0.199,-0.033,+0.401,+0.893,+0.749,+0.104,-0.639,-0.875,+0.188,+0.562,0, -1, 0, -1, -1, -1, -1, -1,-0.39397614033973893,0.823159279507308
1503618075919,-0.199,-0.033,+0.401,+0.894,+0.752,+0.105,-0.640,-0.812,-1.438,+0.562,-1, -2, -1, -1, 0, 0, -1, -1,-0.39434550119387707,0.823707215433444
1503618075931,-0.199,-0.033,+0.401,+0.894,+0.750,+0.104,-0.641,-0.688,-0.250,+0.250,-2, -1, -2, 0, -1, 0, -1, 0,-0.39434550119387707,0.823707215433444
1503618075954,-0.199,-0.033,+0.401,+0.894,+0.751,+0.104,-0.631,-0.875,-0.812,+0.250,1, 0, 0, 0, 1, -1, 0, -2,-0.39434550119387707,0.823707215433444
1503618075976,-0.199,-0.033,+0.401,+0.894,+0.754,+0.103,-0.644,-0.875,-2.250,-0.125,-2, -3, -2, -1, -2, 0, 0, 2,-0.39434550119387707,0.823707215433444
1503618075992,-0.199,-0.033,+0.401,+0.894,+0.746,+0.104,-0.633,-0.875,-1.062,+0.188,-1, -1, -2, -1, -1, -1, -1, -1,-0.39434550119387707,0.823707215433444
1503618076014,-0.199,-0.033,+0.400,+0.894,+0.746,+0.108,-0.637,-1.062,-2.875,+0.125,1, -1, -1, -1, -1, 0, -1, -1,-0.3942842582487144,0.8213047697931778
1503618076036,-0.199,-0.033,+0.400,+0.894,+0.748,+0.109,-0.645,-1.000,-1.688,+0.375,-2, -2, 0, 0, -1, -2, 0, -1,-0.3942842582487144,0.8213047697931778
1503618076051,-0.199,-0.033,+0.400,+0.894,+0.743,+0.107,-0.636,-0.812,-1.750,+1.000,-1, 0, -1, 0, -2, 0, -1, -1,-0.3942842582487144,0.8213047697931778
1503618076074,-0.199,-0.033,+0.399,+0.894,+0.749,+0.101,-0.641,-0.500,-1.938,+0.938,0, 0, 0, 1, -1, 0, -1, 1,-0.39422301218227207,0.818904210672829
1503618076096,-0.199,-0.033,+0.399,+0.894,+0.746,+0.095,-0.645,-1.250,-0.812,+0.438,-1, 1, -1, -1, 0, 0, 0, 0,-0.39422301218227207,0.818904210672829
1503618076111,-0.199,-0.033,+0.399,+0.894,+0.746,+0.100,-0.645,-1.750,+0.000,-0.312,-1, -1, -2, -1, 0, 0, -4, -3,-0.39422301218227207,0.818904210672829
1503618076133,-0.199,-0.033,+0.399,+0.894,+0.739,+0.106,-0.637,-1.812,+0.875,-0.188,-1, -2, -1, -2, -1, -2, 0, 0,-0.39422301218227207,0.818904210672829
1503618076157,-0.199,-0.033,+0.399,+0.894,+0.750,+0.106,-0.644,-1.625,+0.500,-0.062,1, -1, -1, -1, 2, -1, -2, -2,-0.39422301218227207,0.818904210672829
1503618076171,-0.199,-0.033,+0.399,+0.894,+0.757,+0.108,-0.639,-1.562,-0.062,+0.188,-1, 0, -1, -1, 0, -2, -2, 0,-0.39422301218227207,0.818904210672829
1503618076194,-0.199,-0.033,+0.400,+0.894,+0.749,+0.105,-0.640,-1.500,+1.188,+0.375,-2, 0, 1, 0, 0, 1, -1, -1,-0.3942842582487144,0.8213047697931778
1503618076219,-0.199,-0.033,+0.400,+0.894,+0.748,+0.109,-0.628,-1.250,-1.250,+0.375,0, 0, -1, -2, 0, -1, 0, 0,-0.3942842582487144,0.8213047697931778
1503618076231,-0.199,-0.033,+0.400,+0.894,+0.753,+0.106,-0.636,-0.625,-1.250,+0.875,-1, -3, -1, -1, -2, -1, -2, -2,-0.3942842582487144,0.8213047697931778
1503618076254,-0.199,-0.033,+0.399,+0.894,+0.747,+0.102,-0.637,-0.562,-2.375,+0.750,0, -1, -1, -1, -1, -1, -2, -2,-0.39422301218227207,0.818904210672829
1503618076276,-0.199,-0.033,+0.399,+0.895,+0.743,+0.101,-0.649,-0.562,-3.125,+0.188,-1, -1, -1, -2, -1, -1, 1, 1,-0.3945922971769952,0.8194518308990331
1503618076292,-0.199,-0.033,+0.399,+0.895,+0.735,+0.108,-0.649,-0.938,-0.188,+0.312,-1, -1, -2, -1, -2, -1, 0, -2,-0.3945922971769952,0.8194518308990331
1503618076314,-0.199,-0.033,+0.399,+0.895,+0.742,+0.111,-0.643,-1.000,-0.500,+0.562,-2, 1, 0, -1, 0, -1, 0, 0,-0.3945922971769952,0.8194518308990331
1503618076336,-0.199,-0.033,+0.398,+0.895,+0.750,+0.107,-0.644,-0.500,+0.250,+0.938,0, 0, -1, 0, -2, -1, -2, -1,-0.39453106681377226,0.8170533140372209
1503618076353,-0.199,-0.033,+0.399,+0.895,+0.750,+0.101,-0.644,-0.625,+1.375,+1.188,0, 0, -1, -1, 0, 0, -1, -1,-0.3945922971769952,0.8194518308990331
1503618076374,-0.199,-0.034,+0.399,+0.895,+0.750,+0.101,-0.636,-0.562,+1.062,+1.062,-1, -2, -1, 0, 1, -2, -2, 0,-0.39538423128066014,0.8198231052820002
1503618076396,-0.199,-0.034,+0.399,+0.894,+0.747,+0.104,-0.641,-0.625,+0.750,+1.125,0, -1, 0, -2, 0, 0, 0, -2,-0.39501513611089817,0.8192758123741299
1503618076412,-0.199,-0.034,+0.399,+0.895,+0.748,+0.096,-0.648,-0.688,+0.438,+0.562,-1, -1, -1, 0, -1, -1, 0, -2,-0.39538423128066014,0.8198231052820002
1503618076434,-0.199,-0.034,+0.399,+0.894,+0.750,+0.100,-0.643,-1.000,+0.750,+0.438,1, -1, 0, 1, -2, 0, -3, 0,-0.39501513611089817,0.8192758123741299
1503618076457,-0.199,-0.034,+0.399,+0.894,+0.740,+0.104,-0.639,-1.438,+1.125,+0.312,-1, -1, -1, -1, -2, 0, -1, -1,-0.39501513611089817,0.8192758123741299
1503618076472,-0.199,-0.034,+0.399,+0.894,+0.744,+0.106,-0.638,-1.875,+1.312,+0.000,-3, -1, 0, 1, 0, -1, 1, 1,-0.39501513611089817,0.8192758123741299
1503618076494,-0.199,-0.034,+0.400,+0.894,+0.752,+0.108,-0.645,-1.875,+1.938,+0.438,0, -1, 0, 0, 0, -1, -2, -2,-0.3950782056472956,0.8216758084712663
1503618076516,-0.198,-0.034,+0.400,+0.894,+0.756,+0.109,-0.636,-1.500,+0.938,+0.625,-1, -2, -2, -3, -1, 0, 2, -1,-0.39311289645871844,0.821629272510781
1503618076532,-0.198,-0.034,+0.400,+0.894,+0.751,+0.108,-0.643,-1.312,+0.750,+0.688,-2, 0, -1, 0, -1, -1, -3, -2,-0.39311289645871844,0.821629272510781
1503618076555,-0.198,-0.034,+0.400,+0.894,+0.750,+0.106,-0.642,-1.375,+1.562,+0.812,0, -3, -1, -2, 0, -1, 2, 0,-0.39311289645871844,0.821629272510781
1503618076576,-0.198,-0.034,+0.401,+0.894,+0.753,+0.105,-0.633,-1.125,+1.000,+0.625,-3, 1, -2, -1, 0, -1, -1, -2,-0.3931760112942959,0.8240312823741932
1503618076592,-0.198,-0.034,+0.401,+0.894,+0.753,+0.107,-0.636,-1.312,+1.875,+1.062,-3, -2, -2, -1, -1, -2, 1, 2,-0.3931760112942959,0.8240312823741932
1503618076613,-0.198,-0.034,+0.401,+0.894,+0.751,+0.105,-0.637,-1.062,+1.250,+1.000,-1, -1, -1, 1, -1, 1, -2, -2,-0.3931760112942959,0.8240312823741932
1503618076636,-0.198,-0.034,+0.401,+0.894,+0.747,+0.104,-0.641,-1.000,+1.688,+1.312,-1, 0, 0, 0, 0, -1, -1, 0,-0.3931760112942959,0.8240312823741932
1503618076653,-0.198,-0.034,+0.402,+0.894,+0.749,+0.103,-0.636,-1.062,+1.875,+0.938,-1, 1, 0, -2, -1, -2, 0, -1,-0.39323912282556894,0.8264351665395191
1503618076673,-0.198,-0.034,+0.402,+0.893,+0.755,+0.108,-0.635,-0.812,+1.438,+0.875,-1, -2, 0, -2, 1, -2, 0, -2,-0.39287154456243867,0.8258876890947027
1503618076696,-0.198,-0.034,+0.402,+0.893,+0.757,+0.101,-0.637,-0.812,+0.562,+1.000,0, 0, -1, -1, -3, -1, -3, -1,-0.39287154456243867,0.8258876890947027
1503618076712,-0.198,-0.034,+0.402,+0.893,+0.750,+0.100,-0.635,-0.875,+0.750,+0.688,-1, -1, -1, -2, 0, -2, -2, 1,-0.39287154456243867,0.8258876890947027
1503618076733,-0.198,-0.034,+0.402,+0.893,+0.750,+0.104,-0.637,-1.000,+0.125,+0.688,0, 1, -2, 1, -2, -1, 0, -1,-0.39287154456243867,0.8258876890947027
1503618076756,-0.198,-0.034,+0.402,+0.893,+0.756,+0.101,-0.628,-0.938,+1.000,+0.688,1, 0, 0, -2, 0, -1, 0, 1,-0.39287154456243867,0.8258876890947027
1503618076772,-0.198,-0.035,+0.402,+0.893,+0.760,+0.100,-0.635,-1.125,+0.625,+0.500,-2, -3, 0, 0, 0, -2, -1, -2,-0.3936709013863862,0.8262593943449692
1503618076794,-0.198,-0.035,+0.402,+0.893,+0.753,+0.100,-0.638,-1.000,+0.188,+0.562,-1, -1, -2, -1, -1, -1, -1, -3,-0.3936709013863862,0.8262593943449692
1503618076816,-0.198,-0.035,+0.402,+0.893,+0.753,+0.101,-0.635,-1.125,+0.750,+0.625,-1, 0, -1, 0, 0, -1, 0, -1,-0.3936709013863862,0.8262593943449692
1503618076832,-0.198,-0.035,+0.402,+0.893,+0.752,+0.097,-0.638,-1.125,+0.562,+0.750,-8, -1, -1, -2, -2, -1, 1, -2,-0.3936709013863862,0.8262593943449692
1503618076856,-0.198,-0.035,+0.402,+0.893,+0.760,+0.100,-0.629,-1.125,+0.375,+0.188,2, -2, -1, -1, -1, 1, -1, 1,-0.3936709013863862,0.8262593943449692
1503618076876,-0.198,-0.035,+0.402,+0.893,+0.749,+0.102,-0.632,-1.188,-0.062,+0.500,-1, 0, -1, 0, 0, 1, -3, -1,-0.3936709013863862,0.8262593943449692
1503618076893,-0.198,-0.035,+0.402,+0.893,+0.757,+0.100,-0.634,-1.188,-1.500,+0.250,0, 0, 0, 1, -1, 0, -2, 0,-0.3936709013863862,0.8262593943449692
1503618076913,-0.198,-0.035,+0.402,+0.893,+0.756,+0.107,-0.638,-1.062,-0.938,+0.250,3, -1, -1, -1, 0, -1, -1, 0,-0.3936709013863862,0.8262593943449692
1503618076936,-0.198,-0.035,+0.402,+0.893,+0.747,+0.106,-0.636,-1.250,-0.188,+0.438,1, 0, 0, -2, 1, -2, 0, -1,-0.3936709013863862,0.8262593943449692
1503618076952,-0.198,-0.035,+0.402,+0.893,+0.749,+0.105,-0.634,-1.250,+0.375,+0.750,3, 0, 0, -2, -2, -1, -4, 0,-0.3936709013863862,0.8262593943449692
1503618076973,-0.197,-0.035,+0.402,+0.893,+0.751,+0.105,-0.631,-1.062,+0.875,+1.000,0, 0, 0, 0, -1, -1, 0, -1,-0.3917093062622701,0.8262117263080897
1503618076997,-0.197,-0.035,+0.402,+0.893,+0.755,+0.102,-0.636,-0.625,+0.812,+1.062,0, -2, 0, 0, 0, 0, 2, 1,-0.3917093062622701,0.8262117263080897
1503618077012,-0.197,-0.035,+0.402,+0.893,+0.756,+0.099,-0.634,-0.562,+0.625,+1.000,-1, -1, 0, 0, -2, -1, 0, -1,-0.3917093062622701,0.8262117263080897
1503618077033,-0.197,-0.035,+0.402,+0.893,+0.758,+0.098,-0.631,-0.625,+0.250,+0.875,0, -1, -2, -1, -1, 0, -2, 0,-0.3917093062622701,0.8262117263080897
1503618077058,-0.197,-0.035,+0.402,+0.893,+0.760,+0.094,-0.630,-1.062,-0.188,+0.250,-2, -2, 0, -2, -2, 0, -1, 0,-0.3917093062622701,0.8262117263080897
1503618077072,-0.197,-0.035,+0.402,+0.893,+0.755,+0.101,-0.634,-1.312,-0.125,+0.000,-1, 0, -1, -2, -1, -2, 0, -1,-0.3917093062622701,0.8262117263080897
1503618077094,-0.197,-0.035,+0.402,+0.893,+0.758,+0.100,-0.636,-1.438,-1.562,-0.188,1, -1, 0, -1, 0, 0, 1, -2,-0.3917093062622701,0.8262117263080897
1503618077116,-0.197,-0.035,+0.402,+0.893,+0.752,+0.101,-0.636,-1.312,-1.500,-0.375,0, -1, 0, 0, -1, -1, -2, -4,-0.3917093062622701,0.8262117263080897
1503618077132,-0.197,-0.035,+0.402,+0.893,+0.749,+0.101,-0.639,-1.375,-0.250,-0.500,-1, -1, -2, -2, -1, 1, -1, 1,-0.3917093062622701,0.8262117263080897
1503618077154,-0.198,-0.035,+0.402,+0.893,+0.750,+0.105,-0.636,-1.875,+0.562,-0.688,0, -2, 0, 0, 0, 0, -2, 0,-0.3936709013863862,0.8262593943449692
1503618077176,-0.198,-0.034,+0.402,+0.893,+0.746,+0.112,-0.636,-1.938,+2.875,+0.125,-3, -1, 0, 0, 0, 1, 0, 0,-0.39287154456243867,0.8258876890947027
1503618077199,-0.197,-0.034,+0.403,+0.893,+0.761,+0.109,-0.628,-1.500,+1.875,+0.812,0, -2, -1, 1, -3, -1, -1, 0,-0.3909728084489369,0.8282474323093038
1503618077213,-0.197,-0.035,+0.403,+0.893,+0.764,+0.104,-0.634,-0.875,+1.312,+0.875,0, -1, 0, -1, -1, -1, 1, 0,-0.3917743067999466,0.8286172445467019
1503618077236,-0.197,-0.035,+0.403,+0.893,+0.753,+0.102,-0.631,-0.750,+1.500,+0.750,0, 0, -2, -1, -1, -1, -1, -2,-0.3917743067999466,0.8286172445467019
1503618077260,-0.197,-0.035,+0.403,+0.893,+0.758,+0.099,-0.633,-0.688,-0.250,+0.750,0, 1, 1, -2, -2, -1, -1, -1,-0.3917743067999466,0.8286172445467019
1503618077274,-0.197,-0.035,+0.403,+0.893,+0.761,+0.099,-0.628,-0.500,+0.062,+0.938,-1, -2, 0, 1, 0, 0, -1, -2,-0.3917743067999466,0.8286172445467019
1503618077297,-0.197,-0.035,+0.403,+0.893,+0.762,+0.096,-0.632,-0.812,-1.500,+0.500,0, -2, -2, -1, 0, -1, 0, -1,-0.3917743067999466,0.8286172445467019
1503618077319,-0.197,-0.035,+0.403,+0.893,+0.751,+0.100,-0.632,-1.062,-0.938,+0.312,-2, 1, -1, -1, 0, -1, -3, -3,-0.3917743067999466,0.8286172445467019
1503618077334,-0.197,-0.035,+0.403,+0.893,+0.748,+0.103,-0.632,-1.375,-0.688,+0.625,-1, -1, 0, -2, -3, 0, 0, 1,-0.3917743067999466,0.8286172445467019
1503618077358,-0.197,-0.035,+0.403,+0.893,+0.758,+0.105,-0.635,-1.188,-1.188,+0.688,-2, -2, -1, -1, -1, -1, 0, -1,-0.3917743067999466,0.8286172445467019
1503618077378,-0.197,-0.035,+0.403,+0.893,+0.750,+0.103,-0.637,-1.062,+0.750,+1.125,1, -1, -3, -2, 0, -1, 0, -2,-0.3917743067999466,0.8286172445467019
1503618077394,-0.197,-0.035,+0.403,+0.893,+0.751,+0.097,-0.639,-1.438,+0.188,+0.812,-1, 1, 0, -1, 0, -1, 0, -1,-0.3917743067999466,0.8286172445467019
1503618077416,-0.197,-0.035,+0.403,+0.893,+0.749,+0.104,-0.636,-1.750,+2.625,+0.938,-2, -1, 0, 0, -1, 0, -1, -2,-0.3917743067999466,0.8286172445467019
1503618077439,-0.197,-0.035,+0.404,+0.893,+0.749,+0.104,-0.633,-1.875,+3.750,+1.375,1, 1, -2, -1, -1, 0, 0, 0,-0.3918393038467999,0.8310246282477693
1503618077454,-0.196,-0.035,+0.405,+0.892,+0.767,+0.099,-0.634,-1.750,+3.562,+1.375,-2, -2, -2, -2, 0, -2, -1, -1,-0.38958028223402047,0.8328393137821148
1503618077476,-0.196,-0.035,+0.405,+0.892,+0.759,+0.102,-0.628,-1.812,+5.000,+1.500,-2, -2, -2, -1, -1, -1, -3, -5,-0.38958028223402047,0.8328393137821148
1503618077499,-0.196,-0.036,+0.406,+0.892,+0.761,+0.098,-0.625,-1.562,+3.312,+1.688,1, -1, -1, 0, -1, 0, 1, -1,-0.39045405548946316,0.835620731418284
1503618077514,-0.196,-0.036,+0.407,+0.892,+0.768,+0.101,-0.624,-1.188,+3.875,+1.438,-1, 0, -1, -2, -1, -1, -1, 0,-0.3905209355626915,0.8380334755511883
1503618077536,-0.196,-0.036,+0.407,+0.891,+0.767,+0.098,-0.624,-1.125,+2.938,+1.312,-1, 0, 1, 0, -1, 0, 1, 0,-0.3901567661735361,0.837486335644549
1503618077559,-0.195,-0.036,+0.407,+0.891,+0.767,+0.095,-0.622,-1.062,+1.312,+0.625,0, -1, 0, 0, -2, 0, -3, 1,-0.38820232421502987,0.8374379079593135
1503618077575,-0.195,-0.036,+0.408,+0.891,+0.764,+0.097,-0.626,-1.250,+1.250,+0.750,-2, -1, -1, -2, 0, 1, 1, 0,-0.38826927111319054,0.839852888563521
1503618077597,-0.195,-0.036,+0.408,+0.891,+0.766,+0.095,-0.622,-1.312,+0.062,+0.188,-1, -1, -1, 0, 0, -3, 1, -2,-0.38826927111319054,0.839852888563521
1503618077618,-0.195,-0.036,+0.408,+0.891,+0.766,+0.097,-0.628,-1.562,-0.062,-0.062,-1, -1, -1, 0, 1, -2, 0, 0,-0.38826927111319054,0.839852888563521
1503618077635,-0.195,-0.036,+0.408,+0.891,+0.765,+0.100,-0.623,-2.062,+0.312,-0.875,-1, -2, -2, -2, 0, -1, -2, 0,-0.38826927111319054,0.839852888563521
1503618077656,-0.196,-0.036,+0.408,+0.891,+0.760,+0.104,-0.624,-1.875,-0.062,-1.062,1, -1, 0, 0, -1, 0, 0, -1,-0.39022366260985825,0.8399011748595501
1503618077678,-0.196,-0.036,+0.408,+0.891,+0.764,+0.104,-0.626,-1.875,+0.188,-0.625,1, -1, -2, -1, -1, 0, -2, -1,-0.39022366260985825,0.8399011748595501
1503618077694,-0.196,-0.036,+0.408,+0.891,+0.767,+0.105,-0.621,-1.688,-0.438,-0.625,1, -1, 0, 0, 0, -2, 0, 2,-0.39022366260985825,0.8399011748595501
1503618077716,-0.196,-0.036,+0.408,+0.891,+0.768,+0.106,-0.628,-1.438,-0.812,-0.188,-2, 0, -1, -2, -1, 0, -3, -1,-0.39022366260985825,0.8399011748595501
1503618077738,-0.196,-0.036,+0.408,+0.891,+0.759,+0.112,-0.622,-1.250,-0.438,+0.000,-2, -2, 0, -1, -1, -1, 2, 1,-0.39022366260985825,0.8399011748595501
1503618077754,-0.196,-0.036,+0.408,+0.891,+0.763,+0.111,-0.622,-1.062,-0.750,+0.625,0, 0, -1, -1, -1, 1, 0, -2,-0.39022366260985825,0.8399011748595501
1503618077776,-0.196,-0.036,+0.408,+0.891,+0.766,+0.104,-0.625,-0.688,-1.062,+0.875,-1, 0, 1, 2, -1, -2, -1, -2,-0.39022366260985825,0.8399011748595501
1503618077799,-0.196,-0.036,+0.408,+0.891,+0.756,+0.101,-0.632,-0.750,-0.562,+0.812,0, -1, 0, -3, 2, -2, -1, -2,-0.39022366260985825,0.8399011748595501
1503618077814,-0.196,-0.036,+0.408,+0.891,+0.751,+0.102,-0.631,-0.875,+0.188,+0.812,0, 0, -1, 0, -3, -2, -2, 0,-0.39022366260985825,0.8399011748595501
1503618077836,-0.196,-0.036,+0.408,+0.891,+0.762,+0.104,-0.617,-0.875,+0.438,+0.875,0, -1, -1, -3, 0, 1, -1, 0,-0.39022366260985825,0.8399011748595501
1503618077860,-0.196,-0.036,+0.408,+0.891,+0.764,+0.102,-0.624,-0.562,+0.062,+1.125,0, -1, -1, -1, 0, -1, -1, -2,-0.39022366260985825,0.8399011748595501
1503618077874,-0.196,-0.036,+0.408,+0.891,+0.770,+0.097,-0.624,-0.625,-0.375,+1.125,0, -2, -3, -1, -1, -1, 0, -1,-0.39022366260985825,0.8399011748595501
1503618077897,-0.196,-0.036,+0.408,+0.891,+0.762,+0.098,-0.620,-0.750,+0.125,+0.688,-2, 1, -1, 0, -2, -1, 1, 0,-0.39022366260985825,0.8399011748595501
1503618077919,-0.196,-0.036,+0.408,+0.891,+0.765,+0.098,-0.616,-1.562,-0.938,+1.062,1, 0, -2, 0, 0, 0, 0, -1,-0.39022366260985825,0.8399011748595501
1503618077936,-0.196,-0.036,+0.409,+0.891,+0.757,+0.085,-0.661,-0.375,+10.688,-2.688,0, -1, 1, 0, -2, -1, 0, -1,-0.39029055536499163,0.8423178537109116
1503618077956,-0.196,-0.037,+0.413,+0.889,+0.811,+0.115,-0.608,-3.375,+20.812,+0.375,0, -2, -1, 0, -2, -3, -1, 0,-0.3906529436815896,0.8512797812031822
1503618077979,-0.195,-0.037,+0.415,+0.888,+0.863,+0.112,-0.545,-1.500,+6.812,+5.750,-1, -1, 0, -2, 0, 0, -2, 0,-0.3884772984951562,0.8555380362222307
1503618077995,-0.193,-0.037,+0.415,+0.888,+0.924,+0.074,-0.474,-6.938,-12.750,+6.625,0, -1, -1, -1, 0, 0, -2, -1,-0.3845844954302853,0.8554405189332187
1503618078016,-0.192,-0.035,+0.411,+0.891,+0.905,+0.138,-0.530,-6.062,-43.875,+6.688,0, 0, 0, 0, -1, -2, 1, 1,-0.3817983144835113,0.8466029726554029
1503618078040,-0.193,-0.034,+0.402,+0.895,+0.938,+0.116,-0.530,+7.188,-72.750,-0.625,-2, -1, -1, 0, 0, -4, 0, -1,-0.3837983163351272,0.8267508277996193
1503618078054,-0.192,-0.032,+0.389,+0.900,+0.878,+0.086,-0.656,-1.812,-91.188,+4.812,3, 0, -1, -4, 0, 5, 5, 11,-0.38125831948881644,0.7975995925328901
1503618078076,-0.192,-0.029,+0.373,+0.907,+0.640,+0.136,-0.635,-1.125,-104.250,+8.938,40, 9, -8, -8, -8, -14, 3, 13,-0.3805865591963828,0.762457461393267
1503618078100,-0.191,-0.027,+0.356,+0.914,+0.563,+0.156,-0.679,+5.688,-102.375,+11.250,9, -6, 1, 2, 4, -1, -4, -1,-0.3787728062204908,0.7257400779656833
1503618078114,-0.190,-0.026,+0.341,+0.920,+0.611,+0.113,-0.813,+12.375,-84.938,+15.188,-24, -4, 1, 3, 6, 40, 0, -5,-0.37748117851177804,0.6939018504667193
1503618078136,-0.189,-0.027,+0.329,+0.925,+0.659,+0.158,-0.806,+14.875,-74.000,+18.375,4, 0, -3, -1, -4, 8, -1, -10,-0.3773185030655225,0.6694228796437203
1503618078161,-0.185,-0.029,+0.317,+0.930,+0.608,+0.304,-0.799,+28.812,-70.812,+40.812,-70, -12, -4, -7, -15, -59, 1, 3,-0.3717043614667009,0.6453807116623423
1503618078174,-0.178,-0.037,+0.305,+0.935,+0.573,+0.148,-0.866,+45.812,-56.000,+65.625,-11, 2, 4, 3, 5, 4, -15, -30,-0.36366179187424175,0.6235758682370691
1503618078196,-0.170,-0.050,+0.304,+0.936,+0.818,-0.199,-1.063,+42.375,+6.312,+63.250,3, -1, 3, 4, 4, 3, 4, -1,-0.3561394423784469,0.6262687473275484
1503618078218,-0.162,-0.061,+0.304,+0.937,+0.465,-0.079,-0.809,+46.375,+21.812,+58.500,15, -2, -4, 10, 12, 2, 6, 12,-0.3476735521055201,0.6304323813055825
1503618078235,-0.155,-0.072,+0.306,+0.937,+0.505,+0.096,-0.709,+47.938,+26.062,+64.750,5, -9, -10, -5, -2, 6, -7, 18,-0.34137908836231473,0.6386932033688689
1503618078256,-0.154,-0.079,+0.296,+0.939,+0.596,+0.083,-0.864,+55.000,-46.875,+34.062,17, 7, -4, -21, 7, 41, 6, 8,-0.343245622038601,0.6202622958923804
1503618078279,-0.150,-0.091,+0.292,+0.940,+0.506,-0.162,-0.656,+52.625,-13.625,+36.000,9, -15, -8, 7, 8, -2, 0, 1,-0.3430121946573468,0.6166644356546396
1503618078295,-0.148,-0.098,+0.284,+0.942,+0.512,-0.108,-0.723,+38.062,-33.562,+31.750,6, 9, -11, -3, 9, 0, 2, 11,-0.342890338947663,0.6028435578406353
1503618078316,-0.146,-0.102,+0.278,+0.944,+0.440,-0.155,-0.754,+20.375,-27.375,+19.438,0, -1, 2, 3, -15, -12, -7, -1,-0.3410095445272942,0.592103979089562
1503618078338,-0.144,-0.105,+0.275,+0.945,+0.468,-0.181,-0.767,+11.812,-6.375,+15.438,-12, -5, 7, 13, 14, 28, -12, -19,-0.3387117072291297,0.5870445246916435
1503618078354,-0.143,-0.108,+0.275,+0.945,+0.507,-0.183,-0.794,+9.812,+4.062,+10.125,0, 0, -8, -13, -6, -3, -10, -3,-0.33871932267104726,0.588301691571718
1503618078377,-0.143,-0.110,+0.274,+0.945,+0.577,-0.185,-0.780,+6.250,-1.875,-0.312,5, -9, -9, 0, 3, 14, -4, 1,-0.33984853560655165,0.5870696093759782
1503618078399,-0.143,-0.111,+0.272,+0.945,+0.578,-0.160,-0.789,+4.625,-14.750,+1.000,1, -1, -3, 1, 3, 8, 1, -1,-0.3400960952935153,0.5831613258271877
1503618078414,-0.143,-0.112,+0.268,+0.946,+0.538,-0.194,-0.826,+1.312,-21.625,+1.812,-2, 0, -2, 5, 7, 0, -2, -12,-0.3401834555831221,0.5753312757511421
1503618078437,-0.144,-0.112,+0.265,+0.947,+0.498,-0.185,-0.823,-0.062,-13.375,-5.625,2, -1, 5, 3, 8, 25, 1, 2,-0.34181160912249364,0.5694069744477968
1503618078458,-0.146,-0.112,+0.264,+0.947,+0.612,-0.166,-0.777,-0.250,-11.688,-9.250,-7, 8, 5, 3, -13, -4, 1, -1,-0.3455928033951775,0.567602298535372
1503618078475,-0.147,-0.111,+0.262,+0.947,+0.615,-0.146,-0.818,-2.000,-13.812,-6.938,1, 4, 0, 2, 17, -6, -2, -2,-0.3465159817456327,0.5629362828900029
1503618078497,-0.148,-0.109,+0.259,+0.948,+0.466,-0.062,-0.888,-4.438,-12.062,-4.625,-1, 25, 3, 0, 4, 3, -1, -3,-0.3468795813598176,0.5560594544398952
1503618078519,-0.149,-0.109,+0.260,+0.948,+0.463,-0.070,-0.836,+4.938,+8.688,-5.062,-7, -19, -6, 0, 1, -12, -5, -12,-0.34908805548674343,0.5584225212109506
1503618078535,-0.153,-0.110,+0.261,+0.947,+0.627,-0.098,-0.811,+10.500,+0.500,-15.750,5, -17, -9, -1, 41, -5, 2, 6,-0.3576695859405219,0.5613954588121258
1503618078557,-0.156,-0.103,+0.248,+0.951,-0.125,-0.123,-1.632,-18.312,-16.875,-23.500,10, -3, -15, -2, -8, -11, -2, 2,-0.3578360007770188,0.5321020831352348
1503618078579,-0.167,-0.115,+0.266,+0.942,+0.412,-0.284,-0.127,+68.000,+116.812,-65.812,-7, 67, 31, 11, 8, -2, -7, -17,-0.38865078938538056,0.5753008586783668
1503618078596,-0.165,-0.116,+0.268,+0.942,+2.651,-0.516,+0.420,-0.688,+10.688,+15.062,-19, 66, 34, -12, -2, 44, -3, -23,-0.3857325199681056,0.5798051853528675
1503618078616,-0.159,-0.097,+0.253,+0.949,+0.321,+0.126,-1.129,-94.438,-83.750,+26.812,-5, -33, -22, 17, 98, 10, -2, -6,-0.36054200209149306,0.5396793651396325
1503618078639,-0.149,-0.095,+0.260,+0.949,+0.527,-0.080,-0.981,-28.688,+51.500,+47.000,-3, -14, 3, -2, -38, -21, 9, 18,-0.3405276452188644,0.5522655711273342
1503618078655,-0.145,-0.093,+0.278,+0.945,+0.679,+0.077,-0.739,-32.125,+103.312,+10.000,-10, -66, -10, -4, -98, 33, -3, 19,-0.3333845045386256,0.5882539142866192
1503618078677,-0.139,-0.095,+0.296,+0.940,+0.986,+0.114,-0.827,+2.375,+94.562,+32.062,14, -53, -23, 30, 124, 30, -2, -18,-0.3247281620039057,0.625697090885294
1503618078699,-0.136,-0.101,+0.302,+0.938,+0.709,-0.006,-0.782,+29.375,+39.875,+31.125,51, 39, -31, 10, -19, -120, -20, 20,-0.32359981363372625,0.6403881590865559
1503618078715,-0.132,-0.108,+0.304,+0.937,+0.529,-0.118,-0.875,+30.188,+26.750,+31.688,-63, 90, 84, 15, -90, -112, -37, -35,-0.32088135068908447,0.6469900216467778
1503618078737,-0.127,-0.116,+0.306,+0.936,+0.526,-0.120,-0.872,+33.500,+31.938,+36.250,-3, -55, -10, 8, 21, -12, -6, -14,-0.31708085194884317,0.6539521245169749
1503618078758,-0.121,-0.126,+0.317,+0.932,+0.510,-0.047,-0.751,+45.000,+91.750,+43.250,10, 20, 23, 63, 48, 40, 15, -2,-0.31448622613024735,0.6807232779608012
1503618078781,-0.115,-0.140,+0.337,+0.924,+0.552,-0.067,-0.646,+56.938,+134.938,+42.812,-1, 8, -8, -80, 3, 43, 8, 9,-0.31734212360067343,0.7287945372755738
1503618078798,-0.111,-0.155,+0.357,+0.914,+0.646,-0.086,-0.614,+71.938,+146.312,+26.750,-14, 0, 0, -27, -1, 23, 7, -9,-0.3260877881673612,0.7781399245195854
1503618078818,-0.114,-0.171,+0.381,+0.901,+0.605,-0.028,-0.482,+85.562,+160.938,-10.375,7, -9, -12, 0, 64, 33, 8, 2,-0.3514805463316902,0.839352803738347
1503618078835,-0.118,-0.187,+0.408,+0.886,+0.747,-0.159,-0.370,+90.938,+183.625,-18.562,1, 4, -1, -36, -29, -16, -6, -1,-0.38127283820764923,0.9093516750955666
1503618078857,-0.119,-0.205,+0.433,+0.870,+0.889,-0.302,-0.348,+93.062,+173.000,-4.625,-4, -3, -6, -8, -5, 25, -1, -10,-0.4088615415981872,0.9774918931311158
1503618078878,-0.125,-0.220,+0.450,+0.857,+1.023,-0.431,-0.300,+92.125,+120.750,-22.125,2, 7, 4, -13, -32, -8, -55, 9,-0.44164434289547716,1.0282261393086587
1503618078895,-0.134,-0.231,+0.459,+0.847,+0.983,-0.388,-0.320,+78.625,+59.000,-40.062,12, 3, 5, 40, 53, 4, 36, 4,-0.4732777945384603,1.0586574532365745
1503618078923,-0.146,-0.238,+0.461,+0.842,+0.796,-0.272,-0.259,+68.812,+1.000,-49.750,0, -4, 0, 20, 15, 22, 2, -2,-0.5038032149966011,1.0711638681198494
1503618078946,-0.158,-0.244,+0.460,+0.839,+0.661,-0.327,-0.391,+63.750,-2.000,-51.688,-9, -5, -7, -21, -35, -57, 14, -19,-0.5324215371610153,1.0763229686282052
1503618078955,-0.166,-0.251,+0.462,+0.834,+0.624,-0.414,-0.375,+50.188,+24.062,-40.250,-14, -6, -5, -10, -23, -59, -2, 68,-0.5559678084396955,1.0884632417715727
1503618078977,-0.166,-0.258,+0.467,+0.829,+0.740,-0.519,-0.373,+32.312,+48.500,-12.375,26, 2, -2, -19, -7, 20, 7, -15,-0.5664007411872117,1.1064763405159392
1503618079001,-0.164,-0.264,+0.474,+0.824,+0.997,-0.534,-0.371,+16.688,+53.938,-2.438,24, 4, 5, 15, -5, 28, -7, -38,-0.5729815004997112,1.1282156490380506
1503618079015,-0.165,-0.267,+0.479,+0.820,+1.128,-0.467,-0.388,+9.000,+30.750,-11.750,-36, -8, -7, -11, -24, -34, -1, -10,-0.5802649144715348,1.1428252245526285
1503618079043,-0.168,-0.267,+0.475,+0.822,+1.078,-0.435,-0.400,+5.875,-29.500,-13.500,8, 18, 3, -2, -13, 28, 24, 2,-0.584415147536045,1.1342763207259434
1503618079058,-0.173,-0.267,+0.472,+0.822,+0.858,-0.325,-0.268,+13.688,-27.250,-26.938,23, -9, -13, -3, 23, 9, -22, -55,-0.5921149853312572,1.1279234237088596
1503618079081,-0.175,-0.266,+0.471,+0.823,+0.878,-0.380,-0.345,-4.875,-16.375,-14.812,-5, -5, -3, -12, -2, 14, -3, 0,-0.5941686421437352,1.1251590014579727
1503618079106,-0.175,-0.263,+0.471,+0.823,+0.925,-0.309,-0.353,-18.438,-4.250,-11.250,-2, 4, 12, 11, -5, 6, 0, 14,-0.589892703541986,1.1217141771288908
1503618079118,-0.175,-0.260,+0.474,+0.823,+0.983,-0.282,-0.298,-21.375,+3.000,-9.000,4, -7, -9, -35, 46, 21, 7, 20,-0.5869938991412972,1.1258261980178252
1503618079136,-0.174,-0.257,+0.474,+0.824,+1.019,-0.251,-0.341,-17.750,-9.125,-2.375,-18, -3, 5, -8, -1, 4, 2, 8,-0.5812449757655367,1.1226531459455231
1503618079156,-0.175,-0.255,+0.473,+0.825,+0.979,-0.235,-0.327,-12.312,-16.000,-6.625,-1, -5, -3, 5, -10, 0, -2, 18,-0.580125678861688,1.118580798239819
1503618079178,-0.176,-0.251,+0.472,+0.826,+0.919,-0.198,-0.251,-17.125,-26.500,-8.625,-14, -4, 0, 4, -12, 2, -1, 1,-0.5762592947136185,1.1123394157949458
1503618079195,-0.177,-0.248,+0.469,+0.829,+0.955,-0.215,-0.301,-14.500,-31.125,-1.125,2, -6, -3, -10, 9, 0, 2, 27,-0.5735843250165235,1.1031143425954155
1503618079216,-0.178,-0.245,+0.465,+0.832,+0.869,-0.221,-0.338,-15.125,-36.188,-4.125,-3, 5, 8, 12, -7, 4, 4, -8,-0.5705541267639734,1.0914686813510477
1503618079238,-0.180,-0.240,+0.462,+0.834,+0.845,-0.210,-0.358,-19.812,-34.000,-13.875,-16, -3, 2, 15, -9, -6, -12, -32,-0.5668870208991887,1.08007912705213
1503618079261,-0.181,-0.235,+0.458,+0.838,+0.898,-0.192,-0.386,-22.500,-40.375,-4.562,4, -3, -5, 3, -11, -2, 8, -1,-0.5617334419593862,1.0670089932652518
1503618079277,-0.182,-0.230,+0.453,+0.842,+0.925,-0.218,-0.406,-23.312,-43.812,-7.875,0, 2, 3, 7, -15, -4, -10, -26,-0.5563362077072003,1.0516265518338652
1503618079306,-0.185,-0.224,+0.448,+0.846,+0.859,-0.209,-0.456,-22.625,-48.375,-19.812,-2, 0, 1, 0, -1, -1, 2, 6,-0.5535877520028853,1.0359017562706867
1503618079315,-0.189,-0.218,+0.442,+0.849,+0.803,-0.170,-0.480,-18.250,-47.188,-21.000,2, -6, -4, 8, -2, -1, -2, 8,-0.5522680425181121,1.0176989441345876
1503618079338,-0.193,-0.212,+0.436,+0.853,+0.822,-0.135,-0.503,-14.562,-48.938,-23.875,-11, 4, 1, 8, 3, 11, -26, -57,-0.5515664406137969,1.0001908251710367
1503618079359,-0.198,-0.208,+0.431,+0.855,+0.819,-0.126,-0.544,-5.062,-39.562,-20.750,6, -3, -9, -5, -4, -4, 3, 13,-0.5551136362076312,0.9864373762686454
1503618079381,-0.203,-0.206,+0.426,+0.857,+0.830,-0.107,-0.578,+9.562,-31.062,-20.562,1, 3, -6, -3, 0, 1, 6, 8,-0.5611946462732391,0.9746354092423729
1503618079397,-0.209,-0.207,+0.423,+0.857,+0.779,-0.121,-0.593,+23.250,-20.750,-20.188,-14, -3, -3, -1, 2, -2, 6, 13,-0.5728280792513916,0.9697611749056874
1503618079419,-0.214,-0.208,+0.420,+0.857,+0.799,-0.223,-0.497,+22.438,-15.750,-22.875,-8, 1, 2, -2, -3, -7, -1, 5,-0.5825888002140698,0.9646990279469274
1503618079436,-0.219,-0.210,+0.418,+0.856,+0.826,-0.229,-0.542,+18.375,-7.875,-18.438,3, 0, 2, 3, 2, -30, 1, -1,-0.5935562703016563,0.9625388017294131
1503618079458,-0.223,-0.212,+0.420,+0.854,+0.824,-0.160,-0.542,+19.000,+9.000,-20.875,-31, -9, -1, 4, 4, 8, -4, -7,-0.603659274073262,0.9692432508264656
1503618079479,-0.227,-0.214,+0.421,+0.852,+0.775,-0.105,-0.542,+20.438,+16.312,-16.438,-1, -11, -9, -6, -15, -7, 0, -12,-0.6134300605818034,0.9735870967708137
1503618079495,-0.231,-0.217,+0.424,+0.849,+0.856,-0.103,-0.546,+28.750,+22.125,-14.938,21, 12, 5, 3, -4, 7, -2, -14,-0.6247660494299604,0.9832445897417118
1503618079517,-0.235,-0.221,+0.427,+0.845,+0.888,-0.117,-0.485,+35.312,+23.562,-13.438,28, -13, -7, -5, -1, -19, -3, 18,-0.636990095701493,0.9934976857071722
1503618079539,-0.238,-0.227,+0.430,+0.841,+0.922,-0.142,-0.464,+38.062,+21.875,-7.562,-3, 2, -1, -1, 1, 8, -2, -10,-0.6498372525481508,1.0056738801743745
1503618079555,-0.241,-0.234,+0.432,+0.837,+0.810,-0.120,-0.516,+41.188,+33.500,-3.250,10, 0, -1, -3, -1, -4, -3, 2,-0.6637383309709824,1.0167107489761267
1503618079577,-0.241,-0.242,+0.438,+0.831,+0.771,-0.160,-0.375,+41.250,+51.000,+5.375,-12, -4, -4, -1, 0, 2, -6, -6,-0.674077319090912,1.0369984683462523
1503618079599,-0.241,-0.251,+0.443,+0.826,+0.976,-0.204,-0.335,+42.438,+41.500,+9.750,-16, -6, -9, -3, 2, -9, 4, 10,-0.6861011833823474,1.056813972994479
1503618079621,-0.242,-0.259,+0.447,+0.821,+1.120,-0.182,-0.384,+41.125,+30.375,+8.125,-3, 14, 6, 0, -5, -4, 4, 8,-0.6986548129532049,1.073699406420135
1503618079637,-0.244,-0.266,+0.449,+0.818,+1.018,-0.136,-0.386,+39.938,+16.750,+7.875,-7, -15, -5, -5, 4, 9, -1, 6,-0.711943369797907,1.0859983165785945
1503618079659,-0.245,-0.272,+0.447,+0.816,+0.790,-0.120,-0.420,+41.250,+8.625,+15.500,-10, -18, -3, 1, -18, -2, 1, -2,-0.7207794199145054,1.0878470070262238
1503618079681,-0.243,-0.281,+0.447,+0.814,+0.772,-0.232,-0.353,+41.312,+22.438,+28.750,-13, 53, 34, 7, 18, 9, -2, -9,-0.7291676630107441,1.0976428908780511
1503618079697,-0.238,-0.292,+0.449,+0.810,+0.935,-0.295,-0.321,+35.875,+34.375,+41.812,3, 13, -2, 2, 5, -3, -3, -7,-0.7352861893454746,1.1135552583539836
1503618079719,-0.234,-0.300,+0.450,+0.808,+0.922,-0.292,-0.344,+32.062,+28.188,+37.250,-5, -46, -15, -2, 1, -4, 0, 1,-0.7395429965530743,1.1246336811378788
1503618079741,-0.232,-0.306,+0.450,+0.806,+0.889,-0.312,-0.312,+22.938,+14.562,+18.750,-14, -8, 14, 4, 0, 2, 1, 2,-0.7443009913518762,1.1313811249473023
1503618079757,-0.230,-0.312,+0.450,+0.805,+0.887,-0.334,-0.326,+19.188,+11.938,+19.062,7, -10, -10, -1, 9, 0, 1, -6,-0.749569011665943,1.1386854941356614
1503618079779,-0.228,-0.318,+0.450,+0.803,+0.866,-0.344,-0.352,+26.125,+17.250,+20.312,-3, -6, 11, 6, 12, 7, 7, 12,-0.7546416516204849,1.145756174195862
1503618079804,-0.227,-0.324,+0.451,+0.800,+0.882,-0.367,-0.304,+22.750,+18.062,+15.250,-9, 10, 1, 0, -4, -6, -4, -11,-0.7619064285734912,1.1553063847831953
1503618079817,-0.224,-0.328,+0.452,+0.798,+0.854,-0.395,-0.294,+12.500,+22.250,+14.688,-6, -3, 3, 1, -4, -3, -3, -7,-0.7626422183691418,1.1619417605188862
1503618079840,-0.221,-0.331,+0.454,+0.797,+0.854,-0.391,-0.270,+5.062,+20.062,+8.562,31, -13, -5, -5, -7, -3, -4, 13,-0.7626673554969995,1.1699919111435517
1503618079861,-0.220,-0.333,+0.456,+0.795,+0.914,-0.365,-0.285,+1.625,+15.625,+1.562,6, 11, -5, -2, -3, -2, -2, 1,-0.764481577280348,1.1767875730551425
1503618079877,-0.221,-0.333,+0.459,+0.794,+0.969,-0.344,-0.265,-2.062,+8.375,-6.688,-6, -21, -12, -4, -1, 5, 1, -5,-0.767528153103288,1.1839800008613348
1503618079899,-0.221,-0.332,+0.460,+0.793,+0.927,-0.301,-0.285,-4.938,+5.312,-7.625,-5, 4, -11, -2, -2, -5, -4, 1,-0.7660227366568567,1.1845674526376317
1503618079921,-0.222,-0.332,+0.462,+0.792,+0.882,-0.268,-0.293,-0.062,+6.375,-6.438,-1, -22, -11, -3, -2, -1, 3, 11,-0.7685504221119152,1.1893317831324075
1503618079939,-0.224,-0.331,+0.461,+0.792,+0.904,-0.286,-0.301,+5.062,-6.500,-7.000,-1, 27, 10, 1, -1, -2, -4, -9,-0.7700859454768415,1.1859492651586394
1503618079960,-0.225,-0.331,+0.461,+0.792,+0.919,-0.335,-0.297,+2.062,-7.500,-5.938,3, 32, 7, 3, 4, 1, 2, 4,-0.7719439607611154,1.1862112980564345
1503618079981,-0.226,-0.331,+0.461,+0.792,+0.900,-0.348,-0.274,-3.000,-1.938,-4.250,4, -3, 1, -2, 2, -3, -5, -5,-0.7738031150093615,1.1864729921064792
1503618079997,-0.226,-0.330,+0.461,+0.792,+0.944,-0.286,-0.311,-4.000,-2.312,-3.125,0, 17, 9, 4, 2, 0, 1, -4,-0.7721350611654073,1.1850032150749923
1503618080021,-0.227,-0.330,+0.461,+0.792,+0.911,-0.264,-0.309,-0.250,-3.625,-3.375,4, -3, -6, -3, -3, -2, -4, -4,-0.7739955733989435,1.1852647071877611
1503618080049,-0.229,-0.329,+0.460,+0.792,+0.913,-0.297,-0.305,+1.000,-14.688,-8.438,-10, -25, -11, -4, 0, -1, 4, 9,-0.7755625516059541,1.1818977418859
1503618080057,-0.231,-0.328,+0.459,+0.793,+0.917,-0.324,-0.300,-2.812,-9.062,-5.875,7, -10, -2, -3, -3, -1, 4, 10,-0.7774909573988307,1.1789078451122028
1503618080080,-0.230,-0.327,+0.459,+0.793,+0.917,-0.306,-0.299,-4.562,-3.312,+0.312,-13, -8, -2, -3, -4, -4, -9, -21,-0.7739693080501107,1.1771868029507206
1503618080098,-0.231,-0.326,+0.458,+0.794,+0.901,-0.274,-0.315,-3.000,-8.375,+0.000,5, -2, -7, -2, -3, 2, 2, 14,-0.7740464443918581,1.173947768427624
1503618080117,-0.232,-0.326,+0.457,+0.795,+0.885,-0.300,-0.317,-1.688,-14.875,-4.062,-5, -14, -11, -4, 1, -4, 0, 12,-0.7757775062122458,1.1721670473629355
1503618080139,-0.233,-0.324,+0.456,+0.796,+0.884,-0.328,-0.320,-6.312,-11.062,-4.750,5, 7, 2, -2, -4, -1, -1, 1,-0.774236028156796,1.1674987923556353
1503618080155,-0.233,-0.323,+0.455,+0.796,+0.910,-0.315,-0.325,-9.875,-7.000,-3.688,13, 35, 6, 2, 2, -1, 4, -1,-0.7721178507123152,1.1636429745963295
1503618080177,-0.234,-0.320,+0.455,+0.797,+0.919,-0.275,-0.324,-9.562,-11.938,-5.750,8, -3, -10, 1, 0, 5, 1, 11,-0.7694781404369024,1.159994303989133
1503618080206,-0.235,-0.318,+0.454,+0.798,+0.913,-0.274,-0.336,-7.500,-14.875,-6.125,-7, -12, -8, -3, -2, -1, -4, -9,-0.7680082389358239,1.155388173815862
1503618080214,-0.236,-0.317,+0.452,+0.800,+0.883,-0.285,-0.350,-7.438,-13.062,-4.438,3, -9, 0, 3, 3, 2, 0, 0,-0.7680437623984879,1.1501901573419098
1503618080239,-0.237,-0.315,+0.451,+0.801,+0.874,-0.268,-0.361,-6.438,-11.625,-5.125,0, -5, 1, 0, 1, 3, 5, 3,-0.7666215827939431,1.1456244256384958
1503618080260,-0.238,-0.313,+0.450,+0.802,+0.889,-0.287,-0.353,-6.875,-9.750,-4.312,-6, -18, -8, -1, -3, -4, -3, -12,-0.765225537994862,1.1410807090507191
1503618080282,-0.238,-0.312,+0.450,+0.802,+0.900,-0.289,-0.349,-8.688,-8.938,-2.812,0, 15, 13, 2, -2, -1, -2, 3,-0.7636442338963199,1.1396874782805677
1503618080297,-0.238,-0.310,+0.449,+0.803,+0.903,-0.278,-0.353,-10.000,-6.938,-3.312,-13, 2, 0, 2, -11, 0, 4, -7,-0.7603841952790809,1.1349009789127027
1503618080320,-0.239,-0.308,+0.449,+0.804,+0.897,-0.258,-0.357,-9.000,-8.375,-2.688,6, -7, -2, -3, -1, 2, -3, -11,-0.7595115994148361,1.132813530474052
1503618080335,-0.239,-0.307,+0.448,+0.805,+0.891,-0.267,-0.366,-7.438,-11.000,-2.938,9, 34, 6, -1, 2, 0, -4, 10,-0.7578482910324629,1.1294352162665413
1503618080357,-0.240,-0.305,+0.447,+0.806,+0.873,-0.260,-0.371,-6.688,-11.188,-4.000,-7, 0, -14, -2, 4, -1, -2, -10,-0.75654656764354,1.12497521126942
1503618080380,-0.241,-0.303,+0.446,+0.807,+0.869,-0.266,-0.397,-4.125,-11.312,-5.062,3, -10, 1, 1, -2, -2, 0, 11,-0.7552705375941441,1.120536560556499
1503618080395,-0.242,-0.302,+0.445,+0.808,+0.861,-0.263,-0.402,-4.500,-6.500,-5.062,-3, -5, -3, -1, -2, -2, -4, -3,-0.7555522007843926,1.1174656298808332
1503618080417,-0.243,-0.301,+0.445,+0.808,+0.882,-0.267,-0.388,-4.812,-4.312,-5.125,2, -2, 3, -3, -4, -1, -2, -5,-0.7559329196976016,1.116393611260618
1503618080441,-0.243,-0.300,+0.445,+0.808,+0.891,-0.260,-0.384,-5.375,-1.250,-4.562,-1, 2, 7, 1, 1, -1, 4, 4,-0.7544046321392475,1.1150509021899502
1503618080462,-0.244,-0.299,+0.445,+0.808,+0.855,-0.249,-0.386,-5.500,-0.938,-5.375,-3, 5, 2, 0, 2, -2, -1, -4,-0.7547943082763175,1.11398598965955
1503618080477,-0.244,-0.298,+0.446,+0.808,+0.886,-0.257,-0.376,-3.312,+0.188,-4.062,7, -2, -2, -3, 3, 19, 2, 1,-0.7537241972707382,1.1150488538691214
1503618080500,-0.244,-0.298,+0.446,+0.808,+0.944,-0.251,-0.381,-3.375,+1.000,-2.625,0, 23, 4, 0, 1, 3, -4, 1,-0.7537241972707382,1.1150488538691214
1503618080521,-0.245,-0.297,+0.447,+0.808,+0.898,-0.239,-0.389,-2.812,-0.188,-4.188,0, -4, 7, 3, -1, -4, -1, -24,-0.7545691610080547,1.1163875813276347
1503618080540,-0.245,-0.296,+0.447,+0.808,+0.866,-0.261,-0.358,-2.438,-0.375,-4.125,-3, -13, -8, 2, -7, -6, -5, 0,-0.7530537529069015,1.1150617573838062
1503618080560,-0.245,-0.296,+0.447,+0.808,+0.888,-0.273,-0.365,-4.938,-1.938,-2.188,-7, -6, -12, -7, -14, -3, -7, -4,-0.7530537529069015,1.1150617573838062
1503618080582,-0.246,-0.294,+0.447,+0.808,+0.895,-0.263,-0.375,-7.438,-5.000,-5.312,2, -9, -2, -3, 0, 2, 2, 25,-0.7519491940744384,1.1126910827765777
1503618080603,-0.246,-0.293,+0.447,+0.809,+0.890,-0.257,-0.385,-8.250,-5.562,-8.000,5, -2, -1, -1, 11, 6, 1, -3,-0.7508167120749901,1.1117865655923436
1503618080620,-0.248,-0.291,+0.447,+0.809,+0.878,-0.258,-0.377,-9.000,-7.000,-10.125,2, 2, -5, -3, -2, -1, 0, -4,-0.7516561318292978,1.1097071283023117
1503618080642,-0.249,-0.288,+0.447,+0.810,+0.898,-0.244,-0.375,-11.188,-8.625,-10.750,-17, 18, 10, 1, -2, -9, -6, -19,-0.7494840970764409,1.106492382360764
1503618080657,-0.250,-0.286,+0.447,+0.810,+0.933,-0.233,-0.381,-12.688,-9.250,-9.062,5, -19, -11, -3, -7, 7, 5, 15,-0.7484466241127865,1.1041824471938881
1503618080680,-0.251,-0.283,+0.446,+0.811,+0.914,-0.217,-0.391,-12.312,-12.688,-9.375,-10, 0, -4, -5, -3, -6, -6, -22,-0.7459088228555828,1.0986342158753775
1503618080701,-0.252,-0.280,+0.445,+0.812,+0.895,-0.193,-0.417,-9.125,-15.562,-8.375,7, -4, -8, -4, -2, -2, -4, 17,-0.7434162105122243,1.0931250366536442
1503618080717,-0.253,-0.278,+0.444,+0.813,+0.883,-0.214,-0.406,-8.062,-12.125,-5.562,3, 13, -1, 3, 4, 3, 5, 7,-0.7424110011954702,1.0889057997668719
1503618080745,-0.253,-0.276,+0.443,+0.814,+0.877,-0.217,-0.414,-8.688,-9.688,-2.750,2, -8, 1, 0, 3, 2, -1, -2,-0.7394946014734936,1.0844411137394494
1503618080761,-0.254,-0.275,+0.442,+0.815,+0.899,-0.201,-0.428,-5.875,-10.062,-2.938,9, 11, 9, 2, -1, -1, 3, 4,-0.7399644072637249,1.08149996985706
1503618080779,-0.255,-0.273,+0.441,+0.816,+0.872,-0.192,-0.440,-4.938,-7.062,-2.188,0, 31, 17, 4, 1, -1, 2, -7,-0.7390210511193719,1.077330926557936
1503618080800,-0.255,-0.272,+0.441,+0.816,+0.835,-0.203,-0.427,-3.375,-3.375,-1.438,3, -6, 4, 2, 1, 3, 5, 4,-0.7376001997574964,1.0760990438554785
1503618080821,-0.255,-0.272,+0.441,+0.817,+0.855,-0.204,-0.433,-3.188,+0.562,+2.562,-5, -3, 4, 0, 0, -3, -2, -6,-0.7379869707015565,1.076528021098721
1503618080838,-0.254,-0.272,+0.441,+0.817,+0.879,-0.201,-0.452,-1.500,+3.500,+3.438,2, 10, 12, 0, 1, -6, -1, 1,-0.7360456996544305,1.0762635171751271
1503618080859,-0.254,-0.273,+0.441,+0.816,+0.865,-0.204,-0.409,+1.812,+4.250,+2.250,0, -14, -8, -2, -5, -1, -1, 2,-0.7370805570219381,1.0770656157138403
1503618080881,-0.254,-0.274,+0.442,+0.816,+0.928,-0.220,-0.425,+3.938,+2.188,+2.062,-8, -30, -11, -2, 2, 2, 1, -3,-0.7389204363371558,1.0806875018389923
1503618080897,-0.255,-0.275,+0.442,+0.815,+0.929,-0.197,-0.430,+6.750,+1.938,+0.688,-15, -16, -7, -3, -8, -3, -3, -6,-0.7419031614318612,1.0817651035127231
1503618080918,-0.254,-0.276,+0.442,+0.815,+0.829,-0.189,-0.426,+6.812,+6.188,+4.000,8, 8, -1, 0, 9, 3, 0, -3,-0.741397002625212,1.0827432105184611
1503618080943,-0.253,-0.279,+0.443,+0.814,+0.845,-0.217,-0.387,+6.750,+11.062,+11.750,-8, -1, 0, 1, 12, -12, -14, -10,-0.7438175809652349,1.0881936901889337
1503618080956,-0.251,-0.281,+0.443,+0.813,+0.935,-0.234,-0.398,+6.125,+8.688,+12.500,2, 3, 3, 1, -13, -3, 0, -13,-0.7424698670176636,1.089759086471037
1503618080979,-0.251,-0.283,+0.443,+0.812,+0.966,-0.228,-0.395,+9.875,+1.938,+6.625,4, 0, 0, 1, -5, -1, 1, 11,-0.745004226103672,1.0918756601954747
1503618081001,-0.251,-0.285,+0.443,+0.812,+0.877,-0.224,-0.428,+9.812,+1.750,+6.562,-5, 9, -6, -1, -6, 2, 0, -6,-0.7479332535143856,1.0944299162464322
1503618081016,-0.250,-0.287,+0.443,+0.812,+0.774,-0.227,-0.408,+9.562,+9.438,+8.938,19, 16, 21, 8, 13, 18, 17, 11,-0.7489470445989915,1.0967296038032603
1503618081038,-0.248,-0.290,+0.443,+0.811,+0.887,-0.272,-0.380,+6.625,+13.438,+16.188,-5, 6, 6, 0, -9, -9, 2, 12,-0.749159331330775,1.0996546596458954
1503618081061,-0.246,-0.293,+0.445,+0.810,+0.966,-0.239,-0.403,+8.062,+12.750,+13.750,-5, -13, -12, -5, -25, -12, -10, -10,-0.7503025222772634,1.107403993958515
1503618081079,-0.247,-0.295,+0.444,+0.809,+0.894,-0.249,-0.363,+11.812,+2.312,+4.438,0, 6, 3, -1, -1, 2, 1, 4,-0.7544122420854488,1.1075033602153845
1503618081098,-0.246,-0.297,+0.444,+0.809,+0.843,-0.307,-0.385,+7.062,+2.125,+5.125,13, -7, -11, -5, -1, -1, 4, 44,-0.7555121867738268,1.1098804374817492
1503618081121,-0.245,-0.299,+0.444,+0.808,+0.844,-0.258,-0.385,+3.375,+9.125,+4.500,-5, -14, -7, -5, 1, 2, -3, -7,-0.756258767286074,1.1118643287425387
1503618081136,-0.244,-0.300,+0.445,+0.808,+0.895,-0.316,-0.347,-1.125,+6.625,+5.688,-11, -32, -13, -4, 3, -1, -9, -39,-0.7563188064548386,1.1153249076443654
1503618081158,-0.243,-0.300,+0.446,+0.808,+0.916,-0.296,-0.361,-4.875,+4.625,+4.188,-7, -2, 0, 0, 8, 1, -3, -16,-0.7548583255944764,1.1174488305013834
1503618081181,-0.243,-0.299,+0.446,+0.808,+0.910,-0.256,-0.375,-5.750,-2.250,-3.000,10, 11, 15, 7, 18, -6, 0, 21,-0.7533327332788287,1.1161108089594876
1503618081196,-0.243,-0.298,+0.446,+0.808,+0.892,-0.258,-0.359,-7.875,-6.000,-4.938,-17, 12, -17, -6, -1, -5, -7, -10,-0.7518108085732179,1.1147767609321462
1503618081218,-0.244,-0.296,+0.446,+0.809,+0.887,-0.273,-0.377,-9.750,-8.812,-7.062,1, -11, -5, -6, -4, 4, 1, 10,-0.7510611237414844,1.1128010441615346
1503618081243,-0.245,-0.293,+0.445,+0.810,+0.896,-0.267,-0.353,-10.938,-11.000,-10.938,-8, -7, -2, -1, 10, 8, 6, -12,-0.7483836797282046,1.107132985735117
1503618081256,-0.247,-0.290,+0.444,+0.811,+0.930,-0.281,-0.351,-11.688,-20.000,-15.375,-3, -15, -13, -5, 0, -2, -10, -6,-0.7476745363014763,1.1017763401896714
1503618081279,-0.251,-0.286,+0.443,+0.812,+0.905,-0.257,-0.396,-13.375,-24.625,-23.062,4, 12, 2, -3, -1, 7, 6, 0,-0.7494030246390236,1.0957128394871252
1503618081301,-0.255,-0.281,+0.441,+0.813,+0.853,-0.227,-0.404,-14.500,-25.500,-27.812,0, 11, 8, 4, 5, -8, -10, -3,-0.7493599353437657,1.08605764861481
1503618081317,-0.258,-0.276,+0.439,+0.815,+0.834,-0.242,-0.385,-17.188,-25.312,-25.625,0, 1, -2, -10, -22, -10, -4, -5,-0.747915762955403,1.0766620362125223
1503618081338,-0.261,-0.270,+0.438,+0.817,+0.910,-0.249,-0.384,-24.500,-27.812,-24.062,12, 16, 14, -3, 4, -1, -6, 1,-0.7456176325735077,1.0685229492734105
1503618081361,-0.264,-0.263,+0.437,+0.819,+0.921,-0.189,-0.468,-26.500,-28.750,-29.188,-9, -7, -4, 3, -2, -8, -2, 2,-0.7421076193080463,1.0593209271612058
1503618081383,-0.269,-0.256,+0.435,+0.820,+0.880,-0.124,-0.457,-21.625,-27.312,-30.625,16, 0, 3, 4, -6, -2, -1, 8,-0.7419656508737829,1.0480094838081606
1503618081398,-0.272,-0.251,+0.433,+0.822,+0.826,-0.181,-0.448,-20.938,-26.750,-24.500,-21, 2, 4, 2, -8, 1, 0, -10,-0.7412031771506902,1.0391041970095127
1503618081422,-0.275,-0.244,+0.432,+0.824,+0.818,-0.174,-0.464,-23.562,-24.812,-24.688,-4, -16, -4, 2, -3, -3, 1, -7,-0.7383193344782674,1.0303782169291287
1503618081436,-0.277,-0.238,+0.431,+0.825,+0.870,-0.151,-0.498,-25.312,-18.375,-25.500,13, -8, 0, 1, -6, -16, 1, 8,-0.7345284107447113,1.0222278274875118
1503618081458,-0.280,-0.232,+0.431,+0.826,+0.838,-0.096,-0.521,-22.562,-15.125,-24.375,-44, 12, 5, -9, -15, -4, -13, -59,-0.7332259614331867,1.0168031689008332
1503618081481,-0.282,-0.227,+0.430,+0.827,+0.826,-0.134,-0.477,-17.562,-16.688,-20.625,2, 8, -2, 1, 4, -6, -13, -22,-0.7309727144857144,1.0099620757188297
1503618081496,-0.284,-0.223,+0.430,+0.828,+0.878,-0.127,-0.502,-20.938,-14.438,-18.938,-17, -16, -6, -1, -13, -9, -17, -47,-0.7304010652194798,1.0066206185016657
1503618081521,-0.287,-0.217,+0.429,+0.828,+0.857,-0.067,-0.521,-17.250,-14.875,-23.500,-9, 11, -2, -1, 3, 8, 14, 3,-0.7286864095253509,0.9986407900179348
1503618081541,-0.290,-0.214,+0.429,+0.828,+0.857,-0.076,-0.486,-11.562,-12.438,-21.750,-9, -12, 0, 0, 0, -4, -6, 13,-0.7310693877850079,0.9962154027505232
1503618081556,-0.292,-0.210,+0.429,+0.829,+0.870,-0.101,-0.496,-15.000,-11.062,-16.562,14, 5, 12, 6, 12, 1, 0, -8,-0.7307027303020978,0.9930156951770709
1503618081578,-0.294,-0.206,+0.429,+0.829,+0.889,-0.037,-0.521,-11.000,-9.438,-13.812,0, 4, 16, 2, -8, 0, 4, -78,-0.7299566789024974,0.989387856757882
1503618081601,-0.294,-0.205,+0.429,+0.829,+0.968,-0.045,-0.519,-8.062,-6.250,-3.312,-7, -13, -23, -10, -23, -6, -4, 16,-0.7287644877793404,0.988373969635599
1503618081616,-0.294,-0.204,+0.429,+0.829,+0.917,+0.036,-0.579,+1.375,+0.875,+8.750,10, 7, 4, 2, 3, 4, 5, 5,-0.7275750673553449,0.98736335500035
1503618081638,-0.293,-0.206,+0.427,+0.830,+0.755,-0.067,-0.448,+8.688,-7.500,+12.125,1, -16, -16, -4, -4, -5, 2, 63,-0.7277513288904872,0.9849282505926784
1503618081661,-0.289,-0.208,+0.425,+0.832,+0.726,-0.180,-0.453,-4.125,-3.875,+25.125,6, 1, -4, -2, -16, -7, 3, 26,-0.7222869051365444,0.9822868529391396
1503618081676,-0.285,-0.208,+0.424,+0.834,+0.979,-0.144,-0.550,-13.500,-7.000,+23.000,18, -21, -12, 1, 7, 5, 3, 34,-0.7147581331635787,0.9799554081572696
1503618081698,-0.282,-0.208,+0.425,+0.835,+0.916,+0.001,-0.583,-6.062,+3.188,+22.312,-1, -17, -11, -6, -5, 3, -1, -5,-0.7094592227538483,0.9820847823989614
1503618081721,-0.276,-0.210,+0.424,+0.836,+0.750,-0.148,-0.357,-9.812,-2.625,+30.875,-25, -8, -1, -1, -1, -1, -6, -34,-0.6999058449660402,0.9808244826438438
1503618081736,-0.270,-0.210,+0.423,+0.839,+0.891,-0.200,-0.430,-20.625,-8.438,+37.312,-8, 9, -1, 2, -3, -1, 0, -33,-0.6888438466830623,0.9784784050385139
1503618081758,-0.266,-0.208,+0.424,+0.840,+1.065,-0.038,-0.572,-19.875,-1.500,+20.500,14, -7, -7, -5, -1, 1, 5, 10,-0.6792239352600821,0.9783741195507735
1503618081781,-0.266,-0.206,+0.420,+0.843,+0.793,+0.070,-0.640,-2.000,-19.688,+13.062,-11, -9, 3, 0, 7, 1, 1, 6,-0.6768051040322769,0.9683835979214748
1503618081796,-0.265,-0.208,+0.416,+0.845,+0.583,-0.117,-0.551,+10.562,-10.125,+17.062,5, -3, -1, -4, 22, 2, 2, 26,-0.6767007005110364,0.9616697900060226
1503618081818,-0.261,-0.211,+0.417,+0.845,+0.733,-0.231,-0.528,-0.750,+19.500,+17.375,-5, -9, -6, -9, -12, -8, -4, -13,-0.6726052863332898,0.9660502861295392
1503618081841,-0.256,-0.212,+0.421,+0.844,+0.875,-0.160,-0.527,-10.125,+26.375,+22.062,-4, 5, 5, 2, 11, -1, 0, -4,-0.6648007988392245,0.9748064148371305
1503618081856,-0.252,-0.215,+0.424,+0.843,+0.965,-0.139,-0.513,-3.688,+25.375,+21.125,3, -10, -13, -7, -17, 2, -4, -3,-0.6611260053569536,0.9834819532262686
1503618081881,-0.250,-0.216,+0.425,+0.842,+0.871,-0.076,-0.583,+6.438,+12.438,+16.938,-5, 3, 7, -1, -13, 5, 2, -9,-0.6583437042258303,0.9859060306310083
1503618081901,-0.250,-0.220,+0.424,+0.842,+0.756,-0.138,-0.519,+19.000,+5.000,+10.438,-12, -11, -14, -3, 3, -7, -9, -24,-0.6628767382092208,0.9875945710208504
1503618081916,-0.248,-0.224,+0.424,+0.842,+0.783,-0.249,-0.445,+11.500,+11.875,+17.625,2, 12, 4, 2, 5, -2, 4, 2,-0.6638694914506194,0.9912175324129406
1503618081940,-0.245,-0.228,+0.426,+0.841,+0.869,-0.215,-0.480,+3.812,+17.062,+16.750,-5, -17, -27, -5, -15, -2, 1, -3,-0.6632910645608964,0.9989188686031278
1503618081961,-0.244,-0.229,+0.427,+0.840,+0.885,-0.149,-0.484,+5.188,+12.500,+7.500,6, -31, -3, -3, 9, 2, 2, 2,-0.6625625724369159,1.0016300457220806
1503618081977,-0.243,-0.232,+0.428,+0.839,+0.904,-0.146,-0.500,+9.812,+7.250,+9.250,10, 26, 9, -1, 4, 3, -1, 20,-0.6643729498467668,1.0064635762988317
1503618081998,-0.243,-0.234,+0.428,+0.838,+0.812,-0.174,-0.490,+12.625,+9.062,+8.688,10, 51, 5, -5, 6, -3, -3, -17,-0.6665246546931749,1.00812971972251
1503618082021,-0.242,-0.237,+0.429,+0.838,+0.810,-0.216,-0.457,+10.250,+10.312,+9.250,4, -24, -17, -9, -16, -2, -5, 8,-0.668786259568805,1.0134832126870008
1503618082036,-0.240,-0.240,+0.430,+0.836,+0.899,-0.219,-0.465,+8.000,+13.875,+11.438,6, -2, -11, -3, 11, 2, 5, 5,-0.6683703031658079,1.0176898694849452
1503618082058,-0.238,-0.243,+0.431,+0.836,+0.921,-0.177,-0.487,+7.500,+11.250,+14.500,-10, -20, 7, 2, -21, 0, -4, 4,-0.6687713140703705,1.0228498008538789
1503618082082,-0.237,-0.245,+0.432,+0.835,+0.852,-0.183,-0.473,+8.250,+11.438,+13.562,3, -4, 2, 3, 12, 0, 2, 2,-0.6694604685159004,1.0267328061546763
1503618082096,-0.235,-0.248,+0.432,+0.835,+0.823,-0.232,-0.430,+8.250,+7.688,+11.875,-21, 11, 1, -3, -2, -2, -8, -15,-0.6695396966479163,1.0295489354787224
1503618082118,-0.235,-0.250,+0.432,+0.834,+0.875,-0.263,-0.452,+8.000,+2.000,+3.688,1, 12, 4, -2, -1, -1, -2, 4,-0.671815136740304,1.0313368594899224
1503618082141,-0.235,-0.252,+0.432,+0.834,+0.863,-0.224,-0.465,+5.562,+3.250,+0.625,-8, 0, -9, 1, 1, 1, -2, -3,-0.6744805264792133,1.0335954658804747
1503618082157,-0.235,-0.253,+0.432,+0.833,+0.826,-0.199,-0.460,+4.312,+5.625,+3.562,6, -8, -15, -5, 3, -2, 0, 0,-0.6754422789057938,1.0342781571930049
1503618082178,-0.234,-0.254,+0.433,+0.833,+0.876,-0.245,-0.407,+2.500,+3.500,+6.000,9, -12, 1, 2, -1, -2, -3, -4,-0.6752557895040586,1.037548161184643
1503618082201,-0.234,-0.254,+0.432,+0.833,+0.920,-0.258,-0.425,-3.062,-5.500,+0.062,1, 7, 7, 19, 1, 2, 2, 2,-0.6748491978344858,1.0351519604702386
1503618082217,-0.236,-0.253,+0.431,+0.833,+0.869,-0.215,-0.463,-0.562,-11.562,-8.938,-14, 2, -4, -7, 7, 0, 2, -1,-0.6769736536968501,1.0321498163394676
1503618082238,-0.237,-0.252,+0.430,+0.834,+0.821,-0.226,-0.473,-1.750,-10.438,-9.688,5, 4, 6, -1, -2, -2, -6, 0,-0.6775505391858083,1.0293411719798633
1503618082261,-0.239,-0.251,+0.429,+0.834,+0.804,-0.222,-0.462,-3.812,-6.062,-8.500,-3, 9, 0, -2, 1, 2, -1, -2,-0.6797012361312401,1.0263508614350962
1503618083363,-0.316,-0.302,+0.461,+0.772,+0.987,-0.161,-0.367,+34.625,-16.750,+28.250,-9, 5, 10, 2, 0, -4, -1, -5,-0.8922465802533752,1.160581083617023
1503618083379,-0.316,-0.308,+0.456,+0.773,+0.950,-0.186,-0.366,+36.062,-16.688,+29.938,-7, 1, -2, -1, 2, 0, 2, 51,-0.9000188579499713,1.1576294839099195
1503618083401,-0.315,-0.315,+0.451,+0.773,+0.941,-0.180,-0.382,+40.000,-8.438,+31.938,-5, -1, 0, -2, 0, -5, -7, -36,-0.9070600456156773,1.1556893317194143
1503618083423,-0.315,-0.323,+0.446,+0.773,+0.963,-0.205,-0.406,+41.438,-5.750,+35.000,-8, -11, 3, 5, -5, 4, 6, -2,-0.917816294674688,1.1557385356221912
1503618083439,-0.314,-0.331,+0.441,+0.773,+0.968,-0.226,-0.412,+44.875,-2.375,+37.312,2, -1, -4, 0, -3, -2, -2, -13,-0.9267631851883923,1.1558485885676848
1503618083461,-0.313,-0.340,+0.436,+0.772,+0.951,-0.251,-0.374,+49.125,-1.750,+36.125,18, 0, -9, -5, -7, -5, -3, 19,-0.937177494953689,1.1574649923098417
1503618083483,-0.312,-0.350,+0.431,+0.771,+0.935,-0.270,-0.346,+48.625,-0.188,+37.125,11, -2, -5, 0, 7, 2, 7, -1,-0.9495609922411765,1.1610842476715295
1503618083499,-0.310,-0.359,+0.427,+0.770,+0.923,-0.274,-0.338,+49.375,+3.812,+35.938,-8, -6, -4, -4, -3, -2, 2, 47,-0.959002966274874,1.1655508183527663
1503618083524,-0.309,-0.368,+0.423,+0.768,+0.921,-0.279,-0.329,+49.375,+8.500,+35.375,0, 11, 8, 6, -1, 3, -3, -12,-0.9703706384468147,1.1703707695916437
1503618083543,-0.308,-0.378,+0.419,+0.766,+0.896,-0.282,-0.333,+51.938,+8.625,+35.375,4, -5, -5, 0, -4, 4, -1, 6,-0.9838854194765798,1.1773420458443933
1503618083560,-0.307,-0.388,+0.416,+0.763,+0.889,-0.308,-0.307,+53.375,+11.938,+33.750,-1, -12, -4, -3, 0, -2, -2, -13,-0.9979201704735957,1.1867591883883069
1503618083581,-0.306,-0.398,+0.413,+0.760,+0.881,-0.333,-0.297,+52.688,+9.688,+31.188,22, 0, -1, 0, 8, 0, 0, 17,-1.0124212331942777,1.196717824400023
1503618083603,-0.306,-0.407,+0.409,+0.757,+0.841,-0.315,-0.301,+53.688,+9.625,+28.625,7, -1, -1, 1, 0, -1, 4, 36,-1.0269632288393273,1.203447321491757
1503618083619,-0.306,-0.416,+0.405,+0.755,+0.847,-0.316,-0.300,+54.500,+7.375,+27.375,1, -4, 1, -2, -1, -1, 3, -4,-1.0422355137323343,1.21097869011309
1503618083641,-0.306,-0.424,+0.401,+0.752,+0.848,-0.329,-0.291,+54.125,+3.750,+26.875,-4, 2, 4, 6, 15, 13, -5, -15,-1.0555419697818913,1.2167356521712935
1503618083664,-0.307,-0.433,+0.396,+0.749,+0.821,-0.326,-0.315,+55.938,+2.938,+26.188,14, 5, -2, -3, -6, -7, -4, 5,-1.0727742989780504,1.2230528741263917
1503618083679,-0.308,-0.441,+0.391,+0.747,+0.797,-0.367,-0.292,+55.625,+2.688,+26.625,-5, -14, -6, -4, -5, -3, -1, 7,-1.088637911286043,1.228156314953198
1503618083701,-0.308,-0.450,+0.387,+0.744,+0.796,-0.394,-0.252,+52.312,+2.438,+26.312,-9, 20, 11, 1, -2, 0, 4, -9,-1.1051967564191958,1.2373705340770296
1503618083724,-0.307,-0.458,+0.383,+0.741,+0.784,-0.411,-0.256,+47.125,+4.688,+25.562,1, -15, -2, -2, -3, -1, 5, 19,-1.1180557717651896,1.2446470752125443
1503618083739,-0.306,-0.465,+0.379,+0.739,+0.782,-0.425,-0.236,+43.750,+8.188,+26.188,1, 3, 0, 1, 4, -1, -6, 4,-1.1293498244730251,1.2504449572713323
1503618083761,-0.305,-0.473,+0.376,+0.736,+0.810,-0.459,-0.208,+39.375,+9.812,+24.938,-1, -2, 1, 1, -4, -3, 2, -10,-1.143407672581749,1.2607170525236535
1503618083783,-0.302,-0.479,+0.374,+0.734,+0.795,-0.514,-0.172,+30.812,+10.750,+23.750,-5, -13, 0, 2, 2, 0, -4, -18,-1.1500426055077158,1.2685829075556496
1503618083799,-0.299,-0.485,+0.372,+0.733,+0.787,-0.540,-0.135,+18.688,+9.625,+22.062,9, 11, -3, -1, -2, 1, 4, 5,-1.1572213419167598,1.2769609585371384
1503618083823,-0.296,-0.488,+0.372,+0.732,+0.806,-0.541,-0.136,+7.812,+14.938,+18.250,-7, -4, -9, -6, -5, -1, -12, -30,-1.15833529903034,1.2827631018212469
1503618083843,-0.293,-0.490,+0.372,+0.732,+0.844,-0.517,-0.140,-4.250,+8.562,+15.812,-2, -11, -9, -7, -4, -3, 2, 1,-1.1573914962123315,1.2865160469913517
1503618083859,-0.289,-0.490,+0.372,+0.733,+0.821,-0.505,-0.136,-16.375,+6.188,+17.062,2, 15, 10, 5, 1, 0, 3, -4,-1.149998734830904,1.2854844500554503
1503618083881,-0.284,-0.489,+0.373,+0.735,+0.771,-0.497,-0.176,-21.000,+8.938,+17.438,0, -9, -5, -3, 0, 3, 0, 17,-1.1390247698037748,1.2841426789657244
1503618083903,-0.280,-0.488,+0.375,+0.737,+0.762,-0.489,-0.259,-18.875,+19.875,+8.875,4, -13, -9, -2, -2, -2, 0, 0,-1.1304749371549623,1.2852887131386213
1503618083919,-0.277,-0.486,+0.377,+0.738,+0.859,-0.486,-0.227,-24.250,+12.812,+6.125,-2, 59, 24, 1, 0, 3, 9, 15,-1.1211735740967548,1.2841896057255242
1503618083941,-0.275,-0.482,+0.378,+0.741,+0.860,-0.463,-0.218,-29.625,+4.562,+6.312,-13, -31, -7, -2, 0, 2, -7, -17,-1.1090875261237736,1.277123068679092
1503618083963,-0.273,-0.478,+0.379,+0.744,+0.792,-0.459,-0.278,-29.000,-1.938,+4.125,11, -20, -19, -5, -6, -3, 0, 11,-1.097102811960454,1.2701700865941636
1503618083979,-0.271,-0.474,+0.380,+0.747,+0.715,-0.463,-0.261,-33.000,-2.125,-4.438,-4, -3, -1, 1, -4, 0, -4, -14,-1.085219383867724,1.2633312876689007
1503618084002,-0.270,-0.469,+0.382,+0.749,+0.720,-0.422,-0.224,-32.875,+5.000,-10.812,10, -16, -2, 3, 5, -2, 2, 31,-1.0732515186122635,1.2566260052289886
1503618084025,-0.270,-0.464,+0.386,+0.750,+0.760,-0.399,-0.229,-35.250,+9.250,-14.250,1, 13, 7, 1, -3, -2, -5, -12,-1.0640948441840716,1.2545933486133594
1503618084039,-0.270,-0.457,+0.391,+0.752,+0.772,-0.390,-0.265,-36.562,+8.312,-20.938,-1, 3, -1, 1, -1, -2, 0, -11,-1.0514107265930634,1.250924182542197
1503618084062,-0.273,-0.449,+0.395,+0.754,+0.799,-0.355,-0.330,-34.500,-1.000,-37.312,-7, -16, -7, 0, 0, 0, -6, -35,-1.0420632083966717,1.2442616653234475
1503618084084,-0.277,-0.442,+0.400,+0.754,+0.762,-0.396,-0.345,-29.500,+7.062,-49.188,-26, -11, -8, -2, -6, -7, -17, -30,-1.0370531923173283,1.2420763538252917
1503618084100,-0.282,-0.434,+0.407,+0.753,+0.754,-0.412,-0.297,-30.812,+14.438,-61.812,-1, -5, -6, -6, -1, -1, -2, 20,-1.0327817164846373,1.2426754981264505
1503618084121,-0.287,-0.426,+0.416,+0.750,+0.808,-0.375,-0.269,-28.000,+22.812,-70.188,0, 6, -1, 0, -4, -2, 1, -15,-1.0291124096745203,1.247566751150516
1503618084143,-0.294,-0.419,+0.427,+0.745,+0.881,-0.299,-0.289,-19.188,+33.312,-81.188,1, 8, 4, -1, 1, 1, 6, 40,-1.0317874725333522,1.2592574687547653
1503618084161,-0.304,-0.411,+0.438,+0.740,+0.939,-0.202,-0.280,-14.562,+25.375,-92.250,-2, -3, -3, -1, 5, 2, -4, 10,-1.0382642785710658,1.2701395421089623
1503618084181,-0.317,-0.401,+0.446,+0.734,+1.002,-0.142,-0.326,-5.688,+6.000,-94.000,-11, 4, 3, -2, -6, -6, 1, -21,-1.045165112975012,1.2714078209320372
1503618084203,-0.330,-0.394,+0.450,+0.730,+1.066,-0.192,-0.314,+10.000,-12.250,-86.938,-1, -2, -1, 2, -1, -2, -2, -1,-1.0572695822802687,1.269946337887335
1503618084219,-0.342,-0.388,+0.453,+0.726,+1.046,-0.239,-0.291,+8.938,-18.375,-77.625,3, -2, 0, -1, 3, -1, -7, -20,-1.0692916988574883,1.26790134297931
1503618084241,-0.354,-0.382,+0.454,+0.723,+0.992,-0.182,-0.293,+5.125,-21.688,-70.938,-7, -5, -8, -10, -8, -2, -8, -16,-1.0812694393082438,1.261779341818878
1503618084264,-0.364,-0.377,+0.457,+0.719,+1.006,-0.151,-0.291,+11.938,-12.062,-66.625,-14, -30, -7, -3, -4, -4, 1, 2,-1.0918350898967644,1.2611664497171833
1503618084279,-0.371,-0.375,+0.460,+0.714,+1.018,-0.184,-0.297,+18.562,+9.875,-50.250,6, 0, -9, 0, -2, 0, -1, 14,-1.1016094419055478,1.2646784678828433
1503618084302,-0.377,-0.377,+0.464,+0.708,+1.094,-0.215,-0.265,+23.062,+21.000,-40.125,17, 7, 4, 4, 0, -1, -1, 5,-1.1165715035835857,1.2766463879858452
1503618084325,-0.381,-0.379,+0.469,+0.701,+1.180,-0.219,-0.225,+24.312,+30.500,-41.812,-3, -5, -4, 0, 3, 1, 1, -2,-1.1275262895804337,1.2901396105097325
1503618084339,-0.386,-0.381,+0.474,+0.694,+1.194,-0.218,-0.212,+21.938,+33.438,-42.938,18, 8, 0, 2, -1, 1, 1, 2,-1.1404987287052566,1.3038819037976046
1503618084364,-0.391,-0.380,+0.477,+0.690,+1.043,-0.146,-0.253,+11.688,+6.750,-36.438,-2, -1, -4, -2, -5, -5, 0, -2,-1.148409876867524,1.308862197374995
1503618084384,-0.395,-0.379,+0.477,+0.687,+0.897,-0.131,-0.270,+12.375,+4.562,-27.062,-6, -6, 4, -1, -1, -1, -3, -6,-1.1537188619888183,1.3072193646570385
1503618084399,-0.397,-0.380,+0.480,+0.684,+0.892,-0.153,-0.246,+11.500,+22.500,-22.500,-9, -11, -2, -1, 2, -1, 2, -3,-1.159516637550702,1.3152299853386549
1503618084421,-0.398,-0.382,+0.485,+0.679,+0.959,-0.167,-0.187,+6.500,+32.875,-20.312,-5, 41, 15, 4, 1, -2, -1, -9,-1.1650654687711408,1.3287267837257277
1503618084443,-0.398,-0.382,+0.490,+0.675,+0.984,-0.157,-0.162,+0.188,+32.625,-23.000,-8, -37, -3, -1, -3, 2, 1, -1,-1.1653184892341513,1.3389613676876888
1503618084461,-0.399,-0.381,+0.493,+0.672,+1.000,-0.112,-0.181,-3.875,+17.938,-22.188,-17, 12, 1, -2, -1, -3, -4, -16,-1.1654856068489041,1.34349509643329
1503618084481,-0.400,-0.380,+0.497,+0.670,+1.017,-0.101,-0.159,-7.938,+11.688,-17.750,1, 3, 12, 2, 1, 2, 3, 4,-1.1662691549271027,1.3505257121364094
1503618084503,-0.401,-0.378,+0.499,+0.669,+0.968,-0.104,-0.142,-6.250,+3.062,-15.625,-15, 2, 5, 0, 1, -2, -3, -5,-1.1649719212229714,1.3516438383119027
1503618084519,-0.402,-0.378,+0.500,+0.668,+0.941,-0.154,-0.101,-2.938,-0.688,-17.312,-1, -10, -13, -3, -6, 0, -3, -2,-1.1669664810346176,1.3538423489988094
1503618084541,-0.402,-0.377,+0.502,+0.667,+0.966,-0.165,-0.083,-10.562,+5.938,-14.062,1, 2, -11, -5, -1, -1, 0, 0,-1.1654547338251284,1.3564795034569057
1503618084563,-0.400,-0.376,+0.507,+0.665,+0.927,-0.120,-0.071,-19.500,+21.188,-10.062,3, 6, -1, -1, -3, -1, -6, -5,-1.1605062801577828,1.365398889968082
1503618084580,-0.397,-0.375,+0.512,+0.663,+0.959,-0.049,-0.078,-19.688,+23.750,-3.000,-4, -13, -11, -4, -1, 1, 3, 4,-1.153581384586428,1.3742578355440764
1503618084602,-0.395,-0.375,+0.513,+0.663,+1.003,-0.053,-0.099,-10.375,+3.750,+4.188,0, 6, -2, -3, -1, -2, 0, -2,-1.1498974431307247,1.3762437978603963
1503618084623,-0.396,-0.373,+0.511,+0.665,+1.003,-0.149,-0.070,-5.812,-24.062,-0.562,-4, 5, 1, 2, 1, -1, 0, 0,-1.148344311526402,1.368976126920975
1503618084639,-0.396,-0.371,+0.508,+0.669,+0.913,-0.173,-0.016,-14.250,-37.688,-0.750,13, 19, 2, 3, 1, 0, 0, 0,-1.1451641738423686,1.3597274055897606
1503618084662,-0.394,-0.368,+0.507,+0.672,+0.860,-0.113,-0.049,-20.375,-24.875,+9.938,1, -12, 0, -2, -2, -3, -2, -8,-1.1365136355437448,1.3529230080950916
1503618084683,-0.390,-0.370,+0.510,+0.672,+1.207,-0.048,-0.078,-14.750,+19.188,+17.500,-6, 0, 4, -1, -5, -2, -2, -7,-1.133011217822373,1.3623772191623087
1503618084700,-0.389,-0.374,+0.517,+0.664,+1.163,-0.136,-0.202,+11.812,+60.500,-21.625,-6, -11, 11, 3, 4, 2, 1, 5,-1.1377548066149725,1.3830976883364183
1503618084721,-0.388,-0.376,+0.525,+0.658,+1.223,-0.258,+0.001,-3.500,+47.125,-26.500,-16, 4, -7, -4, -1, -3, -4, -2,-1.1399563347653068,1.403451697545749
1503618084743,-0.390,-0.373,+0.523,+0.660,+1.121,-0.080,-0.051,-8.938,-30.750,-11.000,2, 1, 4, 4, 3, 1, -7, -2,-1.1385078248794662,1.3946288497706723
1503618084762,-0.393,-0.369,+0.523,+0.660,+0.890,-0.104,-0.186,-6.125,-13.000,-24.125,5, -6, -2, -5, -3, -2, 3, 2,-1.1372861448287355,1.388607195597197
1503618084781,-0.394,-0.366,+0.525,+0.660,+0.874,-0.019,-0.196,-10.875,+2.500,-15.438,29, 13, 19, 3, 0, 0, -2, -15,-1.1345578571195407,1.3885764594632364
1503618084805,-0.394,-0.366,+0.527,+0.658,+1.039,+0.017,-0.177,-3.750,+16.812,-2.688,4, -1, 7, 2, -1, -1, 0, 7,-1.1345104256240042,1.3928209737191755
1503618084820,-0.393,-0.368,+0.530,+0.656,+1.155,-0.023,-0.087,+2.750,+21.750,+0.500,4, 6, -6, -4, -5, -1, 5, -2,-1.1363511399407193,1.402437125431678
1503618084841,-0.393,-0.368,+0.531,+0.654,+1.070,-0.063,-0.074,+5.688,+4.812,-4.938,23, 4, -8, -2, -1, -3, -4, 0,-1.1359984467470952,1.4043978160658246
1503618084864,-0.393,-0.369,+0.531,+0.654,+0.956,-0.108,-0.143,+1.875,+6.500,-1.312,-5, 0, 3, -2, -5, -1, 1, -6,-1.137786157931277,1.405984647625531
1503618084880,-0.391,-0.371,+0.533,+0.652,+0.941,-0.042,-0.165,-2.938,+28.375,+8.000,-17, -9, 2, -2, -4, -5, -1, -13,-1.1373854210487078,1.4132147521493112
1503618084902,-0.388,-0.374,+0.536,+0.650,+1.055,+0.023,-0.130,-1.312,+33.312,+14.938,-5, -1, 26, 4, -2, 0, -2, -3,-1.137190586825727,1.4242828893231296
1503618084924,-0.385,-0.378,+0.539,+0.647,+1.076,-0.024,-0.111,+3.500,+32.188,+15.312,-10, -1, -11, -1, 5, 1, -2, 0,-1.1385900854305566,1.4368669215147598
1503618084940,-0.382,-0.381,+0.541,+0.645,+0.999,-0.070,-0.005,+4.125,+26.688,+12.375,13, 3, 7, 3, 0, 0, -3, -3,-1.1382723818653697,1.4457502017760597
1503618084964,-0.380,-0.384,+0.541,+0.644,+0.988,-0.125,-0.044,+2.125,+9.938,+13.375,12, -10, -7, -3, -1, -3, -5, -5,-1.1396383233932454,1.4502824325130783
1503618084984,-0.379,-0.385,+0.541,+0.645,+0.987,-0.092,-0.067,-1.000,+0.062,+6.562,23, -3, -7, -4, -1, -2, -4, -13,-1.1398880404588032,1.4519435522468762
1503618085000,-0.378,-0.385,+0.541,+0.646,+1.015,-0.083,-0.043,-4.562,-1.312,+8.562,7, 10, -5, -2, 10, 5, 8, 5,-1.1382841436118116,1.4519806560980084
1503618085022,-0.376,-0.386,+0.540,+0.646,+0.996,-0.072,-0.062,-5.062,+0.688,+9.812,16, 9, 19, 6, -5, -3, -6, -2,-1.135981864967125,1.451114200092165
1503618085044,-0.375,-0.386,+0.541,+0.646,+0.962,-0.071,-0.067,-5.750,+5.000,+3.750,-43, -19, -17, -4, -5, -3, -4, -11,-1.1343933503015404,1.4533331836979346
1503618085060,-0.375,-0.386,+0.540,+0.647,+0.986,-0.089,-0.087,-2.562,-4.438,+6.250,2, -6, -7, -5, -8, -2, -3, 5,-1.1343840085754615,1.4511511450868586
1503618085082,-0.375,-0.386,+0.539,+0.648,+0.986,-0.108,-0.062,-1.812,-6.000,+2.812,-3, -6, -5, -1, 1, -3, 0, 3,-1.1343746664751526,1.4489728153123893
1503618085105,-0.375,-0.385,+0.538,+0.649,+1.004,-0.125,-0.051,-2.812,-11.375,+2.125,0, 6, 4, 3, 6, 2, 2, 1,-1.132503842574116,1.445166968605433
1503618085119,-0.375,-0.384,+0.537,+0.650,+0.978,-0.136,-0.087,-5.312,-9.188,-2.688,51, 29, 7, 1, -3, -2, 0, 8,-1.130637091809103,1.441364758856752
1503618085142,-0.375,-0.383,+0.537,+0.651,+0.968,-0.100,-0.109,-9.000,-6.250,-2.812,1, -9, -6, -2, -3, 0, 0, 39,-1.12910372865291,1.4398778822443858
1503618085164,-0.376,-0.381,+0.537,+0.652,+1.000,-0.067,-0.126,-4.938,-8.188,-5.812,-11, -5, 0, 2, -1, 1, 3, 4,-1.1276524026841894,1.4368789217460123
1503618085179,-0.377,-0.380,+0.535,+0.654,+1.007,-0.130,-0.107,+0.062,-17.312,-3.938,17, 4, -3, -1, -2, -6, -4, -5,-1.1277317498469634,1.4310361879410103
1503618085202,-0.379,-0.377,+0.534,+0.655,+0.991,-0.103,-0.090,-5.625,-17.375,-13.688,4, -5, 0, 0, 1, 1, 2, -9,-1.1261008528915428,1.4242555475797005
1503618085224,-0.381,-0.375,+0.533,+0.656,+0.981,-0.093,-0.124,-6.188,-13.625,-6.625,-45, -6, -5, -6, -5, -4, -7, -22,-1.1263439796541195,1.4191126080123413
1503618085240,-0.382,-0.374,+0.533,+0.656,+1.015,-0.030,-0.125,-3.688,-4.062,-4.125,-4, -5, 2, 1, 4, 3, 0, 3,-1.126475472338671,1.417624783964781
1503618085264,-0.383,-0.373,+0.533,+0.656,+1.045,-0.040,-0.116,+2.438,-3.500,-1.062,-7, 2, -4, -6, -6, -3, -5, -7,-1.1266141561346212,1.4161409472373694
1503618085284,-0.383,-0.374,+0.532,+0.656,+1.027,-0.083,-0.085,+5.312,-3.688,+3.438,-10, 5, 11, 2, 1, 0, -1, -6,-1.1281050638310424,1.4154259092061205
1503618085299,-0.383,-0.375,+0.531,+0.656,+1.014,-0.098,-0.094,+5.188,-5.500,+2.062,-6, 11, 10, 4, -6, 0, -4, 3,-1.129598943389917,1.4147181722428184
1503618085322,-0.384,-0.375,+0.530,+0.657,+0.988,-0.086,-0.116,+2.312,-5.312,+2.812,-62, -20, -14, -1, 0, 1, 2, -7,-1.131560494007608,1.4126930034706797
1503618085351,-0.384,-0.376,+0.529,+0.657,+0.977,-0.079,-0.122,+2.062,-2.688,+4.000,15, -3, -8, -2, -1, 0, 1, -1,-1.1330563930428132,1.4119962204549212
1503618085359,-0.384,-0.376,+0.528,+0.657,+0.983,-0.083,-0.115,+0.688,-3.625,+3.188,-47, -2, 5, 0, 1, -2, -3, -8,-1.1327362305958397,1.4096905403644615
1503618085382,-0.383,-0.376,+0.528,+0.658,+1.014,-0.095,-0.097,-1.562,-4.125,+4.062,5, 5, 7, 2, -3, -3, -1, 2,-1.131107784291821,1.409739513037348
1503618085404,-0.383,-0.376,+0.527,+0.659,+1.006,-0.083,-0.078,-1.438,-6.500,+6.062,-19, -2, -4, 1, 12, 4, 2, 0,-1.1311137685555173,1.4076059121531919
1503618085419,-0.383,-0.378,+0.525,+0.660,+1.000,-0.116,-0.118,+4.062,-8.812,+11.375,11, 10, 6, -5, -7, -4, 0, 5,-1.1344367173384455,1.4064161854612491
1503618085442,-0.382,-0.377,+0.524,+0.661,+1.014,-0.123,-0.090,-5.562,-9.000,+6.375,-53, -5, -2, -2, -1, 2, 0, -11,-1.1306649705030771,1.4025434437059587
1503618085465,-0.381,-0.377,+0.523,+0.662,+0.945,-0.060,-0.151,-5.438,-4.000,+6.562,20, 0, 2, 2, 1, 2, 1, 4,-1.1287136030622051,1.4002933453589517
1503618085479,-0.379,-0.378,+0.524,+0.663,+0.952,-0.077,-0.112,-4.188,+9.375,+12.688,-19, 3, -4, -3, -4, -3, -4, -5,-1.1272858478000165,1.4041390190115175
1503618085502,-0.378,-0.378,+0.524,+0.663,+0.999,-0.090,-0.115,-5.562,+2.750,+6.688,2, -3, -3, -3, -2, 1, -1, -2,-1.125338441556371,1.404012901028616
1503618085524,-0.379,-0.377,+0.522,+0.665,+1.045,-0.099,-0.163,-2.875,-14.750,+1.625,17, -3, 0, -1, -4, -6, -4, -4,-1.1254659600620338,1.3982740404691487
1503618085540,-0.380,-0.375,+0.521,+0.666,+0.980,-0.095,-0.119,-4.750,-17.625,-3.375,3, -14, -2, -1, 3, -1, 4, 0,-1.1237900896441326,1.3930466997563182
1503618085562,-0.381,-0.373,+0.519,+0.668,+0.973,-0.091,-0.117,-8.250,-23.938,-3.250,0, -7, -4, -1, 3, 0, -5, -8,-1.1221444458887937,1.3857269297003738
1503618085584,-0.382,-0.370,+0.518,+0.670,+0.985,-0.047,-0.119,-8.812,-18.625,-2.688,24, 2, 2, 2, -5, -4, -4, 1,-1.1190577968192954,1.3791245050423304
1503618085607,-0.382,-0.368,+0.517,+0.671,+1.009,-0.066,-0.137,-8.188,-12.125,+1.062,13, 4, 6, 1, 4, 1, 0, -2,-1.1154898926362165,1.3738142277543266
1503618085622,-0.382,-0.367,+0.517,+0.673,+0.970,-0.084,-0.173,-10.875,-5.625,+2.688,-33, 5, 2, 0, -1, 0, -1, 0,-1.1143819540574467,1.3726228089604418
1503618085644,-0.381,-0.366,+0.517,+0.674,+0.961,-0.075,-0.171,-11.188,-3.375,+4.500,17, 3, 2, 2, -3, 0, -1, 6,-1.1109674994086776,1.3710877829183632
1503618085659,-0.380,-0.365,+0.517,+0.675,+0.998,-0.086,-0.176,-8.750,+0.125,+4.625,3, -4, -6, -3, 2, -2, -2, -2,-1.1075576017875335,1.3695569977401607
1503618085682,-0.378,-0.365,+0.517,+0.676,+0.979,-0.113,-0.156,-7.250,-2.312,+4.625,0, -3, -1, -1, 0, 1, 1, -4,-1.1039582061527706,1.369471421148674
1503618085704,-0.378,-0.364,+0.516,+0.677,+0.958,-0.139,-0.183,-8.875,-7.438,+3.125,-17, -16, -1, -1, -7, 0, 1, -2,-1.1021940788179276,1.3657837985386734
1503618085719,-0.378,-0.363,+0.515,+0.678,+0.939,-0.103,-0.189,-5.688,-5.188,-0.875,5, 7, -3, -2, 1, -4, 0, 3,-1.1004345117739731,1.36210072082516
1503618085742,-0.379,-0.362,+0.514,+0.680,+0.944,-0.117,-0.211,-0.875,-10.062,-3.188,17, 4, -1, 0, -16, 1, 4, 1,-1.101000843654671,1.358793103543167
1503618085766,-0.380,-0.360,+0.513,+0.680,+0.947,-0.111,-0.185,-1.875,-7.500,-6.375,1, 5, 5, 2, 2, -1, 1, 0,-1.0991284610496064,1.3534797682687334
1503618085779,-0.382,-0.359,+0.512,+0.680,+0.993,-0.095,-0.205,+0.062,-7.062,-7.250,1, -6, -4, -3, 3, 1, -11, -6,-1.101015728183492,1.3499076251094084
1503618085802,-0.384,-0.358,+0.512,+0.680,+0.988,-0.083,-0.193,+1.188,-9.062,-11.312,-6, -1, -5, -1, -7, 0, 2, 3,-1.1032465159214717,1.3486494538572344
1503618085833,-0.385,-0.357,+0.512,+0.680,+0.991,-0.096,-0.176,+1.000,-3.188,-10.938,5, 1, -4, -3, -1, 1, -2, -1,-1.1034953690544385,1.3472370401650433
1503618085839,-0.386,-0.356,+0.511,+0.680,+1.017,-0.103,-0.171,+1.750,-9.188,-4.750,-20, -7, -1, 0, 2, -3, -3, -3,-1.1034292589072867,1.3435199240742588
1503618085862,-0.388,-0.355,+0.510,+0.680,+1.009,-0.082,-0.174,+1.438,-11.750,-7.812,14, 14, -1, 1, 3, -1, 7, 5,-1.1053772675144367,1.3399685244401498
1503618085884,-0.390,-0.354,+0.509,+0.681,+0.954,-0.090,-0.186,-0.375,-10.188,-6.125,-1, -11, -7, -3, 0, -2, -1, 3,-1.1076944320871795,1.3366610103746572
1503618085900,-0.391,-0.353,+0.509,+0.681,+0.961,-0.104,-0.201,-1.188,-5.875,-7.562,8, 14, 5, -2, -2, 1, 3, -1,-1.1079814482222252,1.3352639883385276
1503618085922,-0.392,-0.353,+0.508,+0.681,+0.977,-0.101,-0.196,-1.625,-5.000,-5.438,-22, -25, -9, -2, -1, -1, -4, -10,-1.10968129174247,1.3331259302747953
1503618085944,-0.392,-0.351,+0.509,+0.681,+0.961,-0.051,-0.151,-6.000,-2.375,-9.875,50, -11, -5, -5, -1, -1, 1, 1,-1.1065573454392905,1.332314694320577
1503618085959,-0.393,-0.350,+0.509,+0.681,+1.028,-0.099,-0.193,-1.188,-4.875,-4.625,14, 7, -6, -1, 1, 0, -2, -1,-1.1068625208391811,1.3309282323465037
1503618085982,-0.394,-0.350,+0.509,+0.681,+1.008,-0.059,-0.179,-2.812,-6.125,-1.562,3, 9, 3, 4, -4, 2, 2, 2,-1.1088847399814012,1.3310949379420698
1503618086004,-0.395,-0.348,+0.508,+0.681,+1.000,-0.031,-0.212,+1.000,-8.250,-6.312,-5, -5, 0, -1, -7, -5, -3, -5,-1.1071819186529936,1.3258566032649102
1503618086019,-0.396,-0.347,+0.507,+0.682,+1.049,-0.044,-0.170,-1.812,-16.812,-1.000,9, 2, 0, -2, -2, -3, -4, 1,-1.1075532829899948,1.3224205826086661
1503618086042,-0.396,-0.346,+0.507,+0.683,+0.992,-0.041,-0.153,-6.875,-4.562,+2.750,-8, 3, 1, 0, 6, 1, 3, 3,-1.106210810088102,1.3211284876950242
1503618086064,-0.395,-0.346,+0.507,+0.684,+0.968,-0.051,-0.165,-7.438,-10.000,+5.750,44, 25, 0, 1, 2, -4, 2, 0,-1.104534562633824,1.3212082207838995
1503618086080,-0.396,-0.343,+0.505,+0.686,+0.947,-0.037,-0.246,-7.312,-15.438,-2.000,-2, -13, -6, -3, -3, 6, 3, 7,-1.1015905146182459,1.3126660428686774
1503618086103,-0.397,-0.341,+0.504,+0.687,+0.946,-0.041,-0.217,-6.938,-12.062,-3.688,5, 8, 10, -1, 1, -1, -3, 0,-1.100319369357709,1.3077343584422596
1503618086124,-0.398,-0.339,+0.504,+0.688,+0.942,-0.041,-0.227,-6.875,-10.438,-3.062,-23, -6, -1, 0, -1, -3, -2, -13,-1.0993803005018996,1.3051291743102318
1503618086140,-0.398,-0.338,+0.503,+0.689,+0.983,-0.052,-0.245,-5.500,-8.812,-0.875,-1, 4, -1, -1, -2, 1, -4, 4,-1.0977675851807451,1.3015665572025248
1503618088261,-0.338,-0.345,+0.415,+0.771,+0.905,-0.257,-0.368,+12.750,-4.312,+29.188,1, -1, -2, -3, -5, 0, 0, 5,-0.987007980778945,1.124777910753264
1503618088283,-0.336,-0.349,+0.412,+0.772,+0.900,-0.246,-0.385,+12.062,-5.312,+26.625,5, -13, -8, 0, 5, 0, -1, -16,-0.9887994689418799,1.1242148137512553
1503618088305,-0.334,-0.352,+0.408,+0.773,+0.876,-0.248,-0.382,+12.812,-6.875,+27.250,2, 2, -1, -1, -2, -1, -5, 2,-0.9885452594462977,1.119874708429767
1503618088322,-0.332,-0.355,+0.406,+0.774,+0.846,-0.263,-0.367,+14.875,-2.750,+25.938,-2, 10, 5, 2, 4, 2, -3, -6,-0.9891161634369992,1.1200292078698713
1503618088346,-0.330,-0.359,+0.403,+0.775,+0.860,-0.292,-0.382,+16.125,-1.625,+24.812,-2, 16, 5, 1, 0, 1, 1, -1,-0.9910202536002447,1.119644563670111
1503618088365,-0.327,-0.363,+0.400,+0.775,+0.905,-0.297,-0.383,+17.188,+1.875,+26.312,0, -11, -11, -7, -4, -4, -2, 1,-0.9905585733363419,1.1186334052007414
1503618088381,-0.326,-0.367,+0.398,+0.775,+0.898,-0.300,-0.388,+17.875,-1.562,+26.000,1, -7, -4, -1, 8, -1, 4, 14,-0.9946510525704884,1.1205785573783824
1503618088403,-0.325,-0.371,+0.394,+0.776,+0.876,-0.296,-0.387,+21.875,-9.125,+24.562,1, 18, 12, 0, -1, -2, -3, 1,-0.9983292609210848,1.1185404162568102
1503618088425,-0.324,-0.375,+0.389,+0.776,+0.871,-0.306,-0.379,+22.000,-12.625,+22.250,0, 10, -2, 2, 1, -1, 0, -3,-1.0012552536635178,1.1140277558754332
1503618088442,-0.323,-0.379,+0.385,+0.777,+0.847,-0.339,-0.375,+22.625,-12.062,+23.000,-9, 4, 0, -3, -4, -2, 2, -11,-1.0050250277628012,1.11218454653331
1503618088463,-0.323,-0.383,+0.381,+0.777,+0.849,-0.349,-0.381,+24.188,-7.875,+23.562,-3, -10, -2, 2, 1, 1, 0, 1,-1.0105259957222852,1.11043799750238
1503618088486,-0.322,-0.387,+0.377,+0.777,+0.854,-0.333,-0.384,+23.562,-6.938,+22.750,1, 1, 2, -3, -4, -2, 0, -23,-1.014034800724716,1.1084322824676187
1503618088502,-0.321,-0.392,+0.374,+0.777,+0.847,-0.356,-0.363,+23.688,-6.562,+21.938,6, -9, -6, 0, 0, 0, -2, 12,-1.0198975440098708,1.110525913129132
1503618088523,-0.320,-0.396,+0.370,+0.777,+0.838,-0.383,-0.364,+24.438,-8.562,+21.375,3, -22, -7, -2, 0, 0, 0, 23,-1.0235426255930697,1.1087356437377727
1503618088547,-0.320,-0.400,+0.365,+0.777,+0.816,-0.390,-0.362,+25.000,-11.188,+17.562,-3, -10, -5, -1, -1, -1, -2, -1,-1.0288578403508033,1.105260343023517
1503618088561,-0.320,-0.404,+0.362,+0.777,+0.803,-0.407,-0.355,+24.688,-10.000,+14.438,-1, -1, 4, 4, -1, 0, -5, 3,-1.0351362909132222,1.1062469292635726
1503618088584,-0.321,-0.408,+0.359,+0.776,+0.802,-0.411,-0.351,+24.188,-5.375,+11.188,7, 3, -1, -4, -2, 0, 3, 6,-1.043199215732942,1.1073851015479745
1503618088606,-0.322,-0.412,+0.356,+0.775,+0.829,-0.404,-0.332,+25.375,-5.812,+7.875,9, 1, -6, -2, -3, -1, -1, 5,-1.0513469386671077,1.1086418857299392
1503618088622,-0.323,-0.415,+0.353,+0.773,+0.876,-0.427,-0.340,+26.500,-9.625,+4.000,-19, 3, 6, -2, -2, -4, -5, -12,-1.0572607314747209,1.1077209924943003
1503618088644,-0.326,-0.418,+0.349,+0.773,+0.870,-0.426,-0.358,+27.000,-19.250,+3.125,8, 1, 2, 3, 3, 1, 1, 14,-1.0676328565837132,1.106257588461706
1503618088665,-0.329,-0.421,+0.345,+0.772,+0.835,-0.427,-0.364,+27.000,-23.562,-0.188,-3, -1, 1, 3, -1, -1, -6, -32,-1.077736204513624,1.1045644357015032
1503618088682,-0.332,-0.423,+0.340,+0.772,+0.804,-0.433,-0.332,+20.500,-22.312,+1.688,0, 24, 6, 5, 1, -2, -5, -4,-1.0858186462850343,1.0992125883639927
1503618088704,-0.332,-0.425,+0.338,+0.771,+0.780,-0.434,-0.323,+16.125,-5.812,+6.500,-2, -3, 1, -3, -1, 1, 1, -1,-1.0886263493591346,1.0986573296933635
1503618088725,-0.331,-0.428,+0.338,+0.770,+0.836,-0.434,-0.297,+11.938,+4.250,+10.375,1, -2, -1, -3, -2, -2, 1, 4,-1.092267914549346,1.1039532690844802
1503618088742,-0.330,-0.431,+0.337,+0.769,+0.833,-0.451,-0.308,+8.875,+4.250,+10.750,-4, -7, -7, -7, -5, -1, 5, 9,-1.0955274413195237,1.1071915705519881
1503618088764,-0.328,-0.433,+0.337,+0.769,+0.780,-0.500,-0.263,+3.625,+5.188,+8.562,-7, -5, -6, -3, 0, 0, -4, 76,-1.0954626593539691,1.1104374437332114
1503618088786,-0.326,-0.435,+0.337,+0.769,+0.871,-0.535,-0.259,-5.688,-0.250,+7.125,1, -7, 0, 0, 0, 0, 1, -13,-1.0954294369468212,1.1137053150466614
1503618088802,-0.322,-0.434,+0.338,+0.771,+0.887,-0.519,-0.300,-21.688,+2.750,+14.375,1, 19, 3, 3, 3, 3, 5, -9,-1.0861410137235041,1.1127052626035343
1503618088824,-0.317,-0.432,+0.340,+0.773,+0.725,-0.466,-0.332,-29.250,+21.500,+17.250,-7, -15, -4, -1, -3, -6, -8, -60,-1.0731976720752467,1.1113720789328527
1503618088849,-0.314,-0.430,+0.342,+0.774,+0.796,-0.452,-0.393,-26.062,+7.375,+4.812,2, -2, -5, -4, -5, -2, 2, 63,-1.064121039769959,1.1106130460707606
1503618088862,-0.311,-0.426,+0.343,+0.777,+0.789,-0.452,-0.425,-31.188,+4.938,+8.125,-4, -5, -4, -3, 0, -1, -1, -80,-1.0512167901235645,1.104392607604197
1503618088885,-0.307,-0.424,+0.345,+0.779,+0.694,-0.473,-0.401,-27.250,+16.188,+6.562,5, -14, -6, -2, 0, 0, 3, 20,-1.040519698304443,1.1036704100244223
1503618088905,-0.303,-0.422,+0.349,+0.780,+0.732,-0.472,-0.320,-28.812,+24.312,+4.750,0, -8, 1, 0, 1, -1, 0, 3,-1.0304991232016418,1.107004759111227
1503618088922,-0.299,-0.419,+0.352,+0.781,+0.824,-0.507,-0.359,-32.125,+16.875,+0.375,7, 6, 9, 9, 8, 3, 0, 1,-1.018052866714192,1.1062725249920895
1503618088944,-0.295,-0.416,+0.360,+0.781,+0.691,-0.438,-0.346,-36.625,+41.000,-10.062,-3, 3, -2, -4, -2, -1, -1, -16,-1.0078165342156578,1.1162937851197978
1503618088965,-0.293,-0.412,+0.367,+0.781,+0.614,-0.447,-0.368,-33.562,+39.250,-25.875,-5, 5, 3, 1, -1, -3, -2, 6,-0.9992773353746457,1.1231918370354566
1503618088983,-0.293,-0.408,+0.375,+0.779,+0.670,-0.429,-0.377,-30.750,+41.000,-39.688,2, -12, -7, -5, -3, -1, -4, 5,-0.9946489558440856,1.132576963142581
1503618089004,-0.296,-0.403,+0.385,+0.776,+0.718,-0.425,-0.367,-26.625,+43.625,-59.250,-2, -2, -3, 2, 1, -1, -8, -27,-0.9947465925604788,1.1454697408286474
1503618089026,-0.302,-0.396,+0.397,+0.771,+0.711,-0.370,-0.339,-23.500,+42.250,-81.875,-6, -8, 2, 1, 6, -2, -5, -5,-0.9972289443977401,1.1596871353186522
1503618089042,-0.310,-0.390,+0.409,+0.765,+0.753,-0.341,-0.316,-22.062,+42.625,-92.812,-1, 2, 3, 8, 3, 2, -10, -3,-1.0051804218809313,1.1762502748358268
1503618089064,-0.317,-0.383,+0.424,+0.757,+0.925,-0.265,-0.315,-20.125,+59.375,-91.062,1, 39, 3, 1, 0, 0, 7, 27,-1.0097943828366556,1.1969655963738706
1503618089086,-0.324,-0.378,+0.440,+0.748,+0.966,-0.146,-0.379,-12.250,+71.125,-90.812,3, -25, -4, 1, -2, 0, 0, 3,-1.0179893439726684,1.2233936219228763
1503618089102,-0.333,-0.373,+0.452,+0.739,+0.978,-0.122,-0.361,+0.625,+50.875,-85.625,9, -8, 2, 5, 1, -2, -1, 28,-1.028300934854416,1.2415593552832265
1503618089124,-0.343,-0.368,+0.461,+0.731,+1.083,-0.134,-0.331,+9.375,+29.125,-81.438,4, 6, 7, 1, -1, 0, 0, 1,-1.039701539736712,1.2536186146239465
1503618089145,-0.354,-0.364,+0.467,+0.724,+1.062,-0.107,-0.347,+20.812,+17.938,-79.438,1, -1, -6, -1, 2, -2, -3, -7,-1.054134560063524,1.2611195683587237
1503618089162,-0.366,-0.362,+0.470,+0.717,+0.980,-0.121,-0.293,+28.250,+4.188,-75.875,-28, -19, -6, -2, 0, -2, -6, -21,-1.0731311362732547,1.2653077293511283
1503618089192,-0.376,-0.359,+0.473,+0.711,+0.993,-0.146,-0.244,+25.188,+0.938,-66.562,-11, -17, -3, -5, -4, 0, 0, -6,-1.0869137869620444,1.2676933985210577
1503618089206,-0.384,-0.359,+0.477,+0.704,+0.958,-0.166,-0.200,+19.188,+18.062,-56.500,5, 20, 12, 4, 0, 1, 2, 7,-1.1019564162805273,1.2764545360347133
1503618089223,-0.387,-0.360,+0.485,+0.696,+0.944,-0.127,-0.168,+13.875,+46.500,-46.375,-5, 5, 0, -3, -3, -1, 0, 0,-1.1095753391637215,1.2945847842280247
1503618089244,-0.389,-0.363,+0.495,+0.687,+0.962,-0.059,-0.156,+10.500,+63.688,-38.500,-1, -5, 4, 0, -1, 1, 1, 2,-1.1189490353908018,1.320177908085001
1503618089266,-0.391,-0.364,+0.503,+0.679,+1.097,-0.010,-0.139,+8.188,+51.438,-34.688,0, -2, -3, -2, -1, -1, 2, -2,-1.1245379172293908,1.3384422466499195
1503618089283,-0.393,-0.364,+0.509,+0.673,+1.141,-0.043,-0.143,+7.188,+32.750,-28.375,-15, -2, -3, -2, -1, -3, -8, -34,-1.1284068118807313,1.3511270165542508
1503618089303,-0.394,-0.364,+0.515,+0.668,+1.082,-0.082,-0.074,-1.062,+28.688,-27.312,5, -6, -10, -5, -4, 0, 1, 16,-1.1305968769535668,1.3639663601883099
1503618089326,-0.394,-0.364,+0.521,+0.664,+1.014,-0.053,-0.047,-8.062,+32.500,-21.688,0, -4, -18, -1, -1, -2, -1, 1,-1.1311163982912031,1.3769577662223866
1503618089348,-0.392,-0.364,+0.527,+0.660,+1.072,-0.029,-0.116,-14.688,+33.375,-9.750,5, -1, 1, -1, 0, 0, 1, 1,-1.127656436687023,1.3897753228002623
1503618089364,-0.390,-0.365,+0.531,+0.658,+1.104,-0.017,-0.112,-8.562,+26.250,-0.750,29, 9, 4, 0, 0, -2, 1, 7,-1.126047542728492,1.4000021426240403
1503618089386,-0.388,-0.365,+0.534,+0.656,+1.061,-0.053,-0.102,-6.875,+18.125,-4.250,-31, -9, -6, 1, 0, 1, 1, 3,-1.1223711930653102,1.4063762615942925
1503618089408,-0.388,-0.365,+0.535,+0.656,+1.013,-0.106,-0.121,-2.750,+7.062,-1.625,18, -15, 1, 0, -6, -4, -2, 0,-1.1226882671696161,1.408704263148683
1503618089424,-0.388,-0.364,+0.536,+0.656,+0.983,-0.056,-0.110,-6.625,+0.250,-7.125,-18, 2, 0, -1, 0, 0, -2, 3,-1.1212238160061192,1.4094668173509173
1503618089445,-0.387,-0.362,+0.539,+0.654,+0.973,+0.030,-0.082,-13.250,+12.688,-6.062,26, 17, 1, 1, 0, -2, -5, -10,-1.115970497169269,1.4128952964791215
1503618089468,-0.385,-0.364,+0.542,+0.652,+1.002,-0.011,-0.110,-4.812,+26.750,+3.000,-21, -26, -8, -4, 1, 0, 2, -9,-1.1158858766669375,1.4224783342941123
1503618089485,-0.385,-0.365,+0.542,+0.652,+0.989,-0.033,-0.175,+1.875,+9.375,+5.875,4, 13, 20, 4, 2, -1, 3, 16,-1.117674644825816,1.4240363696565566
1503618089505,-0.385,-0.364,+0.543,+0.651,+1.005,-0.007,-0.063,-1.375,+1.375,-2.625,-24, 1, 5, 0, -3, -1, 1, -2,-1.1158673872617229,1.424661305631682
1503618089528,-0.385,-0.364,+0.544,+0.650,+1.008,-0.061,-0.038,+0.500,+0.250,-3.375,1, 29, 10, 5, 3, 1, -6, -6,-1.1158488964586348,1.4268481081472544
1503618089544,-0.384,-0.365,+0.545,+0.650,+1.016,-0.060,-0.054,-1.000,+7.562,+2.625,-24, 0, 13, 1, -2, 0, 2, 12,-1.11600487692641,1.4306440064723749
1503618089566,-0.384,-0.366,+0.545,+0.649,+0.984,-0.023,-0.090,-1.125,+6.312,+4.938,-24, -2, 1, -2, -1, 1, -1, -9,-1.1174623418376461,1.432049375040232
1503618089582,-0.383,-0.367,+0.545,+0.649,+1.014,-0.040,-0.107,+0.250,-0.500,+5.625,10, 10, -8, -5, 0, -1, -5, 10,-1.1173098148047294,1.4335090234816508
1503618089604,-0.383,-0.367,+0.544,+0.650,+1.000,-0.079,-0.073,-0.125,-1.812,+6.250,7, -25, -14, -3, -5, -1, 1, -3,-1.1173238611932341,1.431318424382869
1503618089627,-0.382,-0.368,+0.544,+0.650,+1.012,-0.071,-0.069,-0.250,-0.500,+4.000,-12, -3, 1, -1, 6, 2, 2, -3,-1.1171767421416203,1.4327814797065805
1503618089642,-0.381,-0.369,+0.544,+0.651,+1.023,-0.081,-0.088,-1.438,+2.250,+9.188,-15, -7, -8, -1, -4, -2, -5, -43,-1.1173713300820878,1.4343967566219078
1503618089664,-0.380,-0.370,+0.544,+0.651,+0.981,-0.062,-0.074,-3.125,+3.938,+5.250,17, -4, 1, -4, -2, 0, 1, 9,-1.117237800379668,1.435866130657509
1503618089689,-0.379,-0.370,+0.544,+0.651,+0.973,-0.082,-0.075,-1.812,+1.188,+7.062,-9, -6, -5, -1, 0, 0, 8, 8,-1.1152984140512037,1.435766368624186
1503618089702,-0.378,-0.371,+0.544,+0.651,+0.998,-0.100,-0.078,-3.938,-0.938,+3.250,3, 5, -5, -2, -1, 0, -1, -2,-1.1151752364992458,1.4372404994561847
1503618089724,-0.378,-0.370,+0.544,+0.652,+0.985,-0.082,-0.087,-5.938,-3.000,-2.250,-33, -51, -10, 0, -1, -2, -2, 3,-1.1136952573793089,1.4358133019993058
1503618089746,-0.378,-0.369,+0.544,+0.652,+0.956,-0.070,-0.077,-4.812,-2.312,-6.125,-12, -9, -6, -10, -7, -2, 4, -9,-1.111884462274454,1.4342432822769302
1503618089762,-0.379,-0.368,+0.544,+0.652,+1.004,-0.062,-0.101,-4.188,-5.062,-4.625,14, -3, 3, -1, 1, 1, 4, 3,-1.112016298923303,1.4327770675707634
1503618089790,-0.379,-0.367,+0.544,+0.652,+1.017,-0.075,-0.085,-4.312,-4.625,-5.625,10, 10, 3, 2, 2, -2, -6, -8,-1.1102118853451173,1.4312124743854622
1503618089806,-0.380,-0.365,+0.544,+0.653,+1.012,-0.071,-0.088,-6.562,-10.438,-6.500,4, -6, -4, -3, -7, 0, -3, -9,-1.1088963801943854,1.428349158780009
1503618089825,-0.380,-0.363,+0.544,+0.654,+0.996,-0.048,-0.078,-8.188,-7.375,-4.938,40, 29, 9, 4, 3, 0, -1, 1,-1.105652055038108,1.4253993075969784
1503618089844,-0.380,-0.362,+0.544,+0.655,+1.004,-0.042,-0.123,-9.875,-5.125,-0.438,-24, -26, -9, 1, -1, 1, -3, -7,-1.1042066328454347,1.424010042046997
1503618089866,-0.380,-0.360,+0.544,+0.656,+1.014,-0.040,-0.125,-5.500,-6.688,-1.938,0, 9, 0, -2, -7, -3, 3, 4,-1.1009852467844752,1.4210855148314356
1503618089882,-0.381,-0.359,+0.542,+0.657,+1.022,-0.057,-0.111,-5.125,-14.688,-3.000,47, 13, 7, 2, -3, 3, 3, 4,-1.1008561612927201,1.4151191470375715
1503618089904,-0.381,-0.358,+0.542,+0.658,+0.995,-0.068,-0.093,-7.188,-9.188,+0.438,13, 4, -5, 3, 2, -1, -1, -3,-1.0994294301541534,1.4137501610156347
1503618089926,-0.380,-0.356,+0.542,+0.659,+0.975,-0.038,-0.117,-8.938,-3.125,+1.312,2, -3, -15, -7, -4, -2, 0, 4,-1.0942811086895081,1.4107421130726652
1503618089942,-0.380,-0.356,+0.542,+0.660,+1.003,-0.040,-0.111,-6.500,-3.875,+4.062,-14, 7, 0, 1, -1, -1, 2, 12,-1.0946302024678807,1.410915090374972
1503618089967,-0.380,-0.355,+0.541,+0.661,+1.017,-0.065,-0.125,-5.062,-9.812,+2.750,-9, -10, 12, 5, 6, 8, 9, -6,-1.0928895066102187,1.4072077706320394
1503618089990,-0.380,-0.354,+0.539,+0.663,+0.973,-0.083,-0.119,-6.438,-14.125,-0.875,53, 14, -8, 1, -5, -3, 0, 11,-1.0911773359046804,1.4013316413577526
1503618090008,-0.380,-0.352,+0.539,+0.664,+0.954,-0.067,-0.121,-9.438,-11.062,-3.375,26, 7, -6, -3, 2, 1, -2, 9,-1.0880220372132534,1.3984680919568642
1503618090025,-0.380,-0.350,+0.539,+0.665,+0.983,-0.034,-0.132,-9.875,-5.188,-0.188,-17, -7, -3, -4, -9, -2, 0, 1,-1.0848813825152743,1.395620606896993
1503618090046,-0.380,-0.349,+0.538,+0.667,+1.018,-0.039,-0.142,-6.625,-8.625,+0.312,-14, -12, -4, -5, -1, -3, 1, 3,-1.0835238505383304,1.3921296874797702
1503618090062,-0.381,-0.347,+0.537,+0.668,+1.014,-0.060,-0.134,-3.875,-16.625,-3.812,9, -17, -8, 0, 7, 2, 2, 0,-1.0820555201583655,1.3870743958271832
1503618090084,-0.382,-0.345,+0.535,+0.670,+0.985,-0.068,-0.135,-6.250,-18.688,-4.438,14, 13, 3, 4, -5, 0, -4, 2,-1.0806452005642586,1.3798776299688527
1503618090113,-0.382,-0.343,+0.534,+0.671,+0.968,-0.051,-0.163,-8.375,-11.125,-2.500,10, -1, 5, -2, -10, -1, -5, -1,-1.0772399866031568,1.3747235408949567
1503618090122,-0.383,-0.342,+0.534,+0.672,+0.977,-0.045,-0.162,-8.438,-9.500,-3.188,-8, -6, -3, -1, 1, -3, -6, -8,-1.0778742834924742,1.3735711601433434
1503618090144,-0.383,-0.340,+0.534,+0.673,+1.001,-0.041,-0.135,-7.750,-8.375,-2.750,-13, -10, -2, -1, 2, -3, -4, -14,-1.0748197406673552,1.3708026808847407
1503618090166,-0.383,-0.339,+0.533,+0.674,+0.995,-0.042,-0.167,-6.188,-8.812,-1.062,-3, -17, -7, -5, -6, 0, 0, -6,-1.0731570057733948,1.3671680902328107
1503618090188,-0.383,-0.337,+0.532,+0.675,+0.983,-0.060,-0.183,-8.500,-8.250,-1.750,4, -17, -10, -2, 0, -3, 1, -1,-1.0698014739710768,1.362056510025265
1503618090204,-0.383,-0.336,+0.532,+0.676,+0.979,-0.052,-0.170,-9.688,-6.500,-2.500,6, -10, -8, -4, -3, -1, -1, 11,-1.0684760253547096,1.3607996929612456
1503618090226,-0.383,-0.334,+0.532,+0.677,+1.017,-0.027,-0.166,-7.312,-8.688,-3.312,12, 10, -5, -2, -1, 3, 8, 18,-1.0654677024547763,1.3580774185971622
1503618090248,-0.384,-0.332,+0.531,+0.678,+1.002,-0.041,-0.153,-6.125,-12.438,-3.875,1, -17, -11, -1, 7, -3, -5, -3,-1.0641529516784274,1.3531434164282472
1503618090265,-0.384,-0.331,+0.531,+0.679,+0.964,-0.049,-0.163,-7.125,-11.625,-2.688,-24, -33, -8, -4, -4, 0, -4, 2,-1.0628497434798285,1.3519111333964626
1503618090289,-0.384,-0.329,+0.530,+0.681,+0.964,-0.026,-0.181,-9.500,-8.438,-1.000,11, 8, 10, 2, -1, -1, 9, -2,-1.0599350939718757,1.34709194789373
1503618090308,-0.384,-0.328,+0.530,+0.681,+0.977,-0.024,-0.176,-7.750,-3.375,-0.250,13, -3, 8, 0, -3, 1, 0, -20,-1.0582690278643954,1.3456388303614526
1503618090325,-0.384,-0.326,+0.529,+0.682,+0.993,-0.030,-0.183,-5.688,-11.625,-1.375,6, 4, -4, -4, -14, -4, -7, -4,-1.0550018616441394,1.3406047189521253
1503618090346,-0.385,-0.325,+0.528,+0.683,+0.961,-0.043,-0.211,-3.938,-10.938,-4.062,-23, 1, -13, -6, -2, -4, -16, -13,-1.05541774880492,1.337176908714958
1503618090368,-0.387,-0.323,+0.527,+0.684,+0.976,-0.021,-0.228,-1.125,-13.125,-7.062,-4, 5, -6, -3, 3, 1, 7, 5,-1.05621857523342,1.3324691241109103
1503618090384,-0.389,-0.322,+0.526,+0.685,+0.973,-0.019,-0.214,+0.125,-9.375,-7.500,4, -14, -4, 1, -10, -1, 4, 7,-1.0586915582624723,1.3292164377259408
1503618090406,-0.389,-0.321,+0.526,+0.685,+0.986,-0.043,-0.196,-1.562,-2.250,-5.125,11, 8, 1, 2, 6, 6, 9, 29,-1.0570544935761197,1.3277812719951503
1503618090428,-0.390,-0.320,+0.526,+0.684,+0.955,-0.030,-0.211,-3.562,+2.312,-6.250,-12, -10, -6, -3, 5, -2, -4, -3,-1.0570678317825746,1.32624888650777
1503618090444,-0.390,-0.320,+0.527,+0.684,+0.953,-0.004,-0.218,-2.438,+4.312,-5.938,-4, -11, -13, -6, -5, -3, -2, -5,-1.0573824441700808,1.328624138575142
1503618090473,-0.390,-0.320,+0.528,+0.683,+0.980,+0.001,-0.203,+0.625,+6.500,-2.438,-6, -14, 0, -3, -7, 0, 2, -6,-1.0573136526954547,1.3307484370202118
1503618090490,-0.391,-0.320,+0.529,+0.682,+1.012,-0.013,-0.200,+1.688,+7.562,-2.000,18, 8, 6, 1, 1, -2, -3, -2,-1.0592757262643235,1.3330273734605944
1503618090504,-0.390,-0.321,+0.530,+0.681,+0.971,-0.020,-0.170,+0.875,+9.938,-1.750,-5, 7, 20, 9, 11, 0, -3, -6,-1.0588140487828805,1.3364377864854997
1503618090527,-0.391,-0.322,+0.531,+0.680,+0.965,-0.043,-0.178,+1.188,+5.188,-3.250,-11, 0, -2, -2, -1, -1, -4, -11,-1.0624150330601756,1.3401512810437646
1503618090549,-0.392,-0.321,+0.531,+0.679,+1.011,-0.001,-0.178,+1.500,+1.062,-8.125,0, 0, -10, -6, -7, -1, 1, 6,-1.0624230579627134,1.338623912465904
1503618090565,-0.393,-0.321,+0.532,+0.678,+1.024,-0.003,-0.164,+2.438,+2.188,-5.938,1, 9, 1, 2, 54, 1, 1, 2,-1.0643855235536122,1.3409082233752738
