Timestamp,Orientation X,Orientation Y,Orientation Z,Orientation W,Accelerometer X,Accelerometer Y,Accelerometer Z,Gyroscope X,Gyroscope Y,Gyroscope Z,EMG1,EMG2,EMG3,EMG4,EMG5,EMG6,EMG7,EMG8,Roll,Yaw,Window
1503512621916,+0.690,+0.443,-0.270,-0.504,+0.899,-0.052,-0.409,-2.188,-0.625,+0.688,-4, -2, -2, -1, -3, -2, 3, 0,-1.9240882075131138,1.0892460386773515,0
1503512621931,+0.690,+0.443,-0.270,-0.504,+0.895,-0.053,-0.409,-0.812,-0.688,+1.625,-1, -1, -3, -1, 0, -2, -4, -4,-1.9240882075131138,1.0892460386773515,0
1503512621958,+0.690,+0.443,-0.270,-0.504,+0.902,-0.075,-0.422,-0.562,+0.562,+1.438,0, 1, 1, 0, 0, -1, -1, 1,-1.9240882075131138,1.0892460386773515,0
1503512621994,+0.690,+0.443,-0.270,-0.504,+0.899,-0.072,-0.410,-1.750,+0.625,+0.875,5, 4, 3, 3, 0, -3, -15, -2,-1.9240882075131138,1.0892460386773515,0
1503512621996,+0.691,+0.443,-0.270,-0.504,+0.903,-0.055,-0.400,-1.875,-1.375,+0.312,0, 2, -2, -1, 0, 0, -3, -2,-1.9263349699120675,1.0896573591124918,0
1503512622014,+0.691,+0.443,-0.270,-0.504,+0.903,-0.067,-0.408,-0.250,-1.312,+0.812,-4, 0, -1, 0, -1, -2, 3, 1,-1.9263349699120675,1.0896573591124918,0
1503512622035,+0.691,+0.443,-0.269,-0.504,+0.896,-0.080,-0.416,-0.938,+0.000,+0.375,-1, -2, -1, -2, -3, -2, 3, -2,-1.9266442036858988,1.088231343044187,0
1503512622050,+0.690,+0.443,-0.270,-0.504,+0.896,-0.063,-0.409,-2.562,+1.000,+0.062,0, 0, 0, 1, 1, 7, 5, 1,-1.9240882075131138,1.0892460386773515,0
1503512622072,+0.690,+0.443,-0.270,-0.504,+0.897,-0.048,-0.399,-2.000,+1.125,+0.688,-2, 0, 1, -1, -1, 1, 5, 1,-1.9240882075131138,1.0892460386773515,0
1503512622095,+0.690,+0.443,-0.270,-0.504,+0.902,-0.066,-0.415,-0.062,+2.062,+1.000,0, 1, -1, -3, -1, -3, -3, -3,-1.9240882075131138,1.0892460386773515,0
1503512622111,+0.690,+0.444,-0.270,-0.504,+0.909,-0.083,-0.419,-1.062,+1.750,+0.438,0, 1, -1, 0, 0, 1, 2, 0,-1.9255696732391896,1.0914635046078305,0
1503512622135,+0.690,+0.444,-0.270,-0.504,+0.910,-0.074,-0.405,-2.250,-0.188,-0.250,1, 1, -1, 0, -1, 0, -3, 1,-1.9255696732391896,1.0914635046078305,0
1503512622155,+0.690,+0.443,-0.271,-0.504,+0.896,-0.049,-0.397,-2.125,-2.938,+0.000,2, 2, 2, 2, 2, 1, -4, -3,-1.9237807710206385,1.090675769997935,0
1503512622170,+0.690,+0.443,-0.270,-0.504,+0.888,-0.051,-0.408,-0.688,-3.188,+0.812,-6, -4, -2, -2, -2, -6, -7, -3,-1.9240882075131138,1.0892460386773515,0
1503512622192,+0.690,+0.443,-0.270,-0.504,+0.893,-0.068,-0.419,-0.125,-0.250,+1.562,0, -2, -3, -1, -2, 2, 7, 3,-1.9240882075131138,1.0892460386773515,0
1503512622215,+0.690,+0.443,-0.270,-0.504,+0.903,-0.082,-0.418,-1.625,+3.188,+1.438,0, 0, 0, 1, 1, -4, 5, 4,-1.9240882075131138,1.0892460386773515,0
1503512622230,+0.690,+0.444,-0.271,-0.504,+0.905,-0.076,-0.407,-2.438,+3.500,+0.250,0, -1, -2, -2, -1, -1, 1, -5,-1.9252606532400593,1.0928917772904778,0
1503512622253,+0.690,+0.444,-0.271,-0.504,+0.920,-0.059,-0.409,-2.188,+1.188,+0.000,0, -1, -1, -1, -2, 0, 0, -2,-1.9252606532400593,1.0928917772904778,0
1503512622275,+0.690,+0.444,-0.271,-0.504,+0.904,-0.062,-0.416,-1.625,-0.438,+0.188,-1, -2, -1, -1, -2, -1, -2, -1,-1.9252606532400593,1.0928917772904778,0
1503512622291,+0.690,+0.443,-0.271,-0.504,+0.899,-0.063,-0.411,-1.875,-1.875,-0.500,0, 0, -3, 1, -2, 1, -2, -1,-1.9237807710206385,1.090675769997935,0
1503512622312,+0.690,+0.443,-0.271,-0.504,+0.898,-0.061,-0.405,-2.438,-1.188,+0.000,-2, -3, -2, -1, -1, -2, 2, 3,-1.9237807710206385,1.090675769997935,0
1503512622335,+0.690,+0.443,-0.271,-0.504,+0.889,-0.065,-0.408,-2.000,+0.750,+0.312,-2, -1, -1, -1, -1, -2, -5, -5,-1.9237807710206385,1.090675769997935,0
1503512622353,+0.690,+0.443,-0.271,-0.504,+0.902,-0.065,-0.410,-1.562,+2.125,+0.625,1, -2, -2, -2, -1, -4, 4, 3,-1.9237807710206385,1.090675769997935,0
1503512622375,+0.690,+0.443,-0.271,-0.504,+0.914,-0.065,-0.410,-1.188,+0.562,+0.938,-3, 0, 0, -1, 1, 5, 5, 0,-1.9237807710206385,1.090675769997935,0
1503512622395,+0.690,+0.443,-0.271,-0.504,+0.910,-0.073,-0.403,-0.812,+0.000,-0.188,-3, -2, -2, -3, -1, -3, -1, -2,-1.9237807710206385,1.090675769997935,0
1503512622411,+0.690,+0.443,-0.271,-0.504,+0.899,-0.065,-0.410,-1.750,-1.688,-0.688,0, 0, 1, 0, -1, 1, -2, -2,-1.9237807710206385,1.090675769997935,0
1503512622435,+0.690,+0.443,-0.272,-0.504,+0.892,-0.055,-0.408,-1.812,-1.875,-0.562,-3, -2, 0, 1, -1, 0, 5, -1,-1.9234738467759758,1.0921079300038545,0
1503512622455,+0.690,+0.443,-0.272,-0.504,+0.889,-0.056,-0.406,-0.812,+0.188,+0.625,4, 2, 1, -1, -1, 0, -4, -2,-1.9234738467759758,1.0921079300038545,0
1503512622471,+0.690,+0.443,-0.272,-0.504,+0.896,-0.071,-0.410,-0.812,+2.250,+1.250,0, -2, -2, -1, -4, -11, -7, -2,-1.9234738467759758,1.0921079300038545,0
1503512622493,+0.689,+0.443,-0.272,-0.504,+0.914,-0.070,-0.406,-1.312,+3.438,+0.562,-1, 0, 0, -2, 1, 0, -6, 5,-1.9212248598361803,1.0916985417130491,0
1503512622516,+0.689,+0.444,-0.272,-0.504,+0.910,-0.060,-0.401,-1.938,+2.062,+0.875,-3, -2, -3, -2, 0, -3, 3, -6,-1.922708507073762,1.0939140803616392,0
1503512622538,+0.689,+0.444,-0.272,-0.504,+0.917,-0.059,-0.405,-1.125,-0.875,+0.188,-2, -2, -1, -1, -2, -4, -5, -1,-1.922708507073762,1.0939140803616392,0
1503512622554,+0.689,+0.443,-0.272,-0.504,+0.904,-0.063,-0.415,-0.750,-2.375,+0.938,0, -2, 0, -2, -3, -2, 1, -4,-1.9212248598361803,1.0916985417130491,0
1503512622577,+0.690,+0.443,-0.272,-0.504,+0.896,-0.064,-0.404,-1.312,-2.812,-0.062,-3, -2, -1, 0, 1, 6, 4, -1,-1.9234738467759758,1.0921079300038545,0
1503512622597,+0.690,+0.443,-0.272,-0.504,+0.894,-0.064,-0.408,-1.625,-0.500,+0.562,1, 1, -1, -1, 0, -5, -1, 3,-1.9234738467759758,1.0921079300038545,0
1503512622613,+0.689,+0.443,-0.272,-0.504,+0.893,-0.056,-0.406,-1.312,+1.375,+0.750,1, -1, -1, -1, 1, -2, -5, 0,-1.9212248598361803,1.0916985417130491,0
1503512622637,+0.689,+0.444,-0.272,-0.504,+0.905,-0.065,-0.401,-0.938,+2.312,+0.938,-6, -4, -4, -2, 0, 1, 3, -1,-1.922708507073762,1.0939140803616392,0
1503512622657,+0.689,+0.444,-0.272,-0.504,+0.908,-0.064,-0.409,-0.875,+2.375,+0.875,0, -2, 0, -1, -1, 1, 5, 5,-1.922708507073762,1.0939140803616392,0
1503512622673,+0.689,+0.444,-0.272,-0.504,+0.917,-0.068,-0.409,-1.250,-0.125,+0.312,-1, 0, 0, 2, 1, 9, 1, -3,-1.922708507073762,1.0939140803616392,0
1503512622695,+0.689,+0.444,-0.272,-0.504,+0.906,-0.066,-0.398,-1.188,-1.250,+0.562,-1, -3, -2, -2, -2, -3, -1, -4,-1.922708507073762,1.0939140803616392,0
1503512622717,+0.689,+0.443,-0.272,-0.504,+0.896,-0.058,-0.400,-1.562,-4.062,-0.062,0, 4, 4, 3, 0, -3, -4, -2,-1.9212248598361803,1.0916985417130491,0
1503512622733,+0.689,+0.443,-0.272,-0.504,+0.890,-0.050,-0.407,-0.562,-1.688,+1.375,-1, -4, -2, -4, -2, -1, -1, -1,-1.9212248598361803,1.0916985417130491,0
1503512622755,+0.689,+0.443,-0.272,-0.504,+0.897,-0.069,-0.407,-0.250,+0.312,+1.375,0, 0, -2, 0, -1, 0, -3, -7,-1.9212248598361803,1.0916985417130491,0
1503512622777,+0.689,+0.443,-0.272,-0.504,+0.906,-0.082,-0.415,-0.875,+2.750,+1.125,2, -1, -2, -2, -1, -4, -2, 1,-1.9212248598361803,1.0916985417130491,0
1503512622792,+0.689,+0.444,-0.272,-0.504,+0.907,-0.071,-0.403,-1.812,+2.250,+0.375,-5, 1, 1, 0, 1, -6, -6, -3,-1.922708507073762,1.0939140803616392,0
1503512622815,+0.689,+0.444,-0.272,-0.504,+0.907,-0.051,-0.411,-2.125,-1.125,+1.312,-3, 0, -1, -1, -1, 3, -4, -2,-1.922708507073762,1.0939140803616392,0
1503512622838,+0.689,+0.443,-0.272,-0.505,+0.905,-0.048,-0.406,-0.625,-2.812,+1.250,-1, 2, 0, 0, 0, -1, -3, -2,-1.9207505263796658,1.0919499807740818,0
1503512622854,+0.689,+0.443,-0.272,-0.505,+0.904,-0.070,-0.415,-0.250,-2.000,+0.562,0, -2, -1, 0, -1, -1, 1, 1,-1.9207505263796658,1.0919499807740818,0
1503512622875,+0.689,+0.443,-0.272,-0.505,+0.899,-0.082,-0.414,-1.188,-0.375,+0.312,-3, -3, -1, -1, -1, 0, -9, -4,-1.9207505263796658,1.0919499807740818,0
1503512622890,+0.689,+0.443,-0.272,-0.505,+0.896,-0.062,-0.406,-2.562,+0.750,-0.188,0, 0, 0, 1, -1, -2, -4, 0,-1.9207505263796658,1.0919499807740818,0
1503512622913,+0.689,+0.443,-0.273,-0.505,+0.895,-0.043,-0.407,-1.688,+1.438,+0.688,0, 0, -2, -1, -1, 2, 1, -1,-1.9204461983537897,1.0933859886176625,0
1503512622935,+0.689,+0.443,-0.273,-0.504,+0.904,-0.061,-0.405,-0.062,+1.375,+1.312,0, 1, 0, 1, 0, -6, -6, 0,-1.920919740625536,1.0931344226651036,0
1503512622951,+0.689,+0.443,-0.273,-0.504,+0.913,-0.071,-0.410,-0.375,+0.125,+0.750,-1, -2, -2, -3, -3, 0, 2, -4,-1.920919740625536,1.0931344226651036,0
1503512622973,+0.689,+0.443,-0.272,-0.505,+0.903,-0.068,-0.400,-1.125,-1.562,+0.500,-2, -2, 0, -2, 0, 1, -1, 0,-1.9207505263796658,1.0919499807740818,0
1503512622995,+0.689,+0.443,-0.272,-0.505,+0.904,-0.067,-0.409,-1.188,-1.562,+0.938,7, 3, 1, 1, 1, 7, -2, 8,-1.9207505263796658,1.0919499807740818,0
1503512623012,+0.689,+0.443,-0.272,-0.505,+0.897,-0.073,-0.413,-1.250,+0.062,+0.312,-3, -3, -2, -2, -3, -5, 4, -2,-1.9207505263796658,1.0919499807740818,0
1503512623041,+0.689,+0.443,-0.273,-0.505,+0.898,-0.071,-0.405,-2.375,+1.750,-0.125,-5, -1, -2, -2, -3, 3, 2, -5,-1.9204461983537897,1.0933859886176625,0
1503512623055,+0.689,+0.443,-0.273,-0.505,+0.897,-0.051,-0.411,-2.938,+1.625,+0.500,-2, 0, -2, -1, 1, 0, -2, -2,-1.9204461983537897,1.0933859886176625,0
1503512623074,+0.689,+0.443,-0.273,-0.505,+0.906,-0.052,-0.403,-1.750,+0.812,+0.812,1, -1, -1, 0, 3, 11, 3, 1,-1.9204461983537897,1.0933859886176625,0
1503512623092,+0.689,+0.443,-0.273,-0.505,+0.904,-0.074,-0.413,-0.812,+0.125,+0.812,2, 0, 2, 0, 0, -4, -2, -3,-1.9204461983537897,1.0933859886176625,0
1503512623116,+0.689,+0.443,-0.273,-0.505,+0.907,-0.071,-0.403,-1.812,-0.812,-0.500,-3, 0, 0, 1, 0, 3, 0, -5,-1.9204461983537897,1.0933859886176625,0
1503512623131,+0.689,+0.443,-0.273,-0.505,+0.899,-0.054,-0.398,-2.188,-0.812,-0.375,-1, -1, -3, -1, -1, -1, 4, 2,-1.9204461983537897,1.0933859886176625,0
1503512623152,+0.689,+0.443,-0.273,-0.505,+0.892,-0.053,-0.408,-1.062,-0.438,+0.438,-1, -3, -1, -2, -1, -3, -2, -3,-1.9204461983537897,1.0933859886176625,0
1503512623176,+0.689,+0.443,-0.273,-0.505,+0.899,-0.065,-0.413,-0.312,+1.000,+0.562,-2, 0, -1, -2, -3, -7, -2, -6,-1.9204461983537897,1.0933859886176625,0
1503512623197,+0.689,+0.443,-0.273,-0.505,+0.897,-0.070,-0.402,-1.312,+1.250,+0.438,0, -1, -1, 1, -3, -5, -8, -2,-1.9204461983537897,1.0933859886176625,0
1503512623213,+0.689,+0.443,-0.273,-0.505,+0.904,-0.066,-0.405,-1.625,+0.062,+0.688,-3, -2, -1, 0, 1, 6, 5, 4,-1.9204461983537897,1.0933859886176625,0
1503512623236,+0.689,+0.443,-0.273,-0.505,+0.898,-0.060,-0.406,-1.312,-0.250,+1.000,4, 3, 1, 0, 0, 0, -7, 0,-1.9204461983537897,1.0933859886176625,0
1503512623257,+0.689,+0.443,-0.273,-0.505,+0.907,-0.061,-0.405,-0.938,-1.375,+0.812,4, 3, 1, 1, 2, -1, -5, -1,-1.9204461983537897,1.0933859886176625,0
1503512623273,+0.689,+0.443,-0.273,-0.505,+0.906,-0.071,-0.404,-0.938,+0.125,+0.875,3, 1, 1, 1, -1, -6, -6, 2,-1.9204461983537897,1.0933859886176625,0
1503512623295,+0.689,+0.443,-0.273,-0.505,+0.896,-0.062,-0.400,-1.500,+0.562,+0.438,-4, -1, -1, -2, 1, 2, 1, -3,-1.9204461983537897,1.0933859886176625,0
1503512623317,+0.689,+0.443,-0.274,-0.505,+0.905,-0.057,-0.410,-1.250,+1.688,+0.500,0, 1, -2, 0, 1, 0, 4, 0,-1.9201423774762982,1.0948244183592168,0
1503512623332,+0.688,+0.443,-0.274,-0.505,+0.901,-0.062,-0.413,-0.688,+1.938,+1.250,-9, -4, -6, -4, -2, 7, 14, -2,-1.9178939288197863,1.0944173730154114,0
1503512623355,+0.688,+0.443,-0.274,-0.505,+0.916,-0.066,-0.400,-1.125,+0.000,+0.375,-5, -5, -4, -3, -4, -4, 2, -2,-1.9178939288197863,1.0944173730154114,0
1503512623379,+0.688,+0.444,-0.274,-0.505,+0.910,-0.059,-0.403,-1.438,-0.938,+0.062,4, 1, 2, 2, 1, 1, 2, -3,-1.9193783532267479,1.096629791979388,0
1503512623392,+0.689,+0.443,-0.274,-0.505,+0.900,-0.054,-0.400,-1.250,-2.188,+0.312,-3, 0, -1, 1, -1, 0, 2, -1,-1.9201423774762982,1.0948244183592168,0
1503512623415,+0.688,+0.443,-0.274,-0.505,+0.897,-0.066,-0.404,-0.062,-0.938,+0.562,2, 0, 1, -1, 1, 1, -1, 2,-1.9178939288197863,1.0944173730154114,0
1503512623438,+0.688,+0.443,-0.274,-0.505,+0.889,-0.070,-0.402,-1.000,+0.375,+0.750,1, -1, -1, 0, -1, -2, -5, -5,-1.9178939288197863,1.0944173730154114,0
1503512623455,+0.688,+0.443,-0.274,-0.505,+0.902,-0.062,-0.405,-1.438,+1.250,+0.812,7, 3, 1, 2, 0, -3, -8, 3,-1.9178939288197863,1.0944173730154114,0
1503512623475,+0.688,+0.443,-0.274,-0.505,+0.904,-0.048,-0.408,-1.000,+1.000,+2.000,-4, -2, -2, -1, -2, -3, 6, 2,-1.9178939288197863,1.0944173730154114,0
1503512623498,+0.688,+0.444,-0.274,-0.505,+0.917,-0.072,-0.413,-0.188,+0.375,+1.375,1, 0, -1, 0, 0, -1, 2, -1,-1.9193783532267479,1.096629791979388,0
1503512623517,+0.688,+0.444,-0.274,-0.505,+0.913,-0.085,-0.406,-0.938,-0.625,+0.375,2, 1, 1, 1, 0, 5, 4, 4,-1.9193783532267479,1.096629791979388,0
1503512623535,+0.688,+0.443,-0.274,-0.505,+0.907,-0.062,-0.400,-2.875,-2.375,-0.250,-12, -9, -7, -6, -6, -4, 6, -8,-1.9178939288197863,1.0944173730154114,0
1503512623557,+0.688,+0.443,-0.274,-0.505,+0.894,-0.043,-0.403,-2.000,-1.875,+0.500,1, 0, 1, -2, -2, 2, 0, 1,-1.9178939288197863,1.0944173730154114,0
1503512623575,+0.688,+0.443,-0.274,-0.505,+0.894,-0.055,-0.410,-0.188,-0.500,+1.625,0, 1, -1, 2, -1, -4, -10, -1,-1.9178939288197863,1.0944173730154114,0
1503512623595,+0.688,+0.443,-0.274,-0.505,+0.908,-0.079,-0.406,-0.062,+1.062,+1.000,3, -1, -2, -1, -2, -1, -1, -1,-1.9178939288197863,1.0944173730154114,0
1503512623617,+0.688,+0.443,-0.274,-0.505,+0.907,-0.068,-0.407,-1.562,+1.250,+0.688,-5, -3, -4, -2, -1, 1, 7, -1,-1.9178939288197863,1.0944173730154114,0
1503512623632,+0.688,+0.443,-0.274,-0.505,+0.909,-0.055,-0.400,-1.375,-0.188,+0.625,-2, -1, -1, -1, -3, -2, -1, 2,-1.9178939288197863,1.0944173730154114,0
1503512623655,+0.688,+0.443,-0.274,-0.505,+0.908,-0.058,-0.408,-0.438,-1.625,+0.688,1, 0, 0, 1, 0, -1, -3, 1,-1.9178939288197863,1.0944173730154114,0
1503512623677,+0.689,+0.443,-0.273,-0.505,+0.900,-0.071,-0.402,-0.250,-2.000,+0.188,3, -1, -1, 1, 1, -1, -5, -1,-1.9204461983537897,1.0933859886176625,0
1503512623693,+0.689,+0.443,-0.273,-0.505,+0.898,-0.065,-0.402,-1.062,-1.125,+0.688,-5, -1, -2, -3, -2, -8, 0, -2,-1.9204461983537897,1.0933859886176625,0
1503512623715,+0.689,+0.443,-0.273,-0.505,+0.897,-0.056,-0.413,-1.188,+0.062,+0.812,-4, -2, -2, -3, -2, 1, -4, -5,-1.9204461983537897,1.0933859886176625,0
1503512623737,+0.688,+0.443,-0.273,-0.505,+0.902,-0.059,-0.410,-0.188,+1.375,+1.188,-2, -3, -1, 1, 0, 1, -1, 0,-1.9181964464431862,1.092977646236476,0
1503512623760,+0.688,+0.443,-0.273,-0.505,+0.909,-0.073,-0.413,-0.062,+0.875,+0.438,0, 0, 0, -2, -1, -5, -5, 3,-1.9181964464431862,1.092977646236476,0
1503512623778,+0.688,+0.443,-0.273,-0.505,+0.913,-0.067,-0.411,-1.125,-0.438,+0.312,1, -1, 0, -2, 0, 0, -1, 0,-1.9181964464431862,1.092977646236476,0
1503512623797,+0.689,+0.443,-0.273,-0.505,+0.903,-0.061,-0.400,-1.125,-2.125,+0.812,0, 0, 0, -1, -2, -5, 0, 1,-1.9204461983537897,1.0933859886176625,0
1503512623816,+0.689,+0.443,-0.273,-0.505,+0.902,-0.065,-0.405,-1.000,-2.125,+0.750,-1, 0, -2, 0, -1, 0, 2, -1,-1.9204461983537897,1.0933859886176625,0
1503512623835,+0.689,+0.442,-0.273,-0.505,+0.892,-0.059,-0.408,-1.625,-1.000,+0.500,-3, -2, -3, -3, -2, 4, 6, 2,-1.9189659657012101,1.0911748390602334,0
1503512623857,+0.689,+0.442,-0.273,-0.505,+0.894,-0.054,-0.410,-1.688,-0.375,+1.000,1, 4, 1, 1, -2, -3, -4, -3,-1.9189659657012101,1.0911748390602334,0
1503512623873,+0.689,+0.442,-0.273,-0.505,+0.901,-0.059,-0.403,-0.875,+0.938,+1.250,1, -3, 0, 0, 1, 2, -2, -3,-1.9189659657012101,1.0911748390602334,0
1503512623895,+0.689,+0.443,-0.273,-0.505,+0.899,-0.079,-0.413,-0.688,+2.125,+0.875,-1, 0, -2, 0, 0, 1, 0, 1,-1.9204461983537897,1.0933859886176625,0
1503512623921,+0.688,+0.443,-0.273,-0.505,+0.909,-0.074,-0.403,-1.500,+2.250,+0.062,0, -1, 1, 2, -2, -3, -4, 1,-1.9181964464431862,1.092977646236476,0
1503512623933,+0.688,+0.443,-0.273,-0.505,+0.911,-0.060,-0.403,-2.000,+1.062,+0.375,-2, 0, 1, 1, -1, -8, -5, -6,-1.9181964464431862,1.092977646236476,0
1503512623955,+0.688,+0.443,-0.273,-0.505,+0.907,-0.055,-0.409,-1.125,-0.625,+0.438,-2, -2, -2, -1, 1, 4, 7, -1,-1.9181964464431862,1.092977646236476,0
1503512623979,+0.688,+0.443,-0.273,-0.505,+0.898,-0.062,-0.408,-0.875,-1.562,+0.312,6, 1, -1, 1, 2, 10, -3, 5,-1.9181964464431862,1.092977646236476,0
1503512623993,+0.688,+0.443,-0.273,-0.505,+0.901,-0.069,-0.417,-1.125,-0.812,+0.312,1, -1, -1, -3, 0, -1, -4, 0,-1.9181964464431862,1.092977646236476,0
1503512624015,+0.688,+0.443,-0.273,-0.505,+0.896,-0.064,-0.407,-1.812,+0.188,+0.750,1, -1, -1, -1, 0, 0, 2, 2,-1.9181964464431862,1.092977646236476,0
1503512624038,+0.688,+0.443,-0.273,-0.505,+0.902,-0.062,-0.413,-1.688,+0.688,+0.875,-5, 0, 2, 1, -1, -3, -2, -9,-1.9181964464431862,1.092977646236476,0
1503512624054,+0.688,+0.443,-0.273,-0.505,+0.908,-0.067,-0.403,-1.125,+0.688,+1.500,1, -2, -5, -1, -3, -3, -2, 0,-1.9181964464431862,1.092977646236476,0
1503512624075,+0.688,+0.443,-0.273,-0.505,+0.906,-0.070,-0.402,-1.438,-0.188,+0.625,-1, 1, 0, -2, -1, -10, -21, -2,-1.9181964464431862,1.092977646236476,0
1503512624097,+0.688,+0.443,-0.273,-0.505,+0.900,-0.061,-0.401,-1.812,+0.438,+1.000,2, 1, 1, 2, 2, 2, 6, 0,-1.9181964464431862,1.092977646236476,0
1503512624114,+0.688,+0.443,-0.273,-0.505,+0.894,-0.053,-0.407,-2.062,-0.062,+1.625,0, -3, -2, -1, -3, -4, -2, -2,-1.9181964464431862,1.092977646236476,0
1503512624135,+0.688,+0.443,-0.273,-0.506,+0.910,-0.064,-0.417,-0.812,+0.312,+1.688,-1, -1, -2, -2, -1, 2, -2, 1,-1.9177268392424727,1.0932293645604176,0
1503512624158,+0.688,+0.443,-0.273,-0.506,+0.913,-0.086,-0.400,-0.625,+1.062,+1.188,-3, -1, -1, -2, 0, 1, 0, -1,-1.9177268392424727,1.0932293645604176,0
1503512624174,+0.688,+0.443,-0.273,-0.506,+0.904,-0.078,-0.394,-1.812,-0.688,-0.750,-2, 0, -1, 0, -2, 1, 5, 1,-1.9177268392424727,1.0932293645604176,0
1503512624196,+0.688,+0.443,-0.274,-0.505,+0.899,-0.052,-0.401,-1.875,-0.500,-0.688,0, -1, -2, -2, 2, 10, 6, -4,-1.9178939288197863,1.0944173730154114,0
1503512624217,+0.688,+0.443,-0.274,-0.505,+0.894,-0.047,-0.401,-1.000,+0.375,+0.500,-2, 1, -1, -2, -2, -5, -5, -2,-1.9178939288197863,1.0944173730154114,0
1503512624233,+0.688,+0.443,-0.274,-0.505,+0.903,-0.065,-0.407,-0.125,+2.312,+0.812,1, 0, 0, -1, 0, 0, 4, 4,-1.9178939288197863,1.0944173730154114,0
1503512624255,+0.688,+0.444,-0.274,-0.505,+0.908,-0.074,-0.399,-0.688,+3.125,+0.875,4, 2, 1, 1, 0, 0, -8, -2,-1.9193783532267479,1.096629791979388,0
1503512624280,+0.688,+0.444,-0.274,-0.505,+0.910,-0.067,-0.400,-1.625,+1.000,+0.188,3, 0, 0, -1, 0, -2, 2, 4,-1.9193783532267479,1.096629791979388,0
1503512624294,+0.688,+0.444,-0.274,-0.505,+0.904,-0.049,-0.408,-1.125,-1.625,+0.500,-3, 0, 1, 1, 0, 0, 5, -4,-1.9193783532267479,1.096629791979388,0
1503512624315,+0.688,+0.443,-0.274,-0.505,+0.908,-0.068,-0.403,+0.250,-2.125,+0.688,-5, -3, -4, -2, -3, -6, 3, 1,-1.9178939288197863,1.0944173730154114,0
1503512624337,+0.688,+0.444,-0.273,-0.505,+0.904,-0.086,-0.401,-0.500,-0.438,+0.375,-1, -3, -1, -1, -1, 2, 0, -4,-1.9196824561977954,1.0951915366690708,0
1503512624353,+0.688,+0.444,-0.274,-0.505,+0.895,-0.069,-0.398,-2.375,+0.500,+0.188,-2, -3, -2, -1, -1, -3, -4, -1,-1.9193783532267479,1.096629791979388,0
1503512624376,+0.688,+0.444,-0.274,-0.505,+0.900,-0.045,-0.399,-1.562,+0.188,+0.938,8, 3, 3, 2, 1, -2, -15, 3,-1.9193783532267479,1.096629791979388,0
1503512624397,+0.688,+0.444,-0.274,-0.505,+0.903,-0.059,-0.411,+0.125,+0.562,+1.375,-4, -2, -1, -2, -3, 0, 2, -4,-1.9193783532267479,1.096629791979388,0
1503512624416,+0.688,+0.444,-0.274,-0.505,+0.906,-0.077,-0.417,-0.375,+0.062,+0.688,1, -2, -1, -2, -3, -6, 3, -1,-1.9193783532267479,1.096629791979388,0
1503512624435,+0.688,+0.444,-0.274,-0.505,+0.902,-0.068,-0.404,-1.812,+0.062,+0.438,0, -2, -2, -2, 1, 0, -1, -1,-1.9193783532267479,1.096629791979388,0
1503512624459,+0.688,+0.443,-0.274,-0.505,+0.898,-0.054,-0.409,-2.000,-1.062,+1.000,-2, -1, -2, -1, -2, 0, 1, -3,-1.9178939288197863,1.0944173730154114,0
1503512624473,+0.688,+0.443,-0.274,-0.506,+0.892,-0.053,-0.407,-0.938,-1.375,+1.125,1, -1, 0, 1, 1, 4, -1, 1,-1.9174251055948444,1.0946692104887135,0
1503512624496,+0.688,+0.443,-0.273,-0.506,+0.902,-0.070,-0.412,-0.500,-0.375,+1.250,-3, -3, -2, -2, -1, -3, 1, -3,-1.9177268392424727,1.0932293645604176,0
1503512624518,+0.688,+0.444,-0.274,-0.506,+0.906,-0.083,-0.407,-1.562,+1.625,+1.125,-7, -4, -2, -4, -3, 1, 8, -5,-1.9189081337916045,1.0968804455173917,0
1503512624533,+0.687,+0.443,-0.274,-0.506,+0.909,-0.061,-0.403,-3.062,+0.438,+0.062,0, 2, 0, 0, -2, -1, 0, 3,-1.9151746341831295,1.0942619199393555,0
1503512624555,+0.687,+0.443,-0.274,-0.506,+0.910,-0.053,-0.396,-1.188,-0.188,+0.188,5, 2, 1, 2, 1, -3, -7, 3,-1.9151746341831295,1.0942619199393555,0
1503512624577,+0.688,+0.443,-0.274,-0.506,+0.906,-0.066,-0.398,+0.125,-1.188,+0.375,10, 6, 3, 4, 2, 1, -11, 1,-1.9174251055948444,1.0946692104887135,0
1503512624593,+0.688,+0.443,-0.274,-0.506,+0.906,-0.073,-0.400,-0.750,-0.500,-0.375,-3, -2, -2, -3, -3, 1, 4, 1,-1.9174251055948444,1.0946692104887135,0
1503512624616,+0.688,+0.443,-0.274,-0.506,+0.899,-0.058,-0.409,-1.938,+0.688,+0.250,-1, -3, 0, 0, 1, 5, 4, 3,-1.9174251055948444,1.0946692104887135,0
1503512624637,+0.688,+0.443,-0.274,-0.506,+0.897,-0.049,-0.398,-1.688,+0.688,+0.500,-1, -3, -1, 1, 0, -3, 5, 3,-1.9174251055948444,1.0946692104887135,0
1503512624654,+0.688,+0.443,-0.274,-0.506,+0.909,-0.059,-0.409,-0.625,+0.812,+0.750,-7, -3, -2, -4, -2, -1, 0, -8,-1.9174251055948444,1.0946692104887135,0
1503512624675,+0.688,+0.443,-0.274,-0.506,+0.903,-0.069,-0.409,-0.625,-0.250,+0.438,-3, -4, -4, -4, -3, 0, 0, -1,-1.9174251055948444,1.0946692104887135,0
1503512624697,+0.688,+0.443,-0.274,-0.505,+0.909,-0.066,-0.396,-1.062,-1.250,-0.375,1, 0, -2, -1, 0, 1, -1, 2,-1.9178939288197863,1.0944173730154114,0
1503512624713,+0.688,+0.443,-0.274,-0.506,+0.903,-0.066,-0.400,-1.438,-1.062,+0.688,2, 0, -1, 0, 0, -1, -4, 3,-1.9174251055948444,1.0946692104887135,0
1503512624735,+0.688,+0.443,-0.274,-0.506,+0.902,-0.062,-0.397,-1.188,+0.500,+0.562,2, 0, 0, -2, -1, 1, 0, -1,-1.9174251055948444,1.0946692104887135,0
1503512624759,+0.687,+0.444,-0.274,-0.506,+0.904,-0.062,-0.411,-1.562,+1.938,+1.125,-1, -1, 0, 0, 0, 3, 1, 1,-1.9166629857325945,1.0964741538343221,0
1503512624773,+0.687,+0.444,-0.274,-0.505,+0.904,-0.057,-0.407,-1.500,+1.750,+0.375,-1, -2, 0, -1, -1, -5, -1, -2,-1.9171304988945592,1.0962231030020737,0
1503512624802,+0.687,+0.444,-0.274,-0.505,+0.910,-0.065,-0.401,-0.938,+0.875,+0.062,0, -2, -1, -1, 0, 0, -1, 2,-1.9171304988945592,1.0962231030020737,0
1503512624818,+0.688,+0.443,-0.274,-0.505,+0.908,-0.065,-0.414,-0.375,-1.625,+0.000,-2, 1, -1, -1, -1, -2, -2, -2,-1.9178939288197863,1.0944173730154114,0
1503512624833,+0.688,+0.443,-0.274,-0.505,+0.910,-0.073,-0.398,-0.188,-1.812,-0.062,-4, -1, -1, -2, -2, 0, 5, 1,-1.9178939288197863,1.0944173730154114,0
1503512624859,+0.688,+0.443,-0.274,-0.505,+0.897,-0.062,-0.408,-2.062,-0.250,-0.500,-1, -1, -2, 1, -3, -1, 2, -1,-1.9178939288197863,1.0944173730154114,0
1503512624877,+0.688,+0.443,-0.274,-0.505,+0.888,-0.050,-0.407,-2.188,+1.188,+0.062,-1, -2, -1, -1, -3, 0, -1, -6,-1.9178939288197863,1.0944173730154114,0
1503512624894,+0.688,+0.443,-0.275,-0.505,+0.907,-0.049,-0.396,-1.375,+1.125,+0.438,0, -2, -1, -2, -1, -1, 2, 0,-1.9175919163292536,1.0958595226216459,0
1503512624918,+0.687,+0.443,-0.275,-0.505,+0.902,-0.061,-0.408,-0.750,+1.562,+0.688,-1, -2, 0, -2, -1, -5, 4, -1,-1.9153400405375667,1.095453134781867,0
1503512624937,+0.687,+0.444,-0.275,-0.505,+0.913,-0.069,-0.405,-1.000,+0.750,+0.562,4, 3, 2, 2, 0, -1, -5, 0,-1.9168282121213007,1.097665079948299,0
1503512624953,+0.687,+0.444,-0.275,-0.505,+0.915,-0.065,-0.410,-1.188,+0.500,+0.312,-2, -1, -1, -1, -1, 1, 0, -3,-1.9168282121213007,1.097665079948299,0
1503512624975,+0.688,+0.443,-0.275,-0.505,+0.917,-0.068,-0.407,-1.000,-1.062,-0.562,-1, -1, -3, -2, -1, -2, -2, 2,-1.9175919163292536,1.0958595226216459,0
1503512624997,+0.688,+0.443,-0.275,-0.505,+0.897,-0.065,-0.395,-1.688,-1.750,-1.125,-3, -1, 1, -1, -1, 0, 2, -1,-1.9175919163292536,1.0958595226216459,0
1503512625013,+0.688,+0.443,-0.275,-0.505,+0.893,-0.053,-0.398,-1.562,-0.875,-0.500,-3, -1, -2, -1, -2, 1, -4, 0,-1.9175919163292536,1.0958595226216459,0
1503512625035,+0.688,+0.443,-0.275,-0.505,+0.894,-0.053,-0.407,-1.125,+0.812,+0.750,-2, -1, -3, -2, -1, -4, 1, -3,-1.9175919163292536,1.0958595226216459,0
1503512625058,+0.687,+0.444,-0.275,-0.505,+0.905,-0.068,-0.399,-0.938,+3.000,+0.438,1, 1, 2, 1, 0, -4, 0, 2,-1.9168282121213007,1.097665079948299,0
1503512625075,+0.687,+0.444,-0.275,-0.505,+0.916,-0.067,-0.402,-1.250,+3.562,+0.562,-2, -1, -1, -1, 0, 3, 5, 0,-1.9168282121213007,1.097665079948299,0
1503512625096,+0.687,+0.444,-0.276,-0.505,+0.911,-0.059,-0.406,-2.000,+1.250,-0.188,0, -3, -3, -2, -2, -3, -7, 0,-1.9165264313933843,1.09910947562167,0
1503512625124,+0.687,+0.444,-0.276,-0.505,+0.907,-0.051,-0.395,-1.500,-0.875,-0.562,-2, 0, -2, 0, -1, 2, 3, -2,-1.9165264313933843,1.09910947562167,0
1503512625133,+0.687,+0.444,-0.276,-0.505,+0.900,-0.057,-0.395,-0.875,-2.250,+0.625,-10, -5, -4, -3, -3, -2, -1, -4,-1.9165264313933843,1.09910947562167,0
1503512625156,+0.687,+0.444,-0.275,-0.505,+0.906,-0.071,-0.402,-1.125,-1.812,+0.312,0, -1, -2, -2, 0, 0, -3, -2,-1.9168282121213007,1.097665079948299,0
1503512625177,+0.687,+0.444,-0.276,-0.505,+0.902,-0.060,-0.405,-2.062,+0.562,+0.750,3, -1, 2, 1, 2, 3, -4, 0,-1.9165264313933843,1.09910947562167,0
1503512625193,+0.687,+0.444,-0.276,-0.505,+0.903,-0.055,-0.397,-2.188,+1.188,+0.438,1, 0, -1, 0, -1, -2, -1, -4,-1.9165264313933843,1.09910947562167,0
1503512625215,+0.687,+0.444,-0.276,-0.505,+0.908,-0.056,-0.404,-1.375,+1.125,+0.875,4, 6, 5, 4, 2, 3, -5, -1,-1.9165264313933843,1.09910947562167,0
1503512625237,+0.687,+0.444,-0.276,-0.505,+0.909,-0.062,-0.401,-0.812,-0.250,+0.562,-5, -2, -3, -3, -2, 1, 12, -2,-1.9165264313933843,1.09910947562167,0
1503512625256,+0.687,+0.444,-0.276,-0.505,+0.911,-0.062,-0.395,-1.250,-1.125,-0.125,-1, -2, -1, -2, -3, -1, 5, 3,-1.9165264313933843,1.09910947562167,0
1503512625275,+0.687,+0.444,-0.276,-0.505,+0.901,-0.056,-0.389,-1.562,-1.062,+0.625,-2, -4, -2, -4, -2, 0, 1, -3,-1.9165264313933843,1.09910947562167,0
1503512625297,+0.687,+0.444,-0.276,-0.505,+0.902,-0.062,-0.403,-1.438,+0.438,+1.062,0, 0, -2, -3, 0, -9, -5, 1,-1.9165264313933843,1.09910947562167,0
1503512625313,+0.687,+0.444,-0.276,-0.505,+0.907,-0.059,-0.406,-1.688,+0.562,+0.625,-2, -3, 0, 0, -2, -2, 1, -2,-1.9165264313933843,1.09910947562167,0
1503512625335,+0.687,+0.444,-0.276,-0.505,+0.902,-0.051,-0.396,-1.750,-1.000,+0.938,-2, -1, -2, 0, -1, -1, 2, -3,-1.9165264313933843,1.09910947562167,0
1503512625358,+0.687,+0.444,-0.276,-0.505,+0.906,-0.058,-0.400,-0.188,-0.625,+1.000,1, -1, -2, -1, 0, 3, -2, -1,-1.9165264313933843,1.09910947562167,0
1503512625373,+0.687,+0.444,-0.276,-0.505,+0.904,-0.068,-0.407,-0.688,-0.062,+1.875,-3, -1, 0, 0, -2, 0, 7, -1,-1.9165264313933843,1.09910947562167,0
1503512625396,+0.687,+0.444,-0.276,-0.505,+0.908,-0.062,-0.391,-2.375,-0.188,+1.188,-4, -3, 0, -3, -3, 1, -4, -1,-1.9165264313933843,1.09910947562167,0
1503512625417,+0.687,+0.444,-0.276,-0.505,+0.907,-0.049,-0.410,-2.062,-0.625,+1.562,-3, 0, -1, -1, -1, -1, -3, -4,-1.9165264313933843,1.09910947562167,0
1503512625433,+0.687,+0.443,-0.276,-0.506,+0.909,-0.057,-0.405,-0.562,-1.688,+1.625,0, 0, 2, -1, -1, 5, 0, 4,-1.914575299385406,1.0971514621918959,0
1503512625456,+0.687,+0.443,-0.276,-0.506,+0.909,-0.068,-0.402,-0.812,-2.000,+1.062,-3, -2, 0, 2, -1, -5, -4, 1,-1.914575299385406,1.0971514621918959,0
1503512625477,+0.687,+0.443,-0.276,-0.506,+0.903,-0.062,-0.405,-1.875,-1.438,+0.438,-1, -4, 0, -1, 0, -3, -2, 0,-1.914575299385406,1.0971514621918959,0
1503512625494,+0.687,+0.443,-0.276,-0.506,+0.896,-0.050,-0.402,-1.875,-1.125,+1.000,-3, -3, 0, -2, -1, 1, 3, -1,-1.914575299385406,1.0971514621918959,0
1503512625515,+0.687,+0.443,-0.276,-0.506,+0.904,-0.055,-0.397,-0.562,-0.250,+1.562,1, 0, -2, 0, 1, -2, -2, 0,-1.914575299385406,1.0971514621918959,0
1503512625537,+0.687,+0.443,-0.276,-0.506,+0.907,-0.072,-0.406,-0.312,+1.562,+2.000,6, 6, 3, 1, 3, 7, 2, 9,-1.914575299385406,1.0971514621918959,0
1503512625556,+0.686,+0.444,-0.276,-0.506,+0.913,-0.078,-0.405,-1.812,+1.250,+1.000,-2, -2, -2, -2, -3, -4, -7, -5,-1.913813253363242,1.0989564134820575,0
1503512625576,+0.686,+0.443,-0.276,-0.506,+0.914,-0.049,-0.397,-2.250,-0.562,+0.500,-1, 0, 0, -1, -2, -3, -3, -2,-1.912322753143475,1.0967461354322137,0
1503512625600,+0.687,+0.443,-0.276,-0.506,+0.904,-0.049,-0.406,-0.875,-3.188,+0.875,-3, -3, -2, -2, 0, -5, -5, -6,-1.914575299385406,1.0971514621918959,0
1503512625621,+0.687,+0.443,-0.275,-0.506,+0.900,-0.072,-0.408,+0.500,-2.812,+0.875,0, -2, 0, -2, 0, -3, 0, 1,-1.9148747161775073,1.0957054827105184,0
1503512625638,+0.687,+0.443,-0.275,-0.507,+0.897,-0.072,-0.408,-1.250,-1.125,+0.750,0, 0, 1, 0, -1, 0, -1, -1,-1.9144105972118541,1.0959575832882116,0
1503512625660,+0.687,+0.443,-0.275,-0.507,+0.906,-0.052,-0.402,-2.438,+0.438,+0.875,2, 3, 1, 1, -1, -2, -4, -6,-1.9144105972118541,1.0959575832882116,0
1503512625673,+0.687,+0.443,-0.275,-0.507,+0.903,-0.045,-0.404,-1.375,+0.375,+1.375,-4, -3, -3, 0, -1, 3, 7, 1,-1.9144105972118541,1.0959575832882116,0
1503512625696,+0.687,+0.443,-0.275,-0.507,+0.906,-0.067,-0.400,-0.125,+0.000,+1.188,0, -1, 0, -1, -4, -3, -2, 0,-1.9144105972118541,1.0959575832882116,0
1503512625718,+0.687,+0.443,-0.275,-0.507,+0.911,-0.079,-0.407,-0.812,+0.188,+0.562,-1, 0, -3, -1, -4, -14, -7, 2,-1.9144105972118541,1.0959575832882116,0
1503512625733,+0.687,+0.442,-0.276,-0.507,+0.910,-0.055,-0.407,-2.250,-0.875,+0.000,2, 2, 0, 1, -1, -1, -6, -1,-1.9126286299696196,1.0951973170314424,0
1503512625758,+0.687,+0.442,-0.276,-0.507,+0.908,-0.049,-0.401,-1.312,-1.688,+0.500,0, -1, -2, -1, 0, 1, 1, 1,-1.9126286299696196,1.0951973170314424,0
1503512625778,+0.687,+0.442,-0.275,-0.507,+0.901,-0.068,-0.403,-0.500,-1.375,+1.000,0, -1, -2, -1, 1, 3, 2, 3,-1.9129256920767825,1.0937497569732175,0
1503512625794,+0.687,+0.442,-0.275,-0.507,+0.900,-0.078,-0.405,-1.625,-1.062,+0.625,-2, -2, -1, 0, -1, 1, 3, 0,-1.9129256920767825,1.0937497569732175,0
1503512625816,+0.687,+0.442,-0.275,-0.507,+0.898,-0.052,-0.400,-2.375,-0.688,+0.688,1, -2, -2, 0, -2, -3, -1, -2,-1.9129256920767825,1.0937497569732175,0
1503512625838,+0.687,+0.442,-0.276,-0.507,+0.896,-0.042,-0.406,-1.562,-0.875,+1.938,-2, -2, 1, 0, -1, 3, -3, -3,-1.9126286299696196,1.0951973170314424,0
1503512625853,+0.687,+0.442,-0.275,-0.507,+0.901,-0.059,-0.409,+0.562,+0.375,+1.562,0, 1, -1, -1, 2, 7, 5, 7,-1.9129256920767825,1.0937497569732175,0
1503512625876,+0.687,+0.442,-0.275,-0.507,+0.912,-0.079,-0.413,-0.125,+0.375,+1.375,-4, -2, -2, -2, -5, -9, -10, -8,-1.9129256920767825,1.0937497569732175,0
1503512625898,+0.687,+0.442,-0.275,-0.507,+0.912,-0.070,-0.403,-1.438,+0.125,+0.438,0, -1, 1, -3, 0, -3, -1, -3,-1.9129256920767825,1.0937497569732175,0
1503512625913,+0.687,+0.442,-0.275,-0.507,+0.910,-0.055,-0.401,-1.812,-2.688,+0.375,-1, -2, -3, 0, -2, 1, 1, 3,-1.9129256920767825,1.0937497569732175,0
1503512625936,+0.687,+0.441,-0.275,-0.507,+0.901,-0.049,-0.404,-0.375,-3.312,+0.500,0, 2, 2, -1, -1, -3, 0, 0,-1.911441256508043,1.0915436839612749,0
1503512625959,+0.687,+0.441,-0.275,-0.507,+0.895,-0.066,-0.404,+0.312,-2.188,+0.500,1, 1, 1, 1, 2, -1, -3, 1,-1.911441256508043,1.0915436839612749,0
1503512625973,+0.687,+0.441,-0.275,-0.507,+0.901,-0.076,-0.404,-0.125,+0.188,+0.000,1, 2, 1, 0, 1, 1, 8, 3,-1.911441256508043,1.0915436839612749,0
1503512625996,+0.687,+0.442,-0.275,-0.507,+0.900,-0.067,-0.411,-1.062,+3.750,+0.062,-11, -6, -4, -3, -3, -3, 8, -9,-1.9129256920767825,1.0937497569732175,0
1503512626018,+0.687,+0.442,-0.275,-0.507,+0.903,-0.059,-0.415,-1.812,+3.375,+0.375,-3, -3, -1, -2, -3, -1, -2, -1,-1.9129256920767825,1.0937497569732175,0
1503512626034,+0.687,+0.442,-0.276,-0.507,+0.913,-0.059,-0.405,-1.312,+1.562,-0.062,3, -1, 1, -1, 0, -1, 0, 2,-1.9126286299696196,1.0951973170314424,0
1503512626056,+0.687,+0.442,-0.276,-0.507,+0.903,-0.053,-0.402,-1.062,-0.875,+0.062,0, -1, -2, -1, 1, -4, -5, -1,-1.9126286299696196,1.0951973170314424,0
1503512626078,+0.687,+0.442,-0.276,-0.507,+0.905,-0.067,-0.411,-0.938,-1.562,-0.125,2, 4, 0, 1, 0, 1, 1, 2,-1.9126286299696196,1.0951973170314424,0
1503512626094,+0.687,+0.442,-0.276,-0.507,+0.896,-0.066,-0.414,-1.938,+0.500,-0.250,4, 1, 1, 2, 0, 2, -7, 0,-1.9126286299696196,1.0951973170314424,0
1503512626116,+0.687,+0.442,-0.276,-0.507,+0.895,-0.056,-0.400,-2.375,+1.938,-0.125,2, 0, -3, -2, -2, -3, -7, -3,-1.9126286299696196,1.0951973170314424,0
1503512626138,+0.686,+0.442,-0.276,-0.507,+0.903,-0.055,-0.400,-1.625,+2.625,+0.500,2, 0, 1, 0, -1, 1, 3, 3,-1.9103735022057755,1.094791396875875,0
1503512626153,+0.686,+0.443,-0.277,-0.507,+0.906,-0.065,-0.403,-1.562,+2.500,+0.688,-3, -3, -2, -1, 0, 4, -1, -2,-1.9115653077941526,1.0984485386403897,0
1503512626176,+0.686,+0.443,-0.277,-0.507,+0.910,-0.062,-0.403,-1.875,+0.938,+0.375,1, 2, 1, 0, 0, -2, -12, -2,-1.9115653077941526,1.0984485386403897,0
1503512626198,+0.686,+0.443,-0.277,-0.507,+0.909,-0.058,-0.405,-1.938,-0.188,+0.438,1, 0, 1, 0, 0, -4, -4, -1,-1.9115653077941526,1.0984485386403897,0
1503512626213,+0.686,+0.443,-0.277,-0.507,+0.905,-0.064,-0.390,-1.688,-1.188,+0.500,0, -2, 0, -1, -3, -1, 1, 3,-1.9115653077941526,1.0984485386403897,0
1503512626237,+0.686,+0.443,-0.277,-0.507,+0.904,-0.062,-0.404,-1.438,-0.750,+0.500,3, 0, -2, 1, 0, -4, -3, -3,-1.9115653077941526,1.0984485386403897,0
1503512626265,+0.686,+0.443,-0.277,-0.507,+0.903,-0.064,-0.406,-1.875,+0.250,+0.562,0, -1, 0, -1, 1, -1, -4, 3,-1.9115653077941526,1.0984485386403897,0
1503512626275,+0.686,+0.443,-0.277,-0.507,+0.901,-0.062,-0.403,-1.875,+1.688,+0.250,-3, -2, 0, 0, -1, -1, 6, 2,-1.9115653077941526,1.0984485386403897,0
1503512626296,+0.686,+0.443,-0.277,-0.507,+0.903,-0.056,-0.397,-1.938,+1.250,+0.125,2, 1, -1, 0, 0, -7, -6, 2,-1.9115653077941526,1.0984485386403897,0
1503512626318,+0.686,+0.443,-0.277,-0.507,+0.907,-0.055,-0.400,-1.500,+0.438,+0.438,1, 1, 0, 0, 1, 2, 0, -1,-1.9115653077941526,1.0984485386403897,0
1503512626336,+0.686,+0.443,-0.277,-0.507,+0.902,-0.056,-0.397,-0.875,-0.062,+0.812,-3, -1, -1, 0, -1, 3, 8, -2,-1.9115653077941526,1.0984485386403897,0
1503512626356,+0.686,+0.443,-0.277,-0.507,+0.916,-0.065,-0.407,-0.625,+0.562,+0.250,2, 1, -2, 0, 1, 0, -4, -1,-1.9115653077941526,1.0984485386403897,0
1503512626378,+0.686,+0.443,-0.277,-0.507,+0.904,-0.068,-0.405,-1.062,+0.312,+0.625,0, 0, 0, -1, 1, 4, -5, 0,-1.9115653077941526,1.0984485386403897,0
1503512626395,+0.686,+0.443,-0.277,-0.507,+0.900,-0.064,-0.394,-1.938,-0.312,-0.250,0, -1, 0, -3, -1, -3, 5, -1,-1.9115653077941526,1.0984485386403897,0
1503512626416,+0.686,+0.443,-0.277,-0.507,+0.899,-0.045,-0.400,-1.812,-0.500,+0.438,5, 4, 0, 3, 0, 3, -6, 3,-1.9115653077941526,1.0984485386403897,0
1503512626438,+0.686,+0.443,-0.277,-0.507,+0.899,-0.052,-0.399,-0.625,-1.000,+0.938,-4, -3, -2, -3, -1, -1, 1, -3,-1.9115653077941526,1.0984485386403897,0
1503512626453,+0.686,+0.443,-0.277,-0.507,+0.902,-0.066,-0.402,-0.312,+0.688,+1.312,-2, 0, -2, 0, -2, -2, 2, 0,-1.9115653077941526,1.0984485386403897,0
1503512626476,+0.686,+0.443,-0.277,-0.507,+0.901,-0.073,-0.403,-1.375,+1.438,+0.812,-3, -3, -1, -1, -3, -5, -10, -1,-1.9115653077941526,1.0984485386403897,0
1503512626498,+0.686,+0.443,-0.277,-0.507,+0.913,-0.053,-0.389,-1.375,+0.625,+0.188,-1, 1, 1, 0, -1, 0, 1, 0,-1.9115653077941526,1.0984485386403897,0
1503512626521,+0.686,+0.443,-0.277,-0.507,+0.907,-0.029,-0.417,+0.875,-2.125,+1.250,0, -1, -1, -1, 1, -6, 1, -2,-1.9115653077941526,1.0984485386403897,0
1503512626536,+0.687,+0.443,-0.276,-0.506,+0.854,-0.035,-0.446,+5.312,+0.125,-0.438,-2, -2, -3, -1, -1, 0, 5, 4,-1.914575299385406,1.0971514621918959,0
1503512626558,+0.686,+0.445,-0.276,-0.506,+0.897,-0.096,-0.351,+3.500,+9.000,+2.375,-2, 0, 0, -1, -3, 1, -1, 3,-1.9153041909255921,1.1011684242606532,0
1503512626580,+0.683,+0.447,-0.278,-0.506,+1.000,-0.100,-0.298,-5.812,+10.062,+6.938,1, 1, 0, -3, 1, 2, -6, -2,-1.9109661343969004,1.1072877505735363,0
1503512626598,+0.683,+0.447,-0.277,-0.506,+0.987,-0.072,-0.386,-1.062,-3.875,+5.875,-3, -3, -1, -1, -4, -3, -3, -3,-1.9112656108696693,1.1058376850452267,0
1503512626618,+0.685,+0.446,-0.275,-0.506,+0.904,-0.085,-0.418,+5.375,-14.812,-3.062,-3, -2, 0, -3, -3, -2, 1, -4,-1.91485584616054,1.1015351080431461,0
1503512626641,+0.687,+0.444,-0.274,-0.506,+0.905,-0.090,-0.402,+4.438,-15.000,-5.500,-3, -1, -3, -1, -2, 2, 4, 2,-1.9166629857325945,1.0964741538343221,0
1503512626656,+0.687,+0.444,-0.273,-0.506,+0.916,-0.032,-0.334,+1.938,-9.625,-1.562,-1, -2, -1, -1, 0, 6, 2, 0,-1.9169649953978878,1.0950344815229693,0
1503512626678,+0.690,+0.442,-0.272,-0.505,+0.953,-0.000,-0.349,+5.312,-23.125,-3.688,0, -1, -1, -2, 0, 8, 8, -2,-1.9215203278426887,1.0901473470768126,0
1503512626701,+0.693,+0.438,-0.268,-0.505,+0.969,-0.020,-0.393,+12.188,-40.438,-1.188,4, -5, -1, 2, 1, -2, -2, -5,-1.9236205153837682,1.0768280545536313,0
1503512626716,+0.696,+0.436,-0.263,-0.506,+0.949,-0.048,-0.359,+15.375,-42.562,+5.062,18, 3, 1, 2, 0, -12, -11, 1,-1.9285252642387225,1.0668259289914852,0
1503512626738,+0.701,+0.431,-0.256,-0.507,+0.861,-0.026,-0.414,+17.125,-53.188,-0.125,-26, -4, -1, 5, 21, 17, 5, -2,-1.934280369075763,1.0483580140826443,0
1503512626760,+0.706,+0.427,-0.250,-0.507,+0.856,-0.003,-0.479,+19.750,-46.312,+2.250,-4, -4, -3, -1, 3, -7, 2, 1,-1.9417837753345926,1.0333979009255316,0
1503512626776,+0.707,+0.426,-0.243,-0.509,+0.897,-0.034,-0.571,+26.625,-21.375,+23.688,-3, 4, -1, 0, -7, -7, 2, -1,-1.9437877915703692,1.0225334448190289,0
1503512626799,+0.705,+0.430,-0.238,-0.511,+0.889,-0.004,-0.588,+28.375,+11.250,+37.562,14, 6, 4, -1, -5, 0, 1, 6,-1.9454880449061278,1.0241765919604242,0
1503512626820,+0.699,+0.441,-0.232,-0.513,+0.934,-0.056,-0.573,+47.500,+42.500,+68.188,11, 3, 0, -4, -7, 0, 2, 16,-1.9489107894705862,1.0384521560945816,0
1503512626836,+0.690,+0.457,-0.220,-0.517,+1.102,-0.191,-0.654,+74.875,+49.562,+92.688,-6, -2, 2, 1, -11, -2, 3, -1,-1.9551445702509027,1.0559332472963714,0
1503512626858,+0.683,+0.470,-0.203,-0.521,+1.254,-0.299,-0.650,+87.062,+16.375,+98.125,27, 6, 3, -2, -5, 0, 2, 1,-1.9643914422280075,1.0622756734459746,0
1503512626881,+0.678,+0.479,-0.179,-0.528,+1.235,-0.339,-0.581,+94.875,-33.125,+125.750,8, -6, -13, -2, 0, 2, -1, -5,-1.9737008829855018,1.0535710173879758,0
1503512626908,+0.673,+0.485,-0.146,-0.539,+1.070,-0.419,-0.542,+112.688,-76.062,+155.562,0, -2, -2, -4, -3, -4, -4, -4,-1.9802463906091137,1.0296518292639403,0
1503512626918,+0.668,+0.491,-0.110,-0.548,+0.900,-0.619,-0.515,+131.000,-83.625,+156.812,-13, 1, 7, 7, 14, 6, -1, -3,-1.990223555822771,1.004545047635124,0
1503512626941,+0.662,+0.498,-0.075,-0.555,+0.787,-0.768,-0.505,+135.062,-70.625,+148.438,0, 9, 2, 2, 3, 0, 1, -2,-2.0020541456978944,0.9849653258822954,0
1503512626956,+0.654,+0.506,-0.042,-0.561,+0.672,-0.807,-0.486,+128.562,-50.812,+148.375,-10, -8, -15, -8, -5, -2, -4, -1,-2.0129461503098023,0.9714055739886096,0
1503512626978,+0.642,+0.516,-0.013,-0.567,+0.603,-0.853,-0.378,+119.125,-22.500,+146.188,-4, -7, -10, 6, -8, -6, -4, -4,-2.0193537199892537,0.9669907560435926,0
1503512627002,+0.628,+0.528,+0.010,-0.572,+0.576,-0.911,-0.307,+107.438,+10.375,+131.812,-3, 3, 17, -3, -5, -3, -3, -1,-2.0258179806732635,0.9746097930026637,0
1503512627016,+0.612,+0.541,+0.027,-0.576,+0.594,-0.869,-0.383,+89.750,+36.062,+115.750,-13, -17, 6, 0, -1, -3, 3, -4,-2.0303456710061685,0.9911109310760396,0
1503512627040,+0.598,+0.551,+0.041,-0.581,+0.618,-0.757,-0.401,+71.750,+37.125,+108.688,17, 15, 10, 0, 4, 0, -3, 5,-2.031438638387329,1.0036102238231457,0
1503512627060,+0.584,+0.559,+0.054,-0.586,+0.635,-0.747,-0.262,+54.938,+29.688,+106.250,-12, -24, -30, -17, -2, -4, -3, 3,-2.028060384372824,1.0113547167443073,0
1503512627076,+0.573,+0.564,+0.064,-0.592,+0.491,-0.778,-0.230,+31.125,+19.500,+86.125,13, 4, -1, 1, 29, 10, 4, 4,-2.020799933871201,1.0134444440432828,0
1503512627100,+0.566,+0.564,+0.071,-0.596,+0.472,-0.825,-0.193,+3.875,-2.312,+52.500,3, -11, -3, -4, -15, 0, 3, 2,-2.0066380091170375,1.0024011557035408,0
1503512627120,+0.564,+0.561,+0.072,-0.602,+0.514,-0.749,-0.344,-25.062,-0.750,+29.375,-4, -8, -2, 11, 37, 8, -9, 5,-1.9886511812999499,0.987741239625032,0
1503512627136,+0.563,+0.557,+0.066,-0.607,+0.416,-0.644,-0.158,-59.188,+9.625,+0.750,20, 2, -4, -2, -3, 1, 5, 3,-1.9659880667945693,0.9751329899493152,0
1503512627158,+0.567,+0.548,+0.057,-0.612,+0.506,-0.667,-0.165,-87.375,-13.000,-24.062,10, -4, -7, -6, -9, -3, 10, 6,-1.9389181977389156,0.9519306086750429,0
1503512627181,+0.574,+0.536,+0.043,-0.618,+0.562,-0.591,-0.286,-111.438,-11.062,-45.875,-37, -17, -8, 0, 6, 3, 4, -7,-1.9093033607591754,0.927209841562871,0
1503512627196,+0.585,+0.522,+0.025,-0.621,+0.479,-0.388,-0.372,-123.750,-17.625,-82.625,28, 3, -4, -2, -1, -5, -6, -9,-1.887305873210929,0.906630820382687,0
1503512627218,+0.596,+0.507,+0.005,-0.623,+0.503,-0.309,-0.324,-131.500,-8.312,-93.375,63, 22, 3, -13, -27, -13, -8, 19,-1.866310969183705,0.8885962273927147,0
1503512627241,+0.613,+0.497,-0.018,-0.614,-0.198,-0.016,-0.725,-83.688,+5.500,-163.688,12, -2, 2, 5, 6, 7, 5, 2,-1.8792582475933428,0.895868842844741,0
1503512627254,+0.615,+0.505,-0.053,-0.603,+1.160,-0.786,+0.838,-80.875,+133.062,-143.938,8, 12, 10, 9, 5, 2, 0, 5,-1.8941606587481579,0.9553985888249997,0
1503512627277,+0.619,+0.484,-0.080,-0.613,+0.788,+0.146,-0.586,-196.375,+5.938,-56.875,-4, -6, -11, 7, 14, 11, 12, 8,-1.8445371981771832,0.9312223331585148,0
1503512627301,+0.623,+0.475,-0.105,-0.613,+0.014,+0.609,-0.245,-110.938,+51.250,-79.438,-33, -34, -26, -27, -22, -15, -14, -25,-1.8284000083268321,0.9396063013044811,0
1503512627315,+0.614,+0.500,-0.137,-0.596,+0.378,+0.776,-0.375,+21.562,+245.062,-92.500,-33, -25, -11, -20, -29, -27, 2, 18,-1.8551910212454124,1.0340935992041123,0
1503512627338,+0.596,+0.538,-0.161,-0.574,+0.705,+0.082,-0.234,+99.438,+291.062,-48.375,4, -11, 15, 17, 26, 20, 8, 49,-1.8962216650799388,1.1504474959688646,0
1503512627360,+0.582,+0.569,-0.180,-0.553,+1.074,-0.390,-0.061,+86.875,+233.500,-54.812,1, 13, -7, 7, 14, 9, 6, -15,-1.9365439341988975,1.2484754115867192,0
1503512627375,+0.575,+0.587,-0.191,-0.536,+1.048,-0.361,-0.239,+71.500,+137.500,-50.812,-15, 14, 5, -7, -11, -17, -1, -83,-1.9657129580422437,1.3067100782659027,0
1503512627397,+0.578,+0.597,-0.197,-0.520,+1.135,-0.309,-0.218,+74.438,+58.812,-59.375,3, 24, -4, 6, 7, 8, 3, -1,-1.9982483393414923,1.3407932751731795,0
1503512627420,+0.589,+0.598,-0.191,-0.509,+1.239,-0.285,-0.167,+74.125,-41.625,-34.688,-22, -13, 12, 17, 37, 3, -32, -35,-2.0296316757759,1.3393595602003197,0
1503512627436,+0.601,+0.595,-0.179,-0.503,+1.162,-0.215,-0.182,+67.125,-92.562,-0.812,1, -13, -26, -44, -57, -24, 1, 19,-2.055396639650353,1.321562419359342,0
1503512627457,+0.613,+0.590,-0.163,-0.500,+0.917,-0.295,-0.206,+62.938,-102.812,+7.438,5, 6, 19, 21, 42, 19, 21, 11,-2.078204947919063,1.295187803043545,0
1503512627480,+0.626,+0.583,-0.146,-0.497,+0.895,-0.446,-0.348,+60.875,-112.375,+2.438,1, -4, -6, 2, 0, 22, 10, 14,-2.100046832955089,1.2636069970694896,0
1503512627495,+0.637,+0.576,-0.131,-0.495,+0.851,-0.599,-0.375,+53.750,-103.125,+5.500,-2, -3, -2, 3, 6, 0, -10, -16,-2.1169956456210746,1.2342287027977172,0
1503512627518,+0.644,+0.570,-0.117,-0.496,+0.810,-0.585,-0.270,+32.312,-88.625,+11.062,-5, -4, 1, -3, -11, -8, -5, -5,-2.1262508634502573,1.2079197670265633,0
1503512627541,+0.650,+0.564,-0.105,-0.497,+0.886,-0.533,-0.323,+22.312,-74.312,+18.188,5, 0, -4, -4, -14, -9, 6, 10,-2.1325445543193737,1.183382346189958,0
1503512627555,+0.654,+0.561,-0.093,-0.499,+0.871,-0.606,-0.447,+35.312,-51.625,+24.250,0, 6, 24, 6, -3, 1, -9, 0,-2.1404558686109536,1.1669249909477066,0
1503512627579,+0.656,+0.558,-0.080,-0.502,+0.825,-0.614,-0.465,+30.312,-53.688,+36.125,6, 7, 0, 2, 5, 1, -9, 7,-2.144594051997075,1.1490845217996615,0
1503512627600,+0.659,+0.551,-0.068,-0.508,+0.822,-0.471,-0.462,+10.500,-68.250,+54.812,-3, -3, -10, -5, -2, -8, 5, 19,-2.1394391454427257,1.1214353269771136,0
1503512627615,+0.663,+0.540,-0.053,-0.516,+0.887,-0.422,-0.418,+4.188,-98.438,+66.500,-8, -7, -9, -1, -2, -2, -6, -37,-2.128355287259652,1.0807149642806588,0
1503512627638,+0.666,+0.532,-0.035,-0.522,+0.840,-0.643,-0.401,+23.750,-102.125,+63.438,4, -1, 2, 2, -7, -10, -12, 13,-2.1247883279899695,1.045908831621962,0
1503512627660,+0.668,+0.524,-0.016,-0.528,+0.672,-0.847,-0.431,+20.438,-92.625,+54.438,0, -1, -4, 0, -1, 3, 4, 1,-2.119618118956693,1.0099574767246986,0
1503512627675,+0.670,+0.512,-0.002,-0.537,+0.606,-0.698,-0.475,-11.125,-92.562,+62.125,-4, -5, -3, -3, -2, -5, -8, -6,-2.1000469259812284,0.9660000585356388,0
1503512627697,+0.672,+0.500,+0.009,-0.547,+0.627,-0.477,-0.452,-26.562,-86.562,+70.125,-2, -5, -3, -5, -6, -9, -6, -1,-2.0776225935407786,0.9241878036941392,0
1503512627720,+0.670,+0.494,+0.018,-0.554,+0.595,-0.553,-0.411,-9.062,-46.062,+55.750,3, 1, -2, -2, 0, -4, -6, -6,-2.0601425729688567,0.898274896834777,0
1503512627735,+0.669,+0.490,+0.023,-0.559,+0.546,-0.684,-0.459,-8.875,-25.625,+31.250,2, -3, -4, -3, 0, -1, -2, 8,-2.048265759999073,0.8818758337899841,0
1503512627757,+0.668,+0.484,+0.026,-0.565,+0.547,-0.621,-0.519,-30.688,-24.125,+31.438,5, 8, 2, 1, 1, 1, -3, -3,-2.0301853322123,0.8611718578324241,0
1503512627780,+0.667,+0.475,+0.025,-0.573,+0.599,-0.475,-0.509,-51.312,-25.500,+37.562,1, 7, -2, 0, -3, -2, -3, -5,-2.0023108648955525,0.8352483691382054,0
1503512627795,+0.667,+0.469,+0.021,-0.579,+0.590,-0.423,-0.435,-49.375,-11.312,+19.812,-4, -3, 4, -2, -2, -3, -5, -1,-1.9836516182637265,0.8216865164269043,0
1503512627817,+0.668,+0.467,+0.016,-0.580,+0.547,-0.545,-0.472,-33.688,+7.938,-18.688,0, 4, 6, 3, 2, -1, -1, 0,-1.9789510034754916,0.8213571298679112,0
1503512627840,+0.671,+0.463,+0.008,-0.579,+0.567,-0.614,-0.559,-45.500,+10.562,-40.188,-1, -2, -5, 1, 0, 1, 1, -2,-1.9750151646158545,0.8199917323945899,0
1503512627854,+0.673,+0.459,-0.005,-0.580,+0.596,-0.480,-0.511,-68.938,+22.750,-35.750,-2, -4, -6, -3, -3, 0, 4, 1,-1.965613668674276,0.8228336066116024,0
1503512627877,+0.674,+0.456,-0.021,-0.581,+0.550,-0.333,-0.513,-65.250,+41.625,-40.750,-3, -6, -7, -8, -3, 0, 1, 0,-1.9550447356591008,0.8310527095763617,0
1503512627900,+0.676,+0.457,-0.037,-0.577,+0.583,-0.360,-0.566,-50.938,+60.750,-59.500,-4, 0, 3, -2, 0, 0, -8, -3,-1.95772699291731,0.850619855214681,0
1503512627915,+0.676,+0.459,-0.058,-0.574,+0.691,-0.400,-0.588,-59.438,+83.750,-66.625,-2, -8, -16, -5, -1, -3, -2, -3,-1.9550364775934772,0.8766738791492713,0
1503512627941,+0.672,+0.463,-0.081,-0.572,+0.833,-0.320,-0.536,-72.688,+95.562,-48.500,-1, -4, -2, -4, -4, -2, -1, 1,-1.9455645271252895,0.9079441212223126,0
1503512627960,+0.670,+0.464,-0.099,-0.571,+0.874,-0.287,-0.524,-62.438,+75.188,-34.938,0, -1, 1, -4, -4, -3, -1, 2,-1.9367213264711964,0.9284349763499261,0
1503512627975,+0.670,+0.464,-0.111,-0.569,+0.884,-0.409,-0.598,-41.188,+41.125,-41.375,0, 1, 0, -1, -2, -7, -1, 1,-1.933452716648872,0.9413801938966918,0
1503512627997,+0.671,+0.463,-0.122,-0.566,+0.924,-0.475,-0.638,-41.500,+29.500,-45.812,-8, -2, -3, -8, -5, 35, 22, -2,-1.9315910876384792,0.9513933413165484,0
1503512628020,+0.673,+0.459,-0.132,-0.564,+0.921,-0.380,-0.570,-43.938,+15.562,-42.312,4, 2, 3, 1, -3, -4, 1, -3,-1.9266757583712393,0.9538884394710959,0
1503512628042,+0.676,+0.457,-0.138,-0.561,+0.913,-0.411,-0.510,-25.375,+4.500,-43.875,-1, -4, -7, -4, -1, -9, -9, 5,-1.9294911773767278,0.9571890800602018,0
1503512628057,+0.681,+0.456,-0.140,-0.556,+0.936,-0.490,-0.558,-2.688,-14.250,-48.062,0, -2, -3, 4, 20, 21, 7, 1,-1.9409473070932246,0.959032892271915,0
1503512628080,+0.687,+0.453,-0.141,-0.550,+0.882,-0.485,-0.587,+4.188,-15.875,-53.375,0, -4, -9, -7, -9, -4, 5, 3,-1.9522562844429798,0.9552918207372971,0
1503512628096,+0.692,+0.453,-0.142,-0.544,+0.838,-0.418,-0.476,+9.000,-8.438,-55.125,3, -3, -4, 0, 4, -12, -8, -3,-1.9663936105291915,0.9581488016661295,0
1503512628117,+0.695,+0.456,-0.143,-0.537,+0.920,-0.394,-0.448,+18.750,+4.562,-42.250,-8, -4, -2, 2, -2, -14, -11, -3,-1.9815801149586145,0.9668917997743333,0
1503512628141,+0.697,+0.461,-0.145,-0.530,+0.947,-0.393,-0.458,+23.438,+21.625,-38.438,-1, 0, 6, -8, -33, 11, 8, 4,-1.9974851277118435,0.9810408107068606,0
1503512628162,+0.700,+0.466,-0.147,-0.521,+0.920,-0.356,-0.481,+27.750,+21.500,-47.938,0, 0, -7, 1, -23, -22, -11, -3,-2.016850088346338,0.995428022246393,0
1503512628186,+0.704,+0.470,-0.149,-0.511,+0.914,-0.319,-0.500,+33.562,+24.375,-54.812,10, 7, 14, -3, -8, -2, -1, 4,-2.037471627498726,1.0077710191268077,0
1503512628200,+0.706,+0.476,-0.150,-0.502,+0.936,-0.313,-0.509,+41.375,+27.312,-45.500,-5, -7, -7, 0, 2, -3, -4, -6,-2.0569287120938617,1.0230619117502238,0
1503512628222,+0.709,+0.483,-0.150,-0.492,+0.927,-0.311,-0.459,+45.625,+26.688,-41.375,1, -1, -3, -2, 7, -5, -11, -3,-2.0813828017998186,1.040215634400001,0
1503512628237,+0.711,+0.488,-0.147,-0.484,+0.851,-0.300,-0.445,+50.000,+17.562,-32.938,3, 2, 0, -21, -34, -3, -2, -5,-2.100806263901661,1.0492671212214113,0
1503512628260,+0.713,+0.494,-0.144,-0.476,+0.824,-0.312,-0.454,+51.375,+18.312,-26.375,3, -7, -17, -5, -18, -9, -4, 5,-2.12205340568634,1.061033732509263,0
1503512628276,+0.714,+0.501,-0.143,-0.467,+0.812,-0.305,-0.411,+47.438,+31.000,-35.625,-7, -4, -5, -3, 11, 1, -1, -5,-2.1428108821221894,1.07689921010739,0
1503512628298,+0.717,+0.507,-0.143,-0.457,+0.859,-0.271,-0.402,+45.938,+26.375,-48.312,-4, -6, -10, -13, 3, -1, 0, -3,-2.1663005712520778,1.0922142859836121,0
1503512628320,+0.721,+0.510,-0.142,-0.447,+0.820,-0.251,-0.454,+46.000,+14.750,-45.438,7, 9, 4, -3, -6, 6, 1, 7,-2.1876950784145115,1.0994897146479694,0
1503512628342,+0.725,+0.512,-0.139,-0.439,+0.766,-0.237,-0.438,+44.188,+1.125,-34.625,6, 9, 11, 7, 9, 4, -5, -1,-2.207171394694599,1.1026712749707215,0
1503512628357,+0.729,+0.514,-0.137,-0.431,+0.778,-0.231,-0.421,+41.250,+6.938,-36.500,-3, -4, 2, 0, -18, 2, -2, -3,-2.2261288487253155,1.1068564282531947,0
1503512628380,+0.731,+0.518,-0.137,-0.423,+0.845,-0.257,-0.441,+38.625,+19.438,-40.312,-3, -6, 7, 7, 20, -1, 2, -2,-2.2431941321605726,1.1170873938802424,0
1503512628395,+0.734,+0.519,-0.136,-0.416,+0.857,-0.248,-0.498,+29.375,+9.500,-33.562,-6, -9, -5, 11, 31, 9, -8, -5,-2.257384953843412,1.1193226548575492,0
1503512628418,+0.738,+0.517,-0.134,-0.413,+0.851,-0.195,-0.477,+18.125,-17.750,-15.000,0, -6, -5, -3, 7, -2, -3, -4,-2.2658600415795997,1.1139265560183729,0
1503512628440,+0.741,+0.513,-0.129,-0.413,+0.877,-0.200,-0.442,+14.688,-34.000,+5.688,5, 4, -1, -7, -22, -8, 0, 1,-2.2688156472698267,1.1007367211437322,0
1503512628455,+0.744,+0.510,-0.123,-0.415,+0.847,-0.244,-0.477,+14.062,-33.438,+15.500,-3, -8, -3, -4, -2, -5, -5, -5,-2.2719514835654864,1.089598451785933,0
1503512628477,+0.746,+0.506,-0.117,-0.416,+0.800,-0.244,-0.491,+13.875,-36.062,+15.062,-3, 4, -4, -5, 1, 0, 2, -1,-2.2728419035326533,1.0753813540042758,0
1503512628500,+0.749,+0.502,-0.110,-0.418,+0.859,-0.208,-0.473,+18.750,-37.375,+19.125,4, 2, 1, 2, 3, 0, 3, 4,-2.2752088910914834,1.0610510024643252,0
1503512628516,+0.751,+0.500,-0.102,-0.419,+0.865,-0.246,-0.505,+26.125,-32.438,+26.188,-7, -5, 2, 2, 15, 5, -2, -1,-2.280321176416468,1.0505642773851152,0
1503512628537,+0.753,+0.497,-0.094,-0.421,+0.893,-0.295,-0.449,+24.375,-36.438,+26.062,1, 2, 4, 6, 6, -1, 0, 3,-2.282975450927272,1.0377547775609801,0
1503512628559,+0.755,+0.495,-0.087,-0.422,+0.867,-0.257,-0.450,+23.375,-37.688,+21.500,-16, -1, 5, 4, 1, 1, 0, 1,-2.2874051974385647,1.0283323928488184,0
1503512628577,+0.757,+0.492,-0.080,-0.422,+0.831,-0.262,-0.413,+26.938,-37.125,+13.062,-10, -7, -7, -1, -2, -2, -2, -3,-2.2914398489559695,1.0163529012936896,0
1503512628597,+0.759,+0.490,-0.073,-0.422,+0.872,-0.272,-0.463,+27.312,-33.062,+15.188,6, 9, 5, 1, -1, -1, 2, 0,-2.296930301720267,1.0070824547606851,0
1503512628626,+0.760,+0.490,-0.066,-0.422,+0.882,-0.272,-0.471,+28.438,-25.250,+20.000,-12, 14, 10, -1, -4, -2, 0, -5,-2.303526920216841,1.0025779912780886,0
1503512628635,+0.760,+0.491,-0.060,-0.421,+0.864,-0.301,-0.414,+34.250,-14.875,+17.750,4, 2, 5, -2, -7, -3, 1, 2,-2.310217403943112,1.0008954073879612,0
1503512628657,+0.760,+0.495,-0.054,-0.418,+0.888,-0.333,-0.435,+38.312,+1.562,+8.875,5, 2, -7, -3, -2, -3, -3, -1,-2.323546639076844,1.0071162446224977,0
1503512628680,+0.759,+0.499,-0.050,-0.415,+0.887,-0.329,-0.446,+37.250,+8.375,+6.188,-2, -13, -14, -3, -1, -1, 0, -1,-2.333863435538058,1.014329071793803,0
1503512628695,+0.758,+0.502,-0.045,-0.414,+0.887,-0.312,-0.464,+31.375,+1.375,+13.688,2, -17, -13, -10, -7, -2, -3, -4,-2.3413623275722983,1.0185188477820148,0
1503512628717,+0.756,+0.505,-0.041,-0.414,+0.892,-0.314,-0.406,+26.062,+8.688,+20.500,0, -20, -10, -5, 0, -1, 3, 4,-2.345398998950305,1.0229575126004677,0
1503512628739,+0.754,+0.510,-0.039,-0.412,+0.834,-0.301,-0.436,+27.875,+22.688,+13.562,-7, -3, 0, 2, 8, -1, -9, 3,-2.3532786396431096,1.0340296261172972,0
1503512628755,+0.754,+0.513,-0.035,-0.410,+0.868,-0.299,-0.396,+29.625,+2.625,+4.125,-2, 10, 6, 5, 20, 2, -4, -8,-2.3631618020844853,1.039749923038312,0
1503512628779,+0.754,+0.514,-0.032,-0.407,+0.858,-0.321,-0.388,+24.250,-7.812,+1.062,-5, -9, 3, -1, -8, -2, 2, 1,-2.3705006121887897,1.040660000048617,0
1503512628799,+0.755,+0.515,-0.030,-0.405,+0.807,-0.330,-0.402,+19.562,-5.375,-2.750,11, -12, -17, -11, -9, 0, 1, 1,-2.3775553444482074,1.0427722751462019,0
1503512628816,+0.757,+0.515,-0.027,-0.401,+0.801,-0.319,-0.449,+20.250,-9.250,-10.250,7, 6, -1, 2, 7, -1, -2, -3,-2.387922222193921,1.0421358245329444,0
1503512628837,+0.759,+0.515,-0.027,-0.397,+0.788,-0.315,-0.471,+21.000,+0.750,-18.812,10, 8, 3, 5, 2, 2, 3, -1,-2.395894335504278,1.043136275711008,0
1503512628860,+0.760,+0.518,-0.027,-0.392,+0.816,-0.302,-0.439,+19.562,+11.500,-20.750,-9, -3, -1, -2, -6, -1, 1, 2,-2.40786091643193,1.0517639689163747,0
1503512628875,+0.761,+0.520,-0.028,-0.387,+0.863,-0.272,-0.396,+20.375,+6.625,-22.062,9, 5, 1, 0, 0, -2, 2, 3,-2.417542762902597,1.058167265543418,0
1503512628897,+0.763,+0.522,-0.027,-0.381,+0.888,-0.299,-0.397,+23.938,+0.250,-25.812,1, 6, 11, 4, 0, 1, -1, 14,-2.4316533373326696,1.0640682164666324,0
1503512628921,+0.765,+0.523,-0.028,-0.375,+0.901,-0.327,-0.433,+22.062,+3.875,-26.875,-5, 0, -4, 5, 6, -1, -3, -1,-2.4426621885291615,1.0682154012673772,0
1503512628936,+0.765,+0.526,-0.029,-0.371,+0.893,-0.292,-0.448,+11.438,+17.062,-19.000,-13, -9, -8, -4, -7, -4, -9, -11,-2.4509699867690493,1.0768208947737217,0
1503512628957,+0.764,+0.530,-0.032,-0.368,+0.888,-0.253,-0.353,+9.125,+20.562,-13.250,-7, -8, -3, -7, -3, -3, -1, -1,-2.4561816575924404,1.088647175213779,0
1503512628981,+0.764,+0.533,-0.034,-0.363,+0.946,-0.250,-0.318,+7.500,+14.000,-18.625,4, 4, 1, -7, -9, -1, -1, -5,-2.464822410745821,1.09770185057371,0
1503512629002,+0.764,+0.534,-0.038,-0.359,+0.898,-0.229,-0.352,+1.250,+13.000,-24.375,-2, 0, 1, 0, -3, -3, 2, -1,-2.467701329958234,1.102244513834103,0
1503512629018,+0.765,+0.535,-0.042,-0.355,+0.796,-0.207,-0.382,-1.438,+14.062,-27.312,5, 5, 4, -1, -2, 1, -1, 4,-2.4719861180070266,1.1073024361261958,0
1503512629040,+0.766,+0.537,-0.046,-0.350,+0.795,-0.207,-0.412,+3.438,+20.000,-30.938,0, 3, 1, 3, 1, -3, 0, -4,-2.4788275090293688,1.1150516046567336,0
1503512629062,+0.766,+0.539,-0.050,-0.346,+0.835,-0.259,-0.385,+1.625,+19.938,-30.438,-3, 1, 1, 1, 1, -5, 3, 5,-2.4829514016572753,1.1223406434729395,0
1503512629077,+0.765,+0.542,-0.054,-0.344,+0.845,-0.321,-0.351,-11.000,+23.062,-21.688,10, 8, 8, 1, 0, 2, -1, -3,-2.4844101100525124,1.1319778718053024,0
1503512629100,+0.764,+0.542,-0.060,-0.344,+0.839,-0.275,-0.379,-26.750,+18.625,-15.688,-3, -2, -3, 0, -1, 6, 3, -3,-2.4776573666910617,1.1346170613188686,0
1503512629123,+0.764,+0.541,-0.065,-0.344,+0.816,-0.225,-0.424,-24.750,+12.438,-17.750,1, 0, 0, 4, 7, 8, 5, 1,-2.471927780174789,1.1345937031896032,0
1503512629138,+0.767,+0.538,-0.069,-0.344,+0.848,-0.244,-0.420,-17.188,-8.438,-17.562,0, -2, -4, -4, -4, -7, -4, -2,-2.468818373826692,1.1301308958321792,0
1503512629160,+0.768,+0.535,-0.070,-0.344,+0.918,-0.286,-0.424,-14.438,-14.250,-8.750,11, 3, -1, 1, 4, 3, -3, 15,-2.4655513417819823,1.1231003492480043,0
1503512629183,+0.769,+0.533,-0.070,-0.346,+0.822,-0.278,-0.464,-11.812,-3.062,+3.500,37, 7, 2, 2, 0, -4, 2, 8,-2.461959790868302,1.1183370426738637,0
1503512629197,+0.769,+0.532,-0.069,-0.348,+0.816,-0.290,-0.456,-1.812,-4.188,+8.125,-20, -6, -1, 0, 1, -2, -3, -10,-2.4590634572588965,1.1152063668671164,0
1503512629220,+0.769,+0.532,-0.067,-0.349,+0.875,-0.333,-0.406,+2.812,+0.250,+6.312,-5, 2, 0, -2, -7, 2, 1, -4,-2.4595381056419243,1.114125139433746,0
1503512629242,+0.768,+0.532,-0.067,-0.349,+0.857,-0.321,-0.346,-2.625,+4.188,-3.062,-13, -4, -2, 0, -1, -10, -9, -6,-2.45808659291717,1.1136378199045658,0
1503512629258,+0.768,+0.533,-0.069,-0.349,+0.857,-0.243,-0.353,-8.312,+6.688,+0.375,-15, -7, -2, -2, -4, 3, -1, -6,-2.4576597302932743,1.1174683885510444,0
1503512629283,+0.766,+0.535,-0.070,-0.350,+0.899,-0.241,-0.308,-10.312,+13.688,+7.312,-6, -11, -3, -1, -2, 13, 5, -4,-2.4552471848549273,1.1225164887164607,0
1503512629302,+0.763,+0.537,-0.072,-0.352,+0.964,-0.278,-0.372,-9.938,+16.500,+11.000,19, 6, -5, -10, -10, -17, -9, 0,-2.449314853118034,1.12774868449007,0
1503512629318,+0.763,+0.536,-0.072,-0.355,+0.937,-0.283,-0.420,-9.375,-0.812,+13.562,-9, -4, 4, 2, 3, 10, 1, -4,-2.444352572739116,1.1252485749639949,0
1503512629339,+0.763,+0.533,-0.069,-0.358,+0.919,-0.298,-0.440,-6.000,-21.312,+20.562,-24, -13, -2, 0, -6, -7, -1, -12,-2.4393032887023227,1.1156045163761579,0
1503512629362,+0.764,+0.530,-0.065,-0.362,+0.871,-0.315,-0.415,-3.938,-19.312,+24.812,-24, -9, -3, -4, 0, 0, 0, 0,-2.435331550829871,1.1059357772398986,0
1503512629378,+0.763,+0.529,-0.062,-0.366,+0.812,-0.301,-0.399,-0.312,-7.625,+22.188,20, 9, -4, -7, -11, 2, 5, 8,-2.430167736080029,1.101244878545911,0
1503512629399,+0.762,+0.529,-0.060,-0.367,+0.798,-0.266,-0.425,+4.312,+2.938,+17.375,4, -3, -2, -4, 0, -9, -1, -1,-2.4291301242016545,1.0996497605988027,0
1503512629424,+0.761,+0.530,-0.058,-0.368,+0.827,-0.253,-0.455,+9.438,+8.562,+14.125,-1, -2, 0, 2, 5, 2, 2, 3,-2.429456603690616,1.1007662092867492,0
1503512629444,+0.761,+0.531,-0.056,-0.368,+0.834,-0.285,-0.425,+15.125,+1.938,+7.500,-10, -22, -11, -5, -6, -3, -5, -4,-2.432511325977216,1.102350300049455,0
1503512629467,+0.763,+0.531,-0.053,-0.366,+0.840,-0.277,-0.380,+17.625,-9.688,-3.250,13, 4, -1, 1, 2, 1, 6, 0,-2.4404715053614474,1.1015969357465245,0
1503512629483,+0.764,+0.530,-0.052,-0.363,+0.828,-0.274,-0.347,+13.562,-12.688,-10.062,16, 10, 1, -2, -6, 0, -6, -2,-2.445137800899396,1.0986939366834778,0
1503512629498,+0.766,+0.530,-0.051,-0.361,+0.815,-0.258,-0.345,+6.375,-8.688,-8.562,7, 16, 13, 17, 24, 14, 12, 5,-2.4514046392977726,1.0990693352451395,0
1503512629528,+0.767,+0.529,-0.051,-0.360,+0.825,-0.243,-0.362,+0.500,-5.375,-5.062,-7, -3, 3, -3, -4, -2, -4, 0,-2.4527765346318677,1.0968156534042337,0
1503512629542,+0.768,+0.528,-0.052,-0.359,+0.865,-0.265,-0.358,-1.875,-7.500,-9.500,-9, 1, 1, -4, -5, -8, -13, -12,-2.453301525453651,1.095102688755131,0
1503512629559,+0.770,+0.526,-0.053,-0.357,+0.885,-0.299,-0.340,-3.312,-13.875,-14.750,-3, 9, 10, 3, -2, 0, 0, 0,-2.455235183374875,1.0911550910099332,0
1503512629579,+0.771,+0.524,-0.054,-0.357,+0.896,-0.306,-0.340,-12.250,-17.188,-7.375,-8, -12, -10, -1, 1, 1, 0, -1,-2.453239116042063,1.086821736522964,0
1503512629602,+0.772,+0.521,-0.056,-0.359,+0.888,-0.256,-0.381,-21.625,-13.562,+0.812,-14, -8, -2, 2, 1, 2, -6, -9,-2.446635168955872,1.0804928519831605,0
1503512629618,+0.773,+0.519,-0.060,-0.361,+0.878,-0.210,-0.403,-23.625,-7.625,+1.250,3, 0, -2, -4, -2, -5, -5, -2,-2.4397367393059644,1.0780434504667216,0
1503512629640,+0.773,+0.517,-0.062,-0.362,+0.878,-0.217,-0.408,-19.375,-4.562,-0.812,1, -1, -4, -2, -2, 2, 5, 2,-2.4342653620210273,1.0739384063314072,0
1503512629662,+0.773,+0.516,-0.065,-0.362,+0.916,-0.270,-0.413,-14.812,-0.375,-2.250,-4, -6, -5, -4, -2, -1, 1, 7,-2.43051489382484,1.0730564789463355,0
1503512629678,+0.773,+0.515,-0.067,-0.363,+0.904,-0.297,-0.445,-15.500,-0.250,-4.750,1, -1, -1, -3, -4, -1, -2, 2,-2.426374006069649,1.071673549140277,0
1503512629699,+0.774,+0.513,-0.068,-0.364,+0.928,-0.271,-0.437,-13.875,-9.188,-3.688,-3, 1, -1, -3, -4, -5, -3, -6,-2.4233013395621925,1.0675722434692503,0
1503512630518,+0.757,+0.518,-0.078,-0.390,+0.911,-0.306,-0.372,+0.375,+20.000,+4.688,27, 15, 4, 1, -1, -3, -1, 4,-2.3646713043731276,1.0804077059693844,1
1503512630540,+0.756,+0.520,-0.078,-0.390,+0.908,-0.330,-0.385,+1.188,+10.188,+2.438,-7, -5, -2, -4, -2, -1, -2, -2,-2.3658437590140196,1.085209320777536,1
1503512630563,+0.755,+0.522,-0.078,-0.390,+0.891,-0.334,-0.396,+1.188,+11.062,+1.312,1, 2, 1, 0, -3, -5, -11, -8,-2.3670296436808687,1.0900236877007596,1
1503512630578,+0.753,+0.523,-0.078,-0.390,+0.892,-0.314,-0.384,+0.625,+8.312,+2.500,-4, -2, -1, -10, -14, 2, -1, -4,-2.365192739182604,1.091680271183131,1
1503512630601,+0.753,+0.525,-0.079,-0.390,+0.875,-0.286,-0.397,-0.375,+10.500,-1.312,-9, -7, 0, -1, -3, -5, 0, 0,-2.3672433649008515,1.0976824813761352,1
1503512630630,+0.752,+0.526,-0.080,-0.389,+0.830,-0.271,-0.397,-0.250,+15.188,-7.188,13, 5, -1, 1, 2, -1, -4, -3,-2.367382165037725,1.1004439555568748,1
1503512630638,+0.750,+0.529,-0.083,-0.387,+0.824,-0.270,-0.387,+0.250,+25.812,-8.625,-1, 0, 0, 1, 5, 0, 6, 3,-2.368291496816483,1.1093251605598347,1
1503512630661,+0.748,+0.534,-0.085,-0.386,+0.882,-0.273,-0.411,+1.750,+36.188,-5.500,3, 3, 0, -4, -3, -1, -1, -1,-2.3717240926839946,1.1230078044805774,1
1503512630682,+0.745,+0.538,-0.088,-0.385,+0.938,-0.253,-0.448,+1.938,+36.188,-0.750,-4, -2, -5, -1, 2, 4, 7, 0,-2.3713707833308946,1.1342510306104718,1
1503512630698,+0.743,+0.541,-0.090,-0.384,+0.959,-0.226,-0.379,+1.938,+30.250,+3.000,11, -7, -3, -2, -4, -6, 0, 0,-2.3719991181595557,1.1426520651607723,1
1503512630721,+0.740,+0.545,-0.090,-0.383,+0.943,-0.232,-0.323,+7.812,+21.750,+2.938,2, 4, -2, 5, 4, 1, -3, 1,-2.3741442528539385,1.151979764748351,1
1503512630742,+0.739,+0.548,-0.090,-0.381,+0.919,-0.252,-0.360,+12.250,+15.750,+2.500,9, 4, 6, 1, -1, 1, 0, -6,-2.379143226405938,1.1594968413197106,1
1503512630760,+0.738,+0.550,-0.089,-0.381,+0.886,-0.247,-0.409,+12.500,+16.375,+7.688,-11, -3, -3, -1, -3, -2, -8, -5,-2.3813135280529676,1.1638137391478103,1
1503512630780,+0.736,+0.552,-0.087,-0.381,+0.889,-0.221,-0.381,+13.500,+16.250,+15.750,7, 6, 6, 4, 3, 0, -4, -1,-2.382801925296581,1.1670498737358372,1
1503512630803,+0.734,+0.555,-0.083,-0.382,+0.888,-0.245,-0.340,+19.312,+13.938,+25.938,-1, 0, 0, -2, 0, -8, -3, 0,-2.386379872426555,1.1718640322356206,1
1503512630818,+0.731,+0.559,-0.078,-0.383,+0.850,-0.300,-0.335,+22.688,+15.438,+29.812,6, 1, -4, -8, -11, -18, -15, 0,-2.3908858321331343,1.1784844493616675,1
1503512630840,+0.729,+0.562,-0.073,-0.384,+0.844,-0.300,-0.364,+27.062,+13.062,+30.438,-6, -1, 2, 4, 3, 9, 4, -2,-2.3955652585968084,1.182955921550504,1
1503512630863,+0.726,+0.565,-0.066,-0.386,+0.854,-0.303,-0.354,+29.250,+8.188,+35.875,5, -4, -6, 0, 2, 1, 4, 4,-2.39951450850422,1.18603778817774,1
1503512630878,+0.724,+0.567,-0.059,-0.388,+0.857,-0.326,-0.333,+28.562,+1.812,+42.938,-8, -1, 3, 1, 3, 6, 4, 1,-2.4035810765012138,1.186972599531992,1
1503512630902,+0.722,+0.569,-0.051,-0.391,+0.847,-0.329,-0.354,+30.000,-0.625,+44.375,-4, -4, -7, -4, -2, -4, -7, -5,-2.407529219627802,1.1876222988348726,1
1503512630922,+0.720,+0.571,-0.042,-0.393,+0.859,-0.350,-0.303,+33.250,-3.500,+42.688,-2, -4, -3, -1, -2, 1, 3, 1,-2.4136993021764868,1.1879846349774144,1
1503512630938,+0.718,+0.572,-0.033,-0.394,+0.833,-0.354,-0.315,+37.312,-7.812,+41.938,-12, -6, 0, -2, 0, -2, -4, -1,-2.4196337241621846,1.1857248897432486,1
1503512630962,+0.718,+0.573,-0.024,-0.396,+0.815,-0.355,-0.334,+37.438,-15.500,+43.812,0, 0, -2, -3, -3, 1, 9, 2,-2.4273789592631783,1.1847157424644692,1
1503512630982,+0.717,+0.573,-0.014,-0.397,+0.792,-0.380,-0.298,+39.500,-14.688,+41.812,3, 0, -1, -1, -1, -3, -5, 2,-2.4343656261939604,1.1801552214567659,1
1503512630998,+0.716,+0.575,-0.003,-0.397,+0.792,-0.406,-0.295,+46.000,-15.375,+37.688,-4, -2, 6, 1, 0, 1, 2, -1,-2.447009983911948,1.1815318040059128,1
1503512631020,+0.716,+0.575,+0.006,-0.396,+0.821,-0.448,-0.335,+43.250,-20.562,+27.688,-1, -1, -2, -3, -1, -5, -5, -6,-2.4572262010759713,1.1785322122672088,1
1503512631042,+0.718,+0.574,+0.014,-0.394,+0.794,-0.452,-0.302,+38.688,-22.062,+13.625,-1, -3, -2, -2, -5, 0, 2, 1,-2.4688769002826403,1.1741109606460474,1
1503512631058,+0.719,+0.574,+0.020,-0.391,+0.793,-0.429,-0.233,+33.062,-23.000,+7.875,0, 3, 2, 8, 15, 4, 3, 4,-2.4801934746564056,1.1730174340484636,1
1503512631080,+0.720,+0.574,+0.025,-0.388,+0.787,-0.420,-0.244,+30.312,-18.312,+6.125,-2, -6, -3, -3, -4, 2, -2, -7,-2.49058574255537,1.1723358050092143,1
1503512631102,+0.722,+0.573,+0.031,-0.385,+0.829,-0.472,-0.268,+28.375,-24.500,+1.375,-10, -7, 0, -3, -2, -4, -7, -10,-2.501767862161547,1.1690156497382869,1
1503512631118,+0.725,+0.572,+0.035,-0.383,+0.789,-0.478,-0.277,+23.250,-27.500,-0.188,-1, -6, -2, 0, -3, -3, 3, 0,-2.51082182824961,1.1667312954160065,1
1503512631141,+0.727,+0.570,+0.040,-0.381,+0.771,-0.458,-0.237,+18.438,-26.750,+2.188,0, 1, -4, 2, 4, 2, -1, 0,-2.518095061170378,1.1607605995169175,1
1503512631163,+0.728,+0.569,+0.044,-0.380,+0.773,-0.464,-0.271,+16.875,-13.438,+7.312,1, -1, 1, -1, -3, -2, -1, 2,-2.5233508050286946,1.1575595342837413,1
1503512631178,+0.728,+0.569,+0.047,-0.379,+0.803,-0.482,-0.315,+17.500,-9.500,+8.812,5, 4, -3, -4, 3, 13, 5, 6,-2.5279367325531785,1.1571232078378364,1
1503512631202,+0.728,+0.569,+0.050,-0.378,+0.795,-0.517,-0.280,+10.750,-10.250,+7.312,0, 7, 5, -4, -2, -4, -3, -1,-2.5325524795402545,1.1567283882253703,1
1503512631223,+0.729,+0.568,+0.052,-0.379,+0.828,-0.521,-0.298,+2.312,-10.938,+6.188,2, 1, -5, 2, 1, -2, 1, 5,-2.5329367573436725,1.15384507699656,1
1503512631238,+0.730,+0.566,+0.054,-0.379,+0.847,-0.491,-0.329,+1.125,-13.562,+9.125,-2, -2, 0, -7, -7, -8, -2, -2,-2.533099097635078,1.147928213008857,1
1503512631262,+0.730,+0.565,+0.056,-0.380,+0.806,-0.489,-0.298,+2.500,-12.500,+10.438,-5, -2, -7, -4, -5, -2, -6, -10,-2.5322546312348453,1.1445196287216952,1
1503512631283,+0.730,+0.564,+0.057,-0.381,+0.798,-0.482,-0.292,+1.062,-7.438,+10.000,-9, -30, -10, -2, -2, 2, 5, -2,-2.530322329475355,1.1412382811105863,1
1503512631298,+0.730,+0.564,+0.058,-0.382,+0.808,-0.508,-0.286,-4.750,-0.938,+10.812,-3, 11, 8, 11, 5, -3, -2, -5,-2.5300052326114986,1.1410556148982411,1
1503512631321,+0.729,+0.564,+0.057,-0.385,+0.829,-0.556,-0.297,-14.625,+3.750,+12.250,-2, 5, -1, -1, -1, -5, -5, -3,-2.5235294606575787,1.1404680785604884,1
1503512631343,+0.727,+0.563,+0.055,-0.389,+0.858,-0.538,-0.324,-23.500,+5.562,+13.875,-2, 1, -1, -3, -2, 5, 0, -3,-2.5117243461074525,1.1363238172580516,1
1503512631359,+0.727,+0.562,+0.052,-0.392,+0.846,-0.466,-0.335,-23.750,+4.875,+11.562,8, 4, 8, 5, 0, -2, 4, 7,-2.5027908442124738,1.133541789195811,1
1503512631381,+0.726,+0.561,+0.051,-0.395,+0.812,-0.434,-0.342,-16.125,+4.500,+11.125,-13, -12, -14, -12, -6, 0, 3, -3,-2.4947086756908394,1.129909583360894,1
1503512631403,+0.725,+0.561,+0.050,-0.397,+0.790,-0.461,-0.361,-7.875,+10.438,+12.438,9, 4, 0, 3, 3, 2, 2, 4,-2.489654353468963,1.129430814811172,1
1503512631419,+0.723,+0.562,+0.049,-0.399,+0.811,-0.474,-0.352,-7.375,+14.812,+12.812,5, 6, 5, 4, 1, 2, -1, 5,-2.4849731724205837,1.13149738362139,1
1503512631441,+0.721,+0.563,+0.048,-0.401,+0.848,-0.457,-0.324,-9.188,+11.500,+17.250,3, -7, 0, 2, 3, 2, 0, 4,-2.480302257521775,1.1335775359971705,1
1503512631469,+0.719,+0.562,+0.048,-0.405,+0.836,-0.465,-0.342,-11.125,+4.500,+23.562,1, -6, -8, -7, -6, -5, -3, 0,-2.4705728880153752,1.1291548207211881,1
1503512631478,+0.718,+0.562,+0.047,-0.409,+0.823,-0.470,-0.368,-13.250,+5.438,+22.438,1, 3, -3, -3, -6, -3, -4, -1,-2.46290137840811,1.1286060151538098,1
1503512631501,+0.716,+0.561,+0.046,-0.412,+0.809,-0.480,-0.352,-12.875,+7.812,+19.250,-3, -1, -3, -3, 2, -7, -4, -3,-2.4534306382815654,1.1244333233473596,1
1503512631523,+0.715,+0.561,+0.046,-0.415,+0.805,-0.496,-0.326,-11.938,+7.250,+15.438,2, 20, 17, 14, 4, 1, 1, -3,-2.448127988441983,1.1237210861682645,1
1503512631539,+0.714,+0.561,+0.045,-0.417,+0.815,-0.520,-0.325,-10.875,+4.125,+10.375,5, -3, -4, -2, -1, -2, -3, 1,-2.4431158392835695,1.123286399515866,1
1503512631562,+0.714,+0.560,+0.044,-0.419,+0.815,-0.520,-0.331,-11.500,-2.000,+9.688,-3, 0, -1, -5, -2, 5, 1, -1,-2.4377462847560594,1.1203184079247432,1
1503512631582,+0.714,+0.558,+0.044,-0.421,+0.772,-0.516,-0.338,-13.125,-6.062,+9.188,3, 2, -1, 2, 1, -2, -2, -1,-2.4316002215056556,1.114003512189146,1
1503512631601,+0.714,+0.557,+0.043,-0.423,+0.760,-0.539,-0.344,-15.688,-2.438,+5.750,0, -1, 1, 2, -1, 0, 0, 2,-2.426256648989566,1.1110613831654284,1
1503512631621,+0.713,+0.556,+0.041,-0.425,+0.764,-0.528,-0.328,-18.188,+5.625,+1.812,3, 5, 1, 1, 3, 1, 1, 1,-2.418476023108188,1.107821233948698,1
1503512631644,+0.713,+0.556,+0.038,-0.427,+0.804,-0.507,-0.330,-20.250,+7.750,+3.250,-4, -13, -24, -5, -4, -1, -3, -1,-2.413024719738051,1.108582666679864,1
1503512631658,+0.712,+0.554,+0.036,-0.430,+0.797,-0.505,-0.340,-22.062,-2.188,+11.312,5, 6, 8, 6, 4, 1, -1, 2,-2.402229441373128,1.1022968199362908,1
1503512631681,+0.712,+0.551,+0.035,-0.434,+0.760,-0.544,-0.309,-27.312,-4.688,+10.812,-6, -6, -5, -7, -5, 1, 2, 2,-2.390868426989283,1.0932189792155507,1
1503512631703,+0.711,+0.549,+0.032,-0.438,+0.724,-0.527,-0.320,-32.375,+2.688,+6.062,0, -8, 1, 2, 0, -1, 3, -1,-2.3779497278715915,1.0873380243186,1
1503512631718,+0.710,+0.548,+0.027,-0.441,+0.709,-0.491,-0.342,-36.000,+10.562,+3.562,2, 5, 8, 2, 1, 1, -4, 3,-2.366298374196127,1.0853744224385518,1
1503512631741,+0.709,+0.546,+0.022,-0.445,+0.735,-0.471,-0.371,-37.875,+12.312,+2.875,-4, 2, 1, -1, 0, -1, 2, -4,-2.351733085713042,1.0805078246311957,1
1503512631763,+0.709,+0.544,+0.017,-0.449,+0.752,-0.474,-0.366,-36.125,+4.375,+3.000,3, 6, -1, -3, 0, 0, 3, 6,-2.3389577119865037,1.0764395819887367,1
1503512631778,+0.710,+0.540,+0.014,-0.452,+0.716,-0.510,-0.362,-39.125,-7.000,-0.312,1, -2, -5, -2, -1, -1, -2, -3,-2.32720711071533,1.0662964327292688,1
1503512631801,+0.711,+0.535,+0.010,-0.456,+0.684,-0.472,-0.401,-41.500,-13.500,-4.812,2, -1, -2, -5, -3, 0, -3, -5,-2.311809203994691,1.053823514056437,1
1503512631823,+0.714,+0.529,+0.005,-0.458,+0.680,-0.432,-0.414,-38.000,-13.812,-12.062,-5, -8, -3, -4, -3, -3, -1, -2,-2.299691547755905,1.0404565566443107,1
1503512631838,+0.717,+0.525,+0.000,-0.458,+0.670,-0.426,-0.373,-32.875,-13.062,-19.812,4, 23, 15, 14, 7, 1, 1, -1,-2.293710009151208,1.0332728168628889,1
1503512631861,+0.720,+0.521,-0.004,-0.459,+0.655,-0.446,-0.361,-33.375,-12.875,-23.875,0, 2, -3, -4, -4, 0, -2, -3,-2.2876601921380217,1.0257678650270778,1
1503512631882,+0.723,+0.517,-0.010,-0.459,+0.677,-0.453,-0.402,-40.500,-7.750,-26.625,-5, -5, -3, -2, -3, 1, -2, 2,-2.2813653686170645,1.0195993195762305,1
1503512631900,+0.726,+0.512,-0.018,-0.459,+0.709,-0.443,-0.458,-43.500,-4.500,-33.375,-4, -9, -4, -2, 3, -1, -2, -3,-2.272124429903873,1.0121057034958736,1
1503512631921,+0.730,+0.507,-0.025,-0.458,+0.741,-0.446,-0.424,-43.688,-12.062,-39.062,2, -7, -4, 1, -2, -1, -2, 1,-2.2668424209860905,1.0049721828334168,1
1503512631943,+0.734,+0.502,-0.033,-0.456,+0.796,-0.425,-0.394,-45.250,-19.375,-43.438,-10, -2, 3, -3, -1, 0, -2, -3,-2.2622241378034467,0.9987930925670719,1
1503512631958,+0.739,+0.495,-0.040,-0.455,+0.789,-0.371,-0.443,-47.938,-27.000,-41.625,-3, -9, -9, -8, -6, -3, -1, 1,-2.256250626974576,0.9875472239606293,1
1503512631981,+0.745,+0.486,-0.047,-0.455,+0.752,-0.387,-0.466,-50.062,-35.750,-38.438,4, 2, 3, 4, 2, 3, 3, 1,-2.248508710210785,0.9721132733572613,1
1503512632003,+0.749,+0.479,-0.053,-0.454,+0.758,-0.472,-0.436,-50.500,-26.312,-41.750,2, -2, -5, -6, -7, -5, 0, 12,-2.2423515275557886,0.960479124732595,1
1503512632025,+0.753,+0.474,-0.062,-0.453,+0.817,-0.453,-0.460,-54.375,-9.625,-47.188,-2, -1, 1, 3, 2, 0, -2, -6,-2.237733106814474,0.9566368995028859,1
1503512632041,+0.756,+0.468,-0.071,-0.452,+0.923,-0.320,-0.558,-53.250,-14.062,-38.438,-4, -4, 4, 2, 2, 0, 0, -3,-2.2300755681653364,0.9500457351133564,1
1503512632063,+0.760,+0.461,-0.078,-0.451,+0.945,-0.308,-0.488,-47.062,-32.625,-34.875,-4, -2, -2, 0, 0, 2, 4, 2,-2.2244973346532406,0.9402993538881365,1
1503512632078,+0.765,+0.454,-0.082,-0.450,+0.867,-0.380,-0.396,-41.062,-42.062,-32.688,2, 0, -6, -3, 3, 4, 3, 2,-2.223018284027619,0.9289588810319247,1
1503512632102,+0.768,+0.448,-0.088,-0.449,+0.836,-0.356,-0.519,-40.312,-21.562,-32.562,3, -13, -7, -5, -4, -2, 1, -6,-2.2181768352767244,0.9208692968861482,1
1503512632123,+0.771,+0.444,-0.095,-0.448,+0.833,-0.224,-0.660,-37.938,-5.125,-33.875,-1, 3, -1, -3, -4, -3, -2, -2,-2.2157588278279783,0.9187437755827221,1
1503512632138,+0.773,+0.440,-0.100,-0.445,+0.859,-0.209,-0.585,-25.500,-8.062,-29.938,1, -1, -3, 0, 0, -6, -5, -1,-2.2145287445992934,0.9142217521027733,1
1503512632161,+0.774,+0.439,-0.103,-0.444,+0.901,-0.296,-0.461,-18.500,-10.312,-21.312,2, 9, 7, 2, -2, -1, -2, 2,-2.2145315069069604,0.9149089335999402,1
1503512632183,+0.775,+0.439,-0.107,-0.443,+0.875,-0.333,-0.510,-20.375,+4.688,-20.312,-3, 3, 8, 6, 2, -3, -3, -4,-2.215317412868694,0.9189106522614456,1
1503512632198,+0.775,+0.438,-0.112,-0.442,+0.848,-0.215,-0.638,-23.000,+10.312,-16.875,-2, -5, -6, -2, -2, 0, -3, -2,-2.2122752035830398,0.9209145348419936,1
1503512632221,+0.776,+0.435,-0.115,-0.442,+0.870,-0.108,-0.635,-13.688,-5.750,-6.188,4, -1, 3, 4, 6, -1, -2, 1,-2.2088005529603754,0.9170634200231376,1
1503512632243,+0.777,+0.433,-0.114,-0.442,+0.897,-0.176,-0.523,-2.750,-20.125,+2.875,1, -1, -2, 1, 3, 2, 1, -1,-2.2087691092508304,0.911934555708154,1
1503512632258,+0.778,+0.432,-0.112,-0.443,+0.845,-0.278,-0.499,+0.438,-18.250,+3.688,1, 1, -4, -3, -3, 1, 1, 3,-2.2096068729153706,0.9084076884582953,1
1503512632281,+0.778,+0.431,-0.110,-0.444,+0.788,-0.310,-0.551,-4.000,-12.312,+1.125,-8, -4, -8, -3, -2, -1, 0, -4,-2.208428825361587,0.9043435080644243,1
1503512632304,+0.778,+0.429,-0.110,-0.445,+0.781,-0.260,-0.580,-9.125,-6.562,+1.438,-3, -5, -8, -2, 1, 0, -2, -4,-2.2049185188901768,0.8997476064537578,1
1503512632318,+0.778,+0.429,-0.111,-0.445,+0.778,-0.191,-0.571,-7.188,+7.312,+1.812,4, 7, 9, 5, 5, 0, 0, 3,-2.2043984059758883,0.9006676348244979,1
1503512632341,+0.777,+0.430,-0.112,-0.445,+0.779,-0.158,-0.544,-0.812,+6.438,+0.438,5, 2, 6, 12, 13, 0, -4, 1,-2.203133439581817,0.9034099456479577,1
1503512632363,+0.777,+0.431,-0.112,-0.444,+0.828,-0.216,-0.510,+1.188,-0.750,-4.625,1, 0, -2, -8, -7, 1, 1, 2,-2.2053605813074517,0.9056354075068719,1
1503512632378,+0.778,+0.431,-0.113,-0.443,+0.824,-0.231,-0.541,-3.062,+0.125,-10.625,-1, 4, 2, 1, -2, -1, -3, -4,-2.2078022925914733,0.9069584195788132,1
1503512632401,+0.779,+0.430,-0.114,-0.442,+0.783,-0.195,-0.600,-4.062,-1.062,-7.562,3, -5, -14, -8, -5, -2, -2, -3,-2.2089678555505983,0.9059147043037546,1
1503512632422,+0.779,+0.429,-0.114,-0.442,+0.746,-0.187,-0.563,-1.625,-3.125,-3.062,1, 0, -3, -3, 1, 1, 4, 4,-2.2076961318707142,0.9035521808777031,1
1503512632445,+0.779,+0.430,-0.114,-0.441,+0.783,-0.234,-0.532,+0.500,+5.625,-1.750,-6, -5, -1, 3, 0, -1, 1, -2,-2.2099166909226096,0.9057710395011609,1
1503512632459,+0.778,+0.432,-0.115,-0.441,+0.790,-0.243,-0.570,-2.062,+12.062,-2.375,-1, 0, -1, -8, -14, -3, 1, -4,-2.209923651747793,0.910884937662732,1
1503512632482,+0.778,+0.432,-0.115,-0.441,+0.780,-0.222,-0.553,-4.500,+0.062,-3.000,-1, -8, -7, -5, -2, -1, -2, 3,-2.209923651747793,0.910884937662732,1
1503512632506,+0.779,+0.431,-0.115,-0.441,+0.802,-0.245,-0.514,-5.062,-8.750,-4.188,-3, 3, -1, 1, 4, -3, -2, -1,-2.2106634951509583,0.9090588322268286,1
1503512632520,+0.779,+0.430,-0.116,-0.441,+0.793,-0.249,-0.539,-8.375,-6.562,-6.062,-3, 0, 5, 3, 8, -1, -2, 0,-2.208869335268997,0.9076205741955616,1
1503512632542,+0.780,+0.428,-0.117,-0.441,+0.766,-0.193,-0.585,-12.125,-3.625,-6.500,0, 3, 4, 4, 5, 0, 0, 0,-2.2078380578503944,0.9043722480088183,1
1503512632564,+0.781,+0.425,-0.119,-0.441,+0.730,-0.127,-0.592,-11.250,-4.312,-5.500,5, 0, -2, -4, -5, 0, 0, 4,-2.2050618161073814,0.8997290732750636,1
1503512632581,+0.781,+0.424,-0.120,-0.442,+0.770,-0.138,-0.565,-10.250,-2.125,+0.000,-1, 6, 0, 1, -2, -3, -4, -6,-2.202356884579152,0.898477605279224,1
1503512632602,+0.781,+0.424,-0.122,-0.442,+0.799,-0.167,-0.584,-8.438,+5.312,+2.875,0, 1, 1, 6, 7, 0, -4, -3,-2.201338090203346,0.9003684477302479,1
1503512632624,+0.780,+0.424,-0.123,-0.443,+0.796,-0.154,-0.591,-6.750,+7.000,+0.188,-2, -5, -3, 2, -2, -2, -2, 0,-2.197856093208884,0.9009373944592886,1
1503512632640,+0.781,+0.423,-0.124,-0.443,+0.823,-0.124,-0.554,-5.875,-5.000,+1.125,-4, -1, 2, -2, -2, 3, 1, 0,-2.1981450286940376,0.9000896501592479,1
1503512632662,+0.781,+0.422,-0.123,-0.444,+0.841,-0.165,-0.522,-4.500,-15.812,+5.375,1, 1, 2, -1, -4, -1, 2, 0,-2.1964736633659006,0.8969578282627045,1
1503512632685,+0.781,+0.421,-0.122,-0.445,+0.810,-0.225,-0.549,-4.938,-11.438,+2.312,-1, -7, -10, -4, 0, -1, -1, 0,-2.194801152699183,0.8938275203659201,1
1503512632699,+0.782,+0.419,-0.122,-0.445,+0.743,-0.198,-0.597,-7.375,-8.625,-4.000,-4, -6, 2, 3, 0, -3, -1, -1,-2.1943691390332014,0.8897075492766776,1
1503512632722,+0.783,+0.416,-0.123,-0.445,+0.737,-0.128,-0.593,-7.438,-7.500,-4.938,5, -1, -2, -3, -5, -1, 2, 4,-2.1922284195728543,0.8842375148258192,1
1503512632744,+0.784,+0.416,-0.124,-0.445,+0.770,-0.131,-0.555,-4.562,-1.750,-2.188,-4, 3, 4, -3, -5, -2, -8, -10,-2.1937955766996198,0.8857337990876879,1
1503512632759,+0.783,+0.417,-0.125,-0.445,+0.786,-0.184,-0.572,-4.312,+8.562,+1.312,-1, -2, -1, 1, 1, -1, -2, -2,-2.1924721555248325,0.8884789837811673,1
1503512632782,+0.782,+0.418,-0.126,-0.445,+0.786,-0.204,-0.573,-8.125,+9.000,+0.750,-1, -1, -3, -3, -1, -2, -5, 0,-2.1911511046127736,0.8912285162456852,1
1503512632808,+0.781,+0.418,-0.128,-0.446,+0.829,-0.184,-0.583,-8.938,+8.062,+2.188,-1, 0, -1, -8, -9, -1, 2, 0,-2.187185092411179,0.8927965858077243,1
1503512632820,+0.780,+0.419,-0.129,-0.447,+0.810,-0.163,-0.601,-6.688,+10.188,+7.312,-3, -6, -7, -6, -7, -2, 2, -1,-2.184952628376778,0.8957198957294222,1
1503512632842,+0.779,+0.420,-0.129,-0.448,+0.812,-0.188,-0.578,-2.312,+4.875,+7.312,2, 3, 0, 0, 1, 1, 2, 3,-2.1832192149546064,0.8976708259490352,1
1503512632865,+0.778,+0.421,-0.130,-0.448,+0.807,-0.176,-0.527,-5.812,+8.062,+2.250,11, 9, 24, 12, 8, 3, 1, -1,-2.181910284339816,0.9004384691629889,1
1503512632879,+0.777,+0.422,-0.132,-0.448,+0.783,-0.138,-0.565,-4.000,+10.500,-0.625,-6, -8, -12, -1, 6, -1, -1, -3,-2.1801131363309185,0.9041931813692452,1
1503512632902,+0.777,+0.422,-0.133,-0.448,+0.787,-0.123,-0.597,-3.250,+7.438,+0.688,-4, -1, -4, -2, -3, -1, 3, 0,-2.1796230134951142,0.9051782390573468,1
1503512632924,+0.776,+0.423,-0.134,-0.448,+0.770,-0.143,-0.588,-2.875,+9.375,+1.188,2, 10, -1, 1, -3, -3, -2, 5,-2.1783181950358137,0.9079592821993206,1
1503512632941,+0.776,+0.424,-0.135,-0.447,+0.775,-0.154,-0.557,-1.000,+10.438,-1.375,-3, 1, 5, 0, 5, 1, -3, -3,-2.179982087466971,0.9111044521899588,1
1503512632962,+0.775,+0.426,-0.136,-0.447,+0.784,-0.146,-0.563,-1.062,+13.000,-3.188,5, -2, -5, -2, -1, -2, -1, -1,-2.179940953400275,0.9162211418869732,1
1503512632984,+0.774,+0.427,-0.137,-0.446,+0.800,-0.160,-0.551,-2.062,+13.000,-1.500,-4, -5, -4, 2, -1, 0, -2, 1,-2.1795460549034673,0.9188475486674202,1
1503512632999,+0.773,+0.429,-0.138,-0.446,+0.827,-0.191,-0.545,-2.938,+15.062,+1.875,-2, -8, 3, -2, -4, -2, 1, -1,-2.1795224901701418,0.9239807122261151,1
1503512633022,+0.771,+0.432,-0.140,-0.446,+0.827,-0.213,-0.546,-4.250,+17.875,+2.188,-7, 1, 13, -2, 0, 0, -1, -3,-2.1782329535889744,0.9319359703395199,1
1503512633047,+0.770,+0.434,-0.142,-0.446,+0.834,-0.177,-0.540,-7.125,+17.062,-1.062,2, 3, 0, -4, -2, -2, -2, 1,-2.1777384629566168,0.9380946072779681,1
1503512633060,+0.769,+0.435,-0.144,-0.446,+0.837,-0.120,-0.516,-7.062,+11.375,-0.438,-1, 0, 2, 8, 12, 2, 0, -2,-2.175968086526846,0.9419229503105321,1
1503512633083,+0.768,+0.435,-0.145,-0.446,+0.851,-0.113,-0.501,-3.312,+5.750,-0.562,-2, -2, -3, 6, 2, 1, -2, 1,-2.1734133034607703,0.9424102279240462,1
1503512633104,+0.769,+0.435,-0.146,-0.445,+0.863,-0.137,-0.513,-0.750,-3.500,-1.688,3, 7, 5, 1, -1, -1, -2, 1,-2.175851604422862,0.9437632259826729,1
1503512633119,+0.770,+0.434,-0.145,-0.445,+0.858,-0.167,-0.522,-2.188,-11.438,-1.188,-4, -5, 3, -1, -3, -1, -2, -2,-2.1771236814368398,0.9409317479815396,1
1503512633144,+0.771,+0.432,-0.144,-0.446,+0.824,-0.171,-0.534,-3.938,-14.812,+0.438,0, 3, 2, -4, -4, -1, -2, -2,-2.176235849200489,0.9359399564099621,1
1503512633165,+0.772,+0.430,-0.144,-0.446,+0.795,-0.170,-0.550,-2.875,-11.312,-2.125,-1, 3, 2, 0, -1, -1, -1, -4,-2.1757524366863534,0.9317914491924824,1
1503512633179,+0.772,+0.429,-0.143,-0.446,+0.793,-0.191,-0.535,-2.375,-7.562,-2.375,-2, -2, 2, 0, -2, -1, 0, 3,-2.1749801645716818,0.928453994223414,1
1503512633202,+0.772,+0.429,-0.143,-0.447,+0.815,-0.192,-0.529,-5.750,-1.500,+1.062,7, 13, 3, 0, 0, -1, -3, -2,-2.1740915853138914,0.9286276230914509,1
1503512633225,+0.771,+0.429,-0.144,-0.448,+0.813,-0.183,-0.535,-7.750,+4.250,+3.688,-2, -3, 0, 1, -1, -2, 0, -4,-2.1706498292000487,0.9292901455326237,1
1503512633239,+0.770,+0.430,-0.145,-0.448,+0.810,-0.153,-0.546,-6.500,+4.188,+2.875,-1, -2, 0, -1, -1, -2, -2, -5,-2.1693637597861373,0.9321117907607391,1
1503512633262,+0.770,+0.430,-0.146,-0.448,+0.812,-0.132,-0.539,-4.625,+3.000,+0.562,-2, -3, 0, -1, -5, -3, 0, 2,-2.168872683627796,0.9331264290823088,1
1503512633285,+0.770,+0.430,-0.146,-0.448,+0.811,-0.133,-0.541,-1.625,+2.750,+0.250,1, 0, -1, -2, -3, 0, -1, -2,-2.168872683627796,0.9331264290823088,1
1503512633307,+0.770,+0.430,-0.146,-0.448,+0.804,-0.139,-0.545,-0.375,+1.625,+1.125,0, -3, 0, 1, 3, -2, -4, -4,-2.168872683627796,0.9331264290823088,1
1503512633322,+0.770,+0.430,-0.146,-0.448,+0.807,-0.153,-0.545,-1.250,+2.438,+1.812,1, 0, -1, -2, 0, 2, 3, 4,-2.168872683627796,0.9331264290823088,1
1503512633345,+0.770,+0.430,-0.147,-0.448,+0.812,-0.153,-0.562,-0.312,+3.500,+0.938,0, 1, 0, 1, 0, 0, 2, -2,-2.1683823143615593,0.9341435574578028,1
1503512633359,+0.770,+0.431,-0.146,-0.448,+0.801,-0.160,-0.554,+0.812,+2.562,-1.812,-5, -2, -2, -2, -1, 0, -3, -2,-2.1701466896985475,0.9354566944992624,1
1503512633383,+0.770,+0.431,-0.146,-0.448,+0.793,-0.159,-0.527,+0.500,-0.438,-1.375,-2, -4, 0, 1, 2, -3, -1, -5,-2.1701466896985475,0.9354566944992624,1
1503512633404,+0.770,+0.431,-0.146,-0.448,+0.800,-0.136,-0.516,-0.375,-0.938,+2.688,-1, 6, 2, 0, 1, 2, 0, 1,-2.1701466896985475,0.9354566944992624,1
1503512633420,+0.770,+0.431,-0.146,-0.448,+0.809,-0.134,-0.544,+1.438,-1.812,+4.688,-1, -6, -5, -2, 0, -2, 1, -4,-2.1701466896985475,0.9354566944992624,1
1503512633444,+0.770,+0.430,-0.145,-0.448,+0.813,-0.148,-0.562,+0.938,-3.062,+2.938,1, 2, -1, 1, 3, 0, 0, 3,-2.1693637597861373,0.9321117907607391,1
1503512633472,+0.770,+0.430,-0.144,-0.449,+0.825,-0.172,-0.539,-0.375,-1.562,+3.125,-3, -3, 0, -4, -7, -2, -2, 2,-2.1689754084732,0.931273923068602,1
1503512633479,+0.769,+0.431,-0.144,-0.449,+0.824,-0.182,-0.524,-1.875,+1.375,+4.188,8, 0, -1, -1, -2, -3, -3, -1,-2.168186819349852,0.9330856777252838,1
1503512633502,+0.769,+0.431,-0.144,-0.450,+0.819,-0.170,-0.520,-2.750,+2.750,+2.875,-5, -3, -1, 2, 1, 0, -1, -2,-2.1673099803992075,0.9332595393900573,1
1503512633524,+0.768,+0.432,-0.145,-0.450,+0.822,-0.143,-0.532,-1.062,+2.188,+3.062,0, 2, 3, 2, 3, -1, -1, -2,-2.1660354625562896,0.9360871292457973,1
1503512633539,+0.768,+0.432,-0.145,-0.450,+0.816,-0.134,-0.524,+1.812,+1.562,+2.188,-5, -4, -1, 1, 2, -2, -8, -6,-2.1660354625562896,0.9360871292457973,1
1503512633562,+0.768,+0.433,-0.144,-0.449,+0.830,-0.158,-0.534,+2.688,+1.688,+1.625,1, -2, 0, -1, 0, -1, 2, 2,-2.168691197248223,0.9372375678081639,1
1503512633585,+0.768,+0.434,-0.144,-0.450,+0.829,-0.187,-0.533,-0.188,+2.750,+1.938,-1, -7, -2, -3, 1, 0, 1, 1,-2.1691026796946655,0.9397496887018842,1
1503512633599,+0.767,+0.434,-0.144,-0.450,+0.815,-0.176,-0.533,-2.188,+2.938,+2.312,-3, 0, 1, 2, 1, -4, -7, -4,-2.167042617692083,0.9392300131358482,1
1503512633622,+0.767,+0.434,-0.145,-0.450,+0.801,-0.146,-0.538,-2.500,+1.812,+1.750,-1, -6, -2, -4, -4, 0, 5, 1,-2.1665482928045825,0.9402422308552343,1
1503512633646,+0.767,+0.434,-0.144,-0.450,+0.794,-0.139,-0.543,+1.375,+1.625,+1.625,-3, 0, 0, -3, -1, -1, 2, -2,-2.167042617692083,0.9392300131358482,1
1503512633660,+0.767,+0.435,-0.144,-0.450,+0.816,-0.166,-0.546,+2.125,+3.188,+2.312,-1, -2, 0, 0, -1, 0, 3, 3,-2.168336438642665,0.9415720363174063,1
1503512633685,+0.766,+0.435,-0.144,-0.450,+0.831,-0.178,-0.552,-1.062,+4.750,+1.875,-1, -3, -4, -2, -2, -1, -4, 2,-2.166275191595156,0.9410522054866031,1
1503512633705,+0.766,+0.436,-0.145,-0.450,+0.821,-0.167,-0.534,-3.188,+3.438,+0.562,-1, -8, 0, -1, -1, 0, -4, 1,-2.167077952463919,0.9444079367564475,1
1503512633722,+0.766,+0.436,-0.145,-0.450,+0.812,-0.156,-0.518,-2.000,-0.688,+1.312,-2, 2, -1, -1, 0, 0, 3, 2,-2.167077952463919,0.9444079367564475,1
1503512633742,+0.766,+0.436,-0.145,-0.450,+0.821,-0.149,-0.519,-0.250,-0.938,+1.500,-3, 2, -1, -1, -1, -1, 2, -1,-2.167077952463919,0.9444079367564475,1
1503512633765,+0.766,+0.436,-0.145,-0.450,+0.824,-0.165,-0.513,-0.625,+0.125,+1.500,1, 2, 1, 2, -1, -1, -5, 0,-2.167077952463919,0.9444079367564475,1
1503512633781,+0.765,+0.436,-0.145,-0.450,+0.833,-0.168,-0.518,-1.312,+0.688,+2.312,1, 4, 6, 0, 0, -1, -1, -7,-2.165015813991655,0.9438888892977666,1
1503512633802,+0.765,+0.436,-0.144,-0.451,+0.833,-0.170,-0.507,-1.375,-1.250,+2.750,0, 4, -3, -2, -2, -1, -4, -1,-2.1646414637155345,0.9430489198258072,1
1503512633824,+0.765,+0.436,-0.144,-0.451,+0.822,-0.154,-0.528,-1.000,-0.938,+1.500,-2, 2, -1, 1, -2, -1, -2, -3,-2.1646414637155345,0.9430489198258072,1
1503512633839,+0.765,+0.436,-0.144,-0.451,+0.818,-0.155,-0.542,-0.312,-1.062,+0.688,-1, -6, -4, -1, -2, -1, -5, -1,-2.1646414637155345,0.9430489198258072,1
1503512633862,+0.765,+0.436,-0.144,-0.451,+0.810,-0.167,-0.547,+0.250,-0.312,+0.875,0, 1, -1, -3, 1, -3, 0, -3,-2.1646414637155345,0.9430489198258072,1
1503512633886,+0.765,+0.436,-0.144,-0.451,+0.810,-0.181,-0.545,+0.625,+1.500,+0.125,-2, 2, 1, 0, -1, -2, -2, -3,-2.1646414637155345,0.9430489198258072,1
1503512633899,+0.765,+0.436,-0.144,-0.451,+0.810,-0.166,-0.521,-1.062,+1.812,-0.312,-4, -4, -1, -2, -5, 1, -1, 2,-2.1646414637155345,0.9430489198258072,1
1503512633922,+0.765,+0.437,-0.144,-0.451,+0.816,-0.149,-0.521,-1.188,+1.875,+1.438,-1, -3, -3, -3, -3, -1, -2, 1,-2.1659465839179117,0.9453960655133089,1
1503512633944,+0.765,+0.437,-0.144,-0.451,+0.813,-0.152,-0.537,-1.250,+1.125,+3.062,1, -1, 0, 0, 0, -2, 1, 2,-2.1659465839179117,0.9453960655133089,1
1503512633960,+0.765,+0.437,-0.144,-0.451,+0.825,-0.162,-0.533,-1.062,+1.000,+2.875,0, -2, -3, 1, 2, 1, -4, -1,-2.1659465839179117,0.9453960655133089,1
1503512633983,+0.764,+0.437,-0.144,-0.451,+0.828,-0.176,-0.527,-0.562,+1.375,+2.188,-4, -2, 3, -1, -2, 0, 0, -1,-2.163884657736524,0.9448761956281546,1
1503512634004,+0.764,+0.437,-0.144,-0.451,+0.831,-0.190,-0.523,-0.812,-0.312,+0.375,-7, -10, -5, -4, -1, -3, 3, 2,-2.163884657736524,0.9448761956281546,1
1503512634020,+0.764,+0.437,-0.144,-0.451,+0.831,-0.168,-0.515,-2.000,-1.625,-0.250,2, 1, -3, -1, 1, 0, 0, -1,-2.163884657736524,0.9448761956281546,1
1503512634042,+0.765,+0.437,-0.144,-0.451,+0.816,-0.149,-0.522,-1.625,-2.875,+1.250,-4, -4, 0, 0, -2, -2, -2, 0,-2.1659465839179117,0.9453960655133089,1
1503512634064,+0.765,+0.437,-0.144,-0.451,+0.811,-0.164,-0.541,+0.312,-1.938,+1.500,3, -1, -3, 0, -1, -1, -6, -2,-2.1659465839179117,0.9453960655133089,1
1503512634082,+0.765,+0.437,-0.144,-0.452,+0.813,-0.180,-0.546,-0.312,+1.188,+0.438,0, 2, 2, 1, 0, -1, 4, -2,-2.165077129923937,0.9455672089500929,1
1503512634102,+0.764,+0.437,-0.144,-0.452,+0.815,-0.174,-0.536,-2.688,+3.438,+0.375,-1, -2, -1, -2, -1, -2, 0, -1,-2.163016823392457,0.9450475855222654,1
1503512634124,+0.764,+0.437,-0.145,-0.452,+0.820,-0.161,-0.521,-2.688,+4.125,+1.188,-5, 1, 2, 0, 1, -1, -4, -4,-2.162521435676671,0.9460609144822925,1
1503512634140,+0.764,+0.438,-0.145,-0.452,+0.827,-0.146,-0.513,-2.000,+2.250,+1.188,-2, 0, -2, -2, -1, -1, -2, 1,-2.163830408016855,0.9484091755736673,1
1503512634162,+0.764,+0.438,-0.145,-0.452,+0.825,-0.149,-0.530,-0.375,+0.438,+1.375,0, -6, -1, -2, -1, -2, -1, -3,-2.163830408016855,0.9484091755736673,1
1503512634186,+0.764,+0.438,-0.145,-0.452,+0.829,-0.178,-0.530,+0.750,-1.750,+1.000,-4, -1, -2, 2, -2, -2, 2, -1,-2.163830408016855,0.9484091755736673,1
1503512634200,+0.764,+0.438,-0.144,-0.452,+0.820,-0.193,-0.539,-0.750,-2.062,+0.625,-1, -2, -2, -3, -1, -1, 2, -2,-2.1643272817048587,0.9473970143877342,1
1503512634222,+0.764,+0.437,-0.144,-0.452,+0.812,-0.188,-0.521,-1.875,-1.625,-0.812,3, 1, 2, 0, 2, 0, -6, -4,-2.163016823392457,0.9450475855222654,1
1503512634244,+0.764,+0.437,-0.144,-0.452,+0.803,-0.155,-0.515,-3.125,-2.062,+1.312,6, 2, 2, 1, 1, 2, -1, 1,-2.163016823392457,0.9450475855222654,1
1503512634260,+0.764,+0.437,-0.144,-0.452,+0.804,-0.147,-0.520,-1.625,+0.250,+2.938,-5, -4, -3, -2, -1, 0, -2, -5,-2.163016823392457,0.9450475855222654,1
1503512634284,+0.764,+0.437,-0.144,-0.453,+0.809,-0.159,-0.540,-0.688,+1.688,+2.688,-2, 1, 0, 0, -2, -1, 2, 1,-2.162151222177495,0.9452188941553427,1
1503512634305,+0.763,+0.437,-0.144,-0.453,+0.836,-0.184,-0.542,-0.688,+2.062,+1.875,1, 1, 1, -1, 0, -2, -4, -4,-2.1600856280488965,0.9446987691028335,1
1503512634320,+0.763,+0.438,-0.144,-0.453,+0.820,-0.197,-0.535,-1.000,+2.375,+1.500,-2, -1, 0, 1, -2, -2, -5, 2,-2.161401284233806,0.9470482221759349,1
1503512634342,+0.763,+0.438,-0.145,-0.453,+0.825,-0.167,-0.524,-3.062,+1.938,-0.125,-2, -3, -2, 0, -1, 0, 5, 3,-2.160905971375355,0.9480621996317258,1
1503512634364,+0.763,+0.438,-0.145,-0.453,+0.828,-0.142,-0.515,-2.938,+2.312,+0.562,-3, 3, -1, -2, -2, -1, -1, -2,-2.160905971375355,0.9480621996317258,1
1503512634380,+0.763,+0.438,-0.146,-0.453,+0.833,-0.144,-0.526,-1.875,+1.500,+0.875,-1, -4, -2, 0, 0, -1, -1, -2,-2.160411390089735,0.949078657100429,1
1503512634402,+0.763,+0.438,-0.146,-0.453,+0.834,-0.166,-0.517,-1.750,+1.125,+0.312,0, 0, -3, -3, -1, 0, 1, 1,-2.160411390089735,0.949078657100429,1
1503512634429,+0.762,+0.439,-0.146,-0.453,+0.826,-0.186,-0.517,-1.062,+1.625,-0.812,4, -1, -1, -1, 0, -2, -1, -4,-2.1596639284080013,0.9509102919239392,1
1503512634440,+0.762,+0.439,-0.146,-0.452,+0.821,-0.191,-0.515,-1.562,+2.500,-1.000,-2, -2, 0, -1, 0, 1, 5, 2,-2.1605249499658803,0.9507379408396305,1
1503512634462,+0.762,+0.440,-0.147,-0.452,+0.813,-0.182,-0.528,-2.188,+5.125,-1.062,-2, -4, 0, -1, -3, -5, -3, -3,-2.161346509018463,0.9541074768753209,1
1503512634491,+0.762,+0.440,-0.148,-0.452,+0.813,-0.159,-0.536,-3.188,+6.625,-0.938,-2, -2, 1, -2, 0, 0, 2, 2,-2.1608494361568393,0.9551266386625346,1
1503512634501,+0.761,+0.441,-0.149,-0.452,+0.814,-0.153,-0.522,-3.312,+5.938,-0.250,0, 1, -1, -1, 0, -2, -4, -3,-2.159611880164135,0.9579852844090586,1
1503512634524,+0.761,+0.441,-0.149,-0.452,+0.821,-0.157,-0.521,-2.562,+4.625,+0.438,3, 1, -1, 2, -1, 0, 1, 1,-2.159611880164135,0.9579852844090586,1
1503512634545,+0.760,+0.441,-0.149,-0.452,+0.824,-0.175,-0.516,-2.375,+2.938,+1.438,-2, -3, -3, -4, -2, -1, -1, 0,-2.1575488244665353,0.9574699680876849,1
1503512634567,+0.760,+0.441,-0.150,-0.453,+0.823,-0.169,-0.515,-3.188,+1.250,+2.312,0, -2, 0, 1, -1, -1, 0, 1,-2.15619847164649,0.9586698853291704,1
1503512634591,+0.760,+0.441,-0.150,-0.453,+0.821,-0.159,-0.519,-3.688,-0.125,+2.188,-6, -13, -7, -6, -3, -1, 2, 4,-2.15619847164649,0.9586698853291704,1
1503512634604,+0.760,+0.441,-0.150,-0.453,+0.823,-0.153,-0.517,-3.688,-0.500,+2.625,-3, 0, 2, -1, -2, -1, 4, 2,-2.15619847164649,0.9586698853291704,1
1503512634620,+0.760,+0.441,-0.150,-0.454,+0.819,-0.162,-0.509,-3.250,-0.812,+3.188,-1, 2, -2, 0, 0, 0, -1, -6,-2.1553467926629657,0.958844834715934,1
1503512634642,+0.759,+0.441,-0.150,-0.454,+0.828,-0.164,-0.505,-2.062,-0.125,+3.812,3, 3, 3, -1, 1, -2, -1, 0,-2.153280561157182,0.9583302346999141,1
1503512634664,+0.759,+0.441,-0.150,-0.455,+0.836,-0.163,-0.505,-2.500,+0.125,+3.875,3, 1, 2, 1, 0, -1, -2, -5,-2.152432749900076,0.9585053533678313,1
1503512634680,+0.759,+0.441,-0.150,-0.455,+0.839,-0.155,-0.513,-2.688,-0.438,+3.688,0, 0, 0, -1, 0, -1, -1, 1,-2.152432749900076,0.9585053533678313,1
1503512634702,+0.759,+0.441,-0.150,-0.456,+0.839,-0.153,-0.511,-0.688,-1.500,+2.688,2, -2, -3, 0, 0, 0, -4, 0,-2.151587119400952,0.9586803847517952,1
1503512634724,+0.759,+0.441,-0.150,-0.456,+0.836,-0.174,-0.510,+1.000,-2.062,+1.000,-3, -1, 0, -1, 0, 0, 0, 0,-2.151587119400952,0.9586803847517952,1
1503512634740,+0.759,+0.441,-0.149,-0.455,+0.834,-0.191,-0.511,+0.812,-1.000,+0.062,0, 1, 2, 1, -1, -1, -1, -2,-2.152925085799023,0.9574769842614197,1
1503512634762,+0.759,+0.442,-0.149,-0.455,+0.824,-0.182,-0.525,-0.500,+1.812,-0.312,-2, 0, -2, -1, -2, 0, -1, 2,-2.15425575611592,0.9598309191698765,1
1503512634790,+0.758,+0.442,-0.150,-0.455,+0.828,-0.158,-0.517,-1.625,+3.250,-0.438,-4, -11, -7, -2, -2, 1, 7, 1,-2.1516964134094696,0.9603436732148669,1
1503512634800,+0.758,+0.442,-0.150,-0.455,+0.833,-0.145,-0.506,-1.188,+3.625,-0.125,-1, -1, -3, -1, 1, 0, 2, -2,-2.1516964134094696,0.9603436732148669,1
1503512634837,+0.758,+0.443,-0.151,-0.454,+0.831,-0.156,-0.521,+0.562,+3.875,-0.312,0, 2, 1, -2, -2, -4, -2, -4,-2.153383423142331,0.963553800420908,1
1503512634844,+0.758,+0.443,-0.150,-0.454,+0.832,-0.171,-0.517,+1.188,+0.812,-0.562,0, 1, 0, -1, 0, 1, -1, 3,-2.153878964536877,0.9625252083100091,1
1503512634860,+0.758,+0.443,-0.150,-0.454,+0.834,-0.172,-0.506,-0.375,-1.625,-0.188,0, -3, 0, 0, 0, 0, -1, -1,-2.153878964536877,0.9625252083100091,1
1503512634882,+0.758,+0.443,-0.150,-0.454,+0.832,-0.169,-0.525,-0.938,-2.688,+0.250,-2, -1, -2, 1, -1, 0, -6, -1,-2.153878964536877,0.9625252083100091,1
1503512634904,+0.759,+0.442,-0.150,-0.454,+0.816,-0.174,-0.533,-0.938,-2.750,-0.125,0, 0, 1, -1, 0, -1, -1, 1,-2.154610388828143,0.9606835987865396,1
1503512634923,+0.759,+0.442,-0.150,-0.454,+0.810,-0.169,-0.512,-1.688,-1.312,-0.062,-1, -2, 0, 0, 0, -2, 1, -1,-2.154610388828143,0.9606835987865396,1
1503512634942,+0.759,+0.442,-0.150,-0.454,+0.816,-0.159,-0.502,-1.500,+1.500,+1.125,-8, -4, -1, -3, -2, -1, 2, -6,-2.154610388828143,0.9606835987865396,1
1503512634964,+0.758,+0.443,-0.150,-0.454,+0.825,-0.168,-0.521,-0.500,+4.000,+1.938,0, 2, -2, 1, 0, -2, -2, -1,-2.153878964536877,0.9625252083100091,1
1503512634980,+0.758,+0.443,-0.150,-0.454,+0.835,-0.181,-0.532,-1.250,+4.500,+1.375,1, 0, 0, -2, -1, -3, -2, -1,-2.153878964536877,0.9625252083100091,1
1503512635002,+0.758,+0.443,-0.151,-0.454,+0.836,-0.176,-0.515,-2.812,+2.250,+0.375,1, 3, 2, 0, 1, 0, 0, 1,-2.153383423142331,0.963553800420908,1
1503512635024,+0.758,+0.443,-0.151,-0.455,+0.836,-0.155,-0.501,-2.500,-0.938,+1.312,-3, -1, -3, 0, -1, -1, -2, -4,-2.152537247102893,0.9637287487833389,1
1503512635040,+0.758,+0.443,-0.151,-0.455,+0.829,-0.151,-0.512,-0.562,-2.125,+2.312,2, 1, 1, -1, -1, -1, -1, 1,-2.152537247102893,0.9637287487833389,1
1503512635063,+0.758,+0.443,-0.150,-0.455,+0.832,-0.162,-0.526,-1.000,-1.500,+1.688,0, -1, 0, -1, 0, 0, 1, -2,-2.153031515863049,0.9626993265758214,1
1503512635084,+0.758,+0.443,-0.150,-0.455,+0.834,-0.168,-0.517,-2.000,-0.688,+0.562,-1, -3, -4, -2, -3, 0, 0, -4,-2.153031515863049,0.9626993265758214,1
1503512635101,+0.758,+0.443,-0.150,-0.455,+0.838,-0.174,-0.507,-1.875,-0.062,+0.312,3, 0, 0, -2, -1, 0, -3, 0,-2.153031515863049,0.9626993265758214,1
1503512635124,+0.758,+0.443,-0.150,-0.455,+0.833,-0.184,-0.499,-1.688,+0.938,-0.125,-5, -5, -2, -2, -3, -1, -1, -4,-2.153031515863049,0.9626993265758214,1
1503512635145,+0.758,+0.443,-0.151,-0.455,+0.834,-0.167,-0.500,-2.188,+2.875,-0.500,2, -1, 0, 1, 0, -1, -1, 1,-2.152537247102893,0.9637287487833389,1
1503512635161,+0.757,+0.444,-0.151,-0.455,+0.837,-0.156,-0.508,-1.062,+3.125,+0.375,1, 1, 0, -1, -1, -1, -2, 0,-2.1518106786078044,0.9655726135002164,1
1503512635182,+0.757,+0.444,-0.152,-0.454,+0.843,-0.157,-0.513,-0.500,+2.312,-0.250,1, 1, -1, -1, -2, 1, 3, 4,-2.1521598642072726,0.9664288967574137,1
1503512635204,+0.757,+0.444,-0.152,-0.454,+0.843,-0.165,-0.509,+0.000,+0.125,-1.375,1, 2, 1, 0, 0, -1, 0, -1,-2.1521598642072726,0.9664288967574137,1
1503512635223,+0.758,+0.444,-0.152,-0.454,+0.832,-0.168,-0.502,-0.125,-2.250,-1.438,-3, -4, 0, -1, 0, -3, -1, 2,-2.1542214539629354,0.9669409808745519,1
1503512635242,+0.758,+0.444,-0.151,-0.454,+0.826,-0.182,-0.517,+0.688,-1.688,-0.750,-4, -3, -2, -2, -2, 1, -5, -1,-2.1547177521873477,0.9659111001392912,1
1503512635265,+0.758,+0.444,-0.151,-0.454,+0.813,-0.173,-0.519,-0.688,-0.625,-0.562,0, 1, -1, -1, -1, -1, 1, -3,-2.1547177521873477,0.9659111001392912,1
1503512635280,+0.758,+0.444,-0.151,-0.454,+0.821,-0.163,-0.514,-1.250,+0.688,+0.750,-3, -2, -2, -1, 0, -2, 0, 0,-2.1547177521873477,0.9659111001392912,1
1503512635303,+0.758,+0.444,-0.151,-0.454,+0.822,-0.148,-0.525,-1.188,+0.688,+1.625,0, -2, -1, 1, 0, -1, -3, 0,-2.1547177521873477,0.9659111001392912,1
1503512635327,+0.758,+0.444,-0.151,-0.454,+0.827,-0.156,-0.513,-1.375,-0.375,+1.312,5, 2, 2, -3, -1, -1, 0, 4,-2.1547177521873477,0.9659111001392912,1
1503512635341,+0.758,+0.444,-0.151,-0.454,+0.839,-0.171,-0.507,-0.875,-0.125,+1.062,-2, 1, 0, 2, -1, 1, -2, -6,-2.1547177521873477,0.9659111001392912,1
1503512635364,+0.758,+0.444,-0.151,-0.454,+0.837,-0.176,-0.502,-1.562,-2.125,+1.062,-2, -3, 2, -1, 0, 0, -2, 1,-2.1547177521873477,0.9659111001392912,1
1503512635384,+0.758,+0.443,-0.151,-0.454,+0.836,-0.169,-0.509,-1.000,-2.562,+1.125,-1, -3, -1, -2, -1, -1, 3, -3,-2.153383423142331,0.963553800420908,1
1503512635401,+0.758,+0.443,-0.151,-0.454,+0.830,-0.164,-0.513,-0.688,-1.688,+0.250,2, 0, -2, 0, -2, -3, -5, 0,-2.153383423142331,0.963553800420908,1
1503512635428,+0.758,+0.443,-0.151,-0.454,+0.834,-0.161,-0.506,-1.250,-0.812,+0.062,1, 5, 1, 1, -1, 0, -3, -3,-2.153383423142331,0.963553800420908,1
1503512635444,+0.758,+0.443,-0.151,-0.454,+0.840,-0.167,-0.514,-0.938,+0.000,+0.188,-1, -3, -1, 0, -1, 0, -5, -1,-2.153383423142331,0.963553800420908,1
1503512635462,+0.758,+0.443,-0.151,-0.454,+0.838,-0.166,-0.513,-0.625,+0.250,-0.438,-1, 0, 1, 0, -1, -1, 4, 0,-2.153383423142331,0.963553800420908,1
1503512635482,+0.758,+0.443,-0.151,-0.454,+0.831,-0.165,-0.505,-0.688,+0.750,-0.625,0, 2, -1, -1, -2, -2, -3, 2,-2.153383423142331,0.963553800420908,1
1503512635504,+0.758,+0.444,-0.151,-0.453,+0.836,-0.167,-0.509,-0.062,+0.875,-0.938,2, 0, 0, 0, -1, -2, -5, -3,-2.155566762254773,0.9657366995977033,1
1503512635520,+0.758,+0.444,-0.151,-0.453,+0.831,-0.176,-0.519,+0.375,+0.125,-0.875,-3, -1, -2, -1, 0, -3, 0, -2,-2.155566762254773,0.9657366995977033,1
1503512635549,+0.758,+0.444,-0.151,-0.453,+0.826,-0.176,-0.521,-0.438,-0.312,-1.875,0, -3, 0, 0, 0, 0, -1, -3,-2.155566762254773,0.9657366995977033,1
1503512635564,+0.759,+0.443,-0.151,-0.453,+0.817,-0.164,-0.499,-1.875,-2.188,-0.688,2, 3, 0, -1, -2, 0, 1, 2,-2.156294461293271,0.9638920316291932,1
1503512635580,+0.759,+0.443,-0.151,-0.453,+0.821,-0.156,-0.503,-1.125,-2.812,+1.438,0, 4, 6, -1, -2, -3, -3, -1,-2.156294461293271,0.9638920316291932,1
1503512635603,+0.759,+0.443,-0.150,-0.453,+0.819,-0.157,-0.528,-0.438,-2.188,+2.000,-1, -2, -2, 0, 1, 0, 0, 2,-2.1567916009822445,0.9628652382579289,1
1503512635627,+0.759,+0.442,-0.150,-0.453,+0.820,-0.163,-0.527,-0.312,-1.625,+1.500,1, -2, -1, 1, 0, 0, 3, 1,-2.1554610434555608,0.9605090207618516,1
1503512635644,+0.759,+0.442,-0.150,-0.453,+0.823,-0.167,-0.513,-0.625,-0.875,+1.625,1, -2, 2, -1, -1, -1, -2, -3,-2.1554610434555608,0.9605090207618516,1
1503512635663,+0.759,+0.442,-0.150,-0.454,+0.819,-0.163,-0.511,-0.375,-1.188,+2.375,-2, 0, 3, 0, -2, -2, -1, 1,-2.154610388828143,0.9606835987865396,1
1503512635684,+0.759,+0.442,-0.149,-0.454,+0.827,-0.169,-0.522,-0.875,-0.625,+2.688,1, 1, 0, -1, -1, 1, -4, -6,-2.1551054972757435,0.9596572661795908,1
1503512635701,+0.759,+0.442,-0.149,-0.454,+0.841,-0.168,-0.522,-1.188,-0.188,+2.750,0, 0, -5, -1, -2, 0, 0, 2,-2.1551054972757435,0.9596572661795908,1
1503512635724,+0.759,+0.442,-0.149,-0.455,+0.838,-0.171,-0.519,-1.688,-1.188,+1.812,0, -4, -1, -1, 0, 0, 2, -3,-2.15425575611592,0.9598309191698765,1
1503512635752,+0.759,+0.442,-0.149,-0.455,+0.838,-0.168,-0.505,-1.688,-2.750,+0.812,3, -1, -3, -1, -2, 0, -2, -2,-2.15425575611592,0.9598309191698765,1
1503512635761,+0.759,+0.442,-0.149,-0.455,+0.823,-0.165,-0.506,-0.750,-3.438,+0.812,-2, 0, 1, -1, 0, -3, 0, 3,-2.15425575611592,0.9598309191698765,1
1503512635784,+0.759,+0.442,-0.148,-0.455,+0.820,-0.169,-0.519,+0.062,-1.062,+1.688,6, 9, 3, 1, 2, 1, 0, -1,-2.1547503329763216,0.9588062352772981,1
1503512635805,+0.759,+0.442,-0.148,-0.455,+0.820,-0.166,-0.526,-0.500,+2.125,+1.125,-4, -5, -1, -1, -1, -2, 2, -1,-2.1547503329763216,0.9588062352772981,1
1503512635820,+0.759,+0.442,-0.149,-0.455,+0.833,-0.162,-0.514,-1.812,+2.000,+0.688,-4, -4, -3, -2, 0, -1, -1, 0,-2.15425575611592,0.9598309191698765,1
1503512635843,+0.758,+0.442,-0.149,-0.455,+0.836,-0.161,-0.512,-1.062,+0.500,+1.688,2, -2, 0, -1, -1, -1, 2, 1,-2.1521899187310694,0.9593155362315336,1
1503512635865,+0.759,+0.442,-0.149,-0.455,+0.829,-0.168,-0.521,-0.938,-1.875,+1.938,-2, -1, 1, 0, -1, -1, -1, -2,-2.15425575611592,0.9598309191698765,1
1503512635880,+0.759,+0.442,-0.148,-0.455,+0.823,-0.171,-0.523,-0.938,-2.875,+1.500,-7, -7, -4, -3, -2, 2, 1, -3,-2.1547503329763216,0.9588062352772981,1
1503512635903,+0.759,+0.441,-0.148,-0.456,+0.818,-0.170,-0.524,-0.562,-3.000,+1.625,3, 2, -2, 0, -2, -1, -5, -2,-2.152569993982239,0.9566244450019994,1
1503512635925,+0.759,+0.441,-0.148,-0.456,+0.822,-0.175,-0.516,+0.000,-2.062,+1.500,-3, -2, 0, -2, -1, 1, -4, -5,-2.152569993982239,0.9566244450019994,1
1503512635941,+0.759,+0.441,-0.148,-0.456,+0.823,-0.187,-0.514,-0.438,-0.562,+1.438,-2, 3, -1, 0, 2, -2, -5, -3,-2.152569993982239,0.9566244450019994,1
1503512635967,+0.759,+0.441,-0.148,-0.456,+0.817,-0.173,-0.517,-2.812,+1.188,+1.938,2, 2, -2, 0, 1, -1, -2, -3,-2.152569993982239,0.9566244450019994,1
1503512635985,+0.758,+0.441,-0.148,-0.456,+0.827,-0.153,-0.519,-2.625,+1.062,+2.250,-1, 0, -1, 0, -3, 1, 2, 2,-2.150499660411669,0.9561076747194545,1
1503512636001,+0.758,+0.441,-0.148,-0.456,+0.828,-0.144,-0.513,-1.812,-0.188,+2.562,-1, -1, -2, -4, -2, -1, 0, 2,-2.150499660411669,0.9561076747194545,1
1503512636023,+0.758,+0.441,-0.148,-0.456,+0.844,-0.164,-0.511,-0.062,-1.562,+2.188,0, -2, -1, -2, 0, -2, 0, 0,-2.150499660411669,0.9561076747194545,1
1503512636045,+0.758,+0.441,-0.148,-0.457,+0.838,-0.186,-0.527,+0.125,-3.062,+1.500,0, -1, -3, -3, -3, -1, 0, 0,-2.1496553747349756,0.9562811877009485,1
1503512636064,+0.759,+0.441,-0.147,-0.457,+0.833,-0.191,-0.520,-0.750,-3.312,-0.062,2, 6, -1, 0, 0, -1, -1, 3,-2.1522152851758305,0.9557726040224179,1
1503512636083,+0.759,+0.440,-0.147,-0.457,+0.816,-0.171,-0.517,-1.125,-2.125,+0.188,3, 0, 3, -1, 1, 1, -1, -2,-2.150883046506741,0.9534197551316815,1
1503512636105,+0.759,+0.440,-0.147,-0.457,+0.809,-0.168,-0.523,-0.812,+0.438,+0.625,0, 0, 0, 0, 0, 0, -3, 3,-2.150883046506741,0.9534197551316815,1
1503512636120,+0.759,+0.441,-0.147,-0.457,+0.819,-0.169,-0.524,-0.750,+1.750,+0.625,0, 1, 1, 0, -2, -1, -5, -1,-2.1522152851758305,0.9557726040224179,1
1503512636143,+0.758,+0.441,-0.147,-0.457,+0.821,-0.171,-0.521,-1.438,+2.250,+0.688,-1, -4, -2, 1, 1, 0, 0, -4,-2.150146310082103,0.9552551232282938,1
1503512636165,+0.758,+0.441,-0.147,-0.457,+0.830,-0.171,-0.521,-1.188,+0.625,+0.688,-1, -3, -4, -2, 0, 0, 0, 3,-2.150146310082103,0.9552551232282938,1
1503512636180,+0.758,+0.441,-0.147,-0.457,+0.822,-0.172,-0.518,-1.062,-0.875,+1.125,2, -3, -3, -1, 1, -1, 3, -1,-2.150146310082103,0.9552551232282938,1
1503512636203,+0.759,+0.441,-0.147,-0.457,+0.822,-0.164,-0.516,-1.562,-1.688,+1.250,1, 3, -2, -1, 0, -1, -2, 1,-2.1522152851758305,0.9557726040224179,1
1503512636225,+0.759,+0.440,-0.147,-0.457,+0.827,-0.162,-0.528,-0.812,-2.188,+1.312,-3, -10, -2, -1, -1, -1, -1, 2,-2.150883046506741,0.9534197551316815,1
1503512636241,+0.759,+0.440,-0.147,-0.457,+0.819,-0.173,-0.515,-1.125,-3.062,+0.750,2, 2, 0, -1, 0, 0, 1, -1,-2.150883046506741,0.9534197551316815,1
1503512636264,+0.759,+0.440,-0.147,-0.457,+0.824,-0.182,-0.511,-0.375,-1.750,+1.062,-3, -1, -1, -2, -3, -2, -1, -5,-2.150883046506741,0.9534197551316815,1
1503512636292,+0.759,+0.440,-0.146,-0.457,+0.813,-0.180,-0.518,-0.312,+0.562,+1.688,0, -4, 1, 1, -1, 0, 0, 0,-2.151373549050921,0.9523959264769921,1
1503512636304,+0.759,+0.441,-0.146,-0.457,+0.830,-0.183,-0.524,-1.000,+1.875,+1.125,-2, 0, -1, 0, 0, -3, 1, 0,-2.1527072953659636,0.9547499763719748,1
1503512636323,+0.758,+0.441,-0.147,-0.457,+0.829,-0.179,-0.528,-1.562,+1.688,+1.062,-3, 0, -1, -3, -1, -2, 1, -2,-2.150146310082103,0.9552551232282938,1
1503512636345,+0.758,+0.441,-0.147,-0.457,+0.823,-0.166,-0.515,-1.812,-0.312,+0.688,-1, -3, -2, -2, -1, -1, 2, -1,-2.150146310082103,0.9552551232282938,1
1503512636361,+0.758,+0.441,-0.147,-0.457,+0.828,-0.166,-0.518,-0.750,-0.750,+0.500,-4, -10, 1, 1, -2, -2, -3, -3,-2.150146310082103,0.9552551232282938,1
1503512636383,+0.758,+0.441,-0.147,-0.457,+0.824,-0.168,-0.529,-0.750,-0.062,-0.250,-2, 1, -1, 0, -1, -1, 0, -2,-2.150146310082103,0.9552551232282938,1
1503512636406,+0.758,+0.441,-0.147,-0.457,+0.828,-0.183,-0.521,-0.938,+1.250,-0.312,0, -1, -2, -1, -2, -2, 2, 2,-2.150146310082103,0.9552551232282938,1
1503512636428,+0.758,+0.441,-0.147,-0.457,+0.828,-0.192,-0.518,-1.250,+2.250,-0.375,0, -1, -3, -2, 0, 0, -1, -2,-2.150146310082103,0.9552551232282938,1
1503512636443,+0.758,+0.442,-0.147,-0.457,+0.829,-0.180,-0.522,-2.562,+2.312,-0.750,2, -1, -1, -1, -1, 0, -1, -3,-2.1514845008905135,0.9576109027234824,1
1503512636467,+0.758,+0.442,-0.148,-0.457,+0.821,-0.158,-0.523,-2.938,+2.250,-0.375,0, 0, -2, -2, -1, 0, 4, 5,-2.1509920545068226,0.9586357606928918,1
1503512636487,+0.758,+0.442,-0.148,-0.457,+0.823,-0.157,-0.519,-1.500,+1.812,-0.062,0, 2, -1, 1, -1, 1, -4, -1,-2.1509920545068226,0.9586357606928918,1
1503512636504,+0.758,+0.442,-0.148,-0.457,+0.823,-0.173,-0.517,-1.125,+2.000,-0.125,-4, 2, 3, -2, -1, -1, 2, -2,-2.1509920545068226,0.9586357606928918,1
1503512636527,+0.758,+0.442,-0.149,-0.457,+0.825,-0.184,-0.515,-1.625,+1.938,-0.312,8, 0, 0, -2, -1, -1, -4, 2,-2.1505003469750084,0.9596630948574059,1
1503512636547,+0.757,+0.442,-0.149,-0.457,+0.826,-0.187,-0.519,-2.438,+2.062,+0.188,-3, 1, 0, -2, 0, -1, -2, -5,-2.148431108245203,0.9591474648585315,1
1503512636563,+0.757,+0.443,-0.149,-0.457,+0.823,-0.184,-0.514,-2.750,+2.438,-0.125,1, 3, 2, 0, -2, 0, -1, -1,-2.1497722242829655,0.9615037643071032,1
1503512636585,+0.757,+0.443,-0.150,-0.457,+0.818,-0.162,-0.506,-3.250,+1.500,-0.188,-3, -6, -3, -1, -3, -2, 4, 0,-2.149280090337315,0.9625333357665525,1
1503512636607,+0.757,+0.443,-0.150,-0.457,+0.813,-0.153,-0.515,-2.188,+0.688,+1.438,1, 1, 0, 1, 0, 0, 0, 1,-2.149280090337315,0.9625333357665525,1
1503512636623,+0.757,+0.442,-0.150,-0.457,+0.816,-0.154,-0.522,-1.125,+0.375,+2.938,-5, -4, -3, -1, 0, 0, 1, -1,-2.1479404863550564,0.960178247471712,1
1503512636645,+0.757,+0.443,-0.150,-0.458,+0.833,-0.164,-0.514,-1.375,+0.250,+3.375,-3, -7, -3, -3, -2, 0, -2, 0,-2.14844084350957,0.9627074499681839,1
1503512636667,+0.756,+0.443,-0.150,-0.458,+0.836,-0.179,-0.506,-1.125,-0.125,+2.625,5, 1, 0, 0, -1, -3, -2, 3,-2.1463727517998037,0.9621929813639676,1
1503512636683,+0.756,+0.443,-0.149,-0.458,+0.841,-0.188,-0.503,-1.250,-1.625,+2.312,1, 3, 2, 0, 0, 0, -2, -7,-2.146863266142715,0.9611616012371593,1
1503512636706,+0.756,+0.443,-0.149,-0.458,+0.830,-0.182,-0.506,-1.938,-2.812,+1.562,-2, -2, -1, 0, -1, -2, -2, 0,-2.146863266142715,0.9611616012371593,1
1503512636727,+0.756,+0.443,-0.149,-0.459,+0.831,-0.173,-0.508,-0.625,-1.375,+1.625,-6, -6, 0, 0, -1, 0, 0, -1,-2.1460266272314894,0.9613350523294394,1
1503512636743,+0.756,+0.443,-0.149,-0.458,+0.823,-0.165,-0.520,-0.188,+0.438,+1.438,-4, -1, -2, -1, 0, -1, 4, -2,-2.146863266142715,0.9611616012371593,1
1503512636770,+0.756,+0.443,-0.149,-0.458,+0.824,-0.163,-0.516,-0.438,+0.625,+0.688,3, 1, -1, -1, 0, -2, -6, 0,-2.146863266142715,0.9611616012371593,1
1503512636787,+0.756,+0.443,-0.149,-0.458,+0.831,-0.164,-0.499,-0.312,-0.625,+1.375,-1, 0, -1, 0, -1, -2, -2, -5,-2.146863266142715,0.9611616012371593,1
1503512636803,+0.756,+0.443,-0.149,-0.458,+0.831,-0.175,-0.507,+1.125,-1.062,+1.750,1, -1, 0, 1, 1, 0, -1, 4,-2.146863266142715,0.9611616012371593,1
1503512636825,+0.756,+0.443,-0.148,-0.458,+0.833,-0.193,-0.529,+1.562,-0.812,+1.125,-3, 0, 1, -1, 1, 0, -1, -2,-2.147354522426806,0.9601326973077023,1
1503512636848,+0.756,+0.443,-0.148,-0.459,+0.827,-0.192,-0.531,-0.562,-1.125,+0.188,-2, -1, 0, 1, 0, -1, -1, -1,-2.1465166182293816,0.960305310360392,1
1503512636863,+0.756,+0.442,-0.148,-0.459,+0.824,-0.170,-0.522,-1.625,-2.375,+0.062,2, 1, -1, -1, -2, -2, -1, -3,-2.1451695190148845,0.9579483528587003,1
1503512636885,+0.757,+0.442,-0.148,-0.459,+0.812,-0.152,-0.509,-0.812,-2.812,+1.062,4, -2, -4, -1, -1, -1, 1, 0,-2.1472424594159705,0.9584652032882085,1
1503512636910,+0.757,+0.442,-0.147,-0.459,+0.819,-0.160,-0.507,+0.500,-1.250,+1.812,-2, -2, -2, -2, -2, -1, 0, 3,-2.147732029428894,0.9574376841814187,1
1503512636923,+0.757,+0.442,-0.147,-0.459,+0.834,-0.180,-0.526,+0.812,+0.562,+2.438,-1, -1, -2, 0, 0, -2, 1, -2,-2.147732029428894,0.9574376841814187,1
1503512636945,+0.756,+0.442,-0.147,-0.459,+0.835,-0.195,-0.534,-0.250,+1.250,+1.000,-6, -6, 0, -1, -1, -1, -1, -3,-2.1456587287718847,0.9569198614193727,1
1503512636969,+0.756,+0.442,-0.147,-0.459,+0.835,-0.193,-0.516,-0.750,-0.250,-0.438,1, 1, 3, -1, -1, 0, -3, -1,-2.1456587287718847,0.9569198614193727,1
1503512636983,+0.757,+0.442,-0.147,-0.459,+0.822,-0.184,-0.510,-1.062,-1.812,-0.125,3, 2, -2, 0, 1, -2, -2, -1,-2.147732029428894,0.9574376841814187,1
1503512637008,+0.757,+0.442,-0.147,-0.459,+0.816,-0.167,-0.511,-1.188,-1.312,+0.688,-3, -2, -2, 0, -2, 1, -1, -2,-2.147732029428894,0.9574376841814187,1
1503512637028,+0.757,+0.442,-0.147,-0.459,+0.815,-0.160,-0.524,-1.000,-0.062,+1.875,2, 1, 0, -2, 0, 0, -1, -2,-2.147732029428894,0.9574376841814187,1
1503512637044,+0.757,+0.442,-0.147,-0.459,+0.825,-0.164,-0.526,-0.625,+0.750,+2.000,-3, 2, -2, -1, -1, -1, 0, 1,-2.147732029428894,0.9574376841814187,1
1503512637065,+0.757,+0.442,-0.147,-0.459,+0.828,-0.177,-0.525,-0.688,-0.750,+1.062,-3, -1, 3, 0, -2, -1, 0, -5,-2.147732029428894,0.9574376841814187,1
1503512637087,+0.757,+0.442,-0.146,-0.459,+0.833,-0.188,-0.513,-0.562,-1.688,+0.875,2, -3, 1, 2, 0, 0, -4, 4,-2.148222337121037,0.9564126308399462,1
1503512637104,+0.757,+0.442,-0.146,-0.459,+0.827,-0.195,-0.517,-1.062,-1.188,+1.250,-3, -1, -3, -1, -1, -1, 3, 4,-2.148222337121037,0.9564126308399462,1
1503512637125,+0.757,+0.442,-0.146,-0.459,+0.827,-0.179,-0.532,-2.000,+0.000,+0.688,2, 2, 3, 1, -2, -2, -6, -6,-2.148222337121037,0.9564126308399462,1
1503512637148,+0.757,+0.442,-0.146,-0.459,+0.829,-0.161,-0.522,-1.375,+0.312,+0.188,-3, -5, -1, -1, -1, -1, 0, -1,-2.148222337121037,0.9564126308399462,1
1503512637163,+0.757,+0.442,-0.146,-0.459,+0.824,-0.168,-0.509,-0.812,-0.375,-0.438,2, 6, 3, 3, 0, 0, -1, 3,-2.148222337121037,0.9564126308399462,1
1503512637185,+0.757,+0.442,-0.146,-0.459,+0.824,-0.190,-0.500,-0.062,-0.688,-0.125,1, 0, 0, -1, -1, 0, 2, 2,-2.148222337121037,0.9564126308399462,1
1503512637208,+0.756,+0.442,-0.146,-0.459,+0.825,-0.192,-0.520,-0.500,+0.062,+0.438,-3, -4, -2, -1, 0, -2, -4, -2,-2.1461486784782875,0.9558938366225249,1
1503512637223,+0.756,+0.442,-0.146,-0.459,+0.821,-0.174,-0.524,-1.500,+0.938,+0.500,-2, -2, 0, 0, -1, 0, 3, 2,-2.1461486784782875,0.9558938366225249,1
1503512637246,+0.757,+0.442,-0.146,-0.459,+0.822,-0.174,-0.525,-0.688,+0.812,+0.500,-3, -2, -3, 0, -1, -1, -1, 0,-2.148222337121037,0.9564126308399462,1
1503512637267,+0.757,+0.442,-0.146,-0.459,+0.824,-0.171,-0.514,-0.625,+0.312,+0.812,3, -5, -5, -3, -3, 1, -4, -5,-2.148222337121037,0.9564126308399462,1
1503512637283,+0.757,+0.442,-0.146,-0.459,+0.827,-0.170,-0.520,-0.562,-0.062,+1.125,0, -1, 0, 1, -2, 0, 0, 3,-2.148222337121037,0.9564126308399462,1
1503512637305,+0.757,+0.442,-0.146,-0.459,+0.827,-0.178,-0.524,-1.000,+0.688,+0.938,-1, -1, 2, -1, 1, -3, -2, -3,-2.148222337121037,0.9564126308399462,1
1503512637328,+0.756,+0.442,-0.146,-0.459,+0.834,-0.197,-0.519,-0.812,+0.000,+0.562,-4, -2, -2, -1, -1, 0, -1, -2,-2.1461486784782875,0.9558938366225249,1
1503512637346,+0.756,+0.442,-0.146,-0.459,+0.834,-0.188,-0.520,-1.625,+0.062,-0.125,-2, -3, -2, -2, 0, -2, -2, 1,-2.1461486784782875,0.9558938366225249,1
1503512637365,+0.757,+0.442,-0.146,-0.459,+0.824,-0.171,-0.506,-1.688,-0.438,-0.812,5, 6, 6, 1, 0, -3, -8, -2,-2.148222337121037,0.9564126308399462,1
1503512637387,+0.757,+0.442,-0.146,-0.459,+0.816,-0.167,-0.507,-1.562,-0.625,-0.375,0, 4, 0, 0, -1, -1, 0, -4,-2.148222337121037,0.9564126308399462,1
1503512637407,+0.757,+0.442,-0.146,-0.459,+0.822,-0.164,-0.513,-0.188,+0.938,+0.812,2, -1, -2, -1, 0, 0, 1, 0,-2.148222337121037,0.9564126308399462,1
1503512637425,+0.756,+0.442,-0.146,-0.459,+0.820,-0.179,-0.521,-0.500,+1.375,+0.500,-6, -3, -2, -2, -1, -1, 1, 0,-2.1461486784782875,0.9558938366225249,1
1503512637448,+0.756,+0.442,-0.146,-0.459,+0.834,-0.188,-0.514,-1.312,+1.062,+0.562,-2, -3, -2, -1, -2, 0, -1, 0,-2.1461486784782875,0.9558938366225249,1
1503512637463,+0.756,+0.442,-0.146,-0.459,+0.835,-0.183,-0.517,-1.375,+0.188,+0.312,-7, -5, -3, -2, -2, -2, -1, -3,-2.1461486784782875,0.9558938366225249,1
1503512637485,+0.757,+0.442,-0.147,-0.459,+0.824,-0.175,-0.516,-1.438,-0.625,-0.625,1, -2, 0, 0, 1, 0, 2, 0,-2.147732029428894,0.9574376841814187,1
1503512637508,+0.757,+0.442,-0.147,-0.459,+0.818,-0.171,-0.521,-0.750,-0.375,-0.438,0, 2, 3, 0, 0, 0, 1, -3,-2.147732029428894,0.9574376841814187,1
1503512637523,+0.757,+0.442,-0.147,-0.459,+0.819,-0.166,-0.515,-1.562,+0.000,+0.000,4, 4, -1, 0, 0, -1, -2, 1,-2.147732029428894,0.9574376841814187,1
1503512637546,+0.757,+0.442,-0.147,-0.459,+0.829,-0.174,-0.510,-1.000,+0.562,+0.250,1, 1, -2, 0, -1, 0, 3, 3,-2.147732029428894,0.9574376841814187,1
1503512637567,+0.757,+0.442,-0.147,-0.459,+0.835,-0.182,-0.515,-1.000,+0.875,+0.125,2, -1, -2, 0, -1, 1, 0, 1,-2.147732029428894,0.9574376841814187,1
1503512637583,+0.756,+0.442,-0.147,-0.459,+0.829,-0.189,-0.513,-1.000,+1.250,-0.375,-3, -5, -2, 0, -1, -1, 1, 0,-2.1456587287718847,0.9569198614193727,1
1503512637608,+0.756,+0.443,-0.147,-0.459,+0.822,-0.184,-0.517,-0.500,+1.250,-0.438,-5, -5, -2, -1, -2, 0, -2, -2,-2.147007350147861,0.9592780379681184,1
1503512637628,+0.756,+0.443,-0.147,-0.458,+0.821,-0.172,-0.523,-1.688,+1.875,-0.875,0, 1, 1, 0, 0, -1, -5, -1,-2.1478465220990643,0.9591062676581577,1
1503512637642,+0.756,+0.443,-0.148,-0.458,+0.828,-0.167,-0.514,-1.250,+2.375,-0.250,3, 4, 2, 0, 1, 0, -4, -5,-2.147354522426806,0.9601326973077023,1
1503512637664,+0.756,+0.443,-0.148,-0.458,+0.823,-0.167,-0.512,-1.312,+1.375,+0.375,0, 2, 0, -1, -1, -1, -1, 1,-2.147354522426806,0.9601326973077023,1
1503512637687,+0.756,+0.443,-0.148,-0.458,+0.827,-0.174,-0.515,-1.438,+1.062,+0.500,8, 7, 2, 2, 0, 2, -2, 0,-2.147354522426806,0.9601326973077023,1
1503512637702,+0.756,+0.443,-0.148,-0.458,+0.831,-0.182,-0.518,-1.250,+1.000,+0.375,-3, 0, 0, -2, -3, -2, -3, -2,-2.147354522426806,0.9601326973077023,1
1503512637724,+0.756,+0.443,-0.148,-0.458,+0.828,-0.174,-0.513,-2.250,+0.750,+0.000,-1, -3, 0, 0, 0, -4, 0, -2,-2.147354522426806,0.9601326973077023,1
1503512637747,+0.756,+0.443,-0.148,-0.458,+0.833,-0.172,-0.512,-1.875,+0.812,+0.125,1, 3, 1, 1, -1, 1, 4, 0,-2.147354522426806,0.9601326973077023,1
1503512637762,+0.756,+0.443,-0.148,-0.458,+0.829,-0.167,-0.513,-1.750,+0.688,+0.438,-2, -6, -1, 0, -1, -1, -2, 2,-2.147354522426806,0.9601326973077023,1
1503512637784,+0.756,+0.443,-0.148,-0.458,+0.829,-0.168,-0.518,-1.625,+1.188,+0.312,1, 3, 1, -1, 0, -1, -1, -3,-2.147354522426806,0.9601326973077023,1
1503512637809,+0.756,+0.443,-0.148,-0.458,+0.827,-0.174,-0.515,-1.062,+1.438,+0.500,-4, 1, 0, -1, 1, 1, -1, 2,-2.147354522426806,0.9601326973077023,1
1503512637822,+0.756,+0.444,-0.149,-0.458,+0.832,-0.173,-0.511,-1.812,+1.250,+0.000,0, 5, 3, 1, 0, 0, 0, -4,-2.148209634996172,0.9635202207233864,1
1503512637847,+0.756,+0.444,-0.149,-0.458,+0.834,-0.174,-0.505,-1.562,+0.062,-0.125,-1, -3, -4, -2, -2, -1, 1, -4,-2.148209634996172,0.9635202207233864,1
1503512637867,+0.756,+0.444,-0.149,-0.458,+0.833,-0.178,-0.508,-1.062,+0.250,+0.562,0, -2, -1, -1, 0, 1, -3, 0,-2.148209634996172,0.9635202207233864,1
1503512637884,+0.756,+0.444,-0.149,-0.458,+0.833,-0.171,-0.509,-1.438,+0.375,+0.125,-1, 0, -1, -1, -1, -2, -2, 0,-2.148209634996172,0.9635202207233864,1
1503512637904,+0.756,+0.444,-0.149,-0.458,+0.828,-0.163,-0.512,-1.500,+0.812,-0.062,4, 1, 1, 1, 0, -2, -2, 0,-2.148209634996172,0.9635202207233864,1
1503512637927,+0.756,+0.444,-0.149,-0.458,+0.821,-0.164,-0.503,-0.812,+0.062,+0.375,0, -3, -3, -1, -1, -1, 0, -1,-2.148209634996172,0.9635202207233864,1
1503512637944,+0.756,+0.444,-0.149,-0.458,+0.832,-0.167,-0.510,-0.688,+0.375,+1.062,-3, 0, -1, -2, 1, -1, -3, 3,-2.148209634996172,0.9635202207233864,1
1503512637965,+0.756,+0.444,-0.149,-0.458,+0.834,-0.180,-0.509,-0.750,+1.438,+0.500,-1, 1, -2, -1, -2, -2, -1, -4,-2.148209634996172,0.9635202207233864,1
1503512637988,+0.756,+0.444,-0.149,-0.458,+0.833,-0.183,-0.517,-0.875,+1.125,-0.062,-6, -3, -2, -2, -1, -2, 1, 0,-2.148209634996172,0.9635202207233864,1
1503512638002,+0.756,+0.444,-0.149,-0.458,+0.821,-0.170,-0.512,-1.688,-0.625,+0.000,1, 1, 1, 1, -2, -2, 4, -1,-2.148209634996172,0.9635202207233864,1
1503512638024,+0.756,+0.444,-0.149,-0.458,+0.827,-0.157,-0.495,-2.000,-0.938,+0.250,1, -5, -3, -1, 0, 0, 0, -3,-2.148209634996172,0.9635202207233864,1
1503512638047,+0.756,+0.444,-0.149,-0.458,+0.826,-0.152,-0.505,-1.250,-0.750,+1.312,-1, -1, 0, 0, 0, -1, -1, 2,-2.148209634996172,0.9635202207233864,1
1503512638062,+0.756,+0.444,-0.149,-0.458,+0.835,-0.167,-0.506,-0.688,+0.000,+1.250,0, -2, 0, -1, 0, -3, 1, 0,-2.148209634996172,0.9635202207233864,1
1503512638085,+0.756,+0.444,-0.149,-0.458,+0.837,-0.182,-0.516,-0.688,+0.188,+0.625,-4, -3, 0, -3, -2, -1, -2, -4,-2.148209634996172,0.9635202207233864,1
1503512638107,+0.756,+0.444,-0.149,-0.458,+0.834,-0.185,-0.508,-1.500,-0.250,+0.000,1, 3, 2, -2, 0, -1, -1, 0,-2.148209634996172,0.9635202207233864,1
1503512638122,+0.756,+0.444,-0.149,-0.458,+0.830,-0.180,-0.507,-1.562,-0.938,-0.062,-2, -6, -5, -1, -3, -2, -1, -1,-2.148209634996172,0.9635202207233864,1
1503512638148,+0.756,+0.444,-0.149,-0.458,+0.823,-0.166,-0.508,-1.062,+0.312,+0.250,1, -1, -3, -1, -1, 0, 0, 2,-2.148209634996172,0.9635202207233864,1
1503512638167,+0.756,+0.444,-0.149,-0.458,+0.828,-0.161,-0.516,-1.062,+0.875,+0.688,1, 0, 0, 1, 0, -1, 0, -1,-2.148209634996172,0.9635202207233864,1
1503512638182,+0.756,+0.444,-0.149,-0.458,+0.831,-0.162,-0.513,-1.062,-0.188,+1.062,1, 2, 0, 0, 1, 0, -7, -2,-2.148209634996172,0.9635202207233864,1
1503512638204,+0.756,+0.444,-0.149,-0.458,+0.827,-0.176,-0.505,-0.500,-0.562,+1.000,-2, 0, 1, 0, -2, 0, 1, 1,-2.148209634996172,0.9635202207233864,1
1503512638227,+0.756,+0.444,-0.149,-0.458,+0.826,-0.182,-0.512,-0.375,-0.562,+0.875,-1, -2, -3, -1, -1, 0, -1, -5,-2.148209634996172,0.9635202207233864,1
1503512638244,+0.756,+0.444,-0.149,-0.458,+0.827,-0.176,-0.514,-0.750,-1.125,+1.312,-3, -3, -2, -3, -1, -1, 0, -4,-2.148209634996172,0.9635202207233864,1
1503512638264,+0.756,+0.444,-0.149,-0.458,+0.836,-0.176,-0.517,-0.500,-0.375,+1.250,1, -1, -1, 0, -1, 0, 0, 4,-2.148209634996172,0.9635202207233864,1
1503512638287,+0.756,+0.444,-0.149,-0.458,+0.828,-0.183,-0.520,-1.000,-0.812,+0.688,-2, 1, 0, 0, -1, -1, -1, -2,-2.148209634996172,0.9635202207233864,1
1503512638302,+0.756,+0.444,-0.149,-0.458,+0.833,-0.177,-0.508,-2.125,-1.125,+0.625,-3, -4, -3, -3, -1, 1, -4, -4,-2.148209634996172,0.9635202207233864,1
1503512638324,+0.756,+0.444,-0.149,-0.458,+0.826,-0.171,-0.500,-1.438,-2.062,+1.375,-4, -2, -1, -1, 0, -2, -3, 1,-2.148209634996172,0.9635202207233864,1
1503512638349,+0.756,+0.444,-0.149,-0.458,+0.832,-0.162,-0.502,-1.000,-1.875,+1.688,0, 2, 0, -2, 0, -2, 2, -1,-2.148209634996172,0.9635202207233864,1
1503512638362,+0.756,+0.444,-0.149,-0.458,+0.841,-0.169,-0.518,+0.312,-0.625,+1.625,5, 4, -2, 1, 0, -1, -3, 1,-2.148209634996172,0.9635202207233864,1
