Timestamp,Orientation X,Orientation Y,Orientation Z,Orientation W,Accelerometer X,Accelerometer Y,Accelerometer Z,Gyroscope X,Gyroscope Y,Gyroscope Z,EMG1,EMG2,EMG3,EMG4,EMG5,EMG6,EMG7,EMG8
1503612431189,-0.365,-0.410,+0.558,+0.623,+1.015,-0.055,-0.166,-6.312,+7.750,+24.438,-2, -1, 8, 2, 14, 4, 4, 8
1503612431211,-0.361,-0.412,+0.559,+0.623,+0.931,-0.099,+0.019,-5.500,+18.938,+17.250,22, -5, -9, -4, 0, 4, -8, -26
1503612431226,-0.358,-0.414,+0.559,+0.623,+1.016,-0.122,+0.092,-8.125,+5.562,+19.062,-2, 17, 13, 13, 0, -11, 0, -4
1503612431249,-0.355,-0.417,+0.560,+0.622,+1.096,-0.090,+0.015,-1.375,+18.250,+18.812,1, 1, -6, -5, 14, -3, 9, 9
1503612431277,-0.355,-0.419,+0.559,+0.621,+1.074,-0.112,-0.010,+11.000,+8.312,+6.625,-4, -2, -3, -2, -3, 1, 9, 17
1503612431286,-0.359,-0.420,+0.557,+0.620,+1.000,-0.142,+0.013,+23.750,-13.500,-11.312,0, 0, 1, -1, 9, 15, -7, 7
1503612431309,-0.366,-0.420,+0.554,+0.619,+0.990,-0.189,+0.094,+30.062,-28.000,-24.438,-1, 8, 4, -2, -9, -2, -2, 18
1503612431331,-0.373,-0.417,+0.551,+0.619,+0.957,-0.218,+0.084,+16.812,-38.500,-35.500,-7, -7, -1, -1, -4, -6, 6, -9
1503612431346,-0.379,-0.413,+0.550,+0.619,+0.920,-0.100,+0.015,+3.375,-30.562,-32.188,-9, 12, 4, 0, -2, 2, 9, -67
1503612431369,-0.382,-0.408,+0.551,+0.619,+0.902,+0.015,+0.027,-7.812,-16.312,-25.750,0, -3, -4, 0, 2, 2, -2, 14
1503612431391,-0.384,-0.405,+0.553,+0.619,+1.014,+0.066,-0.023,-10.812,-3.062,-12.625,-6, 0, -3, -2, -7, -3, -4, 7
1503612431406,-0.385,-0.402,+0.554,+0.619,+1.096,+0.023,-0.027,-9.250,-7.375,-4.562,7, -8, 1, 1, -5, 0, -14, 31
1503612431429,-0.386,-0.399,+0.552,+0.622,+1.054,-0.027,-0.027,-9.312,-23.938,-2.750,1, -4, -4, -2, -7, -1, 6, -5
1503612431451,-0.389,-0.395,+0.549,+0.625,+0.976,-0.034,-0.037,-7.125,-36.688,-6.812,-3, -1, -5, -3, 1, -1, 0, -7
1503612431466,-0.393,-0.390,+0.547,+0.628,+0.974,-0.016,-0.011,-9.375,-42.562,-14.562,-9, 4, 8, 3, 1, 1, -1, 3
1503612431489,-0.395,-0.386,+0.543,+0.632,+1.008,-0.038,-0.056,-12.438,-41.688,-4.688,4, 14, 0, -4, 1, 0, 1, 4
1503612431511,-0.396,-0.382,+0.541,+0.636,+0.975,-0.047,-0.063,-17.688,-31.000,-0.625,5, -1, 1, 0, 2, 1, 6, -6
1503612431526,-0.396,-0.378,+0.540,+0.639,+0.956,-0.021,-0.062,-16.875,-22.562,-2.000,-8, -4, -2, -2, -5, -1, 7, 3
1503612431551,-0.398,-0.375,+0.539,+0.641,+0.992,-0.004,-0.102,-10.875,-16.938,-5.812,3, -9, -3, -1, -2, -5, -4, 11
1503612431571,-0.399,-0.372,+0.539,+0.642,+1.011,-0.027,-0.111,-8.750,-15.750,-9.250,-6, -23, -8, -4, -5, 0, -1, -1
1503612431594,-0.400,-0.370,+0.538,+0.643,+1.037,-0.045,-0.096,-8.875,-15.750,-5.500,2, 1, 0, -1, -3, -5, 2, 1
1503612431609,-0.401,-0.368,+0.537,+0.645,+1.025,-0.042,-0.086,-8.062,-15.562,-4.000,0, -9, -5, -2, -3, -2, -3, 0
1503612431630,-0.402,-0.366,+0.536,+0.646,+1.012,-0.019,-0.124,-3.500,-18.125,-3.250,1, 3, 2, 0, 0, 1, -1, -5
1503612431646,-0.404,-0.364,+0.534,+0.648,+1.003,-0.024,-0.144,+0.125,-17.312,-2.875,-9, 7, 4, 1, 2, 1, 5, -22
1503612431667,-0.405,-0.363,+0.532,+0.649,+0.988,-0.062,-0.123,+0.312,-15.688,-3.562,9, -4, -5, -3, -3, -3, -4, 12
1503612431690,-0.406,-0.363,+0.530,+0.650,+1.000,-0.075,-0.095,+0.312,-14.062,+1.000,8, 4, -1, -2, 1, 1, -1, 8
1503612431705,-0.406,-0.363,+0.529,+0.651,+1.022,-0.056,-0.130,+1.000,-8.750,+5.938,5, 5, 2, 1, 1, 1, -3, 23
1503612431728,-0.406,-0.364,+0.527,+0.652,+1.029,-0.042,-0.154,+3.688,-6.125,+8.000,-13, -6, -2, -2, -3, 0, -2, 5
1503612431753,-0.406,-0.365,+0.525,+0.653,+1.021,-0.049,-0.160,+5.875,-9.500,+9.438,-5, -3, 2, 0, -1, -4, -5, -25
1503612431769,-0.406,-0.366,+0.523,+0.654,+0.997,-0.076,-0.130,+6.625,-10.000,+10.875,0, -2, -5, -4, -2, 0, 0, -27
1503612431790,-0.405,-0.368,+0.521,+0.655,+0.961,-0.088,-0.108,+5.875,-5.188,+11.625,-9, -3, -1, -1, -4, -5, -1, 6
1503612431810,-0.404,-0.370,+0.519,+0.656,+0.976,-0.071,-0.116,+5.625,-1.500,+11.188,5, 17, 2, 2, 1, 1, 1, -2
1503612431825,-0.404,-0.372,+0.518,+0.656,+1.013,-0.057,-0.143,+8.688,+0.375,+12.438,7, 23, 7, 2, 0, 0, -1, 6
1503612431848,-0.404,-0.374,+0.516,+0.656,+1.010,-0.060,-0.173,+12.812,-1.125,+13.750,2, -16, -1, 0, 2, -6, -1, 12
1503612431870,-0.404,-0.376,+0.514,+0.657,+1.004,-0.073,-0.136,+12.375,-6.812,+11.438,-21, -9, 0, -3, -9, 1, 3, -8
1503612431887,-0.405,-0.378,+0.511,+0.657,+0.977,-0.087,-0.109,+12.500,-7.938,+10.625,-3, -3, -2, -1, -1, 0, -2, -1
1503612431907,-0.404,-0.381,+0.509,+0.657,+0.978,-0.095,-0.121,+12.000,-1.625,+13.250,5, 7, -2, 0, 3, 2, -2, -1
1503612431930,-0.404,-0.384,+0.508,+0.657,+1.002,-0.082,-0.146,+13.438,+0.562,+15.625,-4, -12, -4, 0, 0, -3, 0, -5
1503612431945,-0.404,-0.387,+0.505,+0.658,+1.032,-0.082,-0.166,+15.625,-5.250,+16.938,5, 14, 0, -1, 2, 2, 0, 3
1503612431967,-0.404,-0.390,+0.501,+0.658,+1.020,-0.110,-0.147,+17.062,-9.438,+18.938,3, -21, -6, -2, -19, -1, -6, -11
1503612431991,-0.404,-0.393,+0.497,+0.659,+1.002,-0.119,-0.126,+16.562,-11.625,+19.812,-7, 1, 5, 1, 1, -2, 1, -7
1503612432005,-0.404,-0.397,+0.494,+0.660,+0.976,-0.122,-0.149,+18.500,-5.875,+22.250,12, -3, -2, 0, 4, 1, -4, 5
1503612432028,-0.402,-0.402,+0.491,+0.660,+0.990,-0.155,-0.141,+21.938,-0.125,+26.125,-2, -4, -5, -2, 5, -2, -2, 0
1503612432050,-0.401,-0.407,+0.487,+0.660,+1.052,-0.167,-0.154,+24.750,+2.312,+26.000,1, -3, 0, 2, 6, 1, 3, 5
1503612432065,-0.401,-0.412,+0.483,+0.661,+1.072,-0.159,-0.163,+26.125,-5.000,+27.000,-1, 7, 2, 0, 2, 0, 2, -9
1503612435793,-0.458,-0.366,+0.457,+0.669,+0.923,-0.049,-0.292,-7.500,-10.000,+0.312,-12, 1, -1, -3, -2, 0, -3, -20
1503612435808,-0.458,-0.364,+0.456,+0.670,+0.912,-0.073,-0.274,-7.875,-7.375,-1.312,-5, -2, -1, 3, 8, 3, 0, -13
1503612435831,-0.458,-0.363,+0.456,+0.671,+0.927,-0.073,-0.292,-7.188,-3.125,-1.750,1, -5, -8, -1, -1, -2, -13, -24
1503612435853,-0.458,-0.362,+0.456,+0.671,+0.933,-0.079,-0.291,-7.250,-1.438,-3.125,-4, -9, -7, -4, -7, -2, 1, -29
1503612435875,-0.458,-0.361,+0.457,+0.671,+0.950,-0.066,-0.277,-8.250,-2.062,-3.750,2, -1, 0, -3, -2, -1, 5, -6
1503612435891,-0.459,-0.359,+0.457,+0.672,+0.965,-0.055,-0.266,-6.812,-5.750,-3.250,-7, -4, -1, -1, -8, -1, 4, -2
1503612435918,-0.460,-0.358,+0.456,+0.673,+0.975,-0.061,-0.296,-4.375,-10.812,-3.375,-2, 6, 7, 3, 1, -1, 0, 13
1503612435928,-0.461,-0.356,+0.455,+0.674,+0.961,-0.074,-0.299,-3.750,-14.312,-2.000,-24, -37, -9, -2, 0, 0, 0, 11
1503612435951,-0.461,-0.355,+0.454,+0.675,+0.945,-0.085,-0.288,-3.938,-10.375,-1.688,0, -4, -2, 1, 3, -1, 3, 70
1503612435973,-0.461,-0.355,+0.453,+0.676,+0.923,-0.083,-0.280,-2.875,-5.625,+0.000,7, 9, 1, -2, -11, 0, -9, -19
1503612435988,-0.461,-0.355,+0.453,+0.676,+0.938,-0.094,-0.292,-1.938,+1.000,+0.312,30, 20, 2, 0, 1, -2, -2, 5
1503612436011,-0.460,-0.356,+0.453,+0.675,+0.961,-0.089,-0.287,-1.188,+6.062,-1.125,-7, -4, -3, 0, 5, -3, -6, -25
1503612436033,-0.460,-0.356,+0.454,+0.675,+0.986,-0.075,-0.288,+1.375,+4.688,-1.000,-5, 5, 1, -1, 4, -6, 1, -6
1503612436049,-0.460,-0.357,+0.454,+0.674,+0.993,-0.066,-0.289,+1.375,+1.688,-1.000,10, -4, -2, -3, -4, 0, -2, 8
1503612436071,-0.461,-0.357,+0.454,+0.674,+0.958,-0.051,-0.281,+0.375,-2.188,-1.250,-13, -12, -4, -2, -2, -1, 6, 12
1503612436093,-0.461,-0.357,+0.453,+0.674,+0.947,-0.059,-0.272,+0.750,-4.312,+0.562,-4, -9, -5, 2, 5, 1, 0, 8
1503612436108,-0.461,-0.357,+0.453,+0.674,+0.961,-0.061,-0.274,-0.188,-2.375,+2.000,-9, -3, 1, -1, -2, -2, -1, -5
1503612436131,-0.461,-0.357,+0.452,+0.675,+0.958,-0.062,-0.295,-0.062,-2.062,+4.312,-4, -2, -8, -2, -3, -1, -1, -2
1503612436156,-0.461,-0.357,+0.452,+0.675,+0.947,-0.055,-0.276,-2.812,-3.812,+2.875,4, 37, 11, 1, 1, -2, -4, -9
1503612436168,-0.461,-0.356,+0.452,+0.676,+0.929,-0.057,-0.280,-3.062,-3.688,-0.438,-6, -13, -6, -3, -2, -1, -6, -3
1503612436192,-0.461,-0.356,+0.452,+0.676,+0.918,-0.062,-0.281,-2.812,+0.688,-2.938,11, 1, 3, 0, 1, -1, 4, 1
1503612436213,-0.461,-0.356,+0.453,+0.675,+0.943,-0.053,-0.270,-3.250,+4.938,-4.625,-12, -7, -2, 1, 0, 0, 0, 2
1503612436228,-0.462,-0.355,+0.454,+0.674,+0.967,-0.040,-0.264,-3.312,+2.688,-6.438,18, 24, 17, 6, 0, -1, -5, 30
1503612436273,-0.463,-0.354,+0.455,+0.674,+0.988,-0.022,-0.292,-1.125,-2.250,-6.438,-10, -15, -8, -2, 0, 0, -3, -18
1503612436275,-0.464,-0.354,+0.454,+0.674,+0.964,-0.026,-0.325,+1.875,-6.812,-4.125,2, -4, -5, -4, -1, -2, 1, 6
1503612436289,-0.465,-0.353,+0.453,+0.674,+0.959,-0.042,-0.273,-1.250,-8.562,-1.812,1, -5, -4, -3, -2, -1, -3, -3
1503612436311,-0.465,-0.352,+0.452,+0.675,+0.962,-0.042,-0.280,-1.250,-8.188,+2.312,-4, -2, 0, 2, 3, 0, 3, -10
1503612436333,-0.465,-0.352,+0.451,+0.675,+0.953,-0.053,-0.299,-0.125,-4.562,+5.312,-2, -6, -4, -1, -3, -3, 5, -5
1503612436349,-0.464,-0.353,+0.451,+0.676,+0.961,-0.053,-0.297,-1.125,-3.688,+5.625,-9, -13, -3, -1, 1, -2, -2, -1
1503612436371,-0.464,-0.353,+0.450,+0.677,+0.969,-0.051,-0.288,+0.750,-3.250,+6.000,-12, -6, -4, 0, 0, 1, 4, 8
1503612436393,-0.463,-0.354,+0.449,+0.677,+0.950,-0.064,-0.292,+1.250,-0.188,+6.062,2, 0, -5, -5, -3, 1, 3, -3
1503612436408,-0.463,-0.355,+0.449,+0.677,+0.979,-0.060,-0.292,+0.812,+2.438,+6.250,-6, -2, -3, -4, -1, -2, -2, -5
1503612436431,-0.462,-0.355,+0.449,+0.677,+0.992,-0.047,-0.292,+0.375,+0.688,+6.062,-5, 13, 9, 1, 1, 0, 2, -21
1503612436453,-0.462,-0.356,+0.448,+0.678,+0.979,-0.046,-0.318,+2.688,-3.438,+7.000,5, 2, -3, -2, -2, 0, -5, 1
1503612436469,-0.462,-0.357,+0.447,+0.678,+0.941,-0.052,-0.303,+2.750,-3.688,+7.625,-8, -4, -2, -2, -1, -1, 0, -3
1503612436491,-0.461,-0.357,+0.446,+0.679,+0.933,-0.043,-0.299,+1.188,-0.938,+8.375,3, -9, -2, -1, 0, -1, -5, -2
1503612436513,-0.460,-0.358,+0.445,+0.679,+0.947,-0.052,-0.295,+2.000,+2.438,+12.688,-2, -2, 0, 2, 0, -3, 1, 5
1503612436533,-0.459,-0.360,+0.445,+0.680,+0.979,-0.072,-0.293,+1.688,+2.500,+13.375,-3, -1, -1, -2, -2, 2, 1, -33
1503612436554,-0.458,-0.361,+0.444,+0.680,+0.992,-0.079,-0.287,+3.125,-1.312,+11.688,11, 1, -2, -1, -3, -3, 3, 20
1503612436574,-0.457,-0.363,+0.442,+0.681,+0.971,-0.088,-0.292,+5.625,-5.688,+10.375,1, -4, -5, -2, -1, -1, 0, 7
1503612436596,-0.457,-0.364,+0.440,+0.682,+0.939,-0.100,-0.287,+7.188,-4.500,+9.562,0, 6, 2, 1, -2, 1, -7, -1
1503612436612,-0.456,-0.366,+0.439,+0.682,+0.945,-0.127,-0.277,+8.500,+0.375,+10.250,0, 0, -1, -6, -2, -1, -10, -14
1503612436634,-0.455,-0.369,+0.438,+0.681,+0.951,-0.140,-0.291,+8.938,+6.312,+8.688,-5, 15, 8, 2, 0, 0, -1, -4
1503612436649,-0.455,-0.372,+0.438,+0.681,+0.945,-0.132,-0.297,+9.625,+8.250,+7.250,0, 6, 6, 4, -2, 2, 0, 0
1503612436678,-0.454,-0.374,+0.437,+0.680,+0.949,-0.126,-0.293,+11.000,+7.125,+6.812,3, -5, -3, 1, 1, -2, 5, 7
1503612436693,-0.454,-0.377,+0.436,+0.679,+0.958,-0.123,-0.297,+12.750,+7.750,+5.500,-3, -2, -3, -2, 0, 0, 3, -2
1503612436708,-0.454,-0.380,+0.436,+0.678,+0.958,-0.128,-0.297,+13.625,+7.688,+4.750,-8, 6, 1, -1, 0, -1, 2, 4
1503612436731,-0.454,-0.382,+0.435,+0.677,+0.949,-0.123,-0.268,+13.500,+7.125,+4.375,-1, -9, -4, -2, -5, 0, 5, 5
1503612436756,-0.455,-0.385,+0.435,+0.676,+0.956,-0.109,-0.273,+15.125,+6.250,+3.500,-4, 7, 5, 1, 0, 0, -9, -11
1503612436768,-0.455,-0.388,+0.433,+0.674,+0.961,-0.117,-0.299,+17.250,+5.812,+6.438,-7, -1, 4, 3, 7, -3, 0, -5
1503612436791,-0.456,-0.390,+0.432,+0.673,+0.942,-0.125,-0.291,+17.688,+4.750,+5.375,1, -3, -2, -2, -3, 0, 0, 16
1503612436814,-0.456,-0.393,+0.431,+0.672,+0.941,-0.127,-0.268,+17.688,+4.875,+5.062,1, 1, 1, 2, 9, 1, -4, -6
1503612436835,-0.456,-0.397,+0.429,+0.671,+0.950,-0.138,-0.259,+17.562,+4.188,+10.125,-4, 3, 3, -1, -5, -2, 2, -7
1503612436851,-0.456,-0.400,+0.427,+0.671,+0.962,-0.136,-0.283,+19.125,+2.750,+12.812,5, 7, -1, -1, -4, 1, 6, -25
1503612436873,-0.456,-0.403,+0.424,+0.670,+0.976,-0.134,-0.289,+20.062,+0.000,+14.562,8, 0, -6, -3, 1, 0, -3, 41
1503612436896,-0.456,-0.406,+0.421,+0.670,+0.991,-0.144,-0.274,+20.875,-6.562,+16.438,6, 4, -1, -2, 1, 1, 0, 8
1503612440916,-0.446,-0.416,+0.501,+0.614,+0.980,-0.049,-0.117,-6.750,-12.125,+4.562,2, -21, -11, -4, -3, -3, -2, 5
1503612440937,-0.446,-0.415,+0.500,+0.615,+0.959,-0.072,-0.095,-7.438,-4.562,+2.000,-9, -22, -8, -2, -1, 3, 5, 16
1503612440954,-0.445,-0.415,+0.502,+0.615,+0.951,-0.050,-0.095,-5.938,+6.688,-2.062,-1, -2, -2, -2, -1, -2, -5, -5
1503612440975,-0.445,-0.416,+0.504,+0.613,+0.958,-0.043,-0.103,-2.812,+15.812,-4.250,-14, -1, -2, -3, -3, 0, -5, -3
1503612440998,-0.444,-0.417,+0.506,+0.611,+1.019,-0.041,-0.101,-0.625,+20.875,-5.438,-4, 0, -2, 0, 0, -5, -3, -6
1503612441014,-0.444,-0.418,+0.508,+0.608,+1.057,-0.045,-0.104,+1.625,+17.500,-6.125,-20, -4, -3, 0, 0, 2, 5, -33
1503612441035,-0.445,-0.418,+0.509,+0.607,+1.028,-0.045,-0.135,+8.500,+8.000,-5.688,9, -3, -3, 2, 1, 1, -2, 19
1503612441057,-0.447,-0.419,+0.508,+0.605,+0.978,-0.067,-0.117,+12.562,+2.875,-8.188,-1, 7, 1, -1, 4, -2, 0, 5
1503612441073,-0.448,-0.420,+0.508,+0.604,+0.972,-0.085,-0.082,+10.312,+3.562,-8.312,8, 1, 3, -3, -5, -1, 1, 9
1503612441095,-0.448,-0.421,+0.507,+0.604,+1.017,-0.085,-0.069,+5.688,-0.688,+0.875,3, 3, 2, -1, -4, -1, -3, 3
1503612441118,-0.448,-0.422,+0.506,+0.604,+1.036,-0.091,-0.026,-3.000,-8.000,+5.438,5, 8, 2, 1, -1, -1, 4, 10
1503612441133,-0.448,-0.420,+0.505,+0.607,+1.022,-0.066,-0.024,-11.312,-19.625,+2.000,0, -2, -1, 0, 8, 2, 3, 7
1503612441156,-0.448,-0.417,+0.504,+0.609,+0.994,-0.003,-0.086,-11.188,-24.875,+3.688,0, 3, 4, 1, 1, -2, 0, 1
1503612441177,-0.449,-0.414,+0.501,+0.613,+0.983,-0.014,-0.107,-10.938,-27.250,+6.250,-14, -4, 5, 0, 1, -3, -11, -7
1503612441193,-0.450,-0.411,+0.500,+0.616,+0.963,-0.035,-0.090,-13.812,-24.438,+3.312,0, 14, -7, -5, -3, -3, -3, -59
1503612441218,-0.450,-0.408,+0.499,+0.618,+0.954,-0.016,-0.098,-14.000,-20.250,+3.125,1, -8, -4, 0, -2, -2, 5, 35
1503612441238,-0.450,-0.406,+0.498,+0.621,+0.961,-0.005,-0.116,-13.312,-16.125,+3.875,16, -2, -2, -2, 1, 0, -2, 2
1503612441258,-0.449,-0.404,+0.498,+0.622,+0.989,-0.022,-0.119,-13.250,-10.688,+2.750,-5, 4, 5, 2, 1, 0, -6, 2
1503612441276,-0.449,-0.402,+0.497,+0.624,+1.021,-0.024,-0.146,-11.500,-10.250,+4.188,-20, -2, -1, 1, -1, 0, -3, -4
1503612441305,-0.449,-0.400,+0.496,+0.626,+1.022,-0.021,-0.149,-10.000,-15.438,+4.438,-2, -1, -1, -3, 0, -2, 1, 22
1503612441313,-0.449,-0.397,+0.495,+0.628,+0.982,-0.039,-0.126,-11.250,-17.500,+0.250,-9, -8, -4, -3, -16, 1, -3, -8
1503612441336,-0.449,-0.395,+0.495,+0.630,+0.970,-0.039,-0.139,-9.938,-14.875,+0.812,10, -13, -3, -2, -6, -1, 1, 27
1503612441361,-0.449,-0.394,+0.494,+0.632,+0.971,-0.053,-0.169,-6.688,-8.688,+1.625,6, 8, 5, 1, 2, -2, 0, 1
1503612441373,-0.449,-0.393,+0.493,+0.633,+0.992,-0.056,-0.177,-7.312,-5.375,+0.688,-1, -6, -2, 1, 3, -1, 0, -6
1503612441396,-0.449,-0.392,+0.493,+0.634,+1.016,-0.068,-0.149,-8.438,-8.250,+1.125,3, 22, 4, 0, 4, -3, -2, -27
1503612441426,-0.449,-0.391,+0.492,+0.635,+1.018,-0.073,-0.143,-7.938,-12.750,-0.125,9, -1, -2, -3, -3, -1, -8, 2
1503612441433,-0.450,-0.389,+0.491,+0.637,+0.989,-0.077,-0.155,-6.000,-14.188,-2.188,-4, -5, -1, -1, -7, 1, -2, -3
1503612441457,-0.451,-0.387,+0.490,+0.638,+0.982,-0.062,-0.180,-4.188,-14.312,-2.688,7, 17, 6, -1, 0, 0, -1, -2
1503612441478,-0.451,-0.385,+0.488,+0.640,+1.012,-0.060,-0.180,-5.438,-17.375,-1.562,-16, -4, -3, -1, 0, -2, -1, -12
1503612441493,-0.452,-0.383,+0.487,+0.642,+1.021,-0.066,-0.168,-7.375,-21.375,+0.562,4, -2, -2, 1, 0, 0, 3, -12
1503612441516,-0.453,-0.381,+0.484,+0.644,+0.990,-0.048,-0.168,-7.500,-25.500,+2.312,5, 0, 1, 0, 0, -1, 1, 5
1503612441538,-0.454,-0.379,+0.482,+0.647,+0.976,-0.037,-0.195,-7.438,-25.438,+3.500,-1, -7, -3, -1, 1, 2, -2, 13
1503612441557,-0.454,-0.377,+0.480,+0.649,+0.967,-0.040,-0.210,-6.688,-22.000,+5.688,6, 1, -3, -3, -3, -4, -8, 24
1503612441579,-0.454,-0.376,+0.478,+0.652,+0.974,-0.059,-0.202,-6.062,-16.188,+5.938,12, 0, 0, -1, 0, 0, 2, -5
1503612441598,-0.454,-0.375,+0.476,+0.653,+0.987,-0.057,-0.196,-4.625,-14.188,+4.250,-7, -3, -1, -3, -4, 0, -2, 9
1503612441622,-0.455,-0.373,+0.475,+0.655,+0.988,-0.046,-0.213,-4.625,-14.500,+1.812,-2, -6, -1, -5, -8, -4, -4, -24
1503612441637,-0.455,-0.372,+0.474,+0.656,+0.966,-0.037,-0.235,-5.125,-14.438,+1.938,1, 6, 3, -1, -3, -3, 4, 5
1503612441663,-0.456,-0.370,+0.472,+0.658,+0.964,-0.021,-0.236,-4.188,-14.188,+2.688,-3, -1, -1, -1, 2, -1, -7, -8
1503612441673,-0.456,-0.369,+0.471,+0.659,+0.953,-0.032,-0.231,-2.500,-10.438,+5.125,3, -5, -5, -4, -8, -2, 1, 13
1503612441696,-0.456,-0.369,+0.470,+0.660,+0.943,-0.050,-0.222,-2.000,-8.188,+3.938,5, 2, -3, -1, -4, -4, 2, 6
1503612441718,-0.455,-0.369,+0.469,+0.660,+0.939,-0.062,-0.222,-1.562,-3.438,+4.000,1, -2, 0, 1, 8, 3, -8, -5
1503612441733,-0.455,-0.369,+0.469,+0.661,+0.953,-0.059,-0.216,-1.938,-1.000,+2.750,-4, -14, -2, -1, 2, 1, 7, -1
1503612441759,-0.455,-0.370,+0.469,+0.660,+0.954,-0.046,-0.229,-0.625,+1.875,+2.438,4, 11, 1, -1, -1, 0, 8, 8
1503612441778,-0.455,-0.370,+0.469,+0.660,+0.957,-0.051,-0.245,+1.375,+3.000,+2.500,0, -5, 0, -1, -10, 1, -1, -2
1503612441800,-0.454,-0.371,+0.469,+0.660,+0.967,-0.057,-0.223,+1.500,+3.688,+3.062,-5, -3, -3, -1, 7, -1, -7, -11
1503612441816,-0.454,-0.372,+0.470,+0.660,+0.980,-0.060,-0.200,+0.250,+1.250,+3.312,-3, -8, -4, -2, -1, -2, 0, -4
1503612441838,-0.454,-0.372,+0.469,+0.660,+0.986,-0.060,-0.226,+0.500,-3.438,+4.438,-10, 14, 3, 3, 3, -3, 8, -2
1503612441853,-0.453,-0.372,+0.468,+0.661,+0.994,-0.068,-0.245,+0.438,-6.500,+6.625,1, -7, -3, -2, 0, 0, 7, 6
1503612441876,-0.453,-0.373,+0.466,+0.662,+0.982,-0.069,-0.265,+0.438,-6.375,+9.938,8, 13, 3, 0, -5, 1, 2, 21
1503612441898,-0.452,-0.373,+0.464,+0.664,+0.954,-0.082,-0.243,-0.125,-5.875,+10.500,-5, -17, -9, -2, -2, -2, -2, -3
1503612441913,-0.451,-0.374,+0.463,+0.665,+0.959,-0.095,-0.227,+0.438,-3.938,+9.125,0, -4, 1, 1, 13, 6, 0, -5
1503612441936,-0.451,-0.375,+0.462,+0.665,+0.979,-0.090,-0.251,+1.938,-2.938,+8.875,4, 5, 3, 0, -9, -4, -6, -2
1503612441958,-0.450,-0.376,+0.461,+0.666,+0.976,-0.082,-0.244,+1.250,-3.125,+9.062,-2, 4, -1, -1, 0, -2, -9, -9
1503612441973,-0.450,-0.376,+0.460,+0.667,+0.962,-0.076,-0.249,+2.875,-5.688,+6.938,2, 13, 4, 0, 2, 1, 2, -1
1503612441996,-0.450,-0.377,+0.458,+0.667,+0.949,-0.089,-0.255,+5.125,-3.938,+5.125,3, 2, -3, -2, 2, -2, -2, -4
1503612442025,-0.450,-0.378,+0.457,+0.667,+0.949,-0.104,-0.244,+4.625,-1.000,+6.938,2, 15, 5, 5, 3, 3, 4, 10
1503612442033,-0.450,-0.380,+0.456,+0.667,+0.969,-0.096,-0.245,+5.938,+1.562,+7.188,-5, -11, -6, -2, -14, -4, -1, -3
1503612442058,-0.450,-0.381,+0.456,+0.667,+0.987,-0.102,-0.260,+8.000,+3.188,+4.500,-5, -3, 2, -1, -5, 0, 0, -6
1503612442078,-0.450,-0.383,+0.455,+0.667,+0.992,-0.091,-0.264,+8.562,-0.188,+4.812,-3, 25, 11, 2, 7, 0, -7, -10
1503612442096,-0.450,-0.384,+0.453,+0.667,+0.972,-0.085,-0.252,+8.438,-3.062,+6.250,-16, 3, -1, -1, -2, -1, 5, 3
1503612442116,-0.450,-0.386,+0.452,+0.667,+0.971,-0.108,-0.238,+9.812,-1.688,+7.438,2, -8, -7, -4, -1, -2, 6, 3
1503612442138,-0.450,-0.388,+0.450,+0.666,+0.963,-0.130,-0.246,+10.500,+1.625,+8.188,-8, -8, -3, -3, 12, 3, -2, -6
1503612442153,-0.450,-0.390,+0.449,+0.666,+0.971,-0.121,-0.257,+10.562,+1.938,+8.562,1, -15, -5, -4, -7, -4, -3, 1
1503612442176,-0.450,-0.392,+0.448,+0.666,+0.976,-0.110,-0.252,+10.562,+2.750,+6.062,-2, -5, -6, -2, -3, -2, -6, 0
1503612442197,-0.450,-0.394,+0.447,+0.665,+0.973,-0.116,-0.240,+11.250,+3.250,+3.562,-6, -7, -4, -1, -8, -3, -10, -2
1503612442212,-0.451,-0.396,+0.446,+0.664,+0.953,-0.122,-0.237,+12.000,+3.875,+1.750,2, 28, 8, 2, -1, -1, 0, -5
1503612442235,-0.452,-0.398,+0.446,+0.662,+0.942,-0.113,-0.228,+12.938,+6.500,-1.812,-3, -7, -2, 0, -4, 1, -1, 1
1503612442259,-0.453,-0.400,+0.447,+0.660,+0.954,-0.096,-0.227,+14.812,+10.125,-4.750,3, 1, -2, -2, -5, -1, 1, 5
1503612442279,-0.454,-0.402,+0.447,+0.657,+0.974,-0.105,-0.226,+16.438,+10.375,-6.688,-7, -1, 0, 2, 16, -1, -10, -3
1503612442295,-0.456,-0.404,+0.447,+0.655,+0.982,-0.112,-0.222,+16.688,+7.062,-6.875,1, -5, -2, -2, -6, -4, 1, -3
1503612442317,-0.458,-0.406,+0.447,+0.652,+0.963,-0.115,-0.212,+16.250,+5.188,-10.375,2, 11, 5, 0, -4, 0, 2, 1
1503612442340,-0.460,-0.407,+0.447,+0.650,+0.956,-0.101,-0.203,+16.625,+5.000,-10.125,-1, -6, 1, 0, -2, 0, -2, -1
1503612442354,-0.462,-0.409,+0.448,+0.647,+0.975,-0.092,-0.209,+15.438,+7.688,-10.250,-4, -15, -3, 2, -8, -1, 0, -2
1503612442377,-0.464,-0.411,+0.448,+0.644,+0.997,-0.096,-0.201,+14.438,+9.312,-8.562,0, -18, -8, -2, -1, 2, 5, 8
1503612442400,-0.465,-0.412,+0.448,+0.642,+0.998,-0.098,-0.204,+14.375,+5.562,-4.812,-1, 2, 1, -1, -2, -1, 0, -8
1503612442414,-0.466,-0.414,+0.448,+0.641,+1.004,-0.096,-0.204,+14.688,+4.125,-0.938,-3, 10, 1, -1, -1, 2, 3, 3
1503612442437,-0.467,-0.416,+0.447,+0.640,+1.009,-0.098,-0.202,+12.375,+2.125,+2.188,5, 19, 5, -1, -3, -4, -2, -5
1503612442452,-0.467,-0.418,+0.446,+0.639,+0.995,-0.096,-0.193,+10.875,+0.562,+6.938,-6, 4, -2, 3, 7, 1, 2, 0
1503612442474,-0.467,-0.420,+0.444,+0.639,+0.999,-0.112,-0.202,+10.938,-0.438,+10.188,-5, -10, -4, -3, 0, 2, 17, -1
1503612442498,-0.467,-0.422,+0.443,+0.639,+1.015,-0.119,-0.211,+11.125,+3.312,+11.562,3, -5, -1, -2, -1, -2, -9, 3
1503612442512,-0.466,-0.425,+0.441,+0.638,+1.024,-0.110,-0.200,+11.312,+2.750,+12.688,6, -10, -6, 2, 9, 0, -6, -3
1503612442536,-0.466,-0.427,+0.439,+0.638,+1.010,-0.112,-0.210,+11.500,-1.312,+12.438,2, -8, -2, -2, 0, -1, -3, 5
1503612442557,-0.466,-0.429,+0.438,+0.638,+0.999,-0.116,-0.200,+12.688,-0.812,+12.375,-17, -7, -2, -5, -2, 0, 5, -9
1503612442579,-0.466,-0.432,+0.435,+0.638,+0.996,-0.109,-0.225,+14.625,+0.312,+14.812,4, 6, 5, 4, 9, -3, -13, -3
1503612442595,-0.465,-0.434,+0.433,+0.638,+1.000,-0.109,-0.219,+13.938,+2.562,+15.625,8, -1, -4, -2, -3, 0, -2, 2
1503612442617,-0.465,-0.437,+0.432,+0.638,+0.992,-0.113,-0.214,+14.750,+3.562,+17.125,3, 6, 2, 0, -6, 1, 4, 1
1503612442640,-0.464,-0.440,+0.429,+0.638,+0.990,-0.114,-0.208,+17.438,+1.062,+17.625,-3, -3, -3, -1, -4, 0, -19, -4
1503612442654,-0.464,-0.443,+0.426,+0.637,+0.985,-0.116,-0.226,+20.062,+1.500,+20.438,5, -6, -8, -7, -15, -5, -9, -1
1503612442677,-0.463,-0.447,+0.423,+0.637,+0.973,-0.131,-0.228,+20.500,+3.438,+24.625,0, -1, -5, -2, 0, 0, 0, 0
1503612442700,-0.462,-0.452,+0.419,+0.638,+0.983,-0.152,-0.214,+21.688,+1.000,+28.500,-6, 10, -1, -4, -4, -1, -2, -1
1503612442715,-0.460,-0.456,+0.415,+0.638,+0.977,-0.188,-0.219,+22.562,+0.500,+29.688,6, -3, -2, -5, -1, -2, -15, 2
1503612442738,-0.459,-0.461,+0.411,+0.639,+0.970,-0.205,-0.220,+23.875,+1.750,+31.375,9, -4, 1, 3, 6, 0, -1, 1
1503612442774,-0.457,-0.466,+0.406,+0.640,+0.963,-0.219,-0.229,+25.812,+1.688,+34.875,-3, 2, 0, -2, -5, -2, 0, 0
1503612442781,-0.455,-0.472,+0.401,+0.640,+0.967,-0.234,-0.215,+25.875,+1.625,+37.688,-5, -11, -6, -3, -12, -2, 1, 2
1503612442797,-0.452,-0.477,+0.396,+0.641,+0.956,-0.255,-0.208,+25.750,+2.500,+37.000,-4, -1, -1, -1, 4, 1, 0, -5
1503612442819,-0.450,-0.483,+0.391,+0.642,+0.951,-0.276,-0.209,+26.562,+2.562,+36.625,8, -8, -2, 1, -2, -2, 4, 1
1503612442835,-0.448,-0.488,+0.386,+0.642,+0.943,-0.295,-0.206,+27.188,+3.312,+35.438,-2, -1, -2, -2, 1, 0, 2, 3
1503612442857,-0.446,-0.494,+0.381,+0.642,+0.961,-0.330,-0.198,+28.000,+2.500,+34.750,-12, 2, 6, 1, -1, 2, 1, -6
1503612442879,-0.444,-0.500,+0.376,+0.642,+0.938,-0.348,-0.168,+27.688,+1.688,+32.438,7, -9, 2, -2, -16, -5, -2, 23
1503612442897,-0.442,-0.505,+0.371,+0.642,+0.916,-0.329,-0.156,+28.625,+2.125,+29.938,-1, 6, 7, 6, 5, 2, -15, -11
1503612448604,-0.374,-0.357,+0.545,+0.660,+0.981,+0.026,-0.093,-20.375,-26.750,-15.750,-3, -2, -2, -2, 1, -1, 24, -6
1503612448624,-0.375,-0.348,+0.543,+0.666,+1.039,+0.022,-0.255,-35.375,-38.625,-9.125,-13, -11, -8, -1, 4, -1, 3, -16
1503612448639,-0.375,-0.344,+0.544,+0.668,+1.040,+0.031,-0.091,-26.125,-15.562,-6.688,-1, 3, 2, 1, -9, 0, -4, 10
1503612448662,-0.375,-0.340,+0.543,+0.670,+1.060,+0.003,-0.088,-19.188,-24.625,-2.375,4, -5, -3, -2, -7, 1, -5, 1
1503612448684,-0.376,-0.336,+0.541,+0.673,+1.079,+0.027,-0.162,-13.250,-27.938,+2.062,1, 1, 0, 2, 7, 3, -6, -8
1503612448700,-0.376,-0.335,+0.540,+0.674,+0.972,+0.022,-0.154,-2.438,-11.312,+1.688,13, 4, -1, 1, 1, 5, 2, 19
1503612448722,-0.377,-0.335,+0.539,+0.675,+0.994,-0.047,-0.156,+0.312,-6.250,+1.875,37, 21, 4, -2, -5, 0, 2, 2
1503612448747,-0.377,-0.335,+0.539,+0.675,+0.989,-0.036,-0.168,+1.750,+2.250,+0.562,-10, -1, 1, 3, -4, 0, -8, -4
1503612448759,-0.379,-0.336,+0.541,+0.671,+0.974,-0.030,-0.179,+12.250,+21.250,-14.875,-13, 2, 2, 2, 4, -3, -11, 14
1503612448782,-0.381,-0.338,+0.542,+0.668,+0.953,-0.099,-0.148,+18.312,+14.438,-14.312,1, -17, -5, -6, -9, -1, -3, -51
1503612448798,-0.384,-0.339,+0.542,+0.666,+0.933,-0.113,-0.168,+12.312,+7.062,-20.062,-3, 12, 6, 1, -1, 2, 0, 6
1503612448819,-0.387,-0.338,+0.543,+0.664,+0.978,-0.038,-0.120,+6.750,+2.625,-21.750,-24, -14, -1, 0, 0, -1, 3, 3
1503612448842,-0.388,-0.338,+0.544,+0.663,+1.007,-0.023,-0.120,+2.812,+0.438,-12.875,-13, 13, 2, 1, 7, 6, 6, -12
1503612448858,-0.390,-0.336,+0.544,+0.663,+1.028,-0.010,-0.099,-3.062,-8.438,-7.438,-3, -6, -6, -4, 2, -4, -1, 21
1503612448880,-0.390,-0.334,+0.543,+0.665,+1.040,-0.007,-0.093,-9.375,-19.688,-2.688,8, 4, 2, 3, 20, 4, 2, 11
1503612448902,-0.390,-0.331,+0.540,+0.668,+1.007,+0.007,-0.129,-10.438,-26.375,+4.438,-4, -21, -11, -6, 0, -8, -8, 1
1503612448917,-0.390,-0.329,+0.537,+0.671,+0.956,-0.016,-0.186,-10.562,-26.375,+7.062,-8, -8, -7, -2, -12, -5, -1, -11
1503612448939,-0.390,-0.327,+0.535,+0.674,+1.000,-0.011,-0.126,-11.500,-23.562,+3.750,8, -6, -5, -1, -7, 0, -12, -8
1503612448962,-0.390,-0.325,+0.533,+0.677,+1.006,-0.030,-0.141,-11.562,-22.625,+6.312,10, 7, 7, 0, 0, -1, 2, 3
1503612448977,-0.389,-0.323,+0.531,+0.680,+0.979,-0.043,-0.166,-12.688,-21.250,+3.125,-1, 0, -1, -3, -6, -1, 6, -4
1503612448999,-0.389,-0.321,+0.530,+0.682,+0.983,-0.024,-0.171,-10.000,-17.500,+1.750,1, -9, -6, -2, 0, -3, 1, 22
1503612449021,-0.390,-0.318,+0.529,+0.684,+0.992,+0.003,-0.196,-7.375,-18.188,-1.375,-1, 4, 2, -2, -4, 0, -3, 7
1503612449044,-0.391,-0.317,+0.527,+0.685,+0.983,+0.006,-0.238,-1.375,-15.312,-0.375,20, 3, 7, 4, -2, 0, -2, -9
1503612449059,-0.391,-0.317,+0.525,+0.686,+0.945,-0.029,-0.194,-1.625,-9.500,+2.562,-8, -21, -10, 1, 20, 0, -16, -34
1503612449082,-0.391,-0.316,+0.524,+0.687,+0.947,-0.025,-0.205,-2.250,-5.438,+4.125,11, -11, -9, -5, 2, -1, 6, 8
1503612449097,-0.391,-0.317,+0.524,+0.687,+0.999,+0.003,-0.199,-0.562,-0.438,+4.500,10, -8, 0, 1, -5, -7, -23, -17
1503612449119,-0.390,-0.317,+0.524,+0.687,+1.018,-0.001,-0.198,+1.938,-0.875,+5.750,0, 0, 0, -2, -1, 2, -1, -2
1503612449142,-0.391,-0.318,+0.522,+0.688,+0.996,-0.012,-0.208,+6.438,-7.125,+5.688,0, 0, 0, -1, -11, 1, 0, 16
1503612449157,-0.392,-0.319,+0.520,+0.689,+0.966,-0.021,-0.211,+7.000,-9.062,+5.000,9, 2, -3, 0, 2, 4, 5, 33
1503612449180,-0.392,-0.320,+0.520,+0.688,+0.939,-0.011,-0.191,+9.125,-0.125,+5.000,-7, -1, -3, 1, -7, -10, -27, -7
1503612449202,-0.392,-0.323,+0.519,+0.687,+0.975,-0.014,-0.182,+11.438,+6.875,+6.938,-5, 1, 2, 0, -1, 0, 7, 1
1503612449218,-0.392,-0.325,+0.519,+0.687,+1.029,-0.031,-0.192,+11.562,+3.938,+8.562,-7, 17, 7, 0, -1, 2, -2, -16
1503612449242,-0.393,-0.328,+0.517,+0.686,+1.033,-0.027,-0.220,+12.750,-1.562,+8.062,-6, -11, -6, -2, 7, -3, 2, 7
1503612449262,-0.394,-0.330,+0.514,+0.687,+0.991,-0.022,-0.246,+19.125,-5.062,+10.562,7, -2, -2, -4, -6, -2, 3, 16
1503612449284,-0.395,-0.333,+0.512,+0.686,+0.982,-0.030,-0.207,+21.500,-2.188,+8.875,-7, 28, 13, 3, 5, 3, 4, 13
1503612449299,-0.396,-0.337,+0.511,+0.685,+1.011,-0.030,-0.178,+23.875,+1.250,+10.438,-14, -7, -5, -1, 7, -2, 1, -14
1503612449322,-0.396,-0.342,+0.508,+0.684,+1.016,-0.047,-0.188,+26.000,+0.938,+17.438,7, 2, 0, -2, -8, -3, -4, -1
1503612449344,-0.397,-0.346,+0.505,+0.684,+1.010,-0.068,-0.193,+27.250,-1.812,+15.750,3, -1, 1, -1, -2, -2, -1, -6
1503612449359,-0.397,-0.351,+0.502,+0.683,+0.976,-0.075,-0.215,+29.625,+0.312,+18.000,3, -10, -5, -2, -6, -2, 13, -1
1503612449382,-0.398,-0.357,+0.499,+0.682,+0.974,-0.084,-0.207,+30.688,+4.562,+20.188,6, -3, -2, -1, 4, -2, -8, -2
1503612449404,-0.397,-0.363,+0.496,+0.681,+1.017,-0.093,-0.206,+31.938,+7.812,+21.562,0, 1, 1, 0, -9, 0, 3, 6
1503612449419,-0.397,-0.370,+0.493,+0.680,+1.038,-0.101,-0.201,+33.688,+3.875,+24.938,-10, -6, 2, 1, -11, -3, -3, -11
1503612449444,-0.398,-0.375,+0.489,+0.680,+1.030,-0.117,-0.200,+34.062,-5.938,+23.125,4, -4, -4, -3, -1, -1, 0, -2
1503612449464,-0.399,-0.381,+0.483,+0.680,+0.998,-0.130,-0.207,+35.312,-10.375,+24.312,1, 0, -2, -2, 3, 0, -7, -1
1503612449487,-0.400,-0.387,+0.478,+0.680,+0.947,-0.144,-0.199,+37.062,-6.375,+25.562,-1, -6, -2, -1, 4, 1, -3, -4
1503612454526,-0.375,-0.373,+0.537,+0.657,+1.056,-0.073,-0.076,-3.688,+5.688,+12.312,3, 15, 0, -2, -4, -5, -1, 2
1503612454545,-0.373,-0.374,+0.536,+0.659,+1.066,-0.036,-0.122,-7.562,-1.125,+24.562,0, -4, -5, -1, -5, -1, 10, 8
1503612454564,-0.369,-0.375,+0.534,+0.662,+1.056,-0.054,-0.127,-8.188,-7.312,+31.438,-2, 0, 4, 3, -2, -2, 0, -1
1503612454598,-0.366,-0.377,+0.531,+0.665,+1.034,-0.116,-0.067,-8.562,-14.062,+32.188,-2, -7, -7, -4, -1, -2, -2, -10
1503612454622,-0.362,-0.378,+0.528,+0.669,+1.009,-0.142,-0.063,-7.938,-15.125,+29.125,-4, -7, -4, 0, -1, -2, -1, -1
1503612454624,-0.360,-0.380,+0.525,+0.671,+0.978,-0.167,-0.063,-4.188,-9.812,+23.875,-4, -4, -3, -2, 4, -5, -4, -7
1503612454647,-0.357,-0.381,+0.524,+0.672,+0.994,-0.173,-0.085,-4.562,-4.000,+16.188,-4, -7, -1, 0, 3, 2, -2, -2
1503612454662,-0.357,-0.382,+0.524,+0.673,+0.975,-0.105,-0.126,-0.500,+0.875,+6.438,-6, 5, 6, 0, -5, -2, -4, 0
1503612454685,-0.357,-0.382,+0.524,+0.672,+0.932,-0.075,-0.145,+4.375,+4.875,+2.625,-3, -10, -6, -5, 3, 3, -4, 3
1503612454707,-0.357,-0.384,+0.525,+0.671,+0.933,-0.110,-0.102,+3.875,+13.000,+3.000,4, -4, -4, -1, -7, -2, -2, -4
1503612454722,-0.355,-0.386,+0.527,+0.669,+0.966,-0.172,-0.069,+2.375,+20.062,+4.438,-1, -5, -3, -4, 0, -2, -5, 1
1503612454747,-0.354,-0.387,+0.529,+0.667,+1.002,-0.134,-0.099,+2.750,+17.562,-1.812,-5, -5, -5, -4, -1, -9, -13, -12
1503612454766,-0.356,-0.388,+0.531,+0.664,+0.990,-0.080,-0.119,+8.250,+17.625,-8.000,6, -6, -3, -1, -7, -2, 3, 3
1503612454784,-0.357,-0.389,+0.532,+0.662,+0.939,-0.115,-0.093,+11.938,+13.938,-10.375,-3, -14, -8, -1, 2, 1, 6, 5
1503612454804,-0.358,-0.391,+0.534,+0.658,+0.940,-0.187,-0.026,+12.688,+17.750,-13.188,-3, 0, -5, -3, -4, -4, -5, -8
1503612454826,-0.359,-0.394,+0.536,+0.655,+1.007,-0.246,-0.022,+13.312,+20.625,-16.375,2, 1, 4, 0, 1, -1, 0, -1
1503612454842,-0.361,-0.394,+0.537,+0.652,+1.005,-0.200,-0.102,+11.438,+10.188,-22.688,8, -2, 2, 4, 3, 4, 4, 2
1503612454864,-0.365,-0.393,+0.538,+0.651,+0.980,-0.141,-0.121,+7.875,-3.375,-24.938,-1, 8, 7, 1, -1, 1, 10, 4
1503612454887,-0.368,-0.391,+0.538,+0.650,+0.981,-0.135,-0.072,+2.625,-8.375,-20.562,-3, -3, -2, -3, 5, 1, -2, -1
1503612454902,-0.370,-0.389,+0.537,+0.650,+0.993,-0.151,-0.049,-0.875,-9.875,-16.250,1, 10, 2, -2, -4, -4, -2, 1
1503612454924,-0.372,-0.387,+0.537,+0.650,+0.988,-0.136,-0.042,-6.688,-11.750,-12.938,1, 3, -1, 1, -5, 0, 0, -2
1503612454949,-0.373,-0.384,+0.538,+0.651,+0.996,-0.065,-0.055,-12.750,-14.562,-12.812,1, -1, 0, 1, 2, 4, -1, -1
1503612454962,-0.374,-0.380,+0.537,+0.653,+1.000,-0.031,-0.094,-11.938,-17.625,-6.250,-3, -1, -2, -3, -1, -3, -2, -3
1503612454986,-0.375,-0.378,+0.536,+0.655,+0.976,-0.054,-0.096,-11.250,-17.062,-2.875,13, 12, 7, 1, -3, -2, -2, 1
1503612455006,-0.376,-0.375,+0.536,+0.657,+0.975,-0.078,-0.068,-13.188,-16.312,-4.375,4, -10, -7, -1, -1, 0, -12, -1
1503612455023,-0.376,-0.372,+0.535,+0.659,+1.012,-0.044,-0.101,-12.938,-16.688,-2.375,-3, 5, 0, -2, 3, -1, 0, 0
1503612455044,-0.377,-0.369,+0.534,+0.661,+1.027,-0.044,-0.112,-11.125,-19.125,+1.750,-3, 3, 2, 2, 10, 3, -3, 3
1503612455066,-0.377,-0.367,+0.532,+0.663,+1.021,-0.079,-0.107,-11.062,-19.062,+1.312,-4, -3, -2, 0, -5, -4, -10, -1
1503612455082,-0.377,-0.365,+0.531,+0.666,+1.016,-0.099,-0.095,-9.312,-18.438,+0.750,4, 4, 3, 0, 5, 1, -4, -5
1503612455104,-0.377,-0.363,+0.529,+0.667,+1.010,-0.098,-0.114,-8.188,-17.562,-2.688,5, 4, 4, 1, 5, 0, 4, 2
1503612455127,-0.379,-0.361,+0.529,+0.668,+0.964,-0.083,-0.093,-8.750,-14.625,-12.125,-3, -5, -1, -2, -12, 3, 4, -2
1503612455142,-0.381,-0.358,+0.529,+0.668,+0.957,-0.067,-0.096,-8.688,-12.812,-17.688,0, -2, -2, -4, -6, -2, 12, -11
1503612455164,-0.382,-0.354,+0.528,+0.670,+1.027,-0.079,-0.185,-11.125,-21.188,-9.312,0, -1, -2, -2, 0, 1, -9, -3
1503612455188,-0.384,-0.351,+0.528,+0.671,+1.023,-0.019,-0.153,-11.500,-11.688,-11.250,2, 37, 12, 2, 2, -1, 6, -4
1503612455203,-0.385,-0.347,+0.529,+0.672,+0.972,-0.010,-0.132,-11.938,-11.062,-12.000,3, 3, 1, 0, 0, -1, -4, -4
1503612455225,-0.385,-0.345,+0.529,+0.673,+0.999,-0.061,-0.140,-12.562,-11.938,-5.688,-6, -15, -4, -1, -2, 1, 16, -5
1503612455246,-0.385,-0.343,+0.529,+0.674,+1.024,-0.054,-0.161,-11.562,-7.688,-1.688,-3, -12, -6, -3, -3, -4, 0, 12
1503612455263,-0.385,-0.342,+0.529,+0.675,+1.021,-0.034,-0.140,-8.688,-6.062,-4.000,1, -3, -2, 1, -2, -2, -2, 1
1503612455286,-0.386,-0.340,+0.528,+0.676,+1.012,-0.047,-0.144,-6.188,-10.312,-3.812,3, -6, 0, 2, 4, 0, -1, 4
1503612455307,-0.386,-0.339,+0.527,+0.677,+1.007,-0.061,-0.173,-4.562,-12.562,-2.750,0, 9, 4, -1, 3, 1, 2, 1
1503612455323,-0.387,-0.337,+0.527,+0.677,+0.951,-0.038,-0.186,-3.688,-7.500,-5.250,-18, -10, -9, -5, -5, -4, -11, -7
1503612455345,-0.388,-0.336,+0.527,+0.678,+0.945,-0.045,-0.176,-4.375,-3.688,-6.375,-2, -9, -5, 3, 8, 2, 3, -1
1503612455366,-0.388,-0.335,+0.527,+0.677,+0.985,-0.048,-0.185,-5.625,+2.375,-2.500,8, 3, 0, -1, 2, 1, 1, -2
1503612455384,-0.387,-0.335,+0.528,+0.677,+0.995,-0.043,-0.173,-5.500,+7.188,-0.250,2, 18, 9, 4, 1, -1, -9, 7
1503612455405,-0.387,-0.335,+0.529,+0.677,+0.973,-0.015,-0.174,-3.500,+5.375,-2.750,-4, -6, -2, -1, -2, -1, 6, -15
1503612455426,-0.388,-0.334,+0.530,+0.676,+0.972,-0.015,-0.174,-1.812,+1.312,-3.438,-4, -6, -2, 1, -1, -2, -17, 2
1503612455443,-0.388,-0.334,+0.530,+0.676,+1.014,-0.031,-0.181,-1.125,-0.250,+0.500,1, 5, 0, 0, 2, 5, 15, -1
1503612455465,-0.387,-0.334,+0.529,+0.677,+1.018,-0.034,-0.206,-1.875,-4.000,+4.188,-7, 6, 3, -1, 0, 0, -4, -13
1503612455487,-0.387,-0.334,+0.528,+0.678,+1.005,-0.051,-0.183,-1.688,-7.312,+6.688,-5, -4, -3, -4, 2, -1, -1, -3
1503612455503,-0.387,-0.335,+0.526,+0.680,+0.990,-0.059,-0.184,+0.188,-8.625,+8.500,-5, -14, -6, -3, -4, -4, -8, -15
1503612455525,-0.386,-0.335,+0.524,+0.681,+0.976,-0.060,-0.172,+0.188,-8.875,+7.375,-1, -4, -1, -1, -2, -3, -13, 4
1503612455546,-0.386,-0.335,+0.523,+0.682,+0.983,-0.057,-0.170,-0.188,-6.188,+4.750,1, -4, -4, -2, 3, -5, -8, -74
1503612455563,-0.386,-0.336,+0.523,+0.682,+0.987,-0.050,-0.172,+1.625,-2.562,+2.250,-4, -7, 0, 0, -6, -5, -1, 18
1503612455585,-0.387,-0.336,+0.523,+0.681,+0.975,-0.053,-0.165,+3.125,+1.062,-2.438,2, 1, -4, 0, 2, 2, 0, 17
1503612455614,-0.388,-0.337,+0.524,+0.680,+0.951,-0.042,-0.156,+6.062,+6.062,-6.250,1, 2, 0, -3, -3, 0, 6, 6
1503612455623,-0.389,-0.338,+0.525,+0.678,+0.947,-0.053,-0.149,+8.938,+11.250,-7.750,0, 3, -2, -1, 5, 1, -3, 1
1503612455645,-0.390,-0.339,+0.526,+0.675,+0.974,-0.049,-0.162,+8.188,+10.938,-8.125,-7, 8, 6, 3, 6, -4, -4, -68
1503612455666,-0.391,-0.340,+0.527,+0.674,+0.977,-0.053,-0.164,+5.062,+9.938,-6.375,0, -1, -4, -2, -5, 1, -1, 19
1503612455683,-0.391,-0.341,+0.528,+0.673,+0.989,-0.040,-0.164,+3.625,+6.750,-5.188,5, -5, -1, 1, 21, 6, 15, 10
1503612455705,-0.392,-0.341,+0.528,+0.672,+1.013,-0.042,-0.172,+3.250,+1.375,-1.562,-8, -12, 1, -1, -7, -2, -9, 8
1503612455727,-0.392,-0.341,+0.527,+0.672,+1.016,-0.045,-0.173,+1.750,-3.125,+1.312,-1, 1, -3, -1, -6, -1, -5, -65
1503612455743,-0.393,-0.341,+0.526,+0.673,+1.001,-0.039,-0.165,+2.125,-7.625,+3.938,6, 5, 0, 1, 5, -1, 0, 33
1503612455765,-0.393,-0.342,+0.524,+0.674,+0.993,-0.046,-0.156,+2.000,-10.188,+5.188,4, -6, -4, 0, 10, 2, 9, 13
1503612455788,-0.393,-0.342,+0.523,+0.675,+0.991,-0.041,-0.163,+3.562,-8.125,+4.125,2, 12, 2, -1, -7, -3, -4, 12
1503612455803,-0.394,-0.343,+0.521,+0.675,+0.985,-0.042,-0.171,+6.125,-4.500,+5.000,3, 26, 9, 2, -1, 1, -4, 6
1503612455825,-0.394,-0.344,+0.520,+0.675,+0.978,-0.039,-0.180,+7.875,-2.000,+5.000,-6, -12, -4, -1, -5, -3, -3, 3
1503612455846,-0.395,-0.346,+0.520,+0.674,+0.982,-0.032,-0.158,+9.000,+0.625,+3.250,1, -2, -2, -2, -6, 0, 2, 14
1503612455863,-0.395,-0.347,+0.519,+0.673,+1.000,-0.033,-0.155,+11.312,+2.000,+2.938,-5, -12, -5, -2, -4, 0, -3, 6
1503612455887,-0.396,-0.349,+0.519,+0.672,+1.003,-0.050,-0.160,+11.875,+2.750,+1.500,-10, 10, 9, 6, 4, 1, -5, -12
1503612455907,-0.397,-0.351,+0.518,+0.671,+0.995,-0.044,-0.160,+13.125,+1.375,-0.062,6, -6, -3, -3, -4, -4, -3, 7
1503612455929,-0.399,-0.352,+0.517,+0.670,+0.989,-0.033,-0.166,+14.438,-1.062,-0.938,0, -3, -3, 1, 2, -1, -3, -69
1503612455944,-0.401,-0.354,+0.516,+0.669,+0.989,-0.045,-0.162,+16.375,+0.500,-1.312,3, -1, -2, -1, -1, -3, -2, 23
1503612455966,-0.403,-0.356,+0.515,+0.667,+0.986,-0.080,-0.158,+17.188,+1.438,-2.438,-4, -3, -1, 0, -1, 0, -2, 3
1503612455983,-0.404,-0.359,+0.515,+0.666,+0.970,-0.081,-0.150,+16.625,+3.625,-4.000,10, -7, -4, -4, 0, -3, 15, 14
1503612456005,-0.406,-0.360,+0.514,+0.664,+0.972,-0.060,-0.140,+15.188,+3.750,-5.438,-10, -10, -3, -1, -1, 0, -4, -1
1503612456027,-0.407,-0.362,+0.514,+0.662,+0.986,-0.051,-0.138,+14.562,+5.375,-1.750,-1, 15, 6, 1, 8, 1, -2, 9
1503612456043,-0.408,-0.365,+0.514,+0.661,+0.997,-0.062,-0.136,+13.812,+8.062,+0.312,-1, -7, -3, -2, -3, -2, -2, 6
1503612456065,-0.408,-0.367,+0.514,+0.659,+1.008,-0.080,-0.138,+12.312,+6.438,+0.250,-4, 2, 1, 0, -4, -2, 4, 6
1503612456089,-0.409,-0.369,+0.514,+0.658,+1.010,-0.073,-0.152,+10.750,+4.500,+0.625,-1, 1, -1, -2, -1, 1, -2, 0
1503612456103,-0.410,-0.370,+0.513,+0.657,+1.000,-0.052,-0.150,+11.062,+4.750,+0.938,8, -4, -2, 0, -1, 0, 6, 50
1503612456125,-0.410,-0.372,+0.513,+0.656,+0.990,-0.060,-0.149,+12.500,+4.500,+2.562,-5, 12, 3, 1, 9, -1, -6, -3
1503612456147,-0.411,-0.374,+0.512,+0.655,+0.975,-0.071,-0.146,+12.375,+3.062,+1.688,-8, -8, -4, -2, -6, -4, -2, -10
1503612456163,-0.412,-0.376,+0.511,+0.654,+0.968,-0.065,-0.145,+12.750,+4.562,+1.562,-4, -6, -3, -1, -1, 1, -3, -14
1503612456185,-0.413,-0.378,+0.511,+0.652,+0.970,-0.057,-0.161,+13.500,+6.062,+0.062,3, 1, -2, 0, 0, -1, -6, -9
1503612456207,-0.414,-0.380,+0.511,+0.650,+0.970,-0.066,-0.161,+13.438,+7.875,-3.438,2, -4, -3, 0, -12, -3, -1, 9
1503612456224,-0.416,-0.382,+0.511,+0.649,+0.966,-0.079,-0.152,+13.875,+7.312,-5.062,2, -11, -7, -2, 3, 2, 0, -18
1503612456245,-0.417,-0.384,+0.511,+0.646,+0.966,-0.080,-0.136,+15.500,+9.562,-7.125,8, -11, -5, -4, -3, -3, 2, -10
1503612456267,-0.419,-0.385,+0.511,+0.644,+0.968,-0.062,-0.134,+17.188,+9.250,-9.750,0, 3, -1, -3, -2, -3, -4, -4
1503612456291,-0.422,-0.387,+0.511,+0.641,+0.985,-0.059,-0.140,+17.188,+8.250,-10.312,6, 9, 0, -3, -2, -2, -2, -2
1503612456305,-0.424,-0.389,+0.511,+0.639,+0.998,-0.058,-0.153,+16.688,+5.125,-8.125,-5, -10, -5, -3, -2, -3, -3, -7
1503612456328,-0.426,-0.390,+0.511,+0.637,+0.999,-0.060,-0.140,+16.938,+4.875,-5.750,3, -9, -3, -1, -3, 1, 2, 10
1503612456349,-0.427,-0.392,+0.510,+0.635,+0.985,-0.080,-0.122,+16.875,+5.500,-3.688,-1, 1, 2, -1, -4, 0, -3, -13
1503612456365,-0.428,-0.395,+0.509,+0.634,+0.985,-0.073,-0.121,+15.812,+2.938,-0.375,-5, -11, -2, 0, 0, -1, 3, 8
1503612456387,-0.430,-0.397,+0.508,+0.633,+1.006,-0.062,-0.133,+15.000,+2.688,+2.188,-14, 7, 3, 1, -2, -1, -5, -2
1503612456403,-0.431,-0.399,+0.507,+0.632,+1.030,-0.060,-0.153,+15.062,+2.062,+3.875,0, 6, -1, 0, -3, -2, -3, -1
1503612456425,-0.432,-0.401,+0.505,+0.631,+1.040,-0.064,-0.142,+16.000,-1.375,+6.375,4, -1, -1, 1, 1, -1, -3, -5
1503612456447,-0.433,-0.403,+0.503,+0.631,+1.018,-0.068,-0.110,+17.562,-3.062,+6.438,6, -12, -7, -2, -2, 0, 0, 1
1503612456469,-0.434,-0.406,+0.500,+0.630,+1.003,-0.060,-0.123,+18.250,-3.125,+7.188,-5, 2, -1, -4, -3, 0, -2, 1
1503612456485,-0.435,-0.408,+0.499,+0.629,+0.997,-0.063,-0.116,+18.000,+3.125,+7.688,6, 9, 1, -2, -16, -4, 5, -1
1503612456507,-0.435,-0.411,+0.498,+0.627,+1.004,-0.054,-0.105,+18.438,+6.688,+6.062,-8, -9, -2, -1, 6, 4, 2, 5
1503612456529,-0.436,-0.415,+0.497,+0.625,+1.030,-0.054,-0.110,+19.938,+5.688,+7.500,2, -14, -6, 0, 0, -2, 2, 2
1503612456545,-0.437,-0.418,+0.495,+0.624,+1.031,-0.069,-0.107,+21.875,+4.688,+7.188,1, -5, -2, -3, 3, 1, -2, -5
1503612456567,-0.438,-0.421,+0.493,+0.623,+1.008,-0.084,-0.092,+21.125,+0.000,+6.625,0, -1, 1, 1, 4, -1, -2, -3
1503612456589,-0.439,-0.424,+0.491,+0.622,+0.985,-0.073,-0.121,+20.062,-2.062,+8.312,0, 2, 0, -1, -1, -2, -7, -6
1503612456605,-0.440,-0.426,+0.489,+0.621,+0.972,-0.060,-0.118,+19.125,+3.875,+8.875,-5, -2, -1, -1, -1, 0, -2, -1
1503612456627,-0.440,-0.430,+0.488,+0.619,+0.991,-0.066,-0.111,+20.125,+8.312,+11.625,4, 15, 3, 2, -3, 0, -1, -8
1503612456649,-0.440,-0.434,+0.486,+0.618,+1.000,-0.079,-0.119,+20.062,+4.688,+15.250,-4, 9, 0, -3, -3, -2, 0, 14
1503612461007,-0.437,-0.377,+0.476,+0.664,+0.963,-0.100,-0.247,-6.062,+5.125,+8.375,-12, 1, 1, 3, 1, -1, -12, -17
1503612461029,-0.435,-0.378,+0.476,+0.664,+0.973,-0.119,-0.216,-6.812,+5.812,+9.000,1, 2, 1, -2, -4, -15, -18, 4
1503612461052,-0.433,-0.379,+0.476,+0.665,+0.974,-0.136,-0.220,-5.938,+8.000,+8.312,-11, -3, -2, -3, -1, -2, -4, -6
1503612461067,-0.431,-0.381,+0.477,+0.664,+0.959,-0.125,-0.238,-2.188,+15.312,+6.562,-9, -9, -1, -1, -1, 3, 10, 2
1503612461090,-0.430,-0.383,+0.479,+0.663,+0.960,-0.110,-0.248,+2.375,+22.562,+0.938,1, 8, -2, 2, 3, -2, 2, -4
1503612461111,-0.429,-0.385,+0.481,+0.661,+0.978,-0.098,-0.235,+5.125,+21.625,-2.625,-2, -5, -4, -1, -5, 0, 3, 5
1503612461127,-0.429,-0.387,+0.483,+0.658,+0.958,-0.088,-0.219,+9.875,+24.750,-4.688,2, -3, -2, -3, -6, -4, 3, 3
1503612461149,-0.429,-0.390,+0.485,+0.654,+0.940,-0.091,-0.179,+13.688,+26.500,-5.812,7, 49, 32, 8, 5, 3, 1, -1
1503612461171,-0.430,-0.393,+0.487,+0.650,+0.973,-0.067,-0.167,+16.812,+28.438,-6.438,4, -15, -13, -4, -4, 0, 1, -3
1503612461187,-0.431,-0.398,+0.489,+0.646,+1.015,-0.051,-0.198,+24.500,+30.688,-4.250,4, -12, -8, -2, -4, 3, 32, 59
1503612461209,-0.433,-0.401,+0.490,+0.641,+1.007,-0.094,-0.156,+28.250,+18.875,-10.750,1, -6, 0, 0, -4, 1, -16, -32
1503612461231,-0.437,-0.404,+0.489,+0.638,+0.985,-0.117,-0.135,+27.625,+5.562,-15.750,-4, -6, -6, -3, 0, -3, -14, -17
1503612461247,-0.440,-0.406,+0.488,+0.634,+0.993,-0.109,-0.125,+28.438,+2.750,-14.875,-1, 0, -1, 0, 1, -4, 0, 9
1503612461269,-0.444,-0.409,+0.487,+0.632,+1.009,-0.102,-0.120,+25.562,-0.812,-11.812,17, 3, 0, -3, 1, 0, 10, 7
1503612461293,-0.447,-0.410,+0.486,+0.630,+1.024,-0.094,-0.118,+19.062,-7.625,-10.188,-10, -7, -4, -2, 1, 1, -9, -12
1503612461307,-0.450,-0.410,+0.484,+0.629,+1.006,-0.073,-0.114,+14.062,-11.062,-10.188,-5, 1, 0, -1, -1, -1, -2, -2
1503612461330,-0.453,-0.409,+0.483,+0.628,+0.984,-0.049,-0.108,+11.125,-12.312,-10.188,-1, -1, -2, -1, 3, 2, 1, -14
1503612461359,-0.455,-0.410,+0.481,+0.628,+1.015,-0.063,-0.129,+11.625,-12.688,-2.250,3, 0, 0, -3, -5, 1, -6, 10
1503612461368,-0.456,-0.410,+0.480,+0.628,+1.019,-0.057,-0.143,+5.125,-8.688,+3.250,3, -8, -1, -1, -3, -5, -11, 50
1503612461392,-0.455,-0.409,+0.480,+0.628,+0.990,-0.036,-0.108,-3.812,-6.000,+4.312,-7, -3, -4, 1, 0, 1, -2, -13
1503612461411,-0.455,-0.409,+0.480,+0.629,+0.931,-0.020,-0.093,-9.375,-6.375,+6.125,6, 9, 4, 1, 3, 1, -3, -33
1503612461429,-0.453,-0.408,+0.481,+0.631,+0.957,-0.021,-0.122,-14.375,-2.250,+9.000,-14, -31, -10, -3, 0, -2, 3, -7
1503612461449,-0.450,-0.407,+0.481,+0.633,+1.008,-0.012,-0.147,-16.688,+1.188,+15.500,-1, -3, 0, 2, 0, 0, -5, 16
1503612461471,-0.448,-0.405,+0.482,+0.635,+1.050,-0.024,-0.131,-22.438,-7.562,+15.125,5, 7, -1, -1, -2, -2, -4, -7
1503612461487,-0.446,-0.402,+0.482,+0.638,+1.033,-0.034,-0.149,-22.875,-14.312,+9.312,-1, -1, -2, 0, 1, 1, 4, -14
1503612461509,-0.445,-0.399,+0.481,+0.641,+0.959,-0.060,-0.157,-20.188,-16.875,+6.812,10, -14, -7, -3, -3, -1, -2, -7
1503612461531,-0.444,-0.396,+0.481,+0.644,+0.932,-0.071,-0.171,-20.500,-12.875,+6.125,-2, 2, 0, -1, -2, -3, -8, 11
1503612461547,-0.442,-0.395,+0.481,+0.646,+0.942,-0.083,-0.172,-18.625,-3.125,+3.812,0, 13, 2, -1, -3, 1, 1, -25
1503612461569,-0.440,-0.393,+0.482,+0.647,+1.003,-0.108,-0.162,-16.688,-0.188,+1.062,-15, -5, -2, 0, -6, -3, 0, -3
1503612461594,-0.440,-0.391,+0.481,+0.649,+1.064,-0.095,-0.222,-13.812,-14.812,+0.375,-6, -3, -1, 0, 0, -3, 11, 6
1503612461607,-0.442,-0.387,+0.479,+0.653,+1.037,-0.085,-0.247,-11.562,-31.500,-1.625,-9, 4, 4, 0, 2, -1, -3, 0
1503612461631,-0.444,-0.382,+0.475,+0.656,+0.938,-0.079,-0.207,-11.500,-37.875,-7.062,2, 10, 3, 2, -5, 3, -3, 13
1503612461651,-0.446,-0.379,+0.473,+0.659,+0.891,-0.085,-0.204,-8.375,-29.125,-4.625,1, -2, -2, -5, -5, 1, 9, -20
1503612461667,-0.446,-0.378,+0.472,+0.660,+0.920,-0.092,-0.225,-7.062,-9.312,+1.125,-2, -2, -2, -1, 1, -2, -15, -8
1503612461690,-0.445,-0.378,+0.472,+0.661,+1.000,-0.082,-0.245,-5.938,+2.000,+4.688,27, 8, 1, 2, 1, -4, -4, 1
1503612461712,-0.445,-0.378,+0.471,+0.661,+1.049,-0.083,-0.235,-1.812,-5.375,+6.938,6, 24, 13, 5, 2, 1, -6, -3
1503612461730,-0.446,-0.377,+0.469,+0.663,+1.009,-0.100,-0.241,+1.938,-16.562,+1.312,-5, -1, -3, -2, 0, 2, 12, -13
1503612461750,-0.448,-0.376,+0.466,+0.664,+0.958,-0.095,-0.246,+4.375,-21.125,-0.812,-9, -4, -7, -4, -3, 2, 1, -6
1503612461772,-0.448,-0.376,+0.463,+0.665,+0.943,-0.083,-0.246,+3.438,-14.625,+4.688,-14, -8, -4, -1, 5, -2, -7, 7
1503612461787,-0.448,-0.377,+0.462,+0.666,+0.946,-0.084,-0.240,+3.312,-4.562,+7.438,0, -7, -2, -2, -2, 0, -5, -5
1503612461810,-0.448,-0.378,+0.461,+0.667,+0.964,-0.094,-0.261,+5.688,-2.188,+7.562,15, 0, -4, -2, -2, -4, -2, 1
1503612461832,-0.448,-0.379,+0.459,+0.667,+0.984,-0.102,-0.261,+7.375,-1.938,+6.500,-11, -13, -1, -1, 0, -4, -1, -1
1503612461847,-0.448,-0.380,+0.458,+0.667,+0.964,-0.094,-0.230,+6.750,-1.750,+3.375,-4, -1, -4, -2, 1, -3, -12, -3
1503612461870,-0.449,-0.381,+0.457,+0.666,+0.966,-0.102,-0.220,+7.938,-3.562,+2.125,5, 7, 1, 1, -2, 0, -1, -14
1503612461892,-0.450,-0.383,+0.456,+0.666,+0.981,-0.094,-0.223,+8.625,-2.562,+3.500,19, 3, 0, 0, 0, 1, 1, 17
1503612461907,-0.450,-0.383,+0.455,+0.666,+0.989,-0.081,-0.230,+8.062,-5.750,+3.500,-8, -4, -5, -2, -2, -1, 4, 10
1503612461931,-0.451,-0.384,+0.453,+0.666,+0.984,-0.082,-0.250,+9.500,-7.312,+5.062,-6, 1, -1, 1, 0, 1, 5, 10
1503612461953,-0.452,-0.385,+0.451,+0.666,+0.975,-0.089,-0.248,+10.438,-7.938,+5.875,2, -1, -2, -1, -1, -1, -2, -14
1503612461967,-0.453,-0.387,+0.449,+0.667,+0.969,-0.097,-0.236,+9.875,-7.625,+7.625,-3, -4, -3, -2, 0, 0, 1, -26
1503612461990,-0.452,-0.388,+0.447,+0.667,+0.964,-0.098,-0.239,+8.938,-4.938,+10.812,0, -8, -4, -1, 1, 2, -4, -12
1503612462012,-0.452,-0.390,+0.445,+0.667,+0.975,-0.090,-0.259,+9.812,-1.875,+13.688,9, 1, -1, -1, -2, -2, -1, 9
1503612466235,-0.450,-0.476,+0.516,+0.552,+0.990,-0.052,+0.069,-12.312,-7.188,-11.812,18, 3, 0, 1, -1, -2, 0, 9
1503612466250,-0.450,-0.474,+0.518,+0.551,+0.981,-0.030,+0.085,-11.125,-1.875,-14.500,-6, -3, -2, -2, 0, 1, -3, 3
1503612466272,-0.451,-0.472,+0.520,+0.551,+0.982,-0.027,+0.061,-9.312,-1.562,-14.625,0, -1, 0, 0, -1, -2, 2, 4
1503612466294,-0.452,-0.470,+0.521,+0.551,+1.006,-0.022,+0.028,-10.062,-4.125,-11.438,-2, -2, -4, 1, 3, 0, -4, -5
1503612466316,-0.453,-0.467,+0.522,+0.552,+1.011,-0.010,+0.017,-13.125,-10.875,-6.188,-11, -3, -2, -2, -2, -2, -7, -30
1503612466332,-0.453,-0.464,+0.522,+0.554,+0.984,-0.014,+0.027,-15.250,-17.500,-3.750,5, 2, -1, -1, 0, 0, -8, 16
1503612466353,-0.454,-0.460,+0.521,+0.558,+0.979,-0.029,-0.002,-18.000,-22.562,-2.188,-1, 7, 4, 2, 1, 1, -3, 9
1503612466376,-0.454,-0.457,+0.520,+0.561,+0.936,-0.029,-0.041,-16.188,-19.812,+3.875,0, 2, -2, 3, 10, -1, 3, 7
1503612466393,-0.454,-0.455,+0.519,+0.563,+0.923,-0.044,-0.043,-14.188,-8.500,+0.062,-21, -5, -3, -3, -2, 1, 1, -7
1503612466414,-0.453,-0.454,+0.521,+0.563,+0.955,-0.039,-0.008,-10.438,+5.000,-7.438,-3, -5, -1, -1, 4, -1, 11, 1
1503612466436,-0.453,-0.453,+0.524,+0.562,+1.024,-0.010,-0.002,-9.875,+10.250,-11.125,10, 8, 1, -2, -4, -1, -4, 0
1503612466452,-0.455,-0.451,+0.525,+0.560,+1.040,+0.016,+0.007,-0.875,+1.875,-16.812,5, 3, 1, 3, -1, -1, 1, 37
1503612466474,-0.459,-0.448,+0.526,+0.559,+1.019,+0.012,-0.043,+4.812,-8.062,-25.688,-3, -5, -2, -1, -2, 1, 0, -3
1503612466496,-0.463,-0.445,+0.526,+0.558,+1.023,+0.013,-0.052,+4.062,-13.938,-22.000,9, 7, 4, 2, -5, -3, -9, -6
1503612466512,-0.464,-0.443,+0.526,+0.558,+1.016,-0.001,+0.040,-4.500,-8.750,-11.375,-3, -3, -1, -5, -22, 0, -1, 19
1503612466534,-0.464,-0.442,+0.527,+0.559,+1.054,+0.006,+0.060,-11.625,-10.562,-0.312,-1, -4, 0, 0, 1, -1, -6, -10
1503612466556,-0.464,-0.439,+0.526,+0.562,+1.075,+0.031,+0.026,-14.375,-20.625,+3.062,-4, 3, 1, -3, 2, -4, -5, -18
1503612466572,-0.465,-0.435,+0.524,+0.566,+1.062,+0.048,-0.021,-15.938,-36.250,-0.625,-1, -4, -5, -3, -4, -3, 3, -1
1503612466603,-0.468,-0.430,+0.521,+0.570,+0.972,+0.019,-0.038,-12.688,-40.188,-1.438,-7, -4, 0, -1, 3, -1, 1, -5
1503612466616,-0.468,-0.427,+0.520,+0.573,+0.907,-0.042,+0.003,-16.500,-29.125,-0.375,8, -2, 1, 1, 5, 0, -3, 9
1503612466632,-0.467,-0.424,+0.520,+0.576,+0.961,-0.039,-0.010,-20.438,-19.750,-1.500,-3, -4, -1, 0, 1, 0, -3, -4
1503612466654,-0.467,-0.420,+0.520,+0.579,+1.011,+0.016,-0.068,-21.062,-14.000,-3.750,-14, -5, -2, -1, -2, -2, -5, -48
1503612466676,-0.468,-0.415,+0.521,+0.581,+0.999,+0.054,-0.062,-21.562,-19.250,-8.062,-2, -4, -1, -2, -4, 0, 7, 15
1503612466692,-0.469,-0.411,+0.521,+0.583,+1.010,+0.070,-0.086,-17.875,-23.438,-8.188,-11, -1, -3, -2, -2, -3, -1, 0
1503612466714,-0.470,-0.407,+0.520,+0.585,+0.969,+0.036,-0.080,-13.750,-16.000,-5.812,12, 2, 0, 2, 7, 0, -3, 4
1503612466736,-0.470,-0.405,+0.521,+0.586,+0.942,+0.018,-0.070,-14.188,-5.250,-6.812,-9, -2, -2, -2, -4, -1, -3, 1
1503612466752,-0.469,-0.403,+0.523,+0.586,+0.986,+0.036,-0.084,-12.250,+3.375,-7.750,-5, 1, 1, 1, -6, -3, -20, -1
1503612466774,-0.470,-0.402,+0.525,+0.585,+1.027,+0.055,-0.107,-6.938,+3.562,-8.375,-2, 0, -2, -2, -3, 2, 4, 3
1503612466799,-0.471,-0.400,+0.525,+0.585,+1.032,+0.050,-0.100,-6.250,-7.562,-8.938,1, 6, 6, 3, 2, 1, -3, -1
1503612466812,-0.472,-0.397,+0.524,+0.587,+1.006,+0.038,-0.099,-6.562,-17.812,-5.000,5, 0, 2, -1, -1, -3, 9, -2
1503612466834,-0.473,-0.395,+0.523,+0.589,+0.976,+0.019,-0.089,-6.812,-17.500,-4.000,0, -3, -1, -2, -3, 0, 0, 2
1503612466856,-0.474,-0.394,+0.522,+0.590,+0.976,+0.017,-0.110,-6.250,-13.438,+0.750,-8, -4, -6, -6, -2, -4, -3, -16
1503612466872,-0.473,-0.393,+0.521,+0.592,+1.000,+0.025,-0.089,-7.125,-9.375,+3.125,1, -1, -2, -2, 2, -3, 0, 2
1503612466894,-0.473,-0.391,+0.521,+0.593,+1.017,+0.023,-0.072,-8.812,-11.438,+2.000,0, -1, 1, 1, 0, -1, -3, 3
1503612466916,-0.473,-0.390,+0.519,+0.596,+1.022,+0.011,-0.093,-10.812,-16.750,+2.938,0, 20, 8, -1, -2, -4, -8, 3
1503612466932,-0.473,-0.387,+0.518,+0.598,+1.000,+0.032,-0.114,-11.562,-16.625,+3.312,-14, -16, -2, -4, -4, -2, 3, -8
1503612466954,-0.473,-0.386,+0.518,+0.600,+0.966,+0.050,-0.128,-9.125,-10.125,+3.125,-9, 1, -1, 1, -1, 0, 2, -25
1503612466976,-0.472,-0.385,+0.518,+0.600,+0.965,+0.034,-0.103,-6.125,-0.688,-0.625,-1, 1, -1, -1, -3, 2, 2, 29
1503612466992,-0.472,-0.385,+0.519,+0.599,+0.999,+0.024,-0.118,-2.875,+7.000,-2.875,22, 8, 2, -1, 0, -3, 2, 58
1503612467014,-0.472,-0.385,+0.521,+0.598,+1.024,+0.069,-0.103,-1.312,+6.750,-7.625,2, 12, 3, 0, 3, 1, 6, 42
1503612467036,-0.474,-0.384,+0.521,+0.597,+1.032,+0.083,-0.117,+2.438,-0.750,-8.500,5, 5, 1, -1, 3, -1, 2, 7
1503612467052,-0.476,-0.384,+0.520,+0.597,+1.005,+0.062,-0.145,+6.312,-7.500,-4.000,-6, 0, -2, -2, 2, -1, -4, -5
1503612467074,-0.477,-0.384,+0.518,+0.597,+0.976,+0.043,-0.154,+5.375,-9.250,+2.125,1, 1, 0, 1, 4, -2, -4, -7
1503612467101,-0.477,-0.384,+0.516,+0.599,+0.978,+0.013,-0.130,+1.875,-6.812,+9.188,-12, -2, 1, -1, -7, -3, -6, -94
1503612467112,-0.475,-0.385,+0.515,+0.600,+1.005,-0.008,-0.114,-1.500,-5.688,+13.938,15, -1, 1, 0, -3, 0, -7, -7
1503612467134,-0.474,-0.386,+0.513,+0.602,+1.027,-0.004,-0.108,-2.562,-8.750,+12.500,0, -14, -7, -2, -1, -3, 1, -29
1503612467156,-0.474,-0.386,+0.511,+0.604,+1.013,+0.002,-0.129,-1.188,-11.938,+8.938,5, -6, -1, -2, -9, 2, 7, 19
1503612467172,-0.474,-0.386,+0.510,+0.605,+0.974,+0.009,-0.135,+0.375,-8.000,+3.750,8, 3, 7, 4, -12, -11, 6, 25
1503612467194,-0.474,-0.386,+0.510,+0.605,+0.942,+0.011,-0.124,+0.938,+3.125,-0.438,-6, -11, 0, -3, 6, 5, -13, 8
1503612467216,-0.474,-0.388,+0.512,+0.602,+0.942,+0.035,-0.112,+2.938,+17.875,-4.500,-9, 27, 6, 6, 7, 1, 3, -1
1503612467235,-0.473,-0.390,+0.515,+0.599,+0.992,+0.039,-0.119,+4.062,+28.312,-6.938,-13, -7, -1, 0, 3, 7, -8, -24
1503612467254,-0.473,-0.392,+0.517,+0.596,+1.038,+0.069,-0.128,+6.625,+23.438,-4.875,0, 5, 4, 0, -5, -7, -6, -7
1503612467277,-0.474,-0.393,+0.519,+0.594,+1.005,+0.072,-0.117,+6.938,+13.125,-5.188,1, 7, 1, -2, -4, -7, 3, 5
1503612467292,-0.474,-0.393,+0.518,+0.593,+1.006,+0.043,-0.122,+5.625,+1.125,+2.875,-11, 7, 1, 2, 3, 3, 8, 1
1503612467315,-0.474,-0.395,+0.516,+0.595,+1.011,+0.005,-0.130,+2.250,-4.312,+13.188,1, 5, 0, -3, 0, 1, 6, 6
1503612467338,-0.472,-0.395,+0.514,+0.597,+1.001,-0.009,-0.101,-1.875,-10.375,+16.062,4, -5, -2, -1, -3, 0, 14, 8
1503612467352,-0.472,-0.395,+0.511,+0.600,+0.996,-0.010,-0.117,-1.812,-17.500,+15.375,10, 4, 3, 1, 5, 2, 0, 39
1503612467375,-0.471,-0.396,+0.509,+0.602,+0.952,-0.026,-0.105,-3.125,-10.438,+9.750,0, -4, 0, 3, 2, 0, 2, 6
1503612467397,-0.470,-0.396,+0.510,+0.602,+0.943,-0.018,-0.087,-5.562,+4.562,+2.938,-4, -1, 0, 2, 2, -1, -12, -14
1503612467419,-0.468,-0.398,+0.513,+0.600,+0.949,+0.018,-0.096,-1.750,+24.938,-0.312,-5, -2, -2, -4, -3, -1, 2, -6
1503612467437,-0.467,-0.400,+0.516,+0.596,+1.013,+0.009,-0.093,+3.438,+31.750,-7.000,-18, 0, 1, -1, -4, -5, -5, 4
1503612467457,-0.467,-0.402,+0.518,+0.593,+1.110,+0.004,-0.116,+6.875,+20.625,-6.125,6, 1, 0, 0, 0, -1, -3, 9
1503612467472,-0.469,-0.401,+0.517,+0.593,+1.076,+0.029,-0.121,+4.562,-9.375,-7.438,-6, -6, -4, 0, 1, 2, 2, -8
1503612467495,-0.472,-0.399,+0.514,+0.595,+0.954,+0.015,-0.117,+3.000,-26.125,-5.250,3, 2, -1, -1, -2, 0, -2, -2
1503612467517,-0.473,-0.398,+0.512,+0.597,+0.921,-0.040,-0.101,-0.250,-19.500,+1.688,0, -3, -2, -2, 1, 5, 16, -33
1503612467537,-0.472,-0.398,+0.511,+0.599,+0.991,-0.042,-0.079,-7.500,-10.188,+6.062,11, 2, 0, -3, 0, -1, -3, 19
1503612467554,-0.471,-0.396,+0.510,+0.601,+1.038,+0.010,-0.115,-10.375,-13.125,+5.562,1, -4, -2, -2, -3, -4, -9, 2
1503612467577,-0.472,-0.394,+0.508,+0.603,+1.010,+0.027,-0.146,-7.312,-20.812,+1.250,-8, 4, 2, 2, -1, 0, -21, -1
1503612467592,-0.473,-0.391,+0.507,+0.605,+0.973,+0.002,-0.115,-7.000,-20.750,-1.688,-2, -4, 0, -3, -1, -1, 1, -5
1503612467615,-0.474,-0.389,+0.506,+0.606,+0.952,+0.009,-0.094,-8.188,-13.125,-2.688,4, 2, -1, -2, -5, 0, -1, -3
1503612467639,-0.474,-0.388,+0.507,+0.606,+0.957,+0.026,-0.100,-9.688,-3.750,-4.125,-5, -3, -3, 0, 4, -1, 8, 19
1503612467652,-0.474,-0.387,+0.509,+0.606,+1.003,+0.056,-0.111,-8.812,+2.125,-6.000,-12, 0, -1, 1, 5, 4, 9, 3
1503612467676,-0.474,-0.385,+0.510,+0.605,+1.042,+0.076,-0.129,-3.938,-1.562,-6.625,-8, 3, -1, -2, -4, -3, 0, 0
1503612467697,-0.476,-0.383,+0.509,+0.606,+1.038,+0.072,-0.158,-0.562,-11.375,-6.750,9, -6, -3, -4, -1, 2, 3, 45
1503612467712,-0.478,-0.382,+0.508,+0.606,+0.992,+0.048,-0.157,-1.312,-13.875,-5.062,4, 5, 4, 1, 1, -1, -2, 26
1503612467742,-0.479,-0.381,+0.507,+0.607,+0.964,+0.021,-0.133,-2.625,-10.312,-1.375,20, 4, 1, -2, -4, -2, -10, -11
1503612467756,-0.478,-0.381,+0.507,+0.608,+0.983,+0.011,-0.141,-2.438,-3.000,+2.438,-5, 1, -4, 0, -1, -2, -2, -24
1503612467773,-0.478,-0.381,+0.507,+0.608,+1.018,+0.024,-0.144,-3.375,+0.375,+4.750,-9, -3, 0, 0, 2, 2, 9, 0
1503612467794,-0.477,-0.381,+0.506,+0.609,+1.038,+0.031,-0.156,-3.750,-6.000,+6.625,-5, -6, -2, -1, 0, 0, 2, 20
1503612467816,-0.477,-0.380,+0.505,+0.611,+1.029,+0.028,-0.144,-4.125,-12.375,+7.375,-5, -8, 0, 0, 2, -1, 3, 3
1503612467832,-0.477,-0.379,+0.503,+0.613,+0.994,+0.010,-0.151,-4.188,-15.188,+6.812,10, -6, -4, -3, -5, 0, 4, 14
1503612467854,-0.477,-0.379,+0.502,+0.614,+0.966,+0.010,-0.159,-3.188,-8.562,+5.625,-8, -5, -3, -2, 0, -2, -1, -6
1503612467876,-0.476,-0.379,+0.502,+0.615,+0.975,+0.019,-0.156,-1.750,-0.562,+3.375,6, -1, 0, 0, 0, -1, -2, 12
1503612467892,-0.476,-0.379,+0.502,+0.614,+0.976,+0.025,-0.157,-0.312,+3.500,-0.625,-1, 1, 1, 0, -4, -2, -13, 10
1503612467914,-0.477,-0.379,+0.503,+0.613,+0.965,+0.014,-0.160,+1.750,+5.938,-6.875,0, -6, -4, -3, 1, 0, 8, 5
1503612467938,-0.477,-0.380,+0.505,+0.611,+0.937,+0.013,-0.156,+4.250,+15.688,-11.562,1, 12, 3, -1, -2, -2, -18, -9
1503612467952,-0.478,-0.382,+0.507,+0.607,+0.958,+0.017,-0.140,+5.500,+21.438,-12.062,17, 6, 1, -3, -2, -1, 2, 41
1503612467975,-0.478,-0.383,+0.509,+0.605,+1.007,+0.038,-0.134,+3.938,+15.500,-9.375,-3, 1, -1, 0, 3, 6, 6, 0
1503612467996,-0.479,-0.382,+0.509,+0.604,+1.014,+0.032,-0.150,+0.250,+1.875,-4.812,2, 0, 1, -1, -1, -1, 8, -15
1503612468012,-0.479,-0.382,+0.508,+0.606,+1.007,+0.033,-0.168,-2.500,-9.688,+4.750,-6, -5, 2, 0, -2, 1, 2, -1
1503612468034,-0.479,-0.381,+0.506,+0.608,+0.983,+0.026,-0.180,-4.812,-16.062,+12.062,21, -5, -8, -1, 0, 2, 4, 2
1503612468056,-0.477,-0.380,+0.503,+0.612,+0.994,+0.005,-0.155,-8.000,-17.250,+16.312,-4, -1, -2, -1, -1, -4, -8, -21
1503612468072,-0.476,-0.380,+0.501,+0.615,+1.000,+0.004,-0.148,-7.625,-18.188,+17.062,-10, -1, 0, -1, -5, -1, 2, 4
1503612468094,-0.475,-0.379,+0.499,+0.618,+0.993,+0.004,-0.156,-6.500,-16.938,+12.188,-1, -2, 1, 2, 8, -1, -12, 7
1503612468116,-0.475,-0.378,+0.497,+0.619,+0.983,+0.005,-0.149,-3.625,-12.875,+6.125,-10, 0, -1, -3, -6, 1, 8, -60
1503612468133,-0.476,-0.378,+0.497,+0.619,+0.957,+0.008,-0.146,-0.875,-1.812,-0.812,-11, -1, -3, -2, -3, 2, -1, 11
1503612468154,-0.476,-0.379,+0.499,+0.618,+0.949,+0.017,-0.149,+2.500,+10.000,-5.312,3, -23, -5, -2, -1, 0, 0, 0
1503612468177,-0.476,-0.380,+0.501,+0.615,+0.962,+0.031,-0.167,+4.688,+18.188,-9.062,3, 15, 6, -1, 1, 0, 0, 9
1503612468192,-0.477,-0.381,+0.503,+0.612,+1.009,+0.049,-0.151,+5.938,+18.375,-11.312,7, -1, -1, -3, -3, -3, -15, 7
1503612468216,-0.478,-0.381,+0.504,+0.609,+1.031,+0.053,-0.147,+7.188,+7.562,-10.500,-4, 2, -2, -1, -5, -5, -3, 8
1503612468241,-0.480,-0.382,+0.504,+0.608,+1.008,+0.030,-0.152,+7.000,-0.625,-5.312,-3, -6, -6, -2, -1, 2, 5, -5
1503612468252,-0.480,-0.383,+0.503,+0.609,+0.974,-0.001,-0.169,+6.062,-2.250,+1.438,-8, 0, 0, -1, 1, 2, 9, 10
1503612468275,-0.480,-0.384,+0.502,+0.609,+0.968,-0.023,-0.159,+4.688,+0.375,+4.750,-11, -3, -4, -2, -1, -2, -14, 3
1503612468297,-0.480,-0.385,+0.501,+0.609,+1.003,-0.013,-0.143,+1.438,-1.250,+5.000,3, -1, 2, 0, 0, -1, -2, 1
1503612468312,-0.479,-0.385,+0.500,+0.610,+1.016,+0.017,-0.128,-1.188,-7.562,+6.625,3, 5, 2, 2, 1, -1, 3, -1
1503612468334,-0.479,-0.384,+0.498,+0.612,+1.007,+0.015,-0.144,-1.250,-11.875,+6.812,8, 4, 0, 1, 1, 1, 6, -1
1503612468357,-0.480,-0.384,+0.497,+0.613,+0.981,-0.000,-0.169,+1.062,-10.250,+7.000,-10, 5, 2, -1, 0, 0, 1, -14
1503612468374,-0.480,-0.385,+0.496,+0.613,+0.972,+0.012,-0.160,+0.750,-2.875,+4.062,-1, -7, -1, 0, -1, -1, 0, -3
1503612468394,-0.479,-0.386,+0.496,+0.613,+0.962,-0.001,-0.131,+1.562,+5.375,+1.812,9, 11, 2, 1, -2, 0, 14, 14
1503612468417,-0.479,-0.387,+0.497,+0.611,+0.972,-0.001,-0.137,+1.500,+9.938,-1.688,-3, 1, 0, -2, -1, 1, -2, 1
1503612468434,-0.479,-0.388,+0.498,+0.610,+0.987,+0.002,-0.167,+2.375,+9.750,-5.750,-9, -5, -5, -2, -2, -2, -1, 4
1503612468454,-0.480,-0.388,+0.499,+0.608,+0.990,+0.014,-0.144,+1.812,+8.062,-8.188,7, 1, 5, -1, 1, 1, 2, 7
1503612468479,-0.480,-0.388,+0.501,+0.607,+0.980,+0.043,-0.141,+0.750,+5.562,-8.188,7, 21, 9, 3, 1, 0, 1, -7
1503612468491,-0.481,-0.387,+0.501,+0.606,+0.993,+0.043,-0.151,+0.500,+3.375,-5.938,-3, 4, -2, -1, 1, 1, 10, 12
1503612468513,-0.481,-0.387,+0.502,+0.606,+1.020,+0.027,-0.151,+0.250,+0.688,-1.562,-2, -5, -1, -2, 0, -1, -4, -22
1503612468536,-0.482,-0.387,+0.501,+0.606,+1.018,+0.053,-0.168,-0.375,-4.562,+2.125,-10, -4, -2, -1, 1, 2, -1, -30
1503612468551,-0.482,-0.386,+0.500,+0.607,+1.008,+0.057,-0.167,-1.250,-8.312,+4.812,-19, 6, -1, -1, 0, 1, 4, 19
1503612468580,-0.482,-0.386,+0.499,+0.608,+0.982,+0.036,-0.151,+0.312,-6.188,+6.688,-4, 1, 0, 0, -1, 1, 3, 6
1503612468597,-0.482,-0.387,+0.498,+0.608,+0.986,+0.025,-0.146,+2.062,-3.000,+7.500,13, -4, 0, -3, -2, -2, -9, 39
1503612468613,-0.482,-0.388,+0.497,+0.608,+0.998,+0.028,-0.143,+3.875,-1.188,+6.625,7, -3, -2, 1, 1, -2, -2, -3
1503612468633,-0.482,-0.389,+0.496,+0.608,+0.994,+0.025,-0.155,+6.938,-0.562,+5.625,-4, -18, -5, -2, -4, -3, 0, -7
1503612468656,-0.483,-0.390,+0.495,+0.608,+0.992,+0.029,-0.162,+9.875,+0.562,+5.312,0, -5, 0, -1, -1, 2, 7, -3
1503612468679,-0.483,-0.392,+0.494,+0.607,+0.996,+0.028,-0.148,+10.000,+2.250,+5.250,-11, 9, 0, -1, -2, -3, 2, -8
1503612468701,-0.483,-0.394,+0.493,+0.607,+1.005,+0.033,-0.151,+10.812,+2.500,+6.688,18, 4, -2, -2, 1, 0, 2, -4
1503612468716,-0.483,-0.396,+0.492,+0.606,+1.007,+0.026,-0.149,+12.688,+3.875,+7.750,-12, -2, -2, 0, -1, 0, 2, 4
1503612468731,-0.484,-0.398,+0.491,+0.605,+0.997,+0.018,-0.137,+13.375,+3.062,+8.125,1, -4, -2, -1, -2, -1, 1, 5
1503612468753,-0.484,-0.401,+0.489,+0.604,+1.008,+0.021,-0.142,+14.875,-0.562,+9.562,1, 1, 2, -2, -2, -2, -8, 3
1503612472138,-0.374,-0.337,+0.550,+0.667,+1.028,-0.019,-0.094,-0.562,+9.500,-6.188,-20, 4, -1, -1, 2, -3, -4, -58
1503612472159,-0.375,-0.338,+0.551,+0.664,+1.010,-0.016,-0.104,+5.312,+10.062,-10.000,2, 1, 1, 1, 3, -4, 3, 19
1503612472181,-0.377,-0.338,+0.552,+0.662,+0.990,-0.017,-0.103,+11.062,+9.250,-16.312,11, -1, 0, 1, 3, -3, 5, 4
1503612472197,-0.381,-0.339,+0.553,+0.659,+0.999,-0.016,-0.161,+17.375,+6.062,-19.812,-5, 0, 0, 1, 1, 7, -1, -1
1503612472219,-0.383,-0.340,+0.554,+0.657,+0.990,-0.055,-0.108,+12.438,+9.812,-14.562,2, 1, -3, -5, -7, -4, -3, 12
1503612472241,-0.383,-0.341,+0.553,+0.657,+1.073,-0.088,-0.070,-0.625,-2.312,+2.938,-4, 0, -2, -1, 2, 9, 6, 13
1503612472257,-0.380,-0.341,+0.553,+0.659,+1.069,-0.045,-0.089,-10.375,-3.750,+16.812,-5, -2, 1, 0, 0, 2, 5, 7
1503612472279,-0.380,-0.340,+0.550,+0.661,+0.959,+0.016,-0.132,-3.812,-17.250,+7.000,0, 1, 0, 1, 3, -3, -7, -6
1503612472302,-0.382,-0.339,+0.547,+0.664,+0.981,-0.013,-0.188,+2.938,-23.688,+3.812,1, 3, 1, 0, -2, 2, 3, 0
1503612472317,-0.383,-0.338,+0.544,+0.666,+0.987,-0.078,-0.133,+1.062,-19.000,+0.938,11, -6, -3, -2, -3, -3, -4, 1
1503612472339,-0.383,-0.337,+0.543,+0.667,+0.977,-0.079,-0.093,-3.375,-15.688,-0.812,-9, -9, -5, -2, -2, -6, -4, 4
1503612472360,-0.383,-0.336,+0.542,+0.668,+0.977,-0.033,-0.103,-6.688,-12.500,-2.375,-1, 7, 3, -1, -4, -1, 4, 1
1503612472377,-0.384,-0.335,+0.542,+0.668,+0.961,+0.002,-0.131,-2.938,-6.500,-4.938,-1, -4, -4, -2, 6, 2, -8, 0
1503612472399,-0.386,-0.334,+0.541,+0.668,+0.963,+0.011,-0.166,+5.125,-2.562,-7.188,11, 2, 5, 7, 0, -2, -3, 5
1503612472414,-0.389,-0.334,+0.542,+0.666,+0.947,-0.005,-0.151,+9.562,+3.500,-13.625,-1, -2, -5, -4, -7, -8, 1, 16
1503612472437,-0.391,-0.334,+0.543,+0.664,+0.967,-0.028,-0.124,+6.188,+5.062,-16.062,7, 0, -4, -4, 1, 8, 10, 0
1503612472459,-0.393,-0.333,+0.544,+0.662,+1.007,+0.013,-0.117,+2.125,+5.438,-14.812,-4, 1, -2, -2, -1, -3, 0, 4
1503612472474,-0.394,-0.332,+0.545,+0.661,+1.041,+0.044,-0.134,+0.188,-1.875,-6.812,-3, -12, -2, 1, -3, -1, -9, -14
1503612472497,-0.395,-0.331,+0.544,+0.662,+1.043,+0.040,-0.141,-2.062,-13.125,-0.562,-8, -1, -1, -1, 0, 2, 5, 12
1503612472519,-0.396,-0.329,+0.541,+0.665,+1.014,+0.036,-0.166,-2.688,-21.438,+3.688,28, 28, 4, -3, -2, -1, -3, -1
1503612472541,-0.397,-0.328,+0.539,+0.667,+0.988,-0.001,-0.126,-3.750,-23.000,+2.250,4, -10, -9, -3, 1, -6, -2, -35
1503612472557,-0.397,-0.326,+0.537,+0.669,+0.976,-0.028,-0.137,-5.750,-22.562,+2.250,-15, -16, -4, -3, -1, 1, 2, 4
1503612472579,-0.397,-0.324,+0.535,+0.671,+0.986,-0.016,-0.146,-7.375,-20.500,+1.438,-8, 1, 6, 0, -1, 2, 6, 24
1503612472600,-0.398,-0.323,+0.533,+0.673,+1.013,-0.003,-0.167,-8.000,-17.375,+1.500,9, -8, -5, -3, -1, 0, 5, 2
1503612472617,-0.398,-0.321,+0.532,+0.675,+0.995,-0.005,-0.181,-5.375,-16.562,+0.125,-11, -4, 0, 2, -1, 2, -6, -6
1503612472639,-0.399,-0.320,+0.530,+0.676,+0.965,-0.011,-0.196,-1.562,-12.000,-2.062,-9, 1, -1, -3, -15, -6, 5, 10
1503612472660,-0.401,-0.318,+0.529,+0.677,+0.966,-0.003,-0.211,+0.625,-12.938,-5.375,-8, 1, 1, -2, -1, 1, 3, -5
1503612472677,-0.402,-0.317,+0.529,+0.677,+0.948,+0.001,-0.186,-1.312,-7.250,-11.562,5, 5, 3, 5, 8, 4, 5, 16
1503612472699,-0.404,-0.315,+0.528,+0.677,+0.997,+0.030,-0.217,-3.062,-7.375,-7.188,2, 15, 5, -1, -1, -3, -2, -1
1503612472714,-0.404,-0.314,+0.528,+0.678,+1.017,+0.029,-0.218,-1.938,-6.500,-1.625,0, -32, -14, -7, -2, -3, -5, 6
1503612472739,-0.405,-0.314,+0.527,+0.678,+1.000,+0.008,-0.206,+1.000,-6.375,+0.625,-2, -3, 1, 2, 0, 0, 0, 1
1503612472759,-0.405,-0.314,+0.526,+0.679,+0.994,-0.014,-0.193,-1.688,-7.188,+2.625,9, -2, -3, -4, 0, -2, 0, -6
1503612472781,-0.404,-0.314,+0.525,+0.680,+1.010,-0.011,-0.191,-4.312,-10.500,+5.562,-9, 6, -1, 1, 1, -1, 3, -8
1503612472797,-0.404,-0.313,+0.523,+0.682,+1.013,-0.007,-0.193,-5.375,-13.812,+9.125,-8, -3, -1, -3, -2, -5, -8, -10
1503612472819,-0.403,-0.313,+0.522,+0.684,+0.985,-0.012,-0.189,-6.188,-12.938,+8.688,-4, 1, -1, 2, 8, 0, -1, 2
1503612472841,-0.402,-0.313,+0.521,+0.686,+0.952,-0.020,-0.196,-4.125,-7.375,+9.188,8, 9, 4, 2, -2, 3, 0, 5
1503612472857,-0.401,-0.312,+0.520,+0.686,+0.947,-0.017,-0.214,-4.750,-2.812,+4.750,-2, 3, -4, -3, -3, -1, 7, -4
1503612472879,-0.400,-0.313,+0.521,+0.686,+0.978,-0.005,-0.210,-5.375,+4.812,+3.250,0, 3, 2, -1, 0, -3, -5, 3
1503612472901,-0.399,-0.312,+0.522,+0.686,+0.986,+0.006,-0.223,-5.000,+4.750,+1.250,-4, -1, 1, 2, 2, -1, 0, -20
1503612472917,-0.399,-0.312,+0.522,+0.686,+0.971,+0.015,-0.237,-2.500,+2.688,+0.062,6, -5, -4, -2, -4, 0, -4, 5
1503612472940,-0.399,-0.312,+0.522,+0.686,+0.942,+0.011,-0.233,-0.500,+5.062,+0.312,22, 0, 1, 2, -4, 3, -2, 70
1503612472961,-0.399,-0.313,+0.523,+0.685,+0.957,-0.010,-0.207,+0.688,+6.688,+1.938,-12, -8, -2, -3, 2, -2, 2, 6
1503612472977,-0.398,-0.314,+0.523,+0.685,+0.990,-0.008,-0.205,-0.438,+6.188,+4.562,1, 1, -3, 0, 1, 1, 2, -10
1503612472999,-0.398,-0.314,+0.523,+0.685,+0.995,+0.000,-0.227,-1.938,+0.125,+4.438,-12, 12, 6, 1, -1, -1, -4, 20
1503612473021,-0.398,-0.314,+0.522,+0.686,+0.957,+0.002,-0.238,-0.750,-4.000,+4.812,-26, -11, -1, 0, 2, 1, -3, -75
1503612473037,-0.397,-0.315,+0.522,+0.686,+0.914,-0.010,-0.234,+1.125,+2.062,+3.500,2, 0, -2, 2, -2, 4, 11, -7
1503612473059,-0.397,-0.316,+0.523,+0.685,+0.908,-0.016,-0.187,+3.375,+13.500,-2.375,1, -4, -2, -4, -2, -5, -6, 4
1503612473082,-0.398,-0.317,+0.525,+0.682,+0.986,-0.016,-0.180,+5.688,+18.688,-6.750,8, 3, -3, -2, 6, -13, 1, 7
1503612473097,-0.399,-0.318,+0.527,+0.680,+1.035,+0.006,-0.186,+5.812,+14.438,-10.188,-1, -2, -5, 0, 2, 4, 3, 57
1503612473119,-0.401,-0.318,+0.528,+0.678,+1.000,+0.030,-0.206,+6.500,+5.000,-11.062,-13, -2, -1, -2, -3, -1, -12, 1
1503612473142,-0.403,-0.318,+0.528,+0.676,+0.968,+0.032,-0.188,+7.875,-0.125,-10.812,24, 7, 0, -1, -5, -1, -9, -15
1503612473157,-0.405,-0.318,+0.528,+0.676,+0.980,+0.000,-0.185,+7.062,-1.312,-6.562,-3, -2, -5, -3, -9, 1, 0, -18
1503612473179,-0.405,-0.319,+0.527,+0.675,+1.008,-0.026,-0.178,+4.625,+1.125,+1.375,3, 2, 3, 0, -2, -1, 0, -13
1503612473201,-0.404,-0.320,+0.527,+0.676,+1.031,-0.033,-0.165,-0.750,-4.062,+5.688,2, 7, 5, 2, 0, -1, 0, -8
1503612473217,-0.403,-0.320,+0.525,+0.677,+1.034,-0.008,-0.179,-3.125,-11.688,+8.500,-4, 11, 3, 1, -1, -1, 3, -13
1503612473241,-0.402,-0.320,+0.524,+0.679,+0.995,-0.025,-0.183,-2.938,-11.875,+10.750,-1, -6, -1, -3, -3, 0, 1, 6
1503612473261,-0.401,-0.320,+0.522,+0.681,+0.997,-0.045,-0.170,-4.625,-9.000,+9.688,-6, 9, 4, 0, 2, 0, 2, 2
1503612473277,-0.400,-0.321,+0.522,+0.682,+1.015,-0.025,-0.171,-4.750,-5.312,+9.250,1, -9, -7, -3, -3, 1, 2, -5
1503612473299,-0.399,-0.320,+0.521,+0.683,+1.021,+0.000,-0.190,-4.375,-6.500,+8.062,2, 0, -1, -1, 0, 1, -7, -7
1503612473321,-0.399,-0.320,+0.520,+0.684,+1.021,+0.002,-0.192,-3.625,-11.500,+6.688,2, -4, -1, -3, -4, -5, -13, 4
1503612473337,-0.399,-0.320,+0.518,+0.686,+0.979,+0.007,-0.210,-1.312,-10.188,+7.062,3, -1, -2, 2, -1, 1, -3, -1
1503612473359,-0.399,-0.320,+0.518,+0.686,+0.932,+0.009,-0.216,+1.750,-2.375,+7.125,-8, -9, -2, 5, 12, 4, 3, -7
1503612473381,-0.398,-0.321,+0.518,+0.686,+0.950,-0.005,-0.209,+3.000,+3.875,+5.750,-8, 3, -2, -2, -5, -1, 2, 8
1503612473397,-0.398,-0.322,+0.518,+0.685,+0.987,+0.000,-0.208,+4.688,+4.625,+5.562,29, -1, -1, 1, -1, -3, -1, 2
1503612473419,-0.398,-0.324,+0.517,+0.685,+0.991,-0.003,-0.199,+7.625,-0.062,+3.500,-3, 4, 2, -1, -1, 1, 1, 8
1503612473443,-0.400,-0.325,+0.516,+0.685,+0.969,-0.016,-0.216,+9.875,-4.938,+3.062,-15, -3, 1, -2, -2, 0, -1, -9
1503612473457,-0.401,-0.326,+0.514,+0.685,+0.939,-0.026,-0.229,+11.438,-4.438,+1.688,-8, -12, -5, -3, -1, -1, 4, -3
1503612473480,-0.402,-0.327,+0.513,+0.684,+0.944,-0.030,-0.212,+11.500,-0.625,+0.188,1, 2, -2, -1, -2, -1, -1, 9
1503612473501,-0.403,-0.329,+0.512,+0.684,+0.960,-0.038,-0.210,+13.000,+1.812,+2.000,5, 17, 7, 3, 3, 0, 0, -4
1503612473517,-0.404,-0.331,+0.511,+0.683,+0.972,-0.017,-0.227,+15.750,+2.625,+3.500,-1, -9, -3, -2, -3, -4, -6, 1
1503612473540,-0.406,-0.334,+0.509,+0.682,+0.985,-0.002,-0.227,+18.500,+1.438,+4.000,2, -3, -4, -1, 0, -2, -4, -5
1503612473561,-0.407,-0.337,+0.508,+0.681,+0.987,-0.022,-0.210,+21.938,+1.375,+6.250,-1, 2, 1, -2, -2, 0, 0, -8
1503612473578,-0.408,-0.341,+0.505,+0.680,+0.998,-0.064,-0.220,+24.188,-0.625,+9.438,-9, -3, -1, -2, -1, -1, 4, -4
1503612473599,-0.409,-0.345,+0.502,+0.679,+1.020,-0.093,-0.240,+26.312,-2.688,+10.625,0, -8, -5, -1, -2, 0, 2, -7
1503612473621,-0.411,-0.349,+0.499,+0.679,+1.010,-0.087,-0.243,+28.000,-4.750,+10.125,-17, -7, -3, -2, -2, -2, -4, 4
1503612478646,-0.386,-0.385,+0.542,+0.640,+0.957,-0.129,-0.034,-8.062,-21.500,-11.062,-3, 2, 3, 2, -1, -2, -13, 2
1503612478661,-0.387,-0.382,+0.541,+0.642,+0.979,-0.128,-0.044,-12.188,-20.750,-14.688,-7, -3, 1, 2, -1, -3, 6, -1
1503612478684,-0.389,-0.378,+0.541,+0.643,+1.001,-0.063,-0.091,-13.000,-18.875,-16.688,-10, -1, 0, 0, 9, 0, 6, 1
1503612478706,-0.392,-0.374,+0.541,+0.643,+0.956,+0.002,-0.125,-6.062,-10.500,-20.438,0, 3, 6, 2, -2, -1, 5, -3
1503612478722,-0.395,-0.371,+0.542,+0.643,+0.958,-0.002,-0.134,-2.688,-6.500,-20.812,-24, -11, -4, 0, 2, 4, 13, -4
1503612478746,-0.397,-0.369,+0.543,+0.642,+1.002,-0.032,-0.111,-3.062,+0.125,-17.500,15, 7, -2, -2, -1, -7, -8, -3
1503612478766,-0.399,-0.366,+0.544,+0.641,+1.022,-0.022,-0.077,-5.438,-0.125,-18.562,-5, -2, -4, -5, 1, 8, 3, -4
1503612478782,-0.401,-0.364,+0.545,+0.640,+1.049,+0.022,-0.098,-3.875,-8.312,-15.688,0, 0, 0, 4, 9, -4, -4, -1
1503612478804,-0.404,-0.361,+0.544,+0.641,+1.059,+0.049,-0.121,-0.938,-18.375,-11.062,15, 27, 15, 2, -3, -8, -4, 2
1503612478826,-0.407,-0.359,+0.542,+0.641,+1.023,+0.030,-0.122,+2.750,-18.250,-11.250,-14, -11, -10, -7, -6, 1, -7, -12
1503612478841,-0.409,-0.357,+0.541,+0.642,+0.966,-0.023,-0.058,+0.312,-19.000,-10.688,-8, -8, -2, 0, -6, 1, 1, -4
1503612478864,-0.411,-0.355,+0.541,+0.642,+0.991,+0.006,-0.072,-1.000,-10.688,-8.125,30, 9, 3, 3, 4, 8, 14, 25
1503612478886,-0.412,-0.355,+0.540,+0.642,+1.026,+0.030,-0.138,+1.125,-5.062,-2.625,-7, -5, -3, -1, -6, 1, -3, -3
1503612478908,-0.412,-0.354,+0.540,+0.643,+1.041,+0.009,-0.138,-0.438,-3.125,+2.125,-21, -8, -4, -3, -2, -3, -5, -5
1503612478924,-0.412,-0.353,+0.538,+0.644,+1.050,+0.009,-0.181,-3.438,-12.250,+3.750,1, 13, 7, -4, -4, 5, -2, -5
1503612478939,-0.413,-0.353,+0.538,+0.644,+1.030,-0.038,-0.070,-0.500,-3.562,-2.938,-14, -13, -7, -1, 0, -4, -10, -14
1503612478962,-0.413,-0.353,+0.538,+0.645,+1.036,-0.021,-0.075,-2.250,-10.500,+0.438,1, -2, -6, -5, -7, -7, -6, -4
1503612478983,-0.413,-0.353,+0.537,+0.645,+1.037,+0.019,-0.126,+0.688,-4.062,+1.438,-1, -8, -2, -2, -7, -3, -1, 1
1503612479005,-0.413,-0.354,+0.537,+0.645,+0.978,-0.015,-0.104,+4.438,+5.250,+3.250,-1, -6, -2, 1, 6, -4, -4, -9
1503612479021,-0.412,-0.357,+0.539,+0.643,+0.947,-0.021,-0.089,+4.938,+17.688,+1.438,2, -8, -3, 0, 8, 0, 16, -3
1503612479043,-0.412,-0.357,+0.540,+0.641,+1.005,+0.008,-0.150,+3.812,+15.812,-4.562,0, 4, 0, -2, -1, 10, -2, 11
1503612479065,-0.413,-0.358,+0.541,+0.639,+1.034,+0.040,-0.157,+4.562,+13.500,-5.125,5, 0, -3, 2, 3, -2, 2, -1
1503612479082,-0.414,-0.359,+0.542,+0.637,+0.982,+0.030,-0.140,+8.188,+9.375,-3.375,1, 0, 5, 7, 9, 6, 17, 6
1503612479103,-0.415,-0.360,+0.542,+0.636,+0.973,-0.015,-0.093,+9.562,+5.188,-5.688,2, 3, -2, -1, -1, -3, -7, 1
1503612479125,-0.417,-0.361,+0.542,+0.634,+1.003,-0.023,-0.078,+7.000,+1.812,-6.812,0, 5, -1, -4, -4, -7, -5, -2
1503612479141,-0.418,-0.361,+0.542,+0.634,+0.992,-0.013,-0.099,+4.312,-2.875,-5.250,2, -3, 0, 2, 0, -3, -7, -4
1503612479163,-0.418,-0.360,+0.541,+0.634,+0.971,+0.000,-0.117,+0.750,-3.312,-2.000,0, 0, -2, -2, 0, 0, 3, 2
1503612479185,-0.418,-0.360,+0.541,+0.634,+0.977,+0.006,-0.107,-1.250,-2.938,+2.000,-13, -8, -6, -4, -2, 0, 14, 3
1503612479200,-0.418,-0.360,+0.540,+0.636,+1.030,-0.004,-0.101,-3.000,-9.500,+4.000,11, 14, 10, 4, 5, 2, -14, -1
1503612479223,-0.419,-0.358,+0.538,+0.637,+1.023,-0.009,-0.089,-6.250,-17.750,+1.812,-2, -6, -1, 1, 1, -8, 5, 3
1503612479245,-0.419,-0.356,+0.537,+0.640,+0.983,-0.002,-0.089,-7.562,-20.062,+1.625,2, 1, -2, -3, -7, -5, 0, -1
1503612479260,-0.419,-0.355,+0.535,+0.642,+0.988,-0.011,-0.091,-7.812,-17.312,+3.375,10, 15, 16, 7, 4, 2, 21, 10
1503612479284,-0.418,-0.354,+0.535,+0.643,+1.000,-0.010,-0.116,-8.312,-10.938,+3.438,3, 10, 2, 1, 3, 0, 0, 1
1503612479305,-0.418,-0.353,+0.534,+0.645,+1.001,+0.002,-0.133,-8.500,-9.250,+3.438,-8, -13, -6, -5, -12, -8, -9, -1
1503612479321,-0.418,-0.352,+0.533,+0.646,+1.000,+0.002,-0.139,-6.938,-8.438,+3.000,5, 0, -2, -2, -2, -3, -10, -6
1503612479343,-0.418,-0.350,+0.533,+0.647,+0.991,-0.005,-0.136,-5.500,-7.750,-2.688,-2, -2, -4, -3, 6, -6, -17, -2
1503612479365,-0.419,-0.349,+0.532,+0.648,+0.984,-0.017,-0.134,-5.188,-9.625,-5.062,1, -1, 1, 3, 7, 3, 6, 2
1503612479380,-0.419,-0.347,+0.532,+0.648,+0.986,-0.012,-0.127,-6.812,-9.188,-5.438,-3, -9, 0, 0, -8, 2, 1, 3
1503612479403,-0.420,-0.346,+0.532,+0.649,+0.988,+0.011,-0.149,-6.688,-7.125,-3.750,3, 0, -1, 0, -1, -4, -10, -4
1503612479427,-0.420,-0.344,+0.532,+0.650,+0.995,+0.019,-0.152,-5.312,-6.250,-2.688,-12, -11, -4, -4, -2, 8, 8, 1
1503612479441,-0.421,-0.344,+0.531,+0.650,+0.986,+0.014,-0.175,-1.500,-5.500,-1.875,3, 1, -2, -2, -1, 2, 9, 4
1503612479463,-0.422,-0.343,+0.531,+0.650,+0.967,+0.004,-0.146,-0.438,-3.312,-3.812,-10, 2, -1, -1, 0, -5, -6, -11
1503612479486,-0.422,-0.343,+0.531,+0.650,+0.974,+0.007,-0.140,-0.688,-1.812,-3.438,-3, -10, -3, -2, 0, 0, 6, -4
1503612479500,-0.422,-0.343,+0.531,+0.650,+0.995,+0.013,-0.147,-1.062,-1.938,-0.312,2, 10, 6, 0, 2, -2, 10, 1
1503612479523,-0.423,-0.342,+0.530,+0.651,+1.021,+0.019,-0.172,-1.875,-6.625,+0.750,-1, 18, 2, -1, 1, -2, -12, -51
1503612479545,-0.423,-0.342,+0.529,+0.651,+1.007,+0.022,-0.165,+2.125,-6.500,-0.312,-3, -10, -8, -4, -6, -2, 0, 23
1503612479561,-0.424,-0.342,+0.528,+0.651,+1.004,-0.012,-0.157,+5.188,-6.562,+1.938,0, -7, 1, 1, 2, 6, 8, 6
1503612479583,-0.424,-0.343,+0.527,+0.651,+0.985,-0.027,-0.135,+4.125,-5.062,+1.375,-1, -7, -3, -3, -9, -3, -3, -18
1503612479605,-0.425,-0.343,+0.527,+0.651,+0.980,-0.012,-0.144,+2.438,-2.375,+0.562,-7, -3, -3, -1, 0, -7, 6, -1
1503612479620,-0.425,-0.344,+0.526,+0.651,+1.005,+0.014,-0.154,+3.188,-1.500,+1.000,12, 7, 0, -1, -3, 0, 1, -13
1503612479643,-0.425,-0.345,+0.526,+0.651,+1.021,-0.004,-0.160,+4.812,+0.125,+3.562,-16, -2, -3, 1, -2, -4, 0, -26
1503612479665,-0.426,-0.345,+0.525,+0.651,+1.020,+0.012,-0.152,+4.938,-3.062,+0.062,-5, -7, -6, -3, -3, -3, -11, 4
1503612479680,-0.426,-0.346,+0.524,+0.651,+0.988,+0.004,-0.146,+4.125,-4.750,+2.375,-3, -8, -2, -3, -4, -11, -6, -12
1503612479703,-0.427,-0.347,+0.523,+0.651,+0.964,+0.012,-0.148,+5.062,-2.562,+4.625,3, -1, 0, -2, -2, 6, 0, 5
1503612479725,-0.427,-0.348,+0.523,+0.651,+0.979,+0.005,-0.164,+6.875,+1.500,+5.938,0, -1, -2, -1, -3, 4, 1, -5
1503612479740,-0.427,-0.350,+0.522,+0.651,+0.998,-0.005,-0.167,+7.312,+0.812,+5.250,-1, 0, -2, -1, 0, -2, -2, 0
1503612479764,-0.427,-0.351,+0.520,+0.651,+1.003,-0.010,-0.166,+7.500,-3.750,+3.812,-4, -3, -1, -2, -5, -5, -8, 1
1503612479787,-0.428,-0.351,+0.519,+0.651,+0.981,-0.013,-0.166,+7.250,-7.875,+2.625,-2, -3, -2, 0, 2, 3, 5, 6
1503612479800,-0.429,-0.352,+0.517,+0.652,+0.974,-0.022,-0.169,+7.375,-6.562,+3.062,4, 15, 6, 0, 1, -1, 0, 3
1503612479823,-0.430,-0.353,+0.516,+0.652,+0.968,-0.021,-0.174,+7.875,-4.688,+2.688,17, 18, 9, 4, -2, -4, -8, -1
1503612479845,-0.431,-0.354,+0.515,+0.652,+0.974,-0.018,-0.178,+7.938,-2.875,+1.688,-5, -10, -7, 0, -3, 2, 1, -1
1503612479860,-0.431,-0.355,+0.513,+0.651,+0.983,-0.018,-0.171,+7.062,-3.812,+1.125,-2, 8, 5, 2, 4, 11, -6, -11
1503612479883,-0.432,-0.355,+0.512,+0.652,+0.979,-0.012,-0.181,+6.188,-5.438,+1.375,-2, -11, -6, -2, 3, 0, 1, 5
1503612479905,-0.433,-0.356,+0.511,+0.652,+0.964,-0.017,-0.179,+6.750,-1.562,+4.688,-1, -12, -6, -3, 0, -5, -9, 3
1503612479923,-0.433,-0.358,+0.510,+0.651,+0.974,-0.021,-0.168,+7.188,+2.625,+4.438,-10, -12, -5, -3, -2, -5, 2, -4
1503612479943,-0.433,-0.359,+0.510,+0.651,+0.997,-0.021,-0.166,+7.250,+2.812,+4.438,2, 7, 0, -2, -5, -1, 2, 1
1503612479965,-0.433,-0.360,+0.509,+0.651,+0.995,-0.030,-0.168,+6.812,-3.000,+4.188,15, 5, 1, 0, -5, -1, 5, 14
1503612479980,-0.434,-0.361,+0.508,+0.651,+0.982,-0.031,-0.169,+5.625,-4.688,+2.938,12, -6, -2, -1, -1, -1, 0, -2
1503612480003,-0.434,-0.362,+0.507,+0.651,+0.979,-0.021,-0.174,+5.562,-1.938,+2.875,-10, -6, -4, -2, 2, -1, 5, 1
1503612480031,-0.435,-0.363,+0.507,+0.650,+0.983,-0.013,-0.169,+5.562,+1.500,+1.625,-5, 0, 0, -2, -6, 4, 18, -2
1503612480041,-0.435,-0.364,+0.506,+0.650,+0.996,-0.030,-0.159,+6.062,+3.000,+2.250,-11, -1, -3, -1, 0, 6, -7, -75
1503612480064,-0.435,-0.365,+0.506,+0.649,+0.995,-0.026,-0.167,+6.625,+2.250,+2.625,-2, 1, 2, 2, 3, -1, -3, 17
1503612480085,-0.435,-0.367,+0.505,+0.648,+1.020,-0.020,-0.171,+8.062,+1.688,+2.688,-10, 20, 4, 1, 1, -2, -2, 7
1503612480100,-0.436,-0.368,+0.504,+0.648,+1.020,-0.023,-0.188,+9.875,+0.375,+5.250,-1, -7, -3, -1, 0, -5, -2, 21
1503612480125,-0.436,-0.370,+0.503,+0.648,+1.002,-0.034,-0.179,+11.062,-0.750,+9.000,1, -7, 0, -1, -8, -5, -4, -2
1503612480146,-0.436,-0.373,+0.501,+0.648,+1.003,-0.054,-0.182,+12.688,+0.938,+11.188,-1, -2, 1, 0, -1, 1, 5, 7
1503612480163,-0.436,-0.376,+0.499,+0.648,+1.018,-0.064,-0.171,+13.312,+0.750,+11.625,1, -1, -2, -3, 1, 3, 0, 7
1503612480191,-0.436,-0.378,+0.497,+0.648,+1.020,-0.068,-0.172,+13.312,-2.688,+12.625,3, -3, -4, -2, -1, -6, -6, -2
1503612480205,-0.436,-0.381,+0.494,+0.649,+1.004,-0.070,-0.183,+14.875,-5.188,+14.062,-2, -7, -8, -3, -1, -2, -4, 2
1503612483228,-0.492,-0.393,+0.433,+0.645,+1.028,-0.079,-0.261,-10.812,-19.625,+4.625,-3, -3, 5, 2, 1, -1, -2, -17
1503612483245,-0.493,-0.390,+0.431,+0.648,+0.972,-0.103,-0.284,-5.125,-24.812,+3.000,13, 7, 2, -2, -1, 0, -3, -8
1503612483266,-0.493,-0.388,+0.428,+0.651,+0.939,-0.111,-0.300,-7.062,-22.812,+6.188,8, 5, 3, 0, -1, -2, -3, -5
1503612483288,-0.492,-0.386,+0.426,+0.653,+0.945,-0.072,-0.304,-11.625,-17.188,+9.000,-20, -3, 2, 1, 2, 0, 25, -10
1503612483304,-0.491,-0.385,+0.425,+0.656,+0.918,-0.070,-0.304,-12.938,-8.812,+11.562,0, 19, 6, 0, 0, -2, -11, -2
1503612483326,-0.489,-0.384,+0.425,+0.658,+0.928,-0.081,-0.300,-11.938,-2.688,+14.188,13, -16, -9, -4, -7, -7, -13, 28
1503612483348,-0.487,-0.384,+0.425,+0.660,+0.951,-0.092,-0.288,-12.062,-0.750,+12.312,-10, -6, -6, -1, 1, 3, -5, -29
1503612483364,-0.485,-0.384,+0.425,+0.661,+0.961,-0.084,-0.294,-10.062,-1.062,+11.250,4, -5, 0, 1, 0, -1, 0, -2
1503612483387,-0.484,-0.383,+0.425,+0.662,+0.951,-0.086,-0.294,-7.875,-4.062,+9.250,-11, -4, -2, -2, 1, -2, -6, 3
1503612483409,-0.483,-0.383,+0.424,+0.664,+0.924,-0.085,-0.308,-6.750,-4.000,+5.250,15, 1, -4, -1, -3, 0, -4, -4
1503612483424,-0.482,-0.382,+0.424,+0.664,+0.927,-0.085,-0.302,-7.188,-1.250,+4.125,17, 13, 7, 0, 0, -3, -7, -7
1503612483447,-0.482,-0.381,+0.424,+0.665,+0.940,-0.076,-0.308,-6.875,+0.875,+4.875,-7, -7, -6, 0, 1, 2, 2, -9
1503612483469,-0.481,-0.381,+0.425,+0.666,+0.958,-0.076,-0.303,-7.562,-3.438,+3.625,-11, 2, 4, 2, 2, 4, 9, 4
1503612483489,-0.481,-0.379,+0.424,+0.667,+0.950,-0.091,-0.309,-7.375,-6.188,+2.000,-26, -1, 4, 2, -3, 0, -2, -10
1503612483506,-0.481,-0.378,+0.424,+0.668,+0.917,-0.085,-0.317,-6.188,-5.000,+0.438,5, -6, -7, -1, -2, 0, 17, 10
1503612483528,-0.481,-0.378,+0.424,+0.668,+0.919,-0.084,-0.307,-5.188,+0.688,-1.625,-4, -8, -3, -4, -3, -3, 2, 13
1503612483544,-0.481,-0.378,+0.425,+0.668,+0.958,-0.082,-0.331,-1.750,+2.312,-0.250,26, 37, -2, -3, -1, -3, 0, -24
1503612483566,-0.481,-0.377,+0.424,+0.668,+0.966,-0.096,-0.322,-1.062,-3.062,-0.562,7, -7, -5, 0, -1, -1, -7, 8
1503612483589,-0.482,-0.376,+0.424,+0.669,+0.930,-0.090,-0.325,-2.750,-8.500,-2.500,12, -7, 5, -2, -1, 1, -1, 47
1503612483604,-0.482,-0.376,+0.423,+0.669,+0.888,-0.102,-0.320,-2.750,-3.250,-0.625,-2, -8, -3, -3, -1, -2, -5, -37
1503612483626,-0.481,-0.376,+0.424,+0.669,+0.893,-0.101,-0.313,-4.312,+8.250,+0.562,-21, -5, -6, 0, -1, -3, -16, -61
1503612483649,-0.480,-0.377,+0.426,+0.668,+0.968,-0.083,-0.301,-4.062,+15.188,+2.000,-3, -9, -1, -1, 0, -2, -28, 9
1503612483664,-0.479,-0.378,+0.427,+0.667,+1.019,-0.069,-0.289,-3.375,+8.500,+2.562,2, 3, 2, -1, 3, -1, 6, 11
1503612483686,-0.479,-0.377,+0.427,+0.667,+0.979,-0.076,-0.308,-1.438,-3.062,-0.625,-10, -3, -1, 1, 0, 3, 11, 1
1503612483708,-0.480,-0.377,+0.427,+0.668,+0.923,-0.099,-0.309,+0.688,-5.938,-3.312,-5, 17, 6, 2, 0, 3, 5, 29
1503612483724,-0.481,-0.376,+0.426,+0.667,+0.899,-0.094,-0.308,-1.000,-0.938,-4.375,-8, -7, 0, -5, -14, 0, 3, -13
1503612483747,-0.480,-0.376,+0.427,+0.667,+0.938,-0.082,-0.312,-2.750,+3.500,+0.812,28, 4, 2, 1, 1, 1, 18, 6
1503612483768,-0.479,-0.377,+0.427,+0.668,+0.984,-0.088,-0.301,-5.250,+1.438,+7.000,-21, 8, 1, -2, 2, -2, -2, -12
1503612483784,-0.479,-0.376,+0.427,+0.669,+0.979,-0.080,-0.315,-4.500,-4.062,+5.875,-20, -7, 2, 2, 5, 0, -4, -42
1503612483806,-0.478,-0.375,+0.426,+0.670,+0.940,-0.087,-0.304,-5.188,-9.062,+5.375,27, -6, -4, -3, -1, -2, -2, -8
1503612483828,-0.478,-0.375,+0.425,+0.671,+0.925,-0.092,-0.286,-6.375,-5.938,+6.000,-12, -21, -10, -1, 0, 0, 13, 44
1503612483844,-0.477,-0.375,+0.425,+0.672,+0.950,-0.095,-0.294,-5.688,-1.250,+6.125,-20, -14, -4, -2, -2, -3, -6, 15
1503612483866,-0.476,-0.374,+0.425,+0.673,+0.993,-0.087,-0.307,-5.125,-3.375,+4.938,-4, 1, 1, -1, -2, -3, -5, 8
1503612483889,-0.476,-0.373,+0.424,+0.674,+0.986,-0.089,-0.316,-3.938,-11.375,+3.375,4, 4, 0, 0, 1, -1, -5, -12
1503612483904,-0.477,-0.372,+0.422,+0.675,+0.933,-0.094,-0.314,-4.312,-15.812,-0.062,-9, 6, 1, -2, -3, 2, 0, -18
1503612483926,-0.478,-0.370,+0.421,+0.676,+0.903,-0.091,-0.321,-4.625,-12.562,-0.750,-3, -7, -1, 0, 1, -3, -6, 24
1503612483950,-0.477,-0.370,+0.421,+0.677,+0.928,-0.097,-0.331,-4.562,-4.875,+3.500,-9, 1, 4, 3, 0, 1, 0, 2
1503612483964,-0.477,-0.369,+0.421,+0.678,+0.965,-0.096,-0.325,-5.312,-0.938,+5.250,25, -4, -5, -5, -3, -2, 4, 29
1503612483986,-0.476,-0.369,+0.420,+0.679,+0.987,-0.093,-0.331,-3.688,-4.562,+6.062,1, -3, -1, 0, 0, 4, 2, -24
1503612484008,-0.476,-0.369,+0.419,+0.680,+0.957,-0.107,-0.333,-2.812,-9.438,+5.625,12, 12, 2, 1, 1, 1, -4, -16
1503612484031,-0.476,-0.368,+0.417,+0.681,+0.924,-0.110,-0.335,-2.250,-9.375,+4.812,-2, 5, 0, 1, -2, -3, 1, -5
1503612484046,-0.475,-0.368,+0.416,+0.682,+0.906,-0.123,-0.334,-1.938,-3.688,+6.625,4, -6, -4, -6, -3, -1, -5, -40
1503612484068,-0.474,-0.369,+0.416,+0.683,+0.946,-0.119,-0.331,-3.188,+2.750,+8.500,-8, -1, 1, -1, -4, -6, -8, 90
1503612484084,-0.473,-0.370,+0.416,+0.683,+0.981,-0.109,-0.323,-2.188,+0.812,+8.438,11, -3, -1, 2, -1, -4, -11, -8
1503612484106,-0.472,-0.370,+0.415,+0.684,+0.974,-0.103,-0.327,-1.125,-7.312,+6.062,-12, -9, -13, -8, 2, 3, -2, -16
1503612484129,-0.473,-0.370,+0.414,+0.685,+0.934,-0.112,-0.333,+0.625,-9.812,+4.625,3, 8, 4, 0, -1, -3, -9, -13
1503612484144,-0.473,-0.370,+0.412,+0.686,+0.905,-0.108,-0.346,+0.875,-6.250,+5.688,2, 23, 14, 4, 2, 2, 10, -21
1503612484166,-0.472,-0.370,+0.411,+0.686,+0.917,-0.110,-0.347,+1.312,-0.688,+7.250,5, -1, 1, 0, 0, 1, 5, 7
1503612484189,-0.471,-0.371,+0.411,+0.687,+0.937,-0.104,-0.342,+2.500,+2.062,+9.625,-12, -10, -5, 0, -2, -4, -10, -7
1503612484204,-0.471,-0.372,+0.410,+0.687,+0.928,-0.104,-0.346,+2.750,-2.375,+7.562,-10, -4, -3, 1, 1, 0, 0, -18
1503612484226,-0.471,-0.372,+0.409,+0.687,+0.882,-0.105,-0.336,+3.312,-4.750,+2.688,4, -10, -5, -5, -1, -3, 4, 75
1503612484247,-0.472,-0.372,+0.408,+0.687,+0.860,-0.118,-0.333,+3.000,-1.000,-1.312,-8, -12, -9, -2, -2, -1, -2, -17
1503612484263,-0.472,-0.373,+0.408,+0.686,+0.886,-0.107,-0.355,+2.750,+4.500,-2.375,11, 17, 10, 6, 3, 0, 6, 10
1503612484286,-0.473,-0.373,+0.409,+0.686,+0.929,-0.102,-0.323,+1.812,+4.062,-2.188,-7, -6, -3, -4, -3, -2, 0, 1
1503612484308,-0.474,-0.373,+0.409,+0.685,+0.942,-0.102,-0.322,+1.875,-4.000,-5.438,16, 6, 4, 2, 0, 1, -4, -34
1503612484323,-0.475,-0.372,+0.408,+0.685,+0.920,-0.100,-0.336,+3.000,-9.188,-6.938,-5, 0, 3, -1, -2, -4, 0, -21
1503612484345,-0.477,-0.371,+0.407,+0.685,+0.908,-0.106,-0.352,+3.688,-5.750,-5.750,6, 1, -3, -1, -1, 0, -6, 15
1503612484368,-0.478,-0.372,+0.407,+0.684,+0.939,-0.116,-0.328,+2.875,-0.562,-3.125,-8, -9, -8, -2, -2, -3, -8, -24
1503612484383,-0.478,-0.372,+0.408,+0.683,+0.989,-0.119,-0.318,+1.625,-0.062,-0.688,-6, -10, -6, 0, 0, 5, 17, 75
1503612484405,-0.478,-0.373,+0.407,+0.683,+1.003,-0.140,-0.320,+1.375,-3.125,+2.438,-1, 1, 1, -1, 2, 2, -4, -13
1503612484428,-0.477,-0.374,+0.406,+0.683,+0.995,-0.157,-0.320,+2.500,-3.438,+3.625,-4, -1, -3, -2, 0, 2, 2, -3
1503612484443,-0.477,-0.376,+0.406,+0.683,+0.965,-0.156,-0.345,+6.125,+2.625,+5.312,4, 0, 1, 0, 0, -2, -4, -1
1503612484465,-0.476,-0.378,+0.405,+0.683,+0.989,-0.147,-0.348,+7.938,+9.500,+10.000,-6, -1, -1, 0, -1, -1, -16, -41
1503612484492,-0.474,-0.382,+0.406,+0.682,+1.015,-0.136,-0.333,+8.750,+13.312,+14.875,-1, 3, 2, -1, -5, -7, -8, -10
1503612484510,-0.472,-0.385,+0.405,+0.682,+1.016,-0.137,-0.320,+10.625,+11.250,+18.500,2, -3, -1, -6, 0, 1, 2, -27
1503612484526,-0.469,-0.389,+0.404,+0.682,+1.009,-0.147,-0.317,+13.562,+8.188,+21.438,3, 22, 6, 1, 1, -1, 2, 28
1503612488553,-0.463,-0.457,+0.509,+0.564,+1.009,-0.019,-0.031,-16.375,-14.812,-3.500,3, 2, 0, 0, 0, 0, 2, -14
1503612488569,-0.464,-0.453,+0.509,+0.566,+1.004,-0.047,-0.022,-15.250,-17.688,-6.938,1, 2, 0, -3, -1, 0, 4, 6
1503612488591,-0.465,-0.450,+0.509,+0.568,+1.004,-0.064,-0.044,-13.438,-15.875,-7.312,12, -14, -6, -2, -2, -2, -6, -10
1503612488621,-0.466,-0.447,+0.508,+0.569,+0.997,-0.057,-0.077,-10.062,-15.875,-11.625,-9, -1, -1, 2, 0, 0, -1, 1
1503612488629,-0.469,-0.444,+0.509,+0.570,+0.963,-0.032,-0.083,-5.750,-10.062,-19.062,3, 2, 2, 1, -1, -3, -2, 3
1503612488651,-0.471,-0.441,+0.510,+0.568,+0.950,-0.011,-0.064,-2.188,-6.000,-22.000,-3, 5, 1, -2, -2, 0, 4, 5
1503612488672,-0.473,-0.440,+0.512,+0.567,+0.988,+0.006,-0.032,-3.750,+4.438,-17.625,-1, 5, 2, -1, -1, 2, -4, -10
1503612488690,-0.473,-0.440,+0.514,+0.565,+1.025,+0.021,-0.039,-3.562,+13.500,-9.750,-1, -16, -9, -7, 11, -3, -4, 10
1503612488711,-0.472,-0.440,+0.516,+0.563,+1.052,+0.033,-0.003,-2.875,+11.062,-5.375,-6, 0, -2, 1, -9, 0, -2, -1
1503612488732,-0.472,-0.439,+0.517,+0.563,+1.096,+0.018,-0.010,-3.125,-0.188,-2.000,1, 1, -2, 0, -4, -1, -17, 0
1503612488750,-0.473,-0.438,+0.516,+0.564,+1.085,+0.002,-0.034,-2.125,-11.812,+0.688,4, 3, 4, 2, 1, 3, -6, -1
1503612488771,-0.475,-0.437,+0.513,+0.566,+1.028,-0.011,-0.049,-2.062,-24.062,+0.938,-2, 1, -1, -2, 2, 1, 11, 8
1503612488793,-0.476,-0.434,+0.511,+0.569,+1.007,-0.029,-0.037,-3.812,-28.562,+2.125,-13, -2, 0, 0, -5, -2, -4, 1
1503612488809,-0.477,-0.432,+0.508,+0.572,+0.963,-0.047,-0.060,-6.875,-27.062,+3.812,1, -1, 0, 0, 2, -2, 9, 4
1503612488831,-0.478,-0.430,+0.506,+0.575,+0.956,-0.043,-0.057,-10.750,-23.562,+0.438,3, 0, -4, 1, 2, 5, 24, 7
1503612488853,-0.478,-0.426,+0.505,+0.578,+0.981,-0.020,-0.062,-14.938,-22.625,-2.875,2, 8, 6, 3, 4, -4, -3, 2
1503612488868,-0.479,-0.423,+0.505,+0.581,+0.989,+0.006,-0.062,-16.750,-21.688,-3.438,-11, -3, -3, -5, -5, -2, -13, -12
1503612488892,-0.480,-0.419,+0.505,+0.583,+1.001,+0.020,-0.097,-15.438,-20.875,-6.625,1, 4, -2, -1, -4, 0, -3, -10
1503612488913,-0.482,-0.415,+0.504,+0.585,+1.000,+0.023,-0.117,-12.312,-21.938,-10.312,-2, -4, 1, 3, 2, -1, 6, 4
1503612488928,-0.484,-0.411,+0.504,+0.586,+0.978,+0.031,-0.129,-9.250,-17.562,-10.438,-10, 0, 3, -2, -4, 1, 3, 12
1503612488951,-0.485,-0.409,+0.504,+0.586,+0.949,+0.045,-0.128,-5.062,-9.312,-12.250,1, -6, -6, -4, -1, -4, -9, -7
1503612488973,-0.487,-0.408,+0.505,+0.584,+0.933,+0.076,-0.153,+0.000,+6.188,-9.125,7, 3, 1, 1, -2, -2, 1, 3
1503612488989,-0.486,-0.408,+0.507,+0.583,+0.950,+0.079,-0.123,-1.562,+15.062,-4.000,4, 1, -2, -2, 0, 1, 2, -3
1503612489011,-0.485,-0.409,+0.509,+0.581,+1.031,+0.054,-0.074,-2.875,+17.000,-2.188,3, 1, 2, -1, -5, -1, -8, -3
1503612489033,-0.485,-0.410,+0.510,+0.580,+1.111,+0.039,-0.106,+1.375,+6.312,+3.688,-4, 0, 0, -2, 1, -3, 0, -5
1503612489050,-0.486,-0.410,+0.508,+0.582,+1.088,+0.006,-0.132,+2.438,-15.000,+3.625,4, -5, 0, 3, -1, 2, 20, 6
1503612489071,-0.487,-0.408,+0.505,+0.584,+0.991,-0.019,-0.077,-2.375,-23.562,+1.000,-8, -1, -1, -3, 3, -1, -6, 0
1503612489094,-0.488,-0.407,+0.504,+0.586,+0.944,-0.020,-0.062,-3.375,-18.812,+0.438,-2, 1, 0, 1, -2, -3, -3, -4
1503612489109,-0.488,-0.406,+0.503,+0.587,+0.983,-0.028,-0.087,-5.125,-12.188,+0.562,-6, -8, -6, -2, -4, -2, -8, -8
1503612489131,-0.488,-0.404,+0.502,+0.589,+1.041,+0.009,-0.122,-8.062,-10.188,-0.188,-6, 1, 1, 1, 2, -1, -6, -1
1503612489153,-0.489,-0.402,+0.501,+0.590,+1.017,+0.030,-0.137,-9.562,-16.250,-2.750,0, -3, -3, -2, 4, 2, 3, 4
1503612489177,-0.489,-0.399,+0.501,+0.592,+0.971,+0.018,-0.121,-9.688,-17.000,-3.312,22, 9, 4, 0, 0, -4, -7, 2
1503612489191,-0.490,-0.397,+0.500,+0.593,+0.953,+0.030,-0.124,-8.000,-12.875,-3.938,-26, -3, -4, -2, -4, -2, 0, -34
1503612489213,-0.491,-0.395,+0.500,+0.594,+0.990,+0.048,-0.138,-7.500,-9.938,-3.125,-8, 0, 3, 0, 1, -1, -4, -1
1503612489228,-0.491,-0.393,+0.500,+0.595,+1.012,+0.070,-0.144,-7.000,-10.312,-2.875,-1, -5, -2, -3, -3, 1, -7, 2
1503612489254,-0.492,-0.391,+0.499,+0.596,+1.001,+0.065,-0.142,-5.625,-16.000,-2.438,10, 2, 1, 4, 4, 0, 1, 4
1503612489273,-0.493,-0.390,+0.498,+0.598,+0.985,+0.040,-0.170,-3.125,-14.938,+2.688,-2, -3, -3, 3, -6, -2, 4, 7
1503612489289,-0.493,-0.389,+0.496,+0.599,+0.973,+0.025,-0.185,-2.875,-9.875,+4.500,7, 0, -2, -6, -2, 0, -2, -14
1503612489311,-0.493,-0.389,+0.496,+0.600,+0.969,+0.024,-0.176,-2.062,-4.438,+3.250,0, -6, -3, -1, -2, 1, -2, 8
1503612489333,-0.493,-0.389,+0.495,+0.600,+0.976,+0.006,-0.151,-0.750,-3.562,+0.875,-7, -3, -1, -2, 2, -3, -1, 2
1503612489348,-0.494,-0.388,+0.495,+0.601,+1.002,+0.009,-0.142,-1.062,-5.312,-0.562,-10, 2, -2, -4, -1, 1, 8, -2
1503612489371,-0.494,-0.387,+0.494,+0.601,+1.005,+0.039,-0.150,-1.875,-9.938,-1.188,18, 3, 0, 0, -1, -2, -7, 0
1503612489393,-0.495,-0.386,+0.493,+0.602,+0.984,+0.049,-0.171,-3.062,-12.875,-0.438,3, -5, -2, 1, 1, -3, 1, 8
1503612489409,-0.496,-0.385,+0.492,+0.603,+0.968,+0.040,-0.173,-2.562,-10.812,+0.562,1, -1, 0, 0, -2, 4, -2, 1
1503612489431,-0.496,-0.384,+0.491,+0.604,+0.982,+0.027,-0.180,-1.875,-7.000,+2.250,7, 4, 1, 0, 5, -5, -11, 3
1503612489457,-0.496,-0.384,+0.491,+0.605,+1.012,+0.029,-0.170,-1.375,-2.125,+3.500,4, 1, -2, 2, 1, 4, 8, 3
1503612489467,-0.496,-0.384,+0.490,+0.605,+1.006,+0.045,-0.165,-2.375,-3.375,+4.688,0, 0, 2, -5, -7, 0, -5, -2
1503612489491,-0.495,-0.384,+0.490,+0.606,+0.999,+0.049,-0.186,-1.625,-4.750,+7.438,-7, -3, -1, 1, 0, -3, -2, -2
1503612489512,-0.495,-0.385,+0.489,+0.607,+0.995,+0.028,-0.182,-1.625,-2.625,+10.062,-16, -1, -3, 0, 0, 0, 12, -4
1503612489527,-0.494,-0.385,+0.488,+0.608,+0.992,+0.009,-0.164,-0.625,-1.562,+10.312,3, 0, -1, 0, 6, 1, -5, -11
1503612489550,-0.492,-0.386,+0.487,+0.609,+1.025,+0.001,-0.179,-1.062,-2.438,+11.750,4, 1, 0, 0, -2, -2, 2, 4
1503612489572,-0.492,-0.387,+0.486,+0.611,+1.013,+0.021,-0.168,-2.062,-6.625,+10.062,3, -2, -3, -1, 0, -1, 7, 1
1503612489591,-0.491,-0.387,+0.484,+0.612,+0.967,+0.012,-0.180,-2.438,-8.562,+11.562,-2, -2, -4, -3, -8, 1, -1, 8
1503612489610,-0.490,-0.387,+0.483,+0.614,+0.946,+0.011,-0.195,-2.000,-2.562,+12.375,-2, 2, 0, 1, 0, 1, -2, -3
1503612489632,-0.489,-0.388,+0.483,+0.615,+0.961,+0.012,-0.184,-3.188,-0.562,+10.875,1, -1, 0, 0, -6, 0, 9, -15
1503612489647,-0.488,-0.388,+0.482,+0.615,+0.978,+0.029,-0.181,-1.875,-1.875,+9.562,2, 3, 4, -1, 3, 1, -11, 14
1503612489670,-0.488,-0.388,+0.481,+0.616,+0.963,+0.006,-0.182,-0.312,-5.938,+6.812,-5, 7, 5, -3, -3, -2, 0, 27
1503612489693,-0.488,-0.388,+0.480,+0.617,+0.941,-0.009,-0.197,+0.688,-4.188,+4.312,3, -6, -5, -7, -2, -3, -6, -4
1503612489707,-0.488,-0.388,+0.480,+0.617,+0.913,-0.028,-0.195,+0.812,+1.688,-0.562,-5, 2, 4, 1, 2, -2, -2, 7
1503612489730,-0.488,-0.390,+0.481,+0.616,+0.931,-0.033,-0.174,+1.812,+11.438,-4.688,-2, -5, -4, 1, -2, -5, -24, -16
1503612489752,-0.488,-0.391,+0.482,+0.614,+0.979,-0.022,-0.169,+2.625,+12.875,-7.562,0, -1, -4, -3, -2, 0, 1, 1
1503612489768,-0.489,-0.391,+0.484,+0.612,+0.998,-0.000,-0.171,+1.812,+7.312,-11.375,-3, -12, -7, -4, -8, -7, 7, -4
1503612489792,-0.490,-0.390,+0.484,+0.611,+0.998,-0.000,-0.185,+3.000,+2.000,-10.438,13, 3, -2, -1, -2, 3, -1, 3
1503612489812,-0.491,-0.390,+0.484,+0.610,+0.989,-0.007,-0.196,+3.312,-2.250,-6.188,-3, 2, -2, 0, -1, -1, -1, -8
1503612489828,-0.492,-0.390,+0.483,+0.610,+0.984,+0.001,-0.176,+2.062,-3.625,-1.750,4, -1, -1, -3, 2, -2, 4, 31
1503612489850,-0.492,-0.390,+0.483,+0.610,+1.001,-0.013,-0.180,+1.688,-3.250,+3.250,-1, 3, 2, 5, 9, 3, -5, -10
1503612489872,-0.492,-0.391,+0.482,+0.611,+1.017,-0.021,-0.184,+0.500,-3.188,+7.250,1, 9, 4, 2, 7, -5, -6, 0
1503612489887,-0.491,-0.391,+0.481,+0.612,+1.016,-0.008,-0.188,-1.250,-5.688,+6.750,0, 1, -1, -3, 5, -1, -9, -3
1503612489910,-0.491,-0.391,+0.479,+0.613,+1.009,-0.006,-0.184,+0.438,-5.750,+6.375,-5, -5, -4, -2, -1, 7, 6, -7
1503612489933,-0.491,-0.392,+0.478,+0.614,+0.991,-0.016,-0.185,+1.500,-6.062,+7.750,-8, -15, -9, -3, -3, 2, 0, -6
1503612489947,-0.490,-0.393,+0.477,+0.614,+0.974,-0.017,-0.175,+1.375,-1.938,+6.438,-9, -7, -2, 1, 1, 0, 3, -11
1503612489970,-0.490,-0.393,+0.477,+0.614,+0.993,+0.003,-0.175,+1.750,+1.125,+6.000,7, 0, 0, -3, -4, 1, 5, -6
1503612489993,-0.490,-0.394,+0.477,+0.615,+1.014,+0.019,-0.183,+2.438,+0.312,+6.375,-4, 0, 0, -2, -3, -2, 1, 9
1503612490007,-0.490,-0.395,+0.476,+0.615,+1.000,+0.029,-0.178,+3.438,-2.188,+6.062,-3, -5, -2, 2, 13, 9, -3, -12
1503612490030,-0.490,-0.395,+0.475,+0.615,+0.998,+0.026,-0.187,+4.312,-2.500,+7.500,5, 2, 0, -3, -7, -2, 0, 4
1503612490052,-0.490,-0.397,+0.474,+0.615,+0.990,+0.022,-0.180,+5.375,-0.375,+10.438,-5, 3, 0, -1, -4, -3, -4, -10
1503612490068,-0.489,-0.398,+0.473,+0.615,+0.987,+0.016,-0.181,+6.875,+2.000,+12.250,10, 13, 3, -2, -3, 1, 15, -3
1503612490093,-0.488,-0.401,+0.472,+0.615,+1.025,+0.012,-0.175,+8.688,+2.000,+14.375,-11, 12, 3, 3, 3, -2, -7, -8
1503612490112,-0.488,-0.403,+0.470,+0.615,+1.029,+0.018,-0.179,+9.812,-2.062,+15.438,3, 1, 0, -3, 2, -1, -3, 0
1503612490128,-0.488,-0.404,+0.468,+0.616,+1.009,+0.015,-0.182,+11.500,-5.312,+17.562,3, -7, -4, -3, 1, 1, 0, 38
1503612490150,-0.488,-0.407,+0.465,+0.617,+1.000,-0.002,-0.198,+14.500,-5.500,+20.750,5, 5, 2, 0, -3, -1, 0, -1
1503612490173,-0.487,-0.410,+0.461,+0.618,+1.011,-0.025,-0.197,+16.562,-2.938,+22.375,-5, -1, 1, 0, 4, 4, 8, -12
1503612490187,-0.486,-0.414,+0.458,+0.618,+1.016,-0.026,-0.181,+17.875,-3.125,+24.438,-9, -2, 0, 2, 2, 0, -5, -7
1503612490210,-0.486,-0.418,+0.455,+0.619,+1.016,-0.042,-0.171,+20.438,-3.312,+25.938,3, 1, -2, 0, -5, -3, -3, -2
1503612494133,-0.400,-0.322,+0.507,+0.692,+0.973,-0.030,-0.250,-6.625,+0.812,+5.438,-1, -4, -3, 0, -1, 0, 7, -10
1503612494156,-0.400,-0.322,+0.508,+0.692,+0.951,-0.018,-0.249,-3.375,+6.938,+3.375,3, 3, -1, 1, -4, -1, 1, 10
1503612494171,-0.398,-0.323,+0.510,+0.691,+0.945,-0.021,-0.224,-3.188,+13.312,+2.625,0, 6, -1, -1, -2, 0, -4, 5
1503612494193,-0.396,-0.325,+0.512,+0.689,+0.976,-0.030,-0.224,-2.062,+21.750,+7.250,0, 9, -2, 0, 3, -1, -3, -16
1503612494215,-0.394,-0.328,+0.514,+0.688,+1.009,-0.020,-0.255,+2.375,+26.375,+11.625,-3, -5, -3, -2, -2, -2, -9, -11
1503612494237,-0.393,-0.331,+0.515,+0.686,+1.041,-0.032,-0.239,+7.875,+21.125,+11.562,0, 0, -2, 0, -3, -1, -1, 13
1503612494257,-0.392,-0.334,+0.515,+0.685,+1.028,-0.037,-0.229,+10.750,+11.500,+9.312,0, -9, 0, 1, -3, 0, -3, 4
1503612494276,-0.392,-0.336,+0.514,+0.685,+0.979,-0.041,-0.193,+10.438,+1.625,+12.812,-1, 0, -1, 0, 3, 0, 1, -2
1503612494298,-0.390,-0.339,+0.513,+0.686,+0.937,-0.063,-0.198,+5.688,+5.438,+19.562,-6, -4, 2, 2, -2, -2, -3, 0
1503612494313,-0.386,-0.343,+0.512,+0.686,+0.945,-0.083,-0.215,+4.938,+16.938,+29.062,-2, 1, -4, -4, -4, -4, 0, 4
1503612494335,-0.382,-0.349,+0.513,+0.685,+1.004,-0.105,-0.176,+6.375,+28.000,+27.125,2, -1, -1, 0, 2, 4, 14, 0
1503612494358,-0.379,-0.353,+0.515,+0.683,+1.026,-0.121,-0.122,+8.750,+26.938,+13.812,-4, 0, -1, 0, 2, 2, 0, 5
1503612494373,-0.378,-0.357,+0.517,+0.680,+0.999,-0.119,-0.102,+12.938,+18.938,+3.062,1, 1, 3, -2, 1, 0, -7, -6
1503612494397,-0.378,-0.360,+0.518,+0.677,+1.000,-0.124,-0.111,+12.062,+15.688,-2.875,1, -1, 0, -3, -10, -3, 0, -5
1503612494418,-0.379,-0.361,+0.518,+0.676,+1.005,-0.104,-0.170,+9.188,+6.500,-0.312,-4, -2, -4, -2, 6, 1, -5, 1
1503612494433,-0.380,-0.362,+0.517,+0.676,+0.957,-0.076,-0.189,+5.562,-1.188,+0.562,6, -1, 1, -1, -11, -4, -18, 14
1503612494457,-0.381,-0.361,+0.516,+0.677,+0.932,-0.098,-0.143,+0.562,-10.438,-0.625,2, -2, -2, -2, 1, -1, 6, -1
1503612494478,-0.380,-0.361,+0.515,+0.679,+0.959,-0.146,-0.124,-5.000,-12.375,+4.625,-6, -4, -1, -3, -15, 0, -2, -5
1503612494493,-0.379,-0.360,+0.514,+0.680,+0.974,-0.125,-0.118,-9.375,-10.375,+3.500,6, 8, 5, 0, 5, -2, 2, -1
1503612494516,-0.379,-0.358,+0.514,+0.681,+1.001,-0.096,-0.115,-13.312,-13.750,-2.562,-11, 5, 0, 0, 5, -1, -3, 4
1503612494538,-0.380,-0.355,+0.513,+0.683,+1.000,-0.079,-0.142,-13.188,-21.125,-9.125,-7, -4, -3, -5, -6, 0, 0, -44
1503612494553,-0.383,-0.350,+0.511,+0.685,+0.975,-0.080,-0.152,-11.188,-28.438,-13.812,2, -8, -5, -4, -3, 1, -3, 6
1503612494576,-0.385,-0.346,+0.510,+0.687,+0.934,-0.074,-0.175,-12.812,-27.125,-16.938,2, -4, -3, -1, -7, 1, -5, -6
1503612494598,-0.387,-0.342,+0.510,+0.688,+0.914,-0.060,-0.195,-14.500,-15.250,-16.812,4, -7, -3, -1, 2, 2, 4, 8
1503612494613,-0.388,-0.338,+0.511,+0.688,+0.928,-0.052,-0.187,-15.062,-3.750,-14.688,4, 19, 6, 1, 0, -1, 3, 7
1503612494636,-0.388,-0.335,+0.513,+0.688,+0.994,-0.037,-0.181,-15.625,-0.562,-14.688,5, -9, -3, 1, 1, 1, -2, 5
1503612494658,-0.390,-0.332,+0.515,+0.688,+1.036,-0.002,-0.184,-15.438,-6.938,-14.125,1, -1, -2, 0, -2, 0, 2, -1
1503612494673,-0.391,-0.327,+0.515,+0.689,+1.028,+0.014,-0.206,-14.438,-19.688,-13.125,-4, 3, 0, 1, 1, 0, -3, 2
1503612494697,-0.393,-0.323,+0.513,+0.691,+0.993,-0.007,-0.234,-12.938,-25.688,-7.812,-1, -3, -2, -1, 6, -1, -4, 1
1503612494717,-0.394,-0.320,+0.511,+0.694,+0.956,-0.040,-0.233,-12.250,-20.125,-3.375,-9, -2, -2, -2, -13, -2, 0, -5
1503612494734,-0.393,-0.318,+0.511,+0.695,+0.936,-0.048,-0.226,-10.688,-7.688,-2.000,-1, -9, -6, -5, -3, -3, -3, 10
1503612494755,-0.393,-0.317,+0.512,+0.695,+0.956,-0.029,-0.218,-9.375,+3.188,-1.062,-9, 0, 2, 0, -1, 0, 0, 6
1503612494777,-0.392,-0.317,+0.514,+0.694,+0.996,+0.000,-0.237,-8.125,+9.562,+1.438,-6, 6, -1, -1, 0, -4, -12, -29
1503612494792,-0.391,-0.317,+0.515,+0.694,+1.012,-0.002,-0.249,-5.062,+12.875,+3.062,-5, 5, 3, 2, 2, 2, 2, 1
1503612494816,-0.390,-0.318,+0.516,+0.693,+1.011,-0.010,-0.240,-0.438,+11.812,+3.875,2, -10, -5, -1, 3, 0, 5, 8
1503612494837,-0.389,-0.320,+0.517,+0.692,+0.991,-0.011,-0.257,+4.250,+9.938,+5.875,8, -19, -10, -4, 1, -3, -10, -8
1503612494852,-0.389,-0.322,+0.517,+0.692,+0.980,-0.038,-0.222,+6.562,+8.000,+8.312,17, 3, 2, 1, -2, -1, 4, 15
1503612494875,-0.387,-0.324,+0.516,+0.692,+1.005,-0.071,-0.214,+4.250,+7.500,+12.812,-5, -1, -2, -1, 2, 0, -2, -2
1503612494897,-0.385,-0.327,+0.515,+0.693,+1.011,-0.078,-0.242,+2.875,+3.312,+19.188,-1, -1, -3, -3, -3, -2, 2, 5
1503612494912,-0.383,-0.329,+0.514,+0.694,+0.995,-0.119,-0.180,+0.500,-2.062,+15.875,6, 1, 0, 2, 4, -4, -5, -2
1503612494935,-0.382,-0.330,+0.512,+0.695,+1.004,-0.127,-0.158,-0.500,-9.312,+7.000,2, 0, 1, 2, -1, -3, -2, -2
1503612494961,-0.382,-0.330,+0.511,+0.696,+0.974,-0.131,-0.163,+0.312,-15.062,+0.625,-1, -2, 2, -2, 3, 0, 1, 0
1503612494972,-0.383,-0.329,+0.510,+0.697,+0.943,-0.112,-0.167,-3.375,-11.750,-7.500,-7, 1, -1, 3, -1, 2, -4, -6
1503612494995,-0.385,-0.327,+0.510,+0.697,+0.940,-0.042,-0.201,-4.000,-8.000,-12.250,0, 0, 1, -1, -5, 1, 2, 3
1503612495017,-0.387,-0.325,+0.510,+0.696,+0.929,-0.017,-0.229,-2.750,-5.125,-13.500,-4, 3, 0, -1, 3, -2, -1, -16
1503612495032,-0.389,-0.323,+0.511,+0.696,+0.933,-0.016,-0.236,-4.125,-2.312,-12.125,-4, -6, -2, -4, 0, -4, -9, -9
1503612495055,-0.389,-0.321,+0.512,+0.695,+0.948,-0.013,-0.226,-4.750,+2.312,-8.312,4, -2, -1, 4, 6, 2, 7, 11
1503612495077,-0.390,-0.320,+0.513,+0.694,+0.971,-0.010,-0.217,-4.375,+3.500,-6.750,-2, -1, 1, 0, 0, 0, -2, -3
1503612495094,-0.391,-0.319,+0.514,+0.694,+1.009,+0.008,-0.216,-2.625,-0.938,-6.312,-4, 0, 1, 0, -1, 0, -6, 2
1503612495115,-0.392,-0.318,+0.513,+0.694,+1.009,-0.000,-0.226,-0.812,-6.375,-3.625,-6, -2, 1, 0, -1, 0, 7, -6
1503612495137,-0.393,-0.318,+0.512,+0.694,+0.992,-0.028,-0.217,+0.562,-8.625,-1.688,-5, -3, -3, -5, -12, -4, -6, -9
1503612500057,-0.394,-0.412,+0.543,+0.616,+0.984,-0.111,-0.047,-0.875,+7.062,-20.625,-1, -1, -3, 0, 1, 1, -2, -5
1503612500079,-0.395,-0.411,+0.545,+0.615,+1.024,-0.076,-0.028,-2.500,+2.188,-18.062,1, -4, -1, -1, -2, -2, -2, -1
1503612500110,-0.398,-0.408,+0.545,+0.614,+1.041,-0.026,-0.039,-2.000,-5.000,-17.312,9, -3, -6, -3, -3, -3, -2, -1
1503612500122,-0.401,-0.406,+0.545,+0.614,+1.019,-0.015,-0.018,+0.562,-15.125,-15.625,-5, -7, 0, -3, -3, -2, 2, -1
1503612500139,-0.403,-0.404,+0.544,+0.615,+1.000,-0.079,-0.005,-0.500,-20.688,-11.062,-4, -1, -1, -3, -3, -3, -6, -9
1503612500165,-0.405,-0.401,+0.543,+0.617,+1.014,-0.076,+0.021,-9.562,-20.750,-9.938,-5, -4, -4, -3, -2, -1, -1, -6
1503612500177,-0.406,-0.397,+0.543,+0.618,+1.021,-0.007,-0.020,-11.375,-22.250,-9.875,4, -3, -2, 0, 0, 0, 1, 2
1503612500200,-0.408,-0.394,+0.541,+0.621,+1.002,-0.015,-0.052,-8.500,-22.812,-5.625,-3, -6, -2, -4, -2, -3, -8, -4
1503612500222,-0.409,-0.391,+0.540,+0.622,+0.978,-0.028,-0.079,-8.250,-19.250,-6.000,-1, 6, -1, 2, 0, 1, 6, 1
1503612500238,-0.411,-0.388,+0.540,+0.623,+0.976,-0.009,-0.052,-8.438,-15.438,-10.562,8, 10, 2, 1, 1, -1, -1, 0
1503612500259,-0.412,-0.386,+0.540,+0.624,+0.995,-0.020,-0.039,-7.688,-12.875,-8.625,-13, -2, 2, 0, 0, 0, -2, -5
1503612500282,-0.413,-0.384,+0.540,+0.625,+1.045,-0.044,-0.041,-10.250,-13.312,-6.250,2, -2, 0, 1, -1, 0, 3, 3
1503612500297,-0.413,-0.381,+0.539,+0.627,+1.043,-0.008,-0.077,-10.125,-15.812,-4.750,0, -1, -3, -4, -3, 0, 0, 1
1503612500319,-0.415,-0.379,+0.538,+0.629,+1.021,+0.007,-0.108,-7.750,-19.062,-3.750,-2, 5, -1, -4, -8, -1, -2, 1
1503612500344,-0.416,-0.376,+0.537,+0.630,+1.000,-0.021,-0.095,-7.562,-16.250,-3.188,6, -5, -1, -4, 2, 0, -1, -2
1503612500363,-0.416,-0.374,+0.536,+0.632,+0.993,-0.047,-0.053,-9.312,-14.812,-5.000,-4, 0, 0, 3, 6, 2, 8, 9
1503612500379,-0.417,-0.372,+0.536,+0.633,+1.008,-0.030,-0.058,-9.938,-14.500,-5.688,-11, -5, -6, -7, -6, -8, -8, -15
1503612500402,-0.417,-0.370,+0.535,+0.635,+1.000,-0.016,-0.104,-10.562,-15.688,-2.188,2, 0, -2, -1, -6, 11, -1, 0
1503612500417,-0.417,-0.368,+0.535,+0.636,+1.000,-0.022,-0.122,-11.188,-10.500,-0.375,-2, -7, -2, 0, -3, -6, -13, 1
1503612500439,-0.416,-0.367,+0.535,+0.637,+1.014,-0.029,-0.103,-10.500,-5.062,-0.250,7, 2, 3, 3, 7, 1, 8, 16
1503612500454,-0.416,-0.365,+0.535,+0.638,+1.027,-0.024,-0.100,-10.125,-6.625,-1.188,2, -1, -2, -1, -3, -5, -9, -12
1503612500477,-0.416,-0.363,+0.535,+0.639,+1.015,-0.016,-0.111,-9.188,-9.875,-3.438,-8, 1, -1, 5, 6, 1, -1, -12
1503612500500,-0.417,-0.361,+0.535,+0.640,+0.992,-0.018,-0.107,-8.438,-10.250,-5.375,-1, 4, 2, 0, -4, -1, 10, -2
1503612500514,-0.417,-0.360,+0.534,+0.641,+0.991,-0.029,-0.128,-7.438,-9.062,-3.688,5, -1, -3, 0, 1, -2, 2, 12
1503612500537,-0.417,-0.359,+0.534,+0.642,+0.982,-0.010,-0.142,-4.812,-5.812,-2.625,0, -2, -4, -8, -7, 5, 1, 4
1503612500559,-0.418,-0.357,+0.534,+0.643,+0.981,-0.016,-0.136,-4.500,-5.000,-5.312,-2, -5, -1, -6, -1, -2, 7, -4
1503612500575,-0.418,-0.356,+0.533,+0.643,+0.990,-0.023,-0.132,-5.250,-6.188,-5.375,13, 0, -2, -1, -5, -4, -8, -2
1503612500602,-0.419,-0.355,+0.533,+0.644,+1.000,-0.010,-0.132,-5.000,-5.875,-3.438,-20, -7, -5, -3, -7, -7, -13, -15
1503612500619,-0.419,-0.354,+0.533,+0.644,+1.007,+0.008,-0.141,-4.750,-5.500,+0.125,-6, 0, 1, 4, 4, 2, 5, 10
1503612500635,-0.419,-0.353,+0.532,+0.645,+0.992,+0.017,-0.151,-3.625,-6.062,+2.875,2, 1, -1, 0, 0, -2, -1, 2
1503612500665,-0.419,-0.353,+0.532,+0.646,+0.989,-0.003,-0.119,-2.812,-5.438,+2.875,3, -3, -1, 0, -7, -6, -12, -1
1503612500679,-0.418,-0.353,+0.531,+0.647,+1.014,-0.027,-0.132,-2.938,-5.500,+5.562,2, -2, 1, 1, 0, 3, 2, 1
1503612500697,-0.418,-0.353,+0.530,+0.648,+1.020,-0.003,-0.153,-3.562,-6.000,+4.812,-15, 1, -1, -1, -4, 6, 14, 4
1503612500717,-0.418,-0.353,+0.529,+0.649,+1.007,-0.000,-0.154,-2.188,-6.125,+4.312,-8, -1, 0, -5, -10, -1, 3, -3
1503612500739,-0.418,-0.353,+0.528,+0.649,+0.998,-0.003,-0.148,+0.500,-4.312,+5.625,1, 0, 0, 3, 0, 1, -3, -8
1503612500754,-0.417,-0.354,+0.528,+0.650,+1.005,-0.031,-0.139,+2.188,-1.250,+6.812,-17, -4, -2, 0, 3, -14, -14, -28
1503612500777,-0.417,-0.355,+0.527,+0.650,+1.013,-0.045,-0.131,+1.688,+0.875,+5.875,4, 1, 2, 3, 11, 12, 1, 8
1503612500803,-0.417,-0.355,+0.527,+0.650,+1.010,-0.025,-0.132,+0.875,-3.000,+2.875,12, 2, -2, -2, 1, 2, 9, 12
1503612500814,-0.417,-0.355,+0.526,+0.651,+0.994,-0.010,-0.167,+2.375,-4.938,+1.688,4, -5, -3, -1, 4, 4, 10, -2
1503612500839,-0.418,-0.356,+0.525,+0.651,+0.965,-0.013,-0.167,+3.375,-2.062,+1.438,0, -2, -1, -1, -2, -4, -2, 1
1503612500859,-0.418,-0.356,+0.524,+0.651,+0.960,-0.019,-0.142,+3.188,-0.438,+1.125,-4, -2, -3, -8, -9, -8, -14, -8
1503612500875,-0.419,-0.357,+0.524,+0.650,+0.977,-0.013,-0.142,+2.750,-1.625,-0.375,5, -1, 0, 1, 5, 3, 2, 7
1503612500897,-0.420,-0.356,+0.524,+0.650,+0.961,-0.010,-0.132,+1.250,-5.375,-4.812,2, 7, 5, 3, 3, 2, 5, 1
1503612500919,-0.422,-0.355,+0.523,+0.651,+0.953,+0.000,-0.152,+1.062,-10.188,-7.562,2, -4, -8, -7, -5, -7, -3, 3
1503612500936,-0.423,-0.354,+0.522,+0.650,+0.964,-0.008,-0.146,+2.125,-6.125,-6.312,1, 8, -3, -4, 2, 2, 4, 0
1503612500957,-0.423,-0.354,+0.523,+0.650,+0.967,-0.034,-0.141,+1.875,+1.625,-3.250,2, 4, 1, -1, 2, 7, 13, 0
1503612500979,-0.423,-0.355,+0.523,+0.649,+0.978,-0.041,-0.132,+0.375,+5.188,-2.125,-4, 9, 7, -1, 1, -1, -5, -3
1503612500995,-0.423,-0.355,+0.524,+0.649,+1.013,-0.025,-0.148,-0.625,+2.812,-1.562,5, -14, -6, 2, 3, 2, -4, 1
1503612501017,-0.423,-0.355,+0.523,+0.649,+1.034,-0.021,-0.167,-1.312,-1.875,-2.438,0, -8, -5, -5, -5, 0, 2, -1
1503612501040,-0.424,-0.354,+0.523,+0.649,+1.025,-0.005,-0.170,-1.812,-5.188,+1.625,-1, 1, 4, 4, 6, 1, -8, 0
1503612501055,-0.424,-0.354,+0.522,+0.650,+0.989,+0.003,-0.174,-1.688,-6.750,+5.250,4, 14, 2, 0, -2, -2, 7, 4
1503612501077,-0.423,-0.354,+0.521,+0.651,+0.986,-0.013,-0.140,-1.188,-3.375,+5.438,-5, -5, -3, -3, -5, -3, -6, -3
1503612501102,-0.423,-0.355,+0.521,+0.651,+1.000,-0.034,-0.125,-1.812,-1.812,+3.375,-1, 6, 5, 2, -2, 0, -2, 1
1503612501115,-0.423,-0.354,+0.520,+0.651,+1.009,-0.008,-0.142,-0.125,-6.312,-0.125,-2, -3, -4, 0, 1, -2, -3, -5
1503612501137,-0.424,-0.354,+0.520,+0.652,+1.003,+0.016,-0.159,+1.750,-7.312,-3.625,5, -1, 0, -1, -3, -1, -3, -5
1503612501159,-0.426,-0.353,+0.519,+0.651,+0.970,+0.003,-0.161,+2.750,-5.312,-5.250,-5, -2, -2, -2, -1, -1, 4, -4
1503612501175,-0.427,-0.353,+0.520,+0.650,+0.947,-0.008,-0.136,+3.938,+1.750,-5.750,-2, -6, -3, 0, 1, -2, -7, -3
1503612501197,-0.427,-0.354,+0.521,+0.649,+0.955,-0.013,-0.134,+4.062,+6.625,-4.688,-2, -13, -4, -4, -3, 0, 0, -2
1503612501219,-0.428,-0.355,+0.521,+0.648,+0.996,-0.010,-0.143,+2.250,+5.688,-2.875,-6, 2, 4, 0, 0, 1, 7, 3
1503612501235,-0.428,-0.355,+0.521,+0.648,+1.021,-0.002,-0.182,+1.438,+1.250,-0.500,-3, 8, -1, 3, 3, -1, 0, 0
1503612501257,-0.428,-0.355,+0.520,+0.648,+1.013,+0.011,-0.177,+1.125,-3.438,+2.562,5, -1, -1, -2, 1, 1, 4, 3
1503612501279,-0.428,-0.355,+0.519,+0.649,+1.014,+0.008,-0.160,+2.688,-7.500,+6.375,-1, -4, -3, 1, 3, 1, -4, 0
1503612501295,-0.428,-0.356,+0.518,+0.649,+1.018,+0.000,-0.173,+5.750,-4.312,+9.438,0, -1, -2, -1, -5, 4, -3, 1
1503612501317,-0.428,-0.358,+0.516,+0.650,+1.016,-0.012,-0.169,+7.938,-2.438,+10.875,2, 10, 0, -3, -6, -2, -8, 2
1503612501339,-0.428,-0.360,+0.514,+0.650,+1.042,-0.011,-0.166,+9.625,-4.438,+11.938,-9, -9, 0, 2, 4, 3, 1, -5
1503612501355,-0.428,-0.362,+0.512,+0.651,+1.043,-0.011,-0.177,+12.688,-6.125,+13.188,4, 4, -2, -1, 2, -2, -2, 1
1503612501377,-0.429,-0.364,+0.509,+0.651,+1.029,-0.019,-0.178,+15.062,-5.562,+14.438,2, 4, -1, -1, -4, 0, -4, 5
1503612505405,-0.459,-0.427,+0.453,+0.635,+0.979,-0.125,-0.189,-4.438,+0.875,-4.562,-1, -1, -2, -4, -1, -1, 9, -1
1503612505419,-0.458,-0.426,+0.453,+0.635,+0.983,-0.127,-0.156,-7.250,-2.562,-1.125,0, -2, 1, 2, -1, 1, -1, 4
1503612505442,-0.458,-0.424,+0.452,+0.637,+1.021,-0.130,-0.167,-10.312,-13.625,+5.062,-1, -1, -2, 0, 1, -3, -4, -1
1503612505466,-0.458,-0.422,+0.451,+0.640,+1.008,-0.118,-0.189,-12.062,-18.312,+7.875,2, 2, -1, -1, 0, -1, 0, -4
1503612505479,-0.457,-0.420,+0.449,+0.643,+0.936,-0.114,-0.212,-13.188,-17.625,+7.062,-4, 0, -3, -1, -1, -3, 1, 0
1503612505503,-0.457,-0.418,+0.448,+0.644,+0.913,-0.096,-0.204,-10.688,-9.312,+6.188,-1, -2, -2, -1, 0, -2, -1, -1
1503612505524,-0.456,-0.418,+0.449,+0.645,+0.933,-0.105,-0.181,-10.062,+1.375,+2.688,1, -3, -4, -4, -1, 1, -2, -1
1503612505540,-0.455,-0.418,+0.451,+0.644,+0.982,-0.122,-0.193,-4.812,+9.250,-1.188,-1, -1, 0, 0, 0, 1, -3, -2
1503612505562,-0.455,-0.418,+0.452,+0.643,+0.996,-0.119,-0.187,-0.438,+11.062,-5.812,3, 4, 3, 0, 0, -1, -2, 2
1503612505585,-0.456,-0.418,+0.454,+0.641,+0.994,-0.094,-0.196,+4.688,+6.562,-12.500,-5, 2, -3, -1, -2, 0, -1, -5
1503612505607,-0.460,-0.418,+0.455,+0.639,+0.978,-0.079,-0.222,+9.312,+2.750,-19.625,14, -5, -3, 0, -1, -2, 2, 10
1503612505621,-0.463,-0.417,+0.455,+0.636,+0.951,-0.094,-0.241,+12.438,+0.188,-20.000,-4, -5, 1, -1, 1, 1, 2, -4
1503612505644,-0.466,-0.417,+0.454,+0.635,+0.947,-0.113,-0.234,+9.938,+0.812,-14.500,0, 1, 1, 0, -2, -3, -5, 4
1503612505659,-0.466,-0.418,+0.454,+0.634,+0.986,-0.122,-0.225,+5.375,+2.500,-1.750,-2, -2, -2, 1, -2, -2, -1, -6
1503612505682,-0.465,-0.418,+0.453,+0.635,+0.986,-0.123,-0.170,-2.750,-2.000,+6.000,3, -5, -2, -1, 0, -1, 5, 3
1503612505706,-0.464,-0.418,+0.452,+0.637,+1.001,-0.133,-0.167,-7.625,-6.812,+13.000,2, 10, -1, -2, -1, 0, -5, 6
1503612505719,-0.461,-0.418,+0.451,+0.639,+1.009,-0.125,-0.172,-11.000,-6.562,+19.875,0, -4, -3, -1, -2, -1, 4, -1
1503612505743,-0.458,-0.418,+0.450,+0.642,+0.979,-0.130,-0.181,-12.562,-6.062,+19.688,-2, 5, 2, -1, -1, -1, -5, -19
1503612505764,-0.456,-0.418,+0.450,+0.644,+0.975,-0.115,-0.172,-10.500,-4.062,+14.312,-5, 1, 0, 0, 0, 0, 2, -4
1503612505786,-0.455,-0.418,+0.450,+0.645,+0.990,-0.127,-0.170,-8.750,-2.125,+9.250,-5, -5, -1, 0, -1, 2, 6, -3
1503612505810,-0.454,-0.418,+0.449,+0.646,+0.990,-0.123,-0.190,-7.812,-3.188,+5.875,-4, -11, -2, 0, 0, -2, -6, -3
1503612505824,-0.453,-0.417,+0.450,+0.647,+0.962,-0.121,-0.190,-6.688,-2.125,+3.250,3, 0, -1, 0, -1, 0, 3, 14
1503612505839,-0.453,-0.417,+0.450,+0.647,+0.961,-0.126,-0.202,-4.500,-1.438,-0.562,0, -4, -5, -3, 1, -1, 0, -15
1503612505862,-0.453,-0.416,+0.450,+0.647,+0.973,-0.141,-0.206,-2.188,+0.375,-3.375,-2, 2, -1, -3, -2, -1, -15, -11
1503612505884,-0.454,-0.416,+0.450,+0.647,+0.975,-0.151,-0.215,-2.250,+0.625,-5.375,-4, 5, 0, 0, -1, -1, 8, 22
1503612505899,-0.455,-0.415,+0.450,+0.647,+0.966,-0.139,-0.212,-2.312,-2.812,-7.750,3, -4, -6, -2, -2, 0, 9, 4
1503612505921,-0.456,-0.414,+0.451,+0.646,+0.959,-0.107,-0.201,-2.875,-4.812,-9.188,2, -1, 2, -1, -1, -1, -9, -2
1503612505944,-0.457,-0.412,+0.450,+0.647,+0.979,-0.105,-0.178,-3.688,-10.375,-5.938,-1, 1, 2, 0, 0, 0, -4, 6
1503612505959,-0.458,-0.411,+0.449,+0.648,+1.000,-0.113,-0.210,-6.562,-12.875,+1.812,3, 2, -2, -1, 1, -1, 3, 15
1503612505981,-0.458,-0.409,+0.447,+0.651,+0.992,-0.111,-0.245,-7.875,-19.938,+6.125,-4, -6, -1, -2, -1, 1, 0, -20
1503612506007,-0.458,-0.406,+0.445,+0.653,+0.975,-0.126,-0.221,-8.625,-23.312,+4.875,-2, -9, -5, -2, -1, 0, 0, -3
1503612506019,-0.459,-0.405,+0.443,+0.655,+0.957,-0.125,-0.228,-6.500,-20.000,+3.500,-12, 1, 0, -2, -2, -2, -6, 1
1503612506042,-0.459,-0.403,+0.441,+0.657,+0.945,-0.135,-0.226,-6.375,-14.188,+2.375,2, 6, 0, 2, -2, -6, -9, 0
1503612506064,-0.459,-0.402,+0.441,+0.658,+0.956,-0.130,-0.229,-6.812,-6.500,+0.750,-1, 4, 2, -1, -5, 1, 3, 13
1503612506079,-0.459,-0.402,+0.441,+0.658,+0.967,-0.110,-0.262,-4.250,-1.062,+1.500,3, 2, -2, -3, -2, 0, 2, -1
1503612506104,-0.459,-0.402,+0.441,+0.658,+0.966,-0.110,-0.266,+0.688,+1.812,-0.062,0, -3, 2, 1, 4, -1, -1, -4
1503612506124,-0.460,-0.402,+0.441,+0.658,+0.982,-0.100,-0.249,+3.125,+0.688,-2.938,2, 5, 1, 1, 4, 1, 1, -2
1503612506139,-0.461,-0.402,+0.441,+0.657,+0.985,-0.077,-0.240,+4.375,-4.438,-5.500,-4, -4, -2, 0, -4, -1, 7, -5
1503612506162,-0.463,-0.401,+0.440,+0.656,+0.970,-0.098,-0.263,+8.125,-7.438,-4.438,-4, -3, -1, 0, 0, 0, 11, -2
1503612506184,-0.465,-0.401,+0.438,+0.656,+0.963,-0.131,-0.272,+8.375,-8.438,-4.250,-1, -2, -1, -4, -7, -3, -5, -5
1503612506199,-0.467,-0.401,+0.436,+0.656,+0.964,-0.120,-0.271,+7.500,-7.750,-2.812,-1, 0, -3, -1, 0, -4, -3, -5
1503612506223,-0.468,-0.402,+0.435,+0.656,+0.957,-0.109,-0.259,+7.125,-6.812,+0.438,0, -1, 2, 1, 5, 0, -13, -2
1503612506244,-0.469,-0.403,+0.434,+0.656,+0.953,-0.118,-0.238,+7.375,-4.562,+1.500,-3, -5, 0, -1, 0, 0, -5, -3
1503612506259,-0.469,-0.403,+0.433,+0.656,+0.956,-0.112,-0.244,+7.125,-3.312,+2.375,-4, -2, -4, -1, -1, 0, -3, 0
1503612506282,-0.470,-0.404,+0.431,+0.656,+0.963,-0.104,-0.255,+5.500,-4.500,+3.688,2, -3, 2, 0, 1, 1, 6, 0
1503612506305,-0.470,-0.404,+0.431,+0.656,+0.943,-0.111,-0.236,+3.750,-3.062,+1.875,-4, 2, 0, -1, -6, 0, 8, -6
1503612506319,-0.471,-0.405,+0.430,+0.655,+0.936,-0.120,-0.226,+5.188,+1.250,-1.250,-1, -2, -4, -1, 2, -3, -1, 7
1503612506343,-0.471,-0.406,+0.431,+0.654,+0.941,-0.130,-0.223,+7.250,+5.188,-4.250,-2, 1, 3, 1, -1, -2, -5, -8
1503612506364,-0.472,-0.407,+0.432,+0.652,+0.959,-0.128,-0.206,+4.875,+6.125,-9.000,-4, -1, -2, 0, 3, 1, 3, -4
1503612506379,-0.474,-0.407,+0.433,+0.650,+0.964,-0.093,-0.208,+4.125,+5.188,-13.688,1, 11, 2, -1, -2, 1, 2, -2
1503612506401,-0.475,-0.407,+0.435,+0.648,+0.978,-0.086,-0.225,+4.188,+3.438,-14.125,-3, -6, -3, -3, 0, -1, -6, 2
1503612506424,-0.477,-0.407,+0.435,+0.646,+0.970,-0.067,-0.223,+2.500,+0.625,-10.250,5, -12, -5, -3, 0, 0, -7, -5
1503612506443,-0.478,-0.406,+0.436,+0.645,+0.963,-0.065,-0.229,+2.375,+0.000,-6.938,2, 19, 8, 2, 1, -1, 4, -5
1503612506462,-0.479,-0.407,+0.436,+0.644,+0.977,-0.105,-0.231,+2.625,+1.312,-3.000,-8, -10, -4, -2, 0, -3, -5, 0
1503612506484,-0.478,-0.407,+0.436,+0.644,+0.982,-0.128,-0.220,+0.875,+2.438,+0.000,4, -1, -2, -1, 5, 4, -1, 7
1503612506500,-0.478,-0.408,+0.436,+0.644,+0.999,-0.114,-0.211,-0.750,-1.750,-0.062,-5, 0, 0, -1, -2, -2, -5, -8
1503612506521,-0.479,-0.407,+0.436,+0.644,+1.013,-0.102,-0.226,-1.375,-6.625,+0.375,2, 0, 0, 1, -2, -3, -1, -5
1503612506545,-0.479,-0.407,+0.435,+0.645,+0.992,-0.121,-0.225,-1.375,-9.250,+0.812,2, -2, -3, -3, -15, -4, -5, 1
1503612513811,-0.453,-0.500,+0.480,+0.561,+0.953,-0.117,+0.074,+1.500,-11.125,-20.812,3, -4, -2, 0, -4, 1, 23, 18
1503612513827,-0.455,-0.498,+0.482,+0.560,+0.985,-0.095,+0.035,-1.750,-2.375,-14.438,-13, -2, 3, -2, -2, -3, -9, 19
1503612513849,-0.454,-0.498,+0.483,+0.559,+1.051,-0.119,+0.061,-10.188,+3.688,-6.375,-7, -12, -8, -4, -9, 3, -1, -20
1503612513871,-0.453,-0.495,+0.486,+0.560,+1.083,-0.124,+0.096,-21.062,+0.375,-9.938,4, 4, -2, -1, -2, -7, -6, -7
1503612513887,-0.453,-0.492,+0.488,+0.561,+1.079,-0.108,+0.089,-23.688,-16.125,-9.625,-3, -8, -2, 0, -1, -2, -9, -5
1503612513908,-0.454,-0.487,+0.488,+0.565,+1.058,-0.122,+0.066,-23.500,-32.562,-7.375,0, -3, -5, -1, 0, -2, -12, -9
1503612513933,-0.455,-0.480,+0.487,+0.570,+1.044,-0.115,+0.082,-32.250,-44.500,-12.625,-9, 5, 0, -1, 3, 0, -2, -4
1503612513947,-0.458,-0.471,+0.487,+0.575,+1.004,-0.075,+0.030,-39.000,-54.188,-17.750,3, 17, 2, -2, -3, -1, 6, -1
1503612513969,-0.461,-0.461,+0.486,+0.582,+0.958,-0.031,-0.001,-42.688,-58.688,-17.375,1, -2, -4, -4, 0, 1, 3, 13
1503612513992,-0.463,-0.451,+0.486,+0.587,+0.918,-0.037,-0.046,-42.312,-48.438,-16.625,6, 17, 1, -1, -2, -4, -2, 11
1503612514007,-0.464,-0.443,+0.487,+0.592,+0.932,-0.046,-0.092,-40.750,-34.438,-13.938,0, -15, -5, -4, -2, 0, -1, -3
1503612514030,-0.466,-0.434,+0.489,+0.596,+0.956,-0.020,-0.110,-42.250,-31.562,-22.938,1, 2, 3, 1, 5, 1, 3, -10
1503612514051,-0.468,-0.425,+0.490,+0.600,+0.965,+0.023,-0.162,-38.375,-33.312,-23.188,4, 3, 2, 0, 0, -4, -9, 10
1503612514068,-0.470,-0.417,+0.491,+0.603,+0.944,+0.059,-0.209,-32.812,-26.438,-16.938,-5, 12, 8, -2, 1, 1, 2, 0
1503612514089,-0.472,-0.411,+0.493,+0.604,+0.917,+0.048,-0.155,-27.688,-14.812,-18.125,-8, 8, 5, 2, -5, 0, 4, 3
1503612514111,-0.472,-0.407,+0.496,+0.605,+0.937,+0.027,-0.152,-19.312,-2.750,-14.750,-3, -6, -4, -1, -1, -3, -17, -7
1503612514130,-0.473,-0.404,+0.498,+0.604,+1.024,+0.042,-0.178,-14.312,+2.938,-12.938,16, 51, 15, 4, -1, 0, 2, -5
1503612514149,-0.474,-0.401,+0.500,+0.604,+1.055,+0.086,-0.188,-10.000,+1.500,-10.375,-5, -11, -5, -1, 1, 1, 16, 4
1503612514171,-0.476,-0.400,+0.500,+0.603,+1.002,+0.081,-0.204,-0.688,-0.938,-5.438,1, -18, -6, 0, -1, 0, -2, 0
1503612514187,-0.477,-0.400,+0.499,+0.603,+0.997,+0.016,-0.149,+7.062,-0.688,-2.688,-11, 0, -1, -1, 1, -5, -4, 3
1503612514209,-0.477,-0.401,+0.499,+0.602,+1.058,-0.034,-0.112,+5.688,-2.812,-0.938,8, 22, 5, 0, 3, 3, -5, 10
1503612514229,-0.478,-0.401,+0.497,+0.603,+1.044,-0.012,-0.124,+2.562,-8.375,+0.562,-2, -13, 2, -1, -1, -3, -7, -12
1503612514247,-0.479,-0.401,+0.496,+0.603,+0.983,-0.011,-0.136,+2.875,-5.375,+2.188,-5, -16, -8, -2, -1, -4, -2, -10
1503612514270,-0.478,-0.402,+0.497,+0.602,+0.938,-0.037,-0.089,+0.625,+3.938,-0.438,-3, -9, -4, -1, -1, 1, -7, 2
1503612514285,-0.477,-0.403,+0.497,+0.602,+1.003,-0.040,-0.074,+0.375,+5.062,+0.375,-2, 2, 0, -3, -11, 3, 10, 4
1503612514307,-0.477,-0.403,+0.498,+0.602,+1.054,-0.014,-0.118,-3.188,-2.688,-1.750,-2, 3, 2, 1, -2, 5, 3, 2
1503612514329,-0.478,-0.401,+0.497,+0.603,+1.028,+0.016,-0.154,-6.625,-12.938,-3.250,3, 1, 0, 0, -1, -1, -7, 3
1503612514345,-0.479,-0.399,+0.496,+0.605,+0.960,-0.005,-0.160,-6.375,-15.438,+0.438,0, 5, 2, -1, 4, 0, 2, 3
1503612514367,-0.479,-0.397,+0.496,+0.606,+0.919,-0.033,-0.096,-9.188,-10.312,-5.000,-1, 7, 3, 0, -2, -1, -9, 1
1503612514389,-0.480,-0.395,+0.496,+0.606,+0.996,+0.011,-0.139,-9.375,-10.312,-7.000,0, 3, 5, -1, 1, 4, 5, 2
1503612514405,-0.481,-0.393,+0.495,+0.608,+1.015,+0.035,-0.202,-8.062,-10.812,-2.000,-4, -3, -3, -2, -8, -2, 4, -8
1503612514428,-0.482,-0.391,+0.495,+0.608,+0.965,+0.042,-0.202,-3.750,-5.625,-2.125,1, 18, 3, -1, 0, 0, 2, -3
1503612514449,-0.482,-0.391,+0.495,+0.608,+0.917,+0.074,-0.218,+2.062,+5.250,-0.375,-15, -13, -3, -2, -2, -3, 1, 7
1503612514465,-0.482,-0.393,+0.496,+0.606,+0.902,+0.038,-0.171,+8.500,+17.812,+0.375,7, -6, -5, -2, -1, -1, 2, -1
1503612514487,-0.480,-0.397,+0.498,+0.603,+1.035,-0.050,-0.108,+6.438,+26.562,+2.562,-3, -3, -3, -2, 1, -2, -10, -10
1503612514509,-0.479,-0.399,+0.499,+0.602,+1.158,+0.005,-0.122,+3.125,+10.938,+5.625,5, 0, 1, -2, 0, 0, 12, 3
1503612514531,-0.480,-0.399,+0.496,+0.603,+1.098,+0.014,-0.180,+7.562,-13.000,+7.188,-1, -3, -2, 2, -2, 1, -2, 2
1503612514547,-0.481,-0.400,+0.493,+0.605,+0.945,-0.062,-0.163,+8.000,-13.812,+5.562,4, 1, -3, 0, -2, 0, 5, -1
1503612514569,-0.481,-0.400,+0.492,+0.605,+0.907,-0.097,-0.084,+3.250,-7.062,-0.312,0, 8, 4, 0, -1, -1, -3, -8
1503612514585,-0.482,-0.400,+0.492,+0.605,+0.991,-0.051,-0.127,+0.312,-1.062,-4.375,-16, 29, 9, 3, 0, -2, -2, 3
1503612514607,-0.482,-0.400,+0.492,+0.604,+0.998,+0.016,-0.186,-0.875,+3.250,-2.625,1, -20, -9, -3, 1, -1, -2, -1
1503612514630,-0.483,-0.400,+0.493,+0.604,+0.949,+0.045,-0.157,+0.000,+3.375,-2.875,2, -1, 1, -1, -3, -1, 0, -3
1503612514651,-0.483,-0.400,+0.493,+0.602,+0.945,+0.030,-0.141,+2.250,+6.375,-3.375,-3, 6, 5, 0, 0, 0, -8, 0
1503612514668,-0.483,-0.401,+0.494,+0.601,+0.997,+0.034,-0.132,+2.000,+9.312,+2.250,13, 3, 1, -2, -4, 0, -2, 0
1503612514689,-0.483,-0.402,+0.494,+0.601,+1.062,+0.073,-0.143,+3.062,+1.750,+5.312,-6, -10, -7, -1, 5, 2, 3, 5
1503612514711,-0.483,-0.402,+0.492,+0.602,+1.058,+0.055,-0.163,+4.375,-8.500,+15.812,3, -6, 1, -1, -1, 1, 10, 28
1503612514727,-0.481,-0.404,+0.489,+0.605,+0.978,-0.020,-0.134,+1.875,-10.312,+21.375,4, -5, -2, 0, -3, -2, -16, 5
1503612514750,-0.480,-0.405,+0.487,+0.606,+0.942,-0.074,-0.117,+2.438,-6.562,+14.688,-3, -11, -6, 0, -3, -4, 1, -7
