Timestamp,Orientation X,Orientation Y,Orientation Z,Orientation W,Accelerometer X,Accelerometer Y,Accelerometer Z,Gyroscope X,Gyroscope Y,Gyroscope Z,EMG1,EMG2,EMG3,EMG4,EMG5,EMG6,EMG7,EMG8,Roll,Yaw
1503612431189,-0.365,-0.410,+0.558,+0.623,+1.015,-0.055,-0.166,-6.312,+7.750,+24.438,-2, -1, 8, 2, 14, 4, 4, 8,-1.1600459283816262,1.5295234565763662
1503612431211,-0.361,-0.412,+0.559,+0.623,+0.931,-0.099,+0.019,-5.500,+18.938,+17.250,22, -5, -9, -4, 0, 4, -8, -26,-1.1569482363464023,1.5350461858970121
1503612431226,-0.358,-0.414,+0.559,+0.623,+1.016,-0.122,+0.092,-8.125,+5.562,+19.062,-2, 17, 13, 13, 0, -11, 0, -4,-1.1554093329651962,1.5383323954007257
1503612431249,-0.355,-0.417,+0.560,+0.622,+1.096,-0.090,+0.015,-1.375,+18.250,+18.812,1, 1, -6, -5, 14, -3, 9, 9,-1.1559560991239415,1.545595912832356
1503612431277,-0.355,-0.419,+0.559,+0.621,+1.074,-0.112,-0.010,+11.000,+8.312,+6.625,-4, -2, -3, -2, -3, 1, 9, 17,-1.1593217422252144,1.5466864887863487
1503612431286,-0.359,-0.420,+0.557,+0.620,+1.000,-0.142,+0.013,+23.750,-13.500,-11.312,0, 0, 1, -1, 9, 15, -7, 7,-1.1676313511063698,1.543891992156263
1503612431309,-0.366,-0.420,+0.554,+0.619,+0.990,-0.189,+0.094,+30.062,-28.000,-24.438,-1, 8, 4, -2, -9, -2, -2, 18,-1.179170069013761,1.5372156109320145
1503612431331,-0.373,-0.417,+0.551,+0.619,+0.957,-0.218,+0.084,+16.812,-38.500,-35.500,-7, -7, -1, -1, -4, -6, 6, -9,-1.1852093766107792,1.5255000120134419
1503612431346,-0.379,-0.413,+0.550,+0.619,+0.920,-0.100,+0.015,+3.375,-30.562,-32.188,-9, 12, 4, 0, -2, 2, 9, -67,-1.188257370733476,1.516659645934283
1503612431369,-0.382,-0.408,+0.551,+0.619,+0.902,+0.015,+0.027,-7.812,-16.312,-25.750,0, -3, -4, 0, 2, 2, -2, 14,-1.1844993422800845,1.5106285587964454
1503612431391,-0.384,-0.405,+0.553,+0.619,+1.014,+0.066,-0.023,-10.812,-3.062,-12.625,-6, 0, -3, -2, -7, -3, -4, 7,-1.183112963693384,1.510274981039359
1503612431406,-0.385,-0.402,+0.554,+0.619,+1.096,+0.023,-0.027,-9.250,-7.375,-4.562,7, -8, 1, 1, -5, 0, -14, 31,-1.1795625781729908,1.5076290131957055
1503612431429,-0.386,-0.399,+0.552,+0.622,+1.054,-0.027,-0.027,-9.312,-23.938,-2.750,1, -4, -4, -2, -7, -1, 6, -5,-1.1760150789233281,1.4983498600551322
1503612431451,-0.389,-0.395,+0.549,+0.625,+0.976,-0.034,-0.037,-7.125,-36.688,-6.812,-3, -1, -5, -3, 1, -1, 0, -7,-1.1741622437781654,1.485305306578637
1503612431466,-0.393,-0.390,+0.547,+0.628,+0.974,-0.016,-0.011,-9.375,-42.562,-14.562,-9, 4, 8, 3, 1, 1, -1, 3,-1.17280866413322,1.473096355025047
1503612431489,-0.395,-0.386,+0.543,+0.632,+1.008,-0.038,-0.056,-12.438,-41.688,-4.688,4, 14, 0, -4, 1, 0, 1, 4,-1.1692893548927736,1.457980803258914
1503612431511,-0.396,-0.382,+0.541,+0.636,+0.975,-0.047,-0.063,-17.688,-31.000,-0.625,5, -1, 1, 0, 2, 1, 6, -6,-1.1645192644747007,1.4474820410456384
1503612431526,-0.396,-0.378,+0.540,+0.639,+0.956,-0.021,-0.062,-16.875,-22.562,-2.000,-8, -4, -2, -2, -5, -1, 7, 3,-1.1578521985099033,1.4391393618667156
1503612431551,-0.398,-0.375,+0.539,+0.641,+0.992,-0.004,-0.102,-10.875,-16.938,-5.812,3, -9, -3, -1, -2, -5, -4, 11,-1.1566851490484258,1.4325149555503582
1503612431571,-0.399,-0.372,+0.539,+0.642,+1.011,-0.027,-0.111,-8.750,-15.750,-9.250,-6, -23, -8, -4, -5, 0, -1, -1,-1.1535738966075257,1.4279936448361266
1503612431594,-0.400,-0.370,+0.538,+0.643,+1.037,-0.045,-0.096,-8.875,-15.750,-5.500,2, 1, 0, -1, -3, -5, 2, 1,-1.1519905475603305,1.4227660128935664
1503612431609,-0.401,-0.368,+0.537,+0.645,+1.025,-0.042,-0.086,-8.062,-15.562,-4.000,0, -9, -5, -2, -3, -2, -3, 0,-1.1507572897593368,1.417717245399448
1503612431630,-0.402,-0.366,+0.536,+0.646,+1.012,-0.019,-0.124,-3.500,-18.125,-3.250,1, 3, 2, 0, 0, 1, -1, -5,-1.1492211798125302,1.4125246312409518
1503612431646,-0.404,-0.364,+0.534,+0.648,+1.003,-0.024,-0.144,+0.125,-17.312,-2.875,-9, 7, 4, 1, 2, 1, 5, -22,-1.1497442675761298,1.4053187967851781
1503612431667,-0.405,-0.363,+0.532,+0.649,+0.988,-0.062,-0.123,+0.312,-15.688,-3.562,9, -4, -5, -3, -3, -3, -4, 12,-1.1497247176674847,1.3994089699773755
1503612431690,-0.406,-0.363,+0.530,+0.650,+1.000,-0.075,-0.095,+0.312,-14.062,+1.000,8, 4, -1, -2, 1, 1, -1, 8,-1.1514754952842718,1.395081330800709
1503612431705,-0.406,-0.363,+0.529,+0.651,+1.022,-0.056,-0.130,+1.000,-8.750,+5.938,5, 5, 2, 1, 1, 1, -3, 23,-1.1515105367327978,1.3929520947976193
1503612431728,-0.406,-0.364,+0.527,+0.652,+1.029,-0.042,-0.154,+3.688,-6.125,+8.000,-13, -6, -2, -2, -3, 0, -2, 5,-1.1530086240865771,1.3900924861577633
1503612431753,-0.406,-0.365,+0.525,+0.653,+1.021,-0.049,-0.160,+5.875,-9.500,+9.438,-5, -3, 2, 0, -1, -4, -5, -25,-1.154507770001401,1.3872497965530222
1503612431769,-0.406,-0.366,+0.523,+0.654,+0.997,-0.076,-0.130,+6.625,-10.000,+10.875,0, -2, -5, -4, -2, 0, 0, -27,-1.1560080086746911,1.3844239857913023
1503612431790,-0.405,-0.368,+0.521,+0.655,+0.961,-0.088,-0.108,+5.875,-5.188,+11.625,-9, -3, -1, -1, -4, -5, -1, 6,-1.157262078102722,1.383075818051837
1503612431810,-0.404,-0.370,+0.519,+0.656,+0.976,-0.071,-0.116,+5.625,-1.500,+11.188,5, 17, 2, 2, 1, 1, 1, -2,-1.1585275280609528,1.3817549435443144
1503612431825,-0.404,-0.372,+0.518,+0.656,+1.013,-0.057,-0.143,+8.688,+0.375,+12.438,7, 23, 7, 2, 0, 0, -1, 6,-1.1617879509673943,1.3826922128069798
1503612431848,-0.404,-0.374,+0.516,+0.656,+1.010,-0.060,-0.173,+12.812,-1.125,+13.750,2, -16, -1, 0, 2, -6, -1, 12,-1.1647635741856663,1.3813680926167327
1503612431870,-0.404,-0.376,+0.514,+0.657,+1.004,-0.073,-0.136,+12.375,-6.812,+11.438,-21, -9, 0, -3, -9, 1, 3, -8,-1.168069365358638,1.380268869700492
1503612431887,-0.405,-0.378,+0.511,+0.657,+0.977,-0.087,-0.109,+12.500,-7.938,+10.625,-3, -3, -2, -1, -1, 0, -2, -1,-1.172781653705912,1.376881745609667
1503612431907,-0.404,-0.381,+0.509,+0.657,+0.978,-0.095,-0.121,+12.000,-1.625,+13.250,5, 7, -2, 0, 3, 2, -2, -1,-1.1755893131379236,1.3771631982395116
1503612431930,-0.404,-0.384,+0.508,+0.657,+1.002,-0.082,-0.146,+13.438,+0.562,+15.625,-4, -12, -4, 0, 0, -3, 0, -5,-1.1807272019589663,1.37989629974853
1503612431945,-0.404,-0.387,+0.505,+0.658,+1.032,-0.082,-0.166,+15.625,-5.250,+16.938,5, 14, 0, -1, 2, 2, 0, 3,-1.1856111434426215,1.3783676422161215
1503612431967,-0.404,-0.390,+0.501,+0.658,+1.020,-0.110,-0.147,+17.062,-9.438,+18.938,3, -21, -6, -2, -19, -1, -6, -11,-1.189925155071361,1.3744757810690607
1503612431991,-0.404,-0.393,+0.497,+0.659,+1.002,-0.119,-0.126,+16.562,-11.625,+19.812,-7, 1, 5, 1, 1, -2, 1, -7,-1.1945702575424608,1.370865216293533
1503612432005,-0.404,-0.397,+0.494,+0.660,+0.976,-0.122,-0.149,+18.500,-5.875,+22.250,12, -3, -2, 0, 4, 1, -4, 5,-1.2013821021726145,1.371287744772625
1503612432028,-0.402,-0.402,+0.491,+0.660,+0.990,-0.155,-0.141,+21.938,-0.125,+26.125,-2, -4, -5, -2, 5, -2, -2, 0,-1.2058277090499676,1.3730400655924881
1503612432050,-0.401,-0.407,+0.487,+0.660,+1.052,-0.167,-0.154,+24.750,+2.312,+26.000,1, -3, 0, 2, 6, 1, 3, 5,-1.2120746668240245,1.3728917040417492
1503612432065,-0.401,-0.412,+0.483,+0.661,+1.072,-0.159,-0.163,+26.125,-5.000,+27.000,-1, 7, 2, 0, 2, 0, 2, -9,-1.2206803916775262,1.3732578724918016
1503612435793,-0.458,-0.366,+0.457,+0.669,+0.923,-0.049,-0.292,-7.500,-10.000,+0.312,-12, 1, -1, -3, -2, 0, -3, -20,-1.2521042080762557,1.250171762394584
1503612435808,-0.458,-0.364,+0.456,+0.670,+0.912,-0.073,-0.274,-7.875,-7.375,-1.312,-5, -2, -1, 3, 8, 3, 0, -13,-1.2488072348914863,1.2449398842786568
1503612435831,-0.458,-0.363,+0.456,+0.671,+0.927,-0.073,-0.292,-7.188,-3.125,-1.750,1, -5, -8, -1, -1, -2, -13, -24,-1.2474256140826823,1.2435575064346862
1503612435853,-0.458,-0.362,+0.456,+0.671,+0.933,-0.079,-0.291,-7.250,-1.438,-3.125,-4, -9, -7, -4, -7, -2, 1, -29,-1.245755930794278,1.2418849849382558
1503612435875,-0.458,-0.361,+0.457,+0.671,+0.950,-0.066,-0.277,-8.250,-2.062,-3.750,2, -1, 0, -3, -2, -1, 5, -6,-1.2443210485496818,1.2423835802929561
1503612435891,-0.459,-0.359,+0.457,+0.672,+0.965,-0.055,-0.266,-6.812,-5.750,-3.250,-7, -4, -1, -1, -8, -1, 4, -2,-1.2434671472649335,1.2395874299975402
1503612435918,-0.460,-0.358,+0.456,+0.673,+0.975,-0.061,-0.296,-4.375,-10.812,-3.375,-2, 6, 7, 3, 1, -1, 0, 13,-1.24405442842314,1.2362934236879601
1503612435928,-0.461,-0.356,+0.455,+0.674,+0.961,-0.074,-0.299,-3.750,-14.312,-2.000,-24, -37, -9, -2, 0, 0, 0, 11,-1.243006544441595,1.231354058911317
1503612435951,-0.461,-0.355,+0.454,+0.675,+0.945,-0.085,-0.288,-3.938,-10.375,-1.688,0, -4, -2, 1, 3, -1, 3, 70,-1.2414329427554824,1.2278396301151349
1503612435973,-0.461,-0.355,+0.453,+0.676,+0.923,-0.083,-0.280,-2.875,-5.625,+0.000,7, 9, 1, -2, -11, 0, -9, -19,-1.2415016115032573,1.2259792522521278
1503612435988,-0.461,-0.355,+0.453,+0.676,+0.938,-0.094,-0.292,-1.938,+1.000,+0.312,30, 20, 2, 0, 1, -2, -2, 5,-1.2415016115032573,1.2259792522521278
1503612436011,-0.460,-0.356,+0.453,+0.675,+0.961,-0.089,-0.287,-1.188,+6.062,-1.125,-7, -4, -3, 0, 5, -3, -6, -25,-1.2406602566225615,1.2270851513191448
1503612436033,-0.460,-0.356,+0.454,+0.675,+0.986,-0.075,-0.288,+1.375,+4.688,-1.000,-5, 5, 1, -1, 4, -6, 1, -6,-1.2408915130577718,1.2292521633678108
1503612436049,-0.460,-0.357,+0.454,+0.674,+0.993,-0.066,-0.289,+1.375,+1.688,-1.000,10, -4, -2, -3, -4, 0, -2, 8,-1.2422399648628644,1.2306030513284352
1503612436071,-0.461,-0.357,+0.454,+0.674,+0.958,-0.051,-0.281,+0.375,-2.188,-1.250,-13, -12, -4, -2, -2, -1, 6, 12,-1.2444221533834154,1.2308417022536964
1503612436093,-0.461,-0.357,+0.453,+0.674,+0.947,-0.059,-0.272,+0.750,-4.312,+0.562,-4, -9, -5, 2, 5, 1, 0, 8,-1.2441926879856475,1.2286768678906466
1503612436108,-0.461,-0.357,+0.453,+0.674,+0.961,-0.061,-0.274,-0.188,-2.375,+2.000,-9, -3, 1, -1, -2, -2, -1, -5,-1.2441926879856475,1.2286768678906466
1503612436131,-0.461,-0.357,+0.452,+0.675,+0.958,-0.062,-0.295,-0.062,-2.062,+4.312,-4, -2, -8, -2, -3, -1, -1, -2,-1.2442595671564745,1.2268187296996267
1503612436156,-0.461,-0.357,+0.452,+0.675,+0.947,-0.055,-0.276,-2.812,-3.812,+2.875,4, 37, 11, 1, 1, -2, -4, -9,-1.2442595671564745,1.2268187296996267
1503612436168,-0.461,-0.356,+0.452,+0.676,+0.929,-0.057,-0.280,-3.062,-3.688,-0.438,-6, -13, -6, -3, -2, -1, -6, -3,-1.2429123725384652,1.2254678554524452
1503612436192,-0.461,-0.356,+0.452,+0.676,+0.918,-0.062,-0.281,-2.812,+0.688,-2.938,11, 1, 3, 0, 1, -1, 4, 1,-1.2429123725384652,1.2254678554524452
1503612436213,-0.461,-0.356,+0.453,+0.675,+0.943,-0.053,-0.270,-3.250,+4.938,-4.625,-12, -7, -2, 1, 0, 0, 0, 2,-1.2428446139203555,1.2273255455686385
1503612436228,-0.462,-0.355,+0.454,+0.674,+0.967,-0.040,-0.264,-3.312,+2.688,-6.438,18, 24, 17, 6, 0, -1, -5, 30,-1.2433209766349855,1.2277729255028724
1503612436273,-0.463,-0.354,+0.455,+0.674,+0.988,-0.022,-0.292,-1.125,-2.250,-6.438,-10, -15, -8, -2, 0, 0, -3, -18,-1.2440999713653857,1.2285310409724643
1503612436275,-0.464,-0.354,+0.454,+0.674,+0.964,-0.026,-0.325,+1.875,-6.812,-4.125,2, -4, -5, -4, -1, -2, 1, 6,-1.2460630194800215,1.2266019628197764
1503612436289,-0.465,-0.353,+0.453,+0.674,+0.959,-0.042,-0.273,-1.250,-8.562,-1.812,1, -5, -4, -3, -2, -1, -3, -3,-1.2463993729447493,1.22302893886858
1503612436311,-0.465,-0.352,+0.452,+0.675,+0.962,-0.042,-0.280,-1.250,-8.188,+2.312,-4, -2, 0, 2, 3, 0, 3, -10,-1.2448438929061856,1.2195283008081825
1503612436333,-0.465,-0.352,+0.451,+0.675,+0.953,-0.053,-0.299,-0.125,-4.562,+5.312,-2, -6, -4, -1, -3, -3, 5, -5,-1.2446179825138635,1.2173634900269619
1503612436349,-0.464,-0.353,+0.451,+0.676,+0.961,-0.053,-0.297,-1.125,-3.688,+5.625,-9, -13, -3, -1, 1, -2, -2, -1,-1.244346992261317,1.21907871314557
1503612436371,-0.464,-0.353,+0.450,+0.677,+0.969,-0.051,-0.288,+0.750,-3.250,+6.000,-12, -6, -4, 0, 0, 1, 4, 8,-1.2444182780056374,1.2172288239448255
1503612436393,-0.463,-0.354,+0.449,+0.677,+0.950,-0.064,-0.292,+1.250,-0.188,+6.062,2, 0, -5, -5, -3, 1, 3, -3,-1.2436271455663515,1.2164742175826677
1503612436408,-0.463,-0.355,+0.449,+0.677,+0.979,-0.060,-0.292,+0.812,+2.438,+6.250,-6, -2, -3, -4, -1, -2, -2, -5,-1.245261598397859,1.2181285502477932
1503612436431,-0.462,-0.355,+0.449,+0.677,+0.992,-0.047,-0.292,+0.375,+0.688,+6.062,-5, 13, 9, 1, 1, 0, 2, -21,-1.2430700839073476,1.2178826845966768
1503612436453,-0.462,-0.356,+0.448,+0.678,+0.979,-0.046,-0.318,+2.688,-3.438,+7.000,5, 2, -3, -2, -2, 0, -5, 1,-1.2447770821348547,1.2176943002787557
1503612436469,-0.462,-0.357,+0.447,+0.678,+0.941,-0.052,-0.303,+2.750,-3.688,+7.625,-8, -4, -2, -2, -1, -1, 0, -3,-1.246189455937142,1.2172022480321216
1503612436491,-0.461,-0.357,+0.446,+0.679,+0.933,-0.043,-0.299,+1.188,-0.938,+8.375,3, -9, -2, -1, 0, -1, -5, -2,-1.2440678619910948,1.215113065523892
1503612436513,-0.460,-0.358,+0.445,+0.679,+0.947,-0.052,-0.295,+2.000,+2.438,+12.688,-2, -2, 0, 2, 0, -3, 1, 5,-1.2432954037685997,1.2143792081110862
1503612436533,-0.459,-0.360,+0.445,+0.680,+0.979,-0.072,-0.293,+1.688,+2.500,+13.375,-3, -1, -1, -2, -2, 2, 1, -33,-1.2447094698618948,1.217781670933994
1503612436554,-0.458,-0.361,+0.444,+0.680,+0.992,-0.079,-0.287,+3.125,-1.312,+11.688,11, 1, -2, -1, -3, -3, 3, 20,-1.243953399300355,1.2170612215584555
1503612436574,-0.457,-0.363,+0.442,+0.681,+0.971,-0.088,-0.292,+5.625,-5.688,+10.375,1, -4, -5, -2, -1, -1, 0, 7,-1.2449279606771062,1.2161967803459661
1503612436596,-0.457,-0.364,+0.440,+0.682,+0.939,-0.100,-0.287,+7.188,-4.500,+9.562,0, 6, 2, 1, -2, 1, -7, -1,-1.2464215166747246,1.2139188455453431
1503612436612,-0.456,-0.366,+0.439,+0.682,+0.945,-0.127,-0.277,+8.500,+0.375,+10.250,0, 0, -1, -6, -2, -1, -10, -14,-1.2473561230862913,1.2149190769697087
1503612436634,-0.455,-0.369,+0.438,+0.681,+0.951,-0.140,-0.291,+8.938,+6.312,+8.688,-5, 15, 8, 2, 0, 0, -1, -4,-1.2497044856163098,1.2173393966669452
1503612436649,-0.455,-0.372,+0.438,+0.681,+0.945,-0.132,-0.297,+9.625,+8.250,+7.250,0, 6, 6, 4, -2, 2, 0, 0,-1.2547788350739117,1.2224822103758108
1503612436678,-0.454,-0.374,+0.437,+0.680,+0.949,-0.126,-0.293,+11.000,+7.125,+6.812,3, -5, -3, 1, 1, -2, 5, 7,-1.25549847885933,1.2232499627929831
1503612436693,-0.454,-0.377,+0.436,+0.679,+0.958,-0.123,-0.297,+12.750,+7.750,+5.500,-3, -2, -3, -2, 0, 0, 3, -2,-1.260113259020531,1.2260324807108793
1503612436708,-0.454,-0.380,+0.436,+0.678,+0.958,-0.128,-0.297,+13.625,+7.688,+4.750,-8, 6, 1, -1, 0, -1, 2, 4,-1.2649938711124509,1.2309674714413175
1503612436731,-0.454,-0.382,+0.435,+0.677,+0.949,-0.123,-0.268,+13.500,+7.125,+4.375,-1, -9, -4, -2, -5, 0, 5, 5,-1.2679451274495037,1.2320706974207465
1503612436756,-0.455,-0.385,+0.435,+0.676,+0.956,-0.109,-0.273,+15.125,+6.250,+3.500,-4, 7, 5, 1, 0, 0, -9, -11,-1.275031774670711,1.2373189153885822
1503612436768,-0.455,-0.388,+0.433,+0.674,+0.961,-0.117,-0.299,+17.250,+5.812,+6.438,-7, -1, 4, 3, 7, -3, 0, -5,-1.2792838697420708,1.2378670825073366
1503612436791,-0.456,-0.390,+0.432,+0.673,+0.942,-0.125,-0.291,+17.688,+4.750,+5.375,1, -3, -2, -2, -3, 0, 0, 16,-1.2844547156349626,1.2393128563422695
1503612436814,-0.456,-0.393,+0.431,+0.672,+0.941,-0.127,-0.268,+17.688,+4.875,+5.062,1, 1, 1, 2, 9, 1, -4, -6,-1.2892589612851955,1.2423230665699916
1503612436835,-0.456,-0.397,+0.429,+0.671,+0.950,-0.138,-0.259,+17.562,+4.188,+10.125,-4, 3, 3, -1, -5, -2, 2, -7,-1.2956588032018854,1.245110387292329
1503612436851,-0.456,-0.400,+0.427,+0.671,+0.962,-0.136,-0.283,+19.125,+2.750,+12.812,5, 7, -1, -1, -4, 1, 6, -25,-1.3005774345996934,1.2464275590002205
1503612436873,-0.456,-0.403,+0.424,+0.670,+0.976,-0.134,-0.289,+20.062,+0.000,+14.562,8, 0, -6, -3, 1, 0, -3, 41,-1.3050720540749667,1.245461090063019
1503612436896,-0.456,-0.406,+0.421,+0.670,+0.991,-0.144,-0.274,+20.875,-6.562,+16.438,6, 4, -1, -2, 1, 1, 0, 8,-1.309849612041236,1.2448375077502007
1503612440916,-0.446,-0.416,+0.501,+0.614,+0.980,-0.049,-0.117,-6.750,-12.125,+4.562,2, -21, -11, -4, -3, -3, -2, 5,-1.3113067652938408,1.4180008725489817
1503612440937,-0.446,-0.415,+0.500,+0.615,+0.959,-0.072,-0.095,-7.438,-4.562,+2.000,-9, -22, -8, -2, -1, 3, 5, 16,-1.3094544894940638,1.4141991409607373
1503612440954,-0.445,-0.415,+0.502,+0.615,+0.951,-0.050,-0.095,-5.938,+6.688,-2.062,-1, -2, -2, -2, -1, -2, -5, -5,-1.307841400536124,1.418419166003077
1503612440975,-0.445,-0.416,+0.504,+0.613,+0.958,-0.043,-0.103,-2.812,+15.812,-4.250,-14, -1, -2, -3, -3, 0, -5, -3,-1.3096793854902689,1.4242485011764274
1503612440998,-0.444,-0.417,+0.506,+0.611,+1.019,-0.041,-0.101,-0.625,+20.875,-5.438,-4, 0, -2, 0, 0, -5, -3, -6,-1.30948672669702,1.4299725598784248
1503612441014,-0.444,-0.418,+0.508,+0.608,+1.057,-0.045,-0.104,+1.625,+17.500,-6.125,-20, -4, -3, 0, 0, 2, 5, -33,-1.3111083532772634,1.4356931742418653
1503612441035,-0.445,-0.418,+0.509,+0.607,+1.028,-0.045,-0.135,+8.500,+8.000,-5.688,9, -3, -3, 2, 1, 1, -2, 19,-1.3131276899861368,1.4378505896869533
1503612441057,-0.447,-0.419,+0.508,+0.605,+0.978,-0.067,-0.117,+12.562,+2.875,-8.188,-1, 7, 1, -1, 4, -2, 0, 5,-1.3184151538942295,1.4374027934114957
1503612441073,-0.448,-0.420,+0.508,+0.604,+0.972,-0.085,-0.082,+10.312,+3.562,-8.312,8, 1, 3, -3, -5, -1, 1, 9,-1.3221104939935655,1.439163804841999
1503612441095,-0.448,-0.421,+0.507,+0.604,+1.017,-0.085,-0.069,+5.688,-0.688,+0.875,3, 3, 2, -1, -4, -1, -3, 3,-1.3237862906702853,1.4387772304152697
1503612441118,-0.448,-0.422,+0.506,+0.604,+1.036,-0.091,-0.026,-3.000,-8.000,+5.438,5, 8, 2, 1, -1, -1, 4, 10,-1.3254658158985124,1.4383983970055023
1503612441133,-0.448,-0.420,+0.505,+0.607,+1.022,-0.066,-0.024,-11.312,-19.625,+2.000,0, -2, -1, 0, 8, 2, 3, 7,-1.3221518940908037,1.4330533610654808
1503612441156,-0.448,-0.417,+0.504,+0.609,+0.994,-0.003,-0.086,-11.188,-24.875,+3.688,0, 3, 4, 1, 1, -2, 0, 1,-1.3167637958613694,1.4258063428144172
1503612441177,-0.449,-0.414,+0.501,+0.613,+0.983,-0.014,-0.107,-10.938,-27.250,+6.250,-14, -4, 5, 0, 1, -3, -11, -7,-1.3134928048116576,1.4146673767895679
1503612441193,-0.450,-0.411,+0.500,+0.616,+0.963,-0.035,-0.090,-13.812,-24.438,+3.312,0, 14, -7, -5, -3, -3, -3, -59,-1.3104666687845727,1.4077787652646687
1503612441218,-0.450,-0.408,+0.499,+0.618,+0.954,-0.016,-0.098,-14.000,-20.250,+3.125,1, -8, -4, 0, -2, -2, 5, 35,-1.3051908307926179,1.4006325865007596
1503612441238,-0.450,-0.406,+0.498,+0.621,+0.961,-0.005,-0.116,-13.312,-16.125,+3.875,16, -2, -2, -2, 1, 0, -2, 2,-1.3020179531841918,1.3954463123995824
1503612441258,-0.449,-0.404,+0.498,+0.622,+0.989,-0.022,-0.119,-13.250,-10.688,+2.750,-5, 4, 5, 2, 1, 0, -6, 2,-1.2965308747911328,1.3919685904460208
1503612441276,-0.449,-0.402,+0.497,+0.624,+1.021,-0.024,-0.146,-11.500,-10.250,+4.188,-20, -2, -1, 1, -1, 0, -3, -4,-1.2931503290258086,1.3866406200763524
1503612441305,-0.449,-0.400,+0.496,+0.626,+1.022,-0.021,-0.149,-10.000,-15.438,+4.438,-2, -1, -1, -3, 0, -2, 1, 22,-1.289786879304402,1.3813299721375778
1503612441313,-0.449,-0.397,+0.495,+0.628,+0.982,-0.039,-0.126,-11.250,-17.500,+0.250,-9, -8, -4, -3, -16, 1, -3, -8,-1.2846323059629394,1.3742985496165172
1503612441336,-0.449,-0.395,+0.495,+0.630,+0.970,-0.039,-0.139,-9.938,-14.875,+0.812,10, -13, -3, -2, -6, -1, 1, 27,-1.2815358139262183,1.3712219670646058
1503612441361,-0.449,-0.394,+0.494,+0.632,+0.971,-0.053,-0.169,-6.688,-8.688,+1.625,6, 8, 5, 1, 2, -2, 0, 1,-1.2800265908212354,1.3676960762827082
1503612441373,-0.449,-0.393,+0.493,+0.633,+0.992,-0.056,-0.177,-7.312,-5.375,+0.688,-1, -6, -2, 1, 3, -1, 0, -6,-1.2782646043513628,1.363977566067552
1503612441396,-0.449,-0.392,+0.493,+0.634,+1.016,-0.068,-0.149,-8.438,-8.250,+1.125,3, 22, 4, 0, 4, -3, -2, -27,-1.2767339574292542,1.362457173729261
1503612441426,-0.449,-0.391,+0.492,+0.635,+1.018,-0.073,-0.143,-7.938,-12.750,-0.125,9, -1, -2, -3, -3, -1, -8, 2,-1.2749800988728255,1.3587469111246007
1503612441433,-0.450,-0.389,+0.491,+0.637,+0.989,-0.077,-0.155,-6.000,-14.188,-2.188,-4, -5, -1, -1, -7, 1, -2, -3,-1.2738088407384642,1.3537020018850108
1503612441457,-0.451,-0.387,+0.490,+0.638,+0.982,-0.062,-0.180,-4.188,-14.312,-2.688,7, 17, 6, -1, 0, 0, -1, -2,-1.2723977911393123,1.3484648152483028
1503612441478,-0.451,-0.385,+0.488,+0.640,+1.012,-0.060,-0.180,-5.438,-17.375,-1.562,-16, -4, -3, -1, 0, -2, -1, -12,-1.2689413175259134,1.3410931454438757
1503612441493,-0.452,-0.383,+0.487,+0.642,+1.021,-0.066,-0.168,-7.375,-21.375,+0.562,4, -2, -2, 1, 0, 0, 3, -12,-1.2678413463900937,1.3361134214050827
1503612441516,-0.453,-0.381,+0.484,+0.644,+0.990,-0.048,-0.168,-7.500,-25.500,+2.312,5, 0, 1, 0, 0, -1, 1, 5,-1.2663098009490559,1.326768707221163
1503612441538,-0.454,-0.379,+0.482,+0.647,+0.976,-0.037,-0.195,-7.438,-25.438,+3.500,-1, -7, -3, -1, 1, 2, -2, 13,-1.265307172935093,1.3198848736332525
1503612441557,-0.454,-0.377,+0.480,+0.649,+0.967,-0.040,-0.210,-6.688,-22.000,+5.688,6, 1, -3, -3, -3, -4, -8, 24,-1.261930747815311,1.312599978156058
1503612441579,-0.454,-0.376,+0.478,+0.652,+0.974,-0.059,-0.202,-6.062,-16.188,+5.938,12, 0, 0, -1, 0, 0, 2, -5,-1.2605739161992853,1.3072723192158693
1503612441598,-0.454,-0.375,+0.476,+0.653,+0.987,-0.057,-0.196,-4.625,-14.188,+4.250,-7, -3, -1, -3, -4, 0, -2, 9,-1.2586675317402993,1.3014591884335378
1503612441622,-0.455,-0.373,+0.475,+0.655,+0.988,-0.046,-0.213,-4.625,-14.500,+1.812,-2, -6, -1, -5, -8, -4, -4, -24,-1.257695425051147,1.296610085128764
1503612441637,-0.455,-0.372,+0.474,+0.656,+0.966,-0.037,-0.235,-5.125,-14.438,+1.938,1, 6, 3, -1, -3, -3, 4, 5,-1.256034192620297,1.29299951372359
1503612441663,-0.456,-0.370,+0.472,+0.658,+0.964,-0.021,-0.236,-4.188,-14.188,+2.688,-3, -1, -1, -1, 2, -1, -7, -8,-1.254868804956781,1.2860000806913963
1503612441673,-0.456,-0.369,+0.471,+0.659,+0.953,-0.032,-0.231,-2.500,-10.438,+5.125,3, -5, -5, -4, -8, -2, 1, 13,-1.2532223061839658,1.2824050241875962
1503612441696,-0.456,-0.369,+0.470,+0.660,+0.943,-0.050,-0.222,-2.000,-8.188,+3.938,5, 2, -3, -1, -4, -4, 2, 6,-1.2532767105086444,1.2804907832716952
1503612441718,-0.455,-0.369,+0.469,+0.660,+0.939,-0.062,-0.222,-1.562,-3.438,+4.000,1, -2, 0, 1, 8, 3, -8, -5,-1.2508968740656046,1.2780957719325972
1503612441733,-0.455,-0.369,+0.469,+0.661,+0.953,-0.059,-0.216,-1.938,-1.000,+2.750,-4, -14, -2, -1, 2, 1, 7, -1,-1.2511835637536193,1.2783669137264377
1503612441759,-0.455,-0.370,+0.469,+0.660,+0.954,-0.046,-0.229,-0.625,+1.875,+2.438,4, 11, 1, -1, -1, 0, 8, 8,-1.2525987013840267,1.2797772936618856
1503612441778,-0.455,-0.370,+0.469,+0.660,+0.957,-0.051,-0.245,+1.375,+3.000,+2.500,0, -5, 0, -1, -10, 1, -1, -2,-1.2525987013840267,1.2797772936618856
1503612441800,-0.454,-0.371,+0.469,+0.660,+0.967,-0.057,-0.223,+1.500,+3.688,+3.062,-5, -3, -3, -1, 7, -1, -7, -11,-1.2521589531393265,1.2812489069928192
1503612441816,-0.454,-0.372,+0.470,+0.660,+0.980,-0.060,-0.200,+0.250,+1.250,+3.312,-3, -8, -4, -2, -1, -2, 0, -4,-1.2540997529524558,1.285114230893708
1503612441838,-0.454,-0.372,+0.469,+0.660,+0.986,-0.060,-0.226,+0.500,-3.438,+4.438,-10, 14, 3, 3, 3, -3, 8, -2,-1.2538675656012324,1.2829358153169816
1503612441853,-0.453,-0.372,+0.468,+0.661,+0.994,-0.068,-0.245,+0.438,-6.500,+6.625,1, -7, -3, -2, 0, 0, 7, 6,-1.2517775451784465,1.2808130977115388
1503612441876,-0.453,-0.373,+0.466,+0.662,+0.982,-0.069,-0.265,+0.438,-6.375,+9.938,8, 13, 3, 0, -5, 1, 2, 21,-1.25330634452242,1.2784238152562837
1503612441898,-0.452,-0.373,+0.464,+0.664,+0.954,-0.082,-0.243,-0.125,-5.875,+10.500,-5, -17, -9, -2, -2, -2, -2, -3,-1.251265711181491,1.2744057230973818
1503612441913,-0.451,-0.374,+0.463,+0.665,+0.959,-0.095,-0.227,+0.438,-3.938,+9.125,0, -4, 1, 1, 13, 6, 0, -5,-1.2508910018272503,1.2739882013480168
1503612441936,-0.451,-0.375,+0.462,+0.665,+0.979,-0.090,-0.251,+1.938,-2.938,+8.875,4, 5, 3, 0, -9, -4, -6, -2,-1.2523736580277953,1.27352475349521
1503612441958,-0.450,-0.376,+0.461,+0.666,+0.976,-0.082,-0.244,+1.250,-3.125,+9.062,-2, 4, -1, -1, 0, -2, -9, -9,-1.2520065974519798,1.2731187548061638
1503612441973,-0.450,-0.376,+0.460,+0.667,+0.962,-0.076,-0.249,+2.875,-5.688,+6.938,2, 13, 4, 0, 2, 1, 2, -1,-1.2520531504086512,1.2712301553449545
1503612441996,-0.450,-0.377,+0.458,+0.667,+0.949,-0.089,-0.255,+5.125,-3.938,+5.125,3, 2, -3, -2, 2, -2, -2, -4,-1.2533048132856879,1.2686268132946168
1503612442025,-0.450,-0.378,+0.457,+0.667,+0.949,-0.104,-0.244,+4.625,-1.000,+6.938,2, 15, 5, 5, 3, 3, 4, 10,-1.2547966636769676,1.26818999428048
1503612442033,-0.450,-0.380,+0.456,+0.667,+0.969,-0.096,-0.245,+5.938,+1.562,+7.188,-5, -11, -6, -2, -14, -4, -1, -3,-1.2580261397265076,1.2694863750628511
1503612442058,-0.450,-0.381,+0.456,+0.667,+0.987,-0.102,-0.260,+8.000,+3.188,+4.500,-5, -3, 2, -1, -5, 0, 0, -6,-1.2597626633349317,1.2712146001022657
1503612442078,-0.450,-0.383,+0.455,+0.667,+0.992,-0.091,-0.264,+8.562,-0.188,+4.812,-3, 25, 11, 2, 7, 0, -7, -10,-1.2630100602899388,1.2725369462659504
1503612442096,-0.450,-0.384,+0.453,+0.667,+0.972,-0.085,-0.252,+8.438,-3.062,+6.250,-16, 3, -1, -1, -2, -1, 5, 3,-1.2642892890303608,1.2699982149227207
1503612442116,-0.450,-0.386,+0.452,+0.667,+0.971,-0.108,-0.238,+9.812,-1.688,+7.438,2, -8, -7, -4, -1, -2, 6, 3,-1.2675571118958364,1.2713565587980638
1503612442138,-0.450,-0.388,+0.450,+0.666,+0.963,-0.130,-0.246,+10.500,+1.625,+8.188,-8, -8, -3, -3, 12, 3, -2, -6,-1.2703387745891994,1.2703387745891994
1503612442153,-0.450,-0.390,+0.449,+0.666,+0.971,-0.121,-0.257,+10.562,+1.938,+8.562,1, -15, -5, -4, -7, -4, -3, 1,-1.2736358347415444,1.2717420320203487
1503612442176,-0.450,-0.392,+0.448,+0.666,+0.976,-0.110,-0.252,+10.562,+2.750,+6.062,-2, -5, -6, -2, -3, -2, -6, 0,-1.2769455552507234,1.273164371021742
1503612442197,-0.450,-0.394,+0.447,+0.665,+0.973,-0.116,-0.240,+11.250,+3.250,+3.562,-6, -7, -4, -1, -8, -3, -10, -2,-1.2800081971575565,1.2743428699687052
1503612442212,-0.451,-0.396,+0.446,+0.664,+0.953,-0.122,-0.237,+12.000,+3.875,+1.750,2, 28, 8, 2, -1, -1, 0, -5,-1.2852099523901,1.275775981179007
1503612442235,-0.452,-0.398,+0.446,+0.662,+0.942,-0.113,-0.228,+12.938,+6.500,-1.812,-3, -7, -2, 0, -4, 1, -1, 1,-1.2903979408520312,1.2790777320017455
1503612442259,-0.453,-0.400,+0.447,+0.660,+0.954,-0.096,-0.227,+14.812,+10.125,-4.750,3, 1, -2, -2, -5, -1, 1, 5,-1.295823401581614,1.2845008161451705
1503612442279,-0.454,-0.402,+0.447,+0.657,+0.974,-0.105,-0.226,+16.438,+10.375,-6.688,-7, -1, 0, 2, 16, -1, -10, -3,-1.30080145663365,1.2875846221266598
1503612442295,-0.456,-0.404,+0.447,+0.655,+0.982,-0.112,-0.222,+16.688,+7.062,-6.875,1, -5, -2, -2, -6, -4, 1, -3,-1.3081628938099734,1.2911662000711144
1503612442317,-0.458,-0.406,+0.447,+0.652,+0.963,-0.115,-0.212,+16.250,+5.188,-10.375,2, 11, 5, 0, -4, 0, 2, 1,-1.3153076957462468,1.2945171751976017
1503612442340,-0.460,-0.407,+0.447,+0.650,+0.956,-0.101,-0.203,+16.625,+5.000,-10.125,-1, -6, 1, 0, -2, 0, -2, -1,-1.3208945847202997,1.2963007448894965
1503612442354,-0.462,-0.409,+0.448,+0.647,+0.975,-0.092,-0.209,+15.438,+7.688,-10.250,-4, -15, -3, 2, -8, -1, 0, -2,-1.3282816955119299,1.3017678407067237
1503612442377,-0.464,-0.411,+0.448,+0.644,+0.997,-0.096,-0.201,+14.438,+9.312,-8.562,0, -18, -8, -2, -1, 2, 5, 8,-1.3354932733802205,1.3051664408092283
1503612442400,-0.465,-0.412,+0.448,+0.642,+0.998,-0.098,-0.204,+14.375,+5.562,-4.812,-1, 2, 1, -1, -2, -1, 0, -8,-1.339001650937289,1.3067556549120012
1503612442414,-0.466,-0.414,+0.448,+0.641,+1.004,-0.096,-0.204,+14.688,+4.125,-0.938,-3, 10, 1, -1, -1, 2, 3, 3,-1.344557169648674,1.3104361241837232
1503612442437,-0.467,-0.416,+0.447,+0.640,+1.009,-0.098,-0.202,+12.375,+2.125,+2.188,5, 19, 5, -1, -3, -4, -2, -5,-1.3499377824863714,1.3120585084148177
1503612442452,-0.467,-0.418,+0.446,+0.639,+0.995,-0.096,-0.193,+10.875,+0.562,+6.938,-6, 4, -2, 3, 7, 1, 2, 0,-1.353219355638213,1.3134890126602492
1503612442474,-0.467,-0.420,+0.444,+0.639,+0.999,-0.112,-0.202,+10.938,-0.438,+10.188,-5, -10, -4, -3, 0, 2, 17, -1,-1.3565397543991244,1.3131099296986055
1503612442498,-0.467,-0.422,+0.443,+0.639,+1.015,-0.119,-0.211,+11.125,+3.312,+11.562,3, -5, -1, -2, -1, -2, -9, 3,-1.3600546431092564,1.3148141889410074
1503612442512,-0.466,-0.425,+0.441,+0.638,+1.024,-0.110,-0.200,+11.312,+2.750,+12.688,6, -10, -6, 2, 9, 0, -6, -3,-1.3629644037164936,1.3159439364304473
1503612442536,-0.466,-0.427,+0.439,+0.638,+1.010,-0.112,-0.210,+11.500,-1.312,+12.438,2, -8, -2, -2, 0, -1, -3, 5,-1.3663439340976706,1.3156593128051841
1503612442557,-0.466,-0.429,+0.438,+0.638,+0.999,-0.116,-0.200,+12.688,-0.812,+12.375,-17, -7, -2, -5, -2, 0, 5, -9,-1.3699134493442253,1.3174408788184262
1503612442579,-0.466,-0.432,+0.435,+0.638,+0.996,-0.109,-0.225,+14.625,+0.312,+14.812,4, 6, 5, 4, 9, -3, -13, -3,-1.375037328068176,1.3171089676636496
1503612442595,-0.465,-0.434,+0.433,+0.638,+1.000,-0.109,-0.219,+13.938,+2.562,+15.625,8, -1, -4, -2, -3, 0, -2, 2,-1.3763776730635644,1.316705806359257
1503612442617,-0.465,-0.437,+0.432,+0.638,+0.992,-0.113,-0.214,+14.750,+3.562,+17.125,3, 6, 2, 0, -6, 1, 4, 1,-1.381901893061632,1.3205141614802658
1503612442640,-0.464,-0.440,+0.429,+0.638,+0.990,-0.114,-0.208,+17.438,+1.062,+17.625,-3, -3, -3, -1, -4, 0, -19, -4,-1.38503891149812,1.320126919629848
1503612442654,-0.464,-0.443,+0.426,+0.637,+0.985,-0.116,-0.226,+20.062,+1.500,+20.438,5, -6, -8, -7, -15, -5, -9, -1,-1.3901374211269206,1.3198145760669724
1503612442677,-0.463,-0.447,+0.423,+0.637,+0.973,-0.131,-0.228,+20.500,+3.438,+24.625,0, -1, -5, -2, 0, 0, 0, 0,-1.3953065142742294,1.3215570168000517
1503612442700,-0.462,-0.452,+0.419,+0.638,+0.983,-0.152,-0.214,+21.688,+1.000,+28.500,-6, 10, -1, -4, -4, -1, -2, -1,-1.4025115243393682,1.3236474893861094
1503612442715,-0.460,-0.456,+0.415,+0.638,+0.977,-0.188,-0.219,+22.562,+0.500,+29.688,6, -3, -2, -5, -1, -2, -15, 2,-1.4056261496678317,1.3234261429287932
1503612442738,-0.459,-0.461,+0.411,+0.639,+0.970,-0.205,-0.220,+23.875,+1.750,+31.375,9, -4, 1, 3, 6, 0, -1, 1,-1.4130409962687103,1.3258156790192905
1503612442774,-0.457,-0.466,+0.406,+0.640,+0.963,-0.219,-0.229,+25.812,+1.688,+34.875,-3, 2, 0, -2, -5, -2, 0, 0,-1.4183680668948144,1.326200897706734
1503612442781,-0.455,-0.472,+0.401,+0.640,+0.967,-0.234,-0.215,+25.875,+1.625,+37.688,-5, -11, -6, -3, -12, -2, 1, 2,-1.4257348686501425,1.3286847671971522
1503612442797,-0.452,-0.477,+0.396,+0.641,+0.956,-0.255,-0.208,+25.750,+2.500,+37.000,-4, -1, -1, -1, 4, 1, 0, -5,-1.429324893081594,1.329238914832845
1503612442819,-0.450,-0.483,+0.391,+0.642,+0.951,-0.276,-0.209,+26.562,+2.562,+36.625,8, -8, -2, 1, -2, -2, 4, 1,-1.437194856963202,1.3323852146806765
1503612442835,-0.448,-0.488,+0.386,+0.642,+0.943,-0.295,-0.206,+27.188,+3.312,+35.438,-2, -1, -2, -2, 1, 0, 2, 3,-1.4430213616271403,1.333396599561289
1503612442857,-0.446,-0.494,+0.381,+0.642,+0.961,-0.330,-0.198,+28.000,+2.500,+34.750,-12, 2, 6, 1, -1, 2, 1, -6,-1.4511545180332974,1.336836716712923
1503612442879,-0.444,-0.500,+0.376,+0.642,+0.938,-0.348,-0.168,+27.688,+1.688,+32.438,7, -9, 2, -2, -16, -5, -2, 23,-1.4595062025359804,1.3405429868849768
1503612442897,-0.442,-0.505,+0.371,+0.642,+0.916,-0.329,-0.156,+28.625,+2.125,+29.938,-1, 6, 7, 6, 5, 2, -15, -11,-1.4658783957773127,1.3422307358230656
1503612448604,-0.374,-0.357,+0.545,+0.660,+0.981,+0.026,-0.093,-20.375,-26.750,-15.750,-3, -2, -2, -2, 1, -1, 24, -6,-1.085686014887856,1.4188476046950467
1503612448624,-0.375,-0.348,+0.543,+0.666,+1.039,+0.022,-0.255,-35.375,-38.625,-9.125,-13, -11, -8, -1, 4, -1, 3, -16,-1.0732564988621807,1.4016488231954785
1503612448639,-0.375,-0.344,+0.544,+0.668,+1.040,+0.031,-0.091,-26.125,-15.562,-6.688,-1, 3, 2, 1, -9, 0, -4, 10,-1.0673582447197212,1.3984190181510843
1503612448662,-0.375,-0.340,+0.543,+0.670,+1.060,+0.003,-0.088,-19.188,-24.625,-2.375,4, -5, -3, -2, -7, 1, -5, 1,-1.0608534428516492,1.3905056469901813
1503612448684,-0.376,-0.336,+0.541,+0.673,+1.079,+0.027,-0.162,-13.250,-27.938,+2.062,1, 1, 0, 2, 7, 3, -6, -8,-1.0564183725445841,1.380592282851273
1503612448700,-0.376,-0.335,+0.540,+0.674,+0.972,+0.022,-0.154,-2.438,-11.312,+1.688,13, 4, -1, 1, 1, 5, 2, 19,-1.054755871309411,1.3769536975616927
1503612448722,-0.377,-0.335,+0.539,+0.675,+0.994,-0.047,-0.156,+0.312,-6.250,+1.875,37, 21, 4, -2, -5, 0, 2, 2,-1.0567739752665113,1.3749118413902965
1503612448747,-0.377,-0.335,+0.539,+0.675,+0.989,-0.036,-0.168,+1.750,+2.250,+0.562,-10, -1, 1, 3, -4, 0, -8, -4,-1.0567739752665113,1.3749118413902965
1503612448759,-0.379,-0.336,+0.541,+0.671,+0.974,-0.030,-0.179,+12.250,+21.250,-14.875,-13, 2, 2, 2, 4, -3, -11, 14,-1.0616087875424005,1.3805642664055164
1503612448782,-0.381,-0.338,+0.542,+0.668,+0.953,-0.099,-0.148,+18.312,+14.438,-14.312,1, -17, -5, -6, -9, -1, -3, -51,-1.0682025758695362,1.38552587405589
1503612448798,-0.384,-0.339,+0.542,+0.666,+0.933,-0.113,-0.168,+12.312,+7.062,-20.062,-3, 12, 6, 1, -1, 2, 0, 6,-1.075129916419677,1.3869736489303757
1503612448819,-0.387,-0.338,+0.543,+0.664,+0.978,-0.038,-0.120,+6.750,+2.625,-21.750,-24, -14, -1, 0, 0, -1, 3, 3,-1.078980473161736,1.3878532062215312
1503612448842,-0.388,-0.338,+0.544,+0.663,+1.007,-0.023,-0.120,+2.812,+0.438,-12.875,-13, 13, 2, 1, 7, 6, 6, -12,-1.080927016735921,1.3901578000705852
1503612448858,-0.390,-0.336,+0.544,+0.663,+1.028,-0.010,-0.099,-3.062,-8.438,-7.438,-3, -6, -6, -4, 2, -4, -1, 21,-1.081518031939302,1.3874687904759466
1503612448880,-0.390,-0.334,+0.543,+0.665,+1.040,-0.007,-0.093,-9.375,-19.688,-2.688,8, 4, 2, 3, 20, 4, 2, 11,-1.0785495079014176,1.3825678074475451
1503612448902,-0.390,-0.331,+0.540,+0.668,+1.007,+0.007,-0.129,-10.438,-26.375,+4.438,-4, -21, -11, -6, 0, -8, -8, 1,-1.0736583581706418,1.3716797360560646
1503612448917,-0.390,-0.329,+0.537,+0.671,+0.956,-0.016,-0.186,-10.562,-26.375,+7.062,-8, -8, -7, -2, -12, -5, -1, -11,-1.0704797889012023,1.362283154668726
1503612448939,-0.390,-0.327,+0.535,+0.674,+1.000,-0.011,-0.126,-11.500,-23.562,+3.750,8, -6, -5, -1, -7, 0, -12, -8,-1.067640582481506,1.3553022614788068
1503612448962,-0.390,-0.325,+0.533,+0.677,+1.006,-0.030,-0.141,-11.562,-22.625,+6.312,10, 7, 7, 0, 0, -1, 2, 3,-1.0648247642007849,1.3483538229332734
1503612448977,-0.389,-0.323,+0.531,+0.680,+0.979,-0.043,-0.166,-12.688,-21.250,+3.125,-1, 0, -1, -3, -6, -1, 6, -4,-1.0600085996129125,1.341290912542396
1503612448999,-0.389,-0.321,+0.530,+0.682,+0.983,-0.024,-0.171,-10.000,-17.500,+1.750,1, -9, -6, -2, 0, -3, 1, 22,-1.0571695052374248,1.3365348568712248
1503612449021,-0.390,-0.318,+0.529,+0.684,+0.992,+0.003,-0.196,-7.375,-18.188,-1.375,-1, 4, 2, -2, -4, 0, -3, 7,-1.054749425885211,1.3305285103453024
1503612449044,-0.391,-0.317,+0.527,+0.685,+0.983,+0.006,-0.238,-1.375,-15.312,-0.375,20, 3, 7, 4, -2, 0, -2, -9,-1.0549165678715753,1.324757296866013
1503612449059,-0.391,-0.317,+0.525,+0.686,+0.945,-0.029,-0.194,-1.625,-9.500,+2.562,-8, -21, -10, 1, 20, 0, -16, -34,-1.0546767029254696,1.320261663731409
1503612449082,-0.391,-0.316,+0.524,+0.687,+0.947,-0.025,-0.205,-2.250,-5.438,+4.125,11, -11, -9, -5, 2, -1, 6, 8,-1.0531304300819107,1.316725522152195
1503612449097,-0.391,-0.317,+0.524,+0.687,+0.999,+0.003,-0.199,-0.562,-0.438,+4.500,10, -8, 0, 1, -5, -7, -23, -17,-1.0547497697003385,1.3181479971289236
1503612449119,-0.390,-0.317,+0.524,+0.687,+1.018,-0.001,-0.198,+1.938,-0.875,+5.750,0, 0, 0, -2, -1, 2, -1, -2,-1.0527115566188239,1.317989356457719
1503612449142,-0.391,-0.318,+0.522,+0.688,+0.996,-0.012,-0.208,+6.438,-7.125,+5.688,0, 0, 0, -1, -11, 1, 0, 16,-1.0561304417323032,1.3150943312351249
1503612449157,-0.392,-0.319,+0.520,+0.689,+0.966,-0.021,-0.211,+7.000,-9.062,+5.000,9, 2, -3, 0, 2, 4, 5, 33,-1.0595523804255604,1.3122202743343825
1503612449180,-0.392,-0.320,+0.520,+0.688,+0.939,-0.011,-0.191,+9.125,-0.125,+5.000,-7, -1, -3, 1, -7, -10, -27, -7,-1.0607930055776513,1.3133911188731286
1503612449202,-0.392,-0.323,+0.519,+0.687,+0.975,-0.014,-0.182,+11.438,+6.875,+6.938,-5, 1, 2, 0, -1, 0, 7, 1,-1.0649894103734405,1.3150987201174273
1503612449218,-0.392,-0.325,+0.519,+0.687,+1.029,-0.031,-0.192,+11.562,+3.938,+8.562,-7, 17, 7, 0, -1, 2, -2, -16,-1.0682642296681109,1.3180039655286473
1503612449242,-0.393,-0.328,+0.517,+0.686,+1.033,-0.027,-0.220,+12.750,-1.562,+8.062,-6, -11, -6, -2, 7, -3, 2, 7,-1.0742308393355553,1.3175911453373308
1503612449262,-0.394,-0.330,+0.514,+0.687,+0.991,-0.022,-0.246,+19.125,-5.062,+10.562,7, -2, -2, -4, -6, -2, 3, 16,-1.0790046722150892,1.31393256030241
1503612449284,-0.395,-0.333,+0.512,+0.686,+0.982,-0.030,-0.207,+21.500,-2.188,+8.875,-7, 28, 13, 3, 5, 3, 4, 13,-1.0850146973248644,1.3136216828106753
1503612449299,-0.396,-0.337,+0.511,+0.685,+1.011,-0.030,-0.178,+23.875,+1.250,+10.438,-14, -7, -5, -1, 7, -2, 1, -14,-1.0930320485742857,1.3171968108161134
1503612449322,-0.396,-0.342,+0.508,+0.684,+1.016,-0.047,-0.188,+26.000,+0.938,+17.438,7, 2, 0, -2, -8, -3, -4, -1,-1.1001200910017246,1.3175595128318016
1503612449344,-0.397,-0.346,+0.505,+0.684,+1.010,-0.068,-0.193,+27.250,-1.812,+15.750,3, -1, 1, -1, -2, -2, -1, -6,-1.1079808322043008,1.3169411630031191
1503612449359,-0.397,-0.351,+0.502,+0.683,+0.976,-0.075,-0.215,+29.625,+0.312,+18.000,3, -10, -5, -2, -6, -2, 13, -1,-1.1152040532274428,1.317555964375556
1503612449382,-0.398,-0.357,+0.499,+0.682,+0.974,-0.084,-0.207,+30.688,+4.562,+20.188,6, -3, -2, -1, 4, -2, -8, -2,-1.1262651388623355,1.3200724534831472
1503612449404,-0.397,-0.363,+0.496,+0.681,+1.017,-0.093,-0.206,+31.938,+7.812,+21.562,0, 1, 1, 0, -9, 0, 3, 6,-1.1333800223751935,1.322415820088292
1503612449419,-0.397,-0.370,+0.493,+0.680,+1.038,-0.101,-0.201,+33.688,+3.875,+24.938,-10, -6, 2, 1, -11, -3, -3, -11,-1.1444101918653902,1.3267578309517276
1503612449444,-0.398,-0.375,+0.489,+0.680,+1.030,-0.117,-0.200,+34.062,-5.938,+23.125,4, -4, -4, -3, -1, -1, 0, -2,-1.1540691272943522,1.3261859474780562
1503612449464,-0.399,-0.381,+0.483,+0.680,+0.998,-0.130,-0.207,+35.312,-10.375,+24.312,1, 0, -2, -2, 3, 0, -7, -1,-1.1649939119454347,1.3230081186802614
1503612449487,-0.400,-0.387,+0.478,+0.680,+0.947,-0.144,-0.199,+37.062,-6.375,+25.562,-1, -6, -2, -1, 4, 1, -3, -4,-1.1763405612954005,1.3223156567772485
1503612454526,-0.375,-0.373,+0.537,+0.657,+1.056,-0.073,-0.076,-3.688,+5.688,+12.312,3, 15, 0, -2, -4, -5, -1, 2,-1.112701831605702,1.4246877723366105
1503612454545,-0.373,-0.374,+0.536,+0.659,+1.066,-0.036,-0.122,-7.562,-1.125,+24.562,0, -4, -5, -1, -5, -1, 10, 8,-1.1109932051427829,1.424052508265671
1503612454564,-0.369,-0.375,+0.534,+0.662,+1.056,-0.054,-0.127,-8.188,-7.312,+31.438,-2, 0, 4, 3, -2, -2, 0, -1,-1.1054405011273367,1.4210385141063997
1503612454598,-0.366,-0.377,+0.531,+0.665,+1.034,-0.116,-0.067,-8.562,-14.062,+32.188,-2, -7, -7, -4, -1, -2, -2, -10,-1.103320891414301,1.4174377049832025
1503612454622,-0.362,-0.378,+0.528,+0.669,+1.009,-0.142,-0.063,-7.938,-15.125,+29.125,-4, -7, -4, 0, -1, -2, -1, -1,-1.0977924322170014,1.4122980081492347
1503612454624,-0.360,-0.380,+0.525,+0.671,+0.978,-0.167,-0.063,-4.188,-9.812,+23.875,-4, -4, -3, -2, 4, -5, -4, -7,-1.097276461550819,1.4087079249557861
1503612454647,-0.357,-0.381,+0.524,+0.672,+0.994,-0.173,-0.085,-4.562,-4.000,+16.188,-4, -7, -1, 0, 3, 2, -2, -2,-1.0933834845002566,1.4078300020959944
1503612454662,-0.357,-0.382,+0.524,+0.673,+0.975,-0.105,-0.126,-0.500,+0.875,+6.438,-6, 5, 6, 0, -5, -2, -4, 0,-1.095568943119874,1.4096381301007566
1503612454685,-0.357,-0.382,+0.524,+0.672,+0.932,-0.075,-0.145,+4.375,+4.875,+2.625,-3, -10, -6, -5, 3, 3, -4, 3,-1.0952389580165958,1.4094682433640453
1503612454707,-0.357,-0.384,+0.525,+0.671,+0.933,-0.110,-0.102,+3.875,+13.000,+3.000,4, -4, -4, -1, -7, -2, -2, -4,-1.0989828438339502,1.414890035876877
1503612454722,-0.355,-0.386,+0.527,+0.669,+0.966,-0.172,-0.069,+2.375,+20.062,+4.438,-1, -5, -3, -4, 0, -2, -5, 1,-1.0989804012645035,1.4222338964697283
1503612454747,-0.354,-0.387,+0.529,+0.667,+1.002,-0.134,-0.099,+2.750,+17.562,-1.812,-5, -5, -5, -4, -1, -9, -13, -12,-1.0990257947286688,1.4280736732616952
1503612454766,-0.356,-0.388,+0.531,+0.664,+0.990,-0.080,-0.119,+8.250,+17.625,-8.000,6, -6, -3, -1, -7, -2, 3, 3,-1.104414747445608,1.4341089636463535
1503612454784,-0.357,-0.389,+0.532,+0.662,+0.939,-0.115,-0.093,+11.938,+13.938,-10.375,-3, -14, -8, -1, 2, 1, 6, 5,-1.1078907328701237,1.4378831911612495
1503612454804,-0.358,-0.391,+0.534,+0.658,+0.940,-0.187,-0.026,+12.688,+17.750,-13.188,-3, 0, -5, -3, -4, -4, -5, -8,-1.112969875130339,1.44535085974221
1503612454826,-0.359,-0.394,+0.536,+0.655,+1.007,-0.246,-0.022,+13.312,+20.625,-16.375,2, 1, 4, 0, 1, -1, 0, -1,-1.1202850495229253,1.4546414128020313
1503612454842,-0.361,-0.394,+0.537,+0.652,+1.005,-0.200,-0.102,+11.438,+10.188,-22.688,8, -2, 2, 4, 3, 4, 4, 2,-1.1234454786338315,1.4567526887525815
1503612454864,-0.365,-0.393,+0.538,+0.651,+0.980,-0.141,-0.121,+7.875,-3.375,-24.938,-1, 8, 7, 1, -1, 1, 10, 4,-1.1291160703528758,1.4576320285885078
1503612454887,-0.368,-0.391,+0.538,+0.650,+0.981,-0.135,-0.072,+2.625,-8.375,-20.562,-3, -3, -2, -3, 5, 1, -2, -1,-1.1307019243169283,1.454475346870318
1503612454902,-0.370,-0.389,+0.537,+0.650,+0.993,-0.151,-0.049,-0.875,-9.875,-16.250,1, 10, 2, -2, -4, -4, -2, 1,-1.1304074565332878,1.4490636056227284
1503612454924,-0.372,-0.387,+0.537,+0.650,+0.988,-0.136,-0.042,-6.688,-11.750,-12.938,1, 3, -1, 1, -5, 0, 0, -2,-1.1304775330906633,1.4459715339265433
1503612454949,-0.373,-0.384,+0.538,+0.651,+0.996,-0.065,-0.055,-12.750,-14.562,-12.812,1, -1, 0, 1, 2, 4, -1, -1,-1.1274517055805477,1.443616509176874
1503612454962,-0.374,-0.380,+0.537,+0.653,+1.000,-0.031,-0.094,-11.938,-17.625,-6.250,-3, -1, -2, -3, -1, -3, -2, -3,-1.1222821318663234,1.435201691831037
1503612454986,-0.375,-0.378,+0.536,+0.655,+0.976,-0.054,-0.096,-11.250,-17.062,-2.875,13, 12, 7, 1, -3, -2, -2, 1,-1.12085099516636,1.4300613256335657
1503612455006,-0.376,-0.375,+0.536,+0.657,+0.975,-0.078,-0.068,-13.188,-16.312,-4.375,4, -10, -7, -1, -1, 0, -12, -1,-1.1179502002829451,1.4256641707132576
1503612455023,-0.376,-0.372,+0.535,+0.659,+1.012,-0.044,-0.101,-12.938,-16.688,-2.375,-3, 5, 0, -2, 3, -1, 0, 0,-1.1128262716876907,1.4188781737067209
1503612455044,-0.377,-0.369,+0.534,+0.661,+1.027,-0.044,-0.112,-11.125,-19.125,+1.750,-3, 3, 2, 2, 10, 3, -3, 3,-1.109682377903542,1.4122419609688854
1503612455066,-0.377,-0.367,+0.532,+0.663,+1.021,-0.079,-0.107,-11.062,-19.062,+1.312,-4, -3, -2, 0, -5, -4, -10, -1,-1.106098943221295,1.4047736879481396
1503612455082,-0.377,-0.365,+0.531,+0.666,+1.016,-0.099,-0.095,-9.312,-18.438,+0.750,4, 4, 3, 0, 5, 1, -4, -5,-1.1032050535182376,1.3998326953998341
1503612455104,-0.377,-0.363,+0.529,+0.667,+1.010,-0.098,-0.114,-8.188,-17.562,-2.688,5, 4, 4, 1, 5, 0, 4, 2,-1.099316514602451,1.3922186616156134
1503612455127,-0.379,-0.361,+0.529,+0.668,+0.964,-0.083,-0.093,-8.750,-14.625,-12.125,-3, -5, -1, -2, -12, 3, 4, -2,-1.1000279034120608,1.389536454343612
1503612455142,-0.381,-0.358,+0.529,+0.668,+0.957,-0.067,-0.096,-8.688,-12.812,-17.688,0, -2, -2, -4, -6, -2, 12, -11,-1.0986604676628504,1.385126643344907
1503612455164,-0.382,-0.354,+0.528,+0.670,+1.027,-0.079,-0.185,-11.125,-21.188,-9.312,0, -1, -2, -2, 0, 1, -9, -3,-1.0939879937734676,1.3771349477275128
1503612455188,-0.384,-0.351,+0.528,+0.671,+1.023,-0.019,-0.153,-11.500,-11.688,-11.250,2, 37, 12, 2, 2, -1, 6, -4,-1.0930784367692603,1.373006409074861
1503612455203,-0.385,-0.347,+0.529,+0.672,+0.972,-0.010,-0.132,-11.938,-11.062,-12.000,3, 3, 1, 0, 0, -1, -4, -4,-1.0888261752022725,1.3696026031660782
1503612455225,-0.385,-0.345,+0.529,+0.673,+0.999,-0.061,-0.140,-12.562,-11.938,-5.688,-6, -15, -4, -1, -2, 1, 16, -5,-1.0857446015567729,1.3667895761482431
1503612455246,-0.385,-0.343,+0.529,+0.674,+1.024,-0.054,-0.161,-11.562,-7.688,-1.688,-3, -12, -6, -3, -3, -4, 0, 12,-1.0826777971202834,1.3639927322598593
1503612455263,-0.385,-0.342,+0.529,+0.675,+1.021,-0.034,-0.140,-8.688,-6.062,-4.000,1, -3, -2, 1, -2, -2, -2, 1,-1.0813312044455772,1.3627098294345772
1503612455286,-0.386,-0.340,+0.528,+0.676,+1.012,-0.047,-0.144,-6.188,-10.312,-3.812,3, -6, 0, 2, 4, 0, -1, 4,-1.0799659810759685,1.3577285023468297
1503612455307,-0.386,-0.339,+0.527,+0.677,+1.007,-0.061,-0.173,-4.562,-12.562,-2.750,0, 9, 4, -1, 3, 1, 2, 1,-1.0783125839248473,1.354107655071524
1503612455323,-0.387,-0.337,+0.527,+0.677,+0.951,-0.038,-0.186,-3.688,-7.500,-5.250,-18, -10, -9, -5, -5, -4, -11, -7,-1.0769336402652745,1.351275177413633
1503612455345,-0.388,-0.336,+0.527,+0.678,+0.945,-0.045,-0.176,-4.375,-3.688,-6.375,-2, -9, -5, 3, 8, 2, 3, -1,-1.0776237622599008,1.350168320825737
1503612455366,-0.388,-0.335,+0.527,+0.677,+0.985,-0.048,-0.185,-5.625,+2.375,-2.500,8, 3, 0, -1, 2, 1, 1, -2,-1.0755720045286716,1.3484550908069088
1503612455384,-0.387,-0.335,+0.528,+0.677,+0.995,-0.043,-0.173,-5.500,+7.188,-0.250,2, 18, 9, 4, 1, -1, -9, 7,-1.0738806612531326,1.3506677645958713
1503612455405,-0.387,-0.335,+0.529,+0.677,+0.973,-0.015,-0.174,-3.500,+5.375,-2.750,-4, -6, -2, -1, -2, -1, 6, -15,-1.0742003454541442,1.3530284048050307
1503612455426,-0.388,-0.334,+0.530,+0.676,+0.972,-0.015,-0.174,-1.812,+1.312,-3.438,-4, -6, -2, 1, -1, -2, -17, 2,-1.074476535440655,1.3538312674719513
1503612455443,-0.388,-0.334,+0.530,+0.676,+1.014,-0.031,-0.181,-1.125,-0.250,+0.500,1, 5, 0, 0, 2, 5, 15, -1,-1.074476535440655,1.3538312674719513
1503612455465,-0.387,-0.334,+0.529,+0.677,+1.018,-0.034,-0.206,-1.875,-4.000,+4.188,-7, 6, 3, -1, 0, 0, -4, -13,-1.0725179082152225,1.351552846232421
1503612455487,-0.387,-0.334,+0.528,+0.678,+1.005,-0.051,-0.183,-1.688,-7.312,+6.688,-5, -4, -3, -4, 2, -1, -1, -3,-1.0725686222259962,1.3494222066292552
1503612455503,-0.387,-0.335,+0.526,+0.680,+0.990,-0.059,-0.184,+0.188,-8.625,+8.500,-5, -14, -6, -3, -4, -4, -8, -15,-1.0743490847157384,1.3466499343404001
1503612455525,-0.386,-0.335,+0.524,+0.681,+0.976,-0.060,-0.172,+0.188,-8.875,+7.375,-1, -4, -1, -1, -2, -3, -13, 4,-1.0720678166188038,1.3420266419073472
1503612455546,-0.386,-0.335,+0.523,+0.682,+0.983,-0.057,-0.170,-0.188,-6.188,+4.750,1, -4, -4, -2, 3, -5, -8, -74,-1.07211667653986,1.3399123366646282
1503612455563,-0.386,-0.336,+0.523,+0.682,+0.987,-0.050,-0.172,+1.625,-2.562,+2.250,-4, -7, 0, 0, -6, -5, -1, 18,-1.0737975303329557,1.341396973865139
1503612455585,-0.387,-0.336,+0.523,+0.681,+0.975,-0.053,-0.165,+3.125,+1.062,-2.438,2, 1, -4, 0, 2, 2, 0, 17,-1.0754401306606103,1.341311807113202
1503612455614,-0.388,-0.337,+0.524,+0.680,+0.951,-0.042,-0.156,+6.062,+6.062,-6.250,1, 2, 0, -3, -3, 0, 6, 6,-1.0790869599523796,1.345064286504161
1503612455623,-0.389,-0.338,+0.525,+0.678,+0.947,-0.053,-0.149,+8.938,+11.250,-7.750,0, 3, -2, -1, 5, 1, -3, 1,-1.0823709019114467,1.34858616090382
1503612455645,-0.390,-0.339,+0.526,+0.675,+0.974,-0.049,-0.162,+8.188,+10.938,-8.125,-7, 8, 6, 3, 6, -4, -4, -68,-1.0852958696507147,1.3518868409687999
1503612455666,-0.391,-0.340,+0.527,+0.674,+0.977,-0.053,-0.164,+5.062,+9.938,-6.375,0, -1, -4, -2, -5, 1, -1, 19,-1.088954696605939,1.3556521039606058
1503612455683,-0.391,-0.341,+0.528,+0.673,+0.989,-0.040,-0.164,+3.625,+6.750,-5.188,5, -5, -1, 1, 21, 6, 15, 10,-1.0906046946902286,1.3592746969543539
1503612455705,-0.392,-0.341,+0.528,+0.672,+1.013,-0.042,-0.172,+3.250,+1.375,-1.562,-8, -12, 1, -1, -7, -2, -9, 8,-1.0922545507642405,1.3591961185812236
1503612455727,-0.392,-0.341,+0.527,+0.672,+1.016,-0.045,-0.173,+1.750,-3.125,+1.312,-1, 1, -3, -1, -6, -1, -5, -65,-1.0919400531592087,1.3568471352681242
1503612455743,-0.393,-0.341,+0.526,+0.673,+1.001,-0.039,-0.165,+2.125,-7.625,+3.938,6, 5, 0, 1, 5, -1, 0, 33,-1.0940024179401098,1.3548704249606927
1503612455765,-0.393,-0.342,+0.524,+0.674,+0.993,-0.046,-0.156,+2.000,-10.188,+5.188,4, -6, -4, 0, 10, 2, 9, 13,-1.0954332915715763,1.3519154446561432
1503612455788,-0.393,-0.342,+0.523,+0.675,+0.991,-0.041,-0.163,+3.562,-8.125,+4.125,2, 12, 2, -1, -7, -3, -4, 12,-1.0954800185316562,1.3498040571385912
1503612455803,-0.394,-0.343,+0.521,+0.675,+0.985,-0.042,-0.171,+6.125,-4.500,+5.000,3, 26, 9, 2, -1, 1, -4, 6,-1.0985706230653816,1.3467928503552435
1503612455825,-0.394,-0.344,+0.520,+0.675,+0.978,-0.039,-0.180,+7.875,-2.000,+5.000,-6, -12, -4, -1, -5, -3, -3, 3,-1.0999576525248302,1.3459762229521601
1503612455846,-0.395,-0.346,+0.520,+0.674,+0.982,-0.032,-0.158,+9.000,+0.625,+3.250,1, -2, -2, -2, -6, 0, 2, 14,-1.105027919475554,1.3489441544056437
1503612455863,-0.395,-0.347,+0.519,+0.673,+1.000,-0.033,-0.155,+11.312,+2.000,+2.938,-5, -12, -5, -2, -4, 0, -3, 6,-1.1060693061163627,1.34791523381637
1503612455887,-0.396,-0.349,+0.519,+0.672,+1.003,-0.050,-0.160,+11.875,+2.750,+1.500,-10, 10, 9, 6, 4, 1, -5, -12,-1.1111608159686848,1.3509105371611192
1503612455907,-0.397,-0.351,+0.518,+0.671,+0.995,-0.044,-0.160,+13.125,+1.375,-0.062,6, -6, -3, -3, -4, -4, -3, 7,-1.1159554101540694,1.35160012395648
1503612455929,-0.399,-0.352,+0.517,+0.670,+0.989,-0.033,-0.166,+14.438,-1.062,-0.938,0, -3, -3, 1, 2, -1, -3, -69,-1.1210641619102215,1.3509125934139126
1503612455944,-0.401,-0.354,+0.516,+0.669,+0.989,-0.045,-0.162,+16.375,+0.500,-1.312,3, -1, -2, -1, -1, -3, -2, 23,-1.1279093651655898,1.3517935606338638
1503612455966,-0.403,-0.356,+0.515,+0.667,+0.986,-0.080,-0.158,+17.188,+1.438,-2.438,-4, -3, -1, 0, -1, 0, -2, 3,-1.1344309705379367,1.3524742078751826
1503612455983,-0.404,-0.359,+0.515,+0.666,+0.970,-0.081,-0.150,+16.625,+3.625,-4.000,10, -7, -4, -4, 0, -3, 15, 14,-1.1413198224712253,1.3571242746198016
1503612456005,-0.406,-0.360,+0.514,+0.664,+0.972,-0.060,-0.140,+15.188,+3.750,-5.438,-10, -10, -3, -1, -1, 0, -4, -1,-1.1461453818636822,1.3562747536479642
1503612456027,-0.407,-0.362,+0.514,+0.662,+0.986,-0.051,-0.138,+14.562,+5.375,-1.750,-1, 15, 6, 1, 8, 1, -2, 9,-1.1509934516204587,1.3591660720747898
1503612456043,-0.408,-0.365,+0.514,+0.661,+0.997,-0.062,-0.136,+13.812,+8.062,+0.312,-1, -7, -3, -2, -3, -2, -2, 6,-1.1579397303310783,1.3638875090942082
1503612456065,-0.408,-0.367,+0.514,+0.659,+1.008,-0.080,-0.138,+12.312,+6.438,+0.250,-4, 2, 1, 0, -4, -2, 4, 6,-1.160798390306651,1.3666725395471155
1503612456089,-0.409,-0.369,+0.514,+0.658,+1.010,-0.073,-0.152,+10.750,+4.500,+0.625,-1, 1, -1, -2, -1, 1, -2, 0,-1.1660250290930683,1.3698326480935616
1503612456103,-0.410,-0.370,+0.513,+0.657,+1.000,-0.052,-0.150,+11.062,+4.750,+0.938,8, -4, -2, 0, -1, 0, 6, 50,-1.1692051712806377,1.3691100850139084
1503612456125,-0.410,-0.372,+0.513,+0.656,+0.990,-0.060,-0.149,+12.500,+4.500,+2.562,-5, 12, 3, 1, 9, -1, -6, -3,-1.1724259583031647,1.3721478618775371
1503612456147,-0.411,-0.374,+0.512,+0.655,+0.975,-0.071,-0.146,+12.375,+3.062,+1.688,-8, -8, -4, -2, -6, -4, -2, -10,-1.1773976397400217,1.3730759984424663
1503612456163,-0.412,-0.376,+0.511,+0.654,+0.968,-0.065,-0.145,+12.750,+4.562,+1.562,-4, -6, -3, -1, -1, 1, -3, -14,-1.1823844815366193,1.374026397753747
1503612456185,-0.413,-0.378,+0.511,+0.652,+0.970,-0.057,-0.161,+13.500,+6.062,+0.062,3, 1, -2, 0, 0, -1, -6, -9,-1.187360264745647,1.3770630021628447
1503612456207,-0.414,-0.380,+0.511,+0.650,+0.970,-0.066,-0.161,+13.438,+7.875,-3.438,2, -4, -3, 0, -12, -3, -1, 9,-1.1923534090200862,1.3801182696423513
1503612456224,-0.416,-0.382,+0.511,+0.649,+0.966,-0.079,-0.152,+13.875,+7.312,-5.062,2, -11, -7, -2, 3, 2, 0, -18,-1.1996915633149001,1.3835256905195894
1503612456245,-0.417,-0.384,+0.511,+0.646,+0.966,-0.080,-0.136,+15.500,+9.562,-7.125,8, -11, -5, -4, -3, -3, 2, -10,-1.2044164574691314,1.386425709241743
1503612456267,-0.419,-0.385,+0.511,+0.644,+0.968,-0.062,-0.134,+17.188,+9.250,-9.750,0, 3, -1, -3, -2, -3, -4, -4,-1.2096791442313148,1.388002216574664
1503612456291,-0.422,-0.387,+0.511,+0.641,+0.985,-0.059,-0.140,+17.188,+8.250,-10.312,6, 9, 0, -3, -2, -2, -2, -2,-1.2185008541942541,1.3912153390458146
1503612456305,-0.424,-0.389,+0.511,+0.639,+0.998,-0.058,-0.153,+16.688,+5.125,-8.125,-5, -10, -5, -3, -2, -3, -3, -7,-1.2256071790752527,1.3944889832244034
1503612456328,-0.426,-0.390,+0.511,+0.637,+0.999,-0.060,-0.140,+16.938,+4.875,-5.750,3, -9, -3, -1, -3, 1, 2, 10,-1.2309152436409598,1.3960890862194824
1503612456349,-0.427,-0.392,+0.510,+0.635,+0.985,-0.080,-0.122,+16.875,+5.500,-3.688,-1, 1, 2, -1, -4, 0, -3, -13,-1.2357597336139732,1.3970173076256254
1503612456365,-0.428,-0.395,+0.509,+0.634,+0.985,-0.073,-0.121,+15.812,+2.938,-0.375,-5, -11, -2, 0, 0, -1, 3, 8,-1.2427303150369213,1.3998502977673546
1503612456387,-0.430,-0.397,+0.508,+0.633,+1.006,-0.062,-0.133,+15.000,+2.688,+2.188,-14, 7, 3, 1, -2, -1, -5, -2,-1.2499279263735261,1.401142041072807
1503612456403,-0.431,-0.399,+0.507,+0.632,+1.030,-0.060,-0.153,+15.062,+2.062,+3.875,0, 6, -1, 0, -3, -2, -3, -1,-1.2551067724790061,1.4023209201412763
1503612456425,-0.432,-0.401,+0.505,+0.631,+1.040,-0.064,-0.142,+16.000,-1.375,+6.375,4, -1, -1, 1, 1, -1, -3, -5,-1.260055134492674,1.401313294267306
1503612456447,-0.433,-0.403,+0.503,+0.631,+1.018,-0.068,-0.110,+17.562,-3.062,+6.438,6, -12, -7, -2, -2, 0, 0, 1,-1.2652849382665403,1.4005092429778208
1503612456469,-0.434,-0.406,+0.500,+0.630,+1.003,-0.060,-0.123,+18.250,-3.125,+7.188,-5, 2, -1, -4, -3, 0, -2, 1,-1.2718809185664037,1.3991248299153776
1503612456485,-0.435,-0.408,+0.499,+0.629,+0.997,-0.063,-0.116,+18.000,+3.125,+7.688,6, 9, 1, -2, -16, -4, 5, -1,-1.2771322365015871,1.4004182617155094
1503612456507,-0.435,-0.411,+0.498,+0.627,+1.004,-0.054,-0.105,+18.438,+6.688,+6.062,-8, -9, -2, -1, 6, 4, 2, 5,-1.2819798241013396,1.4031985421007624
1503612456529,-0.436,-0.415,+0.497,+0.625,+1.030,-0.054,-0.110,+19.938,+5.688,+7.500,2, -14, -6, 0, 0, -2, 2, 2,-1.2907752428154045,1.407947526915497
1503612456545,-0.437,-0.418,+0.495,+0.624,+1.031,-0.069,-0.107,+21.875,+4.688,+7.188,1, -5, -2, -3, 3, 1, -2, -5,-1.2977498049722453,1.4089616859424374
1503612456567,-0.438,-0.421,+0.493,+0.623,+1.008,-0.084,-0.092,+21.125,+0.000,+6.625,0, -1, 1, 1, 4, -1, -2, -3,-1.304758458604588,1.4100310145286514
1503612456589,-0.439,-0.424,+0.491,+0.622,+0.985,-0.073,-0.121,+20.062,-2.062,+8.312,0, 2, 0, -1, -1, -2, -7, -6,-1.3118013311852994,1.4111555053625269
1503612456605,-0.440,-0.426,+0.489,+0.621,+0.972,-0.060,-0.118,+19.125,+3.875,+8.875,-5, -2, -1, -1, -1, 0, -2, -1,-1.3169730567994808,1.4105024437817915
1503612456627,-0.440,-0.430,+0.488,+0.619,+0.991,-0.066,-0.111,+20.125,+8.312,+11.625,4, 15, 3, 2, -3, 0, -1, -8,-1.3239642784810097,1.415412635947908
1503612456649,-0.440,-0.434,+0.486,+0.618,+1.000,-0.079,-0.119,+20.062,+4.688,+15.250,-4, 9, 0, -3, -3, -2, 0, 14,-1.3310229918332872,1.4184210925208514
1503612461007,-0.437,-0.377,+0.476,+0.664,+0.963,-0.100,-0.247,-6.062,+5.125,+8.375,-12, 1, 1, 3, 1, -1, -12, -17,-1.22932073252707,1.304226478136543
1503612461029,-0.435,-0.378,+0.476,+0.664,+0.973,-0.119,-0.216,-6.812,+5.812,+9.000,1, 2, 1, -2, -4, -15, -18, 4,-1.2268761674189765,1.3055204878825064
1503612461052,-0.433,-0.379,+0.476,+0.665,+0.974,-0.136,-0.220,-5.938,+8.000,+8.312,-11, -3, -2, -3, -1, -2, -4, -6,-1.2247411452023311,1.3070683779506933
1503612461067,-0.431,-0.381,+0.477,+0.664,+0.959,-0.125,-0.238,-2.188,+15.312,+6.562,-9, -9, -1, -1, -1, 3, 10, 2,-1.2240560778252836,1.3120203484530681
1503612461090,-0.430,-0.383,+0.479,+0.663,+0.960,-0.110,-0.248,+2.375,+22.562,+0.938,1, 8, -2, 2, 3, -2, 2, -4,-1.2257432642794517,1.3193816107722414
1503612461111,-0.429,-0.385,+0.481,+0.661,+0.978,-0.098,-0.235,+5.125,+21.625,-2.625,-2, -5, -4, -1, -5, 0, 3, 5,-1.2271635683968378,1.3265240027746048
1503612461127,-0.429,-0.387,+0.483,+0.658,+0.958,-0.088,-0.219,+9.875,+24.750,-4.688,2, -3, -2, -3, -6, -4, 3, 3,-1.2303879944698681,1.3336472938074262
1503612461149,-0.429,-0.390,+0.485,+0.654,+0.940,-0.091,-0.179,+13.688,+26.500,-5.812,7, 49, 32, 8, 5, 3, 1, -1,-1.2351490810734231,1.342298549082479
1503612461171,-0.430,-0.393,+0.487,+0.650,+0.973,-0.067,-0.167,+16.812,+28.438,-6.438,4, -15, -13, -4, -4, 0, 1, -3,-1.2420149143400416,1.3511772270194045
1503612461187,-0.431,-0.398,+0.489,+0.646,+1.015,-0.051,-0.198,+24.500,+30.688,-4.250,4, -12, -8, -2, -4, 3, 32, 59,-1.2525651698724358,1.3635795926298266
1503612461209,-0.433,-0.401,+0.490,+0.641,+1.007,-0.094,-0.156,+28.250,+18.875,-10.750,1, -6, 0, 0, -4, 1, -16, -32,-1.2610623062774322,1.3703381776615315
1503612461231,-0.437,-0.404,+0.489,+0.638,+0.985,-0.117,-0.135,+27.625,+5.562,-15.750,-4, -6, -6, -3, 0, -3, -14, -17,-1.2737515041956127,1.3734854021846445
1503612461247,-0.440,-0.406,+0.488,+0.634,+0.993,-0.109,-0.125,+28.438,+2.750,-14.875,-1, 0, -1, 0, 1, -4, 0, 9,-1.2823466993630732,1.37455638014346
1503612461269,-0.444,-0.409,+0.487,+0.632,+1.009,-0.102,-0.120,+25.562,-0.812,-11.812,17, 3, 0, -3, 1, 0, 10, 7,-1.2953897338898996,1.3779750629523317
1503612461293,-0.447,-0.410,+0.486,+0.630,+1.024,-0.094,-0.118,+19.062,-7.625,-10.188,-10, -7, -4, -2, 1, 1, -9, -12,-1.302716758236216,1.3776988913678083
1503612461307,-0.450,-0.410,+0.484,+0.629,+1.006,-0.073,-0.114,+14.062,-11.062,-10.188,-5, 1, 0, -1, -1, -1, -2, -2,-1.3082507724857502,1.3736823990190825
1503612461330,-0.453,-0.409,+0.483,+0.628,+0.984,-0.049,-0.108,+11.125,-12.312,-10.188,-1, -1, -2, -1, 3, 2, 1, -14,-1.3121930267588497,1.3700382551088195
1503612461359,-0.455,-0.410,+0.481,+0.628,+1.015,-0.063,-0.129,+11.625,-12.688,-2.250,3, 0, 0, -3, -5, 1, -6, 10,-1.3177708683361287,1.3678666044205967
1503612461368,-0.456,-0.410,+0.480,+0.628,+1.019,-0.057,-0.143,+5.125,-8.688,+3.250,3, -8, -1, -1, -3, -5, -11, 50,-1.3196484441103409,1.3658915705641006
1503612461392,-0.455,-0.409,+0.480,+0.628,+0.990,-0.036,-0.108,-3.812,-6.000,+4.312,-7, -3, -4, 1, 0, 1, -2, -13,-1.3157319951023316,1.3639285869226625
1503612461411,-0.455,-0.409,+0.480,+0.629,+0.931,-0.020,-0.093,-9.375,-6.375,+6.125,6, 9, 4, 1, 3, 1, -3, -33,-1.3159622315418154,1.3641263099120482
1503612461429,-0.453,-0.408,+0.481,+0.631,+0.957,-0.021,-0.122,-14.375,-2.250,+9.000,-14, -31, -10, -3, 0, -2, 3, -7,-1.3106405645915018,1.3645404134822756
1503612461449,-0.450,-0.407,+0.481,+0.633,+1.008,-0.012,-0.147,-16.688,+1.188,+15.500,-1, -3, 0, 2, 0, 0, -5, 16,-1.3030466563052754,1.3626471984643402
1503612461471,-0.448,-0.405,+0.482,+0.635,+1.050,-0.024,-0.131,-22.438,-7.562,+15.125,5, 7, -1, -1, -2, -2, -4, -7,-1.2959370401522916,1.3613027471433754
1503612461487,-0.446,-0.402,+0.482,+0.638,+1.033,-0.034,-0.149,-22.875,-14.312,+9.312,-1, -1, -2, 0, 1, 1, 4, -14,-1.28705552587994,1.3562567461227857
1503612461509,-0.445,-0.399,+0.481,+0.641,+0.959,-0.060,-0.157,-20.188,-16.875,+6.812,10, -14, -7, -3, -3, -1, -2, -7,-1.2800610759261697,1.3492548519296257
1503612461531,-0.444,-0.396,+0.481,+0.644,+0.932,-0.071,-0.171,-20.500,-12.875,+6.125,-2, 2, 0, -1, -2, -3, -8, 11,-1.2733337578409403,1.3444585117864543
1503612461547,-0.442,-0.395,+0.481,+0.646,+0.942,-0.083,-0.172,-18.625,-3.125,+3.812,0, 13, 2, -1, -3, 1, 1, -25,-1.2678945751990107,1.3427888046742993
1503612461569,-0.440,-0.393,+0.482,+0.647,+1.003,-0.108,-0.162,-16.688,-0.188,+1.062,-15, -5, -2, 0, -6, -3, 0, -3,-1.260639840579663,1.3413432118414286
1503612461594,-0.440,-0.391,+0.481,+0.649,+1.064,-0.095,-0.222,-13.812,-14.812,+0.375,-6, -3, -1, 0, 0, -3, 11, 6,-1.2573496340917425,1.336134486506383
1503612461607,-0.442,-0.387,+0.479,+0.653,+1.037,-0.085,-0.247,-11.562,-31.500,-1.625,-9, 4, 4, 0, 2, -1, -3, 0,-1.2550056324290693,1.3261488645290085
1503612461631,-0.444,-0.382,+0.475,+0.656,+0.938,-0.079,-0.207,-11.500,-37.875,-7.062,2, 10, 3, 2, -5, 3, -3, 13,-1.2502482488960645,1.3099439325954199
1503612461651,-0.446,-0.379,+0.473,+0.659,+0.891,-0.085,-0.204,-8.375,-29.125,-4.625,1, -2, -2, -5, -5, 1, 9, -20,-1.2495860434704786,1.301606037852632
1503612461667,-0.446,-0.378,+0.472,+0.660,+0.920,-0.092,-0.225,-7.062,-9.312,+1.125,-2, -2, -2, -1, 1, -2, -15, -8,-1.2478888001236481,1.2979773784340154
1503612461690,-0.445,-0.378,+0.472,+0.661,+1.000,-0.082,-0.245,-5.938,+2.000,+4.688,27, 8, 1, 2, 1, -4, -4, 1,-1.2460574012218086,1.2980281729530312
1503612461712,-0.445,-0.378,+0.471,+0.661,+1.049,-0.083,-0.235,-1.812,-5.375,+6.938,6, 24, 13, 5, 2, 1, -6, -3,-1.2458153502877425,1.2958481497398797
1503612461730,-0.446,-0.377,+0.469,+0.663,+1.009,-0.100,-0.241,+1.938,-16.562,+1.312,-5, -1, -3, -2, 0, 2, 12, -13,-1.2462839442526126,1.290515099106493
1503612461750,-0.448,-0.376,+0.466,+0.664,+0.958,-0.095,-0.246,+4.375,-21.125,-0.812,-9, -4, -7, -4, -3, 2, 1, -6,-1.2483655625517922,1.282978868300366
1503612461772,-0.448,-0.376,+0.463,+0.665,+0.943,-0.083,-0.246,+3.438,-14.625,+4.688,-14, -8, -4, -1, 5, -2, -7, 7,-1.2479326455802775,1.2767374418482051
1503612461787,-0.448,-0.377,+0.462,+0.666,+0.946,-0.084,-0.240,+3.312,-4.562,+7.438,0, -7, -2, -2, -2, 0, -5, -5,-1.2497068115623673,1.2765494740057581
1503612461810,-0.448,-0.378,+0.461,+0.667,+0.964,-0.094,-0.261,+5.688,-2.188,+7.562,15, 0, -4, -2, -2, -4, -2, 1,-1.2514816124533097,1.2763682381534014
1503612461832,-0.448,-0.379,+0.459,+0.667,+0.984,-0.102,-0.261,+7.375,-1.938,+6.500,-11, -13, -1, -1, 0, -4, -1, -1,-1.2527382916360497,1.2737694775155688
1503612461847,-0.448,-0.380,+0.458,+0.667,+0.964,-0.094,-0.230,+6.750,-1.750,+3.375,-4, -1, -4, -2, 1, -3, -12, -3,-1.254236820069021,1.2733370264298598
1503612461870,-0.449,-0.381,+0.457,+0.666,+0.966,-0.102,-0.220,+7.938,-3.562,+2.125,5, 7, 1, 1, -2, 0, -1, -14,-1.257589518786519,1.2728671289199716
1503612461892,-0.450,-0.383,+0.456,+0.666,+0.981,-0.094,-0.223,+8.625,-2.562,+3.500,19, 3, 0, 0, 0, 1, 1, 17,-1.2629692811106095,1.2744109508312997
1503612461907,-0.450,-0.383,+0.455,+0.666,+0.989,-0.081,-0.230,+8.062,-5.750,+3.500,-8, -4, -5, -2, -2, -1, 4, 10,-1.2627359692924465,1.2722681272794583
1503612461931,-0.451,-0.384,+0.453,+0.666,+0.984,-0.082,-0.250,+9.500,-7.312,+5.062,-6, 1, -1, 1, 0, 1, 5, 10,-1.2661480112497503,1.2699570987245024
1503612461953,-0.452,-0.385,+0.451,+0.666,+0.975,-0.089,-0.248,+10.438,-7.938,+5.875,2, -1, -2, -1, -1, -1, -2, -14,-1.2695675965222215,1.2676649403428055
1503612461967,-0.453,-0.387,+0.449,+0.667,+0.969,-0.097,-0.236,+9.875,-7.625,+7.625,-3, -4, -3, -2, 0, 0, 1, -26,-1.2750120451739377,1.2674186440772193
1503612461990,-0.452,-0.388,+0.447,+0.667,+0.964,-0.098,-0.239,+8.938,-4.938,+10.812,0, -8, -4, -1, 1, 2, -4, -12,-1.274178194250235,1.2647008782362268
1503612462012,-0.452,-0.390,+0.445,+0.667,+0.975,-0.090,-0.259,+9.812,-1.875,+13.688,9, 1, -1, -1, -2, -2, -1, 9,-1.2772438527460281,1.2640017042672176
1503612466235,-0.450,-0.476,+0.516,+0.552,+0.990,-0.052,+0.069,-12.312,-7.188,-11.812,18, 3, 0, 1, -1, -2, 0, 9,-1.4282044649953891,1.5564335061818373
1503612466250,-0.450,-0.474,+0.518,+0.551,+0.981,-0.030,+0.085,-11.125,-1.875,-14.500,-6, -3, -2, -2, 0, 1, -3, 3,-1.4242820422345157,1.5567612601505392
1503612466272,-0.451,-0.472,+0.520,+0.551,+0.982,-0.027,+0.061,-9.312,-1.562,-14.625,0, -1, 0, 0, -1, -2, 2, 4,-1.422453196466879,1.557148577512538
1503612466294,-0.452,-0.470,+0.521,+0.551,+1.006,-0.022,+0.028,-10.062,-4.125,-11.438,-2, -2, -4, 1, 3, 0, -4, -5,-1.4205053862416814,1.5554645325552876
1503612466316,-0.453,-0.467,+0.522,+0.552,+1.011,-0.010,+0.017,-13.125,-10.875,-6.188,-11, -3, -2, -2, -2, -2, -7, -30,-1.4167069080179575,1.5519330564817937
1503612466332,-0.453,-0.464,+0.522,+0.554,+0.984,-0.014,+0.027,-15.250,-17.500,-3.750,5, 2, -1, -1, 0, 0, -8, 16,-1.4109791506251934,1.5463308660769637
1503612466353,-0.454,-0.460,+0.521,+0.558,+0.979,-0.029,-0.002,-18.000,-22.562,-2.188,-1, 7, 4, 2, 1, 1, -3, 9,-1.4054134570389571,1.5368613490684107
1503612466376,-0.454,-0.457,+0.520,+0.561,+0.936,-0.029,-0.041,-16.188,-19.812,+3.875,0, 2, -2, 3, 10, -1, 3, 7,-1.3997655946128946,1.5292515687772392
1503612466393,-0.454,-0.455,+0.519,+0.563,+0.923,-0.044,-0.043,-14.188,-8.500,+0.062,-21, -5, -3, -3, -2, 1, 1, -7,-1.3959661282065199,1.5234869019599553
1503612466414,-0.453,-0.454,+0.521,+0.563,+0.955,-0.039,-0.008,-10.438,+5.000,-7.438,-3, -5, -1, -1, 4, -1, 11, 1,-1.3923253650187757,1.525849315172012
1503612466436,-0.453,-0.453,+0.524,+0.562,+1.024,-0.010,-0.002,-9.875,+10.250,-11.125,10, 8, 1, -2, -4, -1, -4, 0,-1.3906770285454437,1.530363858566239
1503612466452,-0.455,-0.451,+0.525,+0.560,+1.040,+0.016,+0.007,-0.875,+1.875,-16.812,5, 3, 1, 3, -1, -1, 1, 37,-1.3905554627581513,1.5288062192285445
1503612466474,-0.459,-0.448,+0.526,+0.559,+1.019,+0.012,-0.043,+4.812,-8.062,-25.688,-3, -5, -2, -1, -2, 1, 0, -3,-1.3926762721716106,1.5255569738326167
1503612466496,-0.463,-0.445,+0.526,+0.558,+1.023,+0.013,-0.052,+4.062,-13.938,-22.000,9, 7, 4, 2, -5, -3, -9, -6,-1.3947308041836028,1.5201952696381853
1503612466512,-0.464,-0.443,+0.526,+0.558,+1.016,-0.001,+0.040,-4.500,-8.750,-11.375,-3, -3, -1, -5, -22, 0, -1, 19,-1.3928853313682459,1.5165974654961463
1503612466534,-0.464,-0.442,+0.527,+0.559,+1.054,+0.006,+0.060,-11.625,-10.562,-0.312,-1, -4, 0, 0, 1, -1, -6, -10,-1.3912788959482565,1.5169999282251279
1503612466556,-0.464,-0.439,+0.526,+0.562,+1.075,+0.031,+0.026,-14.375,-20.625,+3.062,-4, 3, 1, -3, 2, -4, -5, -18,-1.385855850267847,1.5095820754355858
1503612466572,-0.465,-0.435,+0.524,+0.566,+1.062,+0.048,-0.021,-15.938,-36.250,-0.625,-1, -4, -5, -3, -4, -3, 3, -1,-1.3806079200157995,1.498359696401526
1503612466603,-0.468,-0.430,+0.521,+0.570,+0.972,+0.019,-0.038,-12.688,-40.188,-1.438,-7, -4, 0, -1, 3, -1, 1, -5,-1.3774830555852517,1.4833878946087673
1503612466616,-0.468,-0.427,+0.520,+0.573,+0.907,-0.042,+0.003,-16.500,-29.125,-0.375,8, -2, 1, 1, 5, 0, -3, 9,-1.3722119848129988,1.4761196421596925
1503612466632,-0.467,-0.424,+0.520,+0.576,+0.961,-0.039,-0.010,-20.438,-19.750,-1.500,-3, -4, -1, 0, 1, 0, -3, -4,-1.3650844097114405,1.470985985694855
1503612466654,-0.467,-0.420,+0.520,+0.579,+1.011,+0.016,-0.068,-21.062,-14.000,-3.750,-14, -5, -2, -1, -2, -2, -5, -48,-1.3581980297206164,1.4642069426768327
1503612466676,-0.468,-0.415,+0.521,+0.581,+0.999,+0.054,-0.062,-21.562,-19.250,-8.062,-2, -4, -1, -2, -4, 0, 7, 15,-1.3515823336720665,1.4579121630540064
1503612466692,-0.469,-0.411,+0.521,+0.583,+1.010,+0.070,-0.086,-17.875,-23.438,-8.188,-11, -1, -3, -2, -2, -3, -1, 0,-1.3467164567292154,1.4512527199107217
1503612466714,-0.470,-0.407,+0.520,+0.585,+0.969,+0.036,-0.080,-13.750,-16.000,-5.812,12, 2, 0, 2, 7, 0, -3, 4,-1.3417333140045762,1.4424397358790824
1503612466736,-0.470,-0.405,+0.521,+0.586,+0.942,+0.018,-0.070,-14.188,-5.250,-6.812,-9, -2, -2, -2, -4, -1, -3, 1,-1.3384942540726907,1.441325467383684
1503612466752,-0.469,-0.403,+0.523,+0.586,+0.986,+0.036,-0.084,-12.250,+3.375,-7.750,-5, 1, 1, 1, -6, -3, -20, -1,-1.3331392282232304,1.4422181088586246
1503612466774,-0.470,-0.402,+0.525,+0.585,+1.027,+0.055,-0.107,-6.938,+3.562,-8.375,-2, 0, -2, -2, -3, 2, 4, 3,-1.3335866226057547,1.444927426321352
1503612466799,-0.471,-0.400,+0.525,+0.585,+1.032,+0.050,-0.100,-6.250,-7.562,-8.938,1, 6, 6, 3, 2, 1, -3, -1,-1.3320783236355482,1.4416071543330629
1503612466812,-0.472,-0.397,+0.524,+0.587,+1.006,+0.038,-0.099,-6.562,-17.812,-5.000,5, 0, 2, -1, -1, -3, 9, -2,-1.3290526430991063,1.4346363125129378
1503612466834,-0.473,-0.395,+0.523,+0.589,+0.976,+0.019,-0.089,-6.812,-17.500,-4.000,0, -3, -1, -2, -3, 0, 0, 2,-1.327854561850265,1.4293972040347624
1503612466856,-0.474,-0.394,+0.522,+0.590,+0.976,+0.017,-0.110,-6.250,-13.438,+0.750,-8, -4, -6, -6, -2, -4, -3, -16,-1.3282315524500152,1.4257245647456604
1503612466872,-0.473,-0.393,+0.521,+0.592,+1.000,+0.025,-0.089,-7.125,-9.375,+3.125,1, -1, -2, -2, 2, -3, 0, 2,-1.3245953815630667,1.4219818583493467
1503612466894,-0.473,-0.391,+0.521,+0.593,+1.017,+0.023,-0.072,-8.812,-11.438,+2.000,0, -1, 1, 1, 0, -1, -3, 3,-1.3212744246464245,1.4187522931490228
1503612466916,-0.473,-0.390,+0.519,+0.596,+1.022,+0.011,-0.093,-10.812,-16.750,+2.938,0, 20, 8, -1, -2, -4, -8, 3,-1.3198190250081354,1.4130653865234757
1503612466932,-0.473,-0.387,+0.518,+0.598,+1.000,+0.032,-0.114,-11.562,-16.625,+3.312,-14, -16, -2, -4, -4, -2, 3, -8,-1.3148033512179393,1.4060994728836398
1503612466954,-0.473,-0.386,+0.518,+0.600,+0.966,+0.050,-0.128,-9.125,-10.125,+3.125,-9, 1, -1, 1, -1, 0, 2, -25,-1.313525015328303,1.4047596949065628
1503612466976,-0.472,-0.385,+0.518,+0.600,+0.965,+0.034,-0.103,-6.125,-0.688,-0.625,-1, 1, -1, -1, -3, 2, 2, 29,-1.30963368132733,1.4029536263688007
1503612466992,-0.472,-0.385,+0.519,+0.599,+0.999,+0.024,-0.118,-2.875,+7.000,-2.875,22, 8, 2, -1, 0, -3, 2, 58,-1.3095887076220727,1.4050278378718295
1503612467014,-0.472,-0.385,+0.521,+0.598,+1.024,+0.069,-0.103,-1.312,+6.750,-7.625,2, 12, 3, 0, 3, 1, 6, 42,-1.309742692653507,1.4093561825704972
1503612467036,-0.474,-0.384,+0.521,+0.597,+1.032,+0.083,-0.117,+2.438,-0.750,-8.500,5, 5, 1, -1, 3, -1, 2, 7,-1.3120178100349065,1.407764825771817
1503612467052,-0.476,-0.384,+0.520,+0.597,+1.005,+0.062,-0.145,+6.312,-7.500,-4.000,-6, 0, -2, -2, 2, -1, -4, -5,-1.3161060096115005,1.4057660124967177
1503612467074,-0.477,-0.384,+0.518,+0.597,+0.976,+0.043,-0.154,+5.375,-9.250,+2.125,1, 1, 0, 1, 4, -2, -4, -7,-1.3178658528916414,1.4014004695305307
1503612467101,-0.477,-0.384,+0.516,+0.599,+0.978,+0.013,-0.130,+1.875,-6.812,+9.188,-12, -2, 1, -1, -7, -3, -6, -94,-1.317958988471323,1.397267031062092
1503612467112,-0.475,-0.385,+0.515,+0.600,+1.005,-0.008,-0.114,-1.500,-5.688,+13.938,15, -1, 1, 0, -3, 0, -7, -7,-1.3154623217979855,1.3966199796979646
1503612467134,-0.474,-0.386,+0.513,+0.602,+1.027,-0.004,-0.108,-2.562,-8.750,+12.500,0, -14, -7, -2, -1, -3, 1, -29,-1.315163592948312,1.394057208843474
1503612467156,-0.474,-0.386,+0.511,+0.604,+1.013,+0.002,-0.129,-1.188,-11.938,+8.938,5, -6, -1, -2, -9, 2, 7, 19,-1.3152526395152266,1.3899590160884467
1503612467172,-0.474,-0.386,+0.510,+0.605,+0.974,+0.009,-0.135,+0.375,-8.000,+3.750,8, 3, 7, 4, -12, -11, 6, 25,-1.315297140047367,1.3879158853615186
1503612467194,-0.474,-0.386,+0.510,+0.605,+0.942,+0.011,-0.124,+0.938,+3.125,-0.438,-6, -11, 0, -3, 6, 5, -13, 8,-1.315297140047367,1.3879158853615186
1503612467216,-0.474,-0.388,+0.512,+0.602,+0.942,+0.035,-0.112,+2.938,+17.875,-4.500,-9, 27, 6, 6, 7, 1, 3, -1,-1.31848276544663,1.3952089944020136
1503612467235,-0.473,-0.390,+0.515,+0.599,+0.992,+0.039,-0.119,+4.062,+28.312,-6.938,-13, -7, -1, 0, 3, 7, -8, -24,-1.3197489684854105,1.4046296932425344
1503612467254,-0.473,-0.392,+0.517,+0.596,+1.038,+0.069,-0.128,+6.625,+23.438,-4.875,0, 5, 4, 0, -5, -7, -6, -7,-1.3229761873970103,1.411984366265233
1503612467277,-0.474,-0.393,+0.519,+0.594,+1.005,+0.072,-0.117,+6.938,+13.125,-5.188,1, 7, 1, -2, -4, -7, 3, 5,-1.326798289800948,1.417944317175915
1503612467292,-0.474,-0.393,+0.518,+0.593,+1.006,+0.043,-0.122,+5.625,+1.125,+2.875,-11, 7, 1, 2, 3, 3, 8, 1,-1.3263789651683473,1.4155533051433289
1503612467315,-0.474,-0.395,+0.516,+0.595,+1.011,+0.005,-0.130,+2.250,-4.312,+13.188,1, 5, 0, -3, 0, 1, 6, 6,-1.330013113040252,1.414827144952965
1503612467338,-0.472,-0.395,+0.514,+0.597,+1.001,-0.009,-0.101,-1.875,-10.375,+16.062,4, -5, -2, -1, -3, 0, 14, 8,-1.3258419302470759,1.4104588238547813
1503612467352,-0.472,-0.395,+0.511,+0.600,+0.996,-0.010,-0.117,-1.812,-17.500,+15.375,10, 4, 3, 1, 5, 2, 0, 39,-1.3259539807105538,1.404304712415854
1503612467375,-0.471,-0.396,+0.509,+0.602,+0.952,-0.026,-0.105,-3.125,-10.438,+9.750,0, -4, 0, 3, 2, 0, 2, 6,-1.3256886481204346,1.4018064041408387
1503612467397,-0.470,-0.396,+0.510,+0.602,+0.943,-0.018,-0.087,-5.562,+4.562,+2.938,-4, -1, 0, 2, 2, -1, -12, -14,-1.3237632347862909,1.40388429354352
1503612467419,-0.468,-0.398,+0.513,+0.600,+0.949,+0.018,-0.096,-1.750,+24.938,-0.312,-5, -2, -2, -4, -3, -1, 2, -6,-1.323241144545755,1.4133712748915623
1503612467437,-0.467,-0.400,+0.516,+0.596,+1.013,+0.009,-0.093,+3.438,+31.750,-7.000,-18, 0, 1, -1, -4, -5, -5, 4,-1.324404647871091,1.4227104983826537
1503612467457,-0.467,-0.402,+0.518,+0.593,+1.110,+0.004,-0.116,+6.875,+20.625,-6.125,6, 1, 0, 0, 0, -1, -3, 9,-1.327728892675603,1.4301453006063074
1503612467472,-0.469,-0.401,+0.517,+0.593,+1.076,+0.029,-0.121,+4.562,-9.375,-7.438,-6, -6, -4, 0, 1, 2, 2, -8,-1.3299331702742707,1.426432139359167
1503612467495,-0.472,-0.399,+0.514,+0.595,+0.954,+0.015,-0.117,+3.000,-26.125,-5.250,3, 2, -1, -1, -2, 0, -2, -2,-1.3325430180662308,1.4170032095393252
1503612467517,-0.473,-0.398,+0.512,+0.597,+0.921,-0.040,-0.101,-0.250,-19.500,+1.688,0, -3, -2, -2, 1, 5, 16, -33,-1.3329394999170576,1.4113019519785546
1503612467537,-0.472,-0.398,+0.511,+0.599,+0.991,-0.042,-0.079,-7.500,-10.188,+6.062,11, 2, 0, -3, 0, -1, -3, 19,-1.33108022198134,1.4092923347918678
1503612467554,-0.471,-0.396,+0.510,+0.601,+1.038,+0.010,-0.115,-10.375,-13.125,+5.562,1, -4, -2, -2, -3, -4, -9, 2,-1.325652247487764,1.4038464123599674
1503612467577,-0.472,-0.394,+0.508,+0.603,+1.010,+0.027,-0.146,-7.312,-20.812,+1.250,-8, 4, 2, 2, -1, 0, -21, -1,-1.3242883487634614,1.3964690087473275
1503612467592,-0.473,-0.391,+0.507,+0.605,+0.973,+0.002,-0.115,-7.000,-20.750,-1.688,-2, -4, 0, -3, -1, -1, 1, -5,-1.321374214558748,1.3896161980964583
1503612467615,-0.474,-0.389,+0.506,+0.606,+0.952,+0.009,-0.094,-8.188,-13.125,-2.688,4, 2, -1, -2, -5, 0, -1, -3,-1.3200254102810463,1.3843146569229245
1503612467639,-0.474,-0.388,+0.507,+0.606,+0.957,+0.026,-0.100,-9.688,-3.750,-4.125,-5, -3, -3, 0, 4, -1, 8, 19,-1.318460787342328,1.3848276547147778
1503612467652,-0.474,-0.387,+0.509,+0.606,+1.003,+0.056,-0.111,-8.812,+2.125,-6.000,-12, 0, -1, 1, 5, 4, 9, 3,-1.3170938496914033,1.3875697623381975
1503612467676,-0.474,-0.385,+0.510,+0.605,+1.042,+0.076,-0.129,-3.938,-1.562,-6.625,-8, 3, -1, -2, -4, -3, 0, 0,-1.3135458687246246,1.38622558524636
1503612467697,-0.476,-0.383,+0.509,+0.606,+1.038,+0.072,-0.158,-0.562,-11.375,-6.750,9, -6, -3, -4, -1, 2, 3, 45,-1.3143943567227376,1.3810975113947341
1503612467712,-0.478,-0.382,+0.508,+0.606,+0.992,+0.048,-0.157,-1.312,-13.875,-5.062,4, 5, 4, 1, 1, -1, -2, 26,-1.3167695686464909,1.3774757265732882
1503612467742,-0.479,-0.381,+0.507,+0.607,+0.964,+0.021,-0.133,-2.625,-10.312,-1.375,20, 4, 1, -2, -4, -2, -10, -11,-1.3172437198579627,1.3739099802095953
1503612467756,-0.478,-0.381,+0.507,+0.608,+0.983,+0.011,-0.141,-2.438,-3.000,+2.438,-5, 1, -4, 0, -1, -2, -2, -24,-1.315326270461864,1.373959272726939
1503612467773,-0.478,-0.381,+0.507,+0.608,+1.018,+0.024,-0.144,-3.375,+0.375,+4.750,-9, -3, 0, 0, 2, 2, 9, 0,-1.315326270461864,1.373959272726939
1503612467794,-0.477,-0.381,+0.506,+0.609,+1.038,+0.031,-0.156,-3.750,-6.000,+6.625,-5, -6, -2, -1, 0, 0, 2, 20,-1.3132185087779118,1.3717824078936054
1503612467816,-0.477,-0.380,+0.505,+0.611,+1.029,+0.028,-0.144,-4.125,-12.375,+7.375,-5, -8, 0, 0, 2, -1, 3, 3,-1.3117814399893302,1.3682785400587818
1503612467832,-0.477,-0.379,+0.503,+0.613,+0.994,+0.010,-0.151,-4.188,-15.188,+6.812,10, -6, -4, -3, -5, 0, 4, 14,-1.310155537389574,1.3625622609890313
1503612467854,-0.477,-0.379,+0.502,+0.614,+0.966,+0.010,-0.159,-3.188,-8.562,+5.625,-8, -5, -3, -2, 0, -2, -1, -6,-1.310206044766764,1.3605498734553507
1503612467876,-0.476,-0.379,+0.502,+0.615,+0.975,+0.019,-0.156,-1.750,-0.562,+3.375,6, -1, 0, 0, 0, -1, -2, 12,-1.308293781978423,1.3606011993066027
1503612467892,-0.476,-0.379,+0.502,+0.614,+0.976,+0.025,-0.157,-0.312,+3.500,-0.625,-1, 1, 1, 0, -4, -2, -13, 10,-1.308046577048719,1.3603915676743892
1503612467914,-0.477,-0.379,+0.503,+0.613,+0.965,+0.014,-0.160,+1.750,+5.938,-6.875,0, -6, -4, -3, 1, 0, 8, 5,-1.310155537389574,1.3625622609890313
1503612467938,-0.477,-0.380,+0.505,+0.611,+0.937,+0.013,-0.156,+4.250,+15.688,-11.562,1, 12, 3, -1, -2, -2, -18, -9,-1.3117814399893302,1.3682785400587818
1503612467952,-0.478,-0.382,+0.507,+0.607,+0.958,+0.017,-0.140,+5.500,+21.438,-12.062,17, 6, 1, -3, -2, -1, 2, 41,-1.31681783290701,1.3754449017778119
1503612467975,-0.478,-0.383,+0.509,+0.605,+1.007,+0.038,-0.134,+3.938,+15.500,-9.375,-3, 1, -1, 0, 3, 6, 6, 0,-1.3184581458223064,1.3811944369199294
1503612467996,-0.479,-0.382,+0.509,+0.604,+1.014,+0.032,-0.150,+0.250,+1.875,-4.812,2, 0, 1, -1, -1, -1, 8, -15,-1.318638900857203,1.3794621791663586
1503612468012,-0.479,-0.382,+0.508,+0.606,+1.007,+0.033,-0.168,-2.500,-9.688,+4.750,-6, -5, 2, 0, -2, 1, 2, -1,-1.3189262547634715,1.377622467556195
1503612468034,-0.479,-0.381,+0.506,+0.608,+0.983,+0.026,-0.180,-4.812,-16.062,+12.062,21, -5, -8, -1, 0, 2, 4, 2,-1.3172928855794401,1.3718836304942796
1503612468056,-0.477,-0.380,+0.503,+0.612,+0.994,+0.005,-0.155,-8.000,-17.250,+16.312,-4, -1, -2, -1, -1, -4, -8, -21,-1.31163639963597,1.3640374867427243
1503612468072,-0.476,-0.380,+0.501,+0.615,+1.000,+0.004,-0.148,-7.625,-18.188,+17.062,-10, -1, 0, -1, -5, -1, 2, 4,-1.3098229394979737,1.3600659962237656
1503612468094,-0.475,-0.379,+0.499,+0.618,+0.993,+0.004,-0.156,-6.500,-16.938,+12.188,-1, -2, 1, 2, 8, -1, -12, 7,-1.3062874759684806,1.3544248018845304
1503612468116,-0.475,-0.378,+0.497,+0.619,+0.983,+0.005,-0.149,-3.625,-12.875,+6.125,-10, 0, -1, -3, -6, 1, 8, -60,-1.304416452363566,1.3485275753214963
1503612468133,-0.476,-0.378,+0.497,+0.619,+0.957,+0.008,-0.146,-0.875,-1.812,-0.812,-11, -1, -3, -2, -3, 2, -1, 11,-1.3065778828894143,1.348694280669394
1503612468154,-0.476,-0.379,+0.499,+0.618,+0.949,+0.017,-0.149,+2.500,+10.000,-5.312,3, -23, -5, -2, -1, 0, 0, 0,-1.3084446856602838,1.354587392560963
1503612468177,-0.476,-0.380,+0.501,+0.615,+0.962,+0.031,-0.167,+4.688,+18.188,-9.062,3, 15, 6, -1, 1, 0, 0, 9,-1.3098229394979737,1.3600659962237656
1503612468192,-0.477,-0.381,+0.503,+0.612,+1.009,+0.049,-0.151,+5.938,+18.375,-11.312,7, -1, -1, -3, -3, -3, -15, 7,-1.3133652252898,1.3657227445551987
1503612468216,-0.478,-0.381,+0.504,+0.609,+1.031,+0.053,-0.147,+7.188,+7.562,-10.500,-4, 2, -2, -1, -5, -5, -3, 8,-1.314989759125985,1.3674854982034195
1503612468241,-0.480,-0.382,+0.504,+0.608,+1.008,+0.030,-0.152,+7.000,-0.625,-5.312,-3, -6, -6, -2, -1, 2, 5, -5,-1.3208030245633116,1.3692784216999572
1503612468252,-0.480,-0.383,+0.503,+0.609,+0.974,-0.001,-0.169,+6.062,-2.250,+1.438,-8, 0, 0, -1, 1, 2, 9, 10,-1.3225817616084061,1.3689545434557724
1503612468275,-0.480,-0.384,+0.502,+0.609,+0.968,-0.023,-0.159,+4.688,+0.375,+4.750,-11, -3, -4, -2, -1, -2, -14, 3,-1.3241265104852995,1.3684367386096197
1503612468297,-0.480,-0.385,+0.501,+0.609,+1.003,-0.013,-0.143,+1.438,-1.250,+5.000,3, -1, 2, 0, 0, -1, -2, 1,-1.3256746122117018,1.367926604479132
1503612468312,-0.479,-0.385,+0.500,+0.610,+1.016,+0.017,-0.128,-1.188,-7.562,+6.625,3, 5, 2, 2, 1, -1, 3, -1,-1.3235635247830508,1.3657660995841436
1503612468334,-0.479,-0.384,+0.498,+0.612,+1.007,+0.015,-0.144,-1.250,-11.875,+6.812,8, 4, 0, 1, 1, 1, 6, -1,-1.321919833097855,1.3600629919243077
1503612468357,-0.480,-0.384,+0.497,+0.613,+0.981,-0.000,-0.169,+1.062,-10.250,+7.000,-10, 5, 2, -1, 0, 0, 1, -14,-1.3241265104852995,1.3582304309949689
1503612468374,-0.480,-0.385,+0.496,+0.613,+0.972,+0.012,-0.160,+0.750,-2.875,+4.062,-1, -7, -1, 0, -1, -1, 0, -3,-1.3256721861998817,1.357736551895151
1503612468394,-0.479,-0.386,+0.496,+0.613,+0.962,-0.001,-0.131,+1.562,+5.375,+1.812,9, 11, 2, 1, -2, 0, 14, 14,-1.3252507095434303,1.3592831701070343
1503612468417,-0.479,-0.387,+0.497,+0.611,+0.972,-0.001,-0.137,+1.500,+9.938,-1.688,-3, 1, 0, -2, -1, 1, -2, 1,-1.326714392985101,1.3627789068509741
1503612468434,-0.479,-0.388,+0.498,+0.610,+0.987,+0.002,-0.167,+2.375,+9.750,-5.750,-9, -5, -5, -2, -2, -2, -1, 4,-1.32841458042354,1.3664868839244406
1503612468454,-0.480,-0.388,+0.499,+0.608,+0.990,+0.014,-0.144,+1.812,+8.062,-8.188,7, 1, 5, -1, 1, 1, 2, 7,-1.3302953673528168,1.3684400740622078
1503612468479,-0.480,-0.388,+0.501,+0.607,+0.980,+0.043,-0.141,+0.750,+5.562,-8.188,7, 21, 9, 3, 1, 0, 1, -7,-1.3304363399924302,1.3726447449887413
1503612468491,-0.481,-0.387,+0.501,+0.606,+0.993,+0.043,-0.151,+0.500,+3.375,-5.938,-3, 4, -2, -1, 1, 1, 10, 12,-1.3306192101791194,1.370890170746947
1503612468513,-0.481,-0.387,+0.502,+0.606,+1.020,+0.027,-0.151,+0.250,+0.688,-1.562,-2, -5, -1, -2, 0, -1, -4, -22,-1.330803290986872,1.3730964558543484
1503612468536,-0.482,-0.387,+0.501,+0.606,+1.018,+0.053,-0.168,-0.375,-4.562,+2.125,-10, -4, -2, -1, 1, 2, -1, -30,-1.3327778965567316,1.3710438438642623
1503612468551,-0.482,-0.386,+0.500,+0.607,+1.008,+0.057,-0.167,-1.250,-8.312,+4.812,-19, 6, -1, -1, 0, 1, 4, 19,-1.331084051852634,1.3673320175019532
1503612468580,-0.482,-0.386,+0.499,+0.608,+0.982,+0.036,-0.151,+0.312,-6.188,+6.688,-4, 1, 0, 0, -1, 1, 3, 6,-1.3311296407158992,1.365331424439717
1503612468597,-0.482,-0.387,+0.498,+0.608,+0.986,+0.025,-0.146,+2.062,-3.000,+7.500,13, -4, 0, -3, -2, -2, -9, 39,-1.3326849791179491,1.3648413187005768
1503612468613,-0.482,-0.388,+0.497,+0.608,+0.998,+0.028,-0.143,+3.875,-1.188,+6.625,7, -3, -2, 1, 1, -2, -2, -3,-1.3342437271699832,1.3643588941072569
1503612468633,-0.482,-0.389,+0.496,+0.608,+0.994,+0.025,-0.155,+6.938,-0.562,+5.625,-4, -18, -5, -2, -4, -3, 0, -7,-1.3358059014271946,1.363884152122705
1503612468656,-0.483,-0.390,+0.495,+0.608,+0.992,+0.029,-0.162,+9.875,+0.562,+5.312,0, -5, 0, -1, -1, 2, 7, -3,-1.3395303391743745,1.363577684433761
1503612468679,-0.483,-0.392,+0.494,+0.607,+0.996,+0.028,-0.148,+10.000,+2.250,+5.250,-11, 9, 0, -1, -2, -3, 2, -8,-1.342629136433033,1.3646476009471613
1503612468701,-0.483,-0.394,+0.493,+0.607,+1.005,+0.033,-0.151,+10.812,+2.500,+6.688,18, 4, -2, -2, 1, 0, 2, -4,-1.3459603227464285,1.3659397760618952
1503612468716,-0.483,-0.396,+0.492,+0.606,+1.007,+0.026,-0.149,+12.688,+3.875,+7.750,-12, -2, -2, 0, -1, 0, 2, 4,-1.3490899908572542,1.3670513220129652
1503612468731,-0.484,-0.398,+0.491,+0.605,+0.997,+0.018,-0.137,+13.375,+3.062,+8.125,1, -4, -2, -1, -2, -1, 1, 5,-1.3543873905863866,1.3683446104202581
1503612468753,-0.484,-0.401,+0.489,+0.604,+1.008,+0.021,-0.142,+14.875,-0.562,+9.562,1, 1, 2, -2, -2, -2, -8, 3,-1.3591539762453961,1.3691020871178234
1503612472138,-0.374,-0.337,+0.550,+0.667,+1.028,-0.019,-0.094,-0.562,+9.500,-6.188,-20, 4, -1, -1, 2, -3, -4, -58,-1.0549622130162142,1.402130041746117
1503612472159,-0.375,-0.338,+0.551,+0.664,+1.010,-0.016,-0.104,+5.312,+10.062,-10.000,2, 1, 1, 1, 3, -4, 3, 19,-1.0578666258580771,1.4055436280681266
1503612472181,-0.377,-0.338,+0.552,+0.662,+0.990,-0.017,-0.103,+11.062,+9.250,-16.312,11, -1, 0, 1, 3, -3, 5, 4,-1.0613855810321966,1.4077996121219718
1503612472197,-0.381,-0.339,+0.553,+0.659,+0.999,-0.016,-0.161,+17.375,+6.062,-19.812,-5, 0, 0, 1, 1, 7, -1, -1,-1.0702007860119858,1.4115559214352786
1503612472219,-0.383,-0.340,+0.554,+0.657,+0.990,-0.055,-0.108,+12.438,+9.812,-14.562,2, 1, -3, -5, -7, -4, -3, 12,-1.075459211841723,1.4152750738722284
1503612472241,-0.383,-0.341,+0.553,+0.657,+1.073,-0.088,-0.070,-0.625,-2.312,+2.938,-4, 0, -2, -1, 2, 9, 6, 13,-1.0768601056280098,1.4143485313184918
1503612472257,-0.380,-0.341,+0.553,+0.659,+1.069,-0.045,-0.089,-10.375,-3.750,+16.812,-5, -2, 1, 0, 0, 2, 5, 7,-1.0716808960444688,1.414374390003435
1503612472279,-0.380,-0.340,+0.550,+0.661,+0.959,+0.016,-0.132,-3.812,-17.250,+7.000,0, 1, 0, 1, 3, -3, -7, -6,-1.0697051923652745,1.4060919621472407
1503612472302,-0.382,-0.339,+0.547,+0.664,+0.981,-0.013,-0.188,+2.938,-23.688,+3.812,1, 3, 1, 0, -2, 2, 3, 0,-1.0720531338573958,1.3982469904388124
1503612472317,-0.383,-0.338,+0.544,+0.666,+0.987,-0.078,-0.133,+1.062,-19.000,+0.938,11, -6, -3, -2, -3, -3, -4, 1,-1.072082383834599,1.3901369553341116
1503612472339,-0.383,-0.337,+0.543,+0.667,+0.977,-0.079,-0.093,-3.375,-15.688,-0.812,-9, -9, -5, -2, -2, -6, -4, 4,-1.0704194883683926,1.3864863887728889
1503612472360,-0.383,-0.336,+0.542,+0.668,+0.977,-0.033,-0.103,-6.688,-12.500,-2.375,-1, 7, 3, -1, -4, -1, 4, 1,-1.0687612755096083,1.382840389818848
1503612472377,-0.384,-0.335,+0.542,+0.668,+0.961,+0.002,-0.131,-2.938,-6.500,-4.938,-1, -4, -4, -2, 6, 2, -8, 0,-1.0690510405823113,1.3815030716528367
1503612472399,-0.386,-0.334,+0.541,+0.668,+0.963,+0.011,-0.166,+5.125,-2.562,-7.188,11, 2, 5, 7, 0, -2, -3, 5,-1.0710221734843395,1.3779141018988192
1503612472414,-0.389,-0.334,+0.542,+0.666,+0.947,-0.005,-0.151,+9.562,+3.500,-13.625,-1, -2, -5, -4, -7, -8, 1, 16,-1.0765995789018494,1.3802648541534028
1503612472437,-0.391,-0.334,+0.543,+0.664,+0.967,-0.028,-0.124,+6.188,+5.062,-16.062,7, 0, -4, -4, 1, 8, 10, 0,-1.0801851816230128,1.3824895892685483
1503612472459,-0.393,-0.333,+0.544,+0.662,+1.007,+0.013,-0.117,+2.125,+5.438,-14.812,-4, 1, -2, -2, -1, -3, 0, 4,-1.0820881369465476,1.3832593261075927
1503612472474,-0.394,-0.332,+0.545,+0.661,+1.041,+0.044,-0.134,+0.188,-1.875,-6.812,-3, -12, -2, 1, -3, -1, -9, -14,-1.0823562532556543,1.384113790596262
1503612472497,-0.395,-0.331,+0.544,+0.662,+1.043,+0.040,-0.141,-2.062,-13.125,-0.562,-8, -1, -1, -1, 0, 2, 5, 12,-1.082747778258161,1.3806030554005089
1503612472519,-0.396,-0.329,+0.541,+0.665,+1.014,+0.036,-0.166,-2.688,-21.438,+3.688,28, 28, 4, -3, -2, -1, -3, -1,-1.0816022236446574,1.3713057039868892
1503612472541,-0.397,-0.328,+0.539,+0.667,+0.988,-0.001,-0.126,-3.750,-23.000,+2.250,4, -10, -9, -3, 1, -6, -2, -35,-1.0820884234307881,1.365659031661596
1503612472557,-0.397,-0.326,+0.537,+0.669,+0.976,-0.028,-0.137,-5.750,-22.562,+2.250,-15, -16, -4, -3, -1, 1, 2, 4,-1.0788993048183881,1.358453258804829
1503612472579,-0.397,-0.324,+0.535,+0.671,+0.986,-0.016,-0.146,-7.375,-20.500,+1.438,-8, 1, 6, 0, -1, 2, 6, 24,-1.0757292333248343,1.351266568930666
1503612472600,-0.398,-0.323,+0.533,+0.673,+1.013,-0.003,-0.167,-8.000,-17.375,+1.500,9, -8, -5, -3, -1, 0, 5, 2,-1.0762615454737159,1.3456802965159425
1503612472617,-0.398,-0.321,+0.532,+0.675,+0.995,-0.005,-0.181,-5.375,-16.562,+0.125,-11, -4, 0, 2, -1, 2, -6, -6,-1.0734331708357066,1.340912324911987
1503612472639,-0.399,-0.320,+0.530,+0.676,+0.965,-0.011,-0.196,-1.562,-12.000,-2.062,-9, 1, -1, -3, -15, -6, 5, 10,-1.073613914508995,1.33511592908392
1503612472660,-0.401,-0.318,+0.529,+0.677,+0.966,-0.003,-0.211,+0.625,-12.938,-5.375,-8, 1, 1, -2, -1, 1, 3, -5,-1.0745411467857042,1.3304309507311636
1503612472677,-0.402,-0.317,+0.529,+0.677,+0.948,+0.001,-0.186,-1.312,-7.250,-11.562,5, 5, 3, 5, 8, 4, 5, 16,-1.0749774950788702,1.3291577128788659
1503612472699,-0.404,-0.315,+0.528,+0.677,+0.997,+0.030,-0.217,-3.062,-7.375,-7.188,2, 15, 5, -1, -1, -3, -2, -1,-1.075571742961351,1.3242416200789642
1503612472714,-0.404,-0.314,+0.528,+0.678,+1.017,+0.029,-0.218,-1.938,-6.500,-1.625,0, -32, -14, -7, -2, -3, -5, 6,-1.0743471984883775,1.3230824354239066
1503612472739,-0.405,-0.314,+0.527,+0.678,+1.000,+0.008,-0.206,+1.000,-6.375,+0.625,-2, -3, 1, 2, 0, 0, 0, 1,-1.0761165939484696,1.32085839886059
1503612472759,-0.405,-0.314,+0.526,+0.679,+0.994,-0.014,-0.193,-1.688,-7.188,+2.625,9, -2, -3, -4, 0, -2, 0, -6,-1.076202983082406,1.31874317926298
1503612472781,-0.404,-0.314,+0.525,+0.680,+1.010,-0.011,-0.191,-4.312,-10.500,+5.562,-9, 6, -1, 1, 1, -1, 3, -8,-1.07421953697767,1.316473877786647
1503612472797,-0.404,-0.313,+0.523,+0.682,+1.013,-0.007,-0.193,-5.375,-13.812,+9.125,-8, -3, -1, -3, -2, -5, -8, -10,-1.0727900387391358,1.3108410100156318
1503612472819,-0.403,-0.313,+0.522,+0.684,+0.985,-0.012,-0.189,-6.188,-12.938,+8.688,-4, 1, -1, 2, 8, 0, -1, 2,-1.0711920717919137,1.3088474242175605
1503612472841,-0.402,-0.313,+0.521,+0.686,+0.952,-0.020,-0.196,-4.125,-7.375,+9.188,8, 9, 4, 2, -2, 3, 0, 5,-1.0695951789816058,1.306858143311932
1503612472857,-0.401,-0.312,+0.520,+0.686,+0.947,-0.017,-0.214,-4.750,-2.812,+4.750,-2, 3, -4, -3, -3, -1, 7, -4,-1.0656287425367281,1.3029083073854246
1503612472879,-0.400,-0.313,+0.521,+0.686,+0.978,-0.005,-0.210,-5.375,+4.812,+3.250,0, 3, 2, -1, 0, -3, -5, 3,-1.0654629794491184,1.3065314914445476
1503612472901,-0.399,-0.312,+0.522,+0.686,+0.986,+0.006,-0.223,-5.000,+4.750,+1.250,-4, -1, 1, 2, 2, -1, 0, -20,-1.0621035292485719,1.3073251599670561
1503612472917,-0.399,-0.312,+0.522,+0.686,+0.971,+0.015,-0.237,-2.500,+2.688,+0.062,6, -5, -4, -2, -4, 0, -4, 5,-1.0621035292485719,1.3073251599670561
1503612472940,-0.399,-0.312,+0.522,+0.686,+0.942,+0.011,-0.233,-0.500,+5.062,+0.312,22, 0, 1, 2, -4, 3, -2, 70,-1.0621035292485719,1.3073251599670561
1503612472961,-0.399,-0.313,+0.523,+0.685,+0.957,-0.010,-0.207,+0.688,+6.688,+1.938,-12, -8, -2, -3, 2, -2, 2, 6,-1.0636201113959622,1.3108430665656883
1503612472977,-0.398,-0.314,+0.523,+0.685,+0.990,-0.008,-0.205,-0.438,+6.188,+4.562,1, 1, -3, 0, 1, 1, 2, -10,-1.0631654391710919,1.3120989818382693
1503612472999,-0.398,-0.314,+0.523,+0.685,+0.995,+0.000,-0.227,-1.938,+0.125,+4.438,-12, 12, 6, 1, -1, -1, -4, 20,-1.0631654391710919,1.3120989818382693
1503612473021,-0.398,-0.314,+0.522,+0.686,+0.957,+0.002,-0.238,-0.750,-4.000,+4.812,-26, -11, -1, 0, 2, 1, -3, -75,-1.0632471115532292,1.3099950080192944
1503612473037,-0.397,-0.315,+0.522,+0.686,+0.914,-0.010,-0.234,+1.125,+2.062,+3.500,2, 0, -2, 2, -2, 4, 11, -7,-1.0627974535217193,1.311253549213126
1503612473059,-0.397,-0.316,+0.523,+0.685,+0.908,-0.016,-0.187,+3.375,+13.500,-2.375,1, -4, -2, -4, -2, -5, -6, 4,-1.0643291854880885,1.3147806977612182
1503612473082,-0.398,-0.317,+0.525,+0.682,+0.986,-0.016,-0.180,+5.688,+18.688,-6.750,8, 3, -3, -2, 6, -13, 1, 7,-1.067456244776173,1.3203206912543533
1503612473097,-0.399,-0.318,+0.527,+0.680,+1.035,+0.006,-0.186,+5.812,+14.438,-10.188,-1, -2, -5, 0, 2, 4, 3, 57,-1.070972587537204,1.326134813767844
1503612473119,-0.401,-0.318,+0.528,+0.678,+1.000,+0.030,-0.206,+6.500,+5.000,-11.062,-13, -2, -1, -2, -3, -1, -12, 1,-1.0746201714345178,1.3283073534950056
1503612473142,-0.403,-0.318,+0.528,+0.676,+0.968,+0.032,-0.188,+7.875,-0.125,-10.812,24, 7, 0, -1, -5, -1, -9, -15,-1.0779733129805515,1.3281055427291097
1503612473157,-0.405,-0.318,+0.528,+0.676,+0.980,+0.000,-0.185,+7.062,-1.312,-6.562,-3, -2, -5, -3, -9, 1, 0, -18,-1.0820980443708335,1.3284110138216216
1503612473179,-0.405,-0.319,+0.527,+0.675,+1.008,-0.026,-0.178,+4.625,+1.125,+1.375,3, 2, 3, 0, -2, -1, 0, -13,-1.0830393182696827,1.3272155920746183
1503612473201,-0.404,-0.320,+0.527,+0.676,+1.031,-0.033,-0.165,-0.750,-4.062,+5.688,2, 7, 5, 2, 0, -1, 0, -8,-1.0829789224055906,1.3287507313642688
1503612473217,-0.403,-0.320,+0.525,+0.677,+1.034,-0.008,-0.179,-3.125,-11.688,+8.500,-4, 11, 3, 1, -1, -1, 3, -13,-1.080695722816349,1.3241109528224713
1503612473241,-0.402,-0.320,+0.524,+0.679,+0.995,-0.025,-0.183,-2.938,-11.875,+10.750,-1, -6, -1, -3, -3, 0, 1, 6,-1.0790930848505855,1.3221006199629395
1503612473261,-0.401,-0.320,+0.522,+0.681,+0.997,-0.045,-0.170,-4.625,-9.000,+9.688,-6, 9, 4, 0, 2, 0, 2, 2,-1.077188328869933,1.3177307623951846
1503612473277,-0.400,-0.321,+0.522,+0.682,+1.015,-0.025,-0.171,-4.750,-5.312,+9.250,1, -9, -7, -3, -3, 1, 2, -5,-1.0771349094730782,1.3192729441059632
1503612473299,-0.399,-0.320,+0.521,+0.683,+1.021,+0.000,-0.190,-4.375,-6.500,+8.062,2, 0, -1, -1, 0, 1, -7, -7,-1.073530885712058,1.3155702418869533
1503612473321,-0.399,-0.320,+0.520,+0.684,+1.021,+0.002,-0.192,-3.625,-11.500,+6.688,2, -4, -1, -3, -4, -5, -13, 4,-1.0736062807376865,1.313472611823808
1503612473337,-0.399,-0.320,+0.518,+0.686,+0.979,+0.007,-0.210,-1.312,-10.188,+7.062,3, -1, -2, 2, -1, 1, -3, -1,-1.0737570079637022,1.3092885596722648
1503612473359,-0.399,-0.320,+0.518,+0.686,+0.932,+0.009,-0.216,+1.750,-2.375,+7.125,-8, -9, -2, 5, 12, 4, 3, -7,-1.0737570079637022,1.3092885596722648
1503612473381,-0.398,-0.321,+0.518,+0.686,+0.950,-0.005,-0.209,+3.000,+3.875,+5.750,-8, 3, -2, -2, -5, -1, 2, 8,-1.0733224588235333,1.3105674631117903
1503612473397,-0.398,-0.322,+0.518,+0.685,+0.987,+0.000,-0.208,+4.688,+4.625,+5.562,29, -1, -1, 1, -1, -3, -1, 2,-1.074567868017413,1.3117492227428422
1503612473419,-0.398,-0.324,+0.517,+0.685,+0.991,-0.003,-0.199,+7.625,-0.062,+3.500,-3, 4, 2, -1, -1, 1, 1, 8,-1.077519895551556,1.312303274037251
1503612473443,-0.400,-0.325,+0.516,+0.685,+0.969,-0.016,-0.216,+9.875,-4.938,+3.062,-15, -3, 1, -2, -2, 0, -1, -9,-1.0829535788846312,1.3117465376409263
1503612473457,-0.401,-0.326,+0.514,+0.685,+0.939,-0.026,-0.229,+11.438,-4.438,+1.688,-8, -12, -5, -3, -1, -1, 4, -3,-1.0860344794769434,1.3086919424530499
1503612473480,-0.402,-0.327,+0.513,+0.684,+0.944,-0.030,-0.212,+11.500,-0.625,+0.188,1, 2, -2, -1, -2, -1, -1, 9,-1.0890515715708295,1.3077250169534747
1503612473501,-0.403,-0.329,+0.512,+0.684,+0.960,-0.038,-0.210,+13.000,+1.812,+2.000,5, 17, 7, 3, 3, 0, 0, -4,-1.0940851685451696,1.308512963328619
1503612473517,-0.404,-0.331,+0.511,+0.683,+0.972,-0.017,-0.227,+15.750,+2.625,+3.500,-1, -9, -3, -2, -3, -4, -6, 1,-1.098760459159863,1.309056834716811
1503612473540,-0.406,-0.334,+0.509,+0.682,+0.985,-0.002,-0.227,+18.500,+1.438,+4.000,2, -3, -4, -1, 0, -2, -4, -5,-1.1068641295955384,1.3089724495639083
1503612473561,-0.407,-0.337,+0.508,+0.681,+0.987,-0.022,-0.210,+21.938,+1.375,+6.250,-1, 2, 1, -2, -2, 0, 0, -8,-1.113232715502743,1.3110860655936647
1503612473578,-0.408,-0.341,+0.505,+0.680,+0.998,-0.064,-0.220,+24.188,-0.625,+9.438,-9, -3, -1, -2, -1, -1, 4, -4,-1.120703095911734,1.3101554968062197
1503612473599,-0.409,-0.345,+0.502,+0.679,+1.020,-0.093,-0.240,+26.312,-2.688,+10.625,0, -8, -5, -1, -2, 0, 2, -7,-1.128224112616429,1.3093272193381167
1503612473621,-0.411,-0.349,+0.499,+0.679,+1.010,-0.087,-0.243,+28.000,-4.750,+10.125,-17, -7, -3, -2, -2, -2, -4, 4,-1.1382075096130684,1.3090417803691614
1503612478646,-0.386,-0.385,+0.542,+0.640,+0.957,-0.129,-0.034,-8.062,-21.500,-11.062,-3, 2, 3, 2, -1, -2, -13, 2,-1.152130063941965,1.454248865976105
1503612478661,-0.387,-0.382,+0.541,+0.642,+0.979,-0.128,-0.044,-12.188,-20.750,-14.688,-7, -3, 1, 2, -1, -3, 6, -1,-1.1488476124490212,1.4474347086639858
1503612478684,-0.389,-0.378,+0.541,+0.643,+1.001,-0.063,-0.091,-13.000,-18.875,-16.688,-10, -1, 0, 0, 9, 0, 6, 1,-1.145724426665172,1.4413278922528563
1503612478706,-0.392,-0.374,+0.541,+0.643,+0.956,+0.002,-0.125,-6.062,-10.500,-20.438,0, 3, 6, 2, -2, -1, 5, -3,-1.1443164145835758,1.4352385605319793
1503612478722,-0.395,-0.371,+0.542,+0.643,+0.958,-0.002,-0.134,-2.688,-6.500,-20.812,-24, -11, -4, 0, 2, 4, 13, -4,-1.1451064875881487,1.4331115285990297
1503612478746,-0.397,-0.369,+0.543,+0.642,+1.002,-0.032,-0.111,-3.062,+0.125,-17.500,15, 7, -2, -2, -1, -7, -8, -3,-1.1454397806436716,1.4323420001306288
1503612478766,-0.399,-0.366,+0.544,+0.641,+1.022,-0.022,-0.077,-5.438,-0.125,-18.562,-5, -2, -4, -5, 1, 8, 3, -4,-1.1440101641874891,1.4300262717707588
1503612478782,-0.401,-0.364,+0.545,+0.640,+1.049,+0.022,-0.098,-3.875,-8.312,-15.688,0, 0, 0, 4, 9, -4, -4, -1,-1.1443952055781392,1.4292985560054232
1503612478804,-0.404,-0.361,+0.544,+0.641,+1.059,+0.049,-0.121,-0.938,-18.375,-11.062,15, 27, 15, 2, -3, -8, -4, 2,-1.1451035902786941,1.4227750336172584
1503612478826,-0.407,-0.359,+0.542,+0.641,+1.023,+0.030,-0.122,+2.750,-18.250,-11.250,-14, -11, -10, -7, -6, 1, -7, -12,-1.147010250360649,1.4153246127266932
1503612478841,-0.409,-0.357,+0.541,+0.642,+0.966,-0.023,-0.058,+0.312,-19.000,-10.688,-8, -8, -2, 0, -6, 1, 1, -4,-1.1475806876999435,1.4102908914034689
1503612478864,-0.411,-0.355,+0.541,+0.642,+0.991,+0.006,-0.072,-1.000,-10.688,-8.125,30, 9, 3, 3, 4, 8, 14, 25,-1.148140597894523,1.407444299222245
1503612478886,-0.412,-0.355,+0.540,+0.642,+1.026,+0.030,-0.138,+1.125,-5.062,-2.625,-7, -5, -3, -1, -6, 1, -3, -3,-1.1498777834191625,1.4052167304805556
1503612478908,-0.412,-0.354,+0.540,+0.643,+1.041,+0.009,-0.138,-0.438,-3.125,+2.125,-21, -8, -4, -3, -2, -3, -5, -5,-1.148478969161563,1.4038603705671713
1503612478924,-0.412,-0.353,+0.538,+0.644,+1.050,+0.009,-0.181,-3.438,-12.250,+3.750,1, 13, 7, -4, -4, 5, -2, -5,-1.1465036936549167,1.3978207073708029
1503612478939,-0.413,-0.353,+0.538,+0.644,+1.030,-0.038,-0.070,-0.500,-3.562,-2.938,-14, -13, -7, -1, 0, -4, -10, -14,-1.148538507667287,1.3979422911611392
1503612478962,-0.413,-0.353,+0.538,+0.645,+1.036,-0.021,-0.075,-2.250,-10.500,+0.438,1, -2, -6, -5, -7, -7, -6, -4,-1.1488769109884212,1.3981272693652846
1503612478983,-0.413,-0.353,+0.537,+0.645,+1.037,+0.019,-0.126,+0.688,-4.062,+1.438,-1, -8, -2, -2, -7, -3, -1, 1,-1.148587702049682,1.3957866096428049
1503612479005,-0.413,-0.354,+0.537,+0.645,+0.978,-0.015,-0.104,+4.438,+5.250,+3.250,-1, -6, -2, 1, 6, -4, -4, -9,-1.1503174964426122,1.397322609613938
1503612479021,-0.412,-0.357,+0.539,+0.643,+0.947,-0.021,-0.089,+4.938,+17.688,+1.438,2, -8, -3, 0, 8, 0, 16, -3,-1.1534026786239187,1.4061341808616328
1503612479043,-0.412,-0.357,+0.540,+0.641,+1.005,+0.008,-0.150,+3.812,+15.812,-4.562,0, 4, 0, -2, -1, 10, -2, 11,-1.1530239503946365,1.4081204306980983
1503612479065,-0.413,-0.358,+0.541,+0.639,+1.034,+0.040,-0.157,+4.562,+13.500,-5.125,5, 0, -3, 2, 3, -2, 2, -1,-1.1564183563005048,1.4117726066215195
1503612479082,-0.414,-0.359,+0.542,+0.637,+0.982,+0.030,-0.140,+8.188,+9.375,-3.375,1, 0, 5, 7, 9, 6, 17, 6,-1.1598180558745919,1.4154314776720323
1503612479103,-0.415,-0.360,+0.542,+0.636,+0.973,-0.015,-0.093,+9.562,+5.188,-5.688,2, 3, -2, -1, -1, -3, -7, 1,-1.163266640881388,1.4169238984038897
1503612479125,-0.417,-0.361,+0.542,+0.634,+1.003,-0.023,-0.078,+7.000,+1.812,-6.812,0, 5, -1, -4, -4, -7, -5, -2,-1.1684231490274795,1.4183652169873273
1503612479141,-0.418,-0.361,+0.542,+0.634,+0.992,-0.013,-0.099,+4.312,-2.875,-5.250,2, -3, 0, 2, 0, -3, -7, -4,-1.170455400883465,1.4184747766620742
1503612479163,-0.418,-0.360,+0.541,+0.634,+0.971,+0.000,-0.117,+0.750,-3.312,-2.000,0, 0, -2, -2, 0, 0, 3, 2,-1.1684230403113411,1.4145858470457047
1503612479185,-0.418,-0.360,+0.541,+0.634,+0.977,+0.006,-0.107,-1.250,-2.938,+2.000,-13, -8, -6, -4, -2, 0, 14, 3,-1.1684230403113411,1.4145858470457047
1503612479200,-0.418,-0.360,+0.540,+0.636,+1.030,-0.004,-0.101,-3.000,-9.500,+4.000,11, 14, 10, 4, 5, 2, -14, -1,-1.1687957591089042,1.4125896083904048
1503612479223,-0.419,-0.358,+0.538,+0.637,+1.023,-0.009,-0.089,-6.250,-17.750,+1.812,-2, -6, -1, 1, 1, -8, 5, 3,-1.1671123055718746,1.4051066179189609
1503612479245,-0.419,-0.356,+0.537,+0.640,+0.983,-0.002,-0.089,-7.562,-20.062,+1.625,2, 1, -2, -3, -7, -5, 0, -1,-1.1643487837931397,1.4002150194796616
1503612479260,-0.419,-0.355,+0.535,+0.642,+0.988,-0.011,-0.091,-7.812,-17.312,+3.375,10, 15, 16, 7, 4, 2, 21, 10,-1.1627191662888636,1.3943740234142337
1503612479284,-0.418,-0.354,+0.535,+0.643,+1.000,-0.010,-0.116,-8.312,-10.938,+3.438,3, 10, 2, 1, 3, 0, 0, 1,-1.1592779460297256,1.3928940955361235
1503612479305,-0.418,-0.353,+0.534,+0.645,+1.001,+0.002,-0.133,-8.500,-9.250,+3.438,-8, -13, -6, -5, -12, -8, -9, -1,-1.157940751863786,1.3894019578742427
1503612479321,-0.418,-0.352,+0.533,+0.646,+1.000,+0.002,-0.139,-6.938,-8.438,+3.000,5, 0, -2, -2, -2, -3, -10, -6,-1.1562736352092966,1.3857248138502067
1503612479343,-0.418,-0.350,+0.533,+0.647,+0.991,-0.005,-0.136,-5.500,-7.750,-2.688,-2, -2, -4, -3, 6, -6, -17, -2,-1.1531812494901714,1.3828529887229344
1503612479365,-0.419,-0.349,+0.532,+0.648,+0.984,-0.017,-0.134,-5.188,-9.625,-5.062,1, -1, 1, 3, 7, 3, 6, 2,-1.1535827229943572,1.3793191060071173
1503612479380,-0.419,-0.347,+0.532,+0.648,+0.986,-0.012,-0.127,-6.812,-9.188,-5.438,-3, -9, 0, 0, -8, 2, 1, 3,-1.1501729758965336,1.3762642820602633
1503612479403,-0.420,-0.346,+0.532,+0.649,+0.988,+0.011,-0.149,-6.688,-7.125,-3.750,3, 0, -1, 0, -1, -4, -10, -4,-1.150877112490188,1.375082202110475
1503612479427,-0.420,-0.344,+0.532,+0.650,+0.995,+0.019,-0.152,-5.312,-6.250,-2.688,-12, -11, -4, -4, -2, 8, 8, 1,-1.1478322574178292,1.3722556873683198
1503612479441,-0.421,-0.344,+0.531,+0.650,+0.986,+0.014,-0.175,-1.500,-5.500,-1.875,3, 1, -2, -2, -1, 2, 9, 4,-1.1496171988673776,1.3700508067554948
1503612479463,-0.422,-0.343,+0.531,+0.650,+0.967,+0.004,-0.146,-0.438,-3.312,-3.812,-10, 2, -1, -1, 0, -5, -6, -11,-1.1499991927303213,1.3686735023356449
1503612479486,-0.422,-0.343,+0.531,+0.650,+0.974,+0.007,-0.140,-0.688,-1.812,-3.438,-3, -10, -3, -2, 0, 0, 6, -4,-1.1499991927303213,1.3686735023356449
1503612479500,-0.422,-0.343,+0.531,+0.650,+0.995,+0.013,-0.147,-1.062,-1.938,-0.312,2, 10, 6, 0, 2, -2, 10, 1,-1.1499991927303213,1.3686735023356449
1503612479523,-0.423,-0.342,+0.530,+0.651,+1.021,+0.019,-0.172,-1.875,-6.625,+0.750,-1, 18, 2, -1, 1, -2, -12, -51,-1.1504545145269303,1.3651739203354936
1503612479545,-0.423,-0.342,+0.529,+0.651,+1.007,+0.022,-0.165,+2.125,-6.500,-0.312,-3, -10, -8, -4, -6, -2, 0, 23,-1.150175315362232,1.3628338283492503
1503612479561,-0.424,-0.342,+0.528,+0.651,+1.004,-0.012,-0.157,+5.188,-6.562,+1.938,0, -7, 1, 1, 2, 6, 8, 6,-1.1519747325155576,1.3606365983300694
1503612479583,-0.424,-0.343,+0.527,+0.651,+0.985,-0.027,-0.135,+4.125,-5.062,+1.375,-1, -7, -3, -3, -9, -3, -3, -18,-1.1533776678257726,1.3598174911133778
1503612479605,-0.425,-0.343,+0.527,+0.651,+0.980,-0.012,-0.144,+2.438,-2.375,+0.562,-7, -3, -3, -1, 0, -7, 6, -1,-1.1554579551633153,1.359961173670507
1503612479620,-0.425,-0.344,+0.526,+0.651,+1.005,+0.014,-0.154,+3.188,-1.500,+1.000,12, 7, 0, -1, -3, 0, 1, -13,-1.1568632915178079,1.359150429305093
1503612479643,-0.425,-0.345,+0.526,+0.651,+1.021,-0.004,-0.160,+4.812,+0.125,+3.562,-16, -2, -3, 1, -2, -4, 0, -26,-1.1585479185486243,1.3606760908257496
1503612479665,-0.426,-0.345,+0.525,+0.651,+1.020,+0.012,-0.152,+4.938,-3.062,+0.062,-5, -7, -6, -3, -3, -3, -11, 4,-1.1603526225060883,1.3584925416650369
1503612479680,-0.426,-0.346,+0.524,+0.651,+0.988,+0.004,-0.146,+4.125,-4.750,+2.375,-3, -8, -2, -3, -4, -11, -6, -12,-1.1617630649788686,1.357697519767275
1503612479703,-0.427,-0.347,+0.523,+0.651,+0.964,+0.012,-0.148,+5.062,-2.562,+4.625,3, -1, 0, -2, -2, 6, 0, 5,-1.1652585308391545,1.3570571637879658
1503612479725,-0.427,-0.348,+0.523,+0.651,+0.979,+0.005,-0.164,+6.875,+1.500,+5.938,0, -1, -2, -1, -3, 4, 1, -5,-1.1669477030307376,1.3585957867347562
1503612479740,-0.427,-0.350,+0.522,+0.651,+0.998,-0.005,-0.167,+7.312,+0.812,+5.250,-1, 0, -2, -1, 0, -2, -2, 0,-1.170060147239698,1.3593669086725602
1503612479764,-0.427,-0.351,+0.520,+0.651,+1.003,-0.010,-0.166,+7.500,-3.750,+3.812,-4, -3, -1, -2, -5, -5, -8, 1,-1.1712109233318726,1.3562943390186974
1503612479787,-0.428,-0.351,+0.519,+0.651,+0.981,-0.013,-0.166,+7.250,-7.875,+2.625,-2, -3, -2, 0, 2, 3, 5, 6,-1.1730202855877396,1.3541353000949619
1503612479800,-0.429,-0.352,+0.517,+0.652,+0.974,-0.022,-0.169,+7.375,-6.562,+3.062,4, 15, 6, 0, 1, -1, 0, 3,-1.1765897703420645,1.3514595491724464
1503612479823,-0.430,-0.353,+0.516,+0.652,+0.968,-0.021,-0.174,+7.875,-4.688,+2.688,17, 18, 9, 4, -2, -4, -8, -1,-1.1801032681212469,1.3508761533278564
1503612479845,-0.431,-0.354,+0.515,+0.652,+0.974,-0.018,-0.178,+7.938,-2.875,+1.688,-5, -10, -7, 0, -3, 2, 1, -1,-1.1836204276958797,1.3503018931027968
1503612479860,-0.431,-0.355,+0.513,+0.651,+0.983,-0.018,-0.171,+7.062,-3.812,+1.125,-2, 8, 5, 2, 4, 11, -6, -11,-1.184461563554852,1.3470630542899584
1503612479883,-0.432,-0.355,+0.512,+0.652,+0.979,-0.012,-0.181,+6.188,-5.438,+1.375,-2, -11, -6, -2, 3, 0, 1, 5,-1.186609559497387,1.3451594415747592
1503612479905,-0.433,-0.356,+0.511,+0.652,+0.964,-0.017,-0.179,+6.750,-1.562,+4.688,-1, -12, -6, -3, 0, -5, -9, 3,-1.1901373153487904,1.3446121748026951
1503612479923,-0.433,-0.358,+0.510,+0.651,+0.974,-0.021,-0.168,+7.188,+2.625,+4.438,-10, -12, -5, -3, -2, -5, 2, -4,-1.1929621751873591,1.3452731061129166
1503612479943,-0.433,-0.359,+0.510,+0.651,+0.997,-0.021,-0.166,+7.250,+2.812,+4.438,2, 7, 0, -2, -5, -1, 2, 1,-1.1946715903976985,1.3468646381609037
1503612479965,-0.433,-0.360,+0.509,+0.651,+0.995,-0.030,-0.168,+6.812,-3.000,+4.188,15, 5, 1, 0, -5, -1, 5, 14,-1.1961198547600458,1.3461825172787865
1503612479980,-0.434,-0.361,+0.508,+0.651,+0.982,-0.031,-0.169,+5.625,-4.688,+2.938,12, -6, -2, -1, -1, -1, 0, -2,-1.1996606267453025,1.3456690880271482
1503612480003,-0.434,-0.362,+0.507,+0.651,+0.979,-0.021,-0.174,+5.562,-1.938,+2.875,-10, -6, -4, -2, 2, -1, 5, 1,-1.2011145564190353,1.3450027467643488
1503612480031,-0.435,-0.363,+0.507,+0.650,+0.983,-0.013,-0.169,+5.562,+1.500,+1.625,-5, 0, 0, -2, -6, 4, 18, -2,-1.2046100972627614,1.3465458728026873
1503612480041,-0.435,-0.364,+0.506,+0.650,+0.996,-0.030,-0.159,+6.062,+3.000,+2.250,-11, -1, -3, -1, 0, 6, -7, -75,-1.2060706543454882,1.3458923485617802
1503612480064,-0.435,-0.365,+0.506,+0.649,+0.995,-0.026,-0.167,+6.625,+2.250,+2.625,-2, 1, 2, 2, 3, -1, -3, 17,-1.2074844818909822,1.347283084285536
1503612480085,-0.435,-0.367,+0.505,+0.648,+1.020,-0.020,-0.171,+8.062,+1.688,+2.688,-10, 20, 4, 1, 1, -2, -2, 7,-1.210374688422526,1.348041830847987
1503612480100,-0.436,-0.368,+0.504,+0.648,+1.020,-0.023,-0.188,+9.875,+0.375,+5.250,-1, -7, -3, -1, 0, -5, -2, 21,-1.2139378076160332,1.3475753239617487
1503612480125,-0.436,-0.370,+0.503,+0.648,+1.002,-0.034,-0.179,+11.062,-0.750,+9.000,1, -7, 0, -1, -8, -5, -4, -2,-1.2171524638283084,1.348590147852667
1503612480146,-0.436,-0.373,+0.501,+0.648,+1.003,-0.054,-0.182,+12.688,+0.938,+11.188,-1, -2, 1, 0, -1, 1, 5, 7,-1.2218677933624387,1.3490269987785224
1503612480163,-0.436,-0.376,+0.499,+0.648,+1.018,-0.064,-0.171,+13.312,+0.750,+11.625,1, -1, -2, -3, 1, 3, 0, 7,-1.226609791649224,1.3495146999482377
1503612480191,-0.436,-0.378,+0.497,+0.648,+1.020,-0.068,-0.172,+13.312,-2.688,+12.625,3, -3, -4, -2, -1, -6, -6, -2,-1.2296172446000713,1.3483822794709754
1503612480205,-0.436,-0.381,+0.494,+0.649,+1.004,-0.070,-0.183,+14.875,-5.188,+14.062,-2, -7, -8, -3, -1, -2, -4, 2,-1.2344416432119687,1.3469595732656983
1503612483228,-0.492,-0.393,+0.433,+0.645,+1.028,-0.079,-0.261,-10.812,-19.625,+4.625,-3, -3, 5, 2, 1, -1, -2, -17,-1.3616242066598867,1.248065433432432
1503612483245,-0.493,-0.390,+0.431,+0.648,+0.972,-0.103,-0.284,-5.125,-24.812,+3.000,13, 7, 2, -2, -1, 0, -3, -8,-1.3589674513074035,1.2396226130311367
1503612483266,-0.493,-0.388,+0.428,+0.651,+0.939,-0.111,-0.300,-7.062,-22.812,+6.188,8, 5, 3, 0, -1, -2, -3, -5,-1.3556851199579891,1.2307078198137562
1503612483288,-0.492,-0.386,+0.426,+0.653,+0.945,-0.072,-0.304,-11.625,-17.188,+9.000,-20, -3, 2, 1, 2, 0, 25, -10,-1.350158450593763,1.2233213354949286
1503612483304,-0.491,-0.385,+0.425,+0.656,+0.918,-0.070,-0.304,-12.938,-8.812,+11.562,0, 19, 6, 0, 0, -2, -11, -2,-1.3467268968972308,1.2200856211270366
1503612483326,-0.489,-0.384,+0.425,+0.658,+0.928,-0.081,-0.300,-11.938,-2.688,+14.188,13, -16, -9, -4, -7, -7, -13, 28,-1.341045844856811,1.2183534112935006
1503612483348,-0.487,-0.384,+0.425,+0.660,+0.951,-0.092,-0.288,-12.062,-0.750,+12.312,-10, -6, -6, -1, 1, 3, -5, -29,-1.3370740685777383,1.2184102367959426
1503612483364,-0.485,-0.384,+0.425,+0.661,+0.961,-0.084,-0.294,-10.062,-1.062,+11.250,4, -5, 0, 1, 0, -1, 0, -2,-1.33288662744583,1.2181724229120021
1503612483387,-0.484,-0.383,+0.425,+0.662,+0.951,-0.086,-0.294,-7.875,-4.062,+9.250,-11, -4, -2, -2, 1, -2, -6, 3,-1.3292112777565868,1.2164185561185217
1503612483409,-0.483,-0.383,+0.424,+0.664,+0.924,-0.085,-0.308,-6.750,-4.000,+5.250,15, 1, -4, -1, -3, 0, -4, -4,-1.3272871345261723,1.2146815444483308
1503612483424,-0.482,-0.382,+0.424,+0.664,+0.927,-0.085,-0.302,-7.188,-1.250,+4.125,17, 13, 7, 0, 0, -3, -7, -7,-1.3233823279447066,1.212632975348574
1503612483447,-0.482,-0.381,+0.424,+0.665,+0.940,-0.076,-0.308,-6.875,+0.875,+4.875,-7, -7, -6, 0, 1, 2, 2, -9,-1.3219236141264619,1.2111555401205214
1503612483469,-0.481,-0.381,+0.425,+0.666,+0.958,-0.076,-0.303,-7.562,-3.438,+3.625,-11, 2, 4, 2, 2, 4, 9, 4,-1.320146275817041,1.2132532224293073
1503612483489,-0.481,-0.379,+0.424,+0.667,+0.950,-0.091,-0.309,-7.375,-6.188,+2.000,-26, -1, 4, 2, -3, 0, -2, -10,-1.3168134264748077,1.2079455541007345
1503612483506,-0.481,-0.378,+0.424,+0.668,+0.917,-0.085,-0.317,-6.188,-5.000,+0.438,5, -6, -7, -1, -2, 0, 17, 10,-1.3153700825992511,1.2064829870247467
1503612483528,-0.481,-0.378,+0.424,+0.668,+0.919,-0.084,-0.307,-5.188,+0.688,-1.625,-4, -8, -3, -4, -3, -3, 2, 13,-1.3153700825992511,1.2064829870247467
1503612483544,-0.481,-0.378,+0.425,+0.668,+0.958,-0.082,-0.331,-1.750,+2.312,-0.250,26, 37, -2, -3, -1, -3, 0, -24,-1.315561822768598,1.2085536971305852
1503612483566,-0.481,-0.377,+0.424,+0.668,+0.966,-0.096,-0.322,-1.062,-3.062,-0.562,7, -7, -5, 0, -1, -1, -7, 8,-1.3136864331931515,1.2047206369165628
1503612483589,-0.482,-0.376,+0.424,+0.669,+0.930,-0.090,-0.325,-2.750,-8.500,-2.500,12, -7, 5, -2, -1, 1, -1, 47,-1.314464717765455,1.2035383162426336
1503612483604,-0.482,-0.376,+0.423,+0.669,+0.888,-0.102,-0.320,-2.750,-3.250,-0.625,-2, -8, -3, -3, -1, -2, -5, -37,-1.314273215817491,1.2014676850971542
1503612483626,-0.481,-0.376,+0.424,+0.669,+0.893,-0.101,-0.313,-4.312,+8.250,+0.562,-21, -5, -6, 0, -1, -3, -16, -61,-1.3122524919347014,1.203267085958275
1503612483649,-0.480,-0.377,+0.426,+0.668,+0.968,-0.083,-0.301,-4.062,+15.188,+2.000,-3, -9, -1, -1, 0, -2, -28, 9,-1.3118634653106418,1.208598771655738
1503612483664,-0.479,-0.378,+0.427,+0.667,+1.019,-0.069,-0.289,-3.375,+8.500,+2.562,2, 3, 2, -1, 3, -1, 6, 11,-1.3112906198892478,1.2118650008813185
1503612483686,-0.479,-0.377,+0.427,+0.667,+0.979,-0.076,-0.308,-1.438,-3.062,-0.625,-10, -3, -1, 1, 0, 3, 11, 1,-1.3096030637040301,1.2101055513579901
1503612483708,-0.480,-0.377,+0.427,+0.668,+0.923,-0.099,-0.309,+0.688,-5.938,-3.312,-5, 17, 6, 2, 0, 3, 5, 29,-1.3120572229227527,1.2106751549951427
1503612483724,-0.481,-0.376,+0.426,+0.667,+0.899,-0.094,-0.308,-1.000,-0.938,-4.375,-8, -7, 0, -5, -14, 0, 3, -13,-1.3121445813030224,1.206806281175492
1503612483747,-0.480,-0.376,+0.427,+0.667,+0.938,-0.082,-0.312,-2.750,+3.500,+0.812,28, 4, 2, 1, 1, 1, 18, 6,-1.3101276445107304,1.2086165122638266
1503612483768,-0.479,-0.377,+0.427,+0.668,+0.984,-0.088,-0.301,-5.250,+1.438,+7.000,-21, 8, 1, -2, 2, -2, -2, -12,-1.3098515430920068,1.2104082791181312
1503612483784,-0.479,-0.376,+0.427,+0.669,+0.979,-0.080,-0.315,-4.500,-4.062,+5.875,-20, -7, 2, 2, 5, 0, -4, -42,-1.3084177604943588,1.2089565861253238
1503612483806,-0.478,-0.375,+0.426,+0.670,+0.940,-0.087,-0.304,-5.188,-9.062,+5.375,27, -6, -4, -3, -1, -2, -2, -8,-1.3045846458371273,1.2051611186862459
1503612483828,-0.478,-0.375,+0.425,+0.671,+0.925,-0.092,-0.286,-6.375,-5.938,+6.000,-12, -21, -10, -1, 0, 0, 13, 44,-1.3046390975176507,1.203388048380232
1503612483844,-0.477,-0.375,+0.425,+0.672,+0.950,-0.095,-0.294,-5.688,-1.250,+6.125,-20, -14, -4, -2, -2, -3, -6, 15,-1.302685309526944,1.2034241353801993
1503612483866,-0.476,-0.374,+0.425,+0.673,+0.993,-0.087,-0.307,-5.125,-3.375,+4.938,-4, 1, 1, -1, -2, -3, -5, 8,-1.2990561557520452,1.2017117091872684
1503612483889,-0.476,-0.373,+0.424,+0.674,+0.986,-0.089,-0.316,-3.938,-11.375,+3.375,4, 4, 0, 0, 1, -1, -5, -12,-1.297435847632862,1.1981936677941107
1503612483904,-0.477,-0.372,+0.422,+0.675,+0.933,-0.094,-0.314,-4.312,-15.812,-0.062,-9, 6, 1, -2, -3, 2, 0, -18,-1.297829288490362,1.1928764333899584
1503612483926,-0.478,-0.370,+0.421,+0.676,+0.903,-0.091,-0.321,-4.625,-12.562,-0.750,-3, -7, -1, 0, 1, -3, -6, 24,-1.2967721969049082,1.1879073469625347
1503612483950,-0.477,-0.370,+0.421,+0.677,+0.928,-0.097,-0.331,-4.562,-4.875,+3.500,-9, 1, 4, 3, 0, 1, 0, 2,-1.2948160779929287,1.187945643827995
1503612483964,-0.477,-0.369,+0.421,+0.678,+0.965,-0.096,-0.325,-5.312,-0.938,+5.250,25, -4, -5, -5, -3, -2, 4, 29,-1.2934183252433542,1.1865264216901663
1503612483986,-0.476,-0.369,+0.420,+0.679,+0.987,-0.093,-0.331,-3.688,-4.562,+6.062,1, -3, -1, 0, 0, 4, 2, -24,-1.2912616519314803,1.1844867256890645
1503612484008,-0.476,-0.369,+0.419,+0.680,+0.957,-0.107,-0.333,-2.812,-9.438,+5.625,12, 12, 2, 1, 1, 1, -4, -16,-1.291320981393805,1.1827278853166978
1503612484031,-0.476,-0.368,+0.417,+0.681,+0.924,-0.110,-0.335,-2.250,-9.375,+4.812,-2, 5, 0, 1, -2, -3, 1, -5,-1.2895192921105785,1.1771626872282095
1503612484046,-0.475,-0.368,+0.416,+0.682,+0.906,-0.123,-0.334,-1.938,-3.688,+6.625,4, -6, -4, -6, -3, -1, -5, -40,-1.2873598213490767,1.1751259155107996
1503612484068,-0.474,-0.369,+0.416,+0.683,+0.946,-0.119,-0.331,-3.188,+2.750,+8.500,-8, -1, 1, -1, -4, -6, -8, 90,-1.2870673927608502,1.1768986936112846
1503612484084,-0.473,-0.370,+0.416,+0.683,+0.981,-0.109,-0.323,-2.188,+0.812,+8.438,11, -3, -1, 2, -1, -4, -11, -8,-1.2865151408560411,1.1783523066614625
1503612484106,-0.472,-0.370,+0.415,+0.684,+0.974,-0.103,-0.327,-1.125,-7.312,+6.062,-12, -9, -13, -8, 2, 3, -2, -16,-1.2843605820247774,1.176314978435249
1503612484129,-0.473,-0.370,+0.414,+0.685,+0.934,-0.112,-0.333,+0.625,-9.812,+4.625,3, 8, 4, 0, -1, -3, -9, -13,-1.2866313625763444,1.1748525733224529
1503612484144,-0.473,-0.370,+0.412,+0.686,+0.905,-0.108,-0.346,+0.875,-6.250,+5.688,2, 23, 14, 4, 2, 2, 10, -21,-1.2864807079349183,1.1710409249787919
1503612484166,-0.472,-0.370,+0.411,+0.686,+0.917,-0.110,-0.347,+1.312,-0.688,+7.250,5, -1, 1, 0, 0, 1, 5, 7,-1.2840553346641537,1.1686846348601516
1503612484189,-0.471,-0.371,+0.411,+0.687,+0.937,-0.104,-0.342,+2.500,+2.062,+9.625,-12, -10, -5, 0, -2, -4, -10, -7,-1.283776671359804,1.1704621809099902
1503612484204,-0.471,-0.372,+0.410,+0.687,+0.928,-0.104,-0.346,+2.750,-2.375,+7.562,-10, -4, -3, 1, 1, 0, 0, -18,-1.2852350742035665,1.1701477486024303
1503612484226,-0.471,-0.372,+0.409,+0.687,+0.882,-0.105,-0.336,+3.312,-4.750,+2.688,4, -10, -5, -5, -1, -3, 4, 75,-1.285023731443072,1.168086526629537
1503612484247,-0.472,-0.372,+0.408,+0.687,+0.860,-0.118,-0.333,+3.000,-1.000,-1.312,-8, -12, -9, -2, -2, -1, -2, -17,-1.2870273854042813,1.1663218452896786
1503612484263,-0.472,-0.373,+0.408,+0.686,+0.886,-0.107,-0.355,+2.750,+4.500,-2.375,11, 17, 10, 6, 3, 0, 6, 10,-1.288434335472715,1.167754423520293
1503612484286,-0.473,-0.373,+0.409,+0.686,+0.929,-0.102,-0.323,+1.812,+4.062,-2.188,-7, -6, -3, -4, -3, -2, 0, 1,-1.290857274638972,1.1701055417257136
1503612484308,-0.474,-0.373,+0.409,+0.685,+0.942,-0.102,-0.322,+1.875,-4.000,-5.438,16, 6, 4, 2, 0, 1, -4, -34,-1.2928091401891872,1.1700772474107681
1503612484323,-0.475,-0.372,+0.408,+0.685,+0.920,-0.100,-0.336,+3.000,-9.188,-6.938,-5, 0, 3, -1, -2, -4, 0, -21,-1.2931514225313698,1.1665597894477175
1503612484345,-0.477,-0.371,+0.407,+0.685,+0.908,-0.106,-0.352,+3.688,-5.750,-5.750,6, 1, -3, -1, -1, 0, -6, 15,-1.2957270028818106,1.163342955789321
1503612484368,-0.478,-0.372,+0.407,+0.684,+0.939,-0.116,-0.328,+2.875,-0.562,-3.125,-8, -9, -8, -2, -2, -3, -8, -24,-1.299354007942887,1.165069649055915
1503612484383,-0.478,-0.372,+0.408,+0.683,+0.989,-0.119,-0.318,+1.625,-0.062,-0.688,-6, -10, -6, 0, 0, 5, 17, 75,-1.2992967579916224,1.1667974692063559
1503612484405,-0.478,-0.373,+0.407,+0.683,+1.003,-0.140,-0.320,+1.375,-3.125,+2.438,-1, 1, 1, -1, 2, 2, -4, -13,-1.3007618848639952,1.1665053991018406
1503612484428,-0.477,-0.374,+0.406,+0.683,+0.995,-0.157,-0.320,+2.500,-3.438,+3.625,-4, -1, -3, -2, 0, 2, 2, -3,-1.3000076768794357,1.1659236096396441
1503612484443,-0.477,-0.376,+0.406,+0.683,+0.965,-0.156,-0.345,+6.125,+2.625,+5.312,4, 0, 1, 0, 0, -2, -4, -1,-1.3033590305716927,1.1694604561229587
1503612484465,-0.476,-0.378,+0.405,+0.683,+0.989,-0.147,-0.348,+7.938,+9.500,+10.000,-6, -1, -1, 0, -1, -1, -16, -41,-1.3043061233478423,1.1706705037131662
1503612484492,-0.474,-0.382,+0.406,+0.682,+1.015,-0.136,-0.333,+8.750,+13.312,+14.875,-1, 3, 2, -1, -5, -7, -8, -10,-1.3066114727964324,1.178942302404358
1503612484510,-0.472,-0.385,+0.405,+0.682,+1.016,-0.137,-0.320,+10.625,+11.250,+18.500,2, -3, -1, -6, 0, 1, 2, -27,-1.307129025069205,1.181701526066357
1503612484526,-0.469,-0.389,+0.404,+0.682,+1.009,-0.147,-0.317,+13.562,+8.188,+21.438,3, 22, 6, 1, 1, -1, 2, 28,-1.307232567280999,1.1860141474182115
1503612488553,-0.463,-0.457,+0.509,+0.564,+1.009,-0.019,-0.031,-16.375,-14.812,-3.500,3, 2, 0, 0, 0, 0, 2, -14,-1.4165225939362918,1.5065733163493653
1503612488569,-0.464,-0.453,+0.509,+0.566,+1.004,-0.047,-0.022,-15.250,-17.688,-6.938,1, 2, 0, -3, -1, 0, 4, 6,-1.4109890257253812,1.4992529710463809
1503612488591,-0.465,-0.450,+0.509,+0.568,+1.004,-0.064,-0.044,-13.438,-15.875,-7.312,12, -14, -6, -2, -2, -2, -6, -10,-1.407463260672773,1.4938579510722385
1503612488621,-0.466,-0.447,+0.508,+0.569,+0.997,-0.057,-0.077,-10.062,-15.875,-11.625,-9, -1, -1, 2, 0, 0, -1, 1,-1.4036782241638273,1.4862957795612413
1503612488629,-0.469,-0.444,+0.509,+0.570,+0.963,-0.032,-0.083,-5.750,-10.062,-19.062,3, 2, 2, 1, -1, -3, -2, 3,-1.4043028622792995,1.4831682035713447
1503612488651,-0.471,-0.441,+0.510,+0.568,+0.950,-0.011,-0.064,-2.188,-6.000,-22.000,-3, 5, 1, -2, -2, 0, 4, 5,-1.4024781306574012,1.479734389122043
1503612488672,-0.473,-0.440,+0.512,+0.567,+0.988,+0.006,-0.032,-3.750,+4.438,-17.625,-1, 5, 2, -1, -1, 2, -4, -10,-1.4048081547463709,1.4822367021150435
1503612488690,-0.473,-0.440,+0.514,+0.565,+1.025,+0.021,-0.039,-3.562,+13.500,-9.750,-1, -16, -9, -7, 11, -3, -4, 10,-1.4047863571156052,1.4863408096833324
1503612488711,-0.472,-0.440,+0.516,+0.563,+1.052,+0.033,-0.003,-2.875,+11.062,-5.375,-6, 0, -2, 1, -9, 0, -2, -1,-1.4027137097835733,1.4903900342525105
1503612488732,-0.472,-0.439,+0.517,+0.563,+1.096,+0.018,-0.010,-3.125,-0.188,-2.000,1, 1, -2, 0, -4, -1, -17, 0,-1.40095433966768,1.4907117338091207
1503612488750,-0.473,-0.438,+0.516,+0.564,+1.085,+0.002,-0.034,-2.125,-11.812,+0.688,4, 3, 4, 2, 1, 3, -6, -1,-1.4011157780423156,1.4868906782744549
1503612488771,-0.475,-0.437,+0.513,+0.566,+1.028,-0.011,-0.049,-2.062,-24.062,+0.938,-2, 1, -1, -2, 2, 1, 11, 8,-1.4032130738784296,1.478950698382294
1503612488793,-0.476,-0.434,+0.511,+0.569,+1.007,-0.029,-0.037,-3.812,-28.562,+2.125,-13, -2, 0, 0, -5, -2, -4, 1,-1.3997972358570703,1.469557796257347
1503612488809,-0.477,-0.432,+0.508,+0.572,+0.963,-0.047,-0.060,-6.875,-27.062,+3.812,1, -1, 0, 0, 2, -2, 9, 4,-1.3981528404675854,1.459880988186834
1503612488831,-0.478,-0.430,+0.506,+0.575,+0.956,-0.043,-0.057,-10.750,-23.562,+0.438,3, 0, -4, 1, 2, 5, 24, 7,-1.396682337878463,1.4523896856019431
1503612488853,-0.478,-0.426,+0.505,+0.578,+0.981,-0.020,-0.062,-14.938,-22.625,-2.875,2, 8, 6, 3, 4, -4, -3, 2,-1.3895800461099117,1.4433442454118244
1503612488868,-0.479,-0.423,+0.505,+0.581,+0.989,+0.006,-0.062,-16.750,-21.688,-3.438,-11, -3, -3, -5, -5, -2, -13, -12,-1.386634550620583,1.438423601224204
1503612488892,-0.480,-0.419,+0.505,+0.583,+1.001,+0.020,-0.097,-15.438,-20.875,-6.625,1, 4, -2, -1, -4, 0, -3, -10,-1.3817260227972286,1.431622998334386
1503612488913,-0.482,-0.415,+0.504,+0.585,+1.000,+0.023,-0.117,-12.312,-21.938,-10.312,-2, -4, 1, 3, 2, -1, 6, 4,-1.3788395414941175,1.4228383189310774
1503612488928,-0.484,-0.411,+0.504,+0.586,+0.978,+0.031,-0.129,-9.250,-17.562,-10.438,-10, 0, 3, -2, -4, 1, 3, 12,-1.3760091024688732,1.4161281884770638
1503612488951,-0.485,-0.409,+0.504,+0.586,+0.949,+0.045,-0.128,-5.062,-9.312,-12.250,1, -6, -6, -4, -1, -4, -9, -7,-1.374528952926242,1.4127147148536836
1503612488973,-0.487,-0.408,+0.505,+0.584,+0.933,+0.076,-0.153,+0.000,+6.188,-9.125,7, 3, 1, 1, -2, -2, 1, 3,-1.3767802472692117,1.413064771464009
1503612488989,-0.486,-0.408,+0.507,+0.583,+0.950,+0.079,-0.123,-1.562,+15.062,-4.000,4, 1, -2, -2, 0, 1, 2, -3,-1.3747718708572214,1.4171439973383453
1503612489011,-0.485,-0.409,+0.509,+0.581,+1.031,+0.054,-0.074,-2.875,+17.000,-2.188,3, 1, 2, -1, -5, -1, -8, -3,-1.3743806184288432,1.422848890453119
1503612489033,-0.485,-0.410,+0.510,+0.580,+1.111,+0.039,-0.106,+1.375,+6.312,+3.688,-4, 0, 0, -2, 1, -3, 0, -5,-1.3761570941383825,1.4266499232037526
1503612489050,-0.486,-0.410,+0.508,+0.582,+1.088,+0.006,-0.132,+2.438,-15.000,+3.625,4, -5, 0, 3, -1, 2, 20, 6,-1.3783439648870683,1.422699673134264
1503612489071,-0.487,-0.408,+0.505,+0.584,+0.991,-0.019,-0.077,-2.375,-23.562,+1.000,-8, -1, -1, -3, 3, -1, -6, 0,-1.3767802472692117,1.413064771464009
1503612489094,-0.488,-0.407,+0.504,+0.586,+0.944,-0.020,-0.062,-3.375,-18.812,+0.438,-2, 1, 0, 1, -2, -3, -3, -4,-1.3773436282220157,1.4095732622849364
1503612489109,-0.488,-0.406,+0.503,+0.587,+0.983,-0.028,-0.087,-5.125,-12.188,+0.562,-6, -8, -6, -2, -4, -2, -8, -8,-1.375586311557826,1.405798512701885
1503612489131,-0.488,-0.404,+0.502,+0.589,+1.041,+0.009,-0.122,-8.062,-10.188,-0.188,-6, 1, 1, 1, 2, -1, -6, -1,-1.3722399103146472,1.400436897530348
1503612489153,-0.489,-0.402,+0.501,+0.590,+1.017,+0.030,-0.137,-9.562,-16.250,-2.750,0, -3, -3, -2, 4, 2, 3, 4,-1.3708651041231688,1.3950566862828369
1503612489177,-0.489,-0.399,+0.501,+0.592,+0.971,+0.018,-0.121,-9.688,-17.000,-3.312,22, 9, 4, 0, 0, -4, -7, 2,-1.3659446926591887,1.3901604823859828
1503612489191,-0.490,-0.397,+0.500,+0.593,+0.953,+0.030,-0.124,-8.000,-12.875,-3.938,-26, -3, -4, -2, -4, -2, 0, -34,-1.3646144332508623,1.384813237913225
1503612489213,-0.491,-0.395,+0.500,+0.594,+0.990,+0.048,-0.138,-7.500,-9.938,-3.125,-8, 0, 3, 0, 1, -1, -4, -1,-1.363468046333501,1.3816675382506503
1503612489228,-0.491,-0.393,+0.500,+0.595,+1.012,+0.070,-0.144,-7.000,-10.312,-2.875,-1, -5, -2, -3, -3, 1, -7, 2,-1.3601719331053732,1.3783884290205783
1503612489254,-0.492,-0.391,+0.499,+0.596,+1.001,+0.065,-0.142,-5.625,-16.000,-2.438,10, 2, 1, 4, 4, 0, 1, 4,-1.35889943543735,1.373081175028459
1503612489273,-0.493,-0.390,+0.498,+0.598,+0.985,+0.040,-0.170,-3.125,-14.938,+2.688,-2, -3, -3, 3, -6, -2, 4, 7,-1.3595896020474796,1.3697125409521242
1503612489289,-0.493,-0.389,+0.496,+0.599,+0.973,+0.025,-0.185,-2.875,-9.875,+4.500,7, 0, -2, -6, -2, 0, -2, -14,-1.3577362447891574,1.3638080703524722
