Timestamp,Orientation X,Orientation Y,Orientation Z,Orientation W,Accelerometer X,Accelerometer Y,Accelerometer Z,Gyroscope X,Gyroscope Y,Gyroscope Z,EMG1,EMG2,EMG3,EMG4,EMG5,EMG6,EMG7,EMG8,Roll,Yaw
1503699300922,+0.283,+0.214,-0.449,-0.820,+0.901,-0.083,-0.474,-1.500,-13.188,+3.250,-4, -4, -3, -1, -1, 0, 2, 5,-0.7200328477683988,1.0383762588561904
1503699300937,+0.283,+0.213,-0.447,-0.821,+0.854,-0.082,-0.476,-2.250,-13.125,+1.438,2, 2, 0, 0, 0, -2, 3, 9,-0.7185724944479075,1.0330271273381508
1503699300960,+0.283,+0.212,-0.446,-0.822,+0.847,-0.082,-0.442,-2.875,-8.938,+2.062,5, 3, -1, 0, 1, 1, 1, 1,-0.7174415269803253,1.0300749095675448
1503699300982,+0.282,+0.212,-0.447,-0.822,+0.857,-0.093,-0.428,-4.125,+2.875,+6.000,-9, -13, -6, -2, -3, -3, -4, -12,-0.7157715421570265,1.0322442659791662
1503699300998,+0.279,+0.214,-0.449,-0.821,+0.872,-0.111,-0.432,-5.562,+17.938,+11.125,8, 10, -2, -2, -2, -1, -3, -4,-0.7125161982505204,1.037960789188881
1503699301020,+0.276,+0.215,-0.453,-0.820,+0.922,-0.122,-0.442,-7.125,+25.062,+13.750,-1, 4, -5, -2, 0, 2, 3, 8,-0.7087159028162802,1.047470045248947
1503699301042,+0.273,+0.217,-0.456,-0.819,+0.972,-0.155,-0.452,-6.688,+22.875,+9.500,14, -2, 1, 2, 0, 0, 1, 7,-0.7058952031632251,1.055640128601994
1503699301058,+0.272,+0.218,-0.457,-0.818,+0.935,-0.188,-0.461,-2.625,+6.375,+2.000,-6, 0, -6, -2, -1, 0, -3, -8,-0.7051131085627907,1.0584141012676826
1503699301080,+0.273,+0.219,-0.456,-0.819,+0.863,-0.197,-0.478,+3.375,-3.438,-6.625,-8, -4, 7, 2, 2, 0, 2, 10,-0.7084292514838523,1.0577070046319297
1503699301102,+0.275,+0.220,-0.455,-0.818,+0.812,-0.205,-0.463,+8.250,+0.000,-10.562,-13, -8, -4, -4, -3, -3, -1, -2,-0.7128819138401282,1.056325594552231
1503699301120,+0.276,+0.222,-0.455,-0.817,+0.851,-0.211,-0.424,+7.375,+6.688,-10.312,-7, -2, 4, 5, 1, -1, -3, -18,-0.7169814014116515,1.0581883676742503
1503699301140,+0.277,+0.223,-0.456,-0.816,+0.895,-0.178,-0.419,+4.188,+7.938,-9.312,7, 3, 3, 2, 1, -2, 0, 3,-0.7201487236128673,1.0614150060373067
1503699301162,+0.278,+0.223,-0.457,-0.815,+0.914,-0.121,-0.405,+2.688,+0.500,-6.938,2, 4, 2, 2, 3, 1, 0, 5,-0.7220361511910235,1.0635897544565782
1503699301178,+0.279,+0.223,-0.456,-0.815,+0.909,-0.109,-0.402,+1.500,-11.000,-5.375,-6, 1, 1, -2, -2, 0, 0, 2,-0.7236708168536627,1.061405193413426
1503699301200,+0.280,+0.222,-0.454,-0.816,+0.910,-0.079,-0.413,-1.812,-15.250,-0.188,-1, -5, -4, -3, -1, 2, -1, -1,-0.7241166935360892,1.056216454676484
1503699301222,+0.281,+0.220,-0.452,-0.818,+0.889,-0.055,-0.409,-3.375,-22.625,+3.000,1, 0, -3, -5, -5, -3, -3, -2,-0.7237315928821149,1.0504412584941107
1503699301238,+0.281,+0.218,-0.449,-0.820,+0.867,-0.050,-0.431,-6.000,-25.062,+1.938,-6, -8, -3, -2, -2, -1, -1, -2,-0.7210642897318019,1.0420801422432135
1503699301260,+0.281,+0.216,-0.447,-0.821,+0.851,-0.048,-0.427,-9.875,-17.312,+2.688,-8, -5, -1, 0, 1, 2, -2, 1,-0.7183273354680485,1.0356799482268941
1503699301282,+0.280,+0.214,-0.447,-0.822,+0.850,-0.039,-0.454,-10.875,-7.500,+6.438,17, 4, 0, 0, 0, -3, -8, -6,-0.7142748428770821,1.0338551423327196
1503699301298,+0.279,+0.213,-0.447,-0.823,+0.874,-0.058,-0.491,-6.438,+1.500,+5.562,-5, -4, 2, 3, 2, 0, 4, 4,-0.7114728807460408,1.0330703683862381
1503699301321,+0.279,+0.213,-0.447,-0.823,+0.933,-0.100,-0.476,-4.062,-2.188,+2.812,2, 1, -2, -2, 0, -1, 0, 6,-0.7114728807460408,1.0330703683862381
1503699301342,+0.278,+0.213,-0.446,-0.823,+0.954,-0.145,-0.442,-3.312,-7.750,+1.062,-7, -2, -1, -2, 0, -2, 0, -5,-0.7091633363847946,1.030459972835754
1503699301359,+0.278,+0.213,-0.446,-0.823,+0.931,-0.158,-0.432,-2.500,-3.375,-0.438,6, -1, -1, 1, 1, 0, 0, 1,-0.7091633363847946,1.030459972835754
1503699301380,+0.278,+0.214,-0.447,-0.823,+0.911,-0.140,-0.449,+1.625,+0.625,-1.312,-4, 38, 26, 7, 2, 4, 5, 11,-0.7107295798868505,1.033874682985185
1503699301402,+0.279,+0.215,-0.447,-0.822,+0.932,-0.154,-0.469,+5.375,+3.625,-2.875,3, -11, -13, -5, -5, -3, -3, -16,-0.7135337454117725,1.0346634611879875
1503699301418,+0.279,+0.217,-0.447,-0.822,+0.921,-0.151,-0.478,+6.000,+1.312,-2.062,-14, -3, -5, -3, -3, -3, -1, 3,-0.7160307208893975,1.0367305824902895
1503699301440,+0.280,+0.218,-0.447,-0.821,+0.901,-0.136,-0.461,+5.375,+0.750,+0.688,-22, -11, -8, -5, -1, -1, 0, -10,-0.7188443829641988,1.037535098479521
1503699301463,+0.280,+0.219,-0.447,-0.821,+0.882,-0.114,-0.452,+3.938,+3.562,+2.125,9, 0, -3, 0, -1, -1, 0, -1,-0.720100174160649,1.038578559303882
1503699301478,+0.279,+0.221,-0.448,-0.820,+0.891,-0.110,-0.442,+2.750,+10.375,+3.938,-2, -26, -13, -2, -2, -1, -3, -6,-0.7205489710134633,1.042384701052556
1503699301500,+0.278,+0.222,-0.450,-0.819,+0.913,-0.114,-0.450,+4.375,+14.312,+6.000,3, -6, -3, -3, -3, 0, -1, 6,-0.7200859334981408,1.0475430882368235
1503699301522,+0.277,+0.224,-0.452,-0.818,+0.948,-0.120,-0.448,+4.750,+13.438,+5.250,7, 3, 1, -1, 1, -1, -1, 2,-0.7209148144224599,1.0537717865241305
1503699301538,+0.277,+0.226,-0.453,-0.817,+0.936,-0.109,-0.429,+6.375,+10.875,+2.250,5, 4, 3, 1, 1, -1, -3, -1,-0.7234016451218908,1.057846026597117
1503699301560,+0.277,+0.228,-0.454,-0.816,+0.901,-0.120,-0.424,+7.062,+4.750,+1.562,1, 2, 0, 0, -1, -2, -1, 1,-0.7259063006937656,1.061937288392615
1503699301582,+0.277,+0.230,-0.456,-0.814,+0.881,-0.124,-0.415,+9.625,+17.375,+0.812,-1, -4, 1, 0, 1, 0, 3, 0,-0.7283581441672279,1.0680020182814345
1503699301599,+0.278,+0.233,-0.459,-0.811,+0.878,-0.104,-0.444,+13.000,+26.250,-4.750,-5, -6, -3, -3, -3, -1, -1, -4,-0.7340444457589245,1.0773696640835508
1503699301624,+0.279,+0.235,-0.461,-0.809,+0.904,-0.107,-0.460,+14.188,+24.438,-4.938,-1, 3, 2, -2, -1, 1, 2, 4,-0.738515369926332,1.0837198298471253
1503699301642,+0.281,+0.238,-0.463,-0.806,+0.945,-0.112,-0.448,+17.312,+17.625,-1.375,-3, 2, -1, -1, 0, -2, -2, -2,-0.7458865905390656,1.0909946671768764
1503699301659,+0.281,+0.242,-0.463,-0.805,+0.931,-0.128,-0.431,+19.250,+11.562,+2.562,-1, 2, -2, -3, -1, -2, -2, 0,-0.7508420643242087,1.095045575930268
1503699301680,+0.282,+0.246,-0.463,-0.803,+0.917,-0.142,-0.430,+20.188,+9.938,+6.062,2, -1, -2, 0, -1, 0, -2, -3,-0.7573947931709258,1.0989597216907006
1503699301702,+0.282,+0.250,-0.463,-0.802,+0.900,-0.138,-0.445,+21.750,+13.938,+8.438,0, -7, -2, 0, -1, 0, 1, 1,-0.7624528704335521,1.1031407268449291
1503699301718,+0.282,+0.255,-0.464,-0.800,+0.901,-0.143,-0.436,+23.312,+18.688,+12.312,-2, -3, -2, -2, -2, 0, -1, -7,-0.768911984680871,1.1105414196631427
1503699301740,+0.281,+0.261,-0.465,-0.798,+0.908,-0.149,-0.408,+25.562,+25.062,+15.000,-14, -2, 1, 0, -1, -1, 1, 5,-0.7749264200758709,1.1190117056094955
1503699301763,+0.279,+0.268,-0.467,-0.795,+0.912,-0.168,-0.404,+28.000,+32.750,+16.750,1, 1, -2, 0, -4, 1, 6, -1,-0.7805595099868088,1.1306101308732048
1503699301778,+0.278,+0.274,-0.470,-0.792,+0.945,-0.187,-0.414,+29.750,+35.375,+15.500,5, 7, -1, -4, -5, -2, -3, 6,-0.7872873479956807,1.1437985785448779
1503699301800,+0.277,+0.282,-0.472,-0.788,+0.955,-0.166,-0.377,+31.562,+33.688,+17.688,-3, 1, 3, 1, 1, 0, -1, -1,-0.7963784493534136,1.156903937817189
1503699301826,+0.276,+0.289,-0.473,-0.785,+0.965,-0.193,-0.350,+36.188,+27.125,+19.562,-2, -4, -3, 0, -2, -1, -1, 1,-0.8042149602129214,1.1669637699890412
1503699301844,+0.276,+0.297,-0.473,-0.782,+0.938,-0.200,-0.345,+39.250,+22.938,+16.625,-6, -1, 2, -2, 0, -1, -1, -4,-0.8153027628085954,1.1764053575781463
1503699301861,+0.276,+0.305,-0.473,-0.779,+0.895,-0.206,-0.337,+42.438,+22.875,+16.188,-15, -7, -6, 0, 1, -1, -3, -2,-0.8266315828886273,1.1861313670774827
1503699301882,+0.277,+0.313,-0.473,-0.776,+0.892,-0.212,-0.312,+44.875,+21.312,+15.500,7, 2, 2, -2, -1, -1, -1, -2,-0.8401144301033122,1.1963797314063451
1503699301903,+0.277,+0.322,-0.473,-0.772,+0.913,-0.244,-0.314,+46.688,+27.500,+17.938,7, 3, 1, 0, 0, -2, -2, -2,-0.853196218144998,1.2077762562659704
1503699301921,+0.277,+0.331,-0.474,-0.768,+0.916,-0.253,-0.314,+47.000,+30.625,+17.625,2, 7, 5, 2, -1, 1, -1, 6,-0.8670495708067553,1.2219342373140691
1503699301943,+0.277,+0.340,-0.474,-0.763,+0.912,-0.245,-0.295,+47.500,+29.812,+17.875,2, 0, 0, -2, -2, 1, -2, 2,-0.8804383978436917,1.2337711378832785
1503699306083,+0.407,+0.382,-0.467,-0.686,+0.942,-0.156,-0.235,+0.625,+10.188,-0.812,-10, -1, 5, -1, 1, 13, 2, 0,-1.1801797206831688,1.2924308860951772
1503699306104,+0.407,+0.383,-0.468,-0.684,+0.972,-0.136,-0.237,+3.250,+13.688,-6.438,-4, -4, 4, 3, 4, 5, 12, 28,-1.1816375887534338,1.2958231148561996
1503699306121,+0.408,+0.384,-0.469,-0.683,+0.945,-0.150,-0.256,+5.938,+10.688,-9.625,-2, -1, -3, -2, -2, 1, 5, 40,-1.1854587069821334,1.2996874030776857
1503699306143,+0.408,+0.385,-0.470,-0.681,+0.959,-0.187,-0.239,+5.438,+10.250,-5.125,13, 11, 5, 2, 3, -5, -13, -13,-1.1869277467647175,1.3030951381715141
1503699306164,+0.409,+0.386,-0.468,-0.681,+0.944,-0.180,-0.249,+10.562,-4.438,+2.312,-12, -11, -5, -4, -2, -1, -4, -14,-1.1901919521001192,1.3006364111405928
1503699306181,+0.410,+0.388,-0.465,-0.682,+0.921,-0.179,-0.209,+11.312,-13.125,+5.062,8, 3, 3, -1, -2, -8, -8, -15,-1.1952844404545102,1.2979975495440286
1503699306202,+0.410,+0.388,-0.466,-0.681,+0.991,-0.153,-0.158,+0.188,+3.750,-1.875,3, 3, -1, -1, -4, 9, 2, 8,-1.1952681232363616,1.2999285050070535
1503699306224,+0.408,+0.388,-0.467,-0.681,+1.025,-0.086,-0.128,-10.688,+1.812,+8.938,25, 11, 4, 1, -5, -14, -4, -2,-1.1914653569641493,1.3016964446003427
1503699306240,+0.406,+0.387,-0.469,-0.682,+1.062,-0.047,-0.149,-11.938,-0.125,+11.562,3, 2, -4, -3, -6, -2, -3, -4,-1.1864649969247005,1.3041841947162907
1503699306263,+0.405,+0.387,-0.468,-0.683,+1.032,-0.065,-0.171,-7.062,-6.875,+15.562,-27, -17, -7, -5, 1, 1, 10, 2,-1.1844397315578505,1.3020344272042044
1503699306284,+0.404,+0.388,-0.466,-0.685,+0.987,-0.122,-0.183,-1.250,-12.562,+20.250,-7, 0, -2, -3, 0, 6, 5, -14,-1.1842363889672702,1.2996771900023667
1503699306306,+0.402,+0.388,-0.462,-0.688,+0.973,-0.156,-0.204,-1.062,-20.312,+24.375,13, 5, -2, -1, 4, 3, -8, -3,-1.179895817935096,1.291265075433347
1503699306322,+0.400,+0.389,-0.458,-0.692,+0.933,-0.207,-0.235,-3.188,-18.438,+25.562,-12, -7, -4, -3, -1, -2, 5, -2,-1.1776703783774922,1.2848737852081364
1503699306344,+0.398,+0.389,-0.455,-0.695,+0.903,-0.201,-0.250,-8.125,-18.875,+21.000,-8, -10, -2, -1, 1, 0, -8, -18,-1.17361649046829,1.2786776601505476
1503699306366,+0.396,+0.388,-0.452,-0.699,+0.919,-0.197,-0.269,-10.250,-15.688,+16.812,8, 5, 1, 1, 2, -1, -2, -11,-1.1680577865581867,1.271012198837807
1503699306382,+0.395,+0.387,-0.450,-0.701,+0.920,-0.216,-0.276,-9.875,-13.000,+8.875,4, 0, -3, -1, -2, -5, 0, -5,-1.1642181482613068,1.2652241690158765
1503699306404,+0.395,+0.385,-0.449,-0.703,+0.925,-0.202,-0.281,-10.375,-6.375,+2.000,-7, -6, 0, 0, 4, 1, -5, 6,-1.1609327817367896,1.2601182337338461
1503699306427,+0.394,+0.384,-0.450,-0.703,+0.949,-0.189,-0.258,-10.938,-1.125,-0.875,25, 2, 0, 0, 1, 0, 7, 51,-1.1574003029550313,1.2603229523960193
1503699306442,+0.394,+0.383,-0.451,-0.704,+0.962,-0.170,-0.245,-11.062,+0.812,-0.625,-20, -8, -4, -3, -3, -3, -5, -10,-1.15623912294808,1.2610544959499663
1503699306464,+0.393,+0.381,-0.452,-0.704,+0.970,-0.159,-0.240,-8.750,-1.750,-0.562,1, 2, 3, 2, 3, 1, -3, -26,-1.1509249939237534,1.2595551908012705
1503699306486,+0.393,+0.381,-0.452,-0.705,+0.981,-0.164,-0.229,-7.188,-3.938,+1.812,-12, 3, 1, 0, -1, 0, 1, -4,-1.1512506502099433,1.2598365401055356
1503699306502,+0.393,+0.380,-0.451,-0.706,+0.973,-0.173,-0.241,-6.750,-9.438,+3.750,-5, -1, -1, -1, 0, -1, 3, 8,-1.1494740410452893,1.2562134102213243
1503699306524,+0.392,+0.379,-0.450,-0.707,+0.964,-0.173,-0.250,-6.750,-10.875,+5.062,3, 7, 2, 0, -1, -4, -7, -2,-1.1456549959299132,1.2523539694630994
1503699306546,+0.392,+0.378,-0.449,-0.709,+0.942,-0.170,-0.270,-6.875,-10.875,+6.188,14, -2, -9, -5, -5, -6, -11, -8,-1.1442156239080137,1.2490277667316159
1503699306562,+0.392,+0.376,-0.448,-0.710,+0.930,-0.186,-0.273,-6.438,-10.875,+3.938,7, 1, 1, 2, -1, -6, 1, 13,-1.1406801906712225,1.2437136425030504
1503699306584,+0.392,+0.375,-0.446,-0.712,+0.924,-0.195,-0.270,-8.875,-11.125,+2.688,-10, -3, 1, -1, -2, -3, -4, 1,-1.1389400749429357,1.2382200981560072
1503699306606,+0.391,+0.373,-0.445,-0.714,+0.922,-0.178,-0.297,-11.375,-11.250,+3.875,4, 8, -1, -3, -3, 1, 2, -7,-1.133709698764887,1.2329776636027867
1503699306625,+0.390,+0.372,-0.445,-0.715,+0.916,-0.185,-0.291,-12.250,-7.438,+4.938,1, -8, 0, 1, 1, 2, 3, 0,-1.1302331098938005,1.23133243308519
1503699306645,+0.389,+0.370,-0.445,-0.717,+0.956,-0.192,-0.276,-12.438,-4.062,+4.188,5, 1, -1, -2, -1, 0, 6, 2,-1.1253511925591777,1.2283095200537824
1503699306667,+0.388,+0.369,-0.445,-0.718,+0.963,-0.196,-0.266,-11.875,-4.500,+1.438,-2, 3, 4, 3, 1, 2, 0, 7,-1.1218891170457173,1.2266794050769703
1503699306683,+0.388,+0.367,-0.445,-0.718,+0.953,-0.184,-0.266,-9.875,-7.375,-2.562,-4, 1, 4, 0, -1, -2, -2, -7,-1.1184038350356602,1.223325819337877
1503699306705,+0.389,+0.366,-0.445,-0.719,+0.941,-0.173,-0.288,-5.875,-8.625,-6.312,-2, -2, -4, -2, -2, 0, -5, -9,-1.1190725601893452,1.2222175876477754
1503699306727,+0.391,+0.364,-0.444,-0.719,+0.925,-0.178,-0.288,-2.750,-10.000,-10.438,5, 4, -2, -2, -1, 0, -4, -1,-1.1194186596652926,1.2171964360975307
1503699306743,+0.393,+0.362,-0.444,-0.719,+0.920,-0.176,-0.277,-5.562,-14.375,-14.000,4, 5, 3, 4, 1, -3, -8, -13,-1.1201177834793408,1.2143895396395457
1503699306772,+0.395,+0.358,-0.443,-0.720,+0.925,-0.156,-0.322,-9.688,-16.062,-12.688,14, 5, 0, -1, -1, 0, 1, 2,-1.1174696531088377,1.2064229685527417
1503699306786,+0.397,+0.356,-0.443,-0.721,+0.939,-0.143,-0.305,-10.438,-13.000,-9.188,-6, -4, 1, -4, -1, 0, 2, 0,-1.1185976826618373,1.2039832396484864
1503699306803,+0.397,+0.353,-0.443,-0.722,+0.955,-0.138,-0.314,-11.688,-10.688,-4.625,-7, 4, 2, 2, -1, 0, 0, 5,-1.113897071604847,1.1994176122832463
1503699306825,+0.397,+0.351,-0.443,-0.723,+0.963,-0.118,-0.319,-9.562,-7.500,+0.375,9, 4, 3, 3, 3, 0, 0, -1,-1.110901514334328,1.196502829641416
1503699306846,+0.397,+0.350,-0.442,-0.724,+0.965,-0.120,-0.312,-5.688,-6.375,+4.562,-3, -5, -2, -1, -1, -2, -2, -4,-1.1092734316861095,1.193011203319565
1503699306863,+0.396,+0.350,-0.441,-0.725,+0.946,-0.145,-0.302,-4.875,-7.625,+8.500,1, 2, 3, 1, 1, -1, -8, -8,-1.1072230211546403,1.1908750501345275
1503699306884,+0.395,+0.349,-0.440,-0.727,+0.909,-0.151,-0.323,-5.500,-9.000,+10.062,5, 2, -3, -2, -4, -5, 1, 4,-1.1038659086261449,1.1874587459741883
1503699306907,+0.394,+0.349,-0.438,-0.729,+0.914,-0.159,-0.333,-7.375,-9.875,+11.062,12, 5, 0, 0, 2, -4, -3, 4,-1.1018565964030833,1.1834550133034893
1503699306923,+0.393,+0.348,-0.437,-0.731,+0.938,-0.154,-0.332,-7.438,-11.812,+12.562,-7, -5, -5, -3, -1, 1, -2, -6,-1.0985056203722545,1.1800479547706182
1503699306944,+0.391,+0.347,-0.435,-0.733,+0.927,-0.147,-0.354,-6.000,-11.500,+14.688,7, -1, 8, 2, 1, 0, 3, 3,-1.092744274330346,1.1741738622658318
1503699306967,+0.390,+0.347,-0.433,-0.735,+0.904,-0.158,-0.373,-3.125,-7.438,+15.812,-9, -9, -10, -8, -4, 0, -3, -11,-1.090732218564916,1.1701805169344797
1503699306983,+0.388,+0.348,-0.432,-0.736,+0.893,-0.165,-0.366,-2.312,+1.188,+16.188,-8, -6, -2, 0, -1, 1, 3, 1,-1.0882446291040018,1.1693797728605126
1503699307006,+0.385,+0.350,-0.432,-0.737,+0.916,-0.174,-0.369,-1.500,+8.125,+18.875,-13, -7, -4, -2, -1, -1, -8, -4,-1.0856766256263364,1.172118798840413
1503699313170,+0.366,+0.394,-0.487,-0.688,+0.944,-0.191,-0.175,+14.375,+33.750,+9.688,-2, -2, -3, 0, -1, -1, -2, -9,-1.1272429004174378,1.3499555979058764
1503699313192,+0.365,+0.398,-0.489,-0.685,+1.010,-0.176,-0.153,+14.812,+28.875,+4.250,-6, -6, 0, -1, 3, 11, 0, -7,-1.132565389362936,1.360564214444138
1503699313208,+0.365,+0.401,-0.491,-0.682,+1.009,-0.176,-0.157,+18.750,+22.125,+0.312,7, 10, 5, -2, -2, -2, -4, 5,-1.1379994460196183,1.3696619448802507
1503699313230,+0.366,+0.404,-0.491,-0.679,+0.987,-0.187,-0.164,+19.688,+15.250,-1.812,-4, -2, 0, 0, 1, 0, -3, -20,-1.144722309463464,1.3744951050448686
1503699313252,+0.368,+0.407,-0.491,-0.677,+0.930,-0.182,-0.156,+22.188,+11.312,-2.500,2, -2, -3, -2, -3, -5, 2, 10,-1.1537193222899071,1.3797232986380985
1503699313271,+0.369,+0.410,-0.491,-0.674,+0.953,-0.175,-0.146,+22.688,+12.062,-4.562,-5, -4, -4, -1, -3, -2, -2, 0,-1.160519730801165,1.384643173294371
1503699313290,+0.371,+0.413,-0.492,-0.671,+0.966,-0.182,-0.133,+21.875,+10.875,-5.250,6, 2, 4, 2, 2, 1, 0, 2,-1.1696156943344718,1.3919758515661302
1503699313313,+0.373,+0.416,-0.492,-0.668,+1.006,-0.215,-0.125,+21.062,+10.875,-5.750,-21, -10, -5, 0, -3, 2, 3, -23,-1.1784170648978454,1.3971279427022025
1503699313330,+0.375,+0.418,-0.492,-0.665,+0.995,-0.202,-0.103,+19.375,+8.875,-10.000,-6, -8, -1, 1, 0, 1, -3, 11,-1.1853010651794254,1.4005110797529876
1503699313353,+0.377,+0.420,-0.493,-0.662,+0.975,-0.186,-0.090,+19.125,+7.875,-6.938,-7, -2, 1, 0, 0, -2, -1, 6,-1.192524545254439,1.4061160668009847
1503699313381,+0.379,+0.422,-0.493,-0.660,+0.995,-0.158,-0.083,+17.812,+4.750,-7.250,5, -4, -6, -4, -3, -6, -1, 0,-1.1997314779399424,1.4096987510912484
1503699313389,+0.381,+0.424,-0.493,-0.657,+1.009,-0.188,-0.069,+17.875,+3.062,-6.875,-1, 7, 3, 1, -1, 2, 1, 1,-1.2066787785286652,1.4131378641529986
1503699313434,+0.383,+0.425,-0.492,-0.656,+1.038,-0.202,-0.049,+12.188,-5.500,-5.875,2, -2, 1, 2, 2, -3, -2, 1,-1.2119199634279532,1.4128908584614235
1503699313444,+0.384,+0.425,-0.492,-0.655,+0.999,-0.162,-0.060,+5.438,-4.688,-6.062,6, 1, 0, -2, 2, -1, 0, 2,-1.2135749146136372,1.4128694259179497
1503699313460,+0.385,+0.426,-0.492,-0.655,+0.987,-0.179,-0.052,+1.000,-0.875,-3.938,-4, -5, 2, 0, -2, -3, -2, -4,-1.2174735979204272,1.4148355220796331
1503699313472,+0.385,+0.425,-0.493,-0.654,+0.997,-0.171,-0.048,-6.188,-3.062,-4.000,5, -5, -9, -5, -5, 0, -4, -5,-1.2155330411005383,1.4150341694299506
1503699313494,+0.385,+0.423,-0.494,-0.655,+1.036,-0.172,-0.039,-9.938,-8.375,-1.750,5, 0, -3, -2, -2, -4, -2, -2,-1.212178473997278,1.4137310362932662
1503699313515,+0.385,+0.421,-0.493,-0.657,+1.040,-0.173,-0.073,-12.938,-15.938,-0.438,4, 1, -2, 1, 0, 2, -1, 2,-1.208513443289805,1.4082267373136972
1503699313530,+0.385,+0.418,-0.492,-0.660,+0.995,-0.160,-0.104,-15.375,-22.000,+1.250,-5, -4, -1, 0, -2, -1, 2, 5,-1.203202358182276,1.4011026386490182
1503699313552,+0.385,+0.415,-0.490,-0.663,+0.978,-0.165,-0.110,-17.625,-24.812,+1.812,19, 14, 10, 3, 2, 1, -2, -1,-1.1976273303772822,1.39182633691383
1503699313567,+0.385,+0.411,-0.489,-0.666,+0.982,-0.156,-0.123,-23.062,-26.375,-1.750,-7, -5, -5, -4, -1, -1, 0, -2,-1.1904814560702084,1.3830038845118477
1503699313590,+0.385,+0.406,-0.488,-0.670,+0.989,-0.155,-0.135,-23.750,-24.625,+1.062,-11, 2, 4, 4, 0, -1, 1, -2,-1.1817985470507497,1.3726726609850435
1503699313612,+0.385,+0.402,-0.487,-0.673,+0.976,-0.151,-0.172,-25.000,-21.062,+0.312,-14, -8, -7, -3, -5, -5, 2, 2,-1.1748105566171834,1.3640074162881184
1503699313628,+0.384,+0.399,-0.485,-0.677,+0.960,-0.153,-0.198,-21.688,-18.938,+5.562,17, 9, 4, 4, 3, 1, 5, -2,-1.1677817973146716,1.354977854708988
1503699313650,+0.383,+0.396,-0.485,-0.679,+0.942,-0.146,-0.190,-18.000,-11.750,+2.000,2, -2, -2, -1, -1, 1, -1, -7,-1.160813361198262,1.3500007615181966
1503699313673,+0.382,+0.394,-0.484,-0.682,+0.959,-0.168,-0.187,-15.688,-12.062,+5.000,0, -3, -2, -3, -3, 1, 1, -1,-1.1557266258413497,1.344785407698379
1503699313687,+0.381,+0.392,-0.484,-0.684,+0.954,-0.161,-0.180,-16.188,-7.625,+4.812,2, 0, 1, -1, 0, 1, 0, -3,-1.1506684190462124,1.3415943998350117
1503699313711,+0.380,+0.390,-0.484,-0.685,+0.956,-0.168,-0.186,-15.188,-4.375,+4.500,7, 4, -2, -3, -2, 1, 0, 8,-1.1453103166979492,1.3381972095605867
1503699313732,+0.378,+0.389,-0.484,-0.687,+1.002,-0.170,-0.187,-13.750,-4.312,+4.062,-18, -4, -1, -1, -2, -6, -1, -7,-1.140150594410053,1.3365708419540114
1503699313748,+0.377,+0.388,-0.484,-0.688,+0.992,-0.159,-0.191,-11.812,-5.250,+6.000,-5, -1, 0, 0, 0, -1, 2, 7,-1.1366537156806988,1.334904779792901
1503699313770,+0.377,+0.386,-0.483,-0.690,+0.971,-0.159,-0.197,-9.438,-9.500,+3.375,9, 8, 5, 3, 0, -1, 4, 4,-1.1332931335095888,1.3297194916369868
1503699313792,+0.377,+0.384,-0.482,-0.692,+0.951,-0.167,-0.195,-10.062,-13.562,+1.875,12, 3, 1, -2, -2, 1, 2, 1,-1.1299522163875957,1.3245547971587863
1503699313809,+0.377,+0.383,-0.481,-0.693,+0.931,-0.171,-0.201,-10.875,-10.438,+2.062,-2, 5, 5, 1, -2, 0, 0, 2,-1.1281228226229696,1.320861106464015
1503699313830,+0.376,+0.381,-0.481,-0.695,+0.926,-0.156,-0.206,-12.438,-4.750,+0.938,15, 3, -1, -1, 1, -1, -1, 10,-1.1231591396972112,1.317772823304527
1503699313852,+0.375,+0.379,-0.482,-0.695,+0.955,-0.152,-0.207,-13.188,+0.750,+0.000,-1, 2, 2, -1, -1, -1, -2, 0,-1.1178845572834601,1.316457520401325
1503699313867,+0.374,+0.378,-0.482,-0.696,+0.984,-0.151,-0.187,-11.500,-1.750,-1.250,-1, -6, -5, -1, -2, -5, -1, 1,-1.1144246817167995,1.3148327932898942
1503699313890,+0.375,+0.376,-0.482,-0.697,+1.004,-0.158,-0.205,-8.062,-7.625,-1.312,0, -4, -4, -4, -2, -3, -5, -12,-1.1131393297065681,1.3119324257062002
1503699313912,+0.375,+0.375,-0.481,-0.698,+0.971,-0.156,-0.206,-6.500,-11.125,-0.812,-8, 7, 3, 2, 0, 0, -1, -2,-1.1113418029205113,1.3082666768300253
1503699313927,+0.375,+0.374,-0.481,-0.699,+0.960,-0.162,-0.210,-6.250,-10.875,-0.312,14, 11, 8, 3, 0, 1, -7, -9,-1.1098862720884488,1.3068568670806153
1503699313950,+0.375,+0.373,-0.480,-0.700,+0.979,-0.170,-0.197,-7.875,-8.062,+0.812,7, 0, 3, 2, 1, 2, -2, -3,-1.1080985727642652,1.3032012373984314
1503699313972,+0.375,+0.371,-0.480,-0.701,+0.982,-0.154,-0.203,-8.500,-7.312,+3.000,19, 14, -1, -4, -4, -4, -3, 7,-1.1048717193625945,1.3001491288052225
1503699313987,+0.374,+0.371,-0.479,-0.702,+0.973,-0.144,-0.223,-5.062,-7.312,+4.875,-10, -3, -3, -3, 0, -2, 3, -3,-1.102879466481145,1.2979542679094007
1503699314010,+0.374,+0.371,-0.478,-0.703,+0.961,-0.159,-0.220,-3.750,-4.062,+6.625,-6, 1, -3, -3, -1, -2, 0, 13,-1.1028822095022905,1.2959636763913025
1503699314032,+0.373,+0.370,-0.478,-0.704,+0.940,-0.165,-0.207,-6.938,-5.625,+7.000,-14, -5, 2, 2, -1, 1, -8, -23,-1.0994508079677556,1.2943714118259617
1503699314048,+0.371,+0.370,-0.478,-0.705,+0.962,-0.162,-0.194,-8.500,-1.188,+8.000,21, 6, -3, -3, -2, -2, -1, -5,-1.0958064438198039,1.2942263707332973
1503699314070,+0.369,+0.370,-0.478,-0.706,+0.990,-0.143,-0.206,-8.312,+1.438,+9.000,-14, 2, 10, 3, 1, -1, 1, 3,-1.0921691768212107,1.2940811812604167
1503699314092,+0.368,+0.370,-0.477,-0.707,+1.021,-0.149,-0.234,-7.938,-4.562,+12.000,-4, -10, -5, -3, -3, -3, -4, -5,-1.0901786265602018,1.2918832676237566
1503699314110,+0.367,+0.369,-0.476,-0.709,+1.022,-0.145,-0.246,-5.750,-13.500,+11.500,-9, -3, 3, -1, -1, 1, -1, 6,-1.086755376624452,1.2883049143847776
1503699314130,+0.367,+0.368,-0.472,-0.712,+0.990,-0.144,-0.275,-1.750,-21.812,+13.562,-7, 1, 1, -1, -1, 0, -3, -11,-1.084628393715485,1.2784517816438017
1503699314152,+0.367,+0.368,-0.469,-0.714,+0.969,-0.167,-0.276,+0.812,-19.250,+17.375,6, 8, 4, -1, -1, -1, 8, 5,-1.084276785868861,1.2722514882960059
1503699314168,+0.365,+0.369,-0.465,-0.717,+0.958,-0.173,-0.278,+1.500,-12.875,+23.500,4, -3, 0, -1, -2, -1, 3, 10,-1.0816910828798192,1.2653135944347906
1503699314190,+0.363,+0.371,-0.462,-0.719,+0.972,-0.188,-0.280,+3.562,-9.875,+30.438,10, 3, -1, -1, -2, -3, -3, -5,-1.080880053489245,1.2620211107999457
1503699314213,+0.359,+0.374,-0.458,-0.722,+0.984,-0.206,-0.273,+6.188,-6.938,+35.688,-4, 2, 4, 1, -1, 1, -2, 7,-1.0778627092250408,1.2580166200144898
1503699314228,+0.356,+0.378,-0.454,-0.724,+0.969,-0.196,-0.286,+9.500,-4.938,+40.125,-7, -5, -5, 0, 1, -1, 1, -6,-1.0783216759762995,1.2557071830104374
1503699314251,+0.352,+0.382,-0.451,-0.726,+0.953,-0.200,-0.287,+12.625,-3.750,+42.812,-6, -2, -1, 0, -1, 0, 3, -2,-1.0772177047315146,1.2554667679587095
1503699314271,+0.348,+0.387,-0.446,-0.728,+0.942,-0.230,-0.259,+14.375,-2.312,+45.500,1, -5, 0, 1, 2, -3, -8, -18,-1.0772709951291481,1.2525889609170322
1503699319304,+0.280,+0.275,-0.473,-0.789,+0.894,-0.165,-0.372,-5.312,-1.062,-4.438,-23, -6, 0, 2, 1, -2, -1, -3,-0.7926006444142883,1.151536639040713
1503699319309,+0.281,+0.274,-0.473,-0.789,+0.895,-0.153,-0.368,-3.562,+1.812,-6.688,3, 0, 1, 7, 3, 1, 0, -1,-0.7930678816645483,1.15051475682393
1503699319323,+0.282,+0.273,-0.474,-0.788,+0.923,-0.163,-0.355,-2.000,+2.625,-9.312,0, -2, 0, -2, -1, 0, -1, 0,-0.7935276926438201,1.1515091406283118
1503699319338,+0.283,+0.272,-0.475,-0.787,+0.928,-0.158,-0.350,-1.500,+1.000,-12.188,9, 2, -2, -3, -4, -1, -5, -10,-0.7939872151726171,1.1525071660330708
1503699319359,+0.285,+0.271,-0.476,-0.787,+0.907,-0.154,-0.347,-1.812,+1.125,-11.438,9, 1, -1, 0, 1, 1, 4, 9,-0.7967871860681223,1.1541215520782722
1503699319373,+0.286,+0.270,-0.476,-0.786,+0.910,-0.141,-0.346,-2.812,-0.875,-7.500,-1, 1, -2, -3, 0, 0, 3, 7,-0.7968659839223737,1.1527175474479723
1503699319395,+0.286,+0.270,-0.477,-0.786,+0.936,-0.138,-0.349,-4.125,-1.125,-3.188,-16, -4, 1, -3, 0, 0, -6, -2,-0.7972478283784546,1.1551254260138284
1503699319420,+0.286,+0.269,-0.477,-0.787,+0.989,-0.140,-0.334,-5.312,-2.688,+0.438,2, 0, 0, -2, -3, -3, -5, -15,-0.7961980718419767,1.1542844265965528
1503699319433,+0.286,+0.268,-0.476,-0.787,+0.979,-0.143,-0.326,-4.875,-7.812,+1.812,3, -5, -6, -1, -1, -1, -3, -3,-0.7943674949867622,1.1506491359979105
1503699319471,+0.285,+0.267,-0.475,-0.788,+0.915,-0.150,-0.350,-6.312,-13.438,+2.562,6, 15, 7, 0, 1, -1, 0, -5,-0.791005559865584,1.147188871305626
1503699319477,+0.285,+0.266,-0.473,-0.790,+0.893,-0.134,-0.364,-8.250,-15.375,+4.750,2, 9, 8, 1, 2, 2, 3, 4,-0.7896171009501289,1.1419475844609117
1503699319492,+0.284,+0.265,-0.471,-0.792,+0.918,-0.138,-0.370,-7.500,-15.000,+7.125,8, 3, 0, 2, -1, -1, -3, -20,-0.7862910432995966,1.1364960809732323
1503699319515,+0.284,+0.264,-0.469,-0.794,+0.926,-0.151,-0.376,-7.062,-14.562,+7.500,2, -6, -6, -3, -1, -2, -1, 1,-0.784917449230517,1.1312837432845726
1503699319537,+0.283,+0.263,-0.467,-0.795,+0.907,-0.152,-0.392,-6.812,-13.375,+7.062,-1, 2, 2, 0, 0, 0, 1, -5,-0.7811951842008868,1.1254506780921962
1503699319553,+0.282,+0.262,-0.465,-0.797,+0.894,-0.147,-0.395,-5.750,-11.562,+6.438,-11, -5, -4, 0, 0, 6, 1, 2,-0.7778841585181255,1.1200335078641537
1503699319582,+0.282,+0.261,-0.464,-0.798,+0.877,-0.163,-0.407,-5.688,-9.438,+4.875,1, 0, -5, -3, -2, -5, -1, -9,-0.7765006967071757,1.1168447821369307
1503699319597,+0.281,+0.260,-0.463,-0.799,+0.888,-0.151,-0.392,-6.188,-7.875,+2.938,8, -2, -4, -1, -2, -2, 0, 4,-0.7731697377336856,1.1134301958298292
1503699319615,+0.281,+0.259,-0.462,-0.800,+0.905,-0.141,-0.416,-5.438,-9.500,+2.250,-1, 0, -4, -3, -2, -2, 0, 6,-0.7717967937722797,1.1102540306927997
1503699319636,+0.281,+0.258,-0.460,-0.801,+0.887,-0.136,-0.420,-3.562,-7.375,+1.375,12, -5, 0, -1, -1, -2, 3, 10,-0.7700549853772491,1.104689837057931
1503699319658,+0.281,+0.258,-0.460,-0.802,+0.877,-0.148,-0.407,-2.938,-4.250,+2.625,-6, -4, -2, -1, 0, 6, -1, -1,-0.7704633453484636,1.1051082959566971
1503699319671,+0.280,+0.258,-0.459,-0.802,+0.895,-0.155,-0.406,-3.312,-2.250,+4.688,1, 2, 2, 1, 0, -1, 2, 1,-0.7681309840590087,1.102479847869173
1503699319733,+0.280,+0.258,-0.459,-0.803,+0.898,-0.144,-0.406,-2.688,-0.188,+6.438,-10, -8, -4, -2, -3, -2, 0, 4,-0.7685387646389662,1.1028993348752099
1503699319734,+0.279,+0.258,-0.459,-0.803,+0.899,-0.149,-0.406,-1.688,+2.125,+7.250,5, 0, 0, 1, 0, -1, -1, -2,-0.7665823557896718,1.10266363046807
1503699319735,+0.277,+0.259,-0.459,-0.803,+0.916,-0.150,-0.392,-1.500,+2.562,+9.000,-9, 1, 0, -3, -2, -3, -1, -2,-0.764070992740282,1.1033804131148046
1503699319754,+0.276,+0.260,-0.459,-0.803,+0.912,-0.162,-0.387,-1.750,+2.438,+9.375,-9, -9, -5, -4, -2, -4, -7, -3,-0.7635195909009579,1.1043357537959222
1503699319776,+0.275,+0.260,-0.459,-0.804,+0.897,-0.166,-0.387,-2.250,+0.375,+8.438,-10, -3, 0, -1, -2, 0, -7, -10,-0.7619735208644635,1.104517218895913
1503699319791,+0.274,+0.261,-0.459,-0.804,+0.887,-0.166,-0.405,-2.062,+0.125,+7.438,9, 13, 18, 7, 2, 2, 0, 5,-0.7614279412172651,1.1054740361070503
1503699319815,+0.273,+0.261,-0.459,-0.804,+0.883,-0.172,-0.396,-1.562,+1.125,+4.812,3, -6, -12, -4, -3, -2, 1, 10,-0.7594810031762194,1.1052363531832539
1503699319839,+0.272,+0.261,-0.459,-0.804,+0.890,-0.181,-0.382,-2.562,+0.438,+2.000,2, -9, -6, -3, -1, -4, 0, 7,-0.7575356145999717,1.1049984451500137
1503699319851,+0.272,+0.261,-0.459,-0.805,+0.909,-0.180,-0.396,-4.250,-1.000,-0.688,3, -1, -3, -2, -1, -2, -3, -2,-0.757936626714976,1.1054166849616114
1503699319887,+0.272,+0.260,-0.459,-0.805,+0.914,-0.175,-0.383,-4.625,-3.312,-2.562,-10, 0, -1, 1, 0, 0, -1, -2,-0.7565335857956706,1.1042244391231173
1503699319898,+0.273,+0.259,-0.458,-0.805,+0.919,-0.166,-0.382,-5.812,-8.125,-2.438,0, -6, -7, -4, -1, -2, 1, 10,-0.7566981523411099,1.1008753700139557
1503699319911,+0.273,+0.258,-0.458,-0.806,+0.899,-0.148,-0.405,-5.625,-8.562,-0.688,-8, 0, 0, 0, 0, -1, -3, -4,-0.7557056550206415,1.1001106161757674
1503699319935,+0.273,+0.257,-0.457,-0.807,+0.900,-0.151,-0.418,-4.125,-5.625,+4.000,0, -1, -4, -3, -1, -1, -7, -3,-0.7543373596993388,1.0969552578673885
1503699319956,+0.272,+0.258,-0.456,-0.807,+0.919,-0.160,-0.404,-2.188,-2.125,+7.312,1, -1, -1, 0, -3, 1, 2, -2,-0.7533966431310832,1.0955032279809165
1503699319971,+0.271,+0.258,-0.456,-0.808,+0.926,-0.165,-0.401,-0.438,-3.000,+6.062,-3, -5, -3, -4, 1, -3, -1, -9,-0.7518497004457455,1.0956870230234688
1503699319996,+0.271,+0.258,-0.455,-0.808,+0.896,-0.172,-0.416,+0.625,-4.625,+1.312,9, 1, 0, 0, 0, -1, 1, 0,-0.751467200035446,1.0932924772163417
1503699320023,+0.272,+0.258,-0.454,-0.808,+0.854,-0.182,-0.396,+1.812,-5.125,-5.000,-5, -4, -4, 0, -2, 0, -4, 1,-0.7530354070941955,1.0911404389223516
1503699320032,+0.274,+0.257,-0.454,-0.808,+0.854,-0.186,-0.403,-1.438,-6.875,-8.062,-5, 2, -1, -3, -2, 0, 2, 0,-0.7555553158942089,1.0904402890001963
1503699320054,+0.275,+0.256,-0.453,-0.809,+0.864,-0.168,-0.408,-4.438,-7.500,-9.250,-4, -3, 0, 0, -1, 0, -3, -3,-0.7561557822459366,1.0875385179977113
1503699320076,+0.277,+0.254,-0.452,-0.809,+0.870,-0.159,-0.443,-4.438,-7.375,-10.625,-7, 1, -4, 0, -1, 0, 0, -3,-0.7569476908046433,1.0832833836996856
1503699320093,+0.278,+0.252,-0.452,-0.809,+0.875,-0.146,-0.443,-4.562,-1.500,-9.188,9, -3, -4, -3, -1, -1, -1, 4,-0.7561722842265097,1.0811859399543886
1503699320114,+0.278,+0.252,-0.454,-0.808,+0.932,-0.145,-0.404,-3.812,+2.812,-4.312,-7, 1, -2, -2, -1, -1, -2, -5,-0.756505134287065,1.0855319520968876
1503699320136,+0.278,+0.252,-0.454,-0.808,+0.963,-0.141,-0.388,-3.500,+1.188,+0.375,8, 1, -1, -1, 0, -3, 0, 2,-0.756505134287065,1.0855319520968876
1503699320153,+0.278,+0.251,-0.455,-0.808,+0.928,-0.122,-0.417,-2.188,-0.938,+4.125,0, -1, -3, -2, 0, -1, -2, 0,-0.7555077348545265,1.0867588972184816
1503699320174,+0.277,+0.252,-0.454,-0.808,+0.897,-0.107,-0.424,+3.375,+0.312,+8.500,-5, -5, -4, -1, -2, -6, -2, -2,-0.7545436634785442,1.0852938586025245
1503699320196,+0.276,+0.254,-0.453,-0.809,+0.890,-0.125,-0.437,+7.375,-0.062,+13.125,9, 9, 1, -1, -1, 1, -2, -17,-0.7553607876472955,1.085430005139083
1503699320211,+0.275,+0.257,-0.452,-0.809,+0.874,-0.145,-0.424,+9.250,+3.125,+16.375,6, 5, 0, -2, 0, -1, 3, 8,-0.7571589167266808,1.0863313381723647
1503699320234,+0.273,+0.259,-0.452,-0.809,+0.885,-0.156,-0.420,+9.062,+4.188,+17.750,-9, 2, 4, 1, 0, 0, 2, 5,-0.7560161875492255,1.088215386909765
1503699320257,+0.271,+0.262,-0.451,-0.809,+0.946,-0.166,-0.418,+10.312,+3.688,+20.562,0, -1, -2, 1, 1, 1, 2, -1,-0.7559035867254336,1.088919020306797
1503699320279,+0.270,+0.266,-0.450,-0.809,+0.899,-0.150,-0.402,+13.938,-0.688,+19.875,4, 1, 2, 2, -1, 1, -6, -8,-0.7591771306322256,1.091111625225858
1503699320295,+0.268,+0.270,-0.448,-0.809,+0.856,-0.185,-0.427,+17.625,+3.062,+23.875,-5, 0, 7, 2, 1, 1, 0, 4,-0.760146983782764,1.0907265368758714
1503699320316,+0.266,+0.275,-0.447,-0.809,+0.857,-0.199,-0.423,+19.188,+9.312,+24.125,-9, -8, -2, 0, 0, 0, 3, 8,-0.7629945847908647,1.094025586245793
1503699320339,+0.263,+0.280,-0.447,-0.808,+0.881,-0.208,-0.417,+19.562,+15.812,+25.438,16, 7, 1, -1, -1, -1, -4, -4,-0.7640029254916406,1.0991171740997108
1503699320354,+0.261,+0.286,-0.447,-0.807,+0.891,-0.197,-0.412,+22.500,+17.562,+25.375,-2, 0, 0, 0, 1, 2, -11, -30,-0.7685324818314261,1.105849534302559
1503699320376,+0.258,+0.293,-0.446,-0.805,+0.919,-0.223,-0.404,+28.000,+13.938,+31.625,2, -1, -3, -1, -2, -3, 0, 6,-0.7719593153659944,1.1109790956648686
1503699327081,+0.258,+0.323,-0.526,-0.743,+0.954,-0.188,-0.200,+1.562,-7.500,-5.562,-5, 3, 6, 2, 1, 1, -2, -3,-0.8323955954233861,1.3249107392891661
1503699327096,+0.259,+0.322,-0.526,-0.743,+0.973,-0.187,-0.181,-0.188,-6.688,-1.938,-4, -4, -3, 0, -1, -2, 0, -2,-0.832500672606363,1.323663443651451
1503699327118,+0.258,+0.323,-0.526,-0.743,+0.963,-0.189,-0.193,-1.750,+2.750,+4.562,-8, -5, -3, -11, -10, -3, -1, 4,-0.8323955954233861,1.3249107392891661
1503699327142,+0.258,+0.323,-0.526,-0.743,+0.938,-0.187,-0.212,+0.562,+7.062,+5.938,7, 0, -4, -3, -3, -2, 0, 6,-0.8323955954233861,1.3249107392891661
1503699327156,+0.258,+0.324,-0.526,-0.743,+0.942,-0.196,-0.203,+0.500,+1.562,+1.875,-9, 9, 10, 5, 4, 1, 1, -4,-0.8340985080861112,1.326322626948307
1503699327178,+0.258,+0.324,-0.526,-0.743,+0.939,-0.207,-0.157,+4.562,-5.312,-2.062,1, 12, 10, 5, 1, -1, 1, 4,-0.8340985080861112,1.326322626948307
1503699327209,+0.260,+0.324,-0.525,-0.743,+0.931,-0.242,-0.174,+2.188,-4.000,-8.062,-4, -6, -7, -1, -1, 1, 0, -3,-0.8372638580388985,1.3241907167696667
1503699327217,+0.261,+0.323,-0.526,-0.743,+0.929,-0.237,-0.204,-1.750,-0.562,-8.625,-6, -2, -4, -1, -2, -1, 4, 3,-0.8378125379449932,1.3253923064604587
1503699327239,+0.262,+0.322,-0.526,-0.742,+0.931,-0.210,-0.223,+0.750,-1.000,-10.750,-4, -4, -4, -1, -2, -4, -3, -8,-0.8375658493298146,1.3238833304336928
1503699327261,+0.265,+0.321,-0.526,-0.742,+0.944,-0.218,-0.186,+1.625,-2.312,-17.938,-5, -3, -2, 2, 3, 0, 0, -7,-0.8413083973026991,1.3229611800791532
1503699327278,+0.267,+0.320,-0.526,-0.741,+0.992,-0.213,-0.181,+0.125,-6.438,-18.750,-6, -15, -12, -5, -1, 0, -6, 3,-0.8428903546535595,1.3216183519362532
1503699327305,+0.270,+0.317,-0.526,-0.741,+0.981,-0.179,-0.184,-1.375,-10.438,-18.812,-7, -1, 7, 2, 3, 1, 0, 4,-0.8433080556085648,1.317921605006642
1503699327321,+0.273,+0.315,-0.525,-0.742,+0.958,-0.154,-0.188,+0.125,-17.062,-16.125,6, -1, -4, -1, -1, 0, -5, -19,-0.8453891586364053,1.3134596733452393
1503699327344,+0.276,+0.314,-0.524,-0.742,+0.971,-0.173,-0.206,+2.000,-17.125,-11.625,-9, 7, 5, 3, 1, -2, -4, -18,-0.8488068452543313,1.3101242959978592
1503699327369,+0.277,+0.313,-0.523,-0.743,+0.974,-0.177,-0.192,-4.062,-9.312,-3.438,8, -10, -7, -4, -2, -4, -1, 1,-0.8489383577206912,1.306743894453555
1503699327381,+0.277,+0.312,-0.523,-0.744,+0.985,-0.171,-0.192,-6.188,-4.250,+0.062,-8, -1, -1, -3, -4, 1, 3, 10,-0.847655864968829,1.3056497762638843
1503699327404,+0.276,+0.311,-0.523,-0.744,+1.005,-0.166,-0.205,-7.625,-4.812,+0.562,10, 6, 0, -3, -16, 0, -2, 4,-0.8441622508589531,1.30411568165883
1503699327419,+0.276,+0.310,-0.522,-0.745,+0.988,-0.171,-0.202,-6.500,-10.125,-0.062,5, 0, -1, 0, -4, -8, 1, 5,-0.8424679667741514,1.3005847016865562
1503699327448,+0.277,+0.308,-0.521,-0.747,+0.972,-0.171,-0.183,-8.812,-15.125,-2.312,-1, 1, 3, 2, 8, 1, -1, -1,-0.8413619932479386,1.296158207814981
1503699327457,+0.277,+0.305,-0.520,-0.748,+0.981,-0.162,-0.193,-12.625,-13.750,-5.875,-6, 3, 0, -2, 2, 2, 3, 1,-0.8364283258350433,1.289950165021199
1503699327479,+0.278,+0.302,-0.520,-0.749,+0.952,-0.146,-0.234,-12.750,-12.000,-8.438,2, -6, -5, -5, 2, 7, 3, 4,-0.8337978488421517,1.2863978986770257
1503699327504,+0.279,+0.299,-0.519,-0.750,+0.936,-0.130,-0.263,-11.375,-10.875,-10.188,-2, -1, -2, -1, 4, -4, -8, -7,-0.8307965238722964,1.2804332282445863
1503699327523,+0.281,+0.296,-0.519,-0.752,+0.958,-0.120,-0.255,-11.812,-14.438,-11.625,3, -1, 0, 0, 0, -1, 6, 1,-0.8304919290557102,1.277434314943917
1503699327543,+0.283,+0.292,-0.517,-0.753,+0.976,-0.122,-0.265,-9.500,-19.500,-13.375,2, -4, 2, -1, -3, 1, 5, 6,-0.82747375845568,1.2679757665040625
1503699327561,+0.285,+0.289,-0.516,-0.755,+0.972,-0.135,-0.254,-8.812,-21.250,-12.562,10, 8, 5, 4, 0, -5, -5, -1,-0.8268937004357534,1.2626306403692733
1503699327583,+0.286,+0.286,-0.514,-0.757,+0.966,-0.152,-0.262,-12.438,-22.438,-7.062,6, -3, -7, -5, -3, -3, -5, 5,-0.8240950214564482,1.254707329712769
1503699327599,+0.286,+0.283,-0.512,-0.759,+0.964,-0.152,-0.270,-15.000,-19.500,-3.062,-3, -5, -1, -2, -2, 2, 7, 4,-0.8194594188282378,1.2466485680946522
1503699327621,+0.286,+0.281,-0.512,-0.760,+0.939,-0.123,-0.272,-15.750,-9.375,-2.938,-3, 1, 6, 1, 1, 0, -2, -6,-0.8167794138286986,1.2444527104804617
1503699327643,+0.285,+0.279,-0.511,-0.761,+0.949,-0.114,-0.251,-9.500,-8.188,+0.625,-3, 1, 3, 1, -1, 0, -3, -8,-0.8118344892396139,1.2396423734015907
1503699327659,+0.286,+0.278,-0.510,-0.762,+0.960,-0.121,-0.279,-4.938,-8.438,-2.500,-6, -5, -4, -1, -1, 1, -3, -12,-0.8122132327459098,1.236461880200979
1503699327681,+0.287,+0.276,-0.509,-0.763,+0.972,-0.134,-0.284,-8.188,-13.438,-7.625,-2, 1, -5, 0, 1, 1, 0, 0,-0.8110873119904132,1.23204559847918
1503699327697,+0.287,+0.273,-0.508,-0.765,+0.976,-0.142,-0.282,-9.562,-17.375,-5.562,-3, -2, -2, -4, -3, -3, -3, 5,-0.806977752025281,1.2265732757800671
1503699327719,+0.287,+0.272,-0.507,-0.766,+0.947,-0.126,-0.286,-9.438,-12.312,-1.688,-10, -6, -2, 1, -1, -2, -2, -1,-0.805496883342429,1.2232423955934446
1503699327743,+0.287,+0.270,-0.506,-0.767,+0.918,-0.108,-0.302,-8.438,-5.438,+2.312,-3, -1, -1, 3, 3, 2, 3, 6,-0.8025288362269428,1.2186948545274028
1503699327758,+0.286,+0.270,-0.506,-0.768,+0.938,-0.112,-0.324,-5.562,-1.438,+5.812,3, 8, 1, -9, -7, -9, -5, 1,-0.8010246529989926,1.2188588655766004
1503699327780,+0.285,+0.270,-0.506,-0.768,+0.958,-0.128,-0.312,-5.875,-1.625,+6.938,-2, -3, -3, -1, -1, 1, 5, -2,-0.7991203460653689,1.2186712137432052
1503699327801,+0.284,+0.270,-0.505,-0.769,+0.988,-0.141,-0.294,-6.875,-5.750,+7.688,0, -2, -3, -1, 0, -3, 0, 8,-0.7972374824132863,1.216386617211886
1503699327823,+0.283,+0.269,-0.504,-0.771,+0.975,-0.130,-0.311,-5.062,-7.062,+6.938,-1, 2, 1, -2, -2, 1, 0, -3,-0.7942655076439076,1.2132404561523915
1503699327840,+0.283,+0.269,-0.503,-0.771,+0.953,-0.124,-0.302,-2.188,-6.875,+2.250,8, 2, -3, -1, 0, 0, -1, -1,-0.7938852287127087,1.2107931908699983
1503699327861,+0.284,+0.268,-0.503,-0.771,+0.941,-0.129,-0.298,-0.938,-1.812,-5.875,3, 1, 0, 1, -1, 0, -1, 10,-0.7943072488147332,1.2097690581825085
1503699327884,+0.285,+0.268,-0.504,-0.770,+0.953,-0.122,-0.268,+1.062,+2.875,-13.875,1, -6, -3, -2, 0, 5, -4, 5,-0.7961907470626383,1.212049251669383
1503699327899,+0.288,+0.267,-0.506,-0.768,+0.976,-0.098,-0.272,+5.438,+5.125,-19.438,-6, -2, 0, -2, 1, -1, -5, 0,-0.8003802415985103,1.2155880641186634
1503699327921,+0.292,+0.266,-0.507,-0.766,+0.979,-0.078,-0.319,+8.062,+1.375,-19.500,5, -1, -4, -4, -2, -3, 2, -14,-0.8061122251349265,1.2168648865968301
1503699327943,+0.295,+0.266,-0.505,-0.766,+0.970,-0.098,-0.346,+8.500,-9.938,-12.000,-12, -5, -1, 0, -2, -2, -4, -9,-0.8111298649226819,1.2125316567539275
1503699327959,+0.297,+0.266,-0.502,-0.768,+0.968,-0.129,-0.339,+6.188,-17.438,-2.188,7, 9, -2, -2, -2, -2, 0, 3,-0.8146968559814263,1.2063039998761105
1503699327981,+0.297,+0.266,-0.500,-0.769,+0.934,-0.141,-0.316,+2.750,-13.750,+3.125,-4, -2, 1, 0, 0, -1, 2, -4,-0.814372382531176,1.2017931877874757
1503699328005,+0.296,+0.267,-0.499,-0.769,+0.920,-0.140,-0.308,+1.938,-3.375,+6.562,5, 0, -1, 1, 1, 0, -8, -7,-0.8135436511894077,1.2003807514226934
1503699328023,+0.295,+0.269,-0.499,-0.769,+0.918,-0.149,-0.292,+3.500,+6.938,+5.938,-8, -4, -5, -2, -3, -4, -2, -3,-0.8145647510607089,1.20262962563379
1503699328042,+0.295,+0.271,-0.502,-0.767,+0.941,-0.157,-0.267,+4.500,+16.875,+0.188,6, 1, 2, 1, 0, 1, 2, 6,-0.8178343033843534,1.2116714675294578
1503699328063,+0.295,+0.272,-0.505,-0.764,+0.964,-0.133,-0.249,+6.312,+20.125,-8.938,-5, 1, 5, 0, -1, -5, 0, 5,-0.8192287039062903,1.2191579970270592
1503699328079,+0.298,+0.273,-0.507,-0.761,+0.989,-0.111,-0.246,+10.125,+13.000,-14.562,-6, -1, 2, 0, 3, 4, 0, -3,-0.8260137807151524,1.2247920266477292
1503699328101,+0.301,+0.274,-0.508,-0.759,+0.973,-0.120,-0.273,+10.750,+5.312,-18.438,1, -4, -4, -1, -1, -3, -3, 3,-0.8328400801590476,1.2283396032842773
1503699328123,+0.304,+0.274,-0.508,-0.758,+0.950,-0.104,-0.288,+10.625,-1.938,-18.562,-12, -4, -2, -1, 0, 0, 0, 0,-0.8382108621955319,1.2285516765751578
1503699334506,+0.410,+0.408,-0.468,-0.668,+0.985,-0.157,-0.177,-8.000,-9.812,-0.938,2, -1, -2, -1, -2, -1, -2, 0,-1.2288652707897005,1.336561903452452
1503699334528,+0.410,+0.406,-0.467,-0.669,+0.966,-0.158,-0.168,-8.250,-10.625,-1.875,12, 0, -3, -2, 1, 0, -1, -3,-1.2251207542376512,1.3310242305895492
1503699334554,+0.410,+0.405,-0.467,-0.671,+0.957,-0.156,-0.202,-7.812,-9.500,-1.750,2, -1, -3, -2, -3, 1, -6, 5,-1.2238174034219884,1.3296805508256098
1503699334566,+0.411,+0.403,-0.466,-0.672,+0.973,-0.144,-0.195,-6.312,-8.875,-2.125,-8, -7, -2, -2, -1, 2, 4, 3,-1.2221274245955795,1.3243659864150483
1503699334588,+0.411,+0.402,-0.466,-0.672,+0.989,-0.144,-0.191,-5.562,-8.125,-1.625,4, -2, -3, 0, 1, -2, -1, -4,-1.2202718908459818,1.32258089142822
1503699334604,+0.412,+0.401,-0.466,-0.673,+0.975,-0.151,-0.209,-5.375,-6.375,-1.125,4, 3, 0, -2, -2, -4, -4, -3,-1.2207393981414167,1.3212323568140567
1503699334627,+0.412,+0.400,-0.466,-0.674,+0.945,-0.140,-0.220,-4.562,-3.438,-1.062,2, -3, 0, 0, -1, 1, 0, 4,-1.2191798378448142,1.3196893443089421
1503699334653,+0.412,+0.399,-0.465,-0.674,+0.939,-0.140,-0.225,-3.062,-2.875,-2.438,7, 7, 3, 0, 2, -2, -6, -4,-1.2170574359640376,1.3157490667258989
1503699334664,+0.413,+0.398,-0.466,-0.674,+0.955,-0.160,-0.212,-3.438,-0.625,-3.438,-2, 2, 1, 0, -2, -2, 2, 2,-1.217535907898498,1.316348160554518
1503699334688,+0.413,+0.398,-0.466,-0.674,+0.965,-0.142,-0.202,-3.625,+3.562,-3.500,-2, -2, -1, 0, -2, -1, -1, 2,-1.217535907898498,1.316348160554518
1503699334708,+0.413,+0.398,-0.467,-0.673,+0.971,-0.133,-0.209,-2.625,+2.938,-1.688,-15, -6, -2, -1, 0, 0, -3, -9,-1.2175254103587287,1.318280151259125
1503699334724,+0.413,+0.398,-0.468,-0.673,+0.974,-0.143,-0.196,-1.438,+4.750,-2.000,3, -3, 0, 0, -1, 0, 6, 6,-1.2178037427533817,1.3204498681856938
1503699334746,+0.413,+0.398,-0.468,-0.672,+1.003,-0.144,-0.178,-0.688,-0.188,-2.812,-3, -1, 1, 1, 0, 2, 5, -3,-1.2175149122212225,1.3202153137066985
1503699334769,+0.413,+0.397,-0.468,-0.672,+1.003,-0.140,-0.183,-1.125,-2.812,-1.750,-5, 1, 1, -1, -2, 0, -12, -11,-1.2156778322408544,1.3184493320461748
1503699334786,+0.413,+0.397,-0.468,-0.672,+0.968,-0.145,-0.183,-2.812,-1.875,-0.438,5, -1, -7, -4, -3, -2, -2, 1,-1.2156778322408544,1.3184493320461748
1503699334807,+0.413,+0.397,-0.469,-0.673,+0.970,-0.142,-0.200,-4.500,+0.250,+3.062,5, 5, 4, 3, 1, -4, 2, 6,-1.216246884717048,1.3208579381244763
1503699334829,+0.412,+0.397,-0.469,-0.673,+0.990,-0.129,-0.184,-3.938,-0.750,+3.625,-12, -6, -2, 0, 6, 11, 5, -3,-1.2142101468118485,1.3206593999746927
1503699334844,+0.412,+0.397,-0.469,-0.674,+0.987,-0.146,-0.175,-5.688,-3.688,+4.625,10, 4, 0, -3, -6, 1, 1, 3,-1.2145007111122514,1.32089391199139
1503699334867,+0.411,+0.396,-0.468,-0.675,+0.987,-0.147,-0.183,-7.875,-6.375,+6.250,-10, -3, -2, -2, 1, -4, -2, -11,-1.2106421642204543,1.3169969481913506
1503699334889,+0.410,+0.395,-0.467,-0.677,+0.978,-0.156,-0.199,-8.438,-9.000,+4.938,8, 1, 1, 0, 0, -3, -7, 2,-1.2070788526638865,1.3133399099285354
1503699334905,+0.409,+0.394,-0.466,-0.678,+0.932,-0.165,-0.207,-9.438,-7.312,+4.188,7, 7, 2, 1, -1, 0, -1, -1,-1.2032228821715043,1.309444734930311
1503699334927,+0.408,+0.393,-0.466,-0.679,+0.923,-0.169,-0.221,-9.125,+0.000,+4.750,-3, -5, -1, -2, -2, -2, 3, 9,-1.1996558943922828,1.3077290837780025
1503699334952,+0.408,+0.392,-0.467,-0.680,+0.946,-0.138,-0.234,-10.812,-3.750,+0.250,-11, -5, -3, -1, -8, -3, 4, 9,-1.198421195455485,1.3084062841981243
1503699334965,+0.407,+0.391,-0.467,-0.681,+0.956,-0.138,-0.212,-7.625,-1.312,-0.125,-7, -2, 0, -1, 1, 2, 7, -5,-1.1948650860698964,1.30670222829413
1503699334988,+0.408,+0.389,-0.467,-0.681,+0.975,-0.136,-0.228,-6.812,-5.438,-1.688,11, 5, -3, -2, -2, -4, -2, 2,-1.193275306997148,1.3034312347364363
1503699335009,+0.408,+0.388,-0.467,-0.682,+0.968,-0.120,-0.221,-6.250,-6.875,-2.938,-7, -5, -4, -4, -5, 1, -5, -19,-1.1917708493360564,1.301947490749639
1503699335025,+0.408,+0.387,-0.467,-0.683,+0.987,-0.126,-0.226,-6.188,-3.375,+1.938,-15, -8, 0, 3, 1, 0, -11, -13,-1.1902715597338043,1.3004692206128288
1503699335047,+0.407,+0.387,-0.467,-0.683,+1.003,-0.135,-0.208,-6.750,-1.250,+5.000,8, 6, 3, 2, 4, -2, -7, 8,-1.1882281464920244,1.3002602082917298
1503699335069,+0.406,+0.386,-0.467,-0.684,+0.991,-0.161,-0.208,-6.625,-1.250,+5.438,-10, -1, 3, 2, -1, -3, -7, -11,-1.1846900569007337,1.2985771666368695
1503699335085,+0.405,+0.386,-0.467,-0.685,+0.955,-0.165,-0.213,-7.500,-0.438,+5.250,-4, -2, -4, -1, 1, -1, 5, 6,-1.1829579554222815,1.2986212145864886
1503699335107,+0.403,+0.386,-0.467,-0.686,+0.944,-0.167,-0.209,-8.250,+3.750,+7.750,16, 6, -5, -5, -3, -6, -4, -8,-1.1791903187202075,1.2984552826047777
1503699335129,+0.401,+0.387,-0.468,-0.686,+0.942,-0.151,-0.217,-9.312,+7.438,+8.500,-5, -2, 8, 2, 0, 4, 5, 9,-1.177227648211558,1.3019570200959567
1503699335144,+0.399,+0.386,-0.469,-0.687,+0.934,-0.152,-0.211,-10.125,+7.062,+5.750,10, 10, -2, -3, -1, -2, 1, -1,-1.1719712947756253,1.302267452390547
1503699335167,+0.398,+0.386,-0.470,-0.687,+0.946,-0.154,-0.225,-9.312,+3.312,+1.938,-29, -22, -7, -1, 0, 1, 4, 4,-1.1702477368624522,1.3042619628118317
1503699335190,+0.398,+0.384,-0.470,-0.688,+0.977,-0.137,-0.225,-9.312,-5.375,-3.938,-21, -7, -2, 1, 3, 2, 1, -7,-1.1669495766312448,1.301081155038851
1503699335205,+0.399,+0.382,-0.470,-0.688,+0.966,-0.133,-0.215,-6.375,-10.562,-6.875,-11, -7, 3, 4, 2, 0, 1, -1,-1.1653812863041009,1.2978691724670686
1503699335227,+0.401,+0.380,-0.469,-0.689,+0.967,-0.139,-0.214,-4.750,-10.562,-5.250,8, 2, -5, -5, -5, -3, 1, 5,-1.1658870150979679,1.2929325101755713
1503699335249,+0.401,+0.379,-0.469,-0.690,+1.011,-0.116,-0.230,-4.625,-8.062,-0.938,-2, 6, 3, 0, -1, -2, 1, 5,-1.16442275970847,1.2914949798580828
1503699335271,+0.401,+0.378,-0.469,-0.690,+1.006,-0.112,-0.240,-4.875,-1.062,+3.312,21, 1, -5, -2, -3, -1, 0, -1,-1.1626420570261984,1.2898001987677912
1503699335287,+0.400,+0.379,-0.469,-0.690,+0.999,-0.141,-0.229,-3.312,+2.688,+7.812,10, 6, -2, -3, -3, -2, -5, -15,-1.1623829551245477,1.2912836432846275
1503699335309,+0.398,+0.380,-0.470,-0.691,+0.982,-0.156,-0.220,-4.625,+6.312,+8.938,-10, 3, 10, 3, -1, -1, 4, 1,-1.160723157198476,1.2950289616880972
1503699335325,+0.395,+0.383,-0.469,-0.691,+0.944,-0.191,-0.219,+1.688,+12.625,+19.875,-12, -13, -3, 0, 1, -1, -1, 6,-1.159711307279738,1.2973037559240947
1503699335347,+0.391,+0.385,-0.470,-0.691,+0.947,-0.168,-0.200,-4.688,+14.438,+17.812,13, -2, -3, -2, -4, -4, -16, -9,-1.1555536050391482,1.3021052060207423
1503699335369,+0.389,+0.386,-0.471,-0.692,+0.945,-0.159,-0.211,-7.875,+11.000,+12.312,12, 1, -3, -3, -2, -2, 1, -1,-1.153977811989979,1.305871521290064
1503699335384,+0.387,+0.386,-0.471,-0.692,+0.931,-0.174,-0.220,-6.250,+5.688,+10.312,-1, 5, 1, 0, 0, 3, 7, -9,-1.1499593714206082,1.3054611314220836
1503699335407,+0.386,+0.386,-0.470,-0.693,+0.913,-0.188,-0.229,-4.875,-3.375,+6.688,-3, -6, -2, -2, -1, -10, 0, -3,-1.1479518482275959,1.3032923356130077
1503699335429,+0.387,+0.384,-0.470,-0.694,+0.887,-0.133,-0.225,-8.438,-8.125,-8.000,-8, 5, -2, -3, -2, -1, -10, 5,-1.1466488769178989,1.30032185898951
1503699335444,+0.388,+0.382,-0.471,-0.694,+0.930,-0.175,-0.204,-5.500,-4.688,-8.938,-2, -4, -3, 1, 2, -3, 3, 4,-1.145363370115228,1.29933063287306
1503699335468,+0.390,+0.379,-0.471,-0.695,+0.968,-0.149,-0.205,-7.750,-12.562,-15.250,-5, -12, -1, 1, 0, 7, 14, 6,-1.1443273870696904,1.2949121589820922
1503699335492,+0.393,+0.376,-0.471,-0.695,+0.993,-0.135,-0.221,-5.250,-14.625,-19.188,-7, 2, -2, 1, -1, -1, 6, 5,-1.1450443793630793,1.2904810327264031
1503699335504,+0.396,+0.374,-0.471,-0.694,+0.998,-0.117,-0.221,-4.250,-13.125,-17.125,6, 4, 1, -2, -1, -2, -5, 1,-1.1472642023293869,1.2874917282009568
1503699335527,+0.397,+0.372,-0.471,-0.694,+1.022,-0.121,-0.228,-2.938,-8.875,-6.875,4, -1, -3, -6, -7, -2, -12, 4,-1.1457701865835908,1.2843587499604225
1503699335549,+0.397,+0.372,-0.471,-0.694,+1.034,-0.131,-0.225,-0.250,-1.438,+1.750,1, 7, 5, 3, 0, 2, -3, 0,-1.1457701865835908,1.2843587499604225
1503699335564,+0.396,+0.373,-0.471,-0.694,+1.002,-0.138,-0.231,-0.500,+2.438,+4.000,-11, -14, -7, -2, 2, -1, 1, 5,-1.1454958403183242,1.2858175712805247
1503699335587,+0.396,+0.373,-0.471,-0.694,+0.968,-0.140,-0.232,-1.062,+3.812,+5.875,-3, -4, 3, 1, -2, -10, -5, -4,-1.1454958403183242,1.2858175712805247
1503699335609,+0.394,+0.375,-0.470,-0.695,+0.938,-0.171,-0.232,+2.625,+0.250,+17.312,-1, -2, 0, 1, 0, -6, 3, -6,-1.1449845311883018,1.2867917751952456
1503699335626,+0.392,+0.376,-0.470,-0.695,+0.897,-0.137,-0.223,-2.438,+6.938,+8.062,32, 18, 3, 1, -1, 3, -1, 3,-1.1427004059422645,1.2880489654780813
1503699335649,+0.391,+0.377,-0.470,-0.696,+0.899,-0.180,-0.239,-1.438,+4.562,+6.000,8, -1, -3, -3, 2, 1, -6, 17,-1.1427846786792732,1.2897869970380884
1503699335673,+0.391,+0.377,-0.470,-0.696,+0.898,-0.167,-0.220,-4.438,+0.188,-0.812,-9, -3, -3, -2, -3, 0, 1, -11,-1.1427846786792732,1.2897869970380884
1503699335685,+0.392,+0.375,-0.470,-0.696,+0.950,-0.144,-0.228,-1.375,-4.875,-8.438,-6, 5, 8, -1, 0, 0, 4, -4,-1.1412516725639426,1.2866329331607986
1503699335735,+0.394,+0.374,-0.470,-0.696,+0.953,-0.141,-0.236,-0.250,-6.875,-10.125,-7, -3, -4, -2, -4, 2, -4, -10,-1.1435414992390847,1.2853807974760598
1503699335739,+0.396,+0.372,-0.470,-0.695,+0.979,-0.129,-0.216,-4.188,-10.312,-16.062,3, 5, 2, 1, 3, 4, 1, -3,-1.1437503998401384,1.2821924230413726
1503699335744,+0.399,+0.370,-0.469,-0.695,+1.023,-0.129,-0.217,+0.000,-14.062,-10.438,-1, -4, -4, -2, -3, 1, -4, -13,-1.1460565390803132,1.2772805903549038
1503699335770,+0.400,+0.369,-0.469,-0.696,+1.022,-0.091,-0.255,+0.562,-10.125,-5.625,1, -1, -2, -1, 1, 0, -2, 6,-1.1466876804688664,1.2761089930818779
1503699335788,+0.401,+0.369,-0.468,-0.696,+0.994,-0.116,-0.234,+3.938,-7.938,-0.250,-3, -6, -3, 0, -4, 2, 3, -6,-1.1484332364813938,1.274107163021213
1503699335804,+0.401,+0.370,-0.467,-0.696,+1.004,-0.163,-0.224,+3.625,-4.000,+5.000,-4, 0, -3, -1, -3, 0, 11, 3,-1.1498758303175858,1.273554397904126
1503699335828,+0.400,+0.371,-0.467,-0.696,+0.983,-0.162,-0.224,-0.938,-0.438,+5.812,-8, -6, -1, -2, 1, 0, 1, -2,-1.1495761189329943,1.2750036902528739
1503699335848,+0.400,+0.371,-0.465,-0.697,+0.956,-0.152,-0.248,+0.875,-3.812,+10.688,6, 4, -1, -2, -2, 0, -1, 5,-1.149293398514271,1.2708521971610662
1503699335863,+0.399,+0.372,-0.464,-0.698,+0.937,-0.134,-0.248,+0.688,-1.750,+10.938,-13, -2, 7, 3, 1, 0, -2, 2,-1.1490204221985627,1.270370311627754
1503699335886,+0.398,+0.373,-0.463,-0.699,+0.936,-0.144,-0.247,+0.125,-2.625,+9.688,-1, -4, -2, -2, 1, -1, -5, -7,-1.1487513321836853,1.2698934818188303
1503699335908,+0.397,+0.373,-0.462,-0.700,+0.936,-0.156,-0.267,-1.625,-4.188,+7.250,3, 4, -1, 1, 2, 0, 7, 3,-1.1467234471663288,1.2677391327214689
1503699335931,+0.396,+0.373,-0.462,-0.701,+0.938,-0.155,-0.260,-4.500,-1.750,+6.312,12, 5, -3, -4, -3, 1, 3, -7,-1.1450072738083545,1.2677928916774863
1503699335946,+0.395,+0.373,-0.462,-0.701,+0.969,-0.143,-0.252,-3.188,+2.188,+10.625,4, 5, 5, 2, 0, -1, -13, -11,-1.1429617592964387,1.2675674635961953
1503699335968,+0.393,+0.375,-0.461,-0.702,+0.975,-0.158,-0.236,+1.375,+3.250,+14.750,-5, -14, -5, 1, 1, -1, 1, 8,-1.1424273493928776,1.2685548509752622
1503699335983,+0.392,+0.376,-0.460,-0.702,+0.991,-0.151,-0.253,+3.500,-1.938,+11.625,-2, 0, 2, -3, -1, -2, 3, 2,-1.1418445000213606,1.2678117019036375
1503699336006,+0.392,+0.377,-0.458,-0.703,+0.944,-0.178,-0.272,+2.625,-6.938,+11.875,-7, -4, -4, -1, 1, -2, -1, -1,-1.1433174800497488,1.265377510356322
1503699336030,+0.391,+0.377,-0.457,-0.704,+0.954,-0.170,-0.257,-1.812,-6.688,+8.188,-4, -2, -2, -1, -2, -2, -5, 6,-1.1412897385650642,1.2632240931128809
1503699336043,+0.390,+0.378,-0.455,-0.706,+0.985,-0.188,-0.235,-0.625,-5.750,+13.625,5, 3, 0, -2, -1, -1, -5, 0,-1.1410529837448644,1.260855323478793
1503699336067,+0.388,+0.379,-0.454,-0.707,+0.967,-0.156,-0.242,-0.875,-2.812,+15.688,-19, -8, 0, -1, -1, -2, -2, -2,-1.138771764502377,1.2601761322052112
1503699336088,+0.387,+0.380,-0.453,-0.708,+0.951,-0.161,-0.260,+0.125,-4.125,+13.812,10, -1, -4, -2, -3, 3, 0, 1,-1.1385325505728787,1.25973632236907
1503699336104,+0.386,+0.380,-0.451,-0.709,+0.930,-0.190,-0.266,+0.125,-7.000,+14.125,6, 2, -5, -2, -1, -1, 4, -11,-1.136178265934628,1.255389160407341
1503699336125,+0.385,+0.381,-0.449,-0.711,+0.943,-0.204,-0.259,+0.125,-5.125,+15.188,-10, 3, 4, 1, -1, -2, -2, 1,-1.135945140009582,1.2530495936609505
1503699336148,+0.383,+0.382,-0.448,-0.711,+0.947,-0.188,-0.253,-1.375,+0.438,+13.812,-3, 0, 3, 0, 0, 1, -9, 2,-1.133347047583838,1.2520938146736815
1503699336164,+0.381,+0.384,-0.447,-0.712,+0.948,-0.202,-0.260,-1.812,+0.312,+17.125,-7, -6, -3, 1, 1, -2, 1, 1,-1.1328962352761138,1.253160363463099
1503699336186,+0.379,+0.385,-0.446,-0.714,+0.941,-0.209,-0.272,-2.875,+0.688,+17.750,1, -5, 4, 1, -1, 0, -1, 2,-1.1309809639175625,1.2527858839161954
1503699341691,+0.376,+0.385,-0.488,-0.687,+0.967,-0.157,-0.190,-2.625,-2.312,+3.312,10, 10, 5, 0, -5, 1, 1, 3,-1.1301718447584983,1.3383518268588581
1503699341713,+0.375,+0.385,-0.488,-0.688,+0.971,-0.166,-0.179,-2.750,-0.688,+4.188,-18, -12, -3, -1, 0, 1, 6, -11,-1.1285252654817544,1.3383999168686673
1503699341728,+0.375,+0.385,-0.488,-0.688,+0.967,-0.166,-0.179,+0.000,-2.188,+2.375,-11, -6, -7, -3, -1, -1, -6, 5,-1.1285252654817544,1.3383999168686673
1503699341750,+0.375,+0.385,-0.487,-0.688,+0.965,-0.162,-0.182,-0.938,-3.688,+1.875,1, 2, 4, 1, 1, -2, -4, -5,-1.128191032272575,1.3361537074742953
1503699341773,+0.375,+0.385,-0.487,-0.689,+0.950,-0.154,-0.186,-1.125,-1.438,+1.812,8, 5, 5, 0, 1, 0, -1, 1,-1.1285165900633727,1.336383181360861
1503699341788,+0.375,+0.385,-0.487,-0.689,+0.954,-0.155,-0.184,-0.688,+2.750,+0.938,6, 5, -3, -3, -3, -6, -12, -2,-1.1285165900633727,1.336383181360861
1503699341811,+0.375,+0.385,-0.487,-0.688,+0.967,-0.168,-0.171,-0.062,+2.812,+0.438,3, -1, -4, -2, -2, -3, -3, 0,-1.128191032272575,1.3361537074742953
1503699341833,+0.375,+0.385,-0.488,-0.688,+0.977,-0.167,-0.174,-1.562,+0.375,-1.688,7, 4, -2, 2, 1, 1, 2, 3,-1.1285252654817544,1.3383999168686673
1503699341848,+0.375,+0.385,-0.488,-0.688,+0.987,-0.149,-0.176,-2.000,-1.812,-2.188,-12, -4, 0, 0, 1, 1, 3, -2,-1.1285252654817544,1.3383999168686673
1503699341871,+0.376,+0.384,-0.488,-0.688,+0.979,-0.157,-0.180,-1.000,-3.375,-1.438,10, 4, 1, -1, 0, 6, 3, -6,-1.1286657422292494,1.3368879604241775
1503699341893,+0.376,+0.384,-0.487,-0.688,+0.966,-0.171,-0.182,-1.562,-3.875,-2.125,11, 13, 17, 8, 2, 2, 0, -2,-1.1283326039989334,1.3346412461753652
1503699341908,+0.376,+0.384,-0.487,-0.689,+0.973,-0.172,-0.169,-3.125,-3.750,-0.562,-8, -9, -5, -3, -1, -2, -6, -8,-1.1286588066283356,1.3348720837743677
1503699341930,+0.376,+0.383,-0.487,-0.689,+0.975,-0.155,-0.165,-4.750,-5.125,-2.688,0, -1, -5, -4, -3, -3, -12, 3,-1.1268315183486726,1.3331825510070405
1503699341953,+0.376,+0.382,-0.487,-0.690,+1.006,-0.145,-0.178,-5.500,-6.250,+0.562,4, 2, -1, -4, -3, 2, 8, -1,-1.12533548271947,1.331729495971523
1503699341971,+0.377,+0.380,-0.486,-0.691,+0.985,-0.146,-0.197,-5.500,-9.562,-0.188,-4, -7, -2, 2, -1, 0, -14, -1,-1.1236758015748383,1.3265397568468074
1503699341990,+0.377,+0.379,-0.485,-0.692,+0.964,-0.152,-0.190,-8.375,-13.312,-0.312,-14, -11, -2, 0, -1, -7, -5, 3,-1.12186185319532,1.3228532658665888
1503699342013,+0.377,+0.377,-0.484,-0.693,+0.948,-0.158,-0.190,-8.438,-8.562,+1.438,1, -2, -1, -3, -1, -7, 4, -4,-1.1182477906527997,1.317498859255592
1503699342028,+0.376,+0.376,-0.484,-0.694,+0.952,-0.154,-0.209,-9.125,-2.875,+2.938,-8, -2, 1, -1, -1, 1, -1, -9,-1.1147924538166063,1.3158841634655074
1503699342050,+0.375,+0.376,-0.485,-0.695,+0.950,-0.142,-0.206,-9.750,+0.938,+4.500,3, 0, 2, 2, 3, 1, -12, -19,-1.1134776153553314,1.3181934032754243
1503699342074,+0.374,+0.375,-0.485,-0.696,+0.978,-0.155,-0.197,-6.938,+1.188,+3.562,-4, -2, 0, -1, 1, 4, 7, 5,-1.1100304236624634,1.3165862798814214
1503699342088,+0.373,+0.375,-0.485,-0.696,+0.990,-0.157,-0.205,-5.562,-2.000,+2.375,0, 3, -5, -4, -3, -5, 1, 9,-1.1080470036479864,1.3163951123934614
1503699342111,+0.373,+0.374,-0.484,-0.697,+0.977,-0.149,-0.204,-5.562,-6.938,+3.375,-6, 4, 4, 5, 4, 1, 3, -4,-1.1062484370735006,1.3127252042046769
1503699342133,+0.373,+0.373,-0.483,-0.698,+0.955,-0.148,-0.220,-4.000,-8.500,+2.250,-11, -13, -4, 2, -2, -1, -2, 8,-1.1044545946314122,1.3090601897157876
1503699342148,+0.373,+0.373,-0.483,-0.699,+0.923,-0.153,-0.226,-3.562,-2.125,+1.000,0, -2, 0, -1, -1, 3, -1, 6,-1.1047944248716408,1.3093134309155239
1503699342172,+0.373,+0.373,-0.483,-0.699,+0.909,-0.156,-0.230,-2.750,+4.875,+0.688,-25, -4, 4, 1, 0, 1, 0, -5,-1.1047944248716408,1.3093134309155239
1503699342194,+0.372,+0.373,-0.485,-0.698,+0.945,-0.163,-0.217,-2.438,+10.312,+0.250,5, -11, -3, -1, -5, -8, 4, 15,-1.1031500402918815,1.313385571580084
1503699342209,+0.371,+0.374,-0.486,-0.697,+0.993,-0.148,-0.183,-2.000,+10.562,-0.375,21, 11, -6, -3, 0, 0, -3, 2,-1.1029654003279246,1.3168617634257829
1503699342230,+0.371,+0.374,-0.487,-0.696,+1.005,-0.155,-0.197,-0.062,+6.312,-0.438,1, 3, 1, -1, 1, 3, -6, -2,-1.1029681424162363,1.3188779846633079
1503699342253,+0.372,+0.374,-0.487,-0.696,+0.983,-0.157,-0.206,+0.312,-0.875,-1.500,-1, 1, 2, 2, 0, -3, -2, 5,-1.1049473153493532,1.319066835759311
1503699342269,+0.372,+0.374,-0.486,-0.697,+0.970,-0.157,-0.197,+0.312,-5.500,-1.625,-5, -1, 1, -1, -2, -3, -1, -5,-1.1049454955175295,1.317052078079598
1503699342290,+0.372,+0.374,-0.486,-0.697,+0.967,-0.159,-0.168,-1.312,-2.625,+0.000,5, 4, -1, -1, 1, 1, 2, -3,-1.1049454955175295,1.317052078079598
1503699342317,+0.372,+0.374,-0.487,-0.696,+0.967,-0.151,-0.186,-2.125,+3.000,+2.062,9, 6, -2, 0, 1, 1, -16, 3,-1.1049473153493532,1.319066835759311
1503699342328,+0.371,+0.374,-0.487,-0.696,+0.985,-0.140,-0.186,-2.938,+3.688,+3.562,-11, -6, -1, -1, 1, 6, 7, 10,-1.1029681424162363,1.3188779846633079
1503699342350,+0.371,+0.374,-0.487,-0.696,+0.994,-0.155,-0.189,-4.000,-0.500,+2.812,-17, -1, 1, 0, 0, -6, 1, -8,-1.1029681424162363,1.3188779846633079
1503699342373,+0.370,+0.373,-0.487,-0.697,+0.979,-0.164,-0.195,-4.875,-6.688,+2.688,-10, -6, 0, 0, 2, 0, -3, -1,-1.0995327305560294,1.317281349220922
1503699342388,+0.370,+0.373,-0.487,-0.698,+0.966,-0.164,-0.181,-7.500,-5.500,+3.312,-19, -11, -1, -1, 2, 2, -1, -2,-1.0998730254399687,1.31752876109031
1503699342410,+0.369,+0.372,-0.487,-0.699,+0.968,-0.160,-0.185,-9.500,-2.250,+4.375,1, 0, 0, 2, 1, 0, -1, 1,-1.0964436915645903,1.3159382256129908
1503699342433,+0.367,+0.372,-0.487,-0.700,+0.975,-0.159,-0.198,-9.625,+0.438,+7.188,-13, -10, -5, -3, -2, 0, 10, -4,-1.0928349060565674,1.31580690251027
1503699342449,+0.366,+0.371,-0.487,-0.701,+0.979,-0.162,-0.202,-10.688,-2.812,+6.500,-5, 1, 0, -2, -4, -8, 1, 10,-1.0894126186479907,1.314221148889605
1503699342470,+0.364,+0.370,-0.486,-0.703,+0.972,-0.171,-0.193,-12.250,-7.188,+6.312,7, -10, -13, -3, -2, 3, 1, 8,-1.0840173159365059,1.3104281011909522
1503699342495,+0.363,+0.368,-0.486,-0.704,+0.958,-0.165,-0.193,-12.562,-6.375,+5.500,-22, -10, 0, -3, 1, 0, -2, -1,-1.0788213284235486,1.3072149022571522
1503699342509,+0.362,+0.367,-0.486,-0.706,+0.956,-0.158,-0.208,-12.375,-2.812,+5.562,23, 0, 0, -1, -2, -4, -3, 9,-1.0757654118135276,1.305903867701875
1503699342530,+0.360,+0.366,-0.487,-0.707,+0.950,-0.151,-0.212,-12.875,-0.938,+5.375,-1, 2, 0, -1, 0, -2, -6, 13,-1.0707517628750354,1.3064260604831537
1503699342553,+0.359,+0.365,-0.487,-0.708,+0.961,-0.163,-0.214,-11.250,-1.562,+4.250,-1, -5, -1, -1, 2, 7, 5, 17,-1.0673593551253107,1.3048691955271903
1503699342569,+0.358,+0.364,-0.487,-0.709,+0.970,-0.172,-0.224,-10.312,-3.125,+4.438,3, -4, -7, -2, -6, -5, -1, 5,-1.063971632552695,1.3033170770790763
1503699342590,+0.357,+0.363,-0.487,-0.710,+0.975,-0.161,-0.217,-10.562,-2.750,+3.125,5, -10, -2, 3, 3, -1, -1, 2,-1.0605885978790217,1.301769726884848
1503699342613,+0.356,+0.362,-0.486,-0.711,+0.964,-0.162,-0.232,-10.062,-4.188,+3.938,-15, 7, 4, -1, -2, -3, -2, -28,-1.0568492787429495,1.297938212810683
1503699342628,+0.356,+0.361,-0.486,-0.712,+0.947,-0.161,-0.230,-8.312,-5.125,+3.812,-2, -1, 2, -1, 0, -1, 4, 7,-1.0554424060314185,1.2965968988801497
1503699342651,+0.355,+0.360,-0.485,-0.713,+0.945,-0.163,-0.227,-7.438,-5.750,+2.875,-8, 3, 4, 2, 1, -1, -7, 8,-1.0517093840714424,1.292771378883016
1503699342676,+0.355,+0.359,-0.485,-0.714,+0.955,-0.158,-0.224,-6.250,-3.438,+2.875,13, 11, 5, 1, -4, -13, -1, 3,-1.0503118369003037,1.2914409071073552
1503699342688,+0.354,+0.359,-0.485,-0.715,+0.958,-0.163,-0.224,-6.500,-0.812,+3.062,13, 2, -4, -2, 0, -1, 0, -4,-1.0487006417713778,1.2915113846654753
1503699342710,+0.353,+0.358,-0.486,-0.715,+0.972,-0.168,-0.220,-6.625,+0.500,+4.000,6, 7, 2, -1, -1, 0, -5, -27,-1.0453444099391793,1.2920084181479516
1503699342734,+0.352,+0.358,-0.486,-0.715,+0.985,-0.166,-0.212,-6.250,+1.438,+5.375,-13, -3, -3, -2, -3, 2, 0, -1,-1.0433782637122166,1.2918084017212814
1503699342749,+0.351,+0.358,-0.486,-0.716,+0.989,-0.163,-0.213,-6.562,-0.438,+6.500,23, 4, -3, -3, 0, 0, 4, 6,-1.0417733234536743,1.291879948070097
1503699342770,+0.350,+0.358,-0.485,-0.717,+0.974,-0.161,-0.224,-7.125,-5.438,+7.188,4, 6, 0, 0, 1, 3, 6, 23,-1.039802136806028,1.2896547463436336
1503699342793,+0.349,+0.357,-0.485,-0.718,+0.965,-0.170,-0.218,-7.375,-7.062,+7.938,4, 1, 2, 1, 2, 19, -1, 3,-1.0364483988120925,1.288134474922459
1503699342810,+0.347,+0.357,-0.484,-0.720,+0.949,-0.171,-0.225,-8.250,-5.062,+8.188,-2, -3, -1, -2, -4, -8, -3, -17,-1.0328768509370174,1.2859808993069244
1503699342830,+0.346,+0.356,-0.484,-0.721,+0.948,-0.176,-0.233,-9.062,-2.125,+8.062,12, -2, 0, 0, 2, -6, -6, 27,-1.029529987527918,1.2844655727710215
1503699342853,+0.344,+0.356,-0.484,-0.722,+0.953,-0.177,-0.229,-9.250,+0.250,+8.312,-8, 3, 6, 4, 1, -3, 1, 11,-1.025975402300052,1.284334677822023
1503699342869,+0.343,+0.355,-0.484,-0.723,+0.963,-0.179,-0.232,-9.688,-1.938,+7.688,-3, 4, -5, -5, -3, -1, 4, -8,-1.0226354114589713,1.2828248292181839
1503699342890,+0.341,+0.354,-0.483,-0.724,+0.966,-0.184,-0.226,-11.312,-4.188,+6.688,-5, -11, -9, -2, -5, -5, -4, -23,-1.016966397479246,1.278806796509449
1503699342914,+0.340,+0.353,-0.483,-0.726,+0.965,-0.191,-0.218,-12.812,-7.188,+6.812,-15, -8, -2, -2, 3, 1, 1, -2,-1.0140011493771586,1.2775889302775396
1503699342929,+0.338,+0.352,-0.482,-0.727,+0.958,-0.188,-0.238,-12.688,-5.875,+8.375,7, 9, 3, -1, -3, -6, -3, -1,-1.0083402658006355,1.2735739855439359
1503699342950,+0.336,+0.351,-0.482,-0.729,+0.957,-0.177,-0.247,-11.125,-5.188,+9.875,5, -5, -2, -2, 1, 0, 6, 6,-1.003434408218625,1.2721597993903424
1503699342973,+0.335,+0.350,-0.481,-0.730,+0.955,-0.177,-0.229,-10.688,-5.875,+8.688,-1, -9, 1, 3, 1, 2, 0, 9,-0.9997343096551224,1.2683584007077362
1503699342989,+0.334,+0.350,-0.481,-0.732,+0.943,-0.192,-0.230,-9.875,-7.625,+6.562,-2, -2, -5, -2, -2, -2, -5, -6,-0.9985199281222324,1.268729473319499
1503699343014,+0.333,+0.349,-0.480,-0.733,+0.923,-0.200,-0.238,-8.938,-6.625,+3.500,-5, -1, -3, -1, -2, 0, -4, -8,-0.9948240202835619,1.2649339177647743
1503699343033,+0.332,+0.348,-0.480,-0.734,+0.921,-0.192,-0.245,-8.000,-2.375,+2.250,1, -3, -3, -1, -2, -12, 4, 2,-0.9915189924607105,1.263456551584481
1503699343052,+0.332,+0.347,-0.480,-0.734,+0.927,-0.191,-0.261,-5.500,+1.875,+0.062,4, 2, 1, 0, 0, 0, -1, 0,-0.9897984993854376,1.2619020531540743
1503699343071,+0.332,+0.347,-0.480,-0.734,+0.942,-0.186,-0.266,-3.250,-0.250,-2.062,1, 13, -1, -1, 1, 7, 2, -4,-0.9897984993854376,1.2619020531540743
1503699343093,+0.333,+0.346,-0.480,-0.734,+0.948,-0.192,-0.258,-2.000,-7.375,-5.812,2, 2, 3, -1, -1, 0, -1, 0,-0.9900347586192363,1.2605660505148062
1503699343109,+0.335,+0.344,-0.479,-0.735,+0.938,-0.204,-0.252,-2.562,-11.500,-9.125,4, -6, -4, 0, -1, -1, -5, -7,-0.9905170003184322,1.2558893306641954
1503699343131,+0.336,+0.343,-0.478,-0.735,+0.937,-0.190,-0.260,-1.500,-8.812,-9.875,-15, -8, 0, -1, 0, 2, -2, -3,-0.9903926991529962,1.2522492866689678
1503699343154,+0.338,+0.342,-0.478,-0.735,+0.923,-0.173,-0.284,-0.250,-3.188,-10.438,-2, -4, -2, -2, 0, -2, 1, 5,-0.992625910962229,1.2511482170125168
1503699343170,+0.340,+0.341,-0.478,-0.735,+0.939,-0.182,-0.292,-1.938,-4.375,-11.188,-4, -3, -6, -2, -2, -1, 1, 5,-0.994871908476099,1.2500508810964548
1503699343191,+0.341,+0.339,-0.478,-0.735,+0.958,-0.175,-0.281,-3.750,-7.250,-9.062,-5, 0, 3, 2, 0, 0, 2, 0,-0.9934712357293534,1.2472119276521125
1503699343214,+0.342,+0.338,-0.478,-0.735,+0.968,-0.139,-0.283,-2.875,-6.312,-6.625,-1, -5, -3, -2, -1, 6, 3, 6,-0.9937661232530817,1.245907244145693
1503699343229,+0.344,+0.336,-0.477,-0.735,+0.970,-0.130,-0.277,-1.562,-5.750,-5.062,12, 6, -2, -3, -1, -5, -9, -17,-0.9940039654861187,1.2409938936704972
1503699343251,+0.344,+0.335,-0.477,-0.736,+0.958,-0.149,-0.284,-2.312,-4.812,-3.625,-2, -3, -1, -2, -1, -1, 3, 8,-0.9927162523286287,1.2397937489807922
1503699343273,+0.345,+0.335,-0.477,-0.736,+0.971,-0.146,-0.280,-3.312,-4.500,-0.688,-10, -11, -2, 1, 1, 0, -1, -1,-0.9947011016077003,1.2400144082831928
1503699343295,+0.345,+0.334,-0.477,-0.736,+0.981,-0.128,-0.268,-2.625,-4.875,+3.000,11, 7, 5, 1, 0, -1, -1, -17,-0.9930370913222374,1.2385045686554268
1503699343313,+0.344,+0.334,-0.476,-0.737,+0.990,-0.120,-0.279,-0.750,-4.875,+6.938,-12, -10, -5, 1, 0, 0, 0, 8,-0.9910624046945263,1.2362843727598658
1503699343334,+0.344,+0.335,-0.475,-0.738,+0.981,-0.130,-0.301,+0.688,-5.562,+11.625,2, 7, 3, -1, -2, -3, -3, -4,-0.9927361979305009,1.2357988813595027
1503699343355,+0.342,+0.336,-0.473,-0.739,+0.982,-0.161,-0.298,+2.312,-5.125,+16.625,1, 1, -2, 0, -1, 0, -1, 1,-0.9900668220669785,1.232560375309103
1503699343371,+0.340,+0.338,-0.471,-0.741,+0.982,-0.182,-0.286,+2.688,-6.625,+21.688,7, 3, 6, 1, 3, 0, 0, 7,-0.9894507974342117,1.2311690005273817
1503699343393,+0.338,+0.340,-0.469,-0.742,+0.988,-0.186,-0.270,+2.812,-6.625,+26.875,-1, 4, -1, -1, -2, -2, -2, -1,-0.9884647783804619,1.2294763310368224
1503699349702,+0.231,+0.315,-0.508,-0.768,+0.914,-0.251,-0.225,-17.812,-14.000,-11.188,-12, 0, 3, -2, -3, -2, -7, -34,-0.7708177311925868,1.2717499395664176
1503699349716,+0.232,+0.311,-0.508,-0.769,+0.906,-0.238,-0.254,-19.062,-11.250,-10.188,-2, -2, -4, -5, -3, 0, -3, -3,-0.7663598851260255,1.2667529211605184
1503699349738,+0.231,+0.308,-0.508,-0.771,+0.927,-0.246,-0.227,-22.125,-7.688,-8.375,-9, -8, -5, 1, 2, 2, 0, -10,-0.7603283810906759,1.2631117405723538
1503699349760,+0.231,+0.304,-0.509,-0.772,+0.945,-0.241,-0.227,-22.688,-4.062,-8.438,-6, -12, -6, -4, -2, 1, 2, 6,-0.7546276122460386,1.2605295210050051
1503699349776,+0.230,+0.300,-0.510,-0.773,+0.966,-0.229,-0.256,-22.812,-4.062,-7.625,-10, -5, -1, 3, 1, 0, -7, -15,-0.7471694030741144,1.2578336001376682
1503699349798,+0.229,+0.296,-0.510,-0.774,+0.983,-0.209,-0.254,-25.062,-7.750,-5.625,-2, 0, 0, 1, -1, -1, -1, 7,-0.7393114479089169,1.2527292170501287
1503699349820,+0.229,+0.292,-0.511,-0.776,+0.949,-0.197,-0.251,-24.750,-6.812,-6.250,19, 4, -1, -1, -1, -5, -5, -3,-0.7341105692536066,1.2507033400249095
1503699349836,+0.228,+0.288,-0.511,-0.777,+0.937,-0.205,-0.257,-24.000,-10.562,-6.500,8, 7, 3, -3, -2, -4, 0, 6,-0.726360039286561,1.245746706865365
1503699349859,+0.228,+0.284,-0.510,-0.780,+0.937,-0.217,-0.271,-24.500,-14.750,-7.062,-23, -5, -3, -1, -2, 0, 2, 13,-0.7207385558038875,1.2392329126411556
1503699349881,+0.227,+0.279,-0.509,-0.782,+0.936,-0.207,-0.287,-24.875,-16.312,-8.375,2, -2, -2, -1, 0, 3, 3, -6,-0.7114844774680502,1.231038953298052
1503699349902,+0.227,+0.275,-0.508,-0.784,+0.924,-0.186,-0.318,-23.562,-11.750,-7.062,-4, 2, 1, 2, 0, -2, 1, -5,-0.7056590072071577,1.2243569442281226
1503699349918,+0.227,+0.271,-0.508,-0.785,+0.929,-0.148,-0.324,-20.312,-5.750,-4.875,5, 2, 1, -3, -2, -3, -6, -17,-0.6999681609203434,1.219888935958986
1503699349940,+0.226,+0.268,-0.509,-0.786,+0.916,-0.150,-0.315,-15.812,-0.938,-3.938,5, -2, -2, -2, -1, -4, -3, -5,-0.6944220615987541,1.2189823837928984
1503699349956,+0.226,+0.266,-0.509,-0.787,+0.908,-0.169,-0.327,-12.250,-0.688,-3.312,14, -3, -3, -1, 0, -2, -4, 1,-0.6917909180667098,1.2169809540529468
1503699349978,+0.226,+0.265,-0.510,-0.787,+0.919,-0.176,-0.311,-8.938,+2.375,-5.250,4, -3, -4, -2, 0, 4, 5, 14,-0.6907190173856036,1.2183078649854453
1503699350007,+0.226,+0.263,-0.511,-0.786,+0.948,-0.164,-0.309,-6.688,+4.375,-4.188,-12, -6, -1, 0, -2, 0, -3, -5,-0.6878086522488402,1.2181173406212356
1503699350016,+0.226,+0.263,-0.512,-0.786,+0.960,-0.160,-0.318,-2.562,+5.875,-2.938,-9, 4, -2, -1, 0, -1, 0, 2,-0.6882219452118036,1.2206219264399705
1503699350038,+0.227,+0.263,-0.513,-0.785,+0.955,-0.154,-0.316,+1.500,+5.375,-2.562,1, 11, 17, 4, -1, 0, 1, 7,-0.6900977921094038,1.2229532184145353
1503699350062,+0.228,+0.263,-0.512,-0.785,+0.962,-0.139,-0.324,+8.000,-0.438,-1.688,-3, 13, 14, 4, 0, -1, 3, 0,-0.6915052354070134,1.2206316938427646
1503699350076,+0.230,+0.265,-0.512,-0.784,+0.933,-0.140,-0.329,+14.938,+1.312,-1.375,3, -6, -13, -4, -3, -3, -3, -6,-0.6977646255646605,1.222979207443108
1503699350098,+0.231,+0.268,-0.511,-0.783,+0.913,-0.183,-0.312,+18.000,+5.562,+3.500,-3, -2, 4, 2, 1, 0, -4, -9,-0.7032974842660711,1.2238476130454135
1503699350120,+0.232,+0.271,-0.511,-0.782,+0.928,-0.199,-0.306,+17.125,+10.938,+6.188,2, -5, -4, -1, -2, -9, -4, -3,-0.7092721705820947,1.227257172828002
1503699350136,+0.232,+0.275,-0.512,-0.780,+0.943,-0.202,-0.275,+15.625,+14.062,+5.562,-3, -7, -8, -5, -3, 2, 2, -4,-0.7150389441450453,1.233881095450556
1503699350161,+0.232,+0.277,-0.513,-0.779,+0.972,-0.192,-0.250,+14.188,+6.562,+3.875,2, -9, -9, -3, -4, -7, -5, -4,-0.7181594827759793,1.2384679581082958
1503699350180,+0.233,+0.279,-0.513,-0.778,+0.973,-0.192,-0.226,+11.250,+1.875,+3.250,-8, -6, -6, -2, -2, 0, -9, -4,-0.7226886109011591,1.2407635141354112
1503699350196,+0.233,+0.281,-0.513,-0.777,+0.957,-0.212,-0.216,+8.188,+0.375,+2.250,-4, -3, -3, -3, 0, -3, -4, -5,-0.725413329298085,1.24289395708433
1503699350218,+0.233,+0.283,-0.513,-0.776,+0.943,-0.233,-0.225,+3.750,+1.375,+1.938,-13, -7, -3, -2, -1, -1, -3, -26,-0.7281523859966782,1.2450433996936927
1503699350240,+0.232,+0.283,-0.513,-0.776,+0.945,-0.231,-0.227,-2.000,+0.500,+2.000,13, 1, -4, -2, 0, 2, 5, 14,-0.7263375821330333,1.2448583880401058
1503699350256,+0.232,+0.282,-0.513,-0.777,+0.953,-0.225,-0.218,-8.500,-3.312,-1.875,10, 6, 2, 1, 1, 3, 4, 11,-0.7251428438983827,1.2439495910536664
1503699350279,+0.231,+0.281,-0.514,-0.777,+0.962,-0.222,-0.208,-14.000,-5.438,-2.625,-1, -6, -3, -2, 1, -1, -4, 6,-0.7222130614734898,1.2450192343511968
1503699350300,+0.230,+0.278,-0.514,-0.778,+0.939,-0.208,-0.237,-17.500,-7.625,-3.250,5, 3, 2, 0, 1, -2, -4, -2,-0.7161328174095692,1.2414795432765404
1503699350323,+0.230,+0.275,-0.514,-0.780,+0.936,-0.167,-0.277,-16.812,-9.375,-5.438,-1, -2, -2, 0, 1, -4, -2, -17,-0.7122507058211199,1.2385050950064105
1503699350338,+0.231,+0.272,-0.513,-0.781,+0.920,-0.164,-0.311,-15.062,-12.062,-7.375,11, 1, 0, 2, 1, 6, 14, 14,-0.7094431407392718,1.2329163737836408
1503699350362,+0.231,+0.269,-0.511,-0.783,+0.917,-0.209,-0.327,-14.562,-12.500,-6.125,19, 14, 8, -1, -4, -3, -1, 8,-0.7047975408624094,1.2250353070887912
1503699350376,+0.231,+0.266,-0.511,-0.784,+0.923,-0.179,-0.296,-15.250,-9.688,-5.000,-7, -8, -8, -2, 1, 0, -3, 6,-0.7006659006223291,1.2218388851326591
1503699350400,+0.230,+0.263,-0.511,-0.785,+0.956,-0.177,-0.272,-15.688,-8.812,-4.438,0, -5, -1, -2, -2, -4, -4, -16,-0.694739056978844,1.2184972840891408
1503699350420,+0.230,+0.261,-0.510,-0.787,+0.977,-0.162,-0.302,-14.812,-9.750,-1.125,-4, -5, 0, -1, -1, 0, 0, 3,-0.6920916264229774,1.214395297238899
1503699350437,+0.230,+0.259,-0.510,-0.788,+0.953,-0.133,-0.310,-12.125,-8.312,-1.938,-11, 0, -1, 2, -1, -2, -3, 14,-0.6895092533954604,1.2124527291009397
1503699350458,+0.229,+0.257,-0.509,-0.789,+0.924,-0.146,-0.308,-8.438,-5.562,+2.375,0, 6, 9, 2, 1, 3, 1, 5,-0.6847072337263315,1.2078438871726582
1503699350480,+0.228,+0.257,-0.509,-0.789,+0.923,-0.160,-0.317,-8.000,+0.375,+6.750,-1, 16, 16, 2, 2, -1, -2, -25,-0.6828789825724417,1.207658545030905
1503699350498,+0.226,+0.256,-0.510,-0.790,+0.921,-0.163,-0.309,-8.812,+5.375,+7.812,-9, -8, -8, -2, -1, -2, -6, -16,-0.6785299224233743,1.2090217265128422
1503699350519,+0.224,+0.256,-0.511,-0.789,+0.937,-0.171,-0.295,-8.125,+7.188,+7.625,-14, -11, -5, -1, -1, 1, 3, -12,-0.6749338571659758,1.2107947490069377
1503699350540,+0.223,+0.256,-0.511,-0.790,+0.954,-0.174,-0.296,-7.250,+1.500,+5.375,1, -1, -1, -2, 1, -2, -4, 1,-0.6734685809907812,1.210977217834559
1503699350556,+0.222,+0.256,-0.511,-0.790,+0.939,-0.185,-0.300,-6.375,-3.500,+2.312,19, 2, -6, -3, -1, -1, 0, 12,-0.6716495598530137,1.2107940330944877
1503699350578,+0.222,+0.255,-0.509,-0.792,+0.935,-0.192,-0.316,-6.125,-10.562,+0.500,-5, -4, -6, -1, -2, -4, 0, 10,-0.6700855264030832,1.2053826847626161
1503699350601,+0.222,+0.253,-0.508,-0.793,+0.919,-0.172,-0.332,-5.000,-10.250,-0.625,-1, 1, 1, 0, -2, -1, 0, -7,-0.6671334089685453,1.2009972085101728
1503699350617,+0.222,+0.253,-0.507,-0.794,+0.916,-0.152,-0.321,-4.688,-6.062,+0.312,1, -2, -3, -1, -1, -2, -10, 0,-0.6670839325863358,1.198865249831102
1503699350639,+0.223,+0.252,-0.506,-0.794,+0.936,-0.150,-0.329,-1.750,-4.125,+1.938,-3, -2, -2, 0, 2, 0, -7, -16,-0.6670643816135661,1.1954281310595416
1503699350661,+0.223,+0.253,-0.506,-0.794,+0.951,-0.152,-0.330,+2.938,-1.625,+2.938,32, 6, -5, -3, -2, -3, 1, 10,-0.6685067886390089,1.1965486741804712
1503699350676,+0.223,+0.253,-0.505,-0.795,+0.956,-0.179,-0.326,+5.125,-7.062,+3.125,-3, -2, 1, 0, -1, 0, 4, 3,-0.6684589568998246,1.1944228339489338
1503699350701,+0.224,+0.254,-0.503,-0.795,+0.961,-0.189,-0.319,+6.188,-9.125,+3.938,7, 2, 0, 2, 0, -2, -2, -8,-0.6709243413490656,1.1907380678016988
1503699356023,+0.203,+0.259,-0.533,-0.780,+0.962,-0.163,-0.266,-10.812,-3.938,-12.875,-1, -3, 1, 2, 1, -1, -1, 2,-0.6477429383022404,1.2630925167025449
1503699356044,+0.204,+0.256,-0.533,-0.781,+0.906,-0.161,-0.283,-10.625,-4.562,-13.938,3, -5, -5, -1, -2, 2, -2, 2,-0.6453492318020215,1.2602107944134644
1503699356068,+0.206,+0.252,-0.533,-0.781,+0.915,-0.158,-0.260,-9.312,-6.062,-19.312,-5, -15, -11, -6, -4, -1, 2, -1,-0.642943803479322,1.2560875748157274
1503699356083,+0.210,+0.249,-0.533,-0.781,+0.955,-0.142,-0.258,-6.312,-9.438,-24.125,-5, -8, -2, 0, -2, -3, -3, -5,-0.6456144354413534,1.253426998777473
1503699356105,+0.213,+0.246,-0.532,-0.782,+0.982,-0.146,-0.249,-5.875,-15.875,-23.062,0, 1, 1, -3, -2, -2, 0, 1,-0.6465013744211027,1.24843234860955
1503699356121,+0.216,+0.242,-0.531,-0.783,+0.970,-0.148,-0.265,-7.562,-22.312,-18.750,5, 9, 10, 4, 3, 2, 2, 5,-0.6460010934718061,1.2424073858928821
1503699356144,+0.218,+0.239,-0.529,-0.784,+0.927,-0.129,-0.291,-9.562,-15.688,-14.875,4, 0, 1, -2, 0, -1, -2, 2,-0.6448381074657886,1.2347996884806902
1503699356164,+0.220,+0.236,-0.529,-0.785,+0.917,-0.118,-0.293,-10.062,-8.000,-16.938,-2, -4, -7, -4, -4, -2, 0, -2,-0.6444961622720846,1.232314448239678
1503699356181,+0.222,+0.233,-0.530,-0.785,+0.958,-0.120,-0.281,-9.812,-3.000,-17.875,-2, -5, -2, -3, -2, -2, -1, 2,-0.6442106724155338,1.2320482787130527
1503699356210,+0.223,+0.230,-0.530,-0.785,+0.999,-0.104,-0.287,-9.375,-5.562,-16.312,-5, 8, -2, -5, -5, -2, -3, -7,-0.6417703057034039,1.2291149841874558
1503699356225,+0.225,+0.227,-0.530,-0.786,+0.993,-0.089,-0.288,-8.625,-14.312,-14.438,8, 0, -6, -8, -11, -7, -5, -2,-0.6415283895278402,1.226727163482054
1503699356241,+0.228,+0.224,-0.528,-0.787,+0.964,-0.086,-0.301,-5.812,-21.500,-11.812,-11, -4, 3, 10, -2, 0, 0, 0,-0.6424191944194357,1.2194452374501066
1503699356263,+0.229,+0.221,-0.526,-0.789,+0.924,-0.105,-0.307,-5.312,-18.500,-11.125,-4, -4, 0, -2, 2, -1, 1, 0,-0.6401032220025035,1.2122622143284028
1503699356285,+0.230,+0.220,-0.525,-0.790,+0.919,-0.124,-0.300,-7.312,-10.812,-9.188,-2, -1, -5, 1, 4, 5, 8, -1,-0.6405651455432256,1.2092614292282937
1503699356303,+0.231,+0.218,-0.525,-0.790,+0.966,-0.117,-0.302,-8.125,-4.062,-6.062,1, 3, 8, 2, -1, 0, 1, 2,-0.6396475207156445,1.2074427460283934
1503699356323,+0.231,+0.216,-0.525,-0.790,+0.992,-0.094,-0.311,-8.062,-4.312,-7.250,3, -2, -6, -5, -3, 0, 1, 5,-0.636912931551576,1.2054817797669386
1503699356346,+0.232,+0.214,-0.524,-0.791,+0.973,-0.094,-0.320,-7.000,-9.062,-7.000,-1, -2, 1, 2, 0, 1, 2, 9,-0.6360476529559327,1.2015301271176857
1503699356361,+0.233,+0.213,-0.523,-0.792,+0.946,-0.103,-0.309,-5.312,-11.875,-4.875,3, 9, 2, 4, 3, 2, -4, -8,-0.6365567452912876,1.1985614698907001
1503699356383,+0.233,+0.212,-0.522,-0.792,+0.921,-0.105,-0.304,-6.250,-6.062,-4.500,3, -4, -3, -3, 1, -1, -1, -1,-0.6348617623378349,1.195059915790089
1503699356405,+0.233,+0.210,-0.523,-0.793,+0.930,-0.094,-0.299,-8.062,-2.750,-5.875,6, 6, 4, -2, -1, -2, -2, 0,-0.6328852660387932,1.1960604774900627
1503699356421,+0.233,+0.209,-0.523,-0.793,+0.970,-0.083,-0.307,-8.000,-0.875,-4.500,2, 3, 3, 0, -3, -3, -1, -4,-0.6315411016888944,1.1951065937615597
1503699356443,+0.233,+0.208,-0.523,-0.793,+0.964,-0.068,-0.336,-5.875,-1.062,-2.375,3, 1, -2, -4, -2, -2, 0, 1,-0.6301994621021695,1.1941562023680732
1503699356465,+0.234,+0.207,-0.523,-0.793,+0.934,-0.061,-0.332,-1.625,-5.125,-1.250,-6, -6, -5, -4, -3, -4, 1, 0,-0.6306987682689188,1.193362472120991
1503699356481,+0.235,+0.207,-0.522,-0.794,+0.938,-0.084,-0.320,+1.312,-7.375,-1.688,2, 0, -1, 4, -2, 1, -2, -3,-0.6325842174977311,1.1913667123029161
1503699356504,+0.235,+0.207,-0.521,-0.794,+0.954,-0.104,-0.313,+0.312,-7.500,-2.750,-8, -3, -4, -3, -2, 2, 1, 3,-0.6322491424016852,1.188831889542065
1503699356525,+0.236,+0.207,-0.520,-0.795,+0.954,-0.098,-0.325,-0.750,-6.875,-2.062,-1, -2, -6, -5, 0, -2, -3, 2,-0.634139927761228,1.186844220270599
1503699356542,+0.236,+0.206,-0.519,-0.795,+0.926,-0.087,-0.348,-1.562,-3.500,-1.938,-8, -11, -11, -7, -6, -7, -5, -11,-0.6324749863871089,1.1833663235637313
1503699356563,+0.237,+0.206,-0.519,-0.795,+0.928,-0.080,-0.340,+0.188,-2.375,-2.188,-3, -2, 0, 0, -3, -2, -3, -1,-0.6343228054101837,1.1835225022124773
1503699356585,+0.238,+0.206,-0.519,-0.795,+0.955,-0.068,-0.337,+4.250,-1.938,-3.625,0, 1, 2, 2, 6, 3, 2, 1,-0.6361723399685731,1.1836785613476282
1503699356601,+0.240,+0.207,-0.518,-0.794,+0.957,-0.053,-0.357,+8.625,-2.125,-6.250,5, 3, 4, 0, -1, 5, 8, 4,-0.640487345834217,1.1820176745641098
1503699356623,+0.242,+0.207,-0.517,-0.794,+0.948,-0.043,-0.361,+12.688,-4.500,-6.625,-6, 1, 6, 3, 0, -4, -1, 1,-0.6438650955195848,1.1798060576062095
1503699356645,+0.245,+0.209,-0.516,-0.794,+0.941,-0.057,-0.352,+15.875,-6.062,-4.625,17, 6, -1, -1, 3, 0, -5, -1,-0.6517720017386515,1.179675639846921
1503699356661,+0.247,+0.211,-0.515,-0.794,+0.947,-0.077,-0.329,+17.438,-4.062,-1.750,-4, -4, -2, -3, -5, -2, -2, 1,-0.6578334811390992,1.1794117921714626
1503699356684,+0.249,+0.213,-0.514,-0.793,+0.944,-0.078,-0.335,+15.938,-0.125,-1.500,-6, -2, 2, 1, -3, -1, 2, -7,-0.6635141950672726,1.1787791869422264
1503699356708,+0.250,+0.215,-0.514,-0.792,+0.940,-0.078,-0.334,+13.312,+1.062,+1.062,-10, -11, 3, 1, 1, 1, -1, 2,-0.6676730139135753,1.1805192581247994
1503699356721,+0.250,+0.217,-0.513,-0.792,+0.945,-0.087,-0.322,+11.500,-1.125,+5.562,2, 3, 1, 1, -3, -3, -1, 2,-0.6700255800317062,1.1799935959911638
1503699356745,+0.250,+0.220,-0.512,-0.792,+0.943,-0.095,-0.330,+9.688,+0.688,+8.938,-5, 0, -1, 1, 5, 3, 1, 1,-0.6737371973362767,1.1804925133200574
1503699356765,+0.249,+0.222,-0.512,-0.792,+0.957,-0.099,-0.343,+6.250,+1.125,+12.500,11, 4, -4, -2, -1, -1, 0, -1,-0.6745840579712182,1.1823469719816406
1503699356781,+0.247,+0.224,-0.511,-0.792,+0.961,-0.105,-0.317,+4.500,-0.562,+14.438,-4, 1, -4, 0, 0, 1, -3, -6,-0.6732273272720787,1.1815379519490767
1503699356803,+0.246,+0.226,-0.511,-0.792,+0.949,-0.117,-0.287,+3.375,+3.125,+12.438,2, 0, 2, 0, -3, 3, 7, 5,-0.6740994720440928,1.183417440551904
1503699356825,+0.245,+0.228,-0.513,-0.791,+0.947,-0.110,-0.287,+2.562,+13.062,+7.375,0, 1, -3, -2, -1, -3, -3, -2,-0.6753161872676123,1.189935568723256
1503699356842,+0.244,+0.229,-0.515,-0.789,+0.960,-0.099,-0.291,+4.875,+17.875,+2.438,3, -1, -1, -2, 2, -3, -4, -3,-0.674792169171774,1.195055728298617
1503699356864,+0.245,+0.231,-0.517,-0.787,+0.955,-0.090,-0.324,+8.938,+15.000,-2.500,11, 9, 16, 5, 1, -3, -5, -6,-0.6793775600991332,1.2015739289146097
1503699356886,+0.247,+0.232,-0.517,-0.786,+0.942,-0.100,-0.353,+11.062,+7.750,-4.750,-5, -14, -12, -4, -8, -9, -8, -1,-0.6840933803651795,1.2025822010588512
1503699356901,+0.248,+0.233,-0.517,-0.785,+0.897,-0.117,-0.340,+9.250,+3.625,-5.562,10, 4, -3, -1, 0, -2, -5, -9,-0.6869596615654916,1.203428686883187
1503699356923,+0.249,+0.234,-0.517,-0.785,+0.913,-0.125,-0.309,+5.500,-0.250,-1.250,0, 3, 1, 2, 4, 3, 4, 7,-0.6902152573142373,1.2046538049285214
1503699356946,+0.248,+0.235,-0.516,-0.785,+0.945,-0.151,-0.296,+2.500,-2.688,+4.375,1, -8, -3, 0, -1, 6, 4, 4,-0.6893984818317613,1.2030373294774541
1503699356961,+0.248,+0.236,-0.516,-0.786,+0.942,-0.140,-0.291,-0.688,-1.750,+5.812,-1, 3, 2, -3, -2, -2, -2, 5,-0.6911880684503064,1.2044740738576363
1503699356984,+0.247,+0.236,-0.516,-0.786,+0.927,-0.115,-0.292,-0.938,-0.938,+2.625,7, 8, 4, 2, -4, 0, 5, 4,-0.6893335713368606,1.204303944160143
1503699357010,+0.248,+0.236,-0.516,-0.785,+0.940,-0.104,-0.292,+0.312,+0.750,-5.062,8, -1, -6, -5, -2, -8, -5, -5,-0.6908033428571353,1.2041018995629322
1503699362405,+0.389,+0.406,-0.475,-0.676,+0.950,-0.184,-0.185,-2.812,-0.938,-1.438,10, 12, 9, 7, 1, 1, 1, 0,-1.187423429603101,1.3459948650649594
1503699362428,+0.389,+0.406,-0.476,-0.676,+0.958,-0.178,-0.163,-3.000,-0.125,-2.250,-5, -6, -3, -2, -2, -2, 0, 4,-1.187732179736015,1.3481861200678882
1503699362450,+0.390,+0.405,-0.476,-0.676,+0.987,-0.161,-0.171,-1.750,-1.812,-2.062,-3, 1, -2, -1, -1, -5, -2, -10,-1.18782377735151,1.3465857356751223
1503699362465,+0.391,+0.405,-0.476,-0.676,+0.990,-0.160,-0.169,-0.250,-2.875,-2.750,-18, -5, -4, -5, -5, -2, -2, -10,-1.1898079889313948,1.346768594495921
1503699362488,+0.391,+0.405,-0.476,-0.676,+0.977,-0.161,-0.165,-0.312,-1.188,-1.375,-1, 1, 2, -1, -1, 0, -1, 1,-1.1898079889313948,1.346768594495921
1503699362510,+0.391,+0.405,-0.476,-0.676,+0.985,-0.156,-0.172,-0.875,+0.375,+1.938,1, -5, -2, -2, -2, -1, -3, -3,-1.1898079889313948,1.346768594495921
1503699362526,+0.390,+0.405,-0.476,-0.676,+0.987,-0.160,-0.171,-1.000,+1.500,+5.438,7, 19, 4, 1, 0, 2, 0, -1,-1.18782377735151,1.3465857356751223
1503699362549,+0.390,+0.406,-0.476,-0.676,+0.982,-0.178,-0.151,-1.500,-0.062,+4.875,-11, -5, -7, 0, 0, -3, -1, 3,-1.1897134782349474,1.3483682155125363
1503699362570,+0.389,+0.406,-0.476,-0.677,+0.977,-0.192,-0.160,-3.438,+0.750,+5.938,0, -3, -4, -4, -1, -4, -3, -4,-1.1880275587540334,1.3483995816714225
1503699362586,+0.387,+0.406,-0.476,-0.677,+0.943,-0.175,-0.174,-5.312,+2.375,+5.562,8, 1, 1, 1, -2, -7, -2, 0,-1.184069933300804,1.348035198505445
1503699362608,+0.386,+0.407,-0.476,-0.677,+0.939,-0.192,-0.174,-4.750,+6.500,+4.812,-10, -4, 2, 0, 0, 2, 1, -1,-1.183991043579094,1.3496400446249155
1503699362630,+0.385,+0.407,-0.477,-0.678,+0.959,-0.195,-0.174,-5.625,+4.125,+1.938,-10, -5, 3, 0, 0, 1, 1, -1,-1.182627238371096,1.351863628358736
1503699362644,+0.385,+0.406,-0.477,-0.678,+0.975,-0.184,-0.167,-5.312,-0.438,-1.375,-6, -3, 0, -2, 0, 0, -2, 0,-1.1807293160175922,1.350079383403032
1503699362667,+0.385,+0.405,-0.477,-0.678,+0.954,-0.181,-0.163,-4.062,-2.125,-4.500,-7, -9, -5, 1, 0, 0, 4, 9,-1.1788341346638969,1.3482976724238658
1503699362690,+0.386,+0.404,-0.477,-0.678,+0.962,-0.181,-0.176,-1.875,-4.562,-6.562,10, 4, -2, -3, -4, -5, -2, 1,-1.1789188718990646,1.3467012605815103
1503699362704,+0.388,+0.403,-0.477,-0.678,+0.962,-0.164,-0.176,-2.062,-3.812,-7.188,2, 5, 2, -1, -2, 0, -2, 2,-1.180992214054254,1.3452923990154746
1503699362727,+0.389,+0.402,-0.478,-0.677,+0.980,-0.162,-0.170,-1.250,-2.750,-7.062,2, 3, 1, -1, -1, -1, -4, -22,-1.1811047624663995,1.3456864873651655
1503699362750,+0.390,+0.401,-0.478,-0.677,+0.993,-0.155,-0.180,-0.688,-3.188,-6.812,9, 2, -1, -1, 0, 2, 0, -5,-1.181213162332154,1.3441029246008656
1503699362764,+0.391,+0.401,-0.478,-0.677,+0.995,-0.145,-0.161,-0.125,-2.938,-5.062,-5, -4, -2, -3, -2, 0, -2, -12,-1.1832003839543281,1.3442857426514148
1503699362790,+0.391,+0.401,-0.478,-0.677,+1.004,-0.158,-0.154,-0.125,-3.375,-0.875,-7, -9, -7, -3, -3, 1, 1, 9,-1.1832003839543281,1.3442857426514148
1503699362809,+0.391,+0.401,-0.478,-0.677,+1.009,-0.161,-0.164,-2.000,+0.438,+3.625,-12, -9, -5, -3, -2, 0, 0, 9,-1.1832003839543281,1.3442857426514148
1503699362824,+0.389,+0.401,-0.479,-0.677,+1.004,-0.162,-0.149,-5.375,+1.875,+7.750,3, -3, -2, 1, 0, 0, -3, -1,-1.1795376677860514,1.3461216811749845
1503699362849,+0.388,+0.401,-0.478,-0.678,+0.988,-0.154,-0.162,-6.312,-1.312,+8.500,-8, 7, 5, 1, 0, 1, 2, -6,-1.1775442253355892,1.3439549992868562
1503699362869,+0.387,+0.401,-0.478,-0.679,+0.967,-0.158,-0.163,-6.625,-4.688,+8.750,-2, 4, 2, -1, -3, 0, -3, 3,-1.1758638132622234,1.343990171561494
1503699362885,+0.385,+0.401,-0.477,-0.680,+0.938,-0.180,-0.164,-5.438,+1.375,+10.562,-19, 2, 7, 2, 4, 1, -3, -21,-1.171890110218113,1.3416380198420517
1503699362907,+0.383,+0.402,-0.478,-0.681,+0.937,-0.189,-0.183,-9.312,+8.938,+11.625,18, 5, -2, -2, 0, -2, 0, 1,-1.170439511532477,1.3454596076793335
1503699362930,+0.380,+0.402,-0.479,-0.681,+0.950,-0.190,-0.173,-10.500,+12.125,+8.625,2, -3, -2, 0, 3, -3, -6, 16,-1.1648466351302502,1.347119849697329
1503699362944,+0.378,+0.402,-0.480,-0.682,+0.976,-0.198,-0.184,-9.562,+3.250,+4.625,-10, -3, 1, 0, -2, -4, 0, -8,-1.1615441325504836,1.3491842365100732
1503699362967,+0.378,+0.401,-0.480,-0.683,+0.974,-0.195,-0.176,-8.188,-6.312,-0.875,4, 6, -3, -1, -3, -3, -12, -9,-1.1599628812095133,1.3476363733328243
1503699362990,+0.379,+0.399,-0.479,-0.684,+0.949,-0.187,-0.180,-6.875,-12.375,-3.938,-5, -6, -3, 0, -1, 1, 9, -1,-1.158149565261281,1.3423077964463186
1503699363004,+0.380,+0.397,-0.478,-0.685,+0.950,-0.180,-0.193,-7.500,-11.188,-6.562,5, -5, -4, -3, -3, -3, -1, 11,-1.1563602661932744,1.3369968974718272
1503699363027,+0.381,+0.395,-0.478,-0.686,+0.953,-0.167,-0.195,-6.500,-5.500,-5.250,11, 5, 1, -1, -2, -4, -7, -12,-1.154919501795858,1.333919095852771
1503699363051,+0.381,+0.394,-0.478,-0.686,+0.979,-0.149,-0.189,-4.750,-2.750,-2.312,5, 7, -1, -1, 0, -2, -5, -3,-1.153060059361609,1.3321783566001708
1503699363065,+0.381,+0.394,-0.479,-0.686,+0.999,-0.142,-0.181,-2.625,-0.688,-0.250,-8, -5, -1, 0, -1, 0, 1, -5,-1.1533847017079877,1.334396108557742
1503699363087,+0.381,+0.394,-0.479,-0.686,+0.998,-0.167,-0.171,-1.438,-0.688,+2.250,2, -4, -4, -2, -1, 1, -1, -14,-1.1533847017079877,1.334396108557742
1503699363109,+0.380,+0.394,-0.479,-0.686,+1.010,-0.178,-0.160,-3.188,-0.312,+5.812,8, 4, -5, -3, -4, -2, 0, 2,-1.1514057014779941,1.3342085621776778
1503699363126,+0.379,+0.395,-0.479,-0.686,+0.986,-0.167,-0.161,-5.438,+4.188,+7.500,-19, -10, 3, 2, 1, -2, -2, 1,-1.1512900331800227,1.3357609675078501
1503699363147,+0.376,+0.396,-0.480,-0.687,+0.957,-0.173,-0.171,-5.375,+8.125,+12.562,-5, 2, 1, -1, -1, -2, 1, -3,-1.1478837959294312,1.3393908122265485
1503699363169,+0.374,+0.396,-0.481,-0.687,+0.958,-0.178,-0.190,-8.188,+10.062,+12.125,-5, -2, 1, 0, 1, 2, -3, 5,-1.1442836853354077,1.3412451579714135
1503699363185,+0.372,+0.396,-0.480,-0.688,+0.974,-0.191,-0.197,-10.250,+3.000,+12.625,15, 3, -1, 0, 1, -1, 0, 8,-1.1403376001876224,1.338874808120544
1503699363207,+0.370,+0.396,-0.480,-0.690,+0.953,-0.184,-0.168,-9.688,-0.938,+9.312,5, -1, -11, -5, -2, -1, 0, -2,-1.1370492696141004,1.338953476215542
1503699363229,+0.369,+0.396,-0.480,-0.691,+0.936,-0.206,-0.171,-8.438,-2.875,+4.438,-21, -11, -6, -3, -1, 1, -3, -8,-1.1354082977932973,1.3389927906128805
1503699363244,+0.368,+0.395,-0.480,-0.692,+0.925,-0.213,-0.173,-8.500,-4.000,+0.062,3, -2, 1, 1, -1, 1, 0, -2,-1.1318952062268706,1.33729144800264
1503699363267,+0.368,+0.393,-0.480,-0.692,+0.948,-0.198,-0.177,-8.750,-3.125,-2.625,7, 4, 3, 0, 0, 0, -2, -8,-1.128155566874385,1.3338183355643611
1503699363290,+0.369,+0.392,-0.481,-0.693,+0.972,-0.171,-0.185,-6.438,-4.188,-5.500,-7, 1, 4, 1, -2, -4, 2, 3,-1.1289152959645905,1.3347379504805101
1503699363304,+0.369,+0.390,-0.481,-0.693,+0.993,-0.170,-0.193,-5.812,-6.375,-5.062,5, 4, 6, 2, 1, 0, -1, -1,-1.1252001513179404,1.3312912894718243
1503699363327,+0.370,+0.389,-0.480,-0.694,+1.019,-0.164,-0.199,-6.125,-6.500,-0.562,1, -3, -6, -5, -3, -2, -1, 4,-1.1252959619948721,1.3277589594120642
1503699363352,+0.369,+0.389,-0.480,-0.695,+1.019,-0.169,-0.200,-5.312,-3.312,+5.938,-1, 1, 2, 1, 0, -2, 0, -6,-1.1236542059515433,1.3278035080126767
1503699363364,+0.367,+0.389,-0.479,-0.696,+0.999,-0.198,-0.205,-6.625,-1.812,+12.750,19, -1, -2, -4, -4, 0, 2, 22,-1.1197064167117399,1.3254199022213735
1503699363395,+0.365,+0.389,-0.478,-0.698,+0.982,-0.195,-0.208,-7.375,-2.625,+17.688,8, 0, -3, -1, 0, -2, -4, -2,-1.1160865749974234,1.323271086888078
1503699363409,+0.362,+0.390,-0.477,-0.699,+0.944,-0.200,-0.197,-7.812,+0.062,+18.312,-12, -5, -1, 1, -1, -2, 1, -8,-1.1120400387222757,1.3224091876937307
1503699363425,+0.359,+0.391,-0.477,-0.701,+0.914,-0.211,-0.190,-7.750,+0.438,+16.688,7, -3, -6, -3, -1, 0, -2, -1,-1.1086927018764945,1.3240272927732688
1503699363447,+0.358,+0.391,-0.476,-0.702,+0.895,-0.209,-0.196,-6.812,+1.375,+8.750,-12, 1, 2, 1, 1, 0, 1, -12,-1.1067117168190004,1.3218306997564462
1503699363469,+0.357,+0.390,-0.476,-0.702,+0.903,-0.215,-0.193,-5.875,-2.375,+1.000,-2, 2, 1, 0, 0, 0, -1, -5,-1.1028960678957642,1.3199046431847774
1503699363488,+0.358,+0.389,-0.476,-0.702,+0.956,-0.195,-0.163,-4.562,-3.750,-6.875,26, 8, -1, 0, -1, -2, 0, 7,-1.1029876956031461,1.3183774273846753
1503699363507,+0.360,+0.388,-0.477,-0.702,+0.905,-0.199,-0.172,-4.188,-2.875,-12.625,-13, -5, -1, -1, 1, -1, -1, -10,-1.1053996634837113,1.3192961773396295
1503699363529,+0.362,+0.386,-0.477,-0.702,+0.944,-0.189,-0.208,-2.938,-7.938,-16.438,13, 7, 2, 0, 0, 1, 2, 8,-1.105621976359595,1.3162651703300552
1503699363544,+0.364,+0.383,-0.478,-0.701,+0.980,-0.175,-0.210,-2.750,-7.375,-15.562,9, 3, 4, 2, 1, 1, 6, 12,-1.1040574783729957,1.3135490685076279
1503699363567,+0.366,+0.382,-0.478,-0.701,+0.999,-0.169,-0.211,-3.062,-2.875,-12.375,-13, -5, -3, -1, -3, -2, -1, -3,-1.106167329890913,1.3122501319724786
1503699363593,+0.367,+0.381,-0.479,-0.701,+1.029,-0.179,-0.204,-3.875,-5.250,-5.750,2, -2, -1, -2, -1, 0, -3, -2,-1.1066631229057253,1.3130036308343305
1503699363604,+0.367,+0.380,-0.478,-0.701,+1.031,-0.181,-0.195,-4.188,-6.312,-0.312,1, 0, 0, 2, 0, -2, -5, -1,-1.1044956488635993,1.309067866984389
1503699363627,+0.367,+0.379,-0.477,-0.703,+0.989,-0.194,-0.209,-3.812,-10.188,+4.125,-19, -8, -2, 0, -1, 1, 5, 18,-1.10300405220581,1.3056400544133002
1503699363649,+0.366,+0.379,-0.476,-0.704,+0.958,-0.190,-0.197,-4.750,-8.438,+8.000,3, -4, -4, -2, -2, -3, -7, -6,-1.1010151936269907,1.3034447211412457
1503699363665,+0.365,+0.379,-0.475,-0.705,+0.945,-0.178,-0.203,-5.938,-4.812,+9.625,10, 5, 0, -2, -2, -2, 1, -2,-1.0990256282842317,1.3012492542031975
1503699363691,+0.364,+0.379,-0.475,-0.706,+0.933,-0.185,-0.206,-6.250,-2.562,+8.375,-14, -8, 3, -1, 0, 6, 3, -3,-1.0973874962948975,1.3013013168810914
1503699363709,+0.363,+0.379,-0.475,-0.707,+0.937,-0.185,-0.208,-6.000,-0.688,+4.688,13, -2, -9, -4, -2, -1, 6, 3,-1.095751316033393,1.30135335994017
1503699363727,+0.363,+0.378,-0.474,-0.708,+0.935,-0.184,-0.204,-6.562,-6.188,+0.250,-14, 14, 9, 1, 0, -2, -4, -7,-1.093923640994462,1.2976810907598622
1503699363747,+0.363,+0.376,-0.474,-0.708,+0.943,-0.174,-0.199,-8.375,-6.250,-3.062,-5, -3, -2, -1, 0, 1, -1, 1,-1.090307318591612,1.2943228604000034
1503699363769,+0.363,+0.375,-0.475,-0.708,+0.942,-0.177,-0.206,-7.812,-0.125,-3.688,1, -2, -5, -3, -3, 1, 2, 0,-1.088857963793985,1.2949026108740467
1503699363785,+0.363,+0.374,-0.476,-0.709,+0.966,-0.184,-0.210,-7.625,-2.500,-4.125,0, -2, -7, -1, 0, 0, -8, -17,-1.0877550233486424,1.2957526877352028
1503699363807,+0.364,+0.372,-0.475,-0.709,+0.980,-0.184,-0.235,-5.438,-7.312,-5.938,-25, -2, 1, 1, 1, -2, 4, -17,-1.0857952714508665,1.290380248422266
1503699363829,+0.365,+0.370,-0.474,-0.710,+0.971,-0.183,-0.236,-5.375,-13.562,-6.938,-13, -4, 3, -1, -1, 1, 2, 12,-1.0842032535197716,1.2852893698472045
1503699363845,+0.366,+0.369,-0.473,-0.711,+0.966,-0.162,-0.252,-5.125,-12.250,-4.438,-3, -4, 0, 0, -2, 1, 0, 5,-1.0844104186269699,1.2818660662192107
1503699363867,+0.367,+0.367,-0.473,-0.712,+0.962,-0.164,-0.262,-4.125,-6.312,-1.250,10, 4, 5, 2, 0, -5, -5, 3,-1.083208624425595,1.2790622623881347
1503699363891,+0.367,+0.367,-0.472,-0.713,+0.960,-0.168,-0.250,-3.688,-3.375,+2.500,4, -2, -4, -2, -1, -3, 0, -6,-1.083208624425595,1.2770836253950781
1503699363905,+0.367,+0.367,-0.472,-0.713,+0.940,-0.171,-0.245,-1.625,-2.750,+2.062,-2, -6, -3, -3, -2, -1, 0, 6,-1.083208624425595,1.2770836253950781
1503699363927,+0.367,+0.367,-0.471,-0.713,+0.917,-0.177,-0.257,-0.125,-3.000,-1.562,3, -1, -3, -2, -1, 0, 0, 1,-1.0828591113998205,1.2748290255315962
1503699363949,+0.368,+0.366,-0.471,-0.713,+0.921,-0.179,-0.250,-0.438,-3.875,-4.312,-4, 0, 2, -1, 1, -1, 0, -1,-1.083093222200402,1.2734036993489535
1503699363965,+0.369,+0.365,-0.470,-0.714,+0.935,-0.189,-0.281,-4.250,-7.875,-6.625,3, -2, -2, 1, 0, 0, 1, -8,-1.0833381136339448,1.2700105355581999
1503699363987,+0.370,+0.363,-0.470,-0.714,+0.944,-0.169,-0.245,-5.312,-6.125,-10.375,10, 2, -2, -2, 0, 0, -8, 13,-1.0818369102721268,1.2669609923464809
1503699364010,+0.372,+0.361,-0.470,-0.714,+0.951,-0.162,-0.242,-3.875,-8.812,-13.250,9, 5, 1, 1, -1, -1, 2, 5,-1.0823664119886722,1.264146700606081
1503699364028,+0.374,+0.358,-0.470,-0.714,+0.975,-0.150,-0.244,-4.750,-11.500,-14.812,-2, 11, 17, 4, 1, 0, 0, 1,-1.0811929608751945,1.2597318559089434
1503699364047,+0.376,+0.356,-0.470,-0.714,+0.983,-0.138,-0.241,-4.312,-10.625,-11.375,5, -1, -2, -1, -1, 0, 2, -4,-1.0817865847274617,1.2569550208508247
1503699364069,+0.378,+0.355,-0.470,-0.714,+0.987,-0.133,-0.251,-2.562,-6.812,-8.438,7, -4, -4, -1, 1, -2, -4, -7,-1.084121306145334,1.2557949666657096
1503699364085,+0.378,+0.354,-0.471,-0.714,+0.975,-0.132,-0.256,-2.500,-2.562,-4.688,13, -1, -3, -4, -3, -1, -2, 6,-1.0827438530706242,1.2564517838947737
1503699364116,+0.378,+0.354,-0.471,-0.714,+0.986,-0.121,-0.259,-2.125,+0.875,+0.375,-9, -6, -2, -2, 0, -1, -3, -1,-1.0827438530706242,1.2564517838947737
1503699364130,+0.378,+0.354,-0.471,-0.714,+0.992,-0.129,-0.260,-1.375,+1.625,+3.438,0, -1, -1, -1, 1, 0, 0, 1,-1.0827438530706242,1.2564517838947737
1503699364145,+0.377,+0.355,-0.471,-0.714,+0.980,-0.151,-0.249,+1.125,-2.000,+9.562,-12, 0, 5, 0, -1, -2, -3, -3,-1.0824310448247412,1.2578307083259341
1503699364167,+0.376,+0.356,-0.469,-0.715,+0.950,-0.141,-0.246,+2.562,-1.562,+12.438,6, -4, -6, -3, -2, -2, 0, -1,-1.0818056162404717,1.2549923630242228
1503699364192,+0.375,+0.357,-0.469,-0.715,+0.951,-0.140,-0.259,-0.750,+4.625,+11.625,6, 6, 0, 1, 0, 6, -1, -9,-1.081503459557688,1.2563779402924289
1503699364205,+0.372,+0.360,-0.469,-0.715,+0.950,-0.162,-0.272,+3.438,+8.875,+17.938,-6, -3, -2, 0, -1, -5, -1, 2,-1.0806384856023892,1.2605572353703296
1503699364227,+0.370,+0.362,-0.468,-0.717,+0.986,-0.198,-0.299,-0.375,+4.188,+21.000,-16, -2, 1, 0, -1, -1, -1, 0,-1.0804579589551666,1.261686107339743
1503699364249,+0.367,+0.364,-0.467,-0.718,+1.026,-0.186,-0.276,-0.125,+1.562,+21.875,3, -1, -1, -1, 0, 2, 2, 2,-1.0779372509900633,1.262314731935098
1503699370812,+0.367,+0.372,-0.539,-0.660,+0.994,-0.087,-0.091,-5.750,-9.625,+2.250,-9, -2, 2, 3, -1, -4, -4, -19,-1.0971471005355635,1.427363564687342
1503699370834,+0.367,+0.371,-0.538,-0.662,+0.974,-0.083,-0.106,-5.375,-9.938,+2.062,-8, -6, -2, 0, -4, -6, 3, 4,-1.0956572225840207,1.423758239039739
1503699370856,+0.367,+0.370,-0.537,-0.663,+0.981,-0.095,-0.106,-4.812,-9.000,+1.500,-3, -1, -2, -1, 3, 2, 2, 10,-1.0938354441500062,1.4200022231616283
1503699370872,+0.367,+0.369,-0.537,-0.664,+1.006,-0.098,-0.099,-6.000,-8.312,+1.250,6, 15, 19, 5, 0, -4, -1, 8,-1.092359603154026,1.418585684433417
1503699370894,+0.367,+0.368,-0.536,-0.665,+1.022,-0.089,-0.088,-5.750,-10.000,+1.438,7, 7, -6, -1, -1, 2, -2, 2,-1.0905469926657148,1.4148389460510193
1503699370917,+0.368,+0.367,-0.535,-0.666,+0.989,-0.082,-0.119,-4.188,-12.500,+0.875,-3, -7, -1, 2, 4, 3, 1, 1,-1.0906676664332855,1.4112136409178395
1503699370932,+0.368,+0.366,-0.534,-0.668,+0.965,-0.092,-0.124,-3.875,-9.125,+1.750,2, -11, -10, -5, -2, -3, -1, -5,-1.089208862671801,1.407652078100188
1503699370954,+0.367,+0.366,-0.533,-0.669,+0.983,-0.104,-0.107,-5.625,-7.562,+2.750,0, -2, -7, -4, -1, -2, -2, -5,-1.0872790928092138,1.40537315179868
1503699370977,+0.367,+0.365,-0.532,-0.670,+1.024,-0.088,-0.104,-5.375,-10.688,+3.250,-1, -3, -2, -1, -3, 1, 2, 8,-1.085482052596725,1.4016455174962303
1503699370992,+0.368,+0.364,-0.531,-0.671,+0.998,-0.076,-0.139,-2.062,-12.625,+1.188,0, 3, 0, -2, -1, 0, -1, -2,-1.0856258270569832,1.3980480149104106
1503699371016,+0.369,+0.363,-0.529,-0.672,+0.929,-0.089,-0.173,-0.562,-9.938,-0.812,-1, -6, -6, -3, -4, -3, -3, -5,-1.085440170579876,1.3921261594387317
1503699371040,+0.369,+0.363,-0.529,-0.673,+0.927,-0.103,-0.148,-2.875,-0.812,+1.812,0, -7, -3, -3, -1, 0, 0, -3,-1.0857860059258309,1.392314991626041
1503699371052,+0.368,+0.363,-0.530,-0.673,+0.993,-0.112,-0.139,-4.688,+6.562,+1.812,0, 4, 4, -1, -1, -3, 2, 6,-1.0841860410596253,1.3945182712579538
1503699371076,+0.368,+0.363,-0.531,-0.672,+1.025,-0.086,-0.120,-1.938,+5.000,-3.688,-19, -11, -2, 1, 0, 0, 0, -3,-1.0841813444237638,1.3966660151164356
1503699371096,+0.369,+0.362,-0.531,-0.671,+1.003,-0.069,-0.126,+1.125,+0.625,-5.250,8, 7, 2, 1, 3, -1, -4, 3,-1.0839884018966235,1.3950439002668555
1503699371112,+0.370,+0.362,-0.531,-0.671,+0.980,-0.092,-0.119,+1.750,-2.500,-4.562,16, 2, -2, -3, -2, -3, -4, -15,-1.085930742429837,1.3951710248936946
1503699371135,+0.370,+0.362,-0.531,-0.671,+0.965,-0.102,-0.125,-0.812,+1.000,-4.000,-3, -5, -5, -2, -1, 0, -1, 2,-1.085930742429837,1.3951710248936946
1503699371156,+0.370,+0.361,-0.532,-0.671,+0.994,-0.086,-0.104,-3.750,-0.500,-2.562,-2, 7, 0, 1, -1, -3, -2, -4,-1.0844873573078468,1.3959486459197823
1503699371173,+0.370,+0.361,-0.532,-0.671,+1.019,-0.094,-0.112,-5.375,-4.250,-1.938,-1, -5, -5, -2, -3, 0, 1, 0,-1.0844873573078468,1.3959486459197823
1503699371195,+0.370,+0.359,-0.532,-0.672,+1.002,-0.099,-0.115,-6.438,-6.312,-2.375,-4, 0, 3, 0, 1, 3, 5, -3,-1.0812805361827476,1.3930295894671592
1503699371216,+0.370,+0.358,-0.531,-0.673,+0.999,-0.087,-0.116,-7.312,-8.625,-2.375,-1, 2, 0, 0, 0, -1, -7, -18,-1.079518914203015,1.389330163584522
1503699371232,+0.370,+0.356,-0.531,-0.674,+1.011,-0.075,-0.118,-8.875,-9.438,-1.438,2, -3, 2, -1, 1, 0, -2, 3,-1.0763355096142133,1.3864343487607316
1503699371254,+0.371,+0.355,-0.530,-0.675,+1.006,-0.076,-0.127,-7.500,-12.312,+0.688,6, 0, 0, -1, -2, -2, -3, 10,-1.076539968910347,1.3828794918569272
1503699371278,+0.371,+0.353,-0.529,-0.677,+1.001,-0.063,-0.140,-6.688,-13.938,+1.125,-5, -6, -2, -1, -1, -4, -6, 13,-1.0733994879953217,1.3778658557468393
1503699371292,+0.371,+0.352,-0.528,-0.678,+1.003,-0.064,-0.155,-5.812,-12.875,+2.625,7, 1, -3, 0, -1, -1, 4, 2,-1.0716673215589632,1.3741944075740433
1503699371315,+0.371,+0.351,-0.526,-0.680,+1.005,-0.058,-0.162,-4.188,-11.625,+4.812,-6, -3, 0, 1, 0, 0, 2, -2,-1.0699591194083908,1.3683945637582624
1503699371336,+0.371,+0.351,-0.525,-0.681,+0.999,-0.082,-0.151,-4.750,-11.000,+7.750,-13, -3, 4, 0, -3, 1, -4, -27,-1.0699783991808212,1.3662651852871057
1503699371352,+0.370,+0.350,-0.524,-0.683,+0.991,-0.078,-0.159,-5.938,-9.188,+10.438,2, -7, -6, -4, -1, 3, 3, 21,-1.0666521877430122,1.3626810029563707
1503699371375,+0.369,+0.350,-0.523,-0.685,+0.985,-0.083,-0.165,-5.500,-7.812,+11.688,16, 5, -1, -1, 0, -3, -3, 0,-1.0650672812688602,1.3606308782453211
1503699371396,+0.367,+0.350,-0.521,-0.686,+0.980,-0.096,-0.153,-6.188,-7.562,+12.062,0, -1, 0, 1, -1, -5, -4, -3,-1.060819716957814,1.3558747280541465
1503699371414,+0.366,+0.350,-0.520,-0.688,+0.984,-0.108,-0.157,-7.938,-8.500,+12.062,-8, 0, 1, 0, 1, -1, -4, -7,-1.0592355256445396,1.3538322195331423
1503699371435,+0.364,+0.349,-0.520,-0.690,+0.967,-0.100,-0.152,-11.062,-4.875,+9.312,0, -1, -3, -2, -1, 2, 3, 2,-1.0543024689917921,1.3524501709314565
1503699371457,+0.362,+0.349,-0.519,-0.691,+0.980,-0.108,-0.174,-11.500,-4.500,+11.375,4, 5, 7, 2, -1, -1, -1, 0,-1.0504043089193074,1.3500306565076614
1503699371473,+0.360,+0.348,-0.518,-0.693,+0.973,-0.108,-0.184,-10.438,-8.938,+10.188,-2, 0, -4, -2, 0, 0, 1, -4,-1.04513508724531,1.3463101286654646
1503699371494,+0.360,+0.347,-0.517,-0.695,+0.966,-0.122,-0.179,-7.938,-10.000,+4.500,-9, -9, -7, -3, -2, 1, 0, -4,-1.043779208580414,1.342908660946931
1503699371524,+0.359,+0.346,-0.516,-0.697,+0.956,-0.117,-0.193,-10.125,-8.812,+2.375,-6, 1, -4, 0, -1, 0, -1, 6,-1.0404737779392434,1.339358728307851
1503699371533,+0.359,+0.344,-0.515,-0.698,+0.976,-0.102,-0.194,-10.562,-10.375,+3.500,5, -5, -7, -3, -1, -2, 2, 0,-1.0370424532856275,1.3342195431935386
1503699371555,+0.358,+0.343,-0.515,-0.700,+0.983,-0.110,-0.177,-9.938,-8.750,+2.062,2, 11, 17, 5, 1, 0, -2, -5,-1.0341025068710008,1.3330311100151733
1503699371579,+0.357,+0.341,-0.514,-0.701,+0.978,-0.099,-0.187,-9.938,-6.812,+3.000,-9, -13, 2, 0, -1, -2, -1, -2,-1.0287344812092531,1.3277510244467094
1503699371593,+0.357,+0.341,-0.514,-0.702,+0.985,-0.080,-0.204,-6.938,-5.812,+5.312,-9, -2, 1, 1, 0, 3, 1, 1,-1.0291050252605642,1.3279998424157335
1503699371615,+0.356,+0.340,-0.514,-0.703,+0.966,-0.095,-0.199,-4.625,-2.188,+5.125,-9, 0, -1, -2, 1, -2, -4, -5,-1.0258097785172873,1.3265816658377352
1503699371636,+0.355,+0.340,-0.513,-0.703,+0.982,-0.120,-0.199,-5.062,-0.812,+5.500,6, 9, 13, 2, -1, 0, -2, -5,-1.0234962249306876,1.3240659686102516
1503699371653,+0.354,+0.340,-0.513,-0.704,+0.991,-0.109,-0.192,-6.562,-2.500,+7.312,14, 11, -2, -4, -3, -3, -2, -7,-1.0219112799521728,1.3241510628574005
1503699371675,+0.353,+0.340,-0.513,-0.705,+0.968,-0.104,-0.200,-5.562,-2.438,+6.625,0, -5, -2, -1, 1, 4, 7, 1,-1.0203281212894928,1.3242360996227502
1503699371696,+0.352,+0.340,-0.512,-0.706,+0.952,-0.114,-0.203,-4.500,-2.000,+6.875,15, 1, -3, -1, -2, -4, -9, 11,-1.01838755009995,1.3219717993657447
1503699371714,+0.351,+0.340,-0.512,-0.706,+0.943,-0.130,-0.192,-4.688,-0.125,+5.688,-10, -8, -3, 0, 0, 0, 0, 4,-1.0164348942743207,1.3218030267465188
1503699371734,+0.350,+0.340,-0.512,-0.707,+0.943,-0.138,-0.196,-6.812,+0.500,+4.000,-22, -6, -1, 4, -1, 3, 6, -10,-1.0148562728910018,1.3218884338480315
1503699371756,+0.349,+0.339,-0.513,-0.707,+0.974,-0.119,-0.181,-8.438,+0.438,+2.125,-6, -3, -1, -2, -1, -2, -6, -8,-1.0115617572748792,1.3225731657420365
1503699371773,+0.348,+0.338,-0.513,-0.708,+1.031,-0.105,-0.178,-8.062,-1.938,+2.625,3, 3, -3, -2, 0, 0, 1, 1,-1.0082824607677292,1.321164486120806
1503699371794,+0.348,+0.338,-0.513,-0.709,+1.013,-0.102,-0.191,-6.500,-5.562,+3.250,-5, -2, 2, 1, 1, -2, 0, 3,-1.0086562382319895,1.321419637579082
1503699371817,+0.348,+0.337,-0.512,-0.710,+0.989,-0.110,-0.204,-3.000,-8.188,+3.812,3, -2, -4, -3, -3, 0, 2, 4,-1.0069669244596466,1.317831395558548
1503699371833,+0.348,+0.337,-0.510,-0.711,+0.963,-0.113,-0.219,-1.688,-11.000,+4.562,3, -3, 0, -1, 0, -3, -3, 6,-1.006615806007447,1.3133845046422135
1503699371855,+0.347,+0.337,-0.509,-0.712,+0.967,-0.119,-0.203,-3.125,-6.812,+7.000,10, 7, 3, 1, 0, -3, -10, -23,-1.0046759185139083,1.3111209953259861
1503699371880,+0.346,+0.337,-0.509,-0.713,+0.949,-0.121,-0.206,-4.938,-2.438,+8.125,0, -2, -3, -2, -2, -1, -3, -2,-1.0031010553683597,1.3112100100063875
1503699371893,+0.345,+0.337,-0.509,-0.713,+0.948,-0.124,-0.202,-3.875,+4.812,+7.438,-14, -5, 1, 0, -1, -1, -5, -7,-1.0011527570265113,1.3110355472420385
1503699371915,+0.343,+0.338,-0.509,-0.713,+0.966,-0.125,-0.205,-4.438,+3.312,+8.500,-7, 2, 0, 0, 1, 5, 3, 1,-0.9989629327459713,1.312180936729979
1503699371936,+0.342,+0.338,-0.509,-0.714,+0.974,-0.106,-0.203,-5.375,+2.188,+5.812,7, -12, -11, -5, -4, -4, 0, 16,-0.9973951484803243,1.3122691969854288
1503699371953,+0.341,+0.338,-0.509,-0.715,+0.993,-0.131,-0.203,-4.188,-4.188,+9.125,-23, -5, -2, 2, 0, -1, 0, -5,-0.9958289357755927,1.3123573983653118
1503699371974,+0.341,+0.337,-0.508,-0.715,+0.957,-0.114,-0.185,-5.875,-4.938,+4.750,5, 1, 0, -1, -2, 3, 6, -2,-0.9937559448623803,1.3085080396668056
1503699371996,+0.340,+0.337,-0.509,-0.716,+0.957,-0.139,-0.196,-5.750,-0.312,+2.688,28, 17, 1, -1, 0, -1, -1, 6,-0.9925623510561381,1.3109536726969726
1503699372022,+0.339,+0.337,-0.508,-0.717,+0.969,-0.158,-0.204,-6.625,-6.438,+6.250,-14, -3, -1, 0, -1, -3, -1, 4,-0.9906264802373577,1.3086870420401373
1503699372035,+0.338,+0.336,-0.507,-0.718,+0.964,-0.138,-0.223,-6.562,-5.938,+2.812,-2, 4, -2, -2, -2, -1, -1, -9,-0.9869913019483394,1.3049300175447038
1503699372057,+0.338,+0.335,-0.507,-0.719,+0.970,-0.135,-0.209,-5.875,-6.125,+1.688,-7, -2, 0, 0, 0, -3, 1, -1,-0.9856727579787884,1.3037125928511588
1503699377878,+0.238,+0.241,-0.507,-0.793,+0.924,-0.141,-0.334,-3.938,-13.375,+3.188,-4, -4, -5, -2, -1, -2, -1, 1,-0.6790010895267433,1.1882155447098857
1503699377901,+0.237,+0.241,-0.505,-0.794,+0.916,-0.146,-0.339,-4.812,-11.125,+3.312,-1, -2, 4, 3, 1, -1, -3, -3,-0.6767656960913037,1.18342276461703
1503699377922,+0.236,+0.240,-0.504,-0.795,+0.921,-0.154,-0.329,-6.562,-6.625,+4.312,-4, -1, 1, -1, 0, 0, 0, 6,-0.6735047693091096,1.180047637670973
1503699377938,+0.236,+0.239,-0.503,-0.796,+0.925,-0.140,-0.333,-7.875,-7.125,+3.188,-1, -2, -1, -1, -1, -1, 0, 2,-0.6721000224388828,1.176863568775297
1503699377966,+0.235,+0.238,-0.503,-0.797,+0.928,-0.138,-0.328,-8.438,-6.438,+3.000,6, -1, 2, -1, -1, -1, 0, 0,-0.6692248402370934,1.1759960364722775
1503699377982,+0.234,+0.237,-0.502,-0.798,+0.924,-0.140,-0.336,-8.250,-6.500,+1.500,-2, -4, -3, 0, 0, 0, 1, 4,-0.6659759344542814,1.1726385017529246
1503699378000,+0.234,+0.236,-0.501,-0.799,+0.915,-0.139,-0.332,-8.188,-7.375,-0.812,3, -2, -6, -4, -2, 0, -2, -3,-0.6645845887608,1.1694729876710714
1503699378033,+0.234,+0.234,-0.501,-0.800,+0.905,-0.134,-0.357,-7.312,-6.062,-2.812,13, 7, -2, -4, -2, -3, -1, 3,-0.6621927707660364,1.1677517547648328
1503699378042,+0.235,+0.233,-0.500,-0.800,+0.906,-0.131,-0.370,-4.125,-4.625,-6.750,1, 0, 0, 2, 0, 0, -4, -8,-0.6623003694648717,1.1643895902761314
1503699378059,+0.237,+0.232,-0.500,-0.800,+0.913,-0.135,-0.350,-2.688,-2.438,-8.562,4, 2, 3, -1, 1, 4, -3, 5,-0.6646455700782953,1.163710245814823
1503699378080,+0.238,+0.231,-0.500,-0.800,+0.899,-0.134,-0.363,-2.688,-0.750,-9.750,-5, -1, 0, 0, -1, -3, 1, -4,-0.6651369269205583,1.16284766937431
1503699378102,+0.239,+0.230,-0.501,-0.799,+0.901,-0.123,-0.362,-2.625,+2.625,-10.562,-9, -1, 3, 2, 1, 1, -3, -3,-0.6656186406937509,1.1640805235454996
1503699378117,+0.241,+0.229,-0.502,-0.799,+0.934,-0.114,-0.357,-0.625,+4.625,-10.438,-2, -5, -2, -2, -1, -2, -1, -6,-0.6683437773471741,1.1658981924353695
1503699378140,+0.242,+0.228,-0.503,-0.798,+0.957,-0.109,-0.348,+1.062,+5.188,-9.312,0, 8, 5, 1, 0, 0, 0, 6,-0.6688236802523094,1.1671372789596561
1503699378164,+0.243,+0.228,-0.504,-0.797,+0.952,-0.105,-0.337,+1.625,+5.000,-7.125,-22, -6, -1, 1, 0, -1, -3, -15,-0.6706666270565722,1.1694151685488074
1503699378177,+0.244,+0.228,-0.505,-0.796,+0.936,-0.108,-0.338,+1.562,+6.125,-4.312,0, -1, -2, -2, -2, -3, 1, -6,-0.6725081404233433,1.1716944049468825
1503699378200,+0.244,+0.229,-0.506,-0.795,+0.942,-0.114,-0.311,+0.125,+4.500,-1.562,0, -3, -2, -2, -2, -1, -2, 1,-0.6738533901729543,1.174836257821927
1503699378223,+0.244,+0.229,-0.506,-0.795,+0.964,-0.120,-0.307,-1.375,+0.625,-0.500,-5, -1, -3, -3, 0, 2, 1, 6,-0.6738533901729543,1.174836257821927
1503699378237,+0.244,+0.228,-0.506,-0.795,+0.961,-0.116,-0.309,-3.500,-5.938,-0.625,18, 5, -3, -1, -3, -4, -1, 9,-0.6724829367321956,1.1737975252718438
1503699378260,+0.244,+0.227,-0.505,-0.796,+0.937,-0.119,-0.323,-6.062,-8.375,-0.125,3, -7, 0, -1, -2, 0, 1, -2,-0.6711420267808704,1.170659239980091
1503699378282,+0.244,+0.226,-0.504,-0.797,+0.936,-0.101,-0.333,-7.500,-10.312,+0.875,35, 12, -4, 0, -2, -4, -5, -1,-0.6698070551277248,1.1675277835214553
1503699378298,+0.243,+0.225,-0.503,-0.798,+0.954,-0.106,-0.331,-7.312,-11.875,+2.125,-16, 0, 1, 0, 0, 0, -2, -17,-0.6666093246511775,1.1642240280422589
1503699378320,+0.243,+0.224,-0.502,-0.799,+0.955,-0.116,-0.339,-6.562,-13.188,+2.875,-14, -4, 0, 1, 0, -1, 1, 2,-0.6652845542072428,1.1611057449300983
1503699378342,+0.242,+0.223,-0.500,-0.801,+0.946,-0.110,-0.352,-8.000,-13.188,+4.500,-9, -3, -1, -2, -1, 1, 0, -7,-0.6621255034108192,1.1557255593044158
1503699378357,+0.241,+0.222,-0.499,-0.803,+0.926,-0.097,-0.368,-9.000,-12.000,+7.375,6, 7, -3, -3, -2, -4, -4, -3,-0.6593241899685115,1.152850055848433
1503699378380,+0.240,+0.221,-0.497,-0.804,+0.918,-0.092,-0.372,-8.062,-9.375,+10.750,-7, -9, -5, -3, -2, -7, -2, 3,-0.6557902944096773,1.1470839915746518
1503699378402,+0.238,+0.221,-0.496,-0.805,+0.910,-0.100,-0.380,-7.000,-6.562,+13.875,10, 8, 2, 0, 0, 1, -3, 1,-0.6520753390271645,1.144638617617879
1503699378418,+0.236,+0.221,-0.495,-0.807,+0.904,-0.114,-0.379,-6.375,-4.625,+14.312,8, 1, -1, 0, -1, 2, 7, -8,-0.6487396506494945,1.1426069447258582
1503699378440,+0.233,+0.221,-0.494,-0.808,+0.890,-0.124,-0.375,-6.062,-1.688,+13.875,-5, -2, 2, 1, -1, 0, -3, 1,-0.6431551123251253,1.1399757636321992
1503699378463,+0.231,+0.221,-0.494,-0.809,+0.888,-0.130,-0.381,-5.312,-1.062,+11.562,-5, -1, 3, 2, 2, 1, 7, 5,-0.6397977372161913,1.140019544966817
1503699378477,+0.230,+0.222,-0.493,-0.809,+0.878,-0.140,-0.370,-4.438,+0.875,+7.125,-2, -6, -2, -2, 0, 12, 1, 4,-0.6389067651134223,1.1383478163790475
1503699378500,+0.229,+0.221,-0.493,-0.809,+0.882,-0.146,-0.370,-4.625,+0.438,+2.062,-10, -5, -3, -1, -1, -7, -7, 2,-0.6357120066014064,1.1371541089483963
1503699378524,+0.229,+0.221,-0.493,-0.809,+0.892,-0.146,-0.368,-5.812,+0.688,-1.375,2, 6, 1, -1, 0, -1, -1, 9,-0.6357120066014064,1.1371541089483963
1503699378537,+0.229,+0.220,-0.494,-0.809,+0.903,-0.132,-0.370,-6.375,+1.250,-4.000,-5, -5, 0, 1, -1, 0, 1, 8,-0.6347406473382139,1.138645607512616
1503699378560,+0.230,+0.219,-0.495,-0.809,+0.920,-0.118,-0.373,-5.438,+2.688,-5.812,-3, -4, -1, -2, 0, -6, -2, -4,-0.6356314528996521,1.140326936834378
1503699378582,+0.230,+0.218,-0.496,-0.809,+0.935,-0.116,-0.367,-3.375,+3.500,-6.062,1, -1, -2, -2, -2, -4, -2, 1,-0.6346593795594251,1.1418279577728514
1503699378602,+0.231,+0.218,-0.497,-0.808,+0.949,-0.116,-0.356,-2.625,+2.688,-4.812,-1, -6, -6, -3, -1, 1, 2, -7,-0.6365016639743422,1.1440909822862992
1503699378620,+0.231,+0.217,-0.497,-0.808,+0.949,-0.100,-0.354,-1.938,+1.438,-2.062,-7, -3, -3, -2, 1, 0, -4, -8,-0.6351755265189084,1.1431006879521264
1503699378642,+0.231,+0.217,-0.497,-0.808,+0.947,-0.101,-0.362,-0.750,+0.625,+0.875,1, 1, 4, 1, -1, -1, 6, 14,-0.6351755265189084,1.1431006879521264
1503699378664,+0.231,+0.217,-0.497,-0.808,+0.940,-0.105,-0.357,+0.375,-0.125,+3.438,-10, -1, 1, 0, 0, 2, 6, 1,-0.6351755265189084,1.1431006879521264
1503699378680,+0.230,+0.218,-0.497,-0.808,+0.942,-0.110,-0.357,+0.438,-1.250,+6.062,3, -6, -8, -3, -2, -2, -5, -5,-0.6346399046652235,1.1439091696960546
1503699378703,+0.229,+0.219,-0.496,-0.808,+0.929,-0.118,-0.364,-0.125,-2.625,+7.562,2, 1, -1, 0, -3, -1, -1, -7,-0.633752934105053,1.1422226651638892
1503699378716,+0.229,+0.219,-0.495,-0.809,+0.897,-0.126,-0.378,-1.188,-3.625,+7.750,0, 2, 4, -1, -1, 1, -1, -19,-0.6337691835180684,1.1401426433204873
1503699378747,+0.228,+0.220,-0.495,-0.809,+0.884,-0.144,-0.362,-2.250,-1.062,+6.812,0, -1, 0, -1, 0, -3, 2, 11,-0.633237279307145,1.1409549620960406
1503699378770,+0.227,+0.220,-0.495,-0.810,+0.889,-0.151,-0.362,-3.812,-2.188,+2.375,-4, 0, 3, 4, -1, -1, -16, -9,-0.631747808934757,1.1411860293584266
1503699378776,+0.227,+0.219,-0.494,-0.810,+0.913,-0.151,-0.359,-5.188,-4.938,-2.062,-2, -3, -1, 0, 0, -1, 2, -1,-0.6300623679945349,1.137695072502696
1503699378799,+0.228,+0.218,-0.494,-0.811,+0.927,-0.135,-0.353,-5.688,-7.188,-6.000,7, 3, 2, -3, 0, 0, 2, 7,-0.6309699472646864,1.1373059389532754
1503699378821,+0.229,+0.216,-0.493,-0.811,+0.927,-0.124,-0.374,-5.250,-9.500,-8.688,7, 1, 0, 0, -2, -7, -1, 8,-0.629841548275834,1.1330224648021958
1503699378836,+0.230,+0.214,-0.492,-0.812,+0.915,-0.113,-0.396,-4.938,-8.438,-8.750,-1, 1, -2, -3, -2, 0, 10, 0,-0.6291067714375888,1.1291749535038431
1503699378860,+0.232,+0.213,-0.492,-0.812,+0.914,-0.106,-0.380,-3.250,-7.812,-8.125,-12, -2, -2, -1, -1, -1, -7, -26,-0.6315388218275579,1.1285664167711384
1503699378881,+0.232,+0.212,-0.491,-0.813,+0.941,-0.098,-0.386,-3.625,-8.250,-4.438,-9, 1, -1, -1, -1, 2, 1, -1,-0.6302665566249049,1.1255286002451819
1503699378900,+0.233,+0.211,-0.490,-0.813,+0.934,-0.082,-0.396,-2.625,-4.938,+0.625,0, -5, -1, -1, 0, -1, -2, 7,-0.6304969373563478,1.1222541251860587
1503699378919,+0.232,+0.211,-0.490,-0.814,+0.924,-0.093,-0.398,-0.312,-3.812,+4.688,-2, -2, -2, -2, 0, 2, 0, 1,-0.6290002499661825,1.1224976059047733
1503699378943,+0.232,+0.212,-0.489,-0.814,+0.907,-0.111,-0.397,+0.688,-1.375,+6.625,-4, 1, -1, 2, -1, 0, 5, -4,-0.6299541731535131,1.1209807509019385
1503699378956,+0.231,+0.212,-0.489,-0.814,+0.886,-0.125,-0.388,+0.250,+0.375,+6.188,8, 4, -1, -1, -1, 0, -4, 5,-0.6280797857985136,1.1207950740377484
1503699378980,+0.230,+0.213,-0.488,-0.814,+0.877,-0.133,-0.383,-1.562,-0.625,+4.062,2, 0, 0, -1, -2, -6, 4, 3,-0.6271597404107491,1.1190947899957382
1503699379001,+0.230,+0.213,-0.488,-0.815,+0.876,-0.144,-0.374,-3.812,-1.250,+0.562,-2, -1, 0, -1, -1, 0, -2, 0,-0.6275349898147116,1.1195238976898652
1503699379016,+0.230,+0.212,-0.488,-0.815,+0.895,-0.144,-0.375,-6.250,-3.500,-4.625,-4, 4, -4, -3, -1, -1, 0, 0,-0.6262363613070947,1.1185513403352896
1503699379039,+0.230,+0.210,-0.488,-0.815,+0.910,-0.121,-0.368,-9.688,-4.500,-6.812,-2, -1, 4, 1, 0, 0, 4, 9,-0.623647082172423,1.1166168416657527
1503699379062,+0.231,+0.208,-0.488,-0.816,+0.964,-0.084,-0.378,-9.750,-6.188,-4.875,0, 2, -4, -3, -1, 0, 4, 18,-0.6233206395667327,1.1153133886202873
1503699379076,+0.231,+0.206,-0.488,-0.816,+0.991,-0.058,-0.407,-5.812,-7.188,+0.438,4, -4, 0, 0, -2, -2, 1, -2,-0.6207531657505282,1.1134078169086326
1503699379100,+0.231,+0.206,-0.487,-0.817,+0.964,-0.070,-0.406,+1.812,-6.375,+5.938,-6, 0, -4, -1, -2, 0, -1, -6,-0.6207940898816626,1.1113553831922847
1503699379121,+0.230,+0.208,-0.486,-0.817,+0.910,-0.103,-0.405,+5.188,-5.812,+12.188,0, -3, -1, -3, -2, -2, -2, 0,-0.6211404363018974,1.1105908806778615
1503699379137,+0.228,+0.210,-0.484,-0.818,+0.893,-0.124,-0.402,+4.188,-1.938,+17.125,1, 2, 2, -1, 1, -2, 0, 1,-0.6196468805131046,1.1076030878292105
1503699379158,+0.226,+0.212,-0.484,-0.819,+0.882,-0.119,-0.414,+2.750,+3.188,+19.250,-11, -2, -1, 0, 0, -1, -3, -4,-0.6188464205965559,1.1095896368198053
1503699379181,+0.224,+0.214,-0.484,-0.819,+0.886,-0.125,-0.391,+4.250,+5.812,+17.875,-2, -2, -1, 0, 0, -1, -3, -3,-0.6176890673488101,1.11115009638732
1503699379199,+0.222,+0.216,-0.483,-0.819,+0.881,-0.149,-0.399,+5.062,+0.375,+12.250,2, 1, 2, 0, -1, -2, 1, 2,-0.6161928302600405,1.1102369202910336
1503699379219,+0.222,+0.218,-0.482,-0.819,+0.860,-0.165,-0.390,+4.312,-1.562,+6.312,2, -2, -2, 0, 0, 1, -1, -2,-0.6184401535582992,1.1097244943220297
1503699379242,+0.222,+0.218,-0.481,-0.820,+0.829,-0.185,-0.400,+1.875,-3.125,-1.375,-1, 0, 1, 0, -1, 0, -4, -10,-0.6184467396960814,1.1076781973817817
1503699379257,+0.223,+0.218,-0.481,-0.820,+0.828,-0.197,-0.393,-3.375,-1.312,-8.938,-6, 1, 1, 1, 1, 0, 4, 2,-0.6203178308325079,1.1078748848854192
1503699379278,+0.225,+0.216,-0.481,-0.819,+0.875,-0.160,-0.379,-7.688,-0.438,-15.625,4, 2, -1, -2, -1, 0, 0, -3,-0.6210950479181477,1.105859719979451
1503699379302,+0.227,+0.213,-0.483,-0.819,+0.944,-0.134,-0.408,-7.125,+0.188,-20.688,-3, -3, -2, -1, -2, 1, -1, -14,-0.6216640328927439,1.1082702483760238
1503699379323,+0.230,+0.211,-0.483,-0.818,+0.930,-0.104,-0.410,-5.000,-1.938,-22.000,9, 0, -4, -2, -2, 5, 0, 2,-0.6243438159616783,1.1064672918081535
1503699385428,+0.201,+0.210,-0.518,-0.805,+0.981,-0.155,-0.337,+7.062,-23.250,-16.750,-6, -9, -1, -2, -1, 0, 0, 3,-0.5772387102606031,1.182997345341852
1503699385444,+0.203,+0.209,-0.515,-0.806,+0.925,-0.152,-0.311,+2.312,-21.062,-6.625,0, 17, 15, 3, 0, -1, 1, 0,-0.5787956433595417,1.175145250691258
1503699385466,+0.204,+0.209,-0.513,-0.807,+0.927,-0.122,-0.305,-1.375,-14.875,-1.812,-3, -3, -2, -1, -3, 0, -2, 2,-0.5802440570459387,1.17062689955426
1503699385488,+0.204,+0.208,-0.513,-0.807,+0.947,-0.116,-0.336,-2.875,-4.312,-1.625,1, -4, -2, 0, -1, 1, 1, -3,-0.5789179642354186,1.1696919376934245
1503699385503,+0.205,+0.208,-0.513,-0.807,+0.942,-0.115,-0.358,+0.812,-1.562,-2.375,0, -1, 0, 1, 2, 0, 0, -1,-0.5807309133290876,1.169855680595421
1503699385526,+0.206,+0.208,-0.512,-0.807,+0.949,-0.110,-0.354,+2.938,-4.438,-6.375,13, 3, 1, 2, 1, 1, 0, 1,-0.582195165268844,1.167480810390772
1503699385542,+0.208,+0.207,-0.511,-0.808,+0.966,-0.119,-0.290,+1.750,-13.000,-8.062,3, 2, -3, -3, -2, -1, -2, -2,-0.5845091567514217,1.1647462474287005
1503699385563,+0.210,+0.206,-0.510,-0.808,+0.958,-0.104,-0.307,-0.812,-17.125,-10.125,-8, -2, -3, -1, -1, -2, 0, -1,-0.5864896473508323,1.1616111862307124
1503699385586,+0.212,+0.204,-0.509,-0.809,+0.905,-0.090,-0.354,-3.312,-11.438,-9.125,-6, -5, -1, 3, -1, 0, 1, -2,-0.5875291271942336,1.1579657406440842
1503699385601,+0.213,+0.203,-0.508,-0.809,+0.876,-0.087,-0.390,-0.250,-1.062,-5.562,3, 3, -1, -3, -4, -5, -2, -4,-0.5877117286531945,1.1546781904815393
1503699385623,+0.213,+0.203,-0.509,-0.809,+0.923,-0.091,-0.386,-1.125,+3.750,-0.688,-10, -9, -4, -4, -4, 0, 2, 5,-0.5880517229154064,1.1572082343843393
1503699385646,+0.213,+0.202,-0.509,-0.809,+0.961,-0.104,-0.362,-2.812,+0.438,+0.500,6, 3, -1, 0, 3, -3, -11, 1,-0.5867474074746271,1.1562895995784077
1503699385661,+0.213,+0.202,-0.508,-0.810,+0.963,-0.098,-0.364,-0.875,-6.125,-0.938,-1, -3, -2, 0, 0, 2, 1, -2,-0.586765840369337,1.1541727861925801
1503699385685,+0.214,+0.201,-0.507,-0.811,+0.935,-0.112,-0.376,+0.062,-12.125,-2.562,-5, 0, 1, 1, 0, -3, -2, -1,-0.5873202520119478,1.1513090125254675
1503699385711,+0.215,+0.201,-0.505,-0.811,+0.898,-0.119,-0.369,+0.625,-10.375,-1.750,7, 2, 4, 3, 2, 4, -1, -3,-0.5884836673423826,1.1464235747057812
1503699385721,+0.215,+0.202,-0.504,-0.812,+0.868,-0.103,-0.375,+1.438,-1.562,+2.500,-5, -6, -2, 0, 2, 2, 4, 1,-0.5898009047744012,1.1452362134255132
1503699385744,+0.214,+0.202,-0.505,-0.811,+0.891,-0.113,-0.362,+1.438,+5.688,+3.625,6, 4, -3, -5, -7, -3, 5, 2,-0.5879423130815731,1.1471737560837163
1503699385767,+0.214,+0.203,-0.505,-0.811,+0.927,-0.120,-0.366,+0.938,+5.812,+2.250,-7, -7, -3, -3, -1, -1, -3, 0,-0.5892403738558022,1.1480941378728693
1503699385782,+0.214,+0.204,-0.505,-0.811,+0.945,-0.121,-0.371,+2.312,-0.875,+0.562,22, 9, -3, -9, -12, -11, -3, 2,-0.5905409696070083,1.1490180854743426
1503699385803,+0.215,+0.204,-0.504,-0.811,+0.924,-0.116,-0.376,+3.562,-5.688,-1.688,-1, -5, -1, -2, -1, -2, -2, 1,-0.5920370035137296,1.1466639605494193
1503699385833,+0.217,+0.204,-0.503,-0.811,+0.907,-0.112,-0.342,+1.500,-6.500,-7.188,-1, -3, -3, 1, 1, 1, 3, -5,-0.5953762208747632,1.1444821102880351
1503699385843,+0.218,+0.203,-0.503,-0.811,+0.899,-0.094,-0.328,+0.688,-7.062,-10.062,-11, -3, 2, 2, 3, -1, -10, -9,-0.5959209919771806,1.143724553393862
1503699385863,+0.221,+0.201,-0.503,-0.811,+0.912,-0.081,-0.349,+0.938,-7.125,-12.188,-12, -3, -1, 0, 2, 0, 1, 9,-0.5988703465332219,1.1423847985646198
1503699385886,+0.223,+0.200,-0.502,-0.811,+0.904,-0.072,-0.375,+0.500,-6.375,-13.375,0, 3, 1, 3, 3, 1, -1, -1,-0.6009482663131278,1.1392851346128696
1503699385901,+0.225,+0.199,-0.502,-0.811,+0.898,-0.065,-0.373,-0.125,-4.438,-6.812,-3, -4, -2, -2, -1, 5, 4, -9,-0.6033692617868097,1.1387039182628331
1503699385923,+0.225,+0.199,-0.501,-0.812,+0.913,-0.064,-0.369,+0.500,-4.438,+1.000,-8, -6, -1, 1, 1, -2, 1, 0,-0.6034122815354694,1.1366133368311389
1503699385946,+0.225,+0.199,-0.501,-0.812,+0.925,-0.079,-0.377,-1.938,-4.375,+4.000,-6, -9, -5, -1, 1, 0, 2, 0,-0.6034122815354694,1.1366133368311389
