Timestamp,Orientation X,Orientation Y,Orientation Z,Orientation W,Accelerometer X,Accelerometer Y,Accelerometer Z,Gyroscope X,Gyroscope Y,Gyroscope Z,EMG1,EMG2,EMG3,EMG4,EMG5,EMG6,EMG7,EMG8,Roll,Yaw
1503956929452,+0.840,+0.276,+0.036,+0.465,+0.519,+0.197,-0.819,-1.062,+0.125,-0.438,0, 4, 3, 0, -2, -1, 0, -2,2.1838656270445096,0.5317840541691761
1503956929470,+0.840,+0.276,+0.036,+0.465,+0.523,+0.206,-0.825,-1.562,+0.625,+0.562,0, 1, -1, 0, 0, 1, -1, 0,2.1838656270445096,0.5317840541691761
1503956929490,+0.840,+0.276,+0.036,+0.465,+0.525,+0.215,-0.817,-1.375,+0.062,-0.125,-1, -3, 0, -1, -1, 0, -1, -2,2.1838656270445096,0.5317840541691761
1503956929511,+0.840,+0.276,+0.036,+0.465,+0.536,+0.210,-0.819,-0.625,+1.750,+0.250,1, 1, 1, 0, -1, -1, -3, -3,2.1838656270445096,0.5317840541691761
1503956929527,+0.840,+0.276,+0.036,+0.465,+0.547,+0.215,-0.814,-0.688,-0.375,+0.250,0, 1, 0, 0, 0, 0, 1, 0,2.1838656270445096,0.5317840541691761
1503956929550,+0.840,+0.276,+0.036,+0.465,+0.543,+0.207,-0.822,-0.875,-0.625,-0.125,-3, -4, -5, -1, -1, -3, 0, -1,2.1838656270445096,0.5317840541691761
1503956929583,+0.840,+0.276,+0.036,+0.465,+0.528,+0.207,-0.828,-1.125,-1.000,-0.438,0, -1, -2, -2, 0, 0, -1, 0,2.1838656270445096,0.5317840541691761
1503956929588,+0.840,+0.276,+0.036,+0.465,+0.517,+0.207,-0.819,-1.250,-0.625,-0.688,-3, -5, -1, 0, -2, -2, 0, -2,2.1838656270445096,0.5317840541691761
1503956929634,+0.840,+0.276,+0.036,+0.465,+0.522,+0.207,-0.822,-1.375,+0.875,-0.312,0, 3, 3, 1, -1, -2, -1, -3,2.1838656270445096,0.5317840541691761
1503956929636,+0.840,+0.277,+0.036,+0.465,+0.538,+0.204,-0.818,-1.312,+1.062,-0.062,2, 0, 0, 1, -1, 0, -1, -2,2.1847462729675278,0.5338331326608605
1503956929653,+0.840,+0.277,+0.036,+0.465,+0.534,+0.205,-0.820,-1.062,-0.750,-0.125,-1, 0, -2, -1, 1, -2, -2, -2,2.1847462729675278,0.5338331326608605
1503956929668,+0.840,+0.277,+0.036,+0.465,+0.526,+0.202,-0.822,-1.250,+0.000,+0.188,0, 2, 2, -2, 0, -1, -2, -2,2.1847462729675278,0.5338331326608605
1503956929695,+0.840,+0.277,+0.036,+0.465,+0.519,+0.205,-0.815,-1.500,+0.125,+0.438,5, 24, 7, 1, 1, 0, -1, 0,2.1847462729675278,0.5338331326608605
1503956929721,+0.840,+0.277,+0.036,+0.465,+0.530,+0.211,-0.823,-1.188,+0.625,+0.312,-2, -3, 0, 0, 0, -1, 2, 1,2.1847462729675278,0.5338331326608605
1503956929735,+0.840,+0.277,+0.036,+0.465,+0.537,+0.209,-0.820,-0.875,+0.750,-0.125,1, 2, -2, 0, -1, 0, 0, 0,2.1847462729675278,0.5338331326608605
1503956929754,+0.840,+0.277,+0.036,+0.465,+0.535,+0.214,-0.823,-1.438,+1.062,-0.375,0, 4, 1, 0, 1, -1, -1, 2,2.1847462729675278,0.5338331326608605
1503956929769,+0.840,+0.277,+0.036,+0.465,+0.540,+0.210,-0.816,-1.188,+0.562,-0.688,-2, -2, -1, -2, 0, 0, 0, 0,2.1847462729675278,0.5338331326608605
1503956929788,+0.840,+0.276,+0.036,+0.465,+0.536,+0.203,-0.814,-1.312,-1.188,+0.062,-2, -2, -2, 0, -2, -3, -3, -3,2.1838656270445096,0.5317840541691761
1503956929822,+0.840,+0.276,+0.036,+0.465,+0.519,+0.201,-0.823,-1.312,-1.438,-0.125,-1, -4, -2, -2, -1, 0, -1, -2,2.1838656270445096,0.5317840541691761
1503956929826,+0.840,+0.276,+0.036,+0.465,+0.525,+0.210,-0.827,-1.188,+0.250,+0.562,3, 16, 5, 0, -1, -1, 1, 1,2.1838656270445096,0.5317840541691761
1503956929851,+0.840,+0.276,+0.036,+0.465,+0.526,+0.210,-0.825,-1.312,+1.125,+0.562,-2, -7, -1, -1, -1, -1, -1, -1,2.1838656270445096,0.5317840541691761
1503956929873,+0.840,+0.276,+0.036,+0.465,+0.534,+0.205,-0.812,-0.938,+0.875,+0.062,-1, -2, -2, 1, -1, -1, -1, -1,2.1838656270445096,0.5317840541691761
1503956929895,+0.840,+0.276,+0.036,+0.465,+0.545,+0.203,-0.817,-0.875,+0.375,+0.250,-2, -5, -3, -2, 0, 0, -1, 0,2.1838656270445096,0.5317840541691761
1503956929907,+0.840,+0.276,+0.036,+0.465,+0.544,+0.209,-0.825,-1.438,-0.938,-0.062,0, -8, -2, 0, 1, -2, 0, -2,2.1838656270445096,0.5317840541691761
1503956929939,+0.840,+0.276,+0.036,+0.465,+0.534,+0.215,-0.817,-1.438,-1.438,-0.375,-1, -2, -1, -1, 0, -1, -1, -1,2.1838656270445096,0.5317840541691761
1503956929969,+0.840,+0.276,+0.036,+0.465,+0.519,+0.211,-0.822,-1.312,-1.312,-0.812,2, 17, 6, 0, -1, 1, -1, 2,2.1838656270445096,0.5317840541691761
1503956929983,+0.840,+0.276,+0.036,+0.465,+0.519,+0.209,-0.822,-1.125,+0.438,-0.500,-2, -8, -1, -1, 0, 0, 0, -4,2.1838656270445096,0.5317840541691761
1503956929996,+0.840,+0.276,+0.036,+0.465,+0.531,+0.206,-0.822,-1.000,+0.562,+0.188,1, 1, -1, -3, 0, -2, -1, 0,2.1838656270445096,0.5317840541691761
1503956930008,+0.840,+0.276,+0.036,+0.465,+0.541,+0.202,-0.816,-1.250,+0.500,+0.375,-2, -2, -3, -1, -1, 0, -4, -1,2.1838656270445096,0.5317840541691761
1503956930030,+0.840,+0.276,+0.036,+0.465,+0.538,+0.209,-0.825,-1.438,+0.188,-0.188,1, 2, 2, 0, 0, -3, 1, 0,2.1838656270445096,0.5317840541691761
1503956930060,+0.840,+0.276,+0.036,+0.465,+0.536,+0.217,-0.811,-1.312,-1.125,-0.125,-5, -10, -4, -1, -1, -1, -1, -2,2.1838656270445096,0.5317840541691761
1503956930076,+0.840,+0.276,+0.035,+0.465,+0.523,+0.210,-0.821,-1.188,-1.250,+0.188,-1, -1, -1, -1, 0, 2, 2, 0,2.1841900529944582,0.5308927458600482
1503956930088,+0.840,+0.276,+0.035,+0.465,+0.528,+0.213,-0.819,-1.125,-0.750,+0.562,-2, -8, -4, -3, -2, -3, -2, -3,2.1841900529944582,0.5308927458600482
1503956930120,+0.840,+0.276,+0.035,+0.465,+0.530,+0.205,-0.821,-0.812,+0.250,+0.312,-2, 0, -2, -2, -1, 1, -1, -1,2.1841900529944582,0.5308927458600482
1503956930127,+0.840,+0.276,+0.036,+0.465,+0.537,+0.206,-0.819,-1.062,+0.125,-0.250,-2, -1, -1, 0, -2, -3, -2, -2,2.1838656270445096,0.5317840541691761
1503956930153,+0.840,+0.276,+0.036,+0.465,+0.533,+0.212,-0.822,-1.500,-0.312,-0.625,-1, 0, 0, -2, 0, -1, -1, -1,2.1838656270445096,0.5317840541691761
1503956930173,+0.840,+0.276,+0.035,+0.465,+0.526,+0.214,-0.817,-1.688,+0.062,-0.625,-2, -1, -1, 0, -1, -2, -1, -2,2.1841900529944582,0.5308927458600482
1503956930188,+0.840,+0.276,+0.035,+0.465,+0.522,+0.204,-0.823,-0.812,+0.188,+0.125,-3, -6, -1, -2, -1, -2, -2, -2,2.1841900529944582,0.5308927458600482
1503956930208,+0.840,+0.276,+0.036,+0.465,+0.528,+0.202,-0.813,-0.938,+0.125,+0.750,-3, -7, -1, -2, 0, 0, -1, -5,2.1838656270445096,0.5317840541691761
1503956930233,+0.840,+0.276,+0.036,+0.465,+0.537,+0.200,-0.821,-0.688,+0.688,+0.625,4, 15, 1, 1, 2, 2, -1, 0,2.1838656270445096,0.5317840541691761
1503956930254,+0.840,+0.276,+0.036,+0.465,+0.545,+0.207,-0.824,-1.375,-0.438,+0.125,2, 0, -3, -1, -2, 1, 1, 0,2.1838656270445096,0.5317840541691761
1503956930268,+0.840,+0.276,+0.035,+0.465,+0.534,+0.214,-0.820,-1.375,-1.500,-1.000,-2, -5, -1, -2, -1, -2, 1, -2,2.1841900529944582,0.5308927458600482
1503956930296,+0.840,+0.276,+0.035,+0.465,+0.521,+0.216,-0.818,-1.438,-0.625,-0.625,-1, 3, 1, 1, 0, 1, 0, -1,2.1841900529944582,0.5308927458600482
1503956930322,+0.840,+0.276,+0.035,+0.465,+0.522,+0.218,-0.825,-1.500,-0.375,-0.438,0, 11, 4, 1, 2, 1, -1, 0,2.1841900529944582,0.5308927458600482
1503956930345,+0.840,+0.276,+0.035,+0.465,+0.530,+0.210,-0.813,-0.875,+0.438,-0.062,-2, -8, -5, -1, -1, -2, -2, 1,2.1841900529944582,0.5308927458600482
1503956930356,+0.840,+0.276,+0.035,+0.465,+0.532,+0.212,-0.819,-0.938,-0.125,+0.562,0, -3, 0, -1, 0, -1, -2, -2,2.1841900529944582,0.5308927458600482
1503956930374,+0.840,+0.276,+0.035,+0.465,+0.531,+0.213,-0.820,-0.750,-0.375,+0.688,2, 2, -1, -1, -1, 0, -2, 0,2.1841900529944582,0.5308927458600482
1503956930395,+0.840,+0.276,+0.035,+0.465,+0.528,+0.205,-0.820,-0.938,-0.125,+1.188,-2, 0, -2, -1, -2, 0, 0, -3,2.1841900529944582,0.5308927458600482
1503956930435,+0.840,+0.276,+0.035,+0.465,+0.526,+0.206,-0.817,-0.375,-0.438,+1.000,0, 4, 0, -1, -1, -1, -2, 1,2.1841900529944582,0.5308927458600482
1503956930454,+0.840,+0.276,+0.036,+0.465,+0.524,+0.197,-0.826,-0.562,+1.500,+0.625,-2, -2, 0, 0, 0, 0, 1, -1,2.1838656270445096,0.5317840541691761
1503956930459,+0.840,+0.276,+0.036,+0.465,+0.530,+0.209,-0.821,-0.750,+0.938,+0.062,-2, -2, 0, 0, 0, 1, 1, 2,2.1838656270445096,0.5317840541691761
1503956930498,+0.840,+0.276,+0.036,+0.465,+0.544,+0.210,-0.812,-1.000,+0.062,-0.500,-1, -4, -4, -1, -1, 0, -3, 0,2.1838656270445096,0.5317840541691761
1503956930505,+0.840,+0.276,+0.036,+0.465,+0.545,+0.219,-0.819,-1.438,-0.125,-0.438,-1, 0, -1, -2, -3, 0, 0, -2,2.1838656270445096,0.5317840541691761
1503956930510,+0.840,+0.276,+0.035,+0.465,+0.529,+0.216,-0.817,-1.188,-2.375,-0.375,2, 0, -1, 1, 0, 1, -2, 0,2.1841900529944582,0.5308927458600482
1503956930532,+0.840,+0.275,+0.035,+0.465,+0.511,+0.203,-0.821,-0.750,-0.875,+0.125,-2, -2, 0, 0, 1, 0, 0, 0,2.183310149415758,0.5288455177469067
1503956930554,+0.840,+0.275,+0.035,+0.465,+0.521,+0.201,-0.816,-0.750,+0.062,+0.375,-2, -9, -5, -2, -2, -1, -1, -1,2.183310149415758,0.5288455177469067
1503956930570,+0.841,+0.275,+0.036,+0.465,+0.531,+0.204,-0.824,-1.062,+1.125,+0.375,-2, 5, -3, -1, 0, -2, 0, -1,2.1852459851234234,0.5302213534228517
1503956930594,+0.840,+0.276,+0.036,+0.465,+0.534,+0.207,-0.827,-1.312,+1.312,+0.438,1, -2, 0, -3, 0, -2, 1, -1,2.1838656270445096,0.5317840541691761
1503956930606,+0.840,+0.276,+0.036,+0.465,+0.531,+0.215,-0.822,-1.250,-0.250,+0.250,-1, -1, 1, -1, 0, -1, -2, -1,2.1838656270445096,0.5317840541691761
1503956930630,+0.840,+0.276,+0.036,+0.465,+0.527,+0.211,-0.813,-1.000,+0.688,+0.625,-1, 1, 0, 1, -1, 1, 0, 1,2.1838656270445096,0.5317840541691761
1503956930652,+0.840,+0.276,+0.036,+0.465,+0.535,+0.208,-0.823,-0.812,+0.438,+0.625,-1, 3, 1, -1, 0, -1, 0, -2,2.1838656270445096,0.5317840541691761
1503956930681,+0.840,+0.276,+0.036,+0.465,+0.547,+0.211,-0.822,-1.188,-0.625,+0.375,1, 4, -1, -1, 0, -3, -4, 0,2.1838656270445096,0.5317840541691761
1503956930729,+0.840,+0.276,+0.036,+0.465,+0.526,+0.206,-0.818,-1.000,-0.938,-0.375,-1, -3, -2, -4, 1, -1, -3, 0,2.1838656270445096,0.5317840541691761
1503956930738,+0.840,+0.276,+0.036,+0.465,+0.521,+0.200,-0.824,-1.188,-0.375,-0.062,0, 1, -1, 1, -1, 0, -2, -2,2.1838656270445096,0.5317840541691761
1503956930740,+0.840,+0.276,+0.036,+0.465,+0.522,+0.210,-0.819,-1.312,-0.312,+0.062,-3, 1, 0, 0, -1, 1, 0, -4,2.1838656270445096,0.5317840541691761
1503956930752,+0.840,+0.276,+0.036,+0.465,+0.531,+0.203,-0.814,-1.125,+1.062,+0.625,0, -2, -2, 0, 0, -1, 0, -1,2.1838656270445096,0.5317840541691761
1503956930772,+0.840,+0.276,+0.036,+0.465,+0.537,+0.204,-0.817,-1.000,+0.688,+0.688,0, 10, 3, -1, -3, 0, 0, 0,2.1838656270445096,0.5317840541691761
1503956930789,+0.840,+0.276,+0.036,+0.465,+0.536,+0.205,-0.818,-0.938,-0.125,+0.438,0, 0, 0, 1, 0, 0, 0, 1,2.1838656270445096,0.5317840541691761
1503956930811,+0.841,+0.275,+0.036,+0.465,+0.541,+0.209,-0.819,-0.750,-1.500,+0.250,0, -3, -3, -3, 1, 1, 0, -1,2.1852459851234234,0.5302213534228517
1503956930834,+0.841,+0.275,+0.036,+0.465,+0.533,+0.211,-0.825,-1.375,-1.562,+0.250,0, 1, 2, 1, -2, -1, -2, -2,2.1852459851234234,0.5302213534228517
1503956930846,+0.841,+0.275,+0.036,+0.465,+0.518,+0.213,-0.819,-1.875,-0.688,+0.062,-1, -3, -1, 0, 1, -1, -2, -1,2.1852459851234234,0.5302213534228517
1503956930868,+0.841,+0.275,+0.035,+0.465,+0.525,+0.219,-0.820,-1.375,+0.562,-0.188,-1, -3, -3, 0, -2, -1, 0, -2,2.1855692075646336,0.5293298345507995
1503956930891,+0.841,+0.275,+0.035,+0.465,+0.538,+0.215,-0.818,-1.062,+1.062,+0.000,-2, -2, -1, -2, 0, -1, 0, 0,2.1855692075646336,0.5293298345507995
1503956930908,+0.841,+0.275,+0.036,+0.465,+0.533,+0.209,-0.818,-0.500,+0.438,+0.375,2, 3, 1, -1, 1, -1, 0, 0,2.1852459851234234,0.5302213534228517
1503956930934,+0.841,+0.275,+0.036,+0.465,+0.537,+0.196,-0.806,-0.250,-0.812,+0.438,-3, -4, -3, -3, -2, -2, -4, -3,2.1852459851234234,0.5302213534228517
1503956930956,+0.841,+0.275,+0.036,+0.465,+0.522,+0.194,-0.821,-0.375,-1.062,+0.688,2, 15, 1, 2, 0, 0, 1, -2,2.1852459851234234,0.5302213534228517
1503956930966,+0.841,+0.275,+0.036,+0.465,+0.526,+0.194,-0.828,-1.250,-0.125,+0.625,-3, -6, -3, -2, -3, 0, -2, 0,2.1852459851234234,0.5302213534228517
1503956930992,+0.841,+0.275,+0.036,+0.465,+0.527,+0.207,-0.820,-1.688,-0.625,+0.312,-4, -5, 1, -1, 0, -2, -1, -3,2.1852459851234234,0.5302213534228517
1503956931017,+0.841,+0.275,+0.036,+0.465,+0.529,+0.213,-0.821,-2.000,-0.312,-0.062,-1, -5, -2, 0, 0, 0, -1, 1,2.1852459851234234,0.5302213534228517
1503956931038,+0.841,+0.275,+0.036,+0.465,+0.539,+0.229,-0.816,-1.625,-0.125,-0.375,-2, -3, 0, -2, -1, -2, -2, -2,2.1852459851234234,0.5302213534228517
1503956931051,+0.841,+0.275,+0.036,+0.465,+0.540,+0.216,-0.819,-0.688,+0.188,-0.250,1, -1, -1, -1, 0, 0, 0, 1,2.1852459851234234,0.5302213534228517
1503956931077,+0.841,+0.275,+0.036,+0.465,+0.530,+0.200,-0.821,-0.500,-1.062,-0.125,-1, -1, -2, -1, -2, 0, 0, 2,2.1852459851234234,0.5302213534228517
1503956931095,+0.841,+0.275,+0.036,+0.465,+0.521,+0.198,-0.818,-0.562,-1.375,+0.125,-1, 9, 2, -1, -1, -1, 0, -2,2.1852459851234234,0.5302213534228517
1503956931111,+0.841,+0.275,+0.036,+0.465,+0.513,+0.200,-0.824,-1.188,+0.500,+0.312,-1, -9, -3, -1, -1, 0, -1, -1,2.1852459851234234,0.5302213534228517
1503956931132,+0.841,+0.275,+0.036,+0.465,+0.532,+0.211,-0.826,-1.688,+1.688,+0.688,2, 3, 1, 1, -3, -3, 0, 0,2.1852459851234234,0.5302213534228517
1503956931162,+0.841,+0.275,+0.036,+0.465,+0.542,+0.208,-0.809,-0.750,+0.312,+0.250,-2, 0, 0, -1, -1, -1, 0, 0,2.1852459851234234,0.5302213534228517
1503956931171,+0.841,+0.275,+0.036,+0.465,+0.533,+0.210,-0.817,-0.438,+0.062,+0.875,0, 0, -2, 0, -2, -2, -2, -2,2.1852459851234234,0.5302213534228517
1503956931245,+0.841,+0.275,+0.036,+0.465,+0.534,+0.207,-0.813,-0.188,-1.188,+0.250,-1, -5, -5, -1, -1, -2, -2, 1,2.1852459851234234,0.5302213534228517
1503956931266,+0.841,+0.275,+0.036,+0.465,+0.529,+0.210,-0.828,-1.062,+0.438,+0.312,-2, 3, -1, -1, -1, -2, 0, -1,2.1852459851234234,0.5302213534228517
1503956931269,+0.841,+0.275,+0.036,+0.465,+0.530,+0.219,-0.821,-1.438,-0.375,-0.312,-2, -3, -3, -1, -2, -2, 1, 0,2.1852459851234234,0.5302213534228517
1503956931273,+0.841,+0.275,+0.036,+0.465,+0.526,+0.201,-0.818,-1.062,+0.750,-0.375,-3, -4, -3, -2, -1, 1, 0, -1,2.1852459851234234,0.5302213534228517
1503956931295,+0.841,+0.275,+0.036,+0.465,+0.531,+0.199,-0.824,-1.125,+0.938,+0.688,0, -3, -3, -1, -3, -1, 2, -2,2.1852459851234234,0.5302213534228517
1503956931312,+0.841,+0.275,+0.036,+0.465,+0.533,+0.194,-0.809,-0.750,-0.375,+0.562,-3, -2, 1, 0, 0, -2, -1, 0,2.1852459851234234,0.5302213534228517
1503956931333,+0.841,+0.275,+0.036,+0.465,+0.529,+0.193,-0.822,-1.000,+0.562,+0.938,-1, 3, 1, -1, -1, -1, -3, -3,2.1852459851234234,0.5302213534228517
1503956931338,+0.841,+0.275,+0.036,+0.465,+0.530,+0.208,-0.820,-1.312,-0.688,+0.375,-2, 2, -2, 0, -1, -1, 0, 1,2.1852459851234234,0.5302213534228517
1503956931351,+0.841,+0.275,+0.036,+0.465,+0.532,+0.201,-0.821,-1.250,-0.438,+0.125,-2, -5, -4, -3, -2, -2, -3, -2,2.1852459851234234,0.5302213534228517
1503956931372,+0.841,+0.275,+0.036,+0.465,+0.532,+0.215,-0.827,-2.000,-0.375,+0.188,1, -2, -2, 1, -1, 0, -1, 0,2.1852459851234234,0.5302213534228517
1503956931398,+0.841,+0.275,+0.036,+0.465,+0.528,+0.220,-0.812,-1.750,-0.625,-0.312,-1, -3, -2, -2, 0, -1, -1, -1,2.1852459851234234,0.5302213534228517
1503956931412,+0.841,+0.275,+0.036,+0.465,+0.522,+0.216,-0.818,-1.250,+0.875,+0.562,0, 1, -1, -1, 0, 0, -1, -1,2.1852459851234234,0.5302213534228517
1503956931432,+0.841,+0.275,+0.036,+0.465,+0.535,+0.213,-0.822,-0.812,+0.375,-0.312,0, -1, -1, -1, -1, -1, -3, 0,2.1852459851234234,0.5302213534228517
1503956931499,+0.841,+0.275,+0.036,+0.465,+0.542,+0.197,-0.821,-0.625,+0.062,-0.125,1, 4, 1, 0, -2, 0, 0, -2,2.1852459851234234,0.5302213534228517
1503956931501,+0.841,+0.275,+0.036,+0.465,+0.533,+0.200,-0.826,-1.375,-1.188,+0.438,1, 2, -2, -1, 0, 0, 0, 1,2.1852459851234234,0.5302213534228517
1503956931502,+0.841,+0.275,+0.036,+0.465,+0.519,+0.196,-0.812,-1.312,-1.625,+0.188,-2, -2, 0, 1, -1, -1, 0, 0,2.1852459851234234,0.5302213534228517
1503956931537,+0.841,+0.274,+0.036,+0.465,+0.509,+0.204,-0.816,-1.438,+0.812,+0.562,1, -1, -3, -2, -1, 0, -2, 0,2.1843735366507726,0.5281760077132991
1503956931539,+0.841,+0.275,+0.036,+0.465,+0.531,+0.215,-0.824,-1.062,+1.938,+0.125,-3, -1, 0, -1, 0, -2, -1, -2,2.1852459851234234,0.5302213534228517
1503956931571,+0.841,+0.275,+0.036,+0.465,+0.553,+0.209,-0.813,-0.750,+1.062,-0.312,1, 6, 3, -2, 0, 0, -3, -1,2.1852459851234234,0.5302213534228517
1503956931575,+0.841,+0.275,+0.036,+0.465,+0.549,+0.207,-0.822,-0.750,-0.875,-0.500,-3, -2, -2, -2, -1, 0, -1, -2,2.1852459851234234,0.5302213534228517
1503956931593,+0.841,+0.275,+0.036,+0.465,+0.533,+0.207,-0.815,-1.125,-2.188,-0.750,-3, -7, -3, -3, -1, -2, -2, -4,2.1852459851234234,0.5302213534228517
1503956931633,+0.841,+0.275,+0.036,+0.465,+0.516,+0.213,-0.816,-1.312,-1.000,-0.375,-2, -8, -2, -2, -1, -2, -1, -1,2.1852459851234234,0.5302213534228517
1503956931647,+0.841,+0.275,+0.036,+0.465,+0.516,+0.215,-0.830,-1.188,+0.062,-0.312,-1, 1, 0, 0, -1, -1, 0, -2,2.1852459851234234,0.5302213534228517
1503956931659,+0.841,+0.275,+0.036,+0.465,+0.513,+0.213,-0.815,-1.062,+1.000,-0.188,-3, -3, 0, -1, -2, -2, -3, -3,2.1852459851234234,0.5302213534228517
1503956931675,+0.841,+0.275,+0.036,+0.465,+0.528,+0.204,-0.813,-0.875,+1.938,+0.375,-1, 1, 2, 0, 0, -3, -1, -3,2.1852459851234234,0.5302213534228517
1503956931706,+0.841,+0.275,+0.036,+0.465,+0.546,+0.205,-0.814,-0.625,+1.062,+0.688,0, 6, 1, -1, -1, 0, 0, -3,2.1852459851234234,0.5302213534228517
1503956931719,+0.841,+0.275,+0.036,+0.465,+0.546,+0.203,-0.823,-0.562,-0.875,+0.812,-1, -4, 0, -1, 0, 0, 0, -3,2.1852459851234234,0.5302213534228517
1503956931810,+0.841,+0.275,+0.036,+0.465,+0.525,+0.207,-0.820,-0.812,-1.312,+0.375,-1, -2, -2, 0, -1, -1, -3, -1,2.1852459851234234,0.5302213534228517
1503956931872,+0.841,+0.275,+0.036,+0.465,+0.517,+0.212,-0.822,-1.312,-0.250,+0.188,-1, 3, 0, -1, 0, -1, 0, 0,2.1852459851234234,0.5302213534228517
1503956931874,+0.841,+0.275,+0.036,+0.465,+0.534,+0.214,-0.812,-1.438,+0.875,-0.500,0, -6, -6, -1, 1, 0, 0, 0,2.1852459851234234,0.5302213534228517
1503956931876,+0.841,+0.275,+0.036,+0.465,+0.541,+0.215,-0.825,-0.812,+0.938,-0.125,0, -1, -2, -1, -3, 1, 1, 1,2.1852459851234234,0.5302213534228517
1503956931877,+0.841,+0.275,+0.036,+0.465,+0.537,+0.208,-0.814,-0.500,-0.250,-0.250,-2, -2, -1, -1, -3, 0, -1, -1,2.1852459851234234,0.5302213534228517
1503956931883,+0.841,+0.275,+0.036,+0.465,+0.531,+0.200,-0.820,-1.188,-0.812,+0.062,0, -1, 1, 0, -2, -1, 1, 0,2.1852459851234234,0.5302213534228517
1503956931884,+0.841,+0.275,+0.036,+0.465,+0.519,+0.200,-0.820,-1.312,+0.125,+0.375,-6, -5, -4, -2, 0, -1, -2, -1,2.1852459851234234,0.5302213534228517
1503956931986,+0.841,+0.275,+0.036,+0.465,+0.530,+0.204,-0.823,-1.500,+0.625,+0.125,-1, -3, -2, -1, 1, -3, -1, -1,2.1852459851234234,0.5302213534228517
1503956931992,+0.841,+0.275,+0.036,+0.465,+0.537,+0.201,-0.812,-1.562,+0.562,-0.062,-4, -8, -2, -1, 0, -2, -1, -2,2.1852459851234234,0.5302213534228517
1503956932005,+0.841,+0.275,+0.036,+0.465,+0.538,+0.212,-0.818,-2.125,-0.125,+0.188,1, 0, 2, 0, 0, 0, 0, 1,2.1852459851234234,0.5302213534228517
1503956932022,+0.841,+0.275,+0.036,+0.465,+0.540,+0.222,-0.816,-2.188,-0.375,-0.438,0, 9, 4, -1, 0, -1, 1, 1,2.1852459851234234,0.5302213534228517
1503956932024,+0.841,+0.275,+0.036,+0.465,+0.541,+0.221,-0.820,-1.000,-0.062,-0.438,-1, 0, -2, -1, -1, 1, 0, 0,2.1852459851234234,0.5302213534228517
1503956932046,+0.841,+0.275,+0.036,+0.465,+0.530,+0.209,-0.820,-0.625,-0.938,-0.438,-1, -3, -2, -1, -3, 1, 0, -2,2.1852459851234234,0.5302213534228517
1503956932047,+0.841,+0.275,+0.036,+0.465,+0.517,+0.199,-0.824,-0.312,-0.500,-0.312,0, 7, 3, 0, -1, -2, 0, 1,2.1852459851234234,0.5302213534228517
1503956932050,+0.841,+0.275,+0.036,+0.465,+0.529,+0.192,-0.820,-0.875,+0.875,+0.062,-2, -3, -3, -2, -2, 0, 2, 4,2.1852459851234234,0.5302213534228517
1503956932100,+0.841,+0.275,+0.036,+0.465,+0.538,+0.205,-0.819,-1.562,-0.062,+0.375,0, 3, 0, -1, -2, 0, 0, 3,2.1852459851234234,0.5302213534228517
1503956932118,+0.841,+0.275,+0.036,+0.465,+0.548,+0.203,-0.810,-1.375,-0.438,+0.000,1, 3, 3, -1, 0, -2, -3, -10,2.1852459851234234,0.5302213534228517
1503956932130,+0.841,+0.275,+0.036,+0.465,+0.532,+0.204,-0.823,-1.312,-1.625,+0.062,-3, -2, -1, 0, -3, -2, -2, -15,2.1852459851234234,0.5302213534228517
1503956932131,+0.841,+0.275,+0.035,+0.465,+0.522,+0.217,-0.825,-1.688,-2.062,-0.562,1, 12, 1, 3, 2, -3, -2, -13,2.1855692075646336,0.5293298345507995
1503956932181,+0.841,+0.275,+0.035,+0.465,+0.517,+0.222,-0.819,-1.688,+0.562,-0.125,-1, -4, -3, -2, -3, -3, -3, 0,2.1855692075646336,0.5293298345507995
1503956932187,+0.841,+0.275,+0.035,+0.465,+0.528,+0.222,-0.814,-1.125,+1.438,-0.250,-1, -2, 0, 0, 1, 1, -1, 9,2.1855692075646336,0.5293298345507995
1503956932203,+0.841,+0.275,+0.036,+0.465,+0.546,+0.206,-0.813,+0.062,+1.875,-0.750,-3, -1, 0, -1, -1, 0, 1, 4,2.1852459851234234,0.5302213534228517
1503956932208,+0.841,+0.275,+0.036,+0.465,+0.539,+0.199,-0.824,-0.125,+0.125,-0.250,-1, -4, -2, -1, -1, -1, 1, 4,2.1852459851234234,0.5302213534228517
1503956932220,+0.841,+0.275,+0.036,+0.465,+0.530,+0.210,-0.828,-1.062,-0.688,-0.688,0, 2, -1, 5, 2, -1, 0, -1,2.1852459851234234,0.5302213534228517
1503956932238,+0.841,+0.275,+0.035,+0.465,+0.519,+0.207,-0.812,-0.875,-1.062,-0.750,0, 0, -1, -4, -2, -1, 1, -1,2.1855692075646336,0.5293298345507995
1503956932251,+0.841,+0.275,+0.035,+0.465,+0.527,+0.209,-0.820,-1.000,+0.312,+0.312,-2, -1, -1, -3, -1, -1, -2, -3,2.1855692075646336,0.5293298345507995
1503956932273,+0.841,+0.275,+0.036,+0.465,+0.542,+0.199,-0.816,-0.625,+0.062,-0.375,0, -3, -2, 1, -2, -1, 0, 0,2.1852459851234234,0.5302213534228517
1503956932308,+0.841,+0.275,+0.036,+0.465,+0.522,+0.203,-0.837,-0.750,-0.375,+0.062,-3, -11, -4, -4, -2, -2, -2, -5,2.1852459851234234,0.5302213534228517
1503956932311,+0.841,+0.275,+0.035,+0.465,+0.518,+0.204,-0.821,-1.562,-0.438,-1.062,-2, -11, -6, 0, 0, 1, 0, -1,2.1855692075646336,0.5293298345507995
1503956932335,+0.840,+0.276,+0.035,+0.465,+0.536,+0.205,-0.812,-2.500,+2.062,-1.250,-2, -3, -3, -2, 0, -1, -3, -3,2.1841900529944582,0.5308927458600482
1503956932356,+0.840,+0.276,+0.035,+0.465,+0.567,+0.206,-0.812,-2.500,-0.375,-2.375,-1, 2, -1, -2, -2, 0, -2, -1,2.1841900529944582,0.5308927458600482
1503956932391,+0.840,+0.275,+0.035,+0.465,+0.528,+0.207,-0.819,-2.062,-4.750,-0.125,-2, 2, 0, 1, 0, -1, -2, -2,2.183310149415758,0.5288455177469067
1503956932422,+0.841,+0.275,+0.034,+0.465,+0.486,+0.214,-0.806,-1.062,-4.750,+0.312,0, 1, -1, -1, 0, 0, 1, -1,2.185892726214096,0.5284397419676228
1503956932425,+0.841,+0.274,+0.035,+0.466,+0.575,+0.118,-0.834,+1.188,-1.250,-3.125,-2, -6, -2, -2, -1, 0, 0, 0,2.1837083996319095,0.5273455444924362
1503956932439,+0.841,+0.273,+0.035,+0.466,+0.555,+0.109,-0.875,-7.250,-5.000,-5.688,2, 10, -2, 0, -2, -1, -1, 1,2.1828372447961386,0.5253021062705489
1503956932451,+0.841,+0.274,+0.030,+0.466,+0.466,+0.350,-0.814,-16.812,-8.250,-5.875,0, -2, -2, -1, -1, -2, -2, 0,2.1853176752168397,0.522897404361797
1503956932475,+0.840,+0.275,+0.026,+0.467,+0.386,+0.500,-0.755,-8.938,+1.062,+1.125,1, 3, -1, 2, -1, 1, -1, 0,2.1842458028871836,0.5209737296490362
1503956932489,+0.840,+0.277,+0.028,+0.466,+0.504,+0.247,-0.799,+4.938,+14.062,+9.438,0, -1, -4, 0, -1, -2, -3, -2,2.186367549126257,0.5267971182462515
1503956932512,+0.840,+0.279,+0.032,+0.464,+0.695,+0.159,-0.813,+4.625,+12.875,+10.062,1, 0, 0, 0, -1, -2, 0, -2,2.188823156427359,0.5343336376908889
1503956932534,+0.841,+0.279,+0.034,+0.463,+0.654,+0.186,-0.816,+6.062,-4.250,+6.625,0, -1, 1, -1, 0, -2, -2, 0,2.1914035912920893,0.5365317797535053
1503956932588,+0.841,+0.276,+0.034,+0.463,+0.487,+0.092,-0.837,+3.000,-10.812,+0.688,-1, 1, 1, 0, 0, -1, -1, 0,2.1887562486647365,0.530369133618191
1503956932589,+0.842,+0.274,+0.034,+0.464,+0.424,+0.122,-0.839,-4.375,-3.688,-4.062,1, 3, 0, -1, -2, 0, -1, 0,2.188263979730716,0.5268164108896116
1503956932610,+0.841,+0.275,+0.033,+0.464,+0.480,+0.239,-0.846,-7.312,+6.312,-2.562,-1, -6, -1, 0, 1, 0, -1, 0,2.1872086708952168,0.5274928635745827
1503956932611,+0.841,+0.277,+0.032,+0.463,+0.531,+0.266,-0.790,-5.500,+4.875,+1.750,0, -3, -1, -1, -1, -1, -1, -1,2.190293634632642,0.5306543622039858
1503956932651,+0.841,+0.278,+0.032,+0.463,+0.517,+0.228,-0.815,-3.812,+4.688,+4.812,0, -1, -3, -3, -1, -2, -1, -4,2.191178804827334,0.5327098872023983
1503956932669,+0.841,+0.279,+0.032,+0.462,+0.546,+0.263,-0.833,-2.375,+6.438,+4.312,1, 13, 2, -1, 0, 1, 0, -1,2.1930667706004923,0.5347116717028271
1503956932670,+0.841,+0.280,+0.033,+0.462,+0.602,+0.208,-0.793,+0.562,+3.750,+0.312,-2, -7, -2, -1, -2, -3, 3, -1,2.193622904587085,0.537651122348488
1503956932691,+0.841,+0.280,+0.033,+0.462,+0.562,+0.188,-0.808,-0.688,-0.125,-0.125,-1, -5, -1, 1, -1, -3, -1, 0,2.193622904587085,0.537651122348488
1503956932719,+0.841,+0.280,+0.033,+0.462,+0.531,+0.218,-0.800,-0.750,-1.875,-2.750,1, -2, 1, -1, 0, 1, 0, 0,2.193622904587085,0.537651122348488
1503956932735,+0.841,+0.279,+0.033,+0.463,+0.525,+0.212,-0.810,+1.125,-1.250,-1.750,-1, -5, -4, -2, -1, -2, 0, 0,2.191734659703922,0.5356491322959889
1503956932752,+0.841,+0.279,+0.034,+0.463,+0.513,+0.175,-0.815,+0.750,-1.438,-0.312,1, 3, 0, 0, -1, -3, -1, -1,2.1914035912920893,0.5365317797535053
1503956932782,+0.841,+0.278,+0.034,+0.463,+0.528,+0.154,-0.849,-1.188,-0.062,-1.062,-1, -1, -2, 0, -2, -2, 0, -1,2.190519081196197,0.5344750663301623
1503956932789,+0.841,+0.278,+0.034,+0.463,+0.530,+0.197,-0.828,-4.250,-1.938,-2.312,-3, -12, -4, -2, -2, 0, -1, -2,2.190519081196197,0.5344750663301623
1503956932821,+0.841,+0.278,+0.032,+0.463,+0.518,+0.249,-0.798,-4.625,-1.250,-1.375,-3, -4, -1, -2, 0, 1, -1, -4,2.191178804827334,0.5327098872023983
1503956932835,+0.841,+0.279,+0.032,+0.463,+0.542,+0.266,-0.813,-2.312,+0.438,-0.875,-3, -12, -5, 0, -1, -1, -4, -2,2.192066034850751,0.5347679227639144
1503956932851,+0.840,+0.279,+0.032,+0.463,+0.549,+0.253,-0.821,+0.188,+1.062,-0.375,1, 17, 7, 0, 0, 2, 0, -1,2.189819533741141,0.5342773576970543
1503956932871,+0.840,+0.279,+0.032,+0.464,+0.528,+0.248,-0.823,+1.688,+0.125,-0.500,-3, -3, -3, 0, -2, -3, -1, -2,2.188823156427359,0.5343336376908889
1503956932893,+0.840,+0.279,+0.032,+0.464,+0.497,+0.230,-0.813,+2.625,+2.188,+0.125,-1, -6, -3, -1, -3, 0, -2, 0,2.188823156427359,0.5343336376908889
1503956932912,+0.840,+0.279,+0.033,+0.464,+0.514,+0.204,-0.817,+2.812,+5.375,+1.625,1, 3, 0, -2, -2, -3, -1, 0,2.1884928334364604,0.5352169908437827
1503956932936,+0.840,+0.280,+0.035,+0.464,+0.539,+0.195,-0.816,+2.375,+5.625,+2.312,2, 1, 1, 0, -1, 0, 1, 2,2.1887218459115436,0.5390452952428142
1503956932987,+0.840,+0.280,+0.036,+0.463,+0.542,+0.206,-0.814,+1.312,+5.375,+2.750,-3, -3, -2, -2, -1, -1, -2, -1,2.1893842904519483,0.5398692966947601
1503956933017,+0.840,+0.281,+0.036,+0.463,+0.548,+0.216,-0.805,+2.062,+4.312,+1.688,3, 22, 2, 1, 1, -2, -1, -1,2.190274238922225,0.5419285096084551
1503956933019,+0.840,+0.281,+0.038,+0.463,+0.568,+0.206,-0.792,+2.875,+3.125,+0.375,-1, -4, -2, 0, -1, -2, 0, -1,2.189609080844343,0.5437022460087685
1503956933025,+0.840,+0.281,+0.038,+0.463,+0.594,+0.180,-0.805,+1.812,-1.250,+0.812,-4, -6, -3, -1, -2, 2, 0, -1,2.189609080844343,0.5437022460087685
1503956933029,+0.840,+0.280,+0.039,+0.462,+0.552,+0.168,-0.829,-1.125,-5.562,+2.250,-2, -4, -2, -1, 0, 0, 0, 0,2.1893842904519483,0.5424659658483306
1503956933053,+0.841,+0.279,+0.038,+0.462,+0.502,+0.201,-0.809,-3.375,-7.125,+1.500,-1, -2, -1, -1, 0, -1, 0, 2,2.191077569206844,0.5400104322692351
1503956933074,+0.841,+0.279,+0.037,+0.462,+0.507,+0.240,-0.817,-4.125,-1.062,+0.688,-3, -2, -1, -1, -2, -2, -1, -2,2.1914083356269765,0.5391236608700535
1503956933092,+0.841,+0.280,+0.036,+0.462,+0.551,+0.237,-0.816,-1.875,+2.062,-1.188,-3, 1, 5, 0, -1, 2, -1, -2,2.1926237636573123,0.5402963310142536
1503956933113,+0.840,+0.280,+0.037,+0.463,+0.568,+0.214,-0.818,+0.812,-0.188,-1.438,-3, -3, -4, -2, -1, -3, -1, -4,2.189052913941338,0.5407560818484705
1503956933141,+0.840,+0.279,+0.037,+0.463,+0.556,+0.204,-0.801,+1.062,-3.500,-0.250,3, 2, 3, 1, 1, 0, 2, 3,2.1881663642616953,0.5387000223780204
1503956933152,+0.841,+0.279,+0.037,+0.463,+0.510,+0.209,-0.807,+1.062,-3.812,+0.500,-2, -8, -3, -1, 0, 1, 0, 0,2.190412222936296,0.5391884131285528
1503956933173,+0.841,+0.278,+0.037,+0.463,+0.525,+0.207,-0.827,+2.000,-1.438,+1.062,3, 7, 2, 0, 0, 1, 1, 0,2.1895317781834467,0.5371336482350607
1503956933192,+0.841,+0.278,+0.038,+0.463,+0.562,+0.187,-0.822,+1.938,-1.250,-0.812,0, 7, 0, -2, 0, -3, 1, -2,2.1892032844290696,0.5380227512444882
1503956933218,+0.841,+0.277,+0.038,+0.463,+0.529,+0.159,-0.828,+0.688,-3.562,-1.312,-2, -9, -6, -2, 0, -1, -1, -3,2.188326246878353,0.5359711049129923
1503956933236,+0.841,+0.276,+0.038,+0.464,+0.510,+0.175,-0.824,-1.562,-3.188,-2.375,1, -2, -3, -2, -1, -1, -1, 3,2.186460395717674,0.5339885948894393
1503956933253,+0.841,+0.276,+0.037,+0.464,+0.538,+0.182,-0.822,-4.062,-2.750,-2.812,-3, -1, -1, -2, 0, 2, 4, 9,2.186785278322316,0.5330965297869217
1503956933272,+0.841,+0.275,+0.037,+0.464,+0.528,+0.174,-0.825,-6.000,-5.375,-1.250,-2, -4, -3, 1, 0, -1, -1, -1,2.1859115582428243,0.5310492724248873
1503956933292,+0.842,+0.275,+0.035,+0.464,+0.521,+0.216,-0.815,-7.750,-6.688,-0.812,0, 3, 2, -1, 0, -3, -5, -21,2.188811095532561,0.5297522868860801
1503956933326,+0.842,+0.275,+0.033,+0.464,+0.528,+0.270,-0.813,-6.938,-2.625,-0.750,0, -2, 0, 0, -3, -4, -4, -1,2.189460515218169,0.5279777898462139
1503956933330,+0.841,+0.276,+0.032,+0.464,+0.542,+0.278,-0.817,-3.000,-3.000,-1.500,3, -2, -1, -2, 0, 1, 1, 13,2.1884141755328175,0.5286577763522368
1503956933355,+0.841,+0.275,+0.032,+0.464,+0.520,+0.228,-0.821,+1.500,-2.000,-1.562,-2, -13, -7, -2, 0, 1, 5, 14,2.1875336930301,0.5266073183751712
1503956933380,+0.841,+0.275,+0.032,+0.465,+0.512,+0.219,-0.814,+1.812,-0.188,-1.562,-3, -11, -5, -4, -1, 1, 3, 5,2.186540653496348,0.5266638097853736
1503956933389,+0.841,+0.275,+0.033,+0.465,+0.524,+0.210,-0.820,+2.500,+0.438,-0.750,-1, 3, -2, -1, -1, 0, -2, -4,2.1862165414113592,0.5275510692013785
1503956933412,+0.841,+0.274,+0.034,+0.465,+0.519,+0.185,-0.839,+1.500,+1.062,+0.688,-1, -4, -2, -5, 0, -2, -2, -2,2.1850175812896127,0.5263931270879557
1503956933435,+0.841,+0.274,+0.034,+0.465,+0.495,+0.208,-0.828,-0.438,+0.250,+1.250,6, 2, -1, 0, 1, 0, 1, 3,2.1850175812896127,0.5263931270879557
1503956933455,+0.841,+0.274,+0.034,+0.465,+0.510,+0.216,-0.814,+0.000,+4.250,+1.000,-5, 0, 0, 3, 0, 0, -2, -12,2.1850175812896127,0.5263931270879557
1503956933492,+0.841,+0.275,+0.035,+0.464,+0.546,+0.177,-0.817,+0.250,+5.000,+1.125,-5, -8, -2, -4, -2, 1, 2, -3,2.186559520073167,0.529268209463783
1503956933494,+0.841,+0.275,+0.036,+0.464,+0.547,+0.172,-0.836,-1.688,+3.438,+0.125,-3, -3, 2, 0, 0, -4, -2, -2,2.1862353907042387,0.5301580230762707
1503956933510,+0.841,+0.275,+0.035,+0.464,+0.535,+0.180,-0.823,-4.500,-0.938,-0.750,-4, 2, -3, -3, -3, -2, 0, -1,2.186559520073167,0.529268209463783
1503956933532,+0.841,+0.276,+0.035,+0.464,+0.505,+0.193,-0.814,-5.875,-0.688,+0.438,0, -2, -3, -1, -1, 0, -1, 1,2.1874359393398835,0.5313167333255183
1503956933556,+0.841,+0.276,+0.034,+0.464,+0.539,+0.186,-0.823,-8.875,+3.062,-2.750,-3, -8, -1, -1, -2, 0, 2, 3,2.1877617184385487,0.5304289890757523
1503956933577,+0.841,+0.278,+0.033,+0.464,+0.526,+0.242,-0.821,-10.062,+2.000,-1.438,-4, -3, -2, 0, -1, -1, -1, 0,2.189852292538656,0.5336497781092522
1503956933592,+0.840,+0.279,+0.031,+0.464,+0.515,+0.326,-0.789,-6.938,+1.250,+0.000,1, 4, 1, -1, -1, 0, -2, -1,2.1891537866611452,0.5334517122193995
1503956933614,+0.840,+0.279,+0.031,+0.464,+0.548,+0.260,-0.765,+1.625,-0.062,+0.938,1, 2, -1, 0, 0, -2, 1, 0,2.1891537866611452,0.5334517122193995
1503956933633,+0.840,+0.279,+0.033,+0.464,+0.615,+0.123,-0.824,+5.562,+0.812,-0.250,-1, 2, -1, -2, -2, -2, -2, -1,2.1884928334364604,0.5352169908437827
1503956933655,+0.840,+0.279,+0.034,+0.464,+0.546,+0.153,-0.860,+0.688,+0.750,-6.312,0, 0, -2, -1, -1, 0, 0, 0,2.1881628173323695,0.5361017780331021
1503956933676,+0.839,+0.279,+0.030,+0.466,+0.453,+0.462,-0.850,-4.188,+0.812,-5.875,3, 12, 0, 0, 0, -1, -3, 0,2.185245512573796,0.5321852779712041
1503956933691,+0.840,+0.278,+0.029,+0.466,+0.244,+0.411,-0.854,+6.688,+4.938,+10.688,-4, -11, -3, -1, -1, -1, 0, -3,2.186932259277194,0.529735730062986
1503956933714,+0.839,+0.279,+0.034,+0.465,+0.442,+0.091,-0.739,+14.750,+26.250,+10.312,-3, -4, -3, 0, 0, 1, -1, -5,2.1849189189104314,0.5356715564845356
1503956933735,+0.837,+0.285,+0.040,+0.466,+0.725,+0.108,-0.815,+6.750,+34.750,-11.250,0, -1, -1, 2, -2, -1, -1, 2,2.182832801346048,0.5524577088188996
1503956933758,+0.836,+0.290,+0.045,+0.464,+0.810,+0.162,-0.794,+3.312,+26.625,+8.375,-1, 1, 1, 0, 0, 0, -2, -3,2.1854087507685884,0.5666346251582522
1503956933776,+0.835,+0.290,+0.044,+0.465,+0.669,+0.355,-0.820,+4.812,-5.375,-2.688,0, 1, 0, -1, 0, -2, 0, -2,2.182526534423658,0.5653152356495457
1503956933794,+0.835,+0.289,+0.044,+0.466,+0.477,+0.249,-0.773,+9.625,-5.062,-3.938,-1, 3, 1, -1, -1, -2, -3, -2,2.180632842766519,0.5633203456640316
1503956933811,+0.834,+0.289,+0.046,+0.468,+0.438,+0.135,-0.806,+6.062,+16.188,-10.438,0, 6, 1, -2, 0, -1, -2, -3,2.1757670445648616,0.564783120692204
1503956933831,+0.833,+0.293,+0.047,+0.468,+0.456,+0.108,-0.745,-13.312,+27.250,-3.500,-2, -1, 1, 1, 0, 1, 0, -1,2.1768637449897157,0.5734732870281707
1503956933854,+0.832,+0.295,+0.049,+0.466,+0.692,+0.130,-0.767,-0.875,+8.625,+4.250,-1, 3, -2, -1, -1, 0, -1, -2,2.1777275582664317,0.5787701129622124
1503956933869,+0.834,+0.293,+0.049,+0.466,+0.600,+0.157,-0.765,-0.500,-12.688,+5.375,2, 0, 2, 1, -1, -1, -3, -2,2.1803627617492474,0.5756210708600639
1503956933893,+0.834,+0.292,+0.049,+0.466,+0.598,+0.194,-0.814,+1.375,-10.188,+1.750,0, 0, 1, -2, -1, 1, 0, 1,2.1794433184551503,0.5735471598239542
1503956933918,+0.834,+0.291,+0.049,+0.466,+0.566,+0.191,-0.851,-0.812,-3.500,-2.562,1, -2, -2, -1, -3, 0, 0, 1,2.1785258167763253,0.5714757805018265
1503956933930,+0.834,+0.290,+0.048,+0.467,+0.544,+0.184,-0.831,-2.500,-0.688,-6.625,0, -1, -1, -3, -2, -1, -2, -1,2.1769782729178915,0.5685831137114639
1503956933952,+0.834,+0.290,+0.047,+0.467,+0.527,+0.209,-0.792,-5.438,-1.500,-3.375,-1, 3, 0, 0, 1, 0, 1, 1,2.177315039336735,0.5676768098357167
1503956933993,+0.834,+0.291,+0.046,+0.467,+0.510,+0.234,-0.787,-4.812,+0.938,-1.125,2, 13, 4, 1, -1, -1, 0, -2,2.178571194973228,0.5688427610139877
1503956934000,+0.833,+0.291,+0.046,+0.467,+0.568,+0.239,-0.763,-2.000,+2.438,+1.375,-3, -1, -1, -1, -1, -2, -1, -3,2.176319926317374,0.5683426875617926
1503956934012,+0.833,+0.292,+0.047,+0.467,+0.637,+0.209,-0.755,+1.062,+0.438,+1.562,-2, -3, 4, 1, 0, 0, 2, 0,2.1769055280771887,0.5713187345268473
1503956934035,+0.833,+0.292,+0.047,+0.467,+0.671,+0.179,-0.822,+0.625,-4.312,-1.812,-2, -4, -1, 1, 0, 0, -1, 2,2.1769055280771887,0.5713187345268473
1503956934053,+0.834,+0.290,+0.046,+0.468,+0.574,+0.195,-0.840,-0.312,-13.625,-4.625,0, -6, -2, -2, -3, 0, 0, 0,2.1766835805224436,0.5668511813277969
1503956934092,+0.834,+0.288,+0.045,+0.468,+0.474,+0.201,-0.800,-1.125,-11.500,-3.688,-2, -5, -4, -1, -2, -1, 0, -1,2.1751862666351363,0.5618114461534736
1503956934095,+0.834,+0.287,+0.044,+0.469,+0.458,+0.197,-0.781,-2.812,-2.250,-2.438,0, -7, -1, -1, -3, 0, -2, -1,2.173639067380947,0.5589186300923156
1503956934126,+0.834,+0.287,+0.044,+0.469,+0.552,+0.199,-0.806,-2.938,+1.188,-0.625,-1, 2, 2, -3, -2, 0, 1, -1,2.173639067380947,0.5589186300923156
1503956934135,+0.834,+0.288,+0.044,+0.468,+0.605,+0.194,-0.841,-3.438,+0.938,+1.062,-2, -4, -2, 0, -2, -1, -2, -5,2.175520363033819,0.5609068305782325
1503956934165,+0.834,+0.287,+0.043,+0.469,+0.574,+0.207,-0.779,-4.188,-5.438,-1.938,-4, -6, -2, -1, -1, -1, -1, -3,2.1739711981134495,0.5580132276631687
1503956934170,+0.834,+0.287,+0.043,+0.469,+0.542,+0.210,-0.771,-2.375,-5.438,-2.375,2, -2, -4, -2, -1, -1, -1, 2,2.1739711981134495,0.5580132276631687
1503956934192,+0.834,+0.286,+0.042,+0.469,+0.561,+0.224,-0.809,-2.188,-4.188,-2.250,-3, -12, -3, -1, 0, -2, 0, 1,2.173388259612929,0.5550463745087784
1503956934217,+0.834,+0.286,+0.041,+0.469,+0.575,+0.248,-0.830,-2.375,-4.875,-2.250,1, 3, 1, 0, 1, 1, -1, -3,2.1737196749433347,0.5541433337440209
1503956934232,+0.834,+0.285,+0.040,+0.470,+0.548,+0.230,-0.798,-1.625,-7.625,-2.000,-3, 0, 1, 0, 0, -2, -2, 0,2.172169440025008,0.5512496419542801
1503956934254,+0.835,+0.284,+0.039,+0.470,+0.523,+0.214,-0.793,-1.438,-6.875,+0.750,0, 0, -1, 1, -1, 1, 0, 1,2.1738520862948367,0.5487823909012358
1503956934282,+0.835,+0.283,+0.039,+0.470,+0.525,+0.216,-0.820,-0.062,-4.250,-0.125,-2, -1, -1, 1, -1, 0, -1, -1,2.1729434493346305,0.5467240085359464
1503956934290,+0.835,+0.283,+0.039,+0.470,+0.545,+0.213,-0.815,+1.438,-2.812,-0.188,2, -3, 2, 0, -1, 0, -1, 1,2.1729434493346305,0.5467240085359464
1503956934317,+0.835,+0.282,+0.039,+0.470,+0.539,+0.226,-0.820,+1.688,-3.562,-0.875,1, -1, 0, -1, -2, 1, -2, -1,2.172036871127621,0.5446681639494688
1503956934336,+0.835,+0.282,+0.039,+0.471,+0.530,+0.228,-0.817,+1.500,-2.062,-3.688,-2, -8, -4, -2, -2, 0, -3, -2,2.1710727990992953,0.5447362589957062
1503956934361,+0.835,+0.281,+0.039,+0.472,+0.542,+0.200,-0.802,+1.562,-2.125,-2.500,-1, 1, 0, -1, -2, 0, -1, -1,2.1692080963084774,0.5427511919520265
1503956934379,+0.835,+0.281,+0.039,+0.472,+0.528,+0.215,-0.811,+0.312,-2.250,-0.812,0, 2, 2, -1, 0, -1, -1, 0,2.1692080963084774,0.5427511919520265
1503956934396,+0.835,+0.280,+0.039,+0.472,+0.534,+0.227,-0.796,+0.750,-2.000,-0.938,-1, -4, -4, -2, -3, -2, -2, -1,2.1683068442592686,0.5407005624472289
1503956934413,+0.835,+0.280,+0.039,+0.472,+0.538,+0.234,-0.803,+3.250,-2.938,+0.125,1, 7, 1, 0, 0, -2, 0, 0,2.1683068442592686,0.5407005624472289
1503956934431,+0.835,+0.279,+0.040,+0.473,+0.542,+0.228,-0.820,+5.875,-3.562,+0.875,-2, -5, -1, -1, 0, 0, -1, -3,2.166131662164192,0.5396316608701861
1503956934461,+0.835,+0.278,+0.041,+0.473,+0.520,+0.230,-0.817,+8.312,-3.312,+2.625,-3, 0, -1, -2, 0, -1, -2, -3,2.164919062494971,0.5384997503714171
1503956934468,+0.835,+0.277,+0.042,+0.473,+0.524,+0.222,-0.814,+9.625,-0.938,+3.188,-3, -14, -3, -3, -2, 0, -2, -2,2.1637115585915736,0.5373730416199063
1503956934494,+0.835,+0.277,+0.044,+0.473,+0.551,+0.185,-0.817,+6.750,+3.188,+0.000,-3, -3, -1, -2, -2, -1, 2, 1,2.1630807340355305,0.539207483802215
1503956934522,+0.835,+0.276,+0.045,+0.473,+0.560,+0.150,-0.834,+2.562,+0.062,-1.875,1, 4, 2, 0, 0, 0, 0, 2,2.161881580291949,0.5380900826148245
1503956934532,+0.836,+0.275,+0.045,+0.473,+0.534,+0.148,-0.821,-1.688,-3.438,+0.875,-1, -2, -4, -2, -2, -1, 0, 0,2.163288163921771,0.5365368615646693
1503956934553,+0.836,+0.275,+0.044,+0.473,+0.525,+0.171,-0.801,-4.875,-3.500,+2.000,-2, 0, 2, 0, -1, -3, -2, -1,2.1636006969783335,0.5356166704923683
1503956934581,+0.836,+0.275,+0.044,+0.472,+0.540,+0.195,-0.821,-4.438,-1.938,+2.562,-2, -5, 0, -2, -1, -2, 1, 1,2.1645525814138917,0.5355396406466832
1503956934593,+0.837,+0.275,+0.043,+0.472,+0.537,+0.216,-0.832,-3.688,-3.875,+1.625,-1, 0, -4, 0, -2, -1, -2, -2,2.1671481671140245,0.5351043368303252
1503956934615,+0.837,+0.275,+0.042,+0.472,+0.525,+0.226,-0.821,-4.375,-3.438,-1.500,-2, -3, -1, 0, -1, 0, -2, -4,2.1674623746274735,0.5341891666290087
1503956934634,+0.836,+0.275,+0.041,+0.473,+0.486,+0.216,-0.821,-3.875,+0.375,-4.938,-1, -4, 3, 0, 1, 2, 2, 2,2.1645400391607974,0.5328648158376225
1503956934649,+0.836,+0.275,+0.041,+0.473,+0.527,+0.237,-0.817,-2.062,+4.062,-4.188,1, 6, 0, -1, -1, 1, 0, -2,2.1645400391607974,0.5328648158376225
1503956934671,+0.835,+0.276,+0.041,+0.473,+0.541,+0.238,-0.804,+0.375,+4.188,+0.000,0, 0, 0, 0, 2, -2, -1, 0,2.163137901138989,0.534418748601375
1503956934696,+0.835,+0.277,+0.042,+0.474,+0.550,+0.218,-0.803,+3.562,+2.875,+0.312,-1, -1, -1, -2, 0, 0, -2, -1,2.162761218524456,0.5374465723297126
1503956934717,+0.835,+0.277,+0.043,+0.474,+0.552,+0.188,-0.823,+2.688,+2.250,+1.062,0, -1, -2, -1, -1, -1, -2, 1,2.1624465482000748,0.5383647476488741
1503956934729,+0.835,+0.277,+0.043,+0.474,+0.524,+0.189,-0.830,-0.312,+1.312,-0.875,-2, -2, -2, -1, 2, -1, -1, -3,2.1624465482000748,0.5383647476488741
1503956934757,+0.835,+0.277,+0.043,+0.474,+0.525,+0.184,-0.809,-0.625,+1.625,-1.188,1, 14, 4, 0, 0, -1, 0, -2,2.1624465482000748,0.5383647476488741
1503956934863,+0.835,+0.277,+0.044,+0.474,+0.544,+0.203,-0.804,-2.062,+2.875,+1.250,-1, 1, 1, -2, 0, -1, 0, -1,2.1621321723172615,0.5392843786119913
1503956934867,+0.835,+0.278,+0.044,+0.473,+0.542,+0.219,-0.819,-1.000,+1.875,+1.000,-1, -2, -3, 0, -2, 1, -2, 0,2.1639683796962355,0.5412473823167677
1503956934868,+0.835,+0.278,+0.044,+0.473,+0.549,+0.194,-0.822,-0.375,+0.500,+1.812,0, 1, -1, -3, -2, -2, -2, -1,2.1639683796962355,0.5412473823167677
1503956934869,+0.835,+0.278,+0.044,+0.473,+0.531,+0.187,-0.819,-2.500,+0.812,+2.125,0, 1, -2, 1, 1, 0, 1, 1,2.1639683796962355,0.5412473823167677
1503956934874,+0.835,+0.278,+0.044,+0.473,+0.532,+0.195,-0.817,-3.062,+1.625,+0.625,-1, -3, -1, -2, -3, -1, -2, -3,2.1639683796962355,0.5412473823167677
1503956934878,+0.835,+0.278,+0.044,+0.472,+0.544,+0.210,-0.807,-1.438,+1.188,+1.625,-2, 0, 0, -1, 0, -1, 2, 1,2.1649202040111137,0.541170567168554
1503956934906,+0.835,+0.279,+0.044,+0.472,+0.540,+0.213,-0.817,+0.062,+1.125,+1.500,0, 0, -4, -3, -1, 0, -3, -1,2.1658105487578996,0.5432130369685617
1503956934913,+0.835,+0.279,+0.045,+0.472,+0.552,+0.194,-0.828,-1.125,+3.438,+0.938,1, -4, 0, -1, -2, -1, 0, 0,2.1654920220169913,0.5441295575159415
1503956934933,+0.835,+0.279,+0.045,+0.472,+0.525,+0.180,-0.824,-2.812,+1.875,-0.438,-2, -2, -3, 0, -2, 0, 1, 2,2.1654920220169913,0.5441295575159415
1503956934960,+0.835,+0.280,+0.045,+0.472,+0.535,+0.192,-0.815,-3.500,+3.000,-0.250,-3, -8, -2, -2, -1, -4, -1, -1,2.1663831386309544,0.5461739001746674
1503956934970,+0.835,+0.280,+0.044,+0.472,+0.535,+0.207,-0.793,-3.500,+2.688,+1.125,0, 3, -2, -2, -1, -4, -1, 1,2.166702999967556,0.5452579963609211
1503956934995,+0.835,+0.281,+0.045,+0.471,+0.562,+0.218,-0.810,-1.938,+3.562,+0.938,-2, -5, -1, -2, -1, 1, 3, 0,2.1682316855093946,0.5481425036158353
1503956935019,+0.835,+0.282,+0.045,+0.471,+0.579,+0.203,-0.810,-0.625,+1.375,+1.188,1, 2, 2, 1, 0, 0, -3, 2,2.169127547139283,0.5501919204122588
1503956935033,+0.835,+0.281,+0.045,+0.471,+0.538,+0.194,-0.817,-1.438,-2.688,+0.062,-4, -7, -1, -1, -2, -2, 1, 1,2.1682316855093946,0.5481425036158353
1503956935057,+0.835,+0.281,+0.044,+0.471,+0.515,+0.188,-0.812,-1.938,-1.812,-0.312,0, 3, -1, -1, -1, 0, 0, -1,2.168553786603725,0.5472288912755611
1503956935075,+0.835,+0.281,+0.044,+0.471,+0.529,+0.205,-0.813,-3.250,+0.188,+1.188,2, 6, 1, 1, 0, 0, 1, -2,2.168553786603725,0.5472288912755611
1503956935094,+0.835,+0.281,+0.044,+0.471,+0.548,+0.222,-0.811,-4.250,+1.812,+1.750,1, 4, 2, -1, 0, -2, -1, 1,2.168553786603725,0.5472288912755611
1503956935119,+0.835,+0.282,+0.044,+0.470,+0.581,+0.213,-0.817,-4.500,+2.062,+2.125,-3, -6, -1, -2, -2, -2, -1, -1,2.170410492129147,0.5492024560114576
1503956935136,+0.835,+0.282,+0.043,+0.470,+0.554,+0.194,-0.806,-4.125,-2.000,+1.000,-3, 0, 0, 0, -2, 0, 0, -1,2.1707351502517502,0.5482926320576135
1503956935153,+0.836,+0.282,+0.043,+0.470,+0.530,+0.219,-0.803,-2.188,-2.188,+1.062,0, 2, 0, -1, -2, -1, 0, -1,2.173001311966042,0.5487831026538309
1503956935172,+0.836,+0.282,+0.043,+0.470,+0.538,+0.215,-0.802,-0.062,+0.438,+0.000,0, -5, -1, -2, -1, -1, -1, -1,2.173001311966042,0.5487831026538309
1503956935197,+0.835,+0.282,+0.043,+0.470,+0.557,+0.197,-0.831,-0.812,+1.562,-0.562,-1, -2, -2, -3, -2, -2, -1, -3,2.1707351502517502,0.5482926320576135
1503956935210,+0.835,+0.282,+0.043,+0.470,+0.550,+0.182,-0.822,-3.688,+1.062,-1.812,0, 4, 4, -1, 0, 0, 0, 0,2.1707351502517502,0.5482926320576135
1503956935235,+0.835,+0.282,+0.042,+0.470,+0.520,+0.183,-0.800,-4.062,-0.438,-1.625,-4, -8, -4, -1, -2, 1, -2, -2,2.1710601168415757,0.5473842972935925
1503956935259,+0.835,+0.282,+0.042,+0.470,+0.520,+0.203,-0.809,-3.750,+0.438,+0.688,0, 9, 0, 1, -1, 0, 0, 0,2.1710601168415757,0.5473842972935925
1503956935271,+0.835,+0.283,+0.042,+0.469,+0.540,+0.233,-0.806,-3.812,+2.438,+1.312,2, 10, 6, 2, -1, -1, -1, 1,2.1729272531454535,0.5493651483639955
1503956935296,+0.835,+0.284,+0.041,+0.469,+0.571,+0.260,-0.805,-2.062,+2.312,+1.500,-3, -8, -2, -1, -1, -2, 0, -1,2.1741613018963366,0.550517770364827
1503956935320,+0.835,+0.284,+0.042,+0.469,+0.562,+0.229,-0.814,-0.438,+1.688,+0.188,0, 3, 1, 0, 1, -1, -1, -2,2.173832407808282,0.5514216612619521
1503956935335,+0.835,+0.284,+0.042,+0.469,+0.533,+0.212,-0.796,+1.000,+0.062,+0.000,-1, -4, -2, -1, -1, -2, -1, -1,2.173832407808282,0.5514216612619521
1503956935361,+0.835,+0.284,+0.042,+0.469,+0.546,+0.195,-0.798,+1.812,+0.750,+0.688,-3, -3, 1, -2, -1, 1, -2, -5,2.173832407808282,0.5514216612619521
1503956935377,+0.835,+0.284,+0.043,+0.469,+0.557,+0.185,-0.813,+1.875,+1.688,+0.375,2, 2, 1, 1, -1, -1, -1, 2,2.1735038275964498,0.5523270467147003
1503956935392,+0.835,+0.284,+0.043,+0.469,+0.562,+0.180,-0.822,-0.438,+0.875,-0.750,2, 0, -1, -3, -1, 0, 0, 2,2.1735038275964498,0.5523270467147003
1503956935413,+0.835,+0.284,+0.043,+0.469,+0.535,+0.187,-0.817,-2.625,-0.812,-2.062,-1, 0, 0, 2, 1, -1, -2, -2,2.1735038275964498,0.5523270467147003
1503956935437,+0.835,+0.284,+0.042,+0.470,+0.529,+0.222,-0.802,-4.625,-0.062,-2.062,-1, -5, 2, 0, 0, -1, 0, -2,2.1728672295101554,0.5514946314679962
1503956935464,+0.835,+0.285,+0.042,+0.470,+0.543,+0.242,-0.801,-3.500,+1.562,-0.938,0, -4, -3, -2, 1, 0, 1, 0,2.1737738582367987,0.5535535850994314
1503956935473,+0.835,+0.285,+0.042,+0.469,+0.560,+0.223,-0.796,-1.750,+1.188,+1.438,-4, -4, 0, 0, 2, 0, -1, -2,2.174739604889031,0.5534807006076802
1503956935501,+0.835,+0.285,+0.042,+0.469,+0.571,+0.201,-0.804,-1.375,-0.938,+1.000,0, 2, 2, 2, 4, 1, 1, 2,2.174739604889031,0.5534807006076802
1503956935511,+0.835,+0.285,+0.042,+0.469,+0.549,+0.192,-0.805,-1.375,-2.188,-0.562,-1, -1, 1, 5, 1, -2, -1, 3,2.174739604889031,0.5534807006076802
1503956935533,+0.835,+0.284,+0.042,+0.469,+0.534,+0.198,-0.812,-1.375,-2.750,-0.375,2, -4, -2, -4, -2, -2, -2, 3,2.173832407808282,0.5514216612619521
1503956935561,+0.835,+0.284,+0.041,+0.469,+0.534,+0.210,-0.816,-2.500,-0.312,-0.438,-5, -9, -6, -4, -2, -2, -1, 2,2.1741613018963366,0.550517770364827
1503956935570,+0.835,+0.284,+0.041,+0.469,+0.551,+0.214,-0.807,-2.625,+0.812,-0.812,16, 5, 20, 12, 8, 8, 3, 12,2.1741613018963366,0.550517770364827
1503956935600,+0.835,+0.284,+0.041,+0.469,+0.548,+0.213,-0.806,-2.062,-0.938,-0.625,-14, -4, -10, -5, -2, -5, -3, -13,2.1741613018963366,0.550517770364827
1503956935622,+0.835,+0.284,+0.040,+0.469,+0.545,+0.226,-0.806,-2.125,-1.188,+0.188,-2, -4, 0, 8, 7, -1, -3, -13,2.1744905102393184,0.5496153676688103
1503956935634,+0.835,+0.285,+0.040,+0.469,+0.546,+0.233,-0.815,-1.375,-0.188,+0.312,1, -4, -3, -3, -1, -6, -9, -15,2.1754004135876817,0.5516757123382107
1503956935659,+0.835,+0.284,+0.040,+0.469,+0.561,+0.221,-0.812,-0.625,-0.938,+1.000,2, 14, 55, 25, 2, -4, -4, 9,2.1744905102393184,0.5496153676688103
1503956935677,+0.835,+0.284,+0.040,+0.469,+0.535,+0.223,-0.808,-1.062,-0.062,+1.375,-6, -11, -24, -11, -8, 0, 19, 20,2.1744905102393184,0.5496153676688103
1503956935695,+0.835,+0.284,+0.041,+0.469,+0.535,+0.197,-0.800,-0.062,+0.312,+1.125,0, 0, -9, -11, -3, 5, 3, 1,2.1741613018963366,0.550517770364827
1503956935713,+0.835,+0.284,+0.041,+0.469,+0.550,+0.180,-0.803,-0.750,+1.375,+1.688,2, 7, 2, -7, -8, 0, -5, -18,2.1741613018963366,0.550517770364827
1503956935736,+0.835,+0.285,+0.042,+0.468,+0.563,+0.184,-0.807,-2.438,+1.000,+1.688,3, 17, 23, 22, 14, 0, -1, -2,2.1757080627414807,0.553407809550535
1503956935752,+0.836,+0.285,+0.041,+0.468,+0.536,+0.210,-0.826,-3.875,+0.562,+1.375,-4, -10, -17, -18, -17, -10, -6, 9,2.1782968551079516,0.5530011807480238
1503956935773,+0.835,+0.285,+0.041,+0.468,+0.537,+0.223,-0.790,-3.062,+0.875,-1.125,9, 9, 0, -1, 2, 0, 1, 10,2.1760392365535868,0.5525062394747859
1503956935799,+0.835,+0.286,+0.040,+0.468,+0.553,+0.245,-0.803,-2.688,+2.875,+1.938,14, 3, 9, 3, 3, 3, -3, -2,2.1772832322179365,0.5536691337237887
1503956935812,+0.836,+0.286,+0.041,+0.467,+0.603,+0.219,-0.799,-1.875,-3.438,+4.750,-10, -4, -3, -3, 0, 0, 1, 0,2.180178205971993,0.5549935422424201
1503956935837,+0.837,+0.285,+0.041,+0.466,+0.591,+0.166,-0.827,-0.812,-9.812,+6.812,33, 8, 0, -2, -4, -1, -1, 2,2.1824991135801786,0.5533535335640923
1503956935857,+0.838,+0.283,+0.039,+0.465,+0.473,+0.230,-0.803,-3.812,-10.812,+5.438,-11, 3, 4, 1, 0, -4, -1, -3,2.184594280204856,0.5478638562211142
1503956935872,+0.838,+0.284,+0.039,+0.465,+0.417,+0.439,-0.737,+7.688,+9.812,+12.312,-17, -7, -6, -4, -3, -2, -2, -3,2.185493371356154,0.5499261388130936
1503956935895,+0.837,+0.286,+0.043,+0.465,+0.572,+0.402,-0.780,+25.375,+17.688,+9.812,-2, 21, 4, -1, 1, 1, -1, -6,2.1837135275576114,0.5571387715139428
1503956935915,+0.837,+0.286,+0.050,+0.464,+0.832,+0.162,-0.736,+33.062,+7.188,+10.875,-6, -9, 0, 0, -1, 0, -1, 4,2.1823508442661987,0.5633714683093204
1503956935934,+0.838,+0.284,+0.058,+0.463,+0.876,-0.026,-0.844,+26.312,-13.062,+9.000,22, -2, -7, -2, -1, 2, 10, 27,2.181146853024562,0.5669541113017283
1503956935958,+0.840,+0.278,+0.058,+0.462,+0.406,+0.235,-0.938,+17.375,-16.875,+20.062,-1, -7, -4, -2, -4, 0, 1, 2,2.1814246529017067,0.5555428837852077
1503956935975,+0.842,+0.276,+0.063,+0.458,+0.374,+0.383,-0.786,+33.125,+10.562,+41.500,0, -1, 1, -2, -5, -8, -5, -3,2.1865389925956658,0.55660427825898
1503956935994,+0.845,+0.276,+0.071,+0.452,+0.517,+0.314,-1.033,+36.500,+28.500,+58.938,-2, -3, 0, -1, -2, -1, -1, 0,2.196613177330813,0.5647104378073344
1503956936012,+0.847,+0.280,+0.087,+0.442,+0.795,+0.134,-1.070,+54.062,+65.000,+78.375,-15, -1, 2, 2, -12, -7, -1, -4,2.209074234111322,0.5873223015760911
1503956936038,+0.846,+0.288,+0.110,+0.435,+0.872,+0.426,-1.187,+81.438,+105.250,+66.562,9, 2, -2, -2, 5, 4, 1, 7,2.2125217013057603,0.6239086807467811
1503956936050,+0.846,+0.288,+0.133,+0.428,+0.971,+0.113,-1.011,+103.188,+60.125,+77.688,4, -2, 1, 3, 1, 6, -5, -13,2.2116804748413084,0.645176454059046
1503956936076,+0.852,+0.273,+0.156,+0.418,+1.100,+0.091,-0.965,+131.562,-24.750,+118.688,-2, -46, -22, -12, -5, -4, -11, -45,2.216524821992347,0.6386215501550717
1503956936103,+0.855,+0.262,+0.184,+0.407,+0.979,+0.187,-0.932,+152.438,+18.688,+116.500,2, 8, 9, 0, -9, 0, -1, 4,2.218362589686307,0.6447445261202656
1503956936111,+0.856,+0.247,+0.217,+0.398,+0.836,+0.110,-1.020,+190.250,+9.312,+123.125,10, 19, 5, -9, 49, 8, 6, 81,2.2110916808287877,0.6497935846257986
1503956936135,+0.858,+0.228,+0.251,+0.385,+0.853,-0.119,-1.000,+195.938,-1.750,+146.062,9, 5, -6, 7, -55, -6, 3, -6,2.210122158485317,0.649290015415231
1503956936166,+0.860,+0.211,+0.288,+0.364,+0.778,-0.217,-0.898,+196.562,+28.500,+183.188,-1, 20, 41, 27, 31, 16, 11, 41,2.220712423444283,0.6552344197272847
1503956936171,+0.859,+0.194,+0.328,+0.340,+0.764,-0.313,-0.827,+210.812,+41.125,+202.188,-72, -72, -43, -23, -16, -30, -22, 37,2.2298528893016942,0.6649406764792688
1503956936195,+0.857,+0.173,+0.368,+0.317,+0.861,-0.646,-0.715,+218.812,+14.375,+201.875,-9, -6, 6, 11, -37, 8, -11, -46,2.238426656819178,0.669617131587939
1503956936215,+0.853,+0.151,+0.405,+0.292,+0.751,-0.818,-0.614,+204.750,+12.750,+202.875,2, -2, 8, -9, -3, 9, 21, -3,2.2498956015729843,0.6679359690437181
1503956936231,+0.848,+0.132,+0.440,+0.263,+0.437,-0.586,-0.462,+194.375,+40.000,+212.562,-4, 19, 13, -21, -30, -19, -11, -30,2.27029118763168,0.6672590312860809
1503956936252,+0.840,+0.115,+0.476,+0.233,+0.268,-0.544,-0.370,+202.188,+53.625,+207.125,17, 5, 17, 98, 87, 60, 10, -15,2.2888852621064433,0.673213041607413
1503956936275,+0.829,+0.100,+0.510,+0.206,+0.266,-0.766,-0.283,+197.312,+54.812,+186.125,112, 37, -2, -10, -4, 22, 10, 39,2.2977120387561456,0.6853646287036167
1503956936294,+0.819,+0.087,+0.538,+0.178,+0.258,-0.812,-0.181,+163.688,+61.188,+173.062,-36, -6, 0, 12, 12, 11, 6, -3,2.317773643519708,0.6884875265094778
1503956936313,+0.810,+0.080,+0.563,+0.146,+0.189,-0.633,-0.261,+142.312,+98.500,+178.062,-45, -11, -15, -40, -12, -21, -21, -39,2.3537390009592203,0.6940880558708596
1503956936338,+0.799,+0.073,+0.586,+0.115,+0.111,-0.474,-0.255,+135.812,+97.188,+175.625,-8, -1, 1, 0, -15, -18, -16, -17,2.3887520477340782,0.6933888740923586
1503956936352,+0.788,+0.060,+0.607,+0.091,+0.172,-0.665,-0.222,+135.312,+42.875,+158.125,-6, 1, 0, 0, 10, -5, -8, -4,2.426632024498305,0.6754848770162951
1503956936375,+0.778,+0.047,+0.623,+0.069,+0.051,-0.799,-0.112,+108.438,+27.812,+145.375,-18, 30, 8, 25, 60, 19, 8, -11,2.4842854718734815,0.6275953357830065
1503956936398,+0.770,+0.037,+0.635,+0.048,-0.032,-0.619,-0.192,+84.750,+39.375,+132.875,-25, -16, 2, 2, -15, -12, -7, -4,2.5713555772584424,0.5536187214633165
1503956936411,+0.761,+0.030,+0.647,+0.027,-0.030,-0.501,-0.094,+84.188,+55.625,+118.875,-1, -1, 0, -8, -13, -5, -8, -3,2.678480047212956,0.4641792040839032
1503956936438,+0.752,+0.022,+0.658,+0.011,-0.114,-0.644,-0.039,+80.062,+26.500,+93.688,6, 4, 3, 2, 2, 2, 2, 5,2.8096209900681064,0.3432028793111618
1503956936456,+0.744,+0.010,+0.668,+0.003,-0.231,-0.798,+0.016,+71.688,-15.000,+61.938,1, -7, 3, 2, -1, -3, -5, -1,2.9769398518995014,0.17416200798595216
1503956936475,+0.736,+0.004,+0.677,-0.004,-0.305,-0.867,-0.048,+67.500,-0.938,+30.250,0, -4, -1, -3, -8, -5, -4, 1,-3.135934869694659,0.00566552574571155
1503956936498,+0.733,+0.002,+0.680,-0.009,-0.337,-1.050,-0.084,+30.188,+15.875,+4.312,-5, -2, 0, 1, -2, 1, -1, -1,-3.002076475337704,-0.12316320146158231
1503956936514,+0.731,+0.006,+0.682,-0.012,-0.315,-1.067,+0.065,+4.812,+30.750,-28.250,-9, -11, -3, -2, -3, -2, -2, 0,-3.0063646383396985,-0.10858385589833944
1503956936532,+0.732,+0.017,+0.681,-0.009,-0.115,-0.902,-0.012,-4.125,+36.438,-63.375,-3, -1, 0, 2, -1, -1, 0, -4,3.004311905708056,0.17388660334700087
1503956936552,+0.738,+0.026,+0.675,+0.006,-0.378,-0.976,-1.387,-27.312,-20.062,-110.500,-3, -2, 0, -1, 0, 1, 1, -3,2.6900561929745006,0.4887426687084286
1503956936577,+0.736,+0.040,+0.675,+0.046,-1.015,-0.890,+2.103,+13.312,-98.438,-225.812,-16, -1, 0, -4, 0, 0, 0, -2,2.1891655774111056,0.9552933550914601
1503956936597,+0.744,+0.049,+0.662,+0.075,+1.064,-1.211,-0.808,-38.312,-78.188,-101.812,6, 1, -6, -6, -3, -5, -7, -1,2.135793759358208,0.9672709241852597
1503956936613,+0.755,+0.039,+0.647,+0.099,-1.037,-1.102,+0.279,-100.625,-149.188,-89.938,5, 1, -2, -3, -2, -3, -4, 1,2.1919270730925606,0.8638442084837954
1503956936637,+0.759,+0.071,+0.639,+0.099,-0.350,-0.712,-0.499,-65.562,+145.000,-130.312,-27, -7, 3, 12, 3, 0, -3, -2,2.163277931422939,0.9340183917518834
1503956936670,+0.760,+0.109,+0.635,+0.087,+0.434,-0.545,-0.093,-47.438,+210.125,-86.375,18, 6, 3, 11, 9, 4, 2, 6,2.154991896371359,1.0195689473550815
1503956936675,+0.757,+0.132,+0.633,+0.093,+0.881,-0.717,+0.211,-11.062,+76.062,-105.625,3, -3, -2, 7, 6, 4, 1, 1,2.1020862656215407,1.09468043612012
1503956936697,+0.754,+0.138,+0.630,+0.121,+0.706,-1.323,+0.263,+6.000,-80.750,-148.625,-2, 0, -2, 3, 1, 4, 3, 7,2.027564240413561,1.1345135733405316
1503956936713,+0.758,+0.140,+0.618,+0.155,+0.375,-1.080,-0.200,-41.750,-128.938,-165.688,0, -2, -3, -1, -1, 5, 5, 17,2.003226482672749,1.1170190711111867
1503956936740,+0.764,+0.143,+0.606,+0.169,+0.020,-0.643,-0.291,-58.688,-40.062,-93.625,0, -3, -1, 5, 8, 0, 1, 10,2.02047415618754,1.082950935263173
1503956936754,+0.768,+0.154,+0.598,+0.171,+0.071,-0.595,-0.300,-45.375,+42.312,-71.125,-5, -1, -1, 6, 2, -5, -7, -15,2.0409751252724866,1.0770902424436077
1503956936773,+0.766,+0.177,+0.595,+0.170,+0.524,-0.724,-0.225,-32.375,+103.938,-77.375,-12, -42, -19, -13, -8, -2, -3, -12,2.035521750214846,1.1197987375841374
1503956936798,+0.762,+0.199,+0.591,+0.173,+0.806,-0.699,-0.143,-25.875,+85.000,-78.562,5, -5, 0, -3, -5, 3, 7, 2,2.0199968982225007,1.1582369158557169
1503956936814,+0.760,+0.215,+0.585,+0.185,+0.912,-0.688,-0.090,-22.375,+14.312,-89.625,-15, -7, -8, -1, -5, 2, 2, -12,2.005932454478765,1.1811201012539563
1503956936831,+0.759,+0.222,+0.578,+0.199,+0.745,-0.636,-0.040,-26.250,-30.125,-84.562,5, 14, 10, 4, 3, -5, -6, -6,1.9926208322198284,1.180525676127856
1503956936852,+0.760,+0.225,+0.571,+0.213,+0.597,-0.676,-0.007,-28.250,-50.188,-74.000,-3, 2, 2, -4, 2, -4, -5, 0,1.9866550896827466,1.1719130781573803
1503956936874,+0.760,+0.228,+0.566,+0.224,+0.553,-0.900,-0.108,-21.438,-33.062,-74.000,10, 25, 13, 9, -1, 2, 2, 5,1.9794018083991864,1.168550876404612
1503956936891,+0.761,+0.234,+0.559,+0.230,+0.414,-0.864,-0.239,-36.250,+0.938,-76.000,-8, -2, -2, -3, -4, -3, -1, -4,1.9834091518839463,1.162207209396378
1503956936912,+0.762,+0.247,+0.550,+0.235,+0.370,-0.570,-0.237,-55.500,+35.438,-81.812,7, 3, -1, -4, 1, 0, 1, 6,1.993489160181666,1.164747503483022
1503956936940,+0.762,+0.266,+0.538,+0.241,+0.601,-0.345,-0.269,-61.312,+49.750,-94.875,7, 1, -1, 0, -3, -2, 0, 12,2.004697463550816,1.1726236702317332
1503956936950,+0.758,+0.290,+0.529,+0.249,+0.926,-0.181,-0.202,-41.312,+70.812,-99.875,11, 3, 0, 0, 0, -1, -1, 0,2.005004113754827,1.201515580107306
1503956936975,+0.753,+0.313,+0.519,+0.256,+0.932,-0.237,-0.150,-46.062,+70.688,-98.750,3, 0, 4, 5, 1, 1, -1, -5,2.0055979648991786,1.2252625566630768
1503956936999,+0.751,+0.330,+0.507,+0.265,+0.810,-0.472,-0.270,-59.812,+31.625,-115.000,-1, -6, -4, -8, -4, -3, -2, 3,2.0117842652798212,1.2334544180203018
1503956937011,+0.750,+0.344,+0.493,+0.274,+0.655,-0.558,-0.363,-60.438,+19.375,-109.688,-6, 10, 3, -3, -2, 1, 5, -6,2.020030635670618,1.231774803261595
1503956937033,+0.750,+0.354,+0.482,+0.281,+0.617,-0.569,-0.299,-48.500,+12.562,-93.625,0, -7, -6, -4, -2, -5, -11, -11,2.0283992279603824,1.2296174470695602
1503956937054,+0.747,+0.363,+0.470,+0.297,+0.746,-0.409,-0.494,-27.750,-15.750,-125.562,22, -3, -10, -5, -5, -2, -2, 0,2.021196749299811,1.2264036854114881
1503956937075,+0.741,+0.375,+0.455,+0.322,+0.724,-0.191,-0.239,-12.500,-28.750,-180.750,-22, -8, 2, 4, 8, 2, 1, -9,2.0048788742305943,1.2261350954638102
1503956937100,+0.728,+0.390,+0.448,+0.342,+0.982,-0.171,-0.046,+14.500,+24.625,-162.500,0, 3, -3, -6, -6, -4, -4, -2,1.9766846607079611,1.2459935483710742
1503956937114,+0.713,+0.412,+0.453,+0.342,+1.326,-0.397,-0.214,+16.500,+138.750,-78.875,-11, -8, 1, 2, 6, 2, 0, -4,1.963101795651803,1.2989949124399645
1503956937134,+0.695,+0.438,+0.460,+0.338,+1.310,-0.457,-0.297,+14.312,+175.688,-69.312,0, 2, -3, -8, -7, -6, -14, -5,1.9519208684680827,1.3638476591198676
1503956937153,+0.681,+0.451,+0.459,+0.349,+1.414,-0.209,-0.267,+35.812,+59.000,-105.000,12, 3, 3, 5, -1, 2, 2, -7,1.9303706609303286,1.3889749725866
1503956937178,+0.674,+0.450,+0.454,+0.370,+1.544,-0.239,-0.187,+58.438,-49.750,-105.625,-1, -3, -3, 0, -2, -4, -4, -2,1.903514832795852,1.3792672303521663
1503956937191,+0.670,+0.441,+0.455,+0.386,+1.388,-0.566,-0.168,+72.250,-71.875,-58.812,9, 2, -2, -1, -1, -3, -1, -8,1.8733986268182257,1.36469273431083
1503956937213,+0.669,+0.432,+0.460,+0.392,+1.085,-0.686,-0.072,+46.562,-46.125,-14.750,-5, -1, 2, 3, 1, 1, 0, 3,1.85406254721685,1.3572480542928096
1503956937234,+0.667,+0.430,+0.464,+0.393,+0.968,-0.510,+0.023,+23.375,-8.375,-6.250,3, -2, -3, -5, -3, -1, -1, 0,1.8448627173308045,1.361192578473263
1503956937250,+0.661,+0.433,+0.468,+0.396,+0.985,-0.265,+0.014,+26.062,+16.625,-28.438,-2, 10, 3, 0, -2, -1, -3, -10,1.8325442716852036,1.3750758687565292
1503956937277,+0.655,+0.432,+0.470,+0.404,+1.063,-0.370,-0.101,+43.375,-6.812,-37.688,-7, -2, -1, 2, -1, -1, -2, -3,1.813225517499411,1.3776585269393402
1503956937301,+0.651,+0.427,+0.476,+0.408,+1.069,-0.764,-0.109,+47.250,-9.875,-29.938,-10, -1, 1, 1, -1, -1, -11, -23,1.79340252669188,1.3802154508908482
1503956937314,+0.649,+0.423,+0.481,+0.410,+0.911,-0.874,-0.076,+30.938,-7.688,-24.875,-10, -1, 0, 3, 8, 5, 5, 2,1.7808947711002385,1.3828707694780258
1503956937333,+0.647,+0.423,+0.483,+0.412,+0.897,-0.549,+0.042,+12.250,-4.750,-30.188,6, 0, -3, -3, -2, 1, 1, 4,1.7750505332971194,1.3871757827633147
1503956937354,+0.643,+0.426,+0.483,+0.414,+0.961,-0.211,-0.014,+3.812,+8.062,-25.812,4, -3, -4, -2, -6, -2, -3, 6,1.769277547544861,1.3928329820013756
1503956937373,+0.638,+0.432,+0.483,+0.416,+0.905,-0.125,+0.033,+3.125,+19.000,-24.812,-38, 0, 10, 4, 2, 3, 0, -6,1.765868827561991,1.4042942902301296
1503956937393,+0.633,+0.436,+0.483,+0.420,+0.899,-0.208,+0.025,+9.500,+11.875,-42.750,-12, -7, -6, -9, -12, -7, 3, 5,1.7590846688446937,1.4121424492371624
1503956937414,+0.626,+0.444,+0.482,+0.423,+0.945,-0.154,-0.053,+6.875,+30.438,-48.500,11, 1, -1, 1, 3, -1, 0, 1,1.7546021356233812,1.4254288285748413
1503956937435,+0.618,+0.453,+0.485,+0.422,+1.060,-0.139,-0.074,+8.438,+63.625,-25.250,5, 1, -2, -2, -2, 0, 1, -1,1.7501847893125975,1.4484979483542684
1503956937452,+0.613,+0.458,+0.488,+0.419,+1.199,-0.164,-0.100,+4.250,+53.125,-5.125,16, 3, -1, -2, 0, 1, -3, 1,1.747012947023179,1.4638497770836667
1503956937488,+0.610,+0.462,+0.490,+0.417,+1.169,-0.137,-0.023,-3.188,+25.375,+1.562,-2, -6, 2, 2, 0, -3, -4, 19,1.7468918794840596,1.4755266258710966
1503956937491,+0.609,+0.463,+0.489,+0.419,+1.080,-0.118,-0.057,+4.000,-0.688,-5.750,19, 26, 20, 8, 3, 2, 4, 0,1.746003433581199,1.475554420889441
1503956937516,+0.610,+0.460,+0.488,+0.422,+0.924,-0.193,-0.145,+9.250,-19.938,-3.500,-17, -9, -8, -5, -4, -3, -5, -17,1.7427681983778651,1.467867870600345
1503956937538,+0.611,+0.458,+0.485,+0.425,+0.827,-0.189,-0.064,-2.188,-20.188,-9.812,-1, 3, -1, 2, 3, 1, 6, -1,1.7415621197987876,1.4580761904485233
1503956937551,+0.611,+0.459,+0.483,+0.427,+0.866,-0.166,-0.010,-7.062,-10.812,-18.438,-2, -10, -3, -2, 1, 0, 0, 1,1.7431331756112463,1.456176311007549
1503956937577,+0.609,+0.461,+0.482,+0.428,+0.917,-0.169,-0.069,-0.062,+11.062,-16.562,-6, -10, -10, -7, -5, -5, -1, -3,1.7418358425717548,1.4580325696792074
1503956937594,+0.607,+0.464,+0.484,+0.428,+0.948,-0.174,-0.134,+6.438,+24.750,-7.938,10, -14, -7, -3, -2, -1, 2, 2,1.74199781966035,1.4679525983872972
1503956937614,+0.605,+0.465,+0.485,+0.427,+1.027,-0.206,-0.109,+4.188,+18.188,-3.375,-3, -9, -3, -3, 0, 0, -1, 1,1.7391740302045484,1.471719636121975
1503956937635,+0.604,+0.465,+0.486,+0.427,+1.108,-0.206,-0.005,+1.250,+1.500,-3.312,9, -2, -2, -1, 1, -1, -3, -1,1.736731754209456,1.4736811023742267
1503956937654,+0.604,+0.464,+0.485,+0.428,+1.061,-0.226,+0.015,+0.562,-13.438,-2.938,-9, -5, -1, -1, 0, 0, 3, 6,1.7349790231534223,1.4697165090071487
1503956937673,+0.606,+0.463,+0.484,+0.430,+0.988,-0.225,-0.031,-3.375,-18.812,-5.562,21, 0, -2, -2, 1, 0, 0, 3,1.737603398006068,1.466054773489419
1503956937692,+0.607,+0.463,+0.481,+0.431,+0.979,-0.227,-0.035,-13.250,-15.250,-9.250,36, 5, 1, -3, 1, 0, -4, 0,1.7401567904438695,1.4601215753171757
1503956937716,+0.608,+0.463,+0.479,+0.431,+1.049,-0.173,-0.034,-10.875,-11.250,-2.688,-5, -4, 1, -1, -2, 0, -2, -6,1.7427654930064245,1.456146786405707
1503956937733,+0.610,+0.463,+0.478,+0.430,+1.051,-0.163,-0.054,-10.000,-5.000,+5.625,-4, 0, -3, -5, -4, -2, -3, -6,1.7477243113469338,1.454215657573034
1503956937752,+0.611,+0.463,+0.477,+0.429,+1.028,-0.164,-0.006,-10.062,-7.875,+6.562,-7, -7, -4, -2, -2, -1, -2, -2,1.7504038375798459,1.452178566276404
1503956937782,+0.613,+0.460,+0.476,+0.431,+1.064,-0.169,-0.061,-1.312,-23.875,+4.438,12, 2, 0, -1, -1, 0, -1, 2,1.7496903642245996,1.4445579887475564
1503956937797,+0.616,+0.457,+0.473,+0.433,+0.958,-0.098,-0.110,-5.750,-31.312,+5.250,-11, -9, 0, 5, 5, 4, 3, 5,1.7516659714124756,1.4330376039223869
1503956937815,+0.620,+0.455,+0.470,+0.433,+0.910,-0.123,-0.128,-13.312,-22.000,+13.625,-52, -18, -6, -2, 1, 3, 4, 11,1.75813020000982,1.4234504295073076
1503956937837,+0.622,+0.456,+0.470,+0.430,+1.069,-0.126,-0.076,-19.750,+3.938,+19.500,-26, -13, -5, -4, -5, -4, -5, -12,1.7651244606096448,1.425322517091974
1503956937857,+0.625,+0.455,+0.469,+0.427,+1.166,-0.130,-0.090,-18.312,-7.500,+22.875,11, 7, -6, 1, -1, -3, -5, -15,1.7713851531017974,1.4212641146279892
1503956937874,+0.629,+0.452,+0.467,+0.427,+1.200,-0.190,-0.074,-13.625,-33.562,+18.812,16, -21, -11, -4, -4, -3, -1, 19,1.7762204379018016,1.411713196460572
1503956937904,+0.634,+0.446,+0.464,+0.428,+1.040,-0.218,-0.130,-8.562,-45.625,+13.875,17, 6, 6, -1, -1, -1, 5, 7,1.778649097316462,1.3944265827560336
1503956937926,+0.639,+0.440,+0.461,+0.430,+0.888,-0.222,-0.135,-4.188,-46.000,+8.500,2, 1, 4, 1, 3, -1, -5, 4,1.781040726758601,1.3774134656707313
1503956937937,+0.643,+0.435,+0.459,+0.432,+0.895,-0.250,-0.149,-1.062,-36.062,+9.312,-26, -5, -1, -3, -3, -1, 1, -15,1.7826209036911134,1.3643743183566357
1503956937955,+0.646,+0.433,+0.459,+0.430,+0.879,-0.297,-0.178,-6.625,-7.875,+14.875,17, 0, -5, -4, -6, -4, -4, 65,1.7872847002564312,1.3605110427359675
1503956937980,+0.647,+0.433,+0.461,+0.426,+0.863,-0.310,-0.189,-10.312,+17.875,+12.938,4, 0, 2, 1, 5, 1, 3, -11,1.7904480512242897,1.3639704927625447
1503956937993,+0.648,+0.431,+0.461,+0.426,+0.930,-0.301,-0.252,+0.375,-1.625,+6.000,1, 4, 3, 1, 0, 0, 6, 4,1.7898013579339769,1.360129436452487
1503956938017,+0.651,+0.425,+0.461,+0.428,+1.055,-0.328,-0.192,+9.125,-36.375,+4.188,-27, -11, -3, -4, -2, -1, -8, -54,1.7873955537665334,1.3490645862686166
1503956938039,+0.654,+0.419,+0.459,+0.431,+0.995,-0.303,-0.160,+6.875,-45.250,+6.438,13, 1, 1, 2, 4, 7, 0, 0,1.7852418523277662,1.3342240141889117
1503956938054,+0.656,+0.415,+0.459,+0.433,+0.878,-0.223,-0.260,+7.562,-22.688,+9.875,-3, 4, -1, -4, -1, -3, -1, -13,1.783652677089346,1.3271224831162052
1503956938087,+0.657,+0.410,+0.459,+0.434,+0.823,-0.229,-0.306,+13.375,-9.875,+11.188,6, 2, -3, 0, 0, 2, -2, -3,1.7784968710951787,1.3176495606204817
1503956938097,+0.659,+0.406,+0.459,+0.436,+0.976,-0.204,-0.164,+6.625,-31.500,+11.750,9, 11, 10, 5, 4, 0, 0, -14,1.7770698450216365,1.3106553955406923
1503956938119,+0.662,+0.403,+0.456,+0.438,+1.058,-0.163,-0.164,-2.562,-34.438,+6.125,-1, -2, -5, 0, -4, 1, -1, -12,1.7801547561938087,1.2997146031657765
1503956938139,+0.662,+0.401,+0.454,+0.441,+0.995,-0.032,-0.250,+4.812,-23.812,+2.625,17, 12, 6, 4, 3, 0, 0, -8,1.776789805614843,1.292431719796486
1503956938157,+0.663,+0.396,+0.453,+0.445,+0.941,-0.073,-0.256,+16.062,-31.562,+10.562,1, 4, 2, 0, -2, -3, -5, -16,1.7712309698547275,1.281841675849393
1503956938173,+0.665,+0.392,+0.453,+0.446,+0.954,-0.144,-0.202,+11.188,-20.938,+19.250,7, 2, 0, -1, -2, -1, 0, 5,1.770331973108123,1.2747626469790678
1503956938197,+0.664,+0.393,+0.458,+0.443,+0.866,-0.146,-0.218,+14.000,+24.375,+23.875,-10, -11, -3, -2, -1, 0, -1, 6,1.7692376776526748,1.2860118856093972
1503956938220,+0.662,+0.393,+0.463,+0.440,+0.888,-0.221,-0.203,+16.500,+25.125,+18.750,-5, 9, 7, 3, -1, -1, 1, 13,1.7642169400335888,1.2952029787159307
1503956938233,+0.660,+0.394,+0.467,+0.437,+1.004,-0.268,-0.141,+6.938,+22.125,+13.938,-10, -4, -3, -2, -1, 0, -3, 10,1.7607568217744707,1.3043495766491906
1503956938256,+0.658,+0.396,+0.471,+0.433,+0.889,-0.343,-0.143,+6.188,+31.438,+9.812,-7, -2, -1, -2, -2, -6, -5, -15,1.7589846909525084,1.3152789323909815
1503956938285,+0.657,+0.397,+0.475,+0.431,+0.800,-0.358,-0.169,+6.625,+24.312,+2.562,19, -3, -3, -3, -3, 1, 3, 4,1.7577950665372384,1.3250546452540395
1503956938293,+0.656,+0.398,+0.477,+0.429,+0.891,-0.388,-0.153,+1.125,+17.125,-2.688,13, 20, 10, 5, 0, -2, -3, 4,1.756916705907811,1.3305992328406144
1503956938319,+0.654,+0.399,+0.479,+0.428,+0.956,-0.419,-0.129,+2.938,+13.938,-5.375,5, -2, -1, 2, -4, -3, -3, -3,1.7532680249397745,1.336209201275951
1503956938343,+0.653,+0.401,+0.479,+0.429,+0.958,-0.353,-0.159,-2.562,+2.812,-18.688,3, -17, -13, -6, -3, -2, -4, -8,1.7534210181012204,1.3401219346170594
1503956938353,+0.652,+0.401,+0.476,+0.433,+0.970,-0.287,-0.304,+1.750,-6.875,-26.250,11, 3, 1, -2, -2, -1, -2, -1,1.7503840611612902,1.334425206638158
1503956938376,+0.652,+0.399,+0.473,+0.438,+0.980,-0.221,-0.337,+6.750,-20.812,-16.688,1, 9, -3, 0, 0, 0, 2, 8,1.7467042056029172,1.3253353740073963
1503956938397,+0.654,+0.395,+0.470,+0.442,+0.919,-0.193,-0.205,+10.062,-35.875,-4.500,17, 19, 5, 5, 4, 1, 0, 4,1.7454015901843662,1.312619982791099
1503956938417,+0.654,+0.391,+0.469,+0.446,+0.926,-0.213,-0.173,+9.562,-28.562,-4.250,-29, -22, 0, -1, 2, -1, 2, -31,1.7388515373633946,1.3038029091558125
1503956938439,+0.654,+0.388,+0.468,+0.449,+0.955,-0.272,-0.248,+12.562,-19.875,-6.688,-2, -6, -2, -1, -3, -4, -3, -5,1.7340096152468634,1.2966995453943193
1503956938457,+0.654,+0.384,+0.469,+0.452,+0.921,-0.301,-0.292,+15.438,-17.938,-1.188,30, 7, 5, 4, 5, 4, 0, 11,1.7275229893415538,1.2919740039567318
1503956938476,+0.655,+0.381,+0.469,+0.454,+0.962,-0.285,-0.196,+12.000,-19.750,+4.312,-3, -10, -3, -7, -3, -3, -5, 6,1.7253865917159876,1.287026711740764
1503956938495,+0.655,+0.378,+0.469,+0.456,+1.014,-0.242,-0.153,+7.062,-23.562,+0.688,0, -6, -5, -5, -4, 0, 1, 1,1.720743699269138,1.2818886687084148
1503956938520,+0.656,+0.376,+0.466,+0.460,+1.050,-0.228,-0.159,+3.500,-36.500,-8.938,-10, 11, -3, -1, -1, -3, -1, 8,1.7200258045603245,1.2730566478848653
1503956938533,+0.656,+0.372,+0.461,+0.467,+0.971,-0.222,-0.264,+5.312,-48.188,-20.438,4, 30, 11, 5, 1, 2, -4, 0,1.7136296284260282,1.2569261529573796
1503956938555,+0.657,+0.368,+0.457,+0.473,+0.992,-0.172,-0.291,+3.312,-45.125,-16.438,-9, -20, -6, -2, 2, 2, 0, -4,1.7099369514301732,1.2430021909675175
1503956938577,+0.658,+0.366,+0.454,+0.477,+1.014,-0.094,-0.298,+6.688,-26.688,+0.938,13, -7, -6, -4, 2, 1, -6, 3,1.7093115558435632,1.23442752998546
1503956938593,+0.658,+0.363,+0.453,+0.480,+1.003,-0.119,-0.194,+10.375,-30.500,+1.375,-5, -3, -3, -2, -1, 0, -4, -3,1.7047710237545253,1.2276560496111624
1503956938620,+0.658,+0.359,+0.450,+0.486,+1.043,-0.190,-0.290,+11.562,-41.250,-13.000,13, -1, -1, -2, -5, -3, -3, 0,1.6985818080522033,1.2158406226024963
1503956938646,+0.658,+0.353,+0.445,+0.494,+0.917,-0.195,-0.409,+18.312,-52.750,-27.312,-6, -12, -6, -2, -1, -1, 1, -1,1.689645675212433,1.1969347182310046
1503956938655,+0.658,+0.345,+0.439,+0.505,+0.887,-0.258,-0.334,+20.438,-77.562,-31.875,-3, -14, -9, -4, -4, -3, -7, -5,1.6778573082624544,1.1735512659941005
1503956938679,+0.658,+0.341,+0.436,+0.510,+0.924,-0.283,-0.216,+2.250,-43.750,-20.125,8, -1, 0, -1, -3, -1, 1, 0,1.6721400240469377,1.1618196503319596
1503956938696,+0.656,+0.344,+0.437,+0.510,+0.928,-0.242,-0.200,-3.812,+7.625,-15.812,-16, 1, 2, 0, -2, -2, 7, 1,1.6708390436991682,1.1687971811484337
1503956938713,+0.654,+0.347,+0.436,+0.512,+1.012,-0.209,-0.273,-2.938,+6.375,-20.250,7, 0, 0, -1, 2, 5, 4, 5,1.6694689565785787,1.1723687249041064
1503956938735,+0.652,+0.347,+0.432,+0.517,+1.031,-0.198,-0.335,+0.062,-25.688,-32.250,29, 11, 1, -1, -1, -1, -2, 3,1.6639837978370713,1.1653664324425452
1503956938757,+0.649,+0.346,+0.426,+0.526,+0.979,-0.158,-0.341,+2.250,-40.250,-47.938,-30, -4, 0, 0, -3, -2, -5, -8,1.6543158080074685,1.1536578867986267
1503956938778,+0.647,+0.346,+0.423,+0.532,+0.904,-0.120,-0.494,+9.938,-15.500,-36.438,1, -1, 0, -3, -2, -3, -2, 9,1.648762644046445,1.1491455338640328
1503956938797,+0.644,+0.346,+0.423,+0.535,+0.742,-0.191,-0.461,+10.188,+14.438,-19.000,-7, -7, -1, -1, 0, -1, 6, 3,1.6408630262951431,1.1493376117920948
1503956938821,+0.641,+0.353,+0.427,+0.532,+0.850,-0.197,-0.303,-5.750,+49.000,-13.250,4, -15, -5, -3, -5, -5, -3, -9,1.6428432538532014,1.1682696894536089
1503956939493,+0.558,+0.413,+0.433,+0.576,+1.089,-0.011,-0.188,-16.375,-6.312,+7.562,12, 3, 0, -2, 1, 0, 0, -4,1.5346951378864988,1.2831994439419894
1503956939525,+0.561,+0.412,+0.430,+0.575,+1.009,-0.018,-0.212,-17.750,-18.938,+7.250,-2, -4, -3, -5, -3, -2, 1, 4,1.539719858829215,1.2758118850539364
1503956939537,+0.565,+0.412,+0.428,+0.573,+0.947,+0.000,-0.224,-23.812,-15.062,+12.438,-5, -2, 2, 0, -4, -1, 1, 9,1.5487414769028152,1.2723209156273763
1503956939556,+0.568,+0.412,+0.427,+0.570,+0.896,-0.049,-0.240,-22.688,-3.250,+18.250,0, 0, 1, 2, 2, -2, -4, 2,1.5555238613820506,1.2703222539625303
1503956939576,+0.572,+0.412,+0.427,+0.566,+0.974,-0.114,-0.262,-21.250,+5.750,+21.500,1, 31, 11, 5, 2, 1, -1, -11,1.5646484203594726,1.2702867188245888
1503956939599,+0.576,+0.412,+0.428,+0.561,+0.991,-0.108,-0.303,-20.250,+9.812,+25.562,4, -5, -2, -3, 0, 0, 0, -1,1.5738395310339939,1.2719653740775287
1503956939617,+0.581,+0.411,+0.427,+0.558,+0.982,-0.043,-0.297,-23.125,-9.250,+20.812,2, -3, -2, 2, 0, 0, -1, 0,1.58376751213834,1.2685423779077536
1503956939635,+0.586,+0.409,+0.422,+0.558,+0.952,+0.015,-0.322,-21.312,-28.750,+14.250,-5, -4, -3, -3, -2, 1, -3, 0,1.592164769614149,1.2561623580009618
1503956939660,+0.589,+0.408,+0.419,+0.559,+0.816,-0.004,-0.333,-12.312,-18.438,+5.688,0, -10, -6, 0, -3, -1, -3, 6,1.5975490783566488,1.24943019953859
1503956939672,+0.590,+0.407,+0.417,+0.559,+0.754,-0.044,-0.257,-5.938,-9.062,+0.500,12, -3, 1, -2, 1, -2, 0, -6,1.5983133070895486,1.243886217357442
1503956939694,+0.590,+0.407,+0.417,+0.560,+0.840,-0.075,-0.278,-1.438,+2.625,-8.438,-4, -5, 3, 4, 4, 0, 4, -2,1.598280861134018,1.244153980573373
1503956939717,+0.588,+0.408,+0.417,+0.561,+0.956,-0.037,-0.331,-0.125,+11.312,-15.438,-7, -2, -1, -4, -3, -1, -3, -6,1.595207281526163,1.2458203239556405
1503956939733,+0.587,+0.409,+0.416,+0.562,+1.032,-0.015,-0.346,-0.188,-0.125,-9.750,2, -4, 1, 1, -1, 0, -1, 0,1.5944900908866213,1.2458117111958549
1503956939759,+0.588,+0.407,+0.413,+0.564,+1.062,-0.018,-0.357,-2.125,-15.375,-3.625,2, -2, -3, -4, -2, -4, 0, -1,1.5935910083955078,1.236963041330623
1503956939777,+0.590,+0.404,+0.411,+0.566,+1.019,-0.013,-0.414,+2.688,-22.125,+3.188,1, 0, -1, 2, -1, -2, -1, -2,1.593425187765575,1.2284246023971812
1503956939796,+0.591,+0.400,+0.411,+0.567,+0.986,-0.015,-0.427,+12.438,-16.062,+8.188,11, 0, -1, -2, -1, 2, 0, -5,1.5893748811348543,1.2213206527863267
1503956939817,+0.592,+0.396,+0.411,+0.569,+1.049,-0.008,-0.319,+15.312,-18.188,+11.938,8, -1, -2, -3, 1, 1, -1, -1,1.5853668362623767,1.2145481868645258
1503956939837,+0.594,+0.392,+0.412,+0.570,+1.085,-0.030,-0.240,+13.500,-24.750,+11.562,-9, 5, -2, -2, -1, -3, -2, -2,1.5837934112715728,1.2097612338059405
1503956939851,+0.595,+0.387,+0.412,+0.571,+0.942,-0.063,-0.289,+13.250,-22.188,+9.250,-6, -7, -4, -2, -3, -1, -1, -1,1.5783965081872853,1.2009268452814088
1503956939874,+0.596,+0.384,+0.412,+0.573,+0.828,-0.046,-0.342,+10.875,-12.312,+5.250,-5, 4, 0, -3, -2, -2, 0, -2,1.576143312954153,1.1961925685633343
1503956939897,+0.596,+0.383,+0.413,+0.573,+0.872,-0.038,-0.336,+8.125,+1.438,+3.750,-5, -4, -4, 0, 1, 0, -3, -2,1.5746086948789284,1.196283776201293
1503956939913,+0.594,+0.383,+0.414,+0.573,+0.923,-0.044,-0.296,+7.125,+7.750,-2.875,12, -2, 1, 3, 1, 0, 1, 4,1.569844278273504,1.1976845571277606
1503956939934,+0.592,+0.384,+0.415,+0.574,+1.048,-0.058,-0.241,+6.562,+0.438,-9.000,3, -3, -3, 1, 0, 1, -2, 0,1.5666294171341308,1.2012558058926939
1503956939960,+0.591,+0.382,+0.413,+0.578,+1.083,-0.037,-0.271,+7.750,-27.312,-15.500,-1, 1, 3, 2, 1, 2, 2, 1,1.5611944078784334,1.194535118451502
1503956939971,+0.591,+0.378,+0.410,+0.582,+0.954,-0.099,-0.272,+8.312,-38.875,-20.500,3, 9, 4, 1, 0, 1, 5, 2,1.5550943893336175,1.1824615958661646
1503956939998,+0.592,+0.375,+0.405,+0.588,+0.889,-0.091,-0.337,+2.250,-43.562,-21.250,-3, -4, 0, -1, 0, 0, -4, -3,1.5529751799241134,1.1693113825417591
1503956940022,+0.593,+0.373,+0.400,+0.591,+1.068,-0.076,-0.328,-8.062,-33.500,-17.625,-5, -1, -2, 0, -1, -2, -2, -3,1.5523419823945719,1.1571469314937801
1503956940036,+0.592,+0.373,+0.397,+0.594,+1.265,-0.018,-0.330,-3.625,-31.750,-17.875,0, -10, -3, 2, -1, 2, -3, 1,1.549974049296956,1.1519987409264287
1503956940057,+0.592,+0.369,+0.393,+0.599,+1.244,-0.028,-0.331,+8.750,-55.000,-17.500,19, 17, 5, -7, -9, -7, 0, 5,1.5440326412983052,1.1385366692509864
1503956940083,+0.595,+0.357,+0.380,+0.611,+0.556,+0.095,-0.644,+22.688,-92.750,-24.875,2, 8, -2, 2, -1, 2, 3, -1,1.5337023429879264,1.0966715477685791
1503956940098,+0.598,+0.354,+0.400,+0.597,+0.423,-0.341,-0.299,+29.375,+96.438,+86.188,-6, -6, -3, 1, 6, 2, 7, 7,1.536554211944506,1.1260804038013295
1503956940123,+0.593,+0.361,+0.408,+0.593,+1.151,+0.136,-0.439,+14.188,+72.938,+10.750,-1, 0, 3, 2, 1, -2, -2, -9,1.534675217590085,1.1515821689580439
1503956940137,+0.593,+0.360,+0.420,+0.586,+1.221,-0.077,-0.462,+30.188,+56.125,+53.688,5, 0, 0, 7, 4, 1, 6, 3,1.5332141206121406,1.1713793226179219
1503956940154,+0.592,+0.355,+0.429,+0.582,+1.303,-0.124,-0.382,+41.562,+20.562,+38.500,-11, 10, 10, 5, 2, 0, -1, 1,1.523510436989342,1.179094691161789
1503956940174,+0.593,+0.345,+0.433,+0.584,+1.139,-0.091,-0.353,+47.312,-37.625,+33.000,2, -2, -1, -2, -3, 0, 0, 2,1.511704063561723,1.1706548694027652
1503956940198,+0.596,+0.333,+0.435,+0.587,+0.943,-0.083,-0.363,+51.000,-47.625,+37.250,2, -1, -4, -6, -2, -1, -1, 2,1.502387934363237,1.1559050035651304
1503956940212,+0.597,+0.323,+0.442,+0.586,+0.741,-0.097,-0.320,+52.750,-4.250,+47.125,2, -5, -4, -7, -7, -3, -3, 1,1.491262135945695,1.1535188283139517
1503956940236,+0.596,+0.318,+0.454,+0.582,+0.797,-0.118,-0.383,+54.938,+41.250,+49.750,1, -2, -3, -3, -3, -4, -3, 1,1.4821528323744864,1.1690867832977596
1503956940257,+0.593,+0.313,+0.467,+0.577,+0.980,-0.167,-0.414,+58.438,+52.062,+45.562,-3, -5, -4, -3, -4, -2, -4, -3,1.467988459749714,1.1866678737133838
1503956940274,+0.590,+0.308,+0.477,+0.574,+1.041,-0.165,-0.346,+54.375,+26.375,+37.500,3, -4, -3, 0, -1, 0, 3, 8,1.4538715976431014,1.1990260405032238
1503956940300,+0.588,+0.301,+0.484,+0.574,+0.917,-0.071,-0.301,+58.500,+2.500,+32.500,0, 1, 1, 5, 3, 2, -1, -1,1.4398131468274455,1.2032042652232244
1503956940323,+0.585,+0.293,+0.491,+0.575,+0.844,-0.130,-0.256,+59.875,-1.000,+28.625,2, -1, -2, -5, -3, -2, -1, 3,1.4221297885305388,1.2063931013956921
1503956940336,+0.582,+0.284,+0.498,+0.576,+0.903,-0.204,-0.349,+65.250,+1.938,+26.438,0, 3, -1, -5, 0, -4, -5, 3,1.4032481469453646,1.2085612245266537
1503956940355,+0.579,+0.275,+0.504,+0.579,+0.905,-0.219,-0.372,+65.375,-9.188,+17.625,-6, 0, 2, 5, 2, 0, -1, -6,1.384859628797125,1.2096590570277266
1503956940377,+0.577,+0.266,+0.507,+0.583,+0.780,-0.238,-0.295,+57.688,-22.938,+12.688,4, 7, 5, 3, 1, 2, 2, 1,1.3691921625130985,1.2046346151116283
1503956940393,+0.574,+0.261,+0.513,+0.583,+0.620,-0.243,-0.211,+40.688,+6.625,+9.562,-1, 2, -2, -7, -6, -1, -1, -27,1.3556199772351867,1.2112932184537057
1503956940423,+0.570,+0.261,+0.522,+0.578,+0.792,-0.227,-0.217,+34.500,+52.438,+14.688,-6, -7, -3, -3, -3, -5, -2, 125,1.344998095969584,1.2307144739162381
1503956940437,+0.566,+0.260,+0.529,+0.576,+1.057,-0.240,-0.385,+38.812,+37.750,+19.062,-7, -2, 2, 9, 4, 1, -3, -119,1.3336394287322093,1.2451914028996582
1503956940456,+0.565,+0.253,+0.530,+0.579,+0.950,-0.291,-0.309,+33.000,-23.938,+8.375,-9, -6, 0, 2, 0, 1, -1, -24,1.322841120894771,1.2387718699350512
1503956940474,+0.565,+0.247,+0.528,+0.584,+0.632,-0.280,-0.209,+23.250,-42.188,-4.625,0, -1, 2, -6, -4, -2, 1, 127,1.316289432239987,1.227296831125362
1503956940500,+0.564,+0.245,+0.529,+0.585,+0.608,-0.269,-0.250,+17.125,+2.562,-3.375,2, 0, -1, -12, -5, -2, -3, -62,1.3115481434665397,1.2272558110137162
1503956940513,+0.563,+0.246,+0.532,+0.583,+0.884,-0.285,-0.281,+1.750,+20.625,+0.625,0, 3, -3, 8, 0, -2, 0, -56,1.3100148546496908,1.2352515884701611
1503956940537,+0.563,+0.247,+0.529,+0.584,+1.014,-0.237,-0.274,-10.125,-10.062,+1.062,9, 21, 8, 9, 6, 4, 5, -19,1.311208851812603,1.2294539766149633
1503956940558,+0.566,+0.245,+0.524,+0.587,+0.844,-0.221,-0.261,-17.375,-38.438,-1.000,25, 44, 14, 3, 1, 1, 5, -2,1.3167185129798409,1.215857659371646
1503956940572,+0.569,+0.245,+0.518,+0.589,+0.676,-0.217,-0.231,-27.125,-29.562,-4.938,-16, 0, 0, -2, -3, 0, 2, 3,1.3243897608013198,1.2022772764966494
1503956940598,+0.572,+0.250,+0.514,+0.588,+0.661,-0.216,-0.263,-37.625,+6.625,-6.812,3, -5, -6, -9, -6, -2, -1, 10,1.337784640076217,1.1995963887917922
1503956940619,+0.573,+0.258,+0.510,+0.587,+0.872,-0.183,-0.392,-45.188,+23.812,-15.750,-8, -9, -6, -8, -2, -4, -5, -5,1.349842914117173,1.201025621892548
1503956940635,+0.575,+0.265,+0.503,+0.588,+1.167,-0.147,-0.417,-47.312,-6.375,-15.625,8, 4, 1, 5, 5, 2, 0, -3,1.3634850656712423,1.1950882593395256
1503956940656,+0.581,+0.267,+0.492,+0.591,+1.016,-0.207,-0.310,-57.188,-56.625,-13.125,-5, -2, 0, 3, -2, -3, -1, 0,1.3811029870114468,1.1743710643080794
1503956940678,+0.587,+0.269,+0.477,+0.596,+0.693,-0.223,-0.219,-71.250,-67.000,-23.312,-13, -15, -8, 0, 0, 1, 3, 1,1.398786446641556,1.1458338803543187
1503956940703,+0.593,+0.278,+0.466,+0.595,+0.629,-0.241,-0.284,-87.562,-13.375,-23.688,-7, -1, -4, -1, 0, 3, 2, 2,1.4245236902971463,1.1355900943615964
1503956940715,+0.597,+0.293,+0.460,+0.588,+0.795,-0.093,-0.483,-95.688,+53.312,-8.562,1, -4, 1, 1, 1, 0, 2, 8,1.452495610538205,1.1439902189287237
1503956940766,+0.601,+0.309,+0.454,+0.581,+1.132,+0.024,-0.604,-86.375,+61.562,-0.938,13, 3, -1, -2, 0, -2, 1, -48,1.4825259527852586,1.155114894040642
1503956940775,+0.607,+0.318,+0.445,+0.577,+1.214,-0.106,-0.450,-83.875,-0.375,+2.812,8, 6, 9, 11, 2, -6, -8, -6,1.5090000469970786,1.150821002462441
1503956940780,+0.616,+0.322,+0.430,+0.577,+0.934,-0.138,-0.262,-97.500,-61.812,-7.562,27, 4, 0, 3, 0, 2, 10, 70,1.536672560086468,1.1285428488316336
1503956940801,+0.625,+0.328,+0.414,+0.574,+0.621,-0.080,-0.390,-106.000,-39.875,-1.125,-20, -24, -7, -1, 2, 2, 7, 20,1.5671748099770957,1.107687454350388
1503956940813,+0.634,+0.339,+0.405,+0.565,+0.612,-0.001,-0.690,-102.562,+42.875,+18.188,16, 0, 3, 1, 1, 3, 9, 24,1.6048433661147679,1.108630824965016
1503956940837,+0.639,+0.353,+0.400,+0.554,+0.922,+0.032,-0.708,-89.062,+72.312,+27.625,3, 6, 2, -2, -3, -1, -3, 0,1.6371961489782658,1.1219125642397154
1503956940871,+0.645,+0.364,+0.395,+0.543,+1.181,-0.078,-0.429,-94.625,+33.250,+26.312,4, 8, -2, 0, 2, -2, -3, -6,1.668699981983803,1.1308440898852095
1503956940875,+0.655,+0.370,+0.382,+0.537,+1.087,-0.070,-0.437,-102.375,-28.062,+15.500,-8, -7, -4, -1, 0, 3, 0, -3,1.7037098422119954,1.1189559925199237
1503956940897,+0.665,+0.372,+0.366,+0.534,+0.840,+0.020,-0.581,-99.188,-44.250,+13.375,13, 4, -1, 0, 0, 2, 3, 0,1.7334326101378195,1.095924981614017
1503956940927,+0.676,+0.371,+0.350,+0.532,+0.873,+0.114,-0.782,-79.062,-50.188,+17.312,9, -4, -2, -1, -2, -4, -5, 0,1.7617416118858553,1.0688122897604575
1503956940936,+0.687,+0.365,+0.333,+0.533,+0.974,-0.007,-0.707,-62.250,-92.438,+14.125,32, 3, 2, 2, 2, 1, -1, 5,1.7832290387961678,1.0321995204044068
1503956940962,+0.699,+0.354,+0.314,+0.536,+0.874,-0.121,-0.452,-62.062,-135.000,+0.938,-63, -19, -4, 1, -1, 2, -2, -14,1.8011192028652248,0.9845920725606802
1503956940980,+0.707,+0.345,+0.295,+0.542,+0.649,-0.090,-0.438,-52.500,-126.188,-21.875,13, 2, 0, -3, -2, 0, 0, 1,1.8111736866329629,0.9415569668913737
1503956940995,+0.711,+0.342,+0.284,+0.545,+0.593,-0.139,-0.531,-41.375,-51.938,-23.062,14, 0, -1, -3, 0, -2, -2, -2,1.8183548286119111,0.9210149573169804
1503956941015,+0.712,+0.345,+0.281,+0.543,+0.881,-0.135,-0.529,-36.000,-2.438,-7.750,11, 10, 5, 2, 3, 0, 1, 3,1.825635301265991,0.9219381849864973
1503956941039,+0.714,+0.349,+0.280,+0.539,+1.190,-0.168,-0.457,-36.688,-3.125,+10.812,-14, -2, -1, 3, 3, 0, -1, -7,1.8370254056478237,0.927744050107854
1503956941064,+0.720,+0.346,+0.277,+0.534,+1.186,-0.280,-0.449,-35.375,-46.312,+21.188,-15, -2, -1, -1, 0, 1, 1, -1,1.8507911947664852,0.9180487059558057
1503956941101,+0.728,+0.337,+0.271,+0.532,+0.887,-0.307,-0.478,-26.750,-83.625,+21.625,-25, -8, -5, -4, -8, -7, -5, -9,1.8621881400167848,0.8938931750951442
1503956941110,+0.736,+0.325,+0.265,+0.531,+0.724,-0.340,-0.479,-22.938,-85.250,+20.938,27, 14, -2, 0, 0, -2, 0, 7,1.87038649904799,0.8644374939676932
1503956941114,+0.743,+0.319,+0.264,+0.525,+0.767,-0.372,-0.467,-21.750,-39.438,+37.438,-6, -3, -1, 0, 2, 1, 2, 4,1.8843900641465678,0.8521501251615646
1503956941158,+0.749,+0.317,+0.271,+0.514,+0.947,-0.377,-0.531,-11.062,+3.500,+62.625,-4, -1, 9, 2, 0, -1, 1, 2,1.9011715354428613,0.8573528596128706
1503956941187,+0.754,+0.315,+0.277,+0.505,+1.120,-0.391,-0.485,-3.375,-9.438,+59.250,-13, -15, -6, -1, -2, -1, -4, -4,1.9149363455799107,0.8613083094229642
1503956941207,+0.760,+0.306,+0.280,+0.500,+1.041,-0.354,-0.538,+5.500,-51.750,+50.500,-59, -10, -4, -2, -2, -2, -6, -17,1.9231620240125502,0.8489732888050301
1503956941210,+0.767,+0.293,+0.281,+0.497,+0.707,-0.311,-0.603,+16.000,-60.500,+44.500,77, 24, 9, 4, 3, 4, 8, 29,1.9301598109002056,0.8271105442150434
1503956941218,+0.772,+0.280,+0.282,+0.496,+0.593,-0.244,-0.678,+23.438,-53.312,+38.062,-1, 4, 0, 1, 3, 4, 3, 2,1.9318087460498081,0.8053866770475668
1503956941240,+0.777,+0.270,+0.284,+0.493,+0.703,-0.227,-0.629,+22.688,-42.562,+44.250,8, -2, -2, -6, -3, -2, 1, 1,1.9376016355842365,0.7902211339611522
1503956941269,+0.782,+0.260,+0.285,+0.490,+0.674,-0.238,-0.612,+18.000,-48.812,+44.250,1, -3, 0, 0, -1, -2, 0, 0,1.9441411927324526,0.7735784169476138
1503956941281,+0.787,+0.248,+0.281,+0.490,+0.641,-0.262,-0.603,+5.188,-70.312,+20.625,7, 2, 3, 1, -5, -4, -3, -6,1.9489258314427196,0.7469004957365343
1503956941297,+0.791,+0.239,+0.278,+0.490,+0.555,-0.188,-0.814,+6.938,-45.500,+20.938,17, 32, 6, 9, 2, 2, 1, -4,1.9535585924896735,0.7270939311200757
1503956941314,+0.793,+0.232,+0.277,+0.491,+0.757,-0.068,-1.007,+21.812,-31.625,+22.500,-6, -8, 0, 7, 7, 6, 5, 5,1.9536232025291747,0.7137746644984158
1503956941340,+0.796,+0.220,+0.273,+0.494,+0.899,-0.221,-0.710,+16.125,-89.500,+12.875,2, 5, -2, -2, 2, 3, 0, -1,1.9526378348707611,0.6880592685301873
1503956941353,+0.799,+0.204,+0.265,+0.500,+0.450,-0.184,-0.557,+10.250,-111.375,-8.312,-12, -8, 0, -5, -4, -2, -3, -6,1.9486256005614442,0.6506785624076536
1503956941376,+0.801,+0.191,+0.258,+0.506,+0.211,-0.146,-0.833,+13.625,-65.188,-9.188,12, 0, 1, -6, 0, -5, -7, -4,1.9441680206050107,0.6202490093815604
1503956941401,+0.801,+0.188,+0.259,+0.506,+0.363,-0.220,-0.965,+13.938,+10.125,-3.188,4, 2, 5, 5, 1, 3, 4, 6,1.942434009500606,0.616341111341175
1503956941417,+0.798,+0.193,+0.264,+0.506,+0.668,-0.211,-0.787,+10.812,+34.562,-2.812,-13, -6, -6, -5, -3, -4, -7, -7,1.9363465721381041,0.6316852995388355
1503956941438,+0.797,+0.197,+0.267,+0.505,+0.784,-0.220,-0.667,+1.938,+20.875,+1.312,17, 7, -1, 0, 0, 5, 5, 2,1.9360270969868483,0.642544285247635
1503956941464,+0.797,+0.200,+0.269,+0.502,+0.617,-0.249,-0.607,-8.688,+15.938,+6.438,7, 0, 0, -2, -3, 2, 1, 1,1.939187129947553,0.6495962643637293
1503956941475,+0.797,+0.209,+0.270,+0.498,+0.557,-0.238,-0.692,-28.438,+54.125,+9.625,-13, -23, -6, 1, 7, -1, -7, -9,1.946645779569584,0.6656066475843151
1503956941498,+0.796,+0.226,+0.275,+0.489,+0.691,-0.060,-0.763,-36.125,+111.312,+17.000,18, 0, -5, -3, -3, 0, -2, 7,1.959173529059623,0.6999147296856155
1503956941521,+0.795,+0.244,+0.282,+0.478,+0.902,-0.052,-0.820,-27.812,+121.812,+29.562,0, -2, -3, -4, -2, 0, -3, -4,1.9742009258717739,0.7387982372192499
1503956941542,+0.793,+0.261,+0.288,+0.469,+0.943,-0.233,-0.619,-29.688,+102.062,+17.438,-10, -1, -4, -3, -5, -5, -1, -2,1.985776455017688,0.7754271488076094
1503956941556,+0.790,+0.275,+0.292,+0.464,+0.984,-0.274,-0.481,-30.750,+66.500,-2.125,17, 10, 0, 3, 3, 0, 7, 7,1.9911126991915071,0.8050921113590067
1503956941584,+0.786,+0.287,+0.295,+0.460,+0.965,-0.117,-0.609,-19.750,+65.812,+0.688,12, 4, 1, -1, -1, -3, -4, -2,1.9924638822560568,0.8297058018260783
1503956941601,+0.784,+0.297,+0.296,+0.458,+0.854,-0.052,-0.630,-13.250,+51.938,-4.500,2, 1, 2, 1, 0, -4, -5, -1,1.9968497322321985,0.8491890214027242
1503956941617,+0.783,+0.301,+0.294,+0.458,+0.871,-0.149,-0.616,-18.375,+14.688,-5.625,-2, 2, 2, 0, 1, -2, 0, 0,1.9982744695288281,0.8536206054934711
1503956941641,+0.783,+0.303,+0.293,+0.458,+1.036,-0.226,-0.577,-14.812,-6.688,-7.375,-2, -4, -6, -3, -2, -2, -1, -1,2.0002683349416897,0.8560530017018458
1503956941678,+0.783,+0.302,+0.291,+0.459,+1.045,-0.246,-0.586,-7.375,-27.562,-5.938,-6, 0, 3, -1, -2, -3, -5, -6,1.9992462428873885,0.8514547654437047
1503956941680,+0.785,+0.297,+0.288,+0.460,+0.855,-0.246,-0.630,-9.188,-40.625,+0.062,-6, 6, 2, -1, 0, 3, 2, -1,2.0000512045842083,0.8383069567634862
1503956941699,+0.788,+0.291,+0.284,+0.462,+0.615,-0.205,-0.631,-8.000,-39.250,+2.688,-3, -7, -5, -3, -2, 1, 0, 2,2.0021992524369834,0.8225700162166598
1503956941720,+0.790,+0.287,+0.281,+0.463,+0.495,-0.219,-0.649,-4.000,-20.250,-6.125,-1, 6, 3, 0, 1, 0, -1, 0,2.003998594287783,0.8115071416507113
1503956941747,+0.790,+0.288,+0.281,+0.463,+0.529,-0.253,-0.630,-7.500,+12.812,-4.500,3, 3, 3, -1, -14, -4, 0, 0,2.0048190043752196,0.8134596394258914
1503956941768,+0.789,+0.291,+0.284,+0.460,+0.659,-0.303,-0.645,-5.375,+37.750,+0.500,11, 12, 1, -1, -2, 0, 0, 2,2.006064037795578,0.8221867476485614
1503956941783,+0.788,+0.295,+0.287,+0.457,+0.788,-0.294,-0.642,-7.312,+32.312,+1.875,9, 2, -2, -1, -3, -4, -3, 0,2.0081700876992707,0.8329161135763777
1503956941800,+0.788,+0.298,+0.287,+0.456,+0.815,-0.250,-0.666,-11.938,+12.750,+1.375,6, 1, -1, -2, -2, -1, -1, -1,2.0113838906437485,0.838433736712354
1503956941817,+0.789,+0.297,+0.286,+0.456,+0.749,-0.246,-0.692,-8.938,-2.875,-3.312,-5, 0, -1, 1, 1, -2, -2, 1,2.013299677259576,0.8353806803561683
1503956941842,+0.789,+0.296,+0.284,+0.457,+0.628,-0.207,-0.703,-6.500,-4.688,-8.250,-9, -6, -1, 2, 2, 0, -2, -6,2.0122875145721904,0.8308363224855944
1503956941856,+0.789,+0.296,+0.282,+0.458,+0.659,-0.139,-0.716,-6.938,+4.062,-6.750,1, -2, -1, 3, 0, 3, -2, -7,2.0121164153150133,0.8282725576411958
1503956941881,+0.789,+0.297,+0.282,+0.457,+0.774,-0.160,-0.697,-5.688,+7.688,+0.688,-11, -12, -4, -2, -2, -1, -2, -3,2.013647104858156,0.8298564933501781
1503956941909,+0.791,+0.296,+0.281,+0.457,+0.825,-0.195,-0.606,-5.500,-14.750,+5.062,-4, -6, -3, 0, 0, 0, 1, 0,2.018058115052859,0.8272286396911093
1503956941916,+0.792,+0.291,+0.279,+0.459,+0.778,-0.170,-0.537,+5.062,-38.000,-3.125,0, -4, -5, -3, -9, -24, -9, -1,2.0155362590967405,0.8156398993807361
1503956941942,+0.791,+0.286,+0.279,+0.463,+0.661,-0.156,-0.554,+20.750,-33.562,-12.562,4, 1, 4, 2, 3, 5, 4, 1,2.0061912244961544,0.8070112604284971
1503956941964,+0.790,+0.279,+0.281,+0.467,+0.581,-0.228,-0.590,+30.125,-24.438,-10.375,4, -4, -4, -3, -1, 3, 0, 5,1.9948448771703375,0.7975428957350904
1503956941978,+0.789,+0.276,+0.286,+0.468,+0.669,-0.266,-0.624,+29.625,+0.875,+1.750,-8, -10, -5, -2, 0, 1, -3, -10,1.9880930355254731,0.7992142498121717
1503956941999,+0.787,+0.277,+0.293,+0.467,+0.749,-0.157,-0.708,+33.000,+31.438,+11.688,7, 17, 6, 2, 1, 1, 0, 0,1.982825324945453,0.8105397765321171
1503956942019,+0.785,+0.277,+0.299,+0.466,+0.821,-0.158,-0.696,+35.750,+25.062,+10.250,-9, -7, 0, 1, 1, 3, 3, 1,1.9769730339963807,0.8185562560730248
1503956942037,+0.783,+0.275,+0.305,+0.466,+0.855,-0.210,-0.667,+32.812,+5.250,+9.812,-7, -4, -3, -1, -1, 1, -2, -5,1.9688745724546417,0.8232790038073178
1503956942057,+0.781,+0.273,+0.309,+0.468,+0.825,-0.202,-0.690,+32.375,-0.312,+0.250,3, -5, -2, -1, -2, 0, 0, 0,1.9599798556441435,0.8258448236460515
1503956942082,+0.779,+0.270,+0.310,+0.473,+0.767,-0.179,-0.705,+29.000,-13.438,-18.500,-3, -1, 0, -2, 0, 0, 2, 0,1.9491544938467682,0.8231150203880817
1503956942101,+0.776,+0.266,+0.310,+0.480,+0.792,-0.187,-0.703,+26.688,-22.750,-30.375,-4, -15, -7, -5, -2, -1, -2, -1,1.9340485889487913,0.8174517985542393
1503956942118,+0.773,+0.264,+0.310,+0.487,+0.800,-0.196,-0.590,+21.188,-21.250,-35.062,0, -1, -1, -5, -1, 0, -5, -2,1.9206725643195486,0.8156219943399307
1503956942141,+0.769,+0.265,+0.310,+0.492,+0.746,-0.199,-0.533,+14.438,-5.312,-32.562,0, -1, -2, -1, -2, -1, -1, -1,1.9082673891845061,0.8181844626777235
1503956942155,+0.766,+0.267,+0.312,+0.495,+0.685,-0.165,-0.533,+10.812,+10.188,-24.062,9, 4, 3, 1, 2, 0, 3, 4,1.9000920301433297,0.8253505862185592
1503956942176,+0.762,+0.271,+0.313,+0.498,+0.685,-0.130,-0.606,+7.812,+24.938,-27.750,-2, 2, 0, 0, 0, 0, -2, 0,1.8912255996184253,0.8342560121485773
1503956942201,+0.758,+0.276,+0.314,+0.501,+0.771,-0.115,-0.641,+3.125,+26.375,-31.125,3, -2, -2, -2, -1, -1, -3, 1,1.883384592406759,0.8450223836400294
1503956942215,+0.754,+0.281,+0.314,+0.504,+0.938,-0.119,-0.645,+1.750,+20.375,-22.438,0, -1, 0, 0, -2, -1, 1, 0,1.8759148942164194,0.854144494076965
1503956942241,+0.752,+0.284,+0.315,+0.504,+0.943,-0.146,-0.564,-3.312,+6.438,-10.562,5, 1, 3, 0, 0, -1, 0, 1,1.873221692690261,0.8606536023647828
1503956942261,+0.752,+0.285,+0.313,+0.505,+0.869,-0.127,-0.502,-9.812,-8.625,-0.875,0, 2, 3, 0, 1, -1, -2, -3,1.8740258559190996,0.8596693597854014
1503956942280,+0.753,+0.285,+0.311,+0.505,+0.782,-0.147,-0.484,-9.375,-15.000,+2.750,5, 0, -3, -2, -1, -1, 0, 0,1.8769860619705736,0.8567845086778052
1503956942303,+0.753,+0.284,+0.310,+0.505,+0.754,-0.172,-0.520,-3.125,-13.438,-2.250,3, -2, -3, -3, -3, -3, -1, 0,1.8762464275610924,0.8532793956481096
1503956942313,+0.753,+0.283,+0.309,+0.507,+0.771,-0.120,-0.604,+1.500,-8.000,-7.562,-2, -1, -1, 1, -2, -1, -2, -3,1.8745883913250103,0.8506073959093435
1503956942337,+0.753,+0.282,+0.308,+0.508,+0.757,-0.105,-0.627,+3.688,-6.875,-1.375,-4, -2, -1, 0, -1, 1, 1, 1,1.8733934269646737,0.847525238186803
1503956942357,+0.754,+0.282,+0.308,+0.507,+0.723,-0.167,-0.615,-2.188,+0.375,+7.062,-4, 4, 1, 0, 1, 1, 1, -1,1.8764666647783528,0.8474902600517068
1503956942379,+0.754,+0.285,+0.309,+0.505,+0.741,-0.152,-0.625,-11.750,+21.500,+9.250,8, 9, 7, 3, 0, 1, -2, 1,1.879945427512316,0.8539150726172374
1503956942395,+0.754,+0.290,+0.310,+0.502,+0.783,-0.103,-0.689,-11.938,+34.250,+9.375,-4, -4, -6, -2, -2, -3, -6, -5,1.8857683684676916,0.8637299508189215
1503956942418,+0.754,+0.291,+0.310,+0.500,+0.860,-0.139,-0.734,-5.562,+9.688,+8.938,-4, -3, -3, 0, 0, -3, -2, 0,1.887646696786511,0.8648046256152992
1503956942445,+0.756,+0.288,+0.308,+0.501,+0.863,-0.220,-0.680,-3.625,-24.750,+3.062,-3, -4, -1, 1, 1, -1, -2, 1,1.889964766508271,0.857072911079297
1503956942456,+0.759,+0.282,+0.304,+0.503,+0.760,-0.250,-0.631,-2.562,-42.625,+0.812,0, -1, -3, -2, -2, 0, 0, -4,1.8921040398475506,0.8412959013937852
1503956942482,+0.762,+0.276,+0.302,+0.503,+0.651,-0.262,-0.601,-5.875,-36.250,+7.438,4, 1, 2, -2, -1, -1, 0, 2,1.8950020163146375,0.827969406739589
1503956942503,+0.765,+0.274,+0.300,+0.500,+0.614,-0.268,-0.615,-13.688,-8.562,+15.500,-1, 3, 7, 2, -1, -1, 0, -2,1.902970454756092,0.8209264635355956
1503956942515,+0.767,+0.275,+0.300,+0.496,+0.659,-0.234,-0.651,-18.625,+16.500,+20.750,1, -1, -4, -4, -1, -2, -2, -1,1.9110994083812163,0.8219040528279116
1503956942537,+0.769,+0.277,+0.301,+0.491,+0.744,-0.226,-0.667,-16.062,+17.000,+23.688,-4, -4, -7, -7, -1, -1, -2, -2,1.9204668794212307,0.8259455811878779
1503956942560,+0.771,+0.277,+0.300,+0.489,+0.773,-0.220,-0.659,-12.312,+2.062,+13.188,-2, -2, 0, 0, 0, -2, -4, -4,1.9269452127214695,0.8243035701199104
1503956942580,+0.772,+0.276,+0.298,+0.488,+0.761,-0.195,-0.653,-11.750,-14.875,+3.625,-2, -4, 0, -2, -3, -3, -3, 3,1.9296453094898616,0.819235939811493
1503956942603,+0.774,+0.273,+0.296,+0.488,+0.753,-0.198,-0.673,-5.562,-16.812,+10.125,-3, 0, 0, 0, 0, -2, -5, -4,1.9327372130516653,0.8111924282115835
1503956942619,+0.776,+0.271,+0.295,+0.487,+0.750,-0.218,-0.656,-3.562,-16.500,+12.188,2, 4, -2, -1, -1, -1, -1, -2,1.9370530609089711,0.8061984854038152
1503956942640,+0.778,+0.268,+0.294,+0.486,+0.761,-0.211,-0.654,-4.188,-14.688,+10.875,13, 21, 8, 4, 2, 0, 0, 4,1.9405933590549522,0.7993167714522814
1503956942658,+0.779,+0.267,+0.294,+0.484,+0.713,-0.224,-0.661,-2.562,-7.250,+11.750,-8, -15, -6, -1, -3, 1, 1, -3,1.9435509447384967,0.7969691407202988
1503956942681,+0.780,+0.266,+0.295,+0.483,+0.669,-0.226,-0.692,-0.688,+3.688,+7.500,0, -6, -4, -3, -2, -3, 1, 0,1.9457454383189827,0.7965883623587557
1503956942696,+0.780,+0.267,+0.295,+0.483,+0.736,-0.198,-0.681,-1.688,+5.875,-1.312,-4, -2, -2, 1, 0, 1, -1, 0,1.9465376803543037,0.798480309056287
1503956942720,+0.779,+0.267,+0.295,+0.484,+0.837,-0.165,-0.682,+3.062,+1.188,-0.812,-1, -5, -3, -4, 0, -2, -2, 0,1.9433522478653695,0.7985202087984499
1503956942740,+0.779,+0.266,+0.295,+0.484,+0.838,-0.183,-0.643,+4.188,-10.688,+0.875,-8, -1, -2, 0, 0, 0, -1, -3,1.9425564726901248,0.7966297829428378
1503956942761,+0.779,+0.264,+0.295,+0.485,+0.774,-0.213,-0.611,+1.938,-14.438,+0.688,-2, 2, 1, 1, 1, -2, 0, 5,1.9403951123734462,0.7932764992610458
1503956942788,+0.780,+0.264,+0.296,+0.485,+0.667,-0.209,-0.627,+1.688,-0.562,+3.062,6, 0, 0, -1, -2, -1, 0, 4,1.9428099206520082,0.7952104951095242
1503956942805,+0.779,+0.264,+0.297,+0.484,+0.636,-0.195,-0.679,+5.562,+15.062,+1.188,5, 1, -2, -1, -1, 0, 1, 2,1.9405807392721997,0.7959675609380134
1503956942818,+0.778,+0.266,+0.299,+0.485,+0.730,-0.175,-0.630,+5.312,+13.375,-5.000,7, 4, 3, -1, -1, 0, -1, 4,1.9385860476061905,0.8029157336974306
1503956942845,+0.777,+0.266,+0.300,+0.485,+0.824,-0.199,-0.608,+6.062,-0.562,-1.688,-3, -1, -1, 1, -1, 0, -3, -1,1.9357788854681783,0.8041080329656168
1503956942860,+0.777,+0.266,+0.301,+0.485,+0.783,-0.227,-0.574,+3.375,-5.938,-0.312,-2, -2, -2, -2, -1, -2, 1, 1,1.9355847628016252,0.8056815047699584
1503956942875,+0.777,+0.265,+0.301,+0.486,+0.713,-0.229,-0.602,-1.500,-5.750,-0.250,-2, 1, 0, 0, -1, -1, -1, -1,1.9342240300320122,0.8042239098326756
1503956942898,+0.777,+0.265,+0.301,+0.485,+0.688,-0.197,-0.686,-0.938,+4.750,+4.312,1, -3, 1, 1, 0, -1, 2, 2,1.9347893082408767,0.8037966983423265
1503956942920,+0.777,+0.264,+0.301,+0.485,+0.710,-0.161,-0.720,+3.938,+4.250,+3.312,1, -5, -3, 0, -1, 0, -1, -5,1.933996150692486,0.8019133608093946
1503956942946,+0.778,+0.263,+0.300,+0.486,+0.814,-0.161,-0.651,-0.062,-15.812,-0.812,-2, 5, 1, -1, -1, -2, -6, -12,1.9354529090487436,0.7992606667649874
1503956942958,+0.778,+0.261,+0.299,+0.486,+0.781,-0.177,-0.641,+0.812,-18.125,+5.375,-1, -3, -2, -1, 1, -2, -2, 4,1.934075778470439,0.7939294755555261
1503956942984,+0.780,+0.260,+0.298,+0.485,+0.703,-0.214,-0.652,-6.688,-2.312,+10.125,-3, -1, 1, -1, -1, 0, -2, -2,1.9393073843257642,0.790802452203738
1503956942998,+0.781,+0.263,+0.298,+0.482,+0.715,-0.190,-0.703,-13.938,+14.938,+14.125,-5, -1, -3, -2, -1, 1, 2, 1,1.9459911299809398,0.795544458217619
1503956943026,+0.782,+0.264,+0.298,+0.479,+0.785,-0.185,-0.712,-11.750,+11.562,+16.625,3, 0, 0, 0, 0, -2, 2, 2,1.9511505368594497,0.7965314971207357
1503956943053,+0.784,+0.265,+0.297,+0.477,+0.800,-0.194,-0.662,-9.125,-1.562,+14.125,-2, -7, -4, -2, -3, -1, 1, 0,1.9585407395851842,0.7967769152559868
1503956943061,+0.785,+0.263,+0.295,+0.477,+0.738,-0.193,-0.627,-5.750,-15.938,+3.938,-9, -8, -2, -2, -1, -5, -1, -4,1.9600104047174107,0.7902666008286626
1503956943141,+0.786,+0.261,+0.293,+0.478,+0.677,-0.181,-0.636,-5.000,-16.250,-3.125,3, -6, -4, -2, 1, -2, 1, -2,1.9608829275199617,0.7841974059055905
1503956943142,+0.786,+0.261,+0.292,+0.478,+0.684,-0.181,-0.646,-3.062,-0.500,+1.375,7, 11, 7, 0, 1, 0, 0, 2,1.9610860306460511,0.7826599976851507
1503956943150,+0.786,+0.264,+0.294,+0.476,+0.740,-0.228,-0.620,-5.938,+15.312,+5.750,-3, -1, -3, -3, 0, -2, -3, -2,1.9641946625742188,0.7905766461733424
1503956943184,+0.786,+0.267,+0.295,+0.474,+0.766,-0.224,-0.620,-7.188,+19.250,+6.750,-5, -3, -2, 0, -1, -1, 0, 0,1.967532778797871,0.7969774184276216
1503956943186,+0.785,+0.268,+0.296,+0.472,+0.777,-0.211,-0.652,-4.188,+12.000,+4.500,5, 0, 1, 1, 0, 0, -1, 0,1.9667467252343118,0.7991987385793272
1503956943188,+0.785,+0.269,+0.296,+0.472,+0.755,-0.200,-0.671,-0.188,+2.938,+0.312,-1, -15, -6, -5, -2, -2, -2, -2,1.9675279741867384,0.8011068147238142
1503956943200,+0.785,+0.268,+0.296,+0.473,+0.743,-0.209,-0.639,+1.750,-7.438,-3.938,-10, -6, -2, -1, 0, -2, 0, -3,1.9661266849015784,0.7996211400599194
1503956943221,+0.785,+0.267,+0.296,+0.474,+0.739,-0.259,-0.628,+2.375,-6.000,-1.688,-1, -3, -1, -2, -1, -2, -2, -3,1.964730578358207,0.7981385397943435
1503956943248,+0.785,+0.267,+0.298,+0.473,+0.711,-0.261,-0.627,+0.750,+5.312,+1.188,1, 2, 0, -1, -2, -2, 0, 0,1.9649278710563831,0.8008099454853816
1503956943259,+0.784,+0.269,+0.299,+0.472,+0.719,-0.228,-0.637,-1.812,+19.062,+3.375,-1, 0, -2, 0, 1, 0, -1, 0,1.9642956611024447,0.8053676350258815
1503956943290,+0.784,+0.273,+0.301,+0.470,+0.748,-0.210,-0.662,-2.438,+28.562,+5.250,-6, 0, -1, -1, 0, -2, 1, 1,1.9682559383934435,0.8152746081453869
1503956943297,+0.783,+0.276,+0.303,+0.469,+0.787,-0.209,-0.688,-0.812,+22.625,+0.000,15, 49, 21, 10, 1, 1, 2, 1,1.9682468870819771,0.8233383102403392
1503956943321,+0.782,+0.276,+0.303,+0.469,+0.820,-0.228,-0.649,-0.750,-2.062,-5.188,-3, -4, 0, -2, -1, -1, 1, 3,1.9656615423828,0.822954016039438
1503956943346,+0.783,+0.274,+0.302,+0.471,+0.782,-0.247,-0.615,-0.625,-18.875,-4.688,2, -10, -3, -6, 1, -4, -1, -1,1.9656306901322735,0.8187874391211148
1503956943357,+0.783,+0.272,+0.300,+0.472,+0.687,-0.233,-0.607,-4.250,-14.438,-5.375,-3, -7, -4, -4, -2, -2, -3, 0,1.9638543921055736,0.8122671878796156
1503956943378,+0.784,+0.272,+0.299,+0.472,+0.642,-0.205,-0.641,-9.375,+2.688,-1.125,0, 3, 4, 2, 1, 0, -1, 0,1.966656676895127,0.8110961683121124
1503956943401,+0.784,+0.275,+0.298,+0.470,+0.683,-0.178,-0.665,-12.562,+15.188,+4.938,0, 2, 2, 0, -2, 0, 0, 0,1.9704991793128452,0.8144526283912614
1503956943431,+0.784,+0.278,+0.297,+0.468,+0.774,-0.156,-0.625,-15.125,+11.875,+4.625,4, 4, 0, 0, -1, -1, 1, -1,1.974384034420298,0.8178415268257174
1503956943448,+0.785,+0.279,+0.295,+0.467,+0.808,-0.146,-0.619,-13.625,+0.000,+2.375,-2, -2, -2, -1, -1, -2, -3, -2,1.9788461120638248,0.8166721981373337
1503956943463,+0.786,+0.279,+0.293,+0.468,+0.771,-0.170,-0.624,-8.875,-10.625,+0.062,-4, -10, 0, 0, 0, 1, 4, 1,1.9812246336968906,0.8144172810105924
1503956943484,+0.786,+0.278,+0.292,+0.468,+0.759,-0.177,-0.642,-4.250,-9.625,-0.500,0, -1, 0, 0, 0, 1, -2, -1,1.9806467572174158,0.8109652027720088
1503956943500,+0.786,+0.279,+0.291,+0.468,+0.743,-0.169,-0.638,-4.188,-0.750,+0.812,-3, -1, -1, -1, -1, -1, -1, 0,1.981679189256263,0.8113736173528936
1503956943521,+0.786,+0.280,+0.291,+0.468,+0.748,-0.168,-0.643,-5.188,+7.875,-0.625,-2, 0, -2, -2, 0, -2, -1, -1,1.982487362540184,0.8133040201809304
1503956943536,+0.786,+0.282,+0.291,+0.467,+0.791,-0.189,-0.662,-5.250,+11.500,-1.438,1, 1, 1, -1, -1, 0, 0, -1,1.984753592594709,0.8167633527563999
1503956943563,+0.785,+0.284,+0.292,+0.467,+0.797,-0.211,-0.673,-5.625,+8.062,-1.688,0, -5, -3, 0, 0, 0, 0, -2,1.983607560153367,0.8217602397610801
1503956943583,+0.785,+0.284,+0.291,+0.467,+0.793,-0.217,-0.622,-7.000,-4.000,-5.500,-1, -3, -1, -1, -3, 0, -1, 0,1.9838398532595798,0.820242022135224
1503956943598,+0.785,+0.284,+0.289,+0.468,+0.771,-0.207,-0.588,-6.625,-9.188,-4.000,-2, -2, -4, -1, -1, -1, -2, -5,1.983662339497488,0.8176183009546081
1503956943619,+0.786,+0.284,+0.289,+0.468,+0.714,-0.200,-0.605,-4.062,-1.438,-0.875,4, -7, -3, -2, 1, -1, 1, 3,1.9862067775571601,0.818013746677346
1503956943656,+0.786,+0.284,+0.289,+0.467,+0.700,-0.202,-0.648,-3.125,+6.312,-0.312,-1, -1, 0, 0, -1, 0, 0, -1,1.9868527748228444,0.8176113358921735
1503956943658,+0.786,+0.285,+0.289,+0.467,+0.719,-0.195,-0.687,-4.438,+8.500,-0.812,1, -2, 0, 0, 0, -1, -1, 0,1.9876740142827694,0.8195509365414134
1503956943679,+0.785,+0.286,+0.289,+0.466,+0.756,-0.195,-0.663,-5.062,+7.625,-0.562,0, 0, -3, -1, -2, 0, -1, -1,1.9866042626231097,0.8206943002149877
1503956943700,+0.785,+0.287,+0.289,+0.466,+0.786,-0.190,-0.639,-5.875,+4.500,+0.500,-1, 6, 4, 1, -1, 0, 2, 1,1.9874345295597469,0.822637505621581
1503956943719,+0.786,+0.287,+0.289,+0.465,+0.765,-0.211,-0.658,-5.625,+1.875,+5.438,-3, -3, -3, -2, -1, 0, -1, -3,1.9906236548210139,0.822634735297689
1503956943752,+0.787,+0.287,+0.289,+0.463,+0.725,-0.226,-0.670,-6.625,+0.625,+8.062,-1, 1, -1, -4, 0, 0, 0, -2,1.9944720237653353,0.8222314768638
1503956943760,+0.788,+0.286,+0.288,+0.463,+0.723,-0.224,-0.677,-6.438,-1.188,+3.438,-3, 1, 1, 2, -1, -1, -2, 1,1.996426016768962,0.8191791783617711
1503956943779,+0.789,+0.286,+0.287,+0.463,+0.748,-0.199,-0.660,-6.688,-5.812,-0.062,-5, -6, -3, -1, 0, -2, -1, -3,1.9991977102451153,0.8180780292098034
1503956943797,+0.789,+0.285,+0.286,+0.463,+0.765,-0.174,-0.617,-4.188,-10.625,-0.125,-2, -14, -4, -2, -2, 0, 1, -1,1.9986239102835823,0.8146352732000125
1503956943823,+0.790,+0.284,+0.285,+0.464,+0.741,-0.184,-0.593,-1.000,-12.625,-1.812,6, 0, -2, -2, 0, 0, 0, 1,1.999915456598736,0.8119940134447483
1503956943836,+0.790,+0.282,+0.284,+0.465,+0.721,-0.206,-0.617,+0.562,-11.562,-4.500,-2, -1, -1, -2, -1, 0, -2, -2,1.997873992940307,0.8070168832978946
1503956943859,+0.789,+0.282,+0.284,+0.466,+0.710,-0.217,-0.644,+1.062,+0.312,-5.250,-4, -8, -2, -2, -2, -2, -2, 1,1.9946751610377382,0.8070196988273454
1503956943881,+0.788,+0.283,+0.286,+0.466,+0.701,-0.182,-0.627,+2.688,+11.625,-3.688,1, -1, 3, 10, 5, -1, 0, -2,1.9924755649151826,0.8115516612741897
1503956943895,+0.787,+0.285,+0.287,+0.466,+0.742,-0.141,-0.633,+7.562,+14.312,-4.250,-2, -7, -5, -3, -4, -1, -1, -1,1.991334666786342,0.8165368001219406
1503956943920,+0.785,+0.286,+0.289,+0.467,+0.808,-0.143,-0.645,+9.562,+7.750,-6.125,-2, -9, -5, -2, 0, -2, -1, -3,1.9859584105651056,0.8210954262382374
1503956943948,+0.784,+0.285,+0.290,+0.469,+0.842,-0.201,-0.662,+10.312,-2.625,-5.375,7, 2, -2, -3, -1, 0, 1, 0,1.9810700531404495,0.8210754367142795
1503956943959,+0.784,+0.284,+0.291,+0.470,+0.807,-0.213,-0.637,+5.938,-6.438,-5.250,-3, -9, -4, -1, -1, -1, -1, -2,1.9793773920422109,0.8210600187408842
1503956943982,+0.783,+0.284,+0.290,+0.471,+0.755,-0.193,-0.622,+0.750,-5.562,-4.688,-2, 2, -1, -2, -2, -1, 1, -1,1.9764251481075923,0.8195505300577673
1503956944000,+0.783,+0.283,+0.290,+0.471,+0.737,-0.198,-0.633,-1.375,+0.125,-0.500,-4, 2, -2, -3, -2, 0, -2, 0,1.9755962932131492,0.8176180213884023
1503956944016,+0.783,+0.284,+0.291,+0.471,+0.741,-0.202,-0.662,-2.062,+3.875,-0.312,-2, -4, -4, -3, -2, 0, -1, -1,1.9761970278660472,0.821069731630269
1503956944040,+0.783,+0.284,+0.290,+0.471,+0.771,-0.156,-0.642,-3.250,-2.062,-2.500,2, 3, -1, -1, 0, 0, 1, -1,1.9764251481075923,0.8195505300577673
1503956944062,+0.784,+0.284,+0.289,+0.471,+0.770,-0.142,-0.622,-2.188,-7.438,+1.938,0, 9, -4, -2, -1, 0, -1, -4,1.9792028888137623,0.8184297181611262
1503956944080,+0.784,+0.283,+0.288,+0.471,+0.747,-0.166,-0.605,-3.375,-6.250,+5.375,-1, -4, -1, 0, -2, -2, 0, 1,1.9786057879501289,0.8149840344172345
1503956944100,+0.785,+0.283,+0.288,+0.470,+0.722,-0.177,-0.616,-5.250,-0.875,+5.375,2, 4, 1, 0, 0, 1, 1, 1,1.9817904605564727,0.8149770539877732
1503956944125,+0.785,+0.283,+0.288,+0.469,+0.729,-0.185,-0.634,-4.938,+3.625,+4.938,-1, 5, 0, 1, 0, 0, -1, -2,1.9824296561485524,0.8145748066983847
1503956944135,+0.786,+0.284,+0.288,+0.468,+0.754,-0.181,-0.637,-4.375,+5.688,+2.875,3, 1, 0, 0, -1, -3, -2, 2,1.9864399732253593,0.8165052789130518
1503956944161,+0.785,+0.285,+0.288,+0.468,+0.779,-0.178,-0.662,-3.312,+2.375,-2.062,2, 0, 0, -1, -1, -1, -1, 0,1.9847207329275671,0.8180477892184517
1503956944184,+0.785,+0.285,+0.287,+0.469,+0.783,-0.185,-0.674,-4.375,-0.812,-3.750,1, -3, -2, -1, 1, 0, 0, -1,1.9843114686307797,0.8169422198565081
1503956944196,+0.785,+0.285,+0.286,+0.469,+0.770,-0.198,-0.673,-4.938,-3.375,-3.188,4, 6, 3, 2, -1, -1, -1, 2,1.9845446557710689,0.8154392930342153
1503956944269,+0.785,+0.285,+0.285,+0.469,+0.763,-0.179,-0.650,-5.000,-3.125,-4.250,-3, -4, -6, -2, -2, 0, 0, -1,1.9847780908489085,0.8139396380308702
1503956944290,+0.785,+0.286,+0.285,+0.470,+0.751,-0.156,-0.652,-3.250,-0.188,-3.312,-2, -1, 0, 0, -1, -3, 0, -1,1.984965769043583,0.816276748407984
1503956944296,+0.785,+0.286,+0.284,+0.470,+0.747,-0.145,-0.642,-0.188,+0.875,-1.500,3, -4, -2, -2, -3, -1, -3, 1,1.9851997960851193,0.8147799041878941
1503956944307,+0.785,+0.285,+0.285,+0.470,+0.752,-0.177,-0.639,+2.438,+1.188,+2.188,-4, -3, 1, -1, 0, 0, 1, 0,1.984135719371147,0.8143375449486641
1503956944319,+0.785,+0.286,+0.287,+0.469,+0.740,-0.190,-0.658,+2.875,+9.938,+4.812,-3, -4, -4, -3, -2, 0, -1, 0,1.98514003823123,0.8188816758433367
1503956944338,+0.784,+0.287,+0.289,+0.467,+0.728,-0.193,-0.624,+1.188,+15.688,+8.812,2, 11, 5, 1, 0, 2, 2, 1,1.9842463145732872,0.8226402759289357
1503956944364,+0.784,+0.290,+0.292,+0.464,+0.729,-0.210,-0.614,-0.750,+24.812,+12.750,1, -1, -4, -1, -1, -1, -2, 0,1.9879815619445695,0.8318143222758195
1503956944375,+0.784,+0.293,+0.295,+0.461,+0.778,-0.216,-0.629,-2.125,+31.938,+13.000,-4, -3, -3, -2, -3, 0, -1, -4,1.9917331834314556,0.8410265691386544
1503956944399,+0.783,+0.296,+0.297,+0.459,+0.838,-0.203,-0.639,-1.688,+24.750,+6.812,2, -2, -2, -2, 0, -1, -1, 1,1.9925639038698373,0.8487513111875112
1503956944420,+0.783,+0.297,+0.297,+0.459,+0.883,-0.192,-0.627,-0.750,-0.500,-0.312,0, 5, 0, 1, 0, -1, 1, 0,1.9934185504164599,0.8507128927696327
1503956944435,+0.783,+0.295,+0.297,+0.460,+0.840,-0.212,-0.594,+0.125,-17.562,-1.562,0, 4, 0, 0, 0, 1, 2, 1,1.9910589050273637,0.8471922867959023
1503956944458,+0.784,+0.292,+0.296,+0.461,+0.739,-0.223,-0.588,+0.375,-17.250,-2.000,1, -6, 0, 0, 1, 0, -2, -1,1.9906470266737573,0.8405965887374999
1503956944480,+0.784,+0.291,+0.295,+0.461,+0.675,-0.225,-0.591,-1.875,-6.625,-2.562,-1, 1, -2, -1, -1, -1, -4, -3,1.9900484887779606,0.8371187375099369
1503956944495,+0.784,+0.292,+0.296,+0.460,+0.711,-0.224,-0.586,-2.812,+8.688,+2.688,-3, -5, -1, -2, -2, 0, -1, 0,1.9912995768562263,0.8401938201094831
1503956944518,+0.784,+0.295,+0.299,+0.458,+0.772,-0.207,-0.583,-1.750,+24.125,+5.688,8, 1, -2, 0, -1, -1, 1, 2,1.9944055032245225,0.8498480351259884
1503956944540,+0.783,+0.298,+0.301,+0.456,+0.811,-0.173,-0.592,-0.312,+26.188,+7.188,-1, -2, -1, -2, -2, -3, -1, 2,1.9952449380131467,0.857604710198026
1503956944555,+0.782,+0.300,+0.303,+0.454,+0.829,-0.184,-0.624,+2.250,+18.188,+7.188,-4, -6, -2, -1, 1, -1, -1, -3,1.995246185184735,0.8634183150926468
1503956944581,+0.782,+0.302,+0.305,+0.453,+0.815,-0.215,-0.623,+1.875,+11.625,+4.688,-3, -1, 3, 1, -1, 1, 2, -1,1.9971246752952776,0.8700497497136948
1503956944599,+0.781,+0.302,+0.306,+0.453,+0.796,-0.234,-0.605,+2.438,+5.188,+0.250,-3, -1, -3, -2, -1, -2, -1, -4,1.9943447370463632,0.871202856294191
1503956944629,+0.781,+0.302,+0.307,+0.453,+0.775,-0.204,-0.609,+3.938,+3.688,-2.188,-2, 0, -3, 0, -2, 1, -2, -1,1.9940912886862654,0.872757198951669
1503956944636,+0.780,+0.302,+0.307,+0.454,+0.763,-0.194,-0.626,+4.625,+2.750,-3.938,3, 0, -1, -1, 0, -1, -1, -1,1.990908651488487,0.8727637652440343
1503956944659,+0.780,+0.302,+0.307,+0.454,+0.741,-0.207,-0.618,+2.125,+4.125,-2.812,0, -2, -2, -2, -1, -3, -2, 0,1.990908651488487,0.8727637652440343
1503956944674,+0.780,+0.302,+0.308,+0.454,+0.730,-0.214,-0.615,-0.125,+7.188,+1.438,0, 5, -1, 0, 1, -2, -1, 1,1.9906571029998712,0.874322840624027
1503956944696,+0.780,+0.303,+0.309,+0.453,+0.755,-0.222,-0.614,-1.750,+9.688,+3.312,-1, -8, 1, -1, 0, -1, -1, -4,1.9919257765728078,0.8774514990972154
1503956944719,+0.780,+0.303,+0.309,+0.452,+0.775,-0.197,-0.607,-1.812,+5.312,+3.688,-2, 1, 1, 0, -1, 0, -2, -3,1.9925777746452549,0.8770476832155502
1503956944734,+0.780,+0.302,+0.309,+0.452,+0.787,-0.157,-0.591,-1.250,-4.188,+5.625,-13, -3, -3, -1, 0, -2, -1, 0,1.9917068161573301,0.8750758466223629
1503956944757,+0.781,+0.301,+0.308,+0.451,+0.760,-0.178,-0.582,-0.125,-10.062,+8.812,4, 3, -2, -1, 1, 1, 0, 1,1.9942845113209142,0.8715344323196194
1503956944780,+0.783,+0.299,+0.308,+0.451,+0.720,-0.216,-0.597,-0.750,-9.125,+9.312,-1, -1, 6, 0, -3, 0, -1, 0,1.9976378666280643,0.8683855936839608
1503956944794,+0.784,+0.297,+0.307,+0.450,+0.724,-0.235,-0.629,-3.562,-6.562,+7.875,2, 1, 0, -2, -1, -1, -1, 0,1.9993939453497607,0.8628794795053115
1503956944817,+0.785,+0.296,+0.306,+0.449,+0.770,-0.226,-0.625,-6.250,-6.750,+6.000,-3, -2, 0, 0, 0, -2, 1, -1,2.0020135685995486,0.8593456540656926
1503956944839,+0.786,+0.295,+0.305,+0.449,+0.804,-0.198,-0.600,-8.125,-7.188,+4.188,8, -2, -3, -2, -1, 1, -2, -5,2.0039682921531576,0.8562253141324394
1503956944854,+0.787,+0.295,+0.303,+0.449,+0.812,-0.186,-0.589,-7.188,-11.312,+2.188,-2, 1, 0, 0, -1, 0, 2, 1,2.007012157290893,0.8535366422061567
1503956944876,+0.788,+0.293,+0.301,+0.449,+0.796,-0.185,-0.586,-6.312,-17.875,+0.312,-22, -4, 0, -1, 1, 0, -1, -5,2.0083965444746075,0.8469271967983322
1503956944899,+0.789,+0.291,+0.299,+0.451,+0.790,-0.187,-0.593,-3.250,-20.125,-3.188,0, -5, -5, -2, -3, -3, -3, -1,2.008423593279281,0.8411512991995226
1503956944921,+0.789,+0.290,+0.298,+0.452,+0.765,-0.187,-0.606,+0.188,-15.938,-4.438,1, 2, -3, -1, 0, -1, 0, 1,2.0071737358391997,0.8380715133288488
1503956944936,+0.789,+0.289,+0.298,+0.453,+0.756,-0.219,-0.586,+0.188,-7.188,-0.688,2, -2, -1, 0, -2, -2, 1, 3,2.0056764423241518,0.8365198077206469
1503956944959,+0.789,+0.290,+0.299,+0.452,+0.765,-0.223,-0.581,-2.375,+6.125,+2.750,3, 4, 1, 0, 2, 1, 1, 4,2.0069231418680484,0.8395975029022916
1503956944982,+0.788,+0.292,+0.300,+0.451,+0.813,-0.203,-0.591,-1.750,+14.375,+0.625,6, -1, -2, -1, -2, -1, -2, 0,2.006459622666882,0.8442464017140204
1503956944996,+0.787,+0.294,+0.301,+0.451,+0.864,-0.204,-0.627,-1.062,+9.812,-2.938,2, -2, -2, -2, 0, -2, -3, -4,2.0053298427773205,0.8493111578213242
1503956945019,+0.786,+0.295,+0.301,+0.452,+0.863,-0.211,-0.628,-1.312,-1.188,-7.250,3, 0, 1, 0, -1, 0, 0, 2,2.0029571657626084,0.8512859418778163
1503956945034,+0.786,+0.294,+0.300,+0.454,+0.807,-0.220,-0.640,+1.500,-6.500,-12.562,1, 0, -2, -3, -2, -1, -3, -3,2.001029226562542,0.8485984254233758
1503956945056,+0.785,+0.294,+0.299,+0.457,+0.758,-0.208,-0.620,+2.125,-6.062,-16.312,0, 0, -1, -1, 2, -1, 0, 0,1.996751581289193,0.8478821469142119
1503956945079,+0.783,+0.295,+0.299,+0.458,+0.772,-0.233,-0.604,+1.062,+4.188,-12.938,-18, -11, 0, -2, -1, -3, -3, -4,1.9918722648473914,0.8494506051044798
1503956945102,+0.782,+0.297,+0.302,+0.458,+0.784,-0.256,-0.583,+1.688,+19.062,-4.562,5, 0, 0, 1, 0, 0, 1, 5,1.9903037894897915,0.8575903534160901
1503956945117,+0.780,+0.299,+0.304,+0.457,+0.804,-0.221,-0.602,+3.875,+18.188,-1.688,4, 4, 5, 1, 0, 1, 1, -2,1.9871078043257295,0.8634121527344287
1503956945139,+0.779,+0.300,+0.306,+0.457,+0.817,-0.201,-0.623,+8.125,+9.375,-2.938,-3, 1, -2, -2, 0, -1, -3, -2,1.9849433299369916,0.8680871427510594
1503956945154,+0.778,+0.300,+0.307,+0.458,+0.784,-0.213,-0.627,+10.188,+4.688,-3.562,-2, -5, -3, -1, -1, -2, -1, -2,1.9815181274065559,0.8696554862015933
1503956945176,+0.778,+0.299,+0.309,+0.459,+0.770,-0.232,-0.623,+9.938,+2.500,-1.000,-2, -4, -2, -4, -1, -1, -2, -3,1.9795256433572161,0.8712329928386333
1503956945199,+0.777,+0.299,+0.311,+0.459,+0.792,-0.225,-0.591,+7.750,+6.375,+0.875,3, -2, 0, -2, 0, 0, -2, -2,1.9764968465834223,0.8739878000204792
1503956945214,+0.776,+0.300,+0.313,+0.458,+0.787,-0.178,-0.590,+6.188,+13.250,+2.375,7, -5, 1, -2, -2, -1, 0, 5,1.9749647847343947,0.8783068868233478
1503956945236,+0.775,+0.301,+0.314,+0.458,+0.763,-0.167,-0.614,+8.188,+11.375,+4.188,-2, 2, -1, 2, 0, -2, -2, -2,1.9730509699597416,0.8814600156404544
1503956945259,+0.775,+0.300,+0.315,+0.458,+0.765,-0.168,-0.631,+8.375,+3.250,+0.750,-4, -2, -2, 1, 0, 1, 2, -2,1.9719294147958435,0.8810914397770189
1503956945274,+0.774,+0.299,+0.315,+0.459,+0.742,-0.163,-0.596,+5.812,-1.750,-2.312,4, 3, -1, 1, -1, -1, -1, -1,1.9678711331163985,0.8791556536589034
1503956945297,+0.774,+0.300,+0.315,+0.460,+0.737,-0.155,-0.576,+2.500,+0.938,-1.750,-16, -5, 0, -1, -1, -3, 0, 0,1.968139764208929,0.8815211526946226
1503956945320,+0.774,+0.301,+0.315,+0.460,+0.754,-0.138,-0.567,-1.500,+6.062,-0.562,5, -5, -2, 0, -2, -1, 0, 2,1.9690235423942306,0.8834767605519321
1503956945335,+0.774,+0.302,+0.315,+0.460,+0.780,-0.130,-0.593,-0.688,+4.688,+2.000,-1, -6, -1, -2, -2, 0, 1, 1,1.9699091946734242,0.8854337993299715
1503956945357,+0.774,+0.301,+0.315,+0.460,+0.775,-0.154,-0.587,+1.188,-2.125,+2.750,0, -4, -3, -3, -1, -2, -1, -3,1.9690235423942306,0.8834767605519321
1503956945379,+0.774,+0.300,+0.314,+0.460,+0.732,-0.184,-0.575,-0.062,-9.062,+2.125,2, 1, 0, 1, 0, -1, -2, -1,1.9683774951128699,0.8799292762095522
1503956945394,+0.775,+0.298,+0.313,+0.461,+0.734,-0.210,-0.575,-3.062,-11.188,-0.938,-2, -3, -1, -4, -3, 0, -1, 0,1.9687986185521846,0.8752337093739812
1503956945425,+0.776,+0.298,+0.311,+0.461,+0.755,-0.227,-0.587,-7.875,-5.062,+0.625,0, -4, -1, -2, -3, -1, -2, -6,1.9718280610408627,0.872457364709539
1503956945440,+0.777,+0.298,+0.310,+0.460,+0.795,-0.217,-0.615,-11.938,-1.188,+3.250,-4, 2, 2, 0, 1, -1, 1, 1,1.9752402035914138,0.8708632934913709
1503956945455,+0.778,+0.299,+0.308,+0.459,+0.834,-0.195,-0.599,-14.125,-4.125,+1.750,5, 4, 1, -1, -1, 0, 0, 1,1.9797683787520013,0.8696646488149449
1503956945476,+0.778,+0.299,+0.306,+0.459,+0.842,-0.205,-0.576,-11.688,-9.938,-0.188,-6, -2, -3, -1, -4, -2, -2, -4,1.9802546665639245,0.8665382178571815
1503956945499,+0.779,+0.298,+0.305,+0.459,+0.816,-0.226,-0.579,-8.438,-11.312,-0.812,-2, 0, 0, 2, 0, 0, -1, -1,1.9821725641734058,0.8634161813354453
1503956945515,+0.780,+0.298,+0.304,+0.459,+0.779,-0.222,-0.614,-6.625,-7.188,-1.250,-4, -10, -4, -2, -1, -2, -2, 0,1.9849571305822702,0.8622577329461693
1503956945537,+0.780,+0.297,+0.303,+0.460,+0.775,-0.204,-0.621,-5.562,-4.438,-1.312,-6, -3, -3, 0, -2, -1, -1, -2,1.9836984172744376,0.8591518037352728
1503956945559,+0.781,+0.297,+0.302,+0.460,+0.826,-0.200,-0.610,-3.938,-5.062,+0.625,11, -1, -1, -2, 0, -1, -4, -1,1.986478695402451,0.8580000758218846
1503956945574,+0.781,+0.297,+0.302,+0.459,+0.823,-0.217,-0.587,-1.500,-3.125,+2.000,4, 16, 2, -2, 0, 0, 1, 1,1.9871222852427552,0.8575970295301447
1503956945596,+0.781,+0.296,+0.303,+0.459,+0.816,-0.251,-0.595,-0.250,-3.312,+1.312,3, 11, 4, 4, -1, 1, 1, 1,1.986019925923902,0.8571854008505222
1503956945622,+0.781,+0.297,+0.304,+0.458,+0.791,-0.250,-0.610,-0.688,+4.312,+2.688,-1, 0, 0, -3, 1, -1, 0, 0,1.987276662738742,0.8602892588559731
1503956945667,+0.781,+0.298,+0.305,+0.457,+0.784,-0.231,-0.641,-0.312,+13.500,+3.500,6, 0, -1, -4, -2, -2, -2, 2,1.9885350930624341,0.8633975991797095
1503956945669,+0.780,+0.299,+0.307,+0.456,+0.795,-0.217,-0.656,+1.875,+17.750,+0.188,2, 0, 1, 4, 3, -1, 1, 1,1.987011096274831,0.8676730559277644
1503956945679,+0.778,+0.301,+0.309,+0.456,+0.803,-0.199,-0.593,+4.625,+16.438,-2.000,6, -1, 0, 0, -1, -1, 0, 0,1.9831740818655765,0.8739382039902232
1503956945701,+0.776,+0.304,+0.312,+0.456,+0.817,-0.188,-0.538,+7.750,+22.438,-3.125,-7, -5, -3, -3, -1, 0, -1, -1,1.9799923211447894,0.8837641878929949
1503956945716,+0.773,+0.307,+0.316,+0.456,+0.833,-0.218,-0.555,+13.438,+27.125,-6.250,-3, -4, -2, 1, 0, -2, -4, -13,1.9740614970996289,0.8948265531552668
1503956945739,+0.770,+0.310,+0.320,+0.457,+0.860,-0.260,-0.593,+17.625,+25.562,-14.625,-4, -4, -4, -1, -1, 1, 2, 4,1.967561310255597,0.9063594246504498
1503956945761,+0.766,+0.311,+0.324,+0.459,+0.832,-0.315,-0.612,+20.625,+20.875,-18.375,-3, -1, 0, 2, 1, 1, 0, 2,1.9561220784507256,0.91403759018619
1503956945776,+0.763,+0.313,+0.329,+0.460,+0.866,-0.349,-0.545,+22.125,+23.938,-16.562,5, 8, 4, 0, 1, 1, -4, 0,1.948556006460623,0.92537753464645
1503956945799,+0.758,+0.316,+0.336,+0.461,+0.911,-0.362,-0.484,+21.875,+31.375,-14.812,-3, -1, -1, 0, 0, 0, 0, -1,1.9364087384878983,0.9413466986046624
1503956945823,+0.754,+0.318,+0.343,+0.461,+0.957,-0.414,-0.514,+24.688,+30.812,-15.312,-10, -3, -2, 0, -2, 0, -2, -5,1.9264715761959457,0.955529860120636
1503956945839,+0.750,+0.319,+0.349,+0.463,+0.956,-0.439,-0.611,+30.312,+23.000,-16.875,-2, -6, -3, -3, -2, -1, -1, 4,1.914752264025336,0.9670492087491126
1503956945859,+0.746,+0.317,+0.354,+0.465,+0.894,-0.422,-0.570,+32.812,+9.500,-16.062,-2, 0, -1, 0, 0, 0, 0, -3,1.9003071209970916,0.9711476231053844
1503956945881,+0.744,+0.315,+0.361,+0.466,+0.821,-0.402,-0.430,+31.812,+9.562,-4.750,4, -14, -10, -4, -4, -1, 4, 11,1.8911544603597437,0.9792538968049749
1503956945898,+0.740,+0.317,+0.371,+0.463,+0.781,-0.435,-0.387,+31.062,+47.938,+5.438,34, 6, 3, 0, 0, 0, 1, 0,1.88210749513737,0.9983398746311504
1503956945919,+0.733,+0.324,+0.384,+0.458,+0.840,-0.450,-0.451,+33.062,+89.062,+2.688,-8, 0, 2, 0, 2, 1, -1, -3,1.8706576969534054,1.031178385620337
1503956945941,+0.727,+0.331,+0.395,+0.454,+0.985,-0.398,-0.542,+34.062,+80.375,-1.188,-11, -1, -1, 0, -2, -2, -4, -1,1.8619526613331758,1.06170035869705
1503956945962,+0.722,+0.333,+0.402,+0.454,+1.050,-0.351,-0.529,+30.562,+41.000,-4.438,-3, 2, -2, -3, 0, 0, -1, -3,1.8496403339643381,1.0772705731983236
1503956945979,+0.717,+0.335,+0.407,+0.456,+0.873,-0.314,-0.408,+32.000,+27.125,-16.250,-6, 0, 0, -1, -2, -1, 1, -3,1.8369685616411857,1.0899528717026963
1503956946001,+0.711,+0.336,+0.413,+0.460,+0.731,-0.207,-0.370,+45.375,+27.750,-24.125,-6, -1, -1, 1, -2, 2, 3, -1,1.819731110611806,1.1032447529381981
1503956946016,+0.703,+0.340,+0.418,+0.465,+0.686,-0.087,-0.479,+48.062,+45.438,-36.188,6, 1, 1, 1, -3, -4, 2, 5,1.800780663392301,1.1201889203522375
1503956946039,+0.695,+0.345,+0.422,+0.469,+0.703,-0.038,-0.542,+42.000,+53.625,-32.875,-2, -2, 0, 0, -1, -4, -8, -7,1.7839257672132136,1.1367345187356461
