Timestamp,Orientation X,Orientation Y,Orientation Z,Orientation W,Accelerometer X,Accelerometer Y,Accelerometer Z,Gyroscope X,Gyroscope Y,Gyroscope Z,EMG1,EMG2,EMG3,EMG4,EMG5,EMG6,EMG7,EMG8
1503701494445,+0.594,+0.496,-0.352,-0.526,+0.933,-0.119,-0.199,+1.875,-18.625,-13.438,-3, -3, -4, -1, 2, 0, -1, 5
1503701494468,+0.597,+0.494,-0.351,-0.526,+0.951,-0.110,-0.184,+1.312,-24.562,-11.062,9, 9, 0, 2, 9, 2, 0, 6
1503701494489,+0.601,+0.490,-0.351,-0.525,+0.990,-0.044,-0.235,-2.375,-22.250,-24.625,2, 5, 11, 3, 31, 7, -2, 4
1503701494504,+0.606,+0.485,-0.351,-0.524,+0.898,-0.028,-0.251,-1.375,-25.750,-22.188,-8, -23, -3, 1, 8, 10, -3, -8
1503701494527,+0.610,+0.481,-0.351,-0.523,+0.968,-0.037,-0.277,+2.125,-24.250,-25.062,-10, -2, -1, -2, -7, -10, -1, -6
1503701494549,+0.614,+0.477,-0.351,-0.522,+1.007,-0.022,-0.273,+0.188,-20.562,-17.125,1, 1, 4, 2, -4, -4, 2, 0
1503701494566,+0.616,+0.476,-0.350,-0.521,+1.003,-0.056,-0.188,+0.125,-15.938,-11.250,3, -9, 0, 13, 30, 6, 0, 1
1503701494587,+0.617,+0.473,-0.350,-0.522,+0.996,-0.077,-0.215,-5.938,-20.375,-5.625,11, -5, -7, -10, -30, -11, -5, 8
1503701494616,+0.619,+0.470,-0.349,-0.523,+1.026,-0.044,-0.257,-9.438,-25.000,-3.375,-4, -3, -2, -4, -8, -5, -5, -11
1503701494627,+0.622,+0.465,-0.349,-0.524,+0.963,+0.031,-0.299,-8.250,-26.000,-8.750,-6, 10, 3, -1, -11, -1, -4, -1
1503701494647,+0.626,+0.461,-0.347,-0.524,+0.893,+0.001,-0.349,+1.688,-26.188,-11.688,-4, -4, -3, -5, 0, 4, 0, -6
1503701494669,+0.629,+0.459,-0.345,-0.524,+0.912,-0.042,-0.307,+5.250,-18.812,-6.750,6, -3, -2, -7, -12, -3, 0, -5
1503701494684,+0.630,+0.458,-0.343,-0.525,+0.979,-0.071,-0.307,+4.562,-13.688,-1.562,3, 4, -5, -1, -5, -1, -2, -3
1503701494707,+0.631,+0.458,-0.342,-0.525,+0.975,-0.053,-0.270,+1.125,-12.438,+2.250,-15, 2, 2, 4, -9, -4, 1, 15
1503701494729,+0.631,+0.457,-0.341,-0.526,+0.986,-0.040,-0.278,-2.188,-13.688,+2.688,15, -16, -1, 1, 1, 0, 3, 24
1503701494745,+0.633,+0.454,-0.340,-0.527,+0.960,-0.014,-0.333,-3.250,-16.250,-1.500,0, 6, 3, 3, 0, -4, -5, -17
1503701494774,+0.635,+0.452,-0.338,-0.528,+0.897,-0.004,-0.371,+2.562,-12.625,-0.312,-10, -1, 3, 6, 27, 1, -8, -31
1503701494789,+0.635,+0.452,-0.337,-0.528,+0.907,-0.034,-0.347,+4.875,-3.250,+1.625,10, -11, -6, -8, -8, -4, -1, 3
1503701494805,+0.635,+0.453,-0.336,-0.528,+0.945,-0.064,-0.324,+2.750,-1.000,+6.812,-2, 3, 7, -1, -7, -2, 0, 5
1503701494832,+0.635,+0.453,-0.335,-0.528,+0.954,-0.041,-0.328,+2.875,-0.625,+3.812,-2, 3, 5, 1, 3, -2, -2, -11
1503701494849,+0.636,+0.454,-0.334,-0.528,+0.932,-0.011,-0.345,+6.375,-2.000,+1.938,21, 12, -8, -6, -4, 0, -3, -5
1503701494865,+0.636,+0.454,-0.333,-0.527,+0.932,-0.042,-0.336,+7.875,-1.188,+2.062,-17, 8, 7, -1, 0, -2, -6, -22
1503701494887,+0.637,+0.455,-0.332,-0.527,+0.954,-0.050,-0.333,+7.375,+2.812,+1.500,-9, -10, -5, -2, 5, -2, -4, -10
1503701494909,+0.637,+0.457,-0.331,-0.526,+0.945,-0.044,-0.340,+8.438,+4.562,+3.312,-1, -5, 2, 7, 4, 5, -2, 0
1503701494925,+0.636,+0.458,-0.330,-0.525,+0.947,-0.050,-0.336,+10.000,+8.125,+4.812,-7, 0, 16, 0, 0, 2, 2, 9
1503701494947,+0.636,+0.461,-0.330,-0.524,+0.933,-0.055,-0.308,+9.438,+9.938,+3.062,8, 0, -6, -4, 6, 1, 2, 8
1503701494969,+0.636,+0.463,-0.329,-0.523,+0.947,-0.052,-0.312,+9.688,+8.312,+3.312,-6, 0, -1, 0, -4, -1, -1, 2
1503701494985,+0.636,+0.464,-0.328,-0.522,+0.952,-0.042,-0.313,+11.125,+5.812,+2.250,0, -9, -5, 3, -5, -6, -6, -7
1503701495007,+0.636,+0.466,-0.327,-0.521,+0.961,-0.052,-0.309,+12.062,+5.750,+1.812,6, -4, -8, -5, -2, -1, -2, 4
1503701495030,+0.637,+0.467,-0.326,-0.519,+0.973,-0.053,-0.292,+11.312,-0.625,-0.750,-4, -5, -9, -2, -2, -2, 1, -3
1503701495045,+0.638,+0.468,-0.324,-0.519,+0.954,-0.055,-0.299,+11.875,-6.750,-0.688,-2, -1, -4, -4, -13, -6, 0, -5
1503701495067,+0.639,+0.468,-0.322,-0.518,+0.932,-0.059,-0.313,+14.812,-5.562,+1.500,-4, -1, -2, 0, 11, 0, -1, 2
1503701495089,+0.641,+0.469,-0.320,-0.517,+0.958,-0.070,-0.309,+15.000,-4.562,+0.500,7, -6, -4, -2, -2, 1, 0, 2
1503701495105,+0.643,+0.469,-0.317,-0.516,+0.961,-0.048,-0.331,+17.250,-13.438,-2.438,-11, -10, 0, -7, -11, 1, -2, -15
1503701495127,+0.646,+0.469,-0.314,-0.514,+0.962,-0.064,-0.323,+20.000,-13.938,-3.125,5, 4, 2, -3, -5, -5, -4, -13
1503701497212,+0.674,+0.488,-0.312,-0.458,+0.949,-0.013,-0.285,+1.250,-0.375,-0.312,11, 7, -1, 7, 7, 13, 5, 0
1503701497226,+0.674,+0.489,-0.312,-0.458,+0.943,-0.018,-0.274,+0.375,+3.438,+3.625,-11, 1, -1, 0, -3, -5, -3, 3
1503701497248,+0.673,+0.490,-0.313,-0.458,+1.018,-0.010,-0.269,-1.375,+5.562,+5.312,8, 0, -4, -2, -3, -1, -2, 6
1503701497271,+0.672,+0.490,-0.312,-0.459,+0.972,-0.003,-0.285,-0.750,+2.312,+6.062,4, 7, -10, -4, 2, -3, -3, -2
1503701497286,+0.670,+0.491,-0.312,-0.460,+0.941,-0.022,-0.277,-3.938,+5.312,+13.062,-17, -20, -4, -1, -11, -5, -1, 5
1503701497309,+0.669,+0.492,-0.312,-0.461,+1.000,-0.019,-0.283,-4.250,+6.688,+13.562,-3, -7, 1, 4, -14, 3, -3, 9
1503701497331,+0.667,+0.493,-0.311,-0.463,+1.004,-0.018,-0.278,-1.500,+1.125,+14.875,12, 9, 6, -2, 23, 7, 3, 3
1503701497346,+0.667,+0.494,-0.310,-0.464,+0.938,-0.025,-0.290,+4.500,-1.125,+9.688,-13, -41, -7, -7, -14, -8, -3, -3
1503701497368,+0.668,+0.494,-0.308,-0.464,+0.859,-0.044,-0.310,+4.875,+0.188,+5.812,18, -6, 0, 4, -3, 3, 0, 0
1503701497391,+0.667,+0.495,-0.307,-0.464,+0.871,-0.078,-0.283,+2.938,+2.312,+2.375,-40, -9, -4, 5, 26, 0, 4, -6
1503701497410,+0.667,+0.495,-0.307,-0.464,+0.987,-0.067,-0.272,+0.125,+2.812,+2.375,11, 6, 3, 4, 0, -4, -5, -10
1503701497428,+0.667,+0.496,-0.307,-0.464,+1.024,-0.046,-0.250,+0.062,-0.125,-1.750,5, -5, -6, -5, -12, -6, -2, -7
1503701497451,+0.667,+0.496,-0.308,-0.463,+1.009,-0.029,-0.245,-1.062,-1.438,-1.000,11, 3, 1, -3, -4, -8, -4, 8
1503701497466,+0.668,+0.495,-0.307,-0.464,+0.978,-0.041,-0.270,-0.688,-6.875,-0.062,-26, -2, -1, -8, -5, 5, 6, -1
1503701497488,+0.669,+0.494,-0.306,-0.464,+0.967,-0.044,-0.285,+0.125,-15.938,+0.375,33, 14, 5, 0, -2, 6, -12, -6
1503701497511,+0.671,+0.491,-0.304,-0.464,+0.885,-0.005,-0.328,+3.750,-15.125,-5.500,19, 7, -5, -24, -7, -3, 13, 4
1503701497526,+0.674,+0.489,-0.302,-0.464,+0.868,-0.040,-0.337,+6.688,-16.500,-6.750,-20, -12, 6, 31, 45, 17, -3, 13
1503701497548,+0.676,+0.488,-0.301,-0.463,+0.959,-0.062,-0.293,+7.250,-10.250,-7.062,-31, -13, -2, -2, 7, -2, -18, -6
1503701497571,+0.677,+0.487,-0.300,-0.462,+0.992,-0.072,-0.268,+1.062,-12.062,-8.500,-17, -11, -2, -5, -23, -8, 15, -1
1503701497586,+0.678,+0.486,-0.301,-0.462,+0.981,-0.035,-0.259,-4.062,-6.000,-7.625,-10, 0, 2, 8, 13, 0, 3, 11
1503701497609,+0.679,+0.485,-0.302,-0.461,+0.986,+0.024,-0.316,-3.312,-4.188,-3.188,7, 3, -2, 8, 13, -3, 5, 1
1503701497631,+0.680,+0.484,-0.302,-0.461,+0.970,-0.006,-0.299,+1.250,-7.500,-1.562,5, 1, -8, -9, -21, -11, -8, -4
1503701497646,+0.680,+0.484,-0.300,-0.462,+0.942,-0.074,-0.279,-0.562,-8.250,+2.375,3, 9, -2, -6, -20, -7, -5, -1
1503701497668,+0.680,+0.483,-0.300,-0.463,+0.935,-0.054,-0.296,-6.125,-9.562,+0.500,-9, -7, -1, 3, 27, 15, 9, 4
1503701497691,+0.681,+0.481,-0.300,-0.464,+0.951,-0.013,-0.330,-7.125,-10.938,-0.312,20, 12, -2, -6, -9, -4, -4, -6
1503701497706,+0.683,+0.479,-0.300,-0.464,+0.937,-0.010,-0.332,-2.062,-13.438,-4.438,10, -12, 2, 6, 9, 28, 1, -13
1503701497728,+0.684,+0.477,-0.299,-0.464,+0.923,-0.041,-0.305,-1.875,-11.125,-2.625,-34, -6, 17, 8, 10, -4, 3, 27
1503701497751,+0.684,+0.476,-0.298,-0.465,+0.949,-0.036,-0.312,-2.750,-10.062,-1.500,-19, -16, 4, 8, 12, 1, 0, 7
1503701497766,+0.686,+0.474,-0.298,-0.465,+0.964,-0.009,-0.333,-3.438,-13.438,-0.812,16, 18, -9, -5, -4, -1, -3, -11
1503701497788,+0.687,+0.472,-0.297,-0.466,+0.978,-0.019,-0.314,-0.875,-17.688,-0.438,3, -13, -3, -3, -2, 0, -4, -4
1503701497811,+0.688,+0.470,-0.295,-0.467,+0.938,-0.031,-0.338,-1.375,-18.625,-0.188,-7, -13, 2, -2, 1, 12, 5, -1
1503701497826,+0.689,+0.468,-0.294,-0.468,+0.930,-0.021,-0.364,-2.500,-13.875,+1.938,-10, -14, -11, -8, -9, -2, -7, -20
1503701497848,+0.690,+0.467,-0.294,-0.469,+0.944,-0.008,-0.354,-2.875,-7.875,+6.062,18, 15, -5, -6, -8, -4, -3, 0
1503701497871,+0.690,+0.467,-0.292,-0.470,+0.959,-0.016,-0.345,-1.375,-8.312,+7.625,-11, -5, 1, -2, -1, -7, -2, 2
1503701497886,+0.690,+0.466,-0.291,-0.471,+0.967,-0.004,-0.355,-0.688,-6.938,+9.562,8, 6, -2, 1, -5, -8, -2, 7
1503701499807,+0.664,+0.511,-0.318,-0.443,+1.004,-0.007,-0.230,-6.625,-14.875,-0.688,-18, -31, -11, -4, -2, -1, 0, -2
1503701499830,+0.665,+0.509,-0.318,-0.444,+1.027,-0.019,-0.228,-8.375,-13.625,+1.000,34, 22, -8, -6, -3, -5, -3, 1
1503701499853,+0.665,+0.507,-0.318,-0.446,+0.971,-0.020,-0.217,-9.875,-14.750,+1.625,0, 14, 4, 5, 4, 3, 0, 0
1503701499867,+0.667,+0.504,-0.318,-0.447,+0.942,-0.029,-0.253,-7.125,-17.000,-2.562,-12, -10, -3, -2, -2, -1, 1, -2
1503701499896,+0.669,+0.501,-0.317,-0.448,+0.916,-0.036,-0.254,-8.562,-19.875,-6.062,-6, 0, 9, 0, -3, 0, -2, -20
1503701499914,+0.670,+0.498,-0.317,-0.450,+0.926,-0.029,-0.274,-9.938,-14.688,-4.375,-10, -4, -9, -3, -1, 0, 1, 12
1503701499941,+0.671,+0.496,-0.318,-0.451,+0.979,-0.030,-0.237,-12.250,-15.938,-6.375,-7, -4, -2, 0, -1, 1, 0, 5
1503701499949,+0.672,+0.493,-0.319,-0.452,+1.043,-0.004,-0.240,-13.812,-15.562,-3.000,-4, -6, 0, 1, 2, -1, 0, 1
1503701499972,+0.673,+0.490,-0.319,-0.453,+1.005,+0.020,-0.268,-11.375,-21.875,-4.062,11, 2, -2, -3, -2, 5, 3, -2
1503701499995,+0.675,+0.486,-0.318,-0.455,+0.924,+0.009,-0.279,-8.812,-23.562,-3.812,22, 3, 0, -3, -1, -7, -22, 9
1503701500009,+0.676,+0.483,-0.318,-0.457,+0.943,-0.020,-0.282,-11.125,-18.125,+2.625,-23, -10, -5, 0, -1, 1, 6, -2
1503701500032,+0.676,+0.481,-0.318,-0.459,+0.970,-0.005,-0.265,-15.125,-13.188,+5.500,-4, -9, -4, -2, 0, 1, 2, -1
1503701500054,+0.676,+0.479,-0.318,-0.461,+0.976,+0.004,-0.293,-14.688,-13.000,+6.250,2, 6, 3, -1, 13, 1, 2, 1
1503701500069,+0.676,+0.477,-0.318,-0.463,+0.953,-0.002,-0.294,-12.000,-11.188,+3.750,-5, 1, -4, -4, -9, -2, 7, -8
1503701500098,+0.676,+0.475,-0.318,-0.465,+0.954,-0.005,-0.327,-8.312,-14.188,+2.125,22, 8, -1, 0, 7, -20, -3, -2
1503701500114,+0.677,+0.472,-0.317,-0.467,+0.924,-0.005,-0.325,-9.062,-19.125,+1.375,-5, -2, 0, -1, -16, 2, 0, -4
1503701500129,+0.678,+0.470,-0.317,-0.469,+0.930,-0.017,-0.304,-9.938,-14.250,+2.500,12, -8, -3, -3, 1, -2, -3, -2
1503701500152,+0.678,+0.468,-0.317,-0.470,+0.948,+0.000,-0.328,-10.500,-10.250,+4.375,-13, -3, -2, 1, -5, 0, -4, -12
1503701500174,+0.678,+0.467,-0.317,-0.471,+0.938,+0.003,-0.323,-8.688,-2.125,+0.312,-1, 6, 1, 0, -3, 3, -1, 2
1503701500189,+0.678,+0.466,-0.318,-0.472,+0.996,+0.002,-0.317,-6.375,-3.188,+2.125,-6, 11, 13, 2, -3, 1, 2, -2
1503701500212,+0.679,+0.464,-0.317,-0.473,+0.953,+0.010,-0.327,-4.875,-16.062,-0.250,-14, -14, -7, -1, -1, 4, 5, 31
1503701500234,+0.680,+0.462,-0.316,-0.473,+0.912,-0.031,-0.315,-4.812,-14.000,-5.562,-10, -43, -13, -4, 2, -2, -2, -7
1503701500249,+0.682,+0.459,-0.316,-0.474,+0.921,+0.001,-0.351,-5.250,-17.625,-4.375,-7, 11, 11, 6, 6, 1, -4, -7
1503701500272,+0.683,+0.457,-0.316,-0.474,+0.938,+0.022,-0.350,-4.125,-11.875,-5.125,34, 23, -7, -6, -4, 0, -3, -14
1503701500294,+0.685,+0.455,-0.315,-0.475,+0.960,+0.011,-0.334,-2.312,-18.500,-2.438,-11, -8, -1, -2, -2, -2, 0, 0
1503701500309,+0.686,+0.453,-0.314,-0.476,+0.957,+0.006,-0.319,-2.688,-18.875,-0.812,-3, 5, 0, 2, -3, 0, -1, -3
1503701500332,+0.686,+0.451,-0.313,-0.477,+0.971,+0.005,-0.327,-4.312,-13.062,+2.562,2, 11, 2, 1, 0, -5, -1, 7
1503701500360,+0.687,+0.450,-0.313,-0.478,+0.934,+0.046,-0.357,-4.938,-9.250,+2.188,14, -2, -8, -5, -1, -3, -2, -4
1503701500369,+0.686,+0.449,-0.312,-0.479,+0.978,+0.007,-0.353,-2.188,-9.375,+12.125,13, -11, 14, 3, 2, 3, 3, 12
1503701500394,+0.686,+0.450,-0.311,-0.480,+0.947,+0.016,-0.355,-1.938,+0.688,+6.875,-5, -2, -3, 1, -4, -1, 0, 0
1503701500414,+0.684,+0.451,-0.311,-0.481,+0.911,+0.016,-0.372,-2.500,+5.438,+11.750,-27, -14, -5, -1, 13, 5, 3, 2
1503701500429,+0.682,+0.453,-0.310,-0.483,+0.938,-0.018,-0.351,-1.500,+8.812,+18.188,5, 6, 0, -3, -8, -4, -2, -3
1503701500452,+0.681,+0.454,-0.310,-0.484,+0.885,+0.019,-0.347,-1.875,+7.125,+11.750,-21, 5, -4, 0, -2, -2, 0, -1
1503701502550,+0.568,+0.438,-0.372,-0.589,+0.928,-0.116,-0.286,+3.375,+5.750,-9.688,19, 7, 2, 0, -6, -5, 0, 5
1503701502573,+0.568,+0.438,-0.373,-0.588,+0.976,-0.105,-0.272,+2.500,+2.250,-10.875,-14, -22, -2, -2, -5, 7, -1, 10
1503701502589,+0.570,+0.438,-0.374,-0.586,+1.034,-0.098,-0.266,-0.250,-2.750,-12.875,9, -6, -12, -2, -4, -4, -10, -17
1503701502611,+0.572,+0.436,-0.374,-0.586,+0.992,-0.045,-0.313,+1.562,-9.938,-12.750,-7, -18, -14, -12, -13, -2, 20, 17
1503701502637,+0.575,+0.435,-0.374,-0.584,+0.928,-0.055,-0.265,+6.750,-8.438,-16.500,-8, 1, -3, 2, 2, 0, -3, 10
1503701502649,+0.576,+0.434,-0.373,-0.583,+0.947,-0.113,-0.248,+0.000,-9.062,-7.750,-7, 0, 1, -10, -8, -1, -18, -1
1503701502673,+0.575,+0.434,-0.374,-0.584,+0.951,-0.103,-0.284,-7.875,+3.125,+1.188,-3, 0, 4, -1, -11, -1, -8, -1
1503701502693,+0.574,+0.435,-0.375,-0.583,+0.968,-0.030,-0.327,-5.250,+8.438,+1.125,3, -5, -8, -4, 17, 3, -2, -18
1503701502710,+0.574,+0.435,-0.376,-0.583,+0.993,-0.025,-0.272,+0.812,+1.438,+0.500,-16, 0, 13, 26, 43, 1, 0, -2
1503701502731,+0.575,+0.435,-0.375,-0.583,+0.973,-0.095,-0.246,+1.438,-5.812,+0.562,-4, 10, 7, 2, 3, 2, 4, 9
1503701502753,+0.575,+0.434,-0.374,-0.584,+0.928,-0.103,-0.293,-2.562,-9.500,-1.188,20, -7, -9, -7, -11, 3, 4, 12
1503701502771,+0.575,+0.433,-0.374,-0.584,+0.919,-0.092,-0.293,-6.250,-7.125,-1.312,1, 12, -2, -2, -9, -10, 3, 0
1503701502791,+0.575,+0.432,-0.374,-0.585,+0.967,-0.095,-0.271,-9.562,-4.438,+0.688,-3, -3, -5, -5, 7, 11, 6, 8
1503701502814,+0.575,+0.431,-0.375,-0.586,+0.969,-0.078,-0.295,-11.500,-5.062,-0.562,-6, 3, 4, 24, 22, 10, -1, -3
1503701502829,+0.576,+0.428,-0.375,-0.587,+0.944,-0.042,-0.312,-8.875,-12.000,-5.125,-10, -2, -3, -10, -17, -3, 3, 1
1503701502851,+0.576,+0.426,-0.375,-0.588,+0.899,-0.068,-0.316,-8.000,-10.000,-3.250,1, 11, -2, -1, 14, 22, 11, 3
1503701502873,+0.577,+0.424,-0.375,-0.589,+0.939,-0.085,-0.314,-9.500,-8.812,-4.125,-19, 3, 4, -5, -11, 5, 13, 14
1503701502890,+0.577,+0.422,-0.375,-0.589,+0.958,-0.051,-0.341,-9.188,-5.750,-5.250,-17, -2, 5, 3, 4, -8, -3, -7
1503701502915,+0.579,+0.420,-0.376,-0.589,+0.933,-0.032,-0.331,-5.188,-9.312,-9.375,-11, -4, 3, -3, 8, -3, 0, 2
1503701502936,+0.580,+0.419,-0.376,-0.589,+0.924,-0.061,-0.329,-3.500,-6.562,-8.188,17, -16, -4, -3, 5, -2, -7, -6
1503701502949,+0.581,+0.418,-0.376,-0.589,+0.949,-0.049,-0.318,-3.438,-2.188,-7.000,3, 4, 0, 0, 2, -7, -23, -2
1503701502973,+0.581,+0.417,-0.377,-0.588,+0.964,-0.044,-0.308,-3.875,-0.188,-4.938,12, 5, 4, 4, -11, -4, 0, 8
1503701502993,+0.582,+0.417,-0.377,-0.588,+0.957,-0.022,-0.328,-2.375,-2.562,-4.750,-27, 18, -5, 2, 3, -5, -10, -9
1503701503010,+0.583,+0.416,-0.377,-0.587,+0.947,-0.036,-0.319,-0.312,-4.062,-3.812,23, 5, -2, -1, -2, -5, 2, -5
1503701503031,+0.583,+0.415,-0.377,-0.587,+0.931,-0.052,-0.321,-0.562,-4.375,-3.562,3, -24, -17, -9, -4, 0, -10, -20
1503701503053,+0.584,+0.415,-0.377,-0.587,+0.923,-0.042,-0.338,+0.375,-2.500,-5.000,-3, -1, 5, -5, 1, -2, 1, 43
1503701503070,+0.585,+0.414,-0.377,-0.587,+0.941,-0.057,-0.314,-0.250,-4.375,-6.125,17, -13, -2, 2, 11, 14, 11, -11
1503701503091,+0.586,+0.413,-0.377,-0.586,+0.978,-0.023,-0.305,-5.250,-5.062,-5.500,3, 5, -2, -7, -9, 6, -5, -2
1503701503113,+0.586,+0.412,-0.378,-0.586,+0.982,-0.031,-0.321,-3.000,-5.750,-4.438,-20, -1, -5, -1, -4, -5, 2, -15
1503701503129,+0.587,+0.411,-0.377,-0.586,+0.974,-0.017,-0.323,-1.062,-7.938,-4.062,-5, 11, -1, -2, -3, 7, 13, 15
1503701503151,+0.589,+0.410,-0.377,-0.586,+0.951,-0.006,-0.353,+2.438,-7.625,-2.562,18, 35, 25, 7, -6, -6, -1, -7
1503701503174,+0.589,+0.411,-0.376,-0.585,+0.955,+0.000,-0.350,+6.625,-1.250,+0.562,-6, -7, -8, -1, 0, -5, -2, 9
1503701503190,+0.590,+0.412,-0.375,-0.585,+0.959,+0.010,-0.349,+11.375,+1.062,+4.500,-18, 10, 6, 0, -2, -1, -6, -12
1503701503212,+0.591,+0.414,-0.373,-0.584,+1.018,+0.022,-0.359,+16.875,-2.562,+4.000,-4, -12, -3, -1, 0, 0, 0, -2
1503701503233,+0.594,+0.414,-0.369,-0.583,+0.981,+0.043,-0.380,+24.812,-14.125,+3.625,-7, 1, 0, -3, -10, 9, 11, 5
1503701505777,+0.621,+0.483,-0.318,-0.529,+0.910,-0.146,-0.300,+2.938,+22.500,+16.250,3, -6, -5, 0, -4, -4, 2, -34
1503701505799,+0.619,+0.485,-0.318,-0.529,+0.961,-0.113,-0.304,+3.062,+17.750,+10.562,-12, -1, 1, 0, 1, -2, 5, 21
1503701505817,+0.618,+0.487,-0.318,-0.529,+0.952,-0.119,-0.283,+5.562,+8.312,+4.500,-3, -3, 5, 4, -2, 0, -2, 12
1503701505843,+0.618,+0.488,-0.317,-0.528,+0.961,-0.126,-0.281,+7.562,+1.625,+1.562,11, 7, -2, -4, -5, 5, 1, -12
1503701505859,+0.619,+0.489,-0.315,-0.527,+0.939,-0.127,-0.295,+11.688,+0.125,-1.688,-14, -1, -1, 0, 2, 2, -5, -3
1503701505874,+0.620,+0.490,-0.314,-0.526,+0.924,-0.137,-0.293,+12.750,+2.000,-2.562,-14, -16, -9, -6, -1, 0, -2, 10
1503701505895,+0.621,+0.492,-0.313,-0.524,+0.948,-0.128,-0.271,+12.938,+1.812,-4.250,10, 0, 2, 0, -6, -12, -6, -13
1503701505920,+0.622,+0.493,-0.312,-0.522,+0.951,-0.127,-0.286,+13.500,+1.562,-7.750,4, 17, 1, 1, 11, 3, -1, -14
1503701505933,+0.624,+0.493,-0.311,-0.520,+0.947,-0.128,-0.292,+14.062,-0.438,-8.312,-3, -3, 0, 3, 0, -3, 1, 6
1503701505955,+0.626,+0.494,-0.311,-0.518,+0.917,-0.102,-0.288,+12.312,+2.188,-10.188,-7, 4, 2, 6, 28, 10, 3, 7
1503701505978,+0.627,+0.496,-0.310,-0.515,+0.965,-0.117,-0.232,+12.125,+3.812,-7.188,12, 13, 20, 1, -5, -3, -1, 1
1503701505993,+0.627,+0.497,-0.311,-0.513,+0.984,-0.136,-0.242,+9.938,+9.062,-8.938,2, -11, -16, -5, -7, -10, 0, 1
1503701506018,+0.628,+0.498,-0.312,-0.511,+0.996,-0.097,-0.250,+6.812,+6.188,-8.375,9, 4, -5, 3, 7, 2, 4, 11
1503701506038,+0.630,+0.498,-0.311,-0.509,+1.001,-0.095,-0.273,+8.688,-5.875,-9.438,-4, -3, -3, -4, -6, -1, 2, 9
1503701506053,+0.632,+0.497,-0.310,-0.508,+0.964,-0.117,-0.248,+9.562,-11.812,-7.250,1, -2, -2, -2, -10, -5, -2, 2
1503701506075,+0.632,+0.498,-0.309,-0.506,+0.960,-0.114,-0.228,+6.812,-0.562,-3.750,-5, 4, 2, -3, 2, 3, -2, 7
1503701506098,+0.632,+0.498,-0.308,-0.507,+0.984,-0.126,-0.226,+0.750,-6.688,+0.500,-1, 2, 5, 4, 3, -1, 3, 2
1503701506113,+0.633,+0.498,-0.308,-0.506,+0.978,-0.118,-0.231,-0.250,-7.688,-5.375,-1, 22, 1, -1, 4, -1, 1, 1
1503701506135,+0.635,+0.496,-0.308,-0.507,+0.948,-0.136,-0.252,-4.438,-13.625,-6.000,-2, 1, 1, 0, -8, -7, -8, 3
1503701506158,+0.635,+0.494,-0.308,-0.507,+0.945,-0.132,-0.267,-8.750,-10.938,-5.438,4, -4, -11, -7, -9, -3, -1, 0
1503701506173,+0.636,+0.492,-0.309,-0.508,+0.953,-0.100,-0.278,-11.125,-6.375,-4.625,6, -14, -8, -7, 0, -1, -1, 0
1503701506195,+0.637,+0.490,-0.310,-0.508,+0.977,-0.078,-0.278,-10.438,-10.812,-5.500,-4, 2, 1, 7, 11, 10, 1, -4
1503701506219,+0.638,+0.487,-0.310,-0.509,+0.977,-0.083,-0.279,-8.750,-16.000,-6.500,8, -4, 3, 1, -5, 11, -3, -7
1503701506233,+0.639,+0.485,-0.310,-0.510,+0.959,-0.082,-0.281,-8.688,-12.562,-4.000,-15, -6, 0, 0, -2, -5, 3, 11
1503701506263,+0.640,+0.483,-0.310,-0.511,+0.950,-0.082,-0.298,-10.312,-10.000,+1.125,-3, 3, 2, -6, 0, -5, 0, -1
1503701506279,+0.640,+0.482,-0.311,-0.512,+0.958,-0.072,-0.308,-10.312,-6.938,+2.875,-2, -20, -6, -3, 25, 9, 2, -2
1503701506294,+0.640,+0.480,-0.311,-0.513,+0.966,-0.073,-0.309,-7.438,-9.438,+1.938,-6, 5, 5, 6, 4, -2, -1, -9
1503701506315,+0.641,+0.478,-0.310,-0.514,+0.935,-0.074,-0.317,-4.062,-11.562,+0.062,-7, -3, -2, 4, 2, -2, 0, 5
1503701506338,+0.642,+0.477,-0.309,-0.515,+0.934,-0.088,-0.325,-1.938,-9.562,-0.438,-1, -4, 0, -2, -4, 0, 1, 5
1503701506353,+0.642,+0.477,-0.308,-0.515,+0.930,-0.101,-0.310,-1.312,-4.875,+2.312,-2, -7, -10, -4, 11, 5, 1, -2
1503701506375,+0.642,+0.476,-0.308,-0.516,+0.939,-0.090,-0.325,-0.688,-4.250,+0.312,-3, 1, -4, -3, 4, 1, -1, -4
1503701506398,+0.643,+0.475,-0.308,-0.515,+0.943,-0.083,-0.312,+1.062,-5.750,-3.062,-7, -9, 3, 5, 15, 1, 1, 5
1503701506413,+0.645,+0.475,-0.307,-0.515,+0.933,-0.076,-0.325,+2.812,-6.750,-3.500,25, 6, 0, 2, 17, 3, -1, 22
1503701506435,+0.646,+0.474,-0.306,-0.515,+0.917,-0.078,-0.331,+2.938,-5.375,-3.062,14, 6, -1, -6, -17, -8, -4, 9
1503701509016,+0.664,+0.501,-0.306,-0.463,+0.977,-0.050,-0.246,-7.125,+1.938,+1.688,-12, -6, -6, -5, -3, 1, 0, -5
1503701509038,+0.663,+0.500,-0.307,-0.464,+0.982,-0.044,-0.255,-8.625,+0.062,+1.938,10, 10, 5, -2, 2, 0, 0, 3
1503701509054,+0.664,+0.499,-0.307,-0.464,+1.001,-0.058,-0.236,-6.312,-8.312,-2.625,-3, -4, -6, -6, -2, -1, 0, 2
1503701509076,+0.665,+0.497,-0.307,-0.465,+0.958,-0.037,-0.287,-3.438,-14.062,-5.500,-4, 4, 10, -2, -1, -2, 0, -3
1503701509100,+0.667,+0.495,-0.307,-0.465,+0.890,-0.051,-0.279,-1.062,-10.688,-5.625,-3, 1, 5, 2, 2, 1, -2, -1
1503701509114,+0.667,+0.495,-0.307,-0.465,+0.932,-0.070,-0.294,-5.500,-3.812,-1.062,7, 1, -3, 0, -1, 0, -1, 0
1503701509136,+0.667,+0.494,-0.308,-0.465,+0.983,-0.040,-0.306,-8.062,+2.688,-3.750,-5, -11, -5, -3, -2, -2, -1, 2
1503701509158,+0.667,+0.493,-0.309,-0.464,+0.965,+0.009,-0.317,-2.938,+5.375,-6.812,1, 3, 1, 0, 11, 8, 1, 0
1503701509174,+0.668,+0.494,-0.310,-0.463,+0.902,-0.005,-0.292,+4.125,+7.688,-4.688,-10, -8, -10, -3, -4, -4, -3, -2
1503701509196,+0.667,+0.496,-0.310,-0.462,+0.927,-0.071,-0.248,+1.500,+13.688,-0.375,-13, 8, 1, 0, -2, -3, -3, 1
1503701509218,+0.665,+0.497,-0.312,-0.462,+1.015,-0.068,-0.211,-5.062,+9.188,-0.375,5, -3, -6, -3, -3, -3, 1, -11
1503701509235,+0.666,+0.497,-0.312,-0.460,+1.009,-0.004,-0.285,+0.562,-0.062,-8.000,14, 4, 1, 0, -3, 0, 0, 2
1503701509256,+0.669,+0.495,-0.312,-0.458,+0.894,-0.000,-0.286,+5.375,-9.625,-16.500,8, -1, 1, 0, -3, 0, -3, -8
1503701509278,+0.670,+0.495,-0.312,-0.457,+0.916,-0.032,-0.290,+6.125,-2.688,-8.438,23, -15, 2, 4, 1, 0, 0, 7
1503701509294,+0.669,+0.496,-0.313,-0.457,+1.045,-0.043,-0.218,-2.875,+8.125,+1.000,9, -6, -4, 0, 0, 1, -2, -8
1503701509316,+0.668,+0.497,-0.314,-0.457,+1.122,-0.010,-0.202,-5.625,+0.625,+2.438,-11, -8, -2, -2, -2, -3, -5, -8
1503701509339,+0.669,+0.495,-0.314,-0.457,+0.977,-0.013,-0.251,-0.750,-10.312,-1.625,-9, 7, -3, -4, -2, -3, -1, -4
1503701509360,+0.670,+0.494,-0.312,-0.457,+0.928,-0.014,-0.295,+0.250,-11.000,+2.688,-1, -4, -6, -2, 9, 4, -2, 4
1503701509377,+0.670,+0.494,-0.312,-0.459,+0.960,-0.030,-0.275,-3.000,-5.125,+8.250,15, -2, -5, -2, -9, -6, -1, 6
1503701509401,+0.669,+0.494,-0.311,-0.460,+0.994,-0.047,-0.267,-4.000,-5.062,+9.312,-3, 2, -2, -1, -5, 0, 1, -4
1503701509414,+0.669,+0.493,-0.310,-0.461,+0.985,-0.028,-0.275,-2.750,-8.500,+5.750,5, 8, 0, 0, -4, 0, 2, 13
1503701509439,+0.670,+0.492,-0.309,-0.463,+0.926,-0.043,-0.275,-1.375,-11.562,+4.875,-41, 3, 10, 1, 2, 0, -3, -20
1503701509458,+0.670,+0.491,-0.308,-0.464,+0.935,-0.044,-0.284,-4.000,-8.812,+6.125,4, 9, 1, 0, 1, -1, -2, 0
1503701509474,+0.670,+0.490,-0.307,-0.465,+0.958,-0.034,-0.301,-5.375,-6.062,+4.125,-8, 5, -3, -2, 2, 5, 3, -11
1503701509496,+0.671,+0.489,-0.307,-0.466,+0.936,-0.019,-0.300,-2.062,-6.875,+1.625,13, -5, -5, -1, -4, -4, 0, 10
1503701509518,+0.671,+0.488,-0.306,-0.466,+0.929,-0.039,-0.292,-0.625,-6.250,+1.750,3, 0, 2, 0, 0, 2, 1, 14
1503701509535,+0.672,+0.488,-0.305,-0.467,+0.950,-0.054,-0.293,-1.750,-4.812,+0.938,-2, -5, -2, -4, -5, -4, -4, 4
1503701509556,+0.672,+0.487,-0.305,-0.467,+0.966,-0.038,-0.288,-3.062,-4.938,-0.125,-9, -12, -4, -3, -4, -5, -4, 2
1503701509578,+0.672,+0.486,-0.305,-0.467,+0.976,-0.034,-0.303,-1.750,-6.438,-1.688,-3, -5, -1, -1, 0, -2, -1, -3
1503701509604,+0.673,+0.485,-0.305,-0.467,+0.961,-0.042,-0.300,-0.312,-6.438,-1.375,5, 8, -1, -1, -1, -1, -1, 3
1503701509616,+0.674,+0.485,-0.304,-0.467,+0.938,-0.027,-0.296,-0.750,-6.625,-0.750,3, 8, 1, 0, 3, 5, -1, 6
1503701509639,+0.674,+0.484,-0.304,-0.468,+0.959,-0.037,-0.285,-1.625,-5.938,+2.750,2, 1, 1, 14, 11, -4, 0, -2
1503701509660,+0.674,+0.484,-0.303,-0.469,+0.975,-0.033,-0.294,-2.250,-4.750,+3.562,18, 13, 7, 3, -1, 0, 3, 23
1503701509676,+0.675,+0.483,-0.303,-0.469,+0.971,-0.034,-0.296,-1.188,-9.188,+1.438,-9, -14, 3, 4, 0, 2, 4, -17
1503701509698,+0.675,+0.482,-0.302,-0.470,+0.963,-0.035,-0.300,-0.062,-11.188,+2.375,-11, 14, 3, -1, 3, -1, 1, 21
1503701509720,+0.676,+0.481,-0.300,-0.470,+0.958,-0.018,-0.325,+1.875,-11.062,+3.938,8, 1, -2, -5, 0, -1, 0, 4
1503701509738,+0.676,+0.481,-0.299,-0.471,+0.964,-0.028,-0.304,+1.562,-8.000,+7.500,15, 3, -2, -3, -14, -7, -18, -4
1503701511919,+0.658,+0.510,-0.313,-0.456,+0.911,-0.066,-0.299,+4.875,+20.500,-2.375,0, -15, -5, 0, -4, -3, -1, -2
1503701511940,+0.656,+0.513,-0.315,-0.454,+0.920,-0.022,-0.179,-1.688,+24.312,-3.250,-10, -15, -4, -2, -2, -1, -1, 1
1503701511963,+0.654,+0.517,-0.319,-0.451,+0.958,+0.009,-0.098,+0.625,+31.375,-5.562,-4, 8, 6, 0, -6, -3, -2, -3
1503701511978,+0.652,+0.520,-0.323,-0.448,+1.100,+0.017,-0.097,-0.750,+21.188,-9.438,-13, -20, -1, -2, 3, 1, -1, -6
1503701512008,+0.653,+0.520,-0.324,-0.446,+1.050,-0.028,-0.167,+1.125,+4.062,-13.875,-16, -17, 0, -1, -3, -1, 0, 3
1503701512023,+0.653,+0.520,-0.326,-0.444,+0.977,-0.030,-0.172,-1.000,+5.750,-8.938,-5, -11, -3, -2, 1, 0, 1, 1
1503701512038,+0.652,+0.521,-0.327,-0.444,+0.969,-0.026,-0.212,-4.125,+9.812,+1.188,6, 19, 6, -3, -2, -1, -3, -8
1503701512060,+0.649,+0.523,-0.328,-0.444,+1.148,-0.074,-0.202,-6.750,+19.250,+3.000,7, 12, 2, 5, 9, 2, -2, 5
1503701512083,+0.646,+0.525,-0.332,-0.443,+1.010,-0.021,-0.163,-13.875,+21.125,-1.000,-25, -28, -11, -5, -11, -6, -1, -1
1503701512098,+0.644,+0.525,-0.334,-0.445,+0.865,-0.059,-0.185,-15.938,+14.938,+3.812,1, 3, 0, -1, -1, -3, -2, -1
1503701512123,+0.642,+0.525,-0.337,-0.446,+0.895,-0.079,-0.142,-20.500,+10.562,-3.562,3, -3, -2, 2, -1, 0, -3, -3
1503701512143,+0.641,+0.525,-0.341,-0.445,+0.946,-0.015,-0.154,-19.000,+13.625,-9.875,8, 7, 5, -1, 9, 4, 3, 2
1503701512158,+0.641,+0.523,-0.346,-0.443,+0.934,+0.009,-0.103,-18.125,+3.250,-24.750,-1, -30, -2, -3, -6, -4, 1, 4
1503701512182,+0.641,+0.521,-0.349,-0.442,+1.023,-0.037,-0.117,-17.000,+2.062,-21.375,-3, 10, -2, -1, 3, 2, -2, -4
1503701512203,+0.642,+0.518,-0.353,-0.441,+1.120,+0.042,-0.115,-12.938,-10.312,-22.000,4, 13, 2, 1, -3, 2, -2, -12
1503701512218,+0.645,+0.514,-0.354,-0.440,+1.083,+0.057,-0.074,-7.375,-27.750,-19.312,-8, -8, -3, -4, -4, 0, 3, 1
1503701512241,+0.649,+0.509,-0.353,-0.442,+1.043,+0.034,-0.101,-5.125,-42.750,-6.625,-20, -12, -10, -5, 0, -4, 1, -1
1503701512263,+0.652,+0.504,-0.350,-0.445,+1.048,+0.027,-0.204,-8.875,-45.625,+1.438,16, 7, -2, 0, 6, 6, 2, 1
1503701512278,+0.656,+0.498,-0.347,-0.448,+0.979,+0.036,-0.239,-6.500,-43.250,+0.750,-5, -1, -4, -3, 1, -2, -3, -2
1503701512301,+0.660,+0.493,-0.344,-0.451,+0.921,+0.020,-0.287,-2.250,-40.312,-0.562,-10, 6, -1, -1, -5, -4, -3, 8
1503701512325,+0.662,+0.489,-0.341,-0.453,+0.886,-0.012,-0.305,-2.000,-28.750,+0.438,7, 9, 8, 5, 2, 3, -4, 6
1503701512340,+0.665,+0.486,-0.340,-0.454,+0.896,+0.028,-0.290,-2.125,-19.062,-3.812,-2, 20, 9, 5, -4, -7, 0, 2
1503701512360,+0.666,+0.484,-0.339,-0.454,+0.962,+0.040,-0.243,-0.625,-17.562,-2.312,-10, -12, -8, -1, 2, 3, 3, -4
1503701512384,+0.668,+0.482,-0.338,-0.455,+1.006,+0.024,-0.235,-0.312,-19.062,+0.562,-8, -15, -15, -5, -2, -5, -7, -9
1503701512398,+0.670,+0.480,-0.336,-0.456,+0.973,+0.001,-0.251,-0.250,-23.938,-4.188,4, -24, -4, -8, -17, -3, -19, -5
1503701512421,+0.672,+0.477,-0.335,-0.457,+0.949,+0.025,-0.292,-0.062,-22.875,-4.375,14, 24, 6, -1, -1, -8, -8, -1
1503701512443,+0.674,+0.475,-0.333,-0.458,+0.970,+0.026,-0.266,+0.688,-19.312,+0.875,-14, -4, 2, 2, 9, -9, -1, -14
1503701512460,+0.675,+0.473,-0.332,-0.459,+0.985,+0.005,-0.267,-3.375,-20.438,+0.938,-38, -8, 3, 1, 0, 7, -35, -13
1503701512485,+0.677,+0.470,-0.331,-0.460,+0.951,+0.018,-0.296,-4.000,-20.062,-1.188,10, -2, -1, -4, -15, -2, 1, 5
1503701512503,+0.679,+0.468,-0.329,-0.461,+0.924,+0.055,-0.357,+1.562,-16.062,-1.812,-51, -9, -4, -2, 0, 3, 8, -12
1503701512518,+0.681,+0.465,-0.327,-0.461,+0.907,+0.016,-0.317,+3.500,-19.438,-4.250,6, 4, 1, 1, 1, 3, 18, 1
1503701512549,+0.682,+0.465,-0.326,-0.462,+0.993,+0.011,-0.296,+0.062,-10.125,+2.000,8, -2, -5, 1, -2, -3, 9, -19
1503701512563,+0.682,+0.464,-0.325,-0.462,+1.000,+0.040,-0.308,-0.125,-10.625,+4.625,16, 0, -1, 2, 3, 1, 4, 16
1503701512578,+0.683,+0.463,-0.324,-0.463,+0.945,+0.044,-0.332,+1.812,-12.250,+4.188,2, 12, 3, -4, -11, -10, -4, -11
1503701512600,+0.684,+0.461,-0.321,-0.464,+0.929,+0.017,-0.342,+4.375,-13.875,+4.125,-11, -1, -4, -9, 2, 2, 0, 3
1503701512618,+0.685,+0.461,-0.319,-0.464,+0.928,+0.049,-0.339,+8.438,-10.500,+5.688,12, -8, 2, 5, 1, 6, 3, -14
1503701512638,+0.686,+0.461,-0.317,-0.465,+0.916,+0.001,-0.325,+8.438,-8.438,+7.562,11, 4, -1, 0, 0, -7, 0, 3
1503701512660,+0.686,+0.461,-0.315,-0.466,+0.936,-0.014,-0.315,+3.875,-8.625,+8.062,5, 18, 1, -1, -14, 3, -1, -14
1503701512686,+0.687,+0.461,-0.313,-0.467,+0.927,+0.030,-0.335,+4.938,-7.312,+9.125,26, -2, -3, -5, -7, -3, -8, -2
1503701512698,+0.686,+0.464,-0.312,-0.466,+0.949,+0.029,-0.326,+9.938,+12.000,+7.562,-31, -15, -6, 0, -4, 2, 3, -3
1503701512720,+0.686,+0.465,-0.310,-0.467,+1.015,+0.019,-0.329,+11.938,-7.062,+13.625,4, 1, -11, -3, -1, -5, -9, 6
1503701512743,+0.687,+0.465,-0.306,-0.467,+0.979,+0.022,-0.306,+15.125,-17.688,+10.250,-16, 7, 5, 1, 8, -3, -3, 7
1503701512758,+0.688,+0.465,-0.303,-0.467,+0.901,+0.042,-0.330,+15.188,-8.375,+5.875,22, -20, -5, 0, 0, 7, -5, -16
1503701516223,+0.577,+0.498,-0.344,-0.549,+0.919,-0.153,-0.203,-0.250,-5.562,-3.250,-5, 9, 7, 1, 1, 3, 0, 3
1503701516246,+0.577,+0.497,-0.344,-0.549,+0.972,-0.165,-0.224,-2.562,-2.312,-4.500,18, 9, 12, 3, -2, -5, -1, 6
1503701516261,+0.577,+0.497,-0.344,-0.549,+0.993,-0.152,-0.209,-3.688,-3.000,-3.375,11, 10, 8, 3, -2, -3, -2, 3
1503701516290,+0.578,+0.496,-0.345,-0.549,+0.997,-0.151,-0.215,-6.375,-4.812,-4.688,-1, -5, -7, -4, -2, -3, 1, 1
1503701516306,+0.578,+0.494,-0.346,-0.550,+0.965,-0.150,-0.215,-10.250,-7.688,-5.250,-9, -15, 4, 3, -1, -2, 0, 7
1503701516321,+0.579,+0.492,-0.346,-0.551,+0.927,-0.142,-0.228,-12.250,-8.188,-5.875,15, 10, -11, -6, -3, -5, -3, -1
1503701516345,+0.579,+0.490,-0.347,-0.552,+0.953,-0.139,-0.224,-13.125,-6.500,-5.625,-2, 6, 7, 2, 2, 2, -1, 2
1503701516372,+0.579,+0.488,-0.349,-0.552,+0.982,-0.133,-0.192,-14.812,-7.250,-3.875,-7, 5, -1, -1, -1, -2, 1, 2
1503701516381,+0.582,+0.485,-0.349,-0.552,+0.968,-0.164,-0.243,-8.125,-17.188,-18.625,0, -17, 2, 1, 2, -2, -3, -6
1503701516403,+0.585,+0.479,-0.350,-0.553,+0.964,-0.085,-0.263,-16.125,-24.375,-23.562,-7, -2, 0, -2, -2, 0, 0, 7
1503701516425,+0.588,+0.474,-0.352,-0.553,+0.981,-0.073,-0.282,-15.562,-18.938,-19.250,-12, 1, 3, 1, -5, -1, 1, 8
1503701516441,+0.590,+0.471,-0.352,-0.553,+0.966,-0.087,-0.275,-8.000,-11.625,-13.688,8, 11, 10, 5, 3, 1, -2, -2
1503701516463,+0.592,+0.469,-0.353,-0.553,+0.951,-0.106,-0.266,-7.938,-13.688,-15.000,2, 18, 8, 3, 8, 1, 3, 2
1503701516485,+0.593,+0.466,-0.354,-0.553,+0.944,-0.061,-0.280,-11.000,-11.875,-8.000,2, 1, 5, -2, 1, -1, -1, -2
1503701516500,+0.593,+0.465,-0.355,-0.553,+0.973,-0.044,-0.261,-7.750,+0.438,-0.438,15, 11, 11, 2, -2, -1, -4, -18
1503701516522,+0.593,+0.464,-0.355,-0.554,+1.021,-0.095,-0.234,-8.375,-6.562,+2.062,-17, -23, -15, -4, -6, -2, -1, 7
1503701516546,+0.592,+0.463,-0.355,-0.555,+1.000,-0.073,-0.285,-9.375,-4.938,+4.375,11, -16, -12, 4, 18, -3, -2, -4
1503701516560,+0.593,+0.462,-0.355,-0.556,+0.923,-0.044,-0.311,-4.938,-5.062,+2.938,0, 9, -1, 14, -21, 1, 2, 4
1503701516582,+0.593,+0.461,-0.354,-0.557,+0.937,-0.086,-0.272,-2.312,-5.125,+4.188,5, -10, 5, -10, 2, -1, -1, 0
1503701516605,+0.592,+0.461,-0.354,-0.558,+0.962,-0.102,-0.260,-3.938,-4.250,+5.312,-7, -3, -8, -6, -6, 1, -2, -7
1503701516620,+0.592,+0.461,-0.354,-0.559,+0.980,-0.093,-0.270,-5.062,-4.062,+3.500,-5, -23, -8, -16, 9, 3, 1, -3
1503701516642,+0.592,+0.460,-0.353,-0.559,+0.955,-0.081,-0.292,-3.375,-6.438,+0.938,2, 6, -4, 10, 60, 8, 0, 2
1503701516665,+0.593,+0.459,-0.353,-0.560,+0.909,-0.073,-0.302,-0.812,-7.250,-0.062,3, 9, 0, -2, -12, -1, -3, 0
1503701516680,+0.593,+0.459,-0.352,-0.560,+0.934,-0.096,-0.286,+0.062,-4.750,+2.438,-4, -2, -11, 1, -4, 0, -2, -10
1503701516706,+0.593,+0.458,-0.351,-0.560,+0.978,-0.091,-0.293,+0.250,-2.625,+1.125,11, 11, 6, 1, 0, 0, -2, -5
1503701516725,+0.594,+0.458,-0.351,-0.560,+0.960,-0.074,-0.288,+0.688,-4.375,+0.250,-4, 0, -4, -3, -40, -8, -2, 6
1503701516740,+0.594,+0.458,-0.351,-0.561,+0.963,-0.098,-0.286,-0.625,-0.375,+4.500,-1, -4, -10, -5, -7, 1, -1, -12
1503701516762,+0.594,+0.458,-0.350,-0.561,+0.948,-0.062,-0.320,+1.625,-0.562,+3.625,2, -2, -3, 0, -1, -1, 1, 5
1503701516785,+0.594,+0.459,-0.349,-0.561,+0.939,-0.073,-0.307,+5.875,-0.750,+1.750,0, 6, 17, 12, 12, -1, -1, 5
1503701516800,+0.595,+0.460,-0.348,-0.560,+0.964,-0.103,-0.291,+6.875,-0.125,+2.312,-4, -7, -11, -4, -5, -4, -2, 1
1503701516822,+0.595,+0.461,-0.347,-0.560,+0.957,-0.094,-0.281,+6.312,+1.938,+3.062,7, 0, -1, -7, -16, -3, -5, -10
1503701516847,+0.595,+0.462,-0.347,-0.559,+0.944,-0.082,-0.308,+7.312,+3.500,+4.312,-3, -2, -4, 10, 14, -2, -2, -4
1503701516860,+0.594,+0.464,-0.345,-0.559,+0.977,-0.103,-0.301,+9.812,+1.750,+7.812,2, -10, -5, -4, 14, 15, 1, -3
1503701516882,+0.594,+0.465,-0.344,-0.559,+0.992,-0.083,-0.287,+10.812,+0.312,+7.188,-10, 7, -1, -7, -16, -10, -1, 9
1503701516905,+0.595,+0.466,-0.341,-0.558,+0.976,-0.072,-0.313,+15.125,-3.500,+6.875,10, -9, -6, -4, 0, 1, -1, 4
1503701521166,+0.640,+0.505,-0.294,-0.499,+0.919,-0.122,-0.287,+2.562,+3.188,-11.438,-3, -4, -1, -3, -8, 7, -7, -15
1503701521188,+0.641,+0.504,-0.294,-0.498,+0.966,-0.155,-0.310,+1.500,-2.562,-10.500,0, 0, 4, 4, 3, 4, 4, 8
1503701521203,+0.643,+0.504,-0.295,-0.496,+0.980,-0.107,-0.270,+2.188,-1.438,-15.625,2, -3, -6, -7, -8, -11, -2, 2
1503701521227,+0.645,+0.502,-0.295,-0.494,+0.926,-0.096,-0.271,+2.125,-7.000,-16.375,10, -3, -15, -7, -11, -7, -1, -3
1503701521248,+0.647,+0.502,-0.296,-0.492,+0.945,-0.101,-0.291,+3.750,-2.062,-14.312,5, 0, -10, -10, -13, -2, -3, -4
1503701521265,+0.648,+0.501,-0.297,-0.491,+0.980,-0.096,-0.263,+2.438,-1.250,-11.125,7, 11, 7, 3, 1, 3, -1, -8
1503701521286,+0.648,+0.502,-0.298,-0.489,+0.995,-0.081,-0.267,+3.938,+5.125,-8.625,-2, -4, 0, -5, 0, 6, -4, -4
1503701521308,+0.649,+0.503,-0.298,-0.487,+0.976,-0.066,-0.280,+6.875,+8.438,-4.812,-10, 2, 7, 2, 1, -1, 2, 15
1503701521323,+0.649,+0.504,-0.298,-0.486,+0.952,-0.074,-0.284,+8.062,+4.125,-4.062,-2, 10, -4, 3, -4, -3, 1, 14
1503701521346,+0.650,+0.504,-0.297,-0.484,+0.963,-0.091,-0.267,+9.125,-2.750,-2.938,-19, -6, 2, -1, -3, -2, 1, -2
1503701521370,+0.651,+0.506,-0.297,-0.482,+0.974,-0.099,-0.250,+12.750,+6.875,-5.188,10, -1, -1, 2, 4, 0, 0, -11
1503701521384,+0.651,+0.507,-0.296,-0.481,+0.956,-0.126,-0.250,+7.250,+1.688,-0.812,-4, -8, -1, 0, 2, 0, -2, -6
1503701521413,+0.651,+0.508,-0.296,-0.480,+0.959,-0.117,-0.240,+3.312,+5.188,-5.625,4, 1, 10, 6, 3, 1, -3, -2
1503701521430,+0.652,+0.508,-0.296,-0.479,+0.930,-0.084,-0.281,+3.438,+0.875,-5.562,5, -3, 3, 6, 6, 2, 2, 6
1503701521443,+0.653,+0.508,-0.296,-0.477,+0.955,-0.083,-0.279,+5.125,+1.000,-8.000,9, 2, -10, -3, -4, -2, 1, -3
1503701521467,+0.653,+0.509,-0.296,-0.476,+0.977,-0.098,-0.247,+5.000,+1.812,-7.000,-13, -11, 7, 1, 9, 4, -1, -2
1503701521488,+0.653,+0.509,-0.297,-0.475,+1.015,-0.104,-0.225,+1.188,+2.312,-4.625,2, 5, -3, -3, -7, -4, -3, -11
1503701521505,+0.654,+0.509,-0.297,-0.474,+1.012,-0.068,-0.219,-1.500,-3.438,-3.812,-4, -8, -5, -2, -1, -1, 1, 8
1503701521529,+0.654,+0.509,-0.298,-0.474,+0.990,-0.066,-0.243,-1.250,-2.625,-1.438,-4, -1, 0, -4, -5, -2, 0, 8
1503701521548,+0.654,+0.508,-0.297,-0.474,+0.975,-0.081,-0.262,-0.500,-3.250,+1.625,2, -1, -1, -2, 1, -1, -1, 2
1503701521563,+0.655,+0.508,-0.297,-0.475,+0.961,-0.081,-0.276,-0.625,-3.625,+2.125,-3, 5, 0, -3, 0, -4, -1, 2
1503701521586,+0.655,+0.508,-0.296,-0.475,+0.936,-0.099,-0.261,-0.500,-2.750,+1.000,-4, 3, 2, -2, -6, -2, -1, 2
1503701521608,+0.655,+0.508,-0.296,-0.475,+0.971,-0.090,-0.252,-2.062,-3.125,+0.062,5, 3, 1, 2, 1, 0, -3, -5
1503701521623,+0.655,+0.507,-0.296,-0.475,+1.012,-0.080,-0.235,-3.625,-4.125,+1.812,-2, -4, 4, -2, 1, -1, 0, 2
1503701521646,+0.655,+0.506,-0.296,-0.476,+1.000,-0.090,-0.235,-3.812,-9.062,+2.312,-4, -1, -5, -1, -2, -2, 0, -6
1503701521668,+0.656,+0.505,-0.295,-0.477,+0.959,-0.093,-0.253,-5.938,-12.562,+2.375,6, 7, 3, 0, 1, 1, -1, 3
1503701521683,+0.656,+0.503,-0.295,-0.479,+0.955,-0.087,-0.282,-7.625,-11.500,+5.000,-4, -5, -5, -4, -1, 0, -1, -3
1503701521706,+0.656,+0.502,-0.294,-0.480,+0.924,-0.069,-0.311,-6.875,-9.688,+4.875,0, 4, 5, 2, 2, 3, 3, 10
1503701521731,+0.657,+0.500,-0.293,-0.482,+0.902,-0.081,-0.318,-3.562,-8.812,+3.062,-8, -9, -6, 0, -2, -1, -2, 0
1503701521743,+0.658,+0.499,-0.292,-0.482,+0.905,-0.106,-0.308,-1.125,-6.625,+1.062,-4, 3, 0, -1, 0, 1, 2, 0
1503701521765,+0.658,+0.499,-0.292,-0.483,+0.929,-0.116,-0.288,-3.125,-1.750,-0.375,1, -5, -3, 1, -1, -1, 4, 0
1503701521787,+0.658,+0.498,-0.293,-0.482,+0.970,-0.079,-0.276,-4.625,-0.625,-3.375,0, 2, -2, -1, 0, -1, -1, 5
1503701521810,+0.659,+0.498,-0.294,-0.482,+0.990,-0.066,-0.283,-1.375,-3.062,-5.750,3, 1, 0, 0, -1, -1, -1, -2
1503701521825,+0.661,+0.496,-0.293,-0.481,+0.981,-0.050,-0.314,+5.000,-9.125,-8.250,2, -2, 0, 0, 1, -2, 0, -11
1503701521847,+0.663,+0.495,-0.291,-0.480,+0.957,-0.066,-0.315,+6.625,-16.375,-4.312,-3, -5, 0, -1, -2, 0, -2, -5
1503701521870,+0.665,+0.493,-0.289,-0.480,+0.939,-0.077,-0.284,+6.688,-18.688,-3.312,0, 5, -2, -1, -1, -1, -2, -3
1503701521885,+0.667,+0.493,-0.288,-0.479,+0.960,-0.059,-0.288,+9.250,-9.688,-0.688,-5, -3, -6, -2, 0, -1, -3, 8
1503701521907,+0.668,+0.493,-0.285,-0.479,+0.932,-0.053,-0.348,+13.188,-7.125,+3.062,4, -7, -6, 0, -1, 0, -1, -1
1503701521930,+0.669,+0.493,-0.282,-0.478,+0.967,-0.071,-0.335,+16.750,-9.312,+5.938,-4, -1, 5, 2, 3, -1, 0, -1
1503701521944,+0.671,+0.493,-0.279,-0.478,+0.981,-0.096,-0.311,+18.188,-15.688,+3.625,2, 0, 1, -3, -3, 0, -1, -4
1503701521968,+0.673,+0.494,-0.275,-0.477,+0.938,-0.095,-0.309,+16.750,-9.250,+5.812,2, 2, 2, -1, -2, -1, 0, -1
1503701521990,+0.673,+0.495,-0.272,-0.477,+0.925,-0.119,-0.304,+14.250,-7.312,+8.812,-1, 6, -2, -3, 0, -2, -4, -4
1503701522006,+0.673,+0.495,-0.270,-0.478,+0.949,-0.108,-0.335,+8.312,-7.312,+10.000,-5, -1, -1, -1, -1, -2, 1, 0
1503701522036,+0.674,+0.496,-0.267,-0.478,+0.938,-0.069,-0.311,+10.625,-5.312,+11.062,-2, 2, 6, -2, 2, 0, 0, 8
1503701522050,+0.674,+0.497,-0.264,-0.479,+0.933,-0.116,-0.316,+11.188,-5.062,+13.125,13, 2, -5, 2, 1, -1, 2, -1
1503701524286,+0.673,+0.532,-0.272,-0.436,+0.936,-0.092,-0.250,-11.312,-8.188,+15.250,0, 20, -7, -6, -12, -6, -3, 0
1503701524309,+0.672,+0.532,-0.272,-0.437,+0.896,-0.096,-0.244,-8.062,+1.688,+6.625,-6, -11, -9, -5, -11, -1, 3, -1
1503701524329,+0.670,+0.533,-0.272,-0.440,+0.979,-0.142,-0.248,-11.188,+6.250,+12.000,22, 4, 9, 2, -3, -3, -2, 1
1503701524346,+0.670,+0.532,-0.273,-0.440,+0.989,-0.067,-0.266,-5.938,-0.688,+3.312,-7, -9, 7, 1, -2, 1, -1, -7
1503701524368,+0.669,+0.532,-0.273,-0.441,+1.032,-0.048,-0.259,-3.125,+1.125,+7.000,-9, -9, -1, 2, 0, 1, -2, -3
1503701524390,+0.669,+0.533,-0.272,-0.441,+0.972,-0.059,-0.276,+4.000,+1.062,+8.500,17, 7, -10, -4, -11, -6, -4, -12
1503701524406,+0.670,+0.532,-0.270,-0.441,+0.909,-0.077,-0.292,+5.375,-3.875,+2.000,-2, -4, 6, -2, -6, -3, -2, -6
1503701524428,+0.669,+0.534,-0.269,-0.441,+0.930,-0.168,-0.266,+5.688,+6.312,+6.562,15, 26, 5, -4, -3, -1, -1, 2
1503701524450,+0.668,+0.535,-0.269,-0.442,+0.992,-0.129,-0.229,-1.625,+7.875,+7.812,-6, 4, -10, -3, -1, -3, -5, 0
1503701524466,+0.667,+0.536,-0.268,-0.442,+0.956,-0.088,-0.253,+0.938,+3.438,+7.312,-20, -10, -9, 1, -2, -1, -1, 3
1503701524488,+0.668,+0.535,-0.267,-0.442,+0.949,-0.103,-0.256,+3.250,-6.562,+0.125,4, -8, -3, -2, 0, 3, 2, 4
1503701524510,+0.669,+0.535,-0.266,-0.442,+0.942,-0.143,-0.215,+4.688,-3.688,-3.250,3, -3, 1, 1, 3, -3, -1, -10
1503701524526,+0.669,+0.535,-0.267,-0.442,+0.873,-0.156,-0.188,-4.188,-4.750,-6.750,-2, -6, 2, -4, 1, -1, 2, 8
1503701524548,+0.667,+0.536,-0.268,-0.442,+1.002,-0.156,-0.207,-11.375,+12.312,+2.250,-10, 37, -1, 2, 2, 0, -2, 1
1503701524570,+0.666,+0.537,-0.271,-0.442,+1.002,-0.050,-0.294,-8.375,+16.500,+2.312,-3, -24, -10, -1, -1, -2, 0, 1
1503701524586,+0.668,+0.536,-0.271,-0.440,+0.946,-0.024,-0.269,+8.000,-0.125,-11.688,-9, -46, 10, 13, 0, 1, 0, -2
1503701524610,+0.668,+0.538,-0.269,-0.439,+1.018,-0.165,-0.226,+13.375,-0.188,-1.375,17, 9, -15, -13, -6, -3, 0, 2
1503701524630,+0.669,+0.537,-0.269,-0.438,+0.935,-0.083,-0.214,+2.312,-3.375,-2.125,13, 7, 2, 3, 19, 10, 0, 0
1503701524654,+0.667,+0.540,-0.269,-0.437,+0.976,-0.073,-0.241,+3.000,+19.250,+7.875,-19, 38, 28, 1, -8, -3, 0, 1
1503701524668,+0.667,+0.541,-0.268,-0.436,+0.969,-0.105,-0.260,+11.312,+6.188,+1.875,1, 6, 2, -1, -1, -2, 1, 2
1503701524690,+0.669,+0.541,-0.266,-0.436,+0.974,-0.140,-0.204,+11.312,-15.000,-0.312,16, 10, 1, 14, 9, 3, -1, -1
1503701524712,+0.670,+0.540,-0.264,-0.435,+0.970,-0.144,-0.188,+6.500,-14.438,-7.250,4, 6, 18, 1, -3, -2, -1, -1
1503701524728,+0.672,+0.539,-0.264,-0.434,+0.924,-0.124,-0.216,+1.500,-8.812,-5.875,-12, -17, -15, -9, -7, -2, -2, -3
1503701524750,+0.673,+0.538,-0.264,-0.434,+0.944,-0.131,-0.210,-0.500,-5.375,-9.438,19, 13, -3, -6, -10, -9, -2, -4
1503701524772,+0.676,+0.536,-0.264,-0.431,+0.973,-0.098,-0.257,+4.188,-17.812,-22.562,-10, 24, -1, -3, -3, -1, -4, -3
1503701524788,+0.681,+0.531,-0.265,-0.429,+0.954,-0.072,-0.260,+0.688,-23.750,-27.562,-5, 6, -5, 9, 5, 3, -1, 0
1503701524812,+0.684,+0.528,-0.265,-0.427,+0.936,-0.087,-0.260,+0.438,-19.312,-21.500,13, 11, 9, 12, 7, 2, -1, -1
1503701524832,+0.685,+0.528,-0.267,-0.425,+1.034,-0.086,-0.250,-0.688,+4.000,-13.188,-6, 8, -3, -10, 6, -6, -5, -9
1503701524849,+0.687,+0.527,-0.268,-0.423,+1.032,-0.021,-0.291,+2.375,-4.688,-14.750,9, -7, -3, 12, 2, 3, -2, -2
1503701524869,+0.690,+0.524,-0.267,-0.421,+0.935,-0.000,-0.296,+7.750,-19.750,-16.688,-11, -33, -5, -5, -11, 1, 1, 2
1503701524892,+0.695,+0.521,-0.266,-0.418,+0.937,-0.024,-0.270,+14.750,-21.938,-18.125,-14, -6, -3, -1, -3, 1, 0, 0
1503701524908,+0.696,+0.522,-0.265,-0.416,+0.930,-0.076,-0.254,+12.250,-4.375,-10.188,-23, -21, -8, -6, -12, -1, -3, -21
1503701524930,+0.696,+0.523,-0.265,-0.414,+0.969,-0.069,-0.236,+7.188,+7.688,-4.875,16, 10, 5, 5, 6, 2, 6, -6
1503701524952,+0.697,+0.524,-0.265,-0.413,+0.961,-0.051,-0.242,+6.188,+1.312,-5.375,0, -5, 7, 1, -6, -2, -2, -4
1503701524968,+0.698,+0.523,-0.263,-0.413,+1.011,-0.086,-0.235,+3.875,-17.812,-0.688,10, 29, 11, 1, -1, 0, -3, 2
1503701524990,+0.700,+0.521,-0.263,-0.412,+0.987,-0.051,-0.215,+3.312,-13.688,-10.438,1, -7, -12, -12, -11, -5, -3, -2
1503701525006,+0.700,+0.521,-0.263,-0.412,+0.974,-0.107,-0.221,-5.188,-7.438,-3.250,-24, -51, -14, -3, -7, 0, 3, 16
1503701525028,+0.701,+0.518,-0.263,-0.413,+0.958,-0.071,-0.246,-12.875,-13.562,-4.438,11, 9, 14, 9, 8, 4, -2, -2
1503701525050,+0.702,+0.515,-0.264,-0.414,+0.939,-0.032,-0.300,-13.312,-16.688,-6.000,3, -13, -12, -6, -1, 2, -1, -1
1503701525072,+0.703,+0.512,-0.265,-0.415,+0.928,-0.046,-0.283,-13.750,-14.750,-3.375,-7, -15, 5, 2, -4, 0, -2, 4
1503701525088,+0.703,+0.510,-0.266,-0.417,+1.027,-0.027,-0.305,-12.938,-9.250,+2.188,-21, -1, -3, 0, -2, -3, -1, -1
1503701525110,+0.704,+0.508,-0.267,-0.418,+1.027,+0.001,-0.269,-8.812,-15.188,-1.312,-2, 15, -3, -4, -9, -1, -2, -3
1503701525132,+0.705,+0.506,-0.266,-0.419,+0.910,-0.041,-0.277,-9.000,-12.250,+4.750,-20, -18, -3, 0, 3, 2, 3, 13
1503701525148,+0.704,+0.505,-0.266,-0.422,+0.925,-0.053,-0.299,-12.938,-10.250,+12.688,12, 26, 7, 3, 1, 0, -5, -26
1503701525170,+0.703,+0.503,-0.266,-0.425,+0.933,-0.029,-0.289,-15.562,-8.375,+13.875,24, 8, 2, -1, -1, -1, 3, 29
1503701525192,+0.702,+0.502,-0.266,-0.429,+0.968,-0.037,-0.318,-14.250,-4.938,+15.062,-17, -1, -2, -2, -2, -9, -15, 5
1503701525208,+0.701,+0.502,-0.267,-0.430,+0.919,-0.028,-0.298,-11.000,+4.062,+5.562,7, 9, 3, -1, 13, 7, -17, 2
1503701525230,+0.699,+0.502,-0.267,-0.433,+0.989,-0.100,-0.304,-12.750,-5.875,+17.688,-76, 5, 3, 7, 1, -6, 7, -18
1503701525252,+0.699,+0.501,-0.267,-0.435,+0.952,-0.036,-0.324,-11.438,-7.188,+7.938,27, -4, 2, -4, -8, 9, 7, 15
1503701525268,+0.699,+0.499,-0.266,-0.437,+0.921,-0.043,-0.324,-9.438,-8.625,+9.188,26, 4, -2, -8, -22, -24, 89, 4
1503701525290,+0.699,+0.498,-0.266,-0.439,+0.961,-0.058,-0.348,-6.000,-3.812,+6.625,-28, 2, -1, 2, 1, 0, 13, -25
1503701525314,+0.699,+0.497,-0.265,-0.441,+0.938,-0.062,-0.341,-8.188,-10.875,+7.062,2, -7, -4, -2, -3, -5, -29, -7
1503701528230,+0.668,+0.498,-0.311,-0.457,+0.920,-0.051,-0.284,-5.938,-8.750,+2.500,5, 4, -6, -3, -3, -1, -2, -6
1503701528252,+0.669,+0.497,-0.311,-0.457,+0.902,-0.027,-0.312,-4.438,-4.688,+0.188,22, -5, -1, 3, 0, 2, -3, -1
1503701528268,+0.669,+0.497,-0.311,-0.457,+0.897,-0.021,-0.302,+0.688,+3.000,-1.938,11, 4, 9, 2, 2, 0, 1, 8
1503701528290,+0.669,+0.497,-0.311,-0.456,+0.959,-0.047,-0.285,+0.125,+5.312,-1.625,12, -4, -4, -3, -3, -2, -2, 6
1503701528312,+0.668,+0.499,-0.312,-0.456,+0.985,-0.023,-0.271,-0.438,+11.188,+0.625,-20, -8, -4, 0, 4, 4, -12, 8
1503701528329,+0.668,+0.500,-0.312,-0.454,+0.996,+0.002,-0.272,+4.125,+7.688,-2.812,7, -4, -6, -1, -4, -1, 2, 8
1503701528349,+0.668,+0.501,-0.312,-0.453,+0.984,-0.019,-0.280,+8.062,+7.625,-3.062,-27, -1, -2, -2, -2, -2, 2, -1
1503701528372,+0.668,+0.503,-0.312,-0.451,+0.952,-0.034,-0.241,+8.188,+11.438,-2.250,20, 15, -2, -6, -1, -5, -7, -13
1503701528387,+0.667,+0.505,-0.312,-0.450,+0.972,-0.050,-0.236,+5.938,+9.125,-1.750,-7, -6, 1, -3, -1, -2, 0, -11
1503701528409,+0.667,+0.506,-0.313,-0.449,+1.016,-0.033,-0.217,+2.375,+9.875,+0.625,14, 3, 1, -1, -23, -25, -9, -20
1503701528433,+0.667,+0.507,-0.313,-0.448,+1.008,-0.022,-0.219,+2.938,-0.500,-2.500,11, -22, -2, 2, 6, 4, -1, -7
1503701528447,+0.668,+0.506,-0.313,-0.447,+0.963,-0.030,-0.231,+2.500,-4.062,-4.375,3, 10, -2, 3, 2, -8, -1, 10
1503701528469,+0.668,+0.506,-0.312,-0.447,+0.940,-0.042,-0.233,-0.875,-4.750,-1.062,6, 11, -6, -2, 1, 3, -4, -13
1503701528492,+0.668,+0.505,-0.312,-0.448,+0.966,-0.050,-0.228,-5.125,-5.125,+0.125,-21, -9, 3, 2, -6, 8, 10, 10
1503701528508,+0.669,+0.504,-0.313,-0.449,+1.005,-0.031,-0.245,-6.750,-9.688,-3.000,13, 4, 1, 5, -2, 3, -39, -7
1503701528530,+0.670,+0.502,-0.313,-0.449,+0.995,-0.024,-0.237,-5.812,-13.250,-4.188,-11, 8, 29, 7, 6, 3, 10, -9
1503701528552,+0.671,+0.500,-0.313,-0.450,+0.976,-0.033,-0.238,-7.562,-14.375,-3.250,2, -29, -13, -7, -2, -3, 3, 0
1503701528574,+0.672,+0.498,-0.313,-0.451,+0.967,-0.018,-0.240,-8.250,-14.500,-3.062,-15, -2, 0, -4, -2, -11, -2, -21
1503701528589,+0.674,+0.495,-0.312,-0.451,+0.978,+0.008,-0.294,-5.375,-17.250,-3.625,-22, 6, 0, 0, 1, -4, -2, -17
1503701528612,+0.675,+0.492,-0.312,-0.452,+0.929,-0.010,-0.290,-3.938,-17.562,-4.500,18, 4, 4, 2, 11, 3, 5, 19
1503701528634,+0.676,+0.491,-0.311,-0.453,+0.933,-0.027,-0.291,-3.188,-10.062,+1.125,5, 6, 4, 3, -1, -1, -5, -10
1503701528649,+0.677,+0.490,-0.311,-0.454,+0.982,-0.010,-0.296,-2.750,-7.188,+0.562,-1, 11, -4, -4, -4, 5, 8, 18
1503701528672,+0.678,+0.489,-0.310,-0.454,+0.962,+0.004,-0.298,-0.375,-6.688,-0.500,25, 14, 0, -5, -7, 0, 1, 1
1503701528694,+0.678,+0.488,-0.309,-0.454,+0.929,-0.013,-0.309,+1.688,-6.125,-0.500,-6, -1, 0, 3, -1, -14, -10, -8
1503701528709,+0.679,+0.488,-0.309,-0.454,+0.942,-0.022,-0.288,-0.312,-1.562,+0.062,-10, -8, -1, -9, -6, -2, 6, 2
1503701528733,+0.679,+0.488,-0.309,-0.454,+0.968,-0.009,-0.277,-0.688,-2.250,+0.062,0, 14, 2, 1, 3, -12, -9, -3
1503701528754,+0.679,+0.487,-0.309,-0.454,+0.989,-0.012,-0.272,-1.375,-5.500,-0.562,-8, -18, -1, -3, -9, 6, -6, -2
1503701531575,+0.572,+0.535,-0.352,-0.512,+0.994,-0.121,-0.126,-3.750,-5.375,-13.875,-12, 2, 5, -2, -2, -2, -1, -6
1503701531591,+0.573,+0.533,-0.353,-0.513,+0.945,-0.138,-0.229,-9.062,-5.688,-12.938,-3, 0, -10, -5, -2, 1, -1, 1
1503701531613,+0.574,+0.532,-0.355,-0.512,+0.955,-0.104,-0.091,-5.062,-0.250,-9.375,4, -7, -2, -1, -2, -3, -6, -6
1503701531635,+0.574,+0.531,-0.356,-0.512,+1.093,-0.162,-0.112,-7.562,-3.062,-7.000,-10, -32, -8, -4, -1, 1, 0, 6
1503701531651,+0.573,+0.531,-0.359,-0.511,+1.121,-0.126,-0.067,-13.375,+6.938,-2.562,2, 20, 3, -2, 0, 0, 1, -3
1503701531673,+0.572,+0.530,-0.359,-0.513,+1.089,-0.150,-0.066,-14.312,-8.625,+2.750,-1, -17, -9, -5, -3, -2, -2, -6
1503701531695,+0.572,+0.528,-0.358,-0.516,+0.964,-0.123,-0.148,-13.062,-18.000,+12.188,3, 15, 2, 1, 0, -1, 2, 2
1503701531718,+0.572,+0.524,-0.360,-0.518,+0.890,-0.066,-0.166,-21.125,-9.500,-7.375,2, 11, 8, 6, 2, -1, 0, 3
1503701531733,+0.574,+0.520,-0.359,-0.520,+0.875,-0.147,-0.155,-17.562,-23.438,-7.062,-6, 2, 7, 2, -1, -2, 4, 1
1503701531755,+0.575,+0.516,-0.360,-0.523,+0.975,-0.211,-0.137,-21.375,-18.438,-11.375,10, 0, -7, -8, -1, -1, -1, -5
1503701531779,+0.574,+0.513,-0.363,-0.524,+1.078,-0.160,-0.123,-29.312,-7.938,-9.062,4, 10, 4, 1, -1, 1, -2, -6
1503701531793,+0.575,+0.508,-0.367,-0.526,+1.041,-0.074,-0.121,-30.750,-16.750,-14.312,12, -1, -11, 1, -1, -1, 1, 9
1503701531815,+0.577,+0.502,-0.369,-0.528,+0.991,-0.081,-0.115,-27.812,-30.250,-18.062,-6, -4, 2, 3, 0, 0, 2, -3
1503701531838,+0.580,+0.495,-0.369,-0.531,+0.977,-0.090,-0.173,-27.188,-37.750,-15.562,-9, 1, 9, 4, 1, -3, -2, 0
1503701531853,+0.583,+0.488,-0.370,-0.534,+0.952,-0.055,-0.231,-26.875,-36.438,-14.000,-6, -15, -4, -2, -2, -2, -3, 0
1503701531875,+0.585,+0.482,-0.370,-0.537,+0.950,-0.022,-0.250,-24.375,-29.312,-7.000,11, 15, 9, 0, -2, 1, -1, -3
1503701531897,+0.586,+0.478,-0.371,-0.539,+0.974,-0.035,-0.219,-22.500,-17.938,-2.938,-2, 8, -3, -2, -1, -1, 0, 2
1503701531919,+0.586,+0.474,-0.371,-0.543,+0.994,-0.089,-0.230,-22.750,-20.438,+1.875,3, -11, -5, 0, 0, -2, -6, -12
1503701531935,+0.587,+0.470,-0.372,-0.545,+0.966,-0.066,-0.265,-19.375,-17.438,-5.000,3, 6, 2, 0, 5, 2, 1, 3
1503701531958,+0.589,+0.465,-0.371,-0.547,+0.895,-0.063,-0.309,-14.938,-23.812,-6.000,2, 0, -1, -7, -8, 0, 0, -2
1503701531973,+0.592,+0.461,-0.371,-0.548,+0.887,-0.057,-0.300,-9.625,-19.062,-13.938,-4, 19, 10, 4, 0, 0, -2, -6
1503701531995,+0.592,+0.459,-0.372,-0.548,+0.940,-0.082,-0.249,-12.125,-7.250,-9.938,4, 21, 3, -1, -1, -5, -2, 4
1503701532017,+0.592,+0.456,-0.374,-0.549,+1.042,-0.063,-0.207,-15.938,-8.625,-9.938,-9, -13, -5, 0, -1, -1, -1, 2
1503701532033,+0.594,+0.453,-0.375,-0.549,+1.072,-0.011,-0.229,-16.438,-19.688,-11.375,42, 13, -6, 1, 0, -1, -2, -1
1503701532062,+0.596,+0.448,-0.375,-0.550,+1.004,+0.015,-0.278,-12.188,-25.188,-9.250,-14, -17, -4, -6, -2, -2, 1, -1
1503701532077,+0.598,+0.445,-0.374,-0.552,+0.926,-0.023,-0.282,-7.875,-21.875,-4.188,-5, -8, -7, -3, 10, -1, -3, -7
1503701532093,+0.598,+0.443,-0.373,-0.554,+0.981,-0.040,-0.292,-8.312,-14.688,+4.500,-8, -4, 0, 0, -4, 0, 1, 1
1503701532115,+0.599,+0.441,-0.372,-0.555,+0.965,-0.013,-0.312,-6.938,-13.125,+3.500,-8, 1, 0, 4, 3, 2, -2, -5
1503701532137,+0.600,+0.439,-0.371,-0.557,+0.922,-0.020,-0.312,-3.688,-11.938,+3.562,3, -4, 2, 0, -3, -1, 2, 1
1503701532153,+0.600,+0.439,-0.370,-0.558,+0.896,-0.046,-0.350,-1.188,-3.625,+4.500,18, 15, 6, -1, 2, 3, 1, 5
1503701532175,+0.600,+0.439,-0.369,-0.558,+0.932,-0.041,-0.307,+2.625,-0.625,+3.312,29, 37, 6, 0, -3, -2, -2, 0
1503701532197,+0.600,+0.439,-0.369,-0.558,+1.018,+0.002,-0.291,-0.125,-2.250,+0.938,-24, -14, 4, 0, -1, -1, 1, -1
1503701532214,+0.600,+0.439,-0.368,-0.558,+1.024,-0.020,-0.305,+3.062,-2.312,+6.250,-16, -16, -3, 0, -2, -1, -1, 0
1503701532235,+0.600,+0.440,-0.368,-0.558,+1.027,-0.042,-0.288,+0.250,-2.438,+1.500,-6, 2, -1, -1, -3, -1, -3, -3
1503701532257,+0.599,+0.441,-0.368,-0.558,+0.943,-0.056,-0.299,+0.250,+4.062,+5.812,6, 20, 17, 11, 0, 1, 0, -3
1503701532273,+0.599,+0.441,-0.367,-0.558,+0.902,-0.042,-0.337,+1.625,+1.750,+2.500,-7, -41, -14, -7, -3, -3, 0, -3
1503701532295,+0.599,+0.442,-0.367,-0.558,+0.903,-0.048,-0.332,+5.000,+4.125,+2.812,-7, 11, 1, -4, -3, -4, 0, 5
1503701532319,+0.599,+0.443,-0.367,-0.557,+0.949,-0.074,-0.289,+5.375,+9.500,+0.438,-16, -26, -6, -2, 0, -1, -1, 5
1503701532332,+0.599,+0.445,-0.367,-0.556,+0.990,-0.065,-0.256,+2.438,+7.312,-1.625,-9, -9, -10, -3, -1, 0, -1, 3
1503701532354,+0.599,+0.445,-0.368,-0.555,+0.974,-0.044,-0.280,+2.125,+3.000,-4.625,19, 23, 11, 4, 3, 3, 0, -2
1503701532377,+0.600,+0.445,-0.368,-0.554,+0.954,-0.036,-0.280,+3.625,+0.375,-5.312,-4, -18, -9, -5, -2, -3, 0, -6
1503701532392,+0.600,+0.446,-0.368,-0.553,+0.968,-0.039,-0.280,+5.062,+2.250,-1.750,4, -5, -1, -3, -1, -2, -1, -2
1503701532416,+0.600,+0.447,-0.368,-0.552,+0.984,-0.052,-0.255,+2.875,+1.375,+0.562,-5, 11, -8, -4, -4, -2, -1, -2
1503701532437,+0.600,+0.447,-0.367,-0.552,+0.945,-0.062,-0.274,+0.938,-3.938,-0.812,9, -4, -2, 0, 1, 0, -1, 1
1503701532452,+0.601,+0.446,-0.367,-0.553,+0.922,-0.070,-0.275,-1.375,-5.188,-2.500,-4, -22, -7, -2, -1, -1, 2, 0
1503701532474,+0.601,+0.446,-0.367,-0.553,+0.993,-0.068,-0.277,-4.812,-4.188,+0.062,-7, -2, -1, 1, 0, 0, -3, -2
1503701532497,+0.601,+0.445,-0.367,-0.553,+0.991,-0.021,-0.308,-3.500,-4.125,-1.438,-14, -23, -1, -1, -4, 1, -2, -1
1503701532512,+0.602,+0.444,-0.367,-0.553,+0.951,-0.021,-0.297,-0.062,-3.812,-1.812,13, 9, 0, -1, 1, -1, -3, -3
1503701532534,+0.602,+0.444,-0.366,-0.553,+0.947,-0.053,-0.280,-0.125,-2.312,+2.500,5, 6, 1, 0, 0, -2, 0, 1
1503701532559,+0.602,+0.444,-0.366,-0.554,+0.979,-0.048,-0.293,-0.875,-1.062,+3.688,-14, -16, -3, -1, -3, -2, 0, 1
1503701532572,+0.602,+0.444,-0.365,-0.554,+0.951,-0.034,-0.290,-0.688,-2.812,+2.625,0, 10, -2, 0, -8, 0, -3, -23
1503701532594,+0.602,+0.444,-0.365,-0.555,+0.926,-0.045,-0.289,-0.062,-2.250,+4.312,-15, 3, 6, 0, 1, 0, 1, 9
1503701532617,+0.601,+0.445,-0.364,-0.555,+0.926,-0.062,-0.281,-1.938,-0.500,+5.812,2, 6, -2, -1, 1, 0, -2, 0
1503701532632,+0.600,+0.445,-0.364,-0.556,+0.949,-0.078,-0.276,-3.938,-2.750,+5.000,41, 20, 2, 3, 3, 0, -2, 6
1503701532654,+0.600,+0.444,-0.364,-0.557,+0.989,-0.062,-0.276,-5.938,-5.500,+2.750,5, -4, -3, -2, 0, 0, -21, -10
1503701532677,+0.601,+0.443,-0.363,-0.558,+0.997,-0.042,-0.294,-3.250,-13.000,-1.500,-8, -2, 3, 3, 5, 2, 3, 0
1503701532692,+0.602,+0.441,-0.362,-0.558,+0.971,-0.042,-0.308,-1.188,-12.062,-2.125,-2, 3, 1, -1, -4, -5, 1, 7
1503701532714,+0.603,+0.440,-0.361,-0.559,+0.951,-0.040,-0.306,-2.250,-10.375,+2.125,-5, -13, 1, -1, -3, 0, 5, 0
1503701532737,+0.602,+0.440,-0.361,-0.560,+0.959,-0.054,-0.316,-3.750,-4.000,+7.438,-9, 1, 1, 9, 20, 9, 4, -12
1503701532754,+0.602,+0.440,-0.360,-0.561,+0.955,-0.038,-0.315,-3.188,-2.938,+8.188,1, -1, -4, -4, -8, 7, -19, 9
1503701532774,+0.602,+0.439,-0.359,-0.562,+0.937,-0.027,-0.331,-0.625,-3.062,+6.562,-8, 0, 3, 0, 3, 5, 9, 4
1503701532797,+0.602,+0.439,-0.358,-0.562,+0.900,-0.054,-0.332,+2.188,-3.812,+5.250,-4, 1, 1, -5, -11, -17, 4, -8
1503701532811,+0.602,+0.440,-0.357,-0.563,+0.892,-0.074,-0.332,+1.562,+2.312,+4.750,-11, 5, 4, 2, 6, -2, 5, -5
1503701532834,+0.601,+0.441,-0.357,-0.563,+0.908,-0.061,-0.329,+1.750,+7.000,+3.875,11, -2, -7, -8, -10, -7, 5, 43
1503701532857,+0.600,+0.443,-0.357,-0.562,+0.944,-0.060,-0.322,+4.250,+9.938,+1.812,40, -7, -5, -6, -6, -15, -2, -5
1503701532871,+0.601,+0.444,-0.358,-0.560,+0.959,-0.042,-0.318,+8.375,+10.312,-1.500,-8, -5, -1, -1, 12, 16, 23, 12
1503701532894,+0.602,+0.446,-0.357,-0.558,+0.941,-0.038,-0.324,+13.188,+6.750,-5.000,37, 21, -8, -5, -6, -1, -8, -45
1503701532920,+0.602,+0.448,-0.357,-0.556,+0.939,-0.049,-0.312,+17.625,+12.875,-4.062,-6, -7, 3, 2, -2, -1, -4, 17
1503701532932,+0.603,+0.451,-0.357,-0.553,+0.954,-0.056,-0.300,+18.938,+14.062,-3.188,-5, -3, -1, 1, 5, 3, -6, -5
1503701532956,+0.603,+0.454,-0.356,-0.551,+1.020,-0.066,-0.291,+16.250,+7.312,-1.000,9, 2, -4, -4, -1, -6, -3, -11
1503701536698,+0.604,+0.527,-0.304,-0.515,+1.003,-0.156,-0.208,-4.812,+18.500,+55.250,-16, -16, -4, 0, 14, 6, -1, 2
1503701536720,+0.596,+0.532,-0.301,-0.521,+0.967,-0.167,-0.179,-6.062,+20.000,+62.500,-16, 2, 2, 0, -5, -3, 0, -12
1503701536739,+0.589,+0.537,-0.298,-0.525,+0.965,-0.163,-0.207,-2.312,+23.438,+61.875,12, 3, 0, -1, 1, 1, 4, 16
1503701536758,+0.583,+0.541,-0.293,-0.530,+0.891,-0.197,-0.251,+1.875,+17.750,+57.500,-12, -8, -1, 0, -2, -1, -2, -14
1503701536780,+0.578,+0.545,-0.288,-0.534,+0.868,-0.231,-0.271,+8.688,+10.438,+47.875,-11, -18, -9, 0, -2, 0, 2, 7
1503701536795,+0.576,+0.548,-0.283,-0.537,+0.850,-0.299,-0.211,+13.375,+1.938,+34.688,2, 5, 12, 1, -5, 0, 5, 2
1503701536818,+0.574,+0.551,-0.279,-0.538,+0.845,-0.337,-0.181,+16.250,+1.062,+21.438,-6, 11, 1, 2, 1, 2, -2, 8
1503701536840,+0.573,+0.554,-0.276,-0.537,+0.841,-0.374,-0.150,+14.688,+2.375,+7.125,15, 8, -1, -3, -5, -4, -1, -3
1503701536856,+0.573,+0.556,-0.275,-0.536,+0.884,-0.344,-0.143,+11.375,+5.875,-4.250,-19, -4, -11, -1, 1, -1, -2, -5
1503701536878,+0.574,+0.557,-0.275,-0.533,+0.911,-0.302,-0.152,+8.250,+4.688,-11.750,-12, -10, -12, -5, -5, -4, -1, 3
1503701536900,+0.575,+0.557,-0.276,-0.531,+0.913,-0.276,-0.166,+8.062,+1.500,-17.312,2, 5, 2, -2, -2, -2, -1, 2
1503701536915,+0.578,+0.557,-0.277,-0.528,+0.935,-0.260,-0.162,+9.000,-2.938,-22.188,5, 1, 6, 1, -1, -2, 0, -4
1503701536940,+0.580,+0.557,-0.279,-0.524,+0.975,-0.272,-0.120,+6.938,-1.938,-23.375,8, 12, 18, 0, 4, 2, -1, -4
1503701536960,+0.582,+0.557,-0.281,-0.522,+0.983,-0.250,-0.139,+2.500,+3.438,-21.250,-5, 4, 4, 2, 8, 1, -2, 4
1503701536982,+0.583,+0.557,-0.283,-0.519,+0.991,-0.221,-0.161,-0.250,+1.375,-17.688,-25, -3, 3, 4, 5, -1, -2, -15
1503701536998,+0.586,+0.555,-0.284,-0.518,+0.993,-0.219,-0.180,-0.500,-5.375,-15.812,-7, 7, -9, 1, -16, 0, 0, 5
1503701537020,+0.588,+0.554,-0.285,-0.517,+0.982,-0.243,-0.171,-0.250,-9.750,-13.688,-18, -2, -5, -9, -3, -3, -4, -3
1503701537042,+0.589,+0.553,-0.285,-0.516,+0.952,-0.236,-0.187,-2.812,-5.312,-11.750,10, 2, -7, 1, -1, -1, 2, 7
1503701537058,+0.590,+0.551,-0.286,-0.516,+0.960,-0.229,-0.157,-5.500,-5.250,-10.000,2, -15, -3, -3, -3, -1, -1, -1
1503701537080,+0.591,+0.550,-0.287,-0.515,+0.972,-0.236,-0.153,-8.062,-6.438,-9.625,6, 20, 6, 4, -6, -2, 2, 7
1503701537095,+0.592,+0.548,-0.289,-0.515,+0.951,-0.215,-0.160,-7.562,-7.312,-12.625,4, -8, -4, -4, -5, -8, -2, -4
1503701537118,+0.594,+0.546,-0.290,-0.515,+0.936,-0.229,-0.176,-9.125,-7.562,-12.688,24, -1, 5, 21, 32, 8, -1, 2
1503701537142,+0.595,+0.544,-0.292,-0.514,+0.954,-0.214,-0.170,-12.250,-4.688,-15.438,1, -6, 2, -10, -12, -4, -2, -16
1503701537161,+0.596,+0.542,-0.295,-0.514,+0.985,-0.198,-0.159,-13.688,-4.000,-17.250,-3, -10, -6, -8, 3, -1, -2, -2
1503701537178,+0.598,+0.539,-0.297,-0.513,+0.998,-0.185,-0.192,-13.875,-8.938,-19.000,19, -6, -5, -4, -2, -4, 4, 0
1503701537200,+0.600,+0.535,-0.299,-0.513,+0.948,-0.172,-0.244,-11.500,-14.750,-18.812,26, 1, -8, -11, -11, -7, -7, -4
1503701537222,+0.603,+0.533,-0.300,-0.513,+0.929,-0.169,-0.220,-9.375,-10.312,-18.000,-29, -12, -1, -3, -3, -1, -2, -2
1503701537238,+0.604,+0.530,-0.302,-0.512,+0.957,-0.159,-0.208,-7.562,-6.188,-16.312,-12, -4, -3, -1, -28, -14, -4, 6
1503701537260,+0.606,+0.529,-0.304,-0.511,+0.980,-0.174,-0.213,-7.062,-1.688,-15.438,8, 7, 3, -3, -13, 5, 9, 28
1503701537282,+0.607,+0.527,-0.306,-0.510,+0.988,-0.175,-0.214,-8.875,-5.375,-14.250,7, 14, 6, 6, 18, 12, -2, 4
1503701537298,+0.608,+0.525,-0.307,-0.510,+0.971,-0.148,-0.206,-10.438,-6.188,-13.188,0, 5, -1, -5, -19, -14, -4, 0
1503701537320,+0.609,+0.523,-0.309,-0.510,+0.971,-0.144,-0.200,-11.938,-4.000,-11.938,-9, 0, 5, 1, 1, 2, 4, 4
1503701537335,+0.609,+0.521,-0.312,-0.510,+0.999,-0.139,-0.203,-14.312,-3.062,-11.312,-12, -2, -3, -3, 10, 8, -5, -10
1503701537358,+0.610,+0.519,-0.314,-0.510,+1.008,-0.125,-0.207,-15.812,-6.938,-11.500,-12, -4, -5, 2, 13, 14, 3, -3
1503701537382,+0.612,+0.515,-0.315,-0.510,+0.990,-0.127,-0.220,-14.562,-14.938,-12.812,20, -6, -5, -2, 5, 3, 2, -5
1503701537402,+0.613,+0.512,-0.316,-0.511,+0.965,-0.124,-0.246,-13.875,-14.250,-9.812,1, 7, 10, 3, -6, -5, -3, -20
1503701537418,+0.614,+0.510,-0.317,-0.512,+0.949,-0.119,-0.228,-12.500,-9.750,-4.375,10, 0, -7, -2, 3, -1, -2, 1
1503701539577,+0.668,+0.540,-0.296,-0.419,+0.998,-0.095,-0.148,-1.938,-4.062,+6.750,3, 5, 2, 1, -2, -3, -1, -2
1503701539599,+0.666,+0.539,-0.296,-0.422,+0.976,-0.070,-0.184,-11.375,-1.750,+12.688,4, -1, 1, 0, 0, 0, 0, -2
1503701539622,+0.666,+0.539,-0.296,-0.424,+0.918,-0.024,-0.265,-10.375,+1.188,+11.875,2, -5, 2, 0, -3, 0, 1, 0
1503701539637,+0.666,+0.538,-0.296,-0.424,+0.902,-0.022,-0.250,-4.938,-0.750,+3.125,4, 34, 16, 8, 11, 6, -2, -1
1503701539661,+0.665,+0.538,-0.295,-0.425,+0.959,-0.064,-0.204,-1.062,+2.000,+2.625,3, -21, -12, -5, -6, -6, -3, -16
1503701539681,+0.664,+0.539,-0.296,-0.425,+1.003,-0.084,-0.194,-4.438,+7.312,+4.000,9, -9, -1, 5, -1, 1, 0, 5
1503701539697,+0.663,+0.540,-0.297,-0.426,+0.996,-0.081,-0.183,-5.625,+8.438,+3.125,-3, -5, 0, 16, 19, 7, 0, -1
1503701539720,+0.664,+0.540,-0.296,-0.424,+0.922,-0.050,-0.244,+5.500,+1.812,-6.438,-1, -1, -3, -9, -22, -8, 0, 12
1503701539741,+0.667,+0.539,-0.296,-0.421,+0.876,-0.045,-0.229,+13.938,-7.438,-17.875,-12, -17, -7, -2, 0, 0, -2, -6
1503701539757,+0.669,+0.538,-0.296,-0.419,+1.008,-0.040,-0.221,+7.750,-1.938,-15.125,-6, -1, 1, -11, -12, -7, 5, 1
1503701539779,+0.669,+0.539,-0.296,-0.417,+1.089,-0.061,-0.156,+7.500,+2.188,-10.250,7, -6, -3, -2, -2, -1, -4, -9
1503701539801,+0.668,+0.542,-0.297,-0.415,+1.066,-0.054,-0.164,+3.688,+17.438,-3.625,-2, -15, -9, -11, -21, -11, -1, -12
1503701539819,+0.667,+0.543,-0.298,-0.413,+1.014,-0.003,-0.219,+3.812,+13.312,-0.312,-7, 0, -4, 4, 8, 0, -2, -5
1503701539839,+0.668,+0.543,-0.296,-0.414,+0.979,-0.046,-0.228,+7.375,-7.938,+6.188,-4, -12, 5, 10, 13, 6, 0, 4
1503701539862,+0.670,+0.542,-0.293,-0.414,+0.921,-0.073,-0.195,+8.250,-15.312,+0.938,9, 3, 1, -7, 2, -1, 0, 3
1503701539877,+0.672,+0.542,-0.292,-0.413,+0.901,-0.095,-0.216,+11.312,-6.000,-6.625,4, 4, 1, -13, -4, 1, 0, 0
1503701539899,+0.673,+0.542,-0.292,-0.410,+0.933,-0.087,-0.191,+6.250,+5.000,-13.750,-1, 5, -1, 0, 12, 0, 0, -1
1503701539921,+0.673,+0.543,-0.294,-0.408,+0.960,-0.021,-0.150,+3.938,+11.312,-13.188,3, 10, -7, 7, -2, 1, 0, 2
1503701539937,+0.673,+0.544,-0.295,-0.405,+1.004,-0.013,-0.174,+8.188,+7.438,-13.062,-19, 0, -9, -4, 7, -3, -3, -4
1503701539959,+0.674,+0.544,-0.294,-0.403,+1.072,-0.044,-0.161,+10.562,-5.375,-7.188,13, 19, 9, -2, 0, -3, -2, 0
1503701539981,+0.676,+0.544,-0.295,-0.400,+1.046,+0.022,-0.129,+7.938,-2.375,-14.688,8, 11, -6, -6, 10, -3, -2, 0
1503701540004,+0.677,+0.544,-0.294,-0.399,+1.031,-0.005,-0.161,+4.875,-9.750,-1.750,14, -16, -14, -1, -8, -1, -4, -4
1503701540021,+0.679,+0.543,-0.293,-0.398,+1.000,-0.007,-0.188,+6.375,-10.625,-1.562,-13, -5, 5, 1, 0, 0, 1, -3
1503701540041,+0.680,+0.542,-0.291,-0.399,+0.962,-0.013,-0.208,+5.438,-10.375,+2.375,-19, -11, -19, 4, -10, -1, 0, -1
1503701540064,+0.680,+0.542,-0.290,-0.399,+0.986,-0.052,-0.192,+1.938,-7.750,+4.812,-7, 3, 6, 7, -8, 4, 1, -1
1503701540080,+0.680,+0.541,-0.289,-0.400,+1.028,-0.055,-0.170,-3.750,-9.938,+4.500,-2, 2, -3, -3, 1, -2, -2, 0
1503701540101,+0.681,+0.539,-0.288,-0.402,+0.993,-0.034,-0.217,-5.375,-14.062,+5.125,-1, -1, 1, 3, 6, 1, -1, 1
1503701540118,+0.682,+0.537,-0.288,-0.404,+0.937,-0.021,-0.216,-7.125,-13.438,+5.312,-14, 0, 6, 2, 3, -2, -2, 2
1503701540140,+0.682,+0.536,-0.287,-0.406,+0.957,-0.042,-0.195,-9.062,-9.375,+7.250,5, -8, 0, -4, 0, -2, 0, -6
1503701540162,+0.682,+0.535,-0.287,-0.408,+1.008,-0.053,-0.196,-11.938,-12.188,+7.188,-5, 3, 22, 0, 1, 1, 0, -4
1503701540178,+0.682,+0.533,-0.287,-0.410,+1.012,-0.032,-0.213,-10.750,-17.000,+5.312,-6, -23, -12, -5, -3, 2, 0, 6
1503701540200,+0.683,+0.530,-0.286,-0.412,+0.982,-0.030,-0.234,-7.750,-16.438,+5.500,30, 1, -5, -1, 2, -1, 1, 5
1503701540222,+0.685,+0.528,-0.285,-0.414,+0.948,-0.042,-0.245,-6.125,-19.500,+3.500,-1, -8, -4, -1, -2, 0, -1, -2
1503701540238,+0.686,+0.525,-0.284,-0.416,+0.939,-0.053,-0.244,-7.000,-17.688,+4.000,-10, -15, -3, -7, 2, -6, -1, -1
1503701540260,+0.687,+0.523,-0.283,-0.418,+0.953,-0.052,-0.246,-8.875,-15.000,+2.750,-23, -18, 6, -1, 4, 4, 3, 5
1503701540281,+0.688,+0.520,-0.283,-0.419,+0.966,-0.036,-0.257,-9.625,-19.062,+0.062,21, 5, -6, -11, -19, 0, -7, -8
1503701540304,+0.690,+0.517,-0.283,-0.421,+0.954,-0.035,-0.274,-8.188,-20.688,-1.438,-9, -24, -3, 4, -12, 3, -2, -1
1503701540322,+0.691,+0.514,-0.282,-0.422,+0.958,-0.035,-0.265,-6.750,-19.375,-3.000,46, 7, -10, 6, 10, -5, -4, -7
1503701540342,+0.693,+0.512,-0.282,-0.423,+0.967,-0.034,-0.266,-7.625,-18.500,-1.125,-17, -4, 5, -2, 8, -1, 1, 9
1503701540364,+0.694,+0.509,-0.281,-0.424,+0.957,-0.036,-0.280,-8.750,-15.625,-0.188,26, 30, 0, -6, -18, -3, -14, 3
1503701540380,+0.695,+0.507,-0.281,-0.426,+0.953,-0.017,-0.297,-8.062,-13.812,+0.375,-26, -4, 5, 6, 9, 1, 10, -4
1503701540401,+0.695,+0.505,-0.281,-0.427,+0.940,-0.024,-0.292,-6.812,-7.750,+0.812,1, -3, 9, 0, -1, 5, 3, 0
1503701540418,+0.696,+0.504,-0.281,-0.428,+0.947,-0.019,-0.305,-5.188,-7.688,+2.438,0, 3, -3, -7, 9, -4, -5, -14
1503701540439,+0.696,+0.503,-0.281,-0.428,+0.969,+0.005,-0.308,+0.000,-7.750,+1.812,0, 2, -11, -6, -6, -6, -3, -16
1503701540461,+0.698,+0.502,-0.279,-0.428,+0.944,-0.022,-0.321,+3.688,-8.000,+1.188,-7, -13, -4, 0, 16, -2, -5, -6
1503701540477,+0.697,+0.503,-0.279,-0.428,+0.942,-0.046,-0.290,+1.938,-0.250,+3.625,6, -6, -9, -7, 0, -1, 0, 1
1503701540499,+0.697,+0.504,-0.278,-0.429,+0.975,-0.029,-0.292,-0.062,+3.875,+7.938,18, 10, 4, -2, -14, 1, 0, 1
1503701540523,+0.696,+0.505,-0.278,-0.429,+0.977,-0.027,-0.277,-0.188,+3.375,+7.625,-16, -19, -5, 7, 38, 6, 0, 5
1503701540538,+0.695,+0.505,-0.277,-0.430,+0.978,-0.037,-0.272,+0.688,+0.750,+9.125,14, 9, -2, -4, 4, -7, -2, -4
1503701540560,+0.694,+0.506,-0.276,-0.431,+0.967,-0.044,-0.277,-0.812,-2.688,+10.312,5, -13, -1, 4, 4, -1, -3, 8
1503701540581,+0.694,+0.506,-0.275,-0.432,+0.965,-0.050,-0.289,-0.875,-3.125,+10.938,-4, 18, -10, -2, -2, 2, 1, 4
1503701540599,+0.693,+0.506,-0.274,-0.434,+0.951,-0.067,-0.279,-1.750,-5.062,+9.688,-9, -2, 7, 3, -1, 3, 8, 2
1503701540627,+0.693,+0.506,-0.273,-0.435,+0.967,-0.054,-0.282,-3.625,-5.125,+10.875,6, 11, 0, 2, -4, 11, 14, -15
1503701540642,+0.692,+0.507,-0.274,-0.435,+0.925,-0.040,-0.275,-1.812,+8.562,+2.000,8, -2, 1, -1, -2, 15, 8, 11
1503701540662,+0.690,+0.508,-0.273,-0.438,+0.982,-0.098,-0.291,-6.062,+6.875,+17.812,3, 12, 0, 2, 0, -4, -3, -8
1503701540679,+0.688,+0.509,-0.273,-0.438,+1.002,-0.028,-0.285,-3.250,+7.875,+11.000,-15, -9, -5, -3, -4, -9, -13, -16
1503701544385,+0.653,+0.510,-0.292,-0.477,+0.921,-0.104,-0.252,+2.500,+24.188,+15.812,-4, 10, 3, -3, -4, -3, -3, -6
1503701544406,+0.650,+0.514,-0.293,-0.477,+0.937,-0.123,-0.276,+2.750,+33.625,+12.938,7, 0, -3, 0, -3, 0, -1, 4
1503701544421,+0.646,+0.519,-0.294,-0.476,+0.955,-0.109,-0.274,+4.188,+36.188,+9.750,-3, -9, 10, 4, 2, -1, -4, -10
1503701544444,+0.644,+0.523,-0.294,-0.474,+0.972,-0.108,-0.257,+10.250,+29.062,+8.938,-5, 3, -9, 0, 0, -3, 0, 5
1503701544466,+0.643,+0.527,-0.294,-0.472,+0.978,-0.110,-0.225,+15.062,+16.812,+2.750,-24, -25, -1, 3, 15, 6, -2, -10
1503701544485,+0.643,+0.528,-0.293,-0.471,+0.943,-0.137,-0.220,+10.562,+4.688,-4.875,5, -9, 2, 5, 0, -2, 1, 11
1503701544504,+0.643,+0.530,-0.293,-0.469,+0.965,-0.160,-0.241,+9.625,+10.625,-4.062,-29, 3, -8, -1, -3, 0, -2, 0
1503701544526,+0.642,+0.533,-0.293,-0.467,+0.961,-0.120,-0.277,+14.312,+24.875,-0.562,20, 18, 3, -1, -2, 0, -1, 2
1503701544543,+0.642,+0.537,-0.293,-0.462,+0.929,-0.048,-0.247,+23.625,+21.250,-7.125,-15, 2, 4, 1, 1, 1, -4, -6
1503701544564,+0.643,+0.540,-0.291,-0.458,+0.986,-0.142,-0.192,+27.562,+8.188,-7.562,19, 4, -1, -1, -3, -4, -1, 2
1503701544587,+0.645,+0.541,-0.289,-0.456,+1.054,-0.166,-0.174,+20.312,-3.625,-9.062,3, 22, 6, -1, 0, 1, 2, 0
1503701544601,+0.646,+0.543,-0.288,-0.452,+1.025,-0.116,-0.162,+17.438,+2.500,-10.250,-8, -17, -2, 6, 1, -1, 2, 4
1503701544624,+0.648,+0.543,-0.287,-0.450,+0.977,-0.126,-0.161,+14.812,-3.062,-11.375,-3, 0, -1, -5, 2, 0, -5, 2
1503701544646,+0.650,+0.543,-0.287,-0.448,+1.009,-0.126,-0.150,+10.000,-12.500,-13.938,-7, 6, -16, -7, -13, 1, -1, 29
1503701544661,+0.653,+0.541,-0.286,-0.446,+0.976,-0.138,-0.148,+5.562,-19.125,-15.312,-12, -6, 7, 2, -17, -1, 1, 4
1503701544686,+0.655,+0.539,-0.286,-0.445,+1.005,-0.137,-0.128,-4.375,-18.500,-16.250,-5, 8, 3, 0, -1, 10, -5, -6
1503701544706,+0.656,+0.537,-0.288,-0.445,+1.025,-0.092,-0.167,-11.250,-12.000,-11.625,1, 2, 9, -1, 7, -14, -18, -16
1503701544722,+0.657,+0.534,-0.289,-0.446,+1.027,-0.078,-0.184,-13.125,-13.562,-8.000,-5, 3, 0, -4, -15, 6, 12, 6
1503701544744,+0.659,+0.530,-0.290,-0.447,+0.981,-0.070,-0.183,-16.312,-24.875,-5.562,43, -1, 0, 0, 5, 0, 0, -2
1503701544766,+0.661,+0.526,-0.291,-0.450,+0.976,-0.073,-0.207,-18.688,-24.938,-3.188,-4, 0, -5, -8, 2, -1, -3, 12
1503701544782,+0.663,+0.521,-0.292,-0.452,+0.982,-0.052,-0.237,-20.125,-26.500,-6.938,-3, -3, 3, 32, 31, 19, 16, 3
1503701544804,+0.665,+0.516,-0.292,-0.454,+0.951,-0.047,-0.266,-19.562,-25.938,-3.625,-7, -21, -8, -8, -12, -4, 2, -7
1503701544826,+0.666,+0.512,-0.292,-0.457,+0.990,-0.073,-0.275,-16.000,-26.688,-0.500,-5, 4, -1, -12, 21, 0, 3, -8
1503701544842,+0.668,+0.508,-0.291,-0.459,+0.974,-0.080,-0.281,-12.312,-23.500,+2.062,4, 16, 1, -2, -5, -1, -13, -35
1503701544864,+0.669,+0.505,-0.291,-0.461,+0.910,-0.055,-0.299,-9.375,-19.562,+0.250,12, 14, 0, -6, -27, -13, 4, 3
1503701544886,+0.671,+0.502,-0.290,-0.463,+0.919,-0.056,-0.291,-10.250,-19.375,+1.812,-1, 5, 4, 14, -14, -15, -5, 4
1503701544902,+0.670,+0.500,-0.290,-0.465,+0.937,-0.075,-0.263,-12.438,-9.750,+4.250,-16, -12, -1, -8, -7, -1, -7, 3
1503701544924,+0.669,+0.500,-0.291,-0.466,+1.002,-0.096,-0.267,-13.000,+0.375,+7.000,-14, -21, -2, -1, 34, 19, 6, 14
1503701544946,+0.668,+0.500,-0.291,-0.468,+1.008,-0.071,-0.303,-9.688,-3.875,+11.375,2, 11, 2, 0, -1, 1, -5, -19
1503701544962,+0.669,+0.498,-0.291,-0.469,+0.913,-0.034,-0.309,-7.125,-10.500,+0.500,-11, -4, -3, -7, -17, 13, 10, 2
1503701544984,+0.670,+0.495,-0.290,-0.471,+0.959,-0.075,-0.308,-5.188,-16.500,+2.625,21, 4, -1, -8, -17, -8, 13, 22
1503701545014,+0.672,+0.492,-0.288,-0.472,+0.935,-0.062,-0.301,-3.125,-24.812,-1.625,45, 24, 0, 2, 7, -2, 14, 35
1503701545022,+0.674,+0.489,-0.287,-0.473,+0.896,-0.079,-0.312,-5.375,-21.125,-0.875,-21, -3, 3, 3, 7, 9, -7, -54
1503701545047,+0.675,+0.487,-0.287,-0.474,+0.922,-0.057,-0.302,-9.875,-14.188,-3.125,51, 11, -2, -4, -7, -7, -14, 2
1503701545066,+0.676,+0.485,-0.287,-0.475,+0.978,-0.051,-0.335,-5.688,-9.875,-0.250,22, -19, -5, -5, -5, 3, 6, 15
1503701545083,+0.677,+0.484,-0.286,-0.475,+1.026,-0.041,-0.349,+3.562,-11.562,-2.438,32, 20, 4, 0, -5, -11, 26, 28
1503701545103,+0.679,+0.482,-0.283,-0.475,+0.958,-0.049,-0.333,+7.625,-24.500,+2.625,-13, -7, 3, 0, 5, 9, -2, -23
1503701545126,+0.681,+0.481,-0.281,-0.475,+0.925,-0.061,-0.358,+7.125,-12.000,-0.750,4, 3, 1, 0, 2, -5, -7, -4
1503701548809,+0.567,+0.445,-0.373,-0.584,+0.981,-0.105,-0.271,-10.938,-15.375,-8.312,-1, -3, 0, 0, -4, 2, 8, 6
1503701548824,+0.569,+0.442,-0.373,-0.585,+0.967,-0.044,-0.293,-8.812,-11.375,-6.688,-3, 2, 0, -3, -3, 0, -1, 0
1503701548846,+0.568,+0.441,-0.374,-0.585,+0.998,-0.075,-0.277,-6.188,-4.750,+0.500,1, 2, 5, 3, 7, 16, 9, 1
1503701548868,+0.568,+0.441,-0.374,-0.586,+1.004,-0.060,-0.292,-4.375,-1.500,+6.625,3, -2, -6, -5, -1, -6, -4, -6
1503701548883,+0.567,+0.441,-0.373,-0.587,+0.964,-0.066,-0.278,-1.875,-2.750,+8.750,-7, 7, 0, 0, -1, -3, -3, 1
1503701548906,+0.567,+0.442,-0.372,-0.588,+0.893,-0.092,-0.301,+1.938,-0.438,+10.750,0, -2, -2, -1, 1, -5, 7, 1
1503701548928,+0.564,+0.444,-0.371,-0.589,+0.903,-0.120,-0.303,+0.125,+11.312,+17.188,1, -1, -6, -4, -5, -5, -1, 3
1503701548943,+0.562,+0.445,-0.371,-0.590,+0.920,-0.112,-0.312,-3.000,+6.688,+12.125,-1, 10, 6, -1, -10, -11, -6, -2
1503701548966,+0.562,+0.446,-0.371,-0.590,+0.940,-0.130,-0.294,-1.938,+2.625,+3.375,1, 3, 1, 2, 8, 2, 1, -2
1503701548988,+0.563,+0.445,-0.370,-0.590,+0.904,-0.137,-0.284,-2.875,-6.812,-7.188,-4, 0, 1, -3, -7, -2, 2, 23
1503701549003,+0.564,+0.443,-0.370,-0.590,+0.892,-0.136,-0.291,-3.438,-5.375,-11.438,-1, -8, -1, 1, 0, -5, -5, -13
1503701549026,+0.566,+0.441,-0.371,-0.590,+0.902,-0.124,-0.306,-8.938,-5.812,-16.500,-10, 3, 2, 6, 32, 18, 8, 3
1503701549048,+0.568,+0.438,-0.373,-0.589,+0.971,-0.081,-0.285,-11.000,-4.750,-20.250,-4, 3, -1, -2, -4, -3, -6, 0
1503701549071,+0.569,+0.436,-0.375,-0.587,+0.990,-0.066,-0.292,-6.000,-4.188,-18.750,-25, 1, -1, -4, -6, -12, -9, 34
1503701549086,+0.571,+0.435,-0.376,-0.586,+0.987,-0.042,-0.277,-3.250,-3.938,-14.125,15, 7, 3, -1, -6, -9, 15, 12
1503701549109,+0.573,+0.433,-0.377,-0.585,+1.002,-0.071,-0.281,-1.125,-7.062,-11.375,10, 4, 0, 1, -4, 0, -1, -7
1503701549133,+0.573,+0.432,-0.377,-0.585,+1.001,-0.064,-0.289,-2.500,-3.875,-6.625,-7, -24, -9, -4, -5, -5, -4, -9
1503701549146,+0.574,+0.432,-0.378,-0.584,+0.989,-0.043,-0.301,-1.250,-0.250,-3.625,11, 2, -19, -10, -7, -4, -4, -1
1503701549169,+0.574,+0.432,-0.378,-0.584,+0.958,-0.039,-0.298,+1.062,-1.750,-0.500,-5, -7, 5, 3, -1, 1, 1, -1
1503701549183,+0.575,+0.432,-0.377,-0.584,+0.945,-0.060,-0.308,+1.500,-1.062,+2.312,-9, -9, -5, -3, -5, -4, -6, -1
1503701549206,+0.575,+0.432,-0.376,-0.584,+0.935,-0.054,-0.313,+1.750,-3.375,+0.812,-12, 10, 6, 0, -12, -12, -4, 1
1503701549228,+0.576,+0.432,-0.376,-0.584,+0.932,-0.064,-0.321,+2.375,-2.312,-0.688,5, 15, 15, 4, -1, 0, -3, -12
1503701549244,+0.577,+0.432,-0.375,-0.584,+0.959,-0.071,-0.320,+4.125,-3.312,-2.312,5, 4, 10, 3, 1, 2, 0, -10
1503701549268,+0.578,+0.431,-0.374,-0.583,+0.968,-0.063,-0.313,+5.562,-6.062,-5.125,-4, -8, -6, -4, 2, -12, -6, -3
1503701549292,+0.580,+0.430,-0.372,-0.583,+0.974,-0.070,-0.312,+7.000,-15.438,-4.938,5, 1, -3, 3, 3, 2, -3, -11
1503701549305,+0.583,+0.430,-0.370,-0.582,+0.944,-0.069,-0.318,+9.375,-14.688,-6.250,1, -3, 0, -2, -5, 1, 4, 3
1503701549326,+0.584,+0.430,-0.369,-0.581,+0.961,-0.065,-0.313,+10.250,-0.500,-4.125,-2, 8, 8, 1, 0, 4, 0, -7
1503701549349,+0.585,+0.430,-0.368,-0.581,+0.948,-0.062,-0.315,+7.562,-11.188,-3.688,-16, -7, -16, -7, -6, 3, 4, 5
1503701549364,+0.587,+0.430,-0.366,-0.580,+0.954,-0.065,-0.307,+8.250,-7.562,-3.750,4, 8, -4, -1, 1, 3, 0, -3
1503701549386,+0.589,+0.430,-0.365,-0.580,+0.933,-0.059,-0.312,+7.750,-10.312,-3.500,25, 7, -1, 2, 2, 0, -3, -21
1503701549409,+0.590,+0.429,-0.364,-0.579,+0.920,-0.037,-0.333,+8.438,-5.125,-5.812,2, 0, -3, -3, 2, -2, -1, 9
1503701549424,+0.592,+0.430,-0.363,-0.578,+0.925,-0.051,-0.319,+9.438,-4.188,-3.188,-1, 1, 0, -1, 1, 0, -2, 2
1503701549446,+0.592,+0.431,-0.362,-0.577,+0.953,-0.056,-0.332,+10.938,+1.438,-0.312,-3, -7, 10, 6, 2, 0, 5, 8
1503701549469,+0.594,+0.432,-0.359,-0.576,+0.993,-0.040,-0.358,+14.938,-6.375,+0.312,-12, -1, 1, 0, -1, 0, 1, 6
1503701549491,+0.597,+0.432,-0.357,-0.574,+0.924,-0.018,-0.356,+20.562,-5.688,-4.188,3, -5, -3, -1, 2, -1, -4, -9
1503701554013,+0.599,+0.472,-0.347,-0.546,+1.006,-0.109,-0.245,-16.938,-11.812,+1.000,11, -16, -13, -3, 0, -2, -3, -3
1503701554029,+0.599,+0.470,-0.348,-0.548,+0.977,-0.071,-0.283,-16.750,-10.500,+0.125,1, -17, -8, -4, 3, 8, 3, -14
1503701554051,+0.599,+0.467,-0.348,-0.549,+0.941,-0.053,-0.306,-12.812,-11.875,-0.438,-5, -5, -9, -9, -2, 4, 6, 4
1503701554073,+0.600,+0.465,-0.348,-0.551,+0.919,-0.072,-0.305,-8.812,-10.750,-1.062,-2, -8, -6, -7, -9, -3, -3, 1
1503701554091,+0.600,+0.463,-0.347,-0.552,+0.925,-0.088,-0.287,-6.062,-6.625,+0.438,-5, -12, -9, 0, -2, -8, -14, -28
1503701554111,+0.600,+0.462,-0.348,-0.552,+0.957,-0.087,-0.299,-7.062,-2.625,+1.062,-11, -9, -10, -12, -12, -2, -2, -1
1503701554133,+0.601,+0.461,-0.348,-0.553,+0.969,-0.060,-0.315,-4.750,-5.812,-0.812,-4, -7, -4, -1, 0, -6, -4, -9
1503701554148,+0.601,+0.460,-0.347,-0.553,+0.943,-0.055,-0.316,-0.938,-2.688,+0.188,3, 12, -3, 1, 4, 0, 3, 7
1503701554171,+0.601,+0.461,-0.347,-0.553,+0.939,-0.075,-0.293,+1.938,+2.125,+3.375,4, 3, -3, -2, 0, -5, -7, -35
1503701554196,+0.601,+0.462,-0.347,-0.553,+0.958,-0.083,-0.295,+4.000,+3.875,+4.312,2, 0, -1, 1, 3, 2, 5, 32
1503701554208,+0.601,+0.463,-0.346,-0.552,+0.979,-0.093,-0.285,+5.000,+1.688,+2.188,-5, 1, 4, 1, 0, 0, 4, 11
1503701554231,+0.601,+0.463,-0.346,-0.552,+0.984,-0.108,-0.261,+2.000,-2.812,+0.562,-10, -15, -5, 0, -2, -7, 1, 5
1503701554253,+0.601,+0.463,-0.345,-0.552,+0.967,-0.103,-0.278,-0.375,-3.938,+1.812,4, 2, -9, -3, 2, 3, 3, 10
1503701554268,+0.601,+0.463,-0.345,-0.553,+0.935,-0.086,-0.294,-2.062,-3.000,+2.250,-8, -7, 0, -3, -1, -3, -3, -1
1503701554297,+0.601,+0.463,-0.344,-0.553,+0.915,-0.092,-0.306,-1.500,+0.875,+3.188,2, -8, -10, -3, -3, -3, -5, -2
1503701554313,+0.601,+0.464,-0.344,-0.553,+0.922,-0.080,-0.318,+1.062,+6.250,+2.062,16, 24, 30, 8, 4, 4, 6, -1
1503701554330,+0.600,+0.464,-0.344,-0.553,+0.920,-0.096,-0.302,+1.688,+6.500,+1.438,0, -13, -1, 1, -1, -1, -1, 3
1503701554351,+0.600,+0.465,-0.345,-0.552,+0.930,-0.112,-0.282,+0.438,+8.500,-0.812,-1, 6, 5, -3, -3, -1, -1, 0
1503701554373,+0.599,+0.466,-0.346,-0.551,+0.937,-0.101,-0.285,-1.750,+11.500,-1.562,-1, 5, 11, 5, 4, 1, -2, 1
1503701554388,+0.599,+0.467,-0.347,-0.550,+0.965,-0.085,-0.281,+0.375,+9.812,-5.500,4, -18, -4, -2, -5, -17, -10, -3
1503701554411,+0.600,+0.467,-0.348,-0.548,+0.977,-0.069,-0.277,+6.000,+1.500,-7.375,-1, -1, -6, 2, 2, 10, 9, 10
1503701554435,+0.602,+0.468,-0.348,-0.547,+0.992,-0.045,-0.290,+8.688,-0.188,-7.500,-5, 10, -2, -3, -1, 3, 0, 1
1503701554448,+0.602,+0.469,-0.348,-0.545,+0.989,-0.067,-0.276,+9.500,+8.688,+0.125,-2, -12, -6, 1, 1, 0, 3, -8
1503701554471,+0.601,+0.472,-0.348,-0.544,+0.953,-0.087,-0.268,+10.000,+14.188,+3.375,22, 16, -4, -7, 1, -2, 6, 8
1503701554496,+0.600,+0.474,-0.347,-0.542,+0.968,-0.102,-0.229,+8.938,+8.812,+2.000,-16, -8, -1, 1, -3, 3, 0, 7
1503701554508,+0.600,+0.476,-0.347,-0.541,+0.961,-0.128,-0.216,+5.688,+2.312,-0.875,1, 9, -1, 2, 0, -5, -6, -2
1503701554531,+0.600,+0.476,-0.347,-0.541,+0.969,-0.127,-0.234,+0.438,-0.562,-1.188,-8, 11, 2, 5, 6, 3, -2, -2
1503701554553,+0.600,+0.476,-0.347,-0.541,+0.962,-0.110,-0.250,-2.875,-2.938,-2.375,-9, -16, -7, -6, -4, 1, -4, -9
1503701554569,+0.601,+0.475,-0.347,-0.541,+0.975,-0.098,-0.260,-4.562,-4.688,-4.188,4, 11, -2, -4, -6, 4, 1, 0
1503701554593,+0.601,+0.474,-0.348,-0.541,+0.945,-0.087,-0.254,-6.375,-3.875,-4.625,4, -2, 6, 2, 0, -3, 2, 12
1503701554613,+0.602,+0.472,-0.348,-0.542,+0.961,-0.094,-0.259,-7.250,-7.312,-5.625,0, -3, -5, -4, 0, -3, -4, -23
1503701554628,+0.603,+0.470,-0.349,-0.542,+0.989,-0.085,-0.241,-9.000,-9.688,-6.375,-7, -10, -9, -2, -3, 4, -3, 0
1503701554650,+0.603,+0.469,-0.349,-0.543,+0.986,-0.079,-0.253,-10.125,-8.938,-3.188,8, 1, 1, -2, -4, -20, -6, 9
1503701554673,+0.604,+0.467,-0.350,-0.544,+0.991,-0.055,-0.270,-9.438,-9.938,-0.812,-12, -7, -2, -1, -3, 3, 10, 4
1503701554688,+0.604,+0.465,-0.350,-0.545,+0.983,-0.055,-0.274,-6.875,-7.688,+2.250,-13, 8, 5, 4, 7, 5, 7, 15
1503701554711,+0.604,+0.464,-0.349,-0.546,+0.933,-0.069,-0.292,-5.250,-10.062,+2.688,-5, 0, 9, 2, 1, 2, -1, 5
1503701554733,+0.604,+0.463,-0.348,-0.547,+0.930,-0.102,-0.287,-6.500,-8.312,+1.812,-8, -31, -5, -1, 1, -2, -7, -12
1503701554748,+0.604,+0.462,-0.348,-0.548,+0.939,-0.088,-0.284,-8.312,-4.312,+3.938,19, 1, -8, -3, -4, 2, 0, -2
1503701554778,+0.604,+0.461,-0.348,-0.549,+0.919,-0.068,-0.304,-7.500,-4.062,+3.062,-6, -4, -4, -4, -6, -1, -5, -41
1503701554794,+0.604,+0.460,-0.348,-0.550,+0.915,-0.073,-0.312,-4.500,-3.750,+0.750,6, 20, 10, 1, 0, -2, -2, 4
1503701554808,+0.605,+0.459,-0.348,-0.550,+0.957,-0.090,-0.292,-2.375,-4.375,-4.125,7, -7, -10, -2, -2, 3, -3, -5
1503701554831,+0.606,+0.458,-0.348,-0.550,+0.939,-0.083,-0.290,-1.438,-6.688,-8.188,-1, -4, 13, 1, -3, -2, 1, 5
1503701554853,+0.607,+0.456,-0.348,-0.549,+0.924,-0.086,-0.292,-3.750,-6.812,-10.125,15, 11, 5, 1, 0, 2, -1, -1
1503701554868,+0.608,+0.455,-0.349,-0.549,+0.958,-0.078,-0.290,-6.562,-6.125,-10.562,-5, -3, -2, 0, -4, -1, -3, -1
1503701554891,+0.609,+0.453,-0.350,-0.548,+0.993,-0.035,-0.312,-4.688,-5.625,-9.438,-2, 3, -1, -1, 1, -2, -3, -9
1503701554913,+0.611,+0.452,-0.350,-0.547,+1.021,-0.014,-0.316,+1.875,-5.375,-9.125,0, -3, 0, 0, -2, 0, -1, -3
1503701554929,+0.613,+0.452,-0.350,-0.546,+0.999,-0.009,-0.307,+7.000,-2.688,-5.500,0, -10, -6, -2, 1, -3, -2, -5
1503701554950,+0.614,+0.452,-0.349,-0.545,+0.987,-0.029,-0.312,+9.688,-2.750,-1.125,3, -4, -5, -1, -1, -4, -3, -9
1503701554973,+0.615,+0.453,-0.348,-0.544,+0.971,-0.046,-0.304,+11.938,-2.938,+2.500,-4, -5, -2, -3, -3, -3, -6, -9
1503701554989,+0.616,+0.454,-0.345,-0.544,+0.993,-0.065,-0.284,+13.500,-14.500,+5.312,-14, 2, 3, -2, -3, 1, 1, 14
1503701555010,+0.619,+0.453,-0.341,-0.544,+0.948,-0.064,-0.303,+16.000,-19.062,-3.062,8, 7, -1, -3, -2, -3, -4, 2
1503701555041,+0.621,+0.452,-0.337,-0.544,+0.931,-0.067,-0.367,+15.062,-18.562,+1.938,-2, -5, 6, 2, 3, 3, 1, 5
1503701555049,+0.624,+0.452,-0.334,-0.543,+0.914,-0.031,-0.372,+21.312,-13.500,+0.375,-1, 0, -2, -2, -1, 0, 0, 5
1503701555071,+0.626,+0.454,-0.330,-0.542,+0.970,-0.053,-0.345,+26.625,-10.125,+7.375,-3, -3, -2, 0, -1, 0, 1, -3
1503701555096,+0.628,+0.455,-0.325,-0.541,+0.972,-0.077,-0.343,+26.875,-16.375,+1.438,-8, -8, -1, 1, -4, -1, -1, -5
1503701555109,+0.631,+0.457,-0.320,-0.539,+0.946,-0.081,-0.395,+32.000,-7.938,+2.688,2, 12, 3, 1, 0, 0, 0, 3
1503701555131,+0.634,+0.459,-0.315,-0.537,+0.942,-0.040,-0.393,+37.500,-7.688,+5.625,-5, 1, 1, 0, 1, -1, -2, -17
1503701555153,+0.636,+0.463,-0.309,-0.534,+0.955,-0.049,-0.383,+46.188,-1.062,+8.375,3, 4, 16, 7, 2, 0, -1, 4
1503701555169,+0.638,+0.467,-0.302,-0.533,+0.965,-0.131,-0.333,+44.375,-13.938,+13.562,3, -1, -9, -7, -3, 1, -1, 2
1503701555193,+0.640,+0.470,-0.295,-0.532,+0.958,-0.117,-0.323,+39.438,-16.625,+13.188,3, 4, -4, -8, 2, -3, 9, 3
1503701555213,+0.643,+0.471,-0.289,-0.530,+0.897,-0.114,-0.289,+38.438,-21.125,+7.188,-8, 5, -1, -7, -20, -2, -1, -5
1503701555231,+0.645,+0.474,-0.283,-0.528,+0.906,-0.125,-0.362,+39.500,-9.000,+10.000,-2, 17, 16, 11, 13, 0, -1, 0
1503701556398,+0.623,+0.519,-0.292,-0.507,+0.996,-0.122,-0.332,-12.188,+28.500,-22.188,13, 1, -2, 2, 6, 1, 3, 17
1503701556413,+0.624,+0.518,-0.296,-0.505,+0.961,-0.173,-0.319,-6.125,+12.875,-22.625,-12, -14, 1, -2, -4, -3, 0, -1
1503701556436,+0.625,+0.518,-0.299,-0.502,+0.986,-0.172,-0.281,-3.250,+14.562,-25.875,3, 3, 0, 1, 9, 5, 3, 0
1503701556451,+0.626,+0.518,-0.302,-0.499,+1.062,-0.130,-0.306,-2.812,+12.062,-22.000,13, 4, 0, -5, -3, 7, -3, 2
1503701556474,+0.628,+0.518,-0.304,-0.495,+1.010,-0.080,-0.286,+9.062,+11.438,-21.688,-8, 0, -1, -1, -3, -1, -2, 3
1503701556496,+0.631,+0.517,-0.304,-0.492,+0.953,-0.111,-0.246,+13.375,-8.000,-20.312,-4, 1, -1, -1, -1, -1, 4, 7
1503701556511,+0.634,+0.517,-0.303,-0.489,+0.958,-0.116,-0.234,+13.125,-6.062,-18.000,0, 6, -2, 4, 3, -2, 1, -3
1503701556533,+0.635,+0.518,-0.305,-0.486,+0.943,-0.122,-0.262,+9.312,+10.438,-19.312,-7, 0, -1, -4, -6, -3, -2, -14
1503701556555,+0.635,+0.520,-0.307,-0.482,+0.900,-0.095,-0.226,+3.750,+24.875,-14.812,1, 1, -13, -4, -1, -4, -3, 7
1503701556571,+0.633,+0.523,-0.310,-0.479,+1.020,-0.052,-0.203,+3.750,+26.500,-8.000,3, -8, 1, 1, -1, -2, -2, -3
1503701556594,+0.632,+0.525,-0.313,-0.476,+1.013,-0.046,-0.176,+5.688,+23.375,-8.062,-7, -7, -1, -1, 0, -1, -3, -10
1503701556615,+0.631,+0.528,-0.314,-0.473,+0.952,-0.072,-0.172,+7.125,+18.750,-5.250,-3, -2, -3, -3, -3, -2, -2, -3
1503701556631,+0.631,+0.530,-0.316,-0.471,+0.898,-0.090,-0.166,+4.062,+17.500,-7.125,-3, 4, 5, 3, 1, -1, 0, 13
1503701556653,+0.629,+0.532,-0.319,-0.469,+0.927,-0.117,-0.128,-1.438,+23.812,-10.250,1, -6, -4, -3, -10, -3, -3, -6
1503701556676,+0.626,+0.535,-0.324,-0.465,+1.040,-0.054,-0.080,-5.812,+35.438,-13.625,-5, 1, 1, 0, 3, 1, 2, 17
1503701556691,+0.624,+0.537,-0.327,-0.463,+1.047,-0.050,-0.112,-2.500,+20.250,-6.125,1, 4, 5, -2, -2, 0, 3, 10
1503701556713,+0.625,+0.537,-0.328,-0.461,+0.981,-0.050,-0.102,+2.750,-1.062,-11.875,3, 12, 0, -2, -5, -3, -3, -13
1503701556738,+0.627,+0.536,-0.328,-0.460,+1.009,-0.091,-0.107,+1.250,-13.250,-10.375,1, -1, 0, 1, 2, -1, -3, -13
1503701556751,+0.628,+0.535,-0.328,-0.460,+1.003,-0.095,-0.110,-1.625,-9.625,-6.938,-4, 7, 5, 2, 1, 0, 2, 0
1503701556773,+0.629,+0.534,-0.330,-0.459,+0.996,-0.043,-0.106,-9.625,-3.125,-11.625,-7, -14, -7, 0, 2, 0, -2, -4
1503701556789,+0.628,+0.534,-0.331,-0.460,+1.006,-0.072,-0.173,-10.125,+3.812,+2.250,1, -7, 1, 0, 0, 0, 0, -4
1503701556812,+0.627,+0.533,-0.332,-0.461,+0.988,-0.102,-0.204,-6.000,+0.688,+0.125,6, 23, 28, 1, 3, 2, 0, 9
1503701556834,+0.628,+0.532,-0.333,-0.461,+0.999,-0.095,-0.176,-7.812,-1.562,-6.250,0, -14, -12, -2, -2, -1, 0, -2
1503701556849,+0.628,+0.531,-0.333,-0.461,+0.998,-0.092,-0.171,-8.562,-5.375,-3.938,-1, -3, -7, -3, -2, 0, 0, -1
1503701556872,+0.629,+0.529,-0.333,-0.463,+1.005,-0.071,-0.189,-9.562,-12.688,-2.250,-6, -5, -10, -1, 1, 0, -1, 2
1503701556894,+0.630,+0.527,-0.334,-0.463,+1.000,-0.048,-0.194,-7.562,-10.500,-7.250,-5, 15, -1, 2, 3, 0, -3, -3
1503701556909,+0.632,+0.525,-0.334,-0.463,+0.943,-0.046,-0.201,-5.562,-8.500,-8.812,-5, -2, -8, 0, -1, -3, 1, 4
1503701556932,+0.633,+0.523,-0.335,-0.462,+0.934,-0.036,-0.199,-2.688,-5.438,-8.688,-16, -10, -3, -5, -5, -2, 0, -5
1503701556954,+0.634,+0.522,-0.335,-0.462,+0.987,-0.022,-0.202,-1.062,-3.000,-4.062,9, -3, -5, -5, -4, 0, -2, -6
1503701556969,+0.635,+0.522,-0.335,-0.461,+1.006,-0.021,-0.174,+1.312,-4.625,-3.875,3, -15, 3, 4, 0, -2, -2, 3
1503701556992,+0.636,+0.521,-0.335,-0.461,+0.996,-0.042,-0.171,+2.438,-7.688,-5.625,4, -10, -10, -2, -1, -3, -2, -13
1503701557014,+0.637,+0.520,-0.335,-0.460,+0.973,-0.056,-0.188,+1.938,-6.875,-6.812,1, 0, 0, -1, 0, -1, -1, 4
1503701557029,+0.639,+0.519,-0.334,-0.460,+0.939,-0.048,-0.194,+0.500,-7.625,-8.000,8, -13, -2, -1, -1, -2, -1, 3
1503701557052,+0.640,+0.517,-0.334,-0.459,+0.980,-0.027,-0.198,-0.188,-8.562,-6.938,-4, -2, 2, 0, 0, 0, 0, -6
1503701557074,+0.642,+0.516,-0.335,-0.458,+1.098,-0.004,-0.139,+1.250,-11.062,-9.188,2, 11, 4, 1, -2, 0, -1, 3
1503701557089,+0.643,+0.515,-0.334,-0.457,+1.092,-0.002,-0.153,+3.375,-16.500,-5.188,5, 19, 1, 3, 2, -2, -2, -4
1503701557112,+0.645,+0.513,-0.333,-0.458,+0.979,-0.083,-0.184,+0.625,-19.000,-1.750,0, 5, 5, 1, 2, 1, -1, 8
1503701557134,+0.646,+0.511,-0.331,-0.460,+0.939,-0.040,-0.241,-3.312,-16.688,+5.625,1, 3, 1, 2, 1, 1, -2, -5
1503701557149,+0.647,+0.510,-0.330,-0.461,+0.973,-0.008,-0.217,-2.938,-15.688,+4.438,-3, -5, -2, -4, -3, -2, -2, -8
1503701557173,+0.647,+0.509,-0.329,-0.463,+1.026,-0.013,-0.172,-3.562,-11.125,+9.000,-5, -6, 1, 0, -7, 0, 2, 8
1503701557194,+0.647,+0.508,-0.327,-0.465,+1.000,-0.059,-0.241,-4.500,-10.938,+14.312,-5, -3, 3, -1, 3, -3, 0, 6
1503701557216,+0.646,+0.508,-0.326,-0.468,+0.914,-0.040,-0.251,-6.000,-1.375,+15.875,-6, -14, -1, 3, 1, -1, -3, -7
1503701557232,+0.644,+0.509,-0.326,-0.469,+0.918,-0.055,-0.218,-6.125,+5.562,+11.375,0, 4, -8, -7, -5, -2, 0, 0
1503701557254,+0.643,+0.510,-0.324,-0.471,+0.991,-0.083,-0.215,-2.000,-1.438,+14.188,-1, 4, 0, 5, 3, 1, 1, 1
1503701557275,+0.643,+0.509,-0.323,-0.472,+0.997,-0.080,-0.219,-3.812,-8.875,+6.938,-2, 0, 3, 1, 2, 2, 0, 2
1503701557292,+0.643,+0.508,-0.322,-0.474,+0.932,-0.103,-0.254,-3.250,-11.188,+0.688,5, -3, -2, -3, -3, -3, 0, -3
1503701557314,+0.645,+0.505,-0.320,-0.475,+0.939,-0.076,-0.279,-5.188,-18.125,+3.125,-3, -2, -10, -6, -4, -3, -4, -5
1503701557336,+0.646,+0.504,-0.320,-0.476,+0.945,-0.042,-0.289,-2.000,-7.562,-3.875,-2, -10, -3, -2, -18, -2, -1, -2
1503701557352,+0.647,+0.503,-0.320,-0.475,+0.933,-0.035,-0.294,+1.438,-2.562,-5.875,-1, -2, 7, -5, 2, -2, 0, -8
1503701557374,+0.649,+0.503,-0.320,-0.473,+0.932,-0.040,-0.292,+6.312,+3.562,-10.375,1, 8, -2, 2, 5, -1, -2, 7
1503701557395,+0.649,+0.504,-0.321,-0.471,+0.960,-0.055,-0.243,+3.938,+9.312,-8.875,7, 4, 0, 1, 3, 0, 0, -1
1503701557412,+0.648,+0.505,-0.323,-0.470,+1.011,-0.049,-0.200,+0.062,+12.438,-4.062,-6, 5, 12, 2, 1, 0, 1, 6
1503701557434,+0.647,+0.506,-0.324,-0.469,+1.023,-0.053,-0.216,-1.500,+6.750,-2.250,6, -15, 2, 3, 4, -1, -3, -4
1503701557455,+0.648,+0.505,-0.323,-0.469,+0.983,-0.047,-0.254,-2.625,-4.250,+1.125,-6, -4, -7, -6, 0, 0, 0, -1
1503701557475,+0.649,+0.504,-0.324,-0.469,+0.902,+0.000,-0.254,-0.312,-2.812,-4.750,-10, 1, -6, -5, -4, -2, -1, 0
1503701557493,+0.649,+0.505,-0.323,-0.468,+0.917,-0.033,-0.225,+5.375,+3.688,-1.875,-2, -4, 3, -4, -3, -1, 0, 3
1503701557515,+0.648,+0.507,-0.324,-0.467,+0.955,-0.098,-0.225,+3.500,+13.875,-0.625,2, -7, -1, -1, -1, 0, -1, -7
1503701557532,+0.647,+0.508,-0.324,-0.467,+0.976,-0.080,-0.177,-3.000,+5.812,-0.438,-4, 21, 13, 1, 7, 3, 0, -4
1503701557554,+0.647,+0.509,-0.325,-0.466,+1.011,-0.024,-0.236,-1.312,+5.375,+0.938,16, -9, -14, -8, -8, -4, 0, 5
1503701557580,+0.648,+0.509,-0.325,-0.465,+0.981,+0.023,-0.301,+7.812,+5.938,-2.438,-6, 2, 14, 3, 1, 1, 1, 2
1503701557592,+0.649,+0.510,-0.324,-0.462,+0.955,-0.017,-0.271,+17.375,+9.625,-6.875,-6, -4, -12, 1, 0, -1, -2, -2
1503701557614,+0.650,+0.513,-0.323,-0.458,+0.980,-0.030,-0.246,+21.188,+13.062,-5.812,4, 3, -7, -1, 0, 0, -3, -7
1503701557635,+0.651,+0.514,-0.321,-0.457,+1.067,-0.057,-0.225,+18.875,-7.000,-2.812,8, -13, 7, -1, -1, -1, 0, 12
1503701557652,+0.654,+0.514,-0.318,-0.455,+0.949,-0.069,-0.205,+21.125,-10.125,-4.000,1, 1, -9, -2, -5, -5, -3, -10
1503701557675,+0.655,+0.514,-0.316,-0.454,+0.892,-0.109,-0.156,+7.812,-10.062,-5.875,-7, 5, -2, 0, -1, 1, -1, 9
1503701557695,+0.656,+0.515,-0.316,-0.453,+0.936,-0.078,-0.191,+6.875,-1.000,-5.125,9, 2, -2, 2, 0, 1, 0, 0
1503701557712,+0.657,+0.515,-0.316,-0.452,+0.984,-0.041,-0.208,+4.750,-4.062,-7.875,14, 0, -8, 0, 4, -1, -6, -30
1503701557733,+0.659,+0.514,-0.316,-0.450,+0.944,-0.023,-0.217,+3.625,-4.500,-14.688,-6, -5, -11, -5, -8, -6, -1, 6
1503701557756,+0.659,+0.513,-0.316,-0.450,+0.996,-0.065,-0.212,-1.000,-5.000,-4.750,-8, 6, 5, 3, 1, 0, 3, 8
1503701557772,+0.660,+0.513,-0.317,-0.448,+1.019,-0.042,-0.209,+1.000,-3.312,-9.250,-8, 1, 2, 1, 5, 3, 2, 16
1503701557794,+0.661,+0.513,-0.319,-0.446,+0.943,+0.013,-0.227,-1.688,+8.000,-11.500,-5, -4, 0, 0, 0, -1, 1, -6
1503701557817,+0.660,+0.514,-0.320,-0.445,+0.959,-0.018,-0.246,-0.188,+10.875,-3.250,11, 4, -7, -4, 2, -2, -2, -7
1503701557832,+0.660,+0.515,-0.321,-0.444,+0.981,-0.015,-0.235,+1.312,+12.875,-5.188,3, 12, -4, -2, -2, -1, -4, -21
1503701557861,+0.659,+0.516,-0.321,-0.443,+1.034,-0.046,-0.235,+3.750,+6.562,-1.125,-2, 4, 2, -1, -3, 2, 0, 2
1503701557876,+0.661,+0.516,-0.320,-0.441,+1.011,-0.008,-0.224,+7.688,-2.500,-8.250,-3, 12, 2, 0, -3, -2, -1, 2
1503701557892,+0.662,+0.516,-0.320,-0.439,+0.954,-0.002,-0.232,+9.375,+0.562,-6.125,-6, -18, 1, -1, -2, 1, 1, 1
1503701557914,+0.664,+0.516,-0.319,-0.438,+0.926,-0.023,-0.237,+8.438,-1.625,-7.875,1, -1, 3, 1, -11, -1, 1, -1
1503701557936,+0.664,+0.517,-0.320,-0.435,+0.927,-0.003,-0.228,+10.438,+9.250,-11.375,-7, 1, -2, -3, 1, -4, -1, 2
1503701557952,+0.665,+0.519,-0.320,-0.432,+1.004,-0.005,-0.215,+16.000,+10.062,-9.938,-8, -5, -1, 0, 12, 3, -2, 13
1503701557976,+0.666,+0.520,-0.320,-0.428,+0.988,-0.007,-0.164,+13.438,+5.062,-13.250,5, -2, -1, -6, 3, 0, -1, -16
1503701557996,+0.667,+0.520,-0.319,-0.426,+1.011,-0.021,-0.174,+10.188,-1.312,-9.375,-6, -6, 1, 10, 16, -3, 0, 4
1503701558012,+0.669,+0.521,-0.319,-0.423,+0.990,+0.010,-0.182,+12.688,+3.438,-11.375,-5, -5, 1, 0, 2, 2, 2, -2
1503701558034,+0.670,+0.521,-0.319,-0.421,+0.964,+0.042,-0.174,+9.562,-5.688,-7.250,0, -11, -9, -2, -1, -2, -1, -1
1503701558056,+0.670,+0.523,-0.319,-0.420,+1.022,-0.009,-0.149,+6.500,+3.938,+0.500,-1, 0, -3, -12, -24, -5, -2, -6
1503701558072,+0.671,+0.523,-0.318,-0.419,+1.079,-0.005,-0.133,+7.875,-7.688,-1.500,-2, 4, 6, 3, -4, 2, 1, 4
1503701558094,+0.671,+0.523,-0.317,-0.420,+1.001,+0.023,-0.201,+1.750,-7.938,+7.812,3, -13, -2, -6, -4, 0, -1, 1
1503701558116,+0.672,+0.522,-0.315,-0.421,+0.955,-0.019,-0.216,-0.312,-8.875,+4.000,-18, -4, 0, 3, 26, 3, -3, -3
1503701558132,+0.672,+0.521,-0.314,-0.422,+0.950,-0.006,-0.194,-1.250,-9.375,+4.250,-14, -16, -3, 0, -14, -4, 0, -4
1503701558154,+0.673,+0.520,-0.313,-0.423,+0.973,-0.025,-0.223,-0.625,-14.062,+2.562,-9, -4, -5, 4, -3, 1, 0, -1
1503701558178,+0.674,+0.519,-0.312,-0.424,+0.972,-0.021,-0.208,-1.188,-10.562,+1.375,-7, -13, -6, -5, -1, -1, 0, 1
1503701558192,+0.674,+0.518,-0.312,-0.425,+1.008,-0.016,-0.187,-5.375,-11.625,+4.375,3, 1, -3, -6, -15, -3, -3, 2
1503701558214,+0.674,+0.516,-0.311,-0.427,+1.034,-0.021,-0.185,-7.500,-16.062,+4.312,9, 22, 11, 2, 3, 0, 0, 0
1503701558236,+0.676,+0.513,-0.310,-0.428,+1.036,+0.013,-0.228,-5.562,-24.875,+3.625,22, 31, 2, -4, -3, -5, -1, 1
1503701558252,+0.678,+0.510,-0.308,-0.430,+0.918,+0.013,-0.279,-3.438,-25.625,+5.062,-9, -6, -2, -1, -3, 4, 0, 2
1503701558274,+0.679,+0.508,-0.306,-0.433,+0.897,-0.042,-0.264,-5.375,-17.562,+8.250,27, 11, -1, -2, -15, -7, -3, -1
1503701558296,+0.679,+0.506,-0.305,-0.436,+0.964,-0.038,-0.252,-9.062,-12.875,+10.938,13, 11, 1, -1, -4, 0, -3, 0
1503701558313,+0.679,+0.505,-0.304,-0.438,+0.989,-0.032,-0.261,-9.000,-12.750,+7.188,-24, -3, -12, 1, 7, 1, -3, -4
1503701558334,+0.680,+0.502,-0.304,-0.439,+0.967,-0.018,-0.247,-9.375,-15.312,+0.625,-2, -19, -8, -5, 3, -2, 0, -4
1503701562660,+0.647,+0.520,-0.292,-0.476,+0.937,-0.131,-0.257,+15.000,+4.812,-3.125,-13, 0, 7, 3, 3, 1, 1, 2
1503701562676,+0.647,+0.522,-0.292,-0.473,+0.936,-0.111,-0.229,+14.562,+11.312,-6.312,-15, -23, 12, 2, 1, 1, 0, -5
1503701562701,+0.646,+0.525,-0.292,-0.471,+0.979,-0.127,-0.239,+14.312,+18.188,-2.562,4, -10, -11, -3, -1, -1, 0, -4
1503701562720,+0.646,+0.528,-0.292,-0.468,+0.998,-0.121,-0.214,+13.812,+17.500,-4.312,4, -17, -6, -1, -2, -1, 0, 0
1503701562736,+0.646,+0.530,-0.291,-0.465,+0.960,-0.105,-0.211,+13.062,+4.062,-6.250,-4, 11, 11, 0, 0, 1, -1, -4
1503701562758,+0.647,+0.530,-0.291,-0.463,+0.941,-0.113,-0.197,+9.688,+2.188,-9.562,-7, -1, 0, -3, -11, -4, -2, 0
1503701562780,+0.648,+0.532,-0.291,-0.461,+0.974,-0.106,-0.210,+7.312,+6.000,-5.750,-4, 4, 0, -1, -2, -1, 0, -4
1503701562796,+0.648,+0.533,-0.291,-0.460,+0.992,-0.092,-0.205,+8.438,+9.312,-3.125,-4, 4, -1, 1, 2, 5, 1, 3
1503701562818,+0.648,+0.535,-0.291,-0.458,+1.007,-0.117,-0.205,+7.562,+6.750,-3.188,-2, -10, -6, -3, -4, -4, -1, -3
1503701562835,+0.648,+0.535,-0.291,-0.457,+0.981,-0.132,-0.180,+2.312,+0.125,-2.375,-6, -17, 1, 5, 2, 2, -1, 3
1503701562857,+0.648,+0.536,-0.292,-0.456,+0.892,-0.105,-0.161,+2.625,+3.438,-5.562,-3, 1, -11, -12, -10, -3, -2, -5
1503701562878,+0.647,+0.536,-0.291,-0.457,+1.067,-0.140,-0.131,-1.750,-5.125,+4.000,1, -1, -4, 0, -4, -2, 0, 0
1503701562894,+0.646,+0.537,-0.292,-0.457,+1.129,-0.089,-0.215,-5.250,+1.500,+4.438,-2, 10, 3, 2, 0, -2, -2, 5
1503701562918,+0.647,+0.536,-0.292,-0.457,+1.053,-0.068,-0.172,-5.438,-8.812,+1.062,4, 4, -1, 0, 0, 0, 2, 3
1503701562939,+0.647,+0.535,-0.291,-0.459,+0.950,-0.146,-0.177,-4.938,-12.000,+4.688,-6, 0, 5, 1, 3, -1, -1, -2
1503701562954,+0.648,+0.532,-0.290,-0.461,+0.888,-0.113,-0.264,-7.500,-14.312,+3.188,1, -12, -12, -5, -2, -3, -1, 0
1503701562976,+0.649,+0.530,-0.290,-0.463,+0.918,-0.127,-0.239,-11.625,-11.938,+2.062,-8, -13, -9, -3, -2, -2, -1, -2
1503701562998,+0.649,+0.528,-0.290,-0.465,+1.001,-0.154,-0.215,-16.062,-10.750,-0.688,0, 2, 5, 2, 4, 2, 1, 5
1503701563020,+0.649,+0.526,-0.292,-0.466,+1.017,-0.117,-0.217,-19.750,-9.375,-3.688,3, 4, 0, -1, -2, -1, -2, 2
1503701563036,+0.648,+0.523,-0.294,-0.468,+0.963,-0.100,-0.238,-20.625,-5.625,-1.500,-6, 3, -4, -3, -3, -2, 1, -2
1503701563058,+0.647,+0.521,-0.295,-0.471,+0.917,-0.128,-0.192,-22.750,-9.000,+4.750,6, 15, 4, -1, -2, -1, -3, -7
1503701563080,+0.647,+0.518,-0.297,-0.474,+1.002,-0.126,-0.163,-26.000,-15.875,+2.125,-4, -15, -1, 3, 0, 0, 0, -1
1503701563096,+0.648,+0.513,-0.298,-0.477,+1.007,-0.105,-0.250,-24.625,-26.938,-6.938,-8, -8, 0, 0, -1, -2, -2, -3
1503701563118,+0.653,+0.506,-0.299,-0.478,+0.909,-0.073,-0.301,-22.375,-38.438,-19.875,-1, -1, -1, -2, -1, -2, -1, -1
1503701563140,+0.656,+0.499,-0.300,-0.480,+0.876,-0.062,-0.328,-20.188,-30.375,-17.562,-1, -2, -9, -2, 0, -3, -2, -2
1503701563156,+0.658,+0.494,-0.301,-0.482,+0.932,-0.077,-0.250,-25.562,-24.250,-7.688,1, -19, -6, 0, -4, -2, -5, -17
1503701563179,+0.659,+0.490,-0.302,-0.485,+1.043,-0.094,-0.218,-27.125,-30.625,-5.562,6, 19, -1, -3, 0, -2, -1, 4
1503701563202,+0.660,+0.483,-0.304,-0.488,+0.981,-0.039,-0.329,-30.250,-28.875,-4.812,0, -2, -1, -3, -2, 0, 0, -1
1503701563216,+0.662,+0.478,-0.306,-0.490,+0.853,+0.016,-0.383,-24.000,-16.375,-5.438,-9, -20, 2, 1, -3, -1, 1, 1
1503701563239,+0.662,+0.475,-0.307,-0.492,+0.914,+0.005,-0.345,-14.812,-8.750,+1.938,2, 19, 8, 6, 2, 0, 3, 3
1503701563260,+0.661,+0.475,-0.307,-0.493,+1.028,-0.084,-0.303,-12.188,-0.250,+6.375,1, 0, 2, 0, 2, -2, 0, 2
1503701563277,+0.661,+0.472,-0.308,-0.496,+0.957,-0.069,-0.302,-18.062,-16.125,+2.125,-13, -4, -5, -2, -2, 0, -6, -16
1503701563299,+0.661,+0.469,-0.308,-0.498,+0.903,-0.051,-0.335,-16.625,-12.500,+1.125,-3, -14, 0, 2, -1, -1, 0, 2
1503701563320,+0.661,+0.467,-0.309,-0.499,+0.944,-0.026,-0.354,-13.750,-10.000,+1.750,-4, -7, 3, -1, 2, -2, 1, 4
1503701563340,+0.662,+0.465,-0.309,-0.501,+0.968,-0.037,-0.337,-11.500,-12.000,-0.062,5, -3, -6, -3, -2, 0, -1, 4
1503701563359,+0.662,+0.463,-0.309,-0.502,+0.946,-0.047,-0.322,-9.750,-12.500,-0.750,-3, 6, 5, 0, -1, 0, -1, 0
1503701563380,+0.663,+0.460,-0.309,-0.503,+0.938,-0.038,-0.351,-7.438,-13.000,-0.562,-12, 3, 0, 0, -1, -1, -5, -20
1503701563400,+0.664,+0.458,-0.308,-0.504,+0.913,-0.028,-0.367,-5.250,-11.500,-0.875,10, -6, -13, -2, -3, -1, 4, 6
1503701563419,+0.665,+0.457,-0.308,-0.504,+0.919,-0.039,-0.367,-1.562,-9.938,-0.250,3, 10, -4, -3, -1, 0, -2, -7
1503701563434,+0.665,+0.456,-0.307,-0.504,+0.950,-0.045,-0.366,-0.062,-4.562,+0.312,10, -1, -3, -3, -2, -2, 0, 5
1503701563456,+0.666,+0.456,-0.307,-0.504,+0.960,-0.006,-0.354,+3.438,-4.250,-0.625,-10, 4, 4, 1, -1, 1, 1, 8
1503701563480,+0.667,+0.456,-0.305,-0.503,+0.951,+0.015,-0.385,+10.625,-4.750,+1.312,-7, -12, 0, -1, -2, 1, 11, -1
1503701563494,+0.668,+0.457,-0.303,-0.503,+0.912,-0.012,-0.387,+15.062,-0.375,+5.875,14, 14, 5, 1, 8, 0, 0, -1
1503701563516,+0.668,+0.460,-0.301,-0.502,+0.928,-0.043,-0.367,+16.375,+7.125,+11.500,8, 12, 3, -1, -6, 0, -5, -1
1503701563539,+0.667,+0.463,-0.299,-0.501,+0.978,-0.032,-0.360,+17.375,+9.375,+9.625,-26, 11, -3, -4, 0, 2, 0, 9
1503701563561,+0.667,+0.467,-0.296,-0.500,+0.975,-0.027,-0.357,+24.188,+8.938,+13.188,4, 7, 1, -1, 1, 12, -3, 11
1503701563577,+0.667,+0.470,-0.293,-0.499,+0.967,-0.026,-0.366,+28.125,+4.500,+15.188,-21, -32, -2, 1, 14, 5, 1, -20
1503701563599,+0.667,+0.473,-0.286,-0.499,+0.983,-0.117,-0.389,+31.812,-5.250,+24.062,32, 6, -3, 0, -6, -13, -6, 0
1503701563621,+0.668,+0.474,-0.280,-0.501,+0.966,-0.100,-0.401,+23.688,-17.188,+24.688,41, 1, -5, -2, -5, -8, -5, 0
1503701563639,+0.668,+0.477,-0.273,-0.502,+0.973,-0.050,-0.327,+28.875,-14.938,+28.250,-22, -10, 8, 0, -1, -3, -1, -17
1503701563659,+0.668,+0.479,-0.266,-0.503,+0.958,-0.082,-0.358,+33.000,-17.250,+31.688,8, -16, -10, -4, -6, -4, -5, 7
1503701563681,+0.668,+0.481,-0.258,-0.505,+0.936,-0.118,-0.376,+31.188,-15.000,+34.500,-24, -13, -3, -2, -5, -4, -4, -11
1503701563696,+0.668,+0.484,-0.250,-0.507,+0.938,-0.130,-0.370,+32.875,-14.250,+37.562,-1, 13, 5, 10, -10, 9, 3, 3
1503701563719,+0.667,+0.487,-0.242,-0.509,+0.947,-0.130,-0.378,+35.938,-18.500,+41.438,0, 10, 0, -3, 5, 2, -6, -8
1503701563741,+0.667,+0.489,-0.232,-0.512,+0.911,-0.184,-0.396,+38.688,-22.625,+41.875,-6, 9, -6, -7, -13, -9, 4, -1
1503701563763,+0.667,+0.492,-0.221,-0.514,+0.895,-0.228,-0.380,+38.125,-19.312,+45.375,3, 0, -6, -5, -3, -2, 0, 15
1503701563779,+0.665,+0.495,-0.212,-0.517,+0.866,-0.232,-0.399,+37.688,-14.188,+46.875,0, 6, 6, 1, 1, -2, -2, -8
1503701563801,+0.663,+0.499,-0.203,-0.519,+0.843,-0.234,-0.375,+35.125,-9.750,+45.188,4, 19, 16, 4, 8, -1, 0, 1
1503701563816,+0.661,+0.503,-0.194,-0.522,+0.836,-0.238,-0.365,+34.562,-3.312,+46.500,-10, -27, -14, 0, 4, 3, 1, 2
1503701563841,+0.658,+0.508,-0.187,-0.523,+0.858,-0.257,-0.355,+35.500,+5.375,+44.500,0, 6, -2, -2, 0, -1, -1, 3
1503701563861,+0.655,+0.513,-0.180,-0.524,+0.883,-0.292,-0.352,+34.938,+2.375,+39.000,0, -5, 0, -2, -2, -1, -1, 1
1503701563877,+0.654,+0.517,-0.173,-0.525,+0.849,-0.335,-0.341,+33.000,-5.750,+33.312,0, -11, 5, 3, 3, 0, 1, 0
1503701563899,+0.652,+0.520,-0.166,-0.526,+0.817,-0.355,-0.355,+31.500,-5.062,+28.188,-1, -1, -4, -5, -2, -2, -1, -5
1503701563921,+0.650,+0.524,-0.160,-0.526,+0.822,-0.354,-0.360,+29.000,+6.000,+27.000,11, -5, -5, -1, 0, 5, 3, 18
1503701563936,+0.648,+0.529,-0.155,-0.526,+0.851,-0.352,-0.332,+28.750,+11.188,+25.938,-5, 16, 9, 3, 4, 2, -2, 0
1503701563959,+0.646,+0.532,-0.151,-0.525,+0.858,-0.373,-0.321,+28.500,+2.625,+18.688,-13, 0, -4, -4, -4, -6, -1, -7
1503701563981,+0.646,+0.535,-0.146,-0.524,+0.846,-0.362,-0.320,+30.375,-6.000,+12.375,-6, -8, -2, -1, -1, -4, 2, 5
1503701563995,+0.647,+0.538,-0.140,-0.522,+0.844,-0.385,-0.339,+34.688,-4.500,+8.875,4, -4, -3, 0, -2, -2, -4, -10
1503701564018,+0.648,+0.541,-0.135,-0.519,+0.858,-0.398,-0.317,+35.750,-5.250,+6.812,-2, -9, -2, 0, 0, 0, 0, -1
1503701564042,+0.648,+0.544,-0.130,-0.517,+0.838,-0.420,-0.323,+34.875,-2.438,+4.312,-5, 9, 8, 1, -2, -1, 1, 6
1503701564055,+0.648,+0.547,-0.126,-0.514,+0.847,-0.407,-0.301,+33.188,-1.438,+5.562,4, 2, 7, 1, 0, 0, -1, -2
1503701564078,+0.648,+0.550,-0.122,-0.512,+0.869,-0.425,-0.268,+26.500,-1.375,+6.312,-11, 16, 17, 2, 0, -1, -2, 4
1503701564100,+0.647,+0.553,-0.119,-0.510,+0.879,-0.408,-0.269,+20.812,+2.062,+8.312,4, -13, -11, -4, -2, -1, 0, 3
1503701564117,+0.646,+0.556,-0.117,-0.510,+0.882,-0.398,-0.276,+15.188,+5.312,+12.125,7, 1, -4, -1, -2, 0, -1, -4
1503701564138,+0.644,+0.558,-0.115,-0.510,+0.884,-0.418,-0.233,+8.250,+4.188,+14.250,18, 17, -3, 3, 3, 0, -2, 0
1503701564160,+0.642,+0.559,-0.115,-0.512,+0.858,-0.451,-0.183,-6.562,+2.312,+17.000,-6, -9, -6, -2, -1, -2, -2, -2
1503701564175,+0.637,+0.561,-0.117,-0.516,+0.852,-0.471,-0.185,-27.000,+16.562,+20.125,0, -5, -4, 0, 19, -2, -1, -1
1503701564198,+0.632,+0.562,-0.121,-0.520,+0.900,-0.413,-0.271,-32.250,+28.750,+22.000,3, 12, -6, -4, -5, 6, 3, 0
1503701564220,+0.628,+0.562,-0.124,-0.524,+0.941,-0.392,-0.296,-26.750,+15.812,+23.500,-7, 2, -7, -2, -4, -3, -5, -5
1503701564235,+0.625,+0.560,-0.124,-0.530,+0.827,-0.417,-0.312,-26.000,+1.625,+25.312,2, -6, 4, -1, 16, 9, 3, 1
1503701564258,+0.621,+0.559,-0.125,-0.535,+0.779,-0.427,-0.291,-31.125,+11.250,+28.375,-2, -24, -10, -7, -13, -5, 0, 3
1503701564280,+0.614,+0.560,-0.129,-0.541,+0.782,-0.452,-0.253,-33.625,+32.000,+26.375,-4, -14, -18, -5, -12, -5, -3, -3
1503701564295,+0.606,+0.562,-0.133,-0.547,+0.833,-0.540,-0.281,-39.875,+42.188,+32.312,-12, 24, 9, 6, 4, 0, -1, -7
1503701564318,+0.599,+0.563,-0.138,-0.553,+0.914,-0.519,-0.285,-42.188,+34.500,+28.812,8, -6, 2, -2, -4, -1, -1, -1
1503701564345,+0.594,+0.561,-0.142,-0.559,+0.884,-0.404,-0.322,-42.750,+20.875,+25.562,6, 7, -5, -4, -5, -1, -1, 2
1503701564355,+0.590,+0.559,-0.146,-0.565,+0.793,-0.394,-0.302,-39.500,+15.438,+22.188,-16, -10, -1, -1, -1, -1, 0, 1
1503701564379,+0.585,+0.558,-0.149,-0.570,+0.761,-0.436,-0.278,-39.750,+20.500,+18.125,-8, -21, -1, 4, 9, -1, -2, -1
1503701564400,+0.578,+0.558,-0.156,-0.575,+0.813,-0.488,-0.274,-45.625,+37.188,+16.562,15, 12, -3, -3, -9, -3, 1, 10
1503701564415,+0.570,+0.558,-0.163,-0.580,+0.829,-0.498,-0.282,-52.438,+47.750,+18.000,-3, -5, 5, 6, 10, 0, -2, -12
1503701564439,+0.561,+0.558,-0.172,-0.587,+0.824,-0.492,-0.268,-61.938,+56.000,+20.562,9, -14, -6, -2, 17, 2, 0, 2
1503701564460,+0.552,+0.557,-0.184,-0.593,+0.897,-0.397,-0.310,-68.250,+61.875,+17.625,0, -3, -8, -6, -7, -1, 3, 2
1503701564477,+0.543,+0.556,-0.198,-0.597,+0.900,-0.296,-0.330,-69.625,+75.062,+12.438,4, 6, 3, 1, 2, 1, -5, -7
1503701564498,+0.534,+0.555,-0.212,-0.601,+0.884,-0.233,-0.318,-66.312,+71.812,+6.250,-1, 10, 4, 5, -5, -2, -3, 5
1503701564520,+0.527,+0.553,-0.226,-0.604,+0.947,-0.215,-0.257,-62.312,+61.875,+0.938,-6, 3, -2, 2, 32, 6, 1, -1
1503701564535,+0.522,+0.551,-0.238,-0.606,+1.020,-0.262,-0.212,-57.562,+46.312,-1.250,9, 17, 2, -8, -14, -6, -2, 4
1503701564558,+0.516,+0.550,-0.250,-0.607,+1.017,-0.277,-0.201,-50.750,+53.625,-7.500,-6, -11, -6, -4, -8, -2, -2, 1
1503701564581,+0.512,+0.549,-0.262,-0.607,+0.923,-0.333,-0.218,-46.438,+49.312,-18.625,-1, 11, 2, 3, 10, 3, -4, -3
1503701564595,+0.509,+0.549,-0.271,-0.605,+0.855,-0.335,-0.164,-29.438,+43.375,-24.062,11, 12, 3, -1, -13, -7, 2, -6
1503701564619,+0.507,+0.549,-0.279,-0.603,+0.892,-0.291,-0.170,-16.938,+40.938,-15.875,-2, 17, 5, 0, -6, 1, 4, 8
1503701564640,+0.504,+0.551,-0.286,-0.601,+0.885,-0.436,-0.200,-14.562,+44.688,-21.062,13, 14, -3, 1, -2, -3, -3, 2
1503701564655,+0.501,+0.552,-0.293,-0.599,+0.880,-0.540,-0.219,-18.000,+47.312,-28.562,-8, -3, -2, -7, -9, -3, -3, -2
1503701564678,+0.499,+0.552,-0.299,-0.598,+0.850,-0.474,-0.196,-19.438,+29.438,-23.062,-6, -16, -3, -1, -8, 0, 0, -19
1503701564701,+0.498,+0.552,-0.303,-0.596,+0.872,-0.398,-0.169,-14.875,+21.000,-21.625,-11, -15, -5, -13, -36, 6, 2, 9
1503701564715,+0.497,+0.552,-0.307,-0.595,+0.914,-0.442,-0.185,-12.000,+21.125,-18.688,-1, -2, -1, -4, -7, -4, -2, 6
1503701564738,+0.494,+0.553,-0.311,-0.595,+0.961,-0.514,-0.168,-13.188,+24.125,-11.312,-1, 2, -5, -2, 1, -9, -3, -1
1503701564761,+0.492,+0.553,-0.313,-0.595,+0.989,-0.524,-0.161,-10.500,+15.625,-6.875,11, 0, 1, 3, 10, 0, -4, 3
1503701564781,+0.491,+0.553,-0.313,-0.595,+0.968,-0.490,-0.133,-5.562,-0.938,-5.812,-4, 11, -8, -6, -8, -5, -1, -1
1503701564799,+0.492,+0.552,-0.311,-0.597,+0.923,-0.450,-0.180,-4.625,-12.188,+0.938,5, -8, -8, -7, 1, 0, -1, 11
1503701564820,+0.492,+0.552,-0.307,-0.599,+0.834,-0.491,-0.217,-1.562,-14.250,+5.125,-2, 9, 1, -2, 0, -2, 2, 14
1503701564835,+0.492,+0.552,-0.304,-0.601,+0.800,-0.488,-0.231,+4.938,-4.000,+1.562,0, -1, 0, 1, 3, 1, 5, 8
1503701564858,+0.491,+0.553,-0.303,-0.600,+0.845,-0.411,-0.205,+8.438,+7.062,+2.062,-25, -3, 5, 4, 4, 1, 2, -4
1503701564881,+0.491,+0.556,-0.304,-0.599,+0.908,-0.356,-0.158,+9.062,+12.188,+1.125,5, -3, -2, -6, -9, -6, -5, 1
1503701564895,+0.490,+0.558,-0.305,-0.596,+0.961,-0.320,-0.117,+8.812,+13.312,-3.062,4, -5, -1, 0, -8, -19, 1, -6
1503701564918,+0.492,+0.558,-0.307,-0.593,+0.948,-0.275,-0.130,+9.000,+8.375,-11.688,-15, 10, 6, 0, 6, 11, 7, 2
1503701564940,+0.495,+0.557,-0.309,-0.590,+0.886,-0.247,-0.141,+7.312,-1.688,-22.375,16, -4, -2, -3, -7, -17, -13, -7
1503701564956,+0.500,+0.556,-0.310,-0.587,+0.855,-0.264,-0.160,+9.438,-9.438,-31.188,35, 5, 3, 0, -4, 2, 0, -17
1503701564980,+0.506,+0.554,-0.311,-0.584,+0.894,-0.330,-0.145,+10.438,-13.688,-37.125,-10, -12, -5, 2, 2, 4, -6, 2
1503701565000,+0.510,+0.552,-0.313,-0.580,+0.981,-0.382,-0.116,+6.312,-9.312,-39.688,-20, 0, 5, 5, 3, 6, 1, -7
1503701565023,+0.512,+0.552,-0.317,-0.577,+0.981,-0.333,-0.134,+1.812,+10.250,-29.375,12, -7, -6, -2, 3, 1, 0, 15
1503701565048,+0.514,+0.552,-0.320,-0.574,+0.908,-0.266,-0.109,-0.938,+9.750,-23.562,22, 3, 0, 0, 3, 5, 1, -5
1503701565063,+0.516,+0.550,-0.323,-0.571,+0.935,-0.273,-0.131,+1.000,+2.875,-27.438,5, 0, -1, -1, -8, 0, 2, 3
1503701565083,+0.519,+0.549,-0.325,-0.568,+1.024,-0.333,-0.108,-1.562,-0.625,-27.062,-19, 2, 1, -2, -10, -4, -1, -4
1503701565098,+0.521,+0.548,-0.328,-0.567,+1.043,-0.326,-0.127,-4.375,-1.188,-22.250,35, 14, -1, -5, -6, 0, 1, -2
1503701565121,+0.524,+0.545,-0.329,-0.565,+1.026,-0.264,-0.141,-2.562,-13.312,-24.188,-34, -14, -3, -2, 3, 2, -2, -4
1503701565143,+0.526,+0.544,-0.331,-0.564,+0.938,-0.234,-0.162,-2.812,-4.938,-18.812,-5, 2, 0, -3, -3, 0, 5, 0
1503701565158,+0.527,+0.543,-0.332,-0.563,+0.995,-0.229,-0.121,-5.062,+4.000,-7.062,-7, 3, 3, -2, 8, 1, -2, -2
1503701565182,+0.525,+0.544,-0.334,-0.562,+1.105,-0.242,-0.109,-4.125,+11.438,+2.312,-11, -9, 4, 1, 1, -1, 1, 0
1503701565203,+0.524,+0.545,-0.334,-0.563,+1.060,-0.227,-0.157,-1.250,+1.125,+14.062,3, -3, -5, 2, 5, -2, -2, 6
1503701565218,+0.524,+0.544,-0.331,-0.566,+0.969,-0.256,-0.144,-4.750,-11.750,+15.125,0, 1, -7, -4, -2, -10, -1, 2
1503701565240,+0.522,+0.544,-0.329,-0.568,+0.979,-0.285,-0.123,-5.938,-9.688,+21.062,-7, -1, -2, 0, -2, 4, -2, 10
1503701565263,+0.519,+0.546,-0.327,-0.571,+0.988,-0.275,-0.128,-5.188,-0.875,+30.562,9, 12, -3, 2, 1, -5, -6, -10
1503701565283,+0.515,+0.547,-0.324,-0.574,+0.942,-0.269,-0.141,-4.938,+0.375,+32.938,10, 13, 3, 1, -2, 0, -2, -1
1503701565300,+0.513,+0.548,-0.321,-0.577,+0.890,-0.287,-0.168,-4.375,-2.938,+28.062,-2, -17, -7, -1, 8, 2, 2, -1
1503701565317,+0.512,+0.548,-0.319,-0.580,+0.861,-0.320,-0.167,-1.812,-6.938,+18.688,-7, -4, 12, 7, 6, 0, -3, -5
1503701565338,+0.511,+0.548,-0.317,-0.581,+0.885,-0.346,-0.156,-1.188,-5.938,+9.250,10, 13, 9, 2, 4, -1, -3, 0
1503701565360,+0.510,+0.548,-0.316,-0.582,+0.906,-0.335,-0.144,-3.125,-0.688,+3.562,-6, -13, -4, -1, -2, 0, 0, -8
1503701565376,+0.510,+0.548,-0.317,-0.582,+0.882,-0.304,-0.151,-5.688,+2.375,-2.750,7, 17, 2, 1, -4, -4, 0, 5
1503701565398,+0.511,+0.547,-0.318,-0.581,+0.877,-0.298,-0.155,-4.625,+1.812,-11.938,-1, -2, 0, 1, 1, 0, -5, -9
1503701565420,+0.513,+0.546,-0.320,-0.580,+0.889,-0.307,-0.164,-3.250,+2.500,-19.375,-4, -12, -1, -1, -5, -3, -1, -1
1503701565436,+0.514,+0.545,-0.323,-0.578,+0.911,-0.318,-0.132,-5.688,+4.250,-25.625,0, -2, -3, -5, 2, 1, 0, 7
1503701565458,+0.516,+0.543,-0.327,-0.576,+0.957,-0.304,-0.135,-6.062,+3.438,-27.125,1, -3, -4, -1, -3, -4, -2, -3
1503701565483,+0.518,+0.542,-0.330,-0.574,+0.987,-0.283,-0.135,-6.812,+2.750,-28.812,11, 4, -4, 2, -1, 0, -1, 2
1503701565496,+0.521,+0.539,-0.333,-0.572,+0.977,-0.268,-0.146,-7.625,-0.625,-26.688,0, 6, -7, -13, -7, -4, 0, -5
1503701565519,+0.523,+0.537,-0.336,-0.570,+0.967,-0.253,-0.149,-7.312,-1.312,-23.188,-10, -7, -6, 2, 2, 0, -2, -5
1503701565540,+0.525,+0.535,-0.339,-0.569,+0.945,-0.244,-0.146,-7.312,-2.625,-24.875,-3, 9, -6, 0, -1, 1, 2, 15
1503701565563,+0.527,+0.533,-0.341,-0.568,+0.924,-0.248,-0.169,-8.750,-0.562,-24.375,-7, -1, 6, 4, 3, 2, 2, -1
1503701565578,+0.528,+0.531,-0.344,-0.566,+0.974,-0.249,-0.134,-10.312,+4.125,-19.750,-3, -18, 4, 13, 13, -1, 1, 4
1503701565600,+0.528,+0.530,-0.347,-0.565,+1.005,-0.240,-0.125,-8.938,+5.625,-17.250,1, 0, 7, 1, 0, 1, -2, 5
1503701565617,+0.530,+0.528,-0.349,-0.564,+1.014,-0.226,-0.104,-11.438,-6.938,-17.062,-4, -5, -4, -6, -8, -3, -2, -5
1503701565638,+0.531,+0.525,-0.351,-0.565,+1.094,-0.240,-0.127,-16.312,-15.938,-16.938,1, 8, -1, -1, 1, 1, 1, 2
1503701565660,+0.531,+0.523,-0.353,-0.566,+1.028,-0.226,-0.145,-17.375,-3.375,-4.312,-6, -9, 0, -2, -4, -1, -2, -8
1503701565683,+0.532,+0.519,-0.355,-0.568,+0.961,-0.201,-0.104,-25.438,-17.312,-11.125,-1, -4, -4, -5, -5, -3, -3, -7
1503701565698,+0.535,+0.512,-0.356,-0.570,+0.922,-0.181,-0.133,-26.000,-32.500,-18.625,-2, -2, -2, -3, -4, -3, -1, -13
1503701565720,+0.537,+0.507,-0.358,-0.571,+0.875,-0.191,-0.165,-26.688,-20.812,-21.562,-13, -5, 0, 1, -3, 0, 2, 13
1503701565743,+0.539,+0.502,-0.362,-0.572,+0.905,-0.222,-0.154,-30.688,-8.500,-27.875,-4, -3, -2, 5, 26, 2, 0, 2
1503701565758,+0.538,+0.498,-0.366,-0.573,+1.009,-0.210,-0.181,-32.188,+0.312,-20.688,11, -4, -2, 5, -5, 1, -2, -14
1503701565783,+0.537,+0.494,-0.371,-0.574,+1.042,-0.159,-0.201,-35.125,+2.688,-13.562,-7, 2, -6, 3, 6, -1, -1, -5
1503701565803,+0.537,+0.489,-0.375,-0.576,+1.015,-0.135,-0.216,-35.625,-8.500,-13.562,5, -5, -7, -2, -7, -2, -1, 0
1503701565818,+0.538,+0.483,-0.377,-0.579,+0.970,-0.149,-0.212,-34.062,-18.625,-12.562,-9, -1, 1, 3, -4, 1, -3, 1
1503701565840,+0.541,+0.475,-0.379,-0.581,+0.975,-0.089,-0.222,-31.875,-31.188,-20.625,-15, -8, -4, -6, 2, -2, 0, 0
1503701565863,+0.545,+0.467,-0.379,-0.584,+0.952,-0.083,-0.221,-27.812,-42.250,-25.688,5, -1, -5, -3, 2, 1, -2, -1
1503701565877,+0.549,+0.459,-0.380,-0.586,+0.955,-0.126,-0.293,-27.938,-33.062,-20.875,0, 2, -2, -6, -6, -3, 0, 1
1503701565900,+0.551,+0.454,-0.380,-0.588,+0.955,-0.106,-0.301,-23.375,-23.438,-13.750,7, 5, 3, -7, 2, 1, 2, 14
1503701565923,+0.552,+0.449,-0.382,-0.590,+0.967,-0.062,-0.267,-22.438,-20.375,-10.750,-1, 1, -4, -5, -3, -2, -8, -16
1503701565937,+0.553,+0.445,-0.382,-0.591,+1.006,-0.070,-0.263,-18.625,-17.250,-8.188,1, -3, -6, 4, -2, 2, -1, -7
1503701565960,+0.554,+0.441,-0.383,-0.593,+0.985,-0.055,-0.276,-14.250,-14.062,-6.312,-10, -1, 2, -6, -5, -4, 1, 27
1503701565987,+0.554,+0.439,-0.383,-0.594,+0.944,-0.079,-0.266,-14.375,-12.312,+1.312,-15, -12, -10, -5, 2, -2, -1, 2
1503701565998,+0.553,+0.438,-0.384,-0.596,+0.948,-0.072,-0.292,-14.250,-1.812,+9.062,0, 2, -1, -2, 1, -2, -1, 8
1503701566020,+0.550,+0.438,-0.385,-0.597,+0.968,-0.071,-0.283,-10.688,+11.375,+13.312,-2, 3, 6, 4, 4, 1, 0, -9
1503701566036,+0.548,+0.439,-0.385,-0.599,+0.991,-0.085,-0.283,-9.750,+4.188,+16.750,3, -1, -2, -1, -3, -1, -3, -11
1503701566059,+0.547,+0.439,-0.385,-0.601,+0.946,-0.081,-0.277,-8.062,-0.375,+9.875,14, -2, -6, -6, 1, 0, 0, 4
1503701566080,+0.545,+0.439,-0.385,-0.602,+0.940,-0.089,-0.308,-6.125,+2.938,+8.875,1, 6, 5, -1, 0, 1, -2, -12
1503701566096,+0.546,+0.438,-0.384,-0.603,+0.904,-0.083,-0.343,-0.312,-5.375,+4.000,-4, 4, 2, 2, 3, -2, -1, 2
1503701566119,+0.547,+0.438,-0.382,-0.602,+0.894,-0.107,-0.312,+5.562,-4.500,-2.750,-2, -5, -5, -1, 0, 1, -1, 1
1503701566141,+0.547,+0.438,-0.382,-0.602,+0.928,-0.143,-0.257,+4.750,+0.188,-1.438,-2, -8, -5, -3, -6, -2, 0, -4
1503701566157,+0.547,+0.439,-0.382,-0.602,+0.979,-0.131,-0.253,-0.188,+0.875,-2.938,2, 11, -5, 2, 0, 0, 0, 8
1503701566178,+0.548,+0.439,-0.383,-0.601,+0.991,-0.096,-0.270,-0.312,-0.375,-5.375,-2, 6, 2, -1, 1, 0, 1, 1
1503701566200,+0.549,+0.438,-0.383,-0.600,+0.971,-0.068,-0.281,+3.062,-2.812,-5.562,5, -3, -1, 0, -3, -1, 0, -9
1503701566224,+0.551,+0.438,-0.381,-0.599,+0.992,-0.077,-0.288,+5.938,-9.938,-4.000,-1, -6, 3, -2, -2, 2, 1, 3
1503701566240,+0.552,+0.438,-0.380,-0.599,+0.978,-0.082,-0.287,+8.438,-9.375,+1.688,-1, 10, 2, 1, 0, 0, 1, -1
1503701566260,+0.553,+0.438,-0.377,-0.599,+0.902,-0.081,-0.299,+11.312,-5.188,+6.562,-5, -11, -1, -4, -7, -3, 0, 2
1503701566276,+0.553,+0.441,-0.376,-0.599,+0.900,-0.091,-0.312,+13.750,+8.500,+6.375,2, -2, -5, -1, 6, 1, -1, -3
1503701566299,+0.552,+0.444,-0.376,-0.598,+0.921,-0.099,-0.296,+12.312,+14.875,+9.750,5, 6, 2, 3, 6, 2, 1, 2
1503701566321,+0.551,+0.447,-0.375,-0.596,+0.967,-0.138,-0.267,+11.812,+14.062,+7.500,6, -2, -4, -2, -8, -4, 0, -2
1503701566343,+0.550,+0.450,-0.376,-0.595,+1.007,-0.123,-0.232,+10.062,+12.062,+2.562,-1, 3, -2, -2, -4, 0, -2, 3
1503701566358,+0.550,+0.453,-0.375,-0.593,+0.956,-0.098,-0.310,+15.688,+11.500,+3.312,-12, -9, -4, -1, -4, -2, -3, -4
1503701566380,+0.550,+0.456,-0.374,-0.591,+0.873,-0.085,-0.318,+17.438,+16.688,+3.875,-6, -4, 1, -3, -13, -3, 0, -1
1503701566402,+0.550,+0.459,-0.374,-0.589,+0.896,-0.125,-0.275,+19.125,+19.750,+4.812,-3, 3, 3, 2, 7, 2, 0, -4
1503701566419,+0.548,+0.465,-0.374,-0.586,+0.988,-0.173,-0.205,+19.812,+26.562,+6.688,-7, -4, -5, 6, 8, 4, 3, 2
1503701566440,+0.546,+0.470,-0.375,-0.584,+1.008,-0.173,-0.176,+11.562,+26.875,+6.688,-1, 3, 2, -5, -14, -2, 0, 1
1503701566463,+0.545,+0.473,-0.375,-0.582,+0.989,-0.116,-0.198,+12.375,+14.125,+3.250,9, -4, -4, -1, 1, -2, 2, -4
1503701566478,+0.546,+0.474,-0.374,-0.581,+0.945,-0.150,-0.209,+10.500,-4.500,-3.312,3, -5, -1, -1, 1, -1, -2, 1
1503701566500,+0.547,+0.474,-0.374,-0.580,+0.929,-0.180,-0.191,+3.062,-1.438,-7.500,9, 6, 1, 2, 5, -1, 0, -5
1503701566523,+0.547,+0.475,-0.374,-0.579,+0.999,-0.188,-0.192,+0.688,+5.812,-3.938,-1, -2, -4, -4, -2, -1, -4, 0
1503701566538,+0.547,+0.475,-0.375,-0.579,+1.041,-0.152,-0.192,-2.812,+0.625,-5.500,-3, -2, -4, -2, 4, -2, -2, 1
1503701566560,+0.548,+0.474,-0.376,-0.578,+0.982,-0.114,-0.210,-3.562,-5.562,-6.500,-6, -8, 5, 2, 2, 1, 1, -3
1503701566576,+0.549,+0.472,-0.376,-0.578,+0.943,-0.131,-0.203,-3.812,-9.312,-6.500,-4, 23, 24, 1, -4, -1, -2, 3
1503701566599,+0.548,+0.472,-0.377,-0.579,+1.002,-0.139,-0.212,-8.875,+3.062,+1.562,-11, -9, -8, -2, -3, 1, -2, -9
1503701566622,+0.547,+0.471,-0.378,-0.580,+1.020,-0.116,-0.227,-11.500,+0.625,+1.375,-10, -15, -8, 0, 4, -2, -2, -5
1503701566637,+0.549,+0.469,-0.378,-0.580,+0.958,-0.069,-0.273,-4.188,-8.438,-6.500,12, 11, 3, 2, 0, 3, 4, 6
1503701566659,+0.550,+0.468,-0.378,-0.580,+0.923,-0.110,-0.259,-0.062,-3.750,-2.875,-4, -12, -13, -1, -2, -1, -1, 1
1503701566680,+0.548,+0.469,-0.378,-0.580,+0.921,-0.173,-0.224,-4.688,+7.312,+2.000,2, 15, 11, 3, 5, 2, 3, 6
1503701566697,+0.547,+0.469,-0.379,-0.581,+0.977,-0.160,-0.194,-10.375,+6.062,+2.812,-2, -27, -16, -4, -2, -2, -1, 0
1503701566721,+0.545,+0.469,-0.380,-0.581,+1.020,-0.135,-0.177,-11.688,-0.438,+1.750,-2, 2, -5, -4, -3, -3, -2, -7
1503701566740,+0.546,+0.467,-0.381,-0.582,+0.995,-0.101,-0.209,-10.562,-6.500,-3.250,2, -14, -9, -3, 0, -1, 0, 0
1503701566757,+0.548,+0.464,-0.381,-0.583,+0.947,-0.108,-0.236,-6.875,-16.750,-8.688,-8, -11, -16, -5, -2, 3, 1, -1
1503701566778,+0.549,+0.462,-0.380,-0.583,+0.919,-0.120,-0.275,-5.500,-12.125,-7.438,1, -5, 1, 0, -5, -2, 1, 7
1503701566800,+0.550,+0.460,-0.381,-0.583,+0.948,-0.112,-0.259,-5.688,-4.438,-7.125,4, -2, 2, 0, 4, -3, 0, -1
1503701566823,+0.551,+0.459,-0.382,-0.583,+1.010,-0.136,-0.219,-6.625,-6.875,-10.375,-5, -13, 0, -3, 0, -2, -3, 0
1503701566838,+0.553,+0.456,-0.382,-0.583,+1.013,-0.130,-0.183,-8.875,-18.000,-15.125,4, 3, -3, -5, -4, -3, 1, -2
1503701566860,+0.555,+0.453,-0.382,-0.584,+0.956,-0.118,-0.207,-12.250,-21.375,-14.562,2, 0, 2, 3, 1, 1, 0, -10
1503701566883,+0.557,+0.448,-0.382,-0.585,+0.933,-0.083,-0.289,-13.938,-19.812,-13.062,-18, -7, -9, -1, -1, 0, -2, 1
1503701566899,+0.560,+0.444,-0.382,-0.586,+0.917,-0.038,-0.309,-9.438,-15.812,-11.750,7, 7, 11, 0, -2, -2, -1, 1
1503701566922,+0.561,+0.442,-0.383,-0.586,+0.948,-0.059,-0.288,-4.812,-8.750,-9.188,20, 25, -2, -2, 9, 5, 2, 5
1503701566942,+0.562,+0.441,-0.383,-0.585,+0.995,-0.092,-0.244,-3.938,-6.875,-7.375,-6, -9, -7, -15, -41, -10, -3, -1
1503701566959,+0.562,+0.440,-0.384,-0.586,+0.991,-0.106,-0.226,-10.062,-5.125,-3.000,-10, -4, -4, -4, -10, -3, -2, -7
1503701566980,+0.561,+0.438,-0.385,-0.587,+0.985,-0.067,-0.265,-15.062,-7.312,+0.875,-10, 6, 28, 11, 12, -3, -3, -4
1503701567002,+0.561,+0.436,-0.385,-0.589,+0.958,-0.026,-0.308,-13.250,-5.750,+4.375,-10, -11, -15, -2, 26, 6, 0, -4
1503701567018,+0.562,+0.435,-0.385,-0.590,+0.937,-0.047,-0.299,-5.938,-9.125,+1.625,-3, -4, -1, 2, 1, -4, -2, 1
1503701567040,+0.562,+0.433,-0.384,-0.591,+0.936,-0.091,-0.292,-3.312,-9.812,-0.500,-12, -10, -8, -2, 0, -1, -2, 3
1503701567063,+0.563,+0.432,-0.383,-0.591,+0.944,-0.098,-0.277,-5.375,-7.188,-2.375,-4, -10, -10, -4, -2, 0, -1, 2
1503701567079,+0.563,+0.431,-0.384,-0.592,+0.951,-0.102,-0.274,-8.250,-7.000,-5.812,-3, -13, -8, -7, -4, -4, -2, -2
1503701567101,+0.564,+0.429,-0.384,-0.592,+0.974,-0.067,-0.292,-8.750,-9.500,-8.250,27, 32, -8, -4, -3, -1, 2, 4
1503701567123,+0.566,+0.426,-0.384,-0.592,+0.930,-0.012,-0.338,-3.812,-8.562,-10.188,18, 31, 24, 9, 0, 1, 0, -3
1503701567139,+0.568,+0.425,-0.384,-0.591,+0.914,-0.048,-0.319,+1.750,-7.125,-8.750,18, 4, -4, 0, 0, -2, -4, -9
1503701567161,+0.569,+0.425,-0.384,-0.591,+0.995,-0.066,-0.284,+1.625,-2.688,-5.188,-5, 31, 34, 9, 0, -1, -2, 0
1503701567183,+0.568,+0.425,-0.384,-0.590,+1.023,-0.062,-0.254,-1.500,-0.125,-0.875,-2, -16, -13, -1, 2, 3, 3, 6
1503701567199,+0.569,+0.424,-0.384,-0.591,+1.001,-0.043,-0.270,-3.312,-9.000,-0.562,-12, -27, -6, -1, -1, 0, 0, 2
1503701567223,+0.570,+0.423,-0.383,-0.591,+0.929,-0.051,-0.315,-2.562,-11.812,-0.125,-9, -10, 0, 8, 15, 4, -6, -12
1503701567243,+0.570,+0.422,-0.381,-0.593,+0.888,-0.096,-0.314,-2.562,-11.312,+4.812,4, 3, -1, -2, -4, -5, -2, 1
1503701567266,+0.570,+0.420,-0.381,-0.594,+0.911,-0.070,-0.310,-7.688,-9.062,-0.250,1, 8, -2, -2, -2, -1, -2, 1
1503701567281,+0.571,+0.418,-0.381,-0.595,+0.931,-0.056,-0.315,-8.000,-10.562,-3.125,-9, 23, 5, 3, -3, 1, 1, 0
1503701567303,+0.572,+0.416,-0.380,-0.596,+0.955,-0.056,-0.320,-7.500,-14.375,-5.312,7, -11, -6, 3, -4, -4, 1, 3
1503701567319,+0.574,+0.414,-0.380,-0.596,+0.954,-0.035,-0.338,-5.438,-13.938,-7.688,-3, -1, 7, -2, -5, -3, -2, 2
1503701567341,+0.575,+0.412,-0.380,-0.596,+0.955,-0.007,-0.358,-0.750,-9.562,-6.438,-3, 7, 10, -2, 6, 0, 4, 1
1503701567363,+0.576,+0.411,-0.379,-0.596,+0.952,-0.027,-0.352,+2.688,-5.000,-2.062,-3, -3, -1, 1, -8, -1, -1, -4
1503701567379,+0.577,+0.412,-0.379,-0.595,+0.952,-0.029,-0.338,+5.000,+1.812,+2.000,-8, 3, 7, 1, 1, 2, 0, 1
1503701567401,+0.576,+0.414,-0.378,-0.595,+0.962,-0.019,-0.327,+8.312,+5.938,+6.250,2, -10, -7, -4, 0, 1, 0, 2
1503701567425,+0.576,+0.416,-0.377,-0.594,+0.963,-0.040,-0.331,+11.125,+6.438,+7.750,-6, -6, 0, 0, 1, 1, -1, -1
1503701567439,+0.576,+0.418,-0.376,-0.593,+0.942,-0.036,-0.313,+12.750,+4.375,+6.875,11, 0, -4, -1, 0, 1, -1, 0
1503701567461,+0.576,+0.420,-0.374,-0.593,+0.944,-0.033,-0.334,+15.312,+4.312,+8.125,1, 4, -1, -2, -1, 1, 0, 0
1503701567483,+0.577,+0.423,-0.372,-0.592,+0.945,-0.052,-0.335,+17.750,+3.000,+6.125,4, 5, 0, -3, -1, 2, 0, -2
1503701567499,+0.577,+0.426,-0.370,-0.591,+0.928,-0.080,-0.350,+21.750,+2.312,+8.438,-4, -10, 0, -1, -6, -4, -2, -5
1503701567521,+0.578,+0.429,-0.366,-0.590,+0.979,-0.084,-0.365,+25.438,+0.688,+12.562,-8, -3, 0, -5, -5, -5, 1, 5
1503701567542,+0.579,+0.432,-0.362,-0.589,+0.952,-0.027,-0.350,+29.562,-0.188,+9.000,-13, -2, 5, 3, 13, 6, 5, 6
1503701567559,+0.581,+0.436,-0.359,-0.586,+0.973,-0.059,-0.342,+36.438,+4.062,+8.625,5, -2, 0, 0, -8, 0, 3, 10
1503701567582,+0.582,+0.440,-0.354,-0.584,+0.946,-0.095,-0.346,+38.062,-1.625,+8.188,4, 3, -1, -2, 5, 2, -6, -15
1503701567603,+0.584,+0.445,-0.349,-0.582,+0.915,-0.062,-0.359,+42.062,+2.562,+9.250,-7, -6, -7, -4, -3, -4, -3, -6
