Timestamp,Orientation X,Orientation Y,Orientation Z,Orientation W,Accelerometer X,Accelerometer Y,Accelerometer Z,Gyroscope X,Gyroscope Y,Gyroscope Z,EMG1,EMG2,EMG3,EMG4,EMG5,EMG6,EMG7,EMG8
1503701484746,+0.529,+0.203,-0.347,-0.747,+0.753,+0.080,-0.637,-1.312,-0.312,+0.438,-2, -2, -3, -1, 1, -1, -1, 5
1503701484764,+0.529,+0.203,-0.347,-0.747,+0.752,+0.072,-0.634,-1.438,-0.625,+0.562,1, 0, 1, 0, -1, -1, 0, 3
1503701484776,+0.529,+0.203,-0.347,-0.747,+0.754,+0.078,-0.642,-1.188,-0.062,+0.562,0, 0, -1, 0, -1, 0, -1, -5
1503701484799,+0.529,+0.203,-0.347,-0.747,+0.750,+0.076,-0.642,-0.875,+0.062,+0.562,-4, -3, -1, -2, -1, -2, -3, -6
1503701484821,+0.529,+0.203,-0.347,-0.747,+0.759,+0.074,-0.635,-1.062,+0.312,+0.562,0, 0, -1, -1, 0, -1, 0, 4
1503701484836,+0.529,+0.203,-0.347,-0.747,+0.755,+0.072,-0.636,-1.125,+0.312,+0.625,0, 1, 0, 0, 0, 0, -1, 0
1503701484859,+0.529,+0.203,-0.347,-0.747,+0.759,+0.069,-0.637,-1.125,-0.188,+0.562,2, -3, -1, -1, -1, 1, 1, -1
1503701484882,+0.529,+0.203,-0.347,-0.747,+0.758,+0.075,-0.644,-1.125,-0.688,+0.500,-1, 0, -1, -1, 1, 0, -1, -6
1503701484896,+0.529,+0.203,-0.347,-0.747,+0.758,+0.073,-0.639,-1.250,-0.938,+0.250,-3, -2, -1, -1, -1, -2, -2, -2
1503701484919,+0.529,+0.203,-0.347,-0.747,+0.754,+0.074,-0.637,-1.312,-0.625,+0.188,-4, 2, -1, -2, -2, 0, -1, 1
1503701484943,+0.529,+0.203,-0.347,-0.747,+0.750,+0.077,-0.640,-1.250,-0.562,+0.312,1, -2, -3, -3, 0, -2, -4, -6
1503701484956,+0.529,+0.203,-0.347,-0.747,+0.750,+0.076,-0.635,-1.438,+0.062,+0.312,-1, -1, -1, 0, -2, 0, -2, 2
1503701484979,+0.529,+0.202,-0.347,-0.747,+0.752,+0.077,-0.644,-1.250,+0.062,+0.562,1, -1, -1, -1, -1, -2, 2, 0
1503701485001,+0.529,+0.202,-0.347,-0.747,+0.747,+0.076,-0.641,-1.188,-0.625,+0.562,1, -1, 0, -1, 1, 0, 1, 0
1503701485016,+0.529,+0.202,-0.347,-0.747,+0.751,+0.081,-0.638,-1.188,+0.688,+0.375,3, 0, 2, 0, 1, -2, 1, 3
1503701485039,+0.529,+0.202,-0.347,-0.747,+0.754,+0.078,-0.637,-1.062,+0.438,+0.625,-2, 0, -1, 0, -3, 0, -1, 1
1503701485061,+0.529,+0.202,-0.347,-0.747,+0.755,+0.075,-0.633,-1.250,+0.188,+0.875,-1, -2, -1, -2, -2, 0, 0, -3
1503701485079,+0.529,+0.202,-0.347,-0.747,+0.757,+0.072,-0.637,-1.250,+0.000,+0.750,-2, -1, -1, -1, -1, 0, -2, 0
1503701485099,+0.529,+0.202,-0.347,-0.747,+0.754,+0.075,-0.636,-1.188,-0.500,+0.625,-2, -2, -2, -1, 0, 0, -1, 1
1503701485121,+0.529,+0.202,-0.347,-0.747,+0.755,+0.079,-0.639,-1.125,+0.125,+0.562,-2, -1, -3, 0, -1, 0, -2, -2
1503701485136,+0.529,+0.202,-0.347,-0.747,+0.751,+0.078,-0.638,-0.750,-0.312,+0.875,-1, -1, 0, 0, -1, -1, 0, 1
1503701485159,+0.529,+0.202,-0.347,-0.747,+0.754,+0.073,-0.644,-0.812,+0.188,+0.875,3, 1, -2, -1, 0, -1, 0, 1
1503701485182,+0.529,+0.202,-0.347,-0.747,+0.750,+0.075,-0.642,-0.875,+0.500,+0.750,1, -3, 0, 0, -1, 0, 1, 0
1503701485196,+0.529,+0.202,-0.347,-0.747,+0.764,+0.072,-0.638,-0.938,+0.125,+0.562,0, -1, 0, 0, -1, 0, -1, 1
1503701485219,+0.529,+0.202,-0.347,-0.747,+0.759,+0.074,-0.635,-1.062,+0.500,+0.625,1, 1, -2, 0, -1, 0, 0, 3
1503701485241,+0.529,+0.202,-0.347,-0.747,+0.757,+0.071,-0.628,-1.125,-0.562,+0.500,0, 0, -2, -3, -1, -2, -1, -4
1503701485256,+0.529,+0.202,-0.347,-0.747,+0.757,+0.067,-0.636,-1.125,-0.312,+0.312,-3, -1, 0, 1, 0, 0, -1, -3
1503701485279,+0.529,+0.202,-0.347,-0.747,+0.758,+0.072,-0.632,-1.250,-0.375,+0.062,-4, -3, 0, -2, 0, -1, -2, -2
1503701485301,+0.529,+0.202,-0.347,-0.747,+0.751,+0.077,-0.637,-1.375,-0.938,+0.188,1, 0, 1, -1, -2, -3, 0, 0
1503701485317,+0.529,+0.202,-0.347,-0.747,+0.750,+0.075,-0.633,-1.312,-0.625,+0.125,-2, 2, 0, -1, -1, -1, -1, 0
1503701485339,+0.529,+0.202,-0.347,-0.747,+0.758,+0.073,-0.633,-1.250,-1.312,+0.312,-1, -2, 0, -1, 2, 1, 0, 1
1503701485361,+0.529,+0.202,-0.347,-0.747,+0.755,+0.078,-0.632,-1.312,-0.750,+0.312,-3, 0, -1, 1, -2, -2, -1, -2
1503701485377,+0.529,+0.202,-0.347,-0.747,+0.754,+0.071,-0.638,-1.375,-0.750,+0.312,-1, 0, 0, 0, 0, -2, 1, 3
1503701485399,+0.529,+0.202,-0.347,-0.747,+0.752,+0.069,-0.637,-1.375,-0.750,+0.250,-1, -3, -3, -2, -1, -2, 0, -2
1503701485421,+0.529,+0.202,-0.347,-0.747,+0.753,+0.077,-0.641,-1.500,-0.250,+0.188,-1, 1, 0, -1, 1, 0, -1, 5
1503701485436,+0.529,+0.202,-0.347,-0.747,+0.755,+0.075,-0.634,-1.500,-0.250,+0.188,0, -1, -1, 0, 0, -1, -2, -4
1503701485459,+0.529,+0.202,-0.347,-0.747,+0.755,+0.077,-0.640,-1.500,+0.000,+0.438,-1, -1, 1, -1, 0, -3, 0, 1
1503701485482,+0.529,+0.202,-0.347,-0.747,+0.753,+0.077,-0.635,-1.312,-0.125,+0.500,-1, -2, -1, 0, -2, 0, -2, 0
1503701485496,+0.529,+0.202,-0.347,-0.747,+0.750,+0.077,-0.639,-1.250,+0.188,+0.625,0, 1, -2, -1, -2, 0, -1, -1
1503701485521,+0.529,+0.202,-0.347,-0.747,+0.750,+0.077,-0.640,-1.125,+0.250,+0.688,-1, -1, -1, 0, -1, 0, -1, 1
1503701485541,+0.529,+0.202,-0.347,-0.747,+0.753,+0.076,-0.642,-1.000,-0.062,+0.688,-1, 0, -1, -1, 0, 0, 0, 0
1503701485556,+0.529,+0.202,-0.347,-0.747,+0.752,+0.078,-0.635,-0.938,-0.062,+0.750,-1, 2, 0, -2, 0, -3, -1, -2
1503701485586,+0.529,+0.202,-0.347,-0.747,+0.754,+0.074,-0.634,-0.875,+0.625,+0.812,-3, -4, -3, -2, 0, -1, -3, -14
1503701485601,+0.529,+0.202,-0.347,-0.747,+0.754,+0.072,-0.636,-0.750,+0.125,+0.875,0, -1, 0, 0, 0, 1, 1, 0
1503701485616,+0.529,+0.202,-0.347,-0.747,+0.756,+0.076,-0.636,-0.812,+0.625,+0.500,1, 2, -2, -1, -3, 0, 1, 1
1503701485639,+0.529,+0.202,-0.347,-0.747,+0.754,+0.072,-0.635,-0.812,+0.125,+0.750,-1, -1, 0, -2, 1, -2, -1, 0
1503701485661,+0.529,+0.202,-0.347,-0.747,+0.751,+0.067,-0.625,-0.875,+0.062,+0.438,-2, 0, 0, 2, 0, 0, -3, 1
1503701485684,+0.529,+0.202,-0.347,-0.747,+0.761,+0.071,-0.633,-1.375,+0.250,+0.312,0, -2, -2, 0, 1, 0, -1, -3
1503701485699,+0.529,+0.202,-0.347,-0.747,+0.760,+0.077,-0.640,-1.375,-1.375,+0.375,-1, 0, -1, 0, -1, 0, -1, 1
1503701485721,+0.529,+0.202,-0.347,-0.747,+0.749,+0.075,-0.643,-1.250,-0.500,+0.312,0, -2, -1, -1, -1, 0, 0, 1
1503701485736,+0.529,+0.202,-0.347,-0.747,+0.747,+0.073,-0.639,-1.125,-0.625,+0.500,-1, 0, 1, -2, -2, -1, -1, -5
1503701485759,+0.529,+0.202,-0.347,-0.747,+0.749,+0.070,-0.640,-1.062,-0.438,+0.438,-1, 0, 1, 1, -1, -1, 0, -1
1503701485782,+0.529,+0.202,-0.347,-0.747,+0.757,+0.077,-0.638,-1.500,+0.375,+0.375,0, -2, 0, -3, -1, -2, -2, -4
1503701485796,+0.529,+0.202,-0.347,-0.747,+0.756,+0.075,-0.640,-1.312,+0.312,+0.438,0, 1, -1, 0, -3, -1, -1, 1
1503701485819,+0.529,+0.202,-0.347,-0.747,+0.759,+0.071,-0.636,-1.125,-0.375,+0.438,2, -2, -3, -1, -2, -1, 1, -4
1503701485841,+0.529,+0.202,-0.347,-0.747,+0.761,+0.074,-0.641,-1.500,-0.688,+0.188,-1, 0, -1, -1, -2, -2, -2, -2
1503701485857,+0.530,+0.202,-0.347,-0.747,+0.751,+0.082,-0.639,-1.500,-1.000,+0.438,0, -1, 0, -1, -1, 0, -2, -1
1503701485879,+0.530,+0.202,-0.347,-0.747,+0.751,+0.069,-0.643,-1.188,-0.625,+0.312,-3, -1, -2, 1, -1, -1, 1, 5
1503701485901,+0.530,+0.202,-0.347,-0.747,+0.753,+0.079,-0.634,-1.562,-0.375,+0.562,1, -2, -1, -1, -1, -1, -1, 5
1503701485921,+0.530,+0.202,-0.347,-0.747,+0.750,+0.078,-0.636,-1.125,-0.438,+0.750,-2, -2, -1, -1, 0, -1, -1, 1
1503701485939,+0.530,+0.202,-0.347,-0.747,+0.746,+0.079,-0.645,-0.812,-0.125,+1.000,0, -2, -1, -1, -1, -2, 0, 2
1503701485961,+0.530,+0.202,-0.347,-0.747,+0.748,+0.079,-0.639,-0.625,+0.438,+0.750,0, -1, 0, -1, 0, 1, 0, -1
1503701485979,+0.530,+0.202,-0.347,-0.747,+0.757,+0.079,-0.641,-0.688,+0.875,+0.812,-1, -3, 0, -1, 0, -1, 0, 2
1503701485999,+0.530,+0.202,-0.347,-0.747,+0.764,+0.071,-0.634,-0.688,+0.688,+0.875,-1, -3, -2, -1, 0, 0, 0, 2
1503701486021,+0.529,+0.202,-0.347,-0.747,+0.760,+0.066,-0.636,-0.625,-0.250,+0.688,-1, 0, 0, -1, 1, -1, 0, -1
1503701486037,+0.529,+0.202,-0.347,-0.747,+0.757,+0.070,-0.627,-1.000,+0.062,+0.375,-2, 0, -2, -1, -1, 1, 0, 1
1503701486059,+0.529,+0.202,-0.347,-0.747,+0.752,+0.072,-0.629,-1.188,-0.625,+0.312,-1, -1, 0, 0, -2, -1, -1, -3
1503701486081,+0.529,+0.202,-0.347,-0.747,+0.759,+0.071,-0.637,-1.000,-0.438,+0.188,2, 1, 0, 0, 1, 1, 0, 2
1503701486097,+0.529,+0.202,-0.347,-0.747,+0.754,+0.075,-0.642,-1.188,-1.062,+0.312,0, -1, -1, 0, 1, -1, -1, 1
1503701486119,+0.529,+0.202,-0.347,-0.747,+0.749,+0.068,-0.632,-1.250,-0.750,+0.312,-1, -2, -1, 0, -1, 0, -2, 0
1503701486141,+0.529,+0.202,-0.347,-0.747,+0.754,+0.070,-0.639,-1.500,-0.500,+0.062,-2, 0, 0, -1, 0, 0, -1, 2
1503701486157,+0.529,+0.202,-0.347,-0.747,+0.756,+0.074,-0.642,-1.375,-0.750,-0.250,-1, 0, 1, -1, -2, 0, -1, -9
1503701486180,+0.530,+0.202,-0.347,-0.747,+0.760,+0.069,-0.640,-1.625,-1.375,-0.250,0, 1, -1, -3, -1, 0, -1, 2
1503701486209,+0.530,+0.202,-0.347,-0.747,+0.753,+0.071,-0.631,-2.188,-0.500,-0.562,0, -1, -1, -1, -2, -2, -1, 0
1503701486218,+0.530,+0.201,-0.347,-0.747,+0.750,+0.080,-0.638,-2.438,-0.750,-0.500,-3, 0, -1, 0, -2, -2, 0, -3
1503701486239,+0.530,+0.201,-0.347,-0.747,+0.745,+0.083,-0.646,-1.812,-0.688,-0.250,0, -2, -3, 0, -1, -1, 0, 1
1503701486261,+0.530,+0.201,-0.347,-0.747,+0.745,+0.083,-0.639,-1.375,+0.062,+0.000,-3, -3, 0, -2, -1, 0, 0, -6
1503701486277,+0.530,+0.201,-0.347,-0.747,+0.745,+0.076,-0.635,-0.875,+0.625,+0.500,1, -1, -1, -1, -1, 0, -3, -6
1503701486299,+0.530,+0.202,-0.347,-0.747,+0.752,+0.072,-0.636,-0.875,+1.375,+0.688,-2, -1, 0, -1, -1, -1, -2, 1
1503701486329,+0.530,+0.202,-0.347,-0.747,+0.752,+0.077,-0.624,-1.375,+0.750,+0.812,-1, -3, -1, 1, -1, -1, 1, -6
1503701486337,+0.529,+0.202,-0.348,-0.747,+0.755,+0.076,-0.635,-1.125,+0.938,+0.812,-1, 1, -1, -3, -2, -2, 0, 6
1503701486359,+0.529,+0.202,-0.348,-0.747,+0.753,+0.077,-0.636,-1.000,+0.438,+0.812,-1, 1, -1, 1, -1, 0, 0, 0
1503701486381,+0.529,+0.202,-0.348,-0.747,+0.756,+0.079,-0.641,-0.500,+0.688,+1.000,2, -2, -2, -1, -1, -1, -1, 2
1503701486397,+0.529,+0.202,-0.348,-0.747,+0.755,+0.075,-0.637,-0.312,+0.938,+1.125,-3, -2, -1, 1, 0, -1, -2, -1
1503701486422,+0.529,+0.202,-0.348,-0.747,+0.747,+0.071,-0.639,-0.125,+1.188,+1.250,-1, -1, -2, 0, -1, -1, -1, 1
1503701486441,+0.529,+0.203,-0.348,-0.747,+0.749,+0.070,-0.631,-0.375,+1.875,+1.062,0, -2, 0, -1, 0, -1, 0, -5
1503701486459,+0.529,+0.203,-0.348,-0.747,+0.763,+0.081,-0.639,-0.438,+1.500,+0.938,2, 0, 0, -1, -1, 0, 0, 3
1503701486479,+0.529,+0.203,-0.348,-0.747,+0.766,+0.074,-0.627,+0.000,+0.250,+0.938,-1, -3, -1, -1, 0, 0, 0, -2
1503701486501,+0.529,+0.203,-0.348,-0.747,+0.762,+0.066,-0.629,-0.250,-0.188,+0.500,0, 1, -1, -1, -1, -1, 0, -1
1503701486521,+0.529,+0.203,-0.348,-0.747,+0.753,+0.066,-0.629,-0.688,-0.125,+0.062,-1, -1, -1, -1, 1, -1, 0, 3
1503701486539,+0.529,+0.203,-0.348,-0.747,+0.761,+0.066,-0.635,-1.062,-0.625,-0.312,-1, 1, -1, -1, -2, -1, 0, -2
1503701486562,+0.529,+0.203,-0.348,-0.747,+0.760,+0.068,-0.632,-1.625,-1.000,-0.812,-1, 2, 1, -1, 0, -2, -3, 0
1503701486577,+0.529,+0.203,-0.348,-0.747,+0.760,+0.071,-0.631,-1.938,-1.875,-0.875,0, -1, -1, -1, 0, -1, -1, -1
1503701486599,+0.530,+0.202,-0.348,-0.747,+0.756,+0.077,-0.633,-2.125,-2.062,-0.875,0, 1, -1, 0, 1, -1, 0, 2
1503701486623,+0.530,+0.202,-0.348,-0.747,+0.753,+0.080,-0.633,-1.812,-1.875,-0.438,-1, 0, -4, -2, -3, 0, -1, 1
1503701486637,+0.530,+0.202,-0.348,-0.747,+0.754,+0.078,-0.639,-1.438,-1.812,-0.188,3, 1, 1, 0, 0, -1, -2, 2
1503701486659,+0.530,+0.201,-0.347,-0.747,+0.754,+0.082,-0.639,-1.500,-1.812,-0.125,-2, -1, -1, -1, -1, -3, -1, -2
1503701486681,+0.530,+0.201,-0.347,-0.747,+0.750,+0.077,-0.637,-1.375,-1.875,+0.188,-1, -1, -1, 0, 0, -1, -1, -6
1503701486697,+0.530,+0.201,-0.347,-0.747,+0.753,+0.081,-0.641,-1.188,-1.188,+0.438,-3, 1, 0, -2, -1, 1, 0, 1
1503701486721,+0.530,+0.201,-0.347,-0.747,+0.755,+0.072,-0.640,-1.000,-1.625,+0.438,-1, 0, 0, 1, 0, 0, -3, 1
1503701486741,+0.530,+0.201,-0.347,-0.747,+0.752,+0.078,-0.638,-0.938,-1.625,+0.250,-2, -2, 0, -1, 0, 0, -1, 0
1503701486757,+0.530,+0.201,-0.347,-0.747,+0.747,+0.073,-0.645,-0.875,-1.312,+0.312,0, -2, 0, -1, 1, -2, 1, -1
1503701486779,+0.530,+0.201,-0.347,-0.747,+0.748,+0.078,-0.645,-1.000,-0.750,+0.250,-3, 1, -2, 0, 0, 1, -1, -2
1503701486801,+0.530,+0.201,-0.347,-0.747,+0.743,+0.073,-0.630,-1.188,-0.438,+0.312,-1, -2, -4, -1, -3, -3, -1, -4
1503701486817,+0.530,+0.201,-0.347,-0.747,+0.747,+0.077,-0.643,-1.125,+0.250,+0.562,0, -2, 0, -1, -1, 0, 0, 4
1503701486839,+0.530,+0.201,-0.347,-0.747,+0.750,+0.080,-0.642,-1.062,+0.250,+0.562,1, -2, -1, -2, 0, -1, -1, -2
1503701486861,+0.530,+0.201,-0.347,-0.747,+0.757,+0.075,-0.645,-0.875,+0.188,+0.688,1, -2, -3, -1, -2, -2, -1, -2
1503701486877,+0.530,+0.201,-0.347,-0.747,+0.757,+0.074,-0.637,-1.062,+0.000,+0.750,-1, 0, 0, -1, 0, 0, 0, -1
1503701486900,+0.530,+0.201,-0.347,-0.747,+0.754,+0.073,-0.638,-1.062,-0.312,+0.500,-2, 0, 1, 0, 0, 1, -1, 4
1503701486923,+0.530,+0.201,-0.347,-0.747,+0.751,+0.075,-0.639,-1.000,-0.562,+0.688,0, -2, -1, 0, -2, 0, -2, -5
1503701486937,+0.530,+0.201,-0.347,-0.747,+0.752,+0.071,-0.639,-1.188,-0.125,+0.375,-1, -1, -1, -1, 0, -1, 0, -7
1503701486967,+0.530,+0.201,-0.347,-0.747,+0.754,+0.074,-0.644,-1.125,-0.750,+0.438,0, 0, 0, -1, -2, -2, -1, -2
1503701486981,+0.530,+0.201,-0.347,-0.747,+0.751,+0.073,-0.645,-1.438,-0.125,+0.375,-2, -1, 0, 1, 0, 0, 1, 2
1503701486999,+0.530,+0.201,-0.347,-0.747,+0.751,+0.073,-0.638,-1.750,-0.188,+0.250,1, 0, -1, 0, 0, -1, 0, 3
1503701487019,+0.530,+0.201,-0.347,-0.747,+0.754,+0.082,-0.633,-1.500,-0.688,+0.438,-7, -3, -1, -3, -3, -1, -1, -5
1503701487041,+0.530,+0.201,-0.347,-0.747,+0.753,+0.078,-0.642,-1.188,-0.500,+0.250,1, 1, -2, -1, 0, -1, -1, 7
1503701487058,+0.530,+0.201,-0.347,-0.747,+0.749,+0.077,-0.642,-0.875,-0.938,+0.438,-1, -1, -1, 0, 1, -1, 1, 0
1503701487079,+0.530,+0.201,-0.347,-0.747,+0.750,+0.078,-0.645,-1.000,-0.312,+0.500,3, 2, 0, -2, -2, 0, -1, -3
1503701487101,+0.530,+0.201,-0.347,-0.747,+0.749,+0.074,-0.641,-1.000,-0.438,+0.312,-1, -2, 0, -1, 0, -2, -1, 6
1503701487118,+0.530,+0.201,-0.347,-0.747,+0.751,+0.070,-0.642,-1.062,-0.312,+0.250,1, -2, 0, -1, 0, 0, -2, -1
1503701487139,+0.530,+0.201,-0.347,-0.747,+0.751,+0.075,-0.639,-1.312,-0.188,+0.062,-2, -2, -2, -2, -1, -2, -4, -9
1503701487162,+0.530,+0.201,-0.347,-0.747,+0.748,+0.078,-0.636,-1.062,-0.062,+0.125,-2, -3, -2, -1, 0, -2, 0, -1
1503701487177,+0.530,+0.201,-0.347,-0.747,+0.750,+0.078,-0.639,-1.062,-0.250,+0.688,-2, -1, 0, 1, 1, -1, -1, 0
1503701487200,+0.530,+0.201,-0.347,-0.747,+0.752,+0.076,-0.636,-1.062,-0.062,+0.562,2, -1, 0, -1, 0, 1, 0, 2
1503701487222,+0.530,+0.201,-0.347,-0.747,+0.746,+0.076,-0.646,-1.062,-0.125,+0.688,1, 0, 0, -1, -2, 0, -1, -5
1503701487238,+0.530,+0.201,-0.347,-0.747,+0.747,+0.078,-0.646,-0.938,-0.125,+0.438,-7, -1, -1, -2, -2, 0, 0, -2
1503701487260,+0.530,+0.201,-0.347,-0.747,+0.752,+0.072,-0.643,-0.875,+0.062,+0.625,0, 0, -1, 1, -2, 0, -1, 2
1503701487281,+0.530,+0.201,-0.347,-0.747,+0.750,+0.073,-0.640,-0.938,+0.250,+0.750,1, -2, -3, -1, 0, 0, 0, 1
1503701487298,+0.530,+0.201,-0.346,-0.747,+0.750,+0.074,-0.635,-1.312,+0.625,+0.625,0, -1, -1, -1, 0, -2, -2, -2
1503701487319,+0.530,+0.201,-0.346,-0.747,+0.755,+0.077,-0.643,-1.188,+0.125,+0.750,0, 0, 0, 0, 0, -1, 1, 0
1503701487342,+0.530,+0.201,-0.346,-0.747,+0.750,+0.072,-0.645,-1.125,+0.250,+0.500,0, -2, -2, -1, -2, 0, 0, 0
1503701487359,+0.530,+0.201,-0.346,-0.747,+0.749,+0.075,-0.643,-1.125,+0.000,+0.688,-3, -1, -2, 1, 0, 0, -1, 1
1503701487379,+0.530,+0.201,-0.346,-0.747,+0.749,+0.075,-0.633,-1.000,+0.125,+0.688,0, -1, -2, -1, 1, -2, -1, 1
1503701487401,+0.530,+0.201,-0.346,-0.747,+0.754,+0.072,-0.639,-1.125,+0.625,+0.625,-3, 0, 0, -1, -1, 0, 1, -3
1503701487417,+0.530,+0.201,-0.346,-0.747,+0.757,+0.077,-0.639,-1.062,+0.500,+0.625,0, -1, 0, 1, 0, -1, -2, 0
1503701487439,+0.530,+0.201,-0.346,-0.747,+0.756,+0.074,-0.644,-0.750,-0.312,+0.625,-2, -2, -2, -1, -2, 1, 0, -1
1503701487461,+0.530,+0.201,-0.346,-0.747,+0.747,+0.070,-0.641,-0.812,+0.375,+0.438,0, -1, 0, -1, -1, -2, -2, 4
1503701487477,+0.530,+0.201,-0.346,-0.747,+0.752,+0.075,-0.637,-1.000,+0.000,+0.500,1, 0, 1, 0, -2, -1, -1, -3
1503701487500,+0.530,+0.201,-0.346,-0.747,+0.755,+0.075,-0.638,-1.188,+0.438,+0.375,0, -1, -1, -2, -2, -2, -1, -5
1503701487521,+0.530,+0.201,-0.346,-0.747,+0.758,+0.075,-0.641,-1.188,-0.438,+0.438,-1, 0, -3, -1, 0, -3, -2, -11
1503701487543,+0.530,+0.201,-0.346,-0.747,+0.757,+0.076,-0.640,-1.062,-1.125,+0.312,-1, -1, 0, 0, -1, 1, -1, 3
1503701487560,+0.530,+0.201,-0.346,-0.747,+0.750,+0.078,-0.633,-1.250,-0.750,+0.250,0, 0, -2, 0, -1, -1, 1, -3
1503701487581,+0.530,+0.201,-0.346,-0.747,+0.750,+0.078,-0.646,-1.125,-0.625,+0.188,-3, -3, -2, -1, 0, -1, -1, 0
1503701487604,+0.530,+0.201,-0.346,-0.747,+0.750,+0.071,-0.645,-1.062,-0.375,+0.188,1, 0, 0, 0, 0, 0, 0, 0
1503701487620,+0.530,+0.201,-0.346,-0.747,+0.753,+0.071,-0.636,-1.125,-0.812,+0.438,-2, -4, 0, -4, 0, -2, -1, 6
1503701487641,+0.530,+0.201,-0.346,-0.747,+0.754,+0.069,-0.639,-1.438,-0.500,+0.312,0, -1, -2, -1, -2, -1, 0, 2
1503701487664,+0.530,+0.201,-0.346,-0.747,+0.753,+0.077,-0.638,-1.688,-0.875,+0.188,1, -1, -1, 1, 1, -1, 0, -4
1503701487680,+0.530,+0.201,-0.346,-0.747,+0.750,+0.079,-0.637,-1.375,-0.375,+0.188,-1, 0, 1, -1, 1, 1, -1, -1
1503701487702,+0.530,+0.201,-0.346,-0.747,+0.750,+0.083,-0.647,-1.062,-0.688,+0.312,-1, 2, 0, 0, -3, 0, 1, 3
1503701487726,+0.530,+0.201,-0.346,-0.747,+0.750,+0.078,-0.637,-0.938,+0.250,+0.438,0, 0, -1, -2, -1, 0, 1, 4
1503701487740,+0.530,+0.201,-0.346,-0.747,+0.753,+0.077,-0.645,-1.000,+0.250,+0.688,-3, -4, -2, -3, -3, -2, -1, 1
1503701487761,+0.530,+0.201,-0.346,-0.747,+0.751,+0.075,-0.636,-0.875,+0.375,+0.688,-2, -1, -2, -2, 0, 0, -1, -1
1503701487784,+0.530,+0.201,-0.346,-0.747,+0.757,+0.073,-0.639,-0.750,+0.312,+0.688,1, 0, -3, 0, -1, -2, -3, -6
1503701487801,+0.530,+0.201,-0.346,-0.747,+0.757,+0.067,-0.642,-0.875,-0.125,+0.438,-1, 1, 1, -2, -1, 0, -1, -2
1503701487822,+0.530,+0.201,-0.346,-0.747,+0.755,+0.075,-0.637,-1.250,+0.250,+0.438,0, -3, 1, 2, -1, -2, -1, -1
1503701487844,+0.530,+0.201,-0.346,-0.747,+0.753,+0.077,-0.643,-1.250,+0.062,+0.500,0, -1, -1, -1, 1, -2, -1, -3
1503701487860,+0.530,+0.201,-0.346,-0.747,+0.757,+0.074,-0.637,-1.312,-0.062,+0.625,-4, -2, -4, -1, -1, -2, -2, -6
1503701487882,+0.530,+0.201,-0.346,-0.747,+0.748,+0.074,-0.645,-1.188,-0.625,+0.750,2, 1, -1, 0, -2, 1, -1, 4
1503701487904,+0.530,+0.201,-0.346,-0.747,+0.747,+0.078,-0.633,-1.188,+0.062,+0.438,-1, -1, 0, -1, -1, -1, -1, -1
1503701487921,+0.530,+0.201,-0.346,-0.747,+0.751,+0.080,-0.642,-1.062,+0.562,+0.500,-3, 1, -1, -3, -1, 0, -1, -2
1503701487942,+0.530,+0.201,-0.346,-0.747,+0.751,+0.078,-0.640,-0.938,-0.312,+0.562,-2, 0, 1, 0, 0, -1, -1, -3
1503701487964,+0.530,+0.201,-0.346,-0.747,+0.754,+0.073,-0.632,-1.000,+0.875,+0.500,0, -2, -2, 0, 1, -1, -1, -1
1503701487980,+0.530,+0.201,-0.346,-0.747,+0.753,+0.075,-0.638,-0.938,+0.062,+0.562,2, 1, 1, 0, -2, 0, 0, 0
1503701488002,+0.530,+0.201,-0.346,-0.747,+0.756,+0.075,-0.642,-0.938,+0.438,+0.438,-1, -1, -1, 0, -1, -1, -1, 1
1503701488024,+0.530,+0.201,-0.346,-0.747,+0.755,+0.078,-0.634,-1.062,+0.000,+0.500,1, -1, 0, -1, -2, -1, -1, -1
1503701488040,+0.530,+0.201,-0.346,-0.747,+0.750,+0.076,-0.639,-1.125,-0.812,+0.625,-3, -3, -2, 0, -2, 0, -1, -6
1503701488062,+0.530,+0.201,-0.346,-0.747,+0.748,+0.071,-0.641,-1.250,-0.062,+0.625,0, 1, -1, -1, -1, -2, 1, 0
1503701488084,+0.530,+0.201,-0.346,-0.747,+0.754,+0.075,-0.638,-1.250,-0.562,+0.375,-1, -2, -2, -1, 1, 0, -3, -1
1503701488100,+0.530,+0.201,-0.346,-0.747,+0.755,+0.077,-0.643,-0.875,-0.375,+0.500,-8, -3, -2, -1, -2, -1, -1, -3
1503701488122,+0.530,+0.201,-0.346,-0.747,+0.746,+0.071,-0.642,-0.875,-0.375,+0.375,1, 0, -1, -2, -2, -1, -3, -1
1503701488144,+0.530,+0.201,-0.346,-0.747,+0.748,+0.073,-0.640,-1.125,+0.688,+0.250,1, -3, -1, 0, -1, 0, -2, -3
1503701488161,+0.530,+0.201,-0.346,-0.747,+0.761,+0.073,-0.640,-1.438,+0.250,+0.312,2, -2, -1, -1, -2, -1, -1, 0
1503701488182,+0.530,+0.201,-0.346,-0.747,+0.760,+0.077,-0.636,-1.562,-0.125,+0.250,1, 0, -1, -1, 0, -1, 0, 3
1503701488205,+0.530,+0.201,-0.346,-0.747,+0.753,+0.076,-0.637,-1.188,-0.875,+0.438,0, 1, 0, -1, -2, 1, 0, -3
1503701488220,+0.530,+0.201,-0.346,-0.747,+0.751,+0.074,-0.640,-1.000,-1.125,+0.500,0, 0, 2, 1, 1, 0, 1, 4
1503701488249,+0.530,+0.201,-0.346,-0.747,+0.754,+0.075,-0.640,-1.000,-0.312,+0.625,-6, -5, -3, -1, 1, -2, -2, 1
1503701488264,+0.530,+0.201,-0.346,-0.747,+0.749,+0.074,-0.644,-1.000,-0.312,+0.375,0, 1, -1, -1, -2, -1, -1, -3
1503701488280,+0.530,+0.201,-0.346,-0.747,+0.751,+0.077,-0.637,-1.250,-0.125,+0.312,1, -2, -1, -3, 0, 0, 0, 3
1503701488302,+0.530,+0.201,-0.346,-0.747,+0.753,+0.073,-0.639,-1.125,-0.188,+0.438,1, 3, -1, -2, 1, -1, -1, 4
1503701488324,+0.530,+0.201,-0.346,-0.747,+0.755,+0.073,-0.640,-1.250,-0.125,+0.375,-2, -1, -1, -1, -3, -1, -1, 1
1503701488340,+0.530,+0.201,-0.346,-0.747,+0.755,+0.075,-0.641,-1.250,+0.125,+0.438,-3, -1, -1, 0, 0, -1, -1, -2
1503701488363,+0.530,+0.201,-0.346,-0.747,+0.750,+0.077,-0.634,-1.125,-1.000,+0.750,-1, 1, -1, 0, -2, -1, 0, -2
1503701488384,+0.530,+0.201,-0.346,-0.747,+0.758,+0.073,-0.642,-1.312,+0.188,+0.625,0, -2, -1, 0, -1, 0, -1, -3
1503701488401,+0.530,+0.201,-0.346,-0.747,+0.750,+0.075,-0.637,-1.188,-0.375,+0.500,0, -1, -2, 0, -1, 0, -3, -1
1503701488422,+0.530,+0.201,-0.346,-0.747,+0.750,+0.073,-0.635,-1.000,-0.062,+0.312,-2, 0, -1, -1, -1, 1, 0, -4
1503701488444,+0.530,+0.201,-0.346,-0.747,+0.752,+0.071,-0.639,-1.000,+0.000,+0.438,2, -1, 1, -2, 1, 0, -1, 3
1503701488460,+0.530,+0.201,-0.346,-0.747,+0.756,+0.070,-0.636,-1.375,-0.500,+0.125,2, -2, -2, 0, -1, -1, -1, -1
1503701488482,+0.530,+0.201,-0.346,-0.747,+0.757,+0.077,-0.638,-1.688,+0.062,+0.438,0, 0, 0, 0, -1, -1, 0, -1
1503701488504,+0.530,+0.201,-0.346,-0.747,+0.754,+0.081,-0.643,-1.438,-0.938,+0.375,1, -3, -1, 0, 0, 0, -1, 2
1503701488520,+0.530,+0.201,-0.346,-0.747,+0.751,+0.079,-0.639,-1.188,-0.938,+0.375,-3, 1, 0, -1, 1, -1, -1, -1
1503701488542,+0.530,+0.201,-0.346,-0.747,+0.738,+0.071,-0.644,-1.000,-0.250,+0.500,-1, 0, 1, -1, -3, -1, 1, -2
1503701488564,+0.530,+0.201,-0.346,-0.747,+0.750,+0.077,-0.642,-1.188,+0.250,+0.750,-2, -1, -2, -1, 0, -2, -2, 1
1503701488580,+0.530,+0.201,-0.346,-0.747,+0.754,+0.075,-0.643,-1.062,+0.375,+0.688,-1, -1, -3, -2, 0, 1, -1, 0
1503701488602,+0.530,+0.201,-0.346,-0.747,+0.756,+0.075,-0.635,-1.062,+0.250,+0.625,0, 0, -1, 0, -1, 0, 0, -2
1503701488624,+0.530,+0.201,-0.346,-0.747,+0.755,+0.071,-0.640,-0.875,-0.562,+0.688,1, -1, 2, 0, 0, -2, 0, 0
1503701488640,+0.530,+0.201,-0.346,-0.747,+0.754,+0.070,-0.643,-0.938,-0.375,+0.500,0, -1, -1, -1, -2, 0, -3, -4
1503701488664,+0.530,+0.201,-0.346,-0.747,+0.749,+0.072,-0.640,-1.250,-0.125,+0.438,-1, -2, -2, -1, 0, -1, 0, -2
1503701488683,+0.530,+0.201,-0.346,-0.747,+0.751,+0.077,-0.644,-1.375,+0.000,+0.375,-1, 0, -2, -2, -1, -1, 1, 0
1503701488700,+0.530,+0.201,-0.346,-0.747,+0.753,+0.076,-0.642,-1.125,-0.500,+0.688,3, -2, -1, -2, 0, -2, -3, -1
1503701488722,+0.530,+0.201,-0.346,-0.747,+0.754,+0.073,-0.642,-0.938,-0.250,+0.500,-2, -4, -3, -2, -1, 0, 0, -12
1503701488744,+0.530,+0.201,-0.346,-0.747,+0.747,+0.077,-0.638,-0.875,+0.312,+0.625,-3, 1, -1, -1, 0, 0, 0, 1
1503701488760,+0.530,+0.201,-0.346,-0.747,+0.751,+0.071,-0.636,-0.875,+0.375,+0.562,-2, -2, 0, -1, -2, 1, -1, 3
1503701488782,+0.530,+0.201,-0.346,-0.747,+0.756,+0.076,-0.640,-0.938,+0.250,+0.500,0, -1, 0, 1, 0, -1, -2, 0
1503701488804,+0.530,+0.201,-0.346,-0.747,+0.758,+0.071,-0.641,-1.188,-0.250,+0.438,1, -2, -1, -3, -3, -1, -1, -3
1503701488820,+0.530,+0.201,-0.346,-0.747,+0.752,+0.074,-0.642,-1.375,-0.438,+0.438,1, -1, -1, -1, 1, -1, -2, -1
1503701488842,+0.530,+0.201,-0.346,-0.747,+0.752,+0.076,-0.639,-1.375,-0.062,+0.188,-5, -3, -3, -1, -1, 0, -1, -10
1503701488865,+0.530,+0.201,-0.346,-0.747,+0.750,+0.077,-0.643,-1.500,-1.125,+0.250,0, 1, 0, 0, 0, 0, 1, 5
1503701488880,+0.530,+0.201,-0.346,-0.747,+0.751,+0.076,-0.644,-1.312,-0.250,+0.375,-3, 1, -1, 0, 0, -1, 1, 4
1503701488903,+0.530,+0.201,-0.346,-0.747,+0.748,+0.075,-0.646,-1.000,-0.250,+0.500,2, 1, 0, -2, -1, -1, -2, 2
1503701488924,+0.530,+0.201,-0.346,-0.747,+0.749,+0.075,-0.646,-0.938,-0.188,+0.375,-1, -1, -2, -1, -1, -1, 0, 6
1503701488940,+0.530,+0.201,-0.346,-0.747,+0.750,+0.074,-0.638,-1.000,+0.750,+0.562,0, -1, -1, -1, 0, 0, -1, 2
1503701488962,+0.530,+0.201,-0.346,-0.747,+0.752,+0.074,-0.642,-1.125,-0.312,+0.562,-3, -2, 0, 1, 0, 0, 0, -2
1503701488984,+0.530,+0.201,-0.346,-0.747,+0.756,+0.068,-0.639,-1.062,+0.375,+0.500,0, -1, 0, -1, -2, -2, 0, -2
1503701489000,+0.530,+0.201,-0.346,-0.747,+0.754,+0.073,-0.637,-1.125,-0.188,+0.500,-2, 1, 0, 0, -1, -2, -1, -1
1503701489022,+0.530,+0.201,-0.346,-0.747,+0.751,+0.075,-0.638,-1.125,-0.250,+0.375,-2, -1, 0, -1, 0, 0, -1, -4
1503701489044,+0.530,+0.201,-0.346,-0.747,+0.754,+0.074,-0.639,-1.312,+0.000,+0.438,-2, -1, -2, -2, -1, -2, -1, -4
1503701489060,+0.530,+0.201,-0.346,-0.747,+0.754,+0.076,-0.640,-1.375,-0.312,+0.312,2, -2, 1, -1, -2, -1, 0, 0
1503701489082,+0.530,+0.201,-0.346,-0.747,+0.757,+0.071,-0.641,-1.062,-0.500,+0.500,0, -1, 0, -1, 0, -1, 0, 1
1503701489104,+0.530,+0.201,-0.346,-0.747,+0.743,+0.076,-0.638,-1.062,-0.438,+0.500,-1, 0, -1, 0, -1, 0, -1, -1
1503701489120,+0.530,+0.201,-0.346,-0.747,+0.745,+0.077,-0.641,-1.000,-0.312,+0.625,0, -1, 0, -2, 1, 0, 0, 3
1503701489142,+0.530,+0.201,-0.346,-0.747,+0.754,+0.073,-0.642,-0.938,+0.438,+0.812,-3, -1, 0, 0, 0, 0, -1, -2
1503701489166,+0.530,+0.201,-0.346,-0.747,+0.753,+0.071,-0.637,-0.938,+0.000,+0.250,0, -1, 0, -2, -1, -1, -2, -5
1503701489180,+0.530,+0.201,-0.346,-0.747,+0.756,+0.076,-0.632,-1.250,-0.188,+0.188,2, 1, 0, 1, -3, 1, -2, 1
1503701489203,+0.530,+0.201,-0.346,-0.747,+0.756,+0.076,-0.632,-1.438,-0.625,+0.438,-3, -2, -3, 0, -2, -1, -2, -4
1503701489224,+0.530,+0.201,-0.346,-0.747,+0.751,+0.076,-0.639,-1.438,-0.875,+0.500,0, -2, 0, 0, 1, 0, 0, 1
1503701489240,+0.530,+0.201,-0.346,-0.747,+0.745,+0.075,-0.637,-1.250,-0.812,+0.625,0, 0, 0, -1, -1, -1, -1, -5
1503701489262,+0.530,+0.201,-0.346,-0.747,+0.747,+0.074,-0.647,-1.312,+0.062,+0.438,-2, -1, -2, -1, 1, -1, -1, 0
1503701489285,+0.530,+0.201,-0.346,-0.747,+0.750,+0.076,-0.643,-0.938,+0.062,+0.438,-2, 2, -1, 1, -2, 0, 1, 0
1503701489301,+0.530,+0.201,-0.346,-0.747,+0.755,+0.077,-0.642,-0.938,+1.188,+0.500,0, 0, -1, -1, -1, 0, 0, 2
1503701489322,+0.530,+0.201,-0.346,-0.747,+0.760,+0.074,-0.642,-1.000,+0.375,+0.812,1, 0, -3, -3, -1, -3, 0, -6
1503701489344,+0.530,+0.201,-0.346,-0.747,+0.762,+0.073,-0.636,-0.938,+0.000,+0.625,-1, -1, 1, 0, 0, -1, 1, 2
1503701489360,+0.530,+0.201,-0.346,-0.747,+0.751,+0.071,-0.638,-1.125,+0.000,+0.438,1, 0, -1, -1, 0, -1, -4, -6
1503701489382,+0.530,+0.201,-0.346,-0.747,+0.755,+0.073,-0.641,-1.000,-0.562,+0.500,0, 0, 0, -1, 0, 0, -1, 1
1503701489405,+0.530,+0.201,-0.346,-0.747,+0.750,+0.073,-0.642,-0.938,-0.062,+0.500,-1, -3, -2, -1, 0, 1, 1, -6
1503701489420,+0.530,+0.201,-0.346,-0.747,+0.750,+0.073,-0.641,-1.000,-0.062,+0.500,-1, 0, 1, 0, 2, 0, 1, 4
1503701489443,+0.530,+0.201,-0.346,-0.747,+0.749,+0.075,-0.630,-1.000,+0.188,+0.562,0, -2, -2, -1, -1, -1, -2, -5
1503701489464,+0.530,+0.201,-0.346,-0.747,+0.756,+0.075,-0.633,-0.938,+0.438,+0.312,-1, 0, -1, -4, -1, -2, -2, -6
1503701489480,+0.530,+0.201,-0.346,-0.747,+0.752,+0.074,-0.643,-0.812,-0.375,+0.375,-1, -1, 0, 0, -1, 2, 0, -4
1503701489502,+0.530,+0.201,-0.346,-0.747,+0.749,+0.071,-0.636,-1.125,-0.188,+0.375,3, 0, 0, 1, -1, 1, -1, 7
1503701489524,+0.530,+0.201,-0.346,-0.747,+0.755,+0.073,-0.643,-1.500,-0.188,+0.438,-2, -1, 0, 0, 0, -1, -1, 7
1503701489540,+0.530,+0.201,-0.346,-0.747,+0.758,+0.074,-0.636,-1.750,-0.188,+0.312,-1, 0, -2, 1, -1, 0, -1, 5
1503701489562,+0.530,+0.201,-0.346,-0.747,+0.751,+0.073,-0.641,-1.375,-1.250,+0.375,0, -3, -1, -2, 1, -1, 1, 1
1503701489584,+0.530,+0.201,-0.346,-0.747,+0.749,+0.080,-0.642,-1.000,-0.500,+0.250,0, 0, 2, 0, -1, 0, 0, 6
1503701489602,+0.530,+0.201,-0.346,-0.747,+0.750,+0.075,-0.637,-0.938,+0.062,+0.562,-3, -2, -2, -1, -1, 0, -2, -4
1503701489622,+0.530,+0.201,-0.346,-0.747,+0.753,+0.067,-0.640,-1.125,+0.375,+0.562,-1, 0, -2, -1, -1, -2, -1, -4
1503701489644,+0.530,+0.201,-0.346,-0.747,+0.759,+0.073,-0.635,-1.125,+0.062,+0.625,0, -1, -1, -3, -3, 0, 0, -7
1503701489660,+0.530,+0.201,-0.346,-0.747,+0.755,+0.070,-0.637,-1.062,-0.312,+0.500,1, 0, -1, 0, -2, -2, -1, -1
1503701489682,+0.530,+0.201,-0.346,-0.747,+0.751,+0.074,-0.638,-1.438,-0.062,+0.250,0, -3, -1, -2, -1, -2, -1, -4
1503701489705,+0.530,+0.201,-0.346,-0.747,+0.751,+0.074,-0.633,-1.188,-0.562,+0.312,1, 0, 0, -1, 0, -2, -1, -2
1503701489720,+0.530,+0.201,-0.346,-0.747,+0.754,+0.075,-0.639,-1.312,+0.062,+0.375,-2, 0, 0, -2, -2, -2, -1, -1
1503701489742,+0.530,+0.201,-0.346,-0.747,+0.757,+0.073,-0.636,-1.250,+0.125,+0.438,-2, -2, -3, -2, 0, -2, 0, 0
1503701489765,+0.530,+0.201,-0.346,-0.747,+0.753,+0.075,-0.641,-1.125,-0.312,+0.438,-1, 0, -1, -1, 0, -1, 0, -1
1503701489780,+0.530,+0.201,-0.346,-0.747,+0.752,+0.074,-0.635,-1.000,-0.312,+0.500,0, 1, 1, 0, 1, 0, 1, 3
1503701489803,+0.530,+0.201,-0.346,-0.747,+0.752,+0.079,-0.637,-1.125,+0.000,+0.562,0, 0, -1, 0, 0, 0, -2, 3
1503701489825,+0.530,+0.201,-0.346,-0.747,+0.754,+0.078,-0.638,-1.000,+0.125,+0.688,0, 0, -1, -2, -1, -1, -1, -4
1503701489841,+0.530,+0.201,-0.346,-0.747,+0.754,+0.075,-0.633,-1.000,-0.375,+0.625,-2, 1, -1, 0, -3, 0, 1, 3
1503701489871,+0.530,+0.201,-0.346,-0.747,+0.754,+0.065,-0.641,-1.062,-0.062,+0.375,-3, 0, -2, -2, -2, -3, -2, -4
1503701489885,+0.530,+0.201,-0.346,-0.747,+0.749,+0.077,-0.633,-1.125,-0.250,+0.375,0, 2, -1, -1, 0, -1, 0, 0
1503701489900,+0.530,+0.201,-0.346,-0.747,+0.751,+0.078,-0.639,-1.125,-0.438,+0.250,1, -1, 0, -2, 0, -1, -2, -2
1503701489922,+0.530,+0.201,-0.346,-0.747,+0.757,+0.078,-0.643,-1.188,-0.062,+0.688,-3, -2, -2, 0, 0, 1, 0, -1
1503701489946,+0.530,+0.201,-0.346,-0.747,+0.748,+0.072,-0.642,-1.250,-0.625,+0.812,2, 1, -2, -1, -1, -2, 0, 0
1503701489960,+0.530,+0.201,-0.346,-0.747,+0.756,+0.072,-0.645,-1.375,+0.375,+0.500,0, 0, 0, -1, 0, -2, 0, 1
1503701489982,+0.530,+0.201,-0.346,-0.747,+0.750,+0.073,-0.639,-1.188,-0.438,+0.375,3, -2, -1, 0, -1, -2, 1, 1
1503701490009,+0.530,+0.201,-0.346,-0.747,+0.749,+0.074,-0.634,-1.062,-0.188,+0.438,0, -1, 0, -1, 1, -1, -1, -8
1503701490026,+0.530,+0.201,-0.346,-0.747,+0.754,+0.073,-0.644,-1.062,+0.750,+0.438,-3, 0, -1, -2, 0, 1, 0, 2
1503701490042,+0.530,+0.201,-0.346,-0.747,+0.756,+0.074,-0.633,-1.188,-0.250,+0.562,-1, -1, -2, -1, -1, 0, -1, 0
1503701490063,+0.530,+0.201,-0.346,-0.747,+0.758,+0.071,-0.641,-1.062,-0.188,+0.500,1, -1, -1, -3, -1, 1, 0, 0
1503701490086,+0.530,+0.201,-0.346,-0.747,+0.751,+0.071,-0.636,-1.125,-0.625,+0.438,-2, 0, -1, -1, -2, 0, -1, 5
1503701490101,+0.530,+0.201,-0.346,-0.747,+0.749,+0.074,-0.646,-1.125,-0.750,+0.375,-2, -1, -1, 1, -1, -1, -1, -2
1503701490123,+0.530,+0.201,-0.346,-0.747,+0.750,+0.072,-0.645,-1.062,+0.312,+0.500,-1, 0, -1, 0, 0, 1, -1, -3
1503701490146,+0.530,+0.201,-0.346,-0.747,+0.753,+0.077,-0.641,-1.000,+0.375,+0.625,-2, -1, -2, -1, -1, -3, -2, -5
1503701490161,+0.530,+0.201,-0.346,-0.747,+0.757,+0.074,-0.635,-1.000,+0.250,+0.625,-1, -1, -1, 1, -1, -1, -1, 0
1503701490183,+0.530,+0.201,-0.346,-0.747,+0.751,+0.068,-0.638,-0.938,-0.312,+0.562,-1, -1, -1, 0, 1, 0, 0, 2
1503701490207,+0.530,+0.201,-0.346,-0.747,+0.754,+0.073,-0.639,-1.375,+0.188,+0.250,0, 0, -1, -2, -1, -2, -1, -2
1503701490221,+0.530,+0.201,-0.346,-0.747,+0.758,+0.077,-0.640,-1.438,-0.625,+0.375,1, 0, 0, -2, -2, 0, 0, 1
1503701490244,+0.530,+0.201,-0.346,-0.747,+0.753,+0.077,-0.636,-1.250,-0.062,+0.312,0, -2, -1, -3, -1, 1, -3, -5
1503701490266,+0.530,+0.201,-0.346,-0.747,+0.754,+0.078,-0.642,-1.188,-0.625,+0.500,-4, -2, -1, 0, 0, -1, -2, -2
1503701490281,+0.530,+0.201,-0.346,-0.747,+0.754,+0.072,-0.637,-1.188,-0.062,+0.438,0, -2, -2, -2, -2, -1, -1, -3
1503701490307,+0.530,+0.201,-0.346,-0.747,+0.750,+0.075,-0.641,-0.938,-0.375,+0.562,-2, -2, 0, 1, 0, -3, -2, -9
1503701490326,+0.530,+0.201,-0.346,-0.747,+0.749,+0.074,-0.637,-1.000,-0.188,+0.438,2, -1, -2, 0, -1, 0, 0, -2
1503701490341,+0.530,+0.201,-0.346,-0.747,+0.754,+0.070,-0.633,-1.188,-0.312,+0.562,-3, -2, 0, -1, 0, 1, 0, 3
1503701490364,+0.530,+0.201,-0.346,-0.747,+0.751,+0.071,-0.636,-1.312,+0.125,+0.312,3, -1, 0, -2, -1, -3, -1, 3
1503701490386,+0.530,+0.201,-0.346,-0.747,+0.753,+0.075,-0.640,-1.375,+0.375,+0.438,-2, -1, 0, 0, 0, 0, -1, 6
1503701490401,+0.530,+0.201,-0.346,-0.747,+0.752,+0.071,-0.637,-1.188,-0.750,+0.375,0, 1, -2, -1, -1, -2, -2, 3
1503701490424,+0.530,+0.201,-0.346,-0.747,+0.756,+0.071,-0.640,-1.312,-0.062,+0.375,-1, -1, -2, -1, 0, 0, -1, 3
1503701490446,+0.530,+0.201,-0.346,-0.747,+0.754,+0.077,-0.641,-1.188,+0.000,+0.375,0, 1, -1, -1, -1, 0, -2, -3
1503701490461,+0.530,+0.201,-0.346,-0.747,+0.749,+0.074,-0.634,-1.125,-0.750,+0.375,1, -1, 0, 0, 0, 0, -1, 1
1503701490491,+0.530,+0.201,-0.346,-0.747,+0.752,+0.075,-0.633,-0.875,-0.062,+0.562,-1, -2, -2, 1, 0, -1, -2, 4
1503701490508,+0.530,+0.201,-0.346,-0.747,+0.749,+0.076,-0.642,-1.062,+0.000,+0.500,-2, -1, -3, -1, -2, -1, -1, -1
1503701490521,+0.530,+0.201,-0.346,-0.747,+0.757,+0.074,-0.638,-1.062,+0.250,+0.625,0, 2, 0, -1, 0, -2, 0, 1
1503701490545,+0.530,+0.201,-0.346,-0.747,+0.754,+0.073,-0.632,-1.062,-0.062,+0.562,-2, 0, 1, -4, 0, -1, -2, 0
1503701490566,+0.530,+0.201,-0.346,-0.747,+0.759,+0.074,-0.638,-1.188,-0.250,+0.250,3, 1, 0, -1, -1, -1, 0, 3
1503701490583,+0.530,+0.201,-0.346,-0.747,+0.754,+0.079,-0.641,-1.062,-0.312,+0.438,-1, 0, -2, 0, -1, 0, 0, -1
1503701490603,+0.530,+0.201,-0.346,-0.747,+0.753,+0.073,-0.638,-1.062,-0.562,+0.438,0, -2, -1, -1, 0, -2, -2, -13
1503701490626,+0.530,+0.201,-0.346,-0.747,+0.751,+0.076,-0.636,-1.250,-0.125,+0.625,-1, -1, -1, -1, -1, -1, 0, 2
1503701490644,+0.530,+0.201,-0.346,-0.747,+0.747,+0.072,-0.645,-1.062,-0.625,+0.562,0, 0, 1, -1, -2, -1, -3, -3
1503701490664,+0.530,+0.201,-0.346,-0.747,+0.754,+0.074,-0.643,-1.312,+0.500,+0.438,-2, -1, -1, -2, 0, 0, -1, -3
1503701490686,+0.530,+0.201,-0.346,-0.747,+0.757,+0.076,-0.635,-1.250,+0.312,+0.438,0, -1, -2, 0, -3, -1, 1, 2
1503701490701,+0.530,+0.201,-0.346,-0.747,+0.752,+0.072,-0.640,-1.062,-0.625,+0.750,-1, 0, -2, 1, -1, 1, -1, -1
1503701490724,+0.530,+0.201,-0.346,-0.747,+0.754,+0.070,-0.633,-1.125,-0.125,+0.375,0, -1, -1, -2, -1, -2, -1, 0
1503701490746,+0.530,+0.201,-0.346,-0.747,+0.750,+0.070,-0.640,-1.312,-0.312,+0.625,-1, -1, -1, -1, -1, -1, -1, 2
1503701490762,+0.530,+0.201,-0.346,-0.747,+0.761,+0.077,-0.642,-1.250,-0.250,+0.562,-2, -3, 0, 0, -1, 0, -1, -1
1503701490784,+0.530,+0.201,-0.346,-0.747,+0.749,+0.076,-0.642,-1.125,-0.500,+0.562,0, 0, 0, 0, 0, 0, -1, 2
1503701490808,+0.530,+0.201,-0.346,-0.747,+0.746,+0.071,-0.642,-1.062,-0.062,+0.562,0, -3, -1, -1, 0, -1, 0, 2
1503701490821,+0.530,+0.201,-0.346,-0.747,+0.747,+0.072,-0.634,-1.062,+1.250,+0.188,-3, -1, -1, -3, -1, -3, -1, -4
1503701490844,+0.530,+0.201,-0.346,-0.747,+0.755,+0.085,-0.637,-1.000,+1.250,+0.625,-4, -1, -2, -2, 0, 0, -1, 1
1503701490866,+0.530,+0.202,-0.347,-0.747,+0.760,+0.072,-0.640,-0.188,+0.875,+0.938,1, 0, -1, -1, 0, -2, -1, 1
1503701490882,+0.530,+0.202,-0.347,-0.747,+0.756,+0.069,-0.632,-0.812,+0.500,+0.750,-1, -3, -1, 1, 0, 0, -1, -3
1503701490904,+0.530,+0.202,-0.347,-0.747,+0.749,+0.070,-0.639,-1.125,+0.188,+0.812,1, -1, 0, 0, -1, -2, 1, 1
1503701490926,+0.530,+0.202,-0.347,-0.747,+0.756,+0.077,-0.633,-1.125,+0.250,+0.500,0, -2, 0, -4, -1, 0, -1, 4
1503701490942,+0.530,+0.202,-0.347,-0.747,+0.746,+0.075,-0.639,-1.188,+0.812,+0.500,1, -1, -4, 1, -1, 0, -1, -1
1503701490964,+0.530,+0.202,-0.347,-0.747,+0.743,+0.075,-0.642,-1.062,+1.000,+0.625,1, -1, 0, -3, -1, -3, 0, -5
1503701490986,+0.530,+0.202,-0.347,-0.747,+0.755,+0.077,-0.636,-0.875,+1.938,+0.938,-2, -1, -1, -3, 0, -3, -2, -3
1503701491001,+0.530,+0.202,-0.347,-0.747,+0.753,+0.074,-0.640,-0.188,+1.688,+1.562,-1, -1, -1, 0, -1, -1, 0, -1
1503701491023,+0.530,+0.203,-0.347,-0.747,+0.759,+0.070,-0.630,+0.250,+2.375,+1.125,3, -2, -1, -1, -1, 0, 0, 2
1503701491046,+0.530,+0.203,-0.347,-0.747,+0.769,+0.081,-0.626,+0.562,+0.938,+1.500,-2, -1, -1, 0, -1, -1, -1, -5
1503701491061,+0.530,+0.204,-0.347,-0.746,+0.788,+0.072,-0.627,+2.438,+0.000,+0.312,-1, -2, 0, -1, 0, 0, -1, 0
1503701491084,+0.530,+0.204,-0.347,-0.746,+0.798,+0.090,-0.609,+4.375,-1.750,-0.312,-1, 0, -2, 1, 0, 1, -1, 2
1503701491106,+0.531,+0.206,-0.346,-0.745,+0.821,+0.073,-0.598,+11.000,-6.562,-3.125,-1, -1, 1, 1, -1, 0, -1, 2
1503701491121,+0.533,+0.207,-0.344,-0.745,+0.879,+0.059,-0.647,+12.688,-11.500,-6.688,-2, -1, 1, -4, 1, 0, 0, -13
1503701491144,+0.535,+0.207,-0.342,-0.744,+0.822,+0.067,-0.651,+11.438,-13.688,-3.625,2, 7, 10, -1, -2, -1, 0, -1
1503701491166,+0.536,+0.209,-0.341,-0.744,+0.959,+0.072,-0.648,+14.125,-8.250,-2.625,2, -8, -24, -6, -3, -2, -1, 1
1503701491181,+0.536,+0.210,-0.339,-0.744,+0.815,+0.110,-0.695,+11.938,-4.375,+7.938,-3, -3, 2, -2, -2, -1, -1, 0
1503701491203,+0.535,+0.216,-0.340,-0.743,+0.709,+0.156,-0.757,+25.562,+33.375,+17.375,-5, -12, -15, -16, -5, -2, -1, -1
1503701491226,+0.530,+0.229,-0.342,-0.741,+0.819,+0.087,-0.717,+41.688,+63.188,+41.625,-1, 5, 24, 20, 8, 1, -2, 0
1503701491244,+0.522,+0.245,-0.347,-0.740,+0.665,+0.101,-0.733,+46.562,+97.438,+66.062,-1, 18, 11, -3, 0, -1, 1, 2
1503701491264,+0.518,+0.260,-0.347,-0.737,+0.878,+0.281,-0.767,+73.125,+66.625,+57.750,-3, -13, -48, -18, -4, -2, -2, 3
1503701491287,+0.512,+0.280,-0.345,-0.735,+0.938,+0.111,-0.583,+90.438,+59.312,+73.000,-5, 2, -10, -52, -2, -1, -1, -1
1503701491301,+0.503,+0.295,-0.331,-0.742,+0.999,-0.138,-0.686,+75.875,-16.375,+109.438,-3, -7, -24, 5, 0, -1, 2, 3
1503701491323,+0.499,+0.304,-0.310,-0.750,+1.025,-0.000,-0.604,+79.000,-77.750,+102.875,-10, -2, -12, -5, -3, -1, -2, -1
1503701491347,+0.496,+0.314,-0.288,-0.757,+0.747,-0.028,-0.522,+95.125,-77.125,+98.688,7, 2, -4, 8, 6, 2, 0, 5
1503701491361,+0.490,+0.326,-0.265,-0.764,+0.623,-0.118,-0.596,+102.062,-66.312,+107.938,-2, -17, -45, -1, -7, -2, -1, -4
1503701491384,+0.483,+0.342,-0.244,-0.768,+0.627,-0.204,-0.639,+105.438,-39.125,+112.125,-11, 5, 14, 9, -2, -2, -1, -1
1503701491406,+0.473,+0.358,-0.226,-0.773,+0.658,-0.254,-0.591,+102.750,-19.812,+116.938,15, -3, -2, -14, -3, 0, -1, -1
1503701491422,+0.462,+0.375,-0.208,-0.776,+0.686,-0.254,-0.568,+105.812,-20.062,+118.875,0, 0, 22, 15, 2, 1, 1, -2
1503701491445,+0.453,+0.392,-0.188,-0.779,+0.688,-0.302,-0.574,+114.500,-28.938,+116.562,6, -6, -31, -21, -5, -4, -3, 1
1503701491466,+0.445,+0.407,-0.165,-0.780,+0.606,-0.372,-0.542,+118.562,-48.375,+113.938,-1, -1, 6, 0, -1, 1, 0, -4
1503701491481,+0.438,+0.422,-0.140,-0.781,+0.544,-0.451,-0.505,+122.625,-61.125,+108.750,2, 5, 0, -20, -6, -3, -3, 0
1503701491503,+0.431,+0.437,-0.117,-0.781,+0.491,-0.529,-0.480,+121.938,-49.188,+102.188,0, 5, -5, -4, 0, -2, 1, 7
1503701491526,+0.423,+0.452,-0.095,-0.780,+0.388,-0.594,-0.461,+122.375,-39.000,+99.125,2, -3, 7, 34, -3, -3, -1, -10
1503701491545,+0.413,+0.468,-0.076,-0.778,+0.356,-0.688,-0.465,+115.500,-18.750,+97.125,-5, 0, -8, -15, -4, -1, -1, 1
1503701491563,+0.399,+0.485,-0.064,-0.775,+0.300,-0.748,-0.495,+107.188,+28.875,+94.250,-4, 6, -12, -8, 1, 1, -1, 0
1503701491587,+0.384,+0.502,-0.054,-0.773,+0.340,-0.742,-0.319,+96.812,+36.812,+88.250,-2, -5, 9, 11, 0, -1, -1, 0
1503701491602,+0.373,+0.518,-0.044,-0.768,+0.552,-0.846,-0.227,+89.938,+17.938,+73.750,-4, -13, -24, -15, -4, -2, 0, -5
1503701491624,+0.366,+0.532,-0.036,-0.762,+0.576,-0.893,-0.271,+85.188,+9.062,+51.500,19, -15, -4, -13, 24, 3, 1, 6
1503701491647,+0.364,+0.542,-0.026,-0.757,+0.445,-0.882,-0.347,+72.312,-14.500,+31.812,-31, 30, 9, 18, 80, 58, -13, -7
1503701491662,+0.365,+0.549,-0.017,-0.752,+0.323,-0.891,-0.310,+65.250,-26.125,+1.875,-43, -2, 4, 5, -24, -19, 3, -5
1503701491684,+0.365,+0.557,-0.011,-0.746,+0.338,-0.914,-0.242,+59.438,-10.438,-3.000,7, 6, 5, 5, -9, -5, 3, -2
1503701491706,+0.365,+0.564,-0.007,-0.741,+0.421,-0.929,-0.230,+45.188,-4.500,+2.375,18, -40, -24, -11, -11, -3, -2, 2
1503701491722,+0.365,+0.569,-0.003,-0.737,+0.433,-0.939,-0.243,+31.938,-7.812,+0.562,29, 6, -9, 0, 17, 4, -5, 5
1503701491747,+0.367,+0.571,+0.000,-0.734,+0.425,-0.875,-0.290,+22.875,-19.062,-4.125,14, -14, -2, 2, 16, 9, -2, 0
1503701491766,+0.370,+0.572,+0.005,-0.732,+0.364,-0.877,-0.323,+24.750,-25.250,-3.938,-7, 8, -2, -7, 12, 6, -5, -5
1503701491782,+0.370,+0.573,+0.009,-0.731,+0.340,-0.889,-0.297,+13.438,-13.500,+1.188,-1, 1, 4, 3, -4, -4, -1, -3
1503701491804,+0.370,+0.574,+0.011,-0.730,+0.410,-0.857,-0.308,+11.250,-1.688,+4.000,-13, -8, 18, 15, 2, 0, -2, -2
1503701491826,+0.370,+0.576,+0.010,-0.729,+0.468,-0.850,-0.304,+6.562,+2.938,+1.562,-12, 21, -4, -2, 2, -1, -3, 9
1503701491842,+0.371,+0.576,+0.011,-0.728,+0.447,-0.853,-0.311,+5.062,-5.500,-6.875,18, -1, 4, -1, -2, -1, 0, -3
1503701491863,+0.374,+0.576,+0.011,-0.727,+0.383,-0.833,-0.352,+7.938,-7.812,-14.125,15, 34, 25, 12, 10, 2, 0, -1
1503701491886,+0.375,+0.577,+0.010,-0.725,+0.371,-0.838,-0.294,+9.938,+3.875,-20.188,-10, -22, -11, -3, -4, -6, -3, -7
1503701491901,+0.378,+0.580,+0.007,-0.722,+0.490,-0.881,-0.294,+12.438,+6.875,-24.125,-9, -4, -4, 0, 2, 2, -2, 2
1503701491923,+0.378,+0.581,+0.005,-0.720,+0.587,-0.932,-0.225,+1.688,+7.250,-8.375,2, 18, 18, 4, 12, 15, 0, 1
1503701491947,+0.377,+0.582,+0.001,-0.721,+0.206,-0.749,-0.490,+3.375,+36.688,-17.875,-12, 14, -35, -6, 13, 30, 7, 6
1503701491962,+0.378,+0.582,-0.009,-0.720,+0.253,-0.492,-0.276,-7.438,+41.125,-41.188,-22, -34, -2, -33, -52, -54, -36, -37
1503701491984,+0.389,+0.588,-0.013,-0.709,+1.025,-0.615,-0.299,+56.375,-21.938,-45.875,41, 19, -23, -23, -52, -76, -30, -9
1503701492006,+0.382,+0.586,-0.006,-0.715,+1.431,-1.744,+0.153,-57.562,-44.875,+95.375,-15, -100, 39, -20, -61, -37, -34, -48
1503701492022,+0.383,+0.578,+0.003,-0.721,-0.003,-0.937,-0.067,-53.188,-53.625,+9.375,-30, 58, 49, 51, 90, 95, 59, 9
1503701492044,+0.386,+0.570,-0.002,-0.725,-0.243,-0.223,-0.457,-36.125,+13.812,-40.875,76, 40, -9, -19, -19, 46, -15, 20
1503701492066,+0.381,+0.572,-0.013,-0.726,+0.794,-0.651,-0.404,-10.688,+65.750,+11.312,10, -16, -22, -2, 0, -15, 21, 41
1503701492089,+0.378,+0.575,-0.020,-0.725,+0.884,-1.069,-0.276,-10.750,+30.938,-0.438,18, 13, -12, 37, 127, 57, 36, 7
1503701492103,+0.389,+0.571,-0.016,-0.723,+0.573,-0.877,-0.305,+1.250,-61.562,-32.812,-61, -30, -11, 13, 90, -3, 15, 8
1503701492126,+0.392,+0.567,-0.011,-0.724,+0.193,-0.805,-0.332,-10.938,-32.812,-12.688,-9, -47, 46, 1, -47, 50, -14, -18
1503701492142,+0.391,+0.566,-0.013,-0.726,+0.306,-0.713,-0.394,-8.000,+17.938,-3.000,-2, -53, -73, 5, 16, 59, 0, 11
1503701492163,+0.388,+0.568,-0.018,-0.725,+0.648,-0.854,-0.307,-2.688,+28.938,+2.688,-22, -23, 8, 14, 24, 3, -7, -36
1503701492186,+0.390,+0.568,-0.019,-0.724,+0.621,-0.802,-0.310,-0.062,-1.750,-5.188,-9, -3, -13, -5, 24, -120, -18, -13
1503701492201,+0.393,+0.567,-0.019,-0.724,+0.465,-0.771,-0.318,+0.625,-14.250,-11.688,2, -24, 13, 9, 11, 59, -12, -15
1503701492224,+0.392,+0.568,-0.020,-0.723,+0.466,-0.833,-0.320,-1.312,+5.188,-4.938,-8, 20, 20, 4, 3, 33, 3, 3
1503701492246,+0.392,+0.568,-0.022,-0.724,+0.530,-0.775,-0.309,-5.500,+14.625,-2.312,-1, 9, -15, 9, 19, 52, 1, -19
1503701492262,+0.392,+0.568,-0.025,-0.723,+0.567,-0.808,-0.265,-7.438,+7.688,-4.625,1, 18, -5, -6, -13, -25, 6, 14
1503701492284,+0.392,+0.568,-0.026,-0.723,+0.544,-0.853,-0.298,-6.438,+1.500,-5.250,5, 1, -14, -11, -14, -39, -7, -16
1503701492306,+0.392,+0.567,-0.028,-0.724,+0.519,-0.776,-0.291,-12.750,+0.875,-3.938,-6, -6, -9, -16, -34, -41, -6, 15
1503701492322,+0.392,+0.566,-0.030,-0.725,+0.504,-0.792,-0.304,-12.938,+7.188,-3.500,7, 1, -4, -2, 21, 19, 8, -2
1503701492344,+0.392,+0.565,-0.032,-0.725,+0.525,-0.804,-0.306,-11.562,+9.500,-2.688,1, 1, -2, 4, 31, 33, 1, 13
1503701492366,+0.392,+0.565,-0.033,-0.725,+0.546,-0.812,-0.282,-10.188,-1.500,-4.562,-15, 7, -7, 8, 0, 6, 2, 10
1503701492383,+0.394,+0.563,-0.034,-0.726,+0.525,-0.793,-0.327,-6.125,-6.000,-6.938,-14, -10, 2, -3, -15, -8, 0, -6
1503701492403,+0.396,+0.562,-0.034,-0.726,+0.491,-0.796,-0.355,-7.500,-7.500,-9.688,5, 1, 2, -2, -5, -6, 0, 4
1503701492426,+0.396,+0.561,-0.035,-0.726,+0.491,-0.786,-0.346,-6.000,+3.125,-3.125,7, 1, 0, 1, 1, 4, -1, -4
1503701492442,+0.394,+0.562,-0.037,-0.727,+0.530,-0.782,-0.328,-6.250,+15.375,+0.438,7, -3, 0, 0, 10, 4, 1, 0
1503701492464,+0.393,+0.562,-0.040,-0.727,+0.567,-0.766,-0.296,-6.438,+14.500,+1.625,5, -10, -12, -6, -14, -2, -1, -3
1503701492490,+0.393,+0.563,-0.042,-0.726,+0.612,-0.797,-0.306,-2.562,+7.000,-2.000,7, 0, 6, 1, -4, -5, 0, -1
1503701492502,+0.395,+0.562,-0.042,-0.726,+0.562,-0.771,-0.313,-0.812,-9.062,-8.062,1, -2, -4, -5, -7, -4, -1, -5
1503701492525,+0.398,+0.561,-0.041,-0.725,+0.486,-0.784,-0.335,-0.812,-15.875,-14.812,-3, -1, -2, 1, -23, 1, -2, -2
1503701492546,+0.400,+0.560,-0.041,-0.724,+0.480,-0.802,-0.339,-0.688,-4.062,-12.938,-2, 2, 2, 2, 5, 3, 1, -15
1503701492562,+0.400,+0.561,-0.043,-0.724,+0.514,-0.787,-0.331,-3.062,+6.938,-8.125,-5, -1, 2, -9, -29, -2, 0, 3
1503701492585,+0.400,+0.561,-0.045,-0.723,+0.548,-0.791,-0.331,-2.500,+10.250,-6.688,3, 0, 1, -2, 3, 0, -1, 3
1503701492606,+0.401,+0.562,-0.047,-0.722,+0.583,-0.776,-0.297,-1.250,+3.438,-7.938,0, -3, -3, 0, 6, -1, 1, 3
1503701492623,+0.403,+0.562,-0.048,-0.721,+0.573,-0.773,-0.326,+1.125,-2.562,-13.375,3, 0, -1, 2, 11, -2, -1, 2
1503701492644,+0.406,+0.561,-0.048,-0.720,+0.523,-0.775,-0.336,+2.750,-10.500,-18.438,-2, 0, 5, 3, 2, 0, -1, 0
1503701492666,+0.408,+0.561,-0.048,-0.719,+0.511,-0.767,-0.333,+1.000,-5.250,-15.500,-2, 0, -2, -1, 8, -2, -1, 2
1503701492690,+0.409,+0.561,-0.050,-0.718,+0.552,-0.777,-0.316,+0.250,+6.438,-10.688,4, 2, 1, 0, 3, 0, 0, -1
1503701492704,+0.409,+0.562,-0.053,-0.717,+0.584,-0.766,-0.316,-2.438,+11.562,-9.688,-2, -3, -5, -2, 3, 0, -1, 0
1503701492726,+0.410,+0.562,-0.055,-0.716,+0.599,-0.761,-0.319,-5.000,+8.750,-9.500,-2, -1, 2, 1, 1, 0, 0, 1
1503701492742,+0.410,+0.562,-0.058,-0.716,+0.597,-0.766,-0.320,-7.062,+8.938,-9.250,1, -3, 0, -2, 0, -1, -1, 0
1503701492764,+0.410,+0.562,-0.061,-0.716,+0.587,-0.737,-0.312,-7.312,+10.625,-11.062,-3, 3, 1, 1, 1, -2, 1, 1
1503701492787,+0.411,+0.562,-0.065,-0.715,+0.597,-0.719,-0.336,-7.312,+12.812,-12.125,-7, 0, -1, -1, -3, -2, -1, -2
1503701492808,+0.411,+0.562,-0.070,-0.715,+0.600,-0.724,-0.354,-8.500,+21.062,-16.250,-4, -3, -1, -2, -3, 1, -2, 1
1503701492824,+0.411,+0.561,-0.077,-0.714,+0.630,-0.700,-0.347,-15.625,+32.500,-19.750,0, -2, -2, -2, 3, 2, 0, -2
1503701492846,+0.410,+0.562,-0.088,-0.713,+0.644,-0.652,-0.336,-22.812,+51.562,-30.750,0, -1, -1, -3, -4, -2, -2, -3
1503701492868,+0.410,+0.561,-0.104,-0.711,+0.689,-0.544,-0.332,-27.125,+64.875,-49.688,0, -1, -2, -2, -4, -2, 0, 0
1503701492886,+0.413,+0.560,-0.122,-0.708,+0.757,-0.558,-0.293,-30.750,+61.500,-68.500,-2, 0, -1, -3, 2, -2, 1, 0
1503701492906,+0.420,+0.560,-0.140,-0.700,+0.750,-0.610,-0.227,-17.875,+55.500,-102.000,-7, -1, 1, -2, -12, 14, 62, 5
1503701492929,+0.427,+0.560,-0.159,-0.691,+0.718,-0.543,-0.176,-12.375,+61.500,-115.625,9, 1, -1, 4, 12, 12, 3, 4
1503701492944,+0.433,+0.561,-0.181,-0.682,+0.713,-0.486,-0.156,-16.500,+76.875,-117.625,4, -2, 0, -1, -12, -3, 0, -2
1503701492966,+0.436,+0.563,-0.207,-0.671,+0.758,-0.464,-0.160,-20.750,+107.938,-119.688,-3, -1, -2, 1, 10, -15, -73, -1
1503701492990,+0.439,+0.564,-0.233,-0.660,+0.749,-0.432,-0.167,-22.375,+113.062,-122.312,-11, -4, -4, -2, -1, -2, 2, -2
1503701493004,+0.442,+0.564,-0.260,-0.647,+0.772,-0.327,-0.174,-26.812,+110.000,-133.062,-7, -9, -4, -3, -1, -10, -26, -43
1503701493026,+0.444,+0.563,-0.284,-0.636,+0.936,-0.418,-0.157,-22.312,+97.312,-114.812,-31, 2, -2, -1, 3, 0, 19, 11
1503701493048,+0.448,+0.562,-0.304,-0.625,+1.032,-0.496,-0.133,-17.312,+76.375,-113.375,1, 1, 0, 1, -1, 2, 3, 12
1503701493064,+0.454,+0.559,-0.322,-0.615,+1.029,-0.480,-0.175,-17.438,+58.250,-110.312,12, 6, -2, -2, -1, 9, 12, 14
1503701493087,+0.459,+0.554,-0.336,-0.608,+0.951,-0.431,-0.163,-20.000,+33.312,-97.250,31, -4, 4, -1, -2, 2, -6, -7
1503701493108,+0.464,+0.549,-0.346,-0.603,+0.918,-0.409,-0.163,-19.750,+23.750,-79.875,11, 6, 7, 2, 1, -1, 4, 23
1503701493124,+0.467,+0.546,-0.356,-0.598,+0.900,-0.385,-0.149,-20.312,+30.812,-67.500,10, -9, 0, 0, 5, 3, 7, 7
1503701493146,+0.467,+0.543,-0.366,-0.595,+0.938,-0.369,-0.166,-22.938,+36.938,-50.000,3, 1, 0, 1, 1, -3, -10, -3
1503701493168,+0.466,+0.541,-0.374,-0.592,+0.962,-0.329,-0.146,-23.938,+36.688,-41.375,-37, 0, 4, 0, 0, -3, -1, 7
1503701493186,+0.466,+0.538,-0.381,-0.590,+0.990,-0.323,-0.114,-23.000,+22.250,-35.562,11, 27, 15, 5, -2, 2, 5, -6
1503701493206,+0.467,+0.536,-0.386,-0.589,+0.995,-0.372,-0.081,-19.062,+8.500,-31.312,-28, 6, 1, 2, 1, 2, 1, -4
1503701493229,+0.468,+0.533,-0.388,-0.589,+0.991,-0.433,-0.088,-16.812,-2.125,-31.062,-47, 3, -1, 0, 0, -2, 3, -22
1503701493244,+0.469,+0.529,-0.392,-0.589,+0.943,-0.429,-0.111,-20.375,-1.438,-35.375,-36, -34, -7, -5, 2, 4, 4, 25
1503701493266,+0.471,+0.525,-0.396,-0.588,+0.910,-0.393,-0.087,-23.438,-1.125,-37.875,14, 4, 3, 1, 1, -5, 5, 7
1503701493291,+0.472,+0.521,-0.400,-0.588,+0.954,-0.364,-0.087,-26.438,-0.312,-40.188,1, -15, -8, -3, -2, 13, 9, 16
1503701493304,+0.474,+0.516,-0.404,-0.588,+0.957,-0.319,-0.053,-27.625,-10.875,-37.750,51, 8, -4, -1, -1, -63, -104, 27
1503701493334,+0.477,+0.509,-0.407,-0.590,+0.984,-0.305,-0.076,-32.500,-19.000,-37.688,30, -5, -5, -7, -2, 27, 44, 8
1503701493356,+0.480,+0.502,-0.410,-0.592,+0.964,-0.241,-0.094,-32.875,-30.312,-31.188,6, -3, 0, 0, -4, -8, 25, 23
1503701493365,+0.484,+0.494,-0.410,-0.595,+0.948,-0.210,-0.139,-28.750,-38.625,-24.438,-76, -39, -7, -5, -4, 43, -24, 4
1503701493388,+0.487,+0.487,-0.409,-0.598,+0.958,-0.239,-0.197,-22.938,-38.188,-22.250,42, 13, 1, 2, 2, 10, 33, 11
1503701493408,+0.493,+0.479,-0.407,-0.601,+0.921,-0.212,-0.214,-19.312,-46.125,-28.000,-15, 4, 1, 3, 0, 6, 21, -2
1503701493425,+0.500,+0.471,-0.405,-0.603,+0.901,-0.158,-0.234,-11.938,-51.375,-34.125,-19, 24, 15, 5, 3, -1, 2, -80
1503701493447,+0.507,+0.464,-0.403,-0.604,+0.881,-0.144,-0.225,-5.438,-43.125,-34.125,19, 5, 0, -2, -1, 4, 12, 9
1503701493468,+0.513,+0.458,-0.402,-0.604,+0.933,-0.139,-0.153,-4.625,-43.062,-32.312,15, 35, 9, 6, 2, 2, 15, 32
1503701493485,+0.520,+0.452,-0.400,-0.604,+1.046,-0.149,-0.154,-2.438,-51.688,-36.625,-15, -28, -17, -5, -2, 4, 10, 0
1503701493506,+0.533,+0.442,-0.394,-0.604,+0.822,-0.090,-0.392,+15.188,-71.188,-52.000,20, -1, -4, 0, -1, 1, 6, 29
1503701493528,+0.543,+0.433,-0.392,-0.603,+0.981,-0.007,-0.242,-2.375,-64.500,-47.000,11, 12, -15, -3, 2, -2, 2, -4
1503701493545,+0.549,+0.429,-0.389,-0.602,+0.994,-0.090,-0.219,+12.938,-39.688,-25.750,12, 5, -10, -4, -2, 0, 3, -6
1503701493567,+0.550,+0.432,-0.391,-0.598,+1.036,-0.081,-0.183,+10.312,+12.625,-15.688,22, 16, 13, 6, 2, 1, -2, -8
1503701493589,+0.550,+0.435,-0.397,-0.593,+1.146,-0.057,-0.212,+4.188,+38.188,-23.062,2, -7, -8, -1, -2, 2, 1, 0
1503701493604,+0.550,+0.438,-0.405,-0.585,+1.259,-0.019,-0.217,+7.875,+44.312,-31.750,-11, 22, 28, 7, 2, 1, 0, 3
1503701493627,+0.553,+0.439,-0.410,-0.577,+1.306,-0.004,-0.121,+10.500,+17.562,-43.250,7, 4, 15, 2, 2, 1, 6, 16
1503701493648,+0.560,+0.437,-0.412,-0.570,+1.291,-0.027,-0.205,+23.188,-8.312,-55.812,-3, 2, -2, -3, 0, -1, -1, -5
1503701493665,+0.571,+0.436,-0.406,-0.564,+1.017,-0.142,-0.323,+53.438,-33.938,-52.750,-8, -28, -12, -3, -2, -2, -1, -5
1503701493687,+0.579,+0.437,-0.401,-0.559,+0.814,-0.161,-0.241,+50.312,-14.562,-38.625,-7, -9, 7, 0, 1, -1, -3, -9
1503701493708,+0.581,+0.444,-0.401,-0.552,+0.897,-0.122,-0.147,+41.188,+25.750,-16.000,34, 13, -12, -8, -27, -14, -1, 0
1503701493725,+0.567,+0.466,-0.400,-0.549,+0.763,-0.469,-0.100,+47.000,+119.312,+80.938,-1, -4, -13, -33, 16, 15, 3, -10
1503701493747,+0.557,+0.480,-0.415,-0.536,+0.882,+0.084,-0.244,+8.625,+152.125,-14.688,0, 5, -7, -21, -23, 2, 2, 11
1503701493769,+0.544,+0.493,-0.426,-0.529,+1.114,+0.090,+0.000,-9.938,+126.250,+22.688,-20, -4, -13, -19, -40, 14, 7, -10
1503701493785,+0.534,+0.504,-0.428,-0.528,+1.254,-0.126,-0.021,+2.625,+65.812,+45.625,-19, -10, -7, 7, 14, -1, -6, -3
1503701493807,+0.529,+0.508,-0.425,-0.530,+1.167,-0.087,-0.095,+0.812,+12.688,+36.938,21, -28, -12, -7, -11, -2, -1, 4
1503701493829,+0.527,+0.509,-0.419,-0.536,+0.933,-0.072,-0.156,+1.250,-16.375,+49.062,9, -50, -22, -25, -22, -3, 0, -5
1503701493845,+0.524,+0.511,-0.413,-0.542,+0.760,-0.108,-0.161,-1.125,-12.000,+52.062,-11, 20, 1, -5, -9, 2, -2, 3
1503701493867,+0.518,+0.516,-0.409,-0.546,+0.795,-0.137,-0.123,-2.500,+16.562,+51.188,-7, 34, 7, 3, 4, -1, -3, -2
1503701493891,+0.510,+0.522,-0.408,-0.549,+0.889,-0.135,-0.116,-1.750,+34.250,+51.688,-8, 27, 20, 6, 7, 1, 0, -9
1503701493905,+0.505,+0.527,-0.405,-0.551,+0.991,-0.113,-0.056,+5.000,+16.312,+47.250,-14, 3, 5, -1, 5, -1, -5, 0
1503701493927,+0.504,+0.530,-0.401,-0.552,+0.993,-0.109,-0.102,+13.625,-6.500,+31.750,-1, -25, -20, -5, 37, 0, 2, 7
1503701493949,+0.507,+0.530,-0.396,-0.553,+0.915,-0.171,-0.104,+19.875,-23.312,+11.562,-27, -11, -6, 1, -11, -8, -2, -1
1503701493965,+0.510,+0.531,-0.390,-0.554,+0.878,-0.191,-0.145,+22.688,-22.562,+11.000,16, 4, 4, -7, -24, 0, 0, 4
1503701493986,+0.510,+0.534,-0.385,-0.554,+0.906,-0.257,-0.153,+24.375,-2.188,+16.688,-3, -15, -2, -1, -22, 0, 0, -2
1503701494008,+0.508,+0.538,-0.381,-0.555,+0.956,-0.272,-0.151,+19.250,+4.562,+23.562,6, -1, 1, 26, 12, -3, -5, -2
1503701494025,+0.508,+0.540,-0.375,-0.556,+0.965,-0.248,-0.164,+17.688,-3.625,+27.250,11, 2, -1, -14, -6, -2, 2, 4
1503701494047,+0.508,+0.542,-0.369,-0.558,+0.962,-0.237,-0.157,+18.875,-16.125,+27.750,-3, 3, 1, 1, 22, -3, -1, -3
1503701494068,+0.509,+0.544,-0.362,-0.560,+0.932,-0.222,-0.124,+20.812,-26.188,+29.062,-23, -1, 0, 0, 3, 5, -2, -2
1503701494085,+0.511,+0.545,-0.355,-0.562,+0.930,-0.204,-0.109,+22.125,-30.375,+26.938,-7, 2, 1, -2, -17, -4, 3, 5
1503701494106,+0.513,+0.545,-0.348,-0.564,+0.917,-0.184,-0.109,+19.938,-30.188,+24.500,-1, -1, -3, 1, -18, -1, 0, 9
1503701494129,+0.516,+0.545,-0.343,-0.565,+0.867,-0.107,-0.135,+19.250,-28.875,+20.250,-10, 2, -8, -1, -19, -2, -1, 4
1503701494151,+0.520,+0.544,-0.338,-0.565,+0.846,-0.071,-0.147,+22.625,-29.250,+12.875,5, -12, -4, -1, 2, 1, 3, 9
1503701494168,+0.525,+0.544,-0.333,-0.564,+0.846,-0.054,-0.108,+25.250,-28.250,+5.062,5, 26, 14, -1, -22, -1, -4, -8
1503701494188,+0.533,+0.542,-0.332,-0.559,+0.967,+0.108,+0.087,+27.938,-44.438,-17.938,-1, -12, -2, 0, -3, -4, -9, -13
1503701494205,+0.532,+0.551,-0.346,-0.542,+1.342,-0.113,+0.154,+33.938,+102.562,-71.875,4, -3, -3, -6, -21, -5, -1, -7
1503701494227,+0.541,+0.545,-0.349,-0.537,+1.145,+0.010,-0.078,+9.188,-26.812,-49.562,-7, -14, -6, 1, -3, 0, 0, -5
1503701494249,+0.553,+0.536,-0.344,-0.537,+0.895,-0.012,-0.308,+17.625,-73.000,-32.312,-3, 2, 0, 3, 5, 0, 1, 2
1503701494265,+0.563,+0.530,-0.345,-0.532,+0.785,-0.071,-0.186,+13.375,-32.938,-51.438,-3, 0, 0, 9, 1, -1, -1, -7
1503701494287,+0.568,+0.527,-0.349,-0.527,+0.930,-0.159,-0.173,+5.750,-2.500,-53.000,1, 5, 5, -4, -1, 0, 8, 9
1503701494308,+0.573,+0.524,-0.352,-0.522,+1.088,-0.214,-0.151,-1.312,-6.438,-50.938,-1, 4, 9, 2, 3, 0, -4, -3
1503701494326,+0.578,+0.516,-0.353,-0.524,+1.166,-0.251,-0.279,-22.000,-40.500,-34.750,2, -6, -5, -1, -3, 2, -1, 1
1503701494354,+0.580,+0.513,-0.356,-0.524,+1.091,-0.159,-0.076,-18.500,-17.375,-25.188,-3, -15, -8, -4, -4, 0, -1, -4
1503701494369,+0.582,+0.509,-0.355,-0.525,+1.029,-0.160,-0.199,-10.125,-25.312,-10.438,-3, 5, 7, -1, -10, -4, -1, -3
1503701494385,+0.585,+0.505,-0.354,-0.527,+1.004,-0.159,-0.241,-6.875,-23.250,-9.250,-6, 8, 5, -1, 3, -2, 2, 1
1503701494407,+0.588,+0.501,-0.353,-0.527,+0.929,-0.102,-0.240,-6.875,-25.688,-15.250,3, 7, -10, -5, -6, 0, -4, -6
1503701494431,+0.591,+0.498,-0.353,-0.527,+0.961,-0.129,-0.241,-3.875,-12.000,-17.688,4, 3, -12, -6, 0, 0, -2, 0
1503701495149,+0.648,+0.470,-0.310,-0.513,+0.920,-0.071,-0.321,+20.438,-11.438,+1.375,2, 0, 2, -1, 2, 3, 2, 6
1503701495165,+0.650,+0.470,-0.307,-0.512,+0.924,-0.057,-0.328,+19.500,-11.188,+0.812,-9, 6, 0, -2, 0, 0, 0, 6
1503701495187,+0.652,+0.470,-0.304,-0.511,+0.969,-0.071,-0.336,+20.438,-15.812,-1.938,-2, -2, 4, 4, 1, 0, -1, -3
1503701495209,+0.654,+0.472,-0.300,-0.510,+0.974,-0.089,-0.345,+26.312,-10.812,+2.688,12, -6, -2, -1, 8, 0, -1, 3
1503701495225,+0.657,+0.472,-0.295,-0.508,+0.959,-0.069,-0.353,+25.750,-15.750,-0.875,-9, -4, 0, -2, -7, -2, 0, 8
1503701495247,+0.660,+0.472,-0.291,-0.506,+0.938,-0.067,-0.372,+28.312,-13.938,-2.438,-4, -9, -8, -3, -4, -2, 1, 9
1503701495269,+0.663,+0.473,-0.286,-0.505,+0.969,-0.074,-0.368,+29.375,-20.750,+4.500,1, 14, 6, 9, 1, 1, 3, 0
1503701495284,+0.667,+0.472,-0.280,-0.504,+0.929,-0.088,-0.396,+28.188,-26.688,+5.000,1, 8, -5, -2, -1, 2, 1, 3
1503701495307,+0.670,+0.472,-0.273,-0.503,+0.923,-0.070,-0.392,+33.750,-22.938,+6.562,8, 1, 0, 2, -5, -1, -2, -5
1503701495332,+0.673,+0.473,-0.267,-0.502,+0.907,-0.075,-0.436,+38.000,-17.812,+9.812,-6, 6, 4, 4, -4, -3, -4, -8
1503701495351,+0.676,+0.475,-0.259,-0.501,+0.934,-0.098,-0.422,+42.188,-19.688,+12.562,-3, 2, -3, -3, -10, -2, -1, -1
1503701495366,+0.678,+0.477,-0.251,-0.500,+0.923,-0.133,-0.370,+43.438,-19.750,+11.938,6, 6, -6, -1, 1, -1, -1, -8
1503701495388,+0.681,+0.479,-0.244,-0.497,+0.892,-0.131,-0.390,+43.875,-17.188,+7.188,-2, -4, 0, 0, 3, -3, -1, -1
1503701495411,+0.683,+0.481,-0.237,-0.495,+0.880,-0.131,-0.416,+44.625,-12.312,+8.938,-1, 3, -2, -5, -4, -2, -1, -1
1503701495426,+0.685,+0.484,-0.230,-0.493,+0.907,-0.158,-0.352,+44.375,-13.188,+8.875,11, -4, 1, -9, -9, -3, -3, -10
1503701495448,+0.688,+0.487,-0.223,-0.490,+0.913,-0.181,-0.352,+45.750,-14.500,+5.812,-21, -24, -6, -2, 3, 0, -2, 0
1503701495471,+0.690,+0.489,-0.215,-0.488,+0.876,-0.189,-0.369,+45.500,-15.062,+4.188,-13, 11, -5, -4, 5, 0, -2, -4
1503701495486,+0.693,+0.492,-0.209,-0.485,+0.859,-0.212,-0.349,+41.938,-13.938,+3.000,6, 1, -2, 5, 1, -1, 1, 0
1503701495508,+0.694,+0.495,-0.203,-0.482,+0.873,-0.217,-0.348,+38.625,-7.125,+0.188,-3, 5, -3, -2, 1, 1, 3, -1
1503701495532,+0.696,+0.497,-0.198,-0.479,+0.904,-0.219,-0.340,+34.625,-8.250,+0.062,3, -2, 8, 2, -1, -1, 0, 9
1503701495546,+0.698,+0.499,-0.194,-0.476,+0.925,-0.209,-0.336,+28.375,-9.750,-2.562,-7, 0, -7, 4, -1, 1, -1, 2
1503701495569,+0.699,+0.500,-0.191,-0.475,+0.903,-0.212,-0.341,+21.812,-8.625,+1.312,-2, -2, 3, -1, -4, -3, -2, 1
1503701495591,+0.699,+0.501,-0.188,-0.474,+0.898,-0.192,-0.336,+16.125,-5.500,+4.812,-7, 1, -8, 0, -3, -3, -3, -2
1503701495614,+0.700,+0.502,-0.186,-0.473,+0.889,-0.191,-0.363,+12.250,-3.688,+5.938,-35, -3, -12, -16, -6, 1, 3, 12
1503701495628,+0.700,+0.503,-0.184,-0.473,+0.885,-0.200,-0.361,+9.625,-2.938,+6.562,9, -7, -5, -6, -2, 0, 2, 4
1503701495651,+0.699,+0.504,-0.183,-0.474,+0.863,-0.226,-0.311,+0.375,+0.688,+7.812,3, 4, 2, -2, 1, 0, 0, -6
1503701495666,+0.696,+0.505,-0.185,-0.475,+0.876,-0.245,-0.264,-14.875,+9.562,+7.562,-3, 4, 2, 3, 2, -2, 0, -8
1503701495689,+0.694,+0.505,-0.188,-0.478,+0.931,-0.245,-0.288,-25.500,+6.812,+6.562,18, 0, 12, 4, 3, -1, -3, 1
1503701495711,+0.692,+0.504,-0.191,-0.480,+0.911,-0.234,-0.348,-26.250,+1.000,+1.938,8, 4, 13, 17, 10, 4, -4, -11
1503701495726,+0.692,+0.502,-0.194,-0.482,+0.865,-0.207,-0.418,-24.062,+1.688,-1.938,-11, 1, -4, -8, -7, -4, -2, -6
1503701495748,+0.690,+0.500,-0.197,-0.484,+0.884,-0.208,-0.398,-24.688,+7.938,+2.375,-5, -15, -13, 1, -4, -2, -1, 6
1503701495771,+0.688,+0.500,-0.200,-0.487,+0.939,-0.215,-0.399,-25.000,+12.562,+9.312,10, -4, -7, -4, -7, -4, 1, -5
1503701495786,+0.685,+0.500,-0.203,-0.490,+0.910,-0.213,-0.394,-27.188,+11.312,+13.062,-4, -6, -4, -1, 3, 2, -4, -15
1503701495809,+0.683,+0.499,-0.206,-0.493,+0.907,-0.167,-0.398,-24.625,+8.000,+13.562,12, -17, -23, -7, -6, -5, -2, 4
1503701495834,+0.680,+0.498,-0.208,-0.496,+0.896,-0.169,-0.396,-23.125,+12.562,+12.250,4, -17, -9, -6, -7, -4, -5, -14
1503701495846,+0.676,+0.499,-0.212,-0.499,+0.851,-0.199,-0.346,-26.625,+19.625,+15.625,-8, 1, 7, 1, 4, 5, 4, 2
1503701495869,+0.672,+0.500,-0.216,-0.502,+0.921,-0.209,-0.351,-29.000,+24.938,+12.562,8, 3, -4, -1, -4, -2, -1, 9
1503701495891,+0.668,+0.500,-0.220,-0.505,+0.981,-0.196,-0.379,-27.188,+17.125,+13.125,-4, -5, -3, 0, -2, -1, 3, 6
1503701495906,+0.666,+0.499,-0.222,-0.508,+0.905,-0.200,-0.368,-24.250,+6.500,+10.750,15, 11, -1, -3, 1, -2, 0, -5
1503701495929,+0.664,+0.498,-0.224,-0.510,+0.857,-0.201,-0.382,-23.125,+5.000,+9.062,22, 3, 10, 1, -1, 0, 1, 3
1503701495951,+0.662,+0.497,-0.227,-0.513,+0.885,-0.203,-0.391,-22.188,+10.812,+6.062,-1, 0, -1, 17, 26, 10, -2, 0
1503701495968,+0.660,+0.497,-0.230,-0.514,+0.922,-0.218,-0.354,-22.312,+10.688,+3.562,-13, 4, 2, -6, -11, -3, -3, 10
1503701495988,+0.658,+0.496,-0.233,-0.516,+0.891,-0.196,-0.345,-24.000,+7.375,+0.938,-12, -17, -6, -7, -7, -8, -3, 1
1503701496011,+0.656,+0.495,-0.236,-0.518,+0.859,-0.211,-0.342,-25.062,+13.188,-1.812,0, -3, -5, -5, 1, -2, -6, -23
1503701496026,+0.655,+0.494,-0.241,-0.519,+0.881,-0.220,-0.324,-27.562,+14.188,-6.938,-6, 7, 1, 2, 0, 2, 1, 1
1503701496048,+0.653,+0.493,-0.246,-0.519,+0.925,-0.173,-0.356,-28.188,+13.625,-9.562,1, 5, 2, -3, -15, -1, -1, 5
1503701496071,+0.652,+0.492,-0.251,-0.520,+0.906,-0.162,-0.383,-24.562,+14.312,-8.938,-3, -3, 3, -2, -5, -1, -1, -2
1503701496086,+0.651,+0.491,-0.256,-0.520,+0.888,-0.173,-0.369,-26.125,+16.000,-9.812,-1, -5, -5, 0, -4, 0, 1, -2
1503701496109,+0.649,+0.490,-0.261,-0.520,+0.897,-0.146,-0.349,-25.000,+22.250,-12.812,-2, 1, 0, 1, 7, 12, 1, 6
1503701496131,+0.647,+0.491,-0.267,-0.519,+0.907,-0.138,-0.335,-22.562,+29.438,-8.500,-3, -7, -1, -3, -7, -12, -1, 1
1503701496146,+0.643,+0.493,-0.273,-0.518,+0.915,-0.145,-0.348,-21.875,+40.000,-6.938,0, 7, -1, -1, 1, 0, -2, -6
1503701496170,+0.639,+0.495,-0.280,-0.517,+0.929,-0.135,-0.351,-21.562,+47.125,-4.750,2, -1, -3, 5, 4, -6, -2, -2
1503701496191,+0.635,+0.498,-0.287,-0.516,+0.967,-0.104,-0.327,-18.688,+47.500,-4.562,1, 4, 1, 12, 9, 0, -1, 1
1503701496206,+0.632,+0.501,-0.293,-0.513,+1.015,-0.079,-0.327,-10.625,+39.125,-9.000,-3, -4, -6, -11, -12, -5, 0, -2
1503701496239,+0.632,+0.502,-0.296,-0.511,+0.973,-0.086,-0.298,-2.125,+18.000,-13.312,-20, -19, 6, -7, 20, -2, -4, -13
1503701496251,+0.633,+0.501,-0.297,-0.509,+0.903,-0.141,-0.316,+0.812,+8.625,-16.500,8, 1, -4, -4, -18, -3, -1, -9
1503701496266,+0.634,+0.502,-0.300,-0.506,+0.909,-0.131,-0.279,-0.125,+16.000,-17.188,7, 11, -4, -1, -5, 1, -1, -6
1503701496288,+0.632,+0.505,-0.303,-0.504,+0.981,-0.175,-0.257,-2.000,+25.688,-13.188,3, -3, -1, 8, 2, -3, 0, 12
1503701496311,+0.632,+0.506,-0.306,-0.502,+1.062,-0.118,-0.248,-2.812,+14.875,-13.188,3, 0, 3, 13, 27, 8, 0, 2
1503701496326,+0.634,+0.505,-0.308,-0.498,+1.007,-0.046,-0.216,+5.000,-3.125,-22.500,10, 9, 3, -5, -3, -8, 0, 4
1503701496348,+0.638,+0.503,-0.307,-0.496,+0.968,-0.108,-0.259,+6.625,-17.188,-19.000,-3, 0, -2, -5, -16, -4, -2, -3
1503701496372,+0.640,+0.501,-0.306,-0.495,+0.973,-0.115,-0.253,+5.812,-16.812,-11.625,-3, -15, -6, -7, -1, 2, 0, 1
1503701496386,+0.641,+0.501,-0.306,-0.494,+0.959,-0.115,-0.235,+3.500,-1.750,-5.688,-29, -2, 4, 3, -4, 16, -1, -5
1503701496408,+0.640,+0.502,-0.306,-0.494,+1.029,-0.121,-0.222,-3.000,+3.625,+0.625,14, 2, -11, -14, -10, -11, -4, -3
1503701496431,+0.639,+0.502,-0.307,-0.494,+1.021,-0.086,-0.237,-5.500,+1.938,+3.875,12, 6, 0, 3, 8, -7, -3, -2
1503701496446,+0.640,+0.502,-0.307,-0.494,+0.973,-0.059,-0.268,-0.312,-2.750,+0.688,6, -6, -3, -15, -24, -8, -2, 4
1503701496471,+0.640,+0.501,-0.306,-0.495,+0.893,-0.113,-0.253,-1.250,-8.188,+2.875,-14, -15, -4, -1, -2, 18, 0, 1
1503701496484,+0.639,+0.501,-0.306,-0.496,+0.930,-0.098,-0.294,-5.875,+4.500,+4.875,-11, 0, 4, 5, 8, -15, -1, -6
1503701496506,+0.639,+0.502,-0.307,-0.496,+0.947,-0.084,-0.283,-3.625,+5.312,+5.062,16, 7, -1, -1, -2, 14, 1, 0
1503701496528,+0.638,+0.502,-0.306,-0.496,+0.987,-0.084,-0.270,+2.062,+1.562,+4.000,-17, 4, 3, 5, 8, -7, 1, 0
1503701496544,+0.639,+0.503,-0.305,-0.496,+0.962,-0.088,-0.262,+5.500,-2.188,+1.062,14, -9, -5, -3, -2, 1, 1, 1
1503701496566,+0.639,+0.503,-0.305,-0.496,+0.935,-0.099,-0.271,+4.812,+3.562,+4.875,0, 6, -1, -4, -1, -2, 0, -5
1503701496588,+0.638,+0.505,-0.304,-0.496,+0.966,-0.094,-0.284,+4.312,+8.125,+7.938,-1, -24, -8, -3, -1, -2, 1, -2
1503701496606,+0.638,+0.506,-0.303,-0.495,+0.952,-0.101,-0.279,+8.312,+5.125,+3.500,-15, 7, 6, 4, -3, -2, -2, -4
1503701496626,+0.638,+0.508,-0.302,-0.494,+0.917,-0.128,-0.266,+10.625,+4.188,-1.312,-1, 14, 3, 2, -4, -3, -3, 6
1503701496648,+0.638,+0.509,-0.302,-0.493,+0.949,-0.139,-0.260,+8.500,+7.625,-2.312,12, -5, -3, -4, -15, 0, -1, -1
1503701496664,+0.638,+0.510,-0.302,-0.491,+0.976,-0.114,-0.243,+2.625,+4.688,-5.938,6, -6, -9, -7, -3, -8, -3, -5
1503701496686,+0.639,+0.510,-0.302,-0.490,+0.956,-0.118,-0.228,+4.250,+2.750,-6.188,7, -7, -9, -3, 3, -8, 0, 0
1503701496709,+0.639,+0.511,-0.302,-0.489,+0.973,-0.119,-0.235,+4.125,-0.625,-6.188,17, 5, 1, 0, 1, 2, 1, 3
1503701496724,+0.641,+0.510,-0.302,-0.488,+0.946,-0.112,-0.244,+3.312,-9.750,-10.500,-8, -6, -1, -2, 2, -1, -1, -3
1503701496747,+0.644,+0.508,-0.301,-0.487,+0.955,-0.123,-0.250,+2.438,-12.938,-13.062,-9, -2, -2, -6, 7, -2, 0, -4
1503701496768,+0.646,+0.506,-0.302,-0.486,+0.928,-0.108,-0.257,+0.000,-8.688,-14.812,-13, 3, 1, 4, 20, 11, 1, -6
1503701496784,+0.647,+0.505,-0.302,-0.484,+0.950,-0.113,-0.250,-1.562,-8.688,-14.938,0, -1, -4, 0, -5, -4, -5, -8
1503701496808,+0.649,+0.503,-0.303,-0.483,+0.981,-0.115,-0.265,-4.062,-9.688,-17.688,-12, 2, 4, 4, 5, 2, 1, 3
1503701496828,+0.653,+0.499,-0.304,-0.482,+0.906,-0.096,-0.287,-3.625,-16.375,-24.875,-2, 10, 12, 2, -4, -2, 0, 3
1503701496851,+0.657,+0.495,-0.305,-0.480,+0.919,-0.055,-0.275,-3.812,-18.562,-27.312,2, -7, -4, 2, -1, -2, -1, 0
1503701496866,+0.659,+0.494,-0.307,-0.478,+1.003,-0.059,-0.248,-2.625,-7.562,-18.812,-12, -2, -4, -5, -7, -2, 0, -2
1503701496888,+0.657,+0.495,-0.310,-0.477,+1.134,-0.038,-0.271,-11.250,+14.812,-8.625,19, 4, 2, 0, 5, 9, 1, 0
1503701496912,+0.660,+0.492,-0.311,-0.475,+0.872,+0.024,-0.271,+3.500,-9.812,-14.125,-2, -4, -5, 5, -5, -3, -1, -2
1503701496926,+0.664,+0.489,-0.308,-0.475,+1.089,-0.125,-0.277,+1.125,-36.000,-13.250,0, -3, -1, -4, -3, -6, -2, -1
1503701496948,+0.665,+0.488,-0.310,-0.473,+0.993,+0.010,-0.290,-1.438,+0.688,-11.875,-6, 0, -1, -1, -1, 2, -1, 2
1503701496977,+0.664,+0.488,-0.311,-0.473,+0.950,-0.009,-0.279,-4.125,+5.750,+1.000,3, 4, 3, -2, 1, 15, -2, 0
1503701496986,+0.666,+0.487,-0.310,-0.473,+0.916,-0.019,-0.346,+5.875,-4.438,-3.875,36, -1, -11, -4, -7, -23, -2, 3
1503701497009,+0.670,+0.485,-0.307,-0.471,+0.921,-0.023,-0.338,+14.125,-23.688,-14.125,-8, -3, 1, 7, 15, 1, -1, -8
1503701497031,+0.674,+0.481,-0.306,-0.469,+0.862,-0.083,-0.303,+6.562,-24.750,-22.812,-1, 15, 4, -1, -9, -8, 0, 1
1503701497046,+0.675,+0.482,-0.307,-0.468,+0.892,-0.038,-0.292,+2.438,+8.750,-10.500,-2, 18, 2, -2, -4, -6, 0, 5
1503701497076,+0.673,+0.484,-0.308,-0.466,+1.033,-0.037,-0.271,-1.250,+13.562,-3.625,5, 15, 3, 5, -2, 1, -3, 1
1503701497091,+0.673,+0.485,-0.310,-0.464,+1.041,+0.002,-0.277,+0.938,+8.000,-8.750,22, 22, 5, 4, 11, 5, -1, 0
1503701497111,+0.675,+0.484,-0.311,-0.462,+0.953,+0.011,-0.304,+7.750,+2.125,-13.812,13, -3, 4, 2, -6, -5, -8, -22
1503701497128,+0.676,+0.484,-0.310,-0.461,+0.893,-0.046,-0.296,+4.375,-3.312,-3.562,-15, 1, -1, -2, 5, 1, 2, 5
1503701497151,+0.675,+0.485,-0.311,-0.460,+0.952,-0.008,-0.281,+0.062,+11.062,-2.688,-42, -45, -6, 0, 4, 6, 4, -3
1503701497175,+0.674,+0.487,-0.312,-0.459,+1.023,-0.008,-0.270,-1.875,+10.438,+1.250,4, 13, -3, -6, -4, -1, 8, 1
1503701497196,+0.674,+0.488,-0.313,-0.459,+0.983,-0.016,-0.233,+0.312,+4.000,-1.062,-1, -5, 4, -3, -8, 13, 4, 11
1503701497915,+0.689,+0.466,-0.290,-0.473,+0.914,-0.023,-0.360,+0.312,-6.750,+12.250,8, 8, -2, -4, -5, -2, 0, -4
1503701497931,+0.688,+0.466,-0.289,-0.475,+0.939,-0.032,-0.351,-0.438,-2.500,+14.188,-11, 6, 4, 9, 15, 6, 4, 12
1503701497947,+0.687,+0.467,-0.287,-0.476,+0.967,-0.024,-0.352,+1.625,-2.062,+18.250,-8, -6, 1, 0, -5, -3, -4, -6
1503701497968,+0.686,+0.468,-0.285,-0.478,+0.921,-0.023,-0.366,+2.625,-0.375,+16.688,-8, -8, -2, -5, -3, -3, -2, -4
1503701497991,+0.685,+0.470,-0.283,-0.480,+0.878,-0.063,-0.369,+3.125,+4.938,+19.438,-5, 6, 5, -3, 0, 1, -6, -12
1503701498006,+0.683,+0.472,-0.282,-0.481,+0.931,-0.052,-0.365,+2.625,+10.562,+18.188,-4, 0, -2, -6, -8, -5, -1, 3
1503701498028,+0.681,+0.475,-0.281,-0.482,+0.949,-0.042,-0.382,+6.812,+12.938,+17.688,20, 1, -4, 0, 4, -1, 0, 1
1503701498051,+0.679,+0.477,-0.280,-0.482,+0.953,-0.060,-0.352,+8.750,+8.438,+17.312,-3, -25, -4, 3, 9, 1, 0, 2
1503701498067,+0.678,+0.479,-0.278,-0.483,+0.950,-0.077,-0.365,+10.625,+7.312,+14.250,-6, 7, -3, -1, 1, 2, -3, -6
1503701498089,+0.677,+0.482,-0.276,-0.483,+0.930,-0.062,-0.365,+12.812,+10.562,+17.062,-6, 0, 0, 5, -5, -2, 2, 6
1503701498112,+0.676,+0.485,-0.272,-0.484,+0.959,-0.096,-0.354,+17.125,+7.000,+21.375,-1, 2, 5, 14, 3, 4, -3, 1
1503701498127,+0.675,+0.486,-0.269,-0.485,+0.983,-0.089,-0.417,+9.938,-7.500,+20.875,-11, -13, -2, -3, -5, -5, -1, 0
1503701498149,+0.675,+0.487,-0.265,-0.487,+0.926,-0.094,-0.335,+12.938,-8.750,+20.438,-5, 1, 6, -1, 0, -2, -4, -4
1503701498171,+0.675,+0.489,-0.261,-0.488,+0.928,-0.122,-0.331,+14.938,-6.938,+21.625,3, -2, -9, -14, -7, -4, -2, 0
1503701498187,+0.674,+0.490,-0.256,-0.490,+0.923,-0.117,-0.352,+16.188,-3.188,+24.125,-2, 0, -2, -5, -6, -1, 1, -1
1503701498209,+0.673,+0.492,-0.252,-0.491,+0.936,-0.118,-0.369,+17.812,-3.938,+24.125,5, 10, 5, 2, -2, -4, -1, 4
1503701498231,+0.673,+0.494,-0.247,-0.492,+0.911,-0.141,-0.341,+18.188,-6.875,+23.250,-6, -3, -5, -4, -7, -3, 0, 1
1503701498247,+0.672,+0.496,-0.243,-0.493,+0.892,-0.163,-0.312,+17.375,-5.938,+19.875,-3, -2, -2, -3, 0, -2, -5, -1
1503701498269,+0.672,+0.498,-0.240,-0.494,+0.876,-0.167,-0.311,+15.750,-3.188,+15.625,2, 2, -2, 0, 3, 2, 3, 1
1503701498291,+0.671,+0.500,-0.237,-0.494,+0.897,-0.167,-0.324,+14.812,-2.062,+11.812,-3, -5, -5, -8, -2, -2, 1, -1
1503701498307,+0.671,+0.501,-0.234,-0.493,+0.925,-0.193,-0.354,+15.500,-0.188,+9.625,-4, -7, -2, 0, 5, 0, -2, -10
1503701498329,+0.672,+0.502,-0.230,-0.493,+0.898,-0.197,-0.345,+18.188,-8.625,+4.688,-29, -3, 0, 2, 5, 1, -2, -6
1503701498351,+0.675,+0.502,-0.226,-0.491,+0.898,-0.202,-0.361,+20.688,-15.188,-2.188,-15, -15, -3, 0, -3, -2, 0, 1
1503701498367,+0.677,+0.502,-0.223,-0.490,+0.896,-0.188,-0.376,+22.438,-13.938,-3.562,-14, -3, -5, 3, -4, -1, -7, -12
1503701498396,+0.679,+0.503,-0.219,-0.488,+0.925,-0.182,-0.337,+22.000,-11.250,-0.750,-2, -6, -3, -8, -8, -3, 0, 7
1503701498413,+0.681,+0.503,-0.216,-0.486,+0.936,-0.189,-0.341,+21.438,-13.125,-0.375,15, 10, 14, 0, 3, -1, 1, 4
1503701498434,+0.682,+0.504,-0.212,-0.485,+0.915,-0.199,-0.346,+20.438,-11.625,+2.812,19, 4, -4, 4, 3, 0, -2, -4
1503701498456,+0.683,+0.505,-0.209,-0.484,+0.908,-0.192,-0.347,+16.938,-7.438,+3.562,23, 5, -7, -5, -5, -3, 0, -3
1503701498480,+0.684,+0.506,-0.207,-0.483,+0.895,-0.191,-0.328,+12.812,-4.500,+4.438,19, 20, 2, 0, 5, 0, -1, 9
1503701498487,+0.683,+0.507,-0.206,-0.483,+0.879,-0.218,-0.293,+6.500,-0.625,+6.188,14, 3, -3, -2, -2, 0, -1, 3
1503701498509,+0.682,+0.509,-0.205,-0.484,+0.876,-0.248,-0.276,-0.438,+5.000,+4.500,0, -7, -1, 5, -1, -1, -1, -7
1503701498530,+0.681,+0.510,-0.206,-0.484,+0.931,-0.263,-0.283,-7.938,+6.312,+1.312,-12, -10, -9, -6, 1, -1, 0, -2
1503701498547,+0.680,+0.510,-0.208,-0.485,+0.935,-0.238,-0.284,-13.688,-0.938,+0.688,-4, 0, 4, 3, 4, 0, 1, 7
1503701498569,+0.679,+0.509,-0.210,-0.486,+0.889,-0.228,-0.326,-17.312,+2.562,+1.125,-17, -3, 8, 2, 16, 2, 0, 21
1503701498598,+0.677,+0.508,-0.212,-0.488,+0.900,-0.223,-0.341,-22.125,+5.562,+1.562,1, -11, -7, -6, -13, -5, -3, -9
1503701498607,+0.676,+0.507,-0.215,-0.490,+0.915,-0.197,-0.355,-22.500,+4.250,-0.875,-3, 3, -3, -4, -7, -2, 1, 2
1503701498629,+0.676,+0.505,-0.218,-0.491,+0.921,-0.180,-0.386,-21.188,+3.312,-2.000,12, 12, 6, 4, 1, 2, 3, 6
1503701498651,+0.675,+0.503,-0.220,-0.492,+0.911,-0.167,-0.403,-17.750,+2.750,-2.375,-12, -11, -8, -6, -10, -5, -3, 15
1503701498667,+0.674,+0.502,-0.223,-0.494,+0.876,-0.207,-0.347,-20.750,+5.000,+0.250,14, 1, -1, 0, -3, 12, -2, -28
1503701498690,+0.672,+0.502,-0.226,-0.495,+0.872,-0.214,-0.321,-22.375,+13.625,-1.938,-17, -2, 5, 5, 3, -10, 1, 6
1503701498711,+0.670,+0.502,-0.231,-0.496,+0.927,-0.197,-0.327,-23.625,+19.562,-2.438,2, -8, -7, -4, -7, -5, -4, -7
1503701498727,+0.667,+0.502,-0.235,-0.497,+0.972,-0.196,-0.333,-24.062,+14.188,-2.750,18, 17, 17, 15, 18, 13, 2, -17
1503701498749,+0.666,+0.501,-0.239,-0.498,+0.917,-0.201,-0.341,-27.688,+6.812,-6.062,-6, 0, -5, -6, -5, 3, -4, 8
1503701498771,+0.665,+0.499,-0.243,-0.500,+0.861,-0.213,-0.354,-32.125,+11.438,-6.625,-7, -1, 0, -1, 0, -7, -3, -13
1503701498787,+0.661,+0.499,-0.250,-0.501,+0.849,-0.192,-0.362,-33.562,+32.938,-6.812,7, 3, 2, 2, 6, -1, 1, 1
1503701498809,+0.656,+0.501,-0.258,-0.501,+0.888,-0.159,-0.375,-33.312,+49.125,-5.688,-1, -1, 2, 1, 2, -1, 0, 6
1503701498831,+0.651,+0.503,-0.266,-0.502,+0.934,-0.173,-0.336,-34.125,+48.188,-4.688,1, 18, 6, 0, 0, 2, 1, 3
1503701498849,+0.647,+0.505,-0.272,-0.503,+0.948,-0.193,-0.336,-32.750,+42.000,-4.062,-18, -11, -3, 0, 7, 1, -1, 7
1503701498869,+0.641,+0.507,-0.279,-0.503,+0.953,-0.192,-0.352,-32.438,+48.375,-0.562,-2, 7, -1, -3, 0, 1, 0, 0
1503701498891,+0.635,+0.510,-0.286,-0.504,+0.996,-0.158,-0.365,-32.062,+53.562,+6.562,-11, -20, -8, -5, -9, -3, 0, 1
1503701498907,+0.628,+0.514,-0.293,-0.506,+1.047,-0.141,-0.337,-28.000,+54.312,+13.562,14, 1, -2, -1, -4, 0, 2, -1
1503701498929,+0.622,+0.517,-0.297,-0.507,+1.051,-0.146,-0.299,-21.000,+43.312,+18.312,0, 1, 1, 2, 8, 1, 0, 3
1503701498951,+0.618,+0.520,-0.299,-0.508,+1.018,-0.169,-0.275,-11.500,+28.500,+15.812,-24, -10, -1, -2, -1, -3, -4, -7
1503701498973,+0.615,+0.520,-0.304,-0.510,+0.862,+0.007,-0.121,-28.500,+14.062,+7.938,-4, -2, -1, -2, -4, -2, 0, 3
1503701498990,+0.613,+0.522,-0.301,-0.510,+0.758,-0.286,-0.302,+11.562,+15.062,+8.000,3, 5, 2, 1, -4, -1, 2, -4
1503701499011,+0.613,+0.522,-0.305,-0.508,+0.838,-0.083,-0.209,-8.312,+15.438,-16.875,6, 4, 4, 8, -8, 1, 1, 3
1503701499033,+0.610,+0.528,-0.303,-0.507,+0.911,-0.333,-0.220,+18.312,+23.812,+10.062,12, 0, -3, 10, 28, 1, -1, 1
1503701499050,+0.607,+0.534,-0.302,-0.506,+0.968,-0.271,-0.195,+15.562,+30.312,+14.812,4, 2, -1, -4, -10, -3, 1, -10
1503701499071,+0.602,+0.540,-0.300,-0.505,+0.984,-0.211,-0.179,+15.062,+31.938,+23.188,33, 10, -1, -4, 2, -2, -2, 16
1503701499093,+0.600,+0.545,-0.299,-0.504,+1.022,-0.142,-0.152,+18.125,+21.188,+20.000,-27, -14, -2, -6, -10, -3, -1, -8
1503701499109,+0.599,+0.548,-0.297,-0.503,+1.039,-0.127,-0.132,+19.062,+9.250,+15.938,-5, -2, -2, -6, 4, -1, -1, -6
1503701499131,+0.598,+0.551,-0.296,-0.501,+1.013,-0.113,-0.098,+16.938,+2.375,+12.688,18, -1, 1, 0, -7, 0, -2, 0
1503701499154,+0.598,+0.554,-0.294,-0.500,+0.982,-0.130,-0.132,+18.250,+4.500,+10.750,-25, 3, 0, -4, -14, -4, -1, -3
1503701499169,+0.599,+0.555,-0.294,-0.497,+0.893,-0.094,-0.160,+14.688,+4.875,-3.312,-3, -2, 1, 1, -11, 0, -2, -7
1503701499192,+0.602,+0.555,-0.295,-0.493,+0.890,-0.004,-0.119,+15.188,-2.938,-15.188,-16, -3, -1, 3, 6, -5, -1, -5
1503701499213,+0.606,+0.554,-0.297,-0.488,+0.996,+0.013,-0.082,+14.938,-4.688,-26.188,-7, 3, 0, -3, 4, -1, -1, 2
1503701499229,+0.610,+0.552,-0.301,-0.482,+1.046,+0.032,-0.082,+7.375,-2.312,-33.562,-20, -9, -3, -7, -23, -2, 1, -2
1503701499251,+0.611,+0.553,-0.301,-0.479,+0.984,-0.166,-0.126,+10.875,-0.375,-12.375,13, 10, 5, 3, 2, -1, -1, 1
1503701499273,+0.612,+0.553,-0.302,-0.477,+0.965,-0.140,-0.142,+4.562,+2.250,-9.625,5, 7, 1, 1, 5, 3, -2, -2
1503701499289,+0.613,+0.554,-0.303,-0.475,+0.978,-0.153,-0.126,+5.812,+5.750,-9.562,-12, -9, -4, 2, 7, 0, -1, -5
1503701499311,+0.614,+0.555,-0.303,-0.473,+0.966,-0.193,-0.165,+9.188,+1.500,-13.688,9, 5, 5, 10, 10, 1, -3, -1
1503701499333,+0.617,+0.554,-0.302,-0.471,+0.971,-0.183,-0.155,+7.875,-9.062,-19.625,9, 2, -4, -3, -2, -1, 2, 3
1503701499351,+0.619,+0.552,-0.303,-0.469,+1.009,-0.177,-0.150,+3.000,-7.688,-19.188,4, 0, -2, 1, -2, -2, 0, 3
1503701499371,+0.620,+0.552,-0.305,-0.467,+1.015,-0.157,-0.138,-1.438,+3.562,-16.000,-5, 3, -2, 0, 1, 0, -1, -4
1503701499393,+0.620,+0.552,-0.307,-0.465,+0.983,-0.114,-0.149,-1.812,+4.375,-15.438,2, -3, -3, -3, -2, 1, -2, -1
1503701499409,+0.623,+0.550,-0.308,-0.463,+0.977,-0.101,-0.185,+2.125,-6.562,-17.375,-3, 4, 1, 3, 1, -1, -2, 3
1503701499431,+0.626,+0.548,-0.308,-0.461,+0.967,-0.105,-0.182,+5.188,-11.000,-20.000,1, 0, -11, -6, -2, -2, 3, 19
1503701499453,+0.629,+0.547,-0.309,-0.459,+0.970,-0.115,-0.188,+4.688,-6.375,-20.500,27, 7, 11, 1, -2, 2, 2, 4
1503701499469,+0.631,+0.546,-0.310,-0.457,+0.969,-0.098,-0.183,+3.750,-2.062,-18.688,13, 22, 10, 2, 2, -3, -3, -5
1503701499491,+0.632,+0.545,-0.311,-0.454,+0.957,-0.091,-0.163,+3.812,+0.562,-19.188,0, -4, 6, 4, 1, 0, -1, -2
1503701499513,+0.635,+0.544,-0.312,-0.451,+0.973,-0.093,-0.173,+6.562,-1.938,-22.688,-15, -8, -3, -1, 1, 0, 1, -7
1503701499529,+0.637,+0.544,-0.313,-0.448,+0.978,-0.091,-0.167,+6.938,-0.812,-24.375,-35, 5, 3, 1, 3, 0, -3, -4
1503701499552,+0.640,+0.540,-0.314,-0.447,+1.013,-0.101,-0.230,-1.438,-16.062,-20.688,3, -14, -7, 0, -2, -1, -1, -5
1503701499573,+0.643,+0.539,-0.315,-0.444,+1.017,-0.033,-0.125,+0.438,-11.688,-19.750,-4, -20, -8, -4, -3, -4, 0, -15
1503701499590,+0.645,+0.536,-0.315,-0.443,+1.042,-0.068,-0.152,+0.812,-15.688,-16.812,-16, -24, -18, -2, -1, 0, 0, 9
1503701499611,+0.648,+0.534,-0.316,-0.442,+0.995,-0.069,-0.186,-2.312,-13.625,-16.125,16, 4, 2, 0, -1, -1, -2, 9
1503701499633,+0.651,+0.531,-0.316,-0.441,+0.959,-0.039,-0.177,-0.875,-17.438,-15.750,-4, -6, -2, -4, -2, -1, 0, -2
1503701499649,+0.653,+0.529,-0.316,-0.440,+0.989,-0.048,-0.193,-1.562,-16.938,-13.688,0, 10, 4, 0, -2, 1, -2, -8
1503701499671,+0.655,+0.526,-0.317,-0.440,+1.003,-0.054,-0.195,-4.812,-13.438,-10.062,20, 0, 0, -1, 0, 0, -1, 3
1503701499701,+0.656,+0.525,-0.317,-0.440,+1.006,-0.062,-0.195,-4.812,-11.312,-8.562,15, 12, 5, 1, -1, 0, 1, 0
1503701499709,+0.657,+0.523,-0.318,-0.440,+0.993,-0.046,-0.201,-5.625,-10.188,-10.125,-8, 2, -4, 2, 3, 0, -2, -1
1503701499738,+0.659,+0.521,-0.318,-0.440,+0.997,-0.023,-0.184,-6.250,-12.188,-7.625,-22, -3, -4, -3, -2, -2, -2, -8
1503701499747,+0.660,+0.518,-0.318,-0.441,+0.985,-0.026,-0.203,-6.125,-17.688,-7.750,24, 12, 6, 0, 0, -1, -2, 4
1503701499769,+0.662,+0.515,-0.318,-0.441,+0.968,-0.028,-0.234,-8.438,-15.438,-7.250,1, -13, -4, -4, -1, -2, -2, -3
1503701499792,+0.663,+0.513,-0.318,-0.442,+0.978,-0.018,-0.227,-7.062,-11.938,-2.562,-2, 7, 14, 4, 2, 2, 0, -1
1503701500474,+0.680,+0.454,-0.309,-0.486,+0.951,+0.010,-0.391,-0.500,+0.875,+15.812,-6, 1, 0, 0, -2, 0, -4, -10
1503701500491,+0.679,+0.456,-0.307,-0.486,+0.992,-0.004,-0.396,+8.312,+0.812,+14.938,-6, 2, -3, -7, -1, -2, -1, -2
1503701500512,+0.679,+0.457,-0.306,-0.486,+0.889,+0.020,-0.384,+11.875,+6.625,+8.938,12, 12, -1, -2, -5, -4, -6, -4
1503701500534,+0.678,+0.461,-0.303,-0.486,+0.909,-0.048,-0.388,+15.688,+10.812,+16.938,-3, 4, 4, 3, 3, 1, -1, 4
1503701500549,+0.677,+0.464,-0.301,-0.486,+0.960,-0.012,-0.369,+14.688,+16.250,+12.938,2, -6, -5, -1, -1, 0, -1, 0
1503701500572,+0.676,+0.467,-0.299,-0.485,+0.984,-0.013,-0.375,+21.188,+7.312,+12.625,14, 7, -7, -2, -1, -1, 3, 9
1503701500594,+0.677,+0.470,-0.295,-0.484,+0.936,-0.027,-0.363,+26.188,+5.812,+12.000,-4, -12, -2, -4, -6, -3, -3, -2
1503701500608,+0.676,+0.475,-0.291,-0.482,+0.932,-0.041,-0.371,+30.750,+10.562,+14.125,4, 2, -4, -4, 0, -1, 2, 1
1503701500631,+0.676,+0.479,-0.287,-0.481,+0.917,-0.039,-0.376,+30.375,+12.188,+17.125,-5, 6, -1, 3, 5, 2, -2, -4
1503701500653,+0.675,+0.482,-0.282,-0.482,+1.036,-0.107,-0.389,+25.812,-0.500,+24.125,-3, -17, -3, -1, -2, -2, 0, -7
1503701500668,+0.675,+0.485,-0.276,-0.482,+1.013,-0.074,-0.343,+27.312,-6.062,+25.625,7, 14, 1, 2, 4, 0, -2, -6
1503701500692,+0.676,+0.487,-0.270,-0.483,+0.952,-0.057,-0.329,+31.375,-17.000,+23.438,3, 2, 2, -4, -5, -6, 0, 6
1503701500713,+0.677,+0.489,-0.262,-0.484,+0.939,-0.109,-0.343,+32.625,-13.938,+29.625,-2, -1, 3, 1, -21, 3, 1, 3
1503701500728,+0.676,+0.493,-0.255,-0.485,+0.930,-0.128,-0.335,+33.250,-6.000,+33.375,-4, 8, 5, -1, 8, -2, -3, -6
1503701500751,+0.675,+0.496,-0.248,-0.487,+0.957,-0.129,-0.344,+33.000,-6.688,+38.000,-4, -7, -7, -1, -2, 0, 1, 5
1503701500773,+0.674,+0.500,-0.240,-0.488,+0.943,-0.140,-0.337,+33.562,-9.625,+37.750,-9, -5, -3, -5, 0, -2, -1, 9
1503701500788,+0.673,+0.503,-0.232,-0.490,+0.910,-0.150,-0.337,+32.688,-10.375,+38.062,-12, -7, 4, -4, 4, 0, -4, -7
1503701500811,+0.672,+0.506,-0.224,-0.492,+0.870,-0.203,-0.343,+33.188,-10.062,+37.250,-7, -2, -4, 11, 20, 5, 1, -3
1503701500834,+0.671,+0.510,-0.216,-0.494,+0.858,-0.243,-0.346,+32.312,-4.188,+35.750,2, 2, 0, -4, -8, -3, 2, -2
1503701500848,+0.669,+0.513,-0.210,-0.495,+0.886,-0.233,-0.325,+29.438,-0.750,+31.438,-4, -1, -5, 0, -3, 0, -1, -3
1503701500871,+0.668,+0.517,-0.204,-0.495,+0.901,-0.238,-0.310,+27.625,-4.000,+28.750,1, 5, 5, 0, 3, 0, 0, 3
1503701500893,+0.667,+0.519,-0.198,-0.496,+0.885,-0.254,-0.322,+27.062,-7.000,+24.938,6, 3, 0, -8, -7, -2, -1, 0
1503701500908,+0.667,+0.522,-0.192,-0.496,+0.884,-0.280,-0.300,+24.938,-6.375,+20.188,-4, -5, -2, -3, -2, 0, -2, 1
1503701500931,+0.666,+0.524,-0.187,-0.496,+0.877,-0.296,-0.320,+23.312,-3.625,+19.625,8, -18, -16, -7, 3, -1, -4, -22
1503701500953,+0.665,+0.527,-0.183,-0.497,+0.875,-0.295,-0.318,+19.625,-1.000,+18.312,-5, 19, 14, 5, 2, -2, 1, 6
1503701500968,+0.665,+0.529,-0.179,-0.497,+0.884,-0.319,-0.309,+17.000,-3.000,+13.688,4, 8, 16, 8, 5, -2, -4, -5
1503701500993,+0.664,+0.530,-0.176,-0.496,+0.871,-0.287,-0.327,+17.562,-1.312,+11.000,11, -7, -17, -5, -8, -3, -4, -9
1503701501013,+0.664,+0.532,-0.173,-0.496,+0.866,-0.289,-0.281,+11.875,-1.500,+11.000,-9, -8, -1, -1, 1, -2, 2, 5
1503701501036,+0.663,+0.534,-0.172,-0.496,+0.899,-0.311,-0.283,+8.938,+4.188,+10.562,-3, 5, 1, -7, 2, 0, 0, 1
1503701501051,+0.660,+0.536,-0.171,-0.497,+0.903,-0.330,-0.274,+0.875,+8.125,+13.062,-4, 4, 1, -5, -16, 1, 0, 14
1503701501073,+0.658,+0.537,-0.171,-0.499,+0.886,-0.334,-0.235,-7.625,+6.438,+11.625,4, 4, 1, 0, -9, 1, -1, -11
1503701501088,+0.654,+0.539,-0.172,-0.502,+0.881,-0.354,-0.228,-19.375,+11.812,+16.125,5, -16, -4, -6, -1, 1, 1, 3
1503701501111,+0.648,+0.541,-0.176,-0.506,+0.905,-0.366,-0.217,-31.500,+26.250,+23.750,-11, -12, -2, -11, -3, 1, -1, 1
1503701501133,+0.643,+0.542,-0.180,-0.511,+0.963,-0.322,-0.277,-36.938,+26.188,+25.500,6, 6, 2, 8, 8, -1, -3, -15
1503701501148,+0.637,+0.542,-0.183,-0.517,+0.951,-0.291,-0.337,-37.250,+22.375,+31.250,-10, -8, -1, -2, -9, -1, 2, -1
1503701501171,+0.631,+0.541,-0.186,-0.524,+0.882,-0.301,-0.311,-39.125,+21.250,+36.312,-7, -3, 1, 8, -3, -1, -1, 2
1503701501195,+0.622,+0.543,-0.189,-0.531,+0.854,-0.344,-0.244,-43.562,+32.000,+44.500,1, 10, 4, -1, 5, 0, -3, -5
1503701501209,+0.613,+0.545,-0.194,-0.539,+0.866,-0.355,-0.248,-47.188,+40.312,+42.938,0, -7, -8, -6, -13, -2, 3, 19
1503701501231,+0.603,+0.545,-0.199,-0.547,+0.941,-0.386,-0.226,-55.250,+36.312,+42.750,10, 0, -7, -6, 3, -2, -2, -13
1503701501253,+0.596,+0.545,-0.204,-0.554,+1.001,-0.320,-0.324,-50.562,+30.250,+36.188,21, -7, -11, -6, -14, -5, -7, -27
1503701501269,+0.591,+0.542,-0.207,-0.560,+0.896,-0.280,-0.340,-44.125,+12.812,+32.062,-5, 0, 5, 1, 2, 2, 4, 7
1503701501291,+0.587,+0.539,-0.209,-0.567,+0.791,-0.352,-0.266,-44.938,-4.688,+26.750,-13, 7, 3, 5, 4, 4, -1, 10
1503701501313,+0.581,+0.537,-0.212,-0.574,+0.771,-0.457,-0.215,-50.625,+13.938,+26.125,-3, -5, -5, -2, 2, -6, -1, 6
1503701501329,+0.571,+0.537,-0.218,-0.582,+0.809,-0.483,-0.214,-62.062,+38.250,+27.750,8, 3, 11, 5, 5, 1, 2, 9
1503701501351,+0.561,+0.536,-0.226,-0.589,+0.858,-0.419,-0.259,-71.875,+47.438,+30.000,-1, -6, -4, -1, 0, -3, -3, -6
1503701501373,+0.551,+0.535,-0.237,-0.596,+0.880,-0.320,-0.285,-71.000,+56.188,+25.062,-8, 1, 10, 6, 6, 5, -2, -6
1503701501389,+0.541,+0.535,-0.248,-0.600,+0.875,-0.297,-0.252,-63.250,+64.438,+16.000,4, 3, -2, -2, 6, 5, -3, -2
1503701501411,+0.532,+0.535,-0.258,-0.603,+0.949,-0.320,-0.291,-55.938,+60.875,+13.438,-9, 0, -7, -2, -8, -5, -2, 1
1503701501433,+0.526,+0.534,-0.266,-0.606,+1.040,-0.362,-0.275,-46.688,+41.375,+10.812,-3, -4, 2, -12, -12, -5, -2, 1
1503701501456,+0.523,+0.531,-0.271,-0.609,+0.967,-0.353,-0.326,-35.438,+14.562,+4.312,3, 2, -5, -13, -10, -8, 0, -3
1503701501471,+0.523,+0.527,-0.273,-0.612,+0.862,-0.322,-0.312,-27.500,-3.125,-5.562,-5, -19, 6, 1, -7, 1, -2, -7
1503701501495,+0.522,+0.524,-0.275,-0.614,+0.708,-0.309,-0.315,-26.125,+1.250,-3.188,4, 4, -5, -2, -1, 0, -1, -11
1503701501516,+0.518,+0.525,-0.280,-0.614,+0.831,-0.336,-0.311,-15.500,+39.312,+1.250,1, 6, 4, 41, 41, 15, 1, 6
1503701501532,+0.515,+0.528,-0.284,-0.613,+0.956,-0.349,-0.287,-5.312,+38.750,-2.438,-4, -4, -6, -8, -14, -7, -2, 1
1503701501553,+0.516,+0.527,-0.286,-0.612,+0.971,-0.310,-0.303,-2.375,+5.062,-9.562,0, 2, -4, -1, -7, 0, 2, -3
1503701501576,+0.519,+0.525,-0.286,-0.611,+0.929,-0.299,-0.290,+4.000,-11.688,-12.875,-5, -14, 0, -3, 1, 1, -1, -4
1503701501591,+0.521,+0.525,-0.285,-0.609,+0.889,-0.326,-0.263,+10.375,-4.438,-9.562,-1, -3, -2, 2, -14, -3, -2, -2
1503701501613,+0.522,+0.527,-0.285,-0.607,+0.918,-0.363,-0.238,+12.812,+4.188,-5.750,2, 5, 0, -4, -1, 0, 2, 4
1503701501629,+0.522,+0.529,-0.284,-0.606,+0.912,-0.362,-0.239,+11.250,+6.438,-3.812,-2, -1, 1, 14, 28, 0, -2, 9
1503701501651,+0.523,+0.530,-0.284,-0.604,+0.859,-0.348,-0.224,+11.688,+4.938,-3.812,-4, 5, 8, -2, -5, -1, 1, 1
1503701501674,+0.523,+0.532,-0.284,-0.602,+0.863,-0.358,-0.196,+12.875,+7.688,-8.875,-4, 3, -3, 9, 19, 2, 1, -2
1503701501688,+0.524,+0.534,-0.285,-0.599,+0.929,-0.378,-0.174,+9.000,+6.125,-14.375,-1, 3, 6, 6, 0, 4, -1, -9
1503701501711,+0.526,+0.534,-0.287,-0.597,+0.962,-0.378,-0.143,+0.062,+1.688,-19.500,1, 1, -3, -11, -5, 0, -3, -7
1503701501733,+0.527,+0.533,-0.289,-0.595,+0.953,-0.349,-0.164,-4.125,+0.438,-17.000,9, 1, -6, -3, -5, -2, 0, 0
1503701501748,+0.528,+0.532,-0.292,-0.594,+0.864,-0.336,-0.194,-9.188,+5.125,-16.500,-8, 6, -1, 12, 16, 4, -1, -1
1503701501771,+0.528,+0.532,-0.294,-0.594,+0.881,-0.326,-0.185,-12.125,+6.500,-14.188,-1, -8, 1, 5, 3, -1, 1, 1
1503701501793,+0.527,+0.531,-0.297,-0.594,+0.961,-0.351,-0.139,-16.625,+3.125,-10.125,5, 9, 1, 2, 9, 4, 0, -7
1503701501816,+0.527,+0.529,-0.300,-0.594,+1.001,-0.350,-0.127,-19.188,+0.312,-11.500,10, 0, -4, 19, 28, 11, 1, -1
1503701501831,+0.526,+0.526,-0.304,-0.595,+0.941,-0.346,-0.166,-31.188,-4.562,-13.562,-9, 2, 7, -13, -19, -4, -3, -1
1503701501853,+0.526,+0.521,-0.308,-0.597,+0.932,-0.296,-0.216,-36.812,-1.812,-16.500,-2, 7, -3, -6, -3, -4, -2, -7
1503701501876,+0.527,+0.516,-0.312,-0.598,+0.946,-0.231,-0.268,-31.312,-3.688,-17.062,10, 19, 7, -6, -9, -2, 0, 0
1503701501891,+0.528,+0.512,-0.315,-0.600,+0.955,-0.232,-0.297,-24.562,-7.812,-10.375,-18, -9, -5, -6, 1, -2, -5, -12
1503701501913,+0.528,+0.509,-0.317,-0.601,+0.940,-0.267,-0.254,-24.625,-1.688,-5.875,10, 2, -1, -5, -6, -2, 3, 5
1503701501930,+0.526,+0.507,-0.321,-0.602,+0.954,-0.248,-0.235,-22.062,+12.562,-4.625,-1, -12, -9, -7, -4, 4, 0, 7
1503701501951,+0.526,+0.505,-0.324,-0.603,+0.964,-0.230,-0.271,-19.062,+4.562,-6.125,-1, -12, 6, 1, -1, -1, -2, 8
1503701501981,+0.528,+0.502,-0.325,-0.603,+0.882,-0.250,-0.279,-13.562,-7.375,-16.062,-3, 8, -1, -5, -6, -5, -5, -13
1503701501989,+0.530,+0.499,-0.326,-0.604,+0.888,-0.281,-0.254,-14.188,-12.500,-16.000,16, -5, 0, 4, 11, 2, 1, 5
1503701502011,+0.531,+0.496,-0.328,-0.603,+0.908,-0.268,-0.265,-11.438,-1.812,-16.500,-5, -3, 0, 13, 25, 4, 1, -5
1503701502034,+0.531,+0.495,-0.331,-0.603,+0.926,-0.246,-0.248,-13.375,+10.000,-13.500,-8, -5, -4, -9, -21, 0, 3, 2
1503701502049,+0.531,+0.494,-0.334,-0.602,+0.981,-0.234,-0.215,-12.562,+4.625,-13.250,2, 2, 5, 9, 22, 7, 1, 2
1503701502071,+0.533,+0.492,-0.336,-0.601,+0.991,-0.243,-0.223,-10.500,-7.250,-18.938,2, 13, -4, -3, -6, 12, -2, -7
1503701502093,+0.536,+0.488,-0.338,-0.601,+0.968,-0.239,-0.234,-12.438,-15.375,-24.938,-18, -23, -8, -2, 16, 0, 1, 5
1503701502116,+0.539,+0.484,-0.339,-0.600,+0.953,-0.208,-0.243,-12.188,-16.062,-25.500,9, 10, 2, -1, -9, -7, -2, 1
1503701502132,+0.541,+0.481,-0.342,-0.599,+0.929,-0.207,-0.241,-15.375,-6.875,-22.062,4, 16, 13, 3, 15, -5, 1, 4
1503701502153,+0.543,+0.477,-0.345,-0.599,+0.897,-0.209,-0.230,-18.875,-5.625,-23.250,8, 7, 10, -1, -9, 2, -1, 5
1503701502176,+0.545,+0.473,-0.347,-0.599,+0.928,-0.208,-0.250,-20.125,-8.375,-25.750,-4, -20, -10, -1, 5, -3, -1, -3
1503701502191,+0.546,+0.469,-0.351,-0.598,+0.956,-0.182,-0.251,-22.375,-4.688,-27.500,-12, -13, -1, 0, -40, -32, -5, 0
1503701502213,+0.549,+0.465,-0.356,-0.597,+0.950,-0.151,-0.277,-21.938,-1.688,-31.125,-5, -11, -13, -7, 3, 12, -1, -8
1503701502236,+0.552,+0.460,-0.359,-0.596,+0.968,-0.127,-0.282,-18.500,-10.062,-30.938,0, 1, 2, -3, -14, -2, -2, 0
1503701502251,+0.555,+0.455,-0.360,-0.596,+0.961,-0.135,-0.299,-14.125,-21.625,-27.312,-4, -3, 1, 1, -30, 7, 1, 2
1503701502275,+0.558,+0.450,-0.362,-0.596,+0.951,-0.135,-0.272,-18.000,-17.250,-26.500,-13, -14, -8, 3, 9, 16, 2, -3
1503701502296,+0.559,+0.448,-0.365,-0.595,+0.898,-0.118,-0.285,-18.062,+3.188,-17.312,4, 3, 8, 3, 4, 3, 2, 5
1503701502318,+0.559,+0.446,-0.369,-0.594,+0.965,-0.087,-0.316,-16.625,+10.812,-12.688,5, 4, -6, -4, 31, -8, -2, 2
1503701502333,+0.559,+0.443,-0.370,-0.596,+1.042,-0.087,-0.347,-16.562,-9.188,-4.750,9, 5, -1, -10, -14, 5, 0, 3
1503701502355,+0.561,+0.441,-0.371,-0.595,+0.926,-0.050,-0.293,-5.125,-7.188,-12.125,-5, -5, -4, -3, 0, -40, -8, -7
1503701502371,+0.562,+0.439,-0.370,-0.595,+0.932,-0.134,-0.306,-5.625,-7.000,-6.312,5, -4, -3, -5, -14, -9, -2, -1
1503701502393,+0.562,+0.438,-0.371,-0.595,+0.999,-0.109,-0.310,-7.250,-0.812,-6.750,-3, 0, -2, -2, 1, -9, -8, -5
1503701502409,+0.563,+0.437,-0.373,-0.594,+1.015,-0.039,-0.305,-5.188,+0.188,-7.625,5, -4, 0, 1, 8, 23, 4, -7
1503701502438,+0.563,+0.437,-0.374,-0.594,+0.956,-0.054,-0.294,+0.562,+2.562,-1.938,-9, -5, -4, -7, -12, -2, -1, -3
1503701502453,+0.563,+0.438,-0.373,-0.594,+0.946,-0.111,-0.289,+0.062,+3.125,+4.250,29, 8, -7, 0, 3, 11, 0, -18
1503701502471,+0.562,+0.439,-0.374,-0.593,+0.940,-0.091,-0.299,+1.625,+8.250,-0.188,-7, -3, -1, 3, 23, 24, -2, 6
1503701502490,+0.563,+0.439,-0.374,-0.592,+0.948,-0.085,-0.304,+5.562,+3.062,-2.625,-5, -7, -2, 6, -4, 1, 0, -18
1503701502513,+0.565,+0.439,-0.372,-0.592,+0.962,-0.103,-0.298,+5.750,-10.188,-4.250,-2, 5, 3, 1, 1, -3, -5, 0
1503701502529,+0.567,+0.438,-0.371,-0.591,+0.869,-0.106,-0.305,+4.688,-8.375,-11.875,-13, 3, 14, 3, -1, 0, 6, -3
1503701503256,+0.597,+0.417,-0.364,-0.581,+0.964,+0.035,-0.429,+37.938,-9.250,+8.625,-11, 4, 7, 4, 8, -9, -4, 6
1503701503271,+0.599,+0.422,-0.358,-0.579,+0.972,+0.016,-0.434,+50.438,+5.938,+17.938,-9, -16, -1, -5, -7, -5, -11, -17
1503701503293,+0.599,+0.431,-0.351,-0.577,+1.004,-0.012,-0.374,+57.000,+11.438,+30.312,3, 9, -5, -4, 0, 1, -2, -7
1503701503315,+0.599,+0.436,-0.341,-0.579,+0.974,-0.121,-0.475,+52.250,-12.875,+45.000,7, -5, -4, -1, -3, -4, -1, 10
1503701503331,+0.598,+0.444,-0.330,-0.580,+1.008,-0.080,-0.354,+56.875,-11.062,+48.250,10, 16, 4, 2, 1, 0, -13, 6
1503701503353,+0.599,+0.450,-0.318,-0.580,+0.925,-0.070,-0.332,+68.188,-23.062,+47.250,-1, -1, -9, -1, 1, 0, -2, -25
1503701503375,+0.601,+0.457,-0.305,-0.580,+0.887,-0.125,-0.383,+73.062,-21.250,+45.000,11, 5, 6, 16, 1, 3, 0, -16
1503701503391,+0.602,+0.465,-0.292,-0.580,+0.872,-0.164,-0.376,+75.375,-14.812,+45.250,-7, -6, 0, -1, 24, 15, 11, 8
1503701503413,+0.602,+0.474,-0.279,-0.579,+0.874,-0.186,-0.325,+75.562,-16.000,+46.000,-8, -5, -2, -4, -19, -8, -3, -1
1503701503435,+0.602,+0.482,-0.267,-0.578,+0.869,-0.232,-0.313,+74.938,-11.125,+43.625,-12, 11, -1, -2, -10, 0, 6, 0
1503701503451,+0.603,+0.491,-0.256,-0.575,+0.850,-0.237,-0.311,+74.312,-5.062,+34.562,-18, 13, 5, -1, 2, -7, -7, 10
1503701503474,+0.604,+0.499,-0.245,-0.572,+0.891,-0.274,-0.317,+74.000,-8.188,+28.625,23, 2, -2, -8, -11, -2, -2, -16
1503701503495,+0.606,+0.505,-0.234,-0.568,+0.865,-0.318,-0.291,+69.188,-12.750,+18.688,18, 1, -6, -5, -11, -7, -2, 9
1503701503511,+0.607,+0.511,-0.225,-0.565,+0.847,-0.337,-0.281,+64.438,-12.688,+13.750,-5, 4, 1, -2, -9, -21, -4, -8
1503701503533,+0.610,+0.517,-0.217,-0.560,+0.836,-0.305,-0.332,+62.750,-10.000,+6.375,5, 19, 8, -1, 1, 7, 0, -2
1503701503555,+0.612,+0.522,-0.209,-0.555,+0.830,-0.338,-0.296,+59.188,-3.875,+2.875,-5, -21, 0, 3, -4, 2, 0, -7
1503701503578,+0.614,+0.528,-0.203,-0.550,+0.896,-0.351,-0.275,+55.312,-4.000,-0.688,9, -10, -7, -3, 12, 8, 2, 12
1503701503600,+0.618,+0.532,-0.197,-0.545,+0.902,-0.312,-0.314,+53.750,-8.188,-6.562,-2, 8, 12, 2, 10, 2, 2, 9
1503701503616,+0.621,+0.535,-0.191,-0.540,+0.872,-0.336,-0.274,+51.062,-13.312,-4.562,-1, -4, -3, 1, -6, -3, 0, 9
1503701503631,+0.624,+0.538,-0.185,-0.535,+0.904,-0.368,-0.253,+47.062,-15.625,-4.125,-11, 19, -2, -8, -5, 1, 0, 3
1503701503654,+0.627,+0.541,-0.180,-0.531,+0.889,-0.364,-0.286,+42.625,-11.375,-6.438,-1, -25, -14, -6, -4, -4, -3, -9
1503701503676,+0.628,+0.544,-0.175,-0.527,+0.877,-0.396,-0.237,+35.375,-7.875,-4.500,-9, -11, 1, 3, -1, 3, 0, -6
1503701503692,+0.630,+0.547,-0.172,-0.524,+0.900,-0.385,-0.241,+27.625,-7.312,-2.750,4, -5, -9, -7, 13, -6, -1, -2
1503701503715,+0.631,+0.549,-0.170,-0.522,+0.898,-0.361,-0.274,+22.062,-0.250,-2.438,0, -14, -6, 3, 13, -1, -2, -5
1503701503735,+0.631,+0.551,-0.168,-0.520,+0.909,-0.380,-0.239,+16.500,-2.312,-0.875,-10, -6, -1, -2, -5, 0, -2, -8
1503701503752,+0.631,+0.552,-0.167,-0.519,+0.911,-0.382,-0.248,+9.062,-4.188,-1.438,-11, -2, 2, 1, -5, -3, -1, 1
1503701503774,+0.631,+0.553,-0.166,-0.518,+0.879,-0.370,-0.251,+3.562,-0.500,+2.250,5, 19, 12, 5, -1, -1, -1, -2
1503701503796,+0.630,+0.553,-0.166,-0.519,+0.879,-0.348,-0.268,-2.375,+2.438,+4.812,4, -5, 0, -3, -6, 0, -1, -3
1503701503812,+0.629,+0.553,-0.166,-0.519,+0.902,-0.359,-0.272,-5.250,+4.438,+4.812,10, 13, 0, -3, 2, 4, 0, 5
1503701503834,+0.629,+0.553,-0.167,-0.520,+0.896,-0.376,-0.288,-4.875,+0.688,+4.062,4, -5, 5, -2, -3, -3, -3, -4
1503701503855,+0.629,+0.552,-0.166,-0.521,+0.871,-0.364,-0.306,-4.688,-6.812,+2.000,6, 26, -5, 1, -1, 1, 2, 2
1503701503872,+0.629,+0.552,-0.166,-0.522,+0.863,-0.362,-0.301,-6.250,-2.062,+4.125,-3, -7, 6, 4, -8, -4, -1, 1
1503701503894,+0.628,+0.552,-0.167,-0.523,+0.885,-0.360,-0.290,-7.250,+6.312,+6.688,-14, -6, 2, -12, -9, -4, -2, 2
1503701503917,+0.627,+0.552,-0.167,-0.524,+0.918,-0.353,-0.288,-8.875,+2.062,+7.562,9, -2, -6, -5, -5, -2, -1, -2
1503701503932,+0.626,+0.551,-0.167,-0.526,+0.905,-0.335,-0.312,-6.312,+1.562,+7.562,2, 10, 4, 2, 0, -1, 1, -1
1503701503954,+0.625,+0.551,-0.167,-0.527,+0.885,-0.348,-0.313,-6.188,+1.438,+11.188,-4, -21, -15, -4, -10, -1, -2, -6
1503701503976,+0.623,+0.551,-0.167,-0.529,+0.874,-0.369,-0.297,-6.875,+2.938,+14.688,0, 2, -1, -5, -6, -5, -1, -5
1503701503992,+0.621,+0.551,-0.167,-0.531,+0.869,-0.382,-0.292,-11.625,+6.062,+13.875,-7, 7, -4, 3, -1, -4, 2, 2
1503701504014,+0.618,+0.552,-0.168,-0.534,+0.886,-0.375,-0.291,-13.688,+12.688,+15.250,10, 5, 13, 2, 0, 3, 2, 11
1503701504035,+0.616,+0.552,-0.169,-0.536,+0.897,-0.375,-0.283,-13.625,+10.500,+13.812,0, -8, 4, 7, 5, 4, -4, -19
1503701504052,+0.614,+0.552,-0.170,-0.538,+0.876,-0.376,-0.287,-13.938,+1.375,+11.250,13, 2, -4, -6, -6, -1, 1, 3
1503701504075,+0.612,+0.551,-0.171,-0.541,+0.843,-0.379,-0.301,-14.562,+4.375,+9.562,13, 1, 4, 0, 17, 3, -2, 3
1503701504095,+0.610,+0.551,-0.172,-0.543,+0.859,-0.409,-0.281,-16.500,+10.125,+10.938,-7, 4, -2, -2, -2, -1, -3, -4
1503701504112,+0.607,+0.551,-0.174,-0.545,+0.842,-0.411,-0.260,-20.375,+11.188,+8.938,0, 18, 15, 2, -9, -6, -7, -12
1503701504134,+0.605,+0.551,-0.176,-0.548,+0.847,-0.402,-0.255,-22.938,+10.625,+4.438,0, -2, -11, 0, -1, -1, 3, 14
1503701504155,+0.603,+0.550,-0.180,-0.550,+0.875,-0.384,-0.273,-24.250,+11.250,+2.125,1, -12, -8, 0, -2, 0, 0, 1
1503701504179,+0.601,+0.548,-0.183,-0.552,+0.865,-0.374,-0.272,-27.375,+9.062,+0.250,-18, -8, -13, -7, 9, -1, -2, 2
1503701504194,+0.599,+0.547,-0.187,-0.555,+0.831,-0.399,-0.263,-32.500,+9.875,+0.438,-1, -17, -1, -4, -3, -3, -2, -1
1503701504216,+0.595,+0.546,-0.193,-0.558,+0.766,-0.415,-0.247,-38.875,+25.250,+0.062,11, -6, -5, -5, 0, -1, -2, -2
1503701504232,+0.588,+0.548,-0.202,-0.560,+0.788,-0.396,-0.229,-45.375,+54.250,+0.500,3, -6, -6, -2, 0, -4, -5, -27
1503701504254,+0.580,+0.551,-0.215,-0.561,+0.887,-0.317,-0.267,-47.000,+81.812,-5.688,6, -5, -3, 6, 1, 1, -2, -14
1503701504276,+0.571,+0.554,-0.229,-0.561,+0.979,-0.290,-0.306,-44.062,+87.312,-4.562,1, -12, 5, 17, 8, 7, 1, 6
1503701504292,+0.563,+0.557,-0.242,-0.560,+1.063,-0.276,-0.239,-41.500,+75.812,-7.062,-6, 5, 8, -3, -2, -2, 1, -5
1503701504314,+0.559,+0.557,-0.252,-0.560,+1.182,-0.311,-0.294,-33.750,+48.125,-13.188,2, -6, -8, 3, -3, -1, -3, -2
1503701504335,+0.562,+0.553,-0.255,-0.560,+1.006,-0.261,-0.308,-16.625,-6.500,-18.562,-5, -4, -5, -6, -7, -4, -1, 7
1503701504352,+0.570,+0.546,-0.252,-0.560,+0.803,-0.259,-0.321,-4.688,-48.688,-25.500,-1, -1, 6, -1, 3, 1, 0, -1
1503701504376,+0.575,+0.542,-0.250,-0.560,+0.805,-0.327,-0.296,+2.875,-34.500,-19.312,-2, -2, 7, -2, 0, 0, 0, 2
1503701504395,+0.575,+0.544,-0.250,-0.558,+0.892,-0.366,-0.279,+8.812,+13.000,-5.375,7, -3, -10, -5, -1, -2, -1, -5
1503701504412,+0.572,+0.548,-0.251,-0.556,+0.952,-0.310,-0.279,+13.062,+33.062,+5.375,2, 5, 2, -2, 7, 0, 1, -2
1503701504434,+0.571,+0.552,-0.251,-0.554,+0.996,-0.256,-0.267,+17.812,+19.938,+11.188,-3, -5, -3, -3, -3, -1, -1, -1
1503701504455,+0.571,+0.554,-0.249,-0.553,+0.995,-0.286,-0.253,+19.875,+1.188,+9.312,3, 1, -6, -6, -6, -1, 1, -1
1503701504472,+0.572,+0.555,-0.246,-0.551,+0.938,-0.283,-0.233,+22.375,-5.562,+2.750,1, 4, -2, 0, -2, 1, -3, 0
1503701504493,+0.574,+0.557,-0.243,-0.549,+0.913,-0.312,-0.193,+22.875,-2.312,+1.375,-7, 4, 7, 2, 0, -3, -2, -1
1503701504515,+0.573,+0.560,-0.242,-0.547,+0.938,-0.340,-0.190,+19.812,+8.188,+1.250,-1, -3, -6, 0, -4, -1, -2, -4
1503701504531,+0.574,+0.563,-0.241,-0.544,+0.921,-0.322,-0.195,+21.125,+5.312,-1.750,2, -7, -2, -3, 1, -1, 0, 1
1503701504554,+0.576,+0.565,-0.239,-0.541,+0.865,-0.322,-0.217,+23.438,-0.188,-5.312,3, -3, -6, 0, 2, -1, -3, -2
1503701504577,+0.577,+0.567,-0.236,-0.538,+0.896,-0.358,-0.209,+25.500,+0.625,-6.312,-4, 8, 7, 10, 6, 3, -1, 3
1503701504592,+0.578,+0.570,-0.234,-0.535,+0.936,-0.370,-0.174,+26.750,+2.500,-3.125,-3, 3, -1, -4, -6, -2, 1, 0
1503701504614,+0.579,+0.572,-0.232,-0.532,+0.901,-0.349,-0.171,+26.562,-0.250,-5.688,2, -5, -4, -2, 1, -3, -2, -1
1503701504636,+0.581,+0.575,-0.230,-0.528,+0.894,-0.349,-0.170,+25.438,-1.500,-9.375,-5, -1, -3, -9, -2, -1, -2, 1
1503701504652,+0.583,+0.577,-0.228,-0.525,+0.913,-0.365,-0.170,+22.125,+0.750,-11.000,-11, -6, -3, 3, 0, -2, -4, -5
1503701504674,+0.584,+0.579,-0.228,-0.522,+0.937,-0.372,-0.152,+17.688,+4.875,-12.688,2, 1, 5, 9, -4, 0, 0, 1
1503701504696,+0.585,+0.580,-0.229,-0.519,+0.947,-0.345,-0.119,+10.125,+4.125,-12.000,-8, -1, -1, -4, -1, -2, -3, -3
1503701504712,+0.585,+0.581,-0.230,-0.517,+0.962,-0.339,-0.098,+1.188,+2.500,-12.000,-5, 0, -2, -3, -9, -11, -1, -6
1503701504734,+0.585,+0.581,-0.231,-0.516,+0.944,-0.350,-0.094,-5.688,-3.000,-10.188,11, 1, -3, -3, 2, 7, 12, 0
1503701504756,+0.586,+0.579,-0.233,-0.516,+0.914,-0.355,-0.100,-11.625,-5.688,-13.812,6, 0, 1, 2, 1, 4, -3, -1
1503701504772,+0.588,+0.577,-0.236,-0.516,+0.871,-0.353,-0.147,-15.125,-7.375,-23.938,-2, -5, 1, 2, 2, 3, 1, -1
1503701504794,+0.590,+0.574,-0.241,-0.515,+0.892,-0.321,-0.178,-20.812,-0.938,-31.000,2, 19, -1, -1, -3, 2, 5, 0
1503701504816,+0.591,+0.571,-0.246,-0.514,+0.957,-0.299,-0.156,-25.188,+1.562,-25.938,-2, 2, 1, -8, -5, -8, -2, -2
1503701504831,+0.592,+0.568,-0.250,-0.514,+0.965,-0.267,-0.188,-22.125,-1.375,-21.188,-3, 6, 6, 9, 13, 2, -1, -5
1503701504854,+0.595,+0.564,-0.254,-0.514,+0.921,-0.276,-0.207,-21.438,-9.438,-26.188,-1, -1, -1, 1, 2, 2, 2, 0
1503701504879,+0.598,+0.559,-0.257,-0.514,+0.907,-0.293,-0.192,-26.125,-16.812,-29.812,1, 2, 2, -5, -11, -3, 1, -5
1503701504892,+0.600,+0.554,-0.262,-0.514,+0.996,-0.284,-0.153,-30.625,-13.562,-30.250,3, 5, 6, 4, -2, 4, 0, -1
1503701504915,+0.601,+0.550,-0.268,-0.514,+1.037,-0.233,-0.177,-34.750,-3.062,-26.250,-2, -9, -6, 2, -5, 1, 2, 1
1503701504936,+0.601,+0.546,-0.274,-0.516,+0.971,-0.160,-0.205,-36.250,-3.938,-18.125,3, -2, 0, -2, 7, -3, 1, -2
1503701504952,+0.602,+0.541,-0.278,-0.517,+0.944,-0.165,-0.229,-33.875,-9.812,-16.250,-1, -3, -16, -7, -5, -2, -2, -2
1503701504974,+0.604,+0.535,-0.281,-0.519,+0.941,-0.204,-0.250,-29.938,-13.625,-18.438,0, -11, -1, -2, -3, -1, -3, 1
1503701504996,+0.606,+0.530,-0.285,-0.519,+0.923,-0.197,-0.271,-28.688,-11.688,-25.500,3, -3, -4, -3, -2, 1, -1, 2
1503701505013,+0.609,+0.525,-0.290,-0.519,+0.905,-0.171,-0.249,-26.125,-11.188,-31.125,1, 5, 7, 5, 2, 0, -2, 2
1503701505034,+0.612,+0.520,-0.294,-0.518,+0.908,-0.154,-0.286,-21.000,-7.188,-35.125,-11, -1, 0, -2, -5, 0, 1, 0
1503701505056,+0.615,+0.516,-0.299,-0.516,+0.929,-0.164,-0.263,-20.250,-3.062,-34.250,2, -17, -7, -1, -1, -2, -4, -4
1503701505071,+0.616,+0.513,-0.303,-0.514,+0.993,-0.160,-0.241,-18.812,+0.250,-29.250,-18, -2, 1, 0, 1, -1, -1, 2
1503701505094,+0.618,+0.510,-0.308,-0.513,+1.007,-0.117,-0.270,-17.188,+0.438,-28.625,-5, -2, 2, -5, -5, -1, -3, -4
1503701505116,+0.621,+0.506,-0.311,-0.511,+0.995,-0.082,-0.279,-15.312,-6.875,-27.250,-2, 3, 4, 5, 21, 10, 1, 3
1503701505132,+0.624,+0.502,-0.313,-0.511,+1.002,-0.096,-0.272,-16.062,-20.875,-18.500,11, -1, -3, 1, -8, -4, 0, 0
1503701505155,+0.626,+0.499,-0.314,-0.510,+1.012,-0.058,-0.242,-7.000,-15.688,-18.750,11, -9, -4, -3, 1, -1, -1, -17
1503701505176,+0.629,+0.495,-0.315,-0.510,+0.962,-0.119,-0.280,-6.750,-17.500,-15.812,-3, -7, -1, 1, -1, 0, 0, 1
1503701505192,+0.631,+0.493,-0.316,-0.509,+0.944,-0.085,-0.285,-6.125,-10.875,-15.438,11, 4, -4, 0, -13, -9, -1, -3
1503701505218,+0.632,+0.491,-0.317,-0.509,+0.986,-0.067,-0.255,-7.625,-6.625,-9.312,-6, -2, -2, -2, -6, -6, -3, -4
1503701505236,+0.632,+0.490,-0.318,-0.509,+1.041,-0.072,-0.256,-8.500,-3.625,-2.312,-10, -20, -4, 1, 9, 15, 3, 2
1503701505258,+0.632,+0.489,-0.319,-0.510,+1.024,-0.066,-0.248,-8.875,-8.625,-0.875,7, -1, -3, -2, -2, 1, -1, 4
1503701505274,+0.633,+0.486,-0.319,-0.511,+0.962,-0.080,-0.254,-9.312,-14.500,-0.312,-12, -1, -1, 10, 17, -2, 0, 0
1503701505296,+0.634,+0.484,-0.318,-0.513,+0.905,-0.089,-0.288,-10.875,-16.562,+2.938,1, -3, -8, -5, 5, 4, -2, -18
1503701505314,+0.634,+0.482,-0.317,-0.516,+0.930,-0.120,-0.282,-13.062,-14.188,+5.750,4, 7, 5, 5, 1, -2, 0, 11
1503701505334,+0.634,+0.479,-0.317,-0.518,+0.926,-0.094,-0.302,-15.312,-11.938,+2.750,-8, 6, -4, -4, -9, -4, 3, 12
1503701505357,+0.633,+0.478,-0.319,-0.519,+0.929,-0.080,-0.316,-14.562,-1.125,-1.438,-3, -20, -9, -1, -6, -5, 1, 3
1503701505372,+0.633,+0.476,-0.320,-0.520,+0.959,-0.085,-0.306,-13.438,-3.438,+0.375,-6, -4, -3, -6, -1, 0, 4, 15
1503701505394,+0.633,+0.474,-0.320,-0.522,+0.966,-0.086,-0.297,-12.875,-9.875,+0.875,2, -6, -11, -3, 10, 7, 1, 5
1503701505416,+0.633,+0.472,-0.320,-0.523,+0.957,-0.064,-0.311,-9.875,-9.562,+0.188,-22, -9, -3, -1, 2, 1, -4, -21
1503701505432,+0.634,+0.470,-0.320,-0.524,+0.933,-0.066,-0.327,-7.125,-10.312,-0.812,27, -2, 0, -1, -5, -4, -3, 6
1503701505454,+0.635,+0.468,-0.320,-0.525,+0.919,-0.093,-0.330,-6.438,-10.812,-1.688,-16, -2, 7, 4, 25, 7, -5, -5
1503701505476,+0.636,+0.467,-0.320,-0.525,+0.911,-0.090,-0.336,-6.500,-6.062,-2.188,7, 0, -4, -4, -10, 0, 0, -10
1503701505491,+0.636,+0.466,-0.320,-0.526,+0.913,-0.074,-0.323,-6.500,-3.188,-2.062,0, -6, -5, -1, 4, 2, 4, 8
1503701505516,+0.636,+0.465,-0.320,-0.526,+0.944,-0.068,-0.335,-5.062,-0.875,-3.125,-8, -2, 3, 4, -1, -2, -2, 3
1503701505537,+0.636,+0.465,-0.321,-0.525,+0.947,-0.045,-0.320,-3.562,+0.750,-2.312,5, 2, -3, -4, -10, -3, -4, -5
1503701505552,+0.636,+0.464,-0.322,-0.526,+0.978,-0.062,-0.300,-2.312,-1.188,+1.000,9, 20, 8, 2, -12, -5, -2, -4
1503701505574,+0.636,+0.464,-0.321,-0.526,+0.996,-0.069,-0.300,-1.500,-5.375,+0.688,-3, -2, 0, 0, -3, 26, 15, 5
1503701505596,+0.637,+0.463,-0.321,-0.526,+0.944,-0.068,-0.329,-0.625,-7.875,-1.188,3, 4, 4, -1, -10, -11, -4, -6
1503701505611,+0.638,+0.462,-0.320,-0.526,+0.933,-0.067,-0.336,-0.375,-6.562,+0.625,-5, 3, 14, 8, 4, -3, -5, 0
1503701505641,+0.638,+0.462,-0.320,-0.527,+0.956,-0.059,-0.319,-1.250,-2.125,+5.000,-8, -13, -12, -4, 6, -2, -9, -5
1503701505657,+0.636,+0.464,-0.320,-0.527,+0.938,-0.042,-0.325,+0.188,+12.688,+7.250,-7, -8, -4, -4, -6, -10, -1, -4
1503701505678,+0.634,+0.467,-0.320,-0.527,+0.980,-0.072,-0.321,+1.438,+14.438,+14.875,18, -4, -5, 3, 5, -2, -10, -30
1503701505694,+0.632,+0.469,-0.320,-0.527,+0.950,-0.060,-0.303,+3.188,+16.188,+15.125,-14, 13, 2, -3, 3, -3, -3, 29
1503701505717,+0.629,+0.473,-0.320,-0.528,+0.967,-0.064,-0.321,+4.688,+17.062,+19.250,15, -21, -7, -5, -5, -6, -12, -4
1503701505739,+0.627,+0.475,-0.318,-0.529,+0.929,-0.095,-0.340,+6.562,+12.438,+18.750,0, -1, -5, -1, -5, -2, 3, -7
1503701505754,+0.624,+0.479,-0.318,-0.529,+0.884,-0.131,-0.304,+5.688,+22.188,+17.250,8, -2, -7, -4, 1, 6, 11, 0
1503701506458,+0.646,+0.474,-0.305,-0.514,+0.938,-0.098,-0.319,+3.938,-5.500,-1.375,8, -10, -3, -19, -43, -8, -5, -26
1503701506473,+0.648,+0.473,-0.304,-0.514,+0.967,-0.087,-0.310,+4.375,-9.125,-4.125,3, 10, -6, -2, -10, -5, 1, 3
1503701506496,+0.650,+0.471,-0.302,-0.514,+0.943,-0.074,-0.331,+4.500,-19.688,-5.812,1, 15, -2, -1, -3, -3, -3, -10
1503701506521,+0.652,+0.470,-0.301,-0.513,+0.943,-0.066,-0.355,+8.125,-12.438,-7.188,-2, 7, 4, 5, 11, 10, 9, -14
1503701506533,+0.655,+0.469,-0.299,-0.512,+0.925,-0.049,-0.347,+10.562,-12.062,-2.938,-1, -19, -3, -2, 2, 9, 0, 3
1503701506555,+0.656,+0.469,-0.296,-0.511,+0.971,-0.075,-0.361,+15.000,-13.250,+0.438,-16, -23, -9, -2, -12, -8, -6, -13
1503701506578,+0.659,+0.469,-0.293,-0.510,+0.945,-0.048,-0.360,+17.750,-11.750,-1.062,-4, 3, 3, 0, 3, -11, -2, -6
1503701506593,+0.660,+0.470,-0.290,-0.509,+0.941,-0.079,-0.347,+20.000,-11.688,+5.312,8, 13, -1, 0, 3, 10, 4, 12
1503701506615,+0.662,+0.470,-0.286,-0.509,+0.970,-0.065,-0.384,+19.125,-9.562,+9.188,-15, -13, 3, 4, 0, -1, 0, 2
1503701506638,+0.663,+0.471,-0.282,-0.510,+0.950,-0.072,-0.391,+18.375,-14.625,+15.500,10, 16, 3, 6, 16, 2, -3, 11
1503701506654,+0.663,+0.472,-0.277,-0.510,+0.958,-0.061,-0.377,+21.625,-12.750,+18.500,-9, -8, 0, -4, -2, -3, 0, 20
1503701506675,+0.664,+0.474,-0.271,-0.511,+0.923,-0.102,-0.363,+23.562,-12.062,+23.000,2, -7, -4, -4, -3, -4, 0, -7
1503701506698,+0.663,+0.476,-0.266,-0.513,+0.941,-0.131,-0.367,+25.062,-7.062,+28.812,6, 11, 9, -1, -2, -1, -4, -4
1503701506713,+0.662,+0.479,-0.259,-0.514,+0.949,-0.117,-0.408,+28.688,-5.312,+30.375,2, 1, -4, -1, 0, -1, -1, -11
1503701506735,+0.662,+0.482,-0.252,-0.516,+0.918,-0.146,-0.368,+30.062,-10.125,+33.250,0, 8, -4, 1, -2, 2, -4, 3
1503701506758,+0.661,+0.486,-0.245,-0.517,+0.890,-0.179,-0.344,+30.500,-8.125,+34.125,-6, -5, -1, -4, -6, -8, 1, 9
1503701506773,+0.660,+0.489,-0.239,-0.518,+0.887,-0.165,-0.363,+31.625,-3.562,+30.500,-4, -12, -4, 0, -1, -3, -3, -4
1503701506796,+0.659,+0.493,-0.233,-0.518,+0.884,-0.156,-0.390,+32.375,-2.438,+28.375,-7, -1, 1, -2, 1, -2, -3, -15
1503701506818,+0.658,+0.496,-0.227,-0.519,+0.875,-0.208,-0.352,+30.938,-2.438,+26.375,-2, -10, -4, -1, -1, 1, 2, 6
1503701506833,+0.657,+0.500,-0.221,-0.519,+0.877,-0.243,-0.333,+31.625,+1.062,+25.312,4, 7, 2, 0, 2, 2, 0, -4
1503701506856,+0.656,+0.504,-0.216,-0.518,+0.881,-0.228,-0.313,+31.188,+1.375,+19.000,-6, 1, 1, -1, -7, -3, -3, -8
1503701506878,+0.657,+0.507,-0.211,-0.516,+0.888,-0.235,-0.368,+31.688,-4.562,+11.312,5, 10, -2, -1, -5, -1, -3, -3
1503701506900,+0.658,+0.509,-0.205,-0.515,+0.866,-0.269,-0.382,+32.688,-6.375,+7.375,4, -3, -1, 2, 0, -4, -6, -21
1503701506915,+0.659,+0.512,-0.200,-0.513,+0.894,-0.279,-0.371,+34.188,-5.500,+5.750,8, 0, 0, -2, 0, 2, 2, -1
1503701506938,+0.661,+0.514,-0.195,-0.510,+0.865,-0.273,-0.331,+32.938,-7.000,+1.750,-8, -4, 7, -2, 2, -1, 1, 5
1503701506961,+0.662,+0.517,-0.191,-0.508,+0.885,-0.280,-0.287,+29.625,-7.500,+0.062,0, -6, -7, -3, -4, -1, -2, -2
1503701506975,+0.663,+0.519,-0.188,-0.505,+0.897,-0.273,-0.309,+26.250,-2.375,-0.938,0, -24, -11, -4, -4, 0, 0, 4
1503701506999,+0.664,+0.521,-0.186,-0.503,+0.924,-0.305,-0.305,+21.625,-1.562,+0.500,-2, 3, 8, 2, 2, -1, -1, 6
1503701507013,+0.665,+0.523,-0.183,-0.501,+0.920,-0.300,-0.280,+15.562,-8.938,-3.312,-8, 2, -6, 2, 9, 1, 0, 5
1503701507036,+0.666,+0.523,-0.182,-0.501,+0.871,-0.312,-0.271,+6.000,-8.812,-1.875,12, -7, -4, 0, 0, 0, -3, -3
1503701507059,+0.664,+0.524,-0.183,-0.501,+0.853,-0.330,-0.231,-7.875,+5.125,-0.688,-10, -5, -8, -4, -1, 3, 2, -4
1503701507073,+0.661,+0.525,-0.185,-0.502,+0.917,-0.331,-0.229,-18.062,+13.500,+3.125,-3, 4, 4, 2, -4, 1, 0, 13
1503701507103,+0.660,+0.525,-0.188,-0.504,+0.942,-0.314,-0.269,-24.125,+4.250,+3.375,2, 2, 5, -6, -6, -5, 4, 14
1503701507118,+0.658,+0.523,-0.191,-0.507,+0.896,-0.300,-0.315,-29.188,-0.875,+2.000,-8, 12, 8, 5, 18, 9, 5, 8
1503701507134,+0.656,+0.521,-0.194,-0.510,+0.809,-0.291,-0.337,-33.875,+7.312,+4.500,8, 21, 13, 5, -2, 0, 1, -5
1503701507161,+0.652,+0.520,-0.200,-0.514,+0.832,-0.314,-0.319,-39.875,+23.188,+4.812,-16, -17, -9, -4, -13, -6, -5, -3
1503701507180,+0.649,+0.520,-0.206,-0.516,+0.917,-0.250,-0.345,-37.938,+26.125,-0.500,6, 11, -4, -1, -9, -6, -2, -6
1503701507193,+0.648,+0.517,-0.214,-0.517,+0.923,-0.156,-0.380,-36.062,+19.188,-11.625,-8, -3, -2, -4, -1, -1, -2, -5
1503701507215,+0.646,+0.516,-0.220,-0.517,+0.889,-0.191,-0.345,-32.875,+19.750,-13.062,8, -10, -9, -4, -7, 0, -2, -1
1503701507238,+0.643,+0.517,-0.228,-0.517,+0.787,-0.247,-0.323,-30.812,+40.062,-19.562,-6, 6, 2, -1, -2, 0, -1, 2
1503701507253,+0.640,+0.518,-0.238,-0.515,+0.808,-0.190,-0.377,-30.438,+53.750,-23.250,-6, 4, 1, -3, 0, -2, -1, 7
1503701507275,+0.637,+0.520,-0.246,-0.513,+0.913,-0.153,-0.393,-18.188,+51.938,-14.312,6, 8, -12, -4, -3, 0, -2, 0
1503701507299,+0.635,+0.523,-0.251,-0.510,+0.980,-0.194,-0.387,-4.562,+47.312,-17.062,-4, -12, -11, -2, -3, -3, 0, -2
1503701507313,+0.635,+0.526,-0.257,-0.505,+0.972,-0.170,-0.330,+3.188,+34.188,-27.250,-11, 4, 9, -8, -3, 1, 3, -3
1503701507335,+0.636,+0.527,-0.261,-0.499,+1.001,-0.147,-0.288,+8.688,+23.188,-33.312,-3, -2, 2, 5, 8, 3, -1, 0
1503701507358,+0.638,+0.529,-0.264,-0.494,+1.045,-0.142,-0.276,+12.000,+15.500,-30.812,-3, 4, 6, -7, -5, -3, 0, -18
1503701507374,+0.641,+0.529,-0.265,-0.489,+0.982,-0.169,-0.260,+18.938,-0.188,-27.375,11, 2, 1, 5, -7, 2, 0, 5
1503701507396,+0.645,+0.529,-0.264,-0.485,+0.952,-0.188,-0.250,+18.250,-9.500,-25.000,-13, 3, 6, 4, 5, 1, 0, 3
1503701507418,+0.648,+0.528,-0.265,-0.480,+0.938,-0.162,-0.231,+11.812,-0.938,-29.438,-3, -1, 3, 0, 4, 0, 1, 15
1503701507434,+0.649,+0.530,-0.268,-0.476,+0.969,-0.159,-0.185,+4.688,+14.125,-28.438,4, -2, -7, 7, 20, 5, -2, -10
1503701507463,+0.649,+0.531,-0.272,-0.472,+1.003,-0.155,-0.179,-0.375,+17.625,-24.750,15, 1, -2, -2, -7, -7, -4, 9
1503701507478,+0.649,+0.532,-0.275,-0.469,+1.048,-0.150,-0.196,-3.375,+10.125,-15.562,2, 3, 4, -1, -5, -5, -1, -10
1503701507494,+0.649,+0.532,-0.276,-0.468,+1.001,-0.142,-0.241,-2.812,+2.938,-11.375,0, 5, 5, -4, -3, -1, 0, 8
1503701507515,+0.652,+0.529,-0.277,-0.467,+0.922,-0.127,-0.293,-4.625,-11.188,-16.375,4, 25, 5, 3, -2, 0, -5, -19
1503701507538,+0.655,+0.526,-0.278,-0.466,+0.895,-0.097,-0.272,-1.688,-12.062,-19.250,-8, -16, -6, -4, 0, 0, -3, -1
1503701507554,+0.656,+0.526,-0.279,-0.465,+0.979,-0.134,-0.232,-2.375,-0.312,-12.375,-1, -2, -1, 1, 7, 0, 0, 1
1503701507575,+0.655,+0.526,-0.281,-0.464,+1.019,-0.102,-0.215,-4.750,+6.062,-3.062,5, -14, -6, 7, 7, -1, -1, 0
1503701507598,+0.656,+0.526,-0.281,-0.463,+0.995,-0.067,-0.266,-0.375,-1.375,-7.375,-6, -24, 4, 0, -4, 1, -1, -2
1503701507613,+0.657,+0.525,-0.282,-0.462,+0.929,-0.086,-0.273,+3.562,-1.312,-7.000,4, 22, 6, -1, -1, -1, 1, -1
1503701507635,+0.657,+0.526,-0.281,-0.461,+0.938,-0.132,-0.229,+3.188,+3.312,-3.625,4, -3, 3, 8, 5, 3, -5, -26
1503701507660,+0.657,+0.526,-0.282,-0.460,+1.016,-0.135,-0.207,-2.312,+4.125,-4.500,-12, -13, -13, -7, 1, -9, 2, 1
1503701507673,+0.656,+0.526,-0.284,-0.460,+1.001,-0.115,-0.214,-7.000,+1.938,-4.250,-7, -26, -3, -1, -8, 0, -1, 0
1503701507695,+0.657,+0.525,-0.285,-0.459,+0.985,-0.070,-0.225,-6.938,-1.375,-8.250,-7, -13, 7, 24, 9, 4, -1, -1
1503701507718,+0.658,+0.524,-0.286,-0.459,+0.994,-0.110,-0.229,-4.875,-6.938,-3.812,-2, 3, -6, -29, -34, -4, -1, 1
1503701507734,+0.658,+0.523,-0.286,-0.460,+0.966,-0.120,-0.209,-6.812,-4.812,-4.000,8, 14, 6, 30, 24, 12, 3, 7
1503701507755,+0.658,+0.522,-0.287,-0.461,+0.956,-0.110,-0.239,-10.438,-8.438,-1.375,0, 2, -3, -17, -39, -12, -1, 1
1503701507778,+0.659,+0.519,-0.288,-0.461,+0.964,-0.074,-0.278,-10.438,-11.438,-6.062,-5, -3, -4, 11, 53, 7, 1, -2
1503701507796,+0.661,+0.517,-0.289,-0.461,+0.935,-0.071,-0.280,-7.750,-9.688,-11.375,-2, -7, -3, -6, -23, -3, -1, -3
1503701507815,+0.663,+0.514,-0.289,-0.461,+0.954,-0.093,-0.281,-6.188,-10.250,-10.875,-25, -5, 3, -4, 11, 4, 1, -3
1503701507838,+0.663,+0.513,-0.290,-0.461,+0.994,-0.079,-0.254,-6.438,-5.875,-3.938,6, 9, -4, -8, -10, -5, 0, 3
1503701507854,+0.664,+0.512,-0.290,-0.461,+1.025,-0.062,-0.253,-5.375,-6.312,-1.875,34, 9, -7, -9, -11, -5, -3, 2
1503701507875,+0.665,+0.511,-0.290,-0.461,+0.971,-0.062,-0.272,-3.188,-7.812,-5.000,-2, -7, -7, 1, 1, -3, -2, -2
1503701507900,+0.666,+0.509,-0.290,-0.461,+0.957,-0.041,-0.288,-0.375,-8.438,-3.438,-13, -13, 6, 4, 3, 2, -1, 1
1503701507917,+0.666,+0.509,-0.290,-0.461,+0.972,-0.071,-0.282,+0.812,-2.875,+2.438,-8, -4, -9, -5, -3, 0, 3, 1
1503701507937,+0.667,+0.509,-0.289,-0.461,+0.977,-0.079,-0.261,+0.750,-1.875,+1.062,-1, 16, -1, -3, -8, -3, -3, -3
1503701507961,+0.667,+0.509,-0.289,-0.461,+0.945,-0.077,-0.280,+0.688,-2.438,+0.188,-4, -12, -7, -3, -5, 0, -4, -8
1503701507974,+0.667,+0.509,-0.289,-0.461,+0.938,-0.080,-0.277,-0.750,+0.750,+0.812,-3, -1, -5, -1, -11, 1, -1, 1
1503701507995,+0.667,+0.509,-0.289,-0.461,+0.962,-0.072,-0.276,-1.188,+3.562,+3.062,4, -7, -2, -2, -9, -2, -1, 2
1503701508018,+0.666,+0.510,-0.289,-0.461,+0.974,-0.074,-0.268,+0.688,+4.438,+3.625,-4, -7, -6, -3, -2, -4, -2, -1
1503701508034,+0.665,+0.511,-0.289,-0.461,+0.942,-0.084,-0.265,+0.812,+5.125,+4.750,6, 6, -6, -2, 9, -4, -1, 4
1503701508055,+0.664,+0.512,-0.289,-0.462,+0.935,-0.081,-0.255,-2.812,+7.062,+5.188,1, 6, 6, 6, 27, 17, 2, 13
1503701508078,+0.663,+0.513,-0.289,-0.462,+0.970,-0.079,-0.261,-3.000,+5.438,+7.250,5, 16, -6, -4, 1, -3, 1, 3
1503701508095,+0.663,+0.513,-0.289,-0.463,+0.964,-0.072,-0.277,-1.688,+1.938,+4.875,7, -18, 2, 5, -7, -4, -2, -8
1503701508115,+0.662,+0.513,-0.289,-0.463,+1.000,-0.062,-0.272,-0.688,+2.500,+5.375,3, 12, 14, 4, -4, 0, 1, 5
1503701508138,+0.661,+0.515,-0.288,-0.464,+0.982,-0.075,-0.260,+0.438,+7.625,+10.688,18, 31, 10, -3, -12, -10, -1, 6
1503701508153,+0.660,+0.516,-0.287,-0.464,+0.934,-0.087,-0.256,+3.062,+5.625,+11.250,-15, 8, -7, -2, 0, 0, -3, -11
1503701508175,+0.659,+0.518,-0.286,-0.465,+0.914,-0.110,-0.273,+3.312,+7.500,+10.500,-5, -6, -4, -6, -7, 1, -1, -3
1503701508200,+0.657,+0.520,-0.286,-0.465,+0.957,-0.138,-0.244,+0.812,+8.938,+9.438,8, 23, 7, 3, 3, 2, 0, 1
1503701508213,+0.655,+0.521,-0.287,-0.465,+0.942,-0.117,-0.232,-1.500,+13.438,+2.750,-6, -40, -17, -2, -5, -1, -2, -2
1503701508236,+0.655,+0.522,-0.287,-0.465,+0.977,-0.122,-0.218,-1.500,+4.688,+2.125,0, 0, -3, 8, 13, 5, -2, 1
1503701508259,+0.655,+0.522,-0.287,-0.465,+1.010,-0.118,-0.210,-1.688,-3.625,-3.500,-3, 14, 8, 23, 44, 17, 7, 7
1503701508273,+0.656,+0.521,-0.287,-0.465,+0.990,-0.106,-0.223,-2.250,-6.625,-4.062,-5, -18, -7, -15, -20, -4, -4, -7
1503701508295,+0.656,+0.520,-0.287,-0.465,+0.948,-0.106,-0.252,-4.000,-5.188,-2.750,0, 12, 12, 3, 4, -6, -5, -7
1503701508318,+0.657,+0.519,-0.288,-0.465,+0.969,-0.082,-0.255,-3.875,-5.688,-2.312,0, -13, -6, -1, -3, 0, -4, -5
1503701508334,+0.658,+0.518,-0.288,-0.465,+0.969,-0.070,-0.267,-2.062,-5.938,-2.625,7, 3, -5, -9, -22, -8, -2, -5
1503701508356,+0.658,+0.518,-0.288,-0.465,+0.957,-0.096,-0.272,-2.562,+2.812,-0.438,5, 19, 3, -5, -11, -2, 1, 3
1503701508378,+0.657,+0.519,-0.289,-0.465,+0.956,-0.080,-0.253,-3.375,+6.188,+4.000,-13, -8, 5, 10, 11, 6, 1, -2
1503701508396,+0.656,+0.520,-0.289,-0.465,+0.971,-0.070,-0.260,-0.625,+6.375,+5.438,5, 1, -1, -4, -5, -5, 0, 0
1503701508416,+0.655,+0.521,-0.289,-0.465,+0.984,-0.094,-0.243,+0.188,+9.500,+6.125,0, -6, -7, 0, -11, -8, -3, -2
1503701508438,+0.654,+0.523,-0.289,-0.465,+0.965,-0.103,-0.230,+0.812,+9.625,+5.188,-5, -3, 1, 6, 5, 2, 3, 0
1503701508454,+0.653,+0.524,-0.288,-0.465,+0.973,-0.123,-0.227,+2.750,+5.312,+6.375,-7, 12, 10, -7, -9, -2, 0, 2
1503701508476,+0.652,+0.524,-0.288,-0.466,+0.963,-0.120,-0.239,+0.188,-1.625,+3.688,1, -36, -16, -9, -5, -3, 0, 2
1503701508498,+0.653,+0.524,-0.287,-0.466,+0.935,-0.126,-0.245,-0.438,-3.312,+1.562,8, 15, 0, -2, -1, 0, 1, 6
1503701508514,+0.653,+0.524,-0.287,-0.466,+0.951,-0.149,-0.261,-1.125,-0.750,-2.062,1, -1, -1, -1, -6, -2, 0, -4
1503701508536,+0.653,+0.523,-0.287,-0.466,+0.948,-0.118,-0.252,-2.500,-0.938,-5.188,0, -4, 0, -3, 1, 2, 0, -5
1503701508558,+0.654,+0.523,-0.288,-0.465,+0.963,-0.087,-0.240,-2.188,-0.375,-5.812,2, 6, 0, -1, -18, -1, -1, 1
1503701508574,+0.654,+0.523,-0.288,-0.464,+0.991,-0.080,-0.230,-1.375,-0.625,-3.000,0, 11, 1, -1, -10, -6, -1, 3
1503701508598,+0.655,+0.522,-0.288,-0.464,+0.985,-0.082,-0.247,+0.250,-1.812,-0.688,11, 7, -3, 4, 14, -1, -4, -2
1503701508618,+0.655,+0.522,-0.288,-0.464,+0.955,-0.097,-0.250,+1.375,-1.562,-0.938,-5, -8, -5, -8, 4, 3, 0, 2
1503701508635,+0.655,+0.522,-0.288,-0.464,+0.948,-0.107,-0.248,+0.312,-0.750,+0.000,-13, -13, 0, 2, 2, 2, -1, -4
1503701508656,+0.655,+0.523,-0.288,-0.464,+0.976,-0.101,-0.227,-1.625,+2.562,+1.625,-7, -4, -3, -2, -6, 0, -2, -6
1503701508678,+0.655,+0.523,-0.288,-0.464,+0.987,-0.103,-0.226,-1.125,+0.500,+0.875,-1, 3, -2, -3, -5, -4, -1, -4
1503701508694,+0.655,+0.522,-0.288,-0.464,+0.979,-0.099,-0.243,-1.438,-2.875,-0.312,-6, -6, -1, -3, -4, 0, 1, 4
1503701508723,+0.655,+0.522,-0.288,-0.464,+0.952,-0.118,-0.242,-3.312,+0.188,-0.875,0, -3, -1, -2, 3, -1, -1, 1
1503701508738,+0.655,+0.522,-0.288,-0.464,+0.937,-0.119,-0.243,-4.562,-0.875,-0.375,5, -3, 0, 0, 4, -1, -2, -5
1503701508754,+0.655,+0.521,-0.289,-0.465,+0.950,-0.123,-0.236,-7.250,-1.000,-4.562,2, 3, 1, -1, 1, -2, -4, -5
1503701508776,+0.654,+0.520,-0.291,-0.465,+0.976,-0.101,-0.239,-11.000,+1.812,-4.812,-4, -2, -5, -2, 1, 3, -2, 3
1503701508798,+0.655,+0.519,-0.293,-0.465,+0.967,-0.102,-0.235,-10.688,+0.000,-8.375,-4, -7, -1, -1, -1, 0, -1, -2
1503701508814,+0.656,+0.517,-0.294,-0.464,+0.930,-0.100,-0.250,-8.438,-7.938,-13.875,-1, -1, 2, -3, -3, -1, 1, 2
1503701508836,+0.658,+0.515,-0.295,-0.464,+0.940,-0.106,-0.257,-9.625,-9.500,-13.875,4, 3, 1, 0, -1, -1, 2, 3
1503701508858,+0.658,+0.513,-0.298,-0.464,+0.972,-0.097,-0.246,-12.875,+0.500,-13.562,-8, -10, -10, -1, 6, -1, 1, -9
1503701508880,+0.659,+0.511,-0.300,-0.464,+1.024,-0.062,-0.237,-15.500,-10.125,-10.938,2, 1, 2, 3, 3, 1, -2, 0
1503701508896,+0.661,+0.507,-0.301,-0.464,+0.975,-0.023,-0.253,-13.000,-14.750,-12.375,-3, -1, 8, 2, -1, -1, 0, 1
1503701508918,+0.661,+0.505,-0.303,-0.464,+0.956,-0.038,-0.260,-9.875,-6.000,-7.812,-5, 3, -1, -1, -2, 0, 1, 2
1503701508941,+0.662,+0.504,-0.304,-0.464,+0.962,-0.041,-0.275,-8.312,-5.125,-7.312,1, 3, 0, -2, 0, -2, -2, 0
1503701508956,+0.663,+0.502,-0.305,-0.464,+0.989,-0.041,-0.282,-4.438,-4.500,-5.750,5, -4, -2, -1, -1, 1, -1, -2
1503701508978,+0.664,+0.501,-0.305,-0.463,+0.958,-0.040,-0.283,-0.688,-4.375,-7.688,-1, 4, 1, -1, -2, -2, 0, -2
1503701508994,+0.665,+0.501,-0.305,-0.463,+0.940,-0.059,-0.246,-3.062,-2.438,-4.500,3, -8, -8, -1, -4, -3, 0, 0
1503701509758,+0.677,+0.480,-0.297,-0.472,+0.962,-0.021,-0.314,+2.000,-11.000,+8.250,2, -1, 3, 6, 9, 5, 6, 2
1503701509780,+0.677,+0.480,-0.295,-0.473,+0.951,-0.034,-0.328,+4.250,-5.938,+11.562,-21, -10, 7, 5, 10, 2, 4, -1
1503701509796,+0.677,+0.481,-0.292,-0.475,+0.962,-0.071,-0.336,+6.250,-8.688,+15.250,0, 4, 5, -1, -1, -2, -1, -4
1503701509819,+0.677,+0.480,-0.290,-0.476,+0.942,-0.017,-0.347,+7.562,-9.625,+9.062,-21, 28, 13, 4, 4, 1, -2, -1
1503701509840,+0.678,+0.481,-0.287,-0.476,+0.976,-0.056,-0.341,+12.312,-5.875,+14.000,19, 8, 5, 1, 7, -1, -1, -14
1503701509856,+0.679,+0.481,-0.283,-0.477,+0.904,-0.023,-0.372,+15.312,-13.250,+10.438,-5, -2, 4, 2, -5, -1, 0, 15
1503701509879,+0.679,+0.483,-0.280,-0.477,+0.948,-0.064,-0.364,+20.625,-2.562,+13.188,-16, -11, -2, 1, 1, -4, -1, -10
1503701509900,+0.680,+0.485,-0.276,-0.477,+0.949,-0.080,-0.330,+20.000,-5.625,+14.938,-7, -6, 0, -2, 6, 3, 5, 12
1503701509923,+0.679,+0.487,-0.271,-0.478,+0.975,-0.104,-0.365,+21.500,-0.812,+24.562,-8, -19, -3, -3, -11, 0, -3, -5
1503701509939,+0.678,+0.489,-0.266,-0.480,+1.018,-0.077,-0.396,+16.250,-9.500,+30.312,-9, 10, 3, 7, -8, -1, 0, 15
1503701509960,+0.678,+0.490,-0.260,-0.482,+0.982,-0.049,-0.353,+22.812,-14.062,+32.625,-5, -5, -8, -8, -13, -7, -11, -15
1503701509976,+0.678,+0.491,-0.252,-0.484,+0.945,-0.086,-0.377,+27.312,-19.625,+35.688,1, -7, 0, 8, -6, 2, 4, 8
1503701510005,+0.678,+0.493,-0.244,-0.488,+0.886,-0.166,-0.338,+25.625,-16.250,+39.000,5, 14, 4, -1, 12, 3, -2, 0
1503701510020,+0.676,+0.497,-0.237,-0.490,+0.888,-0.147,-0.340,+24.250,-5.812,+41.875,8, -6, -6, -7, -8, -5, 0, 4
