Timestamp,Orientation X,Orientation Y,Orientation Z,Orientation W,Accelerometer X,Accelerometer Y,Accelerometer Z,Gyroscope X,Gyroscope Y,Gyroscope Z,EMG1,EMG2,EMG3,EMG4,EMG5,EMG6,EMG7,EMG8,Roll,Yaw
1503694939336,-0.862,-0.504,-0.051,-0.015,+0.896,-0.092,-0.432,-4.750,-10.875,-7.500,2, 18, 18, 5, -5, -2, 1, 0,3.064023582493886,1.06089641355685
1503694939351,-0.862,-0.504,-0.049,-0.015,+0.901,-0.109,-0.402,-10.750,-5.188,-5.000,8, -6, -4, -2, 21, 2, -2, 4,3.066039642334103,1.060517036013998
1503694939374,-0.862,-0.504,-0.047,-0.015,+0.948,-0.032,-0.431,-11.500,-1.688,-4.688,-22, -10, -5, -8, -17, -7, -5, -14,3.068056317702663,1.060151760072538
1503694939396,-0.863,-0.502,-0.045,-0.016,+0.937,-0.006,-0.461,-8.688,-13.188,-6.688,13, -1, -5, -3, -2, 0, 6, 21,3.068454466026335,1.0551282487867726
1503694939418,-0.865,-0.499,-0.043,-0.016,+0.915,-0.059,-0.446,-12.000,-22.625,-5.500,-4, -10, -12, -11, -11, -1, 3, -13,3.0707236961875,1.0479816955910464
1503694939435,-0.867,-0.497,-0.041,-0.015,+0.887,-0.078,-0.462,-13.625,-18.000,-1.188,24, 10, 1, 1, -6, 5, 7, 22,3.0747540559605393,1.0434250298073264
1503694939456,-0.868,-0.495,-0.039,-0.014,+0.872,-0.078,-0.440,-14.312,-9.500,+1.375,5, -1, -6, 3, -3, -2, -3, 6,3.078566472862213,1.0383961861617494
1503694939478,-0.868,-0.495,-0.038,-0.011,+0.899,-0.080,-0.456,-16.562,-3.312,+5.562,-4, -23, -23, -8, -8, -6, -6, -18,3.0847614365101577,1.038133157361333
1503694939501,-0.868,-0.495,-0.036,-0.008,+0.925,-0.084,-0.480,-18.625,-2.938,+9.500,-8, 1, 6, 5, 19, 5, -2, 10,3.0919513562339667,1.0377455159804152
1503694939516,-0.869,-0.494,-0.035,-0.006,+0.917,-0.048,-0.488,-15.062,-5.438,+7.250,-1, 10, 4, 5, -4, -3, -1, -8,3.0965427553855545,1.0354573251900179
1503694939531,-0.870,-0.493,-0.033,-0.004,+0.896,-0.003,-0.501,-13.688,-7.312,+6.938,1, -16, 8, -4, -4, -3, 10, 9,3.1021111516255853,1.0330601525248184
1503694939554,-0.871,-0.491,-0.033,-0.002,+0.838,+0.000,-0.533,-8.250,-5.812,+12.188,16, 19, 19, 2, 2, -1, 3, 13,3.1056981113243896,1.0283271234240523
1503694939577,-0.871,-0.491,-0.033,+0.000,+0.850,-0.042,-0.510,-7.125,+1.875,+12.000,-4, -10, -19, -11, -20, -5, -8, -4,3.1091799813183756,1.0282588921302345
1503694939591,-0.870,-0.493,-0.033,+0.002,+0.870,-0.025,-0.485,-2.688,+13.938,+12.500,4, 16, 13, 7, -6, 1, -4, -10,3.112539866273844,1.0328570690923387
1503694939614,-0.869,-0.495,-0.034,+0.004,+0.898,-0.012,-0.496,+1.562,+14.062,+17.250,-9, -19, -23, -6, 9, 9, 23, 17,3.1149009259037403,1.0375762987743316
1503694939637,-0.868,-0.496,-0.035,+0.005,+0.882,+0.004,-0.491,+4.062,+10.250,+12.812,-15, 12, 16, 3, 14, 4, -4, -10,3.1155293592504782,1.039745489356265
1503694939698,-0.866,-0.498,-0.037,+0.007,+0.897,-0.056,-0.457,+5.875,+17.000,+13.812,9, 16, 11, 4, 0, 0, -5, -5,3.1167684505195856,1.0440990527135796
1503694939699,-0.865,-0.500,-0.040,+0.009,+0.914,-0.124,-0.441,+4.250,+11.562,+20.000,-14, -23, -26, -4, 4, -4, -4, -10,3.11708052861732,1.0491020542843004
1503694939700,-0.864,-0.502,-0.042,+0.011,+0.924,-0.115,-0.415,-0.312,+11.312,+13.062,1, -9, -6, -8, 8, 1, -17, -20,3.118367141559906,1.0539997585996206
1503694939718,-0.863,-0.503,-0.044,+0.013,+0.909,-0.062,-0.483,+2.500,+10.188,+15.438,-10, 1, 6, 13, 30, 5, -5, 4,3.119672737265662,1.056303665686099
1503694939735,-0.863,-0.503,-0.045,+0.015,+0.864,-0.070,-0.445,-0.250,-1.000,+13.375,-3, 18, 15, 0, -4, -5, -5, 1,3.1221286027761024,1.0563574822983646
1503694939756,-0.862,-0.504,-0.045,+0.017,+0.853,-0.102,-0.379,-5.688,+2.750,+10.250,-11, 14, 18, 5, -7, -1, -3, -7,3.125447112636952,1.058385300035251
1503694939779,-0.861,-0.506,-0.045,+0.019,+0.887,-0.082,-0.416,-7.438,+10.938,+10.188,4, -5, -8, -10, -27, -10, 2, 4,3.1287032301760394,1.0630349288870553
1503694939794,-0.861,-0.507,-0.044,+0.021,+0.875,-0.070,-0.389,-10.375,+4.938,+6.938,-12, -10, -4, 16, 35, 13, 16, 17,3.1331112067868485,1.0654303338941704
1503694939816,-0.861,-0.507,-0.042,+0.022,+0.929,-0.093,-0.374,-15.062,-4.875,+0.875,-1, 9, 7, 5, 6, 6, -2, -12,3.136873303431241,1.0651280754749128
1503694939838,-0.862,-0.505,-0.040,+0.023,+0.987,-0.118,-0.381,-17.625,-19.750,-5.188,-17, -22, -26, -13, -12, -6, -19, -13,3.1408417537552187,1.0601036872248344
1503694939854,-0.864,-0.502,-0.036,+0.023,+0.905,-0.089,-0.351,-18.750,-25.875,-8.688,3, -5, -1, -7, -9, -4, -2, -12,-3.13798183678499,1.052820210271955
1503694939876,-0.866,-0.499,-0.033,+0.023,+0.902,-0.075,-0.366,-21.375,-24.812,-6.688,10, 3, 2, 0, -5, 0, 5, 2,-3.134676336205497,1.0457113855811628
1503694939898,-0.866,-0.498,-0.030,+0.026,+0.867,-0.090,-0.425,-24.500,-11.188,+1.438,19, 14, 15, 1, -5, -4, 5, 29,-3.1263797538644433,1.0427600092174152
1503694939914,-0.867,-0.497,-0.027,+0.028,+0.880,-0.057,-0.465,-24.938,-3.500,+3.250,-4, 39, 52, 13, -2, -3, -5, -15,-3.119825401233476,1.0403916215272817
1503694939939,-0.868,-0.495,-0.024,+0.029,+0.901,-0.026,-0.513,-19.062,-10.250,-0.812,-5, -9, -14, -2, -7, -4, -3, -13,-3.114932251753924,1.035499516553628
1503694939958,-0.870,-0.491,-0.021,+0.030,+0.868,-0.076,-0.511,-15.875,-26.062,-4.812,11, 2, -1, 3, -14, -2, 1, 11,-3.10989724263851,1.02598572283936
1503694939974,-0.874,-0.485,-0.020,+0.030,+0.888,-0.136,-0.528,-15.438,-37.938,-6.812,-5, 3, 1, 2, 9, 3, 4, -2,-3.1085052204226575,1.0125049850917966
1503694939998,-0.877,-0.479,-0.018,+0.030,+0.895,-0.111,-0.562,-12.688,-40.250,-5.125,-27, -3, 4, -4, 0, 2, -2, -12,-3.1061300613850404,0.9985675334190931
1503694940018,-0.881,-0.472,-0.017,+0.030,+0.838,-0.038,-0.564,-8.938,-39.688,-4.562,4, -2, -8, 2, 6, 1, -2, -15,-3.1047195363517868,0.9827176045244926
1503694945800,-0.847,-0.510,-0.124,-0.089,+0.864,-0.132,-0.442,+6.812,-4.625,+0.125,4, -3, -7, 0, 2, 3, 0, 8,2.8590543985379484,1.101708155411558
1503694945822,-0.846,-0.510,-0.126,-0.090,+0.880,-0.120,-0.426,+8.188,+1.750,-1.750,2, -7, -9, -7, -11, -3, 3, 14,2.854663028455013,1.1024192230547527
1503694945837,-0.846,-0.510,-0.127,-0.092,+0.901,-0.105,-0.415,+13.000,+3.875,-4.250,0, -3, -3, 4, 7, -2, -3, -7,2.850411217639905,1.1031867869522827
1503694945860,-0.846,-0.509,-0.128,-0.094,+0.914,-0.115,-0.410,+13.312,-8.000,-7.750,18, 21, 11, 1, -1, 1, 2, 11,2.845819211158257,1.1013604929107734
1503694945875,-0.847,-0.507,-0.129,-0.097,+0.911,-0.117,-0.382,+8.000,-12.625,-11.250,-6, 3, 10, 3, -1, 0, 2, -12,2.840064227270507,1.0975308755526878
1503694945897,-0.847,-0.506,-0.129,-0.100,+0.894,-0.116,-0.431,+11.500,-9.062,-11.562,-4, -7, -5, -2, -4, -3, -8, -14,2.8348208331541422,1.095292879427095
1503694945921,-0.848,-0.504,-0.130,-0.103,+0.908,-0.131,-0.438,+14.562,-14.812,-13.688,-4, -4, 8, 0, 0, 1, 1, 8,2.829082249788048,1.0914960716908684
1503694945942,-0.849,-0.500,-0.131,-0.107,+0.937,-0.117,-0.416,+12.938,-24.312,-15.000,-11, -7, -18, -4, -3, -1, 0, -37,2.8209716633458943,1.082681432056363
1503694945958,-0.850,-0.499,-0.131,-0.109,+0.922,-0.110,-0.408,+8.000,-11.438,-7.625,-16, -7, -16, -6, 0, -2, -8, -24,2.818216686162972,1.08082266364888
1503694945981,-0.849,-0.499,-0.132,-0.111,+0.915,-0.060,-0.412,+9.062,+0.312,-1.812,4, -1, -5, -2, -3, -4, -4, 17,2.813140120613013,1.081170512068859
1503694946002,-0.848,-0.501,-0.133,-0.111,+0.952,-0.079,-0.404,+5.062,+13.188,+4.188,-4, -1, 0, 1, -1, 1, -1, 7,2.812090878941215,1.086432783027027
1503694946018,-0.847,-0.502,-0.135,-0.110,+0.988,-0.106,-0.410,+4.375,+1.812,+6.500,-3, 7, -3, -2, 2, 0, -1, -18,2.8112983487473726,1.0895825274467805
1503694946040,-0.849,-0.500,-0.135,-0.110,+0.964,-0.144,-0.388,+0.000,-18.062,+6.438,5, 5, 13, 6, 2, 0, 4, 11,2.8122981929772366,1.0853596904550686
1503694946062,-0.851,-0.496,-0.135,-0.110,+0.857,-0.130,-0.386,-1.562,-28.188,+0.500,8, 30, 29, 4, 3, 4, -4, -6,2.8125275361686506,1.076003050921142
1503694946077,-0.853,-0.492,-0.134,-0.112,+0.778,-0.109,-0.451,+1.250,-24.250,-9.625,-3, -24, -15, -4, 3, 1, 5, 10,2.810470097679877,1.0663581938685553
1503694946100,-0.855,-0.488,-0.134,-0.115,+0.782,-0.137,-0.478,+5.750,-18.625,-11.750,-3, -2, 0, -5, -4, -2, -8, 7,2.805852645119893,1.0574691096984452
1503694946123,-0.856,-0.487,-0.133,-0.117,+0.817,-0.134,-0.448,+1.500,-11.062,-13.312,6, -3, 2, -2, -3, -1, 2, 8,2.8040531154181543,1.055078186801331
1503694946138,-0.855,-0.487,-0.132,-0.119,+0.865,-0.088,-0.438,+1.562,+1.625,-13.875,-14, -12, -8, -1, -5, -2, 6, -31,2.800811676472367,1.0542768333603831
1503694946160,-0.854,-0.489,-0.132,-0.121,+0.946,-0.094,-0.422,+2.438,+6.750,-9.500,1, -1, -7, -3, -2, -1, -3, 2,2.7974652368879935,1.059165163874304
1503694946190,-0.853,-0.490,-0.132,-0.122,+0.998,-0.097,-0.411,-0.688,+1.250,-6.750,9, -3, -7, -2, -2, 1, 1, 18,2.795335484144129,1.0613704398222052
1503694946197,-0.854,-0.489,-0.131,-0.123,+0.986,-0.082,-0.418,-1.625,-11.812,-6.125,0, 3, 7, -2, -3, -1, 4, 18,2.7951610704046446,1.0588429788870175
1503694946220,-0.855,-0.487,-0.129,-0.125,+0.941,-0.086,-0.433,-3.000,-20.625,-6.938,12, -4, -10, -5, -1, -1, -5, -17,2.793867811472911,1.0533225559858876
1503694946243,-0.857,-0.484,-0.128,-0.126,+0.864,-0.083,-0.459,-1.375,-20.938,-5.375,-3, 3, 1, 3, 5, -5, -7, 2,2.793772041040712,1.0462051228946656
1503694946258,-0.858,-0.482,-0.128,-0.126,+0.846,-0.080,-0.456,-3.625,-10.688,-1.688,-17, -3, 2, 0, -1, 1, -1, -15,2.7938688698602734,1.0416060843529509
1503694946283,-0.858,-0.482,-0.127,-0.126,+0.873,-0.079,-0.474,-1.062,-3.188,+1.250,-10, -12, -11, -3, -7, 1, 4, -19,2.794778545668288,1.0410361077355517
1503694946303,-0.858,-0.481,-0.127,-0.126,+0.918,-0.087,-0.467,-1.688,-3.062,+2.062,9, -1, -3, 3, 1, -2, -2, 19,2.7943604262408424,1.0384944546477788
1503694946318,-0.859,-0.480,-0.127,-0.126,+0.911,-0.083,-0.468,-0.750,-8.375,+0.500,6, 24, 6, 1, 0, 0, 4, 21,2.7948790035939637,1.0364452773319095
1503694946340,-0.860,-0.478,-0.127,-0.126,+0.903,-0.106,-0.453,-2.500,-14.562,+0.062,-2, -3, 2, -4, -5, -2, -5, -41,2.794986383625277,1.0318625722902812
1503694946357,-0.861,-0.477,-0.126,-0.126,+0.893,-0.104,-0.462,-3.688,-13.938,+1.500,1, -10, -5, -4, -4, 1, 9, 12,2.7964109812352347,1.0292550934065265
1503694946378,-0.862,-0.475,-0.126,-0.126,+0.875,-0.091,-0.473,-5.250,-12.625,+3.188,-13, -3, 1, 2, -1, -7, -17, -24,2.796526082053517,1.0246855450375614
1503694946400,-0.863,-0.473,-0.125,-0.125,+0.858,-0.086,-0.471,-6.125,-9.562,+3.188,7, 6, 4, 2, 3, 1, -7, 12,2.7991759645149292,1.0194302230819425
1503694946417,-0.864,-0.473,-0.124,-0.124,+0.881,-0.096,-0.483,-7.375,-6.062,+5.250,1, 9, 12, 1, 2, -2, -4, -9,2.8026286793399784,1.0192398996986587
1503694946438,-0.864,-0.472,-0.124,-0.123,+0.898,-0.080,-0.518,-5.625,-4.250,+6.562,5, -16, -5, 0, -1, 1, -2, 6,2.8038703167480445,1.0165816026716132
1503694946460,-0.865,-0.470,-0.123,-0.122,+0.896,-0.072,-0.524,-4.750,-9.688,+6.000,-2, -10, -7, -1, 0, 3, 8, 10,2.806540024938887,1.0113471091667252
1503694946476,-0.866,-0.469,-0.123,-0.121,+0.882,-0.086,-0.505,-4.062,-9.250,+7.812,5, 3, -2, -1, 0, 1, 8, 7,2.8087105574434,1.0091935125902411
1503694946497,-0.867,-0.468,-0.124,-0.119,+0.870,-0.105,-0.513,-2.562,-6.500,+10.125,15, 28, 22, 7, 3, 0, 5, 15,2.8116419148667253,1.0074571609771643
1503694946520,-0.868,-0.467,-0.124,-0.118,+0.860,-0.094,-0.509,-2.125,-1.062,+12.188,-9, -16, -13, -2, -3, -1, 8, -10,2.8138207264003534,1.0053053878882712
1503694946536,-0.868,-0.467,-0.125,-0.116,+0.854,-0.092,-0.515,-1.750,+3.750,+14.375,-6, 0, 2, -4, -5, -1, -10, 4,2.816235103660437,1.005585985781432
1503694946559,-0.867,-0.468,-0.126,-0.113,+0.849,-0.106,-0.485,-3.312,+6.750,+15.125,1, 2, -1, -3, -3, -4, -5, 7,2.8197758182307977,1.0077513650604708
1503694946580,-0.867,-0.469,-0.128,-0.110,+0.880,-0.121,-0.480,-3.562,+9.000,+16.562,-7, -3, 4, 1, 1, -2, -2, 4,2.823308823972685,1.010974739760794
1503694954407,-0.847,-0.507,-0.122,-0.103,+0.949,-0.080,-0.404,-1.812,-14.188,-10.062,6, 5, 2, -1, -2, -1, 1, 1,2.837120847285021,1.0944351264906476
1503694954425,-0.848,-0.505,-0.121,-0.105,+0.952,-0.084,-0.412,+2.875,-15.875,-12.188,-16, -2, -4, -7, -4, -2, -6, -6,2.8349083790423535,1.089417637504439
1503694954447,-0.850,-0.502,-0.120,-0.107,+0.984,-0.091,-0.394,-1.125,-28.750,-9.312,4, -2, 1, 1, 1, 2, 1, 6,2.8331352600046453,1.08230203342788
1503694954463,-0.852,-0.498,-0.119,-0.108,+0.981,-0.093,-0.398,-7.625,-31.375,-1.750,4, -1, -2, 1, -2, -1, -2, 3,2.8326029922936193,1.0725245548501727
1503694954485,-0.854,-0.495,-0.117,-0.108,+0.871,-0.069,-0.428,-7.062,-24.562,-0.562,2, 1, 4, -2, -12, -4, -1, 7,2.8350331856689626,1.0647234382517434
1503694954508,-0.856,-0.491,-0.116,-0.108,+0.860,-0.067,-0.443,-4.625,-24.938,-0.750,-3, 4, 0, -2, -5, 2, 0, -5,2.8361406962540094,1.0549044973296366
1503694954523,-0.858,-0.489,-0.115,-0.107,+0.903,-0.101,-0.430,-10.375,-20.875,+5.125,9, 2, 3, 2, -2, 0, 1, 0,2.8396387877961247,1.0501279218653004
1503694954545,-0.859,-0.487,-0.114,-0.105,+0.910,-0.104,-0.434,-14.125,-11.500,+10.438,14, 6, -4, -1, 4, 0, -1, 9,2.843971283107759,1.0447618088132529
1503694954567,-0.861,-0.486,-0.113,-0.102,+0.915,-0.084,-0.453,-14.062,-9.312,+12.125,-9, -2, 5, -1, 0, 0, -1, -2,2.8511257903524063,1.0423436747698962
1503694954583,-0.862,-0.484,-0.111,-0.099,+0.922,-0.091,-0.458,-15.625,-14.250,+13.062,-13, -5, -4, -1, 1, -3, -1, -6,2.8580891635998213,1.036400355880745
1503694954607,-0.864,-0.481,-0.109,-0.097,+0.879,-0.086,-0.473,-17.938,-22.250,+11.500,-8, -2, -6, -2, 2, 0, 3, 5,2.863861070636374,1.0285433601798208
1503694954627,-0.867,-0.478,-0.107,-0.094,+0.811,-0.081,-0.472,-19.125,-20.688,+9.125,7, -2, -3, 2, 0, 2, -1, 0,2.872072035213421,1.0211154619214662
1503694954643,-0.868,-0.477,-0.105,-0.092,+0.769,-0.080,-0.499,-18.312,-6.375,+8.438,-1, -4, -2, -2, 2, 0, -1, -1,2.8777186408575313,1.017926809813342
1503694954665,-0.868,-0.477,-0.103,-0.089,+0.789,-0.087,-0.515,-16.250,+4.938,+7.438,10, -1, -2, -2, -3, -3, 1, 6,2.88462594905858,1.0166952339096593
1503694954688,-0.868,-0.478,-0.102,-0.087,+0.841,-0.092,-0.531,-15.125,+13.625,+6.000,-11, -3, 1, 2, -2, -4, -4, -7,2.889216118499752,1.0185843563757888
1503694954703,-0.867,-0.480,-0.101,-0.086,+0.865,-0.083,-0.528,-10.062,+13.375,+4.000,3, -10, -8, -2, 2, 0, 0, -7,2.8917007952179117,1.0226396631508563
1503694954726,-0.867,-0.480,-0.100,-0.085,+0.868,-0.079,-0.493,-5.875,+3.688,-1.375,-17, 1, 4, 0, -5, -2, -3, -28,2.894325758700582,1.022100250414902
1503694954748,-0.867,-0.480,-0.099,-0.086,+0.875,-0.092,-0.493,-5.312,-2.062,-5.438,1, 5, -3, -2, 0, 1, 2, 4,2.8935712353317387,1.0217738680692912
1503694954763,-0.868,-0.480,-0.098,-0.087,+0.851,-0.087,-0.500,-2.000,-0.375,-7.688,-6, -2, 6, 1, 1, -1, -2, -10,2.89350396147844,1.021951859526181
1503694954786,-0.867,-0.480,-0.098,-0.088,+0.820,-0.086,-0.499,+1.062,+2.062,-8.188,2, -10, -14, -5, 0, 0, -1, 1,2.891128329309683,1.0215517071781308
1503694954801,-0.867,-0.481,-0.098,-0.089,+0.840,-0.079,-0.506,+0.875,+11.375,-7.625,1, -5, -5, -3, -3, -1, 2, 2,2.88973153501255,1.0242072814572154
1503694954823,-0.865,-0.484,-0.098,-0.091,+0.865,-0.037,-0.515,+6.250,+25.625,-5.625,-16, -4, 7, 2, -1, -2, -8, -17,2.885862344166413,1.0310766829291407
1503694954846,-0.863,-0.487,-0.100,-0.093,+0.917,-0.061,-0.512,+14.812,+18.938,-6.062,20, 9, -5, -3, 0, -1, 3, 12,2.8801338281583924,1.0388365809799713
1503694954867,-0.862,-0.488,-0.101,-0.095,+1.013,-0.087,-0.433,+11.125,-0.438,-6.688,-2, 15, 12, 1, -1, -2, 1, -9,2.875447170714775,1.0415517025010477
1503694954883,-0.863,-0.486,-0.102,-0.096,+1.014,-0.090,-0.405,+5.562,-19.125,-5.938,6, -8, -9, -3, -1, -1, -5, 16,2.8729275814098405,1.037475201923776
1503694954909,-0.864,-0.483,-0.102,-0.098,+0.957,-0.075,-0.394,+2.812,-28.750,-5.375,12, 10, 9, 4, 8, 2, 2, 14,2.8693606942103047,1.030510712333716
1503694954927,-0.866,-0.480,-0.101,-0.098,+0.869,-0.076,-0.436,-1.625,-21.875,+0.688,-22, -4, -2, 0, -3, -3, -5, -30,2.8708085838693345,1.0234050215749837
1503694954945,-0.867,-0.478,-0.101,-0.097,+0.858,-0.083,-0.423,-8.812,-15.188,+5.438,-2, 3, 2, 0, 0, 2, -3, 9,2.8725887349218313,1.0187059968133263
1503694954966,-0.868,-0.478,-0.099,-0.095,+0.902,-0.074,-0.434,-14.125,-8.438,+10.438,-3, 0, -2, -3, -1, -1, -3, 3,2.87852529249656,1.0181133196126557
1503694954988,-0.868,-0.477,-0.098,-0.092,+0.901,-0.079,-0.449,-14.688,-6.562,+13.500,-2, -2, -2, 0, -1, -2, -1, -1,2.884200062153615,1.0148198300983162
1503694955003,-0.869,-0.477,-0.097,-0.088,+0.906,-0.088,-0.448,-17.750,-7.312,+13.188,0, 5, 9, 3, -2, 0, 0, 7,2.8925847958214606,1.0144841737558634
1503694955026,-0.870,-0.475,-0.095,-0.085,+0.896,-0.084,-0.467,-19.438,-12.938,+12.062,-1, -8, -7, -2, -1, 1, 3, 4,2.899651789016704,1.0087535941904748
1503694955048,-0.872,-0.473,-0.093,-0.083,+0.865,-0.079,-0.496,-18.875,-16.562,+10.000,1, -8, -11, -7, -8, 0, 3, -1,2.905700278555189,1.0036642012733827
1503694955064,-0.875,-0.469,-0.091,-0.081,+0.832,-0.072,-0.519,-16.562,-22.812,+6.375,6, 3, 0, 1, 3, 1, 1, -1,2.9118713455395784,0.9940457626120144
1503694955086,-0.877,-0.466,-0.089,-0.079,+0.833,-0.076,-0.544,-16.188,-23.625,+4.438,2, 0, 3, 0, -2, 0, 0, 12,2.917651337370574,0.9864982447361402
1503694955110,-0.879,-0.462,-0.087,-0.078,+0.802,-0.075,-0.546,-13.750,-22.500,+2.125,8, 15, 5, 0, 1, 0, 1, -3,2.9214791094511456,0.9765637927042309
1503694955123,-0.881,-0.459,-0.085,-0.078,+0.800,-0.077,-0.551,-13.438,-16.688,+1.625,-1, 1, 2, 6, 4, -1, -7, -1,2.923812757053469,0.9692936545693513
1503694955146,-0.882,-0.457,-0.083,-0.076,+0.806,-0.069,-0.568,-11.500,-8.562,+2.688,3, -5, -6, -7, -17, -4, 0, -1,2.92921413574243,0.9638598431432215
1503694955168,-0.883,-0.456,-0.082,-0.076,+0.842,-0.062,-0.567,-7.562,-5.562,+2.688,3, 10, 17, 6, -1, -1, -2, 3,2.930481813977216,0.9615096878858346
1503694955183,-0.884,-0.455,-0.082,-0.075,+0.870,-0.073,-0.559,-4.375,-10.062,+1.312,-4, -16, -17, -7, 1, -2, -6, -3,2.9325837801209027,0.9594264154409428
1503694955206,-0.885,-0.453,-0.081,-0.075,+0.877,-0.073,-0.553,-4.125,-14.188,+1.750,-7, -5, -7, -1, 4, -2, 0, -26,2.9336263738965567,0.9545771126262554
1503694955228,-0.886,-0.450,-0.081,-0.075,+0.839,-0.063,-0.563,-2.688,-14.375,+2.562,-13, -18, -2, 0, 2, 1, 0, -13,2.9335675883256744,0.94758564502346
1503694955245,-0.887,-0.449,-0.081,-0.075,+0.832,-0.060,-0.565,-0.688,-7.812,+4.062,1, -1, -15, -4, 0, -3, -1, 8,2.9339410189182145,0.945610239452918
1503694955272,-0.887,-0.448,-0.082,-0.074,+0.829,-0.070,-0.564,+2.188,-0.812,+7.812,4, -12, -11, -7, -5, -2, 0, 7,2.9345912840042927,0.9433661315328594
1503694955288,-0.887,-0.449,-0.083,-0.072,+0.855,-0.077,-0.541,+2.625,+1.688,+9.875,8, 19, 21, 9, 3, 0, 1, 10,2.9374000575796324,0.9460276291686617
1503694962651,-0.910,-0.415,+0.005,+0.011,+0.770,-0.001,-0.629,-1.188,-4.625,+0.500,15, 12, 14, 5, 3, 4, 8, 1,-3.117443049690163,0.8560926118612123
1503694962667,-0.910,-0.415,+0.005,+0.012,+0.763,-0.003,-0.615,-0.562,+0.000,+1.875,2, 0, 0, 1, 2, 2, -5, 4,-3.1156253742661355,0.8560991646852015
1503694962689,-0.910,-0.415,+0.005,+0.012,+0.787,+0.005,-0.604,-1.062,+2.125,+1.562,8, 3, 4, 2, 0, 1, 4, 10,-3.1156253742661355,0.8560991646852015
1503694962711,-0.909,-0.416,+0.005,+0.012,+0.812,+0.001,-0.600,-0.125,+0.562,+2.125,-14, -8, -3, -4, -2, -3, -3, -10,-3.1155880270609573,0.8580023110116969
1503694962727,-0.909,-0.416,+0.004,+0.012,+0.817,+0.004,-0.620,-0.375,-3.688,-0.312,-6, -4, -8, -3, 0, 0, -1, 18,-3.1164205863421,0.8579729933182012
1503694962749,-0.910,-0.415,+0.004,+0.012,+0.791,-0.005,-0.609,-0.062,-7.062,-0.125,-4, -5, -7, -6, 0, -1, -2, -8,-3.1164542935932578,0.856069844897358
1503694962772,-0.910,-0.414,+0.004,+0.012,+0.786,+0.030,-0.636,+2.125,-4.125,+0.875,2, 4, 6, 1, -11, 1, 0, 10,-3.116420592753,0.8536244557976793
1503694962787,-0.910,-0.415,+0.003,+0.011,+0.783,+0.056,-0.682,+6.562,+10.188,+2.000,-3, -7, -7, -2, -1, 0, 1, 1,-3.1191010689693908,0.8560396132903869
1503694962809,-0.908,-0.419,+0.001,+0.012,+0.746,+0.042,-0.699,+10.125,+28.875,+10.750,1, 0, -1, 1, 1, -1, 4, 3,-3.118967646336026,0.8647119830752271
1503694962832,-0.905,-0.424,-0.002,+0.013,+0.722,+0.025,-0.659,+12.062,+44.250,+17.812,15, 10, 1, -5, -4, 0, 2, 6,-3.119709663472095,0.8753278925833817
1503694962847,-0.901,-0.433,-0.005,+0.015,+0.771,+0.023,-0.624,+18.188,+58.188,+19.062,-13, -28, -18, -3, 2, -1, -1, -6,-3.118864288223607,0.8953685599034038
1503694962869,-0.897,-0.442,-0.010,+0.016,+0.870,-0.008,-0.598,+21.688,+60.500,+21.938,-4, -1, 0, 5, 13, -2, -5, -17,-3.121730193316381,0.9156096397614439
1503694962891,-0.892,-0.452,-0.015,+0.017,+0.901,-0.002,-0.648,+26.812,+62.875,+21.875,-20, -10, -1, -1, -2, -1, -3, -19,-3.124825151935244,0.9380640614159016
1503694962907,-0.888,-0.459,-0.022,+0.018,+0.795,-0.020,-0.620,+36.875,+56.938,+22.500,4, 6, 6, 1, 1, 0, -1, -1,-3.129802924942425,0.9538382121622753
1503694962931,-0.883,-0.469,-0.031,+0.020,+0.918,-0.033,-0.497,+38.500,+57.812,+36.062,-15, -6, -5, -2, -2, -3, -5, -31,-3.135346362365759,0.9771118303787066
1503694962951,-0.880,-0.474,-0.039,+0.022,+0.869,-0.071,-0.541,+40.062,+34.562,+30.188,-6, 3, 3, 1, 0, 0, -5, -15,-3.139841419095383,0.9889810465939223
1503694962968,-0.876,-0.480,-0.047,+0.022,+0.842,-0.121,-0.475,+43.375,+44.875,+21.562,23, 6, 1, -2, -7, 1, 5, 18,3.134987368920352,1.0032685764352172
1503694962990,-0.873,-0.484,-0.056,+0.022,+0.861,-0.129,-0.488,+40.875,+25.250,+24.938,3, -3, -6, -4, -1, 0, -2, 9,3.125682959274995,1.0134003998324004
1503694963012,-0.872,-0.485,-0.063,+0.021,+0.807,-0.165,-0.469,+39.062,+6.250,+10.562,8, 0, -6, -2, -3, -1, -5, 26,3.1168947353898644,1.0168020448351274
1503694963027,-0.872,-0.485,-0.070,+0.018,+0.779,-0.177,-0.427,+38.688,-1.188,-1.438,-16, -11, -11, -2, -2, -3, -2, -1,3.1047778408627438,1.0184674542699816
1503694963049,-0.871,-0.485,-0.075,+0.014,+0.758,-0.180,-0.418,+34.625,+4.125,-8.750,-8, 1, 0, -3, 0, -1, -4, 6,3.092669050102167,1.0194234184443793
1503694963072,-0.870,-0.486,-0.078,+0.009,+0.779,-0.192,-0.403,+28.500,+4.000,-15.312,-3, 0, -2, 5, 4, -3, -2, -11,3.0806698749863957,1.0226627185986636
1503694963087,-0.869,-0.489,-0.081,+0.005,+0.812,-0.184,-0.386,+21.438,+12.250,-20.625,7, 1, 0, 0, 2, 1, -2, -3,3.0703694421671055,1.0310761527975085
1503694963110,-0.867,-0.491,-0.081,+0.000,+0.874,-0.176,-0.362,+13.625,+8.125,-24.688,10, 0, -5, -5, -9, -2, 1, -9,3.061058163877903,1.0356793889022793
1503694963133,-0.866,-0.494,-0.081,-0.003,+1.040,-0.200,-0.328,+0.438,+0.688,-22.562,9, -5, -1, 0, 1, 1, 5, 28,3.0555451484167895,1.0432294058753657
1503694963148,-0.867,-0.493,-0.079,-0.005,+1.026,-0.207,-0.369,-8.750,-17.188,-18.438,-6, 5, 3, -6, -11, -3, -2, 5,3.0543301354597294,1.0407276532114957
1503694963170,-0.869,-0.489,-0.074,-0.007,+0.916,-0.147,-0.354,-20.250,-40.938,-23.750,-5, -1, -3, -4, -5, 1, 4, 1,3.0562842419652165,1.0301563326215355
1503694963192,-0.874,-0.481,-0.067,-0.011,+0.862,-0.098,-0.421,-28.312,-57.312,-33.438,-1, -14, -12, -5, 0, -4, -9, -29,3.057305998508303,1.0105882015429966
1503694963214,-0.880,-0.471,-0.060,-0.015,+0.802,-0.090,-0.466,-30.812,-67.500,-38.000,-3, 2, 5, 0, -2, 1, 8, 6,3.0582381253537387,0.9867390966971077
1503694963230,-0.885,-0.463,-0.052,-0.017,+0.740,-0.079,-0.475,-36.500,-57.000,-34.875,7, -16, -9, -3, 3, 3, 10, 32,3.0631337226074393,0.9674965276122452
1503694963251,-0.887,-0.459,-0.044,-0.019,+0.791,-0.041,-0.522,-40.188,-28.438,-26.250,0, -2, 0, 1, 2, 0, -2, -2,3.0672520683476447,0.9571076554556995
1503694963268,-0.888,-0.458,-0.036,-0.019,+0.881,+0.013,-0.601,-35.188,-9.938,-17.875,2, 3, -1, 1, -1, 2, 0, -6,3.07474585295747,0.9538891490354853
1503694963290,-0.890,-0.455,-0.030,-0.019,+0.920,+0.025,-0.622,-29.938,-20.188,-12.188,-16, 1, 3, 5, 3, -1, -1, -6,3.080441843153767,0.9466099128047412
1503694963319,-0.893,-0.450,-0.024,-0.019,+0.969,-0.005,-0.553,-30.938,-38.375,-14.062,-1, -2, 1, 4, 19, 1, -8, -16,3.086109989973862,0.9349838787937748
1503694963328,-0.896,-0.444,-0.019,-0.020,+0.895,+0.035,-0.585,-24.062,-39.750,-11.688,0, 8, 7, -9, -21, -5, -3, -9,3.0889243466088683,0.9211360965803355
1503694972656,-0.911,-0.401,-0.018,+0.090,+0.774,-0.105,-0.648,-6.375,-13.438,+0.188,-10, -3, -4, 0, -2, -6, -3, -6,-2.9903842953823574,0.8207054330923467
1503694972672,-0.912,-0.399,-0.017,+0.090,+0.736,-0.107,-0.630,-8.625,-14.688,-1.188,4, 8, 9, 4, 2, -1, 4, 1,-2.9894069798532086,0.8164722305359008
1503694972694,-0.913,-0.397,-0.016,+0.091,+0.726,-0.103,-0.650,-10.750,-12.312,+0.312,-3, 2, 2, 1, 3, 1, -1, 1,-2.986626840747508,0.8122284842792037
1503694972716,-0.914,-0.395,-0.015,+0.092,+0.759,-0.104,-0.660,-10.750,-10.688,+1.875,4, 4, 3, -1, -3, -1, -3, -1,-2.983858873671354,0.8079988070221569
1503694972734,-0.915,-0.393,-0.013,+0.092,+0.762,-0.082,-0.655,-12.250,-12.438,+0.750,0, -5, -1, -1, 1, 1, 3, -2,-2.9821379869988216,0.8038918652086223
1503694972754,-0.916,-0.390,-0.012,+0.093,+0.739,-0.068,-0.678,-9.000,-13.938,-1.125,3, -2, 4, 0, -1, -2, -1, 2,-2.979122136568884,0.7972859934342394
1503694972776,-0.917,-0.388,-0.011,+0.092,+0.750,-0.080,-0.682,-5.625,-14.062,-2.625,3, -4, -4, 0, -1, 0, -3, 0,-2.980028674231686,0.7931367576221707
1503694972793,-0.918,-0.386,-0.010,+0.092,+0.721,-0.096,-0.667,-6.438,-12.438,-2.188,-1, -1, -2, -8, -5, -2, -1, 1,-2.9791309461870767,0.7889816853670587
1503694972814,-0.918,-0.385,-0.010,+0.092,+0.709,-0.074,-0.693,-5.062,-6.812,-0.938,-4, 3, 0, -3, -6, -1, -3, -2,-2.9788604536445424,0.7865839307862041
1503694972837,-0.919,-0.383,-0.009,+0.092,+0.710,-0.068,-0.679,-2.875,-6.750,-2.125,1, 5, 3, 1, 5, -1, -3, -3,-2.9779773562276257,0.7824437965786232
1503694972852,-0.919,-0.382,-0.009,+0.092,+0.702,-0.073,-0.673,-2.688,-4.625,-2.625,-6, 10, 7, 1, -3, -1, -1, 1,-2.9777088480874307,0.7800519116611282
1503694972875,-0.920,-0.382,-0.009,+0.092,+0.743,-0.106,-0.668,-2.312,-3.938,-2.062,-2, -8, -10, -1, 0, 1, 0, -1,-2.978128242818738,0.780596942283694
1503694972896,-0.920,-0.381,-0.008,+0.091,+0.766,-0.102,-0.670,-3.938,-7.062,-4.188,2, -5, 0, 1, 0, -2, -1, 1,-2.978928758380853,0.7783258524312541
1503694972912,-0.921,-0.379,-0.007,+0.090,+0.715,-0.072,-0.682,-4.812,-9.938,-7.188,4, 4, 1, 1, 3, 2, 6, 3,-2.9798943665526045,0.7742157660824224
1503694972935,-0.922,-0.378,-0.007,+0.089,+0.678,-0.066,-0.680,-3.438,-8.812,-9.188,-3, 5, 8, 3, 13, 0, 0, 0,-2.981875205325059,0.7723853936284445
1503694972956,-0.922,-0.377,-0.006,+0.088,+0.693,-0.087,-0.700,-3.375,-1.875,-9.500,2, -1, 4, 1, -2, -3, -2, -5,-2.9826998474319173,0.7701220291582306
1503694972973,-0.922,-0.377,-0.005,+0.086,+0.692,-0.063,-0.694,-2.875,-0.812,-12.375,-4, -10, -12, -5, -7, -3, 1, -1,-2.9856069946906247,0.7702477645501317
1503694972994,-0.923,-0.376,-0.004,+0.083,+0.683,-0.053,-0.682,-0.938,+0.938,-15.250,-3, 3, 2, -5, -16, -1, 1, 1,-2.9905043062256293,0.7685394242334295
1503694973016,-0.922,-0.378,-0.003,+0.081,+0.725,-0.052,-0.709,+1.438,+8.438,-13.688,-2, -9, -10, -3, -4, -1, -2, 2,-2.993490800742495,0.7728750720289302
1503694973036,-0.922,-0.379,-0.002,+0.079,+0.768,-0.038,-0.688,+2.625,+7.938,-10.875,5, 5, 8, 7, 5, 2, 1, 2,-2.996624598437697,0.7753720692656395
1503694973054,-0.922,-0.380,-0.003,+0.077,+0.764,-0.029,-0.675,+5.438,+5.750,-8.438,-3, -9, -2, 0, 4, 0, -6, -7,-3.0012548224933857,0.7776587044859203
1503694973078,-0.921,-0.381,-0.003,+0.075,+0.759,-0.053,-0.657,+5.375,+3.312,-6.500,3, 8, -2, -1, 1, 0, 3, 3,-3.0047720146123504,0.779510258833819
1503694973092,-0.921,-0.382,-0.004,+0.074,+0.766,-0.071,-0.657,+4.562,-1.625,-5.625,-1, -3, -3, 0, 1, 3, 0, 0,-3.007575392135451,0.7818068377393415
1503694973114,-0.921,-0.382,-0.004,+0.073,+0.756,-0.084,-0.644,+1.188,-3.125,-4.000,-1, 10, 28, 8, 4, -2, 0, 1,-3.0094063177240726,0.7818125270400272
1503694973136,-0.922,-0.381,-0.004,+0.073,+0.736,-0.084,-0.651,-2.875,-5.062,-4.125,-8, -16, -15, -4, 4, 0, -3, -12,-3.0095384600267217,0.7799675998909208
1503694973152,-0.922,-0.380,-0.003,+0.073,+0.740,-0.069,-0.667,-6.812,-5.938,-4.000,-7, -8, -5, 2, 2, -1, -1, -1,-3.0085746060503755,0.7776758386850557
1503694973174,-0.922,-0.380,-0.002,+0.073,+0.791,-0.078,-0.665,-8.312,-8.875,-3.875,2, 12, 7, 3, 8, 0, 3, 4,-3.0078197218915874,0.7777730295913905
1503694973196,-0.923,-0.378,-0.000,+0.073,+0.785,-0.062,-0.662,-10.688,-11.375,-2.125,3, 7, 0, -7, -19, -3, -5, -5,-3.00625442333596,0.773752962433015
1503694973213,-0.924,-0.376,+0.001,+0.073,+0.736,-0.042,-0.665,-13.062,-16.375,-1.062,-1, -6, -8, -3, -4, -2, 4, 3,-3.0054557565869673,0.7696429385161919
1503694973236,-0.925,-0.373,+0.003,+0.075,+0.731,-0.036,-0.686,-14.375,-16.000,+2.000,5, -4, -9, -4, -1, 1, 2, 6,-3.0000623458900404,0.7632919581439032
1503694973256,-0.926,-0.370,+0.005,+0.076,+0.719,-0.013,-0.719,-12.750,-17.562,+2.500,6, 15, 13, 3, 1, -2, 3, 0,-2.9965236734742247,0.7569739970002868
1503694973280,-0.927,-0.367,+0.006,+0.077,+0.692,-0.027,-0.697,-11.750,-17.812,+2.812,-8, -22, -17, -6, -1, -1, -4, -4,-2.9937356621128073,0.7505597407595738
1503694973294,-0.928,-0.365,+0.008,+0.078,+0.697,-0.042,-0.710,-10.938,-14.688,+4.688,3, 4, -1, -1, 3, 0, -4, -3,-2.9904431891488663,0.7466571202664934
1503694973316,-0.929,-0.362,+0.009,+0.079,+0.715,-0.034,-0.715,-10.562,-12.750,+4.625,-1, -4, -7, -2, 2, -1, -4, -2,-2.9876862556923354,0.7402853975896125
1503694973346,-0.929,-0.360,+0.010,+0.080,+0.709,-0.007,-0.722,-9.125,-14.125,+3.625,5, 0, 0, -5, -2, -1, 5, 14,-2.984724254177371,0.7357465712112276
1503694973355,-0.930,-0.357,+0.010,+0.081,+0.688,-0.007,-0.745,-6.000,-13.938,+4.188,13, 5, 8, 4, -2, -2, 1, 17,-2.9826915168764407,0.729264612158762
1503694973377,-0.931,-0.356,+0.010,+0.082,+0.677,-0.030,-0.719,-3.375,-10.375,+5.812,-13, -7, -3, -4, -1, -3, -7, -30,-2.98107581983426,0.7274720554563127
1503694973392,-0.931,-0.354,+0.010,+0.083,+0.681,-0.037,-0.727,-2.938,-6.938,+6.750,-1, 6, 4, 2, 4, 1, 2, 11,-2.978817314063526,0.7228122744552403
1503694973415,-0.932,-0.354,+0.010,+0.084,+0.702,-0.025,-0.728,-2.188,-6.125,+6.312,-15, 13, 6, -1, -4, -5, -6, -13,-2.9774198521510606,0.7233585422016956
1503694973439,-0.932,-0.352,+0.010,+0.085,+0.700,-0.032,-0.724,-1.562,-8.625,+6.062,-2, -9, -5, 0, -1, -1, -1, -1,-2.9751562486213197,0.7187057144035055
1503694973452,-0.932,-0.351,+0.009,+0.086,+0.694,-0.041,-0.710,-1.938,-8.000,+7.125,-1, -5, 5, 2, -2, -2, 2, -1,-2.9737939137130174,0.7162348318151783
1503694973475,-0.933,-0.350,+0.009,+0.088,+0.696,-0.035,-0.722,-2.062,-7.000,+7.312,3, -15, -14, -6, -3, 2, 7, 5,-2.970353399183746,0.7144620911436953
1503694973497,-0.933,-0.349,+0.008,+0.089,+0.711,-0.018,-0.738,+0.062,-7.125,+8.562,4, 13, 6, 1, -2, -2, -4, -12,-2.968981214551223,0.7119907051486966
1503694973519,-0.933,-0.348,+0.007,+0.089,+0.703,-0.026,-0.753,+4.000,-8.562,+7.312,-25, -20, -9, -2, 0, 0, -2, -20,-2.969444162000081,0.7095096781315807
1503694973535,-0.934,-0.347,+0.005,+0.090,+0.664,-0.043,-0.748,+6.875,-8.125,+5.500,7, -17, -3, -5, -2, -2, -9, -2,-2.9692112898807075,0.7074186927613499
1503694973557,-0.934,-0.345,+0.004,+0.090,+0.641,-0.045,-0.744,+8.125,-5.875,+4.312,-2, 24, 18, 6, 1, 2, 1, 35,-2.9694365364689927,0.7026240666280031
1503694973574,-0.934,-0.345,+0.001,+0.090,+0.666,-0.055,-0.750,+10.688,-1.312,+5.562,-9, -15, -21, -3, -1, -1, -10, -10,-2.9714817573142502,0.702191741095432
1503694973595,-0.934,-0.346,-0.001,+0.090,+0.685,-0.058,-0.741,+12.188,+2.812,+4.438,-7, -5, -10, -5, -5, 1, 11, 4,-2.973080514243184,0.704239749019891
1503694973617,-0.934,-0.347,-0.004,+0.089,+0.708,-0.077,-0.737,+15.312,+5.875,+1.125,-5, -13, -2, -1, -1, -1, 0, -22,-2.9772131490686533,0.7061790422514234
1503694973640,-0.933,-0.349,-0.008,+0.088,+0.699,-0.109,-0.756,+21.312,+5.438,+1.562,-6, -7, -6, -5, -4, -3, 1, 7,-2.981856952823382,0.7098404765769397
1503694973655,-0.933,-0.350,-0.011,+0.087,+0.688,-0.121,-0.745,+21.875,+7.625,-2.375,6, 11, 5, 2, 3, 3, 6, -9,-2.986018826344603,0.7118637617713456
1503694973677,-0.932,-0.352,-0.014,+0.084,+0.682,-0.116,-0.738,+19.188,+10.312,-7.938,-20, -2, -6, -3, -1, 0, -5, -30,-2.9937338218100655,0.7157715147926589
1503694973699,-0.931,-0.355,-0.018,+0.082,+0.696,-0.139,-0.733,+21.125,+15.438,-8.938,1, 8, 1, 1, 2, 0, 2, 8,-3.0005826681676977,0.7219807271108394
1503694973715,-0.930,-0.359,-0.021,+0.079,+0.701,-0.133,-0.741,+20.625,+27.750,-12.062,0, 7, 7, 2, 3, 1, -10, -29,-3.008855011900882,0.73072571096472
1503694973737,-0.927,-0.366,-0.023,+0.075,+0.705,-0.117,-0.715,+21.812,+39.250,-14.875,-11, 11, 26, 7, 3, 1, 2, -5,-3.0183428675483945,0.7456536175173765
1503694973759,-0.926,-0.370,-0.025,+0.073,+0.782,-0.133,-0.730,+15.562,+24.375,-8.750,-5, -16, -17, -6, -4, -7, -11, -20,-3.0241125949542806,0.7545805027603842
1503694973775,-0.924,-0.374,-0.027,+0.070,+0.814,-0.094,-0.660,+16.750,+18.250,-9.812,5, 10, 12, 5, 0, 0, -4, 13,-3.0314721809663374,0.7630587932051048
1503694980404,-0.858,-0.501,-0.109,+0.031,+0.917,-0.112,-0.450,+0.812,+0.250,+10.812,0, -8, -9, -2, -12, 0, -1, -1,3.084157918322152,1.0633660085513668
1503694980419,-0.859,-0.498,-0.110,+0.033,+0.927,-0.154,-0.451,-3.688,-18.750,+16.375,1, -3, -6, -7, -2, -1, -1, 1,3.087244465031735,1.0560628978993796
1503694980441,-0.861,-0.496,-0.110,+0.035,+0.850,-0.183,-0.426,-2.875,-17.125,+15.500,7, 14, 13, 7, 5, 2, 2, 6,3.0915152341900694,1.0515575911650075
1503694980464,-0.862,-0.494,-0.111,+0.036,+0.800,-0.192,-0.427,-2.750,-12.062,+8.688,6, -9, -1, -3, -6, -1, -3, -1,3.0927647792019104,1.0470230065577122
1503694980480,-0.863,-0.492,-0.110,+0.035,+0.779,-0.161,-0.456,-3.812,-7.312,-4.188,-6, -4, 0, -2, 0, -1, 5, 1,3.092508488927612,1.042011370473389
1503694980501,-0.863,-0.492,-0.108,+0.033,+0.766,-0.181,-0.520,+0.125,+2.000,-15.875,7, -1, -7, -2, 5, -1, -4, -10,3.090988136128096,1.0415353886226453
1503694980525,-0.865,-0.490,-0.107,+0.029,+0.818,-0.261,-0.484,-0.375,-12.688,-27.562,-7, -5, -4, 6, 11, 1, -4, -2,3.0856535320541356,1.0373915878032614
1503694980538,-0.867,-0.488,-0.105,+0.024,+0.847,-0.283,-0.446,-1.625,-19.250,-33.500,-3, -5, -6, -15, -19, -7, 1, 0,3.0795451055369805,1.0330290132066104
1503694980561,-0.868,-0.486,-0.102,+0.019,+0.827,-0.274,-0.483,-1.875,-13.562,-37.750,0, -10, -7, 4, 12, 4, -2, 4,3.0741325744923818,1.027834651740212
1503694980583,-0.870,-0.483,-0.099,+0.013,+0.763,-0.203,-0.523,+0.312,-15.125,-42.500,-2, -11, -17, -3, -3, -2, -5, -1,3.06725453620344,1.0206816137141306
1503694980598,-0.872,-0.480,-0.097,+0.006,+0.777,-0.208,-0.555,+6.125,-16.125,-41.812,4, -12, -15, -3, -1, 1, 0, 2,3.057582727039501,1.0139973104464075
1503694980622,-0.873,-0.479,-0.096,-0.000,+0.799,-0.271,-0.499,+7.188,-10.500,-39.438,1, -4, 2, 1, 5, 3, 2, 0,3.0483189201354235,1.0122165727158148
1503694980643,-0.872,-0.479,-0.097,-0.006,+0.843,-0.282,-0.505,+10.688,+0.625,-34.000,-1, 1, 12, 0, -5, 0, 7, 5,3.0364441970818166,1.0126591871698918
1503694980659,-0.871,-0.481,-0.097,-0.010,+0.875,-0.250,-0.499,+10.938,+12.688,-24.938,1, 15, 1, -1, 1, 0, 1, 1,3.02907646830912,1.017731247804399
1503694980681,-0.870,-0.483,-0.098,-0.013,+0.898,-0.199,-0.511,+12.875,+9.688,-20.812,-9, -10, -2, 2, 0, -8, -3, -3,3.022523081047922,1.0230532697773245
1503694980703,-0.870,-0.483,-0.099,-0.018,+0.923,-0.152,-0.482,+15.312,+0.812,-21.812,0, 1, 1, -1, -1, 1, -1, -2,3.0128143381661308,1.0239291550947984
1503694980718,-0.869,-0.483,-0.100,-0.023,+0.921,-0.164,-0.464,+18.562,-4.562,-23.688,5, 1, 1, -7, -7, 0, -3, 1,3.0026894792491703,1.0243101043922285
1503694980741,-0.870,-0.482,-0.101,-0.028,+0.942,-0.182,-0.465,+18.688,-13.875,-23.375,6, 2, -2, -2, -2, -1, -2, -3,2.9933856596009996,1.0231382842896166
1503694980764,-0.871,-0.480,-0.103,-0.033,+0.935,-0.161,-0.452,+19.062,-19.375,-20.375,6, 37, 26, 13, 9, 3, 4, 1,2.9830641184778135,1.0197967405986188
1503694980779,-0.871,-0.478,-0.104,-0.038,+0.889,-0.123,-0.467,+19.062,-18.438,-19.938,-2, -19, -14, 1, 14, 4, 0, 0,2.9732049904431936,1.015594043276653
1503694980801,-0.872,-0.476,-0.104,-0.044,+0.870,-0.113,-0.467,+18.812,-13.938,-22.000,-16, -22, -20, -8, -5, -4, -6, -16,2.963063736776539,1.011635154092055
1503694980824,-0.872,-0.475,-0.105,-0.049,+0.858,-0.117,-0.453,+16.625,-11.562,-22.250,-5, 14, 14, 1, -5, -1, -5, -5,2.953311866479907,1.0100403245600753
1503694980838,-0.872,-0.475,-0.105,-0.053,+0.922,-0.113,-0.428,+10.938,-7.688,-19.438,-10, -2, 0, 2, -3, -4, -5, -7,2.9463957049987095,1.010491083315634
1503694980862,-0.872,-0.475,-0.105,-0.056,+0.950,-0.100,-0.409,+6.875,-10.688,-15.000,-6, 0, -3, -3, -4, 3, 3, 4,2.941220930881966,1.0108287278560015
1503694980883,-0.872,-0.475,-0.104,-0.059,+0.929,-0.078,-0.409,+2.625,-11.500,-11.688,5, 12, -12, -5, -2, -2, -3, 0,2.9369938320130298,1.0107458801829354
1503694980900,-0.872,-0.474,-0.103,-0.061,+0.910,-0.059,-0.447,+0.562,-11.500,-12.625,1, -16, -7, -2, -1, -2, 2, 1,2.934301535193986,1.007995528758701
1503694980924,-0.874,-0.472,-0.101,-0.064,+0.895,-0.059,-0.447,-2.812,-19.062,-12.750,-2, 9, 8, 4, 8, -1, -3, -4,2.9318283362806614,1.0034155210766333
1503694980943,-0.874,-0.471,-0.098,-0.065,+0.885,-0.070,-0.457,-8.250,-14.438,-9.312,9, 7, 17, 6, 0, 1, 1, 6,2.932693595543917,0.9997546387162091
1503694980960,-0.875,-0.469,-0.096,-0.066,+0.874,-0.053,-0.494,-8.375,-10.875,-7.438,-3, 5, -3, -5, -5, -1, -1, -1,2.9330212223491694,0.9944871547358759
1503694980982,-0.876,-0.468,-0.094,-0.067,+0.877,-0.050,-0.467,-11.312,-13.625,-5.875,-6, -24, -17, -5, -3, -1, 0, -4,2.9335373915555523,0.9917791474071262
1503694981003,-0.877,-0.467,-0.091,-0.067,+0.884,-0.038,-0.483,-13.562,-14.375,-5.312,-7, -10, -7, -2, 18, 3, 1, -3,2.936684660906473,0.9886022842491233
1503694981018,-0.879,-0.464,-0.087,-0.067,+0.883,-0.042,-0.492,-15.312,-19.688,-4.438,2, 1, -1, -7, 1, -6, 1, -1,2.94090124983437,0.9805462230977421
1503694981041,-0.881,-0.461,-0.084,-0.066,+0.875,-0.051,-0.536,-16.750,-22.438,+0.062,9, 23, 12, 4, 1, 1, 1, 5,2.9459024159093854,0.9728274682128797
1503694981063,-0.883,-0.458,-0.082,-0.065,+0.832,-0.045,-0.559,-16.812,-24.375,+3.438,-6, -9, -2, -1, 11, 1, -3, -3,2.949978599416637,0.9655106029527183
1503694981079,-0.885,-0.454,-0.079,-0.064,+0.790,-0.069,-0.525,-19.188,-21.938,+3.875,1, -5, -9, -5, -14, -6, -7, -2,2.9547554930606688,0.9553830927534515
1503694981101,-0.886,-0.452,-0.077,-0.061,+0.810,-0.088,-0.531,-19.375,-12.500,+6.312,-5, 2, 6, 1, -15, -1, 2, 0,2.961963973937412,0.9499578118492809
1503694981125,-0.887,-0.451,-0.075,-0.058,+0.832,-0.103,-0.521,-19.875,-8.562,+8.688,-4, -6, -4, -2, -18, -2, -2, 0,2.969354228194254,0.9470740451481158
1503694981138,-0.888,-0.450,-0.072,-0.056,+0.835,-0.091,-0.543,-21.000,-8.000,+6.312,1, -13, -10, -2, -4, -2, 2, 0,2.9758746972265486,0.9440034366912887
1503694981161,-0.890,-0.448,-0.069,-0.054,+0.839,-0.076,-0.553,-20.688,-14.188,+2.250,-1, 33, 26, 6, 8, 3, 0, 1,2.9826933265990596,0.9390048491456974
1503694981183,-0.891,-0.445,-0.067,-0.053,+0.834,-0.079,-0.585,-17.562,-18.000,+0.375,-2, -25, -21, -5, 1, -1, -1, -3,2.9862433173714082,0.9313848318204383
1503694981198,-0.893,-0.442,-0.065,-0.053,+0.800,-0.084,-0.610,-14.812,-20.438,-1.625,-15, -1, 2, 1, 3, -1, -7, -18,2.988464418401161,0.9244117175683628
1503694981221,-0.895,-0.438,-0.063,-0.052,+0.756,-0.083,-0.591,-12.625,-21.312,-4.000,11, 18, -5, -2, 0, -2, -3, -3,2.992298629803021,0.9149086605703315
1503694981243,-0.897,-0.436,-0.061,-0.052,+0.764,-0.096,-0.593,-11.062,-14.625,-4.062,1, -9, 1, 1, 1, -2, -1, 1,2.994612466735203,0.9104912556962554
1503694981259,-0.897,-0.434,-0.060,-0.052,+0.752,-0.088,-0.590,-8.375,-6.000,-3.750,19, -2, -1, -2, -2, 0, -8, 30,2.995204846163426,0.9052753948765615
1503694981281,-0.898,-0.433,-0.059,-0.052,+0.777,-0.078,-0.602,-6.500,-3.125,-4.750,-8, -3, -1, 3, -3, -1, -1, -11,2.996350089417814,0.9030829911108375
1503694981303,-0.898,-0.432,-0.058,-0.053,+0.810,-0.079,-0.612,-4.500,-5.375,-3.562,-7, -5, 2, 1, 9, 0, 3, -12,2.9952907811781118,0.9004308092961113
1503694981318,-0.899,-0.431,-0.058,-0.053,+0.810,-0.074,-0.592,-4.125,-8.312,-3.875,13, 44, 28, 6, -3, 0, 3, -2,2.995573402029084,0.8984948276418665
1503694981341,-0.900,-0.430,-0.057,-0.054,+0.793,-0.061,-0.589,-2.250,-9.000,-3.750,-9, -29, -19, -10, -7, -2, -1, -9,2.9949266092143407,0.8963859249255711
1503694981357,-0.900,-0.429,-0.057,-0.054,+0.796,-0.054,-0.585,-2.125,-4.688,+0.062,-10, -9, -9, 1, -1, -4, -7, -22,2.9947881528376645,0.8939163269810083
1503694981379,-0.900,-0.429,-0.057,-0.053,+0.809,-0.051,-0.582,-1.812,-1.125,+4.875,-1, -9, -4, -2, -2, -4, -4, -14,2.9965713526842204,0.8938448073549979
1503694981402,-0.900,-0.429,-0.058,-0.052,+0.848,-0.072,-0.571,-1.250,-1.250,+7.188,10, 4, -2, -4, 7, 3, 9, 23,2.9975049316937312,0.8940181278496661
1503694981417,-0.900,-0.429,-0.059,-0.050,+0.885,-0.061,-0.601,+1.188,-5.812,+9.438,-9, 16, 9, 2, -2, 2, 5, 7,3.0002238540678503,0.8941180830335738
1503694981439,-0.901,-0.426,-0.060,-0.049,+0.868,-0.056,-0.610,+1.750,-16.562,+11.312,-21, -9, -13, -4, -4, -2, -4, -11,3.001204122110585,0.887426891757952
1503694981461,-0.903,-0.423,-0.061,-0.048,+0.837,-0.060,-0.609,+1.938,-21.312,+12.812,-32, -32, -25, -8, -4, -4, -3, 3,3.0026163902348895,0.8812901151149857
1503694981483,-0.904,-0.421,-0.063,-0.046,+0.805,-0.075,-0.611,+3.875,-13.000,+16.688,5, -12, -4, -6, 2, 0, 1, 14,3.0047129739045846,0.8772570717040702
1503694981506,-0.904,-0.420,-0.065,-0.043,+0.808,-0.079,-0.612,+5.875,-4.312,+19.188,9, 11, -4, -3, -4, 1, 0, 3,3.008331516105629,0.8750623485073693
1503694981529,-0.904,-0.420,-0.069,-0.041,+0.843,-0.106,-0.608,+7.375,-1.188,+21.062,0, 3, 2, -1, -5, 1, 3, 12,3.008586257894979,0.8759323193844235
1503694981543,-0.904,-0.419,-0.072,-0.038,+0.864,-0.120,-0.600,+7.562,-3.938,+21.188,11, 2, 14, 10, 9, -2, -6, 4,3.0114018029881024,0.8740067566413714
1503694981558,-0.905,-0.417,-0.074,-0.036,+0.847,-0.109,-0.607,+7.938,-12.812,+18.688,3, 11, 9, -1, 0, 1, 1, 0,3.0135963199239697,0.8699900967204399
1503694981581,-0.906,-0.415,-0.077,-0.034,+0.817,-0.117,-0.609,+8.438,-17.062,+17.188,-5, -6, -3, 2, 3, 1, -2, -10,3.0149889868718693,0.8662574894381667
1503694988324,-0.870,-0.481,-0.088,-0.062,+0.884,-0.074,-0.500,-19.125,-21.375,-4.812,2, -2, 0, -1, 4, 0, 0, 1,2.946924496198425,1.0191114687616667
1503694988346,-0.872,-0.479,-0.086,-0.062,+0.869,-0.055,-0.542,-14.312,-15.562,-3.062,1, 3, -1, 1, -3, -1, -3, -8,2.949516604337278,1.014281274838881
1503694988368,-0.873,-0.476,-0.084,-0.062,+0.871,-0.063,-0.558,-9.938,-14.688,-2.188,-4, -3, 0, 0, -2, 1, 2, 5,2.951351270861928,1.0064149031344314
1503694988384,-0.875,-0.472,-0.082,-0.062,+0.885,-0.082,-0.524,-7.188,-26.625,-0.812,-10, -6, -9, -5, -2, 1, 7, -9,2.953521876450525,0.9965470365275447
1503694988406,-0.878,-0.468,-0.081,-0.062,+0.881,-0.080,-0.499,-5.812,-29.438,-2.938,14, 6, 4, -1, 0, 1, 0, 3,2.955286051619781,0.9875843810620529
1503694988428,-0.880,-0.465,-0.080,-0.063,+0.833,-0.050,-0.539,-3.562,-22.438,-4.562,-12, 9, 15, 1, -4, -1, 0, -31,2.95496947027716,0.980765875770755
1503694988444,-0.881,-0.461,-0.079,-0.064,+0.807,-0.070,-0.530,-0.500,-19.688,-2.000,-6, -12, -15, 1, -2, -1, -6, 6,2.9539227052185177,0.9709238995085546
1503694988466,-0.882,-0.460,-0.079,-0.063,+0.827,-0.091,-0.523,-4.312,-12.312,+1.562,6, -6, -6, 0, 3, 2, 1, -1,2.9560074100864577,0.968831774649404
1503694988488,-0.883,-0.459,-0.079,-0.063,+0.858,-0.069,-0.528,-4.000,-1.812,+4.375,6, 2, 2, 0, 0, -2, -3, 5,2.956351825474995,0.9668316114874271
1503694988504,-0.883,-0.459,-0.079,-0.062,+0.849,-0.078,-0.515,-3.688,-5.500,+5.188,-9, -4, 0, 0, -2, -2, -3, -1,2.958091986748391,0.9667415918953829
1503694988526,-0.883,-0.459,-0.078,-0.061,+0.876,-0.073,-0.506,-7.625,-3.312,+3.750,-4, 0, 2, -3, -5, -3, 0, 7,2.9607388670530295,0.9663227518774308
1503694988546,-0.884,-0.458,-0.078,-0.060,+0.860,-0.049,-0.534,-4.375,-5.938,+4.188,2, 4, 8, 2, -1, 0, -1, 8,2.9628206900607816,0.9642356189675859
1503694988564,-0.884,-0.457,-0.077,-0.059,+0.832,-0.067,-0.535,-6.312,-5.688,+6.812,-1, 3, -1, -3, -1, 0, -2, 10,2.9652978384617974,0.9613030430777263
1503694988586,-0.885,-0.456,-0.077,-0.057,+0.822,-0.071,-0.537,-7.000,-1.438,+6.750,1, -4, -4, 0, -1, -2, -1, 3,2.9691297350461467,0.9591320871384207
1503694988602,-0.885,-0.457,-0.077,-0.056,+0.833,-0.065,-0.566,-1.250,+3.375,+7.125,5, 4, -6, -1, 2, -3, -1, -1,2.971037721114219,0.9615626057033246
1503694988624,-0.885,-0.455,-0.078,-0.056,+0.848,-0.093,-0.564,-0.562,-7.688,+4.688,-10, -15, -12, -3, -3, 0, -3, -4,2.969819368388017,0.9568445018705218
1503694988647,-0.886,-0.454,-0.077,-0.055,+0.806,-0.099,-0.530,-5.562,-8.625,+3.250,-6, 8, 19, 5, 5, 0, -5, -18,2.9728087805298395,0.9544463545025276
1503694988671,-0.886,-0.453,-0.077,-0.055,+0.753,-0.077,-0.536,-4.688,+0.250,+1.250,3, -3, -7, 1, -3, 0, 2, 3,2.97265503482091,0.9519314679184525
1503694988684,-0.886,-0.455,-0.077,-0.054,+0.746,-0.076,-0.559,-2.562,+17.375,+2.438,1, -6, -5, -13, -38, -10, -1, -2,2.9747131735061205,0.9568735047936939
1503694988706,-0.884,-0.458,-0.077,-0.054,+0.796,-0.071,-0.574,+1.312,+27.750,+1.312,-6, -14, -12, 1, 3, 2, -2, -3,2.974202633959213,0.9633826056871077
1503694988728,-0.882,-0.462,-0.078,-0.053,+0.811,-0.082,-0.556,+4.188,+29.562,+1.188,2, 5, -2, -2, 8, 2, 3, 9,2.97468745618516,0.9726704360172319
1503694988745,-0.879,-0.467,-0.079,-0.053,+0.921,-0.105,-0.497,+1.312,+26.312,+1.500,6, -2, -1, -2, 3, -3, 0, 3,2.9730917861859156,0.9841026376041498
1503694988766,-0.877,-0.470,-0.080,-0.053,+0.971,-0.104,-0.472,+3.250,+15.250,+1.188,-1, 4, 2, 6, 6, -2, -2, -1,2.971663661724531,0.9910177994009772
1503694988788,-0.877,-0.471,-0.081,-0.054,+0.974,-0.088,-0.468,+2.688,-2.250,-2.375,0, 2, -2, -7, 4, -2, -1, -2,2.9691588516273915,0.9939811080301484
1503694988804,-0.878,-0.468,-0.081,-0.055,+0.908,-0.079,-0.482,+2.500,-19.812,-6.625,-7, -8, -11, -6, 0, 0, -3, -2,2.9674279641192918,0.9869571460991718
1503694988826,-0.880,-0.464,-0.080,-0.057,+0.836,-0.077,-0.505,+2.875,-29.062,-7.438,1, 0, 4, -2, -4, 0, -3, -9,2.9652117616536007,0.9776958645009957
1503694988848,-0.882,-0.460,-0.080,-0.059,+0.802,-0.094,-0.498,+1.000,-26.938,-7.812,1, 9, 6, 9, 7, 2, 2, 1,2.9620681460981713,0.968802701641367
1503694988864,-0.884,-0.457,-0.079,-0.060,+0.822,-0.089,-0.506,-1.812,-19.312,-5.875,10, 7, -4, 0, 4, 1, 0, 4,2.961745794569755,0.9620428508656192
1503694988887,-0.885,-0.456,-0.078,-0.060,+0.846,-0.077,-0.521,-3.562,-12.875,-4.062,-2, 0, 3, -1, 2, 0, 0, 2,2.9629889499694837,0.9597219223465513
1503694988908,-0.885,-0.454,-0.077,-0.060,+0.860,-0.084,-0.510,-6.375,-11.562,-2.500,-4, -10, 2, -1, -4, -1, -2, -1,2.9635459948442167,0.954366275192742
1503694988924,-0.886,-0.453,-0.076,-0.060,+0.877,-0.071,-0.526,-9.000,-11.312,-0.438,-1, 1, 3, 0, -2, -2, -5, -10,2.9647821996302923,0.9520597286085116
1503694988946,-0.887,-0.451,-0.075,-0.060,+0.876,-0.066,-0.538,-9.188,-14.812,+1.188,-2, -1, -2, 0, -1, -4, -1, 10,2.965843544004471,0.9472498564472295
1503694988968,-0.888,-0.449,-0.073,-0.058,+0.854,-0.074,-0.551,-10.750,-13.812,+4.250,0, -1, -4, 2, -1, -1, -2, -2,2.971306757145279,0.9419702335308031
1503694988986,-0.889,-0.448,-0.072,-0.057,+0.836,-0.057,-0.563,-11.312,-10.250,+6.875,3, -6, -11, -5, 3, 2, -2, 3,2.9742819362297754,0.9396067829018936
1503694989006,-0.890,-0.447,-0.071,-0.055,+0.833,-0.032,-0.590,-7.312,-3.812,+8.438,-11, -4, -2, -2, -3, -1, -2, 4,2.979012122867748,0.937166947840754
1503694989028,-0.891,-0.446,-0.071,-0.054,+0.820,-0.055,-0.596,-4.062,-4.188,+9.562,-9, -5, -9, -3, -1, -3, -5, -16,2.9810929503428154,0.9351121184088074
1503694989048,-0.891,-0.445,-0.072,-0.052,+0.815,-0.069,-0.605,-2.812,-0.438,+10.688,13, 2, -2, -4, -5, 0, -3, 24,2.983597442763639,0.9327352326704877
1503694989066,-0.891,-0.445,-0.073,-0.051,+0.790,-0.093,-0.564,-1.562,+0.812,+10.688,24, 3, 4, 0, -1, -1, 2, 2,2.9844817991912054,0.9329439227810983
1503694989088,-0.891,-0.445,-0.073,-0.049,+0.790,-0.084,-0.562,-0.688,+7.000,+9.312,-6, 3, 6, 1, 0, -2, 2, 4,2.9880177200044513,0.9327693652609029
1503694989104,-0.891,-0.446,-0.074,-0.048,+0.815,-0.082,-0.568,+0.625,+7.438,+8.750,-10, 13, 16, 1, 0, -3, -5, -17,2.989028413343663,0.93547868440045
1503694989126,-0.890,-0.447,-0.075,-0.047,+0.812,-0.093,-0.552,+0.688,+6.688,+6.125,16, 9, 10, 5, 1, 1, 0, 2,2.989585442998388,0.9376603658192255
1503694989148,-0.890,-0.447,-0.076,-0.047,+0.828,-0.101,-0.531,-0.062,+0.562,+2.562,-6, -14, -9, -2, -5, -2, -8, -17,2.988697694800812,0.9379607709374291
1503694989164,-0.890,-0.448,-0.076,-0.046,+0.841,-0.103,-0.521,-0.562,+0.500,+2.438,1, -1, -1, 0, -1, 0, 1, 7,2.990585071329642,0.940377016101961
1503694989187,-0.890,-0.448,-0.076,-0.046,+0.833,-0.092,-0.534,-1.000,-1.188,+0.938,-15, -6, -6, -6, -4, -1, 3, 12,2.990585071329642,0.940377016101961
1503694989209,-0.890,-0.447,-0.076,-0.046,+0.841,-0.096,-0.537,-2.688,-3.688,-0.688,-24, -5, -4, -1, 0, -3, -4, -29,2.9904654854331274,0.9378704644179648
1503694989224,-0.890,-0.447,-0.076,-0.046,+0.852,-0.104,-0.534,-3.188,-4.875,+0.062,-6, 5, 5, -1, 1, -2, -5, -14,2.9904654854331274,0.9378704644179648
1503694989251,-0.891,-0.446,-0.075,-0.046,+0.851,-0.094,-0.534,-4.688,-7.188,+0.500,-3, 1, 2, 4, 3, -1, -3, -24,2.9916779275063203,0.9355979655727084
1503694989269,-0.891,-0.445,-0.074,-0.045,+0.849,-0.072,-0.550,-5.562,-6.562,+1.750,9, 6, -1, -3, -1, 0, 0, -18,2.994215850389407,0.9327110346452538
1503694989285,-0.892,-0.444,-0.074,-0.045,+0.838,-0.078,-0.571,-4.312,-6.250,+4.062,3, 1, -1, 0, 2, 1, 1, 4,2.9945369492841087,0.9307422392243174
1503694989307,-0.892,-0.443,-0.074,-0.044,+0.822,-0.084,-0.575,-3.438,-5.375,+4.375,28, -1, -10, -3, -5, -2, 4, 40,2.996197596941345,0.9281535755065619
1503694989329,-0.893,-0.443,-0.074,-0.043,+0.832,-0.079,-0.576,-2.688,-5.000,+5.812,12, 6, 2, -1, 1, 2, 6, 7,2.998400189104197,0.9285976535801154
1503694989344,-0.893,-0.442,-0.074,-0.042,+0.831,-0.084,-0.566,-2.312,-4.625,+6.625,-8, 3, -1, 2, 6, 1, -2, 1,3.000069188596378,0.926010229059505
1503694989366,-0.893,-0.441,-0.075,-0.041,+0.836,-0.085,-0.558,-1.438,-4.250,+6.750,-1, 0, 18, 8, 2, 1, -3, -19,3.0008666112996325,0.9237121366103376
1503694989389,-0.894,-0.440,-0.075,-0.040,+0.853,-0.089,-0.571,+0.312,-7.938,+6.125,-11, -3, 0, -2, 0, -1, -4, -20,3.002968468765365,0.9216596971309327
1503694989404,-0.895,-0.438,-0.076,-0.040,+0.826,-0.087,-0.590,+2.375,-11.625,+5.812,-14, -2, -4, -2, -2, -2, -3, -16,3.002324905341364,0.9174979163622531
1503694989427,-0.896,-0.436,-0.076,-0.040,+0.804,-0.089,-0.582,+1.625,-13.562,+5.688,16, -12, -3, -5, -2, -1, -5, -4,3.002559748273206,0.9130534759946969
1503694989450,-0.897,-0.434,-0.077,-0.039,+0.781,-0.093,-0.568,+2.688,-8.000,+6.312,-8, -7, -5, -2, -2, 2, 8, 32,3.0037187010066413,0.9088135939964984
1503694989464,-0.897,-0.434,-0.079,-0.038,+0.794,-0.107,-0.573,+4.062,-1.375,+6.812,-2, 4, -5, -3, -1, -1, 3, 17,3.003776417973293,0.9093073626772257
1503694989487,-0.897,-0.434,-0.080,-0.038,+0.827,-0.116,-0.569,+4.062,-1.125,+7.000,-16, -3, -2, -1, -4, -3, -9, -34,3.0029127504813364,0.9096067153533991
1503694989508,-0.897,-0.433,-0.081,-0.037,+0.845,-0.108,-0.569,+4.062,-5.438,+5.688,-4, -9, -10, -6, -3, 2, -5, -17,3.003755984055668,0.9073231775146043
1503694989531,-0.898,-0.432,-0.082,-0.037,+0.831,-0.107,-0.573,+5.062,-10.938,+4.688,-7, 22, 10, 1, 1, -1, -1, -28,3.003240625594386,0.9056796054773725
1503694989546,-0.898,-0.430,-0.083,-0.037,+0.805,-0.112,-0.571,+4.250,-13.000,+4.125,10, -4, 0, -2, 0, -1, -1, 10,3.0022303394154988,0.9010221577112598
1503694989568,-0.899,-0.428,-0.085,-0.037,+0.799,-0.108,-0.599,+6.125,-10.312,+4.750,4, 2, 4, 1, 3, 0, 7, 34,3.000802359979907,0.8972237476603977
1503694989584,-0.900,-0.426,-0.087,-0.037,+0.805,-0.135,-0.590,+7.938,-11.000,+6.125,6, -6, -3, -1, -3, 0, 8, 12,2.9993942340794395,0.8934431078429578
1503694989607,-0.901,-0.424,-0.088,-0.037,+0.819,-0.130,-0.569,+3.250,-14.000,+5.688,3, 2, 5, -5, -1, -3, -3, 0,2.998850991123336,0.8893559079351555
1503694989629,-0.902,-0.422,-0.089,-0.037,+0.805,-0.106,-0.598,+5.312,-14.500,+4.688,-12, 1, 4, -1, -7, -4, -8, 5,2.998318899904233,0.8852779018119168
1503694989644,-0.903,-0.419,-0.090,-0.037,+0.795,-0.130,-0.605,+8.562,-15.000,+4.875,-4, 2, -3, -1, 0, 0, 1, 23,2.9977351754771755,0.8787443797766779
1503694999911,-0.932,-0.350,+0.030,+0.087,+0.665,+0.044,-0.757,-16.125,-19.562,+11.312,0, 5, 4, 1, 2, 0, -1, 2,-2.9572318249506115,0.7177536932747545
1503694999933,-0.933,-0.346,+0.031,+0.088,+0.628,+0.035,-0.752,-10.188,-19.000,+8.500,5, 0, 2, -2, -2, -1, -1, 0,-2.9544390646678043,0.7092520671735868
1503694999958,-0.934,-0.344,+0.031,+0.090,+0.609,+0.013,-0.741,-6.750,-7.188,+9.000,-3, 3, 5, -1, -4, 1, -1, 0,-2.950896666681966,0.7052384526918747
1503694999970,-0.934,-0.343,+0.032,+0.092,+0.617,+0.012,-0.742,-8.375,-1.688,+9.688,3, -1, 0, 9, 36, 7, -1, 1,-2.9463506643814306,0.7032413541454366
1503694999997,-0.934,-0.344,+0.033,+0.094,+0.648,+0.020,-0.725,-6.812,+5.250,+9.250,5, 5, -1, -1, 11, -1, 5, 3,-2.9422195110404266,0.7058794535346349
1503695000015,-0.933,-0.345,+0.033,+0.095,+0.740,+0.033,-0.730,-5.188,+2.375,+5.000,-8, 1, 2, -1, -3, -3, -7, -8,-2.9400418179408816,0.7077202822971872
1503695000031,-0.933,-0.344,+0.033,+0.095,+0.737,+0.021,-0.732,+0.125,-7.000,+2.438,7, 15, 14, 6, 1, -1, 2, 26,-2.939830175389843,0.7054059624080077
1503695000053,-0.934,-0.343,+0.033,+0.095,+0.672,+0.007,-0.737,+1.188,-7.188,+3.125,-14, -2, 1, -1, 2, 0, -7, -17,-2.940181545578873,0.703616786537107
1503695000075,-0.934,-0.343,+0.032,+0.096,+0.650,+0.013,-0.773,+3.375,-0.062,+6.938,-1, -2, -3, 4, -1, -1, 0, -7,-2.939023979161758,0.7034366104107506
1503695000092,-0.933,-0.344,+0.030,+0.097,+0.641,+0.011,-0.754,+6.500,+10.062,+12.250,5, 1, -1, 0, -6, -2, -1, -4,-2.9381931092168836,0.7048181265270488
1503695000112,-0.932,-0.347,+0.029,+0.099,+0.681,+0.011,-0.751,+7.188,+19.938,+12.062,-2, 0, -1, -4, -1, 0, 3, -8,-2.9353172346936156,0.7111051665706166
1503695000135,-0.931,-0.350,+0.026,+0.100,+0.758,+0.027,-0.757,+15.000,+15.938,+14.000,-2, -9, -6, -1, -2, -2, -8, -20,-2.935667201602741,0.7169164728471469
1503695000150,-0.930,-0.352,+0.023,+0.100,+0.740,+0.013,-0.758,+19.312,+9.188,+11.125,11, -1, -6, 0, 0, -1, -1, 7,-2.9376450303493464,0.7203945231821073
1503695000173,-0.930,-0.354,+0.019,+0.100,+0.639,-0.015,-0.748,+23.062,+13.438,+8.812,-11, -10, -5, -5, -5, -2, -2, -17,-2.9408985404654056,0.7242321890588619
1503695000195,-0.928,-0.358,+0.013,+0.100,+0.615,-0.053,-0.732,+29.125,+23.312,+11.312,4, -4, -1, -2, -2, -1, -2, 11,-2.945013855173169,0.7313619264066219
1503695000210,-0.926,-0.363,+0.010,+0.100,+0.669,-0.062,-0.702,+19.562,+33.438,+7.562,4, 5, 4, 2, 1, 2, 6, 16,-2.9473810134734166,0.7414814843724263
1503695000233,-0.924,-0.368,+0.006,+0.100,+0.670,-0.096,-0.678,+18.438,+28.250,+11.812,-11, -2, -3, 0, -1, -1, -2, -5,-2.9505576901286648,0.7515073596931949
1503695000255,-0.922,-0.373,+0.001,+0.102,+0.654,-0.141,-0.637,+20.875,+31.062,+14.812,9, 5, 4, 2, 2, 1, -1, 0,-2.9509390192838403,0.7614808548072736
1503695000270,-0.920,-0.378,-0.001,+0.102,+0.704,-0.111,-0.657,+11.562,+30.875,+7.562,15, 2, 0, 0, -3, -2, 1, 41,-2.952848460919228,0.7719804637070337
1503695000292,-0.918,-0.383,-0.002,+0.103,+0.668,-0.092,-0.617,+3.375,+32.875,+5.938,3, 3, 2, 0, 2, -2, -3, -27,-2.9522544496576475,0.7826750062067559
1503695000315,-0.916,-0.388,-0.001,+0.104,+0.761,-0.088,-0.588,-3.250,+26.875,+5.312,-3, -7, -5, 1, 1, -1, 1, 6,-2.950182371140296,0.7936972638217913
1503695000330,-0.914,-0.393,-0.001,+0.104,+0.902,-0.071,-0.631,-2.812,+19.688,+5.062,-18, -6, -8, 7, 5, 0, -2, -14,-2.9506949298698117,0.8046224157507855
1503695000352,-0.913,-0.395,-0.000,+0.103,+0.928,-0.040,-0.637,+3.125,+4.562,-2.938,-1, -4, -3, -8, -5, -1, -2, -11,-2.9518283111858437,0.80903804423585
1503695000375,-0.914,-0.394,-0.001,+0.101,+0.774,-0.034,-0.667,+8.875,-9.625,-9.562,-21, -3, 1, -5, -4, -3, -3, -11,-2.9563894265225166,0.807035643137016
1503695000390,-0.915,-0.392,-0.002,+0.099,+0.650,-0.077,-0.651,+8.000,-10.750,-6.312,6, 1, 3, 10, 5, 3, 3, 4,-2.960657851472073,0.8026350467171209
1503695000412,-0.914,-0.392,-0.004,+0.099,+0.716,-0.109,-0.700,+7.250,+7.250,+1.750,1, 6, 2, -8, -6, -1, 3, -4,-2.961743112414649,0.8018292361110939
1503695000435,-0.914,-0.393,-0.005,+0.098,+0.762,-0.093,-0.714,+9.312,+4.812,-1.812,7, -2, -3, -8, -7, -4, -1, 7,-2.964617365332913,0.804119759516587
1503695000450,-0.914,-0.393,-0.006,+0.097,+0.698,-0.099,-0.615,+6.000,-2.438,-7.312,-3, -6, -2, 0, 0, -1, -1, -7,-2.9672040470323715,0.8040075027690536
1503695000472,-0.914,-0.394,-0.007,+0.097,+0.655,-0.121,-0.647,-0.312,+12.125,-0.062,23, 2, -2, -1, 1, -2, 2, 12,-2.9682690698623966,0.8063025355618516
1503695000495,-0.913,-0.396,-0.006,+0.097,+0.793,-0.085,-0.654,-2.438,+12.375,-0.188,-21, -7, -3, -5, -6, -2, 2, -2,-2.9676196900785823,0.810698325134435
1503695006877,-0.899,-0.438,+0.021,+0.018,+0.828,+0.038,-0.572,+2.062,-7.000,-3.312,-3, -2, -2, 0, 6, -1, -1, -1,-3.090880738260368,0.9079193564491832
1503695006893,-0.899,-0.436,+0.021,+0.017,+0.798,+0.065,-0.557,+4.125,-12.500,-3.625,-1, -4, -2, -3, 3, 2, 0, 1,-3.0925868740920377,0.9029217543150813
1503695006916,-0.901,-0.434,+0.021,+0.015,+0.808,+0.084,-0.612,+6.188,-14.875,-6.812,0, 0, -3, -2, -8, -3, -1, 0,-3.0963796936412153,0.8989855129909377
1503695006939,-0.903,-0.430,+0.021,+0.013,+0.823,+0.083,-0.626,+7.250,-23.000,-6.938,1, -1, -1, -2, 1, 0, -2, 0,-3.10010412932037,0.8901072143777666
1503695006961,-0.904,-0.426,+0.020,+0.012,+0.774,+0.066,-0.595,+6.688,-25.500,-4.938,-1, -2, -1, 3, 8, -2, 0, -1,-3.10277456379264,0.8806640788793879
1503695006977,-0.906,-0.422,+0.020,+0.011,+0.746,+0.059,-0.571,+4.500,-23.500,-3.625,3, 4, 2, -9, -3, -1, 1, 2,-3.104717690379418,0.8718724608862014
1503695006999,-0.907,-0.420,+0.020,+0.010,+0.744,+0.072,-0.589,+0.812,-15.688,-0.500,0, 0, -1, 1, -3, -2, -1, -1,-3.1066003602965484,0.8674747683429399
1503695007021,-0.908,-0.418,+0.020,+0.011,+0.719,+0.077,-0.603,-1.125,-6.875,+3.375,-3, -2, -3, 1, -3, -1, 1, -3,-3.104853501021419,0.8631362832351633
1503695007036,-0.908,-0.418,+0.020,+0.011,+0.731,+0.060,-0.614,-3.125,+3.000,+4.938,0, -3, -1, 1, -15, -1, -1, 1,-3.104853501021419,0.8631362832351633
1503695007057,-0.908,-0.419,+0.021,+0.013,+0.763,+0.048,-0.604,-4.875,+6.938,+7.312,-3, -1, -1, 1, 1, -2, -3, 0,-3.100412008259816,0.8657204360012929
1503695007076,-0.907,-0.421,+0.021,+0.014,+0.794,+0.042,-0.597,-5.250,+8.438,+7.562,4, 3, 7, 1, 2, 2, 0, 1,-3.0985318090934517,0.8701153928468629
1503695007096,-0.907,-0.421,+0.021,+0.015,+0.812,+0.036,-0.607,-5.375,+2.875,+7.125,2, -2, -4, 5, 8, 1, 2, 2,-3.096720915460741,0.8701424752868884
1503695007124,-0.907,-0.421,+0.022,+0.016,+0.815,+0.049,-0.605,-5.750,-4.938,+5.625,-1, -1, -2, -6, 8, 0, 0, 0,-3.0940699981743647,0.8702559388218774
1503695007133,-0.908,-0.419,+0.022,+0.017,+0.792,+0.060,-0.637,-4.312,-10.312,+5.125,-2, -2, -4, -1, -7, -2, -4, -4,-3.09232701519497,0.8659168545844897
1503695007155,-0.909,-0.417,+0.022,+0.018,+0.772,+0.039,-0.628,-3.125,-12.875,+6.312,-6, -5, 1, 0, 4, 0, -2, -4,-3.0905823021959407,0.8615854439880525
1503695007177,-0.909,-0.415,+0.022,+0.020,+0.764,+0.023,-0.623,-2.812,-10.000,+7.438,-1, -4, -2, -1, -7, -1, -1, -1,-3.0868636680078185,0.8567469592111884
1503695007193,-0.910,-0.415,+0.021,+0.021,+0.773,+0.025,-0.620,-2.438,-3.438,+8.875,-7, -2, 3, 7, 6, 0, -1, -3,-3.086036032461071,0.8572267475762828
1503695007216,-0.909,-0.415,+0.020,+0.023,+0.766,+0.014,-0.624,-1.562,+0.875,+9.438,3, 4, 3, -4, -5, -1, -2, -1,-3.083070490868532,0.8566461601695444
1503695007237,-0.909,-0.415,+0.020,+0.024,+0.806,+0.014,-0.621,-1.812,+1.250,+8.375,1, -1, -2, 1, 15, -1, -1, 1,-3.0812534757590804,0.8566723674183581
1503695007253,-0.909,-0.415,+0.020,+0.025,+0.794,+0.016,-0.604,-2.188,-2.188,+5.688,-1, 2, 1, 3, -5, 1, 1, -1,-3.079436859470758,0.8566985730824052
1503695007275,-0.909,-0.415,+0.019,+0.026,+0.799,+0.019,-0.607,-2.000,-1.750,+3.250,1, 0, 0, 3, 17, 2, 0, 1,-3.0784497829357282,0.8566317543084544
1503695007297,-0.909,-0.415,+0.019,+0.026,+0.789,+0.018,-0.619,-0.500,-1.750,+3.250,2, 2, 3, -2, -4, -4, -2, -4,-3.0784497829357282,0.8566317543084544
1503695007313,-0.909,-0.415,+0.019,+0.026,+0.784,+0.027,-0.613,-1.500,-1.000,+2.938,5, 22, 11, 3, -6, -1, 1, 2,-3.0784497829357282,0.8566317543084544
1503695007335,-0.909,-0.415,+0.019,+0.027,+0.774,+0.037,-0.638,+0.438,+5.000,+3.812,-16, -17, -11, -6, -9, -3, -2, -2,-3.076633805472889,0.8566566490944298
1503695007357,-0.909,-0.417,+0.018,+0.028,+0.760,+0.023,-0.609,+0.938,+8.625,+7.000,5, -2, -6, -13, -27, -5, -3, 0,-3.0757941789782106,0.8614833114369975
1503695007374,-0.908,-0.418,+0.017,+0.029,+0.800,+0.015,-0.613,+0.000,+10.375,+9.188,6, -5, -6, -2, 3, -1, 0, -4,-3.0747077874856674,0.8633225034860182
1503695007395,-0.907,-0.420,+0.017,+0.030,+0.825,+0.023,-0.610,-0.062,+9.375,+10.500,0, -3, -5, -6, -8, -1, -3, -1,-3.072870129200281,0.8677064214017327
1503695007417,-0.907,-0.421,+0.016,+0.032,+0.815,+0.016,-0.605,+0.562,+2.812,+9.625,-1, -5, -3, 1, 2, 1, -1, -3,-3.070178567175217,0.8701136702409048
1503695007433,-0.907,-0.420,+0.015,+0.033,+0.825,+0.007,-0.626,+1.625,-3.312,+9.188,-2, 1, 3, -1, -9, 0, -2, -3,-3.069119719200626,0.8675893945148205
1503695007455,-0.907,-0.420,+0.014,+0.034,+0.772,+0.002,-0.594,-0.375,-2.062,+6.125,-8, -8, -1, 3, 5, 1, 2, -1,-3.0681490483831415,0.867520589769048
1503695007477,-0.907,-0.420,+0.013,+0.035,+0.737,-0.009,-0.594,-0.688,+0.125,+6.250,1, -3, -1, -3, -6, -2, 0, 1,-3.067178516192587,0.867452249776408
1503695007493,-0.906,-0.421,+0.013,+0.036,+0.787,-0.014,-0.626,+0.062,+7.938,+8.000,1, 5, 5, 5, 8, 1, 0, 2,-3.0652690901957795,0.8693809204894699
1503695007515,-0.906,-0.422,+0.012,+0.037,+0.810,-0.026,-0.592,+0.000,+2.062,+5.875,-1, -3, 0, 2, 18, 3, -1, -1,-3.06440724698175,0.8717687589232104
1503695007537,-0.906,-0.421,+0.012,+0.037,+0.816,-0.033,-0.562,-4.125,-6.688,+1.688,3, 9, 7, 4, 9, -1, -1, -1,-3.0643010784758484,0.8693117365013313
1503695007560,-0.907,-0.420,+0.012,+0.037,+0.827,-0.007,-0.619,-3.500,-12.062,-0.312,16, 31, 12, 1, -3, -2, 2, 3,-3.064401224957382,0.8673998947358772
1503695007577,-0.908,-0.416,+0.012,+0.037,+0.777,-0.007,-0.638,-1.500,-18.750,-2.250,-7, -15, -8, -3, -6, -3, -3, -5,-3.0641869198867915,0.8581405660849555
1503695007597,-0.910,-0.413,+0.012,+0.037,+0.763,-0.035,-0.615,-4.562,-22.750,-3.438,-7, -11, -7, -6, -7, 0, -2, -1,-3.064288815095074,0.8518952103896617
1503695007620,-0.911,-0.410,+0.013,+0.037,+0.773,-0.005,-0.626,-5.562,-15.688,-3.125,4, 11, 10, 5, 4, 1, 2, 2,-3.063368352815775,0.8452086777060258
1503695007635,-0.912,-0.409,+0.014,+0.037,+0.738,+0.011,-0.652,-2.875,-5.000,-2.500,-4, -6, -3, -2, -5, -2, -1, -3,-3.0626627386445255,0.8434068820903432
1503695007657,-0.912,-0.409,+0.014,+0.037,+0.738,-0.004,-0.643,-3.312,+2.812,-0.562,-6, -10, -5, -5, -29, -8, -6, -4,-3.0626627386445255,0.8434068820903432
1503695007680,-0.911,-0.411,+0.015,+0.037,+0.778,+0.019,-0.638,-3.375,+11.438,+1.500,5, 1, -1, 1, 5, 1, -2, -3,-3.0618331016683213,0.8478277342361451
1503695007695,-0.910,-0.413,+0.015,+0.037,+0.792,+0.021,-0.643,+0.000,+11.438,+0.438,-2, -7, -6, 5, 16, 1, 2, 2,-3.061819496678937,0.8521632974776862
1503695007719,-0.910,-0.413,+0.014,+0.036,+0.845,-0.004,-0.642,+0.562,+3.188,-1.062,-1, -8, -7, -4, 5, 2, 2, 3,-3.064456261050436,0.8520524932474435
1503695015419,-0.894,-0.430,-0.075,-0.097,+0.747,-0.027,-0.597,-5.375,-15.438,-6.625,4, 2, -3, -7, -11, -4, -2, -4,2.9006343783151265,0.9021262497252691
1503695015442,-0.895,-0.429,-0.074,-0.098,+0.771,-0.022,-0.590,-5.625,-5.375,-4.625,-4, 1, -2, -3, -5, -6, -4, 0,2.900129987859436,0.899936893561708
1503695015465,-0.895,-0.429,-0.073,-0.098,+0.820,-0.033,-0.605,-4.375,+2.438,-0.125,-4, -5, 1, 3, 21, 3, -4, -4,2.9009640038884212,0.8995843788690716
1503695015479,-0.895,-0.430,-0.073,-0.097,+0.823,-0.031,-0.595,-4.500,+0.312,+0.750,0, -9, -8, -1, -4, -2, -1, -1,2.902969677820853,0.9019542031820112
1503695015502,-0.895,-0.429,-0.072,-0.097,+0.817,-0.038,-0.588,-5.312,-5.500,+0.500,-4, -11, -4, -2, -1, -2, -3, -4,2.903540132656143,0.8991453164003413
1503695015524,-0.896,-0.428,-0.071,-0.097,+0.828,-0.039,-0.593,-5.500,-7.438,+1.750,-2, -9, -7, -2, -2, 0, -1, -2,2.9047640064872295,0.8968759597277063
1503695015539,-0.897,-0.426,-0.071,-0.096,+0.803,-0.028,-0.598,-4.750,-9.188,+2.938,0, 4, 5, 8, 6, 2, -3, 2,2.906635987150486,0.8924091430607416
1503695015564,-0.898,-0.425,-0.070,-0.095,+0.795,-0.021,-0.601,-4.750,-9.625,+4.562,-7, 4, 4, 1, -4, -1, -1, -1,2.909597611186425,0.8900621450834119
1503695015584,-0.898,-0.424,-0.070,-0.094,+0.790,-0.010,-0.604,-4.750,-5.000,+7.250,5, 6, 4, 2, 22, 3, 3, 2,2.9110931739149444,0.8875213905305879
1503695015600,-0.898,-0.424,-0.070,-0.093,+0.784,-0.028,-0.595,-3.938,+1.312,+9.312,-1, 2, -2, -6, -13, 1, 0, -13,2.912844535926198,0.8874328974057895
1503695015622,-0.898,-0.425,-0.070,-0.091,+0.805,-0.032,-0.597,-3.125,+7.188,+12.188,3, -3, -5, -2, 9, 1, -2, -6,2.91659449281124,0.8897093159174304
1503695015644,-0.898,-0.426,-0.071,-0.089,+0.822,-0.033,-0.583,-3.938,+6.688,+12.875,8, 1, 1, 1, 4, 0, 1, 17,2.919507731953391,0.8923199414603342
1503695015659,-0.897,-0.427,-0.071,-0.086,+0.841,-0.037,-0.579,-4.250,+3.312,+13.000,-11, -7, -6, -8, -15, -6, -2, -7,2.924390853025426,0.8939747560629333
1503695015682,-0.898,-0.427,-0.071,-0.084,+0.837,-0.046,-0.585,-4.688,-0.562,+13.000,4, 1, 0, -4, -9, -1, 0, 1,2.928503795110244,0.8943322027344233
1503695015704,-0.898,-0.426,-0.072,-0.082,+0.811,-0.047,-0.601,-5.188,-3.938,+13.000,3, -3, -1, 3, -4, -1, 6, 23,2.9309652151004775,0.8920211345478495
1503695015719,-0.899,-0.426,-0.072,-0.080,+0.795,-0.054,-0.586,-6.250,-3.625,+12.938,9, -3, 0, 1, 0, 0, 0, -18,2.93507025586111,0.8923757359894322
1503695015743,-0.899,-0.426,-0.072,-0.077,+0.777,-0.066,-0.593,-5.250,+5.000,+12.438,-5, 1, 1, -2, -3, -3, -6, -2,2.9403521662919285,0.8921041543321687
1503695015766,-0.898,-0.428,-0.073,-0.075,+0.787,-0.074,-0.577,-4.875,+11.250,+11.938,-8, -2, 3, 3, -2, -1, -4, -9,2.9428690148642263,0.896631589585253
1503695015779,-0.897,-0.430,-0.073,-0.073,+0.814,-0.086,-0.585,-4.625,+13.062,+11.188,4, 19, 9, 1, 0, 0, 3, -1,2.946222703133535,0.9008454742826307
1503695015808,-0.896,-0.431,-0.074,-0.071,+0.811,-0.075,-0.577,-4.688,+11.875,+8.250,-8, -12, -9, -2, 1, -2, -5, -18,2.9485411499790133,0.9029173112891282
1503695015824,-0.896,-0.432,-0.074,-0.070,+0.807,-0.073,-0.587,-3.688,+8.688,+4.250,-5, -2, -4, -5, -3, 0, -2, 0,2.9504915444364777,0.9052969923865524
1503695015843,-0.896,-0.433,-0.074,-0.069,+0.797,-0.075,-0.594,-2.188,+7.375,+4.125,3, 8, 1, -2, -2, -1, 2, 9,2.9524372915160795,0.9076787482904495
1503695015862,-0.895,-0.434,-0.074,-0.069,+0.799,-0.084,-0.583,-2.062,+6.875,+2.500,-14, -7, -9, -3, -2, -6, -4, -3,2.952078774502256,0.9096194728086825
1503695015884,-0.895,-0.435,-0.075,-0.068,+0.796,-0.086,-0.597,+0.000,+6.188,+2.688,-6, -14, -8, -3, 3, 0, 1, 8,2.9531663529847743,0.9123253157470117
1503695015902,-0.894,-0.436,-0.075,-0.068,+0.787,-0.074,-0.594,+0.125,+10.062,+2.875,-5, 2, 4, 1, 9, 2, -1, -2,2.952807389300096,0.9142706168501363
1503695015922,-0.894,-0.437,-0.076,-0.068,+0.752,-0.073,-0.566,+2.062,+12.125,+2.875,12, 8, 8, 3, 4, -1, -2, 2,2.9521280747947296,0.9170747647794332
1503695015944,-0.893,-0.439,-0.078,-0.067,+0.811,-0.087,-0.569,+3.250,+13.812,+4.938,-9, 8, 1, -1, -3, -1, -3, -2,2.9519790974406983,0.9220713965979025
1503695015959,-0.892,-0.441,-0.079,-0.066,+0.858,-0.099,-0.565,+4.562,+11.688,+6.750,1, -8, -2, -10, -13, -3, -5, 0,2.952682071108037,0.9267519181784143
1503695015982,-0.892,-0.441,-0.080,-0.066,+0.855,-0.085,-0.560,+3.562,-0.312,+4.000,3, 0, -2, 0, -4, -1, 12, 14,2.9518142104373535,0.9270865473371155
1503695016004,-0.892,-0.440,-0.081,-0.066,+0.820,-0.071,-0.556,+3.750,-4.938,+1.750,-24, -1, 3, -1, -3, -3, -1, 8,2.9507712235347583,0.9249353579038426
1503695016019,-0.892,-0.439,-0.082,-0.066,+0.795,-0.092,-0.582,+4.500,-5.125,+2.562,1, 1, -10, -7, -6, -1, -1, 4,2.949729608902507,0.9227886181005888
1503695016049,-0.892,-0.439,-0.083,-0.066,+0.790,-0.114,-0.561,+3.250,+0.438,+2.875,-7, -4, -2, -1, -7, -3, -1, 8,2.9488635588975085,0.923132850106612
1503695016064,-0.892,-0.440,-0.084,-0.065,+0.789,-0.106,-0.523,+1.312,+6.812,+2.562,-1, 5, 6, 2, 2, 1, 3, 1,2.9499280463200757,0.9258669872168296
1503695016079,-0.891,-0.442,-0.085,-0.065,+0.858,-0.083,-0.546,+0.500,+9.750,+3.188,13, 5, 2, -1, -1, 2, 4, 22,2.948847472734109,0.9306680077392318
1503695016103,-0.890,-0.442,-0.085,-0.065,+0.873,-0.072,-0.564,+0.250,+3.750,+2.125,7, -12, 0, -6, -6, -1, 3, -10,2.948289081924143,0.9301374200770075
1503695016124,-0.891,-0.442,-0.085,-0.065,+0.833,-0.079,-0.543,-1.500,-6.625,-1.000,-8, -2, -5, -1, 0, -4, -11, -24,2.948847472734109,0.9306680077392318
1503695016140,-0.891,-0.441,-0.084,-0.066,+0.820,-0.074,-0.538,-2.188,-7.188,-1.688,14, -2, -3, -3, 0, 1, 4, 28,2.9477877878594447,0.9279271252613279
1503695016162,-0.892,-0.440,-0.084,-0.066,+0.810,-0.078,-0.545,-2.250,-4.188,-0.250,-16, 0, 2, -2, -2, -5, -17, -47,2.9481716581228063,0.9259683793567307
1503695016184,-0.892,-0.440,-0.083,-0.065,+0.816,-0.088,-0.557,-3.500,-1.875,-0.188,-11, -19, -35, -7, -3, -4, -2, -10,2.95079486798215,0.9255205445893177
1503695016199,-0.892,-0.440,-0.083,-0.065,+0.835,-0.074,-0.565,-3.938,-1.750,+0.938,6, -2, 2, 1, 0, -1, -1, 0,2.95079486798215,0.9255205445893177
1503695016222,-0.892,-0.439,-0.082,-0.065,+0.853,-0.067,-0.567,-5.312,-6.562,+0.562,28, 14, 12, 6, 8, 6, 8, 33,2.951490224464547,0.9226892048684804
1503695016245,-0.893,-0.438,-0.081,-0.065,+0.820,-0.055,-0.593,-4.125,-5.375,+0.500,3, 7, 9, 0, -1, 0, -2, 2,2.9527315725149745,0.920395580021103
1503695016260,-0.893,-0.438,-0.081,-0.065,+0.785,-0.083,-0.563,-5.688,-1.875,+0.438,10, 7, 5, -9, -16, -1, 8, 27,2.9527315725149745,0.920395580021103
1503695016282,-0.893,-0.438,-0.080,-0.064,+0.829,-0.082,-0.570,-4.750,+3.562,+3.000,-11, 5, 8, 3, 4, 3, 12, 28,2.9553572558673267,0.9199620493147207
1503695016304,-0.893,-0.439,-0.080,-0.063,+0.849,-0.070,-0.576,-2.312,+6.500,+4.062,7, 11, 7, -1, -1, -2, -7, -5,2.957285253766624,0.9223512720610977
1503695016320,-0.892,-0.440,-0.080,-0.063,+0.826,-0.062,-0.568,-1.625,+4.812,+2.000,-8, -8, -6, 1, 0, -4, -6, -26,2.9569180832217135,0.9243073710808472
1503695016342,-0.892,-0.440,-0.080,-0.063,+0.813,-0.081,-0.563,-1.312,+2.875,+2.125,2, 4, 4, 2, 3, -2, -4, -31,2.9569180832217135,0.9243073710808472
1503695016364,-0.892,-0.441,-0.081,-0.062,+0.824,-0.101,-0.554,+0.750,+3.375,+2.250,-14, -4, -7, -7, -11, -3, -2, -29,2.9579741309365115,0.9270342209989659
1503695016380,-0.892,-0.441,-0.082,-0.062,+0.844,-0.098,-0.579,+2.125,+0.188,+1.500,-5, -2, 1, 0, 10, 1, -3, 1,2.9571045336732174,0.9273707136727157
1503695016403,-0.892,-0.440,-0.082,-0.063,+0.820,-0.090,-0.557,+0.938,-5.625,-0.062,17, 1, 2, 1, -2, 0, 3, 54,2.9551806762756514,0.9249791986016044
1503695016424,-0.892,-0.439,-0.082,-0.062,+0.825,-0.102,-0.542,+0.812,-6.062,+1.625,11, -4, -4, 2, 4, 0, 3, 33,2.956779194730587,0.9223908084780067
1503695016440,-0.893,-0.439,-0.083,-0.062,+0.831,-0.110,-0.543,+1.062,-5.812,+3.000,1, -7, -5, -5, -2, 0, -2, -7,2.9564494305671216,0.9232624862406033
1503695016461,-0.893,-0.437,-0.084,-0.062,+0.841,-0.103,-0.567,+0.750,-9.062,+4.062,5, 5, 5, 3, 1, -3, 2, 1,2.955264591658511,0.918631681872033
1503695016484,-0.894,-0.435,-0.084,-0.061,+0.830,-0.109,-0.549,-1.875,-14.625,+4.938,-5, -14, -12, 0, 1, 0, -3, -12,2.9572583523366727,0.9140948636786226
1503695016500,-0.895,-0.433,-0.084,-0.060,+0.812,-0.097,-0.556,-2.562,-13.438,+4.750,18, 1, -1, -3, -3, -3, 7, 31,2.9592608548349384,0.9095644906779271
1503695025133,-0.857,-0.503,-0.078,-0.077,+0.926,-0.061,-0.469,-9.188,-30.188,-8.438,-1, 2, 3, 1, -1, -1, -1, -1,2.928994016452162,1.0670495490112062
1503695025146,-0.861,-0.497,-0.076,-0.078,+0.891,-0.048,-0.471,-6.562,-37.750,-8.500,1, 1, -2, 0, 4, 2, 0, -3,2.929935795191814,1.0528611589169894
1503695025171,-0.863,-0.494,-0.074,-0.079,+0.843,-0.046,-0.475,-7.312,-24.750,-3.438,2, -3, 2, 0, -2, -2, 1, 1,2.9305206966384603,1.0455059607088202
1503695025191,-0.864,-0.491,-0.073,-0.079,+0.854,-0.030,-0.489,-6.188,-13.438,-0.812,7, 14, 12, 1, 2, 2, 0, 2,2.9312480900801954,1.037942838348262
1503695025207,-0.865,-0.491,-0.073,-0.078,+0.869,-0.037,-0.467,-3.312,-4.562,+0.625,-5, -9, 1, 1, -3, -1, -2, -2,2.933507038849988,1.0383678951400843
1503695025229,-0.865,-0.490,-0.073,-0.079,+0.879,-0.043,-0.480,+0.438,-2.312,-0.875,-3, 1, -2, 6, 6, 2, 0, -1,2.931549136980296,1.035870284205844
1503695025251,-0.865,-0.489,-0.072,-0.080,+0.875,-0.025,-0.483,+0.125,-5.375,-4.875,3, -7, 1, -5, -3, 0, -1, 0,2.9305450037881933,1.0330427448138058
1503695025266,-0.866,-0.488,-0.072,-0.081,+0.861,-0.001,-0.482,+1.188,-9.312,-6.562,-4, 0, 0, -4, -5, -3, -1, -3,2.929149808244639,1.0310498534234376
1503695025289,-0.867,-0.486,-0.071,-0.082,+0.868,-0.030,-0.456,-2.375,-14.312,-4.688,3, 1, -2, 1, 1, 0, 1, 2,2.928436274739187,1.0261659585818586
1503695025311,-0.868,-0.485,-0.070,-0.083,+0.855,-0.012,-0.458,-3.375,-6.375,-3.062,-2, -10, -6, 2, 1, -1, 2, 0,2.927989362050442,1.0238540047460165
1503695025327,-0.868,-0.485,-0.069,-0.083,+0.868,-0.000,-0.458,-1.812,-3.938,-0.625,1, 4, 2, -2, -2, 0, -1, -1,2.9289374881039336,1.0235300233434783
1503695025349,-0.869,-0.484,-0.069,-0.083,+0.908,+0.010,-0.486,-2.438,-8.688,+0.875,-8, -3, -8, -5, -4, -7, -4, -5,2.929233907401754,1.0214748725323433
1503695025371,-0.870,-0.482,-0.067,-0.083,+0.875,+0.017,-0.481,-6.062,-13.625,+2.125,2, 2, -3, -4, -9, -1, -1, 1,2.9311437746751405,1.0162284686134393
1503695025386,-0.871,-0.480,-0.066,-0.082,+0.821,+0.027,-0.480,-7.312,-9.625,+3.688,1, 3, 0, 5, 7, 0, 0, 1,2.933810571170525,1.0112441370363876
1503695025409,-0.871,-0.481,-0.065,-0.081,+0.820,+0.044,-0.500,-5.938,+4.438,+10.062,0, 15, 7, -1, -8, -4, -2, -2,2.9367210179554872,1.0134201336299424
1503695025434,-0.870,-0.482,-0.066,-0.078,+0.837,+0.020,-0.503,-4.750,+12.375,+16.750,-1, -9, -6, -1, 3, -1, 0, 2,2.9406084420429623,1.0155667571095173
1503695025446,-0.869,-0.484,-0.067,-0.075,+0.897,-0.022,-0.476,-7.000,+13.250,+20.062,2, -4, -5, 0, -3, 0, -1, -1,2.9447480453135992,1.0202764443604548
1503695025469,-0.868,-0.486,-0.067,-0.071,+0.899,-0.019,-0.476,-7.000,+12.750,+20.688,0, 6, 12, 5, 6, 2, 1, 1,2.951540734465511,1.0246193591473356
1503695025491,-0.868,-0.487,-0.067,-0.068,+0.896,-0.039,-0.465,-10.125,+6.812,+17.312,0, 8, -1, -10, -22, -5, -1, 1,2.956900871236635,1.0269784582173704
1503695025507,-0.868,-0.488,-0.067,-0.065,+0.864,-0.032,-0.492,-8.875,+5.812,+14.062,-3, -11, -4, 17, 27, 6, -1, -1,2.962251195689874,1.0293403531864558
1503695025529,-0.868,-0.488,-0.067,-0.063,+0.821,-0.043,-0.490,-9.562,+7.625,+8.750,1, -1, 1, -4, -8, -2, 0, 1,2.9656724850953164,1.0292020239130149
1503695025551,-0.867,-0.490,-0.066,-0.062,+0.802,-0.054,-0.478,-8.812,+12.188,+2.750,-5, -26, -15, -7, 0, -2, -3, -4,2.968285973686825,1.0334840813958892
1503695025569,-0.866,-0.492,-0.065,-0.062,+0.822,-0.050,-0.475,-6.438,+18.188,-2.562,-3, -3, -3, -8, 4, 0, -2, -3,2.9691980505938793,1.0378470402147346
1503695025589,-0.865,-0.494,-0.064,-0.062,+0.874,-0.059,-0.478,-4.688,+13.875,-9.500,4, 6, 3, -6, -5, -4, -2, -3,2.970120865723989,1.0422217639748255
1503695025611,-0.865,-0.494,-0.062,-0.065,+0.871,-0.049,-0.466,-4.375,+1.188,-17.062,7, 4, 0, 1, 15, 2, 0, 3,2.9669531350926928,1.0418487954832412
1503695025628,-0.865,-0.493,-0.060,-0.068,+0.852,-0.021,-0.470,-2.688,-8.062,-22.938,-9, -5, -1, 2, -6, -2, 0, -1,2.963557524525188,1.0388979878984077
1503695025649,-0.866,-0.491,-0.058,-0.072,+0.857,-0.004,-0.469,-0.875,-13.562,-22.688,8, 22, 14, 8, 14, 2, 1, 3,2.9586842116050365,1.0339363560366497
1503695025671,-0.867,-0.490,-0.056,-0.074,+0.926,+0.016,-0.456,-3.625,-16.500,-13.938,1, -2, -1, -2, -6, 1, 2, -2,2.9574480060981028,1.0314409179295967
1503695025686,-0.868,-0.488,-0.054,-0.075,+0.906,+0.022,-0.458,-4.250,-16.875,-3.125,-5, -7, -8, -8, -10, -3, -2, -1,2.9576541355410018,1.0263294934016296
1503695025709,-0.869,-0.486,-0.053,-0.074,+0.931,+0.019,-0.456,-7.250,-14.125,+4.750,-4, 1, 1, 6, -1, 1, -7, -2,2.9603085511355403,1.0213844069610083
1503695025731,-0.870,-0.484,-0.053,-0.072,+0.941,+0.021,-0.472,-6.875,-15.438,+13.125,-2, 6, 8, 0, 0, -1, 3, -2,2.963728648062738,1.0166519457957186
1503695025746,-0.872,-0.482,-0.052,-0.069,+0.894,+0.010,-0.466,-9.562,-16.938,+15.562,2, 3, 5, 0, 0, 1, 0, 4,2.9703009915170466,1.0121300054573665
1503695025769,-0.873,-0.480,-0.052,-0.066,+0.900,+0.001,-0.476,-9.188,-13.812,+16.312,-2, -25, -20, -5, -5, -4, -4, -7,2.975476484726558,1.0073589580987103
1503695025791,-0.874,-0.479,-0.052,-0.063,+0.910,-0.013,-0.487,-8.562,-10.938,+19.250,1, 13, 11, 0, 0, 0, 0, -4,2.9808839365780977,1.0051488864145186
1503695025806,-0.875,-0.477,-0.052,-0.060,+0.888,-0.016,-0.477,-11.062,-12.062,+17.938,-1, -9, -14, -4, -2, -1, 1, 0,2.986103688072042,1.0003869471148472
1503695025829,-0.876,-0.476,-0.052,-0.057,+0.869,-0.014,-0.494,-11.625,-9.250,+16.188,-16, 4, 3, 0, 0, -1, -6, -12,2.9915323717299867,0.9981817360923269
1503695025851,-0.877,-0.475,-0.051,-0.054,+0.884,-0.031,-0.509,-10.875,-9.000,+14.625,-5, 5, -1, -2, -3, -1, -3, -9,2.9979057143923105,0.9957463969088705
1503695025866,-0.878,-0.473,-0.051,-0.051,+0.875,-0.040,-0.519,-9.750,-12.062,+12.125,3, 0, -3, 0, 3, 0, 1, 5,3.003180527072888,0.9909999770327912
1503695025889,-0.880,-0.471,-0.050,-0.049,+0.856,-0.037,-0.516,-10.625,-15.125,+9.312,-2, -9, -8, -1, -3, 2, 4, 1,3.008042303498465,0.986613120603481
1503695025912,-0.881,-0.469,-0.049,-0.048,+0.831,-0.030,-0.523,-9.250,-13.562,+8.375,-7, -9, -6, -3, -2, 0, 1, 9,3.0107854879961744,0.9817770184438074
1503695025926,-0.882,-0.467,-0.049,-0.046,+0.807,-0.040,-0.538,-7.750,-6.125,+8.875,-7, 0, 3, 0, -2, -3, -1, -2,3.014353671046189,0.9771128492980901
1503695025949,-0.882,-0.467,-0.049,-0.044,+0.800,-0.056,-0.512,-7.188,+0.562,+9.062,-10, -6, 3, 1, 2, 0, 0, 3,3.017854315643433,0.9770031074682378
1503695025971,-0.882,-0.468,-0.049,-0.042,+0.870,-0.066,-0.503,-6.438,+4.375,+9.250,0, -2, -2, -3, -4, -2, -3, -12,3.021484875523006,0.9794318214036494
1503695025986,-0.881,-0.468,-0.049,-0.040,+0.886,-0.068,-0.501,-6.688,+0.625,+9.938,-3, 5, 7, 0, -1, 1, 5, 6,3.0246533392004316,0.9787997535269122
1503695026009,-0.882,-0.467,-0.049,-0.038,+0.869,-0.059,-0.510,-7.500,-6.625,+8.250,3, 3, -4, -3, -2, -2, -1, 6,3.0283742259776023,0.9766736677675192
1503695034899,-0.926,-0.362,+0.033,+0.102,+0.678,-0.012,-0.729,+7.562,+11.062,+5.688,2, 0, -3, -8, -15, -3, -2, 0,-2.9271449867559314,0.7439621908906449
1503695034911,-0.925,-0.364,+0.031,+0.102,+0.652,-0.009,-0.719,+9.188,+15.875,+4.062,0, -3, -5, -2, -4, -1, 1, 0,-2.9284697021265598,0.7476459910516857
1503695034934,-0.925,-0.366,+0.030,+0.102,+0.629,-0.020,-0.707,+8.250,+18.625,+2.625,10, 13, 0, -4, -6, -2, -1, 0,-2.929679669453912,0.752111747500092
1503695034956,-0.923,-0.370,+0.029,+0.101,+0.670,-0.034,-0.677,+5.312,+25.875,+0.375,-14, -10, -4, -5, -6, -4, -4, -4,-2.9320568698746685,0.760187642705263
1503695034972,-0.921,-0.375,+0.028,+0.101,+0.792,-0.062,-0.666,+2.875,+28.000,-1.562,11, 4, 2, -1, -2, -2, -2, 1,-2.9329178700898715,0.7707018698255347
1503695034993,-0.920,-0.379,+0.028,+0.099,+0.804,-0.057,-0.670,+5.500,+19.375,-6.562,1, -1, 1, -1, -2, 1, -1, 3,-2.936979451273596,0.7795667690299507
1503695035016,-0.919,-0.381,+0.028,+0.097,+0.757,-0.007,-0.655,+1.875,+11.625,-13.062,-10, -4, 0, -2, 7, 1, -2, 0,-2.940534842379181,0.7837006363468187
1503695035039,-0.918,-0.383,+0.029,+0.095,+0.719,-0.018,-0.656,+2.375,+11.375,-11.000,0, 10, 6, 0, -5, -1, 2, -1,-2.9433437839134,0.7880565463408898
1503695035053,-0.917,-0.386,+0.029,+0.094,+0.730,-0.021,-0.647,-0.438,+15.938,-5.688,-14, -17, -8, -7, -7, -4, -3, -5,-2.9453455856472393,0.7946289838552909
1503695035076,-0.917,-0.388,+0.030,+0.093,+0.798,-0.013,-0.650,-2.000,+12.938,-5.938,4, 17, 5, 0, 2, -2, -1, 0,-2.9468704507583485,0.7995810679109667
1503695035091,-0.916,-0.390,+0.031,+0.091,+0.827,-0.011,-0.617,-0.625,+8.125,-8.000,-1, -11, -8, 0, -5, 0, -2, -1,-2.949655591611293,0.803956145809682
1503695035113,-0.916,-0.391,+0.031,+0.090,+0.810,-0.010,-0.612,-3.000,-1.500,-7.062,-6, -21, -9, -4, -4, -1, 0, -2,-2.9516872267251144,0.8063085876160516
1503695035136,-0.916,-0.390,+0.033,+0.090,+0.802,-0.009,-0.617,-8.312,-11.562,-6.625,3, -1, 2, 8, 27, 9, 0, 4,-2.9499224269925537,0.8043472416372314
1503695035151,-0.917,-0.387,+0.034,+0.089,+0.794,+0.003,-0.632,-9.500,-17.438,-6.750,5, 36, 24, 4, -16, -9, -1, -1,-2.9507914242676025,0.7978872591305878
1503695035173,-0.918,-0.384,+0.036,+0.088,+0.803,+0.010,-0.667,-6.000,-24.500,-9.562,2, -20, -25, -9, -4, 0, 3, 4,-2.950930422006714,0.7916674608854586
1503695035196,-0.921,-0.378,+0.036,+0.087,+0.706,+0.012,-0.703,-1.000,-33.375,-9.312,4, 7, 12, 4, -2, 0, 0, -6,-2.9530029978530212,0.7789634277895398
1503695035218,-0.923,-0.373,+0.036,+0.086,+0.615,+0.004,-0.680,-4.125,-26.438,-7.688,-8, 1, 18, 3, -2, -1, -2, -2,-2.954803831640043,0.7681426444582978
1503695035241,-0.924,-0.371,+0.037,+0.086,+0.672,-0.015,-0.695,-8.438,-13.688,-1.938,6, 0, 5, 6, 1, -1, 1, 1,-2.954180779438278,0.7641785633333706
1503695035256,-0.924,-0.369,+0.038,+0.087,+0.776,+0.007,-0.694,-10.125,-11.688,+0.875,5, 0, 0, 1, 4, 0, -3, -1,-2.9512277688045447,0.7597435364883163
1503695035279,-0.925,-0.367,+0.039,+0.088,+0.792,+0.029,-0.707,-10.625,-17.312,+3.188,-1, 24, 5, -4, -8, -2, -5, -3,-2.9488094264431584,0.7558566133983372
1503695035293,-0.926,-0.364,+0.040,+0.090,+0.712,+0.046,-0.694,-6.500,-20.375,+9.312,3, 9, 1, 0, 1, 2, 2, 2,-2.9443823545158883,0.7496913774940821
1503695035316,-0.927,-0.361,+0.039,+0.092,+0.651,+0.049,-0.721,-3.062,-16.000,+11.062,-11, -3, 2, 2, 10, 1, -3, -7,-2.941384664572354,0.7430632006019443
1503695035339,-0.928,-0.358,+0.039,+0.094,+0.631,+0.037,-0.726,-0.375,-10.250,+13.125,-1, -1, 0, 4, 4, -1, -3, -3,-2.9376734694225464,0.7366902503897376
1503695035353,-0.928,-0.357,+0.038,+0.096,+0.632,+0.022,-0.741,+0.062,-2.188,+13.875,-8, 1, 5, 3, -4, -2, -2, -2,-2.9345199600020084,0.7342242015897956
1503695035376,-0.928,-0.357,+0.036,+0.098,+0.669,+0.006,-0.713,+1.750,+2.375,+12.562,4, 4, -1, -4, -12, -6, -4, -5,-2.932282673364805,0.7338476668532595
1503695035391,-0.928,-0.358,+0.035,+0.099,+0.702,+0.008,-0.731,+4.562,+3.438,+8.625,0, -1, 4, 8, 10, 1, 2, 3,-2.9313948994331396,0.735994816223392
1503695035413,-0.928,-0.358,+0.034,+0.099,+0.691,-0.007,-0.721,+6.625,+1.062,+3.062,6, 12, 16, 13, 9, 1, 4, 4,-2.932094739035509,0.7357554347076158
1503695035438,-0.928,-0.359,+0.032,+0.099,+0.665,-0.006,-0.730,+6.875,+5.250,+4.188,-14, -11, -18, -10, -8, -4, 0, 0,-2.9337282914751692,0.73762270703251
1503695035451,-0.927,-0.361,+0.031,+0.099,+0.640,+0.002,-0.740,+9.312,+14.812,+4.500,-1, -4, 1, -1, 0, 0, 0, 0,-2.934331522525489,0.7415411001740428
1503695035475,-0.926,-0.364,+0.029,+0.099,+0.614,-0.007,-0.716,+9.125,+23.625,+4.000,7, 18, 5, 4, 2, 0, -4, -2,-2.935898987520229,0.7475898718526458
1503695035496,-0.924,-0.368,+0.028,+0.099,+0.665,-0.010,-0.700,+8.875,+31.000,+5.750,1, 0, 5, 2, 2, 0, -3, -3,-2.936465026053096,0.7557039237905389
1503695035518,-0.922,-0.374,+0.027,+0.098,+0.736,+0.005,-0.692,+10.500,+35.938,+2.750,8, -9, -10, -11, -10, 0, -1, 0,-2.939370161051975,0.7685352509831146
1503695035533,-0.920,-0.380,+0.025,+0.097,+0.785,-0.051,-0.647,+10.312,+28.500,-0.625,-2, -4, -3, -2, -8, -1, -3, -3,-2.9430610600065723,0.781225627499157
1503695035556,-0.918,-0.383,+0.024,+0.096,+0.780,-0.035,-0.659,+9.125,+20.688,-5.938,-7, -13, -9, -4, -1, -5, -3, -4,-2.945302664969857,0.787043995038347
1503695035579,-0.917,-0.387,+0.023,+0.094,+0.752,-0.035,-0.643,+8.375,+18.562,-7.000,-5, -14, -9, -9, -17, -5, 0, 4,-2.9501470570562462,0.7957820458302097
1503695035593,-0.916,-0.389,+0.023,+0.092,+0.729,-0.022,-0.647,+4.312,+15.688,-5.750,-5, 5, 11, 8, 5, -1, 0, 2,-2.9537374753073107,0.7999600347298282
1503695035616,-0.915,-0.392,+0.023,+0.092,+0.759,-0.041,-0.628,+1.312,+16.000,-2.250,2, -2, -7, -6, 2, -2, -6, -2,-2.9539740624409596,0.8066077426813772
1503695035639,-0.914,-0.395,+0.024,+0.092,+0.802,-0.031,-0.633,-3.375,+13.500,-1.875,-10, -14, -7, 0, 5, 1, 0, 0,-2.953441841384931,0.8134660256415958
1503695035653,-0.913,-0.397,+0.024,+0.091,+0.828,-0.012,-0.635,-2.312,+8.562,-4.625,3, 8, 6, -1, 9, 2, 0, -2,-2.9552317602107845,0.8177029756226444
1503695035676,-0.913,-0.398,+0.024,+0.090,+0.812,-0.020,-0.622,+1.188,+2.625,-4.812,-1, 1, 0, 1, -2, 0, 0, -2,-2.957271740570898,0.8200794061973107
1503695035690,-0.913,-0.398,+0.025,+0.089,+0.766,-0.031,-0.625,-0.062,-1.438,-5.250,-4, -1, -3, -4, 1, 0, 0, 0,-2.958283573040626,0.8202397694318447
1503695035714,-0.913,-0.397,+0.025,+0.089,+0.731,-0.032,-0.636,-3.562,-4.562,-3.438,-1, -2, -5, -1, -5, -5, -1, -3,-2.95804269619547,0.8178306049519528
1503695035736,-0.913,-0.397,+0.026,+0.089,+0.769,-0.018,-0.638,-6.250,-1.688,-1.562,-5, 4, 0, 2, 3, 0, 0, 0,-2.9572614750608124,0.8180268148598463
1503695035751,-0.913,-0.396,+0.027,+0.089,+0.817,-0.027,-0.631,-8.188,-5.375,-2.938,9, 5, -1, 3, 2, 1, 1, 5,-2.95624113304805,0.8158188685628821
1503695035773,-0.914,-0.395,+0.028,+0.089,+0.783,+0.002,-0.650,-7.438,-12.812,-4.312,-6, -1, 2, 0, -2, 0, -3, -8,-2.9557246761322205,0.8141586276854289
1503695035796,-0.915,-0.392,+0.029,+0.088,+0.741,+0.010,-0.676,-2.500,-14.375,-6.312,2, -9, -4, 0, 1, -1, -1, -2,-2.9565471677762636,0.8076619226260902
1503695035811,-0.917,-0.389,+0.029,+0.087,+0.667,-0.002,-0.676,-2.750,-12.188,-5.375,-5, 6, 4, 1, -1, -1, -7, 1,-2.9586586282719027,0.8015167208413797
1503695035833,-0.917,-0.388,+0.029,+0.087,+0.668,-0.026,-0.690,-2.188,-4.062,-3.188,3, 1, -1, 2, 0, 0, 3, -4,-2.958432870461657,0.7991241838878703
1503695035855,-0.917,-0.388,+0.030,+0.086,+0.748,-0.015,-0.692,-3.312,+2.375,-3.750,0, -4, -4, -3, 1, -1, -4, 0,-2.95947380456213,0.7992882807639421
1503695035873,-0.917,-0.388,+0.031,+0.085,+0.751,+0.001,-0.659,-1.875,+0.688,-8.000,-1, 5, 4, 2, 1, 2, 2, -7,-2.96051513790505,0.7994524573329093
1503695035893,-0.918,-0.388,+0.031,+0.084,+0.744,-0.003,-0.635,-2.562,-4.750,-9.500,-6, -3, -1, 1, 1, 0, 1, -17,-2.9628090598953767,0.799950009623249
1503695035916,-0.918,-0.387,+0.033,+0.082,+0.777,+0.043,-0.641,-4.750,-5.188,-12.688,-3, 0, 0, -5, -9, -2, 1, 2,-2.9646834467011924,0.7978848926594672
1503695035931,-0.919,-0.385,+0.034,+0.080,+0.800,-0.008,-0.654,-1.375,-14.312,-14.062,1, 3, 2, 3, 2, 0, -1, -10,-2.96761373534232,0.7937638970112754
1503695035953,-0.919,-0.384,+0.035,+0.078,+0.770,-0.001,-0.642,-4.500,-13.125,-9.188,0, -3, -3, -3, -4, -1, -1, 0,-2.9702821773931762,0.7914904997359998
1503695035977,-0.920,-0.382,+0.036,+0.078,+0.738,+0.014,-0.655,-6.312,-12.250,-5.500,5, 27, 16, 5, 1, 0, -3, -2,-2.9696178606656543,0.787474457250712
1503695035991,-0.921,-0.380,+0.037,+0.078,+0.777,+0.012,-0.686,-6.688,-14.500,-1.188,-3, -7, -6, -1, -5, -1, 6, 5,-2.9689658399562004,0.7834677375797429
1503695036013,-0.922,-0.377,+0.037,+0.079,+0.745,+0.034,-0.664,-6.562,-18.438,+0.875,-3, -6, -5, -5, -2, 0, 1, 3,-2.9670664910465163,0.7769332465452046
1503695036036,-0.923,-0.374,+0.038,+0.080,+0.740,+0.018,-0.684,-6.875,-19.438,+2.500,2, -4, -2, -2, -1, 1, 2, 4,-2.964431254414443,0.7706338166332415
1503695036058,-0.925,-0.370,+0.038,+0.081,+0.738,+0.019,-0.710,-8.000,-23.000,+3.562,-3, -5, -6, -3, -3, -1, -1, -2,-2.9628498186765118,0.7623069790824316
1503695036074,-0.926,-0.367,+0.039,+0.082,+0.678,+0.033,-0.719,-5.625,-20.688,+4.125,0, -9, -7, -4, 0, 0, -1, -2,-2.960243884274871,0.7560501698202042
1503695036096,-0.927,-0.364,+0.039,+0.083,+0.639,+0.031,-0.692,-5.750,-13.562,+9.062,-1, 12, 13, 7, 5, 0, -3, -4,-2.958367238251078,0.7495851772447659
1503695036118,-0.928,-0.362,+0.039,+0.085,+0.662,+0.009,-0.721,-4.750,-10.875,+5.688,1, -9, -5, -6, -3, -2, -2, -2,-2.9548609527442236,0.7455373604570924
1503695036134,-0.928,-0.360,+0.039,+0.086,+0.680,+0.019,-0.737,-4.438,-5.375,+6.000,-3, 2, 0, 2, 0, 0, 0, 4,-2.952652921164118,0.740907619175165
1503695036156,-0.928,-0.360,+0.039,+0.087,+0.672,+0.019,-0.720,-2.312,-2.812,+5.375,-3, -7, -3, -2, 3, -1, -3, 1,-2.9508294077325865,0.740965176597759
1503695036171,-0.928,-0.360,+0.038,+0.088,+0.663,+0.012,-0.715,-2.625,+1.812,+7.250,-1, -5, -5, -3, 1, -1, -4, -12,-2.949713924212735,0.740788914615186
1503695036193,-0.928,-0.360,+0.038,+0.089,+0.691,+0.008,-0.700,-3.125,+4.625,+4.562,0, 0, -1, -1, -2, 0, 3, 4,-2.947892484950526,0.7408449967553877
1503695036216,-0.927,-0.361,+0.038,+0.089,+0.740,+0.000,-0.694,-3.188,+4.438,+4.312,-5, -6, -3, -2, -2, 0, 0, 0,-2.947555343009381,0.7426555020715314
1503695036231,-0.927,-0.362,+0.039,+0.090,+0.774,+0.005,-0.688,-3.812,-1.062,+1.875,-2, 15, 10, 0, 0, -3, -3, 0,-2.9452298801357766,0.7452919561556679
1503695036253,-0.927,-0.361,+0.039,+0.090,+0.730,+0.029,-0.701,-3.562,-7.250,+0.562,-1, -15, -12, -6, -2, -4, -1, 0,-2.945023958938176,0.7429482970876378
1503695036278,-0.928,-0.360,+0.039,+0.090,+0.668,+0.043,-0.716,-0.750,-6.250,+0.750,2, -2, -4, -4, -7, -6, -3, -7,-2.9453666105064658,0.7411378125020338
1503695036291,-0.928,-0.359,+0.039,+0.091,+0.660,+0.007,-0.684,-1.000,-2.875,+2.812,-1, 3, 6, 0, -2, 1, 3, 0,-2.943341780766538,0.7388552088831731
1503695036313,-0.928,-0.359,+0.039,+0.091,+0.739,-0.018,-0.694,-3.688,-1.562,+2.000,9, 2, 1, -5, -4, 1, -3, 1,-2.943341780766538,0.7388552088831731
1503695036335,-0.928,-0.358,+0.039,+0.091,+0.754,+0.019,-0.708,-3.500,-7.938,-1.375,-2, -6, -3, 2, 0, 2, 0, 5,-2.943135467122659,0.7365168847151947
1503695036351,-0.929,-0.356,+0.040,+0.091,+0.699,+0.031,-0.716,-1.625,-12.875,-2.000,-3, -17, -10, -1, -2, -2, -1, -2,-2.942580712453507,0.7326164671347463
1503695036373,-0.930,-0.354,+0.039,+0.091,+0.642,+0.017,-0.732,-1.500,-10.500,+0.188,-6, 5, 8, 5, 3, 2, 2, -2,-2.9434267515998735,0.7282396833836519
1503695036396,-0.930,-0.354,+0.038,+0.092,+0.646,-0.036,-0.707,+1.062,-0.125,+7.750,3, 14, 1, 4, 2, 0, 1, 1,-2.94229755671384,0.7280580777466041
1503695036412,-0.930,-0.354,+0.038,+0.093,+0.695,+0.013,-0.720,-2.875,+3.625,+2.562,-2, 3, -3, 8, 8, 1, -2, 0,-2.9404754652444764,0.7281148055345961
1503695036434,-0.930,-0.355,+0.039,+0.093,+0.733,+0.008,-0.720,-3.500,-0.562,+0.750,-1, -6, -7, -7, -5, -1, 1, 1,-2.939989616298131,0.7306874495333918
1503695036456,-0.930,-0.354,+0.039,+0.093,+0.705,+0.027,-0.720,-2.250,-5.312,-1.812,2, 3, 4, -1, 1, -3, -4, -1,-2.9397822498210733,0.7283561047496665
1503695036478,-0.930,-0.353,+0.039,+0.093,+0.672,+0.020,-0.730,-1.125,-4.188,-0.312,0, -1, 0, -6, -6, -3, 2, 1,-2.9395751034346254,0.726026577008186
1503695036493,-0.930,-0.353,+0.039,+0.093,+0.657,+0.018,-0.727,-0.812,+0.688,+1.000,1, -4, -2, 5, 5, 0, -5, -5,-2.9395751034346254,0.726026577008186
1503695036523,-0.930,-0.353,+0.039,+0.093,+0.684,+0.020,-0.727,-0.625,+4.500,+2.500,-4, -6, -13, -7, 3, 1, 0, -2,-2.9395751034346254,0.726026577008186
1503695036539,-0.930,-0.354,+0.039,+0.093,+0.704,+0.027,-0.722,+0.375,+5.812,+3.688,1, -5, -1, 4, 6, 0, -5, -2,-2.9397822498210733,0.7283561047496665
1503695036553,-0.929,-0.355,+0.038,+0.094,+0.720,+0.028,-0.717,+2.250,+6.062,+5.062,-1, 1, 0, 1, 6, -2, 0, -5,-2.9383004067538776,0.7299738814277635
1503695036578,-0.929,-0.357,+0.037,+0.094,+0.721,+0.029,-0.728,+3.812,+8.125,+8.438,0, -3, -2, -3, -8, 0, 1, -9,-2.9394242856441646,0.7344013075884952
1503695036591,-0.928,-0.359,+0.036,+0.096,+0.719,+0.022,-0.709,+7.812,+12.250,+11.688,-11, -13, -4, -6, 0, 0, -2, -14,-2.9363632571525144,0.7384147264790887
1503695036613,-0.927,-0.362,+0.033,+0.097,+0.745,-0.037,-0.681,+8.625,+13.062,+12.625,3, 2, -13, -2, -4, 0, -1, -20,-2.936775928589387,0.7442520377413122
1503695036635,-0.925,-0.365,+0.031,+0.099,+0.752,-0.068,-0.706,+7.312,+12.000,+11.875,-12, -17, -12, -4, 1, -1, -12, -14,-2.9341469441287664,0.7498579816668418
1503695036658,-0.925,-0.367,+0.029,+0.099,+0.749,-0.027,-0.709,+5.750,+10.938,+7.812,7, 7, -1, -4, -3, -3, 4, 16,-2.936061907236297,0.7541074471054023
1503695036673,-0.924,-0.369,+0.028,+0.099,+0.757,-0.006,-0.718,+8.625,+11.125,+3.062,-1, -1, 2, -2, -1, -3, 0, -3,-2.9367102446392397,0.7580599494021519
1503695044039,-0.909,-0.408,-0.007,+0.088,+0.782,-0.083,-0.623,-9.375,+2.500,+29.125,-1, -1, -1, -6, -12, -2, -2, -1,-2.9863094725570107,0.8375984652094642
1503695044064,-0.909,-0.405,-0.006,+0.092,+0.771,-0.026,-0.678,-12.750,-13.750,+21.062,1, 5, 11, 7, 8, 4, 1, 1,-2.977475389945022,0.8303608177245025
1503695044083,-0.909,-0.404,-0.006,+0.097,+0.698,-0.078,-0.629,-12.875,-2.812,+24.625,2, 7, -2, -2, -4, -2, -3, 0,-2.968174490668231,0.8278888015544608
1503695044101,-0.910,-0.402,-0.005,+0.101,+0.725,-0.063,-0.672,-16.125,-10.312,+23.438,-1, 3, -1, -3, -8, -3, 3, 0,-2.9600339681740326,0.8236692728917074
1503695044121,-0.910,-0.401,-0.005,+0.106,+0.735,-0.106,-0.644,-10.562,-3.125,+23.188,0, -3, -1, -5, -9, -1, -1, -3,-2.9507453506483308,0.8212095210270273
1503695044143,-0.910,-0.401,-0.005,+0.109,+0.704,-0.095,-0.662,-12.062,+2.625,+18.875,-2, 2, 2, 0, -3, -1, -1, -3,-2.945367967701734,0.8211889904369307
1503695044159,-0.909,-0.400,-0.005,+0.114,+0.729,-0.105,-0.659,-12.438,-1.062,+22.125,0, 4, 1, 1, -6, -2, 1, -2,-2.935571672986069,0.8181813442492604
1503695044181,-0.909,-0.401,-0.005,+0.117,+0.754,-0.117,-0.642,-6.625,+5.812,+17.188,0, -3, -3, -1, 7, 0, -3, 2,-2.9305517586636682,0.8205849861855736
1503695044203,-0.909,-0.400,-0.005,+0.119,+0.758,-0.109,-0.665,-8.500,-4.000,+12.125,-1, -4, -3, -2, -4, -1, -1, 0,-2.9266333177515778,0.8181469845576866
1503695044219,-0.909,-0.399,-0.005,+0.121,+0.772,-0.109,-0.653,-10.125,-6.562,+9.312,-1, 3, -4, -6, -17, -6, -2, -3,-2.9227095462832757,0.815710703716995
1503695044241,-0.910,-0.395,-0.004,+0.122,+0.709,-0.085,-0.678,-9.750,-19.000,+3.500,0, -3, -2, 0, -2, -2, 1, -3,-2.9192720670976953,0.8067387157206272
1503695044265,-0.911,-0.393,-0.003,+0.123,+0.672,-0.114,-0.660,-7.562,-13.000,+1.062,0, 1, 2, -9, -15, -1, 0, 1,-2.9165659011999843,0.8026206766694806
1503695044279,-0.912,-0.391,-0.003,+0.123,+0.681,-0.116,-0.671,-7.375,-8.000,-1.312,5, 12, 10, 5, 3, 1, 0, 1,-2.916427421012491,0.7983543165791978
1503695044302,-0.913,-0.390,-0.002,+0.123,+0.696,-0.102,-0.677,-7.750,-4.000,-4.125,-3, -4, -5, 3, 13, 4, 0, 2,-2.91588582114093,0.7966635311861564
1503695044323,-0.913,-0.389,-0.001,+0.123,+0.716,-0.099,-0.678,-6.625,-2.625,-5.812,-3, -2, 4, 2, 0, -2, 2, -3,-2.9147697066098206,0.7944300218423179
1503695044339,-0.913,-0.389,+0.000,+0.122,+0.732,-0.107,-0.662,-7.312,-0.750,-6.188,-4, -3, -3, 2, 6, -1, 0, -2,-2.915795955333718,0.7946017521459334
1503695044361,-0.913,-0.389,+0.002,+0.122,+0.766,-0.104,-0.661,-8.750,+2.500,-6.000,1, -6, -8, -1, 2, 0, -4, -4,-2.9142724249092957,0.7949508188054216
1503695044383,-0.913,-0.390,+0.003,+0.122,+0.799,-0.088,-0.652,-8.750,+1.438,-4.375,-7, -3, -5, -5, 3, 0, 0, -2,-2.9138585090687914,0.7975297170558833
1503695044400,-0.913,-0.390,+0.005,+0.122,+0.803,-0.069,-0.640,-8.562,-3.188,-2.438,2, 2, 12, 6, 5, 3, -1, -1,-2.9123348797155724,0.7978947628835876
1503695044422,-0.913,-0.389,+0.006,+0.122,+0.785,-0.078,-0.632,-9.000,-6.625,+0.125,3, -5, 1, -3, -4, -3, -1, -1,-2.9112285892476275,0.7956826423525085
1503695044444,-0.914,-0.388,+0.007,+0.123,+0.770,-0.093,-0.648,-10.500,-10.125,+1.250,-3, -8, -1, 4, 7, 0, -1, -4,-2.908944233809744,0.7940317976479303
1503695044459,-0.914,-0.386,+0.008,+0.124,+0.770,-0.082,-0.662,-9.438,-13.750,+1.562,-3, 4, 5, 4, 6, 0, -2, -1,-2.905716014081171,0.7894507226041046
1503695044482,-0.915,-0.383,+0.009,+0.124,+0.735,-0.072,-0.673,-10.250,-17.562,+0.938,-1, 3, 1, 0, 5, 4, 0, -2,-2.904548294183088,0.7830300899115379
1503695044505,-0.916,-0.380,+0.010,+0.125,+0.684,-0.072,-0.696,-9.062,-15.375,+2.312,-1, -6, -7, -4, -2, -1, -1, 1,-2.9016116975272004,0.7766445030766834
1503695044519,-0.916,-0.380,+0.010,+0.127,+0.660,-0.119,-0.667,-6.562,+0.875,+9.438,-1, -4, -2, 3, 2, 0, 1, -1,-2.8980395312323544,0.776673124112109
1503695044541,-0.917,-0.379,+0.011,+0.128,+0.751,-0.046,-0.690,-12.438,-5.562,+2.875,-2, -8, -2, -4, -8, -2, 0, 2,-2.895812889484357,0.7750651311889939
1503695044563,-0.917,-0.377,+0.012,+0.130,+0.682,-0.062,-0.688,-9.562,-7.000,+3.625,-1, -5, -6, -6, -9, -2, 0, 1,-2.890816815783333,0.7705651246250595
1503695044580,-0.917,-0.377,+0.012,+0.130,+0.721,-0.107,-0.675,-5.750,-1.688,+3.312,-1, 3, 1, 3, 8, 2, 0, -2,-2.890816815783333,0.7705651246250595
1503695044602,-0.917,-0.376,+0.014,+0.131,+0.749,-0.083,-0.693,-11.125,-7.375,-1.438,-1, -3, -7, -5, -5, -2, -2, -2,-2.887220516310591,0.7686605831798691
1503695044623,-0.918,-0.374,+0.015,+0.131,+0.722,-0.072,-0.691,-11.250,-8.875,-4.125,4, 1, 0, -1, 1, -1, -2, 1,-2.886463911182404,0.7646948218252966
1503695044640,-0.919,-0.372,+0.017,+0.131,+0.709,-0.035,-0.707,-8.812,-7.062,-3.438,-2, 2, -1, 2, 10, 1, 1, -1,-2.8850006766363516,0.7609750894855711
1503695044661,-0.919,-0.371,+0.018,+0.131,+0.706,-0.037,-0.696,-5.750,-4.938,-2.125,2, 16, 13, 7, 4, 2, 1, 0,-2.883935883371099,0.7588527416878357
1503695044683,-0.919,-0.371,+0.018,+0.130,+0.708,-0.057,-0.697,-3.562,-2.812,-1.875,-3, -6, -4, -3, 1, -1, -2, -3,-2.8857188111702756,0.7588265623724757
1503695044703,-0.919,-0.371,+0.019,+0.130,+0.715,-0.047,-0.692,-1.438,+0.938,-1.562,0, -5, -7, 0, -6, -2, -1, 1,-2.8849988429154036,0.7590666376621483
1503695044721,-0.919,-0.371,+0.019,+0.130,+0.722,-0.050,-0.698,+0.125,+2.312,-0.375,0, -4, -2, 4, -1, -1, 1, -1,-2.8849988429154036,0.7590666376621483
1503695044743,-0.919,-0.372,+0.018,+0.129,+0.735,-0.053,-0.701,+1.812,+2.250,-1.938,-1, 1, 4, -4, -5, 0, 1, 1,-2.887842818624066,0.7611613279298775
1503695044759,-0.919,-0.372,+0.018,+0.129,+0.704,-0.033,-0.703,+4.375,+2.562,-2.812,-3, 9, 0, 0, 5, 1, -3, -4,-2.887842818624066,0.7611613279298775
1503695044781,-0.919,-0.372,+0.017,+0.127,+0.690,-0.034,-0.700,+8.375,+3.188,-2.438,2, -11, -14, -2, 2, -1, 0, 3,-2.8921352760733012,0.7608763881418729
1503695044804,-0.919,-0.374,+0.015,+0.127,+0.703,-0.070,-0.682,+9.812,+8.625,+0.188,-4, -8, -5, 2, 10, 2, -1, -2,-2.8942572799361383,0.7651489151931343
1503695044819,-0.918,-0.376,+0.014,+0.127,+0.720,-0.095,-0.673,+8.625,+13.250,+1.938,6, 22, 29, 5, -1, 2, 3, 0,-2.8950106880592545,0.7691217114246106
1503695044845,-0.917,-0.379,+0.013,+0.126,+0.764,-0.065,-0.679,+7.250,+13.000,+2.000,0, 9, -4, -2, 1, -1, -1, 0,-2.897903222324937,0.7754618754968701
1503695044864,-0.916,-0.381,+0.012,+0.126,+0.768,-0.059,-0.660,+6.750,+6.812,+2.875,2, -13, -11, -4, -5, -1, -2, 0,-2.898687540525445,0.7794609356747997
1503695044879,-0.916,-0.382,+0.010,+0.126,+0.752,-0.080,-0.665,+6.688,+3.625,+3.625,-2, -8, -2, -1, 0, -4, 0, -2,-2.9005165404417275,0.7814217141684973
1503695044903,-0.916,-0.382,+0.009,+0.126,+0.736,-0.091,-0.672,+6.312,+0.625,+2.750,-1, -4, -7, -5, -3, -1, -3, -4,-2.901259440231681,0.7812154523177747
1503695044923,-0.915,-0.382,+0.007,+0.126,+0.734,-0.100,-0.666,+5.500,+0.812,+2.562,-8, -20, -13, -9, -19, -6, -3, -1,-2.9021212108463903,0.7802664653127563
1503695044940,-0.915,-0.383,+0.006,+0.126,+0.726,-0.082,-0.673,+4.125,+1.250,+1.125,0, -1, 1, -8, -8, -5, -2, 0,-2.9032190519057193,0.7824541397429586
1503695044960,-0.915,-0.383,+0.005,+0.125,+0.701,-0.067,-0.689,+6.312,+0.875,-1.688,-2, 1, -2, -7, -22, -4, -1, -1,-2.9057533527249384,0.7822520374489331
1503695044983,-0.916,-0.383,+0.004,+0.124,+0.692,-0.097,-0.677,+8.188,+1.188,-3.688,-2, 1, 0, 2, 5, 0, -2, 0,-2.9088970562550482,0.7826009143036352
1503695044998,-0.915,-0.384,+0.003,+0.123,+0.692,-0.115,-0.661,+4.875,+6.500,-3.250,-1, -6, -3, -3, -5, -3, -2, -1,-2.9111777113152466,0.7842537067049219
1503695045020,-0.915,-0.385,+0.003,+0.122,+0.719,-0.102,-0.671,+2.250,+9.625,-3.438,-3, -6, -3, -8, -18, -5, -3, 0,-2.913311674546744,0.7866403423507463
1503695045043,-0.914,-0.387,+0.003,+0.122,+0.750,-0.091,-0.662,+0.812,+8.062,-4.625,0, 7, 12, 7, 10, -3, -1, -6,-2.9134090374947648,0.7908815204800336
1503695045058,-0.914,-0.388,+0.003,+0.121,+0.784,-0.111,-0.641,-2.875,+5.938,-4.375,-5, -6, -3, -10, -24, -6, -4, -3,-2.9155402923538705,0.7932737376750122
1503695045080,-0.913,-0.389,+0.004,+0.121,+0.777,-0.090,-0.648,-5.000,+1.875,-4.000,2, -2, -11, -4, -17, 1, 3, 5,-2.914536713947834,0.7953054927460951
1503695045103,-0.914,-0.388,+0.005,+0.120,+0.766,-0.070,-0.650,-4.938,-5.500,-5.875,4, 15, 12, -5, -7, -3, 0, 2,-2.9158100286830977,0.7936302813873763
1503695045118,-0.914,-0.387,+0.006,+0.119,+0.756,-0.082,-0.659,-4.000,-10.312,-8.250,1, -6, 3, 0, -10, -3, 0, 0,-2.9165031865309916,0.7914112014085786
1503695045141,-0.915,-0.385,+0.007,+0.118,+0.707,-0.089,-0.664,-4.812,-11.562,-8.312,-2, 0, 3, 5, 15, 4, -1, 0,-2.917459072914057,0.787348994247716
1503695045163,-0.916,-0.384,+0.008,+0.117,+0.724,-0.094,-0.657,-6.750,-5.188,-5.438,-4, -3, -5, -3, -1, -4, -5, -6,-2.9187550865462377,0.7856817869646348
1503695045179,-0.916,-0.383,+0.009,+0.118,+0.760,-0.062,-0.666,-8.812,-4.188,-2.188,-1, 1, 7, 8, 9, 3, 3, 1,-2.9158886588347026,0.7834977799352263
1503695045200,-0.917,-0.382,+0.010,+0.117,+0.764,-0.053,-0.674,-7.812,-9.188,-3.250,-3, -6, -6, 1, 10, 1, -7, -8,-2.917198821931993,0.7818372802852095
1503695045223,-0.918,-0.380,+0.011,+0.117,+0.730,-0.076,-0.670,-7.438,-15.062,-4.000,0, 8, 0, -4, -4, -1, 2, 6,-2.91640673397311,0.7778133393357505
1503695045244,-0.919,-0.377,+0.012,+0.117,+0.723,-0.098,-0.671,-9.688,-15.312,-4.438,-1, -8, -4, -3, -6, -2, -1, -1,-2.9153129323655933,0.7714250311497856
1503695045260,-0.919,-0.375,+0.014,+0.117,+0.729,-0.075,-0.673,-12.188,-14.188,-4.438,-1, 4, 9, -2, -2, -3, -4, 0,-2.9132152008927354,0.7670911203738403
1503695045283,-0.920,-0.373,+0.016,+0.117,+0.731,-0.048,-0.683,-13.500,-14.875,-4.125,1, -8, -11, 0, 8, 0, 4, 3,-2.9117398674681154,0.7633184725407238
1503695050609,-0.861,-0.496,-0.103,-0.049,+0.901,-0.135,-0.465,+0.562,-13.000,-4.500,-3, -1, 0, -3, -1, -1, -3, -3,2.952478451732196,1.0578496403573199
1503695050630,-0.862,-0.494,-0.103,-0.051,+0.893,-0.156,-0.473,+3.062,-18.250,-7.812,6, 5, 7, 1, 0, 0, 1, 3,2.9492795637581293,1.0533603939849752
1503695050645,-0.864,-0.491,-0.103,-0.053,+0.885,-0.164,-0.465,+3.438,-18.875,-11.188,-2, -15, -15, -2, -4, -1, -4, 0,2.9464667948833556,1.046791990841346
1503695050667,-0.865,-0.489,-0.103,-0.055,+0.881,-0.166,-0.449,+2.938,-15.875,-9.562,1, -3, 3, 0, 3, -1, 0, -1,2.943264428955456,1.042331779645487
1503695050683,-0.865,-0.487,-0.104,-0.056,+0.915,-0.157,-0.459,+2.000,-12.688,-4.750,1, 9, 4, 1, -1, -1, -2, -1,2.9402201672253123,1.0376955404389032
1503695050705,-0.866,-0.486,-0.104,-0.057,+0.906,-0.144,-0.476,+4.938,-11.062,-3.688,1, 2, 0, -2, 1, -1, 2, 1,2.93891078753295,1.0357248866902078
1503695050727,-0.867,-0.483,-0.105,-0.058,+0.875,-0.162,-0.457,+4.812,-18.625,-5.812,-1, 10, 7, 2, -1, 0, -1, -1,2.9362685725344586,1.029035914047412
1503695050744,-0.869,-0.480,-0.105,-0.059,+0.878,-0.174,-0.414,-1.562,-24.750,-5.375,-7, -29, -19, -2, -2, -1, 0, -2,2.9351859850998383,1.0224490459978286
1503695050765,-0.870,-0.478,-0.104,-0.059,+0.890,-0.154,-0.422,-6.625,-20.625,-3.625,3, 0, 4, 1, 0, 0, 2, 4,2.936354573349394,1.01740695826859
1503695050788,-0.872,-0.475,-0.103,-0.060,+0.877,-0.112,-0.473,-2.062,-20.875,-5.062,-2, 10, -4, -2, -2, 0, -1, -4,2.9362108218380834,1.0104395958184256
1503695050802,-0.874,-0.470,-0.102,-0.062,+0.848,-0.113,-0.509,-1.875,-29.875,-8.000,4, 9, 8, -1, -1, 0, -2, 1,2.9339583707402936,0.9985133077963306
1503695050825,-0.877,-0.466,-0.100,-0.064,+0.798,-0.106,-0.506,-6.188,-29.812,-8.438,-3, 1, -1, -2, -3, -3, -1, -2,2.9334029792613387,0.9892885669668675
1503695050848,-0.879,-0.462,-0.098,-0.065,+0.762,-0.101,-0.489,-5.625,-24.375,-9.312,1, 7, 11, 3, 2, -1, -1, 0,2.9339441243508357,0.9794888876482254
1503695050863,-0.880,-0.461,-0.097,-0.066,+0.813,-0.093,-0.474,-8.500,-11.812,-8.375,-9, 1, 6, 1, 0, 1, -1, -9,2.9335314704899274,0.9771889624385733
1503695050885,-0.881,-0.460,-0.095,-0.067,+0.883,-0.083,-0.551,-7.500,-7.625,-5.562,-2, -7, -3, 1, -1, -1, 2, 0,2.934016971601977,0.9745006525168521
1503695050907,-0.882,-0.457,-0.093,-0.067,+0.886,-0.064,-0.551,-7.125,-18.812,-3.500,-7, -2, 1, 0, 0, 1, -4, -5,2.935835097956609,0.9666783836886915
1503695050922,-0.884,-0.454,-0.091,-0.068,+0.818,-0.037,-0.566,-7.562,-20.438,-4.000,3, -2, -3, -4, -10, -2, 1, 4,2.93649508094376,0.9595168977185803
1503695050945,-0.885,-0.452,-0.089,-0.069,+0.757,-0.019,-0.582,-4.125,-10.938,-3.062,4, 0, -4, 1, 5, -2, -2, 0,2.9367389955489056,0.9543721356401473
1503695050968,-0.885,-0.452,-0.089,-0.068,+0.716,-0.055,-0.528,-4.438,+6.438,+2.000,0, 1, 5, 0, 0, 0, 2, -2,2.938479781339644,0.9542687552745153
1503695050985,-0.883,-0.456,-0.089,-0.066,+0.800,-0.088,-0.517,-5.438,+25.438,+9.188,-5, 3, 1, 6, 6, 2, -2, 0,2.9415620843653816,0.9630705735142849
1503695051005,-0.881,-0.460,-0.089,-0.063,+0.916,-0.086,-0.518,-6.375,+27.250,+12.875,-1, -13, -5, 1, 0, -1, 3, 1,2.9463846474440882,0.971808744512379
1503695051028,-0.880,-0.462,-0.089,-0.062,+0.943,-0.056,-0.516,-7.188,+10.938,+9.562,-1, 2, 4, 2, 0, -1, -2, -2,2.9479266150725367,0.9762429533914887
1503695051042,-0.881,-0.461,-0.088,-0.061,+0.906,-0.069,-0.527,-7.688,-10.312,+4.812,-3, -17, -16, -5, 0, -4, -2, -1,2.9509499058180495,0.9737710990464266
1503695051065,-0.883,-0.458,-0.087,-0.060,+0.826,-0.091,-0.529,-7.375,-18.688,+3.312,-1, -14, -12, -5, -1, 1, -1, 1,2.9541660913546246,0.9667810336208656
1503695051088,-0.884,-0.456,-0.086,-0.059,+0.799,-0.109,-0.503,-9.500,-12.688,+4.562,2, -6, -3, 0, 0, -2, -4, 2,2.9570126824687994,0.9618097756706752
1503695051102,-0.884,-0.456,-0.085,-0.057,+0.814,-0.091,-0.529,-9.562,-1.250,+5.938,2, -7, -3, -1, 0, -1, -1, -3,2.961407595022869,0.9612645931065297
1503695051125,-0.884,-0.456,-0.084,-0.056,+0.836,-0.078,-0.543,-8.875,+4.812,+5.938,3, 10, 13, 6, 2, 2, 1, 2,2.9640590213806854,0.9608238444838129
1503695051141,-0.884,-0.457,-0.083,-0.055,+0.854,-0.066,-0.566,-7.375,+3.000,+4.188,-8, -26, -16, -6, -2, -1, -1, -1,2.9668678648760136,0.9629098554198752
1503695051162,-0.884,-0.456,-0.083,-0.054,+0.838,-0.074,-0.569,-4.562,+0.625,+3.875,-1, 4, -3, -3, -3, 0, 0, -3,2.9684651545428182,0.9602930206816604
1503695051185,-0.884,-0.457,-0.083,-0.053,+0.818,-0.076,-0.541,-3.375,+3.062,+4.000,-3, -7, -5, 0, 0, -1, -1, -3,2.970366960851137,0.9627193163830371
1503695051201,-0.883,-0.458,-0.083,-0.052,+0.810,-0.071,-0.563,+0.438,+15.750,+7.562,0, 4, 2, 0, 0, 0, 1, 0,2.9717671992043115,0.9646233261456503
1503695051223,-0.881,-0.462,-0.084,-0.050,+0.806,-0.070,-0.552,+0.500,+28.688,+11.812,-1, 1, -2, -2, 0, -3, -2, -2,2.973946702781043,0.9738374699966686
1503695051248,-0.879,-0.467,-0.086,-0.048,+0.807,-0.076,-0.546,+1.250,+41.125,+15.750,1, 0, 1, 3, 0, -2, -1, -2,2.975322635952518,0.9859712585638793
1503695051268,-0.875,-0.474,-0.088,-0.045,+0.844,-0.092,-0.516,+4.500,+46.812,+16.875,-1, -2, 1, 0, -3, -1, 1, -1,2.977694102471854,1.0021516541345072
1503695051285,-0.872,-0.480,-0.091,-0.043,+0.873,-0.130,-0.503,+8.438,+44.562,+14.625,-2, -1, -1, -1, -2, 0, -1, 1,2.9776760138348672,1.0168515309592137
1503695051305,-0.869,-0.485,-0.094,-0.042,+0.910,-0.141,-0.490,+10.875,+33.125,+8.562,0, -10, -2, -14, -20, -5, -1, -2,2.9757357375794444,1.0291829960475836
1503695051328,-0.867,-0.487,-0.097,-0.042,+0.916,-0.172,-0.465,+11.812,+14.938,+1.625,-1, 0, -6, -2, 3, 0, -3, 2,2.972114914226749,1.0344569883776622
1503695051343,-0.866,-0.487,-0.099,-0.044,+0.891,-0.167,-0.455,+11.562,+2.625,-4.375,-2, -13, -8, 2, 12, -1, -1, 1,2.9662162455082544,1.0349255531025994
1503695051365,-0.867,-0.487,-0.101,-0.046,+0.838,-0.167,-0.454,+12.062,-5.000,-9.750,-4, -1, 0, 5, 4, 1, -1, -4,2.9613714151671697,1.0364187304854526
1503695051388,-0.867,-0.486,-0.102,-0.049,+0.830,-0.164,-0.456,+10.062,-7.000,-13.688,0, 5, 2, -1, 3, -1, -3, -5,2.9551033245980727,1.0345538423420193
1503695051403,-0.867,-0.485,-0.102,-0.052,+0.823,-0.152,-0.459,+8.562,-4.688,-14.750,2, 2, -4, -7, -2, -1, 2, 0,2.9497894856310234,1.0322930735028435
1503695051425,-0.867,-0.484,-0.102,-0.055,+0.837,-0.146,-0.443,+6.000,-3.125,-14.562,5, 21, 16, 15, 4, 3, 1, 1,2.9444662111628057,1.0300359107672266
1503695051451,-0.867,-0.485,-0.102,-0.057,+0.852,-0.127,-0.448,+4.562,+1.875,-14.000,-5, -7, -7, -5, 7, 0, 1, -3,2.9412244867951394,1.032819942750652
1503695051463,-0.866,-0.486,-0.102,-0.059,+0.891,-0.106,-0.448,+2.750,+3.312,-11.125,3, -3, -2, -8, -19, -1, 0, 2,2.937411299356021,1.0351034095586054
1503695051485,-0.866,-0.486,-0.101,-0.060,+0.915,-0.104,-0.435,-0.500,-3.375,-7.750,-6, -13, -13, -24, -33, -10, -1, -6,2.9366619038709034,1.0347950497526288
1503695056150,-0.828,-0.531,-0.176,-0.044,+0.909,-0.242,-0.328,-7.500,+0.688,-14.125,0, 0, 0, 2, 1, 3, 2, 2,2.8706172326107473,1.1747844456738499
1503695056165,-0.828,-0.532,-0.173,-0.045,+0.933,-0.245,-0.314,-9.562,+0.750,-16.938,1, -4, -3, -1, -1, 0, 1, 0,2.872375926668465,1.1755049384740686
1503695056187,-0.828,-0.532,-0.170,-0.047,+0.963,-0.247,-0.306,-12.188,-8.250,-16.562,-1, 1, 1, 0, 1, -1, -2, -6,2.872256949696635,1.1737145571342353
1503695056210,-0.830,-0.531,-0.167,-0.048,+0.955,-0.248,-0.305,-16.688,-16.688,-16.062,-2, 1, 0, -2, 1, -1, 1, 2,2.8751422224764034,1.1699964740726438
1503695056225,-0.831,-0.530,-0.163,-0.048,+0.947,-0.240,-0.295,-21.312,-14.375,-14.000,-2, -5, -3, 0, 0, -1, 0, -2,2.879891414412071,1.1651091961479942
1503695056252,-0.832,-0.529,-0.159,-0.048,+0.945,-0.211,-0.307,-25.688,-12.562,-10.000,-1, -2, -3, -1, -3, -2, -1, 1,2.8846268311668295,1.160293881961953
1503695056270,-0.833,-0.529,-0.154,-0.046,+0.939,-0.196,-0.307,-29.250,-6.375,-4.500,2, 2, -1, -2, -1, -2, 1, -2,2.8939307243227206,1.1573434866029184
1503695056285,-0.834,-0.530,-0.150,-0.044,+0.947,-0.195,-0.314,-32.562,-0.688,-0.312,0, -2, -1, 1, 0, 0, -1, -1,2.9023863717258243,1.1577709769033724
1503695056307,-0.834,-0.530,-0.145,-0.040,+0.930,-0.192,-0.332,-37.000,+1.688,+0.062,0, 3, -3, 0, -1, -1, -2, 3,2.914278521634309,1.1543562729437395
1503695056332,-0.836,-0.529,-0.139,-0.038,+0.954,-0.177,-0.333,-37.375,-11.000,-2.625,1, -4, -3, -3, 1, 0, 0, 2,2.9250884531600536,1.1489624725107408
1503695056345,-0.839,-0.526,-0.133,-0.036,+0.952,-0.177,-0.333,-37.375,-27.938,-7.188,-2, -2, 1, -2, -4, -2, -2, -1,2.9361222341013864,1.1388658631581907
1503695056367,-0.843,-0.522,-0.126,-0.036,+0.935,-0.164,-0.346,-39.562,-38.062,-12.062,0, 2, 3, 3, 0, 0, -2, -3,2.945205539582747,1.1264976133175268
1503695056392,-0.847,-0.517,-0.119,-0.035,+0.910,-0.152,-0.360,-42.375,-43.062,-14.750,-3, -2, -1, -3, -1, 0, 0, -2,2.9556725044186156,1.11165045489874
1503695056405,-0.851,-0.512,-0.111,-0.034,+0.855,-0.120,-0.393,-44.750,-37.938,-15.000,-1, -2, -2, -2, -2, -1, -2, 0,2.9670392792885103,1.0966611651632607
1503695056427,-0.855,-0.507,-0.103,-0.033,+0.848,-0.101,-0.438,-44.125,-29.500,-11.625,-5, -4, -1, 0, -1, -1, 0, -4,2.9782579381854686,1.0820208835771146
1503695056450,-0.858,-0.504,-0.095,-0.031,+0.870,-0.116,-0.459,-45.500,-24.625,-7.250,0, 0, -1, 0, 0, 0, -1, 0,2.9908058362591055,1.0723694391917795
1503695056466,-0.860,-0.501,-0.088,-0.028,+0.876,-0.101,-0.492,-45.750,-17.062,-4.438,0, 0, -1, -3, -2, -1, -1, -1,3.003528693457378,1.0627822674039822
1503695056488,-0.862,-0.499,-0.082,-0.025,+0.895,-0.081,-0.498,-41.562,-12.688,-1.562,0, 5, 7, 0, 0, 0, -1, -3,3.0153123473049304,1.0563540866938106
1503695056510,-0.864,-0.497,-0.076,-0.023,+0.928,-0.070,-0.501,-33.438,-16.812,-0.062,0, -3, -3, 2, -1, -1, -1, 5,3.0253142563281705,1.0501825144633525
1503695056526,-0.867,-0.492,-0.072,-0.021,+0.942,-0.067,-0.522,-28.250,-29.250,-0.938,-1, 0, 0, 0, -4, -2, 0, -4,3.0333977346174517,1.0374379614247486
1503695056550,-0.871,-0.486,-0.067,-0.021,+0.921,-0.039,-0.520,-22.875,-39.938,-3.312,0, 0, -4, -2, 0, -1, -1, -1,3.039184982303644,1.0226444551549303
1503695056570,-0.875,-0.479,-0.064,-0.022,+0.851,-0.037,-0.558,-11.625,-43.125,-7.375,-3, 1, 2, -2, 0, 0, -2, 1,3.0411252916823983,1.006014079159883
1503695056586,-0.879,-0.471,-0.063,-0.024,+0.815,-0.083,-0.582,-3.000,-49.375,-9.750,-1, -5, -5, -1, 0, -2, -1, -3,3.0392800747820705,0.9875136152375394
1503695056607,-0.883,-0.464,-0.063,-0.025,+0.795,-0.134,-0.588,-1.500,-43.625,-6.750,0, -2, -2, -1, -2, -1, -2, 0,3.038307853641094,0.9718596850796953
1503695056630,-0.887,-0.458,-0.063,-0.025,+0.774,-0.159,-0.586,+0.750,-35.125,-2.688,0, 1, 1, -2, -1, -1, -2, -1,3.039181580647507,0.9587676835818358
1503695056645,-0.888,-0.454,-0.065,-0.025,+0.774,-0.167,-0.547,-0.562,-20.812,+3.875,-1, -2, -2, -1, 0, -1, 0, -1,3.0374345138045884,0.9496761657402548
1503695056667,-0.888,-0.454,-0.065,-0.023,+0.782,-0.136,-0.514,-3.688,-0.750,+7.375,0, -5, -3, 1, 1, 0, -1, -1,3.040987352087258,0.9495241408660692
1503695056690,-0.887,-0.456,-0.066,-0.021,+0.828,-0.083,-0.512,-3.438,+16.375,+10.250,-3, -3, -1, -2, -1, -1, -1, 2,3.0434202649243978,0.9541299158341607
1503695056705,-0.886,-0.459,-0.066,-0.019,+0.890,-0.068,-0.536,-1.500,+16.062,+11.188,1, 0, -2, -2, 0, -1, 0, 0,3.0467995614488377,0.9610361144464376
1503695056727,-0.885,-0.460,-0.067,-0.018,+0.897,-0.079,-0.518,-3.000,+4.625,+11.500,1, -2, -1, -1, -1, -1, 1, 0,3.047394417000229,0.9632055465188541
1503695056752,-0.886,-0.459,-0.067,-0.016,+0.891,-0.115,-0.489,-6.000,-7.688,+9.438,-1, -1, -2, 0, -2, 1, -1, -2,3.051197983824751,0.9610457758071468
1503695056765,-0.886,-0.458,-0.066,-0.014,+0.857,-0.096,-0.488,-9.562,-9.750,+8.062,-2, 0, -3, -2, -1, 0, -1, -2,3.055637934518493,0.9581231903789152
1503695056795,-0.887,-0.457,-0.065,-0.013,+0.806,-0.070,-0.530,-8.688,-9.625,+5.688,-3, -3, -1, 0, 0, -2, -1, 1,3.0585826699347587,0.955815070343148
1503695056810,-0.888,-0.456,-0.064,-0.012,+0.755,-0.068,-0.547,-7.438,-3.500,+4.062,-2, 1, -1, -1, 1, -1, 2, 0,3.0615193059006254,0.9535152561368112
1503695056825,-0.888,-0.456,-0.063,-0.011,+0.759,-0.091,-0.549,-7.562,+3.562,+1.375,-1, -1, -1, 1, -2, -1, -1, -2,3.0642096178801386,0.9532198428093429
1503695056847,-0.888,-0.456,-0.063,-0.011,+0.808,-0.102,-0.563,-4.750,+8.562,-2.125,-1, -2, -1, -1, -2, 0, -1, 0,3.0642096178801386,0.9532198428093429
1503695056870,-0.887,-0.458,-0.062,-0.012,+0.830,-0.103,-0.570,-1.750,+9.000,-2.938,1, 4, 6, 0, 0, 1, 1, -1,3.0631288864399835,0.957602733096989
1503695056886,-0.887,-0.458,-0.062,-0.012,+0.855,-0.109,-0.574,+0.438,+5.062,-2.938,-2, -1, -2, -1, -1, -1, -1, -1,3.0631288864399835,0.957602733096989
1503695056907,-0.886,-0.458,-0.063,-0.013,+0.837,-0.103,-0.566,+2.312,+4.250,-3.188,0, -1, -3, 0, 0, -1, -2, 1,3.060173881525256,0.957365069990004
1503695056930,-0.886,-0.459,-0.063,-0.014,+0.831,-0.089,-0.554,+3.625,+4.750,-3.438,-1, -3, 0, -1, 0, -1, 0, -1,3.0584222036352458,0.9599702473065908
1503695056945,-0.885,-0.461,-0.064,-0.015,+0.800,-0.076,-0.557,+8.125,+14.625,-2.125,-2, -1, -2, 0, 0, 0, 0, -1,3.055513714824296,0.9648100567167214
1503695056967,-0.883,-0.464,-0.066,-0.015,+0.775,-0.078,-0.549,+11.125,+26.688,-0.562,-2, 1, -1, -3, 2, -1, -1, -2,3.053196684933551,0.9718392428364873
1503695056997,-0.881,-0.469,-0.068,-0.016,+0.790,-0.080,-0.495,+13.625,+32.375,-0.250,-1, 0, -1, -1, 0, 0, -1, 0,3.04916184045664,0.9840810337951595
1503695057012,-0.878,-0.474,-0.070,-0.018,+0.909,-0.106,-0.480,+14.250,+33.250,-2.250,0, 0, 0, 0, 0, 1, -2, -1,3.043066952742414,0.9959497435537463
1503695057027,-0.875,-0.479,-0.073,-0.019,+0.974,-0.104,-0.518,+17.062,+30.500,-4.250,1, 2, 2, 1, -3, -1, 1, 3,3.0377551029328274,1.008086376016346
1503695057050,-0.875,-0.478,-0.075,-0.023,+0.982,-0.122,-0.530,+22.375,-8.438,-8.312,-3, -4, -1, -1, -1, 0, -1, -1,3.0287888457840153,1.0063852794886254
1503695057066,-0.877,-0.474,-0.077,-0.026,+0.867,-0.127,-0.444,+13.938,-33.000,-12.688,0, -1, -4, -4, 0, -2, 0, -4,3.0220770871633036,0.9979804298612349
1503695057088,-0.879,-0.470,-0.077,-0.030,+0.796,-0.118,-0.419,+10.438,-29.688,-18.938,1, 2, 2, 1, 0, 2, 1, 0,3.015507619940193,0.9891344877984426
1503695057111,-0.880,-0.468,-0.078,-0.033,+0.841,-0.163,-0.427,+7.062,-17.062,-13.250,-1, -5, -9, -3, 0, -3, -2, 0,3.009530736316721,0.9851093575876927
1503695057125,-0.879,-0.469,-0.078,-0.033,+0.886,-0.150,-0.417,-2.562,-4.938,-5.375,-3, -2, -1, -4, -4, -2, -1, -1,3.009223164128221,0.9871370708239515
1503695057147,-0.879,-0.469,-0.076,-0.033,+0.919,-0.082,-0.444,-9.625,-5.062,-4.188,3, 2, 3, 2, 3, -1, -1, 1,3.011094632404145,0.9865470460618602
1503695057169,-0.880,-0.468,-0.074,-0.033,+0.920,-0.064,-0.450,-12.625,-12.188,-2.938,-3, -1, 3, 9, 10, 3, 1, 0,3.0132606803912183,0.9839443231813092
1503695057187,-0.881,-0.466,-0.071,-0.033,+0.931,-0.083,-0.474,-15.750,-22.375,-2.062,-1, -1, -2, -7, -4, -2, -1, -1,3.0162510539965646,0.9785407728929777
1503695057207,-0.884,-0.462,-0.069,-0.031,+0.907,-0.090,-0.496,-19.438,-29.125,+0.875,-2, 0, -1, -1, 0, 1, 0, 0,3.0223748771254684,0.9692636996834313
1503695057230,-0.886,-0.458,-0.065,-0.029,+0.843,-0.062,-0.515,-23.062,-26.375,+5.562,0, -3, -3, 1, -3, -2, -4, 0,3.0299559069474156,0.959017689136677
1503695057245,-0.887,-0.456,-0.063,-0.026,+0.817,-0.058,-0.537,-22.875,-14.562,+10.812,-5, 0, -3, -3, -4, -2, -1, -5,3.037283957901215,0.9537885305503186
1503695057268,-0.888,-0.455,-0.061,-0.023,+0.825,-0.059,-0.572,-20.000,-2.688,+15.250,4, -3, 0, -4, -4, -1, -1, 0,3.0446776633493506,0.9511156523685842
1503695057291,-0.888,-0.455,-0.059,-0.019,+0.868,-0.060,-0.594,-16.812,-1.125,+15.438,-2, 0, -1, -2, -4, -4, -2, 3,3.0536046552311045,0.9503943988351707
1503695057306,-0.890,-0.453,-0.058,-0.016,+0.853,-0.059,-0.629,-12.000,-9.438,+15.250,0, 15, 5, 2, 0, 0, 0, -4,3.0603057119108272,0.9459972188230041
1503695057330,-0.891,-0.450,-0.058,-0.014,+0.783,-0.070,-0.598,-8.625,-11.938,+14.125,-6, -6, -6, -1, 0, -2, -4, -5,3.0640380498761797,0.9388401993205141
1503695065157,-0.922,-0.372,+0.041,+0.104,+0.743,+0.033,-0.695,-5.812,-7.250,+9.438,1, 0, 0, 3, 0, -1, 1, 3,-2.917873617400845,0.7674598940148308
1503695065173,-0.922,-0.371,+0.041,+0.105,+0.725,+0.028,-0.699,-2.438,-7.438,+9.312,-2, 0, -2, -1, 2, -1, -1, -1,-2.9158275822073088,0.7651603480318308
1503695065194,-0.922,-0.369,+0.040,+0.107,+0.698,+0.015,-0.705,+1.125,-7.625,+9.438,1, 0, -1, 0, -1, 1, -2, -1,-2.9124449137408566,0.7603007439323977
1503695065217,-0.923,-0.368,+0.039,+0.108,+0.673,+0.025,-0.727,+5.250,-3.062,+9.062,1, 0, -1, -1, 0, 1, 1, 0,-2.91173752184199,0.7582748704428364
1503695065232,-0.923,-0.368,+0.037,+0.109,+0.664,+0.022,-0.730,+8.250,+3.500,+10.438,-5, -4, 1, 2, 0, 1, -2, -2,-2.9113737653174487,0.7578059464018412
1503695065254,-0.922,-0.370,+0.034,+0.110,+0.661,-0.008,-0.715,+9.625,+12.188,+12.875,0, 3, -1, -3, -10, -6, -2, -2,-2.911639514169732,0.7612610570696469
1503695065278,-0.921,-0.373,+0.032,+0.111,+0.688,-0.031,-0.706,+11.812,+18.375,+14.562,2, 0, 2, 4, 6, 1, 1, 4,-2.911490437400617,0.7673474684234942
1503695065292,-0.919,-0.376,+0.029,+0.112,+0.715,-0.027,-0.700,+12.812,+20.375,+11.250,-1, 0, -2, -4, -2, -1, -2, -1,-2.9114891070358646,0.7726740863015205
1503695065315,-0.918,-0.380,+0.027,+0.113,+0.717,-0.016,-0.692,+13.250,+21.812,+12.125,2, 0, 0, -2, -2, -2, 0, 1,-2.911714976311611,0.7811817760696401
1503695065338,-0.916,-0.384,+0.024,+0.114,+0.706,-0.026,-0.685,+15.688,+28.812,+16.250,-2, -3, -3, 0, -2, -1, -1, 0,-2.912125775375844,0.7889539656829309
1503695065352,-0.914,-0.389,+0.020,+0.115,+0.713,-0.029,-0.667,+18.562,+27.312,+14.062,-1, -2, -3, 3, 4, 2, 1, 2,-2.9136808431966648,0.7989459271470826
1503695065374,-0.912,-0.393,+0.017,+0.115,+0.719,-0.073,-0.632,+15.938,+25.938,+9.688,-4, -5, -6, -3, -4, -3, -2, -2,-2.9160388478605372,0.8068068724750906
1503695065397,-0.910,-0.398,+0.015,+0.115,+0.759,-0.094,-0.638,+13.750,+26.875,+7.750,0, 0, 0, 0, -1, -1, -1, -1,-2.9180165516238095,0.817337910122823
1503695065412,-0.908,-0.402,+0.013,+0.115,+0.814,-0.088,-0.643,+12.375,+21.562,+5.250,-1, 2, -2, -3, -1, -3, -1, -4,-2.919728614816087,0.8255106996503221
1503695065435,-0.907,-0.404,+0.011,+0.115,+0.796,-0.095,-0.623,+8.625,+11.062,+2.188,-3, -1, 4, 0, -2, 1, -4, -4,-2.921396352093505,0.8294241233941793
1503695065457,-0.907,-0.405,+0.010,+0.114,+0.726,-0.085,-0.620,+5.250,+8.250,-1.188,1, 3, 5, 1, -1, -2, -2, -2,-2.924298255758299,0.8316489639943511
1503695065472,-0.907,-0.406,+0.009,+0.114,+0.718,-0.080,-0.650,+1.625,+9.000,+0.000,-1, -4, -5, -6, -4, 0, -2, -1,-2.925423339038926,0.833894149553189
1503695065495,-0.906,-0.409,+0.010,+0.113,+0.766,-0.079,-0.631,+0.062,+14.000,-4.500,-4, -3, -4, -3, -1, -3, -1, 0,-2.926836419628917,0.8408075719338376
1503695065519,-0.905,-0.410,+0.010,+0.112,+0.799,-0.075,-0.631,+1.000,+11.500,-9.875,1, -2, -1, 0, -2, -2, -1, 1,-2.9283882352803077,0.8426816182454547
1503695065532,-0.905,-0.411,+0.011,+0.109,+0.794,-0.068,-0.606,+1.812,+2.938,-16.688,-2, -1, -2, -1, -1, -1, -2, -2,-2.933232082791902,0.8452545426072509
1503695065555,-0.905,-0.412,+0.012,+0.106,+0.765,-0.083,-0.604,-1.000,+1.375,-17.750,-1, -3, -4, -2, -2, 1, -1, 0,-2.938066434698547,0.8478236919675401
1503695065580,-0.905,-0.413,+0.014,+0.104,+0.828,-0.065,-0.586,-7.625,+4.562,-16.750,1, 1, 0, 1, -2, 0, -1, 0,-2.940305238130374,0.8505844152617598
1503695065593,-0.905,-0.412,+0.016,+0.102,+0.840,-0.058,-0.623,-5.125,-5.812,-14.688,1, -1, -2, -2, -1, -2, 0, 4,-2.9419393031516807,0.8484691262362934
