Timestamp,Orientation X,Orientation Y,Orientation Z,Orientation W,Accelerometer X,Accelerometer Y,Accelerometer Z,Gyroscope X,Gyroscope Y,Gyroscope Z,EMG1,EMG2,EMG3,EMG4,EMG5,EMG6,EMG7,EMG8,Roll,Yaw,Window
1503683571996,+0.146,+0.315,-0.607,-0.715,+1.015,-0.325,-0.006,-21.875,-14.000,-5.375,0, 0, -7, 5, 17, 2, 4, 0,-0.6617984160533305,1.5035513337369395,0
1503683572011,+0.144,+0.312,-0.605,-0.718,+1.007,-0.330,-0.013,-23.688,-15.250,+3.500,9, -1, -10, -2, -20, -3, -3, 0,-0.6530044447813661,1.4945214228473196,0
1503683572033,+0.142,+0.309,-0.604,-0.721,+1.021,-0.285,-0.017,-24.812,-20.000,+3.250,-11, -33, 12, 4, -3, -1, -2, -3,-0.6447516935084397,1.488160270322175,0
1503683572056,+0.142,+0.306,-0.602,-0.723,+0.995,-0.234,+0.009,-18.062,-20.000,-1.938,7, 14, 3, -4, 1, 0, -2, -1,-0.638891578260281,1.4792207465391671,0
1503683572071,+0.143,+0.303,-0.601,-0.725,+0.995,-0.190,-0.132,-10.500,-8.062,-5.875,0, -23, -12, -4, 0, 2, -3, -6,-0.6351493604096015,1.4730199600516163,0
1503683572093,+0.144,+0.302,-0.601,-0.726,+0.989,-0.143,-0.190,-2.312,+0.188,+4.562,4, 12, 7, -1, -5, 1, 0, 0,-0.6352055048218948,1.471925076386396,0
1503683572116,+0.140,+0.306,-0.601,-0.725,+1.043,-0.188,-0.167,+5.375,+20.375,+35.375,-11, -26, -17, -5, -3, -1, 3, 1,-0.6357335281711932,1.4767032825680815,0
1503683572138,+0.137,+0.310,-0.601,-0.724,+1.084,-0.228,-0.097,+12.062,+20.625,+30.562,6, -2, 1, -1, -23, -4, -1, -1,-0.6379104705992565,1.4816290087711201,0
1503683572162,+0.138,+0.314,-0.602,-0.721,+1.013,-0.276,-0.068,+26.125,+12.688,+8.500,-1, 3, 1, -1, -1, -2, -3, 0,-0.6464338549614469,1.4892804111179003,0
1503683572176,+0.141,+0.319,-0.602,-0.719,+0.948,-0.318,-0.016,+32.375,+7.875,-0.562,-3, 20, 3, 2, 21, 2, -2, -6,-0.6596229830032091,1.4959391325445413,0
1503683572191,+0.144,+0.324,-0.603,-0.715,+0.936,-0.360,+0.007,+35.688,+15.312,-7.562,19, 23, 18, 3, 1, -1, -1, 0,-0.6729489651077009,1.5051416952991234,0
1503683572213,+0.146,+0.328,-0.606,-0.710,+0.921,-0.426,+0.039,+28.625,+28.625,-9.750,-4, -2, -8, -1, 13, 2, 2, 5,-0.6837906401633043,1.5181834078580738,0
1503683572238,+0.145,+0.331,-0.611,-0.705,+0.897,-0.464,+0.089,+10.875,+37.625,-16.875,-35, -22, -8, 8, 10, -4, -4, -4,-0.6893157541645559,1.5350559389606615,0
1503683572251,+0.145,+0.330,-0.614,-0.702,+0.974,-0.473,+0.140,-3.938,+14.688,-22.938,16, 3, -2, 5, -5, 0, 7, 9,-0.6883482496111281,1.5413526604750176,0
1503683572274,+0.149,+0.325,-0.614,-0.704,+1.019,-0.408,+0.103,-16.625,-23.750,-41.000,1, -4, 0, 7, -17, -4, -2, -3,-0.685632933945284,1.5346571129808242,0
1503683572296,+0.154,+0.317,-0.612,-0.708,+0.980,-0.335,+0.091,-24.312,-48.000,-46.625,-3, -10, -2, -11, 6, 13, 3, 5,-0.6786230120235428,1.519056039933898,0
1503683572311,+0.160,+0.306,-0.612,-0.711,+0.892,-0.232,+0.039,-31.250,-37.312,-60.500,8, 3, 6, 2, 0, -4, 0, -2,-0.6689828657640093,1.5051594412010068,0
1503683572333,+0.165,+0.297,-0.613,-0.714,+0.828,-0.126,-0.009,-26.312,-22.938,-54.500,-1, 13, 10, -6, -11, -1, 0, 4,-0.6622799962354513,1.4969163237260859,0
1503683572356,+0.166,+0.290,-0.614,-0.715,+0.927,-0.161,+0.002,-30.000,-8.812,-27.312,7, -2, 2, -8, -10, 1, 0, -7,-0.6524907856999377,1.4911050423386807,0
1503683572373,+0.166,+0.284,-0.616,-0.716,+1.032,-0.162,-0.039,-29.500,+0.812,-14.562,36, 6, 3, 3, 2, 1, -12, -32,-0.643434130432296,1.4892731901351945,0
1503683572393,+0.169,+0.278,-0.616,-0.718,+1.089,-0.081,-0.170,-19.750,-12.688,-26.062,-20, -17, -7, -2, 1, 5, 6, 13,-0.6385691697565342,1.482608219166567,0
1503683572416,+0.176,+0.269,-0.613,-0.722,+1.059,+0.027,-0.210,-10.188,-37.688,-34.562,-13, -3, -11, -7, -8, 2, 7, 46,-0.6345216668102552,1.465316991939318,0
1503683572431,+0.182,+0.265,-0.610,-0.724,+0.965,-0.037,-0.190,+4.250,-27.312,-29.312,-32, -12, -11, -8, -7, -7, 1, -6,-0.6369013111504167,1.4536005293071825,0
1503683572453,+0.187,+0.262,-0.609,-0.725,+0.988,-0.149,-0.125,+4.188,-9.938,-24.875,21, 9, 14, -1, -2, 1, 4, -1,-0.640008939628029,1.448127561255719,0
1503683572476,+0.186,+0.262,-0.611,-0.723,+1.009,-0.221,-0.055,-6.188,+12.250,-10.125,-6, -6, -5, -3, -6, -3, -1, -6,-0.6386280739300241,1.453022241609664,0
1503683572490,+0.185,+0.261,-0.614,-0.721,+1.004,-0.158,-0.050,-4.812,+20.125,-5.375,10, -8, -12, -20, -31, -3, -3, -3,-0.6360540466901593,1.4594756718759683,0
1503683572514,+0.190,+0.259,-0.615,-0.720,+1.086,-0.075,-0.048,+7.125,-3.750,-22.250,1, -4, -4, -3, -1, -6, -1, -11,-0.6410301288094398,1.4600864597652599,0
1503683572536,+0.197,+0.256,-0.614,-0.721,+1.069,-0.056,-0.075,+8.812,-22.500,-33.375,7, 4, 4, 5, 5, 3, 6, 23,-0.6475002278945756,1.4547814761993658,0
1503683572551,+0.204,+0.252,-0.609,-0.724,+0.981,-0.039,-0.054,+8.688,-46.500,-27.625,-4, 1, -15, 0, 6, 0, 2, -5,-0.6515621115001308,1.4383010737603859,0
1503683572574,+0.208,+0.251,-0.606,-0.726,+0.941,-0.087,-0.059,+13.500,-31.312,-10.875,-9, 0, 0, 0, 3, 0, -1, -13,-0.6560799350832546,1.4299869237678227,0
1503683572596,+0.209,+0.250,-0.604,-0.727,+0.914,-0.094,-0.068,-2.188,-18.625,-6.125,31, -4, -3, -9, -9, -4, -3, 19,-0.6557040934581299,1.423936597360993,0
1503683572611,+0.211,+0.249,-0.605,-0.727,+0.913,-0.042,-0.106,-3.312,+3.312,-8.438,-9, 0, 5, 10, 6, 2, 0, -11,-0.6578739942137136,1.4256468463205603,0
1503683572633,+0.210,+0.249,-0.605,-0.726,+1.009,-0.084,-0.104,+0.750,+6.688,+3.750,-13, 0, 1, -6, -3, -2, 3, -8,-0.6558643019467214,1.4253981901612038,0
1503683572656,+0.209,+0.249,-0.604,-0.727,+1.059,-0.141,-0.078,-6.000,-10.312,+3.312,20, -1, -7, -7, -1, -2, -3, 11,-0.6541282967213156,1.4228809341905753,0
1503683572671,+0.209,+0.247,-0.601,-0.731,+1.014,-0.120,-0.104,-10.188,-28.000,+3.625,19, -4, -7, 2, 3, 1, -4, -32,-0.6511366248398942,1.4136560403942549,0
1503683572693,+0.209,+0.245,-0.597,-0.735,+0.941,-0.104,-0.103,-11.750,-33.938,+6.562,-7, -10, -3, -3, -3, -2, 4, 14,-0.6477822849476429,1.401878607779284,0
1503683572716,+0.207,+0.244,-0.595,-0.738,+0.899,-0.134,-0.120,-15.000,-18.188,+5.438,-16, -13, -2, 1, 0, 0, -5, -15,-0.643074026399992,1.3960531721117027,0
1503683572731,+0.206,+0.243,-0.594,-0.739,+0.958,-0.106,-0.119,-12.312,-7.500,+4.750,1, -13, -4, -4, -1, 1, -2, 3,-0.6397805990873859,1.3925237832022672,0
1503683572753,+0.205,+0.241,-0.593,-0.741,+1.008,-0.086,-0.120,-11.750,-12.812,+5.688,10, 8, 8, 1, 2, 1, -3, 6,-0.6352848067675042,1.3881836985738814,0
1503683572776,+0.205,+0.239,-0.590,-0.743,+1.016,-0.081,-0.155,-9.000,-22.250,+2.562,-63, -4, -2, 3, 3, 1, -2, 3,-0.631718571988785,1.3787214541019146,0
1503683572791,+0.205,+0.238,-0.586,-0.747,+0.991,-0.105,-0.153,-6.188,-29.125,+3.188,2, 15, 5, 1, 0, 0, 3, 5,-0.6299782918408606,1.3681619713026452,0
1503683572813,+0.205,+0.237,-0.583,-0.750,+0.936,-0.121,-0.164,-5.125,-28.375,+4.312,12, -9, -4, -2, -1, -2, -2, -5,-0.6283052597931996,1.3600287115318848,0
1503683572836,+0.205,+0.237,-0.581,-0.752,+0.938,-0.116,-0.187,-2.688,-13.562,+4.125,16, 11, 7, 1, -3, -5, -12, -9,-0.6282009992185608,1.355305885860549,0
1503683572851,+0.205,+0.237,-0.580,-0.752,+1.003,-0.110,-0.190,+2.375,-4.938,+4.562,5, 5, 0, -1, 0, 1, -1, 1,-0.6278147717323074,1.3526977711996422,0
1503683572876,+0.206,+0.239,-0.579,-0.752,+1.024,-0.122,-0.166,+8.000,-4.938,+4.312,-7, 2, 1, -2, 0, 1, 2, -1,-0.6321555199718798,1.3522457977011513,0
1503683577538,+0.239,+0.326,-0.595,-0.695,+0.949,-0.159,-0.094,+2.125,+7.562,-32.250,13, -3, -13, -3, -1, 0, 1, 2,-0.819076742285957,1.4901902223134924,1
1503683577561,+0.243,+0.324,-0.597,-0.693,+0.951,-0.164,-0.072,+7.812,+9.875,-36.062,14, 0, -2, -8, -12, -1, 0, -2,-0.822428986076337,1.4925428755387615,1
1503683577576,+0.247,+0.323,-0.600,-0.689,+1.007,-0.197,+0.025,+8.125,+16.688,-32.438,9, 4, 1, 3, 19, 0, 0, 9,-0.827341930790583,1.4985936437357559,1
1503683577599,+0.248,+0.323,-0.605,-0.684,+1.020,-0.183,-0.043,+9.250,+32.625,-21.250,-4, -1, 1, -3, -6, 3, 0, -8,-0.8295333592774332,1.5108468685847198,1
1503683577621,+0.250,+0.324,-0.608,-0.680,+1.045,-0.172,-0.057,+11.625,+30.938,-18.125,19, 23, 5, 1, -1, -1, 4, 0,-0.834632412827499,1.5195508837634095,1
1503683577635,+0.254,+0.325,-0.610,-0.677,+1.044,-0.178,-0.033,+19.438,+14.250,-23.500,6, -9, -7, -1, 1, -3, 0, 8,-0.8429703820765715,1.5258737927280646,1
1503683577658,+0.259,+0.324,-0.610,-0.675,+1.089,-0.200,+0.026,+17.562,-7.875,-31.500,-5, -2, -1, 9, 10, 2, -2, 4,-0.8488785628017852,1.52458037403151,1
1503683577681,+0.265,+0.323,-0.609,-0.675,+1.081,-0.184,-0.014,+15.000,-14.000,-31.312,-7, -15, -5, -3, -6, -2, -2, -2,-0.8567944312149463,1.520925296346943,1
1503683577695,+0.270,+0.322,-0.608,-0.674,+1.036,-0.179,+0.021,+16.438,-17.688,-29.250,-9, -21, 7, -2, -14, -1, 0, -8,-0.8627423820493203,1.5171930385014878,1
1503683577718,+0.275,+0.320,-0.605,-0.675,+1.066,-0.169,-0.015,+14.812,-29.062,-22.500,-3, -8, -10, -6, -7, -2, 3, -2,-0.8668632180711361,1.5072707364154139,1
1503683577734,+0.280,+0.319,-0.601,-0.677,+1.057,-0.115,+0.003,+10.938,-31.750,-16.000,5, 8, -6, 3, 1, 0, -2, 2,-0.8728063445454749,1.496290755442155,1
1503683577756,+0.284,+0.317,-0.599,-0.678,+1.054,-0.088,+0.048,+5.250,-29.812,-15.438,-4, -12, 1, 0, 2, 1, 0, -1,-0.8758124789289867,1.4889279255263976,1
1503683577779,+0.287,+0.315,-0.598,-0.679,+1.046,-0.062,-0.021,+3.812,-19.688,-13.500,2, 2, 0, -3, 1, 1, 1, 6,-0.8775430855647154,1.48405459817732,1
1503683577800,+0.291,+0.313,-0.596,-0.680,+1.004,-0.075,-0.095,+5.125,-17.312,-14.125,4, -7, -7, 4, 17, -1, 2, 1,-0.8806915973300606,1.4767584519749395,1
1503683577817,+0.294,+0.311,-0.594,-0.681,+1.010,-0.066,-0.092,+2.375,-20.062,-14.562,-3, -3, -7, -5, -13, -3, -3, -14,-0.882139791211509,1.469434635928536,1
1503683577838,+0.296,+0.309,-0.593,-0.682,+1.033,-0.057,+0.028,+0.375,-21.250,-12.688,5, 9, 16, 4, -2, 1, 1, 0,-0.8822520543627547,1.4645811784968177,1
1503683577861,+0.300,+0.308,-0.592,-0.682,+1.007,-0.033,-0.034,+9.875,-13.312,-14.312,-10, -7, -4, -2, -3, -1, -2, -10,-0.8873125583360221,1.4610453064787918,1
1503683577878,+0.305,+0.306,-0.590,-0.682,+0.963,-0.016,-0.068,+12.500,-21.125,-19.938,-11, -6, -3, -2, -3, -2, 0, 2,-0.892145959682517,1.4537966697572329,1
1503683577898,+0.310,+0.303,-0.587,-0.684,+0.977,-0.002,-0.100,+6.938,-32.438,-18.562,22, 1, 2, -1, 1, 2, 1, 5,-0.8957892698618573,1.4430796422979077,1
1503683577921,+0.314,+0.301,-0.584,-0.686,+1.014,+0.021,-0.027,+2.312,-32.500,-9.875,10, 1, -3, -4, -6, -2, -1, -19,-0.8994115738634095,1.4336348159387886,1
1503683577936,+0.318,+0.298,-0.580,-0.688,+0.956,+0.076,-0.093,+6.750,-36.125,-4.125,-43, -23, -4, 1, 1, 1, 3, -1,-0.9011003516623451,1.42047001108616,1
1503683577958,+0.321,+0.294,-0.576,-0.691,+0.901,+0.066,-0.037,-1.688,-44.500,-8.750,15, -2, -5, -1, -2, 1, 2, 17,-0.8998094317549753,1.4061950570765167,1
1503683577981,+0.324,+0.290,-0.574,-0.694,+0.860,+0.078,-0.104,-9.875,-29.250,-5.875,21, 9, -1, -2, -1, -1, -1, 18,-0.899381335443136,1.3970211398692103,1
1503683577996,+0.324,+0.288,-0.572,-0.697,+0.888,+0.063,-0.170,-10.375,-17.062,+4.812,5, 1, 0, -1, -1, 0, -1, -11,-0.89663517795496,1.3901201793349256,1
1503683578019,+0.321,+0.286,-0.570,-0.700,+0.973,-0.006,-0.165,-16.250,-14.938,+17.125,-16, -1, -3, -3, -4, -3, -2, -12,-0.8882615330357151,1.3829343672559526,1
1503683578041,+0.318,+0.285,-0.568,-0.704,+1.015,-0.021,-0.123,-19.688,-22.125,+18.438,37, 22, 0, -1, -1, -1, -1, 25,-0.8819138290182501,1.3772251094061727,1
1503683578056,+0.316,+0.283,-0.565,-0.708,+0.989,-0.014,-0.148,-19.812,-29.375,+21.250,14, -29, 17, 3, 0, -2, -4, 14,-0.8754903949389004,1.3679132215248027,1
1503683578078,+0.313,+0.281,-0.561,-0.713,+0.963,-0.005,-0.145,-18.938,-33.688,+23.188,-8, -9, 6, 4, 2, 1, 2, -9,-0.8672459327004329,1.3562605850160272,1
1503683578101,+0.311,+0.279,-0.557,-0.718,+0.969,-0.057,-0.141,-16.250,-28.625,+19.812,-45, -13, -14, -3, -4, -4, -4, 5,-0.8608971205340236,1.3447861901709275,1
1503683578118,+0.308,+0.279,-0.554,-0.721,+0.996,-0.110,-0.166,-12.500,-24.062,+18.312,2, 15, 3, 1, 1, 2, -3, -39,-0.8553745969823106,1.3376778149730055,1
1503683578138,+0.306,+0.278,-0.551,-0.725,+1.015,-0.098,-0.179,-10.500,-24.000,+15.688,4, 33, 5, 0, 1, -1, 2, 0,-0.8505628018577499,1.3297466042624566,1
1503683583598,+0.164,+0.293,-0.544,-0.769,+1.057,-0.307,-0.184,+65.250,+30.125,-51.750,0, 1, 0, -1, 0, 1, -3, 0,-0.6352981586924289,1.3225551953247363,2
1503683583620,+0.176,+0.296,-0.549,-0.762,+0.863,-0.319,-0.235,+62.500,+32.250,-65.062,1, -1, -1, -2, 2, 0, 1, 0,-0.6609865340883302,1.3391162961679706,2
1503683583650,+0.188,+0.300,-0.557,-0.751,+0.704,-0.249,-0.243,+63.750,+64.500,-72.438,-1, 1, -2, 0, 2, -2, 1, -1,-0.6885230848989977,1.3636779762037012,2
1503683583665,+0.190,+0.309,-0.564,-0.742,+0.903,-0.662,-0.373,+53.562,+87.938,-27.188,1, -2, -2, -8, -7, -1, 0, -1,-0.707793697482819,1.3916331595065556,2
1503683583680,+0.189,+0.316,-0.578,-0.728,+1.008,-0.511,-0.086,+33.250,+115.375,-20.875,4, 1, -2, -3, -2, -1, -1, -2,-0.7209550427670551,1.4341732831274172,2
1503683583703,+0.192,+0.320,-0.592,-0.714,+1.052,-0.263,+0.011,+38.188,+104.688,-41.000,-3, -1, -2, 5, -6, 0, 1, -1,-0.7356650300326771,1.4737395573688907,2
1503683583718,+0.198,+0.324,-0.601,-0.703,+1.044,-0.223,+0.026,+46.125,+68.562,-38.125,-1, -2, -1, 5, 5, 1, -1, -3,-0.7536547433921726,1.5014069279247697,2
1503683583740,+0.204,+0.327,-0.606,-0.695,+0.971,-0.237,-0.024,+41.562,+39.875,-36.438,-2, -2, -3, 0, 2, 0, -2, 1,-0.7687479088255375,1.5178919275007265,2
1503683583763,+0.209,+0.329,-0.611,-0.689,+0.877,-0.227,+0.012,+29.438,+36.188,-37.188,17, 6, 1, 11, 6, -1, 0, 0,-0.7809861175432111,1.5331655513228104,2
1503683583778,+0.214,+0.329,-0.617,-0.682,+0.860,-0.123,+0.027,+23.938,+37.125,-32.938,-1, 1, 0, 3, -4, -2, -2, 0,-0.7896836212009821,1.548263496138192,2
1503683583800,+0.218,+0.330,-0.622,-0.676,+0.901,-0.061,+0.045,+23.500,+34.625,-24.312,1, 0, -1, -11, -6, -2, -2, 0,-0.7983993670252492,1.5622346000617628,2
1503683583823,+0.222,+0.331,-0.626,-0.670,+0.930,-0.082,+0.076,+18.625,+29.062,-22.000,-1, -1, -1, -7, -3, -1, 1, 1,-0.8066128524778633,1.5737117053666405,2
1503683583838,+0.225,+0.331,-0.630,-0.666,+0.936,-0.087,+0.099,+12.500,+26.125,-19.938,-2, -3, 0, 5, 8, -3, -1, -2,-0.811983361512698,1.5838730727362096,2
1503683583860,+0.226,+0.331,-0.634,-0.662,+0.976,-0.073,+0.093,+6.188,+22.688,-14.688,-8, -1, 0, -5, -5, -2, -4, -4,-0.8141569263024694,1.5940816501524377,2
1503683583886,+0.228,+0.329,-0.637,-0.659,+1.006,-0.052,+0.090,+0.500,+14.812,-13.750,-3, -3, 0, -10, -1, 1, 3, 3,-0.8140495546732366,1.599103520162206,2
1503683583905,+0.230,+0.327,-0.638,-0.658,+1.035,-0.053,+0.078,-0.500,+1.500,-15.000,-5, 1, 1, -3, -4, -2, -1, -2,-0.8136636715104295,1.5990163177181702,2
1503683583921,+0.233,+0.325,-0.639,-0.657,+0.972,-0.081,+0.081,+1.125,-2.938,-17.625,-2, -4, -3, 3, -2, 0, -2, -1,-0.814882711854721,1.5989314821821385,2
1503683583943,+0.236,+0.323,-0.639,-0.657,+1.000,-0.135,+0.101,-0.250,-5.875,-20.625,4, 0, -2, -9, -2, -3, -2, -3,-0.8160034674541251,1.596292211046171,2
1503683583965,+0.236,+0.320,-0.640,-0.657,+1.063,-0.167,+0.078,-11.250,-3.062,-14.750,-4, -3, -1, 2, 2, 0, -2, -2,-0.8109684301731154,1.594985156453733,2
1503683583980,+0.236,+0.316,-0.640,-0.659,+1.067,-0.119,+0.114,-17.625,-15.812,-13.875,-7, -1, 0, -4, 7, 1, -1, -1,-0.8043588251796011,1.5898456324810213,2
1503683584003,+0.239,+0.312,-0.639,-0.661,+1.014,-0.082,+0.056,-11.062,-24.875,-16.688,-6, 1, -7, -2, 8, -1, -1, -1,-0.8022016784128374,1.5821954390307986,2
1503683584025,+0.243,+0.307,-0.636,-0.665,+0.982,-0.081,+0.072,-9.125,-45.438,-24.125,6, 6, 3, 6, -8, 0, -1, 1,-0.7998169131086906,1.5682739269557826,2
1503683584040,+0.247,+0.301,-0.633,-0.669,+0.924,-0.102,+0.107,-14.750,-46.812,-30.750,-1, -6, 1, 1, 1, 0, 0, 0,-0.7958867827721352,1.5533019685292486,2
1503683584063,+0.250,+0.294,-0.633,-0.671,+0.916,-0.069,+0.137,-22.625,-30.125,-30.188,-3, 13, 5, 1, -1, -1, 2, -2,-0.7893532239477613,1.5449612716124088,2
1503683584089,+0.251,+0.289,-0.633,-0.673,+0.982,+0.025,+0.024,-21.312,-12.750,-16.000,-12, -8, -1, 6, 3, 0, -8, -7,-0.783104231747713,1.5391349352098749,2
1503683584101,+0.252,+0.284,-0.634,-0.674,+0.997,+0.067,-0.012,-17.875,-7.375,-11.438,3, 1, -4, -6, -7, 0, 0, 2,-0.7769873798471422,1.5359566361605865,2
1503683584125,+0.253,+0.279,-0.634,-0.676,+1.054,+0.044,+0.042,-19.125,-21.500,-13.062,9, -6, -7, -4, -3, -2, 0, -8,-0.770901909534371,1.5303452999818268,2
1503683584145,+0.255,+0.274,-0.632,-0.679,+1.054,+0.031,+0.026,-16.750,-32.062,-11.438,19, 14, 7, -2, -12, 2, 0, 4,-0.766162686889129,1.5197383318975277,2
1503683584162,+0.257,+0.269,-0.629,-0.682,+0.993,+0.040,-0.010,-11.812,-34.312,-13.875,-14, -19, -10, -3, 0, 1, -4, -3,-0.7611629314327076,1.5066457775436215,2
1503683584183,+0.260,+0.265,-0.627,-0.685,+0.956,+0.015,-0.046,-11.000,-31.188,-12.250,-1, 1, -1, 0, 1, -1, 3, 5,-0.7600366162674892,1.4974003802404665,2
1503683584205,+0.260,+0.262,-0.625,-0.688,+0.989,-0.027,-0.020,-13.562,-24.312,-1.500,5, 3, 0, 2, 1, 0, 0, -2,-0.7554999140782046,1.4892083895007684,2
1503683584223,+0.258,+0.260,-0.623,-0.691,+1.008,-0.028,-0.032,-17.250,-14.875,+7.000,-7, -12, -5, -2, 6, -2, 1, 1,-0.7491893572401178,1.4820561215030592,2
1503683584243,+0.256,+0.258,-0.623,-0.693,+1.000,+0.005,-0.050,-16.375,-10.625,+6.562,-10, -2, 0, 0, 0, 1, 5, 0,-0.7432754598969238,1.4800295741993121,2
1503683584265,+0.255,+0.257,-0.622,-0.695,+0.997,-0.021,-0.067,-11.812,-9.938,+4.000,-1, -2, 3, 2, 2, -5, 0, 6,-0.7403199761517745,1.476531260923673,2
1503683584281,+0.254,+0.256,-0.620,-0.697,+1.019,-0.071,-0.054,-10.000,-13.625,+2.312,11, 7, 1, 1, -2, -4, -4, -1,-0.7369880785688318,1.4704354790957248,2
1503683584303,+0.253,+0.255,-0.618,-0.699,+1.035,-0.083,-0.019,-10.625,-19.438,+2.688,1, -2, -4, -4, -8, -3, -1, -5,-0.7336597956020462,1.464349607986107,2
1503683584325,+0.254,+0.253,-0.617,-0.701,+0.988,-0.039,-0.042,-10.250,-20.750,-1.062,0, 0, 2, 1, 2, -1, -4, -3,-0.7325584872740056,1.4599316520077557,2
1503683584341,+0.254,+0.251,-0.615,-0.703,+0.954,-0.005,-0.070,-6.625,-18.625,+0.125,-8, 1, -2, -2, -1, 1, -3, -2,-0.7293816372234785,1.4528736645051818,2
1503683584363,+0.254,+0.250,-0.613,-0.705,+0.962,-0.003,-0.092,-5.000,-13.750,+2.188,-6, -1, -2, -2, -2, 0, 2, 3,-0.7278073468640891,1.4468925308738039,2
1503683584385,+0.254,+0.250,-0.612,-0.706,+1.001,-0.056,-0.091,-4.312,-6.312,+4.188,-5, 6, 12, 2, -1, -1, -3, -2,-0.7278133252501917,1.444436136714995,2
1503683584401,+0.253,+0.250,-0.611,-0.707,+1.019,-0.066,-0.076,-5.562,-6.312,+5.375,13, 0, -5, 3, 1, 2, 5, 2,-0.7260871719410111,1.4419194995283244,2
1503683584423,+0.252,+0.249,-0.610,-0.709,+1.034,-0.045,-0.082,-7.188,-14.938,+5.125,-3, 1, 0, -6, -3, -1, 5, -52,-0.7231613436094505,1.4385081414614884,2
1503683584445,+0.252,+0.248,-0.607,-0.712,+1.023,-0.009,-0.102,-3.062,-20.625,+5.625,16, -3, -6, -2, -2, -3, -2, 66,-0.7216053135338539,1.4301308701240716,2
1503683589870,+0.129,+0.280,-0.638,-0.705,+0.983,-0.271,-0.018,+6.562,+47.938,-18.500,2, 2, -1, -3, -2, -6, 0, -2,-0.5873395655391367,1.5408491178573955,3
1503683589884,+0.131,+0.279,-0.645,-0.700,+1.072,-0.225,+0.035,+7.812,+43.062,-26.250,-3, -2, -2, -5, -3, -1, -1, 0,-0.59082861473332,1.558228578382391,3
1503683589906,+0.135,+0.277,-0.648,-0.696,+1.115,-0.214,+0.060,+11.875,+15.312,-29.250,-2, 0, -1, -6, 10, 4, -1, 0,-0.5938343810257445,1.5639025389563435,3
1503683589928,+0.140,+0.276,-0.649,-0.695,+1.041,-0.245,+0.080,+11.375,-1.938,-27.812,2, -4, -1, -1, 1, -3, -4, -3,-0.5997968819566766,1.5654399827134589,3
1503683589950,+0.143,+0.275,-0.649,-0.694,+0.962,-0.242,+0.047,+7.312,-2.062,-23.875,-3, 0, 0, 2, -1, -4, -1, -1,-0.6023173954020945,1.5643153085214587,3
1503683589966,+0.144,+0.274,-0.652,-0.692,+0.909,-0.236,+0.074,+1.312,+18.438,-14.188,-3, -2, -2, -3, -1, -1, -3, -1,-0.6029871587043343,1.57116319454299,3
1503683589988,+0.143,+0.274,-0.652,-0.692,+1.118,-0.215,+0.004,-4.500,+5.000,+3.750,-4, -5, 2, 7, -2, 3, 2, 0,-0.6014935608616473,1.5711633995363092,3
1503683590010,+0.139,+0.275,-0.651,-0.693,+1.098,-0.232,+0.082,-13.062,-5.125,+19.562,0, 2, 1, 1, 3, 2, 0, 2,-0.59703362086629,1.569623385906311,3
1503683590031,+0.137,+0.275,-0.651,-0.695,+1.001,-0.238,+0.136,-17.500,-10.438,+8.188,1, 2, -2, -14, -12, -3, 0, 1,-0.5945215238565733,1.5696251855691303,3
1503683590048,+0.137,+0.272,-0.648,-0.698,+0.992,-0.204,+0.037,-14.750,-23.500,-3.188,0, -1, -4, 5, 0, -3, 1, -1,-0.588655107979165,1.5583124992437665,3
1503683590071,+0.137,+0.269,-0.645,-0.702,+0.970,-0.259,+0.053,-16.375,-33.000,-6.938,-2, -5, 0, -6, -8, 0, 0, 1,-0.5830744680747314,1.5470814514701223,3
1503683590086,+0.136,+0.266,-0.643,-0.706,+0.950,-0.237,+0.052,-22.000,-29.250,-6.688,-3, -2, -3, 0, -8, -2, -3, -3,-0.5764912503004296,1.538581594368813,3
1503683590108,+0.135,+0.262,-0.642,-0.708,+0.916,-0.169,+0.018,-23.562,-12.562,-4.562,-3, 1, -1, -3, -6, 0, 1, -3,-0.5682480878685567,1.5316414864052326,3
1503683590132,+0.135,+0.259,-0.643,-0.708,+0.941,-0.154,+0.007,-17.438,+0.062,-13.438,9, 9, 0, 1, 6, 0, 2, 2,-0.5636695625977635,1.5310994389267767,3
1503683590146,+0.136,+0.255,-0.645,-0.708,+0.978,-0.150,+0.012,-15.812,+3.938,-20.375,-7, -10, -4, -2, -6, 0, 1, -1,-0.559399419235973,1.5322474352012367,3
1503683590168,+0.137,+0.250,-0.647,-0.707,+0.999,-0.126,-0.015,-14.000,+7.562,-20.438,-10, -9, -5, 0, 0, 0, -2, -3,-0.5532615303402112,1.5323938069316128,3
1503683590190,+0.138,+0.247,-0.649,-0.707,+1.027,-0.125,-0.022,-12.312,+6.250,-20.125,4, 5, -2, -6, 26, -1, -4, -1,-0.5506873219019427,1.5347215937010497,3
1503683590206,+0.140,+0.243,-0.650,-0.706,+1.059,-0.113,+0.067,-8.312,-3.250,-16.812,17, 10, 2, 0, -6, -1, -2, 1,-0.5473349741605765,1.5333817571848438,3
1503683590231,+0.144,+0.240,-0.648,-0.708,+1.100,-0.143,-0.010,-2.938,-22.875,-19.688,-10, -6, 1, -3, -17, -2, -2, -1,-0.548184026590192,1.5252288775717133,3
1503683590250,+0.149,+0.235,-0.644,-0.712,+1.026,-0.133,-0.035,-4.375,-41.312,-33.188,8, 3, 1, -1, 13, -4, -2, 0,-0.5471497153005397,1.5100073179213058,3
1503683590266,+0.156,+0.229,-0.641,-0.716,+0.873,-0.073,-0.087,-1.438,-36.438,-40.312,-16, -8, -1, 1, 6, 2, 1, -4,-0.5482891109777452,1.4967868483325166,3
1503683590287,+0.161,+0.226,-0.640,-0.717,+0.840,-0.080,-0.110,+4.125,-13.625,-30.875,-2, 2, -3, -3, -1, -1, -1, -3,-0.551256151732196,1.4915627954466457,3
1503683590310,+0.164,+0.225,-0.641,-0.716,+0.962,-0.113,-0.082,+6.000,+7.062,-19.125,0, -3, 0, -5, -9, -2, -2, 2,-0.554503202459111,1.493320308245934,3
1503683590325,+0.163,+0.225,-0.644,-0.713,+1.067,-0.188,+0.068,-6.562,+17.062,-4.875,-8, -5, 2, -3, -3, 0, 0, 1,-0.5532500127034423,1.5010513927651405,3
1503683590347,+0.161,+0.224,-0.646,-0.712,+1.164,-0.196,+0.155,-12.688,+1.688,-2.188,-9, -5, -2, -1, -5, -3, -1, -3,-0.5490373375827259,1.5053517117413193,3
1503683590370,+0.162,+0.222,-0.644,-0.714,+1.104,-0.125,-0.035,-8.562,-14.250,-10.562,-1, -2, -3, -4, 6, -2, 0, 1,-0.5472386397196218,1.4983508212505008,3
1503683590385,+0.167,+0.216,-0.639,-0.719,+1.007,-0.035,-0.092,-6.188,-54.000,-31.125,1, 1, 0, -1, -9, -1, -10, -8,-0.545285799552375,1.4801837496016748,3
1503683590407,+0.172,+0.210,-0.634,-0.724,+0.875,-0.026,-0.114,-5.500,-48.750,-25.938,-2, 1, -2, 11, 23, 1, 6, 5,-0.5436529985158605,1.4622764950309068,3
1503683590432,+0.176,+0.208,-0.630,-0.727,+0.878,-0.038,-0.109,-0.312,-28.312,-13.750,14, 5, -3, -4, -9, 3, 1, 1,-0.5465038584013264,1.4504071746603986,3
1503683590445,+0.176,+0.207,-0.630,-0.727,+0.948,-0.084,+0.009,-1.875,-6.812,-2.812,17, 9, 0, -3, -6, -5, -2, 2,-0.5449911058253648,1.4495376021114332,3
1503683590468,+0.175,+0.207,-0.630,-0.727,+1.011,-0.088,-0.012,-9.125,-2.438,+2.250,-12, -7, -3, -5, -7, -1, -3, -3,-0.5433783271000867,1.449487312109273,3
1503683590490,+0.175,+0.205,-0.631,-0.727,+0.991,-0.024,-0.083,-7.000,+2.125,-7.312,-1, 1, 1, 1, -6, -1, -7, -5,-0.5407119492299018,1.450449566295244,3
1503683590507,+0.178,+0.203,-0.629,-0.729,+1.012,+0.021,-0.125,-0.625,-15.812,-8.250,-1, 0, 1, 5, 11, 3, 2, 3,-0.5424567190451483,1.4438235371808177,3
1503683590527,+0.180,+0.201,-0.625,-0.732,+1.056,-0.012,-0.065,+0.562,-36.688,-4.875,0, 2, 3, -19, -17, 1, 1, 1,-0.5422515907881832,1.4319809134199066,3
1503683595410,+0.072,+0.249,-0.531,-0.806,+0.951,-0.210,-0.269,+52.375,+90.500,-1.938,1, 0, -4, -4, -2, -1, 0, 1,-0.4141436785498508,1.2341852401954856,4
1503683595434,+0.077,+0.256,-0.546,-0.794,+0.965,-0.115,-0.124,+62.312,+93.125,-11.000,3, -4, 1, 1, -3, -1, -4, -5,-0.4384096759234538,1.2785761866631717,4
1503683595448,+0.083,+0.265,-0.555,-0.784,+1.020,-0.156,-0.157,+70.250,+65.750,-4.188,0, -1, -2, -7, -8, -4, 2, 1,-0.46497852296364717,1.310494872233151,4
1503683595471,+0.091,+0.272,-0.562,-0.775,+0.948,-0.130,-0.151,+72.375,+52.188,-16.812,-2, -1, 0, -2, -2, 0, 0, 1,-0.49106931482526167,1.3358686734705816,4
1503683595492,+0.099,+0.281,-0.568,-0.767,+0.872,-0.256,-0.131,+73.062,+45.938,-21.625,0, -1, -3, -2, -2, -2, -2, -4,-0.520149822527752,1.361562542615794,4
1503683595508,+0.107,+0.288,-0.573,-0.760,+0.829,-0.349,-0.148,+67.625,+42.625,-25.062,1, -2, 0, 1, 2, -1, 1, 2,-0.5458038498434922,1.3827637420135364,4
1503683595533,+0.112,+0.294,-0.579,-0.752,+0.808,-0.396,-0.084,+52.375,+44.688,-26.562,-3, -2, -2, 2, 0, 0, -1, -3,-0.565406622907143,1.4050930054012474,4
1503683595552,+0.116,+0.300,-0.585,-0.745,+0.839,-0.412,-0.079,+42.688,+51.125,-23.875,2, 0, 0, 0, 0, -2, -2, 1,-0.5837259329490467,1.4277690435031551,4
1503683595570,+0.119,+0.304,-0.592,-0.737,+0.852,-0.450,-0.036,+36.312,+50.000,-26.000,0, -3, -6, -3, -2, -1, 0, 3,-0.5974257894989208,1.4504861790435435,4
1503683595590,+0.121,+0.308,-0.596,-0.731,+0.892,-0.503,-0.018,+25.938,+37.250,-25.938,0, 0, 0, -1, -2, -2, 0, 2,-0.6084407539882183,1.4656341069912922,4
1503683595612,+0.123,+0.310,-0.600,-0.727,+0.877,-0.489,-0.023,+15.438,+27.562,-23.125,-3, 1, 1, 0, 0, 0, -5, -6,-0.6163680873367084,1.4785076372455437,4
1503683595628,+0.123,+0.311,-0.604,-0.724,+0.845,-0.461,-0.007,+7.625,+26.125,-21.500,-2, -4, -1, -1, -1, 1, 0, -2,-0.6196453212690445,1.4900907516707185,4
1503683595650,+0.124,+0.310,-0.607,-0.721,+0.895,-0.443,+0.010,-2.750,+20.250,-24.938,-2, -3, 1, 2, -2, -1, 1, 0,-0.6203463810082003,1.4964702173694415,4
1503683595674,+0.125,+0.308,-0.609,-0.721,+0.983,-0.423,-0.012,-8.062,+3.062,-24.188,1, 1, 1, 0, 0, 0, 2, 1,-0.6193561825472487,1.4991940923276101,4
1503683595688,+0.126,+0.305,-0.607,-0.723,+0.970,-0.387,-0.070,-11.312,-11.812,-17.875,-1, 2, -2, -2, -4, 0, -1, 1,-0.614941268354448,1.4902528957292032,4
1503683595710,+0.127,+0.302,-0.606,-0.725,+0.903,-0.327,-0.076,-12.438,-15.625,-17.250,-1, 0, -1, 1, -3, -2, 0, 0,-0.6111020571722467,1.4840153515609071,4
1503683595736,+0.129,+0.299,-0.605,-0.726,+0.903,-0.316,-0.057,-7.125,-12.438,-17.375,-2, -3, -2, -5, 0, 1, 2, 1,-0.6086418318649356,1.4777756720736643,4
1503683595748,+0.130,+0.297,-0.606,-0.726,+0.965,-0.366,-0.006,-6.938,-0.688,-21.500,-2, -3, 1, -3, -4, -2, -3, 2,-0.6072133803680667,1.4779628743579076,4
1503683595771,+0.132,+0.294,-0.607,-0.726,+1.057,-0.367,-0.019,-10.000,-2.000,-23.375,1, -4, -2, -4, -1, -2, -4, -4,-0.605611606531431,1.4769829611419185,4
1503683595792,+0.134,+0.291,-0.607,-0.728,+1.060,-0.321,-0.083,-10.500,-15.000,-24.125,-2, 1, 0, 0, -5, -1, 0, 2,-0.6039975208331858,1.4736380844739476,4
1503683595816,+0.138,+0.286,-0.605,-0.731,+1.004,-0.259,-0.096,-11.688,-27.688,-28.000,-2, -1, -2, 2, 3, 3, 1, -1,-0.6014115595657221,1.4628995513856382,4
1503683595831,+0.143,+0.281,-0.602,-0.733,+0.988,-0.223,-0.074,-3.938,-30.000,-32.312,1, -3, -1, -2, -1, 0, 1, -2,-0.5998684353024589,1.4496045651614824,4
1503683595852,+0.150,+0.277,-0.601,-0.734,+0.989,-0.212,-0.021,+3.500,-26.750,-36.938,-3, 1, 0, 2, 1, -1, -3, -4,-0.6040590588907547,1.4429047466454112,4
1503683595877,+0.157,+0.274,-0.601,-0.734,+0.980,-0.209,-0.015,+6.375,-19.000,-44.438,1, -3, 3, -2, -2, -2, -2, 0,-0.6102554952932363,1.4399307823406498,4
1503683595890,+0.163,+0.270,-0.602,-0.734,+1.022,-0.232,-0.020,+2.625,-17.062,-40.438,-2, 0, -1, -2, -1, 0, -1, 2,-0.6137529170598399,1.4384222112810134,4
1503683595912,+0.165,+0.266,-0.602,-0.735,+1.070,-0.197,-0.047,-11.750,-10.812,-20.562,0, 0, 0, 2, 1, -1, -6, -2,-0.6107154469284712,1.434222783848022,4
1503683595928,+0.165,+0.263,-0.602,-0.735,+1.018,-0.121,-0.069,-18.188,-5.000,-5.688,-1, -1, 0, 0, -8, -1, 0, 0,-0.6058485297286099,1.4308811216419322,4
1503683595950,+0.166,+0.261,-0.603,-0.736,+1.021,-0.088,-0.119,-5.562,-1.812,-4.250,-2, 1, -2, -4, 0, 1, 1, -1,-0.6049476664177073,1.4315569563302821,4
1503683595972,+0.170,+0.259,-0.601,-0.737,+1.005,-0.078,-0.201,+7.250,-9.688,-14.938,-1, 1, 0, -1, 0, -2, -1, 0,-0.6076223422075069,1.4245726058272288,4
1503683595988,+0.176,+0.255,-0.598,-0.739,+1.018,-0.116,-0.111,+6.562,-34.000,-28.938,1, -2, 1, 20, 11, 1, 0, -1,-0.6103183449691512,1.4131774010109615,4
1503683601455,+0.246,+0.406,-0.598,-0.646,+1.007,-0.253,+0.123,-27.500,+6.312,+27.062,0, -2, 3, 17, 7, 0, -5, -1,-0.9710888848297135,1.6169189584737993,5
1503683601477,+0.239,+0.406,-0.599,-0.648,+0.952,-0.234,+0.087,-26.250,+14.312,+25.500,-4, -3, -4, -8, -4, 0, 4, -1,-0.961088084290046,1.6194752389728193,5
1503683601493,+0.233,+0.406,-0.600,-0.649,+0.977,-0.258,+0.064,-24.938,+16.625,+20.125,3, 3, -2, -3, 0, -2, -3, -3,-0.9524565842878635,1.6220656200063504,5
1503683601516,+0.230,+0.406,-0.601,-0.649,+0.978,-0.227,+0.088,-18.938,+8.312,+12.188,2, 7, 0, -2, -3, 0, -1, 4,-0.9482732071113924,1.6246033341520714,5
1503683601537,+0.229,+0.405,-0.601,-0.651,+0.985,-0.287,+0.110,-12.438,-2.625,+0.750,-2, -3, -2, -5, -3, -4, -3, -7,-0.9451885033283992,1.6228694737430822,5
1503683601553,+0.228,+0.402,-0.600,-0.652,+0.909,-0.301,+0.077,-16.375,-8.312,-6.312,0, -2, 0, -6, -23, 1, 0, -2,-0.9371846692651128,1.6155086245613812,5
1503683601578,+0.227,+0.400,-0.601,-0.654,+0.860,-0.217,+0.005,-14.562,+1.812,-9.125,0, -2, 0, 9, 3, 0, 3, 1,-0.9325371412841288,1.6145852538391103,5
1503683601598,+0.229,+0.397,-0.603,-0.653,+0.870,-0.184,+0.002,-5.062,+8.938,-15.438,-4, -3, -2, -7, -4, -1, 0, -2,-0.9301745427517855,1.6145464519696813,5
1503683601613,+0.231,+0.396,-0.606,-0.651,+0.918,-0.245,+0.062,+1.438,+12.250,-22.938,0, -3, -4, -3, -5, -3, -1, 3,-0.9321407165209,1.620247522620104,5
1503683601635,+0.234,+0.393,-0.608,-0.649,+0.958,-0.251,+0.083,+2.625,+5.938,-33.375,-1, 15, 4, 3, 4, 0, -2, 0,-0.9310929929171882,1.6203145467332674,5
1503683601657,+0.240,+0.389,-0.611,-0.647,+0.946,-0.181,+0.088,+4.750,-1.250,-42.062,-6, -4, -4, -14, -4, -1, -1, -5,-0.933250389020579,1.62117959722824,5
1503683601678,+0.245,+0.386,-0.611,-0.646,+0.935,-0.145,+0.061,+7.375,-9.688,-34.500,3, 1, 5, 20, 17, 3, -3, 0,-0.9348201810820799,1.6163770268310993,5
1503683601695,+0.250,+0.384,-0.613,-0.644,+0.938,-0.150,+0.051,+6.875,-0.312,-27.062,-2, 4, 4, -7, -1, 2, 0, 0,-0.9391039291685955,1.6180844478853753,5
1503683601719,+0.253,+0.382,-0.616,-0.641,+0.917,-0.141,+0.083,+6.500,+12.125,-29.500,6, -3, -4, 2, 3, 6, -1, 0,-0.9403778679998069,1.622388136991644,5
1503683601733,+0.258,+0.379,-0.618,-0.639,+0.955,-0.116,+0.076,+8.062,+6.250,-33.625,-4, -2, 3, -1, 3, -1, 0, -4,-0.9427345052760097,1.62263907480957,5
1503683601755,+0.262,+0.377,-0.621,-0.636,+0.995,-0.142,+0.101,+8.938,+6.625,-35.250,-3, -5, 0, -6, -7, -7, 2, 1,-0.9456439991958487,1.626982444033768,5
1503683601780,+0.266,+0.373,-0.621,-0.636,+1.215,-0.208,+0.144,+2.125,-17.000,-29.375,0, -8, -3, 10, 4, -8, -2, -3,-0.9442596812580363,1.6208784577873203,5
1503683601794,+0.271,+0.370,-0.617,-0.640,+1.159,-0.149,+0.026,+0.250,-40.375,-14.438,-9, -7, -4, -7, 6, -3, 2, 3,-0.946095884911298,1.606303965596645,5
1503683601816,+0.277,+0.364,-0.613,-0.644,+0.945,-0.121,+0.206,-2.500,-59.875,-30.312,0, 12, 10, 1, -3, 0, -2, -3,-0.9440221586035656,1.5874715364867558,5
1503683601838,+0.285,+0.359,-0.611,-0.645,+0.934,-0.130,+0.106,+7.375,-46.625,-42.625,-1, -6, -8, -1, 2, -5, 2, -2,-0.9474127270461181,1.5752321470995414,5
1503683601855,+0.292,+0.356,-0.610,-0.645,+0.917,-0.116,-0.005,+11.000,-15.312,-35.812,1, 4, -6, -8, -8, -3, 1, 1,-0.9532346922333433,1.568456171598125,5
1503683601879,+0.296,+0.352,-0.611,-0.644,+1.003,-0.080,+0.036,+1.875,-10.062,-30.188,-10, -13, -1, 4, -1, 3, -8, -10,-0.9526765481757384,1.5652204677189088,5
1503683601898,+0.301,+0.349,-0.611,-0.644,+1.099,-0.006,+0.093,+2.500,-17.438,-25.875,-11, -1, 10, -1, 1, 2, 1, 1,-0.9557313149203531,1.5610119307070527,5
1503683601913,+0.305,+0.347,-0.609,-0.644,+1.129,-0.047,+0.126,+9.500,-28.188,-18.562,-4, -9, -6, 1, 1, -2, -12, -2,-0.9581867115662742,1.5533092383453604,5
1503683601936,+0.312,+0.344,-0.607,-0.645,+1.077,-0.023,+0.015,+15.438,-31.312,-26.312,2, 0, -2, 3, 6, 2, 7, 5,-0.9645256354201759,1.5443112204179301,5
1503683601958,+0.320,+0.339,-0.603,-0.647,+0.988,-0.005,-0.041,+10.312,-44.188,-30.688,6, 5, 0, 3, 0, 0, 3, 1,-0.9688353059826366,1.5277641523035308,5
1503683601973,+0.325,+0.335,-0.599,-0.651,+0.965,+0.005,+0.020,+0.688,-44.875,-15.188,5, 5, 0, 9, 6, -1, -2, 1,-0.9705956852828289,1.51277690226022,5
1503683601996,+0.327,+0.333,-0.597,-0.652,+0.954,+0.026,+0.014,-0.938,-25.438,-5.812,18, 16, 7, -5, -7, -1, -6, 1,-0.9702770125451158,1.5052415239843426,5
1503683602018,+0.330,+0.331,-0.597,-0.652,+0.917,+0.034,-0.031,+4.250,-8.500,-9.125,39, 21, -2, -3, -3, 0, 1, 3,-0.9722005686721235,1.502633732632806,5
1503683602033,+0.331,+0.330,-0.596,-0.653,+0.961,+0.018,-0.071,-3.375,-5.375,-4.750,-20, -20, -5, -3, -2, -1, 1, 1,-0.9722637183014095,1.4989245408575345,5
1503683606480,+0.219,+0.340,-0.657,-0.636,+0.941,-0.138,+0.160,-6.812,-23.000,+1.625,-1, -1, 0, 0, -2, 1, -1, 0,-0.8228929378513301,1.666476966541887,6
1503683606502,+0.219,+0.339,-0.656,-0.638,+0.929,-0.125,+0.104,-7.500,-13.250,+1.500,1, 2, -1, 1, 1, 0, -6, -3,-0.8211197213231204,1.6623816185640743,6
1503683606519,+0.218,+0.339,-0.654,-0.641,+1.025,-0.180,+0.117,-6.438,-13.812,+8.938,0, -2, -4, 0, -2, -1, 1, 0,-0.8195608814110458,1.6570462583750698,6
1503683606540,+0.215,+0.340,-0.652,-0.643,+1.065,-0.232,+0.185,-12.500,-13.625,+18.625,0, -1, 0, -4, 0, 0, -1, 1,-0.8165440831078691,1.6532839745527959,6
1503683606562,+0.211,+0.341,-0.649,-0.646,+0.990,-0.195,+0.145,-15.688,-15.500,+20.688,-1, 2, -2, 1, -2, -1, -3, -5,-0.811822345094961,1.6469549673471975,6
1503683606581,+0.209,+0.341,-0.647,-0.649,+0.909,-0.152,+0.118,-14.750,-15.500,+17.812,-1, 0, -1, 0, -3, -1, 1, 2,-0.8087026613116595,1.6417113906359935,6
1503683606601,+0.206,+0.341,-0.646,-0.651,+0.934,-0.174,+0.098,-11.688,-6.312,+12.000,-3, 0, -4, 0, -1, -1, 1, -1,-0.804239502742402,1.6391443603614249,6
1503683606629,+0.205,+0.340,-0.646,-0.653,+0.973,-0.212,+0.082,-10.688,-1.375,+4.812,0, -3, 0, -2, -1, 0, 1, 0,-0.8013909366939651,1.6376618176160473,6
1503683606638,+0.204,+0.339,-0.645,-0.653,+0.967,-0.221,+0.117,-9.375,-4.125,-0.750,0, -1, -2, 0, -1, -1, -2, 0,-0.7974839224149833,1.6338239172222788,6
1503683606660,+0.203,+0.339,-0.645,-0.655,+0.969,-0.197,+0.110,-7.500,-8.188,-0.062,-2, 1, 0, -1, 1, 1, 4, -1,-0.7965409249723738,1.6337022358491187,6
1503683606684,+0.203,+0.338,-0.644,-0.655,+0.932,-0.195,+0.110,-8.188,-3.625,-0.500,-5, -2, -2, -2, 0, -1, 5, 3,-0.7941582099753595,1.6298182150970397,6
1503683606698,+0.202,+0.336,-0.646,-0.655,+0.895,-0.176,+0.085,-8.875,+6.625,-7.938,-1, -2, 0, -3, -4, 0, -1, 0,-0.7898054222669592,1.6322501656793929,6
1503683606720,+0.203,+0.334,-0.648,-0.654,+0.920,-0.158,+0.094,-8.438,+11.375,-15.562,0, -2, -1, -1, -1, -3, -3, 0,-0.7882110773242732,1.6347050753664236,6
1503683606742,+0.204,+0.331,-0.651,-0.652,+0.966,-0.130,+0.097,-6.938,+11.875,-22.312,2, 1, 2, 1, -1, -1, -3, -1,-0.7849191812854848,1.6385049187447551,6
1503683606758,+0.207,+0.328,-0.654,-0.650,+0.933,-0.119,+0.131,-3.812,+10.562,-30.000,1, 1, 3, 8, 19, 2, -2, -3,-0.784675319209696,1.642277347532365,6
1503683606781,+0.210,+0.324,-0.656,-0.648,+0.913,-0.116,+0.122,-2.500,+2.750,-32.688,-13, -5, -3, -21, -24, -3, -3, -4,-0.7821103379551861,1.6422824890008916,6
1503683606802,+0.214,+0.320,-0.658,-0.647,+0.921,-0.084,+0.088,-1.938,+0.438,-31.312,4, 1, 2, 32, 27, 0, -2, -3,-0.7814228525136926,1.6422317709095324,6
1503683606819,+0.218,+0.316,-0.660,-0.645,+0.945,-0.046,+0.125,-0.438,+1.312,-33.250,6, 11, -4, -32, -4, 0, -1, 1,-0.7804822024856617,1.642361849119567,6
1503683606840,+0.223,+0.312,-0.662,-0.644,+1.003,-0.046,+0.087,+3.500,+3.250,-35.438,-9, -2, 3, 14, 21, 0, -1, -3,-0.781456970604179,1.642437399850926,6
1503683606862,+0.229,+0.307,-0.662,-0.644,+1.071,-0.061,+0.037,+4.562,-18.562,-37.875,2, -12, -8, -7, 3, -36, 0, -3,-0.7817051032858198,1.6361300549712916,6
1503683606880,+0.236,+0.302,-0.659,-0.648,+1.034,-0.085,+0.054,+2.125,-38.938,-36.000,-2, 22, 8, 4, 10, 50, -1, -1,-0.7837613922229857,1.621895284086362,6
1503683606900,+0.240,+0.298,-0.657,-0.650,+0.927,-0.085,+0.061,+1.250,-27.188,-29.438,-6, -16, -2, 0, -5, 0, -6, -1,-0.7828321835064118,1.611796663817447,6
1503683606922,+0.243,+0.295,-0.657,-0.649,+0.963,-0.086,+0.078,+0.062,-6.062,-23.688,9, 2, 4, 6, 11, 1, -1, -1,-0.7819904130114539,1.6082708942584931,6
1503683606938,+0.245,+0.292,-0.658,-0.650,+1.178,-0.100,+0.073,-4.188,-6.500,-20.062,12, 5, -4, -1, -4, -10, 1, 1,-0.780689213460615,1.6072916128718286,6
1503683606960,+0.247,+0.289,-0.655,-0.653,+1.218,-0.069,+0.057,-9.812,-25.938,-7.938,-16, -5, 12, -6, -3, -5, 0, 1,-0.7784809753783144,1.5959283819285803,6
1503683606982,+0.249,+0.285,-0.652,-0.657,+1.063,-0.045,+0.136,-9.188,-46.562,-14.062,-23, -26, -17, -7, -4, -1, -3, -6,-0.7749749561963072,1.5834706579519546,6
1503683606998,+0.255,+0.281,-0.649,-0.659,+0.959,-0.033,+0.080,+6.750,-38.812,-28.125,-12, -11, 2, 1, 11, 1, -1, 0,-0.7774711238378748,1.5711207511305607,6
1503683607020,+0.262,+0.276,-0.645,-0.662,+1.016,-0.073,+0.044,+4.188,-43.188,-37.875,-1, 11, 21, 0, 5, -7, 5, -6,-0.7801395526300698,1.5551777916587746,6
1503683607042,+0.265,+0.273,-0.641,-0.666,+1.045,-0.037,+0.017,-0.750,-41.000,-14.875,3, -10, -5, 1, 0, -5, -3, -11,-0.7800736833782712,1.5415808646355114,6
1503683607058,+0.267,+0.270,-0.639,-0.669,+0.993,+0.002,+0.087,-5.500,-33.312,-8.812,6, 17, -1, -7, -6, 2, 1, 7,-0.778809521545484,1.5332245160846478,6
1503683607081,+0.270,+0.267,-0.637,-0.671,+0.950,+0.051,-0.029,-3.125,-18.750,-11.125,11, 9, 0, -4, -6, 0, -2, 3,-0.7789461837953633,1.5249002131745957,6
1503683607102,+0.271,+0.265,-0.636,-0.672,+0.985,+0.042,-0.058,-2.188,-11.750,-5.500,-1, -13, -11, 2, 7, 2, -6, -3,-0.7773614021788363,1.5202012308669957,6
1503683607122,+0.271,+0.265,-0.635,-0.673,+1.021,+0.008,+0.027,-4.938,-8.688,+3.125,-4, -5, -8, -7, -10, -2, 0, 2,-0.7773699564925736,1.517658105727258,6
1503683607140,+0.270,+0.264,-0.634,-0.675,+1.048,+0.018,+0.041,-9.250,-14.938,+5.188,20, 23, -1, 0, 1, 0, -4, -6,-0.7743976595205816,1.5140737925761039,6
1503683613028,+0.128,+0.279,-0.637,-0.707,+1.037,-0.249,+0.002,+5.188,+20.750,-38.625,0, -3, -3, -1, 0, -1, 1, -3,-0.5840722181387233,1.5370897439036486,7
1503683613043,+0.130,+0.277,-0.639,-0.705,+1.165,-0.304,+0.076,-1.438,+8.938,-25.500,-2, -4, -7, -3, -2, 0, 1, -1,-0.5841407879555748,1.5400766077236456,7
1503683613065,+0.128,+0.277,-0.637,-0.708,+1.214,-0.301,-0.106,-10.000,-10.812,+15.312,-1, -2, -1, -2, -3, -2, -4, 2,-0.5808480926631425,1.5348329555612936,7
1503683613092,+0.123,+0.279,-0.635,-0.710,+1.081,-0.315,+0.123,-18.312,-14.625,+26.750,0, -11, -2, 0, 0, 0, -1, -1,-0.5762465397475922,1.5317903833531785,7
1503683613109,+0.121,+0.279,-0.632,-0.713,+1.073,-0.224,+0.058,-10.000,-19.312,+14.750,0, 7, 2, 0, 0, -1, -1, 1,-0.572422169916356,1.5238939753002716,7
1503683613126,+0.121,+0.278,-0.630,-0.716,+0.956,-0.259,-0.028,-7.500,-22.000,+2.812,1, 1, -1, 1, 0, -1, 0, -3,-0.5703694584372374,1.5175867668291363,7
1503683613147,+0.121,+0.277,-0.627,-0.718,+0.958,-0.258,-0.040,-7.375,-18.688,+2.938,-4, -6, -1, 0, -1, -1, -1, -1,-0.5676339735218177,1.5085617011408012,7
1503683613163,+0.118,+0.279,-0.624,-0.721,+1.037,-0.292,+0.014,-6.312,-20.250,+21.750,1, 2, 1, 1, 0, 1, -2, -1,-0.5656616191476738,1.5030022134049918,7
1503683613185,+0.114,+0.281,-0.621,-0.723,+0.997,-0.327,-0.023,-11.188,-11.250,+27.250,1, 7, 4, 0, -2, -2, -2, -3,-0.5619339120668746,1.4973388235773535,7
1503683613207,+0.110,+0.281,-0.620,-0.724,+0.863,-0.274,-0.014,-14.000,-3.000,+15.688,2, 2, 6, 0, -1, -1, -6, -5,-0.5555569173373823,1.4945795917510347,7
1503683613224,+0.108,+0.282,-0.621,-0.724,+0.850,-0.248,-0.030,-7.688,+9.188,+11.625,-2, -4, -4, -4, 0, 1, 2, 1,-0.5547316368702704,1.4983594416695591,7
1503683613245,+0.106,+0.282,-0.623,-0.722,+0.915,-0.282,-0.015,-7.062,+20.250,+4.688,-2, -1, -3, 0, -1, -2, 1, -1,-0.5523246595987964,1.5034662457023558,7
1503683613267,+0.104,+0.281,-0.626,-0.720,+0.953,-0.291,+0.029,-10.188,+21.500,-7.938,-3, -11, -5, -1, -1, -1, -2, -2,-0.5487165183731973,1.510107605636572,7
1503683613283,+0.104,+0.278,-0.629,-0.718,+0.954,-0.264,+0.021,-10.812,+14.188,-14.250,-1, -2, -1, 1, 0, -1, -1, 0,-0.5446821401252686,1.5145122684229737,7
1503683613311,+0.106,+0.275,-0.631,-0.717,+0.937,-0.237,+0.006,-7.875,+4.188,-24.250,1, 4, 6, 1, 1, -1, -3, 1,-0.5433396035730614,1.516416331422488,7
1503683613328,+0.111,+0.270,-0.632,-0.718,+0.899,-0.232,-0.023,-5.812,-3.250,-36.938,0, 13, -1, -1, 0, -1, -1, -3,-0.5430224100967503,1.5136467837486496,7
1503683613343,+0.116,+0.265,-0.634,-0.718,+0.873,-0.195,-0.028,-5.250,-3.938,-41.812,-1, -7, -2, -1, -2, 0, 2, 1,-0.5430761786345294,1.5136123444162841,7
1503683613366,+0.120,+0.260,-0.636,-0.716,+0.885,-0.144,-0.044,-5.750,+6.875,-38.125,0, 26, 12, 0, 0, 0, 3, 2,-0.5412634294052144,1.513511400265715,7
1503683613387,+0.124,+0.255,-0.639,-0.715,+0.935,-0.131,-0.026,-4.875,+10.812,-36.125,-1, -10, -4, -1, -1, 0, -2, -2,-0.5401488898965474,1.5162879860194842,7
1503683613403,+0.127,+0.251,-0.643,-0.713,+0.992,-0.148,-0.028,-3.875,+15.938,-33.188,-2, -6, -2, -2, -5, -3, -1, -2,-0.5394090754037482,1.5228049141835758,7
1503683613426,+0.131,+0.247,-0.645,-0.711,+1.022,-0.149,-0.001,-4.125,+10.125,-30.875,-1, -11, -4, -3, -1, 1, -1, 0,-0.5392996752221417,1.5240518989454317,7
1503683613447,+0.135,+0.243,-0.646,-0.711,+1.073,-0.152,+0.006,-3.000,-6.500,-32.812,5, -7, -2, 1, 1, -3, -5, -3,-0.5392487513691852,1.522805421468182,7
1503683613463,+0.140,+0.239,-0.646,-0.712,+1.048,-0.186,+0.042,-2.750,-17.250,-36.875,-3, -4, -2, -1, -1, 0, 2, 3,-0.5406046586274996,1.5190339755424722,7
1503683613485,+0.146,+0.233,-0.643,-0.715,+1.144,-0.180,-0.017,-6.438,-35.250,-42.375,-2, -4, -3, 0, -1, -2, -5, -5,-0.5396776302977415,1.5055500317622308,7
1503683613507,+0.151,+0.227,-0.640,-0.718,+1.008,-0.067,-0.101,-5.062,-36.875,-33.188,3, -4, -6, -3, -1, 1, 2, -1,-0.537470844644309,1.4922397384497155,7
1503683613523,+0.158,+0.222,-0.637,-0.721,+0.967,-0.105,+0.030,+1.750,-42.188,-39.562,2, -2, -1, 0, -1, -2, -1, -2,-0.5402136107270169,1.4801247667901438,7
1503683613545,+0.162,+0.218,-0.634,-0.724,+1.042,-0.176,+0.065,-3.062,-40.625,-29.188,-5, 2, 2, -3, -1, 2, 0, -2,-0.5400067534569196,1.4689513965610805,7
1503683619327,+0.139,+0.332,-0.588,-0.724,+0.844,-0.439,-0.035,+0.125,-22.188,-29.875,2, 0, 3, 0, 0, -1, -1, 0,-0.6738976396148336,1.4777499661245297,8
1503683619350,+0.142,+0.331,-0.587,-0.725,+0.808,-0.424,-0.051,-0.312,-11.688,-23.188,0, 3, 1, -1, 0, -1, -2, -3,-0.6764298836813424,1.4740358905307291,8
1503683619374,+0.142,+0.329,-0.591,-0.723,+0.813,-0.400,-0.016,-6.062,+19.562,-22.375,-1, -4, -3, 0, -2, 0, 3, 2,-0.6744602826316249,1.4814211098315044,8
1503683619387,+0.143,+0.328,-0.598,-0.718,+0.928,-0.371,+0.054,-2.562,+39.812,-31.438,-2, 0, -2, -1, 0, 0, -2, 0,-0.6767775292883249,1.4978327808662766,8
1503683619410,+0.146,+0.325,-0.603,-0.714,+1.077,-0.394,+0.023,+1.938,+20.312,-41.500,-2, -1, -1, 0, -2, -1, -1, 2,-0.6776302055258302,1.506519897831508,8
1503683619434,+0.150,+0.322,-0.604,-0.713,+1.079,-0.382,-0.026,-2.375,-1.000,-37.000,1, 1, 0, 0, 0, 0, -2, -4,-0.6786195086616206,1.5051223142100083,8
1503683619447,+0.152,+0.319,-0.607,-0.712,+1.022,-0.396,+0.048,-7.250,+9.188,-31.500,-1, -3, -4, -1, -2, -1, 1, 4,-0.6775773627219897,1.5088997598789509,8
1503683619484,+0.152,+0.318,-0.604,-0.715,+1.366,-0.396,-0.058,-9.625,-25.625,+0.375,-1, 1, 0, 1, -1, -2, -1, -1,-0.6749589917926289,1.4999855464959446,8
1503683619502,+0.148,+0.320,-0.597,-0.721,+1.167,-0.392,-0.017,-16.188,-45.500,+40.438,1, 0, 0, -1, -1, 0, -3, -3,-0.6701655944107262,1.4847987044380704,8
1503683619506,+0.142,+0.322,-0.593,-0.725,+0.881,-0.384,+0.100,-17.062,-27.688,+36.750,0, 0, -3, -2, -1, 1, -1, 0,-0.6632479776484884,1.4771634377860015,8
1503683619529,+0.137,+0.323,-0.592,-0.726,+0.917,-0.339,-0.044,-14.688,+3.625,+22.062,-2, -2, -3, -2, -1, 0, 3, 0,-0.6569502201483871,1.475719089322224,8
1503683619551,+0.135,+0.323,-0.592,-0.726,+1.040,-0.352,-0.029,-10.062,+1.938,+9.312,-1, 5, 0, -1, 0, -1, -2, -2,-0.6538336086469915,1.4755901284950648,8
1503683619568,+0.133,+0.324,-0.590,-0.728,+1.140,-0.419,+0.036,-9.062,-17.438,+15.312,-4, -2, -3, -1, -3, 1, 5, 4,-0.6518989508883565,1.4718341415893945,8
1503683619589,+0.129,+0.326,-0.586,-0.731,+1.010,-0.395,-0.039,-11.312,-21.188,+29.125,-1, 2, 3, -1, 0, -1, 1, -2,-0.6477690869743102,1.4642164778997262,8
1503683619611,+0.124,+0.327,-0.584,-0.732,+0.796,-0.350,-0.063,-12.000,+0.125,+25.125,-1, -1, -1, 0, -1, 0, -1, 0,-0.6408945649176235,1.4601158898307032,8
1503683619626,+0.119,+0.329,-0.588,-0.729,+0.821,-0.318,-0.040,-9.500,+37.500,+13.750,0, -2, -2, -2, -1, 0, -1, 0,-0.6384046004302183,1.4727476828568038,8
1503683619649,+0.116,+0.329,-0.594,-0.725,+1.025,-0.302,-0.005,-4.875,+47.250,+2.688,1, 0, -2, 0, 0, -1, 1, -1,-0.6363556094127165,1.4879619077485795,8
1503683619671,+0.117,+0.328,-0.598,-0.722,+1.062,-0.284,-0.004,-1.938,+25.000,-8.375,-1, -1, 0, 1, -1, 0, 1, 0,-0.6376842951381456,1.4968839282493724,8
1503683619687,+0.120,+0.325,-0.600,-0.721,+0.952,-0.256,-0.051,+0.625,+2.750,-23.000,0, 5, -1, -1, 0, 1, -3, -2,-0.637645716115258,1.498034843574535,8
1503683619709,+0.125,+0.322,-0.601,-0.721,+0.828,-0.228,-0.043,+1.938,-6.188,-35.062,-2, -4, -1, -1, -2, -2, -3, 0,-0.6403478209198381,1.4967823862483416,8
1503683619731,+0.131,+0.318,-0.603,-0.720,+0.799,-0.231,-0.069,+2.562,+3.312,-39.375,-1, 1, 2, 1, -1, -2, -2, 1,-0.6431451462040982,1.4968129311205705,8
1503683619748,+0.135,+0.313,-0.608,-0.717,+0.833,-0.203,-0.040,-1.438,+23.938,-42.750,-2, -5, -3, -1, 0, -2, -1, -3,-0.6422401148782578,1.503213067670604,8
1503683619771,+0.140,+0.308,-0.614,-0.713,+0.913,-0.143,-0.049,-3.312,+27.000,-44.750,-3, -5, -5, -4, -2, -2, -1, -1,-0.6431358029073533,1.512347934799445,8
1503683619792,+0.146,+0.302,-0.618,-0.711,+0.981,-0.121,-0.071,-2.000,+13.375,-46.062,2, -2, 0, 0, -1, -1, -5, 0,-0.6432235657502622,1.5152742239239758,8
1503683619807,+0.153,+0.296,-0.620,-0.710,+0.995,-0.125,-0.085,-0.188,-2.938,-46.875,0, -1, -1, -1, 0, -1, 0, -1,-0.6441897431325976,1.5132190653017263,8
1503683624940,+0.210,+0.406,-0.574,-0.679,+0.938,-0.307,+0.084,+64.250,+17.375,-43.062,-1, -3, -3, 0, 0, 2, -3, -2,-0.911573333064544,1.5588223135095471,9
1503683624951,+0.219,+0.410,-0.576,-0.672,+0.978,-0.333,+0.104,+59.438,+8.875,-37.875,0, -1, 0, -1, -2, -2, -1, -1,-0.9332604430426799,1.5705362934997185,9
1503683624975,+0.226,+0.415,-0.578,-0.665,+0.947,-0.366,+0.153,+51.438,+17.875,-31.188,-3, -2, 0, -1, 0, 0, -1, 0,-0.9539267310432848,1.583989889465007,9
1503683624996,+0.230,+0.419,-0.583,-0.657,+0.942,-0.348,+0.177,+40.188,+29.125,-32.688,0, 0, 0, -2, -1, -2, -1, 2,-0.9690064508010177,1.6030128937359376,9
1503683625012,+0.236,+0.421,-0.588,-0.649,+1.006,-0.301,+0.174,+36.875,+32.188,-38.188,1, 1, 0, 0, -1, -1, -3, -1,-0.9829290714831165,1.6185490385768757,9
1503683625034,+0.242,+0.422,-0.593,-0.642,+1.064,-0.282,+0.178,+32.562,+23.312,-43.000,-1, -2, -1, -1, -3, 0, -1, 0,-0.9949316916630842,1.6322993423215777,9
1503683625056,+0.248,+0.421,-0.597,-0.636,+1.022,-0.236,+0.167,+28.562,+19.000,-45.000,0, -3, 0, 0, -2, -1, -2, 1,-1.0024316520900338,1.640195130769633,9
1503683625072,+0.254,+0.420,-0.602,-0.630,+0.967,-0.181,+0.150,+24.625,+20.500,-42.000,-1, -2, 0, 0, -1, 0, 1, 0,-1.010376340605722,1.650480722431582,9
1503683625094,+0.259,+0.420,-0.608,-0.622,+0.967,-0.112,+0.146,+21.562,+37.375,-38.125,-3, -1, -2, -1, 0, -2, -3, -7,-1.0187284114972772,1.6651114883365514,9
1503683625117,+0.262,+0.419,-0.612,-0.617,+1.162,-0.091,+0.189,+9.562,+20.625,-23.500,-2, 1, -1, -1, -2, 0, -2, -2,-1.0217238675776341,1.673240806475753,9
1503683625132,+0.263,+0.419,-0.612,-0.618,+1.262,-0.176,+0.144,+1.312,-4.750,+2.875,-4, 1, -2, 2, 1, -1, 0, 0,-1.023572812135952,1.6730260596502355,9
1503683625154,+0.261,+0.417,-0.609,-0.622,+1.102,-0.214,+0.167,-18.062,-23.562,+16.000,0, 2, -1, 0, 0, -1, -13, -5,-1.015996521770691,1.662350134817,9
1503683625177,+0.260,+0.415,-0.606,-0.627,+0.897,-0.136,+0.115,-23.188,-25.812,+14.000,-1, -3, -1, -1, -1, 1, 3, -4,-1.0102801660064853,1.6515061969802225,9
1503683625202,+0.259,+0.412,-0.604,-0.632,+0.859,-0.095,+0.092,-23.938,-31.562,+9.938,0, -3, -2, 1, -2, 1, 2, -1,-1.0029428363966593,1.6414350553645247,9
1503683625214,+0.257,+0.410,-0.601,-0.636,+0.927,-0.169,+0.085,-25.438,-21.062,+17.188,-2, -2, -3, -2, -1, -1, 0, 1,-0.9953810054326595,1.630815702345893,9
1503683625236,+0.250,+0.409,-0.599,-0.641,+1.028,-0.276,+0.109,-31.625,-11.688,+33.062,0, 1, -2, -1, -3, -1, 0, -3,-0.9826940740697077,1.624388557591966,9
1503683625254,+0.242,+0.409,-0.597,-0.647,+1.017,-0.284,+0.101,-44.375,-6.375,+38.188,-1, -2, -1, -1, -2, -3, -1, 0,-0.9708146395825644,1.6195790965698995,9
1503683625275,+0.235,+0.406,-0.597,-0.651,+0.916,-0.202,+0.047,-43.562,+1.000,+27.000,3, 5, 2, -1, -1, 0, -4, 4,-0.9546891032823214,1.614657637423301,9
1503683625296,+0.231,+0.404,-0.597,-0.653,+0.907,-0.208,+0.090,-31.125,-4.250,+9.500,0, -2, 1, 3, 2, -1, -2, -4,-0.9448261388098578,1.6113916064632514,9
1503683625313,+0.232,+0.400,-0.596,-0.656,+0.991,-0.271,+0.090,-14.812,-23.250,-10.875,-5, -3, -3, -3, -4, 0, 3, 0,-0.9384773884133918,1.602238534401935,9
1503683625334,+0.237,+0.395,-0.594,-0.660,+0.995,-0.299,+0.089,-13.875,-36.562,-30.125,3, 1, 2, 1, -1, -4, -5, -4,-0.9363268711790355,1.5890397648937256,9
1503683625356,+0.241,+0.388,-0.593,-0.663,+0.873,-0.247,+0.073,-17.062,-39.000,-39.125,1, 3, 1, 0, 1, -1, -3, -6,-0.928980379044579,1.5753024575924808,9
1503683625376,+0.246,+0.382,-0.593,-0.665,+0.775,-0.189,-0.028,-10.625,-24.375,-37.688,-2, -4, -1, 0, -1, 1, -4, -1,-0.9257008848929098,1.5658262356119033,9
1503683625393,+0.249,+0.378,-0.595,-0.664,+0.780,-0.178,-0.063,-5.188,+7.688,-32.938,-2, -1, 0, 0, 0, 0, 0, 6,-0.9233211209694272,1.5644779575585899,9
1503683625418,+0.252,+0.376,-0.601,-0.659,+0.882,-0.170,-0.015,+0.938,+33.438,-38.125,-1, -2, -3, -1, 0, -1, 0, 0,-0.925523083641886,1.5760467721185594,9
1503683625433,+0.256,+0.373,-0.607,-0.654,+1.023,-0.150,+0.029,+6.438,+32.188,-42.938,0, -2, -4, -3, -1, 1, 1, -1,-0.9273622545201632,1.5861829767617857,9
1503683625455,+0.261,+0.371,-0.610,-0.650,+1.119,-0.129,+0.028,+12.375,+12.625,-38.188,-3, -3, -2, -1, 0, 0, 1, 0,-0.931725661648343,1.590539124952095,9
1503683625511,+0.268,+0.368,-0.609,-0.650,+1.150,-0.125,-0.004,+15.375,-15.500,-30.125,-1, -2, 2, 1, -1, -2, -2, -3,-0.9369764697542633,1.583546559024829,9
1503683633299,+0.193,+0.353,-0.609,-0.684,+0.998,-0.177,+0.138,+34.938,+58.562,-24.750,-1, 2, -2, -2, -1, 1, 1, 0,-0.79831030476493,1.5614915827998,10
1503683633321,+0.198,+0.355,-0.615,-0.676,+1.017,-0.182,+0.093,+33.125,+42.000,-30.250,0, -1, 0, 0, -2, -1, -5, 0,-0.8107252336424808,1.5795404201271865,10
1503683633343,+0.204,+0.356,-0.617,-0.671,+1.028,-0.189,+0.054,+30.188,+14.625,-27.000,-1, 1, 2, 1, 1, -1, 2, 0,-0.821547155905694,1.586053110449611,10
1503683633359,+0.208,+0.357,-0.620,-0.668,+0.961,-0.194,+0.073,+20.000,+14.812,-20.438,-1, 3, -3, -3, -3, -4, -2, 2,-0.8303190601780407,1.5950516260536693,10
1503683633380,+0.210,+0.357,-0.624,-0.663,+0.925,-0.162,+0.119,+11.750,+24.812,-18.750,0, -2, 0, 0, -1, 1, 0, -4,-0.8339472075549496,1.6052120751141385,10
1503683633404,+0.212,+0.357,-0.628,-0.658,+1.001,-0.141,+0.106,+10.750,+32.688,-18.000,-1, -5, -6, -4, 0, 1, 2, 0,-0.8375496631958783,1.6154233406502323,10
1503683633419,+0.214,+0.357,-0.633,-0.653,+1.023,-0.162,+0.116,+12.000,+30.688,-20.688,-1, 3, -3, -1, 0, -1, -1, -7,-0.841612144066788,1.6281873882731663,10
1503683633441,+0.217,+0.357,-0.636,-0.649,+0.982,-0.172,+0.122,+13.438,+20.125,-27.625,-1, 2, 0, -1, -1, 1, 3, 0,-0.8465077937597618,1.6358672213847723,10
1503683633473,+0.222,+0.355,-0.640,-0.644,+0.950,-0.125,+0.140,+12.938,+15.250,-35.062,1, -1, -1, -1, 2, -1, -1, -7,-0.8507527663732654,1.6432298251414692,10
1503683633479,+0.226,+0.354,-0.643,-0.640,+0.974,-0.100,+0.139,+11.500,+17.812,-28.625,-3, 1, 0, 0, -2, -2, -1, -2,-0.8552027951326865,1.6495003695413177,10
1503683633503,+0.227,+0.353,-0.648,-0.635,+0.982,-0.098,+0.119,+5.875,+34.062,-16.688,0, 1, 0, -1, 0, -2, 2, 7,-0.8556475415047743,1.661095261051485,10
1503683633523,+0.226,+0.353,-0.652,-0.632,+1.102,-0.107,+0.208,-3.375,+23.625,-5.812,-1, -2, 0, -1, 0, 0, -2, 0,-0.8550869222690205,1.6715293626274574,10
1503683633540,+0.224,+0.354,-0.651,-0.633,+1.183,-0.114,+0.127,-9.562,-1.312,+19.375,-2, -1, -1, 0, -2, -3, -2, -2,-0.8538061109523697,1.6704228668709207,10
1503683633562,+0.221,+0.354,-0.648,-0.638,+1.035,-0.155,+0.185,-18.562,-23.500,+24.062,-1, -4, -1, 0, -2, -1, -2, -4,-0.8492939567461972,1.6625127909154336,10
1503683633583,+0.219,+0.352,-0.644,-0.642,+0.930,-0.137,+0.162,-19.250,-32.062,+18.375,-1, 0, -1, -1, -1, 2, -1, 5,-0.8416370683365211,1.6494049865748504,10
1503683633599,+0.219,+0.352,-0.641,-0.646,+0.873,-0.124,+0.098,-9.625,-27.000,+11.312,-1, -2, -5, -1, 1, 1, -1, 2,-0.8413935097140571,1.6414983993508174,10
1503683633622,+0.217,+0.351,-0.637,-0.651,+0.942,-0.211,+0.076,-10.438,-26.188,+15.312,-4, -3, -1, -3, -3, 0, 4, 2,-0.8359536972656645,1.629747528064835,10
1503683633645,+0.214,+0.352,-0.634,-0.654,+1.008,-0.277,+0.136,-19.000,-19.000,+20.125,-1, -3, -3, 0, 0, 0, 0, -4,-0.8326989729660077,1.6235267878753326,10
1503683633659,+0.209,+0.351,-0.634,-0.657,+0.908,-0.267,+0.157,-22.875,-6.812,+11.750,-2, 2, 1, 1, 1, 0, 3, 0,-0.8239509850714778,1.6221028708632246,10
1503683633681,+0.207,+0.349,-0.635,-0.657,+0.867,-0.229,+0.103,-20.250,+2.375,-5.688,-4, 1, -2, -2, 0, -3, -4, -2,-0.8175157684493567,1.6218839498394628,10
1503683633703,+0.207,+0.346,-0.636,-0.658,+0.932,-0.210,+0.100,-15.000,-3.062,-12.688,-1, -3, -1, 0, 0, 2, 2, -1,-0.8125315941066532,1.6201573529681412,10
1503683633720,+0.206,+0.343,-0.636,-0.660,+1.016,-0.258,+0.095,-18.438,-10.125,-9.312,0, 0, 1, 1, -3, -3, -5, -4,-0.8058456441239952,1.6159210308682281,10
1503683633742,+0.206,+0.339,-0.637,-0.660,+0.982,-0.248,+0.127,-21.250,-2.062,-20.812,0, -3, -2, -1, -2, -1, -2, 3,-0.7987298237776863,1.612973911738025,10
1503683633767,+0.209,+0.334,-0.640,-0.660,+0.938,-0.189,+0.082,-11.812,-1.562,-35.375,0, -2, -2, -1, -1, -2, -3, 4,-0.7953581621502521,1.6137518904948658,10
1503683633779,+0.213,+0.329,-0.642,-0.659,+0.939,-0.148,+0.056,-6.688,-1.562,-43.375,2, 4, 0, 0, 2, 0, -3, -1,-0.7928409859525809,1.6121491822355538,10
1503683633806,+0.218,+0.323,-0.644,-0.658,+0.957,-0.114,+0.096,-9.125,-3.625,-43.500,-3, 3, 0, -2, -3, -2, 0, -2,-0.7901279534710256,1.6093573558358725,10
1503683633823,+0.221,+0.318,-0.647,-0.657,+1.014,-0.070,+0.098,-6.125,-1.000,-33.250,3, -1, -1, 0, 1, 1, 2, -2,-0.7866934957647407,1.610611191279589,10
1503683633839,+0.224,+0.315,-0.648,-0.657,+1.027,-0.048,+0.090,-7.375,-1.438,-20.000,-2, -2, 0, 0, -2, -1, 1, -3,-0.7863798025768172,1.6093207874595108,10
1503683633862,+0.226,+0.311,-0.649,-0.656,+1.008,-0.043,+0.065,-7.688,+0.812,-18.688,-1, 3, 1, 1, -1, 0, -5, -3,-0.7823965975815227,1.6069114960419637,10
1503683633883,+0.229,+0.308,-0.651,-0.655,+1.010,-0.026,+0.001,-1.188,+1.812,-24.625,-1, -5, -3, -2, -1, -2, 0, 3,-0.7822809860160319,1.6083387720946696,10
1503683633903,+0.231,+0.305,-0.652,-0.654,+1.069,-0.098,+0.119,-2.125,-1.938,-20.875,-1, -1, -1, 1, 0, 1, 4, -2,-0.7801675800690002,1.6072670670248148,10
1503683633921,+0.232,+0.303,-0.650,-0.657,+1.190,-0.111,+0.013,-8.125,-18.375,-3.375,-2, -1, -2, -1, -1, 0, 1, -3,-0.7783033426849479,1.59955910733165,10
1503683633944,+0.232,+0.301,-0.648,-0.660,+1.019,-0.081,+0.062,-12.750,-23.625,-1.438,-1, -4, 1, 2, 0, -1, -3, 2,-0.7748734029303302,1.5919082581915267,10
1503683633959,+0.236,+0.298,-0.646,-0.662,+0.811,-0.048,+0.046,-1.812,-21.312,-16.812,0, -2, -3, -3, -2, -2, -1, -2,-0.7757994578602384,1.5830853583132207,10
1503683639217,+0.080,+0.306,-0.565,-0.762,+0.837,-0.351,-0.101,+21.312,-5.188,-29.938,0, -3, -2, 1, 4, -1, -1, -2,-0.5290768534284083,1.381577322485863,11
1503683639224,+0.084,+0.307,-0.565,-0.761,+0.796,-0.413,-0.142,+14.750,-2.062,-21.812,-5, 0, 1, -1, -4, 0, 2, -3,-0.5370228696162292,1.3831764196763625,11
1503683639247,+0.085,+0.307,-0.568,-0.759,+0.787,-0.418,-0.132,+6.625,+18.750,-15.938,2, 1, 0, 0, 4, 0, 0, -2,-0.5400050025434247,1.3909460990452565,11
1503683639268,+0.086,+0.308,-0.572,-0.756,+0.865,-0.396,-0.126,+6.562,+28.375,-13.375,1, -2, -4, 7, 3, -1, 1, 1,-0.5451166278142504,1.402542560668908,11
1503683639284,+0.086,+0.308,-0.575,-0.753,+0.945,-0.422,-0.104,+3.562,+22.938,-9.125,2, -1, -3, -6, -6, 2, 1, 4,-0.5463399829621118,1.4100261924312598,11
1503683639306,+0.086,+0.308,-0.577,-0.752,+0.988,-0.430,-0.107,-0.500,+12.250,-7.625,-1, -3, 0, -1, -2, -2, 4, 1,-0.5473122252151323,1.4152255660084703,11
1503683639328,+0.086,+0.308,-0.577,-0.752,+0.983,-0.418,-0.089,-1.125,+0.625,-4.812,-2, 0, -2, -4, -4, -1, -3, 3,-0.5473122252151323,1.4152255660084703,11
1503683639345,+0.087,+0.308,-0.577,-0.752,+0.913,-0.398,-0.083,-1.312,-2.812,-6.000,0, 0, 0, -1, 1, -1, -3, -2,-0.5488833547139631,1.4153279041260338,11
1503683639366,+0.088,+0.306,-0.578,-0.752,+0.870,-0.365,-0.101,-1.312,+1.125,-16.000,1, -1, 0, 0, 0, -2, -4, -7,-0.547531191564392,1.415466517827357,11
1503683639388,+0.091,+0.305,-0.581,-0.750,+0.877,-0.374,-0.073,+2.250,+13.375,-28.375,-3, 0, 0, -1, 3, 0, -5, -1,-0.5518457009343528,1.4221421799149547,11
1503683639407,+0.093,+0.304,-0.586,-0.745,+0.903,-0.417,-0.048,+4.625,+33.875,-31.000,2, 0, -3, -2, -4, 0, -2, -2,-0.5551574028297335,1.4335784472947743,11
1503683639426,+0.095,+0.302,-0.594,-0.740,+0.969,-0.389,-0.042,+3.375,+44.750,-32.500,1, -1, 0, -2, 2, 0, -1, -1,-0.5582954882559421,1.4518516467424143,11
1503683639448,+0.097,+0.300,-0.600,-0.735,+1.104,-0.357,-0.014,-1.688,+37.438,-27.375,-1, 0, -2, -3, -5, -2, -2, -3,-0.5602591800032446,1.464834345476271,11
1503683639464,+0.098,+0.298,-0.602,-0.734,+1.164,-0.344,-0.072,-5.438,+7.750,-16.312,0, 4, 2, 4, 12, 2, 2, 1,-0.5591953716352033,1.467587830380937,11
1503683639486,+0.098,+0.295,-0.599,-0.738,+1.134,-0.359,-0.079,-18.125,-31.625,+3.812,-1, -3, -3, -5, -3, -3, 0, 0,-0.5530934725373124,1.4562736924236617,11
1503683639508,+0.096,+0.294,-0.592,-0.744,+0.961,-0.305,-0.104,-22.000,-44.312,+19.938,-1, 0, 4, 2, 1, -1, -4, -3,-0.5456098779874317,1.4369653595118865,11
1503683639531,+0.094,+0.292,-0.588,-0.748,+0.791,-0.291,-0.051,-19.938,-29.062,+12.625,1, -1, -1, -6, -2, -5, -1, 1,-0.5376396368875224,1.42420694495116,11
1503683639546,+0.091,+0.291,-0.587,-0.750,+0.830,-0.326,-0.083,-19.688,-9.062,+4.500,-1, 0, -2, -2, -1, -1, -5, 0,-0.5310537356540336,1.4203554008933428,11
1503683639568,+0.089,+0.289,-0.588,-0.750,+0.861,-0.325,-0.117,-19.375,+9.625,+1.688,-1, 1, 0, 7, 0, -2, -1, 0,-0.525067812132282,1.4203836432693837,11
1503683639584,+0.086,+0.287,-0.588,-0.752,+0.987,-0.346,-0.139,-16.938,+0.688,+9.375,1, 2, -1, -1, -2, 0, -2, 0,-0.5173213203329814,1.4180158203149464,11
1503683639608,+0.083,+0.286,-0.586,-0.754,+1.038,-0.340,-0.124,-17.125,-10.438,+13.875,-2, 0, 3, 0, -1, 0, 0, 0,-0.5101951051617989,1.4114817009599094,11
1503683639628,+0.083,+0.284,-0.585,-0.755,+0.905,-0.313,-0.116,-14.062,-11.250,-0.875,-4, 0, 1, -1, -6, -2, -4, -3,-0.5064745495463308,1.4065306579763308,11
1503683639644,+0.084,+0.282,-0.585,-0.756,+0.812,-0.300,-0.150,-5.750,+0.562,-15.688,5, 3, -1, -3, 1, -1, -4, -2,-0.5048707338985035,1.4044096279114002,11
1503683639666,+0.087,+0.280,-0.588,-0.754,+0.819,-0.297,-0.124,+0.688,+18.188,-28.125,-1, 2, -1, 1, 3, -1, 1, -1,-0.5075058877893567,1.4100110642552435,11
1503683645051,+0.138,+0.346,-0.560,-0.740,+0.924,-0.420,-0.016,+18.562,+49.688,-33.438,1, 0, 2, -3, -3, -3, -5, -4,-0.6862599061215664,1.4274939449838773,12
1503683645073,+0.140,+0.346,-0.567,-0.735,+0.994,-0.438,-0.029,+8.688,+37.812,-30.875,-1, -2, 4, -1, -2, -1, -3, -3,-0.6922986128187334,1.4450723850770109,12
1503683645089,+0.143,+0.344,-0.571,-0.732,+0.962,-0.422,+0.008,-0.062,+13.125,-36.500,0, -4, -5, -1, 0, -2, 3, 2,-0.694881219298929,1.4522889798309493,12
1503683645113,+0.148,+0.340,-0.572,-0.732,+0.914,-0.378,-0.042,-0.938,-8.125,-38.625,0, -1, -3, -1, -1, 0, 1, 0,-0.6959353298306724,1.4494066137017896,12
1503683645132,+0.153,+0.336,-0.573,-0.732,+0.839,-0.322,-0.119,-3.750,-8.688,-43.625,-2, -3, -1, 1, -2, -1, -3, 0,-0.6970782156205719,1.4466096750657171,12
1503683645149,+0.157,+0.331,-0.576,-0.731,+0.817,-0.248,-0.106,-6.625,+7.125,-37.312,0, -1, -2, -2, 0, 1, 0, 5,-0.6957023113051319,1.4474091040170738,12
1503683645171,+0.156,+0.330,-0.579,-0.729,+0.963,-0.268,-0.160,-4.125,+31.188,-6.562,1, 2, -1, 0, -2, -2, 0, -1,-0.6933807990613573,1.4533860787011479,12
1503683645193,+0.154,+0.330,-0.583,-0.726,+1.009,-0.314,-0.093,-8.562,+34.375,-0.312,-2, -3, -1, 0, 0, -2, -2, -3,-0.6915825456449635,1.4631912650962389,12
1503683645209,+0.154,+0.329,-0.586,-0.724,+0.940,-0.328,-0.048,-2.875,+17.250,-16.250,4, 2, -1, 0, 1, 1, -5, -1,-0.6908572948100378,1.4693142934006194,12
1503683645230,+0.156,+0.328,-0.589,-0.722,+0.895,-0.386,-0.043,+1.000,+12.500,-24.750,-3, 2, 3, 1, 1, -1, 0, 0,-0.6932785169595971,1.4755927369273023,12
1503683645253,+0.157,+0.327,-0.591,-0.720,+1.125,-0.479,-0.044,-4.750,+13.625,-24.500,-1, -3, -1, -3, -2, 1, 0, 5,-0.6935816812186132,1.4792230759407778,12
1503683645269,+0.154,+0.327,-0.591,-0.721,+1.110,-0.419,-0.016,-12.688,+0.875,+7.500,2, 0, -1, -1, 0, 1, 2, 0,-0.6891119752278442,1.479148540126904,12
1503683645291,+0.152,+0.327,-0.589,-0.723,+1.016,-0.372,+0.026,-13.562,-17.625,+9.750,-1, -1, 0, 0, 1, -1, -2, -7,-0.6854035453294325,1.474053945612707,12
1503683645316,+0.150,+0.326,-0.587,-0.726,+1.019,-0.319,-0.055,-16.062,-19.312,+11.812,-1, 1, -1, -2, -1, 2, -2, 4,-0.6801099118987367,1.4676925267924785,12
1503683645329,+0.148,+0.324,-0.584,-0.729,+0.912,-0.313,-0.079,-16.875,-18.438,+10.438,-4, -2, 2, 0, -1, 2, 3, -1,-0.6724685403448619,1.4573539485016154,12
1503683645352,+0.147,+0.322,-0.582,-0.732,+0.943,-0.259,-0.097,-14.938,-15.812,+4.125,-2, 3, -2, -1, -2, -1, -2, -1,-0.666950866288027,1.44972448977383,12
1503683645375,+0.147,+0.322,-0.580,-0.734,+1.101,-0.319,-0.052,-4.000,-19.438,+6.562,1, -2, -2, 1, 1, -1, -2, -3,-0.666373967527471,1.4448093274374731,12
1503683645389,+0.144,+0.325,-0.577,-0.736,+1.062,-0.446,-0.016,-4.000,-15.312,+26.750,1, -3, -1, -2, -2, -3, 3, 0,-0.6658624940499391,1.4411987932321153,12
1503683645411,+0.138,+0.328,-0.573,-0.738,+0.885,-0.439,-0.098,-11.625,-7.312,+31.062,-2, -4, -2, 0, -1, -1, 0, -1,-0.6600203191224803,1.4347443688101893,12
1503683645432,+0.134,+0.329,-0.574,-0.738,+0.841,-0.400,-0.077,-12.188,+13.062,+16.938,0, -3, -6, -1, 0, 3, 0, 6,-0.6560270285796462,1.438405998165827,12
1503683645449,+0.129,+0.331,-0.578,-0.735,+0.860,-0.468,+0.003,-8.125,+35.000,+4.938,1, -1, 1, 1, -1, -1, -5, -2,-0.6533317270421446,1.450837094154172,12
1503683645471,+0.126,+0.331,-0.584,-0.730,+0.879,-0.496,+0.068,-8.000,+42.250,-13.875,-3, -1, -3, 1, -1, 0, -2, -9,-0.6509122854321258,1.4656719255338737,12
1503683645493,+0.127,+0.329,-0.589,-0.727,+0.986,-0.430,+0.041,-7.625,+23.375,-32.688,-2, -3, 0, -1, 1, 1, 0, -1,-0.6509347351290643,1.4756813573113596,12
1503683645509,+0.132,+0.324,-0.593,-0.725,+1.026,-0.311,-0.002,-7.188,+3.438,-42.438,2, -1, 0, -2, 0, -2, -5, -4,-0.6513058415172608,1.4792911219067608,12
1503683645531,+0.138,+0.318,-0.595,-0.725,+0.930,-0.260,-0.057,-6.562,-4.188,-48.188,-3, -1, -2, 0, 0, 0, -3, -2,-0.6508504554216931,1.4767032973936827,12
1503683650495,+0.209,+0.376,-0.552,-0.714,+0.804,-0.343,+0.022,+72.500,+16.000,-45.438,-1, -1, 0, 1, 1, -1, 0, -4,-0.8475981469240671,1.4572219729537192,13
1503683650511,+0.217,+0.383,-0.555,-0.706,+0.808,-0.362,+0.030,+64.250,+28.312,-40.500,1, 2, -1, -2, 0, -1, -5, 2,-0.8737774166500503,1.4757329389333227,13
1503683650533,+0.222,+0.390,-0.561,-0.696,+0.902,-0.361,+0.050,+54.875,+49.625,-26.625,-1, -5, 0, -1, -1, -2, 0, 0,-0.8960972013263786,1.501355753733057,13
1503683650556,+0.225,+0.396,-0.568,-0.686,+0.979,-0.318,+0.095,+45.375,+55.812,-21.312,-3, 0, -3, -2, -1, -2, 0, -6,-0.9137658327506444,1.527877349911283,13
1503683650571,+0.229,+0.400,-0.573,-0.677,+1.011,-0.272,+0.106,+41.125,+40.625,-31.250,1, 2, 0, 1, 1, -2, 1, 6,-0.9283216348616301,1.5464622595475628,13
1503683650594,+0.235,+0.402,-0.578,-0.670,+1.011,-0.254,+0.115,+38.062,+25.125,-33.375,-3, -3, 0, -2, -2, -1, -4, -10,-0.9425443517298183,1.5618454936643968,13
1503683650619,+0.241,+0.404,-0.581,-0.664,+1.007,-0.255,+0.091,+31.938,+17.250,-33.250,-1, 2, 1, 0, 1, 1, 2, 2,-0.9560364096556022,1.5724045282779724,13
1503683650631,+0.245,+0.404,-0.585,-0.659,+1.022,-0.219,+0.115,+23.750,+19.188,-26.938,1, -1, -1, 1, -1, 1, -2, 4,-0.962940049417578,1.582026104770641,13
1503683650657,+0.249,+0.405,-0.587,-0.655,+0.997,-0.199,+0.108,+17.625,+12.500,-19.625,-2, -1, 2, 2, 2, 0, 1, -3,-0.9712188516398509,1.588502015569182,13
1503683650676,+0.251,+0.405,-0.589,-0.652,+0.983,-0.198,+0.052,+13.062,+14.938,-16.312,-2, -1, -1, -1, 1, 1, 1, 3,-0.9745042259916721,1.5933298461730458,13
1503683650691,+0.253,+0.405,-0.593,-0.648,+0.921,-0.181,+0.082,+9.812,+24.812,-20.500,1, -1, -1, -2, -3, 1, 2, 3,-0.9784208197935168,1.602987926860774,13
1503683650713,+0.255,+0.406,-0.598,-0.642,+0.956,-0.166,+0.130,+14.250,+32.875,-22.250,-2, -2, -2, 0, 0, 0, -2, -4,-0.9842592529600572,1.6167997153839022,13
1503683650735,+0.257,+0.407,-0.603,-0.636,+1.012,-0.180,+0.139,+14.812,+31.375,-22.812,-1, -2, -1, -2, -3, -1, -1, 3,-0.9900757136943629,1.6306664656337224,13
1503683650751,+0.260,+0.406,-0.607,-0.631,+1.049,-0.178,+0.135,+9.750,+25.875,-27.438,2, 1, 1, 1, 1, 0, 0, 2,-0.9931588267208299,1.6388176391252982,13
1503683650773,+0.263,+0.405,-0.611,-0.627,+1.061,-0.146,+0.172,+9.188,+15.500,-28.312,0, -2, -1, -2, -2, -1, -3, -7,-0.9965130151485495,1.6469256367816045,13
1503683650796,+0.266,+0.404,-0.615,-0.623,+1.014,-0.127,+0.199,+10.688,+16.562,-24.562,-3, 1, -1, -1, -2, -2, 3, 2,-0.999850657060028,1.6550647774557092,13
1503683650811,+0.270,+0.402,-0.616,-0.622,+1.048,-0.113,+0.121,+4.688,-4.000,-20.875,0, -1, -4, -3, -2, -3, -2, 1,-1.002286019344864,1.6541105829231828,13
1503683650833,+0.269,+0.402,-0.614,-0.624,+1.115,-0.208,+0.075,-4.938,-9.188,+10.312,-3, 0, -1, -1, -1, -1, 1, 0,-1.0003937371648821,1.649206463230053,13
1503683650856,+0.264,+0.403,-0.613,-0.626,+1.011,-0.197,+0.235,-22.188,-5.375,+23.125,-2, -1, -3, -5, -3, -1, -6, 0,-0.9945949533349973,1.6485329802222388,13
1503683650871,+0.261,+0.402,-0.613,-0.628,+0.933,-0.078,+0.114,-18.250,-0.625,+16.250,-1, 0, 0, -1, -1, -4, -3, -4,-0.9883498111944793,1.6469380169785863,13
1503683650893,+0.262,+0.401,-0.611,-0.631,+0.954,-0.085,+0.026,-5.812,-15.125,+11.438,1, 0, 1, 1, -1, 1, -5, -1,-0.9878729382369221,1.6402356473660988,13
1503683650915,+0.260,+0.402,-0.607,-0.635,+1.037,-0.236,+0.023,-8.500,-20.812,+24.250,1, 2, -1, -1, -2, 1, 0, 8,-0.9860951345959987,1.6320566128654725,13
1503683650931,+0.255,+0.404,-0.603,-0.639,+1.049,-0.294,+0.131,-14.438,-18.688,+33.938,-3, 1, 2, 2, 3, -1, 1, -3,-0.9815669693854635,1.6256725039102506,13
1503683650957,+0.251,+0.405,-0.599,-0.643,+0.968,-0.261,+0.149,-17.625,-17.312,+33.938,1, -2, 0, 1, 1, 0, -1, -3,-0.9765670984005218,1.617650746919634,13
1503683650976,+0.248,+0.405,-0.596,-0.647,+0.935,-0.249,+0.087,-12.625,-17.500,+20.188,1, -1, -4, -6, -3, -2, -5, 1,-0.9715422387651675,1.6103619673893497,13
1503683650991,+0.247,+0.405,-0.595,-0.649,+0.913,-0.239,+0.055,-5.188,-8.062,+8.250,1, 1, 1, 0, -2, -3, -2, 3,-0.9700549704919509,1.60790468794177,13
1503683651013,+0.248,+0.406,-0.594,-0.649,+0.904,-0.249,+0.063,+3.125,-3.625,-3.625,-2, 1, -2, 0, 1, -1, -4, -5,-0.9732437452320538,1.6071279633585773,13
1503683651035,+0.250,+0.405,-0.595,-0.648,+0.942,-0.270,+0.113,+4.875,+0.812,-13.500,-5, -2, -3, 0, 0, 0, 6, -2,-0.9745501568721889,1.6078574701176864,13
1503683651053,+0.251,+0.405,-0.596,-0.646,+0.940,-0.285,+0.097,+4.500,+8.812,-14.688,2, 0, 1, -1, -1, -2, -5, 0,-0.9760361692344074,1.6103116959973829,13
1503683651073,+0.252,+0.405,-0.599,-0.643,+0.926,-0.246,+0.059,+4.688,+18.750,-17.250,-1, -3, 1, 1, -1, -2, -1, -6,-0.9781594388215498,1.6176118560058232,13
1503683657000,+0.185,+0.357,-0.585,-0.704,+0.806,-0.282,+0.061,+49.312,+21.125,-32.562,-1, 6, -5, -5, 0, -1, -1, -1,-0.7865186053188021,1.5074225228379858,14
1503683657020,+0.191,+0.360,-0.590,-0.697,+0.890,-0.224,+0.051,+43.438,+32.812,-32.875,-3, -5, -4, -3, 1, -2, -1, -7,-0.8024810085613803,1.5243704092866062,14
1503683657042,+0.198,+0.362,-0.596,-0.688,+0.891,-0.145,+0.082,+41.875,+40.562,-35.750,-3, 11, 1, 0, -2, -2, -2, -9,-0.8179861344442825,1.5422815012479916,14
1503683657057,+0.204,+0.365,-0.602,-0.680,+0.945,-0.146,+0.125,+40.000,+37.188,-31.875,-1, -2, 1, 1, -2, -1, -1, 0,-0.8340586110218414,1.5617622209576048,14
1503683657079,+0.208,+0.367,-0.607,-0.674,+1.013,-0.173,+0.126,+29.875,+29.000,-21.500,-1, -1, -1, -2, 0, 0, 1, -1,-0.8450550602271881,1.5772602889726974,14
1503683657104,+0.212,+0.368,-0.611,-0.668,+0.980,-0.150,+0.094,+24.000,+28.438,-20.250,-2, 1, 0, -2, -1, -3, 2, 4,-0.8535511168057698,1.588782144353133,14
1503683657117,+0.216,+0.369,-0.615,-0.662,+0.937,-0.162,+0.097,+21.688,+25.562,-29.250,0, -1, -3, -2, -1, -1, 0, -8,-0.8620100132492502,1.6003378437457136,14
1503683657139,+0.221,+0.368,-0.619,-0.658,+0.981,-0.164,+0.094,+19.000,+18.062,-31.375,-2, -5, -5, -2, -1, -1, -4, -3,-0.8686300879917251,1.6088129155127617,14
1503683657163,+0.226,+0.368,-0.622,-0.653,+0.979,-0.176,+0.124,+17.625,+18.500,-29.812,-1, 2, 3, 0, -1, -1, -1, 3,-0.8764160947106562,1.616353277515541,14
1503683657177,+0.229,+0.367,-0.627,-0.648,+0.966,-0.188,+0.140,+12.125,+21.312,-29.375,-1, -3, -3, -3, -2, -1, 0, -3,-0.8800433179578104,1.627467758296734,14
1503683657200,+0.231,+0.366,-0.632,-0.643,+1.008,-0.153,+0.159,+7.312,+34.875,-29.938,-4, -4, -3, 0, 1, 0, -3, 1,-0.8820767392186529,1.6386863395252609,14
1503683657222,+0.235,+0.364,-0.637,-0.637,+1.046,-0.123,+0.093,+11.562,+31.000,-35.312,1, -2, -3, 1, -1, -3, 1, -4,-0.8849238303981884,1.6485231953146526,14
1503683657238,+0.238,+0.362,-0.641,-0.633,+1.093,-0.145,+0.216,+5.688,+14.875,-33.500,0, -9, -2, 0, -1, -1, -5, 4,-0.8863248517307805,1.6558200315435174,14
1503683657259,+0.240,+0.359,-0.638,-0.637,+1.227,-0.144,+0.019,-6.375,-26.812,-3.250,-3, -2, -2, -1, -1, 0, 3, 2,-0.8834419698393358,1.6436018034717659,14
1503683657282,+0.238,+0.358,-0.634,-0.643,+1.045,-0.186,+0.190,-21.688,-39.188,+21.375,2, 4, 3, 0, -2, -3, -6, -1,-0.8783604348103783,1.6318323644045392,14
1503683657301,+0.235,+0.357,-0.632,-0.647,+0.955,-0.152,+0.184,-22.562,-25.062,+18.188,-1, 4, -2, -1, -1, 0, -1, 0,-0.8720060503193117,1.625273730943419,14
1503683657320,+0.234,+0.355,-0.628,-0.652,+0.978,-0.110,+0.049,-17.750,-28.625,+15.125,-3, -5, -3, -2, -2, -1, -3, -13,-0.8662447525636668,1.6122100407300586,14
1503683657342,+0.231,+0.355,-0.625,-0.656,+0.974,-0.166,+0.065,-16.938,-22.125,+18.312,-1, -3, -3, -2, -3, 1, 2, -7,-0.861325548314801,1.6046245366408003,14
1503683657357,+0.227,+0.355,-0.624,-0.658,+0.974,-0.229,+0.070,-16.062,-3.938,+21.625,-1, -3, -2, 0, -1, 0, -3, -4,-0.8551503384952768,1.6021413526968096,14
1503683657380,+0.222,+0.357,-0.623,-0.660,+0.966,-0.256,+0.093,-15.062,+2.250,+23.438,1, -6, -4, 0, 2, 1, 4, -1,-0.8512722766544981,1.6025493539449414,14
1503683657402,+0.219,+0.358,-0.620,-0.663,+1.036,-0.257,+0.018,-14.062,-9.438,+23.250,-6, -5, -2, -3, 0, -1, 1, -5,-0.8479503092004692,1.5964596911162487,14
1503683657417,+0.215,+0.358,-0.619,-0.666,+1.026,-0.240,+0.077,-17.000,-10.125,+22.125,3, 0, 0, 0, -1, 1, -2, 3,-0.8420882677626477,1.593941098380253,14
1503683657448,+0.213,+0.358,-0.617,-0.667,+0.940,-0.239,+0.074,-8.375,-8.188,+7.250,0, -3, 1, 0, 0, -1, -2, 0,-0.8382770634826058,1.5889434264120172,14
1503683657462,+0.214,+0.357,-0.616,-0.669,+0.959,-0.269,+0.036,-1.312,-13.312,-5.250,-1, 2, 3, 1, -1, -1, 1, -2,-0.8380043549277736,1.5849304351158031,14
1503683657477,+0.215,+0.356,-0.616,-0.669,+0.909,-0.254,+0.022,-0.688,+1.125,-13.125,-3, 4, -1, -1, 0, -1, 0, 0,-0.8376449339179974,1.58346745057013,14
1503683657500,+0.217,+0.355,-0.618,-0.667,+0.885,-0.206,+0.029,+0.750,+8.188,-18.875,0, -2, -2, -3, 0, 1, 0, -2,-0.8392421490121463,1.5870425135176538,14
1503683657522,+0.220,+0.354,-0.619,-0.666,+0.926,-0.187,+0.030,+3.688,+8.000,-19.375,-3, -4, -2, 1, -1, -2, -1, 1,-0.8422241742339622,1.5880898728868684,14
1503683657537,+0.221,+0.353,-0.622,-0.663,+0.947,-0.191,+0.059,+4.062,+15.188,-20.688,1, 3, -3, 0, 0, 0, -1, 0,-0.8424208489219444,1.5942280559135313,14
1503683662922,+0.085,+0.268,-0.427,-0.860,+0.833,-0.318,-0.466,+61.125,+43.688,+14.812,-1, -2, -2, -2, -1, 1, 1, -4,-0.41911004493640963,1.0083398005161432,15
1503683662944,+0.087,+0.278,-0.436,-0.852,+0.744,-0.307,-0.432,+62.875,+69.688,+0.250,-1, -15, -3, 0, -1, 2, 8, -1,-0.4397808669881989,1.0392976144828936,15
1503683662968,+0.085,+0.287,-0.454,-0.839,+0.686,-0.329,-0.374,+51.000,+130.125,-6.562,3, -1, -2, 0, 0, -1, -2, 2,-0.45662520444851573,1.0898050846023035,15
1503683662989,+0.084,+0.292,-0.474,-0.826,+0.882,-0.235,-0.289,+35.875,+140.812,-17.500,-1, 3, -2, -2, -1, -3, -5, -3,-0.47137260272045883,1.142287120517242,15
1503683663005,+0.087,+0.295,-0.497,-0.811,+0.851,-0.022,-0.214,+36.312,+144.188,-48.250,1, -1, 1, 2, -1, 0, 2, -4,-0.49179042036030085,1.201452068611557,15
1503683663027,+0.089,+0.302,-0.515,-0.797,+0.820,-0.296,-0.222,+55.312,+131.250,-25.188,-2, 3, 2, -1, 0, -2, 0, 1,-0.5142272118025509,1.2535937875100454,15
1503683663042,+0.088,+0.310,-0.525,-0.788,+1.002,-0.560,-0.277,+43.812,+80.812,+0.250,2, 3, 1, -2, -2, -1, 1, -3,-0.5299614013316379,1.2877216391031954,15
1503683663064,+0.090,+0.314,-0.532,-0.781,+0.994,-0.418,-0.166,+25.500,+51.750,-11.250,-2, -4, -4, -3, -2, 0, -2, -5,-0.5429499835620792,1.310096877626895,15
1503683663087,+0.095,+0.315,-0.537,-0.777,+0.913,-0.298,-0.153,+25.812,+21.125,-28.062,0, -5, -1, 1, 0, 0, 1, 1,-0.5551524407365208,1.3245289381584762,15
1503683663106,+0.101,+0.316,-0.538,-0.775,+0.815,-0.355,-0.179,+28.438,+3.062,-27.000,-2, -1, -1, -3, 1, -1, -4, 0,-0.5669800738641634,1.3289999604290492,15
1503683663124,+0.105,+0.318,-0.538,-0.773,+0.748,-0.440,-0.173,+19.812,+1.688,-23.125,-1, 7, 2, 0, -3, -1, 3, 6,-0.5766395312113579,1.3318685064803792,15
1503683663148,+0.107,+0.320,-0.541,-0.771,+0.767,-0.463,-0.146,+12.750,+19.562,-16.688,0, -8, -4, -2, -2, -3, 0, 3,-0.5847379314058744,1.342397110019685,15
1503683663162,+0.107,+0.321,-0.546,-0.766,+0.816,-0.447,-0.153,+9.000,+39.625,-15.938,-5, -6, -5, -1, 1, -2, -5, -3,-0.5883999737021055,1.3557750454721669,15
1503683663184,+0.108,+0.321,-0.551,-0.762,+0.890,-0.427,-0.140,+6.375,+35.125,-22.000,-1, 0, -1, -3, -3, -2, 2, -1,-0.5921304749592744,1.368219089506183,15
1503683663207,+0.110,+0.321,-0.555,-0.760,+0.973,-0.417,-0.147,+6.188,+21.875,-21.312,-1, -1, -2, -2, -1, -1, 0, 2,-0.597267054793236,1.3786397519987705,15
1503683663222,+0.112,+0.321,-0.559,-0.757,+0.912,-0.414,-0.107,+9.188,+20.375,-24.375,-1, -8, -2, 1, 1, 3, 1, 4,-0.6021772666650975,1.388829871144027,15
1503683663244,+0.117,+0.320,-0.562,-0.754,+0.886,-0.431,-0.094,+11.000,+16.000,-34.688,0, -1, 0, -1, -3, -1, -4, -7,-0.6095367459886648,1.395346436026193,15
1503683663267,+0.120,+0.319,-0.567,-0.750,+0.921,-0.452,-0.101,+10.250,+27.875,-37.625,-2, 8, 1, -1, 1, -2, -2, -5,-0.6145374371151973,1.406707856895751,15
1503683663282,+0.124,+0.317,-0.573,-0.745,+0.953,-0.407,-0.075,+5.688,+32.000,-45.188,-1, -4, 0, -2, -3, -1, 2, -5,-0.6196266802343975,1.4192787315502022,15
1503683663307,+0.129,+0.314,-0.580,-0.741,+0.985,-0.361,-0.041,+5.875,+27.625,-50.250,-2, 0, -2, -2, -2, -3, -1, -3,-0.6251853995228365,1.4334443623496593,15
1503683663327,+0.134,+0.312,-0.585,-0.736,+0.986,-0.389,-0.066,+10.750,+27.125,-46.438,-2, 0, 3, -1, 1, -2, -2, -1,-0.6311083239840908,1.4435554538849074,15
1503683663343,+0.137,+0.311,-0.592,-0.731,+0.932,-0.391,-0.092,+8.562,+43.562,-41.562,4, 5, -3, -2, 0, 0, -2, 1,-0.6366023213363688,1.4601446470075388,15
1503683663364,+0.139,+0.310,-0.598,-0.726,+1.273,-0.398,+0.000,-0.312,+30.312,-29.438,0, -8, -3, 0, -1, 0, 1, 2,-0.6399298712046279,1.474090720214009,15
1503683663387,+0.136,+0.311,-0.596,-0.728,+1.335,-0.375,-0.112,-3.688,-3.125,+24.188,0, 0, 1, -1, -1, -5, -2, -2,-0.636439596489462,1.47020333160207,15
1503683663402,+0.133,+0.313,-0.592,-0.730,+1.045,-0.401,+0.053,-10.875,-25.375,+28.438,0, 0, 0, 2, 1, -1, -4, -1,-0.633653767653963,1.4623834820967798,15
1503683663424,+0.130,+0.314,-0.588,-0.734,+0.968,-0.346,-0.013,-11.812,-31.750,+18.500,-2, -3, -2, -2, -1, 1, -4, -3,-0.6294979907930258,1.4535161324077694,15
1503683663447,+0.129,+0.313,-0.584,-0.738,+0.850,-0.336,-0.052,-12.375,-26.812,+9.500,-1, -9, -1, 0, -1, -2, -3, -5,-0.6248995001714376,1.4421534375936877,15
1503683663462,+0.129,+0.312,-0.582,-0.740,+0.899,-0.318,-0.082,-11.875,-16.250,+1.875,-2, 2, 0, -1, -2, 1, 2, 4,-0.6225084167738338,1.4358637486215429,15
1503683663484,+0.126,+0.312,-0.580,-0.742,+0.999,-0.339,-0.068,-12.875,-15.438,+14.125,1, 6, 1, 0, 1, 0, 0, 2,-0.6171277132564515,1.4306524218931358,15
1503683663508,+0.123,+0.311,-0.577,-0.745,+0.928,-0.335,-0.046,-18.250,-15.062,+18.062,-3, -2, 0, -1, -1, 1, 4, -2,-0.6096479374273427,1.421629988648211,15
1503683663521,+0.119,+0.310,-0.577,-0.746,+0.835,-0.285,-0.110,-22.875,+2.875,+11.062,1, 5, -3, 0, -1, 0, 3, 3,-0.60176174178733,1.4200837018379404,15
1503683663552,+0.117,+0.307,-0.580,-0.745,+0.851,-0.228,-0.107,-21.438,+18.375,+2.250,-1, 5, -2, -4, 1, 1, 0, 1,-0.5947707858795162,1.4236869196349926,15
1503683663567,+0.116,+0.304,-0.583,-0.745,+0.942,-0.228,-0.073,-17.875,+15.000,-7.750,0, -7, 0, 1, -1, -2, -3, -7,-0.5895818377443433,1.427627695404635,15
1503683663583,+0.118,+0.299,-0.585,-0.745,+0.984,-0.227,-0.078,-16.062,-0.438,-20.938,-4, -6, -4, -2, -1, 1, 1, 3,-0.5851611639508478,1.426667925464998,15
1503683663604,+0.122,+0.294,-0.585,-0.746,+0.893,-0.212,-0.117,-12.125,-14.250,-30.750,1, -3, -1, 2, 0, -3, -6, 3,-0.5831514299039962,1.4208767278367798,15
1503683663627,+0.127,+0.288,-0.584,-0.748,+0.801,-0.208,-0.142,-9.875,-17.188,-35.312,-2, -4, -3, -4, -3, -1, -2, -1,-0.580895213613501,1.4116164831355913,15
1503683663642,+0.130,+0.284,-0.585,-0.749,+0.817,-0.206,-0.149,-9.000,-2.562,-30.438,-1, -9, 1, 2, 2, 3, -1, -2,-0.5797241963936393,1.4098732279524602,15
1503683663664,+0.132,+0.280,-0.589,-0.746,+0.875,-0.218,-0.147,-8.688,+23.812,-25.812,1, 7, -5, -4, -1, -1, 3, 1,-0.5775528749146376,1.4152900029752422,15
1503683663687,+0.133,+0.277,-0.594,-0.743,+0.941,-0.193,-0.135,-9.562,+32.750,-23.188,2, 1, 0, -1, -1, -3, -1, -5,-0.5759048376330387,1.424550781466853,15
1503683663702,+0.134,+0.274,-0.599,-0.741,+1.018,-0.204,-0.130,-7.000,+25.438,-23.188,-5, -1, 0, -2, -2, -1, -1, -2,-0.5744568257367277,1.434063434941338,15
1503683669266,+0.173,+0.363,-0.545,-0.736,+0.830,-0.459,-0.072,+28.375,+25.625,-14.812,-2, -4, 0, -2, -2, 1, 4, 1,-0.7655971448449451,1.418496888939264,16
1503683669297,+0.174,+0.366,-0.548,-0.732,+0.941,-0.481,-0.067,+22.062,+27.625,-13.188,-1, -3, -4, -1, 0, -3, -1, 1,-0.7735982699299346,1.4302970805757862,16
1503683669304,+0.174,+0.369,-0.550,-0.728,+0.960,-0.534,-0.046,+13.250,+22.125,-11.562,-3, -2, 2, 1, 2, 0, -3, -1,-0.7794556984585174,1.4395317789231072,16
1503683669326,+0.173,+0.371,-0.552,-0.727,+0.989,-0.529,-0.007,+2.938,+7.438,-7.812,1, -3, -2, -2, 0, 0, -1, 2,-0.7825821531756996,1.4475644159284546,16
1503683669349,+0.174,+0.371,-0.551,-0.727,+1.012,-0.492,-0.010,-2.438,-7.500,-8.562,0, -3, 6, 0, -1, -1, -3, -5,-0.7836425143887484,1.4451362395530971,16
1503683669364,+0.176,+0.370,-0.551,-0.727,+0.957,-0.470,-0.004,-1.438,-14.875,-19.125,-3, -3, -4, -1, -1, -2, 0, 0,-0.784943307160386,1.4437214456902037,16
1503683669390,+0.179,+0.368,-0.550,-0.728,+0.919,-0.431,-0.062,-0.688,-16.500,-23.812,0, -2, 1, -2, -1, -2, -2, -1,-0.7856642299799708,1.438442034484471,16
1503683669409,+0.180,+0.367,-0.551,-0.728,+0.873,-0.415,-0.030,-3.812,+3.688,-15.062,-2, -2, -1, 0, -3, -1, 1, -3,-0.7859175518533441,1.4394684239995357,16
1503683669425,+0.178,+0.367,-0.555,-0.725,+0.881,-0.381,-0.020,-8.562,+24.812,-9.250,0, -4, 0, 0, -1, 1, -5, -3,-0.7840595524514242,1.448919153618244,16
1503683669449,+0.178,+0.365,-0.561,-0.721,+0.971,-0.340,-0.042,-7.312,+38.250,-23.312,0, -3, -3, 1, -1, 1, 3, -1,-0.7824229883221078,1.4603647250946101,16
1503683669469,+0.180,+0.362,-0.569,-0.716,+1.028,-0.374,+0.046,-7.312,+34.688,-42.188,4, -3, 0, 0, -2, 0, -3, -1,-0.7828691777343648,1.4754484843330427,16
1503683669485,+0.184,+0.359,-0.569,-0.717,+1.255,-0.394,-0.051,-5.625,-16.375,-28.062,-3, -2, -1, -2, -1, -4, -5, -4,-0.7838182685930972,1.4712214573050504,16
1503683669506,+0.182,+0.358,-0.566,-0.720,+1.078,-0.452,-0.007,-17.062,-23.688,+8.188,0, 0, -1, 2, 1, 0, 6, 0,-0.7778965937715596,1.4623121043904743,16
1503683669529,+0.178,+0.356,-0.564,-0.723,+0.975,-0.386,-0.004,-28.312,-15.250,+12.500,2, 3, 1, 0, 1, 0, -2, 1,-0.7673659094531972,1.4542324288165376,16
1503683669544,+0.175,+0.354,-0.562,-0.727,+0.997,-0.284,-0.103,-26.125,-15.750,+17.875,-3, -5, -1, -2, -1, -1, -5, -4,-0.7587182138732474,1.4463900640401193,16
1503683669566,+0.172,+0.351,-0.561,-0.730,+0.850,-0.326,-0.089,-23.062,-12.250,+5.688,-1, 0, -2, -2, 0, -3, 2, 1,-0.7484663042626962,1.4394485270789963,16
1503683669593,+0.171,+0.350,-0.560,-0.731,+0.977,-0.359,-0.058,-17.438,-6.125,-0.375,1, 1, -2, -3, -4, -2, 0, 4,-0.7446920955308979,1.435442661153133,16
1503683669611,+0.167,+0.350,-0.557,-0.734,+1.050,-0.410,-0.081,-15.125,-15.500,+25.125,-2, 3, 2, 0, 0, 1, 0, 3,-0.7373447568465373,1.4278601106283637,16
1503683669626,+0.161,+0.350,-0.556,-0.737,+0.856,-0.417,-0.089,-26.062,-1.062,+23.688,0, -2, -3, -2, -3, 0, 1, -1,-0.727820591530991,1.4251691223272043,16
1503683669650,+0.157,+0.348,-0.559,-0.736,+0.785,-0.315,-0.082,-24.062,+23.875,+3.688,-4, 0, -2, -2, -2, -1, -5, -4,-0.7190184276223135,1.4292462404104407,16
1503683669665,+0.153,+0.347,-0.565,-0.733,+0.890,-0.306,-0.082,-18.812,+39.812,-3.062,2, -6, -2, -2, 1, 0, 0, -1,-0.7133092567464967,1.4423099838120716,16
1503683669688,+0.152,+0.344,-0.571,-0.730,+0.991,-0.288,-0.064,-16.500,+38.750,-20.000,0, -2, -1, 2, 0, -2, -2, -1,-0.7087016012791745,1.4527780139915116,16
1503683669709,+0.155,+0.339,-0.577,-0.727,+1.021,-0.262,-0.022,-14.312,+24.000,-37.875,0, 0, 4, 2, 1, -2, 0, 6,-0.7067282166491973,1.4607609130800336,16
1503683669732,+0.160,+0.333,-0.581,-0.725,+1.005,-0.223,-0.055,-9.188,+3.750,-40.625,-3, -4, -6, -2, 0, 1, -3, -2,-0.7052739536738238,1.4625812034965004,16
1503683669746,+0.166,+0.327,-0.583,-0.725,+0.931,-0.202,-0.112,-4.375,-4.750,-47.062,1, 5, 2, 0, 2, 0, 0, -2,-0.7049755224272635,1.4597522949416748,16
1503683669769,+0.174,+0.320,-0.586,-0.724,+0.897,-0.161,-0.125,-1.500,-1.812,-56.625,1, 1, 0, -2, -3, -2, 2, 4,-0.7064988088283567,1.458334685693999,16
1503683669793,+0.181,+0.314,-0.589,-0.723,+0.966,-0.127,-0.111,-0.125,+0.188,-53.812,-1, 1, 1, 0, -3, -1, 2, -5,-0.7083592542102986,1.45839628487701,16
1503683669806,+0.187,+0.309,-0.591,-0.721,+1.019,-0.125,-0.101,-2.000,+3.938,-40.625,-4, -3, -1, 0, -2, -2, -2, 4,-0.7096998489359623,1.4571352264710125,16
1503683669829,+0.190,+0.305,-0.593,-0.720,+1.049,-0.133,-0.118,-8.062,+6.250,-22.688,-2, 2, 2, 0, 0, 1, 1, -2,-0.7082719942086768,1.45719218512148,16
1503683669852,+0.190,+0.303,-0.596,-0.718,+0.989,-0.193,-0.083,-7.625,+18.875,-12.562,-3, 0, -1, 1, 0, -1, 4, 0,-0.7056329500494807,1.4621115360341792,16
1503683669867,+0.191,+0.302,-0.597,-0.719,+1.041,-0.246,-0.054,-4.500,-4.312,-15.375,3, -1, -3, 0, -1, -1, -2, -7,-0.70629269191893,1.4636211665958347,16
1503683669889,+0.194,+0.299,-0.596,-0.720,+1.044,-0.237,-0.057,-6.875,-18.375,-17.438,-2, 4, 2, 1, -1, 0, -1, 4,-0.7058396758426912,1.457589058969344,16
1503683669911,+0.198,+0.294,-0.595,-0.721,+0.966,-0.219,-0.005,-9.375,-21.938,-34.375,-1, -3, -5, -2, -2, -3, -1, 6,-0.7036902093873588,1.4491945381102256,16
1503683669927,+0.203,+0.289,-0.595,-0.722,+0.925,-0.171,-0.089,-5.438,-19.250,-40.562,-1, -1, -1, 0, -1, 0, -2, 1,-0.7037843261572654,1.4435750250323987,16
1503683669949,+0.207,+0.285,-0.594,-0.723,+0.954,-0.163,-0.108,-3.000,-15.312,-28.562,1, -1, 0, -1, 0, 0, 1, -2,-0.7035882393200973,1.4366130174661933,16
1503683669971,+0.209,+0.283,-0.596,-0.722,+0.962,-0.171,-0.042,-6.438,+5.062,-22.062,2, -2, -1, 3, 0, -1, -1, 3,-0.7041398216578115,1.439381547775509,16
1503683669987,+0.211,+0.280,-0.599,-0.720,+1.007,-0.122,+0.008,-6.250,+6.250,-20.812,-2, 1, 0, -2, 0, 0, 3, 0,-0.7031420513416484,1.4434225333307655,16
1503683670009,+0.214,+0.277,-0.599,-0.720,+1.080,-0.086,-0.070,-1.250,-10.438,-19.938,-1, 2, -2, -1, -1, -2, 1, -3,-0.7031841659810413,1.4401234376226937,16
1503683677616,+0.130,+0.255,-0.450,-0.846,+0.837,-0.242,-0.454,+21.438,+35.250,+17.500,2, 4, 0, -2, -1, -1, -6, -4,-0.49322291314547456,1.0589864019301727,17
1503683677638,+0.129,+0.262,-0.454,-0.842,+0.886,-0.292,-0.439,+33.000,+39.812,+20.562,-4, -6, -2, -2, -1, 0, -1, -11,-0.501866598632832,1.074613473572067,17
1503683677652,+0.128,+0.270,-0.459,-0.837,+0.929,-0.304,-0.472,+44.750,+43.000,+16.750,-3, -1, -3, -2, -1, -2, -1, -2,-0.5124602031684231,1.0937754443783854,17
1503683677677,+0.130,+0.279,-0.464,-0.830,+0.895,-0.263,-0.504,+59.500,+57.000,+7.312,0, 0, -1, 1, 1, 1, 3, 3,-0.5298307228674344,1.1144501181836444,17
1503683677697,+0.134,+0.292,-0.474,-0.820,+0.854,-0.250,-0.476,+85.688,+87.062,+1.125,2, 0, -2, 0, -2, 0, 0, 1,-0.5591437387987238,1.1527220890047798,17
1503683677713,+0.138,+0.308,-0.487,-0.806,+0.938,-0.243,-0.369,+106.938,+108.375,-6.938,-2, 6, 1, 0, -1, -1, 4, 0,-0.5948376467202455,1.202322913235233,17
1503683677735,+0.145,+0.326,-0.501,-0.788,+0.911,-0.270,-0.278,+124.750,+120.812,-17.812,2, -1, 0, 0, 0, -1, -1, 1,-0.6401644223089746,1.2585008847099235,17
1503683677757,+0.155,+0.343,-0.514,-0.771,+0.932,-0.315,-0.237,+126.188,+105.375,-35.688,-2, -3, 1, -2, -3, -4, -2, 0,-0.6901122299365368,1.3137299910448392,17
1503683677774,+0.166,+0.355,-0.523,-0.757,+0.787,-0.322,-0.308,+108.812,+73.750,-45.438,-2, -3, 0, 0, -1, 0, -2, 0,-0.7320967960585747,1.3534472198271243,17
1503683677795,+0.171,+0.367,-0.532,-0.744,+1.021,-0.304,-0.149,+87.250,+84.062,-9.812,-3, 1, 1, -1, 1, 2, 2, 4,-0.7647462554010949,1.3932414378528672,17
1503683677817,+0.191,+0.373,-0.540,-0.730,+0.971,-0.218,-0.001,+108.000,+37.562,-97.438,0, -3, -4, -3, 2, 1, -3, 3,-0.8101360658409735,1.423052682648996,17
1503683677832,+0.205,+0.385,-0.534,-0.725,+0.917,-0.659,-0.134,+113.562,-28.188,-20.875,2, -5, -6, -2, -1, 0, -1, 0,-0.8522672086169002,1.4288217747921572,17
1503683677855,+0.220,+0.393,-0.530,-0.719,+0.802,-0.542,-0.040,+95.875,-19.062,-49.875,0, 2, 0, 1, -2, 0, -3, -8,-0.8894764319451767,1.4333857210765144,17
1503683677877,+0.235,+0.397,-0.530,-0.711,+0.809,-0.264,-0.005,+78.375,-9.938,-63.938,-3, 8, 2, -1, -2, -1, 4, 7,-0.9204729961659546,1.4407375219429697,17
1503683677892,+0.247,+0.403,-0.532,-0.703,+0.835,-0.223,+0.062,+74.188,+5.750,-46.750,-2, -4, 0, 0, 0, 1, 3, -6,-0.951549726670586,1.4560695330542202,17
1503683677916,+0.255,+0.410,-0.535,-0.694,+0.839,-0.342,+0.085,+66.750,+24.312,-34.500,-2, 0, 0, 1, 2, 0, -5, 0,-0.9781586176194939,1.4751013632077516,17
1503683677937,+0.260,+0.416,-0.539,-0.685,+0.903,-0.403,+0.026,+55.875,+38.688,-34.062,1, -3, -1, -2, -1, -1, 1, -2,-0.9982161643691856,1.4946453606238357,17
1503683677952,+0.263,+0.422,-0.544,-0.676,+0.994,-0.353,+0.090,+38.562,+41.500,-24.250,-1, -1, -1, 0, -1, -1, 0, -3,-1.01547035040968,1.5165809223176525,17
1503683677976,+0.265,+0.425,-0.549,-0.669,+1.077,-0.292,+0.092,+28.500,+35.938,-15.875,0, 2, -3, -2, -1, 1, -2, -6,-1.0254063264834015,1.5333606565080262,17
1503683677997,+0.268,+0.428,-0.553,-0.663,+1.117,-0.253,+0.121,+25.875,+25.688,-18.875,1, -10, -6, -3, -3, 0, -2, 1,-1.0368410006206228,1.5479330421152098,17
1503683678014,+0.273,+0.428,-0.555,-0.659,+1.091,-0.239,+0.089,+23.125,+3.875,-31.938,-1, 0, -2, 2, 1, 3, -2, -5,-1.044911909634868,1.5525820123214156,17
1503683678035,+0.280,+0.426,-0.556,-0.656,+0.962,-0.250,+0.068,+20.188,-8.438,-39.250,-1, -2, 1, -1, 0, -2, -1, -2,-1.0519770360377034,1.5514027055324573,17
1503683678057,+0.286,+0.425,-0.558,-0.653,+0.861,-0.252,+0.082,+16.500,-1.062,-38.500,-3, 0, -1, -1, -3, -4, -5, 0,-1.059965928881499,1.5543117029793676,17
1503683678073,+0.288,+0.425,-0.563,-0.647,+0.891,-0.226,+0.083,+9.750,+25.812,-33.188,0, -2, 0, -1, 0, 0, -2, -1,-1.0637329335432701,1.565852473891665,17
1503683678095,+0.289,+0.425,-0.572,-0.639,+1.045,-0.148,+0.097,+5.625,+60.500,-31.188,-4, 2, 0, -3, -4, -2, 3, 0,-1.0669128298303474,1.5867861011335969,17
1503683678117,+0.290,+0.425,-0.580,-0.631,+1.221,-0.132,+0.129,+8.625,+49.875,-29.875,0, 1, -2, -4, -2, -1, -1, -2,-1.0696430673573407,1.6055818724523125,17
1503683678132,+0.293,+0.424,-0.581,-0.630,+1.284,-0.194,+0.059,+5.812,+0.438,-16.438,0, 4, 1, 0, 2, -2, 2, 2,-1.0726663898062363,1.6061443216410296,17
1503683678155,+0.294,+0.422,-0.578,-0.633,+1.095,-0.239,+0.053,-8.875,-26.312,+3.188,-2, -3, 1, -1, 0, 2, -1, 3,-1.0697937591848627,1.5956268152151734,17
1503683678177,+0.290,+0.421,-0.578,-0.636,+0.862,-0.221,+0.074,-21.375,-6.688,+11.688,-2, -2, -2, -2, -2, -1, -4, -2,-1.0619051478257835,1.5939187035368945,17
1503683678192,+0.287,+0.420,-0.579,-0.638,+0.858,-0.155,+0.081,-25.625,+5.438,+10.875,1, 1, -3, 0, 0, -1, 0, 1,-1.0558353766933721,1.5945518124562228,17
1503683685181,+0.182,+0.259,-0.453,-0.833,+0.882,-0.242,-0.427,+2.188,+7.125,+5.562,-2, 0, -2, 0, -1, -1, 1, 0,-0.5921522391624282,1.078426740452303,18
1503683685197,+0.181,+0.261,-0.455,-0.832,+0.873,-0.217,-0.420,+7.500,+14.375,+9.312,-3, -1, 1, -1, -3, -3, -1, 1,-0.5936504288074164,1.0849433786631535,18
1503683685218,+0.179,+0.265,-0.456,-0.830,+0.845,-0.255,-0.420,+13.875,+22.188,+16.500,1, 8, 0, 1, -1, -1, 0, 3,-0.5953707368923538,1.090606022023849,18
1503683685240,+0.178,+0.270,-0.460,-0.827,+0.903,-0.269,-0.506,+23.875,+41.188,+14.688,2, -4, 0, 1, -1, 1, 4, 5,-0.601527046964078,1.104798984133022,18
1503683685263,+0.178,+0.277,-0.466,-0.821,+0.946,-0.253,-0.491,+39.375,+59.438,+3.438,2, -1, -2, -1, -2, 0, 2, 1,-0.6126243225456685,1.1255240849690191,18
1503683685282,+0.180,+0.287,-0.479,-0.810,+0.943,-0.232,-0.397,+61.625,+100.750,-3.812,-4, -5, -4, -2, -1, -3, -2, 4,-0.6340478439480994,1.166349336368589,18
1503683685301,+0.184,+0.301,-0.492,-0.796,+1.073,-0.271,-0.302,+83.938,+110.438,-21.062,-2, 0, -1, 0, 0, 0, 1, -3,-0.6651232457511294,1.2126063143238286,18
1503683685326,+0.193,+0.314,-0.507,-0.779,+1.121,-0.285,-0.292,+102.188,+114.875,-43.688,-1, 2, 0, -1, -1, -1, -4, -1,-0.7045151875813921,1.2639286590982581,18
1503683685338,+0.204,+0.326,-0.523,-0.761,+0.981,-0.277,-0.264,+97.688,+120.750,-64.188,-3, -3, -3, 1, -1, -1, 0, -14,-0.7465212505930561,1.3175917796499423,18
1503683685361,+0.215,+0.334,-0.539,-0.743,+0.735,-0.291,-0.241,+84.562,+117.188,-77.188,0, -3, -3, -3, 0, -2, -2, 3,-0.7818086833664397,1.3663551423252418,18
1503683685383,+0.219,+0.342,-0.540,-0.737,+1.143,-0.708,-0.473,+60.812,+47.500,-25.938,0, 1, 1, 0, -1, -1, -3, 1,-0.8015574712748337,1.3797928265619812,18
1503683685398,+0.216,+0.356,-0.545,-0.728,+0.988,-0.658,-0.037,+53.500,+69.562,+4.750,-1, -1, -2, 0, -1, 2, 0, -2,-0.8217604633155505,1.4112065459186407,18
1503683685421,+0.222,+0.363,-0.552,-0.717,+0.871,-0.350,+0.003,+60.312,+56.000,-37.188,1, -6, -2, -2, -1, -2, 2, 1,-0.845169445565096,1.438222106613667,18
1503683685443,+0.231,+0.368,-0.557,-0.707,+0.922,-0.226,-0.024,+63.375,+39.688,-42.500,0, -3, 0, -1, -1, 0, -4, 1,-0.8692004456069938,1.457816251785079,18
1503683685461,+0.238,+0.374,-0.561,-0.700,+0.882,-0.271,-0.048,+56.625,+33.625,-31.062,-1, -2, -2, -1, -1, 4, 2, -4,-0.8922621088592003,1.476820542173576,18
1503683685481,+0.242,+0.379,-0.565,-0.692,+0.772,-0.285,-0.019,+45.812,+41.375,-29.375,-2, -2, -2, -1, -2, -2, -2, 2,-0.908129301525954,1.494017464905646,18
1503683685503,+0.247,+0.383,-0.572,-0.682,+0.798,-0.187,+0.059,+39.688,+50.250,-30.625,-1, 1, 3, -1, 1, -1, 3, -3,-0.924568430732927,1.5169455519211814,18
1503683685518,+0.251,+0.387,-0.578,-0.673,+0.938,-0.115,+0.104,+38.375,+46.875,-26.188,1, -3, -2, -1, 1, -2, -2, 3,-0.9391801445781993,1.5375932070067568,18
1503683685541,+0.255,+0.390,-0.583,-0.665,+0.974,-0.114,+0.119,+34.188,+32.938,-22.000,-1, 2, -1, -2, -1, -2, -2, 1,-0.9516439095278464,1.5543530132528882,18
1503683685563,+0.260,+0.391,-0.587,-0.660,+0.949,-0.123,+0.121,+28.250,+19.875,-24.812,0, 17, 4, 0, 0, -2, 2, 3,-0.9621865484037988,1.5655825030981716,18
1503683685578,+0.264,+0.392,-0.591,-0.654,+0.941,-0.087,+0.119,+22.625,+23.375,-22.812,0, -6, -2, 0, 0, -2, 1, -1,-0.9707553344349928,1.5768064339796666,18
1503683685602,+0.267,+0.393,-0.595,-0.648,+0.916,-0.064,+0.102,+15.312,+26.938,-17.438,-1, -2, 0, -1, -3, 0, -7, -11,-0.9776588873063405,1.588071173928142,18
1503683685623,+0.268,+0.393,-0.600,-0.643,+0.938,-0.062,+0.083,+9.438,+32.625,-15.625,-1, -3, -1, 0, -1, -4, 2, 0,-0.9800095970102293,1.6002081115492721,18
1503683685639,+0.269,+0.394,-0.605,-0.638,+0.983,-0.091,+0.107,+8.625,+33.812,-17.250,-1, 8, 3, -1, 1, 2, -2, 2,-0.9843572942879425,1.6139849767735968,18
1503683685663,+0.271,+0.393,-0.609,-0.633,+1.035,-0.128,+0.136,+7.250,+27.062,-22.500,1, -5, -1, -1, -2, -1, -6, -1,-0.9858496663699063,1.6222346516566728,18
1503683685684,+0.275,+0.391,-0.612,-0.631,+1.044,-0.120,+0.125,+4.938,+3.375,-27.562,0, -9, -2, -1, -1, 0, 0, -2,-0.9890537491730224,1.626289559418569,18
1503683685699,+0.279,+0.388,-0.614,-0.629,+1.002,-0.088,+0.139,+1.062,-2.062,-32.250,-2, 4, 1, 0, -2, -1, 1, 0,-0.9898553672754039,1.6264361885061815,18
1503683685721,+0.281,+0.385,-0.617,-0.626,+0.964,-0.075,+0.111,-3.625,+10.875,-27.688,1, -5, -4, 0, -1, 0, -1, 5,-0.987530580316507,1.6292096144586337,18
1503683685743,+0.280,+0.384,-0.624,-0.620,+0.999,-0.082,+0.208,-5.188,+39.062,-17.312,-7, -4, 0, -1, 0, -1, 1, 0,-0.9850309360594783,1.6451573435815432,18
1503683685761,+0.280,+0.382,-0.624,-0.622,+1.272,-0.100,+0.051,-11.688,-1.000,+0.438,-2, -2, -3, -1, 1, 0, -1, -6,-0.9816913924757127,1.6419763250020976,18
1503683685780,+0.277,+0.381,-0.621,-0.627,+1.209,-0.159,+0.139,-23.688,-25.312,+20.875,0, -1, -1, 0, -2, -6, -2, 2,-0.9750884825238786,1.6329544838006187,18
1503683685803,+0.275,+0.379,-0.619,-0.631,+0.933,-0.144,+0.151,-25.000,-26.438,+10.438,-3, -2, -2, 1, 1, 2, 1, 0,-0.9682638176439119,1.6249092546280246,18
1503683685819,+0.275,+0.375,-0.615,-0.636,+0.895,-0.118,+0.049,-18.750,-37.750,+2.312,3, 0, 2, 0, -1, -2, -4, -1,-0.9602648505270461,1.6089152894658356,18
1503683685841,+0.274,+0.373,-0.612,-0.641,+0.962,-0.177,+0.048,-17.312,-25.938,+10.562,-1, 2, -1, -2, -1, -2, -3, -3,-0.9550072109414381,1.5984397704688333,18
1503683685865,+0.271,+0.373,-0.611,-0.644,+0.987,-0.214,+0.083,-18.500,-10.562,+10.000,-2, 2, -2, -1, -1, -1, 2, 0,-0.9505762239610424,1.5959645469063723,18
1503683691345,+0.170,+0.263,-0.453,-0.835,+0.883,-0.276,-0.396,+0.438,-3.500,+9.875,0, 0, -2, -4, -3, 1, 6, 11,-0.576084565056975,1.080764148873386,19
1503683691361,+0.169,+0.265,-0.452,-0.835,+0.848,-0.278,-0.409,+2.500,-0.688,+10.688,-6, -3, -3, 1, 6, -2, -3, -5,-0.5765607510524475,1.0802951778861436,19
1503683691383,+0.167,+0.266,-0.451,-0.835,+0.821,-0.273,-0.434,+6.062,+3.000,+12.000,-1, -1, -3, -4, -10, -4, -3, -2,-0.5737965915434625,1.0784271160040766,19
1503683691408,+0.166,+0.268,-0.451,-0.835,+0.875,-0.294,-0.407,+6.625,+3.562,+10.812,2, 0, 0, -1, -2, 1, 0, -3,-0.5747503645474932,1.0804642298608287,19
1503683691421,+0.166,+0.270,-0.451,-0.834,+0.919,-0.281,-0.390,+4.875,+3.250,+10.562,3, -1, -1, -4, -4, 2, -1, 0,-0.5772727325147012,1.0823379069819208,19
1503683691444,+0.164,+0.272,-0.451,-0.834,+0.861,-0.291,-0.400,+4.750,-0.750,+13.875,1, -2, 0, 1, 3, 2, 6, 3,-0.5764104466686116,1.0841398826399142,19
1503683691465,+0.163,+0.273,-0.449,-0.835,+0.827,-0.289,-0.428,+5.688,-0.938,+14.375,1, 2, -1, 3, 2, 0, -2, -3,-0.5753095213053787,1.0805002301496451,19
1503683691481,+0.161,+0.276,-0.449,-0.835,+0.807,-0.310,-0.411,+5.625,+5.562,+17.375,0, 0, 9, 3, -1, 0, 0, 0,-0.5758840008637062,1.0834992408755575,19
1503683691505,+0.158,+0.279,-0.449,-0.834,+0.834,-0.342,-0.385,+3.375,+9.500,+20.125,-5, -7, -5, -3, -1, -1, 1, 0,-0.5743660006305897,1.0858141642867398,19
1503683691525,+0.154,+0.281,-0.450,-0.834,+0.883,-0.338,-0.369,+0.812,+9.750,+19.938,1, 7, -2, -3, 1, -4, 2, 0,-0.5703824742282019,1.0896225899110117,19
1503683691548,+0.152,+0.283,-0.450,-0.833,+0.931,-0.311,-0.387,+1.750,+5.438,+21.250,1, 0, 0, -1, -1, -1, -5, -1,-0.5693302110005702,1.0910497311377811,19
1503683691563,+0.150,+0.285,-0.449,-0.834,+0.914,-0.299,-0.362,+5.000,-3.250,+20.688,-1, -3, -3, -3, -1, -1, -1, 0,-0.5683261547417695,1.090858886242529,19
1503683691585,+0.148,+0.288,-0.447,-0.834,+0.824,-0.349,-0.369,+10.625,-6.750,+21.500,-4, -12, 4, 1, 0, 0, 1, -3,-0.5680028087174235,1.0889538326801935,19
1503683691608,+0.146,+0.291,-0.444,-0.835,+0.760,-0.349,-0.423,+10.375,-3.562,+23.438,-2, 3, -2, -2, -5, 0, 0, -1,-0.5674240823874063,1.0850010620651696,19
1503683691623,+0.142,+0.295,-0.443,-0.835,+0.793,-0.370,-0.420,+7.500,+7.000,+25.438,-1, 8, 9, 0, 1, 0, 0, -2,-0.5654314303276674,1.086334011240114,19
1503683691645,+0.138,+0.298,-0.444,-0.834,+0.813,-0.394,-0.402,+7.000,+17.250,+23.500,0, -2, -1, 2, -1, 1, 3, -1,-0.5628221991106248,1.0910444104672568,19
1503683691670,+0.136,+0.301,-0.445,-0.832,+0.828,-0.435,-0.341,+5.562,+18.500,+15.000,-3, -7, -4, -4, -3, -1, 3, 1,-0.5637018346282705,1.0959547295889238,19
1503683691684,+0.134,+0.302,-0.447,-0.831,+0.843,-0.415,-0.360,-2.375,+11.812,+7.312,-4, -1, -5, -3, 0, -3, -4, -3,-0.5624043106780606,1.101292100690248,19
1503683691706,+0.133,+0.302,-0.448,-0.831,+0.875,-0.367,-0.399,-2.938,+8.438,+4.250,-1, -10, -2, 0, -2, 0, 1, 1,-0.561127332875328,1.1035378912797427,19
1503683691728,+0.132,+0.303,-0.449,-0.830,+0.846,-0.353,-0.369,+1.938,+10.562,+5.125,1, -2, 0, -1, -1, 0, 3, -1,-0.56113044617517,1.1066506181727125,19
1503683691744,+0.131,+0.304,-0.450,-0.829,+0.816,-0.379,-0.371,+2.312,+9.438,+4.125,-3, -6, 0, 1, 0, 1, -3, -1,-0.561145524780009,1.1097737757903292,19
1503683691765,+0.131,+0.305,-0.451,-0.828,+0.828,-0.399,-0.348,+2.188,+11.250,+0.000,1, 6, 3, 0, -2, -4, -1, 3,-0.5629946973594521,1.1132000444379677,19
1503683691781,+0.130,+0.305,-0.453,-0.827,+0.809,-0.418,-0.354,-0.688,+10.938,-3.812,1, -3, 1, -1, 0, 0, 3, 1,-0.5620541386574391,1.1175809394310918,19
1503683691804,+0.131,+0.305,-0.455,-0.826,+0.854,-0.378,-0.363,-1.500,+14.188,-7.750,0, 11, 0, 0, -2, 0, -3, -6,-0.5647502680988125,1.122547105106936,19
1503683691825,+0.132,+0.305,-0.458,-0.825,+0.820,-0.379,-0.368,-0.125,+15.188,-9.625,0, -5, -3, -2, -1, -1, -4, -7,-0.5679960646519367,1.130066409166905,19
1503683691842,+0.132,+0.304,-0.460,-0.823,+0.850,-0.383,-0.344,-0.938,+15.375,-8.875,0, 16, 10, 0, 2, -1, 2, 3,-0.5670800660784906,1.133018694990249,19
1503683691864,+0.132,+0.304,-0.463,-0.822,+0.899,-0.363,-0.333,-2.688,+14.062,-6.438,-3, 2, 0, 1, 0, -2, 0, 3,-0.5685010880891113,1.1402726652117792,19
1503683691886,+0.133,+0.304,-0.465,-0.821,+0.905,-0.341,-0.313,+1.938,+11.500,-3.250,-2, -9, -3, -1, 1, -1, 0, 1,-0.5711672589487143,1.145246505265027,19
1503683691905,+0.132,+0.303,-0.466,-0.821,+1.066,-0.389,-0.367,-9.500,-3.688,+3.000,3, -2, -2, -1, -1, 3, -1, -1,-0.5683669829199945,1.1462255527510967,19
1503683691923,+0.131,+0.304,-0.466,-0.820,+0.907,-0.204,-0.349,+6.312,+9.250,+20.625,1, -2, -4, -3, 0, 0, 3, -2,-0.5678823674083221,1.1468526451537584,19
1503683691947,+0.128,+0.307,-0.463,-0.821,+0.803,-0.426,-0.279,+5.125,-11.062,+23.688,-1, -10, -6, -3, -2, -1, 1, 2,-0.5657231716080751,1.1427134945377844,19
1503683691968,+0.125,+0.309,-0.461,-0.822,+0.904,-0.413,-0.322,-2.000,-6.188,+27.500,-3, 6, 3, 1, -1, -1, 2, -2,-0.5625470512753379,1.139821298821996,19
1503683691984,+0.123,+0.310,-0.459,-0.824,+0.925,-0.474,-0.304,-3.750,-19.688,+11.562,-1, -4, 0, -2, -2, -2, -10, -3,-0.5598194022628533,1.1362930896006809,19
1503683692008,+0.123,+0.310,-0.456,-0.825,+0.899,-0.506,-0.265,-10.188,-21.812,-0.438,1, -2, 0, 1, -1, -1, -1, 3,-0.5583275977737298,1.1290088650298824,19
1503683692029,+0.123,+0.307,-0.452,-0.828,+0.751,-0.421,-0.355,-17.688,-25.500,+1.875,-1, -10, 4, 0, 0, -3, -1, -2,-0.5520730920151746,1.116044796154734,19
1503683699093,+0.149,+0.256,-0.449,-0.843,+0.860,-0.278,-0.413,-0.312,+17.312,+8.125,1, -3, 0, -2, 0, 0, 0, 0,-0.5281907202533831,1.0611517235132768,20
1503683699109,+0.148,+0.257,-0.452,-0.841,+0.886,-0.292,-0.391,+2.188,+16.375,+8.188,-1, 1, -2, 0, -2, 1, -1, -1,-0.5285654735629869,1.0685874896825402,20
1503683699132,+0.147,+0.259,-0.453,-0.840,+0.896,-0.286,-0.388,+4.938,+9.750,+7.312,-2, 4, 2, -1, -3, -1, -1, 0,-0.529662336242818,1.07257977466321,20
1503683699157,+0.147,+0.261,-0.453,-0.840,+0.877,-0.272,-0.422,+8.375,+4.438,+7.062,2, 1, 2, 1, 3, 0, 1, 1,-0.5324077544853784,1.0747928811222573,20
1503683699169,+0.146,+0.263,-0.453,-0.839,+0.850,-0.262,-0.425,+12.688,+7.250,+11.062,-1, -1, 0, -1, -1, -1, 0, 1,-0.5330687972754896,1.0763091847087491,20
1503683699191,+0.145,+0.267,-0.454,-0.838,+0.846,-0.288,-0.416,+17.500,+12.312,+14.875,-1, -3, -2, -4, -4, -6, -2, 0,-0.5370153522323415,1.0826251323396427,20
1503683699213,+0.143,+0.272,-0.455,-0.836,+0.846,-0.346,-0.398,+19.375,+18.875,+21.312,-2, 4, -2, -4, 1, -1, 0, -1,-0.5403611195346978,1.0894623925014002,20
1503683699230,+0.140,+0.278,-0.457,-0.833,+0.848,-0.330,-0.392,+19.188,+24.938,+23.125,0, -4, -3, 1, 0, 1, 0, -2,-0.5436897398125684,1.0994257306934951,20
1503683699251,+0.137,+0.282,-0.459,-0.831,+0.907,-0.318,-0.417,+19.125,+27.875,+23.000,0, -3, -1, 0, 0, -1, -3, -2,-0.5445474498297518,1.107599227849609,20
1503683699273,+0.135,+0.288,-0.462,-0.828,+0.894,-0.295,-0.395,+26.625,+34.438,+24.688,-3, -2, -2, -3, -1, -1, -3, -3,-0.5505658796061901,1.120710007245971,20
1503683699291,+0.132,+0.297,-0.467,-0.823,+0.925,-0.324,-0.350,+39.750,+45.625,+28.938,1, 0, 0, -1, 2, 2, 0, 0,-0.5601579676142041,1.1418592885158918,20
1503683699311,+0.130,+0.307,-0.471,-0.817,+1.046,-0.340,-0.302,+49.438,+38.500,+30.812,1, 1, -1, 0, -5, -2, 1, 1,-0.5728488061073151,1.1621542201252153,20
1503683699333,+0.132,+0.317,-0.476,-0.809,+1.044,-0.292,-0.281,+64.125,+48.688,+18.625,-2, -4, -5, -1, -2, 0, 1, 1,-0.5933383063716858,1.1859283742825504,20
1503683699349,+0.134,+0.330,-0.481,-0.801,+1.003,-0.295,-0.292,+80.938,+47.688,+17.438,1, 1, -1, -1, 2, -2, 0, 0,-0.6194195197170261,1.2147307307325839,20
1503683699386,+0.138,+0.344,-0.486,-0.792,+0.917,-0.269,-0.273,+92.062,+50.125,+12.938,0, 0, 2, 2, -1, -3, 1, 2,-0.6514222736913522,1.2462591830020262,20
1503683699396,+0.145,+0.351,-0.494,-0.782,+0.759,-0.151,-0.280,+69.125,+66.312,-21.500,0, -2, -5, -3, -1, -2, 2, -1,-0.6784401658844612,1.2759810693369071,20
1503683699409,+0.152,+0.356,-0.505,-0.772,+0.746,-0.166,-0.303,+62.562,+79.625,-41.750,1, -5, -3, -1, -1, 1, -2, 3,-0.7036445756165054,1.3105168215944958,20
1503683699432,+0.156,+0.361,-0.522,-0.757,+0.750,-0.072,-0.123,+50.500,+113.438,-45.812,3, 5, 2, 0, 0, -1, -2, 0,-0.7259341131479307,1.3587471798446655,20
1503683699453,+0.159,+0.370,-0.527,-0.748,+1.079,-0.472,-0.221,+64.250,+59.062,-6.375,0, -4, -3, 0, 0, -3, -2, -3,-0.7487481760766375,1.384534528896033,20
1503683699469,+0.162,+0.381,-0.531,-0.740,+0.985,-0.449,-0.039,+65.875,+41.375,+4.250,-1, 2, 2, -1, -2, 0, 4, -2,-0.7755580726387779,1.411857827144867,20
1503683699492,+0.171,+0.385,-0.533,-0.734,+0.874,-0.236,-0.058,+61.750,+10.500,-28.938,-2, 0, 1, 1, 0, -4, -10, -6,-0.7979271096353899,1.4237739530222633,20
1503683699513,+0.183,+0.390,-0.532,-0.729,+0.854,-0.255,-0.097,+65.750,-10.125,-35.250,-1, 0, -3, -3, -2, -1, 3, 0,-0.825779192492648,1.4304441307503257,20
1503683699530,+0.194,+0.394,-0.530,-0.725,+0.792,-0.370,-0.101,+62.062,-15.000,-38.562,-1, 1, -2, -2, -1, -1, -1, 0,-0.8497959410514808,1.4330462186491444,20
1503683699551,+0.206,+0.396,-0.528,-0.722,+0.775,-0.410,-0.077,+53.938,-20.750,-47.000,-2, -4, 2, 1, 0, 1, 2, 1,-0.8718429473383618,1.4325288577223034,20
1503683699573,+0.216,+0.398,-0.528,-0.719,+0.803,-0.402,-0.050,+47.500,-14.562,-49.625,3, 1, -5, -2, -2, 0, 3, 1,-0.8917627604555172,1.4367004102564611,20
1503683699592,+0.224,+0.401,-0.529,-0.714,+0.860,-0.435,+0.001,+40.312,-2.625,-43.062,-5, 0, 0, -1, 0, -2, 1, 2,-0.9103578029896348,1.444511130449957,20
1503683699611,+0.229,+0.404,-0.530,-0.710,+0.897,-0.479,+0.001,+33.312,+7.250,-28.875,0, -1, 1, -2, 0, -2, -1, 0,-0.924226413222199,1.452153736340476,20
1503683699633,+0.230,+0.408,-0.531,-0.706,+0.918,-0.507,-0.002,+23.000,+19.000,-16.312,2, 9, 0, 0, -1, 0, 0, 1,-0.9334613301315842,1.4612048859738813,20
1503683699649,+0.230,+0.411,-0.535,-0.701,+0.947,-0.476,+0.021,+16.438,+33.438,-10.812,-2, -5, -5, -3, -1, -3, -1, 0,-0.9402783964496594,1.4755628276422408,20
1503683699671,+0.229,+0.415,-0.540,-0.696,+1.001,-0.448,+0.047,+14.812,+35.062,-14.250,0, 1, -1, -1, -2, -1, -2, 0,-0.9481046249457602,1.4941218768772961,20
1503683699698,+0.231,+0.416,-0.543,-0.692,+1.062,-0.449,+0.061,+10.688,+15.062,-19.000,0, -3, -4, 0, 1, 0, -4, -8,-0.9538945869001296,1.5028817266590715,20
1503683699709,+0.234,+0.415,-0.544,-0.690,+1.022,-0.417,+0.076,+7.625,-3.938,-28.812,-3, -4, -2, 2, 1, 0, 0, 0,-0.9566726807599716,1.5035096521503433,20
1503683705152,+0.152,+0.253,-0.452,-0.841,+1.021,-0.194,-0.498,+50.062,+39.938,+13.188,0, -5, -2, -4, -2, -1, -1, 8,-0.5304875409641611,1.06527261401964,21
1503683705175,+0.157,+0.264,-0.457,-0.835,+0.932,-0.187,-0.495,+77.250,+45.875,+6.062,1, 1, -3, 0, -2, -1, 0, 0,-0.5554174559252237,1.0885408077132992,21
1503683705198,+0.162,+0.280,-0.464,-0.824,+0.952,-0.190,-0.477,+101.312,+72.312,-4.625,-4, -3, -2, 0, -3, -1, -1, -4,-0.5877177039356868,1.1213589855208723,21
1503683705212,+0.170,+0.297,-0.476,-0.810,+0.854,-0.166,-0.425,+117.625,+101.625,-24.438,8, -3, -3, -2, -2, -1, -1, -6,-0.6298303658345425,1.1691320836645336,21
1503683705237,+0.180,+0.314,-0.492,-0.792,+0.817,-0.178,-0.335,+120.000,+126.750,-39.125,-5, -1, 3, -1, -1, 1, 1, -3,-0.6777819336104411,1.227795103075906,21
1503683705257,+0.188,+0.327,-0.511,-0.773,+0.844,-0.170,-0.261,+100.250,+142.688,-51.812,-5, -3, -2, -1, -2, -2, -1, -5,-0.7178949193605735,1.2894058369218935,21
1503683705274,+0.192,+0.341,-0.526,-0.755,+0.748,-0.222,-0.244,+94.125,+131.562,-28.562,-1, 1, 2, 1, 1, 0, 0, -1,-0.7518445546879404,1.343405051555508,21
1503683705295,+0.201,+0.352,-0.534,-0.742,+1.096,-0.449,-0.308,+93.750,+80.250,-36.375,-2, -2, -4, -2, -1, -2, -1, -3,-0.7875012956775885,1.378462887739413,21
1503683705319,+0.203,+0.368,-0.537,-0.732,+1.019,-0.523,-0.099,+92.000,+57.188,+8.438,-1, 3, 5, 1, 1, 0, 2, 0,-0.8195033874287447,1.4093057106823224,21
1503683705333,+0.213,+0.378,-0.537,-0.723,+0.923,-0.316,-0.040,+87.688,+15.812,-24.562,-1, -5, -7, -1, -2, -4, -11, -9,-0.8529426852546369,1.4251788056223762,21
1503683705355,+0.226,+0.385,-0.536,-0.717,+0.890,-0.211,-0.024,+86.750,-9.062,-35.125,-1, -1, -1, -4, -1, 2, 5, 5,-0.8862399676946536,1.434835761626003,21
1503683705378,+0.238,+0.393,-0.533,-0.711,+0.839,-0.305,-0.057,+87.062,-9.500,-26.125,-4, 2, 2, -2, -6, -4, 0, -1,-0.9190790456706999,1.4414435058750057,21
1503683705392,+0.246,+0.402,-0.531,-0.704,+0.769,-0.406,-0.033,+75.938,+6.250,-21.875,-2, 1, -2, 2, 1, 0, 0, 0,-0.9476341959267653,1.4519741309615806,21
1503683705415,+0.252,+0.410,-0.532,-0.697,+0.779,-0.382,-0.004,+65.438,+20.938,-22.562,-1, 0, 2, 12, 13, 2, 0, 0,-0.9725151931638197,1.468072225447408,21
1503683705439,+0.258,+0.417,-0.534,-0.689,+0.894,-0.342,+0.042,+60.938,+26.000,-19.000,-1, -4, -4, -9, -10, -1, 2, 3,-0.9957195431056568,1.484880136781549,21
1503683705452,+0.261,+0.425,-0.536,-0.681,+0.946,-0.347,+0.073,+55.438,+32.375,-14.438,-1, 1, -1, -5, 4, -2, 1, 1,-1.0161238027716237,1.5034969041707869,21
1503683705476,+0.265,+0.431,-0.540,-0.672,+0.938,-0.361,+0.095,+48.125,+36.125,-23.375,-5, -6, -6, -3, -16, 0, -4, -1,-1.0348238067308233,1.52338012862364,21
1503683705499,+0.270,+0.435,-0.544,-0.665,+0.975,-0.325,+0.084,+42.688,+26.438,-30.688,5, 12, 9, 1, 8, 0, 2, 3,-1.0515557711372598,1.5398406709024053,21
1503683705512,+0.276,+0.437,-0.546,-0.659,+1.037,-0.277,+0.083,+37.000,+10.688,-31.812,1, -5, -6, -5, -5, -1, -1, 0,-1.0650587990735019,1.5480808147795653,21
1503683705538,+0.282,+0.439,-0.547,-0.655,+1.036,-0.280,+0.102,+32.125,-2.812,-25.688,-5, -4, -3, -4, -15, -1, -6, -13,-1.0786935888473568,1.5540580341618058,21
1503683705558,+0.287,+0.440,-0.547,-0.652,+0.971,-0.291,+0.115,+22.625,-2.812,-25.000,3, -3, -1, 3, 5, 0, -1, 3,-1.0883872400663412,1.5559068854167144,21
1503683705573,+0.291,+0.440,-0.549,-0.648,+0.931,-0.264,+0.093,+16.688,+2.688,-27.875,3, -2, 3, 4, 4, -3, 3, 3,-1.0948477601329591,1.560463741516257,21
1503683705595,+0.294,+0.440,-0.551,-0.645,+0.945,-0.249,+0.062,+12.812,+7.000,-23.438,1, -2, 2, 3, -8, -1, -3, -4,-1.0999004626570628,1.5650223401527437,21
1503683705617,+0.296,+0.440,-0.554,-0.642,+0.993,-0.249,+0.055,+7.500,+16.875,-22.250,-7, -7, -2, -9, -20, -4, 2, 0,-1.1036729298530727,1.5718582558144576,21
1503683705633,+0.297,+0.439,-0.559,-0.638,+1.038,-0.199,+0.075,+2.625,+24.750,-21.625,-2, 2, 2, 3, 2, 0, 1, 1,-1.1041611545419259,1.5814770971573218,21
1503683705655,+0.299,+0.438,-0.562,-0.635,+1.071,-0.160,+0.096,+3.000,+15.875,-17.875,0, -1, -9, -1, -1, -1, -2, -6,-1.105783661715697,1.5865545460677184,21
1503683705679,+0.301,+0.437,-0.565,-0.632,+1.063,-0.159,+0.090,+6.062,+9.062,-17.812,3, -1, 2, -2, -2, 1, 1, 7,-1.1074022173640257,1.5916562669141179,21
1503683711302,+0.193,+0.311,-0.522,-0.771,+0.646,-0.283,-0.396,+88.500,+118.250,-55.625,0, -1, 1, 0, -2, -1, -1, 4,-0.7045249919178385,1.2951845836710918,22
1503683711317,+0.196,+0.324,-0.528,-0.760,+1.032,-0.640,-0.487,+79.812,+87.562,-18.375,1, -1, -1, 5, 5, -2, -4, 4,-0.7313953885695262,1.3257285667064747,22
1503683711340,+0.194,+0.340,-0.536,-0.748,+1.037,-0.584,-0.116,+73.875,+96.438,+9.938,-1, -2, -3, -5, -2, -2, 2, -1,-0.7566098880221058,1.365738295959982,22
1503683711362,+0.200,+0.351,-0.544,-0.736,+1.015,-0.356,-0.051,+75.312,+65.562,-19.562,-1, -3, -4, -4, -3, 0, 1, -2,-0.7873909216298169,1.400622844604061,22
1503683711379,+0.209,+0.358,-0.547,-0.727,+0.953,-0.220,-0.112,+77.562,+30.625,-30.562,-1, -4, -6, -3, -4, 2, -1, -3,-0.8144080779336962,1.4182791625171152,22
1503683711399,+0.220,+0.366,-0.546,-0.721,+0.857,-0.249,-0.105,+81.375,+5.938,-27.000,-1, -1, -2, -2, -2, -3, 1, -1,-0.8456888569510068,1.4285125255172897,22
1503683711422,+0.230,+0.375,-0.546,-0.713,+0.803,-0.311,-0.041,+81.750,+13.938,-26.500,0, 1, 1, 3, 1, 0, 0, -1,-0.8773531739322681,1.4426841483442963,22
1503683711440,+0.237,+0.384,-0.550,-0.703,+0.780,-0.285,-0.027,+75.938,+44.375,-25.625,1, 1, 2, -3, 2, 0, -3, -1,-0.905607370722536,1.466407640007481,22
1503683711459,+0.241,+0.393,-0.556,-0.691,+0.817,-0.271,+0.008,+68.750,+65.312,-23.750,-1, -2, 0, -5, -3, 0, 1, -2,-0.9294749673636687,1.494904952020672,22
1503683711484,+0.245,+0.402,-0.564,-0.679,+0.916,-0.250,+0.042,+60.812,+73.438,-21.188,-3, -6, -7, -2, -6, -2, 0, -4,-0.9546057686298662,1.5286566420775078,22
1503683711497,+0.249,+0.409,-0.570,-0.668,+1.012,-0.204,+0.085,+57.188,+60.438,-19.688,-3, 0, 1, 7, 18, -2, -5, -11,-0.9751896436323576,1.5545959543330528,22
1503683711519,+0.255,+0.414,-0.575,-0.658,+1.086,-0.178,+0.174,+55.875,+36.062,-23.188,-2, -1, -1, 1, -5, -1, 2, -1,-0.9947970809807857,1.5749726126485937,22
1503683711542,+0.262,+0.418,-0.578,-0.650,+1.069,-0.183,+0.158,+50.750,+20.625,-31.812,0, -1, -2, -9, -3, -2, 0, 1,-1.0136088599136475,1.5889470735029845,22
1503683711557,+0.271,+0.420,-0.579,-0.644,+0.945,-0.139,+0.104,+44.625,+0.812,-32.375,-3, -2, -2, -15, -3, -2, -1, -1,-1.0311929596465275,1.594710188545083,22
1503683711580,+0.279,+0.421,-0.579,-0.640,+0.899,-0.126,+0.075,+41.500,-6.125,-28.000,-3, -1, 0, -6, -10, 0, -1, -2,-1.045260409514239,1.5963676247520335,22
1503683711602,+0.284,+0.423,-0.580,-0.636,+0.923,-0.167,+0.136,+31.188,+5.375,-20.125,-2, -7, -1, -2, -6, -1, -1, -2,-1.0569630797116902,1.6021329444292207,22
1503683711624,+0.287,+0.425,-0.584,-0.629,+0.923,-0.162,+0.194,+24.500,+26.125,-19.875,-11, -11, -3, -6, -1, -2, -3, -4,-1.0657917863339124,1.6150766063238362,22
1503683711647,+0.289,+0.427,-0.588,-0.624,+0.965,-0.161,+0.143,+19.438,+29.125,-19.438,6, -1, 1, 14, -24, -5, 0, 5,-1.0735343337037162,1.627988916186872,22
1503683711662,+0.291,+0.427,-0.591,-0.620,+1.010,-0.125,+0.112,+11.812,+18.500,-17.750,-3, -5, 1, 4, 29, 5, 3, 0,-1.0769333645954786,1.6351286277612227,22
1503683711678,+0.294,+0.427,-0.593,-0.616,+1.024,-0.095,+0.135,+12.562,+14.625,-14.625,2, 4, 0, 3, 8, 1, -2, -2,-1.0815557108907314,1.6399122220016407,22
1503683711699,+0.296,+0.428,-0.596,-0.612,+1.006,-0.108,+0.138,+16.438,+18.625,-16.938,5, 9, -1, -7, -5, -1, 1, -2,-1.0870366960986908,1.6487756011894994,22
1503683711722,+0.299,+0.428,-0.599,-0.607,+1.001,-0.161,+0.190,+15.438,+14.875,-23.562,3, -3, -5, -7, -1, 0, 1, 3,-1.0917711720070837,1.6560004213982702,22
1503683711737,+0.302,+0.428,-0.602,-0.603,+1.002,-0.155,+0.180,+11.375,+11.188,-26.812,-3, -2, -1, -4, -2, -2, -9, -10,-1.0967775154813195,1.663142147858057,22
1503683711759,+0.305,+0.426,-0.604,-0.600,+0.978,-0.098,+0.166,+7.875,+10.250,-26.625,-1, 0, 1, 6, 5, 1, 3, 1,-1.0974808766008985,1.664547057519274,22
1503683711782,+0.308,+0.425,-0.608,-0.595,+0.948,-0.083,+0.176,+7.812,+19.938,-27.438,-10, -1, -3, -4, 0, -2, -2, -4,-1.1005033976772538,1.6725204773276063,22
1503683711797,+0.309,+0.424,-0.614,-0.590,+0.951,-0.114,+0.208,+3.875,+28.562,-32.000,6, 6, 0, 0, 4, -1, -2, 2,-1.1009868279160966,1.6853839089185327,22
1503683711819,+0.310,+0.423,-0.619,-0.585,+0.970,-0.089,+0.184,-2.062,+33.500,-29.062,1, 1, -1, -3, -4, -2, 0, 0,-1.1010705721106633,1.6960183262765474,22
1503683711845,+0.310,+0.421,-0.625,-0.580,+1.012,-0.034,+0.142,-5.625,+33.625,-24.500,-4, 2, 0, -5, -8, 1, 0, -3,-1.097807042646627,1.7075930202761154,22
1503683711858,+0.309,+0.420,-0.630,-0.576,+1.133,+0.001,+0.257,-10.875,+29.750,-11.188,1, 0, 0, -1, -7, -2, -2, -1,-1.0948847504161188,1.7184969687932476,22
1503683711880,+0.308,+0.418,-0.628,-0.579,+1.330,-0.026,+0.125,-13.875,-9.312,+12.312,-1, -1, -1, -2, -3, 1, -1, 0,-1.0891771903972498,1.7102471466608435,22
1503683711902,+0.304,+0.417,-0.625,-0.586,+1.163,-0.145,+0.244,-29.250,-31.750,+26.688,-3, -1, 1, 10, 7, 2, 0, 1,-1.0813983362848847,1.7009122878577716,22
1503683711919,+0.301,+0.415,-0.621,-0.593,+0.923,-0.133,+0.188,-32.875,-39.562,+26.125,0, 4, -1, -8, -4, -1, 0, 0,-1.0727891888268914,1.6875975270528383,22
1503683717542,+0.168,+0.245,-0.420,-0.857,+0.818,-0.249,-0.489,+5.250,+0.062,+5.438,-10, -10, -1, 1, 2, -2, -2, -4,-0.5401076458470561,0.9894248491436305,23
1503683717564,+0.168,+0.246,-0.420,-0.857,+0.802,-0.265,-0.505,+8.000,+2.812,+7.438,1, -6, -9, -6, -7, -2, 1, 3,-0.5413844101201203,0.990472309329106,23
1503683717590,+0.167,+0.249,-0.420,-0.857,+0.798,-0.278,-0.496,+10.000,+7.812,+8.750,3, 10, -2, -1, -3, -6, -7, -5,-0.5433421947810647,0.993355518574508,23
1503683717602,+0.166,+0.251,-0.421,-0.856,+0.789,-0.281,-0.486,+10.375,+11.250,+9.938,-10, -9, -8, 1, 2, -2, -4, -6,-0.5441843775769858,0.9971699906058753,23
1503683717625,+0.164,+0.254,-0.422,-0.855,+0.837,-0.296,-0.487,+9.000,+15.125,+13.688,-4, -5, -4, -1, 0, -1, -2, -1,-0.5444680727754189,1.001797379991915,23
1503683717647,+0.162,+0.257,-0.424,-0.853,+0.868,-0.268,-0.462,+8.438,+17.312,+17.188,10, -1, 4, -5, -3, -1, -2, 6,-0.5449694737821581,1.0084459086563418,23
1503683717663,+0.160,+0.261,-0.425,-0.852,+0.843,-0.250,-0.482,+14.500,+15.875,+20.938,2, 4, -1, -3, -2, 0, 2, -2,-0.5466895893523652,1.0142624620871794,23
1503683717686,+0.157,+0.266,-0.425,-0.851,+0.792,-0.280,-0.452,+21.125,+14.625,+23.750,-8, -4, -2, -1, -1, 0, 2, 4,-0.5474770671715646,1.0185121999070026,23
1503683717707,+0.154,+0.272,-0.426,-0.849,+0.796,-0.317,-0.442,+24.875,+15.875,+28.938,-7, 0, 3, 2, 1, 0, 0, -1,-0.5499381623599413,1.0260103975589665,23
1503683717724,+0.151,+0.279,-0.426,-0.847,+0.833,-0.332,-0.460,+26.062,+22.500,+32.312,12, 4, -4, -2, -3, 1, 0, 0,-0.5534550934000003,1.0323638131128223,23
1503683717744,+0.147,+0.285,-0.428,-0.845,+0.839,-0.335,-0.422,+28.188,+25.250,+30.938,2, 0, 0, -1, 0, -1, -1, -3,-0.5549085694657433,1.0423819108811103,23
1503683717767,+0.144,+0.293,-0.429,-0.842,+0.811,-0.363,-0.428,+32.125,+25.625,+29.875,-5, -5, -2, -1, -1, -2, -1, -1,-0.5605356234818306,1.05241670876208,23
1503683717786,+0.142,+0.301,-0.431,-0.839,+0.801,-0.434,-0.373,+32.625,+27.062,+25.562,0, 1, -3, -3, -2, -2, 0, 0,-0.5688730906942917,1.0655923626636579,23
1503683717804,+0.139,+0.308,-0.432,-0.836,+0.816,-0.431,-0.366,+27.250,+23.625,+22.375,-1, 2, -1, -3, -1, -1, -2, -2,-0.5736011209523867,1.0749514386891257,23
1503683717827,+0.137,+0.314,-0.434,-0.833,+0.847,-0.442,-0.372,+25.812,+21.562,+16.875,1, -3, -2, -1, -1, -1, -1, 0,-0.5794633506031451,1.08606250833377,23
1503683717842,+0.137,+0.318,-0.436,-0.831,+0.861,-0.424,-0.373,+21.938,+19.750,+8.375,1, 0, 1, 0, 0, 2, 1, 6,-0.5863439520844745,1.0957063004824092,23
1503683717864,+0.137,+0.322,-0.438,-0.828,+0.802,-0.410,-0.346,+20.750,+17.125,+3.875,2, -3, -2, 0, -1, -2, 3, -3,-0.5930720508865905,1.1050210781499814,23
1503683717888,+0.136,+0.326,-0.439,-0.826,+0.785,-0.442,-0.331,+17.500,+17.438,+4.438,-4, 1, -2, 0, 1, 0, -1, -8,-0.597713990397859,1.1120200807643508,23
1503683717902,+0.136,+0.328,-0.441,-0.824,+0.906,-0.438,-0.349,+10.812,+13.438,+3.500,-3, -1, 2, 12, 20, 2, 1, -2,-0.6016369214066196,1.1191037383551496,23
1503683717927,+0.137,+0.330,-0.443,-0.822,+0.896,-0.433,-0.314,+12.375,+9.000,-4.500,-1, -3, -3, -5, -8, -2, -2, 2,-0.6074238617152732,1.1265372878020907,23
1503683717946,+0.140,+0.331,-0.443,-0.821,+0.852,-0.446,-0.324,+10.250,+0.125,-10.750,0, 3, 1, 6, 8, 1, -1, -2,-0.6143106326496925,1.128503562936345,23
1503683717969,+0.142,+0.332,-0.444,-0.820,+0.811,-0.429,-0.348,+6.812,+0.875,-10.000,-2, 0, 0, 1, -7, 0, -3, -5,-0.6199617621728607,1.1327015300382812,23
1503683717988,+0.143,+0.332,-0.444,-0.820,+0.789,-0.430,-0.339,+4.812,+3.500,-10.125,0, 2, -2, -4, -7, -1, -2, 1,-0.621795039472263,1.133011468962836,23
1503683718007,+0.144,+0.332,-0.446,-0.819,+0.831,-0.419,-0.359,+2.750,+10.750,-10.375,-3, -1, -2, 5, 7, -2, -2, -1,-0.6245567994039155,1.1379759792203352,23
1503683718029,+0.145,+0.332,-0.449,-0.817,+0.840,-0.414,-0.348,+0.438,+16.938,-10.000,-2, -9, -2, 0, -9, -3, -3, 0,-0.6276432212969298,1.1450661052486384,23
1503683718054,+0.145,+0.332,-0.452,-0.815,+0.916,-0.398,-0.316,-0.625,+19.375,-9.438,3, 0, 2, 3, 10, 0, -1, 1,-0.6288964126128036,1.1518665186493862,23
1503683718075,+0.146,+0.331,-0.455,-0.813,+0.866,-0.406,-0.258,-1.812,+12.938,-10.812,0, -2, -1, -9, -8, -1, 1, -1,-0.630300603134735,1.1575161243885932,23
1503683718083,+0.146,+0.330,-0.456,-0.814,+1.029,-0.472,-0.323,-12.375,-6.062,-3.562,-2, 2, -2, -5, -7, 0, 0, 0,-0.6294860727101038,1.159002003394238,23
1503683718104,+0.146,+0.328,-0.457,-0.814,+0.860,-0.223,-0.355,-3.812,+8.000,+7.000,6, 6, 4, -3, -5, -1, 0, 2,-0.6267648451515899,1.158652030562826,23
1503683718129,+0.143,+0.329,-0.454,-0.815,+0.690,-0.385,-0.322,-3.688,-6.250,+18.938,-4, -15, -3, -6, -7, -1, 1, -2,-0.6214781282449077,1.1520028354396614,23
1503683724456,+0.173,+0.250,-0.449,-0.840,+0.860,-0.252,-0.439,-2.500,+2.062,+0.438,0, -4, -5, 0, -3, -4, -3, 3,-0.5635911193974426,1.059458432988853,24
1503683724473,+0.172,+0.250,-0.450,-0.840,+0.856,-0.247,-0.426,-1.125,+2.812,+1.312,-2, 8, 1, 1, -2, -1, -4, 0,-0.5621743187798062,1.0616833206957494,24
1503683724488,+0.172,+0.250,-0.450,-0.840,+0.874,-0.263,-0.417,-0.812,+2.188,+2.688,-2, 0, 2, 0, 0, -1, 0, -2,-0.5621743187798062,1.0616833206957494,24
1503683724510,+0.172,+0.250,-0.450,-0.840,+0.879,-0.268,-0.412,-1.250,+0.250,+2.875,8, -1, 1, 1, 4, -1, 0, 1,-0.5621743187798062,1.0616833206957494,24
1503683724532,+0.171,+0.251,-0.450,-0.840,+0.854,-0.267,-0.437,-1.000,+0.062,+3.125,2, -3, -5, -5, -3, -1, 0, 1,-0.5616642027966392,1.0625113169554559,24
