Timestamp,Orientation X,Orientation Y,Orientation Z,Orientation W,Accelerometer X,Accelerometer Y,Accelerometer Z,Gyroscope X,Gyroscope Y,Gyroscope Z,EMG1,EMG2,EMG3,EMG4,EMG5,EMG6,EMG7,EMG8,Roll,Yaw
1503683563326,-0.080,-0.079,-0.010,-0.994,+0.061,+0.189,-0.954,-1.375,-0.812,+0.750,9, 0, -1, -1, -1, -1, -1, -1,0.16331840290988217,0.032925812562484294
1503683563342,-0.080,-0.079,-0.010,-0.994,+0.058,+0.179,-0.959,-0.500,-2.062,+0.750,5, 1, 4, 2, 2, 2, 2, 1,0.16331840290988217,0.032925812562484294
1503683563370,-0.080,-0.079,-0.009,-0.994,+0.052,+0.167,-0.969,+0.188,-1.500,+0.375,-10, 0, -1, -3, -1, -2, -2, -5,0.16316058596477764,0.030913139429725383
1503683563386,-0.080,-0.079,-0.009,-0.994,+0.048,+0.149,-0.961,-0.625,-1.312,+0.062,8, -3, -2, -2, -2, 0, -1, 0,0.16316058596477764,0.030913139429725383
1503683563408,-0.080,-0.078,-0.009,-0.994,+0.027,+0.152,-0.959,-1.250,-1.062,+0.688,-6, 1, 3, 3, 4, 1, 1, -1,0.16309099457634108,0.030741474207031792
1503683563424,-0.080,-0.078,-0.009,-0.994,+0.030,+0.159,-0.958,-1.438,+1.375,+1.000,4, 1, 2, 4, 4, -1, -3, -5,0.16309099457634108,0.030741474207031792
1503683563446,-0.080,-0.079,-0.010,-0.994,+0.053,+0.167,-0.965,-1.438,+2.000,+0.875,-4, -2, -3, -2, -3, -1, 1, 1,0.16331840290988217,0.032925812562484294
1503683563469,-0.080,-0.079,-0.010,-0.994,+0.052,+0.168,-0.963,-1.375,+1.500,+1.062,14, -1, 2, 3, 0, 0, -1, -1,0.16331840290988217,0.032925812562484294
1503683563484,-0.080,-0.079,-0.010,-0.994,+0.055,+0.171,-0.955,-1.562,+0.000,+0.375,2, 2, -2, 0, 0, 1, -1, -3,0.16331840290988217,0.032925812562484294
1503683563506,-0.080,-0.079,-0.010,-0.994,+0.062,+0.172,-0.960,-1.250,+0.688,+0.375,2, 4, -2, -3, -3, -3, 0, 0,0.16331840290988217,0.032925812562484294
1503683563529,-0.080,-0.079,-0.010,-0.994,+0.066,+0.169,-0.961,-0.875,-1.312,+0.062,-22, -1, -1, -3, -1, -1, 1, 3,0.16331840290988217,0.032925812562484294
1503683563545,-0.080,-0.078,-0.010,-0.994,+0.043,+0.148,-0.962,-0.750,-2.312,+0.375,4, 2, 1, -3, 0, 1, 1, 4,0.16324676728101778,0.03275352287997128
1503683563567,-0.080,-0.078,-0.009,-0.994,+0.035,+0.161,-0.961,-1.688,-1.750,+0.500,-5, -2, -3, -1, 0, -2, -4, -5,0.16309099457634108,0.030741474207031792
1503683563596,-0.080,-0.078,-0.009,-0.994,+0.041,+0.176,-0.964,-1.938,-0.188,+0.188,4, -3, 0, -2, -2, 0, 0, 2,0.16309099457634108,0.030741474207031792
1503683563605,-0.080,-0.078,-0.009,-0.994,+0.051,+0.174,-0.958,-1.375,-0.125,+0.312,19, 9, 2, 3, 1, 2, 2, 3,0.16309099457634108,0.030741474207031792
1503683563627,-0.080,-0.078,-0.009,-0.994,+0.051,+0.156,-0.966,-1.062,-1.688,+0.250,2, 2, 0, -3, -1, 0, -2, 0,0.16309099457634108,0.030741474207031792
1503683563649,-0.080,-0.078,-0.009,-0.994,+0.051,+0.161,-0.965,-1.312,-0.938,+0.188,-4, -1, -2, -3, -1, -3, -3, -4,0.16309099457634108,0.030741474207031792
1503683563665,-0.080,-0.079,-0.009,-0.994,+0.059,+0.180,-0.958,-1.812,-1.438,+0.312,-8, -8, -5, -5, -2, -1, -1, -4,0.16316058596477764,0.030913139429725383
1503683563687,-0.080,-0.079,-0.008,-0.994,+0.048,+0.182,-0.949,-0.750,-2.875,-0.438,-9, -4, -2, -1, 0, -1, 1, -3,0.16300276081893314,0.028900487694325003
1503683563708,-0.080,-0.079,-0.008,-0.994,+0.044,+0.165,-0.952,-0.625,-1.125,-0.125,19, 8, 1, 0, -1, 1, 0, 5,0.16300276081893314,0.028900487694325003
1503683563725,-0.080,-0.078,-0.008,-0.994,+0.032,+0.153,-0.970,-0.875,-1.750,+0.125,-5, -2, -1, -1, 0, -1, -2, 1,0.1629352138854753,0.028729447652289408
1503683563747,-0.080,-0.078,-0.007,-0.994,+0.017,+0.166,-0.964,-1.812,-1.375,+1.250,-16, -2, -2, -2, -1, -2, -2, -2,0.16277942521536767,0.026717435083824653
1503683563769,-0.080,-0.079,-0.008,-0.994,+0.018,+0.172,-0.961,-1.938,+3.375,+1.688,-2, -2, 1, 1, -1, 1, -1, -1,0.16300276081893314,0.028900487694325003
1503683563785,-0.080,-0.079,-0.008,-0.994,+0.049,+0.176,-0.955,-1.000,+4.375,+0.625,0, -3, -3, 0, -2, -2, 0, -2,0.16300276081893314,0.028900487694325003
1503683563807,-0.080,-0.079,-0.009,-0.994,+0.064,+0.169,-0.958,-0.250,+2.062,+0.750,1, 2, -1, 0, -1, 1, -1, -1,0.16316058596477764,0.030913139429725383
1503683563828,-0.080,-0.078,-0.009,-0.994,+0.056,+0.142,-0.962,-0.562,+1.375,+0.938,18, 1, 0, 3, 5, 0, -2, -1,0.16309099457634108,0.030741474207031792
1503683563846,-0.080,-0.078,-0.010,-0.994,+0.070,+0.150,-0.960,-2.250,+0.750,+0.688,3, 3, 3, 2, 0, -1, 1, -2,0.16324676728101778,0.03275352287997128
1503683563867,-0.080,-0.079,-0.010,-0.994,+0.060,+0.181,-0.949,-2.188,-1.625,+0.750,8, 3, 0, 3, 0, 1, 1, -1,0.16331840290988217,0.032925812562484294
1503683563889,-0.080,-0.079,-0.010,-0.994,+0.050,+0.178,-0.963,-0.812,-1.188,+0.500,1, 0, -2, -1, -3, -2, -2, -1,0.16331840290988217,0.032925812562484294
1503683563905,-0.080,-0.079,-0.009,-0.994,+0.053,+0.172,-0.963,-1.000,-1.188,+0.062,4, -3, -5, -2, 1, -2, -3, -7,0.16316058596477764,0.030913139429725383
1503683563927,-0.080,-0.079,-0.009,-0.994,+0.046,+0.168,-0.961,-0.875,-2.562,+0.375,0, 2, 4, 0, 1, 1, 4, 11,0.16316058596477764,0.030913139429725383
1503683563949,-0.080,-0.079,-0.008,-0.994,+0.032,+0.158,-0.964,-1.000,-2.375,+0.312,3, -1, -3, -3, -2, 0, 1, 4,0.16300276081893314,0.028900487694325003
1503683563965,-0.080,-0.078,-0.009,-0.994,+0.038,+0.149,-0.962,-1.438,+1.312,+0.000,0, -4, -1, 0, -1, -1, -2, -7,0.16309099457634108,0.030741474207031792
1503683563987,-0.080,-0.079,-0.009,-0.994,+0.041,+0.168,-0.962,-1.438,+1.500,+0.062,-1, -2, 1, -1, -1, -1, 1, 3,0.16316058596477764,0.030913139429725383
1503683564008,-0.080,-0.079,-0.009,-0.994,+0.041,+0.178,-0.964,-1.688,+1.812,+0.625,-7, -6, -3, -4, -1, -3, -3, -2,0.16316058596477764,0.030913139429725383
1503683564025,-0.080,-0.079,-0.009,-0.994,+0.042,+0.174,-0.960,-1.938,+1.438,+1.000,-12, 2, -2, -1, -3, 0, -1, -4,0.16316058596477764,0.030913139429725383
1503683564047,-0.080,-0.079,-0.010,-0.994,+0.044,+0.174,-0.963,-1.250,+2.312,+1.125,-3, 1, -4, -4, -2, -1, 0, 2,0.16331840290988217,0.032925812562484294
1503683564068,-0.080,-0.079,-0.010,-0.994,+0.052,+0.156,-0.963,-0.500,+3.250,+0.250,-6, -1, -1, 0, 0, -2, -2, -4,0.16331840290988217,0.032925812562484294
1503683564085,-0.080,-0.079,-0.011,-0.994,+0.047,+0.147,-0.968,-0.812,+3.000,+0.750,0, -6, -2, 0, -2, -1, -3, -3,0.16347621164702536,0.03493851522143637
1503683564107,-0.080,-0.079,-0.011,-0.994,+0.051,+0.173,-0.966,-2.750,+2.875,+1.688,6, 2, 1, -2, -1, 2, 0, 1,0.16347621164702536,0.03493851522143637
1503683564128,-0.080,-0.080,-0.011,-0.994,+0.049,+0.187,-0.956,-2.188,+1.938,+1.938,-14, -4, -3, 1, 0, -2, -1, -6,0.16355059647381617,0.035111678760032496
1503683564145,-0.080,-0.079,-0.012,-0.994,+0.060,+0.159,-0.958,-0.562,+2.188,+1.125,-2, -2, -2, -1, 0, -1, -2, 1,0.1636340121689881,0.036951255532178366
1503683564167,-0.080,-0.079,-0.013,-0.994,+0.071,+0.158,-0.970,-0.875,+2.250,-0.062,19, 1, -2, -3, -3, -1, 1, 0,0.16379180446855365,0.03896404161687118
1503683564190,-0.080,-0.079,-0.013,-0.994,+0.064,+0.177,-0.957,-1.625,-1.000,+0.875,-10, -3, 2, 3, 1, 1, 2, 1,0.16379180446855365,0.03896404161687118
1503683564205,-0.080,-0.079,-0.013,-0.994,+0.047,+0.181,-0.958,-2.125,+0.062,+0.875,-16, -3, 0, 2, 1, 1, -1, -2,0.16379180446855365,0.03896404161687118
1503683564227,-0.080,-0.079,-0.013,-0.994,+0.055,+0.169,-0.954,-0.750,+1.875,+0.250,5, 0, -2, -1, -1, 0, 0, -1,0.16379180446855365,0.03896404161687118
1503683564249,-0.080,-0.079,-0.013,-0.994,+0.057,+0.143,-0.966,+0.188,+0.562,+0.312,-2, 0, -2, -2, -3, -2, -1, -1,0.16379180446855365,0.03896404161687118
1503683564265,-0.080,-0.079,-0.013,-0.994,+0.050,+0.153,-0.969,-1.375,-1.125,+0.688,1, 1, -1, -3, -1, -3, -1, 4,0.16379180446855365,0.03896404161687118
1503683564287,-0.080,-0.079,-0.013,-0.994,+0.042,+0.180,-0.964,-2.500,+1.875,+1.438,3, -1, -1, 0, 0, 0, -2, -2,0.16379180446855365,0.03896404161687118
1503683564308,-0.080,-0.079,-0.014,-0.994,+0.068,+0.178,-0.953,-1.562,+2.312,+0.875,-5, -4, 0, 0, 1, 1, -1, -5,0.16394958853850777,0.04097688159404192
1503683564325,-0.080,-0.079,-0.014,-0.994,+0.066,+0.150,-0.964,-0.250,+0.812,+0.000,-3, -1, 0, -2, -1, -1, 0, -3,0.16394958853850777,0.04097688159404192
1503683564349,-0.080,-0.079,-0.014,-0.994,+0.055,+0.151,-0.966,-1.375,+1.562,+0.562,-12, -3, -2, 0, -2, -2, -3, 5,0.16394958853850777,0.04097688159404192
1503683564368,-0.080,-0.079,-0.014,-0.994,+0.049,+0.164,-0.962,-2.062,+2.125,+1.000,5, -4, -1, 1, 1, 1, -1, -4,0.16394958853850777,0.04097688159404192
1503683564385,-0.080,-0.080,-0.015,-0.993,+0.054,+0.187,-0.956,-2.438,+2.938,+1.375,6, 3, 3, 7, 4, 2, 0, -2,0.16403010964847992,0.04313512222392326
1503683564407,-0.080,-0.080,-0.015,-0.993,+0.063,+0.184,-0.955,-1.438,+2.750,+0.562,-2, 0, -2, -3, -2, -2, 0, 3,0.16403010964847992,0.04313512222392326
1503683564436,-0.080,-0.080,-0.016,-0.993,+0.070,+0.173,-0.966,-0.438,+1.688,-0.250,-10, -1, -1, 1, 1, 0, -3, -6,0.1641899304714419,0.04514670349750246
1503683564445,-0.080,-0.080,-0.016,-0.993,+0.074,+0.149,-0.958,-0.750,+2.125,+0.375,22, 4, -3, -3, -2, 0, -1, 3,0.1641899304714419,0.04514670349750246
1503683564467,-0.080,-0.080,-0.017,-0.993,+0.075,+0.170,-0.957,-1.750,+0.875,+0.125,-14, -3, -4, -3, -3, -4, -2, -6,0.1643497428309508,0.047158362875750516
1503683564490,-0.080,-0.080,-0.017,-0.993,+0.072,+0.177,-0.958,-1.438,-1.125,-0.125,-4, 1, -1, -1, -3, -1, 2, 1,0.1643497428309508,0.047158362875750516
1503683564505,-0.080,-0.080,-0.016,-0.993,+0.058,+0.165,-0.961,-0.812,-1.812,+0.375,-12, 0, 0, 0, -1, -1, -1, -3,0.1641899304714419,0.04514670349750246
1503683564527,-0.080,-0.080,-0.016,-0.994,+0.058,+0.164,-0.972,-1.438,+1.250,-0.438,12, 0, 0, -1, -2, 1, -1, 4,0.16434974283095083,0.04517906912311084
1503683564552,-0.080,-0.080,-0.016,-0.993,+0.060,+0.173,-0.953,-1.938,+0.875,+0.000,-4, -1, -1, -3, -1, 0, 0, 4,0.1641899304714419,0.04514670349750246
1503683564565,-0.080,-0.080,-0.016,-0.993,+0.046,+0.170,-0.957,-0.750,-1.062,+0.188,-9, -8, -2, -1, 0, -2, -1, -2,0.1641899304714419,0.04514670349750246
1503683564588,-0.080,-0.080,-0.017,-0.993,+0.061,+0.163,-0.960,-1.562,+2.562,+0.438,3, 4, 3, 0, 0, 0, 0, 0,0.1643497428309508,0.047158362875750516
1503683564609,-0.080,-0.080,-0.017,-0.993,+0.072,+0.168,-0.959,-1.250,+1.188,+0.500,-6, -3, -1, 1, 0, -2, 0, -2,0.1643497428309508,0.047158362875750516
1503683564625,-0.080,-0.080,-0.017,-0.993,+0.068,+0.170,-0.968,-0.875,-0.562,-0.062,2, -3, -3, -3, 0, -1, -1, -4,0.1643497428309508,0.047158362875750516
1503683564647,-0.080,-0.080,-0.017,-0.993,+0.059,+0.168,-0.955,-1.375,+1.375,+0.938,-12, -2, -1, 0, 0, -1, -2, -4,0.1643497428309508,0.047158362875750516
1503683564669,-0.080,-0.080,-0.018,-0.993,+0.073,+0.174,-0.959,-1.188,+1.000,+0.062,1, 0, -3, -2, -1, -1, -1, -2,0.1645095467195163,0.04917010848510073
1503683564685,-0.080,-0.080,-0.018,-0.993,+0.065,+0.168,-0.957,-0.938,-0.250,+0.375,-4, 0, 0, 3, 1, 1, 3, 1,0.1645095467195163,0.04917010848510073
1503683564708,-0.080,-0.080,-0.018,-0.993,+0.054,+0.158,-0.966,-0.625,+0.375,+0.188,7, 0, 0, -2, -2, -1, 0, -1,0.1645095467195163,0.04917010848510073
1503683564729,-0.079,-0.080,-0.018,-0.993,+0.061,+0.160,-0.966,-1.250,+1.750,+0.000,-7, -2, 2, 2, 1, -2, -1, -1,0.16247328755660448,0.04900831797723677
1503683564745,-0.079,-0.080,-0.018,-0.993,+0.062,+0.159,-0.957,-1.500,+1.188,+0.875,9, -4, -3, -2, 0, -1, -2, -3,0.16247328755660448,0.04900831797723677
1503683564767,-0.079,-0.080,-0.018,-0.993,+0.073,+0.168,-0.959,-1.438,+0.750,+0.625,-1, 1, 1, 0, 0, 0, 0, -1,0.16247328755660448,0.04900831797723677
1503683564789,-0.079,-0.080,-0.018,-0.993,+0.069,+0.170,-0.955,-2.000,+1.375,+0.500,-12, -4, -3, 0, 2, -1, -1, -1,0.16247328755660448,0.04900831797723677
1503683564805,-0.079,-0.080,-0.018,-0.993,+0.069,+0.176,-0.950,-1.250,+0.438,+0.250,-1, 4, 0, -1, -4, -1, -3, -1,0.16247328755660448,0.04900831797723677
1503683564827,-0.079,-0.081,-0.018,-0.993,+0.074,+0.169,-0.955,-1.250,-0.438,-0.188,1, -4, -5, -4, -2, -2, -2, -2,0.16256201670340495,0.04918411342308728
1503683564849,-0.079,-0.081,-0.018,-0.993,+0.069,+0.166,-0.963,-1.250,-1.000,+0.812,-5, -2, 1, -1, 0, -1, 0, 1,0.16256201670340495,0.04918411342308728
1503683564865,-0.079,-0.080,-0.018,-0.993,+0.066,+0.167,-0.957,-1.312,-0.438,+0.000,1, 1, -1, -2, -1, 0, 0, 1,0.16247328755660448,0.04900831797723677
1503683564887,-0.079,-0.081,-0.018,-0.993,+0.068,+0.174,-0.966,-1.188,-0.562,+0.250,-3, -2, 1, -1, -1, -2, 1, 1,0.16256201670340495,0.04918411342308728
1503683564909,-0.079,-0.080,-0.018,-0.993,+0.063,+0.166,-0.958,-0.875,-1.500,+0.188,1, 0, -1, 0, -2, 0, 0, -2,0.16247328755660448,0.04900831797723677
1503683564925,-0.079,-0.080,-0.018,-0.993,+0.052,+0.161,-0.962,-0.812,-0.688,+0.500,23, 0, -3, -2, -1, -2, -4, 0,0.16247328755660448,0.04900831797723677
1503683564947,-0.079,-0.080,-0.018,-0.993,+0.069,+0.167,-0.965,-1.500,+0.000,+0.875,2, -1, -2, 0, 0, 0, -1, -1,0.16247328755660448,0.04900831797723677
1503683564969,-0.079,-0.080,-0.018,-0.993,+0.068,+0.165,-0.956,-1.312,-0.438,+0.188,-9, -1, 0, -3, -2, -1, -2, -8,0.16247328755660448,0.04900831797723677
1503683564987,-0.079,-0.080,-0.018,-0.993,+0.065,+0.170,-0.958,-1.188,-0.875,-0.375,3, 4, 1, -1, 0, -1, -1, 3,0.16247328755660448,0.04900831797723677
1503683565008,-0.079,-0.080,-0.018,-0.993,+0.062,+0.175,-0.959,-1.062,-0.875,+0.500,-3, -4, -3, -2, -1, 0, 1, 0,0.16247328755660448,0.04900831797723677
1503683565029,-0.079,-0.080,-0.018,-0.993,+0.069,+0.173,-0.964,-0.875,-1.188,+0.438,3, 3, -2, -4, -4, -3, -1, -2,0.16247328755660448,0.04900831797723677
1503683565045,-0.079,-0.080,-0.018,-0.993,+0.062,+0.167,-0.950,-1.125,-1.312,+0.375,-13, -3, -2, -1, -1, 0, 1, -3,0.16247328755660448,0.04900831797723677
1503683565067,-0.079,-0.080,-0.018,-0.993,+0.065,+0.165,-0.964,-0.750,-0.812,-0.125,-9, -4, -3, -1, -1, -1, -2, -3,0.16247328755660448,0.04900831797723677
1503683565090,-0.079,-0.080,-0.017,-0.994,+0.067,+0.161,-0.961,-0.875,-2.125,+0.250,4, 3, 1, 0, 0, 0, 2, -1,0.16247128937002944,0.04703093742790424
1503683565105,-0.079,-0.080,-0.017,-0.994,+0.051,+0.158,-0.958,-1.062,-1.625,+0.688,-3, 1, -1, 1, -1, 1, 0, 6,0.16247128937002944,0.04703093742790424
1503683565130,-0.079,-0.080,-0.017,-0.994,+0.055,+0.163,-0.960,-1.688,+0.438,-0.062,-1, -1, -1, -1, 2, -1, -1, -3,0.16247128937002944,0.04703093742790424
1503683565149,-0.079,-0.080,-0.017,-0.994,+0.050,+0.171,-0.952,-1.625,-0.562,+0.750,2, 4, 1, 0, 1, 2, -2, 0,0.16247128937002944,0.04703093742790424
1503683565165,-0.079,-0.080,-0.017,-0.994,+0.047,+0.170,-0.963,-1.312,+1.125,+0.125,2, -3, -2, -4, -5, 0, -1, 3,0.16247128937002944,0.04703093742790424
1503683565189,-0.079,-0.080,-0.018,-0.994,+0.065,+0.170,-0.959,-1.875,+4.875,+0.188,-1, -1, 0, -2, -1, -2, -1, 0,0.16263114015848834,0.049044721065685325
1503683565209,-0.079,-0.080,-0.018,-0.993,+0.079,+0.176,-0.956,-1.438,+0.938,+0.812,10, -1, 0, 0, 0, -1, -2, -6,0.16247328755660448,0.04900831797723677
1503683565225,-0.079,-0.080,-0.018,-0.993,+0.056,+0.172,-0.959,-0.750,-1.125,+0.688,-16, -4, 0, 1, 0, 0, -1, 1,0.16247328755660448,0.04900831797723677
1503683565247,-0.079,-0.081,-0.018,-0.993,+0.071,+0.173,-0.963,-1.250,+2.250,+0.438,0, 0, -2, -2, 0, -2, 0, 0,0.16256201670340495,0.04918411342308728
1503683565269,-0.079,-0.081,-0.019,-0.993,+0.084,+0.165,-0.948,-1.062,+0.750,+0.562,5, -2, -1, 0, 0, -1, -1, -1,0.1627239142378861,0.051196608444978496
1503683565285,-0.079,-0.080,-0.018,-0.993,+0.065,+0.168,-0.958,-0.312,-3.125,+0.500,5, -2, -2, 0, 0, -1, -2, -3,0.16247328755660448,0.04900831797723677
1503683565307,-0.079,-0.080,-0.018,-0.993,+0.053,+0.159,-0.965,-0.875,-0.625,+0.375,-4, 1, 1, 2, 0, 0, 0, 1,0.16247328755660448,0.04900831797723677
1503683565330,-0.079,-0.080,-0.018,-0.993,+0.063,+0.168,-0.965,-1.312,+1.750,+0.500,-18, -4, -4, -2, -2, -1, -4, 0,0.16247328755660448,0.04900831797723677
1503683565345,-0.079,-0.080,-0.018,-0.993,+0.070,+0.163,-0.951,-1.250,-0.500,+0.188,8, -2, 3, -1, -1, -2, 0, -3,0.16247328755660448,0.04900831797723677
1503683565367,-0.079,-0.080,-0.018,-0.993,+0.055,+0.168,-0.964,-1.125,-0.312,+0.375,-5, 2, 1, -2, -1, -1, 0, 1,0.16247328755660448,0.04900831797723677
1503683565391,-0.079,-0.080,-0.019,-0.993,+0.062,+0.162,-0.962,-1.562,+1.625,+0.750,-2, 2, 2, 1, 1, -1, 0, -1,0.1626331382402996,0.05102017844111513
1503683565405,-0.079,-0.080,-0.019,-0.993,+0.071,+0.166,-0.955,-1.312,+1.000,+0.688,3, 1, -2, -2, -2, 0, 1, 0,0.1626331382402996,0.05102017844111513
1503683565428,-0.079,-0.080,-0.019,-0.993,+0.065,+0.168,-0.961,-1.625,+0.500,+0.438,-2, 2, -1, 0, 0, 1, 3, 4,0.1626331382402996,0.05102017844111513
1503683565450,-0.079,-0.080,-0.019,-0.993,+0.067,+0.170,-0.954,-1.312,-0.250,+0.500,-5, -2, 0, 2, 0, -1, -2, -2,0.1626331382402996,0.05102017844111513
1503683565466,-0.079,-0.081,-0.019,-0.993,+0.068,+0.168,-0.958,-1.438,+0.875,+0.312,-19, -5, -2, 0, -2, -2, -4, -7,0.1627239142378861,0.051196608444978496
1503683565490,-0.079,-0.081,-0.019,-0.993,+0.071,+0.176,-0.955,-1.000,+0.750,+0.250,4, -5, -2, -4, -4, -4, -2, -8,0.1627239142378861,0.051196608444978496
1503683565510,-0.079,-0.081,-0.019,-0.993,+0.073,+0.168,-0.954,-0.625,-1.000,+0.250,3, 2, -1, 2, 0, 0, 0, -2,0.1627239142378861,0.051196608444978496
1503683565525,-0.079,-0.081,-0.019,-0.993,+0.062,+0.171,-0.952,-0.938,-0.875,+0.375,-1, 1, 1, 0, 0, -1, 1, 3,0.1627239142378861,0.051196608444978496
1503683565548,-0.079,-0.081,-0.019,-0.993,+0.064,+0.165,-0.962,-0.562,-0.250,+0.562,-2, 1, -1, -3, 0, 1, 1, 5,0.1627239142378861,0.051196608444978496
1503683565570,-0.079,-0.081,-0.019,-0.993,+0.067,+0.163,-0.959,-0.938,+0.625,+0.500,-16, -2, -4, -2, -2, 0, -2, -6,0.1627239142378861,0.051196608444978496
1503683565585,-0.079,-0.081,-0.019,-0.993,+0.062,+0.162,-0.956,-1.188,+0.250,+0.000,9, -5, -2, 0, 0, -1, -1, -1,0.1627239142378861,0.051196608444978496
1503683565608,-0.079,-0.081,-0.019,-0.993,+0.062,+0.165,-0.958,-1.250,+0.625,-0.062,4, 0, -2, -2, 0, -2, -3, -3,0.1627239142378861,0.051196608444978496
1503683565630,-0.079,-0.081,-0.019,-0.993,+0.064,+0.176,-0.959,-1.250,+0.938,+0.625,2, -1, -1, 0, -2, 0, -1, -2,0.1627239142378861,0.051196608444978496
1503683565645,-0.079,-0.080,-0.019,-0.993,+0.071,+0.160,-0.958,-0.188,+0.625,+0.062,9, -1, 1, 1, 1, 1, -2, -1,0.1626331382402996,0.05102017844111513
1503683565668,-0.079,-0.080,-0.019,-0.993,+0.070,+0.159,-0.962,-1.250,-1.125,+0.562,5, 3, 2, 5, 2, -1, -1, -1,0.1626331382402996,0.05102017844111513
1503683565692,-0.079,-0.080,-0.019,-0.993,+0.056,+0.166,-0.962,-1.125,-1.250,+1.125,4, 2, 2, 0, 0, -1, 0, -3,0.1626331382402996,0.05102017844111513
1503683565706,-0.079,-0.080,-0.019,-0.993,+0.068,+0.167,-0.954,-1.312,+2.062,-0.188,-21, -5, 2, 6, 3, 0, 1, 1,0.1626331382402996,0.05102017844111513
1503683565735,-0.079,-0.080,-0.019,-0.993,+0.071,+0.161,-0.961,-1.250,+0.875,+0.625,6, -2, -3, -6, -4, -2, 0, -1,0.1626331382402996,0.05102017844111513
1503683565749,-0.079,-0.080,-0.019,-0.994,+0.066,+0.161,-0.961,-0.938,-1.188,+0.438,0, -2, 0, 0, 0, -1, -3, 2,0.16279098256213853,0.05105859905991584
1503683565771,-0.079,-0.080,-0.019,-0.994,+0.062,+0.173,-0.969,-1.812,+0.812,+1.062,-6, -3, -2, -3, -2, -2, -4, -10,0.16279098256213853,0.05105859905991584
1503683565794,-0.079,-0.080,-0.019,-0.994,+0.075,+0.175,-0.953,-1.812,+0.125,+0.812,-7, 3, 3, 3, 1, 1, 3, 4,0.16279098256213853,0.05105859905991584
1503683565809,-0.079,-0.080,-0.019,-0.994,+0.069,+0.162,-0.959,-1.062,-0.438,+0.500,6, 1, -2, -3, -2, -1, -2, 1,0.16279098256213853,0.05105859905991584
1503683565831,-0.079,-0.080,-0.019,-0.994,+0.062,+0.168,-0.960,-1.688,-0.062,+1.250,1, 3, 0, -2, 0, -2, 0, -1,0.16279098256213853,0.05105859905991584
1503683565846,-0.079,-0.080,-0.019,-0.994,+0.076,+0.189,-0.950,-1.375,+0.375,+0.188,-23, -3, -1, -1, -2, 0, -1, -1,0.16279098256213853,0.05105859905991584
1503683565869,-0.079,-0.080,-0.019,-0.994,+0.075,+0.157,-0.964,-0.438,-1.438,+0.500,4, 0, -1, -2, 0, 0, -1, 2,0.16279098256213853,0.05105859905991584
1503683565893,-0.079,-0.080,-0.019,-0.994,+0.065,+0.140,-0.958,-0.562,-2.375,+0.375,0, -2, 3, 2, 2, 0, 1, 1,0.16279098256213853,0.05105859905991584
1503683565906,-0.079,-0.079,-0.018,-0.994,+0.057,+0.158,-0.966,-1.562,-1.250,+1.062,9, 0, -2, 0, -2, 0, 1, -2,0.16254307463042947,0.04886922381949359
1503683565930,-0.079,-0.080,-0.018,-0.994,+0.058,+0.167,-0.959,-2.375,+0.500,+1.125,-11, -1, -5, -6, -6, -4, -3, -3,0.16263114015848834,0.049044721065685325
1503683565951,-0.079,-0.080,-0.019,-0.994,+0.062,+0.182,-0.962,-1.812,+0.938,+0.812,0, -3, -1, -2, 0, 0, 0, 2,0.16279098256213853,0.05105859905991584
1503683565966,-0.079,-0.080,-0.019,-0.994,+0.065,+0.175,-0.953,-1.188,+0.438,+0.188,7, 2, 3, 1, 2, 1, 1, 3,0.16279098256213853,0.05105859905991584
1503683565989,-0.079,-0.080,-0.019,-0.994,+0.075,+0.168,-0.962,-0.562,+0.938,+0.938,0, 0, -1, 0, 0, 0, -1, -4,0.16279098256213853,0.05105859905991584
1503683566011,-0.079,-0.080,-0.019,-0.994,+0.084,+0.161,-0.950,-1.000,+0.438,+0.375,-9, 3, 1, 0, 0, 0, -1, -2,0.16279098256213853,0.05105859905991584
1503683566028,-0.079,-0.080,-0.019,-0.994,+0.067,+0.165,-0.962,-1.312,-0.625,+0.812,0, -2, -1, -2, 0, -2, -2, -1,0.16279098256213853,0.05105859905991584
1503683566049,-0.079,-0.080,-0.019,-0.994,+0.070,+0.170,-0.954,-1.062,-2.312,+0.438,2, 0, 0, -4, -3, -1, -1, -3,0.16279098256213853,0.05105859905991584
1503683566071,-0.079,-0.080,-0.019,-0.994,+0.060,+0.161,-0.963,-1.188,+0.625,+0.688,-2, -4, -3, 1, 1, 0, -3, -3,0.16279098256213853,0.05105859905991584
1503683566086,-0.079,-0.080,-0.019,-0.994,+0.074,+0.157,-0.962,-1.312,+0.312,+0.375,0, -5, -1, 1, -1, -1, -1, -3,0.16279098256213853,0.05105859905991584
1503683566109,-0.079,-0.080,-0.019,-0.994,+0.052,+0.175,-0.967,-1.875,-0.750,+0.562,-8, -2, -2, 1, 2, -1, -2, -1,0.16279098256213853,0.05105859905991584
1503683566133,-0.079,-0.080,-0.019,-0.994,+0.049,+0.179,-0.960,-1.938,+2.312,+0.750,-18, 1, -1, 0, -1, -1, -1, -2,0.16279098256213853,0.05105859905991584
1503683566146,-0.079,-0.080,-0.019,-0.993,+0.084,+0.177,-0.950,-1.250,+3.375,+0.625,8, -5, -2, 0, -1, -1, 1, 3,0.1626331382402996,0.05102017844111513
1503683566169,-0.079,-0.080,-0.020,-0.993,+0.089,+0.171,-0.967,-0.375,-0.438,+0.500,4, -2, -2, -1, -1, 0, -2, -4,0.1627929805390922,0.05303214203000327
1503683566191,-0.079,-0.080,-0.019,-0.994,+0.064,+0.159,-0.959,-0.438,-1.688,+0.312,0, 1, -1, 2, 0, -2, 0, 3,0.16279098256213853,0.05105859905991584
1503683566206,-0.079,-0.080,-0.019,-0.993,+0.075,+0.172,-0.954,-1.125,-0.562,+0.250,9, 3, 1, -3, -2, 0, -2, 0,0.1626331382402996,0.05102017844111513
1503683566230,-0.079,-0.080,-0.019,-0.993,+0.081,+0.169,-0.960,-0.875,-1.688,+0.688,10, -3, -2, -3, -3, -4, -1, -3,0.1626331382402996,0.05102017844111513
1503683566251,-0.079,-0.080,-0.019,-0.994,+0.068,+0.161,-0.961,-0.375,-3.688,+0.375,11, 2, -1, 1, 2, 1, -1, 2,0.16279098256213853,0.05105859905991584
1503683566267,-0.079,-0.080,-0.018,-0.994,+0.047,+0.153,-0.957,-0.688,-2.438,+0.000,-3, 0, -2, -3, -2, 0, 1, 2,0.16263114015848834,0.049044721065685325
1503683566289,-0.079,-0.080,-0.018,-0.994,+0.054,+0.157,-0.963,-1.312,-0.375,+0.438,-1, -1, 0, 2, 0, -3, -1, -2,0.16263114015848834,0.049044721065685325
1503683566311,-0.079,-0.080,-0.018,-0.994,+0.065,+0.165,-0.960,-1.625,+0.375,+0.438,-1, -4, -1, -1, 0, 0, 0, -3,0.16263114015848834,0.049044721065685325
1503683566326,-0.079,-0.080,-0.018,-0.994,+0.071,+0.166,-0.962,-1.625,-0.062,+0.438,-3, 0, 1, -1, 1, 0, -2, 0,0.16263114015848834,0.049044721065685325
1503683566348,-0.079,-0.080,-0.018,-0.994,+0.059,+0.166,-0.956,-1.188,+1.312,-0.062,-11, -3, -2, 2, 1, -1, -4, -2,0.16263114015848834,0.049044721065685325
1503683566372,-0.079,-0.080,-0.018,-0.994,+0.073,+0.158,-0.959,-1.500,+1.000,+0.375,-1, 2, -3, -4, -3, -2, -1, -2,0.16263114015848834,0.049044721065685325
1503683566386,-0.079,-0.080,-0.018,-0.994,+0.066,+0.166,-0.971,-1.438,-0.625,+0.812,17, 10, 1, -3, -2, -1, -2, -1,0.16263114015848834,0.049044721065685325
1503683566408,-0.079,-0.080,-0.018,-0.994,+0.066,+0.171,-0.960,-1.688,-0.500,+1.312,-1, -3, -2, -1, -2, -2, -1, 1,0.16263114015848834,0.049044721065685325
1503683566431,-0.079,-0.080,-0.018,-0.994,+0.068,+0.179,-0.950,-1.438,+0.750,+0.375,1, 1, 2, 0, 0, 0, 2, 4,0.16263114015848834,0.049044721065685325
1503683566446,-0.079,-0.080,-0.018,-0.994,+0.081,+0.174,-0.957,-0.875,-0.750,+0.375,-1, -2, 0, 2, 2, 2, 0, -2,0.16263114015848834,0.049044721065685325
1503683566469,-0.079,-0.079,-0.018,-0.994,+0.066,+0.158,-0.963,-0.750,-2.312,+0.562,3, -2, -1, -2, -3, -2, -2, -1,0.16254307463042947,0.04886922381949359
1503683566491,-0.079,-0.079,-0.018,-0.994,+0.057,+0.160,-0.963,-1.250,-0.438,+0.562,1, -1, -2, -1, -1, -1, -1, -2,0.16254307463042947,0.04886922381949359
1503683566506,-0.079,-0.079,-0.018,-0.994,+0.058,+0.167,-0.969,-1.750,+1.938,+0.688,9, 0, -1, 1, 0, 1, 0, -3,0.16254307463042947,0.04886922381949359
1503683566528,-0.079,-0.080,-0.018,-0.994,+0.061,+0.177,-0.945,-1.562,-0.250,+0.625,-21, -7, -1, 0, -1, -2, -1, -2,0.16263114015848834,0.049044721065685325
1503683566551,-0.079,-0.080,-0.018,-0.994,+0.059,+0.175,-0.970,-0.812,+0.438,+0.625,3, 1, -1, -1, -1, -1, -1, 4,0.16263114015848834,0.049044721065685325
1503683566566,-0.079,-0.079,-0.019,-0.994,+0.080,+0.156,-0.955,-0.938,+1.250,+0.438,2, 4, 2, 4, 0, 1, 2, 1,0.16270087213858384,0.050882475071271534
1503683566591,-0.079,-0.079,-0.019,-0.994,+0.086,+0.158,-0.966,-0.875,+0.250,-0.062,-2, 1, -1, -4, -2, 0, -2, 1,0.16270087213858384,0.050882475071271534
1503683566611,-0.079,-0.079,-0.019,-0.994,+0.070,+0.167,-0.965,-1.125,-1.500,+0.438,6, 2, -1, -1, -1, -1, -1, 2,0.16270087213858384,0.050882475071271534
1503683566626,-0.079,-0.079,-0.018,-0.994,+0.074,+0.171,-0.956,-1.188,-1.938,+0.250,-14, -5, -2, -1, -1, 0, 0, -2,0.16254307463042947,0.04886922381949359
1503683566649,-0.079,-0.079,-0.018,-0.994,+0.066,+0.171,-0.963,-0.875,-2.188,+0.312,0, -2, -2, -2, 0, -3, 0, 1,0.16254307463042947,0.04886922381949359
1503683566672,-0.079,-0.079,-0.018,-0.994,+0.057,+0.152,-0.945,-0.500,-2.125,+0.062,2, -1, 0, 1, 0, 0, 1, 1,0.16254307463042947,0.04886922381949359
1503683566686,-0.079,-0.079,-0.017,-0.994,+0.062,+0.149,-0.962,-1.125,-1.188,+0.312,4, 0, -1, 0, 0, -1, -2, -1,0.16238526895514072,0.0468560676399488
1503683566709,-0.079,-0.079,-0.017,-0.994,+0.051,+0.178,-0.967,-1.688,-1.500,+0.938,-3, -3, -4, -6, -6, 0, -2, -5,0.16238526895514072,0.0468560676399488
1503683566732,-0.079,-0.079,-0.017,-0.994,+0.065,+0.173,-0.961,-1.562,+1.062,+0.188,2, 0, 1, -1, 0, 0, -1, -1,0.16238526895514072,0.0468560676399488
1503683566746,-0.079,-0.079,-0.017,-0.994,+0.075,+0.176,-0.949,-1.875,+0.562,+0.188,5, -1, -1, 2, -2, -1, -2, -1,0.16238526895514072,0.0468560676399488
1503683566769,-0.079,-0.079,-0.017,-0.994,+0.075,+0.172,-0.958,-0.750,-2.500,+0.062,-15, -1, -1, -2, 0, -2, 0, -2,0.16238526895514072,0.0468560676399488
1503683566791,-0.079,-0.079,-0.017,-0.994,+0.066,+0.170,-0.962,-0.750,-2.500,+0.562,5, 2, 1, -2, -5, -2, 0, 4,0.16238526895514072,0.0468560676399488
1503683566808,-0.079,-0.079,-0.016,-0.994,+0.066,+0.159,-0.965,-1.500,-2.500,+0.312,-4, -2, -6, -6, -3, -1, -1, -4,0.16222745511994374,0.04484299843507752
1503683566828,-0.078,-0.079,-0.016,-0.994,+0.055,+0.161,-0.957,-1.000,-0.562,-0.500,-2, 4, 3, 2, 1, -1, 0, 1,0.160190394060135,0.0446832388990185
1503683566851,-0.078,-0.079,-0.016,-0.994,+0.046,+0.169,-0.966,-0.875,-0.188,-0.312,2, 4, 2, 0, 1, -1, -2, -2,0.160190394060135,0.0446832388990185
1503683566867,-0.078,-0.079,-0.016,-0.994,+0.038,+0.160,-0.954,-0.562,+0.875,+0.812,9, 1, -4, -7, -4, -1, -1, 3,0.160190394060135,0.0446832388990185
1503683566888,-0.078,-0.079,-0.016,-0.994,+0.054,+0.165,-0.961,-1.562,+3.625,+0.812,-9, -3, 0, 4, 4, 1, 1, 1,0.160190394060135,0.0446832388990185
1503683566911,-0.078,-0.079,-0.017,-0.994,+0.064,+0.168,-0.960,-1.812,+3.000,+1.125,2, 0, -2, -1, -2, -1, -2, -2,0.16034826169821478,0.04669632687989265
1503683566926,-0.078,-0.079,-0.017,-0.994,+0.060,+0.158,-0.962,-1.125,+2.188,+0.875,-6, -1, 0, 2, 0, -1, -1, -3,0.16034826169821478,0.04669632687989265
1503683566949,-0.079,-0.079,-0.018,-0.994,+0.056,+0.162,-0.965,-2.250,+5.125,+1.375,-8, -1, 1, 1, -1, -1, 2, 3,0.16254307463042947,0.04886922381949359
1503683566971,-0.079,-0.079,-0.019,-0.994,+0.074,+0.165,-0.963,-1.500,+4.812,+2.188,-11, -1, -2, 1, 0, 1, 0, -3,0.16270087213858384,0.050882475071271534
1503683566986,-0.079,-0.079,-0.020,-0.994,+0.073,+0.153,-0.965,-1.688,+3.688,+2.125,7, -1, -3, -6, -3, -2, -3, -6,0.16285866147238015,0.052895829488034236
1503683567017,-0.079,-0.080,-0.020,-0.994,+0.077,+0.170,-0.961,-2.000,+3.250,+2.188,-5, -8, -4, -6, -5, -2, -5, -4,0.16295081657347257,0.053072579503095685
1503683567031,-0.079,-0.080,-0.021,-0.993,+0.080,+0.175,-0.952,-1.500,+2.375,+1.188,-2, -1, 0, 0, -1, -1, -1, 0,0.16295281444547477,0.05504421685604476
1503683567046,-0.079,-0.080,-0.021,-0.993,+0.087,+0.173,-0.957,-1.812,+1.812,+1.000,5, 3, 2, 2, 0, 0, -1, -1,0.16295281444547477,0.05504421685604476
1503683567069,-0.079,-0.080,-0.022,-0.993,+0.101,+0.163,-0.950,-1.062,-0.625,+0.875,0, 1, 1, 4, 3, 1, -1, -3,0.16311263995194242,0.057056411026170144
1503683567091,-0.079,-0.080,-0.021,-0.993,+0.097,+0.170,-0.969,-0.688,-2.312,+0.000,-10, -7, 1, 7, 2, 3, 3, -1,0.16295281444547477,0.05504421685604476
1503683567107,-0.079,-0.080,-0.021,-0.993,+0.083,+0.180,-0.957,-1.188,-2.750,-0.188,-9, 0, -2, -2, 0, -1, 0, 0,0.16295281444547477,0.05504421685604476
1503683567128,-0.079,-0.080,-0.020,-0.993,+0.074,+0.170,-0.951,-1.438,-6.062,-0.875,9, -1, -2, -1, 0, -1, -1, 2,0.1627929805390922,0.05303214203000327
1503683567151,-0.079,-0.080,-0.019,-0.993,+0.048,+0.176,-0.961,-1.500,-5.375,+0.312,-4, -1, -2, -4, -3, -1, 1, -1,0.1626331382402996,0.05102017844111513
1503683567170,-0.079,-0.080,-0.019,-0.994,+0.056,+0.168,-0.959,-0.812,-1.625,+0.438,-6, 0, -1, 0, -1, -2, -1, -2,0.16279098256213853,0.05105859905991584
1503683567188,-0.079,-0.080,-0.018,-0.994,+0.070,+0.162,-0.959,-0.125,-2.250,-0.938,-8, -5, -1, 1, 1, 1, -2, -5,0.16263114015848834,0.049044721065685325
1503683567211,-0.079,-0.080,-0.017,-0.994,+0.056,+0.159,-0.966,-0.625,-4.375,-0.500,-12, -4, 0, -2, -3, -1, -1, 0,0.16247128937002944,0.04703093742790424
1503683567226,-0.079,-0.079,-0.017,-0.994,+0.055,+0.159,-0.958,-0.812,-2.625,+0.188,4, 0, -2, -4, -1, 0, -2, 0,0.16238526895514072,0.0468560676399488
1503683567256,-0.079,-0.079,-0.017,-0.994,+0.073,+0.161,-0.961,-1.312,+0.062,+0.188,-14, -1, -2, 0, -2, -1, 1, 3,0.16238526895514072,0.0468560676399488
1503683567271,-0.079,-0.079,-0.017,-0.994,+0.068,+0.173,-0.966,-1.062,-2.750,+0.438,7, 2, 1, 0, 0, 0, 0, 4,0.16238526895514072,0.0468560676399488
1503683567286,-0.079,-0.079,-0.016,-0.994,+0.048,+0.159,-0.965,-0.375,-2.500,+0.125,15, 4, 4, 6, 4, 1, 1, 2,0.16222745511994374,0.04484299843507752
1503683567309,-0.079,-0.079,-0.016,-0.994,+0.052,+0.167,-0.957,-1.312,-0.188,+0.312,10, 3, 1, 1, 1, -1, 0, -1,0.16222745511994374,0.04484299843507752
1503683567331,-0.079,-0.079,-0.016,-0.994,+0.062,+0.159,-0.964,-1.000,-0.312,+0.938,-2, -3, -4, -6, -3, -2, 0, -1,0.16222745511994374,0.04484299843507752
1503683567347,-0.079,-0.079,-0.016,-0.994,+0.053,+0.154,-0.968,-1.750,+0.812,+1.375,7, -5, -2, -2, -2, -2, -1, -1,0.16222745511994374,0.04484299843507752
1503683567370,-0.079,-0.079,-0.016,-0.994,+0.054,+0.171,-0.953,-2.062,+2.250,+0.688,-6, -2, -1, -4, -3, -2, -3, -3,0.16222745511994374,0.04484299843507752
1503683567391,-0.079,-0.079,-0.017,-0.994,+0.069,+0.166,-0.962,-1.938,+2.250,+0.500,-5, 0, -4, -4, -1, 0, -2, -5,0.16238526895514072,0.0468560676399488
1503683567407,-0.079,-0.080,-0.017,-0.994,+0.072,+0.174,-0.966,-1.938,+1.312,+0.625,-8, 0, 0, -1, -1, 1, 0, -1,0.16247128937002944,0.04703093742790424
1503683567439,-0.079,-0.080,-0.017,-0.994,+0.069,+0.168,-0.958,-1.312,+0.938,+0.562,-10, 0, -1, -2, -2, -1, 3, 4,0.16247128937002944,0.04703093742790424
1503683567459,-0.079,-0.080,-0.018,-0.994,+0.064,+0.167,-0.955,-1.375,+1.062,+1.062,1, -1, 1, 0, 0, -2, -1, -2,0.16263114015848834,0.049044721065685325
1503683567474,-0.079,-0.080,-0.018,-0.994,+0.063,+0.164,-0.954,-1.188,+0.812,+0.375,0, 1, -2, 2, 0, -1, -3, -7,0.16263114015848834,0.049044721065685325
1503683567489,-0.079,-0.080,-0.018,-0.994,+0.078,+0.173,-0.963,-1.375,+0.375,+0.125,14, -1, 0, -1, -1, 0, 0, 1,0.16263114015848834,0.049044721065685325
1503683567511,-0.079,-0.080,-0.018,-0.994,+0.061,+0.174,-0.964,-1.250,+0.000,+0.688,-1, -2, -1, 0, 0, -3, -2, 0,0.16263114015848834,0.049044721065685325
1503683567527,-0.079,-0.080,-0.018,-0.994,+0.068,+0.166,-0.953,-1.125,+1.438,+0.625,-3, -3, -3, -2, 0, -1, -2, -2,0.16263114015848834,0.049044721065685325
1503683567548,-0.079,-0.080,-0.018,-0.994,+0.069,+0.173,-0.968,-0.875,+0.125,+0.500,0, -1, 0, 3, 2, 0, 0, 1,0.16263114015848834,0.049044721065685325
1503683567572,-0.079,-0.080,-0.018,-0.994,+0.067,+0.157,-0.963,-1.000,-0.125,+0.438,7, -3, -1, -4, -4, -2, 0, 1,0.16263114015848834,0.049044721065685325
1503683567587,-0.079,-0.080,-0.018,-0.994,+0.067,+0.167,-0.956,-1.812,-0.312,+0.438,0, -4, -2, -1, -2, -3, -2, -4,0.16263114015848834,0.049044721065685325
1503683567610,-0.079,-0.080,-0.018,-0.994,+0.067,+0.163,-0.958,-0.938,+1.375,+0.375,-1, -4, -6, -8, -5, -1, -1, 1,0.16263114015848834,0.049044721065685325
1503683567631,-0.079,-0.080,-0.018,-0.994,+0.072,+0.163,-0.967,-0.875,+1.062,+0.438,5, -1, -2, 0, -2, 0, 0, -1,0.16263114015848834,0.049044721065685325
1503683567648,-0.079,-0.080,-0.018,-0.994,+0.075,+0.174,-0.957,-1.188,-1.688,+0.438,-10, -2, 1, 3, 2, 1, 1, 0,0.16263114015848834,0.049044721065685325
1503683567669,-0.079,-0.080,-0.018,-0.994,+0.061,+0.163,-0.965,-1.125,-0.312,+0.562,2, 1, 0, 0, 0, -2, 1, 0,0.16263114015848834,0.049044721065685325
1503683567691,-0.079,-0.080,-0.018,-0.994,+0.070,+0.161,-0.954,-1.438,-0.500,+0.750,3, -1, -3, -1, -2, 0, -3, -2,0.16263114015848834,0.049044721065685325
1503683567707,-0.079,-0.080,-0.018,-0.994,+0.072,+0.162,-0.964,-1.375,-2.250,+0.875,-23, -3, -2, 0, -3, -3, -1, -1,0.16263114015848834,0.049044721065685325
1503683567729,-0.079,-0.080,-0.018,-0.994,+0.056,+0.163,-0.960,-2.000,-1.062,+1.500,5, -2, -1, -2, 0, -1, 1, 2,0.16263114015848834,0.049044721065685325
1503683567751,-0.079,-0.080,-0.018,-0.994,+0.056,+0.177,-0.957,-2.062,+0.000,+1.062,5, -2, 2, 5, 5, 1, 1, -1,0.16263114015848834,0.049044721065685325
1503683567767,-0.079,-0.080,-0.018,-0.994,+0.066,+0.172,-0.960,-1.250,+2.500,+0.500,-7, -3, -2, -3, 0, -2, -1, 2,0.16263114015848834,0.049044721065685325
1503683567788,-0.078,-0.080,-0.019,-0.994,+0.068,+0.172,-0.962,-0.750,+1.812,+0.375,3, 3, -1, -4, -2, 0, 1, -2,0.16075344955807305,0.050896827014975485
1503683567813,-0.078,-0.080,-0.019,-0.994,+0.061,+0.165,-0.953,-0.375,-0.625,+0.688,1, 0, 2, -1, -1, -1, -1, -1,0.16075344955807305,0.050896827014975485
1503683567827,-0.078,-0.080,-0.019,-0.994,+0.073,+0.175,-0.964,-1.312,+2.000,+0.688,0, -1, -1, 0, 0, 2, -2, -3,0.16075344955807305,0.050896827014975485
1503683567849,-0.079,-0.080,-0.020,-0.994,+0.083,+0.172,-0.957,-1.500,+1.375,+1.062,-2, -1, -1, 1, -1, 0, -3, -4,0.16295081657347257,0.053072579503095685
1503683567872,-0.079,-0.080,-0.020,-0.994,+0.075,+0.173,-0.956,-0.500,+0.500,+0.062,1, 0, 2, 2, 0, -4, 0, -1,0.16295081657347257,0.053072579503095685
1503683567886,-0.079,-0.080,-0.020,-0.994,+0.064,+0.164,-0.955,-0.562,-0.750,-0.125,-1, -1, -2, -4, 0, 1, -2, -2,0.16295081657347257,0.053072579503095685
1503683567909,-0.079,-0.080,-0.019,-0.994,+0.055,+0.161,-0.965,-0.625,-1.562,+0.500,1, 0, 0, 1, 0, 1, -1, 0,0.16279098256213853,0.05105859905991584
1503683567931,-0.079,-0.080,-0.019,-0.994,+0.062,+0.156,-0.965,-1.438,+1.062,+1.125,2, -3, -1, 0, -1, 0, -2, -1,0.16279098256213853,0.05105859905991584
1503683567947,-0.079,-0.080,-0.019,-0.994,+0.063,+0.163,-0.958,-1.188,+0.750,+0.750,7, -2, 1, 4, -1, 0, 2, -1,0.16279098256213853,0.05105859905991584
1503683567968,-0.079,-0.080,-0.020,-0.994,+0.064,+0.155,-0.972,-1.250,+2.312,+1.000,3, -1, -1, -1, 1, 0, -2, -1,0.16295081657347257,0.053072579503095685
1503683567991,-0.079,-0.080,-0.020,-0.994,+0.071,+0.161,-0.956,-2.125,+2.500,+0.438,6, 2, 0, 2, 1, 0, 1, 1,0.16295081657347257,0.053072579503095685
1503683568008,-0.079,-0.080,-0.021,-0.994,+0.084,+0.175,-0.957,-1.812,+1.375,+0.438,10, -1, -1, -2, -5, 1, -1, 2,0.16311064218498547,0.05508667048269618
1503683568028,-0.079,-0.080,-0.021,-0.994,+0.085,+0.173,-0.959,-1.812,+0.562,+0.562,-7, -2, -2, 0, -1, 0, -2, 0,0.16311064218498547,0.05508667048269618
1503683568051,-0.079,-0.080,-0.021,-0.994,+0.080,+0.173,-0.946,-0.812,-1.250,+0.438,-8, 0, 1, 3, 1, 3, -3, -4,0.16311064218498547,0.05508667048269618
1503683568067,-0.078,-0.080,-0.020,-0.994,+0.069,+0.168,-0.964,-1.125,-1.188,-0.062,-8, 2, -3, -2, -4, -1, -2, -4,0.16091333844619177,0.05291082856965841
1503683568088,-0.078,-0.080,-0.020,-0.994,+0.068,+0.170,-0.963,-1.312,-0.688,-0.062,11, 1, 0, -3, -1, 2, 1, 5,0.16091333844619177,0.05291082856965841
1503683568111,-0.078,-0.080,-0.020,-0.994,+0.066,+0.162,-0.959,-1.000,-2.500,+0.188,-10, -4, 0, -3, 0, 1, -2, -1,0.16091333844619177,0.05291082856965841
1503683568127,-0.078,-0.080,-0.020,-0.994,+0.061,+0.166,-0.965,-1.188,+0.125,+0.375,-4, 3, 1, 2, -2, 1, 2, -1,0.16091333844619177,0.05291082856965841
1503683568149,-0.078,-0.080,-0.020,-0.994,+0.073,+0.168,-0.956,-0.938,+1.062,+0.312,-4, -4, -1, -3, -3, -1, -2, 1,0.16091333844619177,0.05291082856965841
1503683568171,-0.078,-0.080,-0.020,-0.994,+0.067,+0.168,-0.958,-1.250,-0.750,-0.188,-1, -6, -6, -2, -4, -7, -3, -6,0.16091333844619177,0.05291082856965841
1503683568187,-0.078,-0.080,-0.020,-0.994,+0.064,+0.162,-0.959,-1.250,-0.562,+0.500,16, 3, 0, 0, 0, 0, 1, 4,0.16091333844619177,0.05291082856965841
1503683568209,-0.078,-0.080,-0.020,-0.994,+0.075,+0.166,-0.958,-1.250,+0.438,+0.438,3, 0, -2, -1, -1, -1, -1, 0,0.16091333844619177,0.05291082856965841
1503683568231,-0.078,-0.080,-0.020,-0.994,+0.074,+0.167,-0.965,-1.312,-0.500,+0.688,5, -4, -2, 4, -2, 2, 2, -1,0.16091333844619177,0.05291082856965841
1503683568247,-0.078,-0.080,-0.020,-0.994,+0.060,+0.165,-0.958,-1.250,-1.062,+0.062,4, 1, -1, -2, -2, -2, -1, -1,0.16091333844619177,0.05291082856965841
1503683568269,-0.078,-0.080,-0.020,-0.994,+0.072,+0.164,-0.959,-1.688,+0.438,+0.250,-5, -5, -5, -4, -1, -2, -3, -4,0.16091333844619177,0.05291082856965841
1503683568291,-0.078,-0.080,-0.020,-0.994,+0.067,+0.168,-0.958,-1.125,+0.688,+0.562,10, 2, -1, -2, 0, -1, -2, -1,0.16091333844619177,0.05291082856965841
1503683568311,-0.078,-0.080,-0.020,-0.994,+0.070,+0.171,-0.962,-1.062,+0.438,+0.250,-3, 2, 1, -1, 3, -1, 1, 1,0.16091333844619177,0.05291082856965841
1503683568329,-0.078,-0.080,-0.020,-0.994,+0.070,+0.169,-0.958,-1.750,+0.938,+0.312,0, -2, 0, 1, -1, -6, 0, 2,0.16091333844619177,0.05291082856965841
1503683568352,-0.078,-0.080,-0.020,-0.994,+0.072,+0.170,-0.960,-1.125,+0.500,+0.438,-6, 0, 3, 1, 1, 1, 0, -2,0.16091333844619177,0.05291082856965841
1503683568367,-0.078,-0.080,-0.020,-0.994,+0.074,+0.160,-0.961,-1.250,+0.750,+0.125,-24, -4, -1, 1, -3, -1, -2, -7,0.16091333844619177,0.05291082856965841
1503683568389,-0.078,-0.080,-0.020,-0.994,+0.071,+0.166,-0.956,-1.062,+1.125,+0.000,-5, -1, 1, 2, 1, 5, 0, 0,0.16091333844619177,0.05291082856965841
1503683568411,-0.078,-0.080,-0.020,-0.994,+0.076,+0.158,-0.966,-1.312,-0.750,+0.188,4, -2, -5, -5, -3, -2, -4, -5,0.16091333844619177,0.05291082856965841
1503683568427,-0.078,-0.080,-0.020,-0.994,+0.064,+0.170,-0.954,-1.875,-0.875,+0.438,16, 0, 0, -2, -2, -1, 0, 0,0.16091333844619177,0.05291082856965841
1503683568449,-0.078,-0.080,-0.020,-0.994,+0.065,+0.171,-0.957,-1.812,+0.250,+0.562,-8, 0, 2, 0, 0, 0, 0, 2,0.16091333844619177,0.05291082856965841
1503683568471,-0.078,-0.080,-0.020,-0.994,+0.078,+0.170,-0.958,-1.125,+0.500,+0.375,-7, -2, -7, -10, -6, -3, -5, -7,0.16091333844619177,0.05291082856965841
1503683568487,-0.078,-0.080,-0.020,-0.994,+0.078,+0.170,-0.964,-1.062,+0.312,-0.062,-22, -4, -1, 0, 0, 1, 2, -1,0.16091333844619177,0.05291082856965841
1503683568512,-0.078,-0.080,-0.020,-0.994,+0.069,+0.170,-0.958,-1.125,-1.438,+0.125,-3, -3, -1, 0, 1, -1, -1, 0,0.16091333844619177,0.05291082856965841
1503683568531,-0.078,-0.080,-0.020,-0.994,+0.060,+0.162,-0.959,-1.125,-0.125,+0.812,1, -3, -1, 0, 1, -1, -1, -1,0.16091333844619177,0.05291082856965841
1503683568547,-0.078,-0.080,-0.020,-0.994,+0.080,+0.157,-0.957,-1.500,+0.625,+0.812,1, -1, -1, 0, -1, 1, 0, 1,0.16091333844619177,0.05291082856965841
1503683568569,-0.078,-0.080,-0.020,-0.994,+0.077,+0.173,-0.969,-1.188,-0.250,+0.438,-3, -2, 0, 0, 0, 0, 0, 0,0.16091333844619177,0.05291082856965841
1503683568591,-0.078,-0.080,-0.020,-0.994,+0.072,+0.164,-0.962,-1.812,-0.188,-0.062,5, 1, 0, -2, -1, -4, -2, -1,0.16091333844619177,0.05291082856965841
1503683568614,-0.078,-0.080,-0.020,-0.994,+0.067,+0.177,-0.960,-1.688,+0.188,+0.062,5, 4, 1, 0, 0, -2, 2, 3,0.16091333844619177,0.05291082856965841
1503683568629,-0.078,-0.080,-0.020,-0.994,+0.070,+0.171,-0.959,-1.562,+0.500,-0.062,-3, 0, -2, 1, 0, 0, -3, -2,0.16091333844619177,0.05291082856965841
1503683568651,-0.078,-0.080,-0.020,-0.994,+0.081,+0.177,-0.961,-1.438,+0.750,+0.500,5, 3, 0, -1, -1, -1, 0, 1,0.16091333844619177,0.05291082856965841
1503683568667,-0.078,-0.080,-0.020,-0.994,+0.083,+0.172,-0.959,-1.000,-1.188,+0.125,-3, -2, -2, -2, -2, 0, 0, -3,0.16091333844619177,0.05291082856965841
1503683568689,-0.078,-0.080,-0.020,-0.994,+0.062,+0.155,-0.959,-0.688,-1.500,-0.250,-5, 2, 0, -2, -4, -2, -3, 1,0.16091333844619177,0.05291082856965841
1503683568713,-0.078,-0.080,-0.020,-0.994,+0.063,+0.162,-0.958,-1.188,-0.312,+0.312,10, -2, -3, -5, -1, 2, 1, 5,0.16091333844619177,0.05291082856965841
1503683568727,-0.078,-0.080,-0.020,-0.994,+0.078,+0.168,-0.957,-1.125,+1.312,+0.125,-5, -1, 0, 0, 0, -1, -3, -1,0.16091333844619177,0.05291082856965841
1503683568749,-0.078,-0.080,-0.020,-0.994,+0.083,+0.170,-0.954,-1.750,-1.125,-0.188,-9, -1, 5, 4, 2, 2, 1, -2,0.16091333844619177,0.05291082856965841
1503683568771,-0.078,-0.080,-0.020,-0.994,+0.062,+0.171,-0.952,-1.188,-3.125,+0.188,-8, -3, -2, 0, -2, 1, -1, -1,0.16091333844619177,0.05291082856965841
1503683568787,-0.078,-0.080,-0.020,-0.994,+0.064,+0.162,-0.954,-1.125,+0.750,+0.562,-6, -3, -3, -1, -1, -4, 1, -3,0.16091333844619177,0.05291082856965841
1503683568809,-0.078,-0.080,-0.020,-0.994,+0.079,+0.167,-0.958,-1.250,-0.188,-0.250,3, -5, -3, 0, -1, -4, -4, -11,0.16091333844619177,0.05291082856965841
1503683568831,-0.078,-0.080,-0.019,-0.994,+0.070,+0.168,-0.963,-0.875,-3.375,+0.125,-10, 2, 1, 2, 1, 0, 0, -1,0.16075344955807305,0.050896827014975485
1503683568849,-0.078,-0.080,-0.019,-0.994,+0.057,+0.172,-0.965,-1.375,-1.875,+0.625,12, 2, 0, -3, -1, 0, -2, 2,0.16075344955807305,0.050896827014975485
1503683568869,-0.078,-0.080,-0.019,-0.994,+0.065,+0.163,-0.961,-0.812,+1.000,+0.312,1, -2, -2, -2, -1, -1, 0, 2,0.16075344955807305,0.050896827014975485
1503683568891,-0.078,-0.080,-0.019,-0.994,+0.082,+0.165,-0.956,-1.125,-0.875,+0.062,3, -1, 0, -5, -2, 0, -1, 0,0.16075344955807305,0.050896827014975485
1503683568907,-0.078,-0.080,-0.018,-0.994,+0.054,+0.158,-0.959,-1.375,-3.000,+0.250,5, 1, 2, 4, 3, 0, 1, -2,0.16059355237883693,0.04888292856704568
1503683568929,-0.078,-0.080,-0.018,-0.994,+0.058,+0.175,-0.956,-1.562,+0.250,+0.188,0, 0, -1, 0, -1, -2, -1, 0,0.16059355237883693,0.04888292856704568
1503683568951,-0.078,-0.080,-0.019,-0.994,+0.081,+0.172,-0.959,-1.438,+2.188,+0.375,4, -1, 2, 0, 0, -1, 1, 5,0.16075344955807305,0.050896827014975485
1503683568967,-0.078,-0.080,-0.019,-0.994,+0.081,+0.167,-0.955,-0.875,-0.562,+0.000,-8, -2, -4, -4, -2, -3, -3, -2,0.16075344955807305,0.050896827014975485
1503683568990,-0.078,-0.080,-0.019,-0.994,+0.070,+0.157,-0.962,-1.000,-1.500,+0.250,2, -2, -3, 0, 0, -1, -1, 1,0.16075344955807305,0.050896827014975485
1503683569011,-0.078,-0.080,-0.019,-0.994,+0.061,+0.156,-0.963,-2.250,-0.188,+0.750,4, 0, -3, 0, -3, 1, -1, 1,0.16075344955807305,0.050896827014975485
1503683569027,-0.078,-0.080,-0.019,-0.994,+0.059,+0.174,-0.960,-2.125,+0.250,+0.750,-7, -1, -1, -2, -1, -9, -1, -7,0.16075344955807305,0.050896827014975485
1503683569050,-0.078,-0.080,-0.019,-0.994,+0.066,+0.172,-0.965,-1.562,+1.625,+0.688,-1, -1, -2, 0, -2, -2, -1, -6,0.16075344955807305,0.050896827014975485
1503683569071,-0.078,-0.080,-0.019,-0.994,+0.083,+0.174,-0.956,-1.562,+2.062,-0.062,-3, -4, 0, 1, 0, -1, 0, 1,0.16075344955807305,0.050896827014975485
1503683569087,-0.077,-0.080,-0.019,-0.994,+0.072,+0.176,-0.954,-1.375,-1.250,-0.438,1, -1, 3, 5, 4, 4, -3, -1,0.15871652254870297,0.05073505230372878
1503683569109,-0.077,-0.080,-0.019,-0.994,+0.059,+0.165,-0.962,-1.250,-1.062,+0.938,-5, 0, -2, 2, 0, -4, -1, -2,0.15871652254870297,0.05073505230372878
1503683569132,-0.078,-0.080,-0.019,-0.994,+0.068,+0.169,-0.962,-1.812,+1.312,+1.125,-11, -1, 0, 1, 0, 0, -1, 2,0.16075344955807305,0.050896827014975485
1503683569149,-0.078,-0.081,-0.020,-0.994,+0.073,+0.177,-0.958,-1.375,+0.938,+0.688,-2, -4, -4, -9, -5, -2, 1, 2,0.16100556704280286,0.05308583255740435
1503683569170,-0.078,-0.081,-0.020,-0.994,+0.077,+0.164,-0.958,-1.500,+0.000,+0.062,10, 0, 0, 0, 0, -2, 1, -1,0.16100556704280286,0.05308583255740435
1503683569192,-0.078,-0.081,-0.020,-0.994,+0.069,+0.169,-0.962,-1.125,-0.812,+0.375,-4, -1, 1, -1, 0, -1, 1, 2,0.16100556704280286,0.05308583255740435
1503683569207,-0.078,-0.081,-0.020,-0.994,+0.063,+0.170,-0.953,-1.188,-0.250,+0.312,-6, 3, 1, 6, 4, 1, -2, -10,0.16100556704280286,0.05308583255740435
1503683569229,-0.077,-0.081,-0.020,-0.994,+0.071,+0.171,-0.954,-1.188,+1.000,+0.312,7, 0, -2, 0, -2, -2, -2, 0,0.15896805261732458,0.05292200647023917
1503683569253,-0.077,-0.081,-0.020,-0.994,+0.075,+0.164,-0.960,-1.000,+0.500,+0.375,9, -1, 0, -2, -1, -1, -2, -1,0.15896805261732458,0.05292200647023917
1503683569267,-0.077,-0.081,-0.020,-0.994,+0.063,+0.163,-0.960,-0.750,-1.062,+0.562,-1, 0, -2, 1, -2, -1, 1, 4,0.15896805261732458,0.05292200647023917
1503683569290,-0.077,-0.081,-0.020,-0.994,+0.069,+0.169,-0.956,-1.062,+0.188,-0.062,0, -1, 4, 4, 5, -2, 1, -2,0.15896805261732458,0.05292200647023917
1503683569311,-0.077,-0.081,-0.020,-0.994,+0.066,+0.167,-0.957,-1.000,-0.438,+0.812,-12, 0, -4, -4, -5, -2, -3, -1,0.15896805261732458,0.05292200647023917
1503683569327,-0.077,-0.081,-0.020,-0.994,+0.060,+0.161,-0.960,-1.062,+0.250,+0.625,7, 2, 0, -1, -3, -2, 0, 1,0.15896805261732458,0.05292200647023917
1503683569351,-0.077,-0.081,-0.020,-0.994,+0.065,+0.171,-0.952,-1.500,+0.812,+0.375,-3, -3, -2, 0, -2, 0, 1, -1,0.15896805261732458,0.05292200647023917
1503683569372,-0.077,-0.081,-0.020,-0.994,+0.071,+0.163,-0.952,-1.188,+0.688,+0.938,-4, -1, -2, -2, -1, -1, -4, -1,0.15896805261732458,0.05292200647023917
1503683569387,-0.077,-0.081,-0.020,-0.994,+0.071,+0.165,-0.967,-0.625,+0.250,+0.500,3, -1, 0, 2, 1, 0, -1, 0,0.15896805261732458,0.05292200647023917
1503683569409,-0.077,-0.081,-0.020,-0.994,+0.075,+0.161,-0.962,-1.375,+1.125,+0.812,-16, -6, -3, -5, -4, -2, -3, -4,0.15896805261732458,0.05292200647023917
1503683569431,-0.077,-0.081,-0.020,-0.994,+0.069,+0.177,-0.958,-1.562,-2.188,+0.438,-1, 2, 1, 3, 2, -1, -1, -2,0.15896805261732458,0.05292200647023917
1503683569454,-0.077,-0.081,-0.020,-0.994,+0.064,+0.166,-0.957,-1.250,-0.500,+0.812,2, 4, 2, 0, -1, 0, 2, 3,0.15896805261732458,0.05292200647023917
1503683569469,-0.077,-0.081,-0.020,-0.994,+0.075,+0.171,-0.958,-1.750,+0.125,+1.375,12, 1, 1, 2, 5, 1, 0, 0,0.15896805261732458,0.05292200647023917
1503683569492,-0.078,-0.081,-0.020,-0.994,+0.071,+0.170,-0.962,-0.625,-1.500,+0.812,-14, -4, -3, -3, -1, -2, -3, -5,0.16100556704280286,0.05308583255740435
1503683569515,-0.078,-0.081,-0.020,-0.994,+0.066,+0.157,-0.962,-1.375,-0.062,+0.312,0, -6, 1, 3, 2, 2, -3, -6,0.16100556704280286,0.05308583255740435
1503683569529,-0.078,-0.081,-0.020,-0.994,+0.063,+0.171,-0.958,-1.500,-1.000,+0.562,4, 2, -1, -4, -3, -4, 0, 6,0.16100556704280286,0.05308583255740435
1503683569552,-0.078,-0.081,-0.020,-0.994,+0.055,+0.172,-0.962,-1.188,+0.000,+0.938,-5, -3, -1, -2, -3, -2, 0, 2,0.16100556704280286,0.05308583255740435
1503683569574,-0.078,-0.081,-0.020,-0.994,+0.083,+0.176,-0.958,-1.438,+3.750,+1.000,21, 3, 0, 2, 0, 1, 1, 6,0.16100556704280286,0.05308583255740435
1503683569591,-0.078,-0.081,-0.021,-0.994,+0.084,+0.169,-0.959,-0.312,+1.500,+1.250,-2, 4, 0, -2, 0, -1, 0, 1,0.16116749471115374,0.05510057942427888
1503683569611,-0.078,-0.081,-0.020,-0.994,+0.078,+0.172,-0.955,-0.375,-3.188,+0.312,-5, -7, -5, -7, -4, -3, -5, -6,0.16100556704280286,0.05308583255740435
1503683569633,-0.078,-0.080,-0.020,-0.994,+0.056,+0.159,-0.955,-1.250,-1.875,+0.625,-5, -4, -3, 0, -1, 1, 0, 0,0.16091333844619177,0.05291082856965841
1503683569649,-0.078,-0.080,-0.020,-0.994,+0.061,+0.172,-0.972,-1.188,-0.500,+0.625,14, 6, 4, 2, 1, 2, 3, 5,0.16091333844619177,0.05291082856965841
1503683569671,-0.078,-0.080,-0.020,-0.994,+0.077,+0.158,-0.935,-1.250,-0.750,+0.750,2, 4, -1, 2, 1, -1, 2, 1,0.16091333844619177,0.05291082856965841
1503683569695,-0.078,-0.080,-0.020,-0.994,+0.057,+0.158,-0.980,-0.875,+0.812,+1.875,0, -1, 0, 0, 0, 0, -3, 0,0.16091333844619177,0.05291082856965841
1503683569709,-0.078,-0.080,-0.020,-0.994,+0.070,+0.176,-0.954,-1.375,+1.375,+0.062,8, 1, 1, -4, -4, -3, 2, 5,0.16091333844619177,0.05291082856965841
1503683569731,-0.078,-0.080,-0.021,-0.994,+0.074,+0.172,-0.959,-1.062,+2.250,+0.188,-7, 0, -2, -2, -1, -1, 0, 3,0.16107321903566363,0.05492494131877297
1503683569753,-0.078,-0.080,-0.020,-0.994,+0.075,+0.181,-0.966,-0.500,-2.125,+1.188,-4, -4, -1, 1, -1, -1, -2, -1,0.16091333844619177,0.05291082856965841
1503683569770,-0.078,-0.080,-0.021,-0.994,+0.074,+0.154,-0.959,-0.125,+0.562,+1.375,-7, -3, -2, -1, -1, 1, -1, -4,0.16107321903566363,0.05492494131877297
1503683569792,-0.078,-0.080,-0.021,-0.994,+0.075,+0.178,-0.955,-0.375,+1.000,+0.750,-29, -5, -1, -3, -2, -1, 0, 3,0.16107321903566363,0.05492494131877297
1503683569813,-0.078,-0.080,-0.021,-0.994,+0.082,+0.175,-0.953,+0.875,-0.875,-0.312,-6, -13, -8, -5, -2, -4, -7, -14,0.16107321903566363,0.05492494131877297
1503683569829,-0.078,-0.080,-0.021,-0.994,+0.059,+0.163,-0.966,+0.188,-0.062,+0.312,6, 6, 1, 1, 0, 2, 2, 0,0.16107321903566363,0.05492494131877297
1503683569857,-0.078,-0.079,-0.022,-0.994,+0.037,+0.147,-0.899,-0.125,+10.250,+2.500,8, 2, -2, 0, 0, -1, -1, 3,0.16113747882476087,0.05676324301246218
1503683569873,-0.077,-0.080,-0.026,-0.993,+0.062,+0.181,-1.001,-4.562,+27.000,-0.375,1, -1, -2, -6, -5, -3, -1, 1,0.15968205397606536,0.06478331660764355
1503683569889,-0.077,-0.081,-0.029,-0.993,+0.098,+0.205,-0.960,+1.438,+17.062,-2.500,6, 3, -2, -5, -6, -6, -3, 0,0.16027167413254534,0.07100132200073749
1503683569911,-0.076,-0.079,-0.031,-0.993,+0.124,+0.195,-0.913,+11.250,+9.000,-0.188,19, 3, 2, 1, 2, -2, 0, -1,0.1583349902627408,0.07451104831075775
1503683569933,-0.076,-0.077,-0.035,-0.994,+0.093,+0.190,-0.994,+15.812,+18.125,+1.062,-5, 1, 5, 7, 10, 3, 0, 0,0.15887849909232432,0.08227772616146405
1503683569949,-0.077,-0.074,-0.037,-0.994,+0.159,+0.251,-0.968,+25.062,+10.062,+6.875,-1, -1, -2, -22, -62, 0, 1, 0,0.16085124063188275,0.08591908827316372
1503683569971,-0.078,-0.068,-0.040,-0.994,+0.137,+0.260,-0.950,+39.562,+9.938,+7.562,0, -4, -1, 7, 22, 2, -1, -7,0.16256911096062698,0.09101193042470734
1503683569993,-0.078,-0.060,-0.042,-0.994,+0.164,+0.339,-1.010,+65.688,+2.750,+8.688,-4, 0, 2, 3, 3, -4, 0, 2,0.1618382420744354,0.09358875765858776
1503683570009,-0.079,-0.046,-0.042,-0.995,+0.150,+0.323,-1.012,+96.500,-9.000,+7.188,-5, -4, -2, -2, 0, 0, -1, 0,0.16236983890529272,0.09130392942949395
1503683570032,-0.078,-0.025,-0.043,-0.996,+0.112,+0.214,-0.991,+120.875,-4.562,+3.250,4, 4, 6, 29, 40, -4, -2, -9,0.15833195277426024,0.08975949009480198
1503683570058,-0.081,-0.000,-0.052,-0.995,+0.042,+0.008,-1.003,+148.812,+46.500,+25.188,2, 1, -2, -4, -1, -11, 0, -10,0.16190361913113055,0.10366966602912624
1503683570069,-0.083,+0.026,-0.067,-0.994,+0.181,+0.189,-1.344,+166.000,+71.750,+23.750,-2, 2, -2, 20, 58, 11, 3, 3,0.16255427135168654,0.12949648118676907
1503683570092,-0.084,+0.054,-0.085,-0.991,+0.611,+0.105,-1.253,+176.438,+88.312,+12.688,2, 1, -2, -18, -18, -5, -2, 14,0.1591517080766226,0.1612846462927863
1503683570114,-0.084,+0.085,-0.087,-0.989,+0.265,+0.120,-0.838,+181.000,-3.188,+17.875,-5, 2, -3, -3, -6, -7, 1, 31,0.15456945575367556,0.16120640619171933
1503683570130,-0.080,+0.120,-0.092,-0.985,-0.056,+0.138,-1.006,+220.125,+15.688,-1.188,-4, -3, -10, 24, -20, -7, -5, 11,0.14047105561749568,0.16820046838034977
1503683570152,-0.080,+0.157,-0.104,-0.979,+0.195,-0.265,-1.058,+222.000,+52.938,+10.625,1, -1, 4, -11, -27, 1, 8, 4,0.13143086764226597,0.18982707988989225
1503683570174,-0.082,+0.191,-0.118,-0.971,+0.307,-0.359,-0.910,+209.312,+69.438,+24.250,0, -1, 0, -8, -1, -10, -5, -6,0.12432185380694291,0.21656112481157128
1503683570190,-0.084,+0.224,-0.132,-0.962,+0.324,-0.265,-0.840,+203.312,+70.938,+29.250,2, 7, 5, -12, 3, 12, 4, 4,0.11521400513568503,0.24512666874999717
1503683570213,-0.085,+0.259,-0.140,-0.952,+0.384,-0.366,-0.759,+212.375,+33.750,+29.938,-2, 1, 2, 0, 13, 11, 1, -17,0.10452866630036935,0.2629649706774046
1503683570234,-0.083,+0.294,-0.144,-0.941,+0.370,-0.511,-0.633,+216.250,+10.750,+17.812,0, 9, 14, -4, -10, -7, -5, 2,0.08772411467913555,0.2756273908034499
1503683570250,-0.081,+0.328,-0.146,-0.930,+0.262,-0.655,-0.546,+209.188,-2.188,+22.375,-3, -9, -8, -3, -7, 26, -1, -9,0.07100043338895898,0.2862124976828742
1503683570272,-0.080,+0.361,-0.151,-0.917,+0.175,-0.718,-0.479,+202.250,+19.188,+15.438,1, 7, 0, 17, -3, 22, 4, -3,0.05183925472182285,0.30600097061668474
1503683570297,-0.079,+0.392,-0.160,-0.903,+0.164,-0.686,-0.467,+199.375,+49.000,+9.188,4, -7, -17, 3, 1, -26, -7, -9,0.025331618433103352,0.340154752918251
1503683570310,-0.079,+0.420,-0.170,-0.888,+0.193,-0.750,-0.444,+187.312,+50.062,+12.438,-6, 8, 16, 6, 1, -3, 5, -4,-0.003932434772454473,0.380213818638271
1503683570333,-0.081,+0.447,-0.178,-0.873,+0.212,-0.842,-0.351,+172.375,+48.125,+20.750,-1, -18, -3, 12, -3, 0, 0, 9,-0.03014105814508483,0.4177594642733165
1503683570354,-0.083,+0.470,-0.186,-0.859,+0.194,-0.904,-0.306,+154.188,+54.000,+20.375,-3, 2, -3, -8, -9, -5, -5, -12,-0.05916067140293352,0.4587671350343259
1503683570370,-0.085,+0.490,-0.196,-0.845,+0.170,-0.886,-0.228,+139.625,+58.438,+14.438,6, 6, 0, 0, 2, 22, 3, 13,-0.09554278628822548,0.5102784955559837
1503683570394,-0.088,+0.509,-0.204,-0.832,+0.204,-0.914,-0.254,+126.312,+54.688,+14.938,-7, -19, -2, -6, -4, 12, -6, -5,-0.13057056623640897,0.5599390444510218
1503683570414,-0.089,+0.525,-0.210,-0.820,+0.172,-0.918,-0.195,+110.625,+41.500,+12.438,-2, 0, 5, -7, -13, -25, -4, -4,-0.17051242252014218,0.6080498054338308
1503683570435,-0.092,+0.540,-0.216,-0.808,+0.144,-0.938,-0.184,+101.125,+40.500,+15.062,-1, 6, 0, -1, -3, -2, 1, 3,-0.20851235511773708,0.6573619173652926
1503683570452,-0.096,+0.555,-0.222,-0.796,+0.141,-1.013,-0.122,+99.062,+51.812,+13.812,2, 3, -8, -4, -4, 13, 3, 12,-0.2506572208104348,0.7131553136320058
1503683570474,-0.104,+0.561,-0.225,-0.790,-0.074,-1.201,-0.885,+76.938,+61.688,+15.812,-11, 0, 12, -3, -6, 16, -6, -12,-0.24740076221062543,0.7254527516743372
1503683570500,-0.095,+0.577,-0.239,-0.775,-0.570,-0.495,+0.077,+140.000,+48.750,-71.562,5, 14, -3, 5, 8, 6, 2, 1,-0.3862726178704907,0.8703157757940487
1503683570519,-0.094,+0.592,-0.253,-0.759,+0.635,-1.717,+0.521,+78.250,+55.875,-16.688,-1, 51, 36, 1, -7, -42, -9, -11,-0.5085275486123539,1.0106686986659006
1503683570534,-0.119,+0.581,-0.253,-0.764,+0.908,-1.320,+0.527,-116.312,+80.500,+102.438,-1, -20, -17, -6, -2, 10, 6, 6,-0.36156293001411227,0.9004536469684492
1503683570551,-0.113,+0.563,-0.253,-0.779,-0.431,+0.055,-0.451,-117.000,-24.500,-67.750,-14, 36, 57, 10, -5, -50, -5, -1,-0.3093201527985927,0.8425500034412627
1503683570572,-0.108,+0.554,-0.277,-0.778,+0.023,-1.126,-0.100,-19.438,+99.625,-124.562,16, -96, -98, -9, 27, 81, 12, 22,-0.36552615990650106,0.9289437700105279
1503683570597,-0.114,+0.543,-0.301,-0.776,+0.705,-1.193,+0.026,-45.625,+136.062,-59.500,5, -32, -5, 3, 41, 84, 62, 57,-0.37203019559681433,0.9823878758413674
1503683570609,-0.104,+0.529,-0.317,-0.780,+0.732,-0.909,-0.135,-50.688,+38.625,-120.312,40, 64, -34, -28, -107, -128, -102, 39,-0.3921293091528442,1.0140038701255147
1503683570632,-0.082,+0.514,-0.326,-0.789,+0.469,-0.952,-0.141,-52.438,-32.188,-162.875,-15, -45, -15, -31, -61, 17, -17, -24,-0.4220550003499203,1.0287086972934163
1503683570654,-0.069,+0.498,-0.335,-0.797,+0.138,-0.887,-0.226,-69.875,-1.875,-124.438,16, 40, 18, 75, 63, -17, -31, -53,-0.42480730036888,1.0297727107743933
1503683570669,-0.064,+0.481,-0.353,-0.800,+0.195,-0.768,-0.257,-69.000,+68.625,-115.000,-8, -5, 7, -22, -7, -3, 22, -17,-0.42143418498071405,1.0509032390855042
1503683570692,-0.060,+0.464,-0.380,-0.798,+0.451,-0.766,-0.174,-58.750,+129.250,-128.312,-18, -4, 5, -15, -13, -9, 5, -11,-0.4285876742523324,1.0996130915790538
1503683570714,-0.057,+0.446,-0.411,-0.793,+0.561,-0.704,-0.218,-58.688,+150.938,-136.062,-17, -6, 4, 2, 17, 16, 9, 2,-0.4341852498526657,1.1564496071352117
1503683570730,-0.052,+0.427,-0.438,-0.789,+0.701,-0.637,-0.226,-55.312,+131.688,-137.688,-7, -12, 5, 10, 18, 15, 23, -3,-0.43405185476505825,1.1997200073505845
1503683570752,-0.045,+0.409,-0.464,-0.784,+0.789,-0.573,-0.226,-45.812,+119.688,-139.812,0, 11, -1, -6, 7, -5, 0, -15,-0.4370545100734136,1.2430659696178057
1503683570774,-0.034,+0.392,-0.488,-0.780,+0.831,-0.542,-0.226,-32.562,+99.500,-149.000,-3, -4, -2, -8, -8, 3, -5, -20,-0.4453741876134753,1.28434637444382
1503683570790,-0.021,+0.375,-0.507,-0.776,+0.744,-0.501,-0.313,-21.375,+75.062,-151.250,-5, -1, 4, 1, 1, -1, 1, 0,-0.4510027318627052,1.3113788859007434
1503683570812,-0.007,+0.360,-0.525,-0.771,+0.696,-0.480,-0.301,-15.188,+69.500,-145.188,-8, -8, 0, 6, 15, 7, -18, 8,-0.46024506561618783,1.3394070770782065
1503683570834,+0.005,+0.345,-0.545,-0.764,+0.730,-0.434,-0.246,-18.250,+86.250,-142.062,-14, -5, -3, -5, -4, 8, 6, 3,-0.46652048640710236,1.37264426264573
1503683570856,+0.015,+0.332,-0.562,-0.757,+0.801,-0.390,-0.194,-12.312,+82.812,-124.688,-2, 2, 0, 9, 24, -1, -4, -5,-0.47012319350815557,1.400686870684742
1503683570872,+0.026,+0.320,-0.577,-0.751,+0.885,-0.372,-0.225,-3.375,+62.938,-110.625,-15, -7, -2, -7, -5, 3, 6, -8,-0.4750778125640533,1.4253982409339883
1503683570899,+0.037,+0.310,-0.589,-0.746,+0.914,-0.349,-0.221,-0.875,+49.375,-109.062,-12, -4, 1, 17, 15, -8, -16, 11,-0.48123055883422333,1.445085397545016
1503683570909,+0.048,+0.300,-0.599,-0.741,+0.919,-0.344,-0.168,+1.625,+44.625,-102.625,11, 1, 0, 0, 14, -4, 12, 8,-0.48580453977052945,1.459532715608319
1503683570932,+0.060,+0.291,-0.607,-0.737,+0.952,-0.339,-0.156,+10.750,+31.250,-93.188,57, 9, -3, -13, -9, 2, 6, 5,-0.49236244102169113,1.4703010609876
1503683570954,+0.072,+0.284,-0.613,-0.734,+0.997,-0.329,-0.154,+13.875,+21.062,-86.500,-4, -7, -2, -4, -7, 2, -4, -19,-0.501269861229676,1.4784240550716028
1503683570970,+0.081,+0.278,-0.617,-0.732,+1.064,-0.351,-0.074,+8.688,+6.375,-72.750,-3, -8, -3, -1, -4, 0, 3, 10,-0.5064019006782855,1.4823930791676818
1503683570992,+0.090,+0.272,-0.618,-0.732,+1.084,-0.333,-0.110,+9.375,-10.500,-59.812,13, 3, -2, 3, 14, -3, 9, 8,-0.510384558783898,1.4785945204711763
1503683571015,+0.102,+0.267,-0.615,-0.735,+1.015,-0.267,-0.115,+13.250,-35.312,-61.875,11, 0, -2, -11, -25, -1, 0, 22,-0.5194027522723798,1.465841620244557
1503683571029,+0.113,+0.262,-0.611,-0.739,+0.972,-0.284,-0.144,+15.000,-48.938,-60.750,-13, 5, 2, -6, -6, 3, 6, -8,-0.5270279527865107,1.4507552302123068
1503683571052,+0.122,+0.259,-0.607,-0.741,+0.993,-0.349,-0.144,+18.938,-39.062,-50.625,4, 2, 2, 1, -10, 0, 1, 20,-0.5347612878573808,1.4376624590585223
1503683571075,+0.128,+0.258,-0.605,-0.742,+1.010,-0.337,-0.108,+18.125,-23.250,-30.938,-16, -1, 0, 4, 7, 2, -1, -1,-0.5418900159489412,1.431822004077529
1503683571089,+0.133,+0.260,-0.603,-0.743,+1.000,-0.289,-0.111,+18.750,-12.500,-14.688,4, 1, 2, 0, -2, 1, -2, -12,-0.5523406973215527,1.429210262376973
1503683571112,+0.136,+0.261,-0.603,-0.742,+1.001,-0.276,-0.101,+21.750,+0.125,-14.812,-19, -3, 1, -2, 0, -1, 0, -12,-0.5584786248378811,1.4303583615319075
1503683571135,+0.141,+0.263,-0.604,-0.739,+1.018,-0.253,-0.078,+23.562,+6.125,-22.938,-7, -9, -7, -1, 1, 1, 3, -15,-0.5693874182782233,1.4350828037672951
1503683571156,+0.147,+0.263,-0.604,-0.737,+1.069,-0.220,-0.083,+22.750,-1.438,-24.312,-3, 6, 9, 0, -2, 0, -1, -6,-0.5784282420748168,1.435185324387131
1503683571171,+0.151,+0.265,-0.604,-0.737,+1.087,-0.272,-0.100,+24.938,-5.250,-10.688,10, -3, -3, -1, 2, -4, -8, -18,-0.5880553361151525,1.4376968262679988
1503683571193,+0.154,+0.268,-0.602,-0.737,+1.100,-0.295,-0.070,+22.375,-11.562,-2.438,-7, 14, -6, -3, -5, -1, -3, -9,-0.5968404765407819,1.4359914092491457
1503683571216,+0.156,+0.272,-0.599,-0.737,+1.078,-0.293,-0.056,+19.312,-16.125,+3.188,5, 0, 1, 0, 3, 0, 0, 5,-0.6052313114462334,1.4327753788527795
1503683571231,+0.157,+0.274,-0.597,-0.737,+1.000,-0.269,-0.060,+14.938,-11.938,+4.062,-5, -9, 2, 0, 1, -1, -2, 1,-0.609206098777378,1.429885483461797
1503683571253,+0.158,+0.278,-0.597,-0.736,+0.991,-0.230,-0.102,+20.938,+4.312,+5.625,0, -27, 1, 2, -2, -1, 0, 2,-0.6171552532656299,1.43445564186153
1503683571276,+0.158,+0.283,-0.597,-0.734,+0.995,-0.270,-0.100,+21.562,+15.188,+12.438,-7, -4, -8, -4, -5, -2, -1, -60,-0.624958176670931,1.4400484243356313
1503683571291,+0.157,+0.287,-0.598,-0.732,+1.039,-0.235,-0.087,+19.000,+19.938,+18.562,2, 9, -4, -2, 0, 1, 1, -2,-0.6300349478817591,1.4470988399413718
1503683571313,+0.155,+0.292,-0.599,-0.729,+1.065,-0.215,-0.040,+14.000,+19.875,+22.438,7, 3, -4, -1, -2, -2, -6, 21,-0.6350444582228465,1.4552489865107197
1503683571336,+0.153,+0.296,-0.600,-0.727,+1.062,-0.199,-0.062,+11.938,+16.188,+27.375,5, 3, 0, 0, 0, -1, -1, 11,-0.6387120793868327,1.4624264961543219
1503683571351,+0.151,+0.301,-0.599,-0.726,+1.006,-0.200,-0.082,+17.062,+10.562,+29.312,-1, -1, -2, 1, 1, 1, 2, 8,-0.6434622041977194,1.465842226325031
1503683571373,+0.148,+0.306,-0.599,-0.725,+0.981,-0.253,-0.062,+13.312,+15.250,+29.125,-3, 5, 5, -3, -1, 0, 1, -27,-0.6472344570964108,1.471939741701308
1503683571402,+0.144,+0.311,-0.599,-0.723,+0.979,-0.297,-0.049,+9.312,+15.250,+30.750,-5, -3, -3, -1, -3, 1, 1, -7,-0.6493206256271448,1.4779864505187434
1503683571411,+0.141,+0.315,-0.599,-0.723,+1.007,-0.306,-0.074,+6.625,+10.438,+27.500,-4, -3, -2, -4, -8, -19, -7, 15,-0.6517790792244498,1.4831165686007908
1503683571438,+0.139,+0.318,-0.599,-0.722,+0.966,-0.271,-0.075,+7.500,+11.625,+20.562,-11, 13, 5, 1, -1, 1, -1, 9,-0.6538301791897915,1.4869224860380637
1503683571456,+0.139,+0.321,-0.595,-0.723,+0.959,-0.256,-0.100,+12.812,-12.250,+18.562,2, -1, -4, -1, -7, -1, 0, 15,-0.6573591783878792,1.4806169003741774
1503683571471,+0.139,+0.323,-0.591,-0.726,+0.921,-0.263,-0.058,+8.625,-21.438,+19.438,-4, -8, -4, -4, -11, -8, 1, 13,-0.6595353793734318,1.473230253309052
1503683571493,+0.139,+0.325,-0.588,-0.727,+0.911,-0.326,-0.010,+2.125,-17.875,+16.000,-2, -1, 1, 7, 14, 6, 0, -5,-0.6617809157786294,1.4682672430102863
1503683571516,+0.137,+0.327,-0.586,-0.729,+0.962,-0.307,-0.003,+0.188,-13.812,+18.750,2, 3, 3, -2, 5, 3, 3, 5,-0.661660822122011,1.4659371443398221
1503683571538,+0.135,+0.329,-0.584,-0.730,+1.040,-0.314,-0.024,-0.875,-11.125,+27.875,-11, 43, 41, 5, -3, 0, -1, 1,-0.6613092619162028,1.463499702096588
1503683571553,+0.133,+0.331,-0.579,-0.733,+1.035,-0.289,-0.035,-1.000,-29.438,+27.000,-25, -9, -2, 1, 7, 3, 1, 2,-0.6597402564019815,1.453501050790978
1503683571576,+0.136,+0.332,-0.570,-0.739,+0.966,-0.286,-0.131,+6.625,-60.750,+16.188,2, -2, 1, -2, -2, -8, -4, -6,-0.6626700654630552,1.4325784314546213
1503683571592,+0.141,+0.332,-0.560,-0.746,+0.881,-0.342,-0.142,+10.188,-70.438,+3.312,-8, -1, -7, -4, -2, -7, -2, -12,-0.666761414855926,1.4082723042706107
1503683571613,+0.143,+0.333,-0.553,-0.750,+0.775,-0.345,-0.168,+11.375,-42.625,+4.188,10, 2, 0, -6, -4, -4, 0, 6,-0.6688740931224967,1.3925450605358245
1503683571636,+0.142,+0.335,-0.551,-0.751,+0.755,-0.343,-0.144,+4.562,-3.562,+15.312,0, 3, 2, 0, -5, -3, 0, 0,-0.6699760178115912,1.3903378794360346
1503683571651,+0.135,+0.338,-0.556,-0.747,+0.807,-0.324,-0.084,-7.375,+47.125,+25.938,7, 4, 1, 0, 3, -1, -2, -3,-0.6659669542568032,1.4060846052684637
1503683571673,+0.127,+0.341,-0.564,-0.741,+0.908,-0.289,-0.042,-10.312,+71.750,+24.688,6, -2, -5, -4, -1, 0, 0, 0,-0.6619369588875891,1.4294669296167672
1503683571696,+0.121,+0.342,-0.573,-0.735,+0.979,-0.272,-0.053,-9.438,+69.250,+16.625,11, -26, -4, -2, -2, -1, -2, 2,-0.6582830287977648,1.4530673285190385
1503683571711,+0.118,+0.342,-0.579,-0.730,+1.046,-0.279,-0.025,-6.562,+48.375,+8.625,7, 9, 6, 3, 0, 1, 0, 3,-0.6560796558267065,1.46793747038976
1503683571735,+0.116,+0.343,-0.583,-0.728,+1.019,-0.293,-0.101,-0.562,+33.062,+4.625,-6, -2, -3, -1, 0, 0, -1, 3,-0.6568044237211178,1.4795790275666443
1503683571756,+0.118,+0.342,-0.585,-0.726,+0.950,-0.216,-0.112,+6.188,+17.375,-6.188,1, 6, 4, 0, 3, 0, 4, 1,-0.6587617742674603,1.483267406606263
1503683571773,+0.120,+0.341,-0.587,-0.725,+0.858,-0.215,-0.088,+6.688,+8.062,-10.750,-14, 4, 1, -2, 0, 1, 2, 2,-0.6609063119850762,1.4870687995623486
1503683571793,+0.122,+0.339,-0.590,-0.722,+0.900,-0.250,-0.035,+2.875,+16.000,-16.562,2, 8, 5, -2, -14, 0, 4, 2,-0.6613200734132454,1.4918339640689784
1503683571816,+0.124,+0.339,-0.595,-0.718,+0.844,-0.226,-0.027,+7.188,+34.062,-15.625,35, 9, -2, -2, 2, -1, -4, -4,-0.6663973507794876,1.5047141777502229
1503683571831,+0.128,+0.338,-0.599,-0.714,+0.905,-0.246,-0.030,+13.438,+25.188,-26.125,-10, -2, -1, -3, -3, -1, 1, -2,-0.6720218061333418,1.513623327829339
1503683571853,+0.133,+0.336,-0.602,-0.712,+0.977,-0.297,-0.029,+11.688,+7.438,-31.375,-6, -3, -4, -12, -11, -1, -2, -3,-0.6771067122369416,1.518658171509131
1503683571876,+0.138,+0.333,-0.602,-0.713,+0.926,-0.290,-0.004,+3.312,-15.625,-36.250,4, -4, -2, 2, 8, 3, 11, 6,-0.6793479472471741,1.5146514306999603
1503683571891,+0.142,+0.329,-0.602,-0.714,+0.846,-0.314,-0.022,-5.500,-13.500,-30.500,-3, 19, 14, 4, -8, -2, -1, -2,-0.6782915999828943,1.5092745531888083
1503683571913,+0.144,+0.326,-0.604,-0.713,+0.871,-0.311,+0.018,-6.500,+3.438,-27.188,0, 5, 12, 3, 4, 2, 7, 8,-0.676676143141231,1.5103419377135274
1503683571939,+0.146,+0.324,-0.606,-0.712,+0.926,-0.306,-0.040,+0.375,+12.688,-21.938,-11, -8, -6, 1, -4, -1, -6, -2,-0.6769066058489266,1.512821698437697
1503683571951,+0.148,+0.321,-0.608,-0.711,+0.991,-0.334,+0.018,-10.375,+0.250,-25.312,-2, 20, 10, -2, -1, -5, -6, -3,-0.6753129540733137,1.513968817133692
1503683571979,+0.147,+0.318,-0.608,-0.713,+1.025,-0.339,-0.016,-20.750,-6.938,-15.188,-3, -22, -7, -3, -5, -4, -5, -2,-0.6687997106165188,1.5100445250556243
1503683572896,+0.206,+0.241,-0.577,-0.753,+1.014,-0.155,-0.109,+7.875,-10.938,+5.438,-37, -15, 1, -1, 2, 2, 1, 3,-0.6347331911599543,1.3493611235508276
1503683572912,+0.207,+0.242,-0.576,-0.753,+0.980,-0.125,-0.158,+9.750,-5.750,+4.188,25, 14, 8, 2, -1, -1, 0, 3,-0.6375704575638481,1.3479085188227669
1503683572933,+0.209,+0.244,-0.576,-0.752,+0.972,-0.114,-0.160,+14.250,+1.625,+0.062,12, 8, 7, -1, -2, -3, -12, -2,-0.6437022967267123,1.3499641861194118
1503683572956,+0.210,+0.246,-0.576,-0.751,+0.995,-0.173,-0.122,+12.250,+2.500,-2.188,5, -7, -7, -2, -3, -2, 6, 7,-0.6481273411367091,1.3519305968131556
1503683572972,+0.212,+0.248,-0.576,-0.749,+0.999,-0.160,-0.116,+14.375,+3.062,-6.062,-2, -12, -3, 1, -2, -1, -2, -5,-0.6539431611543771,1.3537730953216258
1503683572993,+0.214,+0.250,-0.577,-0.748,+0.987,-0.150,-0.112,+15.625,+2.188,-10.875,1, 13, 5, 5, 4, 2, 3, 1,-0.6605074157798139,1.358477669743941
1503683573016,+0.217,+0.251,-0.577,-0.746,+1.012,-0.149,-0.126,+11.375,+0.062,-10.312,-47, -13, -1, 0, -1, -2, 0, 0,-0.6665258156735703,1.359385711466749
1503683573031,+0.219,+0.252,-0.577,-0.746,+0.985,-0.124,-0.144,+11.812,-3.375,-9.750,0, -3, 1, -3, -1, -1, -4, -6,-0.6715154382947492,1.3606808369154946
1503683573053,+0.223,+0.252,-0.576,-0.745,+0.953,-0.125,-0.154,+12.188,-8.312,-13.250,-27, -1, 2, 1, 5, -1, -5, 0,-0.6776874735172842,1.358277675514596
1503683573079,+0.225,+0.252,-0.575,-0.745,+0.949,-0.128,-0.167,+10.375,-7.375,-11.938,39, 2, -5, -2, -3, -2, -5, -4,-0.6807610836511699,1.3559091900661886
1503683573091,+0.228,+0.253,-0.575,-0.744,+0.941,-0.124,-0.185,+11.375,+2.750,-8.188,4, -10, -6, 1, 1, 0, 0, 0,-0.6871620797134275,1.3570779003806095
1503683573117,+0.228,+0.255,-0.575,-0.743,+0.988,-0.134,-0.149,+12.500,+7.375,-0.188,-8, -8, -8, -3, -1, 0, 0, 1,-0.6898954674081926,1.3590270100168962
1503683573136,+0.229,+0.258,-0.574,-0.743,+1.049,-0.119,-0.197,+13.438,+1.375,+7.000,30, 6, 7, 1, -2, -1, 1, 4,-0.6958883428134441,1.3598790891322714
1503683573152,+0.231,+0.259,-0.572,-0.743,+1.013,-0.109,-0.197,+14.812,-12.062,+6.250,-7, 6, 6, 4, 2, 3, 5, 7,-0.7001289969747131,1.3560695274785215
1503683573173,+0.232,+0.262,-0.568,-0.745,+0.953,-0.130,-0.218,+18.312,-14.875,+8.125,10, 2, 4, 0, -2, 0, 1, 2,-0.7056520820722132,1.349787544037825
1503683573196,+0.234,+0.265,-0.565,-0.745,+0.938,-0.090,-0.249,+21.500,-6.188,+11.812,-20, -2, -4, -2, -1, -3, -5, -7,-0.712624751298778,1.3457607664508326
1503683573212,+0.234,+0.270,-0.564,-0.745,+0.995,-0.132,-0.208,+23.438,+6.188,+17.250,22, -6, 5, 3, 4, 2, 1, 8,-0.7200592436286165,1.3489935858345836
1503683573235,+0.233,+0.276,-0.563,-0.744,+1.026,-0.154,-0.184,+25.250,+7.000,+22.000,23, 1, -4, -2, -1, -1, -1, -4,-0.7270419554854922,1.3531498844168057
1503683573256,+0.233,+0.281,-0.561,-0.743,+1.012,-0.166,-0.216,+28.438,+1.750,+22.125,-2, -3, -3, 0, 0, -1, 0, 0,-0.7338460540817129,1.3538250491119035
1503683573271,+0.234,+0.287,-0.558,-0.743,+1.003,-0.153,-0.242,+32.062,+1.250,+21.625,5, 12, 7, 0, -1, -1, 2, 2,-0.7439988089359251,1.3536886216280366
1503683573293,+0.234,+0.294,-0.555,-0.742,+1.003,-0.162,-0.219,+33.000,+0.250,+26.000,-11, 15, -2, 0, 0, 1, -3, -5,-0.7537672414909823,1.354631711596715
1503683573316,+0.234,+0.301,-0.552,-0.742,+1.004,-0.194,-0.189,+33.875,-3.938,+26.938,-12, -18, -8, -6, -6, -3, 0, 0,-0.763998049892908,1.3560529145423674
1503683573331,+0.234,+0.308,-0.547,-0.742,+1.018,-0.210,-0.219,+36.062,-7.250,+29.875,1, 7, 7, 0, 0, -2, -1, 0,-0.7734475536915896,1.3526921475717106
1503683573353,+0.235,+0.315,-0.543,-0.742,+0.975,-0.217,-0.168,+35.562,-8.375,+27.688,2, -16, -15, -3, -2, 1, -2, -3,-0.7852027844733607,1.352244604037971
1503683573376,+0.235,+0.322,-0.540,-0.741,+0.964,-0.258,-0.166,+38.062,+0.875,+26.625,-11, -3, -4, -3, 0, -2, 0, 0,-0.7954456263455911,1.3541702471613977
1503683573391,+0.235,+0.330,-0.538,-0.739,+0.971,-0.251,-0.204,+40.188,+10.312,+26.312,-15, -1, -7, -5, -6, -3, -3, -8,-0.8077062744104929,1.3600209551116613
1503683573414,+0.235,+0.337,-0.536,-0.737,+1.003,-0.221,-0.162,+34.062,+10.125,+23.375,16, -8, -8, -4, -4, -2, 1, 1,-0.8184079353591324,1.3647185333947915
1503683573436,+0.235,+0.343,-0.535,-0.735,+0.987,-0.212,-0.125,+31.250,+6.688,+21.000,4, 1, 8, 5, 5, 2, -8, 2,-0.8279622470659777,1.3706424620920767
1503683573452,+0.235,+0.349,-0.533,-0.734,+0.968,-0.250,-0.166,+31.688,-0.312,+20.625,-10, -19, -3, -3, -1, 0, 0, -2,-0.8374918411505147,1.3744929119648879
1503683573474,+0.236,+0.354,-0.530,-0.733,+0.925,-0.218,-0.197,+31.500,+1.250,+19.188,-1, 9, 2, 0, 0, 2, 4, 6,-0.8465640373067769,1.3746697387059044
1503683573496,+0.238,+0.359,-0.528,-0.732,+0.920,-0.211,-0.149,+31.562,+2.250,+15.750,14, 8, 5, 0, 1, 0, -3, -5,-0.8579480978370997,1.3775862626351383
1503683573513,+0.239,+0.364,-0.526,-0.730,+0.903,-0.246,-0.129,+31.625,+2.000,+14.438,9, 5, -3, 0, 0, -1, 1, -1,-0.8673517103258404,1.380284554406951
1503683573533,+0.240,+0.369,-0.524,-0.729,+0.897,-0.249,-0.164,+28.688,+0.562,+11.938,8, -11, 4, 1, -2, -3, -6, -4,-0.8771662830102509,1.3833269655599552
1503683573556,+0.241,+0.372,-0.523,-0.728,+0.913,-0.215,-0.119,+17.250,+3.688,+9.812,19, -21, 10, 1, 1, -1, -5, -6,-0.8837658487548249,1.3856789111174554
1503683573571,+0.241,+0.374,-0.523,-0.727,+0.887,-0.202,-0.087,+9.000,+3.875,+8.750,-3, 0, -9, -4, 0, -2, -2, -5,-0.887245328985475,1.3887294792549405
1503683573593,+0.241,+0.375,-0.525,-0.726,+0.867,-0.239,-0.102,+5.562,+10.500,+1.938,7, 8, -2, 0, 0, -2, 0, 0,-0.889820600961475,1.3950143174544558
1503683573623,+0.241,+0.375,-0.526,-0.725,+0.863,-0.250,-0.075,-1.375,+4.625,-2.625,-15, 6, 4, 2, 7, 2, 2, 5,-0.8899968319440197,1.397248056876934
1503683573631,+0.241,+0.374,-0.528,-0.724,+0.898,-0.280,-0.137,-6.875,+11.625,-9.312,-35, 11, 5, 5, 0, 1, 0, -2,-0.8887571600706857,1.4002858348311402
1503683573653,+0.240,+0.371,-0.529,-0.724,+0.971,-0.234,-0.079,-17.625,+2.688,-5.812,41, 2, -11, -5, -9, -4, -1, 0,-0.8818115991771237,1.3977321695661096
1503683573676,+0.240,+0.369,-0.530,-0.725,+0.898,-0.251,-0.132,-12.812,-3.438,-7.938,-21, 0, -5, -4, -5, -3, -3, -12,-0.8788366696864787,1.3971458991206738
1503683573691,+0.240,+0.367,-0.530,-0.725,+0.952,-0.285,-0.150,-7.250,+1.875,-4.688,2, 3, 1, -9, -12, -3, 2, 5,-0.8750670158430403,1.3939513265300933
1503683573716,+0.240,+0.366,-0.531,-0.726,+0.946,-0.269,-0.127,-9.938,-4.312,-5.250,-19, -3, -5, -7, -6, -5, -8, -4,-0.8739977061689801,1.394994732912084
1503683573736,+0.240,+0.365,-0.532,-0.725,+0.902,-0.252,-0.083,-6.438,+7.625,-2.125,-12, -1, 3, 7, 6, 0, 4, -2,-0.8722897143540623,1.3956580755745813
1503683573752,+0.237,+0.366,-0.534,-0.724,+0.972,-0.299,-0.083,-6.688,+17.312,+8.188,-71, 19, 10, 3, 3, 6, 7, 6,-0.8696368221076128,1.4015498111479663
1503683573773,+0.234,+0.367,-0.536,-0.724,+0.966,-0.302,-0.110,-11.438,+16.250,+7.875,24, 14, 3, 3, 2, 0, -2, 6,-0.8673398756692752,1.4076506128166202
1503683573796,+0.230,+0.367,-0.538,-0.723,+0.978,-0.263,-0.058,-15.000,+17.062,+11.438,14, -10, -4, -1, -1, 0, 2, -1,-0.8611609200879188,1.4118824567369606
1503683573812,+0.226,+0.367,-0.540,-0.723,+0.940,-0.273,-0.044,-18.688,+13.375,+14.438,15, 6, 8, 5, 6, 4, 4, 10,-0.8553373067853043,1.416318915051974
1503683573834,+0.221,+0.365,-0.541,-0.724,+0.935,-0.298,-0.097,-25.812,+8.188,+14.688,-7, -15, -10, -10, -5, -5, -4, -2,-0.8438668678871954,1.4152014177889651
1503683573856,+0.215,+0.363,-0.543,-0.726,+0.855,-0.282,-0.141,-37.000,+14.250,+15.000,-2, 2, 2, 0, -1, -4, -3, -2,-0.8315631610956348,1.4166452933261564
1503683573872,+0.207,+0.360,-0.547,-0.726,+0.823,-0.228,-0.160,-41.312,+38.938,+18.250,1, 13, 6, 3, 1, 3, 1, -2,-0.8145131833690248,1.4209843786988163
1503683573894,+0.199,+0.358,-0.553,-0.725,+0.945,-0.210,-0.094,-37.875,+43.625,+20.062,8, -5, -3, -1, -2, -2, -2, -2,-0.80024397782741,1.4318590439937946
1503683573920,+0.194,+0.355,-0.557,-0.725,+1.062,-0.224,-0.063,-35.938,+19.375,+13.250,-2, -12, -9, -3, -4, -1, 0, 4,-0.7884305051089341,1.4367900741430186
1503683573932,+0.191,+0.351,-0.556,-0.729,+1.000,-0.240,-0.100,-36.438,-9.500,+7.812,3, 9, 1, -2, -2, 0, -1, -1,-0.7766198415640229,1.4285211105132198
1503683573954,+0.188,+0.346,-0.554,-0.733,+0.853,-0.234,-0.166,-38.438,-18.312,+6.938,-9, 3, 3, -1, 0, 0, -2, 4,-0.7624909040138313,1.4163094598510542
1503683573976,+0.184,+0.341,-0.554,-0.737,+0.813,-0.244,-0.176,-37.000,-3.500,+9.875,10, -15, -9, -4, 0, -3, -2, -1,-0.7478393757422667,1.4091694420195626
1503683573993,+0.179,+0.337,-0.555,-0.739,+0.851,-0.253,-0.194,-38.688,+12.188,+5.375,-9, -7, -7, -2, -3, -4, -9, -11,-0.7333838374055118,1.4056586792456982
1503683574014,+0.175,+0.332,-0.558,-0.740,+0.952,-0.243,-0.143,-38.000,+14.250,+1.125,2, -5, 0, -1, -1, 0, -1, -3,-0.71961617103456,1.4058363200485557
1503683574036,+0.172,+0.328,-0.560,-0.741,+1.020,-0.250,-0.121,-35.688,+1.688,+2.562,-14, -2, -2, 1, 1, 1, 1, -3,-0.7088377722869996,1.405124786561088
1503683574052,+0.170,+0.323,-0.560,-0.744,+0.983,-0.252,-0.146,-35.625,-9.750,-3.250,7, -1, 1, 1, -1, 1, 1, -1,-0.6974955144365697,1.3984772673769956
1503683574074,+0.168,+0.317,-0.560,-0.747,+0.916,-0.257,-0.141,-38.125,-5.562,-8.812,-2, -4, 3, -2, 1, -2, -1, 0,-0.6844952392552683,1.3905940782019115
1503683574096,+0.167,+0.311,-0.561,-0.749,+0.924,-0.255,-0.182,-34.500,-0.562,-12.812,3, 1, -1, 0, 0, 0, 2, 2,-0.6735084890548225,1.3853780415302728
1503683574112,+0.166,+0.305,-0.562,-0.751,+1.028,-0.277,-0.195,-29.375,-7.625,-12.625,3, 0, 0, -2, -3, -1, 1, -4,-0.6626379400126232,1.3803415266960892
1503683574134,+0.167,+0.299,-0.560,-0.754,+1.053,-0.282,-0.155,-30.312,-29.125,-18.750,-7, 1, -3, 1, -2, 2, 0, -1,-0.6539954985301522,1.3681840895013762
1503683574156,+0.169,+0.292,-0.558,-0.758,+0.999,-0.238,-0.159,-32.375,-34.250,-24.938,-1, -5, -4, 1, 0, -2, -2, 1,-0.6458284134745935,1.355330024701817
1503683574172,+0.172,+0.285,-0.556,-0.762,+0.988,-0.186,-0.218,-24.688,-26.188,-22.188,4, 0, 0, -3, -2, -1, -1, 1,-0.639593628853566,1.3428805349401047
1503683574194,+0.174,+0.280,-0.553,-0.765,+0.974,-0.224,-0.230,-20.625,-28.500,-14.938,0, 0, 0, -1, -2, -1, 1, 3,-0.6343738746514402,1.3301120156334423
1503683574218,+0.176,+0.273,-0.549,-0.770,+0.974,-0.234,-0.226,-25.562,-44.750,-22.188,-2, 0, 1, 0, 0, 1, 0, -1,-0.6262907881725146,1.3131129722650765
1503683574232,+0.178,+0.267,-0.547,-0.773,+0.932,-0.217,-0.209,-29.562,-26.812,-19.688,1, 1, -2, -1, 0, -1, 1, 0,-0.6203366827356411,1.302126095927214
1503683574254,+0.177,+0.262,-0.547,-0.775,+0.921,-0.158,-0.206,-28.250,-9.812,-8.938,6, 4, 5, 9, 10, -1, -3, -12,-0.6115142341788028,1.2968743973626418
1503683574276,+0.176,+0.257,-0.546,-0.777,+1.002,-0.158,-0.178,-28.625,-20.688,-4.625,6, -1, -3, -1, -1, -1, -1, -7,-0.6023356852594766,1.2891529365400798
1503683574292,+0.178,+0.251,-0.545,-0.780,+1.022,-0.160,-0.239,-24.375,-25.562,-14.312,-6, -3, -2, -5, -5, -1, -2, 3,-0.5972117489611418,1.2812141996503401
1503683574314,+0.179,+0.246,-0.542,-0.783,+0.993,-0.182,-0.235,-20.000,-30.375,-14.562,0, -3, -2, 0, 2, -1, 0, 1,-0.5911569354357165,1.2691980426903064
1503683574336,+0.179,+0.243,-0.539,-0.786,+0.916,-0.226,-0.246,-19.875,-27.375,-4.562,-10, -4, -2, -2, 0, -1, -4, -1,-0.5864167936782562,1.2592659035313958
1503683574353,+0.178,+0.240,-0.537,-0.789,+0.906,-0.255,-0.238,-23.125,-20.125,-5.188,-1, 1, -2, -4, -3, 0, -2, -3,-0.5803982432183861,1.2518269945047211
1503683574374,+0.176,+0.237,-0.537,-0.791,+0.936,-0.257,-0.250,-26.500,-7.062,-3.500,-2, 2, 1, -1, -4, -2, 0, 2,-0.5731832079504813,1.2491055833569658
1503683574396,+0.173,+0.234,-0.536,-0.792,+1.003,-0.198,-0.273,-23.625,-7.688,+6.375,2, -1, -3, -2, -3, 0, 2, 0,-0.5635499515304804,1.2433469294412636
1503683574412,+0.171,+0.232,-0.534,-0.795,+1.018,-0.203,-0.219,-18.812,-23.062,+7.062,8, 2, 1, 1, 1, 0, 0, 3,-0.5573023451053742,1.2369083120633264
1503683574434,+0.171,+0.229,-0.529,-0.799,+0.964,-0.241,-0.261,-18.750,-40.000,-2.062,1, -2, 2, 3, -1, 0, 0, 0,-0.5522504257834633,1.2224464671884756
1503683574456,+0.171,+0.226,-0.526,-0.802,+0.891,-0.239,-0.302,-19.125,-31.188,-4.938,1, -1, -4, -2, -1, -1, -1, 0,-0.5477597583046235,1.212861225783542
1503683574472,+0.169,+0.224,-0.524,-0.804,+0.882,-0.250,-0.299,-17.938,-14.188,+3.750,1, 1, 2, 0, 0, 0, -1, -2,-0.5412816559491275,1.2061842765111357
1503683574494,+0.166,+0.223,-0.524,-0.805,+0.880,-0.247,-0.254,-16.500,+1.188,+7.062,-1, -3, 0, -1, -2, -1, -1, 8,-0.5349274491488958,1.205106410115472
1503683574516,+0.164,+0.222,-0.524,-0.806,+0.936,-0.221,-0.288,-15.438,-0.062,+6.188,-2, -1, 0, -1, 1, 0, 2, -4,-0.5303313007255239,1.2041981396097874
1503683574532,+0.162,+0.221,-0.525,-0.806,+0.972,-0.194,-0.311,-18.250,+2.000,+5.188,1, -2, -1, -1, -2, -1, -1, -3,-0.5258413906079749,1.2054953595548779
1503683574554,+0.160,+0.219,-0.524,-0.807,+0.984,-0.166,-0.300,-14.312,-9.812,+5.188,-1, 4, -1, -1, -2, -2, -1, -2,-0.5194935383578677,1.201067133639386
1503683574576,+0.160,+0.217,-0.521,-0.810,+0.935,-0.198,-0.251,-11.375,-26.938,+3.875,1, -2, -1, -3, -3, -2, 0, -1,-0.5164592141131152,1.192598576687491
1503683574596,+0.160,+0.216,-0.516,-0.813,+0.858,-0.223,-0.305,-10.062,-31.938,+2.125,-10, 1, -1, 0, 0, 0, -2, -2,-0.5140395418495758,1.1799655538939142
1503683574614,+0.159,+0.214,-0.514,-0.816,+0.838,-0.253,-0.337,-13.812,-19.562,-1.125,-1, 1, 1, -1, -4, -3, -1, 0,-0.5096770679499605,1.173995334092733
1503683574636,+0.157,+0.213,-0.513,-0.817,+0.916,-0.220,-0.321,-14.938,-6.812,+4.250,4, -6, -1, -4, 0, -1, -2, -4,-0.5047123629619285,1.1705679240498148
1503683574654,+0.156,+0.212,-0.512,-0.818,+1.012,-0.157,-0.340,-10.750,-10.812,+9.938,13, 2, -2, -2, -2, -2, -2, 3,-0.5015160707468179,1.1673155678281333
1503683574674,+0.155,+0.211,-0.509,-0.820,+0.987,-0.176,-0.314,-10.438,-21.438,+6.812,-20, -12, -2, 1, 1, 0, -1, -6,-0.49784582600708877,1.1593451736093916
1503683574697,+0.154,+0.209,-0.507,-0.822,+0.879,-0.226,-0.263,-13.062,-25.562,+1.312,1, 2, -2, -3, -1, -1, -1, -3,-0.493243877025303,1.1530536469425585
1503683574712,+0.153,+0.207,-0.505,-0.824,+0.839,-0.254,-0.306,-18.250,-10.625,-1.875,0, 2, 1, 3, 0, 0, 1, 2,-0.48866035438394817,1.1467914913843313
1503683574734,+0.151,+0.206,-0.507,-0.823,+0.952,-0.200,-0.363,-16.062,+7.875,+2.312,0, -3, 1, -1, 1, 0, 2, 0,-0.48428404693475186,1.1502635121664178
1503683574756,+0.149,+0.205,-0.508,-0.823,+1.035,-0.162,-0.366,-11.438,+3.125,+9.500,-6, -2, -4, -1, 1, 0, -1, -1,-0.47981642423501114,1.1516038964783766
1503683574778,+0.148,+0.204,-0.508,-0.824,+0.987,-0.168,-0.311,-8.250,-2.750,+5.562,-1, -1, -1, -2, -1, -1, 2, 0,-0.47701723720364864,1.1509721096473842
1503683574794,+0.147,+0.203,-0.507,-0.825,+0.925,-0.184,-0.344,-9.875,-9.312,+1.688,3, 0, -2, 0, 0, 0, -3, 0,-0.47385152224736815,1.1477757648931075
1503683574816,+0.146,+0.202,-0.507,-0.825,+0.909,-0.205,-0.353,-12.312,-5.125,+2.500,5, 2, 0, -1, -1, -3, -2, -1,-0.47079096879576116,1.1467324330149076
1503683574832,+0.144,+0.201,-0.507,-0.826,+0.952,-0.200,-0.370,-11.312,-1.562,+4.500,-3, 0, 0, 0, -1, 1, 0, 1,-0.46623185542146783,1.1459506556963526
1503683574857,+0.143,+0.200,-0.506,-0.827,+0.974,-0.179,-0.375,-7.688,-6.312,+5.812,-2, -1, -1, 2, 3, -1, -2, -2,-0.4630750429019437,1.1427719508365948
1503683574876,+0.143,+0.199,-0.504,-0.828,+0.955,-0.179,-0.374,-4.875,-15.250,+3.812,3, 0, -2, -3, -1, -1, -1, 2,-0.4613264771780377,1.137199208810056
1503683574892,+0.143,+0.199,-0.501,-0.830,+0.908,-0.175,-0.374,-3.750,-17.875,+1.000,12, 1, -1, -1, -1, -1, 0, 2,-0.4607594883144268,1.1303609869336837
1503683574915,+0.143,+0.199,-0.499,-0.831,+0.887,-0.164,-0.395,-0.125,-12.688,+4.938,22, 6, 0, -1, -3, -3, -1, 0,-0.4602943556411874,1.125667986958842
1503683574936,+0.142,+0.200,-0.499,-0.831,+0.899,-0.173,-0.360,+1.375,-1.625,+10.062,-17, -8, -2, 0, -2, 1, -2, -3,-0.4597915003148905,1.1263517980848805
1503683574952,+0.141,+0.201,-0.499,-0.831,+0.904,-0.172,-0.357,+1.688,+2.688,+11.312,-6, -1, -1, 0, -5, -1, -1, 1,-0.45929174826026453,1.1270381628489818
1503683574975,+0.140,+0.202,-0.499,-0.831,+0.909,-0.190,-0.348,+1.312,-1.312,+9.625,-1, 0, 1, 9, 10, 0, -2, -2,-0.45879509356893694,1.1277270953220004
1503683574997,+0.140,+0.203,-0.498,-0.832,+0.909,-0.205,-0.367,+1.938,-5.688,+6.500,-6, -4, -1, -3, -6, 0, 0, 0,-0.4599586090227377,1.1264676852789937
1503683575012,+0.139,+0.204,-0.497,-0.832,+0.884,-0.201,-0.386,+3.688,-3.312,+5.438,1, 1, -1, -3, 3, 0, 0, 0,-0.45909032391648696,1.1245974875841007
1503683575035,+0.139,+0.205,-0.496,-0.832,+0.880,-0.214,-0.375,+3.562,-2.812,+6.062,-4, -2, -1, 1, 3, -2, -2, 0,-0.45999526957220505,1.1229101012966753
1503683575058,+0.138,+0.207,-0.496,-0.832,+0.891,-0.218,-0.340,+1.312,+0.188,+5.688,-1, -1, -1, -3, -3, -2, -1, -2,-0.4607848626157613,1.1244913545379345
1503683575072,+0.138,+0.207,-0.496,-0.832,+0.894,-0.210,-0.350,-0.375,+0.062,+5.875,-7, -2, 0, -5, -6, 1, 0, -1,-0.4607848626157613,1.1244913545379345
1503683575095,+0.137,+0.208,-0.496,-0.832,+0.917,-0.213,-0.388,-0.188,-1.688,+5.062,6, 0, -1, -1, -2, -1, -1, 1,-0.46029655859057056,1.1251952390171744
1503683575116,+0.136,+0.208,-0.495,-0.833,+0.928,-0.211,-0.374,-1.812,-6.188,+5.188,3, 1, -2, -2, -2, -3, 0, -1,-0.45839108853484045,1.1228854577232639
1503683575133,+0.136,+0.208,-0.494,-0.833,+0.900,-0.208,-0.372,-1.375,-8.062,+2.312,1, -2, 0, 0, 2, 1, 0, -1,-0.4580093280320741,1.1203222333483285
1503683575155,+0.137,+0.209,-0.493,-0.833,+0.872,-0.194,-0.361,+3.062,-0.250,+1.375,-5, -2, -1, 0, 1, -1, -1, -2,-0.4606867787302195,1.1188363474064724
1503683575176,+0.136,+0.210,-0.495,-0.832,+0.854,-0.229,-0.387,+3.812,+14.562,+3.312,-13, -5, -5, -3, -4, 0, 1, 0,-0.4607169729238476,1.124230895123894
1503683575192,+0.135,+0.211,-0.497,-0.831,+0.906,-0.216,-0.380,-0.438,+17.938,+2.125,-6, -2, -1, 1, 0, -1, -1, 0,-0.46076183885904354,1.1296396885862592
1503683575215,+0.134,+0.212,-0.500,-0.829,+0.951,-0.207,-0.358,+1.250,+16.250,+6.188,-16, -2, -1, -2, -3, 0, -2, -5,-0.46096454244087337,1.1372036871367435
1503683575236,+0.133,+0.213,-0.501,-0.828,+0.946,-0.230,-0.352,+2.000,+6.312,+6.750,7, 0, 1, 2, 1, -1, -2, -2,-0.460651434707854,1.1400715370698187
1503683575252,+0.133,+0.214,-0.500,-0.829,+0.928,-0.205,-0.366,+3.375,-4.562,+4.812,7, 2, 1, -2, -1, 1, 0, 1,-0.4618123144835465,1.1388353038611916
1503683575275,+0.133,+0.215,-0.498,-0.829,+0.896,-0.217,-0.362,+4.312,-7.938,+4.625,0, 0, -2, 0, -2, -1, -1, 0,-0.46233324416395877,1.1346025607526455
1503683575297,+0.133,+0.216,-0.498,-0.829,+0.861,-0.244,-0.353,+2.812,-0.438,+4.000,1, -1, -1, 2, 5, 0, -2, 0,-0.46364301820168574,1.135520126904703
1503683575312,+0.132,+0.217,-0.499,-0.829,+0.863,-0.246,-0.340,+0.500,+5.438,+4.188,-4, -6, -6, -4, -2, -2, -1, -4,-0.4635879039438587,1.1388273517792555
1503683575335,+0.132,+0.218,-0.500,-0.828,+0.906,-0.228,-0.355,-0.438,+9.562,+3.125,14, 2, 2, -1, -2, -1, 0, -1,-0.4650625290415146,1.1418985348819692
1503683575357,+0.131,+0.219,-0.501,-0.827,+0.947,-0.203,-0.358,+2.250,+8.250,+3.250,7, 0, -1, -2, -2, -3, -1, 1,-0.46478199570612155,1.1447917958187748
1503683575372,+0.131,+0.220,-0.501,-0.827,+0.926,-0.229,-0.343,+4.000,+1.125,+3.812,-3, -1, -2, -1, -3, 0, -1, 0,-0.46610752118348653,1.145724906545589
1503683575395,+0.132,+0.220,-0.500,-0.827,+0.864,-0.236,-0.342,+0.562,-4.188,-0.312,-4, 0, 2, 0, 1, -1, 1, -2,-0.4674654653144229,1.1433349247335907
1503683575416,+0.132,+0.220,-0.501,-0.827,+0.859,-0.221,-0.361,-0.062,+2.438,+0.812,11, 3, 0, -1, -3, -1, -1, 0,-0.4678691965190372,1.1459113394281815
1503683575432,+0.131,+0.221,-0.501,-0.826,+0.882,-0.232,-0.365,+0.562,+9.125,+4.125,-5, 0, 0, 0, -1, 0, -1, -1,-0.46719522352670656,1.1462376950993292
1503683575455,+0.130,+0.222,-0.502,-0.826,+0.900,-0.236,-0.368,+1.312,+8.375,+2.625,-7, 0, -2, -2, 1, -2, -2, 0,-0.467174658517639,1.14957187417757
1503683575476,+0.130,+0.222,-0.503,-0.825,+0.900,-0.250,-0.334,+1.375,+2.750,+0.938,1, -2, -3, 3, 3, -2, -1, -3,-0.46734370131548186,1.1517313053254037
1503683575498,+0.130,+0.223,-0.503,-0.825,+0.897,-0.245,-0.327,+0.875,+1.500,+0.188,-5, -2, -2, -3, -4, -2, 1, -1,-0.4686808902851408,1.1526769142503606
1503683575514,+0.130,+0.223,-0.504,-0.824,+0.920,-0.243,-0.334,+0.938,+2.812,+0.188,5, 0, -4, -3, -2, -2, -3, -3,-0.46885168554976686,1.1548399533588793
1503683575536,+0.131,+0.224,-0.503,-0.824,+0.923,-0.230,-0.332,+0.688,-3.125,-0.375,-1, -2, -1, -1, 2, 0, -1, 0,-0.47153829023038113,1.1533936878273838
1503683575560,+0.132,+0.224,-0.502,-0.825,+0.909,-0.219,-0.344,+2.312,-8.062,-1.875,2, -3, -1, 3, 9, 0, 1, -1,-0.47312669621758735,1.1514208384767022
1503683575574,+0.133,+0.224,-0.501,-0.825,+0.877,-0.224,-0.368,+4.062,-5.875,-4.562,-1, -5, -1, -2, 1, -1, -1, 0,-0.47447649360083,1.1490307663002444
1503683575597,+0.134,+0.224,-0.501,-0.825,+0.883,-0.235,-0.363,+1.188,-3.375,-3.000,-2, 0, -3, -1, -2, -2, 1, 0,-0.47623771602525783,1.1492194936331728
1503683575618,+0.134,+0.224,-0.501,-0.825,+0.892,-0.231,-0.349,-1.000,+1.812,-2.000,2, -2, -2, -1, -5, -2, -1, -2,-0.47623771602525783,1.1492194936331728
1503683575636,+0.134,+0.224,-0.502,-0.825,+0.896,-0.235,-0.358,-1.250,+5.188,-1.562,-9, 4, -2, -1, -3, -1, -3, 0,-0.47664729811678624,1.151796015878035
1503683575656,+0.134,+0.223,-0.502,-0.825,+0.930,-0.228,-0.354,-2.562,+0.500,-0.062,-1, 1, 0, -3, -1, 0, 1, -4,-0.47530810230437204,1.1508442092279547
1503683575679,+0.135,+0.223,-0.502,-0.825,+0.934,-0.205,-0.346,-1.875,-4.062,+0.875,1, -4, 0, 0, 0, -2, -2, -1,-0.47706948598345345,1.1510311007825034
1503683575697,+0.135,+0.223,-0.501,-0.826,+0.905,-0.206,-0.343,-1.250,-8.062,+0.562,-2, -2, -1, -2, -4, 0, 0, 0,-0.47690873580445997,1.148877459726678
1503683575717,+0.135,+0.222,-0.499,-0.826,+0.875,-0.220,-0.365,-2.562,-8.812,-1.438,2, 1, 0, 2, 1, -1, -1, -1,-0.47476214574337605,1.142781780835056
1503683575739,+0.136,+0.222,-0.499,-0.827,+0.870,-0.230,-0.363,-2.812,+0.500,-2.938,8, 2, 1, 0, 1, -2, 0, 2,-0.4767755954978724,1.143396736795719
1503683575754,+0.135,+0.221,-0.500,-0.826,+0.906,-0.223,-0.366,-2.688,+8.312,+0.000,-6, -3, -1, 2, 1, 1, -1, 0,-0.47383773719412164,1.1444114752921226
1503683575777,+0.135,+0.221,-0.502,-0.825,+0.924,-0.204,-0.347,-3.000,+5.312,-1.188,-7, -1, -3, 0, 2, 1, 2, 1,-0.4743990429780516,1.1491385101336637
1503683575799,+0.136,+0.220,-0.501,-0.826,+0.929,-0.206,-0.347,-1.625,-4.812,-3.500,3, -3, 1, 1, 2, 0, -1, -2,-0.4746761819091918,1.146232152506171
1503683575821,+0.137,+0.220,-0.500,-0.826,+0.896,-0.231,-0.354,-1.000,-8.250,-3.938,-4, -4, -3, -2, -2, -2, -1, -3,-0.4760392437962014,1.1438458439503256
1503683575838,+0.137,+0.219,-0.500,-0.827,+0.864,-0.244,-0.352,-3.625,-4.750,-2.750,-1, -1, 0, -3, -3, -1, -1, -2,-0.47496408049764555,1.1433343582330233
1503683575859,+0.137,+0.219,-0.500,-0.827,+0.871,-0.231,-0.359,-4.312,+2.375,-1.500,0, -1, 2, -2, 2, -2, -1, -3,-0.47496408049764555,1.1433343582330233
1503683575874,+0.137,+0.219,-0.501,-0.826,+0.904,-0.216,-0.369,-3.750,+5.750,-1.062,2, -2, -5, -1, -5, -2, 0, -2,-0.47511374793549643,1.1454813171070795
1503683575899,+0.137,+0.218,-0.501,-0.826,+0.938,-0.192,-0.360,-2.438,+1.562,-1.188,4, 0, 0, -2, 2, -1, -2, 1,-0.4737895450282124,1.144548420085697
1503683575919,+0.138,+0.218,-0.501,-0.826,+0.928,-0.201,-0.346,-0.500,-6.500,-2.562,0, 0, -2, -1, -2, 0, 0, 0,-0.4755545384467778,1.1447333128398989
1503683575935,+0.139,+0.217,-0.500,-0.827,+0.894,-0.203,-0.345,+0.188,-9.812,-4.375,-2, 0, -2, -1, -2, -1, -2, 0,-0.4758564257036331,1.1418437567021924
1503683575957,+0.140,+0.217,-0.499,-0.828,+0.869,-0.204,-0.363,-1.688,-7.125,-3.188,-2, 1, 1, 0, -3, -2, -1, -2,-0.4774848758169519,1.1398881990089058
1503683575979,+0.141,+0.216,-0.498,-0.828,+0.882,-0.202,-0.376,-1.812,-0.688,-2.750,-7, -1, -5, -3, -2, -1, 0, -2,-0.477547388412028,1.1365827138297682
1503683576001,+0.141,+0.216,-0.498,-0.828,+0.905,-0.215,-0.370,-2.188,-0.812,-1.250,-4, -3, 1, -2, -14, -1, -1, -1,-0.477547388412028,1.1365827138297682
1503683576017,+0.141,+0.216,-0.498,-0.828,+0.901,-0.213,-0.360,-2.750,-3.750,-0.438,3, 1, -1, -3, -2, 0, -1, 0,-0.477547388412028,1.1365827138297682
1503683576039,+0.141,+0.215,-0.497,-0.829,+0.896,-0.200,-0.378,-1.562,-7.812,-0.625,1, 0, -2, -1, -1, -1, -1, -1,-0.4761010205725767,1.1335265267858037
1503683576054,+0.142,+0.215,-0.496,-0.830,+0.893,-0.214,-0.388,-1.000,-7.625,-0.062,-4, -5, 0, 1, 2, -1, -1, 0,-0.477742754889164,1.1315830712707187
1503683576077,+0.142,+0.215,-0.495,-0.830,+0.890,-0.221,-0.367,-1.500,-3.625,+1.312,-4, -5, -4, -3, -2, -1, 1, 0,-0.47735165629535087,1.129023177104966
1503683576099,+0.141,+0.215,-0.494,-0.830,+0.893,-0.208,-0.372,-2.562,-3.875,+2.250,1, 2, -1, -3, 1, 0, -3, -1,-0.4751830065720431,1.12627407068424
1503683576114,+0.141,+0.214,-0.494,-0.831,+0.892,-0.189,-0.376,-1.875,-5.062,+1.375,-6, -4, 1, 0, -2, 0, -1, 0,-0.47413797433524835,1.1257917061586806
1503683576137,+0.142,+0.215,-0.493,-0.831,+0.892,-0.204,-0.375,+0.625,-5.188,+1.188,-2, 1, -1, 1, 0, -3, 0, 0,-0.4768275180444539,1.1243407786493649
1503683576159,+0.142,+0.215,-0.492,-0.832,+0.893,-0.233,-0.391,+1.188,-6.438,+0.938,-2, 2, -2, -1, 1, 0, 0, -1,-0.4766946184407058,1.1222209781027517
1503683576174,+0.142,+0.215,-0.491,-0.832,+0.887,-0.223,-0.388,+0.500,-7.500,+0.000,-3, -3, 0, -3, -2, -1, 0, -1,-0.4763030958063205,1.1196657349223555
1503683576200,+0.143,+0.215,-0.490,-0.833,+0.891,-0.207,-0.377,+1.062,-5.000,-0.750,1, 1, -1, -1, -2, 0, 0, -1,-0.4779548533312004,1.1177437835538655
1503683576219,+0.143,+0.216,-0.489,-0.833,+0.896,-0.207,-0.361,+2.375,-3.938,+0.062,-3, 1, 0, -2, -2, -1, 0, 1,-0.47886009697840337,1.116114501277682
1503683576235,+0.144,+0.216,-0.489,-0.833,+0.897,-0.208,-0.359,+1.000,-3.812,+0.500,2, -4, 0, 1, 1, -2, -1, -2,-0.480646462862154,1.1163088998497437
1503683576257,+0.144,+0.216,-0.489,-0.833,+0.905,-0.201,-0.394,+0.812,-3.938,-1.188,-1, -1, -2, 3, 5, -2, 0, -3,-0.480646462862154,1.1163088998497437
1503683576279,+0.145,+0.216,-0.488,-0.833,+0.908,-0.208,-0.392,+1.125,-2.062,-1.312,1, -1, -2, -1, -1, 0, -2, -2,-0.48204160110384,1.1139543271752281
1503683576294,+0.146,+0.216,-0.488,-0.833,+0.908,-0.219,-0.378,+1.500,-2.500,-1.250,2, -1, 0, -1, -2, 1, 1, 0,-0.48383033539728226,1.114149556426727
1503683576317,+0.146,+0.216,-0.488,-0.833,+0.926,-0.220,-0.382,+1.250,-3.688,-2.062,-1, 0, -2, -3, -3, -1, -2, 1,-0.48383033539728226,1.114149556426727
1503683576339,+0.147,+0.216,-0.487,-0.833,+0.916,-0.211,-0.388,+1.688,-3.000,-2.688,1, -1, 1, 0, -3, -3, -2, -2,-0.4852286401727461,1.1117984572953432
1503683576354,+0.148,+0.216,-0.487,-0.833,+0.896,-0.219,-0.384,+0.938,-2.938,-2.250,1, 1, -2, 0, 0, 0, -2, 0,-0.4870197757834652,1.1119945138124525
1503683576377,+0.148,+0.216,-0.487,-0.833,+0.897,-0.207,-0.399,-0.438,+1.438,-1.625,1, 1, 1, -1, -3, -1, 0, -1,-0.4870197757834652,1.1119945138124525
1503683576400,+0.148,+0.216,-0.488,-0.833,+0.905,-0.192,-0.398,+0.750,+3.562,-0.750,2, -1, -1, -1, -2, -2, -2, 1,-0.4874106923592925,1.1145395499768536
1503683576414,+0.149,+0.217,-0.488,-0.832,+0.898,-0.199,-0.396,+1.938,+2.938,-0.250,-3, -3, -2, 0, -2, -3, -1, -3,-0.49023203953891664,1.115224843322523
1503683576437,+0.149,+0.217,-0.488,-0.832,+0.888,-0.214,-0.374,+2.250,+1.062,+0.062,3, -2, -2, -1, 1, 0, -1, -1,-0.49023203953891664,1.115224843322523
1503683576459,+0.149,+0.217,-0.488,-0.832,+0.867,-0.219,-0.395,+0.688,+2.375,+0.062,4, 6, 0, -1, -3, 0, 0, 0,-0.49023203953891664,1.115224843322523
1503683576475,+0.149,+0.218,-0.489,-0.831,+0.885,-0.210,-0.392,+0.125,+7.250,+0.625,0, 1, -3, -3, -3, 0, -1, 0,-0.4916584408415576,1.118267039289735
1503683576497,+0.149,+0.218,-0.490,-0.831,+0.914,-0.206,-0.375,+0.812,+7.250,+1.625,0, -1, 2, -1, 0, 0, -2, -1,-0.49205209407048417,1.120814374938336
1503683576518,+0.149,+0.219,-0.491,-0.830,+0.917,-0.200,-0.372,+2.625,+2.125,-0.625,0, -4, -3, -3, -9, -1, 1, -1,-0.49348634960468263,1.1238660591986502
1503683576534,+0.150,+0.220,-0.491,-0.829,+0.863,-0.218,-0.371,+7.125,+5.062,-3.000,-2, -4, -1, 4, -1, 0, 0, -1,-0.49631614047553996,1.1245695229051988
1503683576555,+0.151,+0.221,-0.492,-0.828,+0.853,-0.230,-0.403,+6.562,+11.375,-3.500,1, 0, 0, -3, 0, 0, -1, 0,-0.4995449390945649,1.1278290879423434
1503683576578,+0.151,+0.223,-0.495,-0.827,+0.895,-0.215,-0.408,+8.250,+20.875,-1.875,-2, -2, -1, -2, 3, -2, 0, -1,-0.5031188616586444,1.136962426775119
1503683576593,+0.151,+0.225,-0.498,-0.824,+0.903,-0.239,-0.377,+11.812,+30.062,+1.125,-1, 2, 0, 0, 1, -1, 0, -1,-0.5061816537096104,1.1452807262237807
1503683576615,+0.152,+0.228,-0.501,-0.821,+0.925,-0.249,-0.374,+15.062,+23.188,-2.125,4, 0, -2, -3, -2, 0, -1, 0,-0.5124019745960172,1.1548155023636506
1503683576639,+0.153,+0.232,-0.503,-0.818,+0.954,-0.271,-0.370,+22.938,+24.375,-2.312,-2, -3, 0, -1, 1, -3, -2, -2,-0.519625388646392,1.1628520852982762
1503683576653,+0.154,+0.238,-0.507,-0.814,+0.896,-0.314,-0.361,+28.250,+31.625,-3.750,8, 6, 0, -2, -5, 0, 0, 1,-0.5302621281496064,1.177755120509371
1503683576676,+0.156,+0.243,-0.510,-0.810,+0.907,-0.288,-0.363,+30.750,+34.812,-5.375,-1, -5, -2, -2, -1, -2, -2, 1,-0.5409858485336586,1.1894343057353678
1503683576698,+0.158,+0.250,-0.515,-0.805,+0.955,-0.286,-0.345,+39.812,+46.062,-3.188,-5, -1, 0, 10, 2, 2, 0, -2,-0.5552892750915382,1.2081757445308028
1503683576714,+0.160,+0.258,-0.520,-0.798,+0.984,-0.323,-0.294,+49.312,+46.188,-3.375,6, 0, -1, -7, -5, 0, -3, -2,-0.5707468719083125,1.227591339134504
1503683576736,+0.164,+0.267,-0.524,-0.792,+0.996,-0.349,-0.284,+51.875,+37.812,-5.375,10, -1, 0, -3, 3, -1, 1, -1,-0.5913022350757886,1.2466877592804864
1503683576759,+0.168,+0.275,-0.526,-0.787,+0.962,-0.324,-0.258,+54.188,+30.375,-10.250,-10, -3, 2, -4, -3, -2, -1, -1,-0.6099806562234901,1.2602121499816386
1503683576773,+0.173,+0.283,-0.529,-0.781,+0.893,-0.316,-0.232,+58.688,+30.375,-12.250,-1, 1, 3, 23, 19, 0, 0, 0,-0.6308004363656152,1.2764878889812843
1503683576796,+0.178,+0.292,-0.532,-0.775,+0.904,-0.322,-0.202,+61.125,+35.250,-13.062,-8, -2, -4, -12, -27, -3, -1, -2,-0.6534589487018654,1.2943661032665035
1503683576818,+0.183,+0.300,-0.536,-0.767,+0.925,-0.311,-0.182,+59.250,+44.000,-12.000,-14, -6, -4, -5, 2, -3, -2, -2,-0.674663525769504,1.3133336136173155
1503683576837,+0.187,+0.308,-0.541,-0.760,+0.954,-0.279,-0.166,+52.875,+45.562,-12.438,-8, -1, 2, 3, 7, 3, 2, 1,-0.6951773500811221,1.3353450232288786
1503683576856,+0.191,+0.315,-0.546,-0.753,+0.983,-0.259,-0.157,+50.188,+42.375,-12.812,0, -1, -3, -9, -2, -1, -2, -1,-0.7142341681005006,1.3563267740511349
1503683576879,+0.196,+0.321,-0.550,-0.746,+0.983,-0.248,-0.142,+48.688,+36.375,-16.000,2, 0, -3, -1, 8, -2, 0, -1,-0.7329342021575119,1.3737750751583737
1503683576893,+0.202,+0.326,-0.553,-0.740,+0.964,-0.228,-0.131,+49.750,+28.750,-20.938,2, 1, 0, 0, 6, -1, 0, -2,-0.7514830251835862,1.3878102596640345
1503683576915,+0.208,+0.330,-0.556,-0.734,+0.955,-0.208,-0.121,+45.938,+26.938,-22.562,0, -2, -3, -6, -18, 1, 0, 0,-0.7683176536034328,1.4005362689079626
1503683576938,+0.213,+0.334,-0.560,-0.728,+0.958,-0.184,-0.102,+40.000,+29.375,-18.375,8, 11, -3, 0, 4, 2, 0, 1,-0.7839810164183694,1.4157423747523958
1503683576954,+0.218,+0.338,-0.563,-0.722,+0.991,-0.158,-0.109,+36.875,+28.125,-15.688,-15, -1, -3, -7, -8, -3, 0, -5,-0.7991860294433235,1.428508890584098
1503683576976,+0.222,+0.341,-0.567,-0.717,+0.958,-0.145,-0.107,+33.938,+30.562,-17.125,-5, -11, -9, -1, 4, 3, -2, 0,-0.8117198244163634,1.4424621769002974
1503683576998,+0.228,+0.343,-0.570,-0.711,+0.909,-0.131,-0.074,+37.188,+28.688,-23.625,8, 0, 4, 19, 41, 3, 1, 0,-0.8249873428897169,1.4525213904543686
1503683577021,+0.233,+0.346,-0.574,-0.705,+0.949,-0.156,-0.041,+35.375,+27.812,-23.062,3, 3, 0, -10, -6, -1, -3, 0,-0.8388758335745649,1.4664797774809777
1503683577037,+0.237,+0.349,-0.578,-0.699,+0.980,-0.143,-0.064,+28.000,+30.312,-17.938,0, 5, 1, -2, -3, -3, -1, 1,-0.85109115963215,1.4804087525806402
1503683577058,+0.241,+0.350,-0.581,-0.694,+0.960,-0.109,-0.048,+23.375,+23.938,-20.062,11, -6, -4, 0, 3, -6, -3, -1,-0.8594412421021689,1.489063413893521
1503683577080,+0.246,+0.350,-0.583,-0.691,+0.987,-0.081,-0.014,+21.750,+13.125,-19.125,-4, -9, 11, 9, 7, 2, -1, 0,-0.8677733424578337,1.4940259994913367
1503683577096,+0.250,+0.351,-0.584,-0.688,+0.976,-0.083,-0.055,+17.875,+7.750,-14.750,6, 2, 1, -7, -14, -2, -1, 1,-0.8758300545078163,1.4979125128684856
1503683577118,+0.253,+0.350,-0.586,-0.685,+0.913,-0.078,-0.026,+13.000,+10.312,-16.125,2, 0, 1, -2, -1, -2, -1, 1,-0.8789447887952115,1.5013027310857698
1503683577134,+0.256,+0.350,-0.589,-0.682,+0.905,-0.081,-0.034,+14.062,+14.812,-16.562,-14, -19, -11, -5, -6, -2, 1, -6,-0.8843626830619367,1.5086352674662153
1503683577155,+0.258,+0.352,-0.592,-0.678,+0.969,-0.107,-0.021,+12.312,+25.562,-8.688,4, -15, -3, -4, -5, -2, 0, 0,-0.8914818765498495,1.5187660906804628
1503683577178,+0.258,+0.353,-0.595,-0.674,+1.015,-0.113,+0.011,+7.062,+28.875,-7.875,-11, 2, -6, 1, -7, 1, -2, -14,-0.8933843442516607,1.5274059265214417
1503683577201,+0.260,+0.353,-0.598,-0.672,+1.057,-0.102,+0.015,+6.062,+13.812,-9.062,3, 3, 1, 2, -14, 1, -2, 0,-0.897416358899349,1.5347792857476
1503683577216,+0.262,+0.352,-0.598,-0.670,+1.027,-0.139,+0.001,+5.438,+2.938,-13.500,-10, 0, 5, -4, 1, 1, -3, -5,-0.89823387041052,1.5332959597865257
1503683577239,+0.265,+0.350,-0.600,-0.669,+0.935,-0.121,-0.024,+4.500,+2.750,-20.938,-5, -5, 0, 0, -2, -3, -3, 0,-0.9000878691701574,1.5353967730692
1503683577260,+0.267,+0.349,-0.601,-0.668,+1.000,-0.104,+0.016,+0.875,+0.500,-15.688,-10, -6, -3, -1, -9, 0, 0, 2,-0.9016958138076913,1.5364462213829384
1503683577283,+0.267,+0.348,-0.600,-0.669,+1.109,-0.113,-0.031,-6.000,-4.062,+5.250,-9, 4, -4, -9, -10, 0, 0, -3,-0.8997355074221425,1.5325883707310994
1503683577298,+0.264,+0.347,-0.599,-0.671,+1.029,-0.147,+0.086,-18.000,-10.375,+13.625,16, -20, -5, -3, -4, -3, -6, 1,-0.8930575091668947,1.5286967152686275
1503683577321,+0.262,+0.346,-0.597,-0.674,+0.990,-0.082,+0.021,-16.625,-19.688,+15.188,-5, -1, -5, -1, -10, 3, -1, -1,-0.8879602133854408,1.5224090804988304
1503683577336,+0.262,+0.344,-0.594,-0.679,+0.947,-0.089,-0.034,-16.062,-30.875,+14.375,-9, 0, -5, 1, 1, 2, 2, 2,-0.8846233369806547,1.5124418086658864
1503683577358,+0.262,+0.340,-0.590,-0.684,+0.931,-0.062,-0.012,-18.500,-38.875,+8.062,8, 6, 5, -2, 6, 7, -4, -5,-0.8772256069186579,1.4972446112709195
1503683577382,+0.260,+0.339,-0.586,-0.689,+0.998,-0.109,-0.018,-15.375,-32.000,+25.625,-3, -1, -2, 4, 4, -19, -3, 0,-0.8719316225676087,1.4862584898261035
1503683577395,+0.253,+0.340,-0.582,-0.694,+1.029,-0.215,-0.046,-24.375,-17.812,+42.562,-14, 1, -10, -5, -8, -6, -7, -10,-0.8617369090207013,1.4778350145928303
1503683577418,+0.246,+0.339,-0.581,-0.697,+0.919,-0.190,-0.036,-34.500,-3.125,+30.438,-14, -4, 10, 6, 7, 6, 8, 7,-0.8486024846074761,1.473798713421211
1503683577442,+0.241,+0.338,-0.582,-0.699,+0.894,-0.188,-0.053,-27.438,+5.000,+15.562,14, 7, -4, 0, 1, -1, -2, -2,-0.8394696742165266,1.474770002538917
1503683577455,+0.237,+0.337,-0.584,-0.699,+0.954,-0.240,-0.010,-23.750,+11.562,+5.062,-11, -3, 3, 4, 0, 0, 2, 3,-0.831860248888514,1.4780974014342112
1503683577478,+0.235,+0.335,-0.587,-0.698,+1.016,-0.241,+0.020,-21.875,+15.375,-4.938,-1, 16, 20, 5, 4, 3, -2, -8,-0.8259471680220927,1.4825708131934978
1503683577501,+0.233,+0.332,-0.590,-0.698,+1.031,-0.223,-0.035,-21.312,+9.000,-13.500,-11, -14, -7, -2, -2, -1, -3, -15,-0.8185660627325604,1.4858052336587726
1503683577517,+0.235,+0.329,-0.592,-0.697,+0.960,-0.174,-0.055,-10.812,+9.188,-22.938,-10, -8, -4, 3, 4, -2, -1, -2,-0.8170795391872936,1.4867090702920553
1503683578161,+0.305,+0.277,-0.548,-0.728,+0.977,-0.086,-0.162,-9.625,-25.875,+10.500,8, 6, -10, -1, -2, -2, -1, 5,-0.8472296485376168,1.3217144777906267
1503683578176,+0.304,+0.277,-0.546,-0.730,+0.940,-0.103,-0.127,-9.750,-16.750,+6.875,10, 31, -2, -1, -1, -2, -2, 9,-0.8454197011436287,1.3171460241585533
1503683578198,+0.303,+0.277,-0.545,-0.731,+1.000,-0.114,-0.156,-5.438,-7.500,+6.000,30, 4, 5, 1, 0, 1, 3, 31,-0.8435720231680002,1.3147952694693397
1503683578221,+0.302,+0.277,-0.543,-0.733,+1.072,-0.129,-0.196,-2.312,-15.062,+6.938,-1, -24, 17, 0, -1, -3, -16, -19,-0.841757167630472,1.3102407124284097
1503683578236,+0.303,+0.276,-0.540,-0.735,+0.983,-0.142,-0.260,+0.250,-23.938,-2.312,-17, -15, -13, -3, -3, -3, -4, -5,-0.8417922088797496,1.3022776655410055
1503683578258,+0.303,+0.277,-0.537,-0.737,+0.914,-0.162,-0.190,-0.875,-16.812,+3.188,1, -15, -12, -3, -1, 0, 4, -5,-0.8430410303489779,1.2966551969965041
1503683578281,+0.302,+0.277,-0.538,-0.736,+0.931,-0.120,-0.174,-2.250,+4.688,+1.688,-30, -9, -9, -6, -6, -2, -3, -13,-0.8411165933455264,1.2986910576494297
1503683578295,+0.301,+0.280,-0.540,-0.735,+1.036,-0.118,-0.168,+2.938,+15.750,+4.188,-26, -4, -7, -6, -3, -3, 1, -7,-0.8442354873762602,1.306926825951354
1503683578318,+0.300,+0.281,-0.540,-0.734,+1.092,-0.111,-0.152,+3.938,+0.562,+4.375,-30, -2, 3, -1, -1, -1, -5, -1,-0.8435150359531824,1.307742355675323
1503683578333,+0.302,+0.282,-0.538,-0.735,+1.042,-0.079,-0.213,+10.438,-16.375,-1.125,42, 9, 5, 3, 0, 1, 6, 33,-0.8484958765088171,1.3046199868009372
1503683578356,+0.305,+0.283,-0.535,-0.736,+0.918,-0.130,-0.251,+13.938,-17.438,-2.312,-95, -4, -1, 0, -2, -1, -6, -12,-0.855008082140149,1.2992078931773388
1503683578380,+0.306,+0.285,-0.533,-0.736,+0.884,-0.171,-0.190,+13.312,-3.750,+0.938,10, 10, 6, 1, 2, -2, 2, 4,-0.8592844341609046,1.296962891322292
1503683578400,+0.305,+0.289,-0.534,-0.734,+1.023,-0.174,-0.176,+13.125,+10.812,+4.250,5, 3, -1, 1, -2, 0, -3, -7,-0.863259394999909,1.303795389662571
1503683578416,+0.306,+0.292,-0.533,-0.733,+1.083,-0.127,-0.205,+13.812,+0.250,+6.438,-12, -11, 3, -1, 0, -1, -1, -17,-0.8691265582341783,1.3050742127610448
1503683578438,+0.309,+0.292,-0.529,-0.734,+0.996,-0.109,-0.220,+14.688,-23.812,-4.062,11, 12, -3, 1, 2, -1, 6, -1,-0.8736996123772499,1.296022939938293
1503683578460,+0.312,+0.293,-0.526,-0.735,+0.896,-0.082,-0.228,+19.625,-19.250,-5.938,0, -8, -6, 0, 1, 1, -1, -10,-0.8802663702111029,1.290764338306911
1503683578476,+0.314,+0.296,-0.524,-0.734,+0.878,-0.106,-0.238,+21.688,+1.125,+2.125,12, 7, 1, -1, -3, -2, -1, 6,-0.8876925367696707,1.2898613539710104
1503683578498,+0.315,+0.299,-0.524,-0.733,+0.954,-0.089,-0.252,+20.562,+8.000,+4.750,31, -4, -3, -3, 0, 0, -2, 1,-0.893986498481392,1.2937102081341527
1503683578522,+0.317,+0.302,-0.521,-0.732,+0.996,-0.081,-0.288,+19.750,-4.562,+4.375,16, -12, -4, -1, 0, 1, 2, 6,-0.9010893686601128,1.2904844705925276
1503683578543,+0.321,+0.302,-0.517,-0.734,+0.932,-0.046,-0.331,+21.250,-21.562,+3.750,9, 13, 2, -1, 0, 0, 0, -2,-0.9080660837735895,1.2820743034917446
1503683578566,+0.324,+0.304,-0.512,-0.735,+0.845,-0.040,-0.330,+22.625,-20.562,+4.500,-6, -15, -4, -2, -1, -1, -2, -1,-0.915588833337791,1.2735623537426404
1503683578583,+0.326,+0.306,-0.508,-0.736,+0.871,-0.037,-0.356,+23.250,-10.562,+13.375,-11, 10, 3, 0, -1, -2, -4, 4,-0.9215736267991004,1.2673609647379402
1503683578596,+0.327,+0.309,-0.504,-0.737,+0.946,-0.036,-0.346,+21.312,-8.750,+18.438,0, -3, 0, 2, -2, 2, 0, -5,-0.9272327106923712,1.2624265561230774
1503683578620,+0.328,+0.312,-0.499,-0.739,+0.942,-0.054,-0.337,+25.188,-14.500,+22.125,-30, 11, 13, 1, -1, -2, 0, -2,-0.9329265599953059,1.2555117634384956
1503683578641,+0.330,+0.316,-0.493,-0.740,+0.881,-0.098,-0.406,+31.875,-16.375,+20.000,6, -17, -7, -1, 0, -2, -3, -4,-0.9414383612257136,1.2476490672316067
1503683578657,+0.330,+0.321,-0.488,-0.741,+0.934,-0.155,-0.433,+33.000,-4.438,+26.562,42, 2, -2, -1, -1, -1, -3, 9,-0.9480699955889057,1.2433414442536947
1503683578678,+0.328,+0.327,-0.484,-0.742,+0.951,-0.118,-0.359,+28.500,+3.750,+34.562,-16, -13, -6, -3, -1, 0, 6, -3,-0.9528613287590219,1.2425880873856552
1503683578700,+0.328,+0.333,-0.481,-0.742,+0.977,-0.083,-0.321,+31.062,-2.438,+35.250,6, -3, -4, -2, 0, -1, -7, -1,-0.9616642196473126,1.244467774809676
1503683578718,+0.327,+0.340,-0.476,-0.742,+0.947,-0.136,-0.327,+38.500,-5.125,+37.062,-6, -10, 6, 5, 2, 0, 2, 1,-0.9695251750608515,1.2431784302862923
1503683578739,+0.326,+0.348,-0.471,-0.742,+0.941,-0.189,-0.324,+39.188,-1.000,+34.625,-4, 26, 1, -2, -3, 0, 2, -1,-0.9792422472335718,1.243718639276053
1503683578762,+0.325,+0.355,-0.467,-0.742,+0.937,-0.180,-0.286,+37.125,+6.438,+35.562,-2, -1, -6, -4, -2, -2, -3, -7,-0.9878121590167095,1.2453034598935617
1503683578776,+0.323,+0.362,-0.463,-0.741,+0.932,-0.210,-0.253,+36.562,-3.062,+37.125,3, -11, 0, 2, 2, 0, -14, -14,-0.9942308501323878,1.2466008627831766
1503683578798,+0.323,+0.370,-0.457,-0.742,+0.859,-0.226,-0.267,+40.812,-6.500,+36.062,-22, 9, 5, 1, 1, 0, 5, 7,-1.0064151826190673,1.2463341259949627
1503683578822,+0.322,+0.378,-0.453,-0.741,+0.822,-0.252,-0.229,+39.438,-1.000,+32.562,37, 37, 3, -4, -2, -1, 0, 8,-1.016975841413941,1.2501402070084047
1503683578836,+0.320,+0.385,-0.451,-0.739,+1.101,-0.296,-0.240,+33.438,+13.312,+29.250,4, -17, -4, -1, -1, -3, 0, -5,-1.0244705815569337,1.2565345591056807
1503683578859,+0.322,+0.390,-0.453,-0.734,+1.124,-0.256,-0.201,+31.438,+18.562,-0.438,1, -22, -3, -3, -1, -1, 2, 4,-1.0368012139117293,1.2688258201004943
1503683578880,+0.324,+0.393,-0.450,-0.734,+0.855,-0.223,-0.170,+21.625,-16.938,+6.688,22, 7, 2, 3, -1, 0, -2, -4,-1.0450885345755723,1.2678298396511738
1503683578896,+0.324,+0.395,-0.447,-0.734,+0.745,-0.255,-0.201,+11.312,-8.750,+10.062,29, -7, 6, 13, 8, 4, 3, 7,-1.047639253580506,1.2646356227339193
1503683578919,+0.321,+0.397,-0.449,-0.733,+0.910,-0.320,-0.247,+1.938,+22.688,+12.438,-56, -8, -7, -9, -6, -3, -3, -3,-1.0461298183514138,1.2716735457718782
1503683578940,+0.318,+0.398,-0.451,-0.733,+1.079,-0.296,-0.213,-11.562,+11.938,+9.938,-6, 6, -4, -5, -5, -5, -5, 6,-1.0430956871370793,1.2772318571231867
1503683578957,+0.317,+0.396,-0.451,-0.734,+0.840,-0.250,-0.229,-14.438,-1.625,+3.500,7, 10, 5, 2, 1, 2, 1, -2,-1.0376840510448835,1.2736962724221679
1503683578978,+0.315,+0.395,-0.452,-0.735,+0.817,-0.295,-0.226,-13.812,+7.750,+4.625,-35, -18, -11, -3, -4, -2, -2, 3,-1.0326913587208764,1.273968969427241
1503683579001,+0.313,+0.394,-0.454,-0.736,+0.939,-0.357,-0.203,-17.750,+6.625,-1.188,34, 1, 7, 6, 6, 4, -2, -15,-1.0281364696904434,1.2765178372623776
1503683579018,+0.311,+0.392,-0.455,-0.736,+0.931,-0.278,-0.215,-17.688,+6.000,-0.062,-10, 0, -9, -12, -6, -3, 2, 6,-1.020931570857933,1.274779862698067
1503683579038,+0.310,+0.390,-0.458,-0.737,+0.872,-0.297,-0.200,-22.188,+6.688,-6.062,-12, -12, -11, -9, -5, -3, 1, 10,-1.0168584713144722,1.2781348601618763
1503683579060,+0.307,+0.388,-0.461,-0.737,+0.861,-0.303,-0.196,-26.438,+14.500,-1.312,-26, -7, 0, 3, -1, -5, -7, -18,-1.0086502432565816,1.2807934665085015
1503683579076,+0.302,+0.386,-0.467,-0.736,+0.894,-0.347,-0.178,-32.938,+33.188,-2.188,16, 0, 3, 3, 2, 1, 1, -2,-0.9976536589445087,1.2896762872776633
1503683579098,+0.295,+0.384,-0.473,-0.736,+0.958,-0.329,-0.200,-38.000,+40.062,+8.875,41, -7, 8, 10, 5, -1, -10, -20,-0.9833419795980808,1.2985499514869534
1503683579121,+0.288,+0.383,-0.478,-0.736,+1.048,-0.247,-0.139,-37.938,+29.812,+16.125,-42, -17, -2, 6, 5, -1, -3, -11,-0.9706166282465934,1.3069700142177016
1503683579136,+0.285,+0.379,-0.481,-0.738,+1.088,-0.232,-0.169,-34.438,+2.312,+10.062,46, 9, -7, -9, -9, -2, 3, 20,-0.9595685023015661,1.307104844931437
1503683579158,+0.283,+0.374,-0.481,-0.741,+0.928,-0.247,-0.200,-34.188,-12.812,-4.188,6, -3, 1, 1, 1, 2, 8, 2,-0.9475764234595124,1.2991334338643772
1503683579180,+0.280,+0.370,-0.483,-0.743,+0.762,-0.261,-0.225,-34.500,+6.000,+2.312,10, 7, 4, 1, 1, 1, 1, -4,-0.9362283858897975,1.2971467463005586
1503683579196,+0.274,+0.367,-0.488,-0.743,+0.725,-0.287,-0.212,-37.250,+34.625,+2.375,-33, -8, -5, -3, -3, -1, -5, -6,-0.9219209428358203,1.3028257088957782
1503683579220,+0.267,+0.366,-0.496,-0.741,+0.855,-0.289,-0.186,-39.062,+52.188,+4.438,3, -8, -6, 0, 0, 1, 0, 5,-0.9102800182822048,1.31831979805823
1503683579240,+0.261,+0.364,-0.503,-0.739,+1.023,-0.310,-0.179,-36.125,+48.125,-0.062,2, 1, -4, -1, 0, -1, 0, 1,-0.8983199642575862,1.3302292090083867
1503683579258,+0.258,+0.361,-0.509,-0.737,+0.978,-0.296,-0.185,-24.750,+32.500,-12.875,-11, -14, -3, 0, 0, -2, -5, -10,-0.8895676684234396,1.3388628654580965
1503683579278,+0.256,+0.358,-0.513,-0.737,+0.867,-0.310,-0.276,-25.875,+24.188,-14.688,12, 8, 3, -2, -1, 0, 0, 0,-0.8823865488914995,1.3434558523787732
1503683579300,+0.253,+0.354,-0.519,-0.735,+0.857,-0.253,-0.214,-32.438,+37.500,-16.625,7, 10, 2, 0, -1, -1, 0, -2,-0.8719098146066513,1.3508120679716484
1503683579316,+0.248,+0.351,-0.529,-0.731,+0.951,-0.233,-0.166,-33.312,+63.125,-11.875,14, 6, 0, -4, -2, 0, 4, 3,-0.8609901529652857,1.3689221371375162
1503683579338,+0.243,+0.350,-0.540,-0.726,+1.109,-0.153,-0.173,-25.500,+71.750,-2.750,6, -5, 4, -1, -1, -1, -2, 2,-0.8539688471549224,1.3926550687924233
1503683579361,+0.240,+0.349,-0.546,-0.723,+1.123,-0.155,-0.167,-14.938,+45.000,+3.438,-2, -13, -1, 0, 1, -2, -6, -8,-0.8488104953954839,1.404976733908206
1503683579376,+0.238,+0.348,-0.548,-0.722,+1.045,-0.192,-0.149,-11.812,+16.188,+3.625,0, -3, -1, -1, -3, -1, 0, 4,-0.8441628888873437,1.407996540049088
1503683579399,+0.236,+0.347,-0.550,-0.722,+0.969,-0.218,-0.142,-13.188,+8.875,+1.875,-3, 4, 2, 2, 1, -1, 0, -6,-0.8398545352387815,1.4112205365746553
1503683579421,+0.233,+0.346,-0.551,-0.722,+0.952,-0.237,-0.142,-16.188,+15.062,+7.062,-4, 1, 3, -5, -6, 1, -1, 1,-0.8333662800205741,1.4118708435179699
1503683579436,+0.228,+0.348,-0.555,-0.721,+0.976,-0.270,-0.097,-13.500,+30.000,+15.125,-12, -2, 1, 4, 8, 1, 0, -3,-0.8300998240152795,1.4240565212467453
1503683579459,+0.222,+0.351,-0.558,-0.718,+1.007,-0.340,-0.083,-8.625,+43.375,+24.562,0, 0, -3, -1, -5, -1, 1, 0,-0.8260030434869668,1.4349075790039898
1503683579480,+0.214,+0.354,-0.562,-0.716,+1.013,-0.358,-0.102,-15.688,+42.312,+28.000,4, -4, 0, 2, 3, 0, -1, 0,-0.8195727365946438,1.4483537794791876
1503683579497,+0.207,+0.355,-0.565,-0.716,+1.037,-0.320,-0.096,-21.000,+32.625,+23.875,-2, -4, -4, -4, -3, -4, -3, 0,-0.8113677058650876,1.456759480092367
1503683579521,+0.202,+0.355,-0.567,-0.716,+1.025,-0.260,-0.079,-19.625,+18.500,+19.125,4, 1, 2, 28, 8, 0, -1, 6,-0.8041652503867089,1.4613588795186307
1503683579540,+0.198,+0.354,-0.566,-0.718,+1.024,-0.237,-0.064,-24.688,-1.938,+17.938,1, 4, 0, 2, 9, 1, -2, -1,-0.7957929465698301,1.4572671331034595
1503683579557,+0.196,+0.350,-0.564,-0.722,+0.989,-0.222,-0.101,-27.000,-25.750,+10.188,2, -2, 1, 0, 4, 1, 1, 8,-0.7851444745905672,1.446590328539715
1503683579579,+0.196,+0.346,-0.560,-0.727,+0.877,-0.209,-0.138,-24.375,-28.062,+3.125,2, -3, -4, -8, -26, -3, -1, -9,-0.7771166326792406,1.4313019313749202
1503683579600,+0.196,+0.341,-0.558,-0.731,+0.840,-0.194,-0.100,-24.438,-28.312,-2.938,3, 1, 2, 19, 31, -2, -2, -4,-0.7680928588365836,1.4195486198363054
1503683579617,+0.196,+0.336,-0.556,-0.734,+0.851,-0.208,-0.124,-26.250,-20.688,-4.812,-1, -1, -5, -8, -17, -3, -2, -9,-0.7588973800506784,1.4077532495279428
1503683579639,+0.194,+0.332,-0.555,-0.737,+0.898,-0.264,-0.106,-29.812,-16.312,-2.375,-10, 2, 5, -4, -9, 0, 0, -9,-0.7487604494376199,1.3998090394832257
1503683579662,+0.192,+0.327,-0.555,-0.740,+0.890,-0.282,-0.065,-35.688,-18.625,-2.938,0, 1, 0, 2, -1, 0, -1, 2,-0.7374159786301966,1.3930739344972611
1503683579677,+0.190,+0.322,-0.558,-0.741,+0.936,-0.277,-0.055,-38.375,+7.188,-11.188,6, 0, -3, -5, 9, -2, -1, -5,-0.7270670976868917,1.393696225538051
1503683579699,+0.189,+0.316,-0.562,-0.741,+0.972,-0.199,-0.059,-36.375,+10.188,-25.062,-6, -5, -3, -14, -3, -2, -2, -6,-0.7169165466473296,1.3955728397186322
1503683579723,+0.192,+0.309,-0.561,-0.744,+0.978,-0.173,-0.142,-24.250,-29.688,-22.375,-1, 0, 3, -12, -13, -2, 1, 1,-0.7102924276457294,1.3846085416509828
1503683579737,+0.193,+0.304,-0.555,-0.750,+0.972,-0.303,-0.140,-26.312,-55.062,-11.188,5, 1, 1, 0, 8, 0, 1, 3,-0.7024293969461309,1.3641563101512792
1503683579761,+0.191,+0.297,-0.551,-0.756,+0.868,-0.350,-0.142,-44.938,-42.500,-5.625,-11, 2, -1, 0, -5, -2, -2, -1,-0.6872775917244685,1.346063013194469
1503683579780,+0.186,+0.290,-0.552,-0.759,+0.820,-0.300,-0.124,-56.125,-6.688,-3.250,0, -7, -4, -4, -3, 1, 0, 1,-0.6686520633348187,1.3398588852331565
1503683579797,+0.177,+0.286,-0.546,-0.767,+0.961,-0.503,-0.412,-58.250,-24.625,+27.875,12, 5, 0, -1, -3, -2, -2, 2,-0.6464042325946454,1.3203374271568271
1503683579819,+0.168,+0.284,-0.553,-0.765,+0.976,-0.311,+0.022,-45.625,+36.875,+12.062,-2, -4, -3, 2, 25, -2, 0, 0,-0.6306684862484904,1.334140274241655
1503683579841,+0.161,+0.280,-0.559,-0.763,+1.078,-0.255,-0.004,-48.875,+27.125,+7.750,-8, 0, -1, -4, -4, 1, 0, 1,-0.614764451103424,1.3434158852215816
1503683579859,+0.154,+0.276,-0.565,-0.762,+1.172,-0.317,-0.030,-50.125,+24.438,+10.812,-12, 14, 2, -2, -8, -2, -1, -2,-0.5992494817621055,1.3531745082246789
1503683579879,+0.148,+0.271,-0.570,-0.762,+1.143,-0.267,-0.081,-50.062,+19.812,+1.438,6, -7, -3, -1, -4, -1, -1, 1,-0.5836719550594769,1.3597199787125973
1503683579901,+0.148,+0.263,-0.573,-0.762,+1.089,-0.151,-0.120,-37.250,+3.875,-20.250,-1, -3, 1, 3, -3, 0, -4, -5,-0.5723635096631011,1.358500158227505
1503683579917,+0.149,+0.258,-0.574,-0.763,+1.036,-0.167,-0.118,-23.000,-8.688,-19.875,7, -2, -2, 1, -9, -1, -4, -4,-0.5668745911026906,1.3559462448261403
1503683579939,+0.148,+0.255,-0.574,-0.764,+0.945,-0.270,-0.068,-21.875,-8.000,-5.375,-1, -2, 0, 20, 27, 0, 1, 0,-0.5608117174605128,1.352807983873309
1503683579962,+0.146,+0.253,-0.572,-0.767,+0.895,-0.286,-0.071,-22.062,-26.938,+3.938,9, 2, -5, -8, -10, -3, -1, 4,-0.5542977828282538,1.3459168232624115
1503683579977,+0.144,+0.249,-0.566,-0.773,+0.835,-0.240,-0.240,-30.688,-43.688,+0.562,1, 1, 0, -2, -6, -1, 0, 1,-0.5437402140587424,1.3272109031144343
1503683579999,+0.141,+0.242,-0.562,-0.778,+0.681,-0.229,-0.340,-41.625,-24.312,-2.438,-1, -1, 1, -1, -3, -1, 0, 0,-0.5277113927317737,1.3103988807327585
1503683580021,+0.137,+0.237,-0.563,-0.780,+0.922,-0.185,-0.187,-42.812,+3.562,+5.875,1, -1, -1, 3, 0, -1, -2, 0,-0.5145200716348464,1.3080184033705564
1503683580037,+0.133,+0.232,-0.562,-0.783,+1.117,-0.192,-0.155,-40.250,-21.438,+4.500,1, 4, 0, 1, -4, -1, -2, -3,-0.5007895778333946,1.300784412340218
1503683580060,+0.134,+0.226,-0.558,-0.787,+1.065,-0.202,-0.171,-29.062,-40.438,-12.062,-1, 1, -2, -1, 5, 0, 1, 0,-0.49305288585168006,1.2857404881731294
1503683580080,+0.137,+0.221,-0.553,-0.792,+0.938,-0.220,-0.207,-23.125,-51.000,-20.938,3, 1, 0, 2, 5, 1, 0, 0,-0.49015356739905314,1.269817452584845
1503683580098,+0.138,+0.214,-0.550,-0.795,+0.962,-0.180,-0.250,-26.938,-35.375,-17.875,-4, -4, -3, -4, -7, 0, 1, 0,-0.48155538083704463,1.256564718359904
1503683580119,+0.139,+0.209,-0.548,-0.798,+1.048,-0.136,-0.269,-27.312,-22.500,-14.250,-3, 0, -1, 8, 8, 1, -2, -1,-0.4762987144548115,1.2479590120163604
1503683580140,+0.140,+0.204,-0.548,-0.799,+1.074,-0.068,-0.257,-18.875,-16.375,-8.688,-1, -2, -1, -7, -2, -1, -1, 0,-0.47138432828118426,1.2440192176901448
1503683580158,+0.141,+0.201,-0.544,-0.802,+0.988,-0.089,-0.295,-9.625,-26.812,-0.688,-1, 0, 0, -1, -2, 2, -2, -1,-0.4683069609411142,1.2321233726453105
1503683580178,+0.141,+0.201,-0.541,-0.805,+0.884,-0.138,-0.331,-3.625,-23.125,+5.188,2, -1, 1, 3, 3, -2, -1, -1,-0.467980955754292,1.225367784513022
1503683580202,+0.139,+0.200,-0.538,-0.807,+0.825,-0.161,-0.328,-6.000,-9.938,+10.062,1, -2, -1, 6, 3, -1, 0, -1,-0.46261866730344564,1.2171237775866595
1503683580217,+0.137,+0.201,-0.537,-0.807,+0.893,-0.163,-0.299,-6.125,-2.125,+17.875,1, -2, -2, -6, 6, 1, 2, 1,-0.4601590269904011,1.2150840698152223
1503683580239,+0.134,+0.203,-0.537,-0.808,+1.004,-0.176,-0.273,-1.750,-1.938,+17.312,3, 1, -1, -5, -4, -3, 0, -3,-0.4579431503020948,1.2167679454698817
1503683580262,+0.134,+0.204,-0.536,-0.808,+1.008,-0.181,-0.270,+3.312,-9.812,+11.438,-3, 4, 6, 5, 0, 1, -3, -1,-0.45891743722832135,1.2150204129274382
1503683580277,+0.133,+0.206,-0.534,-0.810,+0.949,-0.186,-0.294,+5.062,-12.750,+9.562,-15, 14, 13, 5, 1, 3, -2, 0,-0.4596320822932181,1.212156711002206
1503683580300,+0.133,+0.207,-0.531,-0.811,+0.893,-0.211,-0.294,+3.188,-14.312,+8.938,7, -4, -8, -1, 1, -1, -6, -1,-0.4600896904237544,1.205582331724697
1503683580321,+0.133,+0.208,-0.529,-0.812,+0.930,-0.219,-0.315,+2.188,-13.250,+6.812,7, -6, -3, 3, -1, -1, 4, 2,-0.460918904918133,1.2016344257722529
1503683580337,+0.133,+0.208,-0.527,-0.813,+0.919,-0.204,-0.329,+1.875,-10.062,+2.438,3, 18, 1, -2, -1, 0, 0, 1,-0.46040170562636956,1.1968065980102216
1503683580361,+0.133,+0.209,-0.526,-0.814,+0.886,-0.185,-0.340,+1.938,-3.375,+2.750,-11, -11, -5, -1, -2, 2, 3, -2,-0.4616046270039366,1.1954837367664424
1503683580381,+0.133,+0.210,-0.526,-0.814,+0.901,-0.183,-0.315,+2.688,+1.875,+5.188,0, -5, -4, 1, -1, -3, 1, -2,-0.4629472445970447,1.1963787335837257
1503683580397,+0.133,+0.211,-0.526,-0.813,+0.958,-0.186,-0.316,+6.938,+4.125,+6.750,-4, 0, -1, 0, 0, -1, -1, -2,-0.46404954741863513,1.1968855550557949
1503683580419,+0.133,+0.213,-0.526,-0.812,+0.972,-0.203,-0.311,+10.188,+2.500,+3.688,4, 0, -4, -5, -1, -4, 1, 0,-0.4665052194351244,1.1983057590694994
1503683580441,+0.133,+0.215,-0.526,-0.812,+0.930,-0.213,-0.289,+8.562,-0.812,+4.875,0, 7, -3, -4, -4, -5, -5, -2,-0.46921439848071334,1.2001345342545302
1503683580457,+0.133,+0.217,-0.525,-0.812,+0.910,-0.199,-0.295,+5.000,-3.125,+8.562,-5, 6, -3, -2, 1, 1, 1, 1,-0.47153858050224706,1.1993728085197741
1503683580479,+0.132,+0.218,-0.524,-0.812,+0.929,-0.197,-0.314,+5.375,-3.688,+12.562,-11, 12, 0, -3, -1, -3, -3, -2,-0.47077516346884063,1.1975327354234098
1503683580501,+0.131,+0.220,-0.523,-0.813,+0.929,-0.213,-0.323,+7.812,-0.938,+11.562,4, -14, -6, -2, 0, -4, 2, 0,-0.4716139421018942,1.1970230559411221
1503683580517,+0.131,+0.223,-0.523,-0.812,+0.891,-0.213,-0.319,+9.000,+1.438,+9.125,5, 7, 3, 2, -2, 0, -1, -1,-0.47548303820678445,1.1994656934916892
1503683580539,+0.130,+0.225,-0.523,-0.812,+0.883,-0.224,-0.307,+7.250,+4.000,+11.250,3, -5, -2, -4, -3, 1, -2, 0,-0.47650776465171457,1.2012084337972828
1503683580562,+0.128,+0.227,-0.523,-0.812,+0.906,-0.234,-0.290,+3.875,+6.688,+13.875,-4, -2, 0, 0, -1, 4, -1, 1,-0.4758172536093525,1.2027977753703931
