Timestamp,Orientation X,Orientation Y,Orientation Z,Orientation W,Accelerometer X,Accelerometer Y,Accelerometer Z,Gyroscope X,Gyroscope Y,Gyroscope Z,EMG1,EMG2,EMG3,EMG4,EMG5,EMG6,EMG7,EMG8,Roll,Yaw
1503954634615,+0.984,+0.086,-0.057,+0.146,+0.171,+0.138,-0.966,-0.750,+0.125,-0.062,8, -1, 0, 0, -1, 2, 1, 1,2.8577400959233037,0.15467811831892192
1503954634640,+0.984,+0.086,-0.057,+0.146,+0.171,+0.136,-0.972,-1.062,+1.062,+0.000,-1, 1, -2, -1, 0, -2, -2, -4,2.8577400959233037,0.15467811831892192
1503954634652,+0.984,+0.086,-0.057,+0.146,+0.178,+0.139,-0.967,-1.812,+0.438,+0.312,1, 0, -1, 0, -1, -2, -1, -6,2.8577400959233037,0.15467811831892192
1503954634680,+0.984,+0.086,-0.057,+0.146,+0.183,+0.143,-0.961,-1.562,-0.062,+0.188,-2, 4, 2, 1, 0, -1, -1, 2,2.8577400959233037,0.15467811831892192
1503954634696,+0.984,+0.086,-0.057,+0.146,+0.172,+0.139,-0.961,-1.250,-0.125,-0.062,-14, -3, -1, -1, -3, 1, 0, 1,2.8577400959233037,0.15467811831892192
1503954634722,+0.984,+0.086,-0.057,+0.146,+0.173,+0.146,-0.968,-1.438,-0.938,+0.062,5, 1, 0, -1, 2, 1, -1, -2,2.8577400959233037,0.15467811831892192
1503954634735,+0.984,+0.086,-0.057,+0.146,+0.165,+0.143,-0.966,-1.188,+0.188,+0.312,13, 2, -2, 1, 0, -1, -3, 3,2.8577400959233037,0.15467811831892192
1503954634756,+0.984,+0.086,-0.057,+0.146,+0.168,+0.143,-0.968,-1.500,-0.750,+0.375,-1, 2, 0, 0, -2, -1, 0, -3,2.8577400959233037,0.15467811831892192
1503954634773,+0.984,+0.086,-0.057,+0.146,+0.167,+0.141,-0.962,-1.188,-0.312,+0.438,0, -1, -1, -1, -1, 1, 1, -4,2.8577400959233037,0.15467811831892192
1503954634794,+0.984,+0.086,-0.057,+0.146,+0.170,+0.133,-0.964,-1.375,+0.250,+0.438,-4, -1, -2, -3, -1, -2, -1, -1,2.8577400959233037,0.15467811831892192
1503954634818,+0.984,+0.087,-0.057,+0.146,+0.177,+0.145,-0.966,-1.312,+0.875,+0.062,1, -3, 0, 1, -1, -1, 0, 2,2.8579482530134506,0.1566950924492986
1503954634832,+0.984,+0.087,-0.056,+0.146,+0.169,+0.139,-0.961,-1.062,+0.938,+0.312,-3, -1, 1, 2, 1, -2, -1, -1,2.857779740932867,0.15695060553584278
1503954634856,+0.984,+0.087,-0.056,+0.146,+0.175,+0.136,-0.961,-1.312,+0.500,+0.438,6, -1, -1, -4, -3, 6, 3, -3,2.857779740932867,0.15695060553584278
1503954634876,+0.984,+0.087,-0.056,+0.146,+0.181,+0.148,-0.963,-1.188,+0.312,+0.500,0, 1, 1, 0, 0, -2, 0, -4,2.857779740932867,0.15695060553584278
1503954634893,+0.984,+0.087,-0.056,+0.146,+0.181,+0.145,-0.968,-1.062,-0.125,+0.062,-4, -1, -1, -1, -1, -2, -2, -1,2.857779740932867,0.15695060553584278
1503954634914,+0.984,+0.087,-0.056,+0.146,+0.174,+0.143,-0.960,-1.125,-0.562,+0.125,-9, -2, 0, -1, -1, 0, -3, 1,2.857779740932867,0.15695060553584278
1503954634936,+0.984,+0.087,-0.056,+0.146,+0.179,+0.143,-0.960,-0.938,-0.875,+0.312,3, -1, 0, 1, 0, 0, -2, -4,2.857779740932867,0.15695060553584278
1503954634953,+0.984,+0.087,-0.056,+0.146,+0.170,+0.135,-0.973,-1.062,-1.125,-0.125,-4, -1, -1, 1, -2, 1, 1, -2,2.857779740932867,0.15695060553584278
1503954634974,+0.984,+0.087,-0.056,+0.146,+0.172,+0.138,-0.967,-1.500,-0.125,-0.250,-6, -3, -3, -4, -2, -1, -2, -2,2.857779740932867,0.15695060553584278
1503954634996,+0.984,+0.087,-0.056,+0.146,+0.171,+0.134,-0.958,-1.438,+0.188,+0.000,-2, -2, -3, -3, -1, 5, 1, 2,2.857779740932867,0.15695060553584278
1503954635012,+0.984,+0.087,-0.056,+0.146,+0.169,+0.150,-0.965,-1.062,-0.688,+0.312,-8, -2, 0, 2, -1, 1, 1, -4,2.857779740932867,0.15695060553584278
1503954635034,+0.984,+0.087,-0.056,+0.146,+0.174,+0.144,-0.971,-0.438,-1.188,+0.875,2, 2, -2, -2, 0, -5, 1, 1,2.857779740932867,0.15695060553584278
1503954635057,+0.984,+0.087,-0.056,+0.146,+0.170,+0.138,-0.967,-1.188,+0.312,+0.250,-14, -4, -1, -2, 0, -1, -3, -2,2.857779740932867,0.15695060553584278
1503954635072,+0.984,+0.087,-0.056,+0.146,+0.177,+0.144,-0.965,-1.375,+0.688,+0.062,1, -2, 2, 0, 0, -2, 0, 0,2.857779740932867,0.15695060553584278
1503954635094,+0.984,+0.087,-0.056,+0.146,+0.178,+0.139,-0.960,-1.250,-0.375,+0.188,-7, 0, 0, 1, 0, 1, 1, -4,2.857779740932867,0.15695060553584278
1503954635118,+0.984,+0.086,-0.056,+0.146,+0.176,+0.143,-0.955,-1.000,-1.625,+0.750,0, 0, -3, -2, -1, 0, 0, 3,2.857573480321119,0.15493416875579602
1503954635133,+0.984,+0.086,-0.056,+0.146,+0.174,+0.140,-0.973,-0.500,-1.625,+0.438,-27, -7, -5, -3, -2, -3, -5, -14,2.857573480321119,0.15493416875579602
1503954635157,+0.984,+0.086,-0.056,+0.146,+0.167,+0.140,-0.972,-0.812,-0.938,+0.438,12, -1, -2, -2, -2, -2, -2, -2,2.857573480321119,0.15493416875579602
1503954635176,+0.984,+0.086,-0.056,+0.146,+0.167,+0.141,-0.965,-1.062,-0.062,+0.125,-8, 2, 0, -2, -1, -3, -2, 1,2.857573480321119,0.15493416875579602
1503954635192,+0.984,+0.086,-0.056,+0.146,+0.167,+0.138,-0.964,-1.438,+0.500,+0.438,7, -1, -1, 0, 1, 0, -1, 8,2.857573480321119,0.15493416875579602
1503954635214,+0.984,+0.086,-0.056,+0.146,+0.174,+0.140,-0.960,-1.188,+0.375,+0.625,11, 0, -2, -1, -1, 0, -3, 5,2.857573480321119,0.15493416875579602
1503954635236,+0.984,+0.086,-0.056,+0.146,+0.177,+0.142,-0.966,-0.625,-0.188,+0.688,5, 0, 0, 1, -2, 0, 1, -1,2.857573480321119,0.15493416875579602
1503954635252,+0.984,+0.086,-0.056,+0.146,+0.169,+0.144,-0.967,-0.750,-0.188,+0.375,4, 1, -3, 0, 1, -2, -2, -2,2.857573480321119,0.15493416875579602
1503954635274,+0.984,+0.086,-0.056,+0.146,+0.167,+0.136,-0.972,-0.875,-0.375,+0.188,3, 0, 1, -1, -1, 0, 2, 1,2.857573480321119,0.15493416875579602
1503954635296,+0.984,+0.086,-0.056,+0.146,+0.177,+0.139,-0.972,-1.500,+0.250,+0.312,-1, -1, 0, -2, -1, 3, 5, 0,2.857573480321119,0.15493416875579602
1503954635312,+0.984,+0.086,-0.056,+0.146,+0.180,+0.143,-0.960,-1.562,-0.438,+0.375,8, 1, -1, -1, 0, 2, 0, 1,2.857573480321119,0.15493416875579602
1503954635335,+0.984,+0.086,-0.056,+0.146,+0.167,+0.145,-0.964,-1.250,-0.438,+0.375,-1, -1, -1, -1, -1, 0, 1, 3,2.857573480321119,0.15493416875579602
1503954635364,+0.984,+0.086,-0.056,+0.146,+0.164,+0.142,-0.966,-0.625,-0.438,-0.125,-11, 0, -2, -1, 1, 0, -4, -1,2.857573480321119,0.15493416875579602
1503954635374,+0.984,+0.086,-0.056,+0.146,+0.169,+0.140,-0.967,-0.625,+0.438,+0.312,15, -1, -1, -1, 0, -2, -1, -3,2.857573480321119,0.15493416875579602
1503954635395,+0.984,+0.086,-0.056,+0.146,+0.171,+0.140,-0.962,-1.250,-0.125,+0.188,-4, 0, 0, 1, 1, -2, -2, 1,2.857573480321119,0.15493416875579602
1503954635416,+0.984,+0.086,-0.056,+0.146,+0.168,+0.140,-0.972,-1.125,+0.250,+0.500,1, -1, -1, -3, -2, -1, -3, -6,2.857573480321119,0.15493416875579602
1503954635432,+0.984,+0.086,-0.056,+0.146,+0.171,+0.141,-0.969,-1.375,+0.062,+0.250,-1, 1, 1, 1, -2, -12, -10, -2,2.857573480321119,0.15493416875579602
1503954635454,+0.984,+0.086,-0.056,+0.146,+0.165,+0.136,-0.964,-1.312,+0.750,+0.125,1, -2, -2, -4, -1, 2, 2, -1,2.857573480321119,0.15493416875579602
1503954635476,+0.984,+0.086,-0.055,+0.146,+0.176,+0.133,-0.969,-1.438,+0.750,+0.625,-6, 1, -1, 0, -1, 0, 2, -1,2.857406880924693,0.15519070437441523
1503954635492,+0.984,+0.086,-0.055,+0.146,+0.178,+0.145,-0.971,-1.562,-0.188,+0.562,1, -2, -1, -2, -1, 0, 0, 2,2.857406880924693,0.15519070437441523
1503954635514,+0.984,+0.086,-0.055,+0.146,+0.174,+0.144,-0.961,-1.188,+0.125,+0.125,-1, -2, -1, -1, -1, 0, 1, 0,2.857406880924693,0.15519070437441523
1503954635536,+0.984,+0.086,-0.055,+0.146,+0.178,+0.145,-0.958,-1.125,+0.875,-0.500,-1, -1, 0, -2, -2, 0, 2, 1,2.857406880924693,0.15519070437441523
1503954635554,+0.984,+0.086,-0.055,+0.146,+0.184,+0.142,-0.964,-0.250,-0.125,-0.625,-32, -3, -1, 0, -1, 0, 1, -13,2.857406880924693,0.15519070437441523
1503954635574,+0.984,+0.086,-0.055,+0.146,+0.176,+0.138,-0.974,-0.438,-1.750,+0.062,-2, 0, 0, 1, 2, 0, -2, 4,2.857406880924693,0.15519070437441523
1503954635597,+0.984,+0.086,-0.055,+0.146,+0.171,+0.135,-0.970,-1.062,-1.812,+0.188,5, -3, -1, -1, -1, 1, 0, -2,2.857406880924693,0.15519070437441523
1503954635613,+0.984,+0.086,-0.055,+0.146,+0.169,+0.131,-0.972,-1.438,-0.688,+0.125,-2, -3, -2, 0, -1, -1, -3, -3,2.857406880924693,0.15519070437441523
1503954635634,+0.984,+0.086,-0.055,+0.146,+0.169,+0.143,-0.957,-2.000,+0.062,+0.062,1, 0, -2, -3, 0, -1, 1, 2,2.857406880924693,0.15519070437441523
1503954635656,+0.984,+0.086,-0.055,+0.146,+0.170,+0.144,-0.966,-1.062,-0.312,+0.312,2, 1, -2, -2, -1, 1, -2, -2,2.857406880924693,0.15519070437441523
1503954635673,+0.984,+0.086,-0.055,+0.146,+0.169,+0.138,-0.966,-0.688,+0.000,+0.375,-4, -1, 0, 0, -1, -2, -1, -1,2.857406880924693,0.15519070437441523
1503954635695,+0.984,+0.086,-0.055,+0.146,+0.178,+0.142,-0.973,-1.062,-0.188,+0.250,-2, -3, 0, 1, 1, 2, 0, -4,2.857406880924693,0.15519070437441523
1503954635716,+0.984,+0.086,-0.055,+0.146,+0.178,+0.138,-0.968,-1.000,-0.125,+0.312,6, 1, -1, 0, 1, -2, 1, -4,2.857406880924693,0.15519070437441523
1503954635733,+0.984,+0.086,-0.055,+0.146,+0.174,+0.147,-0.963,-1.125,-1.250,+0.625,1, 0, 1, -3, 1, 0, -2, 4,2.857406880924693,0.15519070437441523
1503954635757,+0.984,+0.086,-0.055,+0.146,+0.174,+0.138,-0.955,-0.812,-1.312,+0.375,-1, 1, 0, -2, -3, 0, 1, 3,2.857406880924693,0.15519070437441523
1503954635777,+0.984,+0.086,-0.055,+0.146,+0.170,+0.143,-0.971,-0.375,-1.250,+0.500,5, 4, 3, 2, 0, -2, 1, 4,2.857406880924693,0.15519070437441523
1503954635793,+0.984,+0.086,-0.055,+0.146,+0.171,+0.136,-0.967,-1.000,-1.062,+0.312,0, -1, -1, 1, -1, 1, -2, -2,2.857406880924693,0.15519070437441523
1503954635815,+0.984,+0.086,-0.055,+0.146,+0.166,+0.142,-0.966,-1.375,-0.250,+0.188,7, -1, -3, -1, -1, -3, -3, -2,2.857406880924693,0.15519070437441523
1503954635837,+0.984,+0.086,-0.055,+0.146,+0.174,+0.140,-0.966,-1.688,+0.500,+0.250,-3, -2, 1, -1, 0, 1, 1, -3,2.857406880924693,0.15519070437441523
1503954635852,+0.984,+0.086,-0.055,+0.146,+0.172,+0.150,-0.965,-1.188,+0.062,+0.188,3, 0, 0, -1, -2, -4, -1, 1,2.857406880924693,0.15519070437441523
1503954635874,+0.984,+0.086,-0.055,+0.146,+0.172,+0.139,-0.962,-0.500,+0.062,+0.188,-5, 1, 1, -1, 0, -1, -2, 4,2.857406880924693,0.15519070437441523
1503954635897,+0.984,+0.086,-0.055,+0.146,+0.173,+0.141,-0.971,-0.938,-0.375,+0.375,10, -3, -2, -2, -1, -2, -2, -3,2.857406880924693,0.15519070437441523
1503954635912,+0.984,+0.086,-0.055,+0.146,+0.173,+0.140,-0.967,-1.312,+0.062,+0.188,1, 0, -1, -2, -2, -1, -2, 1,2.857406880924693,0.15519070437441523
1503954635934,+0.984,+0.086,-0.055,+0.146,+0.172,+0.138,-0.974,-1.625,-0.062,+0.250,1, 2, 0, -1, -1, -3, 0, 3,2.857406880924693,0.15519070437441523
1503954635957,+0.984,+0.086,-0.055,+0.146,+0.174,+0.134,-0.956,-1.375,+0.000,-0.125,-4, -1, 0, 1, -2, 2, 0, 2,2.857406880924693,0.15519070437441523
1503954635972,+0.984,+0.086,-0.055,+0.146,+0.175,+0.143,-0.963,-1.375,-0.750,-0.062,0, 1, 0, -3, 0, -2, -1, -2,2.857406880924693,0.15519070437441523
1503954635995,+0.984,+0.085,-0.055,+0.146,+0.174,+0.138,-0.965,-0.938,-1.625,+0.312,-2, -2, -1, 1, 0, 1, 0, 2,2.85720352490018,0.15317556581019368
1503954636016,+0.984,+0.085,-0.055,+0.146,+0.163,+0.144,-0.966,-0.875,-0.688,+0.125,-8, -2, -1, -1, -2, 0, 1, -2,2.85720352490018,0.15317556581019368
1503954636032,+0.984,+0.085,-0.055,+0.146,+0.167,+0.146,-0.970,-0.812,-0.562,+0.062,-10, -2, -1, -1, -3, -9, -10, -3,2.85720352490018,0.15317556581019368
1503954636054,+0.984,+0.085,-0.055,+0.146,+0.165,+0.139,-0.971,-1.188,+0.250,+0.500,-7, -3, -2, -1, 0, 4, 3, 0,2.85720352490018,0.15317556581019368
1503954636077,+0.984,+0.085,-0.055,+0.146,+0.161,+0.138,-0.981,-1.438,+0.500,+0.562,3, -2, 0, -2, -2, 1, -1, -4,2.85720352490018,0.15317556581019368
1503954636095,+0.984,+0.085,-0.055,+0.146,+0.169,+0.135,-0.966,-2.062,+1.625,+0.500,1, 0, -2, -1, 0, 0, 0, -3,2.85720352490018,0.15317556581019368
1503954636115,+0.984,+0.086,-0.055,+0.146,+0.181,+0.146,-0.959,-1.875,+1.562,+0.625,2, -1, -3, 1, 0, -1, 2, 0,2.857406880924693,0.15519070437441523
1503954636136,+0.984,+0.086,-0.055,+0.146,+0.185,+0.148,-0.957,-1.125,+0.812,+0.625,9, 1, -1, 0, 0, 0, -2, 0,2.857406880924693,0.15519070437441523
1503954636153,+0.984,+0.086,-0.055,+0.146,+0.183,+0.147,-0.959,-0.562,-0.750,+0.188,-31, -3, 0, -1, -1, 1, -2, -2,2.857406880924693,0.15519070437441523
1503954636174,+0.984,+0.086,-0.055,+0.146,+0.176,+0.147,-0.966,-0.438,-1.000,-0.062,14, 1, -2, -1, -1, -2, -1, -3,2.857406880924693,0.15519070437441523
1503954636196,+0.984,+0.086,-0.055,+0.146,+0.169,+0.140,-0.972,-0.812,-1.062,-0.125,-1, 1, -2, -2, 0, -3, -2, -3,2.857406880924693,0.15519070437441523
1503954636213,+0.984,+0.086,-0.055,+0.146,+0.163,+0.136,-0.967,-1.500,-1.562,-0.062,1, -1, -2, -1, -3, 0, -1, 0,2.857406880924693,0.15519070437441523
1503954636234,+0.984,+0.086,-0.055,+0.146,+0.163,+0.143,-0.966,-1.688,+0.062,+0.250,17, 2, 0, -3, -1, -3, 0, 3,2.857406880924693,0.15519070437441523
1503954636259,+0.984,+0.086,-0.055,+0.146,+0.168,+0.142,-0.963,-0.812,+0.375,-0.062,7, -1, -1, -1, 1, -1, 2, 3,2.857406880924693,0.15519070437441523
1503954636273,+0.984,+0.086,-0.055,+0.146,+0.172,+0.139,-0.963,-0.625,+0.500,+0.062,-1, -4, -2, 0, -2, 0, -1, 0,2.857406880924693,0.15519070437441523
1503954636295,+0.984,+0.086,-0.055,+0.146,+0.175,+0.140,-0.966,-0.562,+0.312,+0.375,-3, 0, -2, 0, -1, 1, -4, 0,2.857406880924693,0.15519070437441523
1503954636317,+0.984,+0.086,-0.055,+0.146,+0.176,+0.140,-0.969,-0.812,-0.062,+0.312,-1, 1, 2, 0, 0, -2, 0, -1,2.857406880924693,0.15519070437441523
1503954636332,+0.984,+0.086,-0.055,+0.146,+0.177,+0.142,-0.965,-1.125,+0.312,+0.312,1, -2, -1, 0, 0, 0, 2, -1,2.857406880924693,0.15519070437441523
1503954636355,+0.984,+0.086,-0.055,+0.146,+0.176,+0.143,-0.962,-1.000,-0.500,+0.188,-3, -2, -1, -1, 0, -1, 0, -1,2.857406880924693,0.15519070437441523
1503954636377,+0.984,+0.086,-0.055,+0.146,+0.167,+0.142,-0.967,-0.875,-1.188,+0.188,-3, 0, 0, -3, -2, 5, 4, -2,2.857406880924693,0.15519070437441523
1503954636402,+0.984,+0.086,-0.055,+0.146,+0.167,+0.141,-0.966,-0.875,-0.562,+0.438,2, -3, -2, -1, -2, -3, 0, 1,2.857406880924693,0.15519070437441523
1503954636415,+0.984,+0.086,-0.055,+0.146,+0.167,+0.140,-0.962,-0.562,-0.062,+0.312,-6, -2, -1, 0, -2, -1, 0, -2,2.857406880924693,0.15519070437441523
1503954636437,+0.984,+0.086,-0.055,+0.146,+0.170,+0.136,-0.968,-1.375,-0.312,+0.625,4, -1, -1, -2, -1, -4, -3, -8,2.857406880924693,0.15519070437441523
1503954636452,+0.984,+0.086,-0.055,+0.146,+0.170,+0.143,-0.966,-0.938,+1.438,+0.375,0, 1, 0, -2, 0, -1, -3, 3,2.857406880924693,0.15519070437441523
1503954636476,+0.984,+0.086,-0.055,+0.146,+0.175,+0.140,-0.960,-1.312,+1.125,+0.188,-3, -1, -1, 0, -2, -3, -2, -2,2.857406880924693,0.15519070437441523
1503954636497,+0.984,+0.086,-0.055,+0.146,+0.181,+0.144,-0.959,-0.938,+0.562,+0.375,1, 2, 1, -2, 1, 1, -1, 6,2.857406880924693,0.15519070437441523
1503954636514,+0.984,+0.086,-0.055,+0.146,+0.175,+0.141,-0.959,-0.812,-0.875,+0.500,1, 0, 0, -1, -1, -3, -1, -3,2.857406880924693,0.15519070437441523
1503954636542,+0.984,+0.086,-0.054,+0.146,+0.167,+0.133,-0.970,-0.875,-0.312,-0.062,-4, -1, -2, 1, -2, -1, 0, -1,2.857240297740909,0.15544772782086078
1503954636566,+0.984,+0.086,-0.054,+0.146,+0.168,+0.136,-0.970,-1.312,+0.812,-0.125,-5, -2, 0, 0, 1, 0, 0, 2,2.857240297740909,0.15544772782086078
1503954636572,+0.984,+0.086,-0.054,+0.146,+0.174,+0.142,-0.963,-1.438,+0.562,-0.188,-1, -1, -1, 0, 0, 0, -2, -2,2.857240297740909,0.15544772782086078
1503954636595,+0.984,+0.086,-0.054,+0.146,+0.174,+0.136,-0.969,-1.000,-0.500,+0.562,3, 0, 1, 0, 0, -1, -1, -4,2.857240297740909,0.15544772782086078
1503954636617,+0.984,+0.086,-0.054,+0.146,+0.174,+0.136,-0.969,-1.438,-0.812,+0.562,1, -4, -3, -1, -1, 1, -3, -4,2.857240297740909,0.15544772782086078
1503954636633,+0.984,+0.086,-0.054,+0.146,+0.174,+0.139,-0.970,-1.562,+0.750,+0.062,-16, -1, -1, 0, -1, 0, 2, -1,2.857240297740909,0.15544772782086078
1503954636655,+0.984,+0.086,-0.054,+0.146,+0.173,+0.146,-0.961,-1.000,+0.062,+0.062,-1, -1, -3, -2, 1, 0, 1, -4,2.857240297740909,0.15544772782086078
1503954636677,+0.984,+0.086,-0.054,+0.146,+0.173,+0.142,-0.957,-0.875,-1.062,+0.562,6, 0, 1, 0, 0, -3, -1, -1,2.857240297740909,0.15544772782086078
1503954636692,+0.984,+0.086,-0.054,+0.146,+0.162,+0.139,-0.977,-0.875,-0.375,+0.625,3, 0, -1, -2, -1, -1, -1, -4,2.857240297740909,0.15544772782086078
1503954636715,+0.984,+0.086,-0.054,+0.146,+0.169,+0.134,-0.975,-1.562,+1.438,+0.125,-2, -2, -2, 0, -1, -1, -2, 2,2.857240297740909,0.15544772782086078
1503954636738,+0.984,+0.087,-0.054,+0.146,+0.177,+0.139,-0.960,-2.000,+1.500,-0.125,3, -3, 0, 0, 0, -2, -3, -3,2.857442766470976,0.15746311413358696
1503954636752,+0.984,+0.087,-0.054,+0.146,+0.181,+0.142,-0.965,-1.625,+0.250,+0.500,-23, -1, -2, 0, -1, -1, 0, -6,2.857442766470976,0.15746311413358696
1503954636775,+0.984,+0.087,-0.054,+0.146,+0.174,+0.144,-0.957,-1.250,-0.250,+0.562,2, -1, -1, 0, -1, 1, 0, 5,2.857442766470976,0.15746311413358696
1503954636797,+0.984,+0.087,-0.054,+0.146,+0.175,+0.145,-0.962,-0.812,-0.312,+0.000,2, 2, 0, -1, 0, 2, -2, -6,2.857442766470976,0.15746311413358696
1503954636812,+0.984,+0.087,-0.054,+0.146,+0.178,+0.137,-0.961,-0.438,+0.062,-0.125,8, 2, -1, -1, -2, -3, -1, 8,2.857442766470976,0.15746311413358696
1503954636835,+0.984,+0.087,-0.054,+0.146,+0.177,+0.136,-0.963,-0.625,-0.625,-0.125,-7, -1, -1, -2, 0, -2, 1, 2,2.857442766470976,0.15746311413358696
1503954636857,+0.984,+0.087,-0.054,+0.146,+0.170,+0.132,-0.976,-1.312,-0.812,+0.250,7, -1, -1, -2, -3, 1, 2, 1,2.857442766470976,0.15746311413358696
1503954636873,+0.984,+0.087,-0.054,+0.146,+0.170,+0.136,-0.970,-1.938,-0.062,+0.000,-2, -1, 1, -1, -1, -1, 0, -3,2.857442766470976,0.15746311413358696
1503954636897,+0.984,+0.087,-0.054,+0.146,+0.174,+0.138,-0.961,-1.875,+0.375,-0.125,-4, -2, -1, -1, 0, 2, 0, 3,2.857442766470976,0.15746311413358696
1503954636917,+0.984,+0.087,-0.054,+0.146,+0.172,+0.146,-0.969,-1.500,+0.125,+0.500,7, 2, 1, -1, 0, -3, 1, 3,2.857442766470976,0.15746311413358696
1503954636932,+0.984,+0.087,-0.054,+0.146,+0.171,+0.144,-0.957,-0.812,-0.438,+0.250,4, -2, -1, 0, -1, -3, -1, -3,2.857442766470976,0.15746311413358696
1503954636955,+0.984,+0.087,-0.054,+0.146,+0.167,+0.143,-0.961,-0.500,+0.688,+0.062,-3, -2, -1, -2, -2, 4, 1, -3,2.857442766470976,0.15746311413358696
1503954636977,+0.984,+0.087,-0.054,+0.146,+0.179,+0.138,-0.964,-0.812,-0.062,+0.000,-2, 1, 0, -3, 0, -1, 0, -1,2.857442766470976,0.15746311413358696
1503954636992,+0.984,+0.086,-0.054,+0.146,+0.181,+0.139,-0.969,-1.062,-1.688,+0.438,7, 0, -1, -2, -1, 0, -2, 6,2.857240297740909,0.15544772782086078
1503954637015,+0.984,+0.086,-0.054,+0.146,+0.167,+0.139,-0.962,-1.438,-1.750,+0.438,13, 0, 2, 0, 0, 1, 2, 1,2.857240297740909,0.15544772782086078
1503954637037,+0.984,+0.086,-0.054,+0.146,+0.169,+0.146,-0.958,-1.250,-0.562,+0.188,-4, -1, 1, -1, 0, 0, 0, -1,2.857240297740909,0.15544772782086078
1503954637052,+0.984,+0.086,-0.054,+0.146,+0.171,+0.141,-0.965,-0.625,-0.312,+0.188,-2, -3, -1, -1, -2, 2, 3, 2,2.857240297740909,0.15544772782086078
1503954637075,+0.984,+0.086,-0.054,+0.146,+0.166,+0.138,-0.965,-0.688,-1.125,+0.875,-9, -3, -1, -1, -1, -2, -3, -4,2.857240297740909,0.15544772782086078
1503954637099,+0.984,+0.086,-0.054,+0.146,+0.171,+0.133,-0.966,-0.750,-0.062,+0.875,-8, -1, 0, 0, -1, -3, -1, -4,2.857240297740909,0.15544772782086078
1503954637112,+0.984,+0.086,-0.054,+0.146,+0.173,+0.141,-0.975,-1.688,+0.562,+0.500,-17, 0, 1, 1, 0, -1, -1, 4,2.857240297740909,0.15544772782086078
1503954637136,+0.984,+0.086,-0.054,+0.146,+0.178,+0.143,-0.963,-1.438,+0.250,+0.188,4, 0, -3, -2, -2, -1, -1, -4,2.857240297740909,0.15544772782086078
1503954637157,+0.984,+0.086,-0.054,+0.146,+0.173,+0.142,-0.962,-1.562,-0.312,+0.375,1, -1, -1, -1, 2, 0, -4, 0,2.857240297740909,0.15544772782086078
1503954637172,+0.984,+0.086,-0.054,+0.146,+0.171,+0.144,-0.955,-0.938,-0.812,+0.188,-5, -3, -2, -1, 0, -1, -1, -3,2.857240297740909,0.15544772782086078
1503954637195,+0.984,+0.086,-0.054,+0.146,+0.169,+0.140,-0.974,-1.062,-0.500,+0.438,-9, -2, -1, 0, -1, 7, 3, 5,2.857240297740909,0.15544772782086078
1503954637217,+0.984,+0.086,-0.054,+0.146,+0.174,+0.134,-0.959,-1.375,+0.438,+0.062,6, 3, -2, 0, 0, 0, 1, 4,2.857240297740909,0.15544772782086078
1503954637233,+0.984,+0.086,-0.054,+0.146,+0.174,+0.136,-0.958,-0.875,+0.188,-0.125,7, -2, -3, -3, -1, -2, -3, -3,2.857240297740909,0.15544772782086078
1503954637255,+0.984,+0.086,-0.054,+0.146,+0.175,+0.143,-0.970,-1.250,-0.812,+0.188,0, 0, 1, 1, 2, -2, 1, -1,2.857240297740909,0.15544772782086078
1503954637277,+0.984,+0.086,-0.054,+0.146,+0.164,+0.142,-0.954,-0.938,-1.250,+0.312,-4, -1, 0, 0, -2, -2, -1, -3,2.857240297740909,0.15544772782086078
1503954637292,+0.984,+0.086,-0.054,+0.146,+0.167,+0.141,-0.969,-1.125,-0.562,+0.375,-1, 1, 1, 0, 0, -3, -1, 0,2.857240297740909,0.15544772782086078
1503954637316,+0.984,+0.086,-0.054,+0.146,+0.170,+0.146,-0.968,-0.750,+0.062,+0.062,-1, 2, 0, -2, 0, 0, -1, -4,2.857240297740909,0.15544772782086078
1503954637338,+0.984,+0.086,-0.054,+0.146,+0.172,+0.136,-0.966,-0.688,-0.562,+0.500,-8, -5, -4, -2, -2, -1, -1, -1,2.857240297740909,0.15544772782086078
1503954637352,+0.984,+0.086,-0.054,+0.146,+0.173,+0.130,-0.980,-1.312,-0.125,+0.375,4, 0, -2, 0, 0, 0, 0, -3,2.857240297740909,0.15544772782086078
1503954637376,+0.984,+0.086,-0.054,+0.146,+0.173,+0.134,-0.958,-1.812,+0.875,+0.062,7, 0, 0, -2, -1, 1, -1, 3,2.857240297740909,0.15544772782086078
1503954637397,+0.984,+0.086,-0.054,+0.146,+0.178,+0.142,-0.966,-1.312,-0.062,+0.562,-7, -2, 0, -1, -2, -3, -1, 3,2.857240297740909,0.15544772782086078
1503954637412,+0.984,+0.086,-0.054,+0.146,+0.178,+0.145,-0.959,-1.188,-0.375,+0.812,2, 2, 0, 0, -1, -3, 0, 2,2.857240297740909,0.15544772782086078
1503954637435,+0.984,+0.086,-0.054,+0.146,+0.167,+0.146,-0.960,-0.375,-0.312,+0.125,12, -2, -2, -1, -3, -3, -2, -4,2.857240297740909,0.15544772782086078
1503954637457,+0.984,+0.086,-0.054,+0.146,+0.173,+0.141,-0.963,-0.562,+0.250,-0.250,-10, -2, -1, -1, -2, -1, 1, -1,2.857240297740909,0.15544772782086078
1503954637472,+0.984,+0.086,-0.054,+0.146,+0.173,+0.146,-0.972,-0.812,+0.062,+0.062,3, -1, 0, 0, 0, -1, 1, -5,2.857240297740909,0.15544772782086078
1503954637495,+0.984,+0.086,-0.054,+0.146,+0.171,+0.137,-0.965,-1.312,-0.812,-0.125,-11, 0, -2, -1, -1, -1, -2, 0,2.857240297740909,0.15544772782086078
1503954637516,+0.984,+0.086,-0.054,+0.146,+0.169,+0.134,-0.970,-1.312,+0.125,-0.312,-3, -2, 0, -2, 1, -2, -2, -3,2.857240297740909,0.15544772782086078
1503954637538,+0.984,+0.086,-0.054,+0.146,+0.180,+0.142,-0.970,-1.562,-1.125,+0.000,4, 2, 1, 1, -1, -1, -3, -2,2.857240297740909,0.15544772782086078
1503954637554,+0.984,+0.086,-0.054,+0.146,+0.167,+0.137,-0.954,-0.625,-1.125,+0.375,-2, -1, 1, -1, 0, -4, -4, -2,2.857240297740909,0.15544772782086078
1503954637576,+0.984,+0.086,-0.054,+0.146,+0.166,+0.140,-0.963,-0.812,-0.625,+0.188,2, 0, -1, 1, -1, 2, 0, 2,2.857240297740909,0.15544772782086078
1503954637599,+0.984,+0.086,-0.054,+0.146,+0.171,+0.141,-0.973,-0.688,+0.438,-0.062,2, -1, -1, -2, -1, -1, 1, 2,2.857240297740909,0.15544772782086078
1503954637614,+0.984,+0.086,-0.054,+0.146,+0.173,+0.135,-0.966,-1.188,+0.188,-0.062,2, -2, -1, -2, -1, -1, 1, 0,2.857240297740909,0.15544772782086078
1503954637637,+0.984,+0.086,-0.054,+0.146,+0.176,+0.141,-0.969,-1.562,-1.000,+0.562,-7, -1, -1, 0, 0, -2, 2, 2,2.857240297740909,0.15544772782086078
1503954637659,+0.984,+0.086,-0.054,+0.146,+0.174,+0.142,-0.967,-1.250,-1.812,+0.562,3, 2, 2, 1, -1, 1, -1, -1,2.857240297740909,0.15544772782086078
1503954637682,+0.984,+0.086,-0.054,+0.146,+0.165,+0.137,-0.964,-1.062,-1.125,+0.375,10, 0, -1, -1, -1, 2, -1, 2,2.857240297740909,0.15544772782086078
1503954637697,+0.984,+0.086,-0.054,+0.146,+0.166,+0.143,-0.970,-0.750,+0.125,-0.062,-3, 0, -1, 0, -2, 1, 0, -4,2.857240297740909,0.15544772782086078
1503954637719,+0.984,+0.086,-0.054,+0.146,+0.174,+0.136,-0.972,-0.812,-0.500,+0.312,-8, 0, 0, -2, 0, 1, 1, 3,2.857240297740909,0.15544772782086078
1503954637737,+0.984,+0.086,-0.054,+0.146,+0.167,+0.142,-0.968,-1.125,-0.750,+0.500,-2, -2, -2, -1, -1, 0, 1, -1,2.857240297740909,0.15544772782086078
1503954637757,+0.984,+0.086,-0.054,+0.146,+0.169,+0.135,-0.962,-1.188,+0.062,+0.562,-9, -2, 2, -1, -2, 1, 3, 1,2.857240297740909,0.15544772782086078
1503954637779,+0.984,+0.086,-0.054,+0.146,+0.173,+0.142,-0.958,-1.688,+0.500,+0.312,-2, 0, -1, -1, 0, 1, 0, -2,2.857240297740909,0.15544772782086078
1503954637794,+0.984,+0.086,-0.054,+0.146,+0.175,+0.146,-0.961,-0.938,-0.188,+0.375,6, -1, -2, 1, 0, 1, -3, 2,2.857240297740909,0.15544772782086078
1503954637816,+0.984,+0.086,-0.054,+0.146,+0.169,+0.141,-0.962,-0.812,-0.438,+0.250,-7, -4, 0, -1, -1, 2, -1, -2,2.857240297740909,0.15544772782086078
1503954637841,+0.984,+0.086,-0.054,+0.146,+0.167,+0.135,-0.967,-1.000,+0.375,+0.125,-5, -3, -3, -2, -1, 1, 0, -3,2.857240297740909,0.15544772782086078
1503954637854,+0.984,+0.086,-0.054,+0.146,+0.175,+0.143,-0.967,-1.000,+0.000,+0.312,3, 2, 0, 1, 0, -1, 0, -1,2.857240297740909,0.15544772782086078
1503954637876,+0.984,+0.086,-0.054,+0.146,+0.170,+0.134,-0.967,-1.312,-0.750,+0.125,3, 0, -2, 0, 0, -3, 0, 2,2.857240297740909,0.15544772782086078
1503954637899,+0.984,+0.086,-0.054,+0.146,+0.168,+0.143,-0.963,-1.500,-0.375,+0.062,-12, -3, 0, -1, -1, -1, -2, -3,2.857240297740909,0.15544772782086078
1503954637913,+0.984,+0.086,-0.054,+0.146,+0.171,+0.140,-0.969,-1.062,-0.438,-0.188,0, -1, -4, -1, -2, -1, 0, -2,2.857240297740909,0.15544772782086078
1503954637937,+0.984,+0.085,-0.054,+0.146,+0.164,+0.145,-0.969,-1.250,-1.188,+0.188,4, 3, 1, 3, 1, -1, -1, 1,2.8570388390049515,0.15343310915404507
1503954637959,+0.984,+0.085,-0.054,+0.146,+0.167,+0.147,-0.958,-0.875,-0.812,+0.625,17, 1, 1, -2, 1, -2, -5, 3,2.8570388390049515,0.15343310915404507
1503954637974,+0.984,+0.085,-0.054,+0.146,+0.168,+0.141,-0.969,-0.625,-0.750,+0.062,-4, 1, -2, -1, -1, 4, 2, -2,2.8570388390049515,0.15343310915404507
1503954637996,+0.984,+0.085,-0.054,+0.146,+0.168,+0.141,-0.973,-0.812,+0.188,+0.188,0, -2, 2, 0, 0, 0, 0, -1,2.8570388390049515,0.15343310915404507
1503954638019,+0.984,+0.085,-0.054,+0.146,+0.170,+0.131,-0.967,-1.125,+0.000,+0.000,4, 1, -2, -1, 0, -3, 0, -1,2.8570388390049515,0.15343310915404507
1503954638034,+0.984,+0.086,-0.054,+0.146,+0.165,+0.134,-0.969,-2.000,+1.188,+0.062,1, 0, -2, -3, 0, -1, -3, 2,2.857240297740909,0.15544772782086078
1503954638056,+0.984,+0.086,-0.054,+0.146,+0.175,+0.139,-0.966,-1.500,+1.562,+0.500,-8, -5, -1, -3, -4, 0, 0, 0,2.857240297740909,0.15544772782086078
1503954638079,+0.984,+0.086,-0.054,+0.146,+0.171,+0.142,-0.962,-1.125,+0.938,+0.312,-7, -4, 0, -1, -1, -2, 0, -2,2.857240297740909,0.15544772782086078
1503954638094,+0.984,+0.086,-0.054,+0.146,+0.172,+0.149,-0.966,-0.812,+0.312,+0.125,6, -2, -1, 0, 1, -1, -3, -6,2.857240297740909,0.15544772782086078
1503954638116,+0.984,+0.086,-0.054,+0.146,+0.181,+0.144,-0.965,-0.688,+0.000,+0.062,-3, -1, -2, -1, 0, -1, -1, -4,2.857240297740909,0.15544772782086078
1503954638139,+0.984,+0.086,-0.054,+0.146,+0.175,+0.141,-0.966,-1.000,-0.750,+0.188,4, 2, 2, 1, -2, -1, 0, 3,2.857240297740909,0.15544772782086078
1503954638155,+0.984,+0.086,-0.054,+0.146,+0.180,+0.139,-0.964,-0.938,-1.625,-0.188,-2, -2, 0, 0, 1, 1, -1, 1,2.857240297740909,0.15544772782086078
1503954638178,+0.984,+0.085,-0.054,+0.146,+0.166,+0.132,-0.976,-1.312,-1.500,-0.125,4, 1, 0, 2, -3, 1, 2, 4,2.8570388390049515,0.15343310915404507
1503954638200,+0.984,+0.085,-0.054,+0.146,+0.165,+0.140,-0.958,-1.750,-1.188,+0.188,9, 0, -2, -1, 0, -1, -1, -4,2.8570388390049515,0.15343310915404507
1503954638216,+0.984,+0.085,-0.054,+0.146,+0.161,+0.145,-0.960,-0.875,+0.312,+0.062,1, 2, 2, -2, -1, 0, 3, 1,2.8570388390049515,0.15343310915404507
1503954638236,+0.984,+0.085,-0.054,+0.146,+0.167,+0.143,-0.961,-0.938,+0.062,+0.375,-7, -2, -1, 2, 1, -2, 0, -3,2.8570388390049515,0.15343310915404507
1503954638259,+0.984,+0.085,-0.054,+0.146,+0.173,+0.140,-0.965,-0.438,+0.062,+0.188,-8, -2, -2, -2, -1, -2, 4, 0,2.8570388390049515,0.15343310915404507
1503954638274,+0.984,+0.085,-0.054,+0.146,+0.172,+0.130,-0.971,-1.000,-0.500,+0.500,5, -1, -2, -2, -1, 0, -4, -6,2.8570388390049515,0.15343310915404507
1503954638296,+0.984,+0.085,-0.054,+0.146,+0.178,+0.142,-0.960,-1.562,-0.750,+0.375,3, 1, -3, -3, -1, 0, -3, 2,2.8570388390049515,0.15343310915404507
1503954638312,+0.984,+0.085,-0.054,+0.146,+0.172,+0.135,-0.971,-1.125,-1.000,+0.375,-2, -2, 1, 0, -1, -1, -1, 0,2.8570388390049515,0.15343310915404507
1503954638334,+0.984,+0.085,-0.054,+0.146,+0.166,+0.145,-0.962,-1.250,-1.000,+0.312,-6, 0, -1, 1, -2, 2, 0, -5,2.8570388390049515,0.15343310915404507
1503954638356,+0.984,+0.085,-0.054,+0.146,+0.160,+0.147,-0.960,-0.938,-0.375,+0.062,-12, 0, 0, 0, -1, 1, -2, -2,2.8570388390049515,0.15343310915404507
1503954638379,+0.984,+0.085,-0.054,+0.146,+0.165,+0.140,-0.971,-0.625,-0.125,+0.438,0, 0, -2, -2, -1, -1, -1, 3,2.8570388390049515,0.15343310915404507
1503954638394,+0.984,+0.085,-0.054,+0.146,+0.165,+0.138,-0.962,-1.062,+0.062,+0.500,6, -1, 0, -1, -2, 0, -1, -5,2.8570388390049515,0.15343310915404507
1503954638417,+0.984,+0.085,-0.053,+0.146,+0.169,+0.141,-0.974,-0.812,+1.062,+0.188,0, 1, 1, -2, 1, -2, 2, 2,2.8568741689737616,0.15369113492924064
1503954638440,+0.984,+0.085,-0.053,+0.146,+0.172,+0.140,-0.964,-1.312,+0.438,+0.438,0, 0, 1, 2, -1, 0, 0, 5,2.8568741689737616,0.15369113492924064
1503954638453,+0.984,+0.085,-0.053,+0.146,+0.171,+0.140,-0.961,-1.125,+0.312,+0.312,-1, 2, 1, 0, -3, -4, 0, 0,2.8568741689737616,0.15369113492924064
1503954638476,+0.984,+0.085,-0.053,+0.146,+0.173,+0.136,-0.968,-0.688,+0.500,+0.312,-1, -4, -2, -2, 0, -2, -2, -4,2.8568741689737616,0.15369113492924064
1503954638499,+0.984,+0.085,-0.053,+0.146,+0.170,+0.142,-0.962,-1.000,+0.125,+0.000,4, 1, 1, 0, 1, 0, -1, -1,2.8568741689737616,0.15369113492924064
1503954638514,+0.984,+0.085,-0.053,+0.146,+0.169,+0.138,-0.971,-0.938,+0.125,+0.188,11, -3, -4, -4, -2, -1, 0, 0,2.8568741689737616,0.15369113492924064
1503954638536,+0.984,+0.085,-0.053,+0.146,+0.167,+0.135,-0.961,-1.312,+0.062,+0.188,-28, -5, -3, -1, -2, 0, -2, -6,2.8568741689737616,0.15369113492924064
1503954638559,+0.984,+0.085,-0.053,+0.146,+0.176,+0.138,-0.968,-1.000,-0.312,+0.250,0, -1, -2, -1, 0, 2, 0, -5,2.8568741689737616,0.15369113492924064
1503954638577,+0.984,+0.085,-0.053,+0.146,+0.175,+0.136,-0.971,-1.062,+0.000,+0.312,-8, -3, -2, -1, -1, 1, -1, 1,2.8568741689737616,0.15369113492924064
1503954638596,+0.984,+0.085,-0.053,+0.146,+0.159,+0.139,-0.965,-1.312,-0.062,+0.188,-4, -3, -1, 1, 1, -3, -2, 0,2.8568741689737616,0.15369113492924064
1503954638619,+0.984,+0.085,-0.053,+0.146,+0.167,+0.144,-0.970,-1.188,+1.125,+0.250,13, 1, -2, -2, -1, -2, -2, 3,2.8568741689737616,0.15369113492924064
1503954638634,+0.984,+0.085,-0.053,+0.146,+0.175,+0.146,-0.963,-1.062,+0.812,+0.438,-9, 0, -1, -1, -2, -1, -2, -2,2.8568741689737616,0.15369113492924064
1503954638656,+0.984,+0.085,-0.053,+0.146,+0.176,+0.140,-0.967,-1.000,+0.438,+0.812,-2, -1, -2, -1, 1, 0, -2, -2,2.8568741689737616,0.15369113492924064
1503954638679,+0.984,+0.085,-0.053,+0.146,+0.170,+0.132,-0.977,-1.125,+0.188,+0.500,9, 1, 1, -2, -1, 3, 3, 0,2.8568741689737616,0.15369113492924064
1503954638693,+0.984,+0.086,-0.053,+0.146,+0.169,+0.129,-0.966,-1.688,+1.750,+0.062,-3, -1, 0, 0, 0, 2, 1, -2,2.857073730776644,0.15570524174965603
1503954638716,+0.984,+0.086,-0.053,+0.146,+0.180,+0.136,-0.966,-1.875,+1.750,+0.188,1, -2, 1, 0, 1, 0, 1, 4,2.857073730776644,0.15570524174965603
1503954638739,+0.984,+0.086,-0.053,+0.146,+0.178,+0.139,-0.957,-1.062,+0.750,+0.250,-20, -2, -1, -2, -1, -1, -2, -8,2.857073730776644,0.15570524174965603
1503954638753,+0.984,+0.086,-0.053,+0.146,+0.176,+0.142,-0.965,-0.938,-0.375,+0.250,6, 1, -2, 0, 1, 0, -3, 0,2.857073730776644,0.15570524174965603
1503954638777,+0.984,+0.086,-0.053,+0.146,+0.178,+0.146,-0.967,-0.750,-0.562,+0.062,-4, -1, 1, -2, -1, 1, 3, -8,2.857073730776644,0.15570524174965603
1503954638798,+0.984,+0.086,-0.053,+0.146,+0.176,+0.133,-0.968,-0.875,-1.188,-0.125,8, 1, -2, -2, -2, -2, -2, 4,2.857073730776644,0.15570524174965603
1503954638814,+0.984,+0.086,-0.053,+0.146,+0.172,+0.139,-0.964,-1.625,-1.750,+0.375,1, 0, 0, 1, 1, 1, -1, 6,2.857073730776644,0.15570524174965603
1503954638836,+0.984,+0.086,-0.053,+0.146,+0.161,+0.142,-0.964,-1.125,+0.125,-0.062,7, -2, -3, -1, -2, -3, -2, -2,2.857073730776644,0.15570524174965603
1503954638859,+0.984,+0.086,-0.053,+0.146,+0.170,+0.131,-0.968,-1.312,+0.000,-0.125,3, -2, 0, 0, 0, 2, 0, -4,2.857073730776644,0.15570524174965603
1503954638873,+0.984,+0.086,-0.053,+0.146,+0.169,+0.148,-0.963,-1.062,+0.062,+0.250,-10, -2, -2, 0, -1, -2, 1, 0,2.857073730776644,0.15570524174965603
1503954638897,+0.984,+0.086,-0.053,+0.146,+0.173,+0.134,-0.966,-0.625,-0.562,+0.375,-3, -2, -2, -2, -3, 0, -2, -2,2.857073730776644,0.15570524174965603
1503954638920,+0.984,+0.086,-0.053,+0.146,+0.172,+0.136,-0.966,-1.188,-0.375,+0.188,1, 0, 2, -1, -1, -1, -1, -7,2.857073730776644,0.15570524174965603
1503954638941,+0.984,+0.086,-0.053,+0.146,+0.179,+0.146,-0.965,-1.250,-0.500,+0.188,1, -1, -2, -1, -1, -1, 1, 1,2.857073730776644,0.15570524174965603
1503954638964,+0.984,+0.086,-0.053,+0.146,+0.169,+0.135,-0.966,-0.938,-1.188,+0.250,-7, 1, -2, 1, -1, -11, -9, -2,2.857073730776644,0.15570524174965603
1503954638979,+0.984,+0.086,-0.053,+0.146,+0.162,+0.143,-0.960,-1.062,-0.438,+0.125,23, 3, 0, -2, 0, 3, -2, 7,2.857073730776644,0.15570524174965603
1503954638993,+0.984,+0.086,-0.053,+0.146,+0.172,+0.135,-0.968,-0.500,+0.375,-0.125,-2, -2, -1, 0, 1, 0, 1, 0,2.857073730776644,0.15570524174965603
1503954639018,+0.984,+0.086,-0.053,+0.146,+0.164,+0.139,-0.967,-1.250,-0.250,+0.312,-4, -2, 1, 0, 0, 3, -1, 0,2.857073730776644,0.15570524174965603
1503954639038,+0.984,+0.086,-0.053,+0.146,+0.174,+0.142,-0.967,-1.000,-0.375,+0.562,2, -2, -2, -2, 0, 0, 1, -1,2.857073730776644,0.15570524174965603
1503954639054,+0.984,+0.086,-0.053,+0.146,+0.169,+0.133,-0.959,-1.062,+0.375,+0.188,7, 1, -1, 0, -1, 1, -2, -2,2.857073730776644,0.15570524174965603
1503954639076,+0.984,+0.086,-0.053,+0.146,+0.177,+0.140,-0.963,-1.125,+0.125,+0.062,-7, -2, -2, 1, -3, -1, -1, -3,2.857073730776644,0.15570524174965603
1503954639098,+0.984,+0.086,-0.053,+0.146,+0.175,+0.136,-0.965,-0.625,+0.000,+0.000,-17, -2, -2, 0, 0, 1, 2, 0,2.857073730776644,0.15570524174965603
1503954639115,+0.984,+0.086,-0.053,+0.146,+0.169,+0.139,-0.970,-1.000,-1.062,+0.375,10, 4, 1, 1, 0, -3, 1, 4,2.857073730776644,0.15570524174965603
1503954639136,+0.984,+0.086,-0.053,+0.146,+0.166,+0.137,-0.971,-1.375,-0.750,+0.500,0, -2, 0, -2, -1, 0, -3, -2,2.857073730776644,0.15570524174965603
1503954639158,+0.984,+0.086,-0.053,+0.146,+0.165,+0.138,-0.967,-1.438,+1.000,+0.312,-3, 0, -1, -1, 0, -1, 0, -1,2.857073730776644,0.15570524174965603
1503954639174,+0.984,+0.086,-0.053,+0.146,+0.176,+0.145,-0.958,-1.500,+1.312,-0.062,3, -2, 1, -1, -2, -1, 1, -2,2.857073730776644,0.15570524174965603
1503954639196,+0.984,+0.086,-0.053,+0.146,+0.179,+0.138,-0.968,-0.562,+0.062,+0.125,-6, 4, 0, -1, 0, 1, -3, 1,2.857073730776644,0.15570524174965603
1503954639219,+0.984,+0.086,-0.053,+0.146,+0.174,+0.137,-0.967,-0.750,-1.188,+0.062,-11, -1, 0, -1, 1, 0, 1, -1,2.857073730776644,0.15570524174965603
1503954639234,+0.984,+0.086,-0.053,+0.146,+0.173,+0.128,-0.971,-0.750,-1.438,-0.125,-10, -1, -1, -2, 1, -1, 1, -4,2.857073730776644,0.15570524174965603
1503954639256,+0.984,+0.086,-0.053,+0.146,+0.167,+0.134,-0.975,-1.875,-0.562,+0.125,-1, 1, 1, -1, -2, -1, 1, 1,2.857073730776644,0.15570524174965603
1503954639280,+0.984,+0.086,-0.053,+0.146,+0.170,+0.148,-0.961,-1.500,-0.375,+0.062,6, 2, -3, -2, -2, -1, 0, 0,2.857073730776644,0.15570524174965603
1503954639294,+0.984,+0.086,-0.053,+0.146,+0.159,+0.149,-0.960,-0.812,-0.375,+0.312,-8, -2, -1, -1, 0, 1, 0, -1,2.857073730776644,0.15570524174965603
1503954639318,+0.984,+0.086,-0.053,+0.146,+0.169,+0.143,-0.965,-0.938,-0.750,+0.625,9, 2, 0, 0, 0, 0, 1, 0,2.857073730776644,0.15570524174965603
1503954639338,+0.984,+0.085,-0.053,+0.146,+0.166,+0.132,-0.972,-0.500,+0.688,+0.562,9, 2, 1, 0, -1, -1, -1, -2,2.8568741689737616,0.15369113492924064
1503954639354,+0.984,+0.085,-0.053,+0.146,+0.173,+0.130,-0.978,-1.438,-0.125,+0.562,-8, -2, -4, -1, -2, 2, -1, -2,2.8568741689737616,0.15369113492924064
1503954639376,+0.984,+0.085,-0.053,+0.146,+0.174,+0.134,-0.957,-2.000,+0.250,+0.625,-1, -1, -2, -1, 0, 2, -2, 1,2.8568741689737616,0.15369113492924064
1503954639398,+0.984,+0.085,-0.053,+0.146,+0.175,+0.141,-0.967,-1.188,-0.500,+0.562,-6, -1, 1, 1, 0, -4, -2, -7,2.8568741689737616,0.15369113492924064
1503954639414,+0.984,+0.085,-0.053,+0.146,+0.171,+0.137,-0.958,-1.438,-0.562,+0.875,-6, 2, 1, 0, -1, 2, 1, -2,2.8568741689737616,0.15369113492924064
1503954639436,+0.984,+0.085,-0.053,+0.146,+0.168,+0.141,-0.962,-0.438,+0.125,+0.188,4, -2, -2, 0, -2, -1, -1, 0,2.8568741689737616,0.15369113492924064
1503954639458,+0.984,+0.085,-0.053,+0.146,+0.175,+0.140,-0.973,-0.688,-0.125,+0.188,-2, -3, -2, -1, -1, -1, 0, -3,2.8568741689737616,0.15369113492924064
1503954639474,+0.984,+0.085,-0.053,+0.146,+0.173,+0.132,-0.971,-1.125,-0.500,+0.250,-1, -2, 0, 1, 1, 3, 2, 1,2.8568741689737616,0.15369113492924064
1503954639496,+0.984,+0.085,-0.053,+0.146,+0.171,+0.142,-0.965,-1.188,-0.688,+0.188,-2, -2, -1, -1, -3, -2, -2, -3,2.8568741689737616,0.15369113492924064
1503954639519,+0.984,+0.085,-0.053,+0.146,+0.168,+0.133,-0.966,-1.500,-0.438,+0.125,9, 0, -2, -3, 0, -2, -1, 1,2.8568741689737616,0.15369113492924064
1503954639535,+0.984,+0.085,-0.053,+0.146,+0.167,+0.130,-0.964,-1.250,-0.062,-0.125,0, -1, 0, 0, 1, -1, -3, 3,2.8568741689737616,0.15369113492924064
1503954639557,+0.984,+0.085,-0.053,+0.146,+0.171,+0.132,-0.971,-0.938,+0.250,+0.125,-5, -4, -2, -1, 0, -2, 0, 0,2.8568741689737616,0.15369113492924064
1503954639578,+0.984,+0.085,-0.053,+0.146,+0.170,+0.138,-0.970,-1.188,-0.188,+0.750,1, 2, 1, -1, -2, -11, -6, 0,2.8568741689737616,0.15369113492924064
1503954639594,+0.984,+0.085,-0.053,+0.146,+0.169,+0.143,-0.973,-1.250,+0.375,+0.750,-4, -3, -2, -2, 0, 4, 0, -3,2.8568741689737616,0.15369113492924064
1503954639618,+0.984,+0.085,-0.053,+0.146,+0.171,+0.143,-0.968,-1.500,+0.438,+0.625,4, 2, -1, -1, -2, 0, 3, 1,2.8568741689737616,0.15369113492924064
1503954639638,+0.984,+0.085,-0.053,+0.146,+0.180,+0.144,-0.954,-0.938,+0.312,+0.312,-4, -3, -2, 0, 0, 0, 3, 2,2.8568741689737616,0.15369113492924064
1503954639654,+0.984,+0.085,-0.053,+0.146,+0.178,+0.140,-0.973,-0.438,+0.375,-0.062,-5, -2, -1, 0, 0, -1, -1, 0,2.8568741689737616,0.15369113492924064
1503954639676,+0.984,+0.085,-0.053,+0.146,+0.180,+0.132,-0.964,-0.438,-1.000,-0.375,-3, 0, 1, -2, -1, 4, 2, -1,2.8568741689737616,0.15369113492924064
1503954639698,+0.984,+0.085,-0.053,+0.146,+0.171,+0.138,-0.964,-0.312,-1.812,+0.188,-12, -1, -2, -1, 1, 1, 0, -5,2.8568741689737616,0.15369113492924064
1503954639719,+0.984,+0.085,-0.053,+0.146,+0.166,+0.133,-0.970,-0.812,-1.125,+0.125,3, 0, -2, -2, -2, 0, -2, -1,2.8568741689737616,0.15369113492924064
1503954639736,+0.984,+0.085,-0.053,+0.146,+0.168,+0.140,-0.979,-1.188,+0.000,-0.438,2, 0, -1, -2, -1, -2, 1, -3,2.8568741689737616,0.15369113492924064
1503954639759,+0.984,+0.086,-0.053,+0.147,+0.177,+0.140,-0.973,-1.375,+3.250,-2.188,-3, -3, -1, 0, -1, -2, -2, -2,2.855169051490573,0.15559963375164843
1503954639774,+0.984,+0.086,-0.053,+0.147,+0.189,+0.146,-0.976,-2.375,+3.375,-3.000,-1, -1, -2, -3, 0, 1, 1, 0,2.855169051490573,0.15559963375164843
1503954639796,+0.984,+0.087,-0.053,+0.148,+0.201,+0.145,-0.993,-2.625,+0.688,-3.375,-1, -2, 0, -1, 0, -1, 1, -5,2.853468013741597,0.15750895519604804
1503954639821,+0.984,+0.087,-0.054,+0.148,+0.183,+0.140,-0.984,-4.688,+0.938,-3.062,-5, -3, -1, 0, -2, -2, -3, -7,2.853636099205739,0.15724790553620602
1503954639834,+0.984,+0.087,-0.054,+0.149,+0.170,+0.137,-1.012,-4.625,+2.250,-1.250,-4, -4, -2, 1, 1, 0, -4, -7,2.8517359722523863,0.157140295728345
1503954639856,+0.983,+0.088,-0.054,+0.149,+0.206,+0.148,-0.979,-1.688,+5.312,-1.562,0, -1, -2, -1, 0, 1, 0, 4,2.8510939507657826,0.1589812278861327
1503954639878,+0.983,+0.090,-0.053,+0.149,+0.200,+0.186,-0.937,+8.188,+9.688,+0.000,2, 2, 3, 4, 1, 1, -1, -1,2.8513347408704353,0.16327379507126974
1503954639894,+0.983,+0.092,-0.050,+0.150,+0.219,+0.254,-0.913,+21.750,+9.500,+0.875,0, -2, -6, -4, -1, -2, -4, 2,2.8493165133809932,0.16799241113161498
1503954639919,+0.983,+0.093,-0.046,+0.150,+0.200,+0.324,-0.896,+38.625,+7.000,+3.438,-3, -3, -4, 2, -12, -1, -2, -1,2.8488023710660944,0.17106894610825835
1503954639938,+0.984,+0.094,-0.040,+0.149,+0.188,+0.364,-0.939,+50.375,+9.938,+10.625,2, 0, -1, 2, 6, -1, 7, 3,2.8506582181890066,0.17495417811193997
1503954639954,+0.984,+0.101,-0.028,+0.146,+0.222,+0.290,-1.005,+72.125,+52.000,+32.688,-1, 0, 3, -16, -10, -5, -4, -4,2.855323174863044,0.1924612812466716
1503954639977,+0.983,+0.117,-0.012,+0.143,+0.393,+0.268,-0.965,+89.812,+93.875,+26.312,-3, -1, -11, -14, -7, 4, 1, -2,2.859390234545292,0.22895107888615382
1503954639998,+0.982,+0.128,+0.010,+0.139,+0.449,+0.235,-1.085,+118.938,+81.750,+39.562,-1, 0, 9, 10, -23, -25, -3, -3,2.86246069426529,0.2570237832130324
1503954640015,+0.980,+0.139,+0.038,+0.135,+0.413,+0.071,-1.110,+146.125,+89.438,+46.938,-2, 0, 14, -6, -70, -7, 1, 0,2.8622933282316567,0.28681665448068916
1503954640037,+0.977,+0.153,+0.068,+0.128,+0.364,-0.062,-1.161,+159.188,+107.750,+58.938,6, 4, 1, 12, 5, -11, 5, 6,2.8654099635327333,0.32339468163497503
1503954640059,+0.973,+0.173,+0.101,+0.118,+0.391,-0.107,-1.164,+167.062,+147.062,+75.750,1, -2, -15, 0, 13, 24, 1, 1,2.870875641562996,0.3735493144247582
1503954640075,+0.965,+0.197,+0.137,+0.106,+0.435,-0.167,-1.062,+182.750,+180.688,+87.438,-4, -4, -15, 55, 106, 21, -19, -9,2.8731875768713873,0.4332128764619154
1503954640097,+0.954,+0.223,+0.177,+0.092,+0.538,-0.230,-0.918,+203.562,+196.438,+98.500,4, 7, 4, -12, -15, -14, 5, 6,2.8716468793854943,0.5002884653296162
1503954640121,+0.940,+0.248,+0.220,+0.077,+0.610,-0.353,-0.811,+219.750,+196.250,+107.125,-13, -8, -18, -45, 36, -11, 5, -15,2.863776136799838,0.5700376684834062
1503954640135,+0.924,+0.270,+0.264,+0.062,+0.670,-0.571,-0.688,+232.250,+182.312,+109.438,-5, -7, -9, -43, -41, 7, 4, 4,2.8489210195732375,0.6395409290613107
1503954640157,+0.904,+0.291,+0.309,+0.048,+0.778,-0.756,-0.568,+238.688,+176.750,+107.312,4, 2, 18, -7, -20, -3, -3, 1,2.8213088621939186,0.7153446488037606
1503954640178,+0.883,+0.306,+0.352,+0.038,+0.815,-0.787,-0.538,+244.312,+147.562,+96.188,0, 4, -3, 17, 9, 5, -3, -2,2.7798449202301154,0.7873662405124342
1503954640195,+0.862,+0.316,+0.394,+0.031,+0.647,-0.771,-0.437,+244.625,+112.125,+87.438,-10, -16, -23, 41, 6, -10, -11, -9,2.7262309519401104,0.8602288087559223
1503954640217,+0.840,+0.323,+0.435,+0.026,+0.546,-0.768,-0.328,+245.062,+96.125,+76.688,6, 2, 28, 21, -7, 5, 2, 3,2.6590762238859735,0.939927571096891
1503954640239,+0.814,+0.335,+0.473,+0.021,+0.575,-0.917,-0.243,+242.000,+123.688,+64.000,-1, 6, 49, 84, 43, 2, 1, 4,2.573148429259687,1.0448825438289027
1503954640255,+0.788,+0.348,+0.508,+0.013,+0.516,-0.887,-0.337,+223.188,+146.188,+66.500,-4, 4, -20, -39, -23, 1, -2, 2,2.4837275652807,1.1644700135222588
1503954640277,+0.761,+0.359,+0.540,+0.004,+0.491,-0.765,-0.363,+210.438,+131.000,+68.500,6, -1, -9, -37, -28, 7, 8, 11,2.3835964604027846,1.289661853708873
1503954640299,+0.737,+0.364,+0.569,+0.001,+0.436,-0.774,-0.192,+200.688,+86.000,+60.938,0, -2, 6, -6, -7, 0, -1, -3,2.272462459642104,1.4094979048348515
1503954640315,+0.714,+0.365,+0.597,-0.006,+0.260,-0.783,-0.016,+181.625,+79.438,+81.250,2, 6, 32, 8, -7, -2, 0, -2,2.1607635304440813,1.5304879351715113
1503954640337,+0.690,+0.369,+0.622,-0.019,+0.349,-0.772,+0.107,+160.812,+110.312,+91.312,5, 5, -29, 31, 22, 2, -6, -1,2.0493288066430844,1.6654294542242438
1503954640359,+0.672,+0.368,+0.642,-0.026,+0.471,-0.702,-0.050,+133.375,+61.688,+78.250,-2, -19, -44, -30, 11, -13, -12, -8,1.949308915064421,1.774302048084248
1503954640375,+0.661,+0.356,+0.660,-0.028,+0.219,-0.736,+0.117,+102.438,-17.812,+93.500,-10, 1, -4, -63, -45, -10, -11, -13,1.8568250069550385,1.8507276195671507
1503954640397,+0.653,+0.346,+0.673,-0.038,+0.094,-0.694,+0.154,+63.000,+11.375,+89.500,1, 17, 54, 3, 0, 8, 22, 9,1.788975108067747,1.9186208802712788
1503954640418,+0.652,+0.333,+0.679,-0.049,+0.271,-0.819,+0.186,-3.250,-7.438,+100.125,2, 8, -38, -17, 1, -2, -12, -14,1.7540945198679951,1.9437399533122588
1503954640435,+0.663,+0.318,+0.675,-0.066,+0.011,-0.581,+0.042,-93.500,-12.000,+113.750,1, -23, -23, 3, 15, 13, 17, 28,1.804564031706189,1.8996795767652328
1503954640457,+0.681,+0.304,+0.660,-0.085,-0.052,-0.391,+0.241,-174.500,-9.250,+91.562,-50, -32, -10, -11, -20, -12, 8, -36,1.9457043631131767,1.7543370344135962
1503954640478,+0.708,+0.289,+0.635,-0.108,-0.094,-0.565,+0.254,-258.125,-4.250,+90.500,55, 29, 7, 19, -4, -19, -1, 51,2.2406436387453335,1.4736699417585064
1503954640495,+0.742,+0.280,+0.596,-0.125,-0.088,-0.553,+0.538,-336.812,-9.938,+6.312,19, -27, -106, -33, -37, -6, -14, -21,2.61989999145042,1.1086266202578394
1503954640517,+0.784,+0.265,+0.549,-0.120,+0.023,-0.348,+0.754,-366.812,-120.062,-78.688,-75, 41, -11, 6, -6, 11, -2, -32,2.870398933274857,0.8353318294205412
1503954640538,+0.830,+0.228,+0.501,-0.088,+0.376,-0.478,-0.070,-350.125,-319.125,-131.375,-67, -58, 8, 36, 39, 20, 10, 12,2.9722435073687143,0.6349709818018402
1503954640562,+0.879,+0.193,+0.432,-0.061,+0.972,-1.493,-0.514,-469.625,-283.500,-141.000,124, 18, 17, 8, 44, -22, -9, 17,3.0458617725838977,0.47868926803311046
1503954640577,+0.919,+0.149,+0.363,-0.042,+0.942,-1.697,-0.048,-472.562,-307.688,-75.625,-53, 45, 42, -4, -65, 28, 44, 32,3.0993859867996663,0.3381531271194068
1503954640600,+0.949,+0.096,+0.299,+0.001,-0.726,-0.318,-0.688,-386.062,-380.875,-187.062,-37, -58, -55, -29, 1, 30, -65, -36,3.0693618466053416,0.22390201431544124
1503954640615,+0.956,+0.105,+0.272,+0.026,-2.156,+1.182,-2.491,-149.438,+6.750,-169.812,-7, 4, 0, 34, 127, 25, -43, -28,3.0165521889183924,0.25336189202867887
1503954640637,+0.953,+0.149,+0.263,+0.025,-0.527,+1.492,-1.951,-57.250,+246.438,-70.375,10, 33, 11, -46, -123, -12, 25, -19,2.996225388765194,0.3487262029878532
1503954640659,+0.943,+0.192,+0.270,+0.019,+1.255,-0.969,-0.965,+37.875,+246.375,-27.500,62, -13, -13, -32, -88, -87, -3, -3,2.9793265828377256,0.4451695466462331
1503954640676,+0.939,+0.206,+0.274,+0.016,+1.384,-2.181,-0.625,+25.250,+88.500,+1.688,-57, 12, -25, 12, 99, 59, 32, -28,2.97466635145235,0.4773028486194649
1503954640697,+0.936,+0.198,+0.290,+0.017,+0.710,-1.795,-0.771,+26.250,-56.438,+1.625,-11, 7, 16, -20, -67, 88, -39, -85,2.966818258127357,0.4676956979467428
1503954640719,+0.934,+0.193,+0.299,+0.021,+0.360,-1.041,-0.572,+21.750,-35.312,-19.562,33, -21, -5, 3, 83, -28, -32, -38,2.955018438694933,0.46336043774211416
1503954640735,+0.933,+0.195,+0.301,+0.021,+0.348,-0.726,-0.925,+13.438,+27.250,-5.625,83, 4, -10, -6, -18, -68, -9, 63,2.95224743523118,0.4691663262549821
1503954640757,+0.931,+0.203,+0.302,+0.020,+0.503,-0.449,-0.913,+21.938,+43.625,-1.188,-62, 13, 3, 16, 23, -16, -1, 25,2.9481314514116015,0.4878084955590807
1503954640778,+0.928,+0.211,+0.308,+0.016,+0.501,-0.573,-0.614,+23.500,+53.062,+19.375,-83, -25, 24, 12, 9, -4, -15, -22,2.947291904907521,0.507933717290428
1503954640794,+0.924,+0.222,+0.311,+0.012,+0.457,-0.431,-0.667,+22.312,+69.438,+9.750,2, -26, -6, -21, -19, -15, -5, -10,2.9453472151648072,0.5330402917817064
1503954640817,+0.921,+0.232,+0.313,+0.008,+0.445,-0.264,-0.726,+33.062,+71.250,+16.062,24, 15, 6, -19, -37, -12, 10, 6,2.9452232574540314,0.5555922400300893
1503954640838,+0.917,+0.240,+0.318,+0.005,+0.441,-0.370,-0.680,+40.750,+53.250,+9.062,4, 2, 5, -4, 24, -1, 1, -23,2.941285871347236,0.5760468055968563
1503954640861,+0.914,+0.246,+0.324,+0.007,+0.492,-0.515,-0.569,+37.812,+31.438,-9.125,15, 1, 5, 4, -62, -25, 1, 27,2.9274495497300452,0.5964537944870691
1503954640877,+0.910,+0.250,+0.330,+0.009,+0.442,-0.711,-0.537,+35.938,+21.562,-15.000,-24, -3, -2, -7, -14, -8, -7, -14,2.9134535868563667,0.6116444645666906
1503954640900,+0.907,+0.251,+0.336,+0.010,+0.407,-0.754,-0.630,+31.625,+13.938,-6.938,-7, -1, 2, 1, 12, 5, -10, -14,2.90396468685401,0.6192576076794618
1503954640915,+0.906,+0.253,+0.340,+0.012,+0.422,-0.590,-0.693,+26.062,+16.188,-10.562,-1, 3, 1, 2, -2, 4, 5, -3,2.8949498432512675,0.6293806276710383
1503954640937,+0.903,+0.260,+0.342,+0.014,+0.417,-0.527,-0.582,+26.375,+39.438,-20.312,-4, -2, 0, -1, -3, 5, 4, 4,2.882389295910916,0.6495420926836074
1503954640959,+0.899,+0.268,+0.346,+0.014,+0.469,-0.558,-0.609,+30.500,+50.938,-11.188,-1, -6, -3, -15, -2, -6, -2, -4,2.8712529686249355,0.6727769025600593
1503954640981,+0.895,+0.275,+0.350,+0.014,+0.500,-0.585,-0.597,+28.625,+45.562,-8.625,-3, 0, -4, -2, 1, -11, 2, 0,2.8604339675091275,0.6936865461209939
1503954640997,+0.892,+0.282,+0.353,+0.016,+0.537,-0.574,-0.600,+24.750,+40.812,-16.500,-1, -1, -4, 0, 6, -2, 1, 2,2.8470537846824406,0.7155825690607216
1503954641019,+0.888,+0.290,+0.356,+0.016,+0.508,-0.602,-0.578,+28.375,+47.625,-16.250,3, -2, -3, -1, -5, 8, 0, 2,2.836272811347801,0.738457761414606
1503954641041,+0.885,+0.295,+0.360,+0.019,+0.500,-0.603,-0.587,+31.062,+32.812,-18.562,-1, 5, 7, 4, -2, -1, -2, -4,2.820818784069805,0.7573621946919771
1503954641059,+0.882,+0.301,+0.362,+0.023,+0.539,-0.587,-0.517,+27.875,+27.125,-31.750,-2, 0, 2, 3, 0, -3, -2, -1,2.8042791818091697,0.7771634623730722
1503954641079,+0.878,+0.308,+0.364,+0.031,+0.600,-0.608,-0.478,+27.625,+26.375,-48.250,3, -5, -2, 1, 6, 2, -2, 2,2.7776198366894063,0.8017546602486724
1503954641108,+0.875,+0.316,+0.366,+0.040,+0.596,-0.624,-0.498,+30.312,+25.562,-66.000,-2, -3, 2, 6, -2, -8, -4, -3,2.7506024111603247,0.8301390495212425
1503954641117,+0.871,+0.324,+0.366,+0.053,+0.587,-0.584,-0.482,+30.438,+22.938,-84.062,-6, -1, -3, -4, -2, -3, -4, -9,2.716181698317454,0.857312606158224
1503954641139,+0.868,+0.331,+0.364,+0.069,+0.585,-0.564,-0.473,+25.812,+10.188,-98.812,0, 1, 0, 2, 9, 2, 3, 5,2.6804087786176094,0.880628441107792
1503954641161,+0.864,+0.339,+0.361,+0.086,+0.608,-0.562,-0.456,+22.125,+10.312,-114.375,13, 1, 0, 0, -7, 6, 1, 1,2.643213601277127,0.9043841608609217
1503954641177,+0.859,+0.349,+0.359,+0.104,+0.658,-0.579,-0.458,+26.062,+21.000,-120.375,-13, -5, -6, -5, -1, 8, -1, -1,2.603593417103672,0.9340250261254867
1503954641202,+0.855,+0.357,+0.356,+0.123,+0.686,-0.598,-0.556,+31.625,+11.250,-121.375,8, 0, 5, -1, 0, -3, -1, -1,2.5666917928990705,0.9571939191837543
1503954641221,+0.850,+0.362,+0.353,+0.145,+0.667,-0.562,-0.508,+36.625,-9.875,-133.438,-7, -1, 4, -4, -3, -5, 1, 1,2.524149603584167,0.9730383807858919
1503954641238,+0.846,+0.367,+0.348,+0.170,+0.657,-0.528,-0.482,+30.812,-24.500,-151.625,-7, -1, -1, -2, -4, -3, -1, -3,2.4823322870107107,0.9869650088567742
1503954641261,+0.839,+0.374,+0.343,+0.194,+0.708,-0.503,-0.433,+28.750,-1.938,-149.062,3, 7, 6, 4, 2, 0, -2, -2,2.439093638019379,1.0032289771508833
1503954641281,+0.832,+0.383,+0.341,+0.212,+0.669,-0.464,-0.491,+33.875,+23.312,-124.500,-3, -6, -9, -1, -2, 0, -5, -2,2.4055829985495985,1.025760660980965
1503954641298,+0.823,+0.394,+0.339,+0.231,+0.745,-0.447,-0.504,+36.875,+32.500,-131.250,7, -1, -3, -8, -5, -1, -2, -2,2.3697343579485017,1.0520202589464878
1503954641319,+0.813,+0.403,+0.335,+0.253,+0.866,-0.418,-0.463,+37.562,+16.938,-144.500,2, -2, 1, 2, 0, -4, 1, 1,2.3301249118352017,1.0706578966534106
1503954641341,+0.805,+0.408,+0.332,+0.275,+0.780,-0.375,-0.502,+46.500,-1.188,-136.062,0, 6, 12, 13, 6, -8, 2, -1,2.2932051770191557,1.0818584746241626
1503954641357,+0.797,+0.413,+0.328,+0.294,+0.736,-0.322,-0.438,+28.625,-1.812,-121.500,-5, 0, -6, -5, 6, 3, -1, 0,2.2617343041755475,1.0902813117286365
1503954641379,+0.789,+0.422,+0.324,+0.307,+0.828,-0.191,-0.327,+15.062,+32.500,-104.875,-7, -10, -18, -9, 4, 6, 3, 0,2.241411274367173,1.1058046524613425
1503954641402,+0.779,+0.431,+0.324,+0.320,+1.019,-0.178,-0.310,+30.562,+30.125,-87.188,17, 9, 13, 7, -11, 11, -1, 8,2.2157915774850268,1.1263565350167528
1503954641418,+0.773,+0.433,+0.323,+0.332,+1.076,-0.289,-0.463,+35.938,+5.125,-77.188,5, 1, 2, 2, -2, -11, 5, 9,2.194057548548219,1.1305687146454189
1503954641439,+0.768,+0.435,+0.322,+0.342,+1.009,-0.324,-0.357,+22.250,-6.375,-67.000,6, 3, 3, -6, -6, 1, -6, -9,2.1767415387799374,1.1345467232803836
1503954641463,+0.763,+0.438,+0.322,+0.349,+1.034,-0.223,-0.323,+13.812,+9.250,-46.750,2, 2, 5, 3, 2, 7, 1, 18,2.162975754010071,1.1414168679637382
1503954641477,+0.760,+0.440,+0.322,+0.353,+1.076,-0.162,-0.400,+13.500,+6.500,-29.250,13, -9, -15, -11, 33, 14, 4, 11,2.1552329175168037,1.145928081545043
1503954641500,+0.757,+0.441,+0.322,+0.360,+1.039,-0.235,-0.322,+20.188,-6.688,-37.250,-6, 1, -3, -3, -6, 6, 3, 22,2.143926748337844,1.1489702725359932
1503954641526,+0.754,+0.441,+0.323,+0.364,+0.974,-0.240,-0.352,+15.125,-3.812,-31.125,-6, -1, -7, -6, 7, -10, -16, -7,2.1335849205327375,1.1504371168396732
1503954641538,+0.751,+0.441,+0.323,+0.369,+0.976,-0.199,-0.387,+15.312,+3.562,-25.625,-6, 1, 10, 14, 5, 28, 2, -6,2.122952494977826,1.1506786908562694
1503954641559,+0.749,+0.442,+0.325,+0.372,+0.978,-0.244,-0.404,+18.125,+8.750,-23.438,16, 3, -3, -9, -8, -16, -4, -2,2.1164201119890618,1.1560123925842842
1503954641581,+0.746,+0.443,+0.327,+0.374,+0.996,-0.216,-0.355,+14.750,+10.250,-14.312,5, 4, 3, 1, -15, 6, -8, 37,2.108515685588527,1.1607379569615819
1503954641599,+0.743,+0.445,+0.330,+0.376,+0.993,-0.158,-0.291,+15.875,+11.688,-9.875,12, -9, -6, -12, -4, -3, 1, -14,2.10139978091655,1.1692589214666105
1503954641619,+0.740,+0.446,+0.331,+0.379,+1.019,-0.129,-0.331,+15.188,+6.125,-14.250,-17, 2, 8, 7, -19, -10, 5, 13,2.0932738654981753,1.1727622737868242
1503954641641,+0.738,+0.446,+0.331,+0.382,+0.943,-0.062,-0.365,+13.688,+3.062,-13.812,-30, -6, -5, 12, 0, -4, 16, -12,2.0866146746628726,1.172841487699144
1503954641657,+0.736,+0.446,+0.331,+0.386,+0.870,-0.049,-0.419,+14.875,+6.500,-16.938,-20, -4, -3, -18, -8, 2, -7, -18,2.079250420683254,1.1731799670452965
1503954641679,+0.734,+0.448,+0.333,+0.387,+0.971,-0.139,-0.396,+12.188,+18.625,-10.000,41, 11, 10, 31, 28, -1, 4, 92,2.0757227463492827,1.1802993954069254
1503954641701,+0.731,+0.451,+0.334,+0.387,+1.027,-0.044,-0.400,+6.438,+22.000,-1.000,4, 11, 30, 31, -17, -7, 1, 8,2.0724344171303914,1.1875366346971656
1503954641717,+0.731,+0.450,+0.334,+0.389,+1.036,-0.039,-0.227,+3.875,-13.625,-0.812,11, 0, -5, -16, -1, 0, -10, -28,2.069742720559633,1.1858013087720105
1503954641739,+0.731,+0.449,+0.332,+0.392,+0.905,-0.079,-0.350,+2.688,-16.625,-10.250,55, 4, -2, 6, 0, 13, 2, 46,2.0672211508402705,1.1812394072200016
1503954641761,+0.730,+0.449,+0.328,+0.397,+0.751,+0.093,-0.481,+6.625,+0.312,-20.688,-16, -2, -9, -36, -34, -14, -11, -59,2.063227368502661,1.1760284632444058
1503954641777,+0.727,+0.451,+0.329,+0.399,+0.976,+0.069,-0.447,+11.812,+21.250,-5.812,-28, -2, -9, 8, 18, -1, 4, -24,2.057354086912014,1.1814990117636939
1503954641799,+0.726,+0.451,+0.331,+0.401,+1.050,+0.013,-0.373,+18.562,+5.438,+2.438,23, 0, -26, -35, -8, -1, -6, -18,2.0529311359250513,1.1847285965375183
1503954641821,+0.725,+0.449,+0.333,+0.402,+0.882,-0.198,-0.312,+16.938,-7.438,-3.875,-5, 6, 2, 27, 1, -3, 0, 25,2.0466011860014,1.1832660473788235
1503954641839,+0.726,+0.447,+0.333,+0.404,+0.893,-0.187,-0.409,+7.312,-6.688,-5.812,-104, -20, -4, -7, 14, 17, 4, 15,2.0448962659561762,1.1796683078645984
1503954641860,+0.726,+0.446,+0.333,+0.404,+0.943,-0.114,-0.395,-0.688,-1.688,+3.875,20, 18, 36, 16, -33, 44, 37, -13,2.043601637893288,1.1774468629414252
1503954641882,+0.728,+0.443,+0.332,+0.404,+0.938,-0.045,-0.404,+0.375,-14.875,+9.625,9, 6, 16, 14, -13, -15, 5, 16,2.044616693695642,1.1699307247035367
1503954641898,+0.730,+0.440,+0.332,+0.403,+0.988,-0.072,-0.417,+1.500,-12.938,+21.562,-17, -13, -26, -45, 0, -30, -14, -58,2.045942561814915,1.163719834829686
1503954641920,+0.734,+0.436,+0.334,+0.400,+0.966,-0.136,-0.373,+2.562,-17.750,+34.312,-12, -3, -16, 7, 5, -8, -19, -31,2.051131630672,1.1585940638395367
1503954641942,+0.737,+0.431,+0.337,+0.396,+1.041,-0.274,-0.286,+2.625,-22.312,+36.812,-10, 5, -3, -8, 18, 1, -1, 5,2.0532618330482153,1.1522359610038577
1503954641957,+0.741,+0.427,+0.340,+0.390,+1.001,-0.323,-0.326,-6.062,-10.000,+39.625,-1, -5, -10, 5, 1, -14, -5, -6,2.0604894200419084,1.1479093413688757
1503954641980,+0.745,+0.424,+0.343,+0.383,+1.033,-0.359,-0.304,-12.688,-12.750,+45.062,35, -8, -28, -13, -2, -13, -23, -31,2.069851698360947,1.1455038261848063
1503954642002,+0.750,+0.421,+0.347,+0.375,+0.994,-0.373,-0.240,-15.312,-12.312,+51.125,61, 21, 22, 7, 11, -8, -1, 11,2.082054388924165,1.1447646376160285
1503954642017,+0.754,+0.419,+0.351,+0.365,+0.974,-0.388,-0.213,-17.000,+4.625,+58.625,-21, -7, 16, 16, 5, 5, 4, 17,2.0948817983332706,1.1452870476713068
1503954642040,+0.755,+0.422,+0.357,+0.353,+1.007,-0.444,-0.225,-20.375,+33.938,+53.438,1, -2, 1, -1, -4, 0, 5, 18,2.107342583607987,1.1584973848197773
1503954642062,+0.755,+0.426,+0.362,+0.342,+1.116,-0.394,-0.289,-20.562,+42.812,+41.375,0, -4, 2, 0, 6, -3, -1, 0,2.118401284094992,1.1724095820540432
1503954642077,+0.757,+0.427,+0.364,+0.334,+1.031,-0.281,-0.324,-21.688,+17.188,+45.062,5, -1, 11, 15, -5, -3, -2, -31,2.1297685219997073,1.1763205181929763
1503954642101,+0.759,+0.429,+0.366,+0.326,+0.942,-0.256,-0.250,-19.375,+16.750,+43.562,0, -9, -5, -3, 20, 12, -7, -7,2.142343218410748,1.1825018506838727
1503954642121,+0.759,+0.432,+0.368,+0.318,+0.917,-0.280,-0.285,-15.062,+33.250,+34.438,-28, -7, -1, -11, -13, -3, 4, -28,2.15152332576167,1.190314751423609
1503954642137,+0.759,+0.435,+0.370,+0.312,+0.906,-0.290,-0.338,-12.875,+36.438,+22.312,-1, 2, -13, -4, -3, -6, 1, 0,2.159032124412555,1.1987668069381163
1503954642159,+0.758,+0.438,+0.371,+0.309,+0.871,-0.289,-0.404,-9.938,+28.562,+10.062,18, -2, -6, 0, -1, -1, -1, 3,2.162155900069772,1.2061033654568596
1503954642182,+0.757,+0.443,+0.372,+0.305,+0.890,-0.295,-0.323,-10.750,+39.062,+2.188,-3, -5, -11, -9, 1, 1, -7, 6,2.1683788565353415,1.217775376172706
1503954642197,+0.754,+0.450,+0.371,+0.302,+1.014,-0.232,-0.320,-16.500,+45.500,+1.250,0, -1, -3, -14, -33, 4, 0, 2,2.17254772648374,1.2303972443717484
1503954642219,+0.753,+0.454,+0.370,+0.299,+0.988,-0.147,-0.354,-13.688,+25.562,+7.875,-33, -10, -2, -10, 2, 0, 0, 6,2.1779901327029756,1.2368572128815312
1503954642242,+0.755,+0.452,+0.367,+0.302,+0.778,-0.158,-0.373,-1.625,-12.625,-4.188,-10, 0, 4, -2, -1, -3, -4, -11,2.1791383699950426,1.228665529745703
1503954642257,+0.755,+0.452,+0.364,+0.305,+0.674,-0.232,-0.372,-4.062,+0.562,-29.875,2, -1, 8, 10, 17, -4, 6, 5,2.178057777725752,1.2244987184528808
1503954642279,+0.750,+0.461,+0.363,+0.305,+0.853,-0.191,-0.305,-13.750,+53.812,-24.375,6, -7, -9, -4, 8, 7, -1, -13,2.177709753347797,1.2420529252433055
1503954642302,+0.747,+0.469,+0.361,+0.302,+1.036,+0.007,-0.359,-17.312,+52.750,+3.750,-6, -8, -12, -7, 2, -2, 2, 0,2.184131185960953,1.2557290824428848
1503954642317,+0.746,+0.471,+0.359,+0.303,+1.030,-0.046,-0.378,+2.688,+10.375,+1.125,-5, 7, 9, 59, 59, 2, 5, -17,2.184519179209205,1.2570922377328828
1503954642339,+0.748,+0.466,+0.357,+0.308,+0.892,-0.266,-0.383,+11.375,-29.750,-18.938,16, 5, -4, 2, -48, 7, 14, 26,2.179723198261957,1.2440417872983667
1503954642362,+0.750,+0.461,+0.355,+0.313,+0.800,-0.340,-0.331,+2.312,-38.250,-24.250,5, 32, 66, 9, -7, 8, 10, 34,2.1749859631631763,1.2310998398111594
1503954642377,+0.750,+0.462,+0.352,+0.316,+0.854,-0.224,-0.344,-3.438,-2.562,-19.188,18, 0, 1, -4, -4, -5, -7, 24,2.175124103773051,1.2293692813990986
1503954642402,+0.750,+0.461,+0.350,+0.319,+0.732,-0.077,-0.412,+1.688,-0.312,-12.938,10, -2, -6, -4, 15, 12, -7, 5,2.1724197501654126,1.2246312172483456
1503954642422,+0.748,+0.464,+0.349,+0.321,+0.747,-0.079,-0.262,+5.438,+18.250,-17.062,5, -3, -2, -6, -9, -10, -20, 18,2.1703673780784976,1.2298247372232043
1503954642437,+0.743,+0.472,+0.349,+0.321,+0.842,-0.109,-0.265,-1.500,+48.438,-18.000,-25, -10, -13, -30, -12, 16, -1, -14,2.16905060047854,1.2467653780588042
1503954642459,+0.740,+0.477,+0.349,+0.321,+0.944,+0.005,-0.366,-0.125,+39.562,-5.938,-17, -9, -9, 5, -16, -12, 0, -9,2.168649959090667,1.2574553724446065
1503954642482,+0.739,+0.477,+0.349,+0.323,+0.891,-0.013,-0.334,+12.312,+4.062,+3.062,2, 0, -8, -9, 5, 3, -4, -12,2.1648176571954334,1.2575946730054346
1503954642497,+0.736,+0.479,+0.352,+0.323,+0.899,-0.120,-0.236,+15.312,+22.750,+10.625,-14, -4, 6, 3, -4, -7, 4, -2,2.159218511055055,1.2660464800466633
1503954642519,+0.733,+0.483,+0.358,+0.317,+1.049,-0.112,-0.205,+6.688,+46.125,+30.688,24, -8, -8, -1, 4, -2, -6, 20,2.1594728134526258,1.2826994423276472
1503954642541,+0.733,+0.484,+0.363,+0.312,+1.064,-0.007,-0.239,+10.000,+21.438,+49.500,-13, -3, -4, -1, -1, -7, 0, -14,2.162134995777417,1.2919975348948385
1503954642556,+0.735,+0.479,+0.368,+0.308,+0.979,-0.052,-0.199,+17.000,-12.000,+61.000,-5, 3, 0, -14, 0, -6, -5, -18,2.1609130606383835,1.2882091572826837
1503954642578,+0.737,+0.475,+0.375,+0.302,+0.910,-0.235,-0.122,+13.500,+0.188,+60.125,4, 2, -1, -2, 8, 3, 18, 8,2.16166380896391,1.2897622356278817
1503954642603,+0.740,+0.472,+0.380,+0.292,+0.938,-0.258,-0.147,-6.250,+5.062,+70.750,44, 15, -3, -11, -3, -3, -1, -12,2.1705360677081056,1.2898493628072227
1503954642616,+0.744,+0.469,+0.384,+0.281,+0.990,-0.190,-0.240,-19.688,+2.625,+78.438,-22, -18, -28, 4, 0, -12, -8, -13,2.1833910200405438,1.2883382139347122
1503954642638,+0.753,+0.461,+0.384,+0.271,+0.916,-0.239,-0.284,-31.688,-34.125,+84.312,-18, -4, 6, 0, -9, -4, 5, 11,2.203658116494713,1.2698834818099436
1503954642661,+0.763,+0.449,+0.384,+0.261,+0.833,-0.322,-0.197,-34.625,-57.000,+87.125,11, 8, -1, 5, -3, 0, 6, -2,2.2230255983244778,1.242274101861042
1503954642676,+0.771,+0.441,+0.384,+0.250,+0.740,-0.388,-0.226,-36.938,-30.688,+74.000,5, -3, 0, 8, 12, -9, -20, -3,2.2442676138023847,1.2230110694496543
1503954642698,+0.778,+0.438,+0.382,+0.239,+0.752,-0.373,-0.303,-48.375,-6.312,+55.562,3, 3, 2, -8, -9, 0, 3, -9,2.270105206592783,1.2116021417930727
1503954642721,+0.783,+0.438,+0.377,+0.229,+0.829,-0.391,-0.359,-58.500,+5.500,+41.250,29, 5, -4, -3, -13, -4, -5, 4,2.295440786263384,1.2017637758739623
1503954642738,+0.790,+0.437,+0.370,+0.220,+0.845,-0.424,-0.407,-66.938,-3.438,+31.562,-1, 1, 1, -1, -1, 1, -4, -3,2.324814866149459,1.1873049887487601
1503954642758,+0.797,+0.434,+0.362,+0.213,+0.818,-0.467,-0.364,-66.312,-24.312,+21.562,2, -2, -5, 19, 18, 9, 6, 5,2.3511148486260782,1.1672782868008
1503954642781,+0.803,+0.431,+0.355,+0.209,+0.807,-0.498,-0.353,-59.500,-23.438,+5.500,2, 2, -1, 9, 11, -7, 2, -8,2.371142670696337,1.1497555243505142
1503954642805,+0.809,+0.429,+0.346,+0.205,+0.780,-0.440,-0.366,-63.000,-23.188,-0.375,17, 5, 8, 13, 3, 4, 1, 1,2.3933143235142884,1.1318524514170012
1503954642818,+0.814,+0.430,+0.337,+0.200,+0.795,-0.432,-0.440,-65.875,-6.250,+2.625,-1, -9, -9, -19, -17, -11, -10, -5,2.416842908155239,1.121001943615789
1503954642841,+0.819,+0.429,+0.328,+0.195,+0.861,-0.481,-0.473,-67.250,-9.750,+5.438,-22, -5, -6, -4, -7, -2, 13, 1,2.439007441717139,1.1057637291176012
1503954642856,+0.824,+0.426,+0.321,+0.191,+0.896,-0.519,-0.432,-52.562,-25.000,-0.375,17, 3, -14, 4, -13, -2, 1, -1,2.4571695264674633,1.089238845007226
1503954642878,+0.827,+0.423,+0.317,+0.191,+0.843,-0.520,-0.449,-31.812,-27.188,-5.812,3, 2, 14, -1, 0, -2, 1, 2,2.46389847497006,1.077583276313369
1503954642901,+0.830,+0.420,+0.314,+0.191,+0.777,-0.477,-0.445,-20.438,-22.625,-8.062,1, 2, 2, 21, 37, 9, -3, 0,2.4699138073195313,1.067411530704005
1503954642916,+0.832,+0.418,+0.312,+0.190,+0.812,-0.486,-0.457,-15.250,-7.688,-0.438,-4, -4, -9, -11, 9, -4, 0, 0,2.4753206749919676,1.060344212237954
1503954642939,+0.833,+0.417,+0.311,+0.189,+0.874,-0.427,-0.513,-8.875,-4.125,+0.938,12, 1, -2, -12, -20, -5, -7, 0,2.4787317731503156,1.0566574302962795
1503954642961,+0.834,+0.414,+0.311,+0.189,+0.852,-0.472,-0.463,-1.438,-15.375,+1.750,-1, -1, -3, -9, -11, -3, 1, 4,2.4788996607527194,1.0497968723308035
1503954642977,+0.835,+0.410,+0.313,+0.191,+0.863,-0.499,-0.449,+9.000,-24.625,-4.438,-9, 0, 22, 9, -3, 4, 6, 0,2.4743149234640036,1.043922382873494
1503954642998,+0.835,+0.406,+0.315,+0.195,+0.877,-0.495,-0.371,+20.000,-27.750,-14.938,-2, -2, -11, -2, -7, -2, -4, -3,2.4650586745563166,1.0383508507921533
1503954643021,+0.835,+0.402,+0.317,+0.200,+0.808,-0.432,-0.432,+24.000,-23.812,-15.625,9, 1, 3, -11, -14, -7, -6, 12,2.45445144668214,1.0332098934561573
1503954643036,+0.833,+0.400,+0.320,+0.206,+0.802,-0.480,-0.394,+29.188,-17.062,-28.125,-3, -1, 5, 4, 1, 2, -7, -5,2.439083066831408,1.0338327276973376
1503954643058,+0.831,+0.399,+0.324,+0.212,+0.827,-0.450,-0.398,+29.938,-9.312,-25.000,-1, -7, -5, -5, -6, -1, 2, -7,2.4237249261089198,1.038371475953956
1503954643081,+0.829,+0.397,+0.327,+0.218,+0.811,-0.447,-0.366,+32.625,-13.688,-24.438,51, 5, -14, -14, -2, -4, -7, 5,2.408495652727102,1.0391962580103618
1503954643096,+0.827,+0.395,+0.331,+0.223,+0.809,-0.457,-0.374,+30.938,-13.062,-22.375,-12, -3, -6, -4, 1, -5, 1, -13,2.394013791670577,1.0412293176221223
1503954643118,+0.824,+0.396,+0.334,+0.229,+0.843,-0.404,-0.325,+28.125,-0.312,-27.188,-13, -2, -7, -7, -1, -5, -5, -12,2.3787745191497103,1.0489177353031849
1503954643141,+0.820,+0.400,+0.337,+0.234,+0.875,-0.408,-0.358,+24.312,+15.375,-31.812,22, 12, -6, -6, -5, 7, 1, 1,2.3648730366427673,1.062949159195419
1503954643156,+0.816,+0.403,+0.339,+0.238,+0.893,-0.400,-0.403,+18.625,+14.125,-26.812,-5, -7, -7, -1, 5, 5, 1, -2,2.3523103664364933,1.0727867384678629
1503954643179,+0.814,+0.404,+0.340,+0.242,+0.860,-0.348,-0.416,+16.625,+5.812,-24.125,4, -2, 9, 13, 7, -5, -1, 2,2.3432650119805136,1.0772263461075162
1503954643201,+0.812,+0.406,+0.340,+0.246,+0.825,-0.354,-0.423,+15.188,+9.000,-25.375,21, 9, 6, -20, -16, 1, -9, 7,2.335634584379088,1.0824774713491345
1503954643216,+0.809,+0.409,+0.340,+0.249,+0.816,-0.286,-0.431,+9.438,+19.062,-21.688,-5, 0, 1, -5, -3, 3, -4, -5,2.3279066326502744,1.089313381386708
1503954643239,+0.806,+0.413,+0.340,+0.252,+0.893,-0.228,-0.425,+8.688,+20.375,-18.812,2, -4, 0, 2, 2, -2, 4, -17,2.321064004979638,1.0984862711782288
1503954643261,+0.805,+0.414,+0.340,+0.255,+0.901,-0.270,-0.454,+13.250,+5.688,-14.688,-1, -6, -7, 5, 12, 9, 8, 30,2.316222164463218,1.101414382617536
1503954643276,+0.804,+0.412,+0.341,+0.260,+0.877,-0.341,-0.422,+18.812,-10.438,-18.062,-11, -7, -1, -4, 4, 1, 2, -6,2.3061051307912455,1.0995173716502924
1503954643298,+0.802,+0.413,+0.342,+0.263,+0.826,-0.339,-0.415,+16.562,+3.625,-18.000,0, -3, -4, 18, 5, -7, -9, -5,2.29859734838884,1.1035822172084893
1503954643321,+0.799,+0.415,+0.343,+0.266,+0.839,-0.259,-0.385,+11.875,+15.750,-16.562,0, 6, 32, 9, -13, -1, 0, -3,2.2897968688835326,1.1095838978499177
1503954643336,+0.797,+0.417,+0.343,+0.270,+0.895,-0.296,-0.392,+11.000,+4.562,-20.438,-7, -3, -4, 3, 2, 2, -2, -11,2.2827145530062984,1.1147403631755308
1503954643358,+0.796,+0.417,+0.343,+0.274,+0.856,-0.337,-0.411,+12.062,-3.438,-22.875,-9, -1, 2, 5, 29, 9, 6, -1,2.2761582424386964,1.1156273270218933
1503954643384,+0.794,+0.417,+0.343,+0.278,+0.828,-0.266,-0.422,+12.062,+1.500,-23.062,-3, -2, -5, 8, 36, 13, 9, 9,2.267460790939697,1.1161255872842106
1503954643396,+0.792,+0.420,+0.343,+0.281,+0.906,-0.278,-0.389,+10.688,+14.125,-18.438,-1, -3, -8, -16, -22, -12, -11, -4,2.2625555844151384,1.1232385399766436
1503954643419,+0.790,+0.421,+0.345,+0.283,+0.935,-0.284,-0.396,+12.438,+6.875,-6.812,-7, -7, -15, -16, -25, -12, -9, -6,2.255848636301507,1.128529918848708
1503954643445,+0.790,+0.419,+0.345,+0.286,+0.908,-0.304,-0.407,+14.188,-12.500,-11.125,7, -1, -5, -5, -10, -2, 4, 0,2.250887713960023,1.124852033715386
1503954643456,+0.788,+0.418,+0.346,+0.291,+0.815,-0.301,-0.350,+19.250,-6.688,-21.500,-4, 0, 0, 48, 79, 11, 1, 4,2.2398354982537594,1.1249285837134917
1503954643479,+0.786,+0.420,+0.347,+0.293,+0.862,-0.294,-0.326,+9.250,+9.625,-19.750,8, -1, -1, -1, -13, -5, -3, -4,2.2346864413390994,1.1309627781332818
1503954643501,+0.784,+0.423,+0.347,+0.295,+0.938,-0.282,-0.345,+1.250,+14.188,-13.812,-3, 1, -1, -14, -28, -1, 13, 5,2.231076895667794,1.1377131138081849
1503954643516,+0.783,+0.424,+0.345,+0.297,+0.934,-0.258,-0.345,-4.750,-1.188,-15.500,3, 5, 6, 21, 16, -1, -5, 5,2.2289029897243267,1.1370982782987924
1503954643538,+0.783,+0.426,+0.343,+0.298,+0.865,-0.245,-0.325,-10.688,+0.188,-11.438,-13, -9, -4, -9, -11, -7, 0, -39,2.2309121673243175,1.1388626217006104
1503954643561,+0.783,+0.428,+0.340,+0.297,+0.889,-0.274,-0.348,-18.625,+6.938,-4.938,-3, -3, 0, -6, -2, -1, 0, 3,2.235484109795419,1.1385072136884213
1503954643577,+0.784,+0.431,+0.338,+0.294,+0.927,-0.267,-0.329,-27.000,+9.562,+3.562,2, 1, -1, -20, -31, -2, -15, -1,2.244690239922434,1.1418340746887454
1503954643598,+0.785,+0.433,+0.335,+0.290,+0.932,-0.245,-0.345,-32.875,+5.500,+12.125,12, 5, 2, -16, -5, 1, 3, 14,2.254551503570313,1.1410924287881523
1503954643621,+0.788,+0.434,+0.331,+0.286,+0.929,-0.283,-0.354,-37.688,-1.938,+10.625,0, -7, -7, -7, -5, -9, -13, -27,2.268377202641585,1.137353430941756
1503954643636,+0.790,+0.436,+0.326,+0.282,+0.901,-0.336,-0.312,-38.562,-1.938,-0.500,-3, 3, 5, 9, -3, 0, 3, 9,2.2816471259979316,1.1341922507291884
1503954643658,+0.791,+0.439,+0.321,+0.279,+0.908,-0.279,-0.371,-39.625,+8.250,-3.125,8, 11, 12, 3, 0, 11, -4, -3,2.2927424825552873,1.1334282301887926
1503954643681,+0.792,+0.442,+0.317,+0.276,+0.919,-0.256,-0.354,-36.750,+12.375,-0.125,1, -4, -3, -2, 2, -3, 1, -4,2.3032918950803922,1.1342551239733696
1503954643696,+0.793,+0.444,+0.313,+0.274,+0.895,-0.211,-0.356,-30.562,+2.750,-1.375,5, -4, -6, -1, -5, 5, 8, 22,2.3118564173462848,1.1331135661700005
1503954643719,+0.794,+0.446,+0.310,+0.274,+0.863,-0.217,-0.395,-20.312,+6.000,-8.688,-2, -5, -5, -4, 19, 0, -6, 4,2.3175895759042975,1.1340055932559465
1503954643741,+0.793,+0.448,+0.309,+0.274,+0.881,-0.308,-0.433,-6.312,+12.938,-15.188,-44, -12, -11, -8, -9, -1, 0, -2,2.318036660050796,1.1369458802498058
1503954643756,+0.792,+0.451,+0.307,+0.276,+0.975,-0.237,-0.404,-6.812,+11.625,-17.562,20, 6, 1, -1, 0, -2, -3, -16,2.3178485107155455,1.1414053062805334
1503954643783,+0.790,+0.453,+0.305,+0.277,+0.990,-0.179,-0.399,-3.125,+9.375,-12.938,2, -4, 1, 6, 16, 3, -8, -23,2.3158756283536324,1.1428664777874062
1503954643801,+0.790,+0.453,+0.305,+0.278,+0.896,-0.168,-0.450,-0.812,-0.938,-0.625,11, 14, 35, -4, -73, 6, 0, 2,2.3147740831066943,1.1431266587809186
1503954643817,+0.791,+0.452,+0.305,+0.279,+0.892,-0.224,-0.367,+4.375,-9.562,-5.125,0, -9, -22, -25, -19, -21, -8, -12,2.314733022139792,1.1414069732967707
1503954643838,+0.789,+0.452,+0.305,+0.282,+0.934,-0.211,-0.359,+9.188,-0.625,-12.875,-5, -3, -8, 4, 5, -8, -1, -1,2.3074353947979946,1.1414163800047963
1503954643861,+0.788,+0.453,+0.306,+0.284,+0.998,-0.186,-0.315,+7.625,-3.250,-8.438,8, 1, 0, 8, 19, 5, 1, 24,2.3035870363928237,1.1452956395840455
1503954643876,+0.789,+0.452,+0.306,+0.284,+0.995,-0.223,-0.344,+0.375,-7.250,+6.188,7, -4, 10, 22, 18, -22, 6, -24,2.3046407787202257,1.1433198152017603
1503954643898,+0.789,+0.451,+0.306,+0.283,+0.923,-0.214,-0.383,-2.438,-6.438,+4.188,10, 2, -7, -4, 1, 8, 5, 8,2.304769805070625,1.140699056436464
1503954643921,+0.790,+0.451,+0.304,+0.283,+0.809,-0.164,-0.346,-7.750,-0.562,-1.000,17, 5, -2, -7, -5, 13, 24, 16,2.3080274664600893,1.1383244678122155
1503954643936,+0.790,+0.452,+0.303,+0.281,+0.898,-0.132,-0.355,-12.625,+6.062,+10.938,-25, 6, 9, 0, 6, -1, -21, -25,2.3117892775803215,1.1387911488827438
1503954643958,+0.792,+0.451,+0.303,+0.278,+0.917,-0.234,-0.399,-11.250,-0.250,+21.625,28, 15, -10, -5, -7, -4, 1, 12,2.3181557880196437,1.1364202097445202
1503954643986,+0.794,+0.450,+0.303,+0.274,+0.881,-0.261,-0.349,-14.438,-6.500,+18.000,-14, -6, -4, -5, 5, 36, -4, 17,2.32567293217363,1.1337824511800776
1503954643997,+0.796,+0.449,+0.302,+0.271,+0.914,-0.260,-0.390,-15.500,-4.625,+14.938,-96, -32, -6, -5, 5, -4, -11, -44,2.332751919983779,1.130038978644233
1503954644019,+0.797,+0.449,+0.301,+0.269,+0.862,-0.232,-0.377,-11.688,+0.812,+12.125,63, 44, 76, 39, 10, -3, 2, 105,2.337646369269915,1.128543187694595
1503954644041,+0.797,+0.450,+0.300,+0.267,+0.831,-0.211,-0.354,-13.188,+7.312,+4.500,28, -5, -26, -9, -19, -6, 7, 24,2.3414765417060943,1.1290346236484468
1503954644063,+0.798,+0.450,+0.299,+0.265,+0.874,-0.232,-0.415,-11.938,+3.938,+6.562,-20, -6, -9, 4, 5, -8, -9, -11,2.3463950595258902,1.1275529953703596
1503954644086,+0.799,+0.450,+0.299,+0.264,+0.893,-0.264,-0.328,-10.250,-3.000,+5.125,-6, -2, 1, -2, 2, 47, 5, 24,2.3495146844765276,1.1276864210775284
1503954644101,+0.799,+0.452,+0.298,+0.263,+0.887,-0.245,-0.381,-5.812,+8.250,-1.938,-63, -21, -15, -10, 3, -3, 22, -24,2.3530993984230597,1.1308454938516663
1503954644118,+0.798,+0.452,+0.299,+0.264,+0.890,-0.248,-0.379,+3.938,+5.062,-9.500,-1, -12, -19, -9, -2, -6, 12, -39,2.3493350724697155,1.1320542351557747
1503954644138,+0.797,+0.452,+0.299,+0.266,+0.906,-0.295,-0.370,+7.688,-3.312,-12.438,37, 5, -17, -9, -10, -28, -6, 6,2.3450730446904378,1.132181913457223
1503954644161,+0.797,+0.451,+0.300,+0.268,+0.884,-0.292,-0.387,+6.500,-6.000,-8.562,43, 15, 20, 4, 0, 23, 5, 9,2.341234282388854,1.1316758536101685
1503954644176,+0.796,+0.451,+0.300,+0.270,+0.896,-0.246,-0.374,+5.688,+1.625,-8.312,-9, -4, -12, -19, 1, -4, -1, -25,2.3369851402957202,1.1318061729055555
1503954644198,+0.796,+0.451,+0.300,+0.271,+0.888,-0.193,-0.387,+3.625,+0.062,-8.312,-4, -2, -8, -17, -17, -3, -22, -7,2.3358508893356698,1.1320683414787729
1503954644221,+0.796,+0.450,+0.300,+0.272,+0.931,-0.258,-0.391,+3.312,-6.875,-2.125,-3, -3, -2, 6, 17, -7, 18, 26,2.333808217328473,1.1299577501750186
1503954644237,+0.797,+0.448,+0.301,+0.272,+0.937,-0.283,-0.346,+0.875,-14.438,+3.688,-27, -2, -4, 17, 8, -53, -21, -11,2.3333359687633366,1.1269684774922402
1503954644258,+0.798,+0.447,+0.300,+0.272,+0.917,-0.214,-0.339,-2.750,-12.188,+3.750,-52, -2, -2, -4, -19, -28, -9, -45,2.33505245980283,1.1236396321165727
1503954644282,+0.798,+0.446,+0.300,+0.273,+0.880,-0.196,-0.367,-2.250,-5.812,+0.625,7, -1, 3, 0, -11, 3, 8, 4,2.3330176652988706,1.1215399207652046
1503954644296,+0.799,+0.445,+0.299,+0.273,+0.905,-0.190,-0.382,-3.250,-6.938,+2.688,45, -1, -4, 2, 9, 9, -1, -46,2.334737882001268,1.1182197341145024
1503954644321,+0.799,+0.445,+0.299,+0.272,+0.915,-0.225,-0.341,-3.625,-7.188,+3.438,-2, -14, -8, -9, 0, -35, -16, -19,2.335875770971012,1.117950624727937
1503954645017,+0.833,+0.429,+0.257,+0.235,+0.911,-0.237,-0.507,+8.625,-11.875,-0.062,-8, 2, 1, 18, 7, 1, 7, 10,2.460968069875689,1.0316824495471826
1503954645039,+0.834,+0.426,+0.258,+0.236,+0.889,-0.232,-0.488,+12.938,-18.188,+2.250,26, -1, -12, -19, -7, 9, 0, -8,2.458647757240209,1.0263990419951607
1503954645062,+0.835,+0.423,+0.261,+0.237,+0.893,-0.256,-0.489,+15.250,-13.625,+5.562,8, 7, -5, -8, 2, 0, 5, 0,2.4550107587025085,1.0234740090176362
1503954645083,+0.834,+0.421,+0.264,+0.237,+0.889,-0.250,-0.504,+19.500,-1.938,+10.250,-13, 3, 0, 5, 2, -3, 8, 4,2.449809569711201,1.021794137079475
1503954645099,+0.834,+0.419,+0.268,+0.237,+0.928,-0.258,-0.494,+21.875,-5.375,+17.562,0, 2, 3, 1, 1, 0, -9, -3,2.4457647307164265,1.0218074448973236
1503954645121,+0.835,+0.415,+0.274,+0.236,+0.893,-0.290,-0.488,+29.375,-12.875,+21.500,-13, -5, -6, -6, -7, -5, -6, -4,2.442247654998459,1.019741991753268
1503954645143,+0.835,+0.411,+0.280,+0.237,+0.875,-0.285,-0.492,+34.750,-12.750,+17.062,-7, -3, -8, -5, -1, -5, 10, 6,2.4343289508528296,1.0179886689338882
1503954645161,+0.834,+0.408,+0.286,+0.237,+0.844,-0.286,-0.462,+35.062,-6.125,+16.938,21, -3, -1, 6, 3, 0, -3, 3,2.426563614437141,1.0180225548844521
1503954645181,+0.833,+0.405,+0.292,+0.237,+0.854,-0.309,-0.464,+33.938,-0.688,+19.062,-8, 3, 0, 9, 11, -3, 1, 2,2.4188104396213714,1.0182236484608984
1503954645203,+0.832,+0.403,+0.298,+0.237,+0.863,-0.290,-0.492,+31.812,-1.125,+18.125,0, -14, -22, -26, -19, -7, -8, -10,2.411732478602593,1.02095013408136
1503954645219,+0.832,+0.400,+0.304,+0.237,+0.862,-0.304,-0.457,+33.500,-6.312,+20.438,-13, -3, -12, -10, -5, 1, -2, -5,2.4059887662749215,1.0219288642976831
1503954645248,+0.830,+0.397,+0.310,+0.238,+0.822,-0.296,-0.453,+36.062,-0.125,+14.000,13, 1, 12, 10, 2, -6, -12, -11,2.394997163239855,1.0225430595009504
1503954645264,+0.829,+0.395,+0.316,+0.239,+0.842,-0.322,-0.447,+39.125,+1.188,+13.312,14, 5, 14, 1, 8, 7, 3, 2,2.3866781119414116,1.0261333388413534
1503954645279,+0.827,+0.393,+0.322,+0.239,+0.848,-0.318,-0.460,+37.250,+0.000,+13.188,11, 2, 18, 9, 7, 2, 1, 2,2.3775910013420463,1.0291236494535547
1503954645301,+0.826,+0.391,+0.328,+0.240,+0.817,-0.321,-0.469,+36.562,-0.875,+12.875,0, 7, 0, 0, -4, -2, 0, -10,2.369295932792838,1.0330841558991706
1503954645332,+0.824,+0.388,+0.334,+0.242,+0.817,-0.313,-0.456,+38.562,-2.750,+12.812,-16, 1, 19, 8, 3, 7, 4, 3,2.3569841395453164,1.0348385845770522
1503954645346,+0.823,+0.385,+0.340,+0.244,+0.822,-0.336,-0.474,+42.562,-2.375,+6.562,-5, 5, 38, 21, 8, 5, -3, 0,2.346825650444352,1.0372351914375233
1503954645361,+0.820,+0.383,+0.345,+0.248,+0.827,-0.354,-0.450,+39.812,-4.250,-2.625,6, -3, -10, 13, 2, 5, 9, -1,2.331136489902121,1.0405321332855486
1503954645383,+0.818,+0.382,+0.349,+0.252,+0.828,-0.354,-0.440,+37.438,-4.438,-12.125,13, 5, 4, -5, 2, 0, -4, 0,2.3189223393960052,1.0451581926786129
1503954645399,+0.816,+0.380,+0.352,+0.258,+0.796,-0.331,-0.448,+34.812,-7.250,-17.875,-10, 2, -12, -13, -5, -2, 2, -1,2.304247817092846,1.046751316389103
1503954645423,+0.813,+0.378,+0.355,+0.263,+0.795,-0.344,-0.452,+34.938,-7.438,-19.688,4, -2, 8, -2, 0, -2, -1, 2,2.2885595473203817,1.0476490185998506
1503954645443,+0.811,+0.377,+0.357,+0.269,+0.807,-0.344,-0.425,+30.562,-8.000,-20.438,-6, -1, -12, -1, 0, -3, -2, -15,2.275313760887206,1.0500878761725063
1503954645459,+0.809,+0.376,+0.359,+0.274,+0.831,-0.339,-0.425,+25.938,-5.688,-19.875,-16, -8, -18, -2, 1, 4, -4, 0,2.263294323360769,1.0521851590374804
1503954645481,+0.807,+0.375,+0.360,+0.279,+0.822,-0.328,-0.436,+24.250,-10.625,-16.625,9, 2, -7, -4, -6, -3, 1, -6,2.2518567100302063,1.0526754611161129
1503954645503,+0.806,+0.372,+0.362,+0.284,+0.792,-0.385,-0.458,+24.000,-12.875,-17.688,-6, -2, -9, -18, -5, 0, 1, -22,2.2407654595307953,1.0507295462501898
1503954645519,+0.804,+0.372,+0.364,+0.288,+0.828,-0.406,-0.414,+23.562,-3.125,-21.188,15, -7, -8, -23, -14, -4, -6, 3,2.230797247182289,1.0548126627420211
1503954645541,+0.801,+0.371,+0.366,+0.293,+0.862,-0.370,-0.421,+24.562,-5.500,-20.625,16, 14, 14, 6, 8, -4, 0, -19,2.216681850734117,1.056674906705901
1503954645563,+0.800,+0.370,+0.368,+0.298,+0.818,-0.352,-0.403,+22.875,-12.312,-17.188,8, 6, 14, 13, 11, 5, 10, 11,2.2073931166748446,1.0593624023779513
1503954645588,+0.799,+0.368,+0.369,+0.301,+0.811,-0.345,-0.401,+20.438,-10.000,-10.625,15, -8, 17, 7, 18, 0, -7, 7,2.1998686092417437,1.0573841842779168
1503954645602,+0.797,+0.367,+0.371,+0.304,+0.833,-0.331,-0.395,+17.562,-6.312,-10.062,6, 13, 13, 20, 1, -1, 1, 22,2.1903108065766177,1.0589725155938485
1503954645625,+0.796,+0.367,+0.372,+0.306,+0.843,-0.324,-0.393,+12.875,-0.688,-7.188,-9, -9, -57, -26, -19, -3, -10, 48,2.185457729347965,1.0610825011655007
1503954645639,+0.795,+0.367,+0.373,+0.307,+0.840,-0.353,-0.427,+6.312,-0.938,-2.250,-14, -19, -30, -53, -39, -11, 11, -62,2.181601212248432,1.0628084034666598
1503954645661,+0.795,+0.367,+0.372,+0.308,+0.784,-0.313,-0.438,-0.500,+2.938,-4.688,8, 3, 5, 6, 3, -3, -4, -26,2.181073765838173,1.0614777389995418
1503954645683,+0.795,+0.369,+0.370,+0.309,+0.819,-0.266,-0.421,-5.125,+3.312,-7.125,12, 12, 56, 7, -1, 4, 8, -4,2.1826742164347794,1.0628597465515945
1503954645700,+0.795,+0.370,+0.368,+0.309,+0.856,-0.289,-0.396,-9.750,+2.688,-5.188,-17, 4, 25, 19, 12, 5, 24, 15,2.1844245963778444,1.0616654443459037
1503954645722,+0.795,+0.372,+0.366,+0.309,+0.842,-0.316,-0.416,-15.062,+4.188,-3.062,-31, -13, -22, 1, 6, -1, -23, 2,2.1870276407219587,1.0627077455000447
1503954645743,+0.796,+0.374,+0.364,+0.308,+0.805,-0.345,-0.399,-20.250,+4.125,-7.000,-29, -10, -10, 12, 28, 7, -14, -18,2.1930088542923674,1.0637864997914992
1503954645760,+0.796,+0.378,+0.360,+0.307,+0.860,-0.332,-0.367,-30.312,+11.625,-11.188,-20, -7, -15, 2, -26, -3, 0, 1,2.1992618317213966,1.0656390412063712
1503954645781,+0.796,+0.384,+0.356,+0.303,+0.882,-0.400,-0.367,-43.062,+22.500,-4.250,38, -3, -2, -7, -9, -8, 2, -13,2.210310679154634,1.070992942375706
1503954645803,+0.797,+0.391,+0.351,+0.298,+0.919,-0.282,-0.407,-47.062,+29.562,+3.312,16, 5, 21, 11, 9, 5, 2, 19,2.226195278802098,1.0772334140283393
1503954645819,+0.798,+0.396,+0.346,+0.294,+0.892,-0.236,-0.383,-43.812,+22.062,+6.250,19, 1, -11, -1, 19, -4, -7, 21,2.239466025744525,1.0795769763392074
1503954645842,+0.799,+0.402,+0.342,+0.288,+0.869,-0.274,-0.404,-44.375,+28.812,+10.000,-5, -8, -18, -15, -16, -3, -1, 2,2.255293707301528,1.0853105957775127
1503954645864,+0.800,+0.409,+0.339,+0.279,+0.825,-0.266,-0.423,-49.438,+47.562,+20.438,-1, 3, 1, -4, -5, -33, -16, -10,2.2748211594485674,1.094133134128568
1503954645879,+0.800,+0.418,+0.334,+0.271,+0.896,-0.265,-0.341,-56.188,+46.562,+17.375,-27, -3, -2, 16, -2, -11, 4, -2,2.2941586163631356,1.1047736531516545
1503954645902,+0.803,+0.422,+0.328,+0.262,+0.895,-0.206,-0.426,-59.375,+24.812,+29.250,1, 8, -10, -8, 0, 10, -2, 4,2.317641036688013,1.1035188161478997
1503954645923,+0.806,+0.427,+0.322,+0.252,+0.778,-0.212,-0.435,-64.188,+31.750,+30.062,15, 1, -3, -5, 0, -13, -1, -6,2.3433474828006657,1.1046426151070745
1503954645939,+0.808,+0.435,+0.316,+0.241,+0.795,-0.205,-0.449,-67.938,+48.000,+29.250,-1, -8, -27, -21, -2, -3, -6, -10,2.370877311179337,1.1125867142201018
1503954645962,+0.810,+0.442,+0.309,+0.231,+0.854,-0.200,-0.389,-71.875,+41.500,+21.250,-1, -18, -42, -39, -21, -5, -2, -5,2.3973116687336384,1.117531760404025
1503954645983,+0.812,+0.449,+0.300,+0.224,+0.869,-0.212,-0.406,-71.500,+28.375,+6.750,3, -4, -4, -19, -13, -8, -6, -6,2.4215695929057146,1.1211313415214605
1503954646000,+0.815,+0.451,+0.290,+0.219,+0.858,-0.221,-0.470,-69.500,+4.438,-2.125,19, 5, 12, 17, 4, -1, 1, 39,2.4421850647615937,1.1128035271554582
1503954646022,+0.819,+0.453,+0.279,+0.215,+0.774,-0.214,-0.477,-66.188,+2.750,-8.750,-13, 5, 9, 1, 2, 4, 9, 2,2.4641071489768804,1.1044534714134806
1503954646043,+0.820,+0.458,+0.269,+0.212,+0.797,-0.207,-0.455,-61.500,+14.750,-14.812,6, 2, 18, 1, 1, 4, -3, -4,2.480870208367616,1.104229195983841
1503954646069,+0.821,+0.462,+0.261,+0.210,+0.831,-0.223,-0.385,-54.938,+11.062,-18.062,-8, -12, -26, -21, -13, -4, 7, -15,2.49417500286627,1.1046106685275465
1503954646081,+0.824,+0.463,+0.252,+0.209,+0.861,-0.232,-0.407,-54.188,-7.375,-21.500,14, 5, 6, -10, -10, -6, -6, 7,2.5081184376364103,1.0979109062143313
1503954646103,+0.828,+0.461,+0.241,+0.209,+0.860,-0.226,-0.485,-55.562,-27.062,-19.125,-6, -4, -4, -26, -11, -8, -2, -5,2.521688740974083,1.0827203550098055
1503954646119,+0.833,+0.458,+0.231,+0.208,+0.810,-0.185,-0.517,-54.500,-32.938,-13.625,2, 6, -1, 10, 11, 12, 3, -12,2.536701549536401,1.0668529869442904
1503954646141,+0.837,+0.455,+0.222,+0.207,+0.794,-0.197,-0.532,-51.000,-26.250,-12.625,-22, -1, -9, 2, 0, -2, -6, -15,2.5492887645526334,1.0519831010926104
1503954646163,+0.841,+0.452,+0.213,+0.207,+0.813,-0.191,-0.496,-44.500,-33.875,-18.812,3, 2, -6, 3, 6, 0, 3, 7,2.560394298332241,1.037700266952961
1503954646179,+0.845,+0.447,+0.205,+0.208,+0.859,-0.234,-0.464,-39.062,-49.250,-19.688,-8, -11, -24, -12, -9, -8, -7, -5,2.567935243272447,1.0200287345488606
1503954646201,+0.850,+0.441,+0.197,+0.209,+0.875,-0.257,-0.521,-43.250,-54.062,-17.125,20, 1, 2, -3, -5, -4, 0, 5,2.5762721527199455,1.0007071574999304
1503954646223,+0.856,+0.434,+0.190,+0.207,+0.805,-0.221,-0.543,-39.438,-47.562,+0.000,-2, -3, 7, 8, 8, -3, 3, -12,2.589045122990738,0.98001057959709
1503954646239,+0.860,+0.428,+0.185,+0.204,+0.782,-0.185,-0.608,-36.125,-38.438,+8.812,1, -3, -3, -2, -2, 1, -2, -7,2.5995232719204195,0.962527145412187
1503954646263,+0.865,+0.422,+0.179,+0.202,+0.835,-0.196,-0.584,-33.938,-43.875,+7.938,-9, -2, -9, 0, 0, 1, 4, 0,2.610743874173542,0.9451014548417823
1503954646283,+0.870,+0.416,+0.175,+0.201,+0.886,-0.196,-0.555,-25.500,-52.188,+3.812,6, 1, -8, 11, 2, 0, 5, 0,2.618980375579025,0.9297208016890284
1503954646299,+0.874,+0.408,+0.170,+0.201,+0.882,-0.190,-0.547,-24.250,-61.500,+0.062,-3, 5, 8, -7, -6, -2, -1, 1,2.6239799070747836,0.908622046839517
1503954646322,+0.878,+0.402,+0.166,+0.200,+0.887,-0.214,-0.550,-22.750,-50.250,+0.812,0, -3, -1, -1, -8, -5, 2, 1,2.6308601896778976,0.8930385135612562
1503954646343,+0.881,+0.397,+0.164,+0.198,+0.812,-0.188,-0.581,-19.938,-34.688,+9.062,-15, -3, -4, -18, -11, -1, -4, -4,2.6370297890237318,0.8807533684568152
1503954646359,+0.885,+0.391,+0.162,+0.195,+0.800,-0.170,-0.624,-15.188,-37.438,+17.562,-5, -4, 0, -1, -1, 0, -5, -3,2.6457144761136515,0.8664656314092772
1503954646382,+0.889,+0.383,+0.160,+0.193,+0.814,-0.191,-0.668,-13.250,-47.812,+20.312,-17, -2, 0, 3, 1, -3, -2, -5,2.6520184346707736,0.8477651428675165
1503954646404,+0.893,+0.375,+0.159,+0.190,+0.811,-0.205,-0.681,-11.562,-53.750,+21.938,0, -4, 0, 3, -9, 1, -2, -2,2.6593880995621935,0.8296940132021512
1503954646420,+0.897,+0.367,+0.157,+0.187,+0.817,-0.187,-0.624,-17.562,-53.500,+20.688,9, 2, 0, 6, 7, -1, -1, -5,2.6676025911143024,0.8109868105404233
1503954646441,+0.900,+0.364,+0.156,+0.184,+0.829,-0.194,-0.560,-13.625,-31.062,+17.938,-1, 1, 4, 13, 8, -2, -1, -3,2.6758933504832423,0.8041758357582455
1503954646464,+0.901,+0.361,+0.155,+0.182,+0.825,-0.167,-0.598,-9.312,-25.938,+15.000,-6, -1, -3, -9, -3, 0, -19, -3,2.6799809398761822,0.7965788167436859
1503954646479,+0.903,+0.356,+0.155,+0.181,+0.825,-0.169,-0.604,-4.125,-34.812,+10.250,15, -3, -8, -9, -6, -2, 6, 0,2.6823868888513176,0.7858045964667368
1503954646503,+0.906,+0.351,+0.155,+0.180,+0.797,-0.204,-0.651,-2.812,-40.000,+9.250,-12, 4, 6, 8, 3, -1, -2, -2,2.6861461417018613,0.7755685149194118
1503954646527,+0.909,+0.345,+0.154,+0.179,+0.734,-0.207,-0.659,-7.875,-38.000,+12.125,-8, -4, -7, -2, -1, -2, 6, -1,2.690257643069482,0.7623677157750968
1503954646539,+0.910,+0.342,+0.153,+0.176,+0.714,-0.201,-0.647,-12.000,-22.312,+12.062,-1, 2, 1, 2, -3, 1, 3, 2,2.6961651802073123,0.7546257513912783
1503954646564,+0.911,+0.341,+0.151,+0.174,+0.731,-0.196,-0.638,-14.625,-12.375,+9.688,9, 1, -2, -6, -3, -4, -4, -1,2.7016994527485143,0.7510300423871734
1503954646584,+0.913,+0.339,+0.150,+0.173,+0.757,-0.170,-0.614,-14.000,-18.125,+8.812,-14, 1, 0, -6, -1, -1, 1, -4,2.705874646269896,0.7465629690154382
1503954646599,+0.914,+0.335,+0.148,+0.171,+0.754,-0.170,-0.628,-12.938,-29.750,+10.375,-16, -3, -1, 9, -6, -4, 0, -2,2.710512291360636,0.7361484769726163
1503954646622,+0.917,+0.331,+0.146,+0.169,+0.705,-0.193,-0.673,-15.000,-32.750,+13.938,23, 2, 5, 8, 0, -1, 2, 3,2.717638041480822,0.7267810494118362
1503954646644,+0.919,+0.327,+0.144,+0.166,+0.673,-0.200,-0.693,-18.188,-23.875,+14.500,-6, -3, -7, -6, -1, -1, 0, 1,2.725256853552244,0.7167328901354934
1503954646659,+0.920,+0.326,+0.143,+0.163,+0.674,-0.194,-0.674,-19.500,-8.000,+11.812,2, -2, 0, 10, 6, -1, -4, -2,2.7319069269123504,0.7136682971563038
1503954646682,+0.921,+0.326,+0.141,+0.160,+0.734,-0.191,-0.670,-19.312,-4.250,+9.500,1, 1, 1, -6, -2, 0, 2, 2,2.739430818038303,0.712268100077454
1503954646704,+0.922,+0.326,+0.139,+0.158,+0.745,-0.188,-0.663,-15.812,-10.000,+11.375,-19, -1, -2, -5, -5, 0, 2, 1,2.7452341931088227,0.7111108890263905
1503954646719,+0.923,+0.324,+0.139,+0.156,+0.722,-0.195,-0.675,-11.750,-14.438,+12.875,14, 2, 6, 2, 0, -1, 3, 0,2.7493275164640467,0.7066356447267934
1503954646742,+0.923,+0.323,+0.138,+0.154,+0.716,-0.212,-0.688,-10.812,-10.938,+9.312,-16, -4, -3, -4, -6, -2, 4, 2,2.7531519021907602,0.703333828666862
1503954646767,+0.924,+0.323,+0.138,+0.152,+0.712,-0.225,-0.687,-8.625,-3.500,+6.812,2, -2, 2, 4, 3, 2, 2, -3,2.7577411398532115,0.7034064151974125
1503954646779,+0.924,+0.324,+0.138,+0.151,+0.711,-0.205,-0.701,-6.250,+2.812,+5.250,8, 0, -1, -3, 3, 4, -1, -2,2.7597054810907813,0.7054675861364508
1503954646804,+0.923,+0.325,+0.139,+0.149,+0.712,-0.218,-0.702,-4.250,+6.688,+5.938,4, 2, 1, 6, 6, -3, -4, -1,2.7616885738792454,0.7074125113691548
1503954646824,+0.923,+0.327,+0.140,+0.148,+0.711,-0.229,-0.718,-1.688,+10.812,+3.500,-11, 0, -5, -11, -7, -1, -3, 0,2.7632659923094085,0.7123543216094034
1503954646840,+0.922,+0.329,+0.141,+0.147,+0.718,-0.202,-0.720,+0.125,+10.438,+2.125,-4, -3, -1, -5, -2, 0, 0, 0,2.763735517814147,0.7168034852684918
1503954646862,+0.922,+0.330,+0.142,+0.147,+0.723,-0.188,-0.724,+1.500,+5.250,+0.750,2, 2, -4, 0, 8, -2, 1, -2,2.763341407428704,0.7196920312170735
1503954646884,+0.921,+0.330,+0.143,+0.147,+0.693,-0.185,-0.729,+3.625,+3.125,-0.062,-2, -3, -5, 0, 0, -2, 2, 1,2.761613275412744,0.7197939554555093
1503954646901,+0.921,+0.331,+0.145,+0.147,+0.671,-0.168,-0.731,+6.250,+5.500,+1.312,-1, -2, -1, -7, -7, -3, -2, -3,2.7605945178056723,0.7233026463817511
1503954646922,+0.920,+0.332,+0.146,+0.148,+0.682,-0.156,-0.720,+8.500,+8.875,-0.938,6, -4, 1, 3, -2, 2, -3, -2,2.757349278418668,0.7259262880751164
1503954646944,+0.919,+0.333,+0.148,+0.149,+0.700,-0.162,-0.713,+10.875,+8.750,-2.750,4, -3, 6, 6, 9, -1, -2, -3,2.753472296626217,0.7291813372824956
1503954646959,+0.918,+0.334,+0.150,+0.150,+0.703,-0.168,-0.715,+13.125,+6.625,-2.938,1, 4, 3, -4, -5, 0, 0, 3,2.7495869722636477,0.7324562679033408
1503954646982,+0.918,+0.334,+0.152,+0.152,+0.693,-0.163,-0.710,+12.438,+5.250,-5.562,5, -3, -7, -8, -9, -2, -2, -2,2.7448886470233465,0.7341895480458841
1503954647005,+0.917,+0.335,+0.153,+0.153,+0.687,-0.177,-0.694,+11.062,+6.875,-8.062,5, 3, 0, 1, -3, 0, 3, 0,2.741625468476007,0.7368558128497864
1503954647019,+0.916,+0.337,+0.155,+0.155,+0.664,-0.152,-0.684,+9.375,+9.625,-8.625,-1, 0, -1, -5, 0, 0, 0, 1,2.736266318862579,0.7427136787317502
1503954647042,+0.915,+0.338,+0.155,+0.157,+0.682,-0.139,-0.686,+7.688,+10.688,-8.875,-9, -3, 1, 4, -1, -2, -2, -2,2.7319234215247037,0.7449706931246858
1503954647064,+0.914,+0.339,+0.156,+0.159,+0.688,-0.144,-0.682,+6.062,+6.938,-7.250,-19, -2, 2, 1, -1, -1, -4, -3,2.7269545861817024,0.7478930915171265
1503954647079,+0.913,+0.340,+0.156,+0.160,+0.684,-0.146,-0.688,+3.750,+3.688,-5.438,2, -3, -6, -2, -2, 0, 4, 1,2.7243181065417112,0.7499191858360912
1503954647103,+0.913,+0.340,+0.156,+0.160,+0.667,-0.157,-0.690,+1.188,+3.375,-1.625,-6, -2, 1, 3, 0, 0, 0, -2,2.7243181065417112,0.7499191858360912
1503954647124,+0.913,+0.341,+0.156,+0.160,+0.667,-0.153,-0.695,-1.375,+6.500,-0.938,2, -2, -2, -1, 0, -2, 3, -1,2.724589186039616,0.7522196050474637
1503954647139,+0.913,+0.342,+0.155,+0.160,+0.675,-0.143,-0.699,-4.250,+5.062,-1.875,-2, -3, -3, -8, -4, 0, -4, -6,2.7254960606357015,0.7538523080638059
1503954647162,+0.913,+0.342,+0.154,+0.160,+0.692,-0.134,-0.691,-6.000,+0.000,-2.438,-1, -5, -3, -4, -8, -5, 2, -3,2.726131323782451,0.753186088009867
1503954647184,+0.913,+0.341,+0.153,+0.161,+0.690,-0.139,-0.691,-5.875,-4.375,-2.875,0, -1, -2, 0, 1, -3, 0, 2,2.7247936176702887,0.7504492527282794
1503954647203,+0.914,+0.341,+0.151,+0.161,+0.688,-0.149,-0.698,-5.062,-5.250,-3.750,0, -2, 5, 1, 6, -1, 2, -3,2.727258072284755,0.7496365578100761
1503954647222,+0.914,+0.340,+0.150,+0.162,+0.697,-0.153,-0.705,-4.250,-4.688,-5.188,-6, -2, -7, -5, -1, -1, -11, -3,2.72591649535015,0.7469070826501497
1503954647244,+0.914,+0.339,+0.149,+0.163,+0.695,-0.166,-0.715,-4.062,-5.812,-6.438,-15, 1, 2, 1, -2, 1, 5, -2,2.724570386998095,0.7441811375446412
1503954647259,+0.915,+0.338,+0.148,+0.164,+0.696,-0.153,-0.698,-4.625,-7.875,-5.188,3, 2, 1, 0, -3, -1, 2, 1,2.724421051080199,0.7419636957525794
1503954647282,+0.915,+0.337,+0.148,+0.164,+0.692,-0.159,-0.698,-4.125,-7.625,-0.750,-6, -1, -4, -1, -6, -2, -8, -5,2.724140834661132,0.7396725928184357
1503954647304,+0.916,+0.336,+0.147,+0.164,+0.690,-0.167,-0.699,-3.688,-7.250,+2.938,-4, -2, -2, -4, -3, -2, -2, 2,2.725683142302151,0.737239254775264
1503954647319,+0.916,+0.335,+0.147,+0.163,+0.694,-0.175,-0.700,-3.938,-7.312,+5.500,-2, 0, 3, 10, 5, 2, 8, -1,2.7271055322997206,0.7347304340050906
1503954647342,+0.917,+0.334,+0.147,+0.162,+0.706,-0.167,-0.700,-3.938,-7.312,+6.688,-3, -2, -3, -5, -2, -1, -1, -1,2.7297253142955364,0.732725482258546
1503954647364,+0.918,+0.333,+0.147,+0.161,+0.700,-0.173,-0.701,-4.438,-7.312,+6.062,2, -3, -1, -2, -13, -1, -1, -1,2.7323445452517467,0.730720295919137
1503954647380,+0.918,+0.332,+0.146,+0.160,+0.707,-0.166,-0.699,-4.062,-5.500,+5.625,-4, -2, -1, 0, 2, 1, 2, 1,2.734406299405139,0.7275754808323567
1503954647409,+0.918,+0.331,+0.146,+0.159,+0.705,-0.161,-0.704,-2.875,-5.500,+4.812,8, 1, -1, 1, 2, -1, 1, 3,2.735857677616627,0.725070276251103
1503954647424,+0.919,+0.331,+0.146,+0.159,+0.698,-0.161,-0.699,-1.562,-4.938,+2.812,-1, 0, 0, 1, 1, -1, -3, -4,2.7370296647103265,0.7255723788206327
1503954647440,+0.919,+0.330,+0.146,+0.159,+0.692,-0.157,-0.706,-1.188,-4.000,+1.062,-6, 0, 1, 0, 0, 1, 4, 2,2.7367743276320087,0.7232894506519297
1503954647462,+0.919,+0.330,+0.146,+0.159,+0.695,-0.169,-0.704,-0.812,-2.250,+0.625,-4, -3, 0, 1, -1, -1, -1, -1,2.7367743276320087,0.7232894506519297
1503954647484,+0.919,+0.330,+0.146,+0.159,+0.694,-0.160,-0.721,-0.938,-0.688,-1.375,4, 2, 0, 1, 0, -1, 1, -2,2.7367743276320087,0.7232894506519297
1503954647499,+0.919,+0.330,+0.146,+0.160,+0.688,-0.167,-0.717,-0.500,-1.438,-3.562,5, -1, 0, 0, 1, -1, -3, -2,2.73506331955486,0.7235112788016578
1503954647524,+0.919,+0.329,+0.146,+0.161,+0.680,-0.167,-0.709,+0.438,-3.625,-3.375,-5, 2, 1, 0, -3, 0, 3, 3,2.7330961817165873,0.7214527197444887
1503954647544,+0.919,+0.329,+0.146,+0.161,+0.673,-0.163,-0.707,+0.812,-2.375,-2.875,2, 0, 0, 0, 1, -3, 1, 0,2.7330961817165873,0.7214527197444887
1503954647558,+0.919,+0.329,+0.147,+0.162,+0.674,-0.167,-0.722,+1.062,+1.062,-2.688,2, -6, -8, 1, -1, -1, -2, -3,2.7307772450950654,0.7223137313845094
1503954647581,+0.919,+0.329,+0.147,+0.162,+0.684,-0.158,-0.721,+1.438,+2.750,-2.875,-1, -1, -2, 1, 0, -2, -2, 0,2.7307772450950654,0.7223137313845094
1503954647606,+0.918,+0.329,+0.147,+0.163,+0.683,-0.153,-0.709,+1.312,+0.062,-2.312,-1, -1, -5, -1, 0, 2, 8, 4,2.7278804507742564,0.7220368816745721
1503954647618,+0.918,+0.329,+0.147,+0.163,+0.674,-0.156,-0.707,+2.000,-0.875,-1.562,-9, -3, -8, -5, -4, -2, 0, -5,2.7278804507742564,0.7220368816745721
1503954647642,+0.918,+0.329,+0.148,+0.164,+0.677,-0.161,-0.709,+2.125,+0.188,-1.312,-5, -3, -5, -1, -6, -2, 0, 5,2.725564519925982,0.7229053948908302
1503954647663,+0.918,+0.329,+0.148,+0.164,+0.689,-0.160,-0.706,+1.812,+0.500,-1.875,6, 2, 4, -2, 3, 3, 5, -1,2.725564519925982,0.7229053948908302
1503954647679,+0.918,+0.329,+0.148,+0.164,+0.689,-0.154,-0.707,+1.812,-0.625,-0.938,15, 1, 5, -1, -3, -1, 0, 0,2.725564519925982,0.7229053948908302
1503954647701,+0.918,+0.329,+0.149,+0.165,+0.689,-0.156,-0.709,+2.312,-2.062,-0.375,-9, -2, -3, -6, -1, -1, -4, -3,2.7232533187926324,0.7237796865642127
1503954647723,+0.918,+0.328,+0.149,+0.165,+0.687,-0.151,-0.719,+2.000,-1.562,-1.125,-2, -1, -2, -1, 0, -1, -3, -4,2.7229880300942355,0.7215022979616024
1503954647740,+0.918,+0.328,+0.149,+0.166,+0.693,-0.153,-0.711,+0.625,-0.750,-2.062,-8, 0, 3, -2, -2, 0, 3, 0,2.7212875548469717,0.721729133258644
1503954647761,+0.918,+0.328,+0.149,+0.166,+0.693,-0.155,-0.703,+0.562,-0.312,-2.438,-7, -3, 1, -1, -2, 0, -5, -9,2.7212875548469717,0.721729133258644
1503954647783,+0.917,+0.329,+0.149,+0.167,+0.690,-0.148,-0.703,-0.312,+0.312,-2.375,-11, -2, -3, -1, 1, 1, 0, 3,2.7186433750977725,0.7237325868779073
1503954647798,+0.917,+0.329,+0.149,+0.167,+0.694,-0.147,-0.694,-0.812,-0.188,-1.125,3, 2, 3, -2, 1, -1, -1, -5,2.7186433750977725,0.7237325868779073
1503954647821,+0.917,+0.329,+0.149,+0.167,+0.700,-0.159,-0.707,-0.438,-0.562,+0.875,-2, -3, -1, 3, 4, 1, -5, 0,2.7186433750977725,0.7237325868779073
1503954647843,+0.917,+0.329,+0.149,+0.167,+0.696,-0.154,-0.705,-1.125,-1.500,+1.438,5, 2, -5, -7, -2, -1, -7, 2,2.7186433750977725,0.7237325868779073
1503954647858,+0.917,+0.329,+0.149,+0.167,+0.686,-0.154,-0.704,-1.562,+0.000,+0.812,-12, 1, 2, 2, -2, 1, 6, -2,2.7186433750977725,0.7237325868779073
1503954647888,+0.917,+0.329,+0.149,+0.167,+0.691,-0.151,-0.708,-1.625,+2.125,+0.250,4, -1, 2, 1, -3, -3, 1, -1,2.7186433750977725,0.7237325868779073
1503954647903,+0.917,+0.330,+0.149,+0.167,+0.692,-0.146,-0.709,-1.375,+2.188,-0.250,3, -1, -3, -7, -9, -1, -1, 0,2.7189163254919215,0.7260101896085729
1503954647918,+0.917,+0.330,+0.149,+0.167,+0.695,-0.148,-0.714,-0.625,+0.062,-0.375,8, 0, -2, -5, -2, -2, 0, 1,2.7189163254919215,0.7260101896085729
1503954647941,+0.917,+0.330,+0.149,+0.167,+0.692,-0.151,-0.713,-0.312,-1.438,+0.312,5, -3, -1, -2, -12, -1, 0, 2,2.7189163254919215,0.7260101896085729
1503954647963,+0.917,+0.330,+0.149,+0.167,+0.688,-0.152,-0.715,+1.062,+1.438,+1.188,-1, 0, 1, -6, -1, -2, -6, -6,2.7189163254919215,0.7260101896085729
1503954647978,+0.917,+0.330,+0.149,+0.167,+0.686,-0.152,-0.714,+0.500,+3.750,+2.438,-7, -2, 0, 1, 4, -1, -9, -5,2.7189163254919215,0.7260101896085729
1503954648001,+0.917,+0.331,+0.150,+0.166,+0.685,-0.152,-0.722,+0.938,+7.375,+2.875,-16, -3, -2, 3, 4, 2, -2, -2,2.720273017146347,0.7287186596630961
1503954648023,+0.916,+0.332,+0.150,+0.166,+0.691,-0.152,-0.711,+1.750,+6.938,+1.812,3, 0, 0, 6, 4, -1, -3, 0,2.719331193587334,0.7304991116989543
1503954648041,+0.916,+0.333,+0.151,+0.166,+0.717,-0.158,-0.717,+2.938,+3.125,+1.125,-1, 0, 0, -3, -4, 1, -2, -3,2.718990577020902,0.7334406720667965
1503954648061,+0.916,+0.332,+0.152,+0.166,+0.697,-0.165,-0.710,+2.562,-4.125,+1.062,0, 2, -6, -5, -2, -9, -20, 1,2.718102178526703,0.731818543020215
1503954648083,+0.916,+0.331,+0.152,+0.166,+0.671,-0.167,-0.715,+2.875,-4.938,+2.062,-2, -2, 0, 6, 4, 2, 7, 2,2.7178301381025425,0.7295364383638433
1503954648099,+0.916,+0.330,+0.153,+0.166,+0.662,-0.179,-0.712,+1.812,+0.000,+0.312,3, -3, -5, 5, 2, -1, 4, 0,2.7169472306636364,0.7279194359110859
1503954648121,+0.916,+0.331,+0.153,+0.166,+0.684,-0.182,-0.698,+1.188,+1.000,+1.188,0, 0, -1, -4, 4, -3, 1, -3,2.7172172354910558,0.7302003030323313
1503954648145,+0.916,+0.330,+0.154,+0.166,+0.690,-0.178,-0.694,+1.812,-3.312,+2.438,12, -3, 0, -2, -2, 0, 4, -2,2.7163357658892555,0.7285859367723176
1503954648159,+0.917,+0.329,+0.155,+0.166,+0.672,-0.181,-0.708,+2.562,-4.875,+3.000,-1, 0, -1, 7, 5, -2, 4, 0,2.716688146108743,0.7274746913620829
1503954648181,+0.917,+0.328,+0.155,+0.166,+0.667,-0.185,-0.724,+2.125,-4.750,+3.625,-2, -1, -5, -19, -8, 4, 0, 0,2.716424851957757,0.7251958797610223
1503954648203,+0.917,+0.327,+0.156,+0.165,+0.676,-0.184,-0.708,+2.500,-1.438,+3.000,-1, 0, 6, 3, 2, 3, 5, 0,2.7172561560078745,0.7233521852565888
1503954648226,+0.917,+0.327,+0.157,+0.165,+0.680,-0.180,-0.709,+2.062,-2.938,+3.062,7, 1, 1, -3, -3, 0, 2, 0,2.716649892448382,0.7240249478803377
1503954648244,+0.918,+0.326,+0.157,+0.165,+0.688,-0.176,-0.706,+1.875,-4.938,+2.062,-5, -3, -6, -2, -5, 0, -5, -2,2.717624312229292,0.7222454855810445
1503954648263,+0.918,+0.325,+0.158,+0.165,+0.675,-0.173,-0.707,+2.438,-5.375,+2.750,-2, -2, 2, 2, 4, 0, -1, 2,2.7167689106138493,0.7206444994086011
1503954648279,+0.918,+0.324,+0.158,+0.165,+0.685,-0.174,-0.706,+3.312,-4.125,+3.062,-7, 0, -3, 8, 6, 1, 3, 3,2.7165175311385,0.7183699034319702
1503954648301,+0.918,+0.323,+0.159,+0.165,+0.688,-0.175,-0.717,+2.875,-3.750,+2.938,3, -1, -1, -3, -3, -3, -2, 0,2.7156678235554708,0.7167738451820741
1503954648323,+0.918,+0.323,+0.159,+0.165,+0.677,-0.171,-0.717,+2.625,-2.750,+2.812,4, 0, -2, -3, -5, -2, 1, -5,2.7156678235554708,0.7167738451820741
1503954648339,+0.918,+0.322,+0.160,+0.165,+0.678,-0.173,-0.726,+2.125,-0.938,+0.750,1, 0, 0, -3, -5, -3, -4, 1,2.7148217111526436,0.7151815302652227
1503954648361,+0.918,+0.322,+0.160,+0.166,+0.691,-0.185,-0.709,+1.875,-1.438,-1.562,-13, -2, 1, 8, 13, 0, -5, -5,2.713118965544195,0.7154274821151928
1503954648386,+0.918,+0.322,+0.160,+0.166,+0.689,-0.191,-0.700,+1.812,-0.750,-2.625,-6, -3, -7, -6, -8, -3, -2, -1,2.713118965544195,0.7154274821151928
1503954648399,+0.918,+0.322,+0.161,+0.167,+0.686,-0.190,-0.703,+1.688,-0.750,-3.188,-1, 0, -1, -6, -4, -1, -1, -2,2.7108231599555435,0.7163588048280778
1503954648421,+0.918,+0.322,+0.161,+0.168,+0.680,-0.186,-0.707,+2.562,-1.125,-3.000,-10, -3, 0, -2, -2, 1, 2, 1,2.709126636901092,0.7166060013028163
1503954648444,+0.917,+0.322,+0.162,+0.168,+0.680,-0.195,-0.715,+3.062,-1.000,-2.062,6, 2, 2, -10, -9, -2, 7, 5,2.7072720341405763,0.7168016413780797
1503954648459,+0.917,+0.322,+0.162,+0.168,+0.674,-0.192,-0.711,+2.000,+0.125,-0.438,-3, 3, 2, -3, -13, 0, -1, -1,2.7072720341405763,0.7168016413780797
1503954648481,+0.917,+0.322,+0.163,+0.168,+0.680,-0.193,-0.717,+2.000,+1.062,+2.250,-9, -2, 5, 6, 0, 0, -5, -2,2.7066761569524553,0.717494834975263
1503954648503,+0.917,+0.322,+0.164,+0.168,+0.682,-0.196,-0.723,+1.938,+1.750,+2.562,-5, -1, -3, -11, -3, -1, 5, 0,2.7060806095018557,0.718191090931004
1503954648520,+0.917,+0.322,+0.164,+0.168,+0.685,-0.190,-0.713,+1.625,+2.250,+3.000,4, -2, -6, -1, -1, -5, -3, -3,2.7060806095018557,0.718191090931004
1503954648541,+0.917,+0.322,+0.165,+0.167,+0.684,-0.191,-0.713,+1.625,+1.438,+3.375,11, -2, 2, 3, 3, -2, -8, -3,2.7071813359122223,0.7186371950152737
1503954648563,+0.917,+0.323,+0.165,+0.167,+0.688,-0.193,-0.706,+1.500,+0.938,+2.750,5, 1, -3, 3, -1, 4, 9, 5,2.7074295096047516,0.7209102491818992
1503954648579,+0.917,+0.323,+0.166,+0.167,+0.679,-0.193,-0.705,+1.438,+1.688,+2.188,4, 1, -2, -2, 1, -1, 1, 2,2.7068325608544592,0.7216116760418463
1503954648601,+0.917,+0.323,+0.167,+0.166,+0.675,-0.195,-0.700,+1.375,+2.000,+2.188,-3, -3, -1, 4, 4, 1, 1, -2,2.707930610235356,0.7220605335622233
1503954648623,+0.916,+0.323,+0.167,+0.166,+0.678,-0.186,-0.702,+1.375,+2.938,+1.000,-15, 0, 1, -6, -3, -4, -4, -3,2.7066633072520876,0.7215657223931092
1503954648639,+0.916,+0.324,+0.167,+0.167,+0.682,-0.185,-0.692,+1.125,+2.312,-0.375,-6, 0, 4, 6, 3, 0, -1, 0,2.7052150609741914,0.724096764889381
1503954648660,+0.916,+0.324,+0.167,+0.167,+0.674,-0.187,-0.693,-0.125,+1.688,-0.625,-4, -6, -10, -5, -2, -4, 2, 0,2.7052150609741914,0.724096764889381
1503954648683,+0.916,+0.325,+0.167,+0.167,+0.671,-0.193,-0.696,-0.625,+3.750,-0.875,20, 3, 3, 12, 6, 1, 1, 2,2.705465681890004,0.7263734982556174
1503954648699,+0.916,+0.325,+0.167,+0.167,+0.680,-0.188,-0.701,-1.750,+3.250,-0.875,1, -2, -2, -5, -4, -5, -7, -2,2.705465681890004,0.7263734982556174
1503954648721,+0.915,+0.326,+0.167,+0.167,+0.682,-0.202,-0.697,-2.438,+2.375,-1.312,7, 1, 1, 2, 2, 4, 1, -2,2.704447429699145,0.7281555689745391
1503954648743,+0.915,+0.326,+0.167,+0.167,+0.675,-0.200,-0.700,-3.750,+2.062,-1.062,-28, -5, -1, -1, -3, 0, -2, 1,2.704447429699145,0.7281555689745391
1503954648759,+0.915,+0.327,+0.166,+0.167,+0.681,-0.195,-0.707,-4.125,+2.500,-0.438,12, 3, -1, 5, 3, 1, -3, -1,2.705307336426799,0.7297283330214986
1503954648781,+0.915,+0.327,+0.166,+0.167,+0.688,-0.188,-0.698,-3.875,+2.000,-0.625,1, 0, -2, -1, -4, 1, 2, 0,2.705307336426799,0.7297283330214986
1503954648803,+0.915,+0.327,+0.166,+0.167,+0.690,-0.192,-0.705,-3.250,+1.500,-0.562,-4, -2, 1, -2, -4, 2, -3, -3,2.705307336426799,0.7297283330214986
1503954648819,+0.915,+0.328,+0.165,+0.167,+0.685,-0.197,-0.705,-2.375,+1.438,-0.750,9, 1, -1, -1, 1, -1, -2, -4,2.7061708213637052,0.7313048737794836
1503954648840,+0.915,+0.328,+0.165,+0.167,+0.685,-0.199,-0.702,-2.250,+1.000,-0.188,2, -2, -3, 5, 2, 0, 0, 2,2.7061708213637052,0.7313048737794836
1503954648863,+0.915,+0.328,+0.165,+0.167,+0.691,-0.208,-0.701,-1.125,+1.500,-0.438,8, 0, -2, -2, 0, 4, 2, 0,2.7061708213637052,0.7313048737794836
1503954648880,+0.915,+0.328,+0.166,+0.167,+0.686,-0.202,-0.694,-1.000,+1.125,-1.125,-1, 0, 3, 5, 1, 3, -4, -3,2.7055647866176584,0.7320089409513968
1503954648900,+0.915,+0.329,+0.166,+0.167,+0.686,-0.197,-0.698,+0.062,+1.688,-0.938,2, -3, -1, 0, -1, 1, -1, 1,2.7058232592467224,0.7342911243073414
1503954648923,+0.914,+0.329,+0.166,+0.167,+0.688,-0.194,-0.695,+0.625,+2.125,-0.812,1, 0, 0, 6, 3, 1, 3, 2,2.704555762855833,0.7337931426096725
1503954648939,+0.914,+0.329,+0.166,+0.167,+0.688,-0.190,-0.706,+1.062,+2.750,-0.562,2, -1, -1, -1, 1, 2, -2, -2,2.704555762855833,0.7337931426096725
1503954648960,+0.914,+0.330,+0.167,+0.167,+0.689,-0.192,-0.709,+0.562,+2.000,-1.188,4, -1, 2, -7, 0, 0, 1, 1,2.7042082275884147,0.7367848030687659
1503954648983,+0.914,+0.330,+0.167,+0.168,+0.686,-0.188,-0.704,+0.062,+1.062,-1.562,-2, -4, -6, -5, -3, 1, -2, -3,2.70252145936368,0.7370369559201826
1503954648999,+0.914,+0.330,+0.167,+0.168,+0.689,-0.193,-0.689,-0.188,+0.688,-0.750,-3, -1, -2, 1, 1, 1, 2, -2,2.70252145936368,0.7370369559201826
1503954649021,+0.914,+0.330,+0.167,+0.168,+0.691,-0.196,-0.698,+0.125,+0.375,-0.375,-10, -2, 0, -4, -6, 1, -1, -3,2.70252145936368,0.7370369559201826
1503954649043,+0.914,+0.330,+0.167,+0.168,+0.687,-0.190,-0.698,+0.250,-0.125,-0.250,0, 1, 1, -2, -1, -1, -2, -4,2.70252145936368,0.7370369559201826
1503954649066,+0.914,+0.330,+0.167,+0.168,+0.688,-0.189,-0.694,+1.062,+0.000,-0.750,-6, -3, -5, -2, 0, -4, -6, -3,2.70252145936368,0.7370369559201826
1503954649082,+0.914,+0.330,+0.168,+0.169,+0.686,-0.194,-0.693,+1.312,+0.875,-1.688,-6, 0, 2, 1, 3, 0, 7, 4,2.70022997073479,0.738003217813044
1503954649103,+0.913,+0.330,+0.168,+0.169,+0.684,-0.181,-0.700,+1.812,+1.062,-1.812,5, 0, -3, -3, -4, -4, 2, 0,2.698948190383634,0.7375052551456172
1503954649126,+0.913,+0.330,+0.168,+0.170,+0.694,-0.176,-0.701,+1.625,+0.500,-2.562,14, -1, -4, 1, -1, -3, -6, -5,2.6972646849725956,0.7377588197431157
1503954649140,+0.913,+0.330,+0.168,+0.170,+0.690,-0.175,-0.695,+1.750,-0.562,-2.062,7, -1, -3, -1, 0, 0, -1, -2,2.6972646849725956,0.7377588197431157
1503954649171,+0.913,+0.330,+0.168,+0.171,+0.690,-0.179,-0.688,+1.125,-2.062,-1.438,0, 2, -6, -5, -7, -3, 2, -4,2.695583873834778,0.7380122675076726
1503954649186,+0.913,+0.329,+0.168,+0.171,+0.682,-0.182,-0.697,+0.750,-1.750,-0.750,-1, -3, -4, 2, 0, -1, 1, -2,2.695312923151031,0.7357306824141561
1503954649201,+0.913,+0.329,+0.168,+0.171,+0.691,-0.184,-0.697,-1.188,-2.375,+0.312,-6, 2, -1, 2, 0, 3, 1, 1,2.695312923151031,0.7357306824141561
1503954649223,+0.913,+0.329,+0.168,+0.171,+0.693,-0.188,-0.699,-2.125,-1.250,+1.312,4, -2, -2, 4, 3, -1, -10, -4,2.695312923151031,0.7357306824141561
1503954649246,+0.914,+0.329,+0.168,+0.171,+0.697,-0.182,-0.693,-2.250,-1.125,+1.750,21, 3, 3, -3, -2, -2, 6, 2,2.6966034665888676,0.7362278349520488
1503954649261,+0.914,+0.329,+0.167,+0.171,+0.697,-0.191,-0.698,-2.312,-2.562,+1.562,-10, -2, 4, -1, -5, -1, -1, 0,2.697207830660411,0.7355112205732811
1503954649285,+0.914,+0.328,+0.167,+0.170,+0.680,-0.189,-0.697,-2.375,-1.062,+1.750,-6, 1, 1, 4, -6, 7, 4, -1,2.69862239016219,0.7329783106068808
1503954649306,+0.914,+0.328,+0.167,+0.170,+0.688,-0.188,-0.690,-2.438,+0.438,+1.188,-3, -3, -7, -5, 1, -5, -5, -3,2.69862239016219,0.7329783106068808
1503954649322,+0.914,+0.328,+0.167,+0.170,+0.691,-0.192,-0.687,-1.938,+0.062,+1.062,9, -1, -2, 2, 3, -7, -2, -2,2.69862239016219,0.7329783106068808
1503954649343,+0.914,+0.328,+0.167,+0.170,+0.698,-0.201,-0.694,-1.312,+0.062,+0.375,3, 0, -8, -4, -2, 0, -1, 3,2.69862239016219,0.7329783106068808
1503954649365,+0.914,+0.328,+0.167,+0.170,+0.691,-0.199,-0.700,-1.312,-0.688,-0.125,-18, -2, 0, -3, -2, 1, -2, 3,2.69862239016219,0.7329783106068808
1503954649381,+0.914,+0.329,+0.167,+0.170,+0.688,-0.195,-0.698,-1.312,-0.062,-0.938,-19, -3, -4, -3, -3, -2, 3, -1,2.6988886498943123,0.7352588274880731
1503954649403,+0.914,+0.329,+0.167,+0.171,+0.688,-0.198,-0.699,-1.562,+0.250,-2.438,7, -2, -6, -4, -1, -1, -3, -1,2.697207830660411,0.7355112205732811
1503954649426,+0.914,+0.329,+0.167,+0.171,+0.680,-0.194,-0.698,-1.812,-0.750,-2.812,7, 0, -2, -5, -5, 0, 2, 2,2.697207830660411,0.7355112205732811
1503954649441,+0.914,+0.328,+0.167,+0.171,+0.687,-0.195,-0.698,-1.375,-0.688,-1.562,7, 1, 1, -1, 1, -1, -2, -4,2.696939505683906,0.7332312879666394
1503954649463,+0.914,+0.328,+0.167,+0.171,+0.689,-0.192,-0.710,-0.500,-0.812,-0.438,-7, -6, -5, 3, 1, -1, 6, 0,2.696939505683906,0.7332312879666394
1503954649487,+0.914,+0.328,+0.167,+0.171,+0.690,-0.195,-0.687,-0.750,-2.125,+0.938,-5, -1, 2, 3, -1, -2, -3, -4,2.696939505683906,0.7332312879666394
1503954649501,+0.914,+0.328,+0.167,+0.171,+0.682,-0.188,-0.700,-0.312,-2.812,+1.438,7, 4, -2, -1, -1, -1, -6, 2,2.696939505683906,0.7332312879666394
1503954649523,+0.914,+0.328,+0.167,+0.171,+0.682,-0.197,-0.712,-0.375,-0.438,+1.000,-3, 0, 2, -3, 1, -4, -11, -5,2.696939505683906,0.7332312879666394
1503954649545,+0.914,+0.328,+0.167,+0.171,+0.689,-0.193,-0.699,-0.562,+0.188,-0.125,-3, -2, -2, -1, -2, -1, 4, 4,2.696939505683906,0.7332312879666394
1503954649561,+0.914,+0.328,+0.167,+0.171,+0.695,-0.200,-0.702,-1.375,+0.375,-0.875,2, 0, -3, -2, -1, 1, 6, -1,2.696939505683906,0.7332312879666394
1503954649587,+0.914,+0.328,+0.167,+0.171,+0.693,-0.189,-0.703,-1.250,-0.625,-1.500,2, 0, 2, -1, -2, 0, 0, -1,2.696939505683906,0.7332312879666394
1503954649605,+0.914,+0.328,+0.167,+0.172,+0.690,-0.187,-0.696,-0.500,-2.250,-1.562,-1, -6, -2, -5, -6, -11, 2, -1,2.6952593157457896,0.7334841500868853
1503954649621,+0.914,+0.327,+0.167,+0.172,+0.685,-0.194,-0.691,+0.438,-2.250,-0.938,-6, -1, 0, -1, 3, 0, 2, 2,2.6949899623758804,0.7312063733072947
1503954649643,+0.914,+0.327,+0.167,+0.172,+0.689,-0.195,-0.693,+1.375,-0.188,-0.688,-1, -1, -3, -1, 1, 0, -5, -5,2.6949899623758804,0.7312063733072947
1503954649665,+0.914,+0.327,+0.168,+0.173,+0.690,-0.192,-0.703,+2.062,-0.875,-0.938,16, 4, -1, 1, -1, 2, 4, 3,2.69271019349643,0.73217827867338
1503954649681,+0.914,+0.327,+0.168,+0.173,+0.694,-0.195,-0.699,+2.625,-1.562,-1.375,5, -3, 1, -1, -2, 0, -10, -1,2.69271019349643,0.73217827867338
1503954649703,+0.914,+0.327,+0.169,+0.174,+0.679,-0.194,-0.700,+1.875,-0.375,-1.062,-4, -1, -1, 1, 3, 3, 1, -4,2.6904354205255845,0.7331560286337282
1503954649726,+0.913,+0.327,+0.169,+0.174,+0.690,-0.188,-0.700,+1.250,+1.062,-0.250,-1, -2, -2, -6, -13, -3, 0, -2,2.689128730553274,0.7326604793265221
1503954649741,+0.913,+0.327,+0.169,+0.174,+0.688,-0.188,-0.692,+1.812,+1.250,-0.375,-1, -2, 3, -2, 1, -1, -3, -1,2.689128730553274,0.7326604793265221
1503954649763,+0.913,+0.327,+0.169,+0.175,+0.698,-0.186,-0.705,+1.500,+0.188,-2.688,-2, -1, -4, 8, 10, -1, -2, -4,2.687453587120966,0.7329166441079364
1503954649787,+0.913,+0.327,+0.169,+0.175,+0.687,-0.180,-0.704,+0.625,-1.125,-2.438,-7, -2, -1, 1, -1, 1, 3, -1,2.687453587120966,0.7329166441079364
1503954649801,+0.913,+0.327,+0.169,+0.176,+0.694,-0.179,-0.679,-0.250,+0.250,-2.125,-22, -2, 0, -3, -1, 2, -1, 0,2.68578117892682,0.733172690802979
1503954649823,+0.913,+0.328,+0.169,+0.176,+0.701,-0.188,-0.685,-1.312,+0.750,-2.312,5, -1, -5, -3, -1, 1, 2, 1,2.6860592046595873,0.7354486192027931
1503954649845,+0.912,+0.328,+0.169,+0.176,+0.698,-0.194,-0.687,-0.750,+1.938,-2.125,7, 2, 0, -5, 1, -1, 4, 0,2.684741943391308,0.7349527152811861
1503954649862,+0.912,+0.329,+0.169,+0.176,+0.706,-0.192,-0.700,-1.375,+1.125,-1.062,4, 2, -2, -6, -2, 0, 1, 4,2.6850237698339443,0.7372298493482009
1503954649883,+0.912,+0.329,+0.169,+0.177,+0.698,-0.187,-0.682,-1.188,+2.562,-1.188,-6, -3, 0, 2, -2, 3, 5, 0,2.6833552261248586,0.7374848243531708
1503954649906,+0.912,+0.330,+0.169,+0.177,+0.695,-0.190,-0.692,-0.875,+4.438,-1.500,7, -2, 3, 4, -1, 9, -1, -2,2.683640115026657,0.7397629354459055
1503954649922,+0.911,+0.331,+0.169,+0.177,+0.715,-0.190,-0.690,-1.500,+4.875,-0.812,-4, 2, 4, 12, 5, -8, -1, -2,2.68260678156245,0.7415454419093475
1503954649943,+0.911,+0.332,+0.170,+0.177,+0.728,-0.191,-0.694,-0.438,+7.000,+0.500,6, -1, -3, -5, 0, 9, 2, -1,2.6822902813040987,0.7445595256827904
1503954649966,+0.910,+0.334,+0.170,+0.176,+0.736,-0.194,-0.693,+0.062,+8.312,+0.875,0, -1, -6, -4, -4, -6, -4, 3,2.6832138573728184,0.7483746337517657
1503954649981,+0.910,+0.335,+0.171,+0.176,+0.736,-0.187,-0.689,+0.062,+7.000,+0.188,-6, 1, -3, -1, 0, -8, -2, -1,2.6828944848647405,0.7513973131896132
1503954650003,+0.909,+0.336,+0.171,+0.176,+0.733,-0.194,-0.693,+0.000,+5.562,+0.188,-4, -4, -2, -5, -8, 2, 1, -1,2.6818663819709676,0.7531861367725231
1503954650027,+0.909,+0.338,+0.172,+0.176,+0.717,-0.203,-0.676,-0.188,+7.875,+1.250,-7, 5, 3, 4, 4, -3, -1, -2,2.6818434209030366,0.7585077509935086
1503954650041,+0.908,+0.339,+0.173,+0.175,+0.725,-0.206,-0.671,+1.688,+11.562,+3.062,2, 0, 3, -3, -5, -8, -5, -6,2.6818590385234082,0.7607896160747626
1503954650064,+0.907,+0.341,+0.174,+0.174,+0.735,-0.210,-0.668,+2.438,+12.812,+2.312,3, -1, -4, -2, -3, -4, -5, 2,2.682169630693702,0.7653721542904933
1503954650085,+0.906,+0.343,+0.175,+0.174,+0.750,-0.217,-0.659,+3.250,+12.375,+0.688,-1, 0, 2, -1, 1, -1, -7, -5,2.68081995707601,0.7702203941884986
1503954650101,+0.905,+0.346,+0.177,+0.174,+0.732,-0.219,-0.653,+6.250,+14.562,-0.312,4, -2, -3, -1, -1, -1, 3, 0,2.679146473684871,0.7781430975359215
1503954650124,+0.903,+0.348,+0.179,+0.174,+0.728,-0.225,-0.662,+6.938,+17.312,-2.062,0, -3, 1, 8, 7, 3, 2, 1,2.6758259382447087,0.7832818638028117
1503954650145,+0.902,+0.351,+0.181,+0.174,+0.729,-0.230,-0.665,+8.125,+22.812,-3.312,-1, 3, -1, 1, 5, 8, -6, 1,2.6741492107454743,0.7912611227419308
1503954650161,+0.900,+0.354,+0.184,+0.175,+0.721,-0.227,-0.673,+9.812,+23.688,-3.625,-1, -3, -5, -9, -4, -3, -5, -6,2.668838654578851,0.7998153198491822
1503954650183,+0.898,+0.357,+0.186,+0.176,+0.730,-0.235,-0.669,+9.938,+22.000,-5.375,5, -3, -7, -5, -4, -5, 1, -7,2.664168580366174,0.8076243758431697
1503954650205,+0.896,+0.360,+0.188,+0.177,+0.734,-0.238,-0.649,+10.625,+21.188,-6.375,-11, -1, 9, 9, 3, -13, 1, 2,2.6594997660058874,0.8154661585858428
1503954650223,+0.894,+0.364,+0.191,+0.177,+0.744,-0.240,-0.619,+11.875,+24.625,-5.688,-3, -2, -3, -5, -3, 0, 2, -2,2.6561454988783386,0.8262304548747664
1503954650244,+0.892,+0.367,+0.194,+0.178,+0.757,-0.244,-0.632,+14.938,+28.188,-4.125,4, 1, 1, 0, -3, 2, -2, -1,2.65081725291609,0.8349839905157604
1503954650266,+0.889,+0.371,+0.198,+0.178,+0.772,-0.255,-0.616,+17.000,+27.938,-3.062,11, -1, 1, 5, -3, -2, 0, 0,2.6453736163381847,0.8462165616378908
1503954650282,+0.887,+0.375,+0.202,+0.179,+0.776,-0.255,-0.611,+19.500,+25.500,-4.500,8, 1, -3, -12, -5, 4, 0, -1,2.639726649273499,0.8583197825569073
1503954650304,+0.884,+0.378,+0.206,+0.181,+0.781,-0.267,-0.598,+23.000,+26.562,-5.250,2, 2, -5, -5, 0, 0, 4, 2,2.6306710060289222,0.8679336179661736
1503954650326,+0.881,+0.381,+0.211,+0.182,+0.783,-0.272,-0.597,+25.375,+28.750,-5.875,-12, -3, 1, 4, 3, -2, -1, 0,2.6224866703595144,0.8782727653309463
1503954650342,+0.878,+0.385,+0.216,+0.183,+0.791,-0.286,-0.589,+27.250,+28.625,-4.688,-1, -2, 1, -2, -4, -1, -1, 3,2.614669456424005,0.8911127976440862
1503954650364,+0.875,+0.388,+0.222,+0.185,+0.794,-0.287,-0.569,+28.438,+27.438,-5.688,-9, 1, 0, 1, -2, 5, 2, 0,2.6041651320097565,0.9029570754470136
1503954650386,+0.872,+0.391,+0.227,+0.187,+0.792,-0.279,-0.575,+30.562,+27.438,-6.438,-15, -3, -6, -3, 0, -4, 1, -2,2.5943300812722723,0.9140100364071235
1503954650402,+0.869,+0.394,+0.233,+0.189,+0.792,-0.288,-0.569,+32.812,+29.188,-7.938,-1, -1, 0, -6, -4, -2, 0, -2,2.5837912096596996,0.9262067316102096
1503954650425,+0.865,+0.398,+0.239,+0.191,+0.804,-0.290,-0.557,+35.000,+30.062,-10.250,0, -3, -1, -3, 1, -12, -21, -7,2.5721147160859976,0.9404961364324852
1503954650453,+0.861,+0.401,+0.244,+0.194,+0.833,-0.299,-0.555,+35.875,+27.938,-11.000,-2, -1, -4, 0, 0, 2, 1, -1,2.559125318791904,0.9518356397446674
1503954650462,+0.857,+0.404,+0.251,+0.197,+0.819,-0.302,-0.531,+39.125,+27.250,-10.812,-6, -3, -5, -1, -2, 4, 7, 0,2.5447242045956786,0.9655008803720252
1503954650485,+0.854,+0.406,+0.257,+0.201,+0.802,-0.287,-0.537,+40.250,+28.875,-11.000,-3, 1, 7, 0, 6, -4, 0, 3,2.5307141394068586,0.9766883619059696
1503954650506,+0.849,+0.409,+0.263,+0.204,+0.811,-0.303,-0.527,+41.938,+29.312,-12.500,3, -2, 1, -5, -12, -3, 0, 1,2.515292599138044,0.9892314509328849
1503954650522,+0.845,+0.412,+0.269,+0.208,+0.826,-0.283,-0.517,+43.875,+27.188,-15.438,1, 4, -1, 4, 6, 5, -1, -5,2.5001605735956813,1.0027550081767198
1503954650544,+0.841,+0.414,+0.275,+0.213,+0.845,-0.293,-0.509,+45.250,+22.688,-19.500,1, -3, -3, -2, -3, -4, -4, 0,2.483094279788849,1.0143906896952914
1503954650566,+0.836,+0.416,+0.282,+0.218,+0.831,-0.286,-0.495,+47.250,+24.750,-19.125,12, 0, 3, 4, 8, 3, 3, 0,2.4635842278998297,1.0270259575947398
1503954650582,+0.832,+0.418,+0.288,+0.223,+0.813,-0.294,-0.492,+47.625,+25.250,-15.812,-8, 0, -2, -5, -3, -1, 3, 2,2.4466453342989523,1.039110022123956
1503954650604,+0.827,+0.421,+0.295,+0.227,+0.822,-0.284,-0.465,+46.000,+27.875,-14.375,-2, 0, -1, -5, -7, -4, -5, -2,2.429227991055663,1.0543497066223977
1503954650626,+0.823,+0.423,+0.301,+0.231,+0.859,-0.285,-0.451,+46.000,+28.250,-14.625,-1, -2, -1, 0, -2, -5, -2, -7,2.4137563999975256,1.0665626423395298
1503954650642,+0.818,+0.426,+0.307,+0.235,+0.857,-0.279,-0.427,+44.938,+23.938,-15.938,-8, -2, -4, -8, -5, -6, -6, -2,2.3971269419553907,1.080935133087786
1503954650664,+0.814,+0.427,+0.312,+0.240,+0.863,-0.269,-0.399,+43.562,+16.875,-17.750,-3, 3, 5, 5, -4, 0, 0, -2,2.380452213039812,1.0900688303214254
1503954650685,+0.809,+0.429,+0.317,+0.246,+0.847,-0.277,-0.388,+43.062,+17.812,-20.562,5, -1, -5, -5, 0, 0, 0, 1,2.3614132232972227,1.1016145743066463
1503954650702,+0.804,+0.432,+0.322,+0.251,+0.835,-0.278,-0.382,+39.625,+22.500,-23.562,0, 0, 2, 7, 10, 2, 0, -2,2.3445205293286486,1.11537185869321
1503954650724,+0.800,+0.435,+0.326,+0.255,+0.851,-0.286,-0.374,+33.875,+26.500,-23.125,-9, -4, -6, -6, -5, -3, 2, 2,2.331630335619259,1.1278926959083897
1503954650745,+0.794,+0.439,+0.330,+0.259,+0.895,-0.280,-0.358,+32.000,+31.438,-21.875,14, -3, -4, -3, 0, 0, -1, 2,2.3156051037774192,1.1420896838775592
1503954650762,+0.790,+0.443,+0.333,+0.262,+0.892,-0.243,-0.359,+27.000,+28.188,-17.875,-12, -2, 4, -1, 1, 2, 0, 5,2.3056336310351253,1.155356713431938
1503954650783,+0.786,+0.446,+0.336,+0.265,+0.904,-0.231,-0.337,+23.000,+25.250,-16.812,-5, -4, -1, -1, -2, -3, 4, 3,2.2948748422166623,1.1663087433185384
1503954650805,+0.782,+0.450,+0.339,+0.267,+0.911,-0.250,-0.308,+20.250,+27.125,-13.125,5, 5, 9, 3, 2, 0, -2, -2,2.2862433032363976,1.1793992001233142
1503954650822,+0.779,+0.453,+0.341,+0.269,+0.906,-0.227,-0.320,+15.312,+21.125,-8.312,0, -2, -6, -3, -5, -1, -2, -2,2.279469200323109,1.189003953724657
1503954650844,+0.777,+0.455,+0.342,+0.270,+0.902,-0.214,-0.358,+10.375,+21.062,-6.000,16, 2, 3, -5, -4, 2, -4, -1,2.2755508983310646,1.1948204112838579
1503954650865,+0.775,+0.457,+0.343,+0.271,+0.894,-0.218,-0.353,+11.000,+17.875,-5.000,5, 3, 0, -2, -2, 3, 12, 0,2.271661484889747,1.2006456332034516
1503954650882,+0.773,+0.459,+0.344,+0.272,+0.885,-0.210,-0.354,+6.938,+14.500,-4.000,11, 2, 2, 3, 1, 3, -1, 1,2.2678012887454053,1.2064795468400251
1503954650904,+0.772,+0.460,+0.345,+0.272,+0.880,-0.241,-0.313,+5.500,+15.500,-1.000,7, -3, -4, -3, -3, 2, 4, -1,2.266090332711053,1.2100450771107742
1503954650930,+0.771,+0.462,+0.345,+0.271,+0.873,-0.225,-0.329,+1.062,+12.312,+0.125,-8, -3, -1, -3, 2, -3, -4, 1,2.2670428387417076,1.2141823935487936
1503954650942,+0.770,+0.462,+0.344,+0.272,+0.906,-0.208,-0.357,+0.625,+5.500,-5.562,17, 2, 1, 0, -3, -3, 3, 3,2.2645254978676346,1.2125535741474474
1503954650964,+0.769,+0.463,+0.344,+0.275,+0.870,-0.226,-0.322,+7.250,+5.375,-11.250,9, 0, -2, 0, -4, 1, -6, -5,2.260377622522705,1.2153323886375278
1503954650985,+0.768,+0.464,+0.344,+0.277,+0.854,-0.206,-0.302,+6.500,+4.438,-13.250,-2, -1, 0, -7, -14, -5, -7, -3,2.2572788390414806,1.2178560121486666
1503954651002,+0.766,+0.466,+0.343,+0.279,+0.886,-0.227,-0.275,+1.312,+6.562,-15.125,7, 0, 3, -5, 24, -2, 2, -1,2.253759154911385,1.2208669827966803
1503954651023,+0.766,+0.467,+0.341,+0.281,+0.945,-0.214,-0.299,-3.500,+0.250,-12.562,7, 3, -1, 6, -3, -4, 3, 0,2.2540281115732377,1.2206525894701983
1503954651045,+0.767,+0.466,+0.339,+0.283,+0.930,-0.194,-0.352,-1.938,-10.250,-9.000,-8, -1, -1, -5, -2, -5, 0, -1,2.2542827333474884,1.2160668959167933
1503954651062,+0.767,+0.465,+0.337,+0.286,+0.892,-0.205,-0.322,+0.750,-13.688,-12.000,2, 4, 2, 0, 2, 9, -5, 3,2.251444137176983,1.2114121009143048
1503954651083,+0.767,+0.465,+0.336,+0.289,+0.900,-0.202,-0.261,+0.625,-10.062,-17.000,-2, -4, 0, -1, -16, 5, -3, 10,2.249063481157151,1.210636469811494
1503954651105,+0.766,+0.466,+0.334,+0.291,+0.964,-0.253,-0.266,-4.312,-4.500,-19.438,-11, -4, 2, -1, 3, -2, 6, -5,2.2472616282181073,1.2101317888121488
1503954651122,+0.767,+0.466,+0.331,+0.293,+0.957,-0.255,-0.293,-9.125,-9.688,-14.062,8, 5, -2, -9, -11, 1, -1, 9,2.249168377996129,1.2064785398224356
