Timestamp,Orientation X,Orientation Y,Orientation Z,Orientation W,Accelerometer X,Accelerometer Y,Accelerometer Z,Gyroscope X,Gyroscope Y,Gyroscope Z,EMG1,EMG2,EMG3,EMG4,EMG5,EMG6,EMG7,EMG8,Roll,Yaw,Window
1503688018256,-0.646,-0.410,-0.425,-0.484,+1.024,-0.224,-0.279,-24.312,-20.750,-29.938,-3, -5, 9, -7, -9, -1, -5, -33,1.744452564421282,1.2597526452839138,0
1503688018271,-0.648,-0.410,-0.416,-0.489,+0.888,-0.058,-0.256,-26.875,-38.000,-33.875,13, -3, -2, -1, -5, 9, 8, 6,1.7494182823254292,1.244302985405961,0
1503688018286,-0.649,-0.410,-0.406,-0.496,+0.874,-0.072,-0.270,-20.250,-48.438,-44.125,-3, -7, 5, 11, 5, 1, -6, -9,1.7516556623676873,1.2275601867699069,0
1503688018308,-0.648,-0.411,-0.397,-0.505,+0.880,-0.021,-0.397,-8.875,-36.000,-57.375,-8, -6, -2, -4, -11, -7, -2, -12,1.7499788082421686,1.2150054964159134,0
1503688018339,-0.645,-0.412,-0.389,-0.513,+0.818,+0.036,-0.424,-3.062,-18.000,-52.062,-10, 0, -21, -7, -13, 1, 2, -74,1.7436808938671744,1.2036700191938312,0
1503688018361,-0.642,-0.414,-0.387,-0.517,+0.833,-0.029,-0.396,+3.375,+7.500,-36.938,-12, -3, 0, 4, 9, 16, -1, -28,1.73898416817617,1.20426705584064,0
1503688018368,-0.637,-0.419,-0.386,-0.519,+0.887,-0.026,-0.369,+1.750,+28.312,-31.500,-11, -11, -10, -2, -7, -7, -7, 17,1.7345095868320402,1.21159580118435,0
1503688018391,-0.633,-0.424,-0.385,-0.521,+1.014,-0.022,-0.298,-4.500,+21.438,-31.312,16, 6, -1, -8, -10, -4, 2, 23,1.732574126555921,1.2192749099552207,0
1503688018406,-0.629,-0.428,-0.383,-0.523,+1.086,+0.024,-0.270,-5.875,+5.562,-31.188,-2, -52, -16, -9, 2, -6, 10, 24,1.7293772867517745,1.223169330681478,0
1503688018429,-0.627,-0.430,-0.380,-0.527,+1.040,+0.067,-0.305,-1.125,-7.188,-24.438,3, 7, -2, 0, -4, -6, -5, 21,1.7275088430531127,1.2223295254653495,0
1503688018451,-0.627,-0.429,-0.376,-0.531,+0.957,+0.073,-0.375,+3.000,-21.188,-18.312,-5, 2, 5, 1, -2, 2, -1, 5,1.7256841286059634,1.2141911811075075,0
1503688018466,-0.627,-0.426,-0.371,-0.536,+0.952,+0.021,-0.374,+5.938,-32.500,-20.250,-4, 0, 5, 0, -3, 9, -2, 17,1.7206506350036086,1.200507104015559,0
1503688018488,-0.627,-0.423,-0.367,-0.541,+0.939,-0.004,-0.294,+4.125,-36.000,-25.438,47, 15, -2, 3, 4, -2, -4, 4,1.7155117869644385,1.188664897799074,0
1503688018510,-0.628,-0.421,-0.363,-0.545,+0.969,-0.027,-0.271,+2.500,-36.562,-19.750,-1, 6, 0, -4, -5, 0, 3, 13,1.7144721846024196,1.1789636891550246,0
1503688018528,-0.629,-0.419,-0.359,-0.547,+0.978,+0.006,-0.333,-4.312,-29.938,-7.750,-19, -22, -11, -2, 0, 3, -3, -12,1.713805879135474,1.1687593920839376,0
1503688018548,-0.632,-0.417,-0.356,-0.549,+0.922,+0.059,-0.361,-6.250,-26.250,+0.125,-15, -2, 0, -2, -7, 3, -4, -54,1.7177116195271316,1.1610080172602801,0
1503688018571,-0.633,-0.415,-0.352,-0.550,+0.945,+0.060,-0.379,-4.250,-24.062,-1.688,2, 10, -1, -2, -15, 2, 4, 13,1.7172702468657122,1.1506096414996716,0
1503688018586,-0.635,-0.413,-0.350,-0.551,+0.992,+0.011,-0.343,-4.438,-28.375,+1.375,-3, 5, 2, 4, -1, -5, -4, 0,1.718951859128131,1.1440503065174152,0
1503688018608,-0.638,-0.410,-0.347,-0.552,+0.993,-0.008,-0.348,-7.000,-30.812,+4.125,-5, 1, 2, -1, 5, 3, -2, 12,1.7216183779818721,1.1341091232255973,0
1503688018631,-0.641,-0.408,-0.344,-0.552,+0.942,+0.000,-0.351,-10.688,-26.375,+5.688,9, -1, -3, 2, -4, -7, 4, -7,1.726047380077993,1.1259438196039875,0
1503688018646,-0.644,-0.406,-0.342,-0.551,+0.938,+0.031,-0.377,-8.688,-20.688,+10.438,-9, 0, -4, -2, 8, -2, 0, 0,1.7305981296463318,1.1192285014247585,0
1503688018668,-0.647,-0.404,-0.339,-0.551,+0.947,+0.008,-0.409,-5.688,-28.000,+7.438,-8, 1, 1, -2, 0, -5, -2, -5,1.7351223373038005,1.111129140639663,0
1503688018691,-0.649,-0.401,-0.335,-0.553,+0.913,+0.003,-0.405,-6.188,-32.125,-0.438,-2, -10, -10, 0, -2, 1, -4, -15,1.73554387238163,1.0995959669989805,0
1503688018706,-0.652,-0.398,-0.333,-0.553,+0.921,-0.011,-0.388,-5.125,-26.312,+2.625,2, 0, 5, -2, 8, -6, 5, -31,1.7385609990415103,1.0912564532908597,0
1503688018729,-0.654,-0.397,-0.332,-0.552,+0.935,-0.015,-0.407,-7.000,-13.688,+8.625,4, 3, -1, -2, -8, -6, -3, -20,1.7422357695824846,1.0879806220952157,0
1503688018750,-0.656,-0.396,-0.331,-0.551,+0.927,+0.025,-0.448,-6.625,-9.875,+14.250,8, 10, 3, 4, 4, 6, -1, 19,1.7459303938576185,1.084710253715736,0
1503688018767,-0.659,-0.394,-0.330,-0.550,+0.952,+0.023,-0.468,-1.812,-10.500,+16.125,-10, 2, 0, -2, -6, 1, -6, -1,1.7506046173705867,1.079805146894123,0
1503688018788,-0.661,-0.391,-0.330,-0.549,+0.955,-0.006,-0.439,+0.812,-18.188,+16.688,-4, -5, -1, -4, 2, 0, -3, -20,1.7513624368261091,1.0742136202972759,0
1503688018810,-0.664,-0.388,-0.330,-0.548,+0.937,-0.027,-0.449,+4.250,-17.062,+19.938,-3, -10, -5, 2, 1, -1, -2, -10,1.7545855135139194,1.0690106198116447,0
1503688018826,-0.667,-0.384,-0.332,-0.546,+0.943,-0.038,-0.460,+8.688,-10.875,+25.250,16, -15, -20, -6, -14, -3, 1, 30,1.7564524884104795,1.064886586847832,0
1503688018849,-0.669,-0.380,-0.334,-0.544,+0.958,-0.052,-0.456,+12.125,-10.812,+28.125,-30, -6, 0, -4, 4, 1, -2, 3,1.7559976517327063,1.0604284420617227,0
1503688018871,-0.671,-0.376,-0.337,-0.543,+0.961,-0.048,-0.472,+17.250,-14.125,+25.250,5, 7, 7, 2, -2, -3, 6, 7,1.755243748485371,1.058047327926026,0
1503688018887,-0.674,-0.371,-0.339,-0.542,+0.950,-0.049,-0.473,+20.188,-18.562,+25.188,1, 6, 2, -3, -5, -6, -6, -9,1.7558296321005002,1.052420647555201,0
1503688018909,-0.676,-0.365,-0.342,-0.541,+0.936,-0.071,-0.474,+23.312,-18.375,+28.875,6, -3, 1, 2, -2, 0, -4, 6,1.7526437598262032,1.0462720273034574,0
1503688018931,-0.679,-0.359,-0.346,-0.540,+0.921,-0.099,-0.487,+26.562,-13.375,+31.875,-3, 2, 9, 3, 4, 4, 8, -1,1.7519750441392496,1.0423423508170193,0
1503688018947,-0.681,-0.353,-0.350,-0.538,+0.935,-0.107,-0.514,+29.750,-12.000,+34.250,-2, 5, -5, -3, 0, -3, -2, 1,1.749250964269328,1.037827747134435,0
1503688018969,-0.683,-0.346,-0.355,-0.537,+0.930,-0.116,-0.502,+35.062,-12.750,+36.562,4, -3, -4, 4, 2, 2, 2, 4,1.7450818950890101,1.033677543224044,0
1503688018991,-0.685,-0.338,-0.360,-0.536,+0.917,-0.130,-0.533,+42.250,-14.062,+36.125,-10, 6, 5, -3, 3, 0, -6, 1,1.7399144725949236,1.0278482233538486,0
1503688019007,-0.686,-0.329,-0.366,-0.536,+0.910,-0.170,-0.538,+46.062,-15.938,+34.938,10, -12, -7, 0, -5, -2, 4, 8,1.7309282499376442,1.0222580466491629,0
1503688019031,-0.687,-0.321,-0.372,-0.536,+0.900,-0.178,-0.513,+50.312,-17.875,+34.000,19, 32, 2, 3, -1, 3, 1, 9,1.7234213077628577,1.018859313487437,0
1503688019051,-0.688,-0.311,-0.379,-0.536,+0.865,-0.211,-0.486,+56.375,-17.000,+34.500,-5, -7, 5, -1, 4, -1, -1, 5,1.713791604355394,1.014021355297128,0
1503688019068,-0.688,-0.301,-0.387,-0.535,+0.840,-0.241,-0.513,+60.875,-12.500,+36.562,-7, -29, -10, -1, 0, -2, -8, -21,1.7020013931468039,1.0108145130596995,0
1503688019089,-0.688,-0.291,-0.395,-0.535,+0.840,-0.243,-0.554,+66.062,-12.875,+37.812,-1, -6, 0, 0, -2, 1, 3, -14,1.690351786523589,1.0085605124860542,0
1503688019111,-0.687,-0.280,-0.403,-0.536,+0.826,-0.259,-0.524,+70.000,-14.625,+33.438,-2, 6, -5, -5, -1, -1, -10, -10,1.6751178125877757,1.0052524153539293,0
1503688019127,-0.686,-0.269,-0.411,-0.537,+0.804,-0.271,-0.464,+72.938,-15.938,+28.562,9, -5, 1, -1, -2, 0, -1, 9,1.6602486024464531,1.0025977412738019,0
1503688019149,-0.684,-0.259,-0.421,-0.537,+0.781,-0.313,-0.435,+75.312,-12.188,+28.188,-9, -3, -9, -6, -5, -1, 3, 15,1.6440088296296231,1.0057012435681278,0
1503688019171,-0.681,-0.249,-0.429,-0.538,+0.770,-0.326,-0.458,+74.250,-8.562,+25.188,-1, 0, 0, -3, -1, -3, 3, 17,1.6251848455873668,1.005532542084796,0
1503688021533,-0.663,-0.308,-0.326,-0.600,+0.849,-0.061,-0.583,-4.688,-5.750,-1.625,12, 5, 3, 0, 5, 4, -3, 2,1.6398002993933012,0.9288866928844081,1
1503688021548,-0.664,-0.307,-0.324,-0.600,+0.836,-0.070,-0.584,-5.062,-11.562,-1.562,-2, -11, -5, -6, -1, 1, -2, -14,1.6412704223956265,0.9239465577846654,1
1503688021571,-0.665,-0.306,-0.321,-0.601,+0.792,-0.068,-0.589,-5.000,-14.562,-3.750,2, 3, -5, -3, 1, 0, 0, -8,1.6426979680661944,0.9176549994672574,1
1503688021593,-0.665,-0.305,-0.320,-0.602,+0.750,-0.062,-0.562,-4.312,-7.562,-3.312,-1, 2, 2, -5, 4, -3, -4, -1,1.6414715008734855,0.9145113368962338,1
1503688021611,-0.666,-0.306,-0.319,-0.601,+0.768,-0.049,-0.570,-5.250,+4.375,+0.688,3, -9, -4, -1, 10, -1, 5, 22,1.6453585729434328,0.9145280140638431,1
1503688021631,-0.666,-0.307,-0.319,-0.600,+0.801,-0.044,-0.585,-5.125,+8.750,+3.000,-4, -5, -3, -4, 5, 4, -7, -9,1.6466355026723203,0.9159252682379467,1
1503688021653,-0.666,-0.308,-0.319,-0.599,+0.833,-0.049,-0.609,-5.500,+6.000,+4.125,6, -18, -6, 3, -6, -4, 1, -2,1.6479179653064977,0.9173262541448755,1
1503688021668,-0.667,-0.308,-0.319,-0.598,+0.811,-0.043,-0.635,-1.562,+1.438,+7.375,-7, 1, 6, 1, -6, -2, -2, -5,1.6505934521077168,0.9173128527686208,1
1503688021690,-0.668,-0.307,-0.320,-0.597,+0.769,-0.061,-0.599,+3.500,+4.125,+9.188,-3, 4, 1, 3, -2, -5, 0, -5,1.6520457741425185,0.9172511263345584,1
1503688021713,-0.669,-0.307,-0.322,-0.596,+0.767,-0.088,-0.550,+1.875,+10.750,+8.000,-21, 4, -7, -3, -7, -3, -1, 1,1.6546264285183212,0.9207299822249715,1
1503688021728,-0.668,-0.309,-0.324,-0.594,+0.785,-0.075,-0.551,-0.500,+17.500,+4.562,6, -1, 7, 2, 1, 4, -3, 1,1.6545291049968545,0.9266665346429913,1
1503688021751,-0.667,-0.311,-0.326,-0.593,+0.844,-0.083,-0.557,+0.625,+16.750,+1.188,3, 0, -1, -6, -3, -7, 1, -3,1.654337750914132,0.9330100051342964,1
1503688021773,-0.667,-0.311,-0.327,-0.593,+0.917,-0.098,-0.553,+1.938,+2.938,-1.688,-1, -7, -4, -4, -7, 3, 4, 1,1.6542857410142926,0.9347692955051286,1
1503688021788,-0.667,-0.309,-0.324,-0.595,+0.854,-0.088,-0.577,+1.750,-20.062,-11.062,6, 5, 0, 2, 3, 3, 0, 4,1.6518488369705253,0.9266845918990033,1
1503688021812,-0.667,-0.307,-0.321,-0.599,+0.792,-0.090,-0.550,+0.500,-30.062,-16.188,7, 9, -1, -2, 2, -1, 0, -3,1.649212936759679,0.9194053739395595,1
1503688021833,-0.667,-0.306,-0.318,-0.601,+0.796,-0.059,-0.550,-2.312,-18.250,-12.625,-2, 1, -1, -4, 4, 2, 4, 13,1.6479749841747386,0.9131569307645956,1
1503688021849,-0.667,-0.305,-0.316,-0.602,+0.829,-0.026,-0.579,-1.938,-8.125,-5.312,-1, 2, 2, 2, 1, 2, 1, 39,1.6467953480503044,0.9082772689673532,1
1503688021871,-0.667,-0.305,-0.315,-0.602,+0.859,-0.038,-0.569,-2.438,-9.562,-1.562,0, -1, 0, 0, -7, -2, 1, -15,1.6468417508845012,0.9065389156135875,1
1503688021893,-0.668,-0.304,-0.313,-0.603,+0.863,-0.034,-0.575,-3.812,-16.812,-1.062,-3, -2, 3, 3, 0, 0, -3, 9,1.648238358386724,0.9020502807212061,1
1503688021908,-0.669,-0.303,-0.311,-0.604,+0.800,-0.033,-0.588,-3.125,-16.625,+2.438,-1, -8, -5, 2, -5, -4, -1, -11,1.649639750825879,0.8975729057245718,1
1503688021930,-0.670,-0.302,-0.310,-0.603,+0.813,-0.057,-0.586,-4.312,-7.250,+5.750,7, 18, 11, -3, 1, -2, 0, -16,1.6512125295649025,0.8940535943894556,1
1503688021947,-0.671,-0.302,-0.310,-0.602,+0.862,-0.055,-0.592,-4.812,-3.500,+8.500,-2, -3, -7, 0, 0, 0, -5, -29,1.6539006336964657,0.8940435602952067,1
1503688021968,-0.673,-0.302,-0.309,-0.600,+0.843,-0.068,-0.580,-6.438,-6.062,+9.250,-3, 5, -1, -7, -16, -1, -2, -9,1.6593419049670357,0.8923040999580278,1
1503688021992,-0.674,-0.301,-0.309,-0.599,+0.830,-0.070,-0.574,-5.438,-6.938,+8.500,6, 0, 1, 3, 1, 11, 1, 17,1.6608956728852518,0.8905070088215346,1
1503688022006,-0.676,-0.300,-0.308,-0.598,+0.816,-0.081,-0.582,-6.250,-6.562,+8.875,-1, 8, 4, 2, 1, -7, -10, -12,1.6651018640604978,0.8873732955556143,1
1503688022028,-0.678,-0.300,-0.308,-0.597,+0.832,-0.087,-0.595,-5.562,-7.000,+9.250,4, 0, 3, -2, -2, -4, 0, -6,1.6704000564288433,0.8877425851929465,1
1503688022051,-0.679,-0.299,-0.307,-0.596,+0.827,-0.084,-0.605,-3.688,-9.312,+8.938,14, 5, 5, 4, 2, 0, 6, 12,1.6720487594649822,0.8842331858624883,1
1503688022073,-0.681,-0.297,-0.306,-0.595,+0.803,-0.088,-0.605,-2.812,-11.312,+10.125,4, -4, -5, 3, -10, 1, 3, -5,1.6751775367147288,0.8793184592377289,1
1503688022088,-0.683,-0.295,-0.306,-0.594,+0.769,-0.098,-0.594,-2.188,-6.938,+10.812,-5, -2, 1, -5, 0, 4, -3, 35,1.6782777410818077,0.8761122060818708,1
1503688022110,-0.684,-0.295,-0.307,-0.592,+0.768,-0.114,-0.610,-1.250,+3.125,+11.812,-2, -4, -7, -4, 6, -5, -9, -29,1.6811070947642497,0.877409604448238,1
1503688022133,-0.685,-0.295,-0.309,-0.590,+0.806,-0.104,-0.593,-1.688,+10.438,+13.125,5, 3, 0, 3, -4, -1, -1, -12,1.6838782246800494,0.8804139445439878,1
1503688022148,-0.686,-0.296,-0.310,-0.588,+0.843,-0.093,-0.589,+0.062,+6.688,+13.438,-6, 5, -3, -1, -3, -5, 4, 1,1.6878286674995304,0.8835001827019654,1
1503688022180,-0.687,-0.295,-0.311,-0.587,+0.833,-0.091,-0.604,+2.375,-0.188,+10.938,2, -2, 0, -1, -1, 3, 2, -1,1.6894132923137675,0.8834015925631685,1
1503688022193,-0.689,-0.293,-0.312,-0.585,+0.813,-0.116,-0.616,+4.625,-5.438,+12.500,-11, -3, -10, 1, -6, 1, -8, -11,1.6926812149377484,0.8814926330218686,1
1503688022208,-0.690,-0.291,-0.313,-0.584,+0.785,-0.107,-0.596,+6.000,-1.875,+11.562,-4, -5, -2, 1, -1, 2, -2, 33,1.6932089472075451,0.879609769326157,1
1503688022231,-0.690,-0.290,-0.315,-0.583,+0.800,-0.114,-0.592,+6.812,+2.812,+11.188,-11, 0, 4, 4, 6, 5, -1, -28,1.6921531960523124,0.8808639181057554,1
1503688022253,-0.691,-0.290,-0.317,-0.582,+0.820,-0.121,-0.591,+5.938,+4.000,+12.750,2, -3, -1, -7, -5, -3, -4, -15,1.6947916088581347,0.8842799570070811,1
1503688022268,-0.692,-0.289,-0.319,-0.580,+0.819,-0.114,-0.591,+5.812,+4.875,+13.438,-3, -4, -4, 0, -3, -4, -2, -8,1.6965298508488318,0.8855159106649636,1
1503688022291,-0.693,-0.288,-0.321,-0.578,+0.822,-0.108,-0.618,+8.688,+5.062,+14.438,11, 5, 2, 2, 1, -16, 3, 17,1.6982811703329015,0.8867564481018307,1
1503688022314,-0.693,-0.287,-0.323,-0.577,+0.822,-0.119,-0.613,+10.312,+4.125,+13.750,-4, -6, -1, -4, 1, -2, -1, 13,1.6972451882038864,0.8880474237022005,1
1503688022328,-0.694,-0.286,-0.326,-0.576,+0.816,-0.137,-0.588,+11.562,+4.438,+13.625,-6, -17, -8, 1, 9, 3, -3, 4,1.698763738225635,0.8914627950017823,1
1503688022353,-0.694,-0.284,-0.329,-0.574,+0.810,-0.152,-0.600,+11.375,+7.000,+14.562,10, -3, 2, -5, -9, 9, 0, -7,1.6967887001899828,0.8923545355271453,1
1503688022373,-0.695,-0.283,-0.332,-0.572,+0.802,-0.160,-0.600,+12.125,+11.500,+15.188,5, 8, 5, 1, -4, 0, 3, 9,1.6985094375378877,0.8953998987780327,1
1503688022389,-0.695,-0.283,-0.335,-0.570,+0.811,-0.155,-0.594,+12.625,+10.812,+15.438,-5, -3, -7, 3, -6, -3, 5, -15,1.6986486411704722,0.8998768584082661,1
1503688022410,-0.695,-0.281,-0.339,-0.568,+0.813,-0.159,-0.597,+15.750,+9.375,+16.250,-6, -7, -5, -4, -5, 2, -7, -20,1.696625151668608,0.9026292235524691,1
1503688022433,-0.696,-0.280,-0.342,-0.566,+0.797,-0.174,-0.580,+15.875,+9.688,+17.312,8, 7, 2, -1, -1, 0, 0, 22,1.698375119735525,0.9057450209579592,1
1503688022449,-0.696,-0.278,-0.346,-0.564,+0.817,-0.184,-0.583,+16.188,+11.188,+17.188,-4, -4, -5, -4, 2, 2, -1, 0,1.6963770367947804,0.9085827784895355,1
1503688022470,-0.696,-0.277,-0.350,-0.563,+0.809,-0.190,-0.567,+16.438,+7.938,+16.812,-4, -5, 1, 5, -7, -6, -3, 7,1.695242470115593,0.9136639142395597,1
1503688022493,-0.696,-0.275,-0.353,-0.561,+0.801,-0.195,-0.564,+17.062,+6.312,+15.062,-3, 1, -1, -2, 4, 0, -1, -9,1.6933325166894295,0.9147746576649631,1
1503688022508,-0.697,-0.273,-0.357,-0.560,+0.804,-0.196,-0.576,+17.750,+6.250,+16.000,3, 10, 0, -3, -8, 1, 3, 9,1.693870088020303,0.9185434505106436,1
1503688022538,-0.697,-0.271,-0.360,-0.558,+0.803,-0.203,-0.569,+18.188,+7.000,+16.875,-1, -2, 2, -5, 2, -3, 2, 1,1.6919912296320054,0.9197298863772607,1
1503688022554,-0.697,-0.268,-0.364,-0.557,+0.809,-0.198,-0.583,+20.938,+6.750,+17.000,6, -2, -4, 2, 1, -6, -1, 7,1.6888842264672819,0.9215338275467748,1
1503688022568,-0.697,-0.266,-0.367,-0.556,+0.784,-0.211,-0.569,+22.375,+4.500,+15.188,0, 2, 0, 6, -1, 0, -3, -11,1.6868641361659347,0.9232575267689357,1
1503688022591,-0.697,-0.263,-0.371,-0.555,+0.774,-0.224,-0.565,+22.688,+5.125,+14.812,-1, -6, -1, 5, 1, -1, 0, -43,1.6838079771521202,0.9251970727209989,1
1503688022614,-0.697,-0.261,-0.375,-0.553,+0.782,-0.234,-0.564,+22.562,+9.750,+16.000,-8, 10, 4, 1, 4, 5, 0, -35,1.681919966057244,0.9284717219241574,1
1503688022629,-0.696,-0.259,-0.379,-0.552,+0.830,-0.229,-0.544,+23.250,+10.125,+15.312,-2, -1, 1, -5, -6, 2, 2, -18,1.6771555090653272,0.931955240120686,1
1503688022651,-0.696,-0.257,-0.383,-0.551,+0.843,-0.250,-0.543,+24.125,+2.562,+14.938,2, 6, -9, 2, -3, -3, 0, 11,1.6751311130870314,0.9358301345623753,1
1503688022673,-0.696,-0.253,-0.386,-0.551,+0.795,-0.248,-0.571,+26.188,-2.000,+14.375,1, -2, 4, -1, 0, -1, -2, 2,1.6711020208246687,0.9348867050604875,1
1503688022689,-0.695,-0.249,-0.389,-0.550,+0.805,-0.255,-0.562,+28.438,-4.250,+14.250,13, 3, 0, -4, 2, 2, 0, 1,1.664499336934221,0.933234799008887,1
1503688022710,-0.695,-0.244,-0.393,-0.550,+0.796,-0.270,-0.557,+31.500,-3.875,+14.625,-2, -1, 4, 6, -3, -2, -2, 0,1.6595756487492743,0.9327637979742135,1
1503688022733,-0.695,-0.240,-0.397,-0.550,+0.770,-0.298,-0.561,+32.000,-1.062,+15.938,3, -3, 2, 0, -2, -2, 0, -5,1.655665164989904,0.9340951898508807,1
1503688022750,-0.694,-0.236,-0.401,-0.549,+0.791,-0.307,-0.560,+31.312,+3.312,+16.625,4, -2, -4, -6, -1, 0, -6, 5,1.6491233527624234,0.934749063017557,1
1503688022770,-0.693,-0.232,-0.406,-0.548,+0.815,-0.307,-0.548,+33.375,+1.625,+17.250,-3, -5, 2, -2, 3, 2, -2, 8,1.6425634991371918,0.9375730297818877,1
1503688022793,-0.693,-0.227,-0.411,-0.548,+0.806,-0.324,-0.562,+36.125,-0.938,+17.312,-2, -6, -1, 1, -11, -7, -4, -4,1.6378708254663985,0.9397130723637633,1
1503688022809,-0.692,-0.222,-0.415,-0.547,+0.799,-0.347,-0.529,+36.438,-4.375,+16.250,-2, -3, -9, -5, 5, 3, 2, 0,1.630531317156502,0.9391365348596233,1
1503688022830,-0.691,-0.217,-0.419,-0.547,+0.777,-0.354,-0.525,+36.500,-5.062,+15.438,-1, 7, 1, 5, 3, -2, 0, -25,1.6231476807243417,0.9392251130017275,1
1503688025412,-0.669,-0.371,-0.365,-0.531,+0.948,-0.067,-0.389,-1.938,-17.312,-17.125,-2, -6, -9, -2, 4, 1, -1, 25,1.7427316761316007,1.0925481071138032,2
1503688025434,-0.669,-0.371,-0.362,-0.533,+0.962,-0.075,-0.375,-3.938,-18.625,-15.062,1, 5, -6, -5, 10, -3, -1, -9,1.7426544105518726,1.087857914657933,2
1503688025456,-0.669,-0.370,-0.359,-0.535,+0.971,-0.065,-0.423,-4.062,-19.812,-8.500,-12, -13, -4, 0, -5, 1, 1, -6,1.7412342797315574,1.0812493846175708,2
1503688025471,-0.671,-0.368,-0.357,-0.536,+0.916,-0.054,-0.444,-5.875,-21.375,-1.938,1, -5, -1, 1, 1, 4, -3, 0,1.743517116356724,1.0748582303767158,2
1503688025495,-0.673,-0.366,-0.352,-0.538,+0.902,-0.008,-0.396,-9.188,-29.812,-0.812,-19, -5, 1, -2, -5, -1, -5, -30,1.7459713111827113,1.0635438846967147,2
1503688025516,-0.675,-0.365,-0.348,-0.539,+0.891,-0.003,-0.417,-9.500,-29.812,-2.062,3, -2, 0, 2, -6, -2, 1, 3,1.749871629883969,1.0556526158632613,2
1503688025532,-0.677,-0.363,-0.343,-0.541,+0.876,-0.020,-0.453,-8.875,-30.938,-4.062,-3, 0, 5, -1, -18, -1, -2, 6,1.752361000185933,1.0444843986904275,2
1503688025554,-0.680,-0.359,-0.339,-0.542,+0.868,-0.074,-0.485,-11.125,-35.438,+1.562,9, 4, -3, 0, 5, 1, -1, 10,1.7548770963991813,1.0312654449560843,2
1503688025576,-0.683,-0.357,-0.334,-0.543,+0.858,-0.070,-0.467,-14.438,-34.812,+4.000,1, 13, 8, 0, -3, -2, -6, -10,1.76016800042921,1.020271806005834,2
1503688025591,-0.686,-0.354,-0.330,-0.543,+0.824,-0.056,-0.474,-13.938,-28.938,+5.312,2, -3, -4, -1, 6, -3, 1, 3,1.7643539537389017,1.0087748477772451,2
1503688025614,-0.689,-0.352,-0.327,-0.543,+0.835,-0.068,-0.509,-13.562,-23.188,+6.562,0, -1, 4, -2, -5, -1, -1, -18,1.76972207666543,1.0009597341679626,2
1503688025638,-0.692,-0.350,-0.323,-0.542,+0.872,-0.080,-0.519,-14.062,-23.188,+7.250,-3, -16, -2, -2, 2, -3, -4, -4,1.7755507174958414,0.9911460488448017,2
1503688025652,-0.695,-0.348,-0.320,-0.542,+0.874,-0.101,-0.494,-15.562,-27.562,+7.438,-5, -1, 0, -3, 1, 1, 4, 30,1.7810017774302185,0.9834118814571388,2
1503688025675,-0.698,-0.345,-0.316,-0.542,+0.849,-0.091,-0.531,-13.188,-29.312,+6.125,21, -1, -1, 3, 3, 2, 3, 16,1.7854180896232708,0.9721223625672363,2
1503688025698,-0.701,-0.343,-0.313,-0.542,+0.823,-0.083,-0.551,-9.375,-23.188,+5.750,-15, 2, 3, -2, -5, 4, -2, -25,1.7909527355391477,0.964470353447691,2
1503688025712,-0.703,-0.341,-0.311,-0.541,+0.833,-0.081,-0.547,-7.812,-18.750,+6.125,-2, 20, 11, 3, -5, -6, -4, -6,1.7941760621053164,0.9577444284646087,2
1503688025734,-0.705,-0.339,-0.308,-0.541,+0.861,-0.071,-0.526,-9.375,-18.750,+5.250,6, -8, -5, -2, -4, 0, -1, -1,1.7972714864783352,0.9497567114884968,2
1503688025756,-0.707,-0.338,-0.306,-0.541,+0.844,-0.087,-0.520,-9.688,-20.688,+4.312,-7, -5, -5, -3, 4, -2, 4, 8,1.801419053889623,0.945356056844341,2
1503688025772,-0.709,-0.336,-0.303,-0.541,+0.826,-0.079,-0.560,-7.375,-18.375,+4.438,-8, 4, -4, 2, 3, -2, -4, -3,1.8045610473782931,0.937421660152897,2
1503688025794,-0.711,-0.334,-0.302,-0.540,+0.815,-0.064,-0.579,-3.250,-10.438,+7.438,-7, -6, -2, -3, -6, -4, 0, -3,1.8077510762536633,0.9323883279173557,2
1503688025816,-0.712,-0.333,-0.302,-0.540,+0.844,-0.078,-0.549,-2.688,-7.625,+6.812,9, 0, -1, -3, 5, 2, 0, 9,1.8091113923829394,0.9308631594044168,2
1503688025832,-0.713,-0.332,-0.302,-0.539,+0.864,-0.075,-0.535,-0.688,-7.000,+8.438,2, 0, 1, 3, 3, 3, -2, -13,1.810816542520688,0.9289770600437035,2
1503688025854,-0.714,-0.331,-0.302,-0.538,+0.832,-0.085,-0.563,+0.500,-6.750,+10.812,13, -5, -6, -3, 1, 1, 1, 12,1.8125323622865246,0.9270906406872771,2
1503688025876,-0.716,-0.330,-0.302,-0.536,+0.822,-0.074,-0.596,+2.562,-3.750,+12.875,-7, -3, -2, -2, -1, -3, -2, 0,1.8171314820591424,0.9252376803882622,2
1503688025891,-0.717,-0.328,-0.304,-0.535,+0.833,-0.092,-0.607,+6.375,+0.000,+16.000,6, -4, -5, 0, -5, 2, -1, -9,1.817422269736327,0.9246652338274479,2
1503688025914,-0.718,-0.326,-0.306,-0.533,+0.847,-0.117,-0.600,+9.375,+2.562,+16.562,2, -4, 3, 0, -4, -4, 3, 14,1.8180902519185618,0.923737878194342,2
1503688025936,-0.719,-0.324,-0.309,-0.531,+0.875,-0.119,-0.578,+11.188,+0.312,+17.750,-3, 2, 1, -2, -3, -1, -3, 2,1.8186258421647605,0.9244533854970259,2
1503688025952,-0.720,-0.322,-0.311,-0.530,+0.883,-0.123,-0.566,+12.562,-7.312,+17.938,-12, -2, -4, 2, 4, -2, 2, -20,1.8189930523416795,0.9239276516267199,2
1503688025974,-0.722,-0.318,-0.313,-0.529,+0.860,-0.137,-0.577,+13.812,-13.125,+17.562,-1, 0, 4, -2, -1, 1, -5, -10,1.8197587680633116,0.9200033664085099,2
1503688025995,-0.723,-0.314,-0.314,-0.529,+0.847,-0.118,-0.580,+15.188,-12.625,+17.312,-1, -1, -2, -3, -4, -1, 1, -7,1.8178462851801234,0.9144588325596529,2
1503688026018,-0.723,-0.313,-0.316,-0.528,+0.879,-0.043,-0.665,+14.062,+3.250,+10.750,-9, 5, 0, -2, 0, -3, -2, -9,1.816822311868428,0.9154935608773834,2
1503688026033,-0.722,-0.314,-0.318,-0.528,+0.917,-0.036,-0.577,+11.000,+7.812,+5.375,0, -6, -6, 0, -1, -2, 2, 6,1.8150177078291931,0.9203239746412332,2
1503688026055,-0.723,-0.311,-0.320,-0.528,+0.889,-0.120,-0.546,+22.750,-11.000,+15.875,5, 0, -1, -1, 3, 3, 0, 12,1.814080694729978,0.9183858536744618,2
1503688026071,-0.723,-0.304,-0.323,-0.529,+0.767,-0.243,-0.633,+29.938,-15.438,+6.375,-8, -4, -4, 1, -7, 1, -2, -7,1.805921943778677,0.9106962801768685,2
1503688026093,-0.723,-0.302,-0.327,-0.529,+0.764,-0.156,-0.624,+27.938,+6.500,+10.500,7, 1, -1, -4, 1, -2, -4, -5,1.8032737834977337,0.9137460169756522,2
1503688026115,-0.723,-0.298,-0.333,-0.527,+0.801,-0.125,-0.629,+32.062,+10.938,+25.938,4, 1, -1, -2, 0, -2, -2, 1,1.7989883207718413,0.915775871794511,2
1503688026130,-0.722,-0.295,-0.339,-0.526,+0.854,-0.189,-0.622,+38.688,+9.000,+24.188,7, -6, -2, 2, -3, -1, 0, -2,1.7928232107076294,0.9198528231966928,2
1503688026153,-0.722,-0.289,-0.345,-0.525,+0.873,-0.192,-0.579,+43.375,-8.562,+24.750,5, -2, 3, -1, 3, -4, -2, -5,1.7863081956458093,0.9189466254747698,2
1503688026175,-0.723,-0.280,-0.351,-0.526,+0.800,-0.233,-0.579,+48.500,-17.562,+26.000,-5, 0, 0, -4, -6, -7, -2, 6,1.7790442247393183,0.9140369332783806,2
1503688026190,-0.723,-0.272,-0.357,-0.526,+0.733,-0.246,-0.611,+52.125,-11.312,+26.125,2, -2, 1, 1, 0, 4, 4, -2,1.7706732371622298,0.9104672233276792,2
1503688026213,-0.723,-0.264,-0.364,-0.525,+0.742,-0.249,-0.596,+55.062,-2.250,+29.188,-4, 6, 0, 4, 4, 5, -1, -6,1.7627094623567137,0.9085819294280689,2
1503688026236,-0.722,-0.257,-0.373,-0.523,+0.768,-0.278,-0.566,+58.188,-1.062,+31.438,3, 5, -3, -4, -2, -4, -4, -3,1.7532003509573248,0.9117630101396369,2
1503688026250,-0.721,-0.249,-0.380,-0.523,+0.795,-0.307,-0.560,+60.312,-9.438,+27.625,-7, -2, 3, 0, -2, 2, -1, 2,1.742589343702574,0.9107590895261038,2
1503688026273,-0.720,-0.240,-0.388,-0.523,+0.752,-0.334,-0.545,+61.125,-12.750,+23.438,-4, -2, -2, 2, 3, -2, -3, 0,1.7312181486578375,0.9103733062726393,2
1503688026295,-0.718,-0.231,-0.395,-0.524,+0.771,-0.353,-0.537,+60.375,-11.812,+21.938,-9, -6, 1, -3, -1, -4, -2, -2,1.7170983254573302,0.9087030343933326,2
1503688029356,-0.770,-0.414,-0.265,-0.407,+0.831,-0.145,-0.443,+10.312,-23.938,-27.875,-3, -3, 1, -1, -5, -1, -2, 6,2.129155112467855,1.026254183536959,3
1503688029378,-0.769,-0.412,-0.263,-0.412,+0.815,-0.124,-0.437,+5.125,-17.125,-26.250,-3, 5, 0, 2, 7, -1, -2, -13,2.12151817100292,1.020105224637293,3
1503688029394,-0.768,-0.412,-0.262,-0.414,+0.927,-0.114,-0.428,-0.312,-7.812,-18.125,1, 4, -4, -2, 0, -1, -2, -20,2.118145126403121,1.0188939829237325,3
1503688029417,-0.768,-0.412,-0.261,-0.414,+0.999,-0.104,-0.427,-4.875,-12.562,-7.938,-2, -19, -4, -1, -3, 0, -2, -14,2.1185753250972743,1.0175662043053153,3
1503688029438,-0.769,-0.411,-0.258,-0.415,+0.978,-0.061,-0.458,-8.250,-23.312,-4.875,5, 0, -2, -3, -1, -2, 1, 14,2.1201229097782774,1.0120961109304563,3
1503688029455,-0.772,-0.407,-0.254,-0.417,+0.929,-0.012,-0.487,-8.812,-39.438,-6.875,-6, 3, 6, 2, -5, -3, -2, 1,2.122295575717075,0.9998689442365112,3
1503688029476,-0.774,-0.403,-0.249,-0.420,+0.851,-0.007,-0.511,-6.250,-44.000,-7.438,-1, 23, 12, 3, 5, -1, -4, -25,2.1219119801250024,0.9862557233374204,3
1503688029498,-0.777,-0.399,-0.245,-0.421,+0.802,-0.034,-0.509,-6.875,-34.250,-4.250,-6, -6, -2, -2, -4, -1, 1, 5,2.1249574744425592,0.9739180326971854,3
1503688029516,-0.779,-0.396,-0.242,-0.422,+0.820,-0.006,-0.562,-9.062,-22.000,-0.562,-7, -9, -5, -3, -2, -3, -2, 3,2.126512416426681,0.9646708658259321,3
1503688029536,-0.780,-0.395,-0.239,-0.422,+0.847,+0.006,-0.550,-6.688,-16.188,+1.688,1, -1, 0, 4, 8, 2, 0, 16,2.1288808506851056,0.9591135862307322,3
1503688029558,-0.782,-0.393,-0.237,-0.422,+0.848,-0.049,-0.542,-7.500,-17.812,+2.750,-4, -3, -5, 2, 4, 3, 0, -6,2.131953205185703,0.9531120413488847,3
1503688029574,-0.784,-0.391,-0.235,-0.422,+0.828,-0.036,-0.545,-9.000,-15.625,+4.000,-16, -6, -4, -4, -2, -4, -3, -2,2.135038282433356,0.9471306174884484,3
1503688029596,-0.785,-0.390,-0.233,-0.420,+0.819,-0.027,-0.542,-8.250,-12.438,+7.000,2, 0, 0, -2, -3, -3, -2, 4,2.138691651488383,0.9423473097155024,3
1503688029618,-0.787,-0.388,-0.232,-0.420,+0.847,-0.051,-0.544,-7.688,-16.000,+4.250,1, -5, -4, -6, -9, 2, -2, -6,2.14138570056971,0.9376467985416301,3
1503688029640,-0.789,-0.386,-0.230,-0.419,+0.844,-0.072,-0.540,-8.375,-19.688,+3.188,0, -4, 0, -2, -5, -3, -1, -1,2.1453688518629837,0.9314408975477089,3
1503688029656,-0.791,-0.384,-0.228,-0.419,+0.806,-0.063,-0.573,-7.562,-15.438,+4.750,2, -3, -1, 0, -8, 1, 1, 6,2.1485115686000316,0.9255295610200044,3
1503688029678,-0.792,-0.383,-0.227,-0.418,+0.791,-0.037,-0.596,-4.875,-6.125,+7.125,-5, 3, 17, 6, 8, 4, -2, -14,2.1509545807087416,0.9223069356245377,3
1503688029694,-0.793,-0.383,-0.227,-0.416,+0.814,-0.051,-0.565,-5.125,-1.812,+7.062,12, 5, -5, -3, 2, -3, 4, 9,2.154889012063167,0.9222211007373958,3
1503688029718,-0.794,-0.383,-0.227,-0.415,+0.859,-0.050,-0.553,-4.562,-3.375,+7.500,1, -7, -6, -2, -6, -3, -1, 22,2.1579522918997744,0.9224096701336677,3
1503688029745,-0.795,-0.382,-0.227,-0.414,+0.838,-0.053,-0.571,-2.812,-5.938,+8.688,6, -1, -4, -2, 3, -2, -3, 5,2.1599960929540294,0.9204170850315495,3
1503688029754,-0.796,-0.381,-0.227,-0.413,+0.800,-0.077,-0.586,-2.688,-4.625,+8.688,25, 23, 3, 1, -5, 0, 3, 15,2.1620491452930906,0.9184248890394282,3
1503688029776,-0.797,-0.380,-0.227,-0.411,+0.789,-0.067,-0.585,-1.500,+1.125,+10.688,-20, -2, -1, -4, -8, -3, -4, -6,2.1650036634031222,0.9161564031119679,3
1503688029797,-0.797,-0.381,-0.228,-0.409,+0.833,-0.059,-0.581,+0.375,+8.312,+10.000,2, -4, 1, 2, 6, 0, 2, -8,2.167373342146924,0.9190056107116523,3
1503688029814,-0.797,-0.381,-0.230,-0.407,+0.886,-0.065,-0.554,+2.562,+4.000,+11.500,-7, -5, 6, 4, -2, -2, -4, -18,2.1683112847402977,0.9209002208370509,3
1503688029836,-0.798,-0.380,-0.231,-0.406,+0.851,-0.087,-0.583,+5.062,-4.750,+11.562,8, 24, 14, 2, 2, -1, -4, 16,2.1699659946321903,0.9201292954827098,3
1503688029859,-0.799,-0.378,-0.233,-0.405,+0.804,-0.092,-0.575,+4.625,-3.875,+9.812,-18, -18, -15, -4, -1, -3, 1, -6,2.170212132189216,0.9184154423867765,3
1503688029874,-0.800,-0.378,-0.234,-0.404,+0.814,-0.093,-0.572,+4.562,+3.688,+10.438,-19, -4, -5, -1, -1, 2, -1, -15,2.172874561015138,0.919827094554018,3
1503688029896,-0.799,-0.379,-0.237,-0.402,+0.849,-0.100,-0.542,+5.000,+9.875,+9.938,1, -6, -1, -1, 7, 1, 3, 18,2.1721993691383186,0.9246978993872241,3
1503688029918,-0.799,-0.380,-0.239,-0.401,+0.899,-0.097,-0.549,+5.625,+9.375,+8.000,1, -8, -4, 0, -2, 0, -3, -9,2.17322886944722,0.9290844305105086,3
1503688029934,-0.799,-0.379,-0.240,-0.400,+0.905,-0.087,-0.564,+6.375,-1.625,+6.375,-6, 3, -3, -2, -5, -2, 0, -3,2.1727230227743024,0.9278679512575791,3
1503688029957,-0.799,-0.377,-0.241,-0.400,+0.861,-0.086,-0.573,+9.688,-8.562,+4.625,11, -5, -3, -1, 3, 0, -1, 2,2.1703335908244274,0.9247685773231615,3
1503688029978,-0.800,-0.375,-0.243,-0.401,+0.826,-0.094,-0.603,+13.250,-5.625,+5.062,9, 5, -1, -2, 5, -3, -2, -20,2.1688290609953254,0.9236919012670982,3
1503688029995,-0.800,-0.374,-0.245,-0.401,+0.831,-0.095,-0.582,+15.750,-0.375,+7.562,4, -12, -2, -2, 1, -2, 4, 21,2.1670166946254925,0.9240579800202164,3
1503688030016,-0.800,-0.372,-0.249,-0.400,+0.852,-0.093,-0.585,+18.375,+1.000,+10.438,-5, -1, 2, 2, -4, 1, -1, -22,2.16431303541836,0.9245375967931633,3
1503688030039,-0.799,-0.370,-0.252,-0.400,+0.852,-0.107,-0.574,+21.875,+1.125,+12.438,1, -2, -1, -2, -7, -3, -2, 3,2.1589235724847247,0.9236349523121723,3
1503688030061,-0.799,-0.368,-0.257,-0.399,+0.859,-0.130,-0.571,+24.812,+2.125,+16.125,-4, 0, -2, 0, 1, 0, 2, 14,2.1558461164031373,0.9255292205813049,3
1503688030076,-0.799,-0.366,-0.263,-0.398,+0.841,-0.141,-0.578,+28.188,+5.625,+20.562,-7, -4, -2, -3, -2, 0, 0, 2,2.152393961464393,0.9288377387936293,3
1503688030128,-0.799,-0.362,-0.275,-0.395,+0.853,-0.147,-0.588,+34.438,+6.250,+23.000,6, -4, 5, 2, 3, 0, -3, -6,2.1464841784406814,0.9354946907190613,3
1503688030136,-0.798,-0.358,-0.281,-0.394,+0.852,-0.167,-0.582,+37.938,+3.375,+22.312,6, -4, -3, -1, -6, -2, -1, 2,2.1390174700151565,0.9344754687350758,3
1503688030159,-0.798,-0.355,-0.288,-0.393,+0.840,-0.192,-0.569,+41.125,+3.312,+23.562,-11, 0, -7, -5, -2, -4, 1, 3,2.134429453483447,0.9375828229986142,3
1503688030174,-0.797,-0.351,-0.296,-0.392,+0.841,-0.205,-0.571,+45.562,+4.000,+25.875,1, -10, -4, 2, 4, 4, 1, 2,2.126297835013672,0.9397830158375403,3
1503688030196,-0.796,-0.347,-0.305,-0.392,+0.812,-0.212,-0.568,+49.250,+4.312,+25.000,-12, 2, 4, 2, -3, -3, -3, -9,2.1170107899197053,0.9440990379017504,3
1503688030220,-0.795,-0.342,-0.313,-0.391,+0.799,-0.229,-0.565,+53.438,+5.500,+24.938,6, 1, -2, -3, 4, -2, -2, -18,2.1081387206078683,0.9447876253439607,3
1503688030234,-0.793,-0.338,-0.322,-0.391,+0.791,-0.254,-0.548,+55.312,+4.938,+24.938,-1, -2, 0, -2, -4, -1, -1, -2,2.096615129556621,0.9493894272568195,3
1503688030262,-0.792,-0.333,-0.332,-0.390,+0.793,-0.283,-0.542,+58.188,+4.875,+25.812,-11, -5, -2, 0, 3, -1, 5, -5,2.0871978035001053,0.9538916986725774,3
1503688030278,-0.790,-0.327,-0.342,-0.390,+0.785,-0.309,-0.526,+59.312,+3.000,+26.375,1, -1, -5, 0, -2, 1, -3, -14,2.0737589161608905,0.956805332465837,3
1503688030294,-0.789,-0.322,-0.351,-0.389,+0.785,-0.319,-0.526,+60.438,+0.938,+26.750,-4, -9, -3, 1, 2, -2, -3, -12,2.0648887742636672,0.9605910081381729,3
1503688030316,-0.787,-0.315,-0.360,-0.389,+0.761,-0.336,-0.525,+60.312,-2.625,+24.812,-6, -10, -3, -1, -5, 1, -2, -6,2.0511251279561833,0.9607393165132609,3
1503688030338,-0.785,-0.309,-0.369,-0.389,+0.755,-0.355,-0.500,+60.125,-6.500,+23.938,2, -3, -5, -3, -3, -3, -5, 6,2.038276458026897,0.963408929957053,3
1503688030354,-0.784,-0.302,-0.378,-0.390,+0.755,-0.369,-0.498,+60.562,-7.500,+22.500,-4, 2, 4, 3, -2, 1, -2, -7,2.0266062243344742,0.9653648249897016,3
1503688034036,-0.764,-0.454,-0.243,-0.390,+0.899,-0.060,-0.421,-16.188,+14.812,+6.250,4, 2, -3, -4, -2, -3, -2, -9,2.188091119834401,1.0820718487582137,4
1503688034058,-0.763,-0.456,-0.243,-0.388,+1.000,+0.005,-0.478,-10.438,+16.938,+8.312,11, 0, -3, 1, 7, -3, 1, 21,2.1902257573559587,1.0858371348118772,4
1503688034081,-0.764,-0.455,-0.243,-0.388,+0.982,-0.029,-0.532,+3.938,-2.500,+1.000,-7, -5, 0, -1, -21, -1, -4, -3,2.1910602227229963,1.0839380611104406,4
1503688034096,-0.765,-0.452,-0.242,-0.391,+0.883,-0.087,-0.429,+5.250,-21.688,-13.000,7, -1, 0, -3, 6, -1, -4, -6,2.1873793574107117,1.0768682277479644,4
1503688034118,-0.764,-0.451,-0.241,-0.393,+0.864,-0.069,-0.386,+5.750,-12.750,-17.500,-6, 1, 2, 2, 1, 3, -3, -32,2.182894457962482,1.073359822161617,4
1503688034141,-0.763,-0.451,-0.243,-0.395,+0.881,-0.086,-0.411,+7.562,+6.250,-10.188,1, 13, 6, 0, -1, -2, 1, 12,2.1780607243646517,1.0758441409581179,4
1503688034156,-0.762,-0.452,-0.244,-0.395,+0.962,-0.079,-0.419,+5.625,+9.250,-6.125,9, 8, 6, -1, -3, -1, 10, 22,2.1766977022947436,1.078960710621959,4
1503688034178,-0.761,-0.453,-0.244,-0.396,+1.000,-0.009,-0.431,+2.562,-2.500,-5.875,1, -2, -2, 1, 6, 4, 4, 3,2.1749886210888763,1.0810778744068696,4
1503688034201,-0.761,-0.451,-0.244,-0.397,+0.984,-0.023,-0.413,+2.875,-14.750,-3.375,6, -3, -3, -1, -3, 1, 5, 1,2.1717006022612155,1.0766834240393062,4
1503688034217,-0.762,-0.449,-0.242,-0.399,+0.921,+0.011,-0.442,+2.438,-21.750,-8.688,-7, -14, -5, -2, 2, -4, -16, -2,2.1706386414186376,1.0704904162039526,4
1503688034241,-0.763,-0.446,-0.239,-0.402,+0.875,+0.044,-0.433,+5.000,-26.125,-13.438,18, 12, 11, 1, -4, 0, 1, 4,2.1680183147683056,1.0610192846137396,4
1503688034264,-0.764,-0.444,-0.238,-0.404,+0.857,-0.003,-0.382,+1.375,-16.500,-6.875,-4, -21, -13, -6, -6, -1, 2, -4,2.166467865601282,1.0560971009457114,4
1503688034276,-0.764,-0.444,-0.238,-0.403,+0.899,-0.037,-0.401,-1.688,-3.625,+4.812,-6, -10, -4, 0, 4, -1, -4, -10,2.1673253410970355,1.0558627613440117,4
1503688034298,-0.765,-0.444,-0.238,-0.401,+0.929,-0.001,-0.481,-3.938,-1.812,+10.188,-7, 4, -3, -3, 1, 0, -5, -10,2.1711227200023266,1.055831238687977,4
1503688034320,-0.767,-0.442,-0.237,-0.401,+0.925,+0.021,-0.480,-1.375,-12.250,+8.125,-8, 3, 0, -1, -4, 3, 1, -10,2.173383858599631,1.0508900864617368,4
1503688034344,-0.769,-0.439,-0.236,-0.401,+0.903,-0.011,-0.489,+0.750,-22.750,+4.812,-9, -2, 1, 0, 2, 2, 0, -9,2.1744842835529603,1.0436708108761505,4
1503688034358,-0.771,-0.435,-0.235,-0.401,+0.873,-0.048,-0.444,-1.062,-24.312,+6.438,4, 4, -2, 0, -1, -2, 1, 6,2.1744544299107673,1.0341884557192713,4
1503688034381,-0.773,-0.433,-0.235,-0.400,+0.885,-0.037,-0.456,-2.312,-17.438,+11.812,-12, 3, -1, 2, -2, -4, -3, -1,2.1771805647018416,1.0302728957816643,4
1503688034396,-0.775,-0.431,-0.235,-0.398,+0.865,-0.029,-0.492,-3.000,-8.438,+15.562,-10, 7, 3, -1, -2, -2, 0, -6,2.180820068506281,1.0261210104278264,4
1503688034418,-0.777,-0.430,-0.235,-0.396,+0.885,-0.023,-0.523,-1.125,-4.062,+16.312,3, -1, 0, 4, 5, 0, 0, -1,2.1856310970178527,1.0242492567779096,4
1503688034442,-0.779,-0.427,-0.236,-0.394,+0.916,-0.014,-0.527,+4.500,-8.000,+16.250,-2, -1, -4, 10, 22, -1, -3, -4,2.1877200394565266,1.0190444747765965,4
1503688034457,-0.780,-0.424,-0.238,-0.393,+0.922,-0.037,-0.517,+9.000,-16.062,+14.688,-2, 1, 0, -2, 3, 6, 7, 5,2.1863806253947087,1.0148774342062765,4
1503688034478,-0.783,-0.420,-0.239,-0.393,+0.894,-0.067,-0.487,+9.812,-23.062,+14.250,-9, -2, 1, 3, 6, -2, 1, 11,2.1877764125257904,1.0084010226924822,4
1503688034500,-0.785,-0.416,-0.240,-0.392,+0.875,-0.068,-0.493,+10.812,-19.688,+16.375,-3, 6, 5, 0, 4, -1, -1, -6,2.1880609344798194,1.0012564992208661,4
1503688034516,-0.786,-0.413,-0.243,-0.391,+0.858,-0.057,-0.510,+13.875,-11.062,+21.438,-5, -2, -1, 0, 7, -3, -5, -12,2.186420203835296,0.9984154294065772,4
1503688034538,-0.788,-0.409,-0.246,-0.389,+0.869,-0.075,-0.530,+15.688,-6.750,+24.875,-10, -8, -2, 4, 7, 2, -9, -13,2.1868150344617683,0.9935603154450579,4
1503688034561,-0.789,-0.406,-0.249,-0.387,+0.909,-0.075,-0.520,+18.125,-8.750,+23.875,7, 14, 4, -1, -2, -2, 2, -4,2.186214754227082,0.9905339763784243,4
1503688034577,-0.791,-0.402,-0.253,-0.386,+0.921,-0.087,-0.527,+21.250,-17.062,+23.250,8, 49, 25, 4, -2, -1, 0, 7,2.185407286639197,0.9873150641192385,4
1503688034599,-0.793,-0.397,-0.256,-0.385,+0.884,-0.122,-0.520,+23.688,-21.688,+22.562,1, -21, -15, -4, -2, 3, 3, 5,2.184159670789504,0.9806737087854309,4
1503688034620,-0.795,-0.391,-0.260,-0.385,+0.869,-0.136,-0.526,+26.125,-18.938,+23.562,-5, -9, -4, 7, 33, 6, 0, 2,2.1806847983054913,0.9734925510289417,4
1503688034636,-0.796,-0.386,-0.265,-0.384,+0.857,-0.142,-0.537,+29.250,-15.062,+23.500,-2, 14, 0, -3, -11, -1, -1, -1,2.1766430201068387,0.969205764720035,4
1503688034658,-0.797,-0.381,-0.270,-0.383,+0.833,-0.159,-0.536,+29.812,-10.562,+23.500,-1, -11, -4, -1, -4, -3, -3, 2,2.1727288780756786,0.9650467923240255,4
1503688034680,-0.797,-0.378,-0.276,-0.382,+0.828,-0.168,-0.517,+30.875,-3.375,+22.625,-17, -13, -6, -6, -11, -1, -3, -10,2.1681757662747483,0.9662831982252171,4
1503688034696,-0.797,-0.375,-0.281,-0.381,+0.868,-0.162,-0.529,+34.125,+0.000,+21.812,0, -6, -2, -3, -6, -3, -4, -8,2.1641048120853164,0.9662825703078889,4
1503688034719,-0.797,-0.371,-0.287,-0.381,+0.866,-0.180,-0.519,+34.688,-7.500,+22.250,7, -3, -1, 0, -4, 0, 1, 7,2.1578316438554332,0.9659498974016352,4
1503688034751,-0.797,-0.366,-0.293,-0.380,+0.840,-0.195,-0.527,+34.625,-10.375,+20.875,-2, -13, -2, 3, -2, -6, -9, -23,2.151617764830344,0.9632987714348618,4
1503688034758,-0.798,-0.362,-0.298,-0.380,+0.817,-0.191,-0.526,+35.812,-7.688,+21.625,2, 7, -1, -1, -12, 2, 3, 0,2.148235425489981,0.9622922748794196,4
1503688034779,-0.798,-0.357,-0.304,-0.380,+0.823,-0.208,-0.524,+35.500,-7.812,+22.875,3, 4, 0, -1, 3, 1, -1, 4,2.1413515425962264,0.960320487924256,4
1503688034800,-0.798,-0.352,-0.309,-0.379,+0.816,-0.229,-0.520,+34.750,-8.312,+24.125,4, 6, 2, 0, -2, 2, -1, -4,2.135842881695493,0.9566888591552117,4
1503688034816,-0.798,-0.348,-0.315,-0.378,+0.820,-0.244,-0.536,+35.188,-7.688,+24.500,0, 1, -6, -2, 3, -4, 3, -5,2.1309119133919077,0.9568145802863048,4
1503688034839,-0.799,-0.343,-0.320,-0.377,+0.807,-0.247,-0.551,+34.812,-7.625,+23.625,-7, 2, -8, 0, -3, -3, 1, 20,2.1279694527783,0.9538687636943605,4
1503688034861,-0.798,-0.338,-0.326,-0.377,+0.791,-0.225,-0.539,+38.125,-6.812,+22.562,0, -3, 0, -2, -6, -1, 0, -4,2.1190986854105036,0.9521798244041435,4
1503688034877,-0.798,-0.334,-0.332,-0.376,+0.808,-0.273,-0.539,+38.312,-6.500,+21.812,-2, -2, -2, -4, -1, 3, -3, -9,2.114427519882927,0.952793457901464,4
1503688034898,-0.798,-0.329,-0.337,-0.376,+0.813,-0.294,-0.508,+37.562,-8.062,+21.688,-1, 5, 7, 0, 2, -4, -3, -5,2.1085137897232924,0.9502892922139747,4
1503688034921,-0.797,-0.324,-0.343,-0.376,+0.783,-0.294,-0.525,+37.312,-7.500,+20.500,-2, -9, 4, 4, 9, 1, 1, 4,2.099867909490186,0.9491690873038754,4
1503688034936,-0.797,-0.320,-0.348,-0.376,+0.776,-0.292,-0.532,+36.812,-5.625,+18.625,-1, -9, -7, -3, 1, 2, 0, -14,2.094941537251387,0.9490697485865216,4
1503688034958,-0.796,-0.316,-0.354,-0.376,+0.793,-0.327,-0.542,+37.875,-6.812,+16.062,-12, -3, -1, -1, -5, 1, -2, 2,2.0872310158108083,0.9504002817542501,4
1503688034981,-0.796,-0.311,-0.359,-0.377,+0.803,-0.337,-0.529,+37.312,-10.000,+14.750,10, -3, 2, -1, 1, 0, 1, 7,2.080844576757354,0.9489943838523879,4
1503688035003,-0.795,-0.306,-0.363,-0.377,+0.785,-0.346,-0.536,+37.812,-11.188,+14.750,-16, -2, -1, -2, -1, 0, -2, -6,2.0731251488529034,0.945202084721626,4
1503688035020,-0.794,-0.301,-0.369,-0.378,+0.776,-0.373,-0.510,+38.438,-9.562,+13.062,-6, 12, 1, -2, -4, -3, 0, -1,2.064023044526789,0.9454949876718818,4
1503688037702,-0.730,-0.364,-0.290,-0.501,+0.845,-0.054,-0.506,-8.688,-25.250,-4.312,7, 3, 1, 1, -1, -1, -1, -2,1.908311127041504,0.9671313721304077,5
1503688037718,-0.731,-0.364,-0.288,-0.501,+0.823,-0.050,-0.507,-9.688,-13.812,+0.938,-8, 0, 1, 2, 5, 0, -4, -4,1.9112201161532694,0.9645003850690497,5
1503688037740,-0.732,-0.364,-0.286,-0.500,+0.845,-0.010,-0.531,-8.562,-5.812,+2.875,-15, -1, 0, 0, 2, -2, -1, 8,1.9146231708605796,0.9615563068531625,5
1503688037762,-0.733,-0.364,-0.284,-0.500,+0.873,-0.019,-0.529,-10.375,-9.750,+2.312,4, 8, 5, -2, -13, -8, -3, -4,1.9175376726590418,0.9589555437123235,5
1503688037778,-0.735,-0.363,-0.281,-0.499,+0.859,-0.038,-0.545,-11.500,-13.438,+5.312,5, -4, -3, 3, -2, -1, 0, -2,1.9224524655458477,0.9529283884296758,5
1503688037800,-0.737,-0.362,-0.280,-0.498,+0.833,-0.046,-0.548,-11.188,-10.500,+7.500,-2, 0, 1, 0, 0, 0, 5, 16,1.926884396392326,0.9499132898782954,5
1503688037822,-0.738,-0.362,-0.278,-0.497,+0.838,-0.043,-0.565,-12.375,-5.062,+7.188,10, -5, -8, -2, 0, 1, -1, 7,1.9303259434887878,0.947033038622434,5
1503688037838,-0.740,-0.362,-0.276,-0.495,+0.852,-0.048,-0.555,-11.375,-4.625,+7.062,6, 6, 1, 0, 0, 1, -1, 11,1.936720804060885,0.9442704414114121,5
1503688037860,-0.741,-0.362,-0.275,-0.494,+0.843,-0.071,-0.544,-11.312,-7.000,+7.938,7, 6, 11, 0, 0, 1, 1, -9,1.9399267332226486,0.9428974643323348,5
1503688037883,-0.743,-0.362,-0.274,-0.492,+0.814,-0.081,-0.545,-12.000,-6.000,+9.688,-15, -3, 0, -2, -5, -4, -10, -21,1.946089557809994,0.9416337569625437,5
1503688037898,-0.745,-0.362,-0.273,-0.490,+0.810,-0.072,-0.542,-11.375,-0.562,+7.750,2, -1, -3, -1, -3, 6, 3, -1,1.9522661004729853,0.9403783388614085,5
1503688037920,-0.746,-0.363,-0.272,-0.488,+0.853,-0.082,-0.543,-12.062,+2.000,+7.125,19, 4, -3, 0, 0, 0, 1, 33,1.9571963576287503,0.9407568220470761,5
1503688037942,-0.747,-0.364,-0.271,-0.486,+0.858,-0.069,-0.531,-12.438,-1.125,+6.688,4, -13, -5, -3, 1, -2, -1, -17,1.9621420824551106,0.9411489245054665,5
1503688037959,-0.748,-0.364,-0.270,-0.484,+0.835,-0.078,-0.540,-11.938,-3.188,+6.375,-8, 0, -11, -4, 2, -3, 1, -12,1.9659637722540981,0.939491982956207,5
1503688037980,-0.750,-0.364,-0.270,-0.483,+0.812,-0.080,-0.563,-10.125,-0.062,+7.688,-5, -1, 0, -1, 2, -1, -6, -48,1.9713249699409132,0.9400331121963149,5
1503688038002,-0.751,-0.365,-0.269,-0.481,+0.828,-0.089,-0.566,-9.688,+4.188,+7.562,-15, 0, 1, 0, 4, -2, -9, -39,1.976301099170306,0.9404512893333413,5
1503688038018,-0.751,-0.366,-0.269,-0.479,+0.875,-0.075,-0.574,-7.625,+4.438,+8.500,8, -6, 0, 0, -1, -2, -1, 36,1.9786214259337087,0.9418856133054274,5
1503688038040,-0.753,-0.365,-0.269,-0.477,+0.864,-0.084,-0.554,-6.438,-2.375,+8.188,-1, 13, 4, -1, -1, -1, -6, -63,1.983457012265891,0.9400427671592331,5
1503688038062,-0.754,-0.365,-0.269,-0.476,+0.842,-0.080,-0.562,-3.875,-5.062,+7.312,30, -9, -1, -1, -3, -1, -5, -57,1.9864424044380538,0.9401561601913413,5
1503688038078,-0.755,-0.364,-0.269,-0.475,+0.797,-0.097,-0.571,-2.375,-0.188,+8.750,23, 12, 11, 1, -2, -1, 5, -13,1.9883142053423903,0.9381982645341854,5
1503688038100,-0.755,-0.365,-0.271,-0.473,+0.847,-0.093,-0.551,-1.312,+8.188,+9.938,-18, -15, -9, -5, -2, 1, -4, 15,1.9900639178055388,0.9424994503270281,5
1503688038122,-0.755,-0.365,-0.272,-0.471,+0.878,-0.085,-0.546,+1.062,+8.875,+11.250,-25, -21, -8, -3, 5, 4, -9, 5,1.9909994736932064,0.943296685549037,5
1503688038138,-0.756,-0.365,-0.274,-0.470,+0.871,-0.089,-0.525,+2.500,+2.688,+8.938,-59, -15, -12, -3, -8, -12, -18, -98,1.9933990987426196,0.946284289252027,5
1503688038160,-0.756,-0.365,-0.275,-0.468,+0.868,-0.096,-0.542,+4.750,+0.500,+10.000,12, -14, -6, 0, 4, 3, 5, 51,1.9943433378635103,0.9470838874165427,5
1503688038182,-0.757,-0.364,-0.277,-0.467,+0.862,-0.114,-0.547,+5.125,+0.438,+9.250,3, 5, -3, -2, -10, -5, 3, 26,1.9956414095383774,0.948007333409998,5
1503688038198,-0.758,-0.362,-0.278,-0.466,+0.868,-0.099,-0.560,+6.625,-3.812,+9.500,12, 2, -1, -2, 2, -3, -12, -60,1.996156161067042,0.9454175894490923,5
1503688038220,-0.759,-0.360,-0.279,-0.466,+0.828,-0.105,-0.559,+7.250,-7.812,+9.375,12, 3, 0, 2, -1, -1, -3, -31,1.9960660577598908,0.9431633649071482,5
1503688038242,-0.759,-0.358,-0.281,-0.465,+0.805,-0.110,-0.570,+8.062,-3.750,+10.188,-3, -36, -10, -3, -3, 2, 5, 45,1.9939347004772672,0.9416264395718218,5
1503688038261,-0.760,-0.357,-0.283,-0.464,+0.814,-0.122,-0.562,+7.688,+4.062,+13.375,-4, 2, 5, 3, 4, 1, -3, -72,1.9952933715511134,0.9425871590394052,5
1503688038280,-0.760,-0.357,-0.286,-0.462,+0.852,-0.125,-0.538,+8.062,+9.625,+14.812,-9, 11, 1, 0, 1, -3, 0, 18,1.9956651209409044,0.9463333881815369,5
1503688038302,-0.761,-0.356,-0.288,-0.460,+0.867,-0.121,-0.544,+9.000,+4.750,+16.312,10, 10, 0, 0, -2, 1, 5, 32,1.9976713334213512,0.9469775759159251,5
1503688038318,-0.762,-0.354,-0.290,-0.458,+0.845,-0.110,-0.551,+11.375,-3.000,+16.812,35, 18, 4, -3, 6, 0, 3, -83,1.9986375540007006,0.9455718133945609,5
1503688038340,-0.763,-0.352,-0.293,-0.457,+0.797,-0.122,-0.567,+13.812,-3.938,+16.375,4, 7, 7, 0, -1, 0, 2, 60,1.9987017208277318,0.9460151476559707,5
1503688038362,-0.763,-0.350,-0.296,-0.456,+0.804,-0.148,-0.547,+14.125,+2.062,+17.562,-25, -9, -3, 1, -2, 0, -6, -16,1.996375266120545,0.9460769411653602,5
1503688038378,-0.764,-0.348,-0.299,-0.453,+0.826,-0.147,-0.539,+13.375,+3.625,+20.625,-11, 10, 13, 1, 0, 1, 2, 20,1.9977719030406769,0.9458789482334637,5
1503688038400,-0.765,-0.346,-0.302,-0.452,+0.833,-0.150,-0.542,+13.500,-0.688,+20.750,-6, -7, -4, -1, -6, -3, -4, -5,1.9979241798012366,0.9464116973130009,5
1503688038422,-0.766,-0.343,-0.305,-0.450,+0.835,-0.158,-0.561,+15.562,-4.375,+22.250,4, 7, 1, 1, 3, 1, 2, -11,1.9977390186961426,0.9445792381603026,5
1503688038438,-0.768,-0.340,-0.308,-0.448,+0.816,-0.162,-0.577,+19.750,-3.375,+23.750,1, -3, -4, 2, -2, 0, -6, -40,2.000063766140962,0.9431833814311213,5
1503688038462,-0.769,-0.336,-0.312,-0.446,+0.798,-0.186,-0.548,+19.438,-4.000,+22.938,-1, 8, 2, 2, 0, 2, 3, 6,1.9987348670992737,0.9409430948207674,5
1503688038484,-0.769,-0.333,-0.315,-0.444,+0.819,-0.193,-0.544,+19.750,-0.812,+23.000,-10, -3, -1, -2, 0, 1, 2, 10,1.9962576108377628,0.9388162419678877,5
1503688038499,-0.770,-0.330,-0.319,-0.442,+0.825,-0.200,-0.537,+20.062,-1.125,+24.000,17, 21, 9, 2, 1, -2, -7, -22,1.9960280494233862,0.9387053980625544,5
1503688038520,-0.771,-0.327,-0.323,-0.441,+0.825,-0.195,-0.539,+21.438,-4.000,+24.250,3, 4, -2, -1, 0, -1, 1, 7,1.9952084844635847,0.9390403924989362,5
1503688038542,-0.772,-0.323,-0.327,-0.439,+0.793,-0.203,-0.567,+23.938,-5.188,+25.812,-15, -13, -5, -3, 0, -1, 2, 19,1.994164495456687,0.937040744131755,5
1503688038559,-0.773,-0.319,-0.331,-0.437,+0.782,-0.245,-0.550,+23.562,-2.312,+26.562,1, -4, -2, -2, -5, 0, 1, -15,1.9932084727417658,0.9351067556763115,5
1503688038581,-0.774,-0.316,-0.336,-0.434,+0.811,-0.266,-0.527,+23.312,+0.750,+26.688,9, 6, 3, 3, -2, -3, 0, -16,1.9936325708390052,0.9364689394281696,5
1503688038603,-0.774,-0.313,-0.340,-0.432,+0.812,-0.245,-0.529,+23.562,-1.125,+26.062,1, -7, -6, -1, -2, -2, 0, -12,1.9911767862677718,0.9362781090986276,5
1503688038619,-0.775,-0.309,-0.344,-0.430,+0.802,-0.250,-0.529,+23.750,-4.000,+25.500,-7, -19, -1, 0, 0, -2, -1, 6,1.9904488236054843,0.9345426264362937,5
1503688038641,-0.776,-0.305,-0.348,-0.429,+0.801,-0.267,-0.534,+24.312,-4.875,+26.312,-12, -10, -6, -1, 1, -3, 0, 0,1.9891544207957954,0.9333047205030007,5
1503688038663,-0.776,-0.302,-0.352,-0.427,+0.805,-0.283,-0.529,+23.562,-4.938,+25.500,4, -9, -2, -1, 1, 3, -1, 111,1.9868553197974037,0.9333119422881283,5
1503688038678,-0.777,-0.298,-0.356,-0.425,+0.801,-0.269,-0.530,+23.562,-2.688,+25.750,4, -1, 0, 2, -3, -4, -1, -75,1.986368941227303,0.9317811663967875,5
1503688038701,-0.777,-0.295,-0.360,-0.423,+0.810,-0.286,-0.533,+25.000,-3.625,+24.062,-6, 1, -3, -3, -3, 0, 0, -44,1.9841674330452337,0.9319182972593019,5
1503688038722,-0.778,-0.291,-0.364,-0.422,+0.811,-0.298,-0.534,+26.250,-7.812,+22.938,5, 5, 3, 0, 3, -2, 0, 85,1.9831777744635,0.9309794005261319,5
1503688038738,-0.778,-0.287,-0.368,-0.421,+0.785,-0.321,-0.545,+26.750,-9.438,+21.812,-5, -9, -4, -1, -3, -1, -3, -30,1.9796126700632952,0.9297593184072802,5
1503688038762,-0.779,-0.282,-0.371,-0.420,+0.781,-0.337,-0.555,+26.438,-9.562,+21.188,5, 5, -1, -2, 1, 1, 2, 20,1.9782424747273497,0.925233529289001,5
1503688038784,-0.779,-0.278,-0.375,-0.420,+0.784,-0.337,-0.530,+26.000,-9.375,+19.312,-2, 0, 3, 0, -4, 0, -3, -128,1.9741723201705428,0.9246578945042556,5
1503688042382,-0.756,-0.437,-0.248,-0.419,+0.912,+0.077,-0.425,-9.688,-6.875,+6.125,-5, -4, -2, 3, 4, 12, -2, -15,2.12395192575133,1.0527536597603302,6
1503688042404,-0.758,-0.437,-0.245,-0.418,+0.917,+0.048,-0.419,-11.812,-13.812,+6.688,-8, -5, -6, -7, -7, -2, 0, -5,2.130395655155577,1.0495622191068774,6
1503688042420,-0.760,-0.436,-0.243,-0.417,+0.885,+0.049,-0.465,-9.938,-14.438,+7.000,1, 1, 0, 1, 2, -5, -4, 0,2.1351624824315185,1.0453954844634192,6
1503688042442,-0.762,-0.434,-0.241,-0.416,+0.887,+0.043,-0.483,-8.750,-12.812,+9.750,-2, -7, -2, -2, 0, 0, 7, 7,2.1387368105626816,1.0389778569506127,6
1503688042465,-0.764,-0.433,-0.239,-0.414,+0.875,+0.029,-0.467,-10.562,-13.875,+10.875,25, -7, -11, -3, -5, -6, 2, 35,2.1443631647471535,1.0346046466561902,6
1503688042482,-0.766,-0.432,-0.237,-0.413,+0.844,+0.003,-0.455,-10.938,-12.688,+10.500,-4, 7, 11, 2, -1, 0, -2, -12,2.1491796293360097,1.0304948130966185,6
1503688042502,-0.768,-0.431,-0.236,-0.411,+0.859,-0.015,-0.468,-10.562,-7.625,+10.250,-6, 6, 6, 0, 2, -4, -5, 0,2.1543775273263046,1.0273919081912632,6
1503688042525,-0.769,-0.431,-0.235,-0.409,+0.854,-0.007,-0.485,-11.125,-1.875,+10.438,-5, -10, -4, -2, 4, -3, -3, -2,2.158662389749128,1.0261199739203348,6
1503688042540,-0.771,-0.431,-0.234,-0.407,+0.895,+0.006,-0.483,-10.750,-3.375,+9.500,-1, 4, -3, -10, -8, -2, -3, -10,2.1650636840006348,1.02530236072886,6
1503688042562,-0.773,-0.430,-0.233,-0.405,+0.882,+0.021,-0.488,-8.875,-11.375,+8.812,-8, -1, 3, 4, 8, 1, -1, -8,2.1703116296976592,1.022219153177652,6
1503688042585,-0.774,-0.429,-0.231,-0.404,+0.842,-0.019,-0.477,-8.688,-12.000,+7.312,-6, -8, -5, -4, -4, 1, -1, -9,2.1730967616558603,1.0177241554131229,6
1503688042600,-0.776,-0.428,-0.231,-0.402,+0.858,-0.031,-0.481,-9.625,-2.750,+10.125,4, -7, -5, -2, -4, -4, -13, 28,2.1778961990993615,1.0158665486029632,6
1503688042622,-0.777,-0.429,-0.231,-0.400,+0.899,-0.041,-0.480,-8.938,+4.125,+11.812,0, 0, 2, 2, 8, -14, -4, -1,2.1828974706593636,1.0181053687706223,6
1503688042653,-0.778,-0.429,-0.231,-0.397,+0.941,-0.035,-0.498,-7.750,-2.250,+12.438,2, 0, -2, -3, -1, -2, 1, 3,2.187663976554186,1.0178281694095537,6
1503688042667,-0.780,-0.427,-0.229,-0.396,+0.908,-0.035,-0.483,-8.000,-18.188,+9.875,3, 13, 3, -5, -7, -4, 0, -7,2.1914615990526225,1.0115354482483272,6
1503688042684,-0.783,-0.424,-0.228,-0.395,+0.848,-0.051,-0.501,-7.500,-20.812,+8.000,-6, -3, -2, 1, -1, 2, -1, 6,2.1957531368148064,1.0046382527785847,6
1503688042704,-0.784,-0.423,-0.227,-0.393,+0.857,-0.052,-0.506,-6.750,-10.250,+9.438,9, -9, -1, 7, 4, 23, 10, 3,2.1990584767261727,1.0011418867971416,6
1503688042727,-0.786,-0.422,-0.227,-0.391,+0.900,-0.057,-0.492,-6.938,-3.938,+13.000,26, 21, 1, -7, -8, -10, 16, 54,2.2039622996907218,0.9992933375598156,6
1503688042742,-0.787,-0.421,-0.227,-0.389,+0.913,-0.043,-0.521,-5.188,-9.188,+11.625,0, 35, 17, 5, 4, -13, -7, 2,2.206811604107051,0.9969876793328744,6
1503688042764,-0.790,-0.418,-0.226,-0.388,+0.873,-0.043,-0.531,-2.938,-16.375,+11.812,-31, -17, -17, -5, 2, 3, -11, -30,2.2112307653105927,0.990127160393389,6
1503688042782,-0.792,-0.416,-0.226,-0.387,+0.855,-0.053,-0.520,-1.375,-14.312,+11.562,17, -18, -3, 1, -3, -4, -6, -27,2.214185571615239,0.9862688093674691,6
1503688042802,-0.793,-0.414,-0.227,-0.385,+0.875,-0.055,-0.519,+0.562,-9.750,+13.875,5, -9, -4, -1, 3, -3, 3, 26,2.2155509043918475,0.9828875474493676,6
1503688042825,-0.795,-0.412,-0.227,-0.384,+0.878,-0.038,-0.525,+2.938,-9.938,+14.188,0, -2, 0, -2, -10, 2, -3, 1,2.2185621175564645,0.979038699482601,6
1503688042840,-0.796,-0.409,-0.228,-0.383,+0.877,-0.043,-0.545,+5.438,-13.625,+14.375,-6, -5, -2, 0, 8, -4, -9, -27,2.2179957624473814,0.9736674338276126,6
1503688042862,-0.798,-0.406,-0.229,-0.382,+0.863,-0.061,-0.558,+9.188,-14.562,+16.125,-15, -8, 3, -2, 4, -3, -2, -42,2.2195574665583466,0.9687728713036288,6
1503688042885,-0.800,-0.403,-0.232,-0.380,+0.862,-0.075,-0.556,+12.375,-12.375,+18.562,-8, -2, -3, 0, -1, -2, -2, 2,2.221164188328196,0.9660207492450098,6
1503688042907,-0.801,-0.399,-0.234,-0.379,+0.865,-0.095,-0.552,+13.625,-11.875,+20.562,-10, 1, 5, -3, -1, -3, 3, 21,2.2192660998485376,0.959670208018388,6
1503688042922,-0.803,-0.396,-0.237,-0.377,+0.875,-0.088,-0.550,+15.062,-9.812,+22.125,4, 8, 6, 0, -2, 0, -2, 6,2.221021384081175,0.956981004830242,6
1503688042945,-0.804,-0.393,-0.241,-0.375,+0.872,-0.081,-0.567,+19.125,-8.750,+25.938,25, -1, -2, 0, -2, 2, 3, 29,2.2202556829857074,0.9550881462660591,6
1503688042968,-0.806,-0.389,-0.245,-0.374,+0.869,-0.093,-0.584,+22.438,-11.000,+27.125,2, 2, -3, 0, 0, -2, -1, -26,2.219751889708277,0.951771773122543,6
1503688043000,-0.808,-0.384,-0.249,-0.372,+0.869,-0.121,-0.583,+27.438,-11.875,+28.688,-11, -1, -5, -4, -2, -1, -3, -7,2.2194081674913058,0.9460299203855178,6
1503688043004,-0.809,-0.379,-0.255,-0.370,+0.874,-0.163,-0.586,+31.062,-14.688,+30.188,-14, -11, -2, 0, -3, -2, -7, -2,2.2161386402222907,0.9424471389040489,6
1503688043028,-0.811,-0.373,-0.260,-0.369,+0.845,-0.163,-0.564,+33.125,-15.625,+31.375,-11, -10, -5, -2, 5, -3, -4, -35,2.2137654231932418,0.9362879958302793,6
1503688043042,-0.812,-0.367,-0.266,-0.367,+0.831,-0.168,-0.578,+35.500,-13.562,+31.812,2, -28, -10, -5, -9, 4, 3, 12,2.2099373289486146,0.930805911887596,6
1503688043064,-0.813,-0.361,-0.273,-0.365,+0.832,-0.199,-0.588,+39.188,-11.312,+33.625,-4, 0, 0, 1, 1, 0, 2, 12,2.2058522284729083,0.9268127123291344,6
1503688043087,-0.814,-0.355,-0.280,-0.364,+0.831,-0.227,-0.582,+40.812,-12.812,+32.938,-1, 10, 7, 4, 1, 0, 1, -13,2.2009831140896976,0.9233650831730441,6
1503688043103,-0.815,-0.349,-0.287,-0.362,+0.820,-0.223,-0.578,+44.375,-12.500,+33.188,6, 8, 1, 3, -1, 0, 1, 6,2.1972931087686303,0.9197843157607649,6
1503688043124,-0.815,-0.343,-0.295,-0.361,+0.812,-0.242,-0.575,+48.125,-11.750,+33.375,28, 11, 2, -4, -4, -3, -6, 36,2.1901164757187965,0.9177553084691383,6
1503688043147,-0.816,-0.336,-0.303,-0.360,+0.789,-0.255,-0.584,+51.188,-10.812,+34.000,7, -1, 0, -2, 0, -3, 1, 2,2.1846616368558913,0.9143099281705861,6
1503688043164,-0.815,-0.330,-0.312,-0.358,+0.789,-0.291,-0.566,+52.188,-6.062,+33.312,6, 15, 5, 0, -4, -1, -6, -14,2.1760847191716923,0.91353234451351,6
1503688048525,-0.844,-0.465,-0.157,-0.217,+0.889,-0.072,-0.484,-2.062,-7.625,+7.188,-1, -11, -3, 1, 0, 0, -2, -2,2.6028624523047297,1.0248638675306716,7
1503688048547,-0.844,-0.465,-0.157,-0.215,+0.909,-0.069,-0.461,-4.188,-5.562,+8.562,8, 6, -1, -4, 4, 6, 0, -3,2.6057695011035986,1.0245370185859608,7
1503688048569,-0.845,-0.465,-0.157,-0.213,+0.931,-0.083,-0.464,-4.500,-3.375,+10.500,-6, 0, 3, 3, 3, -1, 3, -3,2.6100382302295446,1.024694241418532,7
1503688048585,-0.846,-0.464,-0.158,-0.211,+0.922,-0.097,-0.465,-5.500,-3.500,+11.750,-24, 1, 3, 1, -5, 2, -3, -1,2.612835856501441,1.023138493597337,7
1503688048607,-0.846,-0.464,-0.158,-0.209,+0.895,-0.084,-0.482,-4.812,-3.438,+10.812,2, -2, -2, -3, -14, 0, -1, -12,2.615767506803865,1.022808473758745,7
1503688048629,-0.847,-0.463,-0.158,-0.208,+0.869,-0.072,-0.495,-1.875,-2.750,+7.812,8, 3, -3, -2, -2, -1, 1, 0,2.6179194410794726,1.0206561918178598,7
1503688048646,-0.847,-0.463,-0.158,-0.207,+0.870,-0.074,-0.480,-2.375,-0.750,+5.500,-13, -4, -3, 1, 6, -2, -2, 8,2.6193918064875255,1.0204904734528164,7
1503688048667,-0.848,-0.463,-0.158,-0.205,+0.875,-0.084,-0.473,-3.500,+1.750,+6.500,-4, -12, -6, -4, -2, 2, 2, -5,2.623673204055475,1.0206446573629486,7
1503688048689,-0.847,-0.464,-0.158,-0.203,+0.869,-0.090,-0.460,-4.312,+6.188,+7.500,6, -8, -1, 1, 1, -5, -4, -11,2.625950062586258,1.02230230746993,7
1503688048706,-0.847,-0.465,-0.158,-0.202,+0.886,-0.090,-0.480,-3.625,+6.312,+6.125,-4, -6, -3, -2, -9, 0, -2, -5,2.6280742133862156,1.0246142946570225,7
1503688048729,-0.847,-0.465,-0.158,-0.201,+0.873,-0.082,-0.481,-3.062,+1.250,+4.438,-8, 1, 6, 2, 0, 2, -1, -7,2.6295573481837002,1.0244495377520793,7
1503688048750,-0.848,-0.465,-0.158,-0.200,+0.867,-0.073,-0.481,-2.375,-2.750,+3.188,5, 1, 0, -2, -1, 0, 1, 5,2.6323542080888913,1.0247695848922498,7
1503688048766,-0.848,-0.464,-0.158,-0.200,+0.862,-0.084,-0.467,-2.688,-2.688,+3.750,4, 4, 1, -2, 5, -4, -5, -9,2.631721409160221,1.0222918406382568,7
1503688048788,-0.849,-0.464,-0.158,-0.198,+0.872,-0.104,-0.459,-3.000,-0.562,+6.812,2, 7, -4, 0, 4, 3, 3, 6,2.636006051042047,1.022446713136413,7
1503688048809,-0.849,-0.464,-0.159,-0.197,+0.865,-0.112,-0.490,-2.750,+1.562,+8.250,12, -2, 1, -4, -3, -4, 1, 21,2.6366820522594985,1.0230305893100848,7
1503688048825,-0.849,-0.464,-0.159,-0.195,+0.884,-0.111,-0.479,-2.625,-0.938,+7.188,7, 5, 4, -1, 1, -3, -2, 17,2.639669511579677,1.0226979558735203,7
1503688048848,-0.850,-0.463,-0.159,-0.194,+0.905,-0.107,-0.475,-3.188,-7.312,+5.938,-2, -1, -4, 0, -3, 2, -3, 15,2.641849405648193,1.0205384581796921,7
1503688048869,-0.851,-0.462,-0.159,-0.193,+0.889,-0.111,-0.474,-2.938,-10.438,+4.875,2, -1, -1, 2, -2, 0, 4, 3,2.644034145027203,1.0183804470885447,7
1503688048886,-0.852,-0.461,-0.159,-0.192,+0.876,-0.110,-0.472,-2.750,-8.938,+4.500,-12, -3, -1, -4, 2, 4, 3, -15,2.646223666759962,1.0162239067598617,7
1503688048907,-0.853,-0.459,-0.159,-0.191,+0.883,-0.114,-0.485,-2.938,-7.750,+5.312,5, 1, -3, 1, 0, -4, -4, -6,2.6478251835605406,1.0115955664370273,7
1503688048930,-0.854,-0.458,-0.158,-0.191,+0.895,-0.107,-0.478,-2.938,-8.750,+5.000,2, -4, -1, -2, -5, -2, 2, -6,2.6493295528318903,1.0088701060534764,7
1503688048947,-0.855,-0.456,-0.158,-0.190,+0.896,-0.101,-0.482,-1.562,-13.688,+6.562,-7, -3, -1, -2, -3, -3, -1, -7,2.6509519081380084,1.0042520490097497,7
1503688048968,-0.856,-0.454,-0.158,-0.189,+0.883,-0.111,-0.487,-0.938,-17.438,+5.812,-9, -2, 0, -4, 7, -1, -1, -29,2.6525909640015635,0.9996393017052709,7
1503688048989,-0.858,-0.451,-0.158,-0.189,+0.885,-0.117,-0.506,+0.500,-19.688,+6.000,-14, -1, -5, 1, 5, -3, -4, 2,2.6534342022205104,0.993238059220137,7
1503688049006,-0.860,-0.448,-0.158,-0.188,+0.883,-0.121,-0.515,+0.062,-21.250,+7.062,0, 5, 5, 0, -6, -1, 3, 5,2.6558260944026735,0.9866808233207994,7
1503688049027,-0.862,-0.444,-0.158,-0.187,+0.874,-0.125,-0.516,-0.438,-22.500,+8.125,-3, 6, 0, 2, 1, -1, -4, -4,2.6576978536405096,0.9776883968114193,7
1503688049050,-0.864,-0.441,-0.158,-0.187,+0.864,-0.116,-0.530,+1.125,-22.000,+8.625,11, 7, -5, -4, 1, -3, -1, 5,2.658620285605096,0.9713457790283775,7
1503688049065,-0.865,-0.438,-0.159,-0.186,+0.854,-0.121,-0.540,+4.250,-19.125,+7.812,-6, -4, 2, 4, 0, 4, -4, -32,2.6590442911100247,0.9650761206807181,7
1503688049088,-0.867,-0.435,-0.160,-0.186,+0.853,-0.122,-0.554,+6.562,-16.250,+7.812,11, 10, 5, 3, -4, 6, -3, 7,2.6592448008578065,0.9595073212180864,7
1503688049109,-0.868,-0.432,-0.162,-0.185,+0.849,-0.122,-0.560,+9.500,-11.938,+10.000,-2, -17, -7, -3, 2, -4, -7, 8,2.6589676173509296,0.9540140452425577,7
1503688049126,-0.868,-0.430,-0.164,-0.185,+0.845,-0.118,-0.563,+12.688,-9.188,+12.625,3, -8, 0, -3, -10, -1, 2, 11,2.6563947427537986,0.950657481024653,7
1503688049148,-0.869,-0.428,-0.167,-0.184,+0.859,-0.125,-0.561,+14.625,-9.688,+14.250,6, -1, 4, -1, -3, 0, 1, 9,2.6559290763631336,0.9483914488005318,7
1503688049169,-0.870,-0.425,-0.170,-0.183,+0.862,-0.150,-0.565,+17.500,-10.500,+15.375,11, -1, 0, 0, -4, -2, -4, 2,2.6549985346949736,0.9437309980967808,7
1503688049192,-0.871,-0.423,-0.174,-0.183,+0.855,-0.157,-0.567,+20.062,-11.500,+15.562,-4, 6, 0, -3, -2, 1, 3, -8,2.6523039707622047,0.9425134602085298,7
1503688049208,-0.871,-0.419,-0.178,-0.182,+0.835,-0.162,-0.571,+21.750,-13.125,+15.500,2, 2, -5, 0, 6, -3, 1, 0,2.648896687974512,0.9358112290071772,7
1503688049229,-0.872,-0.416,-0.182,-0.182,+0.819,-0.189,-0.562,+23.625,-13.438,+14.438,-10, 0, 2, -2, 11, 3, -2, 1,2.64581941836752,0.9323045798884921,7
1503688049245,-0.873,-0.413,-0.187,-0.182,+0.828,-0.200,-0.558,+25.125,-10.375,+15.250,-8, -9, -12, -4, -8, -3, 1, -10,2.6420679959684805,0.9296923198213262,7
1503688049268,-0.873,-0.411,-0.192,-0.181,+0.830,-0.197,-0.549,+27.250,-7.125,+17.000,-9, 27, 17, 6, 1, 4, 1, -3,2.6390211049389496,0.9288439384066234,7
1503688049290,-0.873,-0.409,-0.197,-0.181,+0.829,-0.199,-0.553,+28.562,-6.688,+17.938,11, -6, 0, -1, -4, -3, 0, 4,2.6344498595909114,0.9283153653611974,7
1503688049305,-0.873,-0.406,-0.202,-0.180,+0.811,-0.214,-0.566,+30.062,-6.625,+18.062,9, -5, -5, -3, -3, -3, -3, 6,2.631012335044775,0.9252324903722448,7
1503688049327,-0.873,-0.404,-0.208,-0.180,+0.798,-0.223,-0.573,+31.875,-3.500,+17.688,-5, 2, 4, 0, -1, 1, 3, -2,2.625788905317759,0.9257860560200926,7
1503688049350,-0.872,-0.402,-0.214,-0.180,+0.824,-0.229,-0.562,+33.188,-3.312,+18.188,5, -6, -7, 0, 3, -2, -6, -4,2.6191443516797444,0.9259772540178187,7
1503688049365,-0.872,-0.399,-0.220,-0.179,+0.835,-0.232,-0.565,+34.375,-7.375,+18.875,-3, -10, -3, -2, 1, -1, 1, 6,2.615102132634863,0.9241333804066253,7
1503688049388,-0.872,-0.395,-0.226,-0.180,+0.798,-0.252,-0.568,+35.938,-11.500,+17.438,-9, -3, -2, -1, -2, -3, 0, -6,2.6075816789446256,0.9205839454339562,7
1503688049409,-0.872,-0.392,-0.232,-0.180,+0.779,-0.263,-0.574,+37.562,-8.500,+17.312,3, -4, 2, 3, -14, -2, -2, 2,2.602105649409915,0.9192949641224198,7
1503688049426,-0.871,-0.389,-0.239,-0.180,+0.797,-0.268,-0.575,+39.188,-5.938,+18.000,-12, -2, -5, -1, 5, 1, -6, -14,2.5944320709702593,0.9186714762165201,7
1503688049449,-0.871,-0.386,-0.246,-0.181,+0.802,-0.282,-0.569,+42.438,-6.312,+18.125,-3, 26, 23, 0, 3, -1, 6, 9,2.586823668369928,0.9190444588522232,7
1503688049469,-0.870,-0.382,-0.253,-0.182,+0.796,-0.301,-0.562,+43.625,-12.062,+15.750,-11, -15, -15, -1, -1, 0, -1, -4,2.5772640237361224,0.9167617627407386,7
1503688049492,-0.870,-0.378,-0.260,-0.183,+0.774,-0.306,-0.562,+45.438,-14.188,+14.625,2, -6, -5, -2, -4, 0, -2, -2,2.569395473670303,0.9151895451623645,7
1503688049508,-0.869,-0.374,-0.267,-0.185,+0.757,-0.316,-0.553,+48.000,-12.562,+14.062,8, 0, -4, -3, -2, -3, -1, -1,2.5583985026482017,0.9137023503715247,7
1503688049529,-0.868,-0.370,-0.275,-0.186,+0.771,-0.334,-0.552,+50.000,-11.375,+13.375,11, 4, 3, -3, 0, 2, -2, -2,2.548319585908066,0.9132762824385501,7
1503688049545,-0.867,-0.366,-0.283,-0.188,+0.769,-0.344,-0.546,+52.188,-11.500,+13.750,-2, 2, 3, -2, -1, -3, 0, 4,2.536768794344168,0.9135172748795265,7
1503688049567,-0.865,-0.361,-0.291,-0.190,+0.755,-0.382,-0.542,+52.688,-13.562,+14.125,-7, -1, -3, 2, -4, -1, -3, 7,2.5230752898820734,0.9112434506963838,7
1503688049589,-0.864,-0.357,-0.299,-0.192,+0.740,-0.380,-0.537,+52.438,-13.625,+13.125,-3, -10, -2, 0, 3, 2, 0, -10,2.511623746083512,0.9121498528031848,7
1503688049606,-0.863,-0.353,-0.307,-0.194,+0.730,-0.368,-0.537,+54.375,-11.312,+13.062,-4, 5, 0, -5, -2, -5, 0, -2,2.50024435477077,0.9133943634311932,7
1503688049634,-0.861,-0.348,-0.315,-0.196,+0.745,-0.403,-0.526,+55.188,-10.625,+12.312,5, -2, -1, 2, 10, 4, -4, -2,2.486612410297043,0.9121594831159907,7
1503688049651,-0.859,-0.345,-0.323,-0.198,+0.772,-0.392,-0.519,+52.125,-9.875,+9.438,-1, -3, -4, -3, 1, -2, 2, 6,2.473736442059393,0.9159988978366204,7
1503688049665,-0.857,-0.343,-0.328,-0.201,+0.797,-0.352,-0.530,+44.750,-10.375,+2.688,9, -9, -3, -4, -5, 0, 1, 2,2.4615360796715877,0.9187121378136713,7
1503688049688,-0.855,-0.338,-0.335,-0.204,+0.776,-0.485,-0.487,+47.938,-20.812,+6.500,-3, 0, 2, -1, 0, 0, 0, 0,2.4469811629316793,0.9174578216249034,7
1503688049710,-0.854,-0.333,-0.344,-0.207,+0.696,-0.512,-0.522,+55.188,-15.938,+3.625,-11, -7, -1, -3, -1, 3, -3, -2,2.4334313383292923,0.9199878304564653,7
1503688049726,-0.852,-0.329,-0.349,-0.211,+0.720,-0.412,-0.498,+46.750,-11.812,+0.062,7, 2, 1, 2, -1, -2, 1, 2,2.419018672387704,0.919211956410408,7
1503688049748,-0.849,-0.326,-0.356,-0.214,+0.732,-0.508,-0.483,+46.500,-11.500,+2.500,-2, -4, -5, 2, 2, -1, 0, 3,2.403109635902463,0.923192739024177,7
1503688049770,-0.847,-0.323,-0.363,-0.216,+0.726,-0.490,-0.470,+44.750,-7.562,+2.062,2, -11, -1, 1, 8, -9, 3, 2,2.3908094563940927,0.9274584248928586,7
1503688049786,-0.845,-0.320,-0.369,-0.218,+0.736,-0.476,-0.487,+44.812,-5.438,+3.625,1, 8, 2, -2, -10, 4, -4, -4,2.3790362535575906,0.930389803551684,7
1503688053812,-0.854,-0.465,-0.138,-0.188,+0.910,-0.073,-0.469,-13.062,-21.438,+7.750,-10, -3, -2, -4, -2, 25, 1, -6,2.674447132696085,1.0116494430350444,8
1503688053834,-0.856,-0.462,-0.136,-0.187,+0.866,-0.054,-0.500,-11.750,-21.688,+4.312,-4, 0, -1, 0, -1, -13, -1, -3,2.6782785978877612,1.0037086909750668,8
1503688053850,-0.858,-0.459,-0.134,-0.186,+0.848,-0.061,-0.526,-10.750,-20.000,+2.125,-1, 8, 5, 3, -11, -5, -2, -5,2.682122511174305,0.99580214359798,8
1503688053872,-0.859,-0.458,-0.132,-0.185,+0.847,-0.062,-0.501,-11.875,-13.750,+0.062,-10, -22, -12, 3, 8, 1, 2, 6,2.6859320565008926,0.9923801788693029,8
1503688053894,-0.860,-0.457,-0.130,-0.185,+0.865,-0.046,-0.500,-9.188,-5.438,+1.562,10, -6, 7, -1, 4, 2, -5, -6,2.688191160850796,0.9891207622700491,8
1503688053910,-0.860,-0.457,-0.130,-0.183,+0.887,-0.053,-0.521,-4.875,-0.750,+4.062,-19, 5, -5, -2, 3, -9, 4, 19,2.691295387426493,0.9888344562039323,8
1503688053931,-0.861,-0.457,-0.130,-0.183,+0.906,-0.075,-0.544,-3.938,-6.062,+4.188,-5, -2, -1, 9, 15, -10, -3, -7,2.6924645748253195,0.9893375282845608,8
1503688053948,-0.862,-0.455,-0.129,-0.182,+0.890,-0.076,-0.511,-3.625,-12.500,+4.500,2, 3, 3, -1, -1, 4, -1, 13,2.6948930603762564,0.9841128077682981,8
1503688053973,-0.864,-0.453,-0.129,-0.181,+0.859,-0.077,-0.518,-2.062,-14.062,+5.375,11, 3, -3, -4, -2, 0, 0, 22,2.697672755363748,0.9800345319497786,8
1503688053992,-0.865,-0.451,-0.129,-0.180,+0.843,-0.081,-0.542,+0.062,-12.500,+7.375,1, 2, 1, 0, -7, 1, -9, -23,2.6993072386575103,0.9754579773176695,8
1503688054009,-0.866,-0.449,-0.130,-0.179,+0.823,-0.081,-0.539,+1.312,-9.688,+9.562,-6, -5, -6, -3, 2, -2, 1, -4,2.700143855483002,0.971518211987936,8
1503688054030,-0.867,-0.447,-0.131,-0.177,+0.821,-0.085,-0.539,+3.188,-3.562,+11.812,14, 0, 0, 0, 1, -3, -1, -1,2.7025729828911618,0.9674368193411927,8
1503688054052,-0.867,-0.447,-0.133,-0.175,+0.833,-0.086,-0.533,+4.188,+1.812,+15.250,3, 9, 8, 2, -3, 0, 2, 2,2.7040984162588293,0.9684089879531222,8
1503688054068,-0.867,-0.447,-0.136,-0.173,+0.869,-0.082,-0.535,+5.875,+3.188,+17.312,9, -4, -2, -1, 2, 2, 6, 24,2.7048128498056196,0.9700310120611076,8
1503688054090,-0.867,-0.446,-0.138,-0.171,+0.895,-0.091,-0.525,+7.312,-1.188,+17.438,13, -7, -5, -2, -3, 2, 2, 23,2.705835723547668,0.9685544967084461,8
1503688054112,-0.868,-0.445,-0.140,-0.169,+0.885,-0.100,-0.536,+7.938,-10.125,+14.688,-5, -3, -4, -3, -15, 0, -1, -9,2.708033363300126,0.9675901870837063,8
1503688054134,-0.870,-0.442,-0.142,-0.168,+0.838,-0.088,-0.542,+7.750,-14.562,+13.000,-3, 5, 1, -3, 3, -3, -3, -18,2.70884448714927,0.9623833441857605,8
1503688054150,-0.871,-0.439,-0.143,-0.167,+0.807,-0.090,-0.545,+9.000,-10.250,+13.688,-2, 2, -1, 1, 6, 1, -3, -13,2.7093436503285924,0.9560261099451984,8
1503688054173,-0.872,-0.438,-0.146,-0.166,+0.817,-0.112,-0.549,+9.688,-3.562,+15.062,-6, -2, 2, 12, 15, 11, 4, -6,2.709222459541693,0.9559192066008217,8
1503688054194,-0.872,-0.438,-0.148,-0.164,+0.840,-0.108,-0.538,+9.938,+0.625,+15.312,-3, -3, -4, -7, -12, 0, -3, -8,2.7108059924185586,0.9569275289875582,8
1503688054210,-0.872,-0.437,-0.151,-0.163,+0.845,-0.126,-0.540,+10.938,+1.188,+14.812,0, -1, -1, -5, -13, -6, -1, 19,2.7095388527445303,0.9563476757457514,8
1503688054231,-0.872,-0.436,-0.153,-0.161,+0.833,-0.130,-0.526,+9.438,-2.750,+13.562,8, 6, 3, 5, 9, 2, -1, 1,2.710675261260238,0.954920677555928,8
1503688054249,-0.872,-0.435,-0.156,-0.160,+0.832,-0.141,-0.514,+10.250,-0.875,+12.688,-5, 6, -9, -6, -3, -3, -2, -8,2.709426654339846,0.95437751335656,8
1503688054270,-0.872,-0.435,-0.158,-0.159,+0.843,-0.145,-0.538,+10.312,-0.562,+12.375,-2, -11, -5, -6, -6, -6, -4, -3,2.709430322307288,0.9556013158144019,8
1503688054292,-0.873,-0.433,-0.160,-0.158,+0.854,-0.146,-0.531,+9.938,-7.062,+10.750,-17, -1, -6, 0, 4, 8, -6, -14,2.7097387470187186,0.9524418126347456,8
1503688054308,-0.873,-0.431,-0.162,-0.158,+0.833,-0.152,-0.526,+10.562,-10.062,+9.000,7, 9, 8, 3, -3, -2, 3, 13,2.7072768597164947,0.9489785329467552,8
1503688054330,-0.874,-0.429,-0.164,-0.158,+0.812,-0.169,-0.555,+10.938,-9.688,+8.000,21, 15, 2, -1, -1, -5, 2, 16,2.7060292150607514,0.9460421538074589,8
1503688054352,-0.875,-0.427,-0.167,-0.157,+0.828,-0.182,-0.563,+9.875,-7.375,+8.875,-9, -13, 1, -4, -2, -3, -2, -11,2.705627832932546,0.9436601197890067,8
1503688054368,-0.875,-0.426,-0.169,-0.157,+0.843,-0.184,-0.550,+9.688,-7.500,+8.812,-2, -7, 3, 1, 6, 2, -5, -15,2.7036404982043183,0.9426959770007841,8
1503688054390,-0.875,-0.424,-0.171,-0.156,+0.846,-0.180,-0.540,+11.000,-7.188,+7.938,-1, 31, 18, 4, -2, 0, 3, -4,2.702847015989506,0.9391047737129882,8
1503688054413,-0.876,-0.423,-0.173,-0.156,+0.822,-0.185,-0.556,+12.562,-7.312,+9.375,-17, -24, -6, 0, 4, 3, 0, -32,2.7021002809128123,0.9386765829576318,8
1503688054428,-0.876,-0.421,-0.176,-0.155,+0.812,-0.175,-0.549,+14.562,-5.188,+10.625,15, -1, 2, -1, 0, 1, -1, 30,2.7005640357623206,0.9358718272778042,8
1503688054450,-0.876,-0.419,-0.179,-0.155,+0.814,-0.193,-0.550,+17.500,-4.250,+11.438,-2, -4, -6, -1, -4, -3, 3, 5,2.697433665724355,0.9333101677501983,8
1503688054473,-0.876,-0.418,-0.183,-0.155,+0.825,-0.216,-0.559,+18.562,-4.562,+11.500,-10, -7, -5, -4, -8, -7, -4, -18,2.6939513530125576,0.9340002517911673,8
1503688054494,-0.877,-0.416,-0.187,-0.154,+0.839,-0.233,-0.549,+17.688,-6.562,+13.875,-4, 0, -1, 2, 3, -4, -4, -1,2.692968248484485,0.9325962463139678,8
1503688054510,-0.877,-0.414,-0.190,-0.153,+0.829,-0.227,-0.544,+17.875,-8.938,+15.938,2, -2, -1, -3, -4, 0, -1, 1,2.691513205537535,0.9299230642434915,8
1503688054532,-0.878,-0.411,-0.194,-0.152,+0.818,-0.230,-0.549,+20.562,-9.188,+17.625,0, -12, -5, -3, -3, -2, -3, -2,2.690229382705291,0.9261755127547527,8
1503688054554,-0.878,-0.408,-0.199,-0.151,+0.806,-0.236,-0.585,+22.438,-10.312,+17.312,-1, -1, -3, -1, 0, -1, -1, 0,2.686955647178553,0.9228100480875544,8
1503688054570,-0.878,-0.406,-0.203,-0.150,+0.803,-0.255,-0.583,+23.375,-8.000,+18.438,3, 0, 2, -1, 0, 0, 5, 1,2.684839085656899,0.9210941159458746,8
1503688054592,-0.878,-0.404,-0.208,-0.149,+0.814,-0.264,-0.579,+24.875,-4.938,+19.000,17, 6, -3, -4, -1, -3, -1, -5,2.6820002218241763,0.920293529975729,8
1503688054614,-0.878,-0.402,-0.213,-0.148,+0.825,-0.265,-0.546,+25.250,-5.812,+18.000,-3, 1, 0, -3, -11, -6, 0, 6,2.6791925614005834,0.9195717504464411,8
1503688054630,-0.878,-0.400,-0.218,-0.148,+0.825,-0.264,-0.533,+28.000,-8.125,+16.250,2, 2, 3, 1, 4, 1, -4, 7,2.674790024804843,0.9192034402862538,8
1503688054652,-0.878,-0.397,-0.223,-0.148,+0.812,-0.276,-0.545,+30.250,-8.312,+14.938,-7, -1, -2, 0, -2, 2, -1, 4,2.6700816021303537,0.916507312761415,8
1503688054676,-0.878,-0.395,-0.229,-0.148,+0.793,-0.292,-0.556,+30.750,-7.812,+14.750,-5, -1, -1, -1, -1, -1, -1, -7,2.6650163475594244,0.917272236822425,8
1503688054690,-0.877,-0.392,-0.234,-0.148,+0.787,-0.314,-0.555,+29.750,-6.062,+14.938,-4, 10, 10, 5, 1, 2, 5, -11,2.6589661501902384,0.9142864275193922,8
1503688054712,-0.877,-0.390,-0.239,-0.148,+0.798,-0.296,-0.538,+31.250,-5.750,+14.625,1, -8, -3, -2, 2, 1, 2, 2,2.654688949675882,0.9143191563696025,8
1503688054734,-0.876,-0.388,-0.245,-0.149,+0.784,-0.292,-0.545,+33.688,-8.438,+11.438,2, -1, -2, 2, 0, -2, 0, 10,2.646631326232978,0.9152711036082308,8
1503688054750,-0.876,-0.385,-0.250,-0.150,+0.761,-0.312,-0.539,+32.938,-8.625,+9.438,-7, -8, -4, -2, -5, -4, -6, -9,2.6404701054873985,0.9134296630508634,8
1503688054772,-0.875,-0.383,-0.255,-0.151,+0.770,-0.335,-0.519,+31.188,-5.250,+11.062,0, 1, -2, 1, 2, -1, -2, -5,2.633148408971573,0.9136255173546068,8
1503688054794,-0.874,-0.382,-0.260,-0.151,+0.786,-0.321,-0.513,+29.625,-4.250,+12.562,-6, -4, 0, -2, -2, -5, -6, -8,2.6277557117219335,0.9160198979950823,8
1503688054811,-0.873,-0.380,-0.265,-0.151,+0.764,-0.321,-0.532,+30.875,-3.812,+12.625,6, 13, 3, -2, 1, 0, -3, 2,2.6220373540157373,0.9160991956482905,8
1503688054832,-0.872,-0.379,-0.270,-0.152,+0.777,-0.319,-0.535,+29.812,-1.000,+8.500,-3, -3, 0, 0, 1, -2, -1, -2,2.6150102521652725,0.9190556909477666,8
1503688054854,-0.871,-0.378,-0.272,-0.154,+0.816,-0.294,-0.545,+22.625,+0.062,+4.375,2, 9, 3, 0, 2, -2, 1, 0,2.6084657157146323,0.9190902519522093,8
1503688054870,-0.871,-0.377,-0.276,-0.154,+0.796,-0.358,-0.496,+22.250,-8.188,+6.250,-1, 0, -1, 1, 0, 0, 2, 5,2.6053594025956084,0.9212112989909282,8
1503688054892,-0.870,-0.375,-0.281,-0.155,+0.733,-0.445,-0.527,+31.562,-5.000,+5.938,3, 4, 4, 0, -2, -2, 1, 4,2.598016201875165,0.9220200243317194,8
1503688054914,-0.868,-0.375,-0.285,-0.156,+0.766,-0.321,-0.510,+23.750,+4.375,+4.125,0, 3, -1, -1, -2, -3, 1, -1,2.5903218996273303,0.9261199120772979,8
1503688054930,-0.868,-0.373,-0.289,-0.157,+0.779,-0.408,-0.516,+22.812,-2.625,+6.500,-4, -8, -1, -4, -9, -1, -5, -11,2.5853280032580597,0.9264336563491016,8
1503688054952,-0.867,-0.372,-0.292,-0.158,+0.763,-0.410,-0.509,+22.625,-3.625,+4.438,-7, 5, -4, 1, 2, 1, 2, -4,2.5796555208773815,0.9275435146467621,8
1503688054974,-0.866,-0.370,-0.296,-0.159,+0.755,-0.381,-0.520,+25.438,-3.562,+5.188,1, 6, 5, -1, 2, -5, 1, 3,2.57296531551949,0.9275199187017185,8
1503688054990,-0.865,-0.369,-0.300,-0.160,+0.756,-0.392,-0.516,+25.312,-3.688,+3.875,-8, -7, -1, 2, 1, 4, -1, -3,2.566591949111722,0.9300018945282346,8
1503688055012,-0.864,-0.368,-0.303,-0.161,+0.758,-0.405,-0.486,+24.625,-5.000,+4.188,-3, -12, -2, -3, -2, 0, 2, 1,2.5608857160436718,0.9312934620870525,8
1503688055034,-0.863,-0.366,-0.307,-0.162,+0.748,-0.414,-0.506,+24.062,-2.250,+5.125,4, -3, -8, -3, -5, 0, 3, 3,2.5541666995710273,0.9315081169543701,8
1503688055050,-0.862,-0.365,-0.311,-0.162,+0.761,-0.413,-0.507,+23.938,-0.188,+6.125,-7, -16, -3, -2, 11, -2, -3, -1,2.5493463632626727,0.9338231557194382,8
1503688055073,-0.862,-0.364,-0.314,-0.164,+0.778,-0.413,-0.528,+25.438,-4.812,+5.562,-8, 8, -2, 2, 5, 5, -2, -7,2.5438757615103844,0.936184735044356,8
1503688055094,-0.861,-0.361,-0.318,-0.165,+0.752,-0.437,-0.518,+25.812,-10.312,+4.188,0, 4, 1, 0, 2, -1, -2, 2,2.5368262219514377,0.9342248038406589,8
1503688055112,-0.860,-0.359,-0.322,-0.166,+0.752,-0.453,-0.521,+25.750,-9.062,+4.250,6, -2, -1, -1, -5, -3, 0, 0,2.530099757319369,0.9347741785206397,8
1503688055132,-0.860,-0.357,-0.326,-0.168,+0.745,-0.449,-0.525,+27.000,-5.312,+4.562,1, -4, 3, -1, -4, -2, -3, 3,2.5237210219578237,0.9363173273898946,8
1503688055154,-0.858,-0.355,-0.330,-0.169,+0.755,-0.442,-0.512,+29.000,-5.312,+4.000,-9, -2, -5, -1, -2, -1, 0, 3,2.5150721942976526,0.9365855686583703,8
1503688058170,-0.848,-0.422,-0.169,-0.274,+0.781,-0.071,-0.545,-8.250,-10.312,+4.312,-10, 4, 2, 0, 1, -1, 3, -9,2.488844528026973,0.9429409138910674,9
1503688058193,-0.848,-0.422,-0.169,-0.272,+0.795,-0.059,-0.570,-5.000,+1.000,+5.875,1, -1, -2, -2, 1, 3, 1, -1,2.4915448911348634,0.9425431324069112,9
1503688058214,-0.848,-0.423,-0.168,-0.271,+0.821,-0.051,-0.557,-4.750,+5.500,+5.938,4, -9, -7, -2, 0, -3, -1, 8,2.49432805619091,0.9438469073659309,9
1503688058230,-0.849,-0.423,-0.168,-0.269,+0.876,-0.056,-0.544,-4.875,+1.750,+7.438,5, 44, 22, 6, 0, 0, -1, 0,2.4986561646892174,0.943949146085633,9
1503688058252,-0.849,-0.423,-0.169,-0.268,+0.858,-0.069,-0.534,-3.000,-2.688,+7.812,4, -9, 1, -5, 0, 0, 1, 0,2.4993391517994294,0.9446134992676777,9
1503688058274,-0.850,-0.422,-0.169,-0.267,+0.825,-0.073,-0.564,-1.500,-3.438,+6.375,-3, -5, -5, 0, -1, -1, 0, 6,2.5015675073143515,0.9425419548918681,9
1503688058293,-0.851,-0.421,-0.169,-0.266,+0.809,-0.073,-0.561,-0.938,-2.750,+6.438,-9, 3, 8, 4, 3, 1, -3, -9,2.503801736011907,0.940471405569177,9
1503688058312,-0.851,-0.421,-0.169,-0.265,+0.815,-0.080,-0.539,-2.000,+0.375,+6.562,-4, -7, -6, -3, 0, -2, 2, 6,2.5051714341944242,0.9402717889176824,9
1503688058334,-0.851,-0.422,-0.170,-0.263,+0.830,-0.082,-0.536,-2.375,+5.125,+7.938,-1, -2, -2, -2, -1, 0, -3, -7,2.507965015864079,0.9431022638319085,9
1503688058350,-0.851,-0.423,-0.170,-0.261,+0.850,-0.082,-0.551,-1.750,+6.125,+8.500,11, -8, -1, 1, -2, -1, 1, 11,2.5114420812153337,0.9450748378304014,9
1503688058372,-0.851,-0.422,-0.171,-0.260,+0.851,-0.094,-0.559,-0.438,-0.125,+7.875,-6, -7, 4, 0, -2, -1, -3, -4,2.511414015187523,0.9433613829312057,9
1503688058394,-0.852,-0.422,-0.172,-0.259,+0.849,-0.093,-0.544,-0.375,-4.750,+5.562,-3, -3, -5, -5, -1, -5, -2, -16,2.5136994751409922,0.9445184366044246,9
1503688058410,-0.852,-0.421,-0.172,-0.258,+0.832,-0.083,-0.539,+1.125,-4.312,+6.125,1, -6, -4, -1, 5, 1, -2, 0,2.51436921599192,0.9419438386267361,9
1503688058432,-0.853,-0.420,-0.173,-0.257,+0.824,-0.095,-0.548,+2.125,+0.375,+9.188,4, 13, 4, 1, 0, 0, -1, 0,2.5159502933402775,0.9407295557222994,9
1503688058454,-0.853,-0.420,-0.174,-0.255,+0.839,-0.107,-0.551,+1.250,+2.625,+10.000,5, -2, 1, 2, -2, -1, -2, 2,2.5180449140529038,0.9411847528228625,9
1503688058470,-0.853,-0.420,-0.175,-0.254,+0.844,-0.104,-0.564,+2.062,+1.125,+8.188,12, 11, 16, 2, 3, -1, 4, 5,2.51875160315188,0.9418457651862195,9
1503688058492,-0.854,-0.419,-0.177,-0.253,+0.843,-0.100,-0.551,+3.625,-1.688,+8.688,-4, -3, -3, -1, 1, -2, -2, -2,2.5196653262293998,0.9415048796056067,9
1503688058514,-0.854,-0.418,-0.178,-0.252,+0.836,-0.103,-0.558,+6.188,-3.938,+10.188,-1, 2, 5, -2, -4, -4, 0, 0,2.51968661234708,0.9398005546191309,9
1503688058536,-0.855,-0.417,-0.180,-0.251,+0.825,-0.121,-0.546,+6.188,-5.438,+10.312,-8, -1, -6, -3, 3, 1, 0, 1,2.520622831627639,0.9394735086949675,9
1503688058552,-0.855,-0.416,-0.181,-0.250,+0.815,-0.123,-0.537,+5.625,-2.750,+10.000,-9, -6, -6, -1, -1, 0, -1, 5,2.5206606364649824,0.9377755988199497,9
1503688058574,-0.856,-0.416,-0.183,-0.248,+0.819,-0.124,-0.542,+6.000,+3.625,+11.438,12, -4, -6, -1, 0, -1, 1, 8,2.5236893884198994,0.9396101585913387,9
1503688058597,-0.856,-0.416,-0.185,-0.247,+0.846,-0.128,-0.556,+7.000,+4.062,+12.000,-3, -1, 1, -1, -3, 1, -2, -7,2.523728683328921,0.9411746262661748,9
1503688058612,-0.856,-0.415,-0.187,-0.246,+0.865,-0.133,-0.555,+7.500,+0.000,+12.188,1, 4, -1, -1, -4, -3, -4, -3,2.5231061799967414,0.9403822469355345,9
1503688058634,-0.856,-0.414,-0.189,-0.244,+0.843,-0.135,-0.532,+7.250,-2.000,+10.625,-14, -5, -1, 2, -2, -1, -6, -22,2.5238968181458854,0.939375339876554,9
1503688058656,-0.856,-0.414,-0.191,-0.243,+0.823,-0.130,-0.548,+8.312,+0.375,+10.188,0, 11, 13, 6, 0, 0, 0, 1,2.523942864306471,0.9409657600580952,9
1503688058672,-0.856,-0.414,-0.193,-0.242,+0.821,-0.136,-0.556,+9.000,+5.125,+10.500,-5, 9, 8, -2, 4, 0, 4, -3,2.5239889134795632,0.9425658264949257,9
1503688058697,-0.856,-0.414,-0.196,-0.241,+0.847,-0.136,-0.543,+9.188,+7.438,+10.875,17, -5, -5, -4, 1, -1, 1, -1,2.5233543581939353,0.9451000446344502,9
1503688058716,-0.855,-0.414,-0.198,-0.240,+0.857,-0.142,-0.541,+9.625,+5.938,+11.062,-1, -2, -3, 0, -2, 0, 2, 8,2.521790166465229,0.9462367555325635,9
1503688058732,-0.855,-0.414,-0.201,-0.239,+0.855,-0.152,-0.549,+9.812,+4.562,+11.812,-2, -4, 0, 2, 0, -1, -1, -1,2.5211532618523367,0.9488133843132703,9
1503688058754,-0.855,-0.414,-0.203,-0.237,+0.850,-0.145,-0.544,+10.562,+4.500,+12.750,-9, -5, -3, -5, -1, 0, -4, -9,2.522605656548796,0.9502269568844055,9
1503688058776,-0.855,-0.414,-0.206,-0.236,+0.845,-0.146,-0.548,+10.500,+2.438,+12.562,-19, 0, -1, 0, -3, -1, -7, -21,2.521968010697542,0.9528424670799301,9
1503688058792,-0.855,-0.413,-0.208,-0.235,+0.833,-0.160,-0.541,+9.938,+2.750,+12.688,2, 6, 3, 1, 1, -2, 1, -2,2.5213825051995804,0.9521502129774787,9
1503688058817,-0.855,-0.413,-0.211,-0.233,+0.833,-0.156,-0.527,+10.438,+6.562,+14.625,-2, -1, -3, -1, 3, -3, 1, -3,2.5221595809192205,0.9545605006776979,9
1503688058838,-0.854,-0.414,-0.213,-0.231,+0.830,-0.164,-0.529,+9.312,+8.812,+15.938,2, 9, 5, -1, -3, 0, -2, 3,2.5226115188065834,0.9579012326540071,9
1503688058852,-0.854,-0.414,-0.216,-0.229,+0.847,-0.160,-0.537,+9.938,+7.125,+16.938,5, 1, -1, 2, -6, 2, 1, -4,2.5233833857347014,0.9603468522961014,9
1503688058879,-0.854,-0.413,-0.219,-0.228,+0.837,-0.174,-0.540,+11.062,+1.812,+16.812,-2, 8, 0, -4, 5, 1, -1, -20,2.522127074627244,0.9606937124399317,9
1503688058897,-0.855,-0.412,-0.221,-0.226,+0.826,-0.194,-0.519,+9.562,-2.625,+14.438,-5, -16, -5, 0, -2, -3, -3, -20,2.52462484007259,0.9602859844895915,9
1503688058912,-0.855,-0.411,-0.223,-0.224,+0.812,-0.198,-0.517,+8.750,+1.438,+15.500,-7, -16, -7, -4, -6, -4, -1, -5,2.5254990098958587,0.9594016366779464,9
1503688058935,-0.855,-0.411,-0.226,-0.222,+0.809,-0.188,-0.527,+9.750,+7.125,+17.438,-2, 3, -1, -2, 0, 2, -1, -10,2.526293873664742,0.9619126268934143,9
1503688058957,-0.855,-0.411,-0.229,-0.220,+0.837,-0.191,-0.526,+9.812,+7.250,+18.688,-9, -7, -3, -1, 3, 0, -4, -9,2.527089631607329,0.9644459405983646,9
1503688058973,-0.855,-0.411,-0.231,-0.218,+0.836,-0.209,-0.519,+9.375,+2.688,+17.688,10, -1, 1, 0, -1, -1, 2, 22,2.5285734261075468,0.9659681519326083,9
1503688058995,-0.855,-0.409,-0.234,-0.216,+0.837,-0.221,-0.521,+10.062,-1.000,+17.312,5, 2, -1, -1, 1, -1, 1, -2,2.5282231317582506,0.9637762154025127,9
1503688059016,-0.855,-0.408,-0.236,-0.214,+0.826,-0.234,-0.518,+9.250,-1.938,+18.375,-1, 0, -1, -1, -4, 2, 4, 11,2.5291537868753498,0.962934464288709,9
1503688059033,-0.856,-0.407,-0.239,-0.212,+0.814,-0.230,-0.524,+9.688,-1.250,+19.875,3, 5, 2, 2, 0, 0, 2, 7,2.531076459435913,0.9636311722129929,9
1503688059054,-0.856,-0.405,-0.242,-0.210,+0.830,-0.239,-0.531,+11.500,-1.625,+20.375,6, -5, -4, -3, -2, 1, -2, 3,2.53080359718443,0.961488339216235,9
1503688059076,-0.857,-0.403,-0.245,-0.208,+0.821,-0.258,-0.516,+12.312,-3.125,+19.875,6, 6, -1, -2, -4, -4, -3, 4,2.5322371456768837,0.9598429770132013,9
1503688059094,-0.857,-0.401,-0.248,-0.206,+0.811,-0.262,-0.521,+12.500,-4.000,+20.375,-4, 2, 2, 1, 0, -2, -1, -11,2.532030777634953,0.9577389686311348,9
1503688059114,-0.858,-0.400,-0.251,-0.204,+0.805,-0.271,-0.516,+12.188,-1.875,+20.500,-3, 1, 1, 0, 10, 2, 0, 8,2.5340634650885048,0.9585130037111285,9
1503688059139,-0.858,-0.399,-0.254,-0.202,+0.818,-0.274,-0.516,+13.062,+0.250,+20.750,-1, 4, 7, 2, 3, 1, 0, -14,2.534429299760177,0.9588302602286872,9
1503688059152,-0.858,-0.397,-0.258,-0.200,+0.829,-0.274,-0.517,+15.062,-0.500,+20.562,0, 0, -3, -1, -6, -5, -1, 6,2.533624749609788,0.9579026067409635,9
1503688059174,-0.858,-0.396,-0.261,-0.198,+0.825,-0.283,-0.505,+15.312,-4.938,+19.062,-15, -12, -10, -3, -2, -3, -2, 6,2.5340262958351865,0.9582710187764668,9
1503688059198,-0.858,-0.393,-0.264,-0.197,+0.817,-0.299,-0.513,+16.500,-6.625,+17.562,-4, -8, -7, -3, -1, -2, -4, -9,2.5319862682894967,0.9542081642851213,9
1503688059212,-0.859,-0.391,-0.267,-0.196,+0.805,-0.318,-0.534,+16.812,-6.938,+17.375,2, -1, 3, 2, -7, -1, -2, 0,2.532194532734388,0.9530355109202869,9
1503688059234,-0.859,-0.389,-0.271,-0.195,+0.808,-0.321,-0.527,+17.938,-5.625,+16.375,-3, 1, 0, -1, 3, -2, 1, -8,2.5300349772026944,0.9525820082109185,9
1503688059256,-0.859,-0.386,-0.274,-0.194,+0.813,-0.322,-0.524,+19.188,-6.750,+14.438,0, -1, -5, -1, -1, -2, 0, -1,2.528103192970026,0.9486203807313323,9
1503688059272,-0.859,-0.384,-0.278,-0.194,+0.801,-0.336,-0.515,+19.312,-10.062,+12.812,-3, 0, 0, 2, 0, 2, 2, 3,2.5245168509428724,0.9486073018029317,9
1503688059295,-0.859,-0.381,-0.281,-0.194,+0.799,-0.342,-0.521,+20.125,-7.875,+12.812,-3, -4, -5, -5, -3, -3, -2, 0,2.521160690768617,0.9450727289131918,9
1503688059317,-0.859,-0.379,-0.285,-0.193,+0.790,-0.341,-0.519,+21.188,-5.062,+13.875,-10, -4, -1, -2, -1, -1, 0, -1,2.5191142730530043,0.9448265801651764,9
1503688059332,-0.859,-0.377,-0.289,-0.193,+0.804,-0.351,-0.512,+22.812,-6.688,+15.000,1, -7, -3, -3, 2, -3, -4, 2,2.5156091405053176,0.9449997394168365,9
1503688059354,-0.859,-0.374,-0.293,-0.193,+0.793,-0.366,-0.515,+24.000,-8.000,+14.438,2, -5, 0, -3, -4, -2, -1, 1,2.5116949689550827,0.9428653720091852,9
1503688059376,-0.858,-0.371,-0.297,-0.192,+0.783,-0.373,-0.520,+24.438,-7.938,+15.125,-7, -4, 0, -2, -3, -3, 3, -6,2.50745467763483,0.9399573229385907,9
1503688059392,-0.858,-0.369,-0.301,-0.192,+0.785,-0.379,-0.505,+24.438,-7.312,+15.312,3, -2, -4, -1, -2, 0, 2, 9,2.504028761232669,0.9403398888457061,9
1503688059414,-0.858,-0.367,-0.306,-0.191,+0.770,-0.382,-0.508,+25.938,-4.375,+16.500,0, -1, 0, -1, -1, 0, 0, 5,2.5014821731313472,0.941718354821253,9
1503688059436,-0.857,-0.364,-0.310,-0.191,+0.778,-0.409,-0.505,+25.062,-4.750,+16.500,-6, -2, -3, 0, -7, -1, -2, -5,2.4957963065904107,0.9394128895136107,9
1503688059452,-0.857,-0.362,-0.315,-0.190,+0.767,-0.422,-0.500,+23.938,-4.500,+17.250,2, 4, 0, -1, -3, -2, 1, -3,2.4933104464916207,0.9409775277910537,9
1503688059475,-0.856,-0.360,-0.319,-0.189,+0.752,-0.411,-0.496,+24.750,-1.812,+16.750,-1, 5, 2, -1, -2, 0, 0, 4,2.4895414446249067,0.9408035055340237,9
1503688059496,-0.855,-0.358,-0.324,-0.188,+0.770,-0.431,-0.497,+24.750,-0.625,+16.500,-5, 1, 3, 2, 4, 2, -1, -3,2.4851405169773355,0.942090126061073,9
1503688063179,-0.827,-0.512,-0.116,-0.200,+0.873,+0.020,-0.400,-6.125,-11.312,-10.750,-1, 3, -1, 2, -5, -1, -1, -4,2.6748016396408745,1.1052017745252265,10
1503688063194,-0.827,-0.512,-0.114,-0.200,+0.959,+0.062,-0.395,-6.688,-6.125,-2.750,0, 8, -3, -5, -9, 2, -7, -11,2.6766340124110632,1.1040197787807862,10
1503688063219,-0.828,-0.511,-0.113,-0.199,+1.012,+0.055,-0.404,-5.625,-12.875,+4.875,-12, -10, -2, 1, 1, 0, -2, -6,2.6794460403925413,1.1012193144470723,10
1503688063239,-0.831,-0.508,-0.112,-0.199,+0.962,+0.056,-0.409,-4.125,-25.312,+4.562,-13, -6, 0, 3, 4, -1, -1, -6,2.6816028622482313,1.0943188200826246,10
1503688063255,-0.834,-0.503,-0.110,-0.199,+0.890,+0.050,-0.442,-2.250,-34.875,+2.750,6, 1, 2, -2, 3, -3, -4, -1,2.683285534898499,1.0817532347201169,10
1503688063276,-0.836,-0.499,-0.109,-0.199,+0.843,+0.040,-0.448,-2.188,-26.938,+3.125,1, 1, 2, 0, 9, -4, 1, -6,2.6836652864561006,1.0719018485998217,10
1503688063299,-0.838,-0.497,-0.109,-0.198,+0.862,+0.021,-0.436,-1.938,-11.562,+6.375,3, 1, -4, -1, -1, 2, 3, 10,2.6860433618303263,1.067650668876765,10
1503688063314,-0.839,-0.496,-0.109,-0.197,+0.929,+0.023,-0.435,-2.750,-5.938,+9.625,13, 0, -2, 1, 0, 2, 1, -4,2.68799008649505,1.0654763948244885,10
1503688063336,-0.840,-0.495,-0.109,-0.195,+0.927,+0.005,-0.425,-3.312,-9.750,+8.875,-3, 7, 5, 3, -4, -3, -3, 0,2.6914517588922866,1.0631984987935763,10
1503688063359,-0.841,-0.494,-0.109,-0.194,+0.895,-0.006,-0.449,-2.438,-11.188,+7.250,-4, -12, 1, -1, -7, 3, -5, -3,2.693410472893542,1.0610284124630909,10
1503688063374,-0.842,-0.492,-0.109,-0.193,+0.863,+0.000,-0.448,-2.938,-8.188,+6.938,-2, -1, 3, -1, -5, -6, -6, 6,2.6947205837745924,1.0563183685428117,10
1503688063396,-0.843,-0.491,-0.109,-0.192,+0.899,+0.011,-0.438,-2.688,-7.750,+8.062,-5, 2, 1, -5, -17, 0, -2, -6,2.696694495127025,1.05415464737348,10
1503688063420,-0.844,-0.490,-0.109,-0.190,+0.933,+0.000,-0.422,-3.625,-11.312,+8.000,-9, -8, -3, -1, 10, -1, 1, -6,2.700196927506234,1.0518850855563766,10
1503688063434,-0.845,-0.488,-0.109,-0.189,+0.929,-0.031,-0.435,-5.000,-18.000,+8.562,-6, -2, -3, -2, 0, -4, -2, -6,2.7015480484018424,1.0471891496121637,10
1503688063456,-0.848,-0.485,-0.108,-0.187,+0.891,-0.020,-0.449,-4.500,-22.125,+9.000,5, 7, -1, -1, 0, 2, 0, -4,2.706890686537385,1.0402756602234693,10
1503688063479,-0.850,-0.481,-0.107,-0.186,+0.856,-0.014,-0.477,-4.625,-22.438,+8.312,5, 7, 3, 0, -1, 1, 9, 4,2.7090165253828435,1.0304817889124043,10
1503688063495,-0.852,-0.479,-0.107,-0.185,+0.858,-0.015,-0.478,-4.812,-17.562,+7.625,-8, -3, -3, -2, 0, 0, 2, 0,2.71151606656651,1.0263173256063158,10
1503688063516,-0.853,-0.477,-0.106,-0.183,+0.876,-0.014,-0.463,-5.000,-11.250,+6.688,-10, -6, -5, -1, 2, -4, -6, -22,2.7153656688669976,1.0209990355050056,10
1503688063539,-0.854,-0.476,-0.106,-0.182,+0.896,-0.006,-0.463,-4.562,-9.062,+7.312,8, -12, -4, 1, 11, -8, -5, 14,2.717403182498355,1.0188693620572344,10
1503688063554,-0.855,-0.475,-0.106,-0.180,+0.894,-0.013,-0.476,-4.750,-11.750,+8.250,1, -1, -3, -4, 2, 7, 3, 23,2.721003734407233,1.0166302058285146,10
1503688063576,-0.857,-0.472,-0.106,-0.179,+0.882,-0.013,-0.499,-2.500,-15.938,+8.062,5, 0, 6, 1, -5, -3, 3, 6,2.7229659978851504,1.0099819639179803,10
1503688063598,-0.858,-0.470,-0.105,-0.179,+0.858,-0.008,-0.508,-0.250,-16.250,+6.062,7, 12, 9, 5, 5, 5, 1, 12,2.7237475899219543,1.0049199836046057,10
1503688063614,-0.860,-0.467,-0.105,-0.178,+0.854,-0.023,-0.509,+0.312,-14.438,+6.125,-7, -6, -7, -4, -3, -7, -3, 1,2.7257469328261963,0.9983036399210932,10
1503688063637,-0.860,-0.466,-0.106,-0.177,+0.875,-0.018,-0.495,+0.312,-10.000,+7.375,-4, -7, -4, 0, 12, -4, -6, 0,2.72590631323625,0.9962351614207876,10
1503688063660,-0.861,-0.465,-0.106,-0.176,+0.877,-0.014,-0.496,+0.250,-9.375,+10.000,6, -5, 0, 1, -5, -4, -5, 3,2.727991130385199,0.9941269793642675,10
1503688063675,-0.863,-0.463,-0.107,-0.174,+0.865,-0.023,-0.509,+0.938,-11.812,+10.875,-21, 3, 2, 2, 5, 0, 4, -1,2.7313228450285187,0.9904633317250028,10
1503688063697,-0.864,-0.461,-0.108,-0.173,+0.848,-0.036,-0.528,+1.688,-10.125,+11.000,-2, 3, 1, 1, -5, 3, 1, -11,2.7320382217630064,0.9864168194203303,10
1503688063722,-0.865,-0.459,-0.109,-0.171,+0.855,-0.041,-0.530,+1.812,-7.625,+11.000,14, -4, -6, -1, 3, -2, 4, 12,2.7343615182047056,0.9822576219211411,10
1503688063735,-0.866,-0.458,-0.110,-0.170,+0.887,-0.035,-0.504,+2.938,-8.000,+11.812,-20, -2, 3, 1, -1, 0, 1, 2,2.7356407339780664,0.9807118910439254,10
1503688063757,-0.867,-0.456,-0.111,-0.168,+0.896,-0.048,-0.509,+1.750,-14.000,+11.750,15, -4, -7, -4, 1, 1, 2, 46,2.7380068966588946,0.9765606164799107,10
1503688063779,-0.869,-0.453,-0.111,-0.167,+0.858,-0.057,-0.527,+0.750,-18.750,+10.250,-10, -10, 3, 0, -5, -3, -1, -8,2.740184357764769,0.9700152243454915,10
1503688063802,-0.870,-0.451,-0.112,-0.166,+0.821,-0.062,-0.556,+1.812,-13.188,+11.750,14, -2, -7, -2, 1, 7, 2, 3,2.741003288179878,0.9660040366709052,10
1503688063817,-0.871,-0.449,-0.113,-0.164,+0.834,-0.067,-0.531,+1.312,-8.500,+12.625,-19, 2, -1, -1, 0, -3, -3, -7,2.743448805677066,0.9618711912330755,10
1503688063839,-0.872,-0.448,-0.114,-0.162,+0.858,-0.057,-0.534,+1.688,-7.062,+12.062,-2, 7, 12, 2, -2, 0, 3, 6,2.746402441476978,0.9602127662739107,10
1503688063856,-0.873,-0.446,-0.115,-0.161,+0.850,-0.053,-0.541,+3.500,-9.688,+10.562,0, 7, 5, 2, 0, -2, -6, -10,2.7472804490312077,0.9562174129432233,10
1503688063877,-0.874,-0.444,-0.116,-0.160,+0.835,-0.068,-0.540,+3.688,-11.438,+9.875,10, -3, -4, -3, -3, -1, 2, 32,2.748178045149722,0.9522294406041744,10
1503688063899,-0.875,-0.442,-0.117,-0.159,+0.832,-0.079,-0.545,+3.688,-11.688,+10.375,3, 0, -3, 1, 0, -4, -5, -21,2.749095217116787,0.948248725895183,10
1503688063915,-0.876,-0.440,-0.119,-0.158,+0.833,-0.087,-0.561,+4.562,-10.000,+11.062,-9, -6, -2, -2, 1, 6, 1, -4,2.749216743812441,0.9448457530039299,10
1503688063937,-0.877,-0.438,-0.120,-0.156,+0.800,-0.086,-0.584,+5.938,-5.312,+11.625,-10, -8, -5, -3, -3, -1, 1, -5,2.7518027764326374,0.9407395258166341,10
1503688063961,-0.878,-0.437,-0.122,-0.156,+0.807,-0.089,-0.550,+5.062,-3.438,+8.500,1, -1, 0, -1, -9, 2, -1, -8,2.750787101160275,0.9399548053346343,10
1503688063975,-0.878,-0.437,-0.123,-0.155,+0.811,-0.096,-0.513,+5.250,-1.938,+7.375,2, 5, 0, 2, 5, 1, 1, -5,2.751603666479423,0.9403906578545107,10
1503688063998,-0.878,-0.437,-0.125,-0.154,+0.779,-0.127,-0.523,+3.750,+5.000,+6.938,15, 1, 3, -5, 0, 5, 2, 2,2.751611075478557,0.9414132753192374,10
1503688064018,-0.877,-0.439,-0.126,-0.152,+0.819,-0.087,-0.552,+3.312,+15.688,+7.500,3, 0, -5, -5, 0, 4, -3, 0,2.7538687948636746,0.9461032033235406,10
1503688064035,-0.876,-0.441,-0.127,-0.151,+0.886,-0.061,-0.540,+2.875,+11.625,+7.500,2, 0, -3, -2, 4, -5, -11, 4,2.754495909502323,0.9509517037187677,10
1503688064058,-0.876,-0.441,-0.128,-0.151,+0.904,-0.069,-0.537,+2.750,-3.875,+6.125,-5, -4, -3, 1, 1, 0, 6, -6,2.7536774138264115,0.9515444641531939,10
1503688064078,-0.877,-0.438,-0.128,-0.150,+0.844,-0.072,-0.561,+3.938,-13.000,+5.625,4, -4, -2, -3, -3, 1, 0, 11,2.7550701399219477,0.9445279631657998,10
1503688064095,-0.878,-0.436,-0.129,-0.150,+0.815,-0.081,-0.591,+5.688,-8.500,+9.000,-6, 2, 2, -2, -6, -2, -2, -21,2.754461455648331,0.9407254175260903,10
1503688064117,-0.878,-0.436,-0.131,-0.148,+0.856,-0.076,-0.600,+8.562,+0.125,+13.938,-8, -3, 0, 1, 2, 1, 0, 0,2.756106884853757,0.9416150327870122,10
1503688064138,-0.878,-0.435,-0.134,-0.147,+0.904,-0.067,-0.606,+13.688,-1.438,+16.312,-5, -6, -3, -4, -4, 3, 0, -2,2.7548955484766102,0.9408189082838991,10
1503688064162,-0.879,-0.433,-0.137,-0.146,+0.906,-0.086,-0.592,+17.938,-8.438,+18.375,-2, 13, -2, 0, 1, -2, 4, 7,2.7543542147692395,0.9381090698999194,10
1503688064177,-0.880,-0.430,-0.141,-0.145,+0.881,-0.122,-0.575,+20.000,-15.062,+23.125,7, -11, -7, -1, -11, -2, 5, 7,2.752650136375118,0.93360660798939,10
1503688064199,-0.881,-0.427,-0.146,-0.143,+0.858,-0.124,-0.610,+24.000,-10.750,+27.000,3, -8, 1, 0, 0, 0, -1, -2,2.751853089390791,0.929626357250254,10
1503688064215,-0.881,-0.425,-0.152,-0.140,+0.853,-0.119,-0.613,+28.000,-4.312,+30.062,-7, 0, -2, -3, -2, 0, 1, -4,2.751263334376544,0.9281169417538316,10
1503688064237,-0.882,-0.423,-0.159,-0.138,+0.885,-0.148,-0.587,+31.938,-4.062,+32.062,-1, -5, -3, -2, 1, -3, -3, 9,2.7493826296532755,0.9280749601071557,10
1503688064259,-0.882,-0.420,-0.166,-0.136,+0.885,-0.174,-0.581,+35.500,-8.562,+32.438,-25, 2, 3, 0, 2, 1, -3, -20,2.7461071859076065,0.9252108342478246,10
1503688064275,-0.882,-0.416,-0.173,-0.134,+0.843,-0.189,-0.578,+38.500,-14.312,+31.562,3, -1, 0, 0, -2, -2, 4, 13,2.7425623717891927,0.9200432248342851,10
1503688064297,-0.883,-0.412,-0.181,-0.133,+0.803,-0.206,-0.601,+41.500,-14.812,+31.188,1, 2, -2, -1, 0, -1, -5, -10,2.73783518369186,0.9165045481092933,10
1503688064319,-0.883,-0.408,-0.190,-0.132,+0.779,-0.221,-0.592,+44.438,-8.125,+32.375,11, 2, 2, -2, -2, -3, 0, 6,2.7312835437267213,0.9134438535786554,10
1503688064335,-0.883,-0.405,-0.199,-0.130,+0.769,-0.247,-0.582,+46.375,-2.375,+31.938,5, -4, 0, 1, 3, 1, 0, 6,2.726801005127022,0.9128347718571643,10
1503688064358,-0.882,-0.403,-0.208,-0.129,+0.790,-0.269,-0.557,+47.625,-0.750,+29.688,28, -4, -9, -2, 1, -2, -3, 5,2.7197738635310977,0.9146620488838333,10
1503688067618,-0.871,-0.492,-0.019,+0.002,+0.898,-0.061,-0.494,+2.625,+11.312,+16.688,-4, -12, -5, -3, -1, -3, -3, -4,3.1264032405755677,1.0295559553776108,11
1503688067641,-0.870,-0.494,-0.021,+0.005,+0.930,-0.080,-0.469,+2.688,+11.875,+18.125,8, -10, -9, -3, -2, -1, 1, -6,3.129567744931687,1.0342911184374606,11
1503688067657,-0.869,-0.495,-0.023,+0.007,+0.937,-0.097,-0.450,+1.938,+6.125,+14.312,-6, 0, -2, -4, -4, 3, -2, -3,3.130992993795865,1.0364701679409816,11
1503688067679,-0.869,-0.495,-0.024,+0.009,+0.914,-0.097,-0.454,+1.625,-3.250,+7.812,1, -1, 1, -1, 1, -1, -10, -1,3.133477850487509,1.0364950683345704,11
1503688067701,-0.869,-0.494,-0.025,+0.010,+0.901,-0.109,-0.432,+0.250,-8.125,+5.500,1, -2, -5, 0, -1, 4, 3, -5,3.134261010128174,1.0339536904713906,11
1503688067717,-0.869,-0.493,-0.026,+0.011,+0.881,-0.114,-0.419,-2.750,-6.500,+5.125,-4, 1, 0, 3, -2, -3, 2, 3,3.135051328612728,1.0314141249135627,11
1503688067741,-0.869,-0.493,-0.026,+0.012,+0.901,-0.101,-0.428,-5.375,-3.500,+3.500,20, -1, -8, -5, -5, -6, 4, 23,3.1367955165057104,1.0313873611795596,11
1503688067761,-0.870,-0.493,-0.026,+0.014,+0.923,-0.097,-0.432,-7.562,-5.375,+2.938,7, 9, 9, 1, -4, 3, 0, -6,3.140316524117245,1.031840991533625,11
1503688067777,-0.870,-0.491,-0.025,+0.015,+0.909,-0.078,-0.453,-9.562,-13.250,+2.562,4, 0, -1, 0, -6, -3, 0, 6,-3.140036370570336,1.026566069810713,11
1503688067799,-0.872,-0.489,-0.024,+0.016,+0.854,-0.068,-0.490,-7.688,-16.000,+1.688,-22, -9, -8, -6, -5, -3, 1, -5,-3.1371562906664012,1.0223238345297365,11
1503688067821,-0.873,-0.487,-0.023,+0.016,+0.808,-0.041,-0.506,-5.562,-10.938,+0.562,-11, -2, 1, -1, -2, -1, -2, -8,-3.1360509296605246,1.0176110187607603,11
1503688067837,-0.874,-0.486,-0.022,+0.017,+0.846,-0.040,-0.493,-4.562,-5.438,+1.125,8, -1, 1, -2, 1, -1, 0, 6,-3.1332620459424083,1.0154633229615817,11
1503688067858,-0.874,-0.486,-0.022,+0.018,+0.901,-0.063,-0.484,-5.250,-1.938,+5.750,-3, 7, 10, 4, 1, -1, -2, -11,-3.131514446130071,1.015440098309964,11
1503688067881,-0.874,-0.485,-0.022,+0.020,+0.910,-0.070,-0.481,-6.500,-5.188,+8.938,-10, 8, 4, 2, 1, 0, -1, -7,-3.127948967374254,1.0128175180338612,11
1503688067896,-0.875,-0.483,-0.022,+0.022,+0.881,-0.079,-0.510,-5.562,-10.188,+7.562,9, -2, -3, -4, -2, 0, -1, 4,-3.1243088306620224,1.008137999657607,11
1503688067919,-0.876,-0.481,-0.021,+0.023,+0.849,-0.059,-0.513,-3.875,-13.500,+2.562,-11, -1, -2, 0, 3, -3, -3, -3,-3.121450491986387,1.0034420890861082,11
1503688067943,-0.877,-0.479,-0.021,+0.023,+0.830,-0.038,-0.516,-2.188,-12.500,+0.438,-6, 4, -1, -1, -1, 0, -1, -5,-3.1213134274321943,0.9988264920964884,11
1503688067957,-0.878,-0.478,-0.021,+0.023,+0.846,-0.051,-0.496,-1.875,-8.438,+2.438,-8, -9, -4, 0, -2, 1, -3, -3,-3.1212577500758045,0.9967819526576972,11
1503688067980,-0.878,-0.477,-0.021,+0.025,+0.866,-0.078,-0.501,-2.062,-2.062,+4.938,-4, 8, -1, -1, 2, -1, -1, -14,-3.117655234802849,0.9941735009723466,11
1503688068001,-0.878,-0.477,-0.021,+0.026,+0.873,-0.075,-0.511,-2.562,-0.812,+6.125,1, -1, -1, -1, 5, 0, 1, 5,-3.115894728738634,0.9941505541244164,11
1503688068017,-0.879,-0.477,-0.021,+0.027,+0.891,-0.073,-0.522,-0.812,-4.438,+4.625,-13, -10, 1, 3, 5, 0, 2, -1,-3.114176848179722,0.994648464602443,11
1503688068038,-0.879,-0.475,-0.021,+0.027,+0.892,-0.063,-0.503,+0.438,-10.125,+1.312,11, 0, 3, 0, -3, -3, 1, -1,-3.113987909958571,0.9895283282414539,11
1503688068061,-0.880,-0.474,-0.022,+0.027,+0.872,-0.076,-0.499,+1.750,-11.938,+1.438,-5, -11, -8, -5, -3, -1, -2, 2,-3.1148856388240755,0.9875356424441845,11
1503688068084,-0.881,-0.472,-0.023,+0.027,+0.866,-0.083,-0.525,+1.625,-9.312,+2.562,0, -7, -2, 0, -3, 1, -2, -4,-3.115681769574275,0.982994389501076,11
1503688068099,-0.881,-0.471,-0.023,+0.028,+0.865,-0.074,-0.517,+2.562,-8.250,+3.812,5, 1, -5, -3, 5, 1, 0, 4,-3.1138187843411145,0.9804157691146731,11
1503688068121,-0.882,-0.470,-0.024,+0.028,+0.866,-0.076,-0.521,+3.500,-8.812,+3.375,-9, -5, -6, -4, -9, -10, -5, 3,-3.1147038780693728,0.9784371548700153,11
1503688068137,-0.883,-0.468,-0.025,+0.028,+0.860,-0.080,-0.528,+5.000,-8.812,+3.438,-2, 2, 2, 0, 6, -2, -2, -19,-3.1154833674852696,0.9739162952478494,11
1503688068158,-0.884,-0.467,-0.027,+0.028,+0.863,-0.075,-0.521,+5.375,-12.188,+4.125,-1, -1, 1, 3, 8, -1, 3, 1,-3.1172893192691555,0.9720067427059846,11
1503688068181,-0.885,-0.465,-0.028,+0.029,+0.857,-0.090,-0.533,+5.312,-13.812,+3.062,3, -3, 4, -3, -3, 0, 0, 4,-3.1162802114014334,0.9674750404550169,11
1503688068196,-0.885,-0.463,-0.029,+0.029,+0.846,-0.093,-0.522,+6.812,-12.750,+3.875,34, 1, -5, -3, -3, -2, 1, 12,-3.1170032626806785,0.9624538506675092,11
1503688068220,-0.886,-0.461,-0.031,+0.029,+0.824,-0.083,-0.557,+7.500,-9.625,+5.875,-4, 1, -2, -2, -12, -6, -1, 2,-3.118676845899075,0.9580393168479845,11
1503688068249,-0.887,-0.460,-0.033,+0.030,+0.819,-0.073,-0.556,+8.688,-5.625,+8.188,-13, -4, -2, -2, 0, 2, -3, -18,-3.118661860240532,0.9561404162825873,11
1503688068264,-0.887,-0.460,-0.035,+0.030,+0.829,-0.078,-0.549,+9.812,-1.500,+7.125,-14, 0, 0, -1, 0, 0, -2, -17,-3.120506987440408,0.9562940179841015,11
1503688068280,-0.887,-0.460,-0.037,+0.030,+0.855,-0.098,-0.539,+12.312,-0.062,+7.188,0, -7, -4, 0, 0, -1, -1, -6,-3.1223522582446415,0.9564608262929255,11
1503688068301,-0.887,-0.460,-0.040,+0.030,+0.870,-0.110,-0.531,+13.188,-2.000,+7.875,-14, -5, -7, -1, 2, -1, 0, 2,-3.125120406252373,0.9567358344572511,11
1503688068317,-0.887,-0.459,-0.042,+0.031,+0.860,-0.102,-0.545,+13.500,-6.562,+8.500,10, 1, 3, 1, 12, 0, 1, 14,-3.125071893243948,0.9543494753185591,11
1503688068339,-0.887,-0.458,-0.045,+0.031,+0.825,-0.104,-0.548,+16.000,-6.312,+8.875,19, 0, -5, 1, 0, -1, 1, 23,-3.1277233671445024,0.9521323321090648,11
1503688068361,-0.887,-0.457,-0.049,+0.031,+0.833,-0.116,-0.565,+19.062,-0.688,+8.812,-7, -1, -4, -1, -1, -1, -1, -3,-3.1312947637265953,0.9500668179951735,11
1503688068384,-0.887,-0.457,-0.053,+0.030,+0.869,-0.124,-0.571,+21.312,-0.938,+10.375,8, 8, 2, -2, -4, -1, -3, -6,-3.1367724462977953,0.9506525086122665,11
1503688068399,-0.888,-0.456,-0.057,+0.030,+0.862,-0.128,-0.552,+23.750,-7.625,+12.250,-6, -9, -8, -4, -3, 2, -2, 25,-3.1402874658036977,0.9492308056922293,11
1503688068421,-0.888,-0.455,-0.062,+0.030,+0.833,-0.156,-0.550,+25.688,-9.562,+12.000,-9, -3, 3, 0, 0, -2, 1, -8,3.138424588703792,0.9474918726878989,11
1503688068445,-0.888,-0.453,-0.068,+0.030,+0.836,-0.160,-0.562,+28.812,-7.438,+12.625,1, 2, -1, -2, 0, -3, -2, -10,3.1331594870321537,0.9434806008848349,11
1503688068459,-0.888,-0.452,-0.073,+0.030,+0.854,-0.164,-0.568,+31.188,-6.062,+13.688,9, 13, 9, 4, 1, 5, 3, 8,3.128696897371431,0.941918270723427,11
1503688068483,-0.888,-0.451,-0.080,+0.029,+0.852,-0.171,-0.567,+33.625,-7.062,+13.625,-2, 14, -4, 1, -5, -2, 0, 3,3.120601520391497,0.9409786184731972,11
1503688068504,-0.888,-0.450,-0.086,+0.028,+0.854,-0.181,-0.569,+37.688,-9.188,+12.562,21, -14, -1, -1, 0, 0, -2, -6,3.1134234057132475,0.9399659454405368,11
1503688068520,-0.889,-0.448,-0.093,+0.026,+0.851,-0.195,-0.554,+40.750,-10.812,+11.688,-6, -3, 2, -1, 0, 1, -1, -1,3.1038324931469896,0.9374660969549012,11
1503688068541,-0.889,-0.447,-0.101,+0.025,+0.848,-0.215,-0.570,+43.250,-12.188,+12.375,1, -8, -1, 1, 3, -1, -2, 6,3.094859520618954,0.9373438631509167,11
1503688068563,-0.889,-0.444,-0.109,+0.023,+0.827,-0.223,-0.564,+45.500,-13.375,+12.812,-8, -4, -2, -4, -7, -6, -2, 3,3.0843190207661615,0.9324942365960889,11
1503688068579,-0.889,-0.442,-0.117,+0.021,+0.811,-0.227,-0.561,+48.562,-11.812,+13.250,-4, -4, -3, -1, 2, -3, 0, 5,3.073659423269345,0.9304392482373628,11
1503688068601,-0.889,-0.441,-0.126,+0.019,+0.795,-0.248,-0.556,+51.188,-10.125,+12.188,-8, 4, 4, 2, -2, -3, -1, -7,3.0619864040798994,0.931576464848493,11
1503688068624,-0.888,-0.439,-0.135,+0.017,+0.813,-0.263,-0.539,+52.875,-8.438,+12.625,0, -2, 3, -2, 0, -5, -3, -1,3.050072158188461,0.9299407144754616,11
1503688068639,-0.887,-0.438,-0.144,+0.015,+0.809,-0.286,-0.536,+54.750,-8.375,+13.688,16, 8, -2, -3, -5, 1, -2, -5,3.0379832841327974,0.9311819856783532,11
1503688068661,-0.887,-0.436,-0.153,+0.013,+0.806,-0.281,-0.534,+55.562,-10.938,+13.000,0, -7, -4, -4, 2, 2, -1, 5,3.026397121623492,0.930734498953958,11
1503688068684,-0.886,-0.434,-0.163,+0.010,+0.793,-0.305,-0.526,+56.438,-10.625,+13.188,3, 5, 6, 2, 10, 4, -1, -2,3.0115984091125707,0.9308070170759031,11
1503688068706,-0.885,-0.433,-0.172,+0.008,+0.768,-0.325,-0.512,+55.125,-8.875,+14.938,10, -3, -3, -2, -2, -2, -10, -9,2.999380942236574,0.9330941586793573,11
1503688068721,-0.884,-0.432,-0.182,+0.006,+0.767,-0.338,-0.515,+54.438,-3.438,+13.375,0, 9, 5, 2, 0, 0, 1, -6,2.986215335658952,0.9363391941946514,11
1503688068747,-0.882,-0.431,-0.191,+0.004,+0.793,-0.338,-0.515,+53.750,-3.312,+13.125,-3, -11, -7, -3, -5, 3, -2, 4,2.9732726104970695,0.9388236171560833,11
1503688068759,-0.881,-0.430,-0.199,+0.002,+0.776,-0.351,-0.498,+52.000,-6.688,+12.625,-7, -5, -3, -2, -2, -3, 4, 4,2.9617838163630124,0.941523658767361,11
1503688068781,-0.880,-0.428,-0.208,-0.000,+0.761,-0.349,-0.491,+51.375,-9.500,+11.688,-15, 2, 5, 4, 2, 1, 0, 2,2.949440753566651,0.9426393877031186,11
1503688068804,-0.878,-0.426,-0.216,-0.003,+0.746,-0.357,-0.489,+49.812,-7.812,+10.000,3, 0, -3, -1, 6, -2, -2, -2,2.93533229593555,0.9430895548759888,11
1503688068819,-0.877,-0.426,-0.224,-0.004,+0.752,-0.388,-0.496,+48.062,-1.438,+11.188,7, -2, 2, -1, 0, -1, -1, 1,2.9254680741483945,0.9490465489945598,11
1503688068841,-0.875,-0.425,-0.231,-0.006,+0.765,-0.384,-0.492,+45.125,-2.812,+11.125,-3, -7, -6, -1, -5, 1, -1, -13,2.9138488698150913,0.9516138223750006,11
1503688068864,-0.874,-0.424,-0.238,-0.008,+0.759,-0.398,-0.481,+42.688,-5.188,+8.188,-2, -2, 0, -1, 2, 1, 4, 3,2.903007488088327,0.9549643538447143,11
1503688068881,-0.872,-0.423,-0.245,-0.010,+0.762,-0.410,-0.464,+41.688,-0.938,+8.375,-7, -2, -5, -1, -3, 1, 2, -5,2.8912080941728995,0.9580275458171781,11
1503688068901,-0.871,-0.423,-0.251,-0.011,+0.785,-0.414,-0.468,+40.625,+0.625,+9.562,1, 3, 1, -2, -11, -1, -1, 11,2.8829784281235487,0.963270174623002,11
1503688068924,-0.869,-0.422,-0.257,-0.013,+0.771,-0.415,-0.470,+36.125,-4.688,+8.438,5, 4, 6, 0, 6, -1, -1, -2,2.87192087575471,0.9658505185453596,11
1503688068939,-0.869,-0.420,-0.262,-0.015,+0.746,-0.430,-0.494,+32.812,-6.375,+7.562,11, -6, -4, 0, 0, 0, -1, 3,2.8637818106954755,0.9660643072017896,11
1503688068961,-0.868,-0.420,-0.267,-0.016,+0.738,-0.436,-0.489,+30.938,-0.750,+7.625,-10, 5, 1, -1, 1, 2, -2, -3,2.856378288168418,0.970834275633989,11
1503688068983,-0.866,-0.419,-0.271,-0.017,+0.783,-0.432,-0.470,+31.125,+0.000,+7.312,-4, -1, -1, -5, -1, -3, 2, 1,2.84880848433862,0.9715300282452846,11
1503688068999,-0.865,-0.418,-0.276,-0.018,+0.771,-0.442,-0.463,+28.750,-5.438,+5.875,-4, -3, -5, -2, 2, -2, 3, -3,2.841367080357029,0.9738917958175298,11
1503688072680,-0.862,-0.504,-0.025,+0.046,+0.916,-0.141,-0.438,+2.438,-4.500,-11.750,-1, 4, 6, 1, -1, 0, -2, -6,-3.0872222792546906,1.0555557635158215,12
1503688072703,-0.863,-0.503,-0.025,+0.045,+0.896,-0.123,-0.414,-2.312,-6.688,-8.750,-5, -9, -5, 0, -5, 2, 1, 3,-3.088887070379497,1.0534663497394878,12
1503688072719,-0.863,-0.503,-0.023,+0.045,+0.920,-0.115,-0.393,-7.062,-8.250,-7.875,-6, 4, -1, -1, 10, -2, 1, 8,-3.086871914961807,1.0533882260357512,12
1503688072741,-0.864,-0.502,-0.022,+0.045,+0.946,-0.103,-0.395,-6.750,-13.438,-5.562,-6, -5, 4, -3, -15, 3, 0, -1,-3.085811063535961,1.05124416302966,12
1503688072763,-0.865,-0.499,-0.021,+0.044,+0.907,-0.085,-0.444,-6.312,-21.688,-7.188,1, -5, -8, -8, -5, -3, -2, 4,-3.086179694125397,1.0439181326433886,12
1503688072786,-0.868,-0.495,-0.019,+0.044,+0.843,-0.068,-0.475,-8.000,-23.750,-8.938,1, 6, 1, 4, 5, -3, -14, -7,-3.083903585581501,1.0349855198681261,12
1503688072802,-0.869,-0.492,-0.017,+0.043,+0.860,-0.078,-0.470,-9.000,-17.688,-9.000,6, 0, 8, 3, 3, -1, 3, -1,-3.0833289417330807,1.0276991822938153,12
1503688072834,-0.870,-0.491,-0.015,+0.042,+0.883,-0.059,-0.476,-9.812,-11.500,-9.438,-7, -3, -5, -2, -4, -2, -1, 0,-3.0830729738890064,1.025615419400849,12
1503688072846,-0.871,-0.489,-0.012,+0.042,+0.879,-0.040,-0.477,-10.062,-11.500,-11.000,-6, -2, 1, -1, 4, 6, 1, -4,-3.0799665982143747,1.0209486562413994,12
1503688072861,-0.872,-0.487,-0.010,+0.041,+0.893,-0.050,-0.497,-8.500,-10.250,-7.250,-1, -5, -3, 0, -6, -2, -3, -9,-3.079604413669071,1.0163225809316967,12
1503688072883,-0.873,-0.486,-0.009,+0.042,+0.898,-0.066,-0.502,-8.625,-9.750,-2.938,-5, -7, -3, -3, 0, 0, 5, -10,-3.0768820459281274,1.0142599345634646,12
1503688072901,-0.874,-0.484,-0.007,+0.042,+0.893,-0.053,-0.496,-8.438,-11.875,-1.875,10, 1, 1, 0, 1, -1, -2, 8,-3.0748022468693117,1.009659997105072,12
1503688072921,-0.875,-0.482,-0.006,+0.042,+0.875,-0.046,-0.509,-7.375,-13.688,-2.188,-9, -2, 0, -3, -1, -2, 0, -9,-3.073702235882399,1.0050572843068277,12
1503688072943,-0.876,-0.480,-0.005,+0.043,+0.863,-0.068,-0.490,-8.938,-12.000,-0.312,-1, 3, 4, 1, -2, -2, -5, -7,-3.0708597067543737,1.0004618689290645,12
1503688072969,-0.877,-0.479,-0.004,+0.045,+0.890,-0.069,-0.496,-9.938,-9.500,+4.188,0, 1, 0, -2, -7, -2, 0, 0,-3.0664211698532786,0.9984394246360215,12
1503688072981,-0.878,-0.477,-0.003,+0.047,+0.894,-0.052,-0.514,-10.125,-11.375,+6.438,4, -1, -1, -2, -3, 6, -2, -4,-3.061838505228223,0.9938676164883385,12
1503688073005,-0.879,-0.475,-0.003,+0.048,+0.864,-0.046,-0.536,-5.938,-11.500,+8.812,-8, 1, 6, 2, -1, 0, -2, -8,-3.059956746431165,0.9892704842129918,12
1503688073026,-0.879,-0.474,-0.003,+0.050,+0.829,-0.060,-0.522,-4.688,-8.750,+8.188,-2, 3, 4, 1, -13, -2, -3, -17,-3.0562853217856856,0.9867084466162412,12
1503688073041,-0.880,-0.473,-0.003,+0.052,+0.846,-0.066,-0.504,-5.312,-3.688,+8.750,3, -7, -4, -3, 6, 0, 3, 22,-3.0528115568848437,0.9846718002672911,12
1503688073063,-0.879,-0.473,-0.003,+0.054,+0.874,-0.080,-0.493,-5.125,-0.750,+8.562,1, 1, 0, 0, 0, 6, 2, -1,-3.049089908979157,0.9841408838066277,12
1503688073085,-0.879,-0.473,-0.003,+0.056,+0.891,-0.082,-0.495,-6.188,-2.062,+7.438,-3, -1, -3, -1, 9, -3, -1, -8,-3.045579573306036,0.9841342281129141,12
1503688073102,-0.880,-0.472,-0.003,+0.057,+0.864,-0.065,-0.531,-3.562,-6.250,+7.500,31, 5, -4, -5, 1, -4, 7, 75,-3.043864808734883,0.9821031605122703,12
1503688073124,-0.880,-0.471,-0.003,+0.059,+0.834,-0.065,-0.519,-4.188,-8.750,+6.250,-16, -4, 2, 1, -1, -4, -11, -50,-3.040162752932977,0.9795456406463047,12
1503688073145,-0.881,-0.470,-0.003,+0.060,+0.824,-0.051,-0.520,-3.000,-4.062,+5.938,9, 5, 0, -1, -3, -1, 0, -8,-3.0384515356349184,0.9775194495989787,12
1503688073161,-0.881,-0.470,-0.004,+0.061,+0.829,-0.078,-0.539,-0.188,+1.375,+5.812,-1, -8, -4, -4, -1, 1, 4, 10,-3.03763350986973,0.977459391415669,12
1503688073183,-0.881,-0.470,-0.004,+0.062,+0.861,-0.086,-0.525,-1.188,+0.562,+3.562,-2, -1, 0, -1, -10, -1, -4, -4,-3.035880500585543,0.9774549106251659,12
1503688073206,-0.881,-0.469,-0.004,+0.062,+0.867,-0.083,-0.510,-1.375,-4.312,+4.438,0, 3, -3, 0, 12, 4, -2, 1,-3.0356739403794055,0.9749072646598425,12
1503688073221,-0.881,-0.469,-0.005,+0.063,+0.857,-0.078,-0.507,+0.250,-6.250,+4.375,7, -9, -7, -4, -4, -4, 2, 19,-3.034852853088258,0.9748468191279167,12
1503688073243,-0.882,-0.468,-0.005,+0.064,+0.849,-0.087,-0.525,+0.000,-5.375,+4.250,4, -4, -7, -2, -4, -4, 3, -3,-3.033139270991346,0.9728227875712155,12
1503688073265,-0.882,-0.467,-0.006,+0.065,+0.860,-0.088,-0.530,+0.000,-5.438,+4.562,-5, -11, 0, 4, 0, 4, 2, 0,-3.0320997189714456,0.9702172424231473,12
1503688073281,-0.882,-0.466,-0.006,+0.065,+0.873,-0.075,-0.532,+1.750,-7.000,+2.938,0, -4, -4, -3, 0, 0, 0, -2,-3.0318830506034047,0.9676737227567356,12
1503688073304,-0.883,-0.464,-0.007,+0.065,+0.875,-0.076,-0.544,+3.938,-12.875,+1.938,-1, 0, 0, -4, 1, -6, -5, -1,-3.0326346943884417,0.9630692909937133,12
1503688073325,-0.884,-0.462,-0.009,+0.065,+0.852,-0.103,-0.547,+5.562,-14.438,+3.500,-1, -3, -3, -3, 3, -2, -3, -3,-3.0343036570799082,0.9584283963146374,12
1503688073341,-0.885,-0.461,-0.010,+0.066,+0.834,-0.101,-0.546,+5.000,-10.125,+5.125,-7, -2, -2, -2, -7, -6, -6, -6,-3.0334923893508767,0.9563702381391953,12
1503688073364,-0.885,-0.461,-0.012,+0.067,+0.852,-0.090,-0.545,+7.312,-0.375,+7.812,2, -1, -1, 5, 0, 1, 1, 8,-3.033566156168071,0.9562758036262917,12
1503688073386,-0.885,-0.461,-0.014,+0.067,+0.870,-0.100,-0.542,+9.375,-0.312,+8.375,-4, -1, 2, -1, -4, 3, -3, -4,-3.0354047246623095,0.9562060078268404,12
1503688073408,-0.885,-0.460,-0.017,+0.068,+0.871,-0.111,-0.540,+10.875,-3.812,+7.625,-6, -1, -4, -1, -2, 1, 0, -7,-3.0361697666337224,0.9535693695167528,12
1503688073426,-0.885,-0.459,-0.019,+0.068,+0.862,-0.121,-0.552,+11.500,-8.000,+7.500,-1, -9, -1, -3, -11, -1, -4, -3,-3.0377793657283894,0.9509929468884336,12
1503688073446,-0.886,-0.458,-0.022,+0.069,+0.844,-0.112,-0.557,+12.312,-6.812,+9.688,4, -7, -4, 0, 2, -3, -1, -9,-3.038759162219641,0.9489309119602193,12
1503688073462,-0.886,-0.458,-0.025,+0.069,+0.837,-0.116,-0.569,+15.062,-4.688,+11.000,-4, 2, 2, 4, 8, 5, 4, -5,-3.041507775028653,0.9489188739322766,12
1503688073483,-0.886,-0.457,-0.029,+0.070,+0.841,-0.133,-0.566,+15.875,-5.188,+9.812,-8, -8, -3, -1, 0, 0, 2, -8,-3.0431621659598087,0.9463775197946445,12
1503688073506,-0.887,-0.456,-0.032,+0.070,+0.840,-0.137,-0.551,+16.125,-8.125,+10.688,7, 3, -3, -2, -5, -1, 0, 3,-3.045873286889968,0.944431001259933,12
1503688073521,-0.887,-0.455,-0.036,+0.071,+0.820,-0.151,-0.547,+16.438,-8.938,+12.188,0, -6, -9, -2, -11, 0, -1, -3,-3.047506006210057,0.9419649019436782,12
1503688073543,-0.887,-0.454,-0.039,+0.072,+0.800,-0.146,-0.566,+16.375,-4.000,+13.938,-7, 1, 0, -2, 11, 0, 0, 19,-3.0482163702438596,0.9394957763496803,12
1503688073566,-0.887,-0.454,-0.043,+0.073,+0.808,-0.141,-0.564,+17.625,+1.562,+17.000,16, 26, -2, -3, -11, -6, 5, 25,-3.050085129768398,0.9396360593648501,12
1503688073581,-0.886,-0.454,-0.047,+0.074,+0.848,-0.148,-0.548,+18.375,+2.938,+15.750,4, -17, -6, -2, 0, 3, 0, 3,-3.0517821255299036,0.9392772087491301,12
1503688073603,-0.886,-0.455,-0.051,+0.075,+0.879,-0.154,-0.528,+19.812,-3.188,+14.562,2, 2, 0, -3, 0, 4, -3, -21,-3.053925346919864,0.9420485858976243,12
1503688073626,-0.886,-0.454,-0.055,+0.075,+0.845,-0.172,-0.535,+20.250,-8.812,+14.312,-3, -11, 7, 4, 5, 2, -1, -1,-3.0573312541581497,0.9398383066866135,12
1503688073641,-0.887,-0.452,-0.060,+0.076,+0.811,-0.187,-0.547,+20.062,-9.625,+13.000,-9, -3, -5, -2, -4, -1, -2, -10,-3.059727130714477,0.9357069422040445,12
1503688073663,-0.887,-0.452,-0.064,+0.076,+0.821,-0.196,-0.543,+21.000,-5.000,+12.625,-7, -3, -2, 0, 20, 9, -4, -10,-3.0633853259879973,0.9361521013751241,12
1503688073686,-0.886,-0.452,-0.068,+0.076,+0.835,-0.188,-0.552,+22.375,-1.688,+12.750,-5, -2, -1, -2, 0, -1, 3, -4,-3.066930958484426,0.9361051750693611,12
1503688073704,-0.886,-0.451,-0.072,+0.076,+0.830,-0.190,-0.555,+23.312,-3.688,+10.562,4, 1, 1, 0, 4, -1, 1, 21,-3.070328987046201,0.9341021448155605,12
1503688073723,-0.886,-0.451,-0.077,+0.076,+0.816,-0.204,-0.544,+23.062,-6.000,+10.250,-3, 1, 0, 2, -2, 0, 2, -5,-3.0749241985074693,0.9348645089726714,12
1503688073746,-0.886,-0.450,-0.081,+0.076,+0.805,-0.221,-0.541,+22.562,-2.375,+11.562,-12, -3, -2, -5, -8, 0, 0, -7,-3.0783208043624875,0.9329750749569294,12
1503688073761,-0.885,-0.451,-0.086,+0.076,+0.808,-0.229,-0.535,+22.938,+3.375,+13.875,2, 0, -2, 0, -11, 1, -4, -14,-3.0831461868592274,0.9359024529237769,12
1503688073783,-0.884,-0.452,-0.090,+0.077,+0.824,-0.224,-0.528,+23.375,+5.312,+14.000,6, 16, -1, -1, 1, -5, 0, -8,-3.0852705316115934,0.9386084029594698,12
1503688073806,-0.883,-0.452,-0.094,+0.077,+0.845,-0.237,-0.529,+24.188,+0.312,+12.938,-5, -11, -3, -3, 1, -1, -1, -11,-3.0889484297004377,0.938906282565943,12
1503688073821,-0.883,-0.452,-0.099,+0.077,+0.820,-0.234,-0.534,+25.125,-6.000,+11.750,-2, -2, 3, 4, -1, -1, 1, 11,-3.093606098752424,0.94004344355841,12
1503688073843,-0.883,-0.451,-0.104,+0.076,+0.780,-0.248,-0.550,+24.938,-7.062,+10.938,5, 0, 0, -1, -1, -1, -3, -4,-3.0997945773856,0.9388113926645991,12
1503688073866,-0.883,-0.450,-0.108,+0.076,+0.767,-0.264,-0.537,+23.750,-1.875,+12.438,5, -2, -2, -2, -1, -4, 0, 3,-3.103228197142929,0.9372705465403172,12
1503688073882,-0.882,-0.451,-0.113,+0.077,+0.806,-0.267,-0.505,+23.188,+4.188,+13.000,5, -1, -3, -3, -1, -1, -3, -2,-3.1063898336434788,0.9405525251509343,12
1503688073907,-0.881,-0.452,-0.117,+0.077,+0.834,-0.268,-0.521,+24.625,+3.562,+13.562,-5, 7, -3, -1, -6, -3, -5, -7,-3.11048076176807,0.9437663670618949,12
1503688073926,-0.881,-0.452,-0.121,+0.077,+0.812,-0.270,-0.530,+24.062,-2.938,+11.562,5, -3, -2, 1, -2, 1, 0, -5,-3.1142405639466806,0.9449963761935116,12
1503688073944,-0.881,-0.451,-0.126,+0.076,+0.791,-0.278,-0.546,+24.875,-4.688,+11.250,-5, 3, 6, 0, 1, 3, -2, -7,-3.1204723527000935,0.9441635767740815,12
1503688073964,-0.880,-0.450,-0.130,+0.076,+0.785,-0.292,-0.533,+25.750,-3.000,+10.375,9, 0, 3, 1, 0, -3, 0, 3,-3.1240226438065997,0.9423635579817332,12
1503688073988,-0.879,-0.450,-0.135,+0.075,+0.820,-0.309,-0.515,+26.812,-1.938,+10.750,-1, 23, 5, 2, -3, -1, -1, 1,-3.130701580441636,0.9437571006090996,12
1503688074002,-0.879,-0.450,-0.140,+0.075,+0.813,-0.317,-0.517,+25.688,-3.562,+10.625,-4, 0, 2, 0, 0, 1, -4, -19,-3.1354366639970115,0.9456384992607088,12
1503688074024,-0.879,-0.449,-0.144,+0.074,+0.796,-0.312,-0.516,+25.812,-5.125,+10.062,2, -10, -9, -3, 2, 0, -5, -26,-3.140770288822263,0.944765852230055,12
1503688074046,-0.878,-0.449,-0.149,+0.074,+0.785,-0.328,-0.518,+27.000,-3.562,+10.000,-6, -9, -6, -1, -3, -3, -3, -3,3.137510006982045,0.9462632220902599,12
1503688074062,-0.878,-0.448,-0.154,+0.073,+0.786,-0.333,-0.523,+27.750,-2.562,+9.562,-1, -5, -2, 1, 3, -2, 0, -2,3.1312068424770736,0.9459695801968634,12
1503688074084,-0.877,-0.448,-0.158,+0.073,+0.783,-0.333,-0.507,+26.500,-1.438,+10.250,-5, -8, -1, 0, 3, 2, 3, 9,3.1271991713140577,0.9472027920913758,12
1503688074106,-0.876,-0.448,-0.163,+0.072,+0.780,-0.345,-0.501,+26.250,-0.375,+10.250,-8, -16, -3, -2, -2, 0, 1, -2,3.1203345335537636,0.9491744110716128,12
1503688074122,-0.875,-0.448,-0.168,+0.072,+0.783,-0.368,-0.494,+25.125,+1.188,+10.750,12, 1, 0, 0, 5, 1, 1, -24,3.1152996849930013,0.9510489968527309,12
1503688074151,-0.874,-0.449,-0.172,+0.072,+0.788,-0.370,-0.495,+25.750,+2.000,+10.750,-5, -3, -6, -2, -4, -2, -5, -9,3.1108811387117727,0.955168010408026,12
1503688074166,-0.873,-0.449,-0.177,+0.071,+0.796,-0.364,-0.507,+25.562,-0.500,+9.812,-3, -2, -5, 0, 1, 1, -1, 11,3.1038946095684548,0.9574518878857332,12
1503688074182,-0.873,-0.448,-0.181,+0.070,+0.787,-0.360,-0.496,+25.500,-3.562,+8.625,1, 7, 6, -1, -6, -1, -3, 16,3.0984548343351097,0.9571833342140462,12
1503688074206,-0.872,-0.448,-0.185,+0.070,+0.774,-0.385,-0.475,+24.562,-1.375,+8.375,2, -6, 1, 1, -2, -2, 3, 6,3.0942617995296913,0.9588687772743221,12
1503688076948,-0.873,-0.482,-0.054,-0.049,+0.854,-0.006,-0.485,+5.062,-15.125,-15.062,-4, 17, 17, 4, 0, -1, -1, -5,3.0033267691871104,1.0120017344406378,13
1503688076963,-0.874,-0.480,-0.053,-0.052,+0.880,+0.002,-0.480,+6.125,-15.688,-16.938,-9, -7, -8, -4, -4, -3, -3, -3,2.9991461516037816,1.0073270995684462,13
1503688076989,-0.875,-0.478,-0.052,-0.054,+0.874,+0.010,-0.497,+2.312,-14.875,-10.062,0, -15, -16, -4, -1, 1, -3, 0,2.996684168128968,1.0026045693865375,13
1503688077008,-0.876,-0.477,-0.051,-0.055,+0.868,+0.029,-0.497,+2.062,-6.062,-3.125,-2, -9, -5, -3, -2, 1, -3, -3,2.99612067363241,1.0003885141578903,13
1503688077024,-0.876,-0.477,-0.051,-0.055,+0.906,+0.011,-0.498,-0.062,-2.312,+2.438,0, 6, 15, 4, 0, 2, 2, -3,2.99612067363241,1.0003885141578903,13
1503688077045,-0.876,-0.476,-0.051,-0.055,+0.907,+0.032,-0.526,+0.875,-6.562,+4.438,-1, 13, 3, -1, -1, 0, 0, -3,2.995945035854971,0.9978359897613247,13
1503688077068,-0.877,-0.474,-0.050,-0.054,+0.902,+0.000,-0.504,-0.312,-13.562,+4.562,-7, -6, -1, 2, 1, -2, 1, 0,2.9986748189037846,0.9929686123516269,13
1503688077083,-0.879,-0.472,-0.051,-0.053,+0.842,-0.014,-0.525,-1.188,-12.375,+9.250,-2, -2, 0, 2, 2, 4, 0, 2,2.9999250660584456,0.9890849727221999,13
1503688077106,-0.879,-0.471,-0.051,-0.051,+0.800,-0.033,-0.527,-2.250,-3.812,+10.500,6, 16, -1, 1, 1, -2, 2, -3,3.0032455004530814,0.9864284636408975,13
1503688077128,-0.879,-0.471,-0.051,-0.049,+0.863,-0.047,-0.524,-4.125,+4.125,+15.188,16, 7, 8, 1, -13, -2, 2, 25,3.0067348023546,0.9863157897214211,13
1503688077143,-0.879,-0.472,-0.052,-0.046,+0.886,-0.065,-0.486,-5.875,+1.562,+16.375,-8, 2, 5, -1, 9, -1, -4, -13,3.0111809529318307,0.9889151529071536,13
1503688077166,-0.879,-0.472,-0.052,-0.043,+0.862,-0.070,-0.491,-6.438,+2.750,+13.500,-6, 10, 5, 4, -12, -3, 0, -5,3.0164171891571554,0.988743455195503,13
1503688077189,-0.879,-0.473,-0.053,-0.040,+0.857,-0.075,-0.493,-5.000,+1.500,+12.500,-5, -29, -8, -3, 2, 3, 2, -7,3.0208440235606773,0.991339626601141,13
1503688077211,-0.879,-0.472,-0.053,-0.038,+0.875,-0.070,-0.504,-4.000,-1.750,+9.250,-15, 6, 4, 1, 11, 3, -15, -7,3.02421971136144,0.9886746681623936,13
1503688077233,-0.880,-0.471,-0.053,-0.037,+0.839,-0.073,-0.502,-5.562,-7.750,+5.438,1, 2, -2, -1, 1, -8, 1, -5,3.026190228966274,0.9865892120790312,13
1503688077248,-0.880,-0.470,-0.052,-0.035,+0.838,-0.077,-0.496,-8.312,-7.562,+6.312,9, 8, 0, 1, 11, 0, 3, -7,3.0305232842608847,0.9837119843846813,13
1503688077264,-0.881,-0.470,-0.052,-0.033,+0.848,-0.066,-0.504,-7.188,-1.875,+8.500,-4, -9, -1, -3, 0, 2, 1, 11,3.0343469032742254,0.9841180565563682,13
1503688077286,-0.881,-0.469,-0.052,-0.032,+0.856,-0.078,-0.522,-5.938,-2.938,+8.125,8, 2, 5, 3, 0, 1, 4, 14,3.036004807394999,0.9815159544092252,13
1503688077308,-0.882,-0.468,-0.051,-0.030,+0.869,-0.071,-0.529,-7.250,-10.375,+5.000,-2, 1, -2, -1, -8, -6, 2, -1,3.04066259894109,0.9791747382088255,13
1503688077323,-0.883,-0.466,-0.050,-0.029,+0.850,-0.065,-0.514,-7.438,-12.875,+3.688,-10, -2, 0, -2, -2, -1, 0, -1,3.043473620505139,0.974360338223339,13
1503688077345,-0.884,-0.465,-0.049,-0.028,+0.825,-0.055,-0.512,-5.875,-7.562,+5.500,6, 6, -3, -3, -2, 0, -2, -3,3.046364548965564,0.9720955040429459,13
