Timestamp,Orientation X,Orientation Y,Orientation Z,Orientation W,Accelerometer X,Accelerometer Y,Accelerometer Z,Gyroscope X,Gyroscope Y,Gyroscope Z,EMG1,EMG2,EMG3,EMG4,EMG5,EMG6,EMG7,EMG8,Roll,Yaw
1503688007622,-0.860,-0.180,-0.043,-0.476,+0.381,+0.093,-0.923,-1.188,+0.938,+0.500,3, -2, -1, -1, -1, 0, -1, 2,2.1486616961399774,0.35992100284469275
1503688007644,-0.860,-0.180,-0.043,-0.475,+0.389,+0.088,-0.922,-0.625,+0.375,+0.438,-5, 1, -2, -3, -9, -3, 3, 2,2.1496064542157773,0.3598401287100817
1503688007673,-0.860,-0.180,-0.043,-0.475,+0.388,+0.084,-0.916,-0.562,-0.562,+0.750,1, -2, 1, -5, 4, -1, -7, -2,2.1496064542157773,0.3598401287100817
1503688007682,-0.860,-0.180,-0.043,-0.475,+0.380,+0.084,-0.920,-0.438,-1.062,+1.062,-4, 0, -4, -2, 0, -1, 3, -9,2.1496064542157773,0.3598401287100817
1503688007705,-0.860,-0.180,-0.043,-0.475,+0.387,+0.084,-0.919,-0.438,-1.562,+1.188,0, -2, -1, 2, -5, 0, -1, -1,2.1496064542157773,0.3598401287100817
1503688007719,-0.861,-0.180,-0.043,-0.475,+0.384,+0.087,-0.921,-0.625,-1.688,+1.250,0, 1, 1, -2, 7, -3, 0, 0,2.1519748881210377,0.36017863877171596
1503688007744,-0.861,-0.179,-0.043,-0.474,+0.380,+0.083,-0.920,-0.625,-2.188,+1.250,-1, -2, 0, 1, -14, 1, -2, 5,2.1523692583400367,0.35822462355530243
1503688007765,-0.861,-0.179,-0.043,-0.474,+0.374,+0.085,-0.927,-0.438,-2.500,+1.000,-1, -4, -2, 0, 1, -1, -3, 2,2.1523692583400367,0.35822462355530243
1503688007780,-0.861,-0.178,-0.043,-0.474,+0.368,+0.081,-0.933,-0.250,-1.875,+0.938,-1, 0, 0, -2, -6, 0, -3, -3,2.151816998263619,0.3563531269821337
1503688007802,-0.861,-0.178,-0.043,-0.474,+0.367,+0.075,-0.924,-0.438,-0.625,+0.625,0, 0, 0, -5, 2, 2, -4, -2,2.151816998263619,0.3563531269821337
1503688007824,-0.861,-0.178,-0.043,-0.474,+0.376,+0.075,-0.928,-0.812,-0.125,+0.500,-2, -2, 1, 0, 0, -5, 0, -4,2.151816998263619,0.3563531269821337
1503688007840,-0.861,-0.178,-0.043,-0.474,+0.368,+0.081,-0.926,-0.812,+0.062,-0.062,-5, 1, -1, -4, 6, 3, 1, 5,2.151816998263619,0.3563531269821337
1503688007861,-0.862,-0.178,-0.043,-0.474,+0.372,+0.089,-0.918,-1.062,-0.250,+0.562,2, -2, -2, 4, -5, -3, 3, -1,2.1541831900803983,0.3566882363334306
1503688007884,-0.862,-0.178,-0.043,-0.474,+0.384,+0.097,-0.917,-0.375,+0.312,+0.000,1, 1, 1, -3, 2, 3, -1, -4,2.1541831900803983,0.3566882363334306
1503688007899,-0.862,-0.178,-0.043,-0.474,+0.390,+0.076,-0.925,+0.250,-1.500,+0.250,-6, 2, -1, 1, 2, -4, -4, 1,2.1541831900803983,0.3566882363334306
1503688007922,-0.862,-0.177,-0.044,-0.474,+0.367,+0.045,-0.927,-0.062,-2.188,+0.062,0, 0, -1, 1, -3, -2, -1, -6,2.1534409865600614,0.35577009396772985
1503688007944,-0.862,-0.177,-0.044,-0.473,+0.364,+0.052,-0.926,-1.750,-0.625,-0.125,3, -1, 2, -2, -1, -2, -1, -3,2.1543935375390073,0.35568725671613743
1503688007959,-0.862,-0.177,-0.044,-0.473,+0.363,+0.075,-0.924,-3.000,+1.312,-0.125,-1, -2, -2, 3, 0, -1, -2, 0,2.1543935375390073,0.35568725671613743
1503688007981,-0.862,-0.177,-0.043,-0.473,+0.370,+0.099,-0.929,-2.812,+1.375,-0.312,-2, 0, -1, -3, -1, -2, 2, -2,2.1545894716936145,0.3547357217979534
1503688008004,-0.862,-0.178,-0.043,-0.473,+0.369,+0.118,-0.921,-1.812,+1.000,-0.812,1, -1, -1, -1, 1, 0, -3, -6,2.155136652970346,0.3566072906139468
1503688008019,-0.862,-0.178,-0.042,-0.474,+0.371,+0.116,-0.925,-0.438,-0.312,-0.500,-6, -2, -5, 0, 0, 2, 4, 3,2.1543798514743515,0.3557361921551311
1503688008043,-0.862,-0.178,-0.042,-0.473,+0.382,+0.081,-0.916,+0.812,-0.250,+0.125,0, -1, -2, -1, -3, -5, -7, 2,2.1553338828363664,0.35565708733509377
1503688008064,-0.862,-0.178,-0.043,-0.473,+0.394,+0.054,-0.921,-0.125,-0.500,+1.062,-4, -1, 2, -3, -3, 2, 2, -2,2.155136652970346,0.3566072906139468
1503688008079,-0.862,-0.178,-0.043,-0.473,+0.392,+0.057,-0.919,-1.250,-0.375,+1.062,1, -1, 0, 0, 5, -1, 1, 1,2.155136652970346,0.3566072906139468
1503688008101,-0.862,-0.178,-0.043,-0.473,+0.389,+0.077,-0.922,-2.062,-2.562,+1.000,0, 1, 1, 3, 0, -2, -1, -1,2.155136652970346,0.3566072906139468
1503688008124,-0.862,-0.177,-0.042,-0.473,+0.374,+0.086,-0.928,-1.938,-3.562,+1.000,0, -3, -4, 0, 1, 2, -2, 1,2.154785522144879,0.3537852627541739
1503688008139,-0.862,-0.177,-0.042,-0.473,+0.357,+0.095,-0.928,-1.562,-2.938,+0.312,-3, 1, -3, -1, 2, 1, 2, 1,2.154785522144879,0.3537852627541739
1503688008161,-0.862,-0.176,-0.042,-0.473,+0.351,+0.091,-0.927,-1.000,-1.250,+0.500,5, 0, -2, 1, -11, -3, -3, 1,2.1542400083447206,0.3519150816579433
1503688008185,-0.863,-0.176,-0.042,-0.472,+0.356,+0.076,-0.926,-0.625,+1.062,+0.312,-3, -2, -1, -4, 1, 1, 1, -3,2.1575620694938804,0.3521677627625183
1503688008199,-0.863,-0.177,-0.042,-0.472,+0.371,+0.079,-0.926,-1.000,+1.562,+0.125,1, -2, -1, -3, 0, -2, -2, 3,2.1581053619379005,0.3540396710299622
1503688008221,-0.863,-0.177,-0.042,-0.472,+0.381,+0.070,-0.917,-1.312,+1.688,-0.125,-1, 1, 2, -1, -1, -2, 0, -3,2.1581053619379005,0.3540396710299622
1503688008244,-0.862,-0.177,-0.042,-0.472,+0.388,+0.078,-0.920,-1.188,+1.062,-0.250,2, 1, 2, 0, 3, 0, 1, 5,2.155741964133261,0.3537061037596133
1503688008259,-0.862,-0.177,-0.042,-0.472,+0.386,+0.079,-0.915,-1.250,+0.062,+0.000,-2, 2, -2, -4, 1, -1, -5, -2,2.155741964133261,0.3537061037596133
1503688008281,-0.862,-0.177,-0.042,-0.472,+0.381,+0.083,-0.917,-1.250,+0.000,-0.125,5, -1, 0, -2, -6, -1, -1, -4,2.155741964133261,0.3537061037596133
1503688008304,-0.863,-0.177,-0.042,-0.472,+0.377,+0.085,-0.918,-1.125,-0.938,+0.250,-2, -2, 0, 1, -1, 6, 0, -4,2.1581053619379005,0.3540396710299622
1503688008319,-0.863,-0.177,-0.042,-0.472,+0.371,+0.083,-0.923,-1.000,-1.625,+0.188,-3, -1, 0, 0, 1, -2, 0, -4,2.1581053619379005,0.3540396710299622
1503688008341,-0.863,-0.177,-0.042,-0.472,+0.363,+0.086,-0.922,-1.000,-0.812,+0.438,0, -4, -1, 1, 2, -5, -2, 0,2.1581053619379005,0.3540396710299622
1503688008364,-0.863,-0.177,-0.042,-0.472,+0.365,+0.084,-0.930,-1.125,+0.062,+0.188,-2, 1, -1, -1, -10, -3, -1, 0,2.1581053619379005,0.3540396710299622
1503688008381,-0.863,-0.177,-0.042,-0.472,+0.371,+0.087,-0.922,-1.000,+0.625,+0.062,-4, -1, -1, 1, 4, -2, -2, -3,2.1581053619379005,0.3540396710299622
1503688008401,-0.863,-0.177,-0.042,-0.472,+0.380,+0.082,-0.924,-0.625,-0.125,+0.188,2, -2, -2, -3, -7, 3, 3, 9,2.1581053619379005,0.3540396710299622
1503688008424,-0.863,-0.177,-0.042,-0.472,+0.378,+0.080,-0.918,-0.438,-0.312,+0.188,-9, -6, -3, -7, -11, 5, -11, -14,2.1581053619379005,0.3540396710299622
1503688008439,-0.863,-0.177,-0.042,-0.471,+0.388,+0.068,-0.938,-1.438,-2.188,+0.312,7, 1, 3, -4, 4, -6, 2, 14,2.1590665012437626,0.3539605269138656
1503688008461,-0.863,-0.177,-0.042,-0.471,+0.386,+0.091,-0.926,-0.938,-1.250,-0.688,-2, 1, -5, 1, -8, -4, -5, -7,2.1590665012437626,0.3539605269138656
1503688008484,-0.863,-0.177,-0.042,-0.471,+0.371,+0.078,-0.909,-0.938,-2.438,+0.125,1, -1, -1, 0, 4, -1, 1, 3,2.1590665012437626,0.3539605269138656
1503688008499,-0.863,-0.176,-0.042,-0.471,+0.382,+0.094,-0.926,-1.250,-3.250,+1.188,-3, -4, -1, -2, 7, -2, -2, -5,2.158522869816931,0.3520885692546244
1503688008521,-0.863,-0.176,-0.041,-0.471,+0.363,+0.080,-0.927,-1.312,-2.625,+0.375,-1, 1, 0, -2, -4, 2, -3, -4,2.1587191560314123,0.3511427846222098
1503688008546,-0.864,-0.175,-0.041,-0.471,+0.363,+0.081,-0.932,-0.500,-1.625,+0.750,2, -6, -3, -2, -5, 0, -3, -1,2.1605383261945375,0.34960252351401944
1503688008560,-0.864,-0.175,-0.041,-0.471,+0.338,+0.079,-0.923,-0.750,-1.000,+0.562,-4, 2, -1, 2, -4, 0, -3, -1,2.1605383261945375,0.34960252351401944
1503688008581,-0.864,-0.175,-0.041,-0.471,+0.333,+0.077,-0.927,-0.875,+1.125,-0.312,2, 1, -1, -5, 1, -2, 2, 2,2.1605383261945375,0.34960252351401944
1503688008604,-0.864,-0.176,-0.041,-0.471,+0.369,+0.080,-0.922,-1.562,+5.125,-0.562,-5, -2, -1, 1, -3, -3, -4, -3,2.161077743193432,0.3514747837900399
1503688008620,-0.863,-0.177,-0.042,-0.471,+0.400,+0.094,-0.921,-1.500,+4.000,-0.438,4, 0, 0, 0, -4, 1, 0, 2,2.1590665012437626,0.3539605269138656
1503688008643,-0.863,-0.177,-0.042,-0.471,+0.404,+0.097,-0.919,-0.750,+0.125,+0.375,-3, 1, -2, 0, -5, -2, 1, 3,2.1590665012437626,0.3539605269138656
1503688008664,-0.864,-0.177,-0.042,-0.471,+0.380,+0.080,-0.914,-0.250,-2.375,+0.875,0, -1, -1, -1, 2, 1, -2, -1,2.1614223632693634,0.3542940314693728
1503688008680,-0.864,-0.176,-0.042,-0.470,+0.371,+0.075,-0.921,-0.500,-1.812,+0.375,0, 0, 2, -1, -4, -2, 0, 0,2.1618467776021633,0.3523412181490967
1503688008702,-0.864,-0.176,-0.042,-0.470,+0.351,+0.073,-0.926,-0.125,-2.500,+0.312,2, -4, 0, 1, -1, 1, 0, -1,2.1618467776021633,0.3523412181490967
1503688008724,-0.864,-0.176,-0.042,-0.470,+0.352,+0.071,-0.931,-0.938,+1.062,-0.188,-2, -1, -3, 1, -3, -2, 1, -4,2.1618467776021633,0.3523412181490967
1503688008740,-0.864,-0.176,-0.042,-0.470,+0.360,+0.074,-0.926,-1.062,+2.500,-0.125,1, -1, 1, -7, -3, -3, -3, -3,2.1618467776021633,0.3523412181490967
1503688008762,-0.864,-0.176,-0.042,-0.470,+0.383,+0.079,-0.925,-1.562,+2.250,-0.625,-7, 1, 1, -1, -3, -1, -1, 2,2.1618467776021633,0.3523412181490967
1503688008784,-0.864,-0.177,-0.042,-0.470,+0.386,+0.087,-0.926,-1.250,+0.125,-0.562,-4, -4, -5, -1, 3, -1, -1, 0,2.1623881748748444,0.35421490223778673
1503688008800,-0.864,-0.176,-0.042,-0.470,+0.373,+0.078,-0.923,-0.938,-0.812,-0.500,1, 0, 1, -1, 0, 1, 0, -1,2.1618467776021633,0.3523412181490967
1503688008822,-0.864,-0.176,-0.042,-0.470,+0.373,+0.073,-0.921,-0.812,+0.250,-0.250,0, 2, 1, -3, -7, -5, -4, -4,2.1618467776021633,0.3523412181490967
1503688008844,-0.864,-0.176,-0.042,-0.470,+0.365,+0.075,-0.924,-0.812,-0.312,-0.438,4, 0, 2, -4, -3, 0, 1, 1,2.1618467776021633,0.3523412181490967
1503688008860,-0.864,-0.176,-0.042,-0.470,+0.358,+0.088,-0.929,-1.312,+0.312,-0.688,-1, -1, -4, 2, 1, 0, -1, 5,2.1618467776021633,0.3523412181490967
1503688008882,-0.864,-0.177,-0.042,-0.470,+0.387,+0.083,-0.913,-1.500,+0.812,-0.938,3, 1, -1, -2, 2, -1, 2, -1,2.1623881748748444,0.35421490223778673
1503688008904,-0.864,-0.177,-0.042,-0.470,+0.400,+0.091,-0.926,-1.438,-1.062,+0.688,0, -2, 0, 0, 0, 0, 1, 2,2.1623881748748444,0.35421490223778673
1503688008920,-0.864,-0.176,-0.042,-0.470,+0.372,+0.085,-0.930,-0.750,-3.938,+0.312,4, 4, 1, 6, 6, -4, -1, 5,2.1618467776021633,0.3523412181490967
1503688008942,-0.864,-0.176,-0.042,-0.470,+0.358,+0.077,-0.920,-0.688,-1.688,-0.250,-1, -3, -3, 0, -3, 5, 0, -5,2.1618467776021633,0.3523412181490967
1503688008964,-0.864,-0.176,-0.042,-0.470,+0.391,+0.082,-0.916,-1.625,-1.125,+0.562,-1, -1, 1, -4, 4, 0, -1, -1,2.1618467776021633,0.3523412181490967
1503688008983,-0.864,-0.176,-0.041,-0.470,+0.387,+0.088,-0.939,-1.188,-4.062,+1.812,-6, -1, 0, 2, 2, -4, -2, -7,2.162043790897354,0.3513974502937868
1503688009002,-0.865,-0.174,-0.041,-0.470,+0.347,+0.080,-0.926,-0.375,-5.188,+1.062,-1, 1, -3, 2, -1, 5, -4, -3,2.163323235226473,0.34798302833415956
1503688009024,-0.865,-0.174,-0.041,-0.469,+0.333,+0.075,-0.921,-0.938,-1.688,+0.062,-1, -1, 0, -2, 2, 1, -2, -4,2.164293291801884,0.34790561359097877
1503688009040,-0.865,-0.174,-0.041,-0.469,+0.355,+0.084,-0.932,-1.688,+1.000,-0.375,-1, -2, -2, -2, -2, 0, 0, 1,2.164293291801884,0.34790561359097877
1503688009062,-0.865,-0.174,-0.041,-0.469,+0.374,+0.082,-0.934,-1.438,+0.938,-0.062,-1, -3, 1, 2, -4, -5, -1, -2,2.164293291801884,0.34790561359097877
1503688009085,-0.865,-0.174,-0.041,-0.469,+0.352,+0.079,-0.922,-1.188,+1.625,-0.688,-4, -1, -2, 2, -4, -3, 0, -6,2.164293291801884,0.34790561359097877
1503688009100,-0.865,-0.175,-0.041,-0.470,+0.365,+0.078,-0.923,-1.625,+3.812,-1.188,-5, 1, -1, -5, 1, -4, -3, -3,2.163857604445062,0.3498553978627406
1503688009122,-0.864,-0.175,-0.041,-0.470,+0.361,+0.086,-0.928,-1.562,+3.438,-1.375,1, -4, -1, 2, -10, -3, 0, 6,2.1615040413941573,0.3495251421935469
1503688009144,-0.864,-0.176,-0.041,-0.470,+0.373,+0.087,-0.922,-1.250,+1.938,-1.500,1, 2, 1, -1, 4, -1, -1, -3,2.162043790897354,0.3513974502937868
1503688009160,-0.864,-0.177,-0.041,-0.470,+0.389,+0.083,-0.917,-1.188,+3.500,-0.750,-1, 0, -2, -2, 4, -1, -1, 0,2.162586375456237,0.3532713904910241
1503688009182,-0.864,-0.177,-0.041,-0.470,+0.391,+0.085,-0.926,-1.625,+1.625,-0.312,-1, -3, 1, -3, 4, 3, 0, 2,2.162586375456237,0.3532713904910241
1503688009204,-0.864,-0.177,-0.042,-0.470,+0.387,+0.084,-0.921,-1.062,+0.312,+0.000,2, 2, 1, 0, -4, -5, -2, -2,2.1623881748748444,0.35421490223778673
1503688009220,-0.864,-0.177,-0.042,-0.470,+0.376,+0.076,-0.915,-0.938,-0.812,+0.188,0, 1, -3, 2, -3, 2, 1, 2,2.1623881748748444,0.35421490223778673
1503688009242,-0.864,-0.177,-0.041,-0.469,+0.370,+0.084,-0.926,-1.188,-1.250,+0.312,-1, -2, -2, -2, 1, -1, -3, 1,2.1635555435436173,0.35319410071731266
1503688009264,-0.864,-0.177,-0.041,-0.469,+0.358,+0.084,-0.931,-1.188,-0.750,+0.000,0, 0, 3, -3, -4, -1, -1, -5,2.1635555435436173,0.35319410071731266
1503688009282,-0.864,-0.177,-0.041,-0.469,+0.349,+0.082,-0.925,-1.125,+1.000,-0.375,0, -4, 0, -1, -4, -1, 1, 0,2.1635555435436173,0.35319410071731266
1503688009302,-0.864,-0.177,-0.041,-0.469,+0.370,+0.087,-0.930,-1.375,+2.438,-0.500,0, 0, -2, 1, 2, 1, -2, -2,2.1635555435436173,0.35319410071731266
1503688009324,-0.864,-0.178,-0.041,-0.469,+0.383,+0.086,-0.936,-1.438,+2.062,-0.438,-3, -4, -1, -3, -2, 0, 0, -1,2.164101288473808,0.3550697297917958
1503688009340,-0.864,-0.178,-0.041,-0.469,+0.369,+0.087,-0.924,-0.625,+1.875,-0.625,0, 2, -1, 0, 2, 0, -1, -4,2.164101288473808,0.3550697297917958
1503688009369,-0.864,-0.178,-0.042,-0.470,+0.378,+0.078,-0.921,-0.812,+1.938,-1.062,-1, -2, 0, 1, -3, -1, 0, -1,2.1629323983218787,0.3560902234019143
1503688009384,-0.864,-0.178,-0.042,-0.470,+0.375,+0.083,-0.921,-1.062,+2.750,-0.625,-1, 0, 0, -2, -1, 1, 0, -2,2.1629323983218787,0.3560902234019143
1503688009400,-0.864,-0.179,-0.042,-0.470,+0.379,+0.080,-0.917,-1.438,+1.750,-0.812,-2, -1, -3, -2, 6, -3, -2, 1,2.1634794400074098,0.357967189964501
1503688009422,-0.864,-0.179,-0.042,-0.470,+0.388,+0.086,-0.917,-1.750,+2.375,-0.500,0, 1, -1, 0, 2, 1, 2, -3,2.1634794400074098,0.357967189964501
1503688009444,-0.864,-0.180,-0.042,-0.469,+0.388,+0.088,-0.923,-1.625,+1.000,+0.125,1, -3, 0, 0, -2, 0, 0, -2,2.164998882078749,0.3597668268823482
1503688009460,-0.864,-0.180,-0.042,-0.469,+0.383,+0.086,-0.919,-1.312,-0.062,+0.000,0, -1, -1, -2, -6, -1, -2, 2,2.164998882078749,0.3597668268823482
1503688009483,-0.864,-0.180,-0.042,-0.469,+0.372,+0.080,-0.923,-1.375,-0.625,+0.312,-2, -2, 0, -1, 1, -1, 2, -3,2.164998882078749,0.3597668268823482
1503688009504,-0.864,-0.180,-0.042,-0.469,+0.371,+0.086,-0.924,-1.438,+0.250,+0.188,4, 2, 0, 0, 4, 1, -5, -1,2.164998882078749,0.3597668268823482
1503688009520,-0.864,-0.180,-0.042,-0.469,+0.379,+0.087,-0.920,-1.688,+0.500,+0.375,-1, -3, -3, -2, -1, 0, 0, 0,2.164998882078749,0.3597668268823482
1503688009542,-0.864,-0.180,-0.042,-0.469,+0.381,+0.083,-0.929,-1.625,+0.625,+0.562,0, 0, -3, 0, -2, -3, -1, -2,2.164998882078749,0.3597668268823482
1503688009564,-0.864,-0.180,-0.042,-0.469,+0.384,+0.084,-0.920,-1.375,+0.438,+0.562,0, -1, 1, -1, -2, 1, 0, -4,2.164998882078749,0.3597668268823482
1503688009580,-0.864,-0.180,-0.042,-0.469,+0.382,+0.078,-0.917,-1.375,-0.438,+0.625,3, -2, -4, -2, 1, -2, 1, 1,2.164998882078749,0.3597668268823482
1503688009602,-0.864,-0.180,-0.042,-0.468,+0.379,+0.082,-0.925,-1.312,-0.438,+0.750,-1, 1, -2, 0, -5, 0, 0, 2,2.1659712629820564,0.3596878388496007
1503688009625,-0.864,-0.180,-0.042,-0.468,+0.376,+0.086,-0.920,-1.375,-0.312,+0.562,-3, -3, 1, -1, 4, 1, 0, 1,2.1659712629820564,0.3596878388496007
1503688009640,-0.864,-0.180,-0.042,-0.468,+0.375,+0.087,-0.924,-1.688,-0.625,+0.625,0, 1, -2, 0, -3, -2, -2, -2,2.1659712629820564,0.3596878388496007
1503688009662,-0.864,-0.180,-0.042,-0.468,+0.381,+0.092,-0.927,-1.312,+0.000,+0.500,-2, -1, -3, 1, -2, -1, -1, 2,2.1659712629820564,0.3596878388496007
1503688009691,-0.864,-0.180,-0.041,-0.468,+0.379,+0.088,-0.918,-1.125,-1.000,+0.688,0, -2, 0, 0, 0, 3, -1, -2,2.1661741945539794,0.35874879551460864
1503688009700,-0.865,-0.180,-0.041,-0.468,+0.369,+0.080,-0.922,-1.000,-0.688,+0.625,-2, 0, 1, -2, -3, 0, -1, -4,2.168518567520726,0.35908746116574763
1503688009724,-0.865,-0.180,-0.041,-0.468,+0.374,+0.083,-0.923,-1.062,-0.062,+0.312,3, -1, -2, -3, 0, 1, -1, 1,2.168518567520726,0.35908746116574763
1503688009744,-0.865,-0.180,-0.041,-0.467,+0.378,+0.083,-0.925,-1.062,-0.500,+0.375,-2, 0, 0, 1, -2, 0, -2, -4,2.169496166916724,0.35901032822539164
1503688009761,-0.865,-0.180,-0.041,-0.467,+0.378,+0.089,-0.921,-1.062,-0.062,+0.375,1, 0, 2, -3, -1, -1, 1, -4,2.169496166916724,0.35901032822539164
1503688009785,-0.865,-0.180,-0.041,-0.467,+0.376,+0.086,-0.918,-1.125,-0.625,+0.562,-2, 1, 0, 1, -4, 2, -4, -1,2.169496166916724,0.35901032822539164
1503688009804,-0.865,-0.180,-0.041,-0.467,+0.383,+0.085,-0.926,-0.938,-0.312,+0.438,0, 2, -1, -2, 1, -1, -3, 1,2.169496166916724,0.35901032822539164
1503688009820,-0.865,-0.180,-0.041,-0.467,+0.380,+0.088,-0.922,-0.875,-0.938,+0.562,1, 0, -1, -1, -2, -1, 1, -2,2.169496166916724,0.35901032822539164
1503688009842,-0.865,-0.179,-0.041,-0.467,+0.373,+0.089,-0.925,-0.750,-0.812,+0.688,-4, 0, -1, -2, -3, -1, 1, -3,2.1689467417832917,0.3571296272887466
1503688009864,-0.865,-0.179,-0.041,-0.467,+0.373,+0.083,-0.916,-0.750,+0.125,+0.375,-4, -3, -4, -1, 0, 1, 1, 0,2.1689467417832917,0.3571296272887466
1503688009880,-0.865,-0.179,-0.041,-0.467,+0.376,+0.084,-0.921,-0.688,+0.062,+0.375,-1, 0, 0, -1, -3, -1, -1, 1,2.1689467417832917,0.3571296272887466
1503688009902,-0.865,-0.179,-0.041,-0.466,+0.376,+0.077,-0.927,-0.500,-0.875,+0.188,1, -3, -1, -2, -1, -1, -2, -2,2.169926827153409,0.35705244071898623
1503688009924,-0.865,-0.179,-0.041,-0.466,+0.373,+0.085,-0.914,-0.812,+0.312,+0.188,-2, 2, 0, 0, -1, 1, -1, 1,2.169926827153409,0.35705244071898623
1503688009940,-0.865,-0.179,-0.041,-0.466,+0.376,+0.086,-0.923,-1.062,+0.188,+0.562,-3, 0, 1, -1, 1, -1, -2, 2,2.169926827153409,0.35705244071898623
1503688009963,-0.865,-0.179,-0.041,-0.466,+0.382,+0.083,-0.926,-0.875,-0.062,+0.500,-1, 2, -1, -1, -5, 2, -2, -2,2.169926827153409,0.35705244071898623
1503688009988,-0.865,-0.179,-0.042,-0.466,+0.381,+0.080,-0.921,-0.562,-0.625,+0.375,1, -3, -1, 0, 4, -2, 0, -2,2.169723780618417,0.35798788852844754
1503688010007,-0.866,-0.179,-0.042,-0.466,+0.371,+0.081,-0.922,-0.750,-0.750,+0.375,-3, -3, -2, -2, 2, -2, -3, -1,2.1720647822660726,0.358324665557495
1503688010023,-0.866,-0.179,-0.041,-0.466,+0.366,+0.083,-0.921,-0.938,-0.625,+0.375,-1, -1, -1, 0, 0, 3, 1, 1,2.1722679676650833,0.3573893933188929
1503688010044,-0.866,-0.179,-0.042,-0.466,+0.376,+0.083,-0.920,-1.062,+0.500,+0.438,0, 0, 1, 3, 1, -3, -1, 3,2.1720647822660726,0.358324665557495
1503688010060,-0.866,-0.179,-0.042,-0.466,+0.378,+0.083,-0.919,-1.188,+0.625,+0.312,0, -1, -1, 0, 1, 1, -4, -2,2.1720647822660726,0.358324665557495
1503688010083,-0.866,-0.179,-0.042,-0.465,+0.382,+0.080,-0.922,-0.938,+0.000,+0.500,0, -2, 0, 0, -1, -1, 0, 2,2.1730489093763565,0.35824565287309057
1503688010104,-0.866,-0.179,-0.042,-0.465,+0.378,+0.083,-0.921,-0.750,-0.562,+0.250,0, -3, -4, 2, -2, -2, 1, -1,2.1730489093763565,0.35824565287309057
1503688010120,-0.866,-0.179,-0.042,-0.465,+0.376,+0.075,-0.923,-1.125,-0.500,+0.250,0, 1, -2, 0, 4, 0, 2, 2,2.1730489093763565,0.35824565287309057
1503688010142,-0.866,-0.179,-0.042,-0.465,+0.375,+0.083,-0.918,-1.438,+0.062,+0.125,-1, -2, -4, -1, 3, -1, 0, -1,2.1730489093763565,0.35824565287309057
1503688010164,-0.866,-0.179,-0.042,-0.465,+0.377,+0.087,-0.924,-1.188,-0.375,+0.500,-1, 0, 1, -4, -1, -5, 1, -1,2.1730489093763565,0.35824565287309057
1503688010180,-0.866,-0.179,-0.042,-0.465,+0.374,+0.083,-0.921,-1.000,+0.000,+0.250,-2, 0, 3, -2, -3, -1, -2, -1,2.1730489093763565,0.35824565287309057
1503688010202,-0.866,-0.179,-0.041,-0.465,+0.377,+0.083,-0.919,-1.250,-0.438,+0.250,1, -1, 1, -2, -12, 0, -2, 0,2.1732526780161017,0.3573122217151046
1503688010225,-0.866,-0.179,-0.042,-0.465,+0.375,+0.080,-0.929,-1.188,+0.125,+0.188,-3, -1, -1, -2, -2, -1, -2, -6,2.1730489093763565,0.35824565287309057
1503688010240,-0.866,-0.179,-0.042,-0.465,+0.379,+0.083,-0.921,-1.188,+0.562,-0.062,-2, 0, 2, 0, 2, -1, -3, -4,2.1730489093763565,0.35824565287309057
1503688010262,-0.866,-0.179,-0.042,-0.465,+0.379,+0.081,-0.917,-1.312,+0.312,+0.500,0, 0, 0, 0, 0, -3, -3, 2,2.1730489093763565,0.35824565287309057
1503688010285,-0.866,-0.179,-0.042,-0.464,+0.382,+0.082,-0.918,-1.188,-0.312,+0.125,-1, -3, 1, -1, -3, 4, 3, -2,2.17403586225858,0.35816663551363215
1503688010300,-0.866,-0.179,-0.041,-0.464,+0.375,+0.085,-0.922,-1.375,-0.812,+0.438,3, 2, -4, 0, -3, -4, -1, -1,2.1742402162561656,0.3572350456642714
1503688010322,-0.866,-0.179,-0.041,-0.464,+0.375,+0.085,-0.928,-1.250,+0.062,+0.188,-2, -1, 0, -2, -2, 1, -1, 2,2.1742402162561656,0.3572350456642714
1503688010345,-0.867,-0.179,-0.041,-0.464,+0.382,+0.089,-0.923,-1.188,-0.688,+0.562,-4, -3, 0, -2, -1, 0, -3, 2,2.1765754193085898,0.35757195233078193
1503688010361,-0.867,-0.179,-0.041,-0.464,+0.377,+0.082,-0.916,-1.062,-0.312,+0.438,1, 0, -3, -1, -3, -1, 2, 1,2.1765754193085898,0.35757195233078193
1503688010383,-0.867,-0.179,-0.041,-0.464,+0.378,+0.079,-0.926,-0.875,-1.375,+0.375,0, 0, 1, 1, 8, 1, -2, -5,2.1765754193085898,0.35757195233078193
1503688010405,-0.867,-0.179,-0.041,-0.464,+0.372,+0.074,-0.914,-0.938,-0.938,+0.438,-3, 1, -2, -1, -4, -3, -2, 1,2.1765754193085898,0.35757195233078193
1503688010421,-0.867,-0.179,-0.041,-0.464,+0.375,+0.081,-0.922,-1.375,+0.000,+0.188,0, -1, -1, -2, -4, 1, -1, -1,2.1765754193085898,0.35757195233078193
1503688010442,-0.867,-0.179,-0.041,-0.464,+0.378,+0.085,-0.926,-1.250,-0.500,+0.250,0, 0, -1, -1, -1, -3, -1, -1,2.1765754193085898,0.35757195233078193
1503688010465,-0.867,-0.179,-0.041,-0.464,+0.369,+0.080,-0.924,-1.188,-0.562,+0.062,2, -2, -2, -1, 0, -1, 1, -2,2.1765754193085898,0.35757195233078193
1503688010480,-0.867,-0.179,-0.041,-0.463,+0.371,+0.083,-0.919,-1.000,-0.188,-0.188,-1, 0, -1, 1, 1, 0, -1, 3,2.1775675625624595,0.3574947912501802
1503688010502,-0.867,-0.179,-0.041,-0.463,+0.370,+0.088,-0.918,-1.250,-0.125,-0.062,-1, -2, -1, -2, 2, 1, 1, 0,2.1775675625624595,0.3574947912501802
1503688010525,-0.867,-0.179,-0.041,-0.463,+0.373,+0.084,-0.926,-1.125,+0.688,-0.188,-2, -2, 1, 0, -3, 0, -1, -1,2.1775675625624595,0.3574947912501802
1503688010540,-0.867,-0.179,-0.041,-0.463,+0.380,+0.082,-0.928,-0.938,+0.750,-0.188,-1, -2, -2, -1, 5, -4, -2, -3,2.1775675625624595,0.3574947912501802
1503688010562,-0.867,-0.179,-0.041,-0.463,+0.379,+0.080,-0.913,-1.125,+0.250,-0.438,0, 0, 1, -1, 0, 0, -3, 2,2.1775675625624595,0.3574947912501802
1503688010585,-0.867,-0.179,-0.041,-0.463,+0.377,+0.080,-0.926,-1.125,-0.188,-0.125,1, 1, -1, -3, 0, -1, 1, -1,2.1775675625624595,0.3574947912501802
1503688010600,-0.867,-0.179,-0.041,-0.463,+0.373,+0.086,-0.919,-0.812,+0.000,-0.375,-1, -1, -2, 1, -4, 2, 2, 0,2.1775675625624595,0.3574947912501802
1503688010622,-0.867,-0.179,-0.041,-0.463,+0.373,+0.086,-0.919,-1.125,-0.250,+0.000,0, -3, 0, -1, 1, -1, -2, -4,2.1775675625624595,0.3574947912501802
1503688010645,-0.867,-0.179,-0.041,-0.463,+0.376,+0.081,-0.935,-1.000,+0.562,-0.188,-2, 1, 2, -1, -5, -2, 0, 0,2.1775675625624595,0.3574947912501802
1503688010664,-0.867,-0.179,-0.041,-0.463,+0.376,+0.082,-0.922,-1.062,-0.438,-0.375,3, -3, -1, -4, -5, 0, 0, 2,2.1775675625624595,0.3574947912501802
1503688010683,-0.867,-0.179,-0.041,-0.463,+0.378,+0.081,-0.914,-0.938,+0.375,-0.438,-1, 0, 2, -2, 3, -1, -1, -1,2.1775675625624595,0.3574947912501802
1503688010705,-0.867,-0.179,-0.041,-0.463,+0.375,+0.082,-0.920,-1.250,+0.125,-0.250,-3, 0, -3, -2, 1, 0, -1, 1,2.1775675625624595,0.3574947912501802
1503688010720,-0.867,-0.179,-0.041,-0.463,+0.383,+0.084,-0.921,-1.062,+0.875,-0.375,0, 0, -1, -3, -4, -4, -2, -7,2.1775675625624595,0.3574947912501802
1503688010742,-0.867,-0.179,-0.041,-0.463,+0.374,+0.083,-0.920,-1.188,-0.062,-0.312,0, -1, 0, 1, 1, 0, -2, 1,2.1775675625624595,0.3574947912501802
1503688010765,-0.867,-0.179,-0.041,-0.463,+0.372,+0.084,-0.924,-1.062,+0.375,-0.250,0, -1, 0, 1, -6, -4, 0, -1,2.1775675625624595,0.3574947912501802
1503688010787,-0.867,-0.179,-0.041,-0.463,+0.379,+0.082,-0.927,-1.188,+0.188,-0.312,1, 1, -1, 0, 0, -1, -4, 0,2.1775675625624595,0.3574947912501802
1503688010802,-0.867,-0.179,-0.041,-0.463,+0.380,+0.082,-0.925,-1.125,+0.125,-0.250,-3, -2, -1, 0, 5, 1, -2, -1,2.1775675625624595,0.3574947912501802
1503688010825,-0.867,-0.179,-0.041,-0.463,+0.372,+0.085,-0.917,-1.500,-0.062,-0.312,-1, 1, 0, -2, -2, 1, 1, 0,2.1775675625624595,0.3574947912501802
1503688010848,-0.867,-0.180,-0.041,-0.463,+0.376,+0.083,-0.919,-1.438,+0.812,-0.312,0, -2, -2, -1, -1, -1, 0, 0,2.1781130150711254,0.35937902094418106
1503688010863,-0.867,-0.180,-0.041,-0.463,+0.379,+0.086,-0.920,-1.500,+0.438,-0.562,0, 2, -1, -1, -2, -3, -3, 0,2.1781130150711254,0.35937902094418106
1503688010885,-0.867,-0.180,-0.041,-0.463,+0.377,+0.081,-0.928,-1.312,+0.312,-0.375,0, -3, -4, 1, 2, 1, 3, -1,2.1781130150711254,0.35937902094418106
1503688010907,-0.867,-0.180,-0.041,-0.463,+0.378,+0.083,-0.922,-1.188,+0.938,-0.750,-3, -2, 0, -1, -1, -1, 1, -1,2.1781130150711254,0.35937902094418106
1503688010924,-0.867,-0.180,-0.041,-0.463,+0.383,+0.083,-0.918,-1.375,+0.312,-0.438,1, -2, -2, 1, 5, -2, -3, 1,2.1781130150711254,0.35937902094418106
1503688010945,-0.867,-0.180,-0.041,-0.463,+0.377,+0.084,-0.924,-1.312,+0.688,-0.562,0, 0, -1, -2, -1, -2, -3, -3,2.1781130150711254,0.35937902094418106
1503688010967,-0.867,-0.180,-0.041,-0.463,+0.376,+0.083,-0.917,-1.438,+0.938,-0.375,0, -3, -1, -2, 0, 1, 0, -7,2.1781130150711254,0.35937902094418106
1503688010982,-0.867,-0.181,-0.041,-0.463,+0.382,+0.087,-0.924,-1.500,+0.562,-0.500,-3, -1, 1, -1, 0, 1, -2, 0,2.1786612413829136,0.3612649068942816
1503688011005,-0.867,-0.181,-0.041,-0.463,+0.376,+0.091,-0.927,-1.312,+0.750,-0.438,-2, 0, -2, 1, 0, 1, 0, 1,2.1786612413829136,0.3612649068942816
1503688011028,-0.867,-0.181,-0.041,-0.463,+0.388,+0.086,-0.917,-1.000,+1.000,-0.812,1, 1, 0, -1, -12, -2, -3, -1,2.1786612413829136,0.3612649068942816
1503688011043,-0.867,-0.181,-0.041,-0.463,+0.377,+0.086,-0.922,-1.188,+0.188,-0.312,-1, -1, -1, 1, 1, -2, -3, 0,2.1786612413829136,0.3612649068942816
1503688011067,-0.867,-0.181,-0.041,-0.463,+0.381,+0.083,-0.919,-1.125,+0.250,-0.438,-2, 1, 0, 1, -1, 0, 3, -1,2.1786612413829136,0.3612649068942816
1503688011086,-0.867,-0.181,-0.041,-0.463,+0.381,+0.083,-0.927,-1.250,+0.375,-0.125,1, -2, 2, -2, -1, -1, 0, 1,2.1786612413829136,0.3612649068942816
1503688011101,-0.867,-0.181,-0.041,-0.463,+0.383,+0.084,-0.925,-1.375,+0.938,-0.250,4, 1, 2, -2, -1, 1, -1, -1,2.1786612413829136,0.3612649068942816
1503688011126,-0.867,-0.181,-0.041,-0.463,+0.379,+0.087,-0.917,-1.438,+0.312,-0.125,2, 1, 0, -1, 3, -1, -2, 1,2.1786612413829136,0.3612649068942816
1503688011154,-0.867,-0.182,-0.041,-0.463,+0.379,+0.088,-0.919,-1.312,+0.125,-0.062,-4, 2, 0, -2, -5, -2, -1, -1,2.179212233396187,0.36315245728277235
1503688011163,-0.867,-0.182,-0.041,-0.463,+0.387,+0.087,-0.923,-1.000,+0.250,-0.125,-3, -1, -2, -1, 2, -2, -2, -1,2.179212233396187,0.36315245728277235
1503688011184,-0.867,-0.182,-0.041,-0.463,+0.380,+0.086,-0.918,-1.000,-0.062,+0.062,0, -4, -1, -2, 2, -3, -2, -2,2.179212233396187,0.36315245728277235
1503688011206,-0.867,-0.182,-0.041,-0.463,+0.375,+0.087,-0.923,-1.188,+0.688,+0.000,-2, -3, -2, 2, 1, 0, 1, 0,2.179212233396187,0.36315245728277235
1503688011221,-0.867,-0.182,-0.041,-0.463,+0.384,+0.082,-0.919,-1.125,+0.688,-0.250,-2, -3, 0, 0, 1, -1, -1, -5,2.179212233396187,0.36315245728277235
1503688011244,-0.867,-0.182,-0.041,-0.463,+0.383,+0.083,-0.918,-1.125,+0.312,+0.000,0, -1, -1, -2, 0, 1, 2, 3,2.179212233396187,0.36315245728277235
1503688011268,-0.867,-0.182,-0.041,-0.463,+0.380,+0.087,-0.920,-1.062,-0.062,-0.188,0, -1, -1, 0, 1, -3, -4, 0,2.179212233396187,0.36315245728277235
1503688011281,-0.867,-0.182,-0.041,-0.462,+0.380,+0.087,-0.917,-1.312,-0.125,+0.188,0, -1, -2, -2, -6, -2, 1, -1,2.180208133921274,0.36307544111929013
1503688011304,-0.867,-0.182,-0.041,-0.462,+0.389,+0.092,-0.909,-1.125,+0.750,+0.375,2, 0, 0, -2, 2, 1, 1, 0,2.180208133921274,0.36307544111929013
1503688011328,-0.867,-0.182,-0.041,-0.462,+0.390,+0.089,-0.926,-1.188,-1.312,+0.625,-1, 1, -2, -1, 2, 3, -2, -1,2.180208133921274,0.36307544111929013
1503688011341,-0.867,-0.182,-0.041,-0.462,+0.381,+0.082,-0.917,-0.812,-1.188,+0.562,0, 0, 0, -1, 0, -3, -2, -2,2.180208133921274,0.36307544111929013
1503688011364,-0.867,-0.182,-0.041,-0.462,+0.379,+0.083,-0.918,-1.125,-1.312,+0.562,-2, 0, -2, -2, -3, -4, -7, -2,2.180208133921274,0.36307544111929013
1503688011386,-0.867,-0.182,-0.041,-0.462,+0.379,+0.084,-0.918,-1.312,-0.250,+0.438,-2, -3, -1, 1, 1, -2, -1, -2,2.180208133921274,0.36307544111929013
1503688011401,-0.867,-0.182,-0.040,-0.462,+0.376,+0.089,-0.918,-1.250,-0.562,+0.375,2, -3, 1, -2, 3, -2, 0, 1,2.180417554190653,0.36214960321963696
1503688011424,-0.867,-0.182,-0.040,-0.462,+0.377,+0.087,-0.922,-0.875,-0.500,+0.438,-1, -1, -1, 0, -1, -1, 0, -2,2.180417554190653,0.36214960321963696
1503688011446,-0.867,-0.182,-0.040,-0.461,+0.375,+0.084,-0.921,-1.062,+0.000,+0.000,1, -2, -1, 1, 1, -1, 0, 1,2.18141690408978,0.3620744214448567
1503688011461,-0.868,-0.182,-0.040,-0.461,+0.383,+0.083,-0.925,-1.000,+0.438,+0.188,-2, 1, -1, 0, -3, -2, -3, -3,2.1837400083944365,0.3624164639293988
1503688011484,-0.868,-0.182,-0.040,-0.461,+0.385,+0.086,-0.922,-1.375,+0.062,-0.062,-2, -1, -1, 0, -4, 0, 1, -3,2.1837400083944365,0.3624164639293988
1503688011506,-0.868,-0.182,-0.040,-0.461,+0.382,+0.083,-0.918,-1.438,-0.438,+0.438,1, 0, -1, -1, 0, -1, -1, 2,2.1837400083944365,0.3624164639293988
1503688011521,-0.868,-0.182,-0.040,-0.461,+0.380,+0.089,-0.914,-1.188,+0.062,+0.438,-2, 0, 2, 0, 2, -2, -1, -1,2.1837400083944365,0.3624164639293988
1503688011543,-0.868,-0.182,-0.040,-0.461,+0.376,+0.085,-0.923,-1.312,-0.500,+0.312,-2, -4, -2, 1, -2, -2, -3, 2,2.1837400083944365,0.3624164639293988
1503688011566,-0.868,-0.182,-0.040,-0.461,+0.378,+0.086,-0.916,-1.250,-0.125,+0.500,1, 0, 0, -2, 3, -2, 1, -1,2.1837400083944365,0.3624164639293988
1503688011581,-0.868,-0.182,-0.040,-0.461,+0.386,+0.087,-0.920,-0.938,-0.250,+0.375,-1, 0, 0, -3, -4, -1, 0, -2,2.1837400083944365,0.3624164639293988
1503688011603,-0.868,-0.182,-0.040,-0.461,+0.382,+0.086,-0.915,-1.250,-0.250,+0.438,2, -1, -1, 2, 0, 1, 1, 0,2.1837400083944365,0.3624164639293988
1503688011627,-0.868,-0.182,-0.040,-0.460,+0.375,+0.084,-0.919,-1.188,-0.062,+0.438,0, 0, -1, -1, -1, -1, -2, -1,2.1847439231554286,0.362341297360055
1503688011641,-0.868,-0.182,-0.040,-0.460,+0.383,+0.083,-0.917,-1.000,-0.250,+0.438,-2, -3, -1, -2, 0, 1, -1, -1,2.1847439231554286,0.362341297360055
1503688011664,-0.868,-0.182,-0.040,-0.460,+0.375,+0.084,-0.918,-1.250,-0.375,+0.688,0, -3, 1, -1, 3, 0, 1, 0,2.1847439231554286,0.362341297360055
1503688011686,-0.868,-0.182,-0.040,-0.460,+0.386,+0.089,-0.921,-1.188,-0.188,+0.438,0, 1, -2, 0, -5, -4, 0, -2,2.1847439231554286,0.362341297360055
1503688011701,-0.868,-0.182,-0.040,-0.460,+0.386,+0.087,-0.923,-1.062,-0.562,+0.625,-3, -1, 0, -2, 1, -2, 0, 1,2.1847439231554286,0.362341297360055
1503688011724,-0.868,-0.182,-0.040,-0.460,+0.378,+0.086,-0.915,-1.062,-0.688,+0.688,0, 2, 0, 1, 2, -1, 1, 2,2.1847439231554286,0.362341297360055
1503688011746,-0.869,-0.182,-0.040,-0.460,+0.380,+0.083,-0.922,-1.250,-0.438,+0.562,1, -3, 0, -2, -2, -2, 0, -2,2.1870591794597476,0.36268327064600625
1503688011761,-0.869,-0.181,-0.040,-0.459,+0.377,+0.084,-0.920,-1.188,-0.375,+0.562,1, -1, -1, 2, 2, 1, -3, 3,2.1875195230220945,0.3607167838012645
1503688011784,-0.869,-0.182,-0.040,-0.459,+0.384,+0.084,-0.918,-1.125,-0.125,+0.750,-1, -4, -2, -3, -3, 2, 1, 0,2.1880676319206676,0.36260811928818765
1503688011806,-0.869,-0.181,-0.040,-0.459,+0.382,+0.090,-0.919,-1.125,-0.812,+0.625,-2, -1, 1, 1, -1, -2, -1, 0,2.1875195230220945,0.3607167838012645
1503688011821,-0.869,-0.181,-0.040,-0.459,+0.376,+0.086,-0.922,-1.000,-0.812,+0.812,1, -2, 1, -1, 0, 0, 0, 2,2.1875195230220945,0.3607167838012645
1503688011844,-0.869,-0.181,-0.040,-0.459,+0.386,+0.084,-0.919,-1.062,+0.188,+0.438,0, 0, -3, -3, -4, -4, -5, -3,2.1875195230220945,0.3607167838012645
1503688011866,-0.869,-0.181,-0.040,-0.459,+0.382,+0.089,-0.925,-1.125,-1.062,+0.750,0, 0, 0, -2, -2, 1, -3, -1,2.1875195230220945,0.3607167838012645
1503688011881,-0.869,-0.181,-0.040,-0.458,+0.375,+0.087,-0.927,-0.812,-0.938,+0.750,2, -1, 2, 1, -1, -2, 1, -1,2.1885305619168283,0.36064157921784734
1503688011904,-0.869,-0.181,-0.040,-0.458,+0.380,+0.079,-0.920,-0.875,-0.625,+0.438,-3, -1, -1, 1, 4, 1, 0, -3,2.1885305619168283,0.36064157921784734
1503688011929,-0.869,-0.181,-0.040,-0.458,+0.376,+0.079,-0.927,-0.875,-0.375,+0.812,-1, 0, -4, -2, -3, 0, 0, -2,2.1885305619168283,0.36064157921784734
1503688011948,-0.870,-0.181,-0.040,-0.458,+0.385,+0.080,-0.919,-0.750,-0.188,+0.312,-3, -1, 2, 0, 1, -2, 1, 0,2.19084223109542,0.36098184592641414
1503688011969,-0.870,-0.181,-0.040,-0.458,+0.375,+0.086,-0.924,-1.125,-0.688,+0.250,-2, -1, -1, -2, 0, -2, -1, -1,2.19084223109542,0.36098184592641414
1503688011987,-0.870,-0.181,-0.040,-0.458,+0.372,+0.090,-0.925,-0.938,+0.000,+0.125,-1, -1, 0, 1, 2, 0, 0, 0,2.19084223109542,0.36098184592641414
1503688012001,-0.870,-0.181,-0.040,-0.458,+0.382,+0.087,-0.917,-0.812,-0.062,+0.188,-1, -1, -1, 0, 1, 3, -1, -1,2.19084223109542,0.36098184592641414
1503688012023,-0.870,-0.181,-0.040,-0.458,+0.380,+0.084,-0.930,-0.875,-0.438,+0.188,-1, -1, -1, 2, 8, -3, -3, -2,2.19084223109542,0.36098184592641414
1503688012046,-0.870,-0.181,-0.040,-0.458,+0.382,+0.083,-0.918,-0.625,+0.312,+0.312,0, -3, 1, -2, 0, 0, 1, -3,2.19084223109542,0.36098184592641414
1503688012064,-0.870,-0.181,-0.040,-0.458,+0.375,+0.085,-0.923,-0.938,-0.312,+0.312,-1, 1, -1, -4, -1, -2, -1, -1,2.19084223109542,0.36098184592641414
1503688012083,-0.870,-0.181,-0.040,-0.457,+0.379,+0.085,-0.923,-0.938,-0.062,+0.312,-1, -2, 0, 0, -4, -3, -2, -6,2.191857794528758,0.36090665638522057
1503688012106,-0.870,-0.181,-0.040,-0.457,+0.385,+0.084,-0.918,-1.000,+0.188,+0.188,-2, 0, -1, -2, -2, 0, -2, 2,2.191857794528758,0.36090665638522057
1503688012121,-0.870,-0.181,-0.040,-0.457,+0.379,+0.089,-0.926,-0.938,-0.938,+0.312,4, -2, -1, -1, 0, -2, 1, 2,2.191857794528758,0.36090665638522057
1503688012144,-0.870,-0.181,-0.040,-0.457,+0.375,+0.081,-0.920,-0.750,-0.438,+0.438,-2, -1, -1, 0, -3, 1, 1, 1,2.191857794528758,0.36090665638522057
1503688012167,-0.870,-0.181,-0.040,-0.457,+0.381,+0.079,-0.914,-0.938,-0.250,+0.188,-4, -4, -1, -1, -4, 0, -2, -4,2.191857794528758,0.36090665638522057
1503688012181,-0.870,-0.180,-0.040,-0.457,+0.376,+0.079,-0.924,-1.312,-0.562,+0.375,-2, -1, -2, 0, 0, -2, 1, 0,2.1913145024766982,0.3590152242368771
1503688012204,-0.870,-0.180,-0.040,-0.457,+0.378,+0.087,-0.928,-1.062,-0.250,+0.312,-4, 1, 0, 0, -1, 1, -3, -1,2.1913145024766982,0.3590152242368771
1503688012226,-0.870,-0.180,-0.040,-0.457,+0.379,+0.083,-0.925,-1.000,-0.562,+0.562,1, -1, 0, -3, -3, 0, -1, 1,2.1913145024766982,0.3590152242368771
1503688012241,-0.870,-0.180,-0.040,-0.457,+0.379,+0.080,-0.915,-1.000,-0.125,+0.250,0, -2, -1, 0, 10, 0, 0, 0,2.1913145024766982,0.3590152242368771
1503688012264,-0.870,-0.180,-0.040,-0.456,+0.378,+0.083,-0.920,-0.938,-0.188,+0.188,-1, 2, -2, 0, 0, -1, -4, 0,2.192332680858212,0.35893998164197555
1503688012286,-0.870,-0.180,-0.040,-0.456,+0.380,+0.083,-0.925,-1.062,-0.125,+0.250,2, -2, 0, -3, -4, -1, 1, -2,2.192332680858212,0.35893998164197555
1503688012301,-0.871,-0.180,-0.040,-0.456,+0.378,+0.080,-0.922,-1.000,-0.188,+0.312,1, 0, -2, 0, -2, 1, 0, 2,2.1946406610260443,0.3592785398548925
1503688012323,-0.871,-0.180,-0.040,-0.456,+0.380,+0.081,-0.926,-1.062,+0.000,+0.312,-1, 0, -2, 1, -3, 0, 0, -1,2.1946406610260443,0.3592785398548925
1503688012346,-0.871,-0.180,-0.040,-0.456,+0.380,+0.081,-0.930,-1.250,+0.125,+0.375,-2, -3, -1, -2, -3, -1, -1, -5,2.1946406610260443,0.3592785398548925
1503688012361,-0.871,-0.180,-0.040,-0.456,+0.380,+0.087,-0.923,-1.125,-0.438,+0.062,-1, 0, 0, -1, -2, 0, 0, 2,2.1946406610260443,0.3592785398548925
1503688012383,-0.871,-0.180,-0.040,-0.456,+0.377,+0.086,-0.920,-1.125,-0.375,+0.250,-1, 1, -1, 0, 0, -1, 0, -1,2.1946406610260443,0.3592785398548925
1503688012407,-0.871,-0.180,-0.040,-0.456,+0.378,+0.087,-0.925,-0.938,+0.125,+0.312,1, -1, -1, -1, -2, 0, -1, -1,2.1946406610260443,0.3592785398548925
1503688012422,-0.871,-0.180,-0.040,-0.456,+0.381,+0.082,-0.918,-1.000,-0.062,+0.375,-1, 0, 1, 0, -3, 1, -1, 1,2.1946406610260443,0.3592785398548925
1503688012444,-0.871,-0.180,-0.040,-0.456,+0.379,+0.082,-0.920,-1.125,+0.062,+0.062,0, 0, -2, 0, -3, -2, 0, 2,2.1946406610260443,0.3592785398548925
1503688012466,-0.871,-0.180,-0.040,-0.456,+0.380,+0.087,-0.927,-1.062,-0.250,+0.188,-1, -2, 0, -1, -1, 0, -1, -3,2.1946406610260443,0.3592785398548925
1503688012482,-0.871,-0.180,-0.040,-0.455,+0.375,+0.086,-0.923,-1.062,-0.625,-0.062,-2, -2, 0, -3, -2, -1, -1, -2,2.1956633501858254,0.35920331213365914
1503688012504,-0.871,-0.180,-0.040,-0.455,+0.377,+0.080,-0.926,-1.250,-0.375,+0.375,-3, -1, -1, -1, 0, -2, -1, 3,2.1956633501858254,0.35920331213365914
1503688012526,-0.871,-0.180,-0.040,-0.455,+0.377,+0.084,-0.920,-1.312,-0.062,+0.188,-1, 0, 1, 1, 0, -1, 0, -3,2.1956633501858254,0.35920331213365914
1503688012542,-0.871,-0.180,-0.040,-0.455,+0.382,+0.082,-0.922,-1.375,-0.062,+0.312,0, 1, -2, -1, -4, -3, -2, 0,2.1956633501858254,0.35920331213365914
1503688012567,-0.871,-0.180,-0.040,-0.455,+0.378,+0.080,-0.922,-1.188,+0.125,+0.188,0, -2, -2, -1, -1, 0, -6, -1,2.1956633501858254,0.35920331213365914
1503688012586,-0.871,-0.180,-0.040,-0.455,+0.380,+0.085,-0.921,-1.250,-0.500,+0.000,-1, 2, 1, -1, -4, 3, 1, -2,2.1956633501858254,0.35920331213365914
1503688012602,-0.871,-0.180,-0.039,-0.455,+0.378,+0.085,-0.925,-1.250,-0.125,+0.000,-1, 0, 0, 0, 9, -1, -1, -1,2.195875060402083,0.35829162495500316
1503688012623,-0.871,-0.180,-0.039,-0.455,+0.378,+0.083,-0.926,-1.125,+0.438,-0.250,-2, 1, 0, 1, -1, -3, -2, 1,2.195875060402083,0.35829162495500316
1503688012646,-0.871,-0.180,-0.039,-0.455,+0.379,+0.085,-0.921,-1.000,+0.125,-0.188,1, -2, 0, -1, 1, 0, 0, -1,2.195875060402083,0.35829162495500316
1503688012662,-0.871,-0.180,-0.039,-0.455,+0.377,+0.079,-0.927,-1.188,+0.062,-0.375,2, -2, -2, -1, -3, 0, 2, 1,2.195875060402083,0.35829162495500316
1503688012683,-0.871,-0.180,-0.039,-0.455,+0.377,+0.085,-0.924,-1.125,+0.375,-0.312,-1, -1, -3, -3, -11, 0, -2, -2,2.195875060402083,0.35829162495500316
1503688012706,-0.871,-0.181,-0.039,-0.455,+0.381,+0.085,-0.920,-1.312,+0.500,-0.188,1, 0, -3, 0, -1, -4, -3, 0,2.196417490684244,0.3601850851740853
1503688012721,-0.871,-0.181,-0.039,-0.455,+0.383,+0.088,-0.919,-1.062,+0.250,-0.250,2, -1, -2, -1, -1, 2, -1, 0,2.196417490684244,0.3601850851740853
1503688012743,-0.871,-0.181,-0.039,-0.455,+0.379,+0.084,-0.918,-1.000,-0.312,-0.250,1, 0, 0, 3, -1, 2, 1, -1,2.196417490684244,0.3601850851740853
1503688012769,-0.871,-0.181,-0.039,-0.455,+0.377,+0.083,-0.923,-0.938,-0.188,-0.312,-3, 1, 0, 0, -1, 0, -1, -3,2.196417490684244,0.3601850851740853
1503688012781,-0.871,-0.181,-0.039,-0.455,+0.379,+0.082,-0.925,-0.812,+0.500,-0.188,1, -1, 0, 1, 2, -1, -1, -2,2.196417490684244,0.3601850851740853
1503688012804,-0.871,-0.181,-0.039,-0.455,+0.375,+0.082,-0.922,-1.062,+0.562,-0.188,0, -1, 1, -1, -4, -1, -1, -2,2.196417490684244,0.3601850851740853
1503688012826,-0.871,-0.181,-0.040,-0.455,+0.380,+0.081,-0.931,-1.125,+0.250,-0.375,-2, -1, 1, -2, 0, -2, -1, -2,2.196204548609147,0.36109650175856806
1503688012842,-0.871,-0.181,-0.040,-0.455,+0.376,+0.083,-0.925,-0.938,+0.750,-0.438,-3, -5, -1, -2, 0, -4, -2, -1,2.196204548609147,0.36109650175856806
1503688012863,-0.871,-0.181,-0.040,-0.455,+0.379,+0.081,-0.925,-1.062,+0.625,-0.250,0, 0, -2, 2, 1, 2, 2, 3,2.196204548609147,0.36109650175856806
1503688012886,-0.871,-0.181,-0.040,-0.455,+0.382,+0.084,-0.920,-1.125,+1.062,-0.375,-2, -2, 0, -1, 1, 0, 3, -1,2.196204548609147,0.36109650175856806
1503688012902,-0.871,-0.181,-0.040,-0.455,+0.384,+0.083,-0.923,-1.125,+0.250,-0.312,0, 3, -1, -2, 1, -1, 3, 0,2.196204548609147,0.36109650175856806
1503688012924,-0.871,-0.181,-0.040,-0.455,+0.378,+0.085,-0.919,-1.000,+0.188,-0.375,-1, 1, -2, 1, 2, 0, -2, 0,2.196204548609147,0.36109650175856806
1503688012946,-0.871,-0.181,-0.040,-0.455,+0.382,+0.089,-0.922,-1.188,+0.375,-0.375,0, -2, -3, -1, -2, -1, -2, -2,2.196204548609147,0.36109650175856806
1503688012962,-0.871,-0.181,-0.040,-0.455,+0.380,+0.081,-0.917,-0.938,+0.125,-0.188,-2, 0, 1, 1, 0, -1, -1, 0,2.196204548609147,0.36109650175856806
1503688012984,-0.871,-0.182,-0.040,-0.455,+0.378,+0.087,-0.918,-0.875,+0.250,-0.250,0, -1, -1, 0, -5, -1, -2, -4,2.196748471831953,0.3629913463973685
1503688013006,-0.871,-0.182,-0.040,-0.454,+0.385,+0.080,-0.915,-1.000,+0.000,-0.188,0, -2, -1, -5, 0, -1, -1, -4,2.197774601128658,0.3629162126153524
1503688013022,-0.871,-0.182,-0.040,-0.454,+0.377,+0.085,-0.917,-0.875,-0.062,-0.312,-2, -1, 1, 0, -1, -2, -1, 1,2.197774601128658,0.3629162126153524
1503688013044,-0.871,-0.182,-0.040,-0.454,+0.379,+0.087,-0.917,-1.000,+0.000,-0.312,-2, -1, -2, 0, -2, -2, -1, -4,2.197774601128658,0.3629162126153524
1503688013068,-0.871,-0.182,-0.040,-0.454,+0.381,+0.083,-0.920,-1.062,-0.125,-0.250,0, -3, 2, 0, -1, -1, -3, 1,2.197774601128658,0.3629162126153524
1503688013082,-0.871,-0.182,-0.040,-0.454,+0.381,+0.085,-0.917,-0.875,+0.125,-0.250,0, 0, 0, 1, -2, -3, -3, 2,2.197774601128658,0.3629162126153524
1503688013104,-0.871,-0.182,-0.040,-0.454,+0.385,+0.087,-0.924,-1.062,-0.500,-0.062,1, -2, -1, -2, -4, 1, 0, -2,2.197774601128658,0.3629162126153524
1503688013126,-0.871,-0.182,-0.040,-0.454,+0.385,+0.083,-0.927,-1.062,-0.812,+0.000,-3, 0, -3, -3, -11, -3, -2, -1,2.197774601128658,0.3629162126153524
1503688013143,-0.871,-0.181,-0.040,-0.454,+0.380,+0.083,-0.918,-0.750,-0.812,-0.125,-1, -1, -1, 0, 6, -1, 0, 0,2.197230411714935,0.36102131872687804
1503688013163,-0.871,-0.181,-0.040,-0.454,+0.382,+0.080,-0.923,-1.062,-1.375,-0.125,-1, -2, 0, 1, 0, 4, 0, 2,2.197230411714935,0.36102131872687804
1503688013186,-0.871,-0.181,-0.039,-0.454,+0.375,+0.083,-0.921,-1.062,-0.750,-0.312,1, -2, -1, -2, -1, -2, -1, -4,2.1974439590727117,0.36011174380780087
1503688013209,-0.871,-0.181,-0.039,-0.454,+0.371,+0.087,-0.921,-1.188,-0.812,-0.312,-1, -2, -1, -3, -3, -2, -4, -2,2.1974439590727117,0.36011174380780087
1503688013231,-0.871,-0.181,-0.039,-0.454,+0.374,+0.086,-0.921,-1.125,-0.062,-0.438,-1, 1, -2, -1, 3, 0, -4, 2,2.1974439590727117,0.36011174380780087
1503688013246,-0.871,-0.181,-0.039,-0.454,+0.377,+0.087,-0.925,-1.125,-0.188,-0.500,-1, -1, 1, 0, 1, -1, 1, -2,2.1974439590727117,0.36011174380780087
1503688013262,-0.871,-0.181,-0.039,-0.454,+0.377,+0.087,-0.919,-1.125,+0.000,-0.500,0, -1, 0, 2, 2, 0, 1, -1,2.1974439590727117,0.36011174380780087
1503688013284,-0.871,-0.181,-0.039,-0.454,+0.381,+0.081,-0.924,-1.125,-0.375,-0.375,0, 1, -1, -1, 1, -2, 0, 1,2.1974439590727117,0.36011174380780087
1503688013307,-0.871,-0.181,-0.039,-0.454,+0.373,+0.082,-0.917,-1.125,+0.312,-0.625,-3, 1, 0, -2, 0, -2, -2, 0,2.1974439590727117,0.36011174380780087
1503688013322,-0.871,-0.181,-0.039,-0.454,+0.373,+0.082,-0.927,-1.500,+0.312,-0.625,3, -2, 0, 0, -1, -1, 1, -1,2.1974439590727117,0.36011174380780087
1503688013345,-0.871,-0.181,-0.039,-0.454,+0.375,+0.080,-0.920,-1.438,+2.000,-0.625,-2, -1, -3, -3, 0, -2, -3, -2,2.1974439590727117,0.36011174380780087
1503688013366,-0.871,-0.181,-0.039,-0.454,+0.379,+0.085,-0.919,-1.750,+1.250,-0.562,-2, 0, 0, -1, -3, 1, 4, -1,2.1974439590727117,0.36011174380780087
1503688013382,-0.871,-0.182,-0.039,-0.454,+0.382,+0.085,-0.917,-1.750,+1.938,-0.250,-3, -1, -2, -3, 0, -1, 0, -1,2.197989384047057,0.36200691025561155
1503688013405,-0.871,-0.182,-0.039,-0.454,+0.389,+0.098,-0.921,-1.875,+2.000,-0.250,1, 1, 1, -2, -2, 1, -3, -1,2.197989384047057,0.36200691025561155
1503688013426,-0.871,-0.183,-0.039,-0.454,+0.390,+0.098,-0.919,-1.812,+0.500,+0.438,1, -2, -1, 1, -1, -3, 1, -2,2.1985375269326335,0.3639037435390274
1503688013442,-0.871,-0.183,-0.039,-0.454,+0.384,+0.088,-0.921,-1.562,+0.500,+0.938,-2, 0, 0, 1, 0, -2, -7, -3,2.1985375269326335,0.3639037435390274
1503688013464,-0.871,-0.183,-0.039,-0.454,+0.385,+0.084,-0.920,-1.438,+0.000,+1.125,-2, -2, 0, 1, 5, 2, 3, 1,2.1985375269326335,0.3639037435390274
1503688013486,-0.872,-0.183,-0.039,-0.453,+0.376,+0.085,-0.921,-1.688,+0.188,+0.938,0, 0, 1, -2, -6, -1, 0, 0,2.2018626839876623,0.3641741681611302
1503688013506,-0.872,-0.183,-0.039,-0.453,+0.377,+0.083,-0.925,-1.688,+0.000,+1.188,-1, -2, -1, 1, 1, -2, 0, -2,2.2018626839876623,0.3641741681611302
1503688013524,-0.872,-0.183,-0.039,-0.453,+0.382,+0.090,-0.920,-1.625,+0.375,+1.188,-2, -1, -1, -1, -2, -1, -2, 0,2.2018626839876623,0.3641741681611302
1503688013546,-0.872,-0.183,-0.039,-0.453,+0.390,+0.090,-0.916,-1.500,+0.562,+1.125,0, 1, -1, -1, -3, -2, 1, -2,2.2018626839876623,0.3641741681611302
1503688013562,-0.872,-0.183,-0.039,-0.452,+0.386,+0.095,-0.918,-1.312,+0.125,+1.125,0, -1, -3, -1, 0, -2, -1, 4,2.202897073047331,0.36410093366211027
1503688013584,-0.872,-0.183,-0.039,-0.452,+0.382,+0.093,-0.919,-0.875,-0.375,+1.438,-3, -2, -3, -1, 2, 1, 0, 1,2.202897073047331,0.36410093366211027
1503688013606,-0.872,-0.183,-0.039,-0.452,+0.383,+0.090,-0.919,-0.500,+0.062,+1.625,-1, -2, -1, -2, -1, -3, -1, -3,2.202897073047331,0.36410093366211027
1503688013622,-0.872,-0.183,-0.039,-0.451,+0.385,+0.083,-0.915,-0.812,-0.188,+1.938,0, -1, 0, 1, 2, 0, 0, 0,2.203934392427757,0.3640276950750462
1503688013644,-0.873,-0.183,-0.039,-0.451,+0.383,+0.082,-0.923,-0.812,-0.312,+1.688,0, 0, 1, -2, -1, 1, -1, -1,2.2062230624361017,0.3643713176434664
1503688013666,-0.873,-0.183,-0.039,-0.451,+0.383,+0.075,-0.922,-0.938,-1.000,+1.688,-2, -1, -1, 1, -1, -1, -2, -2,2.2062230624361017,0.3643713176434664
1503688013682,-0.873,-0.183,-0.039,-0.451,+0.382,+0.081,-0.916,-1.250,-0.938,+1.438,-1, 3, 2, -2, 0, -3, -2, -6,2.2062230624361017,0.3643713176434664
1503688013704,-0.873,-0.183,-0.039,-0.450,+0.378,+0.075,-0.927,-1.188,-0.688,+1.125,-3, -5, -4, -2, -1, 0, 3, 1,2.207264824355921,0.36429809415292147
1503688013726,-0.873,-0.183,-0.039,-0.450,+0.381,+0.073,-0.919,-1.250,-0.250,+0.500,13, 11, 16, 1, 1, 3, -7, -3,2.207264824355921,0.36429809415292147
1503688013742,-0.873,-0.182,-0.039,-0.450,+0.378,+0.080,-0.923,-1.688,-0.875,+0.312,0, -2, -5, -1, -1, -2, -1, -3,2.2067209909029155,0.36239776235814497
1503688013764,-0.873,-0.182,-0.039,-0.450,+0.374,+0.091,-0.926,-1.625,-0.125,-0.188,-3, -2, -2, -2, -1, -2, -1, 0,2.2067209909029155,0.36239776235814497
1503688013786,-0.873,-0.183,-0.039,-0.450,+0.382,+0.095,-0.917,-1.500,+0.250,-0.188,0, 1, -3, 1, -1, -3, 0, 0,2.207264824355921,0.36429809415292147
1503688013802,-0.873,-0.183,-0.039,-0.450,+0.382,+0.093,-0.922,-1.000,+0.188,-0.188,0, -2, -2, -1, 0, 3, 2, -3,2.207264824355921,0.36429809415292147
1503688013824,-0.873,-0.183,-0.039,-0.450,+0.385,+0.092,-0.921,-0.438,-0.188,+0.000,-7, -6, -5, -4, 0, -1, -1, 2,2.207264824355921,0.36429809415292147
1503688013846,-0.873,-0.183,-0.039,-0.450,+0.382,+0.086,-0.912,-0.500,-0.312,+0.125,-6, -2, 0, 0, -4, -1, 2, 1,2.207264824355921,0.36429809415292147
1503688013862,-0.873,-0.183,-0.039,-0.450,+0.388,+0.083,-0.918,-0.750,-0.562,+0.375,-1, 0, -2, 0, 8, -2, 0, -3,2.207264824355921,0.36429809415292147
1503688013884,-0.874,-0.183,-0.039,-0.450,+0.391,+0.080,-0.914,-0.688,-0.938,+0.375,2, -3, -3, 0, -2, -2, -1, 0,2.209545367878684,0.3646416458696686
1503688013906,-0.874,-0.182,-0.039,-0.450,+0.387,+0.078,-0.922,-0.812,-2.500,+0.375,0, 0, -1, -1, -2, -1, -1, -2,2.209004199962336,0.3627396629535219
1503688013922,-0.874,-0.182,-0.039,-0.449,+0.376,+0.070,-0.922,-1.125,-2.562,+0.312,-5, -3, -2, -1, -3, -2, -1, 2,2.2100501359948606,0.36266640600652816
1503688013944,-0.874,-0.181,-0.039,-0.449,+0.373,+0.072,-0.920,-1.688,-1.562,-0.188,-5, -4, 1, 0, 0, 1, -1, -3,2.209511413802339,0.3607660312119434
1503688013973,-0.874,-0.181,-0.038,-0.449,+0.369,+0.083,-0.920,-2.438,-1.500,-0.188,11, 8, 2, 1, -2, 1, -4, -3,2.209728340033672,0.35986729721378113
1503688013982,-0.874,-0.181,-0.038,-0.449,+0.375,+0.092,-0.929,-2.062,+0.375,-0.625,1, 1, 1, -3, -7, -4, -5, -3,2.209728340033672,0.35986729721378113
1503688014006,-0.874,-0.181,-0.038,-0.449,+0.372,+0.096,-0.923,-1.625,+0.062,-0.500,0, -1, -1, 0, 3, 2, 1, 2,2.209728340033672,0.35986729721378113
1503688014026,-0.874,-0.182,-0.037,-0.449,+0.374,+0.095,-0.920,-1.500,+1.062,-0.500,-3, -2, -3, -1, -4, -1, 0, 0,2.2104866132387753,0.36087059475557004
1503688014048,-0.874,-0.182,-0.037,-0.449,+0.378,+0.096,-0.917,-1.125,+1.625,-0.250,-7, -5, -2, -3, -2, -2, -1, -5,2.2104866132387753,0.36087059475557004
1503688014064,-0.874,-0.182,-0.038,-0.449,+0.392,+0.086,-0.916,-0.938,+1.062,+0.062,1, -3, 0, -1, 1, 1, 2, 0,2.21026831057676,0.3617679476501715
1503688014086,-0.874,-0.182,-0.038,-0.449,+0.394,+0.087,-0.914,-0.875,+0.000,+0.188,-1, 1, 0, -3, -3, -1, 0, 0,2.21026831057676,0.3617679476501715
1503688014102,-0.874,-0.182,-0.038,-0.449,+0.392,+0.082,-0.917,-0.875,-0.875,+0.625,-1, 0, 0, 1, -3, -2, -2, -2,2.21026831057676,0.3617679476501715
1503688014124,-0.874,-0.182,-0.038,-0.449,+0.381,+0.084,-0.911,-1.000,-1.375,+0.750,-3, -2, -3, -2, -2, -2, 0, 3,2.21026831057676,0.3617679476501715
1503688014146,-0.874,-0.182,-0.038,-0.449,+0.371,+0.082,-0.917,-1.312,-1.188,+0.625,-1, -1, -2, 1, -3, 0, 0, 0,2.21026831057676,0.3617679476501715
1503688014163,-0.874,-0.182,-0.038,-0.449,+0.378,+0.085,-0.922,-1.312,-0.812,+0.375,7, 3, 3, 0, 4, -1, -5, -6,2.21026831057676,0.3617679476501715
1503688014184,-0.874,-0.182,-0.037,-0.449,+0.372,+0.094,-0.923,-1.250,-0.688,-0.062,2, 0, -1, -2, 2, -2, 0, 0,2.2104866132387753,0.36087059475557004
1503688014207,-0.874,-0.182,-0.037,-0.448,+0.367,+0.091,-0.919,-1.062,-0.312,+0.125,0, 2, 0, -2, 2, 2, -2, 2,2.211536733077662,0.3608010190130513
1503688014222,-0.874,-0.182,-0.037,-0.448,+0.376,+0.085,-0.927,-0.875,+1.188,-0.062,0, 1, -2, -1, -2, 3, 4, 1,2.211536733077662,0.3608010190130513
1503688014244,-0.874,-0.182,-0.037,-0.448,+0.389,+0.089,-0.912,-0.938,+1.625,-0.125,-7, -7, -4, -2, -3, -4, -1, -1,2.211536733077662,0.3608010190130513
1503688014268,-0.874,-0.182,-0.038,-0.448,+0.394,+0.085,-0.920,-0.812,-0.125,+0.500,-4, -2, -1, 1, -1, -1, 0, 1,2.211317814066941,0.3616965283683629
1503688014289,-0.874,-0.182,-0.038,-0.448,+0.390,+0.078,-0.921,-0.562,-0.125,+0.500,-1, -3, 0, -2, 0, 1, -2, -1,2.211317814066941,0.3616965283683629
1503688014307,-0.875,-0.182,-0.038,-0.448,+0.381,+0.081,-0.919,-1.125,-0.375,+0.500,0, 2, -2, 1, -2, -2, -1, -1,2.2135943608349815,0.3620385541047281
1503688014326,-0.875,-0.182,-0.038,-0.448,+0.382,+0.080,-0.921,-1.250,-0.250,+0.438,-2, 0, -3, -1, 0, 1, 1, 1,2.2135943608349815,0.3620385541047281
1503688014343,-0.875,-0.182,-0.038,-0.448,+0.374,+0.086,-0.921,-1.312,-0.875,+0.312,-5, -3, -2, -1, -7, -3, 1, 1,2.2135943608349815,0.3620385541047281
1503688014364,-0.875,-0.182,-0.037,-0.448,+0.374,+0.089,-0.921,-1.438,-1.125,+0.312,12, 7, 5, 3, -3, -2, -5, -4,2.2138133282761983,0.36114322123063164
1503688014387,-0.875,-0.182,-0.037,-0.448,+0.374,+0.094,-0.923,-1.000,+0.500,+0.125,-1, 1, 0, -1, -2, 2, -2, 0,2.2138133282761983,0.36114322123063164
1503688014402,-0.875,-0.182,-0.037,-0.447,+0.379,+0.088,-0.922,-0.938,+0.562,+0.312,3, -1, 1, -2, 2, -1, 0, 1,2.21486784582377,0.36107365980849554
1503688014424,-0.875,-0.182,-0.038,-0.447,+0.381,+0.081,-0.914,-1.062,+1.125,+0.062,-4, -3, -3, -1, -3, 0, 0, -2,2.2146482618641397,0.3619671494534015
1503688014447,-0.875,-0.182,-0.038,-0.447,+0.386,+0.084,-0.921,-1.188,+0.062,-0.125,-6, -4, -5, -2, 1, -2, 0, 1,2.2146482618641397,0.3619671494534015
1503688014462,-0.875,-0.182,-0.038,-0.447,+0.381,+0.077,-0.911,-1.000,-0.188,+0.062,-1, -1, 1, -3, -2, -1, -1, 2,2.2146482618641397,0.3619671494534015
1503688014484,-0.875,-0.182,-0.038,-0.447,+0.382,+0.083,-0.921,-1.312,+0.125,+0.188,-2, -2, -1, 2, 6, -4, -1, -1,2.2146482618641397,0.3619671494534015
1503688014513,-0.875,-0.182,-0.038,-0.447,+0.386,+0.088,-0.914,-1.375,-0.062,+0.312,0, 2, -4, -1, -1, -1, 1, -5,2.2146482618641397,0.3619671494534015
1503688014528,-0.875,-0.182,-0.038,-0.447,+0.386,+0.090,-0.924,-1.125,-0.625,+0.438,-4, -3, -3, -3, -2, -1, -2, 1,2.2146482618641397,0.3619671494534015
1503688014546,-0.875,-0.182,-0.037,-0.447,+0.383,+0.088,-0.925,-0.938,-1.438,+0.438,12, 6, 5, 3, 0, -1, -4, -3,2.21486784582377,0.36107365980849554
1503688014566,-0.875,-0.182,-0.037,-0.447,+0.376,+0.086,-0.918,-0.875,-0.812,+0.375,-3, -2, 1, -2, -2, 2, 0, -1,2.21486784582377,0.36107365980849554
1503688014588,-0.875,-0.182,-0.037,-0.447,+0.370,+0.081,-0.924,-1.000,-1.125,+0.438,-1, -3, -2, -4, -1, -4, 1, 0,2.21486784582377,0.36107365980849554
1503688014605,-0.875,-0.182,-0.037,-0.446,+0.375,+0.083,-0.919,-0.938,+0.625,-0.125,-2, -2, -3, -2, -5, 0, 0, -1,2.2159253335440603,0.3610040947316303
1503688014627,-0.875,-0.182,-0.037,-0.446,+0.375,+0.080,-0.927,-1.062,-0.250,-0.375,-1, -2, 1, 0, -1, 0, -3, 2,2.2159253335440603,0.3610040947316303
1503688014653,-0.875,-0.182,-0.037,-0.446,+0.373,+0.077,-0.924,-1.000,+1.000,-0.562,0, -2, -1, -2, -4, 0, 1, -1,2.2159253335440603,0.3610040947316303
1503688014665,-0.875,-0.182,-0.037,-0.447,+0.374,+0.087,-0.915,-1.438,+1.562,-0.875,-1, 1, 1, 2, -3, -1, -2, 0,2.21486784582377,0.36107365980849554
1503688014687,-0.875,-0.182,-0.037,-0.447,+0.382,+0.090,-0.913,-1.375,+1.500,-0.625,1, 0, 1, 0, 0, -3, -1, 0,2.21486784582377,0.36107365980849554
1503688014710,-0.875,-0.183,-0.038,-0.447,+0.393,+0.088,-0.917,-1.312,+1.375,-0.750,0, 0, -1, -1, -2, -3, 2, -2,2.215188722428548,0.3638712065133025
1503688014725,-0.875,-0.183,-0.038,-0.447,+0.385,+0.090,-0.919,-1.188,+0.438,-0.375,0, -1, -1, -2, 4, -1, -1, 1,2.215188722428548,0.3638712065133025
1503688014747,-0.875,-0.183,-0.037,-0.447,+0.381,+0.090,-0.925,-1.000,+0.625,-0.375,-3, 0, 0, 1, -4, -2, -1, -3,2.215409561404225,0.3629779993518958
1503688014769,-0.875,-0.183,-0.038,-0.447,+0.386,+0.091,-0.917,-0.750,+0.250,-0.375,-1, 0, 2, 0, 1, -1, 2, 0,2.215188722428548,0.3638712065133025
1503688014786,-0.875,-0.183,-0.038,-0.447,+0.378,+0.084,-0.921,-0.812,+0.000,+0.125,-2, -2, -2, 0, 5, -2, -1, -2,2.215188722428548,0.3638712065133025
1503688014807,-0.875,-0.183,-0.038,-0.446,+0.374,+0.077,-0.909,-0.250,+1.812,+0.125,-2, -2, -2, 2, 3, 1, -2, -4,2.216245820956445,0.3637998452165579
1503688014828,-0.875,-0.184,-0.038,-0.446,+0.383,+0.085,-0.921,-0.875,+2.500,+0.562,2, -2, -2, -1, -4, -3, -1, -2,2.2167891778747015,0.3657056145709167
1503688014850,-0.875,-0.184,-0.038,-0.446,+0.392,+0.090,-0.930,-1.000,+3.688,+0.000,-2, 0, 0, 0, -5, 1, -2, 0,2.2167891778747015,0.3657056145709167
1503688014866,-0.875,-0.184,-0.038,-0.446,+0.378,+0.092,-0.919,-0.500,+0.875,-0.062,0, -1, 0, 0, 2, 0, -3, -4,2.2167891778747015,0.3657056145709167
1503688014888,-0.875,-0.184,-0.039,-0.446,+0.375,+0.082,-0.907,+0.062,+2.125,-0.250,1, -1, 0, 1, -4, 0, -3, 0,2.2165665902279432,0.36659781538009084
1503688014905,-0.875,-0.185,-0.039,-0.446,+0.387,+0.086,-0.912,+0.000,+4.188,+0.125,2, 0, -2, -10, -7, -2, -3, -2,2.2171113479253295,0.36850497410134664
1503688014927,-0.875,-0.186,-0.040,-0.446,+0.406,+0.092,-0.920,+0.125,+6.562,+0.562,0, 0, 0, 2, -1, -3, 1, -2,2.217433785529031,0.3713065769698656
1503688014948,-0.875,-0.187,-0.040,-0.446,+0.419,+0.096,-0.924,+0.125,+2.375,+0.812,-2, 0, -1, -2, -4, -3, -6, 1,2.2179825766187546,0.3732168120620111
1503688014965,-0.875,-0.187,-0.040,-0.446,+0.391,+0.087,-0.913,+1.188,-0.312,+0.500,0, -1, 0, -2, 3, -1, 2, 1,2.2179825766187546,0.3732168120620111
1503688014987,-0.875,-0.187,-0.040,-0.446,+0.379,+0.083,-0.917,+1.375,+0.062,+0.312,0, 1, 1, 2, 0, -1, 1, -2,2.2179825766187546,0.3732168120620111
1503688015008,-0.875,-0.186,-0.041,-0.446,+0.359,+0.087,-0.902,+2.125,+2.125,+0.625,-1, -1, 4, 6, -2, 0, -3, 2,2.2172089497431946,0.3722004883717979
1503688015024,-0.874,-0.188,-0.042,-0.445,+0.386,+0.091,-0.916,+1.500,+10.188,+1.938,-1, -3, 0, 1, -2, -2, -3, -4,2.2168737247561805,0.3764869454098827
1503688015048,-0.874,-0.189,-0.043,-0.445,+0.437,+0.097,-0.942,+1.938,+8.500,+2.625,2, -1, -2, -5, -10, -2, 0, -2,2.217199295100464,0.3792921842915779
1503688015068,-0.874,-0.190,-0.044,-0.445,+0.435,+0.073,-0.924,+4.188,+3.500,+2.562,-2, -1, 0, -1, -2, -3, 0, 0,2.217525112593111,0.38209975161711596
1503688015085,-0.874,-0.191,-0.046,-0.444,+0.424,+0.103,-0.893,+6.125,+8.375,+3.750,-2, 0, -1, -7, -2, 0, -1, -1,2.218678467331757,0.38572087224765034
1503688015106,-0.874,-0.193,-0.050,-0.443,+0.458,+0.091,-0.943,+12.562,+17.000,+6.750,-1, -4, 0, 2, -2, 1, -3, -1,2.2199198853283337,0.3930510101853203
1503688015129,-0.874,-0.194,-0.053,-0.443,+0.461,+0.117,-1.013,+15.875,+14.312,+5.125,-2, -1, -1, 2, 3, -1, 1, -2,2.219772061697196,0.39766849984046265
1503688015146,-0.873,-0.195,-0.059,-0.443,+0.454,+0.156,-1.014,+30.312,+25.188,+7.438,-1, 0, -1, 3, 2, -1, -3, 0,2.2166572251951817,0.4046606469195309
1503688015167,-0.873,-0.197,-0.068,-0.442,+0.441,+0.105,-1.020,+44.438,+38.250,+16.188,-2, -1, -6, -12, -9, -1, -1, -1,2.216683962793891,0.4166106244597829
1503688015189,-0.872,-0.199,-0.078,-0.440,+0.454,+0.114,-1.102,+52.000,+40.438,+18.062,2, 0, -2, -3, -1, -1, 3, -1,2.215232245708376,0.42907137114129434
1503688015204,-0.870,-0.200,-0.090,-0.441,+0.628,+0.149,-1.027,+64.562,+33.562,+11.000,0, 0, 2, -8, -7, 0, -2, -3,2.2073262425893545,0.4417090985328728
1503688015227,-0.871,-0.197,-0.103,-0.439,+0.479,+0.014,-1.052,+73.812,+19.875,+25.625,-2, 3, -5, -27, -4, -4, -5, -1,2.207034250233675,0.44846587222919204
1503688015249,-0.872,-0.188,-0.113,-0.437,+0.554,+0.088,-1.115,+83.000,-21.750,+35.562,1, 1, 6, 2, -12, -2, -3, -2,2.2046791429907264,0.4410454220581248
1503688015264,-0.873,-0.181,-0.128,-0.435,+0.520,+0.090,-0.962,+98.438,+4.625,+40.438,-3, -5, -5, -8, -2, 0, -3, -1,2.2025973427490757,0.4426098876124473
1503688015287,-0.874,-0.172,-0.145,-0.430,+0.445,-0.038,-0.955,+107.375,-1.500,+52.188,2, 1, 3, 14, 5, 0, -2, 4,2.202845986850995,0.44202626898806785
1503688015309,-0.875,-0.161,-0.163,-0.426,+0.496,-0.043,-0.946,+117.312,-11.125,+52.875,-2, 0, -2, -17, -20, -5, -3, -6,2.201833547993136,0.4393303211956926
1503688015331,-0.876,-0.146,-0.180,-0.423,+0.488,-0.070,-0.849,+126.188,-27.188,+49.812,-3, -2, 3, 10, 17, -11, 0, 1,2.199740636085075,0.4288159421058179
1503688015347,-0.876,-0.130,-0.199,-0.421,+0.364,-0.140,-0.884,+136.062,-37.250,+45.375,0, 3, 14, 15, 1, 0, -3, -2,2.195013725353831,0.4192562967871571
1503688015369,-0.874,-0.114,-0.218,-0.419,+0.302,-0.190,-0.860,+137.562,-26.875,+37.625,-7, 2, 37, 0, -4, 1, 0, 5,2.1868762649658637,0.40993545882153687
1503688015386,-0.872,-0.101,-0.237,-0.416,+0.360,-0.272,-0.776,+134.500,-14.312,+37.250,1, -10, -30, -1, 22, 8, 6, -4,2.1813533964567715,0.4064932748188716
1503688015407,-0.869,-0.089,-0.256,-0.413,+0.422,-0.352,-0.673,+129.875,-11.438,+38.562,2, 2, 10, 14, 10, -3, 2, -3,2.174285899086545,0.4054162546398958
1503688015436,-0.866,-0.077,-0.274,-0.411,+0.450,-0.366,-0.644,+125.375,-15.812,+28.875,2, -1, -7, -3, -24, -7, -2, -2,2.1670813390339774,0.40434062499813456
1503688015446,-0.861,-0.066,-0.291,-0.411,+0.382,-0.461,-0.675,+119.562,-11.625,+13.312,2, 2, -4, -11, -43, -5, -1, 2,2.1531345894787135,0.4055083412380173
1503688015467,-0.856,-0.058,-0.307,-0.412,+0.348,-0.448,-0.667,+107.812,-4.000,+2.312,2, 25, 6, 8, 17, 5, 1, -1,2.1381809261250644,0.41259333545329513
1503688015489,-0.851,-0.052,-0.322,-0.412,+0.394,-0.484,-0.579,+97.625,+0.188,+9.250,-6, -5, -6, -2, 5, -1, -3, -1,2.1241076905491094,0.42241142977216095
1503688015504,-0.847,-0.045,-0.336,-0.410,+0.302,-0.616,-0.643,+81.562,+5.500,+9.062,-5, -24, 10, 11, 40, 9, 6, -1,2.1152639749366036,0.4284319016717488
1503688015527,-0.843,-0.043,-0.348,-0.409,+0.234,-0.704,-0.719,+68.312,+30.812,-4.125,0, 0, -11, 1, 1, 2, -2, -1,2.1043352760758443,0.44233044294498214
1503688015549,-0.839,-0.046,-0.360,-0.406,+0.297,-0.655,-0.706,+55.500,+54.375,-3.250,-2, -13, -8, -3, -2, 3, -2, 0,2.0939980589518576,0.4649761339680691
1503688015565,-0.836,-0.048,-0.371,-0.402,+0.462,-0.663,-0.688,+50.562,+44.250,+8.688,3, 20, 6, 0, -9, 2, 1, 3,2.0877730091074356,0.48397184606543997
1503688015587,-0.833,-0.048,-0.380,-0.400,+0.460,-0.686,-0.652,+42.688,+23.562,+4.875,-4, -17, -12, -6, 5, -2, -2, -3,2.0799549524304277,0.49776836898853927
1503688015609,-0.830,-0.046,-0.386,-0.400,+0.403,-0.642,-0.640,+38.125,+1.125,+1.062,0, 14, 1, 4, -2, -1, 0, -1,2.0706717450364205,0.5043638547766239
1503688015625,-0.828,-0.040,-0.390,-0.401,+0.358,-0.660,-0.624,+35.125,-17.062,+2.750,0, -4, -3, -1, 0, 0, -1, -1,2.0647370095436335,0.50072349079868
1503688015648,-0.827,-0.036,-0.393,-0.401,+0.325,-0.740,-0.588,+22.375,-9.812,+0.188,-1, -2, -2, 2, 3, -5, -3, -1,2.0625794194735083,0.49842735631162033
1503688015669,-0.826,-0.033,-0.396,-0.401,+0.318,-0.634,-0.593,+21.125,-8.812,+2.125,0, -5, -2, 2, -12, -3, -2, 0,2.0601690041835763,0.4981219737645729
1503688015685,-0.825,-0.031,-0.397,-0.402,+0.291,-0.523,-0.589,+15.625,-1.875,-2.688,0, 4, 1, -3, -8, -2, -2, 1,2.0565392468474317,0.49693833994930364
1503688015707,-0.823,-0.032,-0.399,-0.403,+0.321,-0.569,-0.599,+13.625,+6.312,-11.125,2, -4, -1, 8, 13, 1, -1, 1,2.0485903836771207,0.5034231771446005
1503688015729,-0.822,-0.033,-0.401,-0.404,+0.394,-0.651,-0.580,+8.312,+7.438,-11.625,-3, -6, -12, -4, 3, 0, 0, 0,2.0439258487259546,0.5100117698478691
1503688015751,-0.820,-0.034,-0.402,-0.405,+0.392,-0.680,-0.586,+1.312,+2.125,-13.000,0, -9, -4, -8, -11, 2, -2, -5,2.035997526533667,0.5146222867967725
1503688015767,-0.819,-0.035,-0.402,-0.407,+0.341,-0.721,-0.579,-3.500,+2.688,-18.000,-1, -6, -3, -7, -10, -1, -2, 0,2.0304856827415927,0.518273398955128
1503688015790,-0.818,-0.038,-0.402,-0.408,+0.337,-0.689,-0.625,-8.312,+15.062,-21.750,0, -13, -3, 5, -4, -7, -2, 0,2.0253675935283044,0.5248458407407313
1503688015805,-0.818,-0.042,-0.401,-0.410,+0.392,-0.641,-0.630,-13.375,+15.562,-21.875,-1, -15, -9, 5, 8, -1, 2, 2,2.022510744555321,0.5323289308220809
1503688015827,-0.817,-0.046,-0.400,-0.413,+0.469,-0.633,-0.594,-16.438,+5.188,-24.938,-1, -10, -8, -3, -7, -1, -6, -1,2.015596741855245,0.5405317832440967
1503688015852,-0.816,-0.049,-0.398,-0.417,+0.512,-0.630,-0.558,-15.500,-5.625,-27.438,0, 6, 2, 0, -2, -2, -2, -3,2.0082504809071664,0.5456769799482448
1503688015865,-0.814,-0.051,-0.396,-0.422,+0.473,-0.646,-0.628,-12.750,-7.188,-29.750,1, 0, 4, 1, -1, -1, -1, -2,1.9971435058696345,0.5496003932354712
1503688015887,-0.814,-0.055,-0.394,-0.424,+0.471,-0.686,-0.600,-24.188,+4.562,-22.125,-1, 5, -2, -1, -2, -1, -1, -1,1.9949152763973708,0.5548854267990223
1503688015909,-0.815,-0.058,-0.391,-0.424,+0.405,-0.612,-0.671,-25.312,+9.562,-12.062,0, -17, 0, 11, 4, -1, -1, -3,1.9978920556451778,0.5548400055016671
1503688015925,-0.815,-0.064,-0.387,-0.426,+0.432,-0.526,-0.766,-22.625,+16.625,-19.750,-3, 8, 7, 10, 9, -3, -2, 0,1.9957496352724262,0.5600265922200531
1503688015952,-0.814,-0.069,-0.384,-0.430,+0.578,-0.520,-0.824,-14.250,+7.812,-24.062,-5, 5, 7, -4, -9, 2, -1, -10,1.9890573733175247,0.566666887477621
1503688015969,-0.805,-0.063,-0.397,-0.436,-0.005,-0.338,+0.086,+80.562,-4.875,-45.875,0, -12, -22, -3, 12, 2, 2, 3,1.9549602922137974,0.5842955495454819
1503688015987,-0.798,-0.064,-0.403,-0.443,-0.090,-0.971,+0.271,-7.688,+2.375,-88.062,-1, -16, 10, 0, -4, -1, -5, -6,1.9264667636761315,0.6029451059598965
1503688016007,-0.796,-0.073,-0.408,-0.442,+1.234,-1.349,-0.209,-47.375,+11.062,-15.875,-17, -32, -43, -58, -52, 3, -7, -21,1.919973552561478,0.6282939149633993
1503688016029,-0.802,-0.076,-0.387,-0.448,+0.183,+0.107,-1.245,-63.562,-23.250,-18.250,22, 45, 49, -14, -21, 46, 10, 21,1.9367973639743685,0.5973723714359472
1503688016044,-0.802,-0.085,-0.381,-0.452,-0.081,-0.049,-0.723,-21.875,+48.875,-49.188,-3, 4, -7, 7, 2, -25, -8, -10,1.9347644367476229,0.6050119225226663
1503688016066,-0.794,-0.102,-0.391,-0.454,+0.604,-0.587,-0.673,+20.250,+104.000,-64.438,11, -35, -6, -19, -73, 18, 19, 16,1.9090605962410894,0.6547442188430816
1503688016088,-0.787,-0.116,-0.400,-0.456,+1.110,-0.756,-0.522,+7.625,+60.438,-42.250,5, -125, -44, 74, 75, -38, -1, 11,1.887507035560367,0.6975726382839202
1503688016111,-0.785,-0.118,-0.400,-0.458,+0.766,-0.742,-0.562,-10.000,-4.312,-17.188,-14, -70, -69, 47, 74, -1, 0, -60,1.8804890121290894,0.7021131142365817
1503688016126,-0.786,-0.120,-0.395,-0.461,+0.455,-0.477,-0.733,-23.812,-5.250,-21.188,-15, -63, -25, 26, 109, 23, -20, -88,1.8828823727885553,0.6978979385522879
1503688016152,-0.786,-0.123,-0.394,-0.461,+0.445,-0.387,-0.733,-0.875,+26.500,-10.438,-15, 21, -5, 0, -74, 12, 5, -58,1.8837339780620086,0.7011776699423419
1503688016171,-0.783,-0.128,-0.397,-0.461,+0.635,-0.558,-0.642,+7.938,+28.375,-19.062,0, 12, 44, 105, 98, 6, -5, 79,1.8754326167474022,0.7153183820610682
1503688016186,-0.782,-0.131,-0.399,-0.461,+0.695,-0.573,-0.623,+1.125,+19.812,-7.750,4, -18, -17, -32, -4, -20, -8, -8,1.8730058142824833,0.7243987873463361
1503688016208,-0.782,-0.134,-0.400,-0.459,+0.604,-0.536,-0.615,-9.688,+17.625,-1.250,-6, -12, 4, 10, 11, -23, -11, 85,1.874921535328129,0.730319204334904
1503688016231,-0.783,-0.139,-0.399,-0.457,+0.566,-0.497,-0.600,-17.500,+27.875,+1.875,-8, -32, -10, 15, 9, -14, -7, -128,1.8808428584293964,0.7359850538104152
1503688016246,-0.783,-0.145,-0.401,-0.454,+0.604,-0.445,-0.584,-10.188,+37.812,+0.625,-8, -8, -13, -21, -18, -15, -13, -96,1.8843397628928775,0.7486171674131213
1503688016268,-0.781,-0.152,-0.402,-0.454,+0.666,-0.423,-0.589,-5.875,+36.500,-15.438,0, 6, 6, -17, -13, 1, -4, 0,1.8806041029299465,0.7625769417866451
1503688016291,-0.779,-0.159,-0.402,-0.454,+0.683,-0.399,-0.599,-6.438,+27.250,-15.625,-2, -4, 0, -6, 3, -6, -6, 102,1.8772268304207234,0.774508885612776
1503688016306,-0.779,-0.163,-0.402,-0.453,+0.630,-0.441,-0.588,-10.125,+26.875,-5.188,0, -7, -18, 8, 7, -7, -1, 50,1.879453607853336,0.7809788721371803
1503688016328,-0.779,-0.170,-0.402,-0.450,+0.622,-0.485,-0.601,-17.625,+37.812,-0.375,-4, -13, 3, 8, 11, -3, -2, 11,1.884168085724873,0.7915538980208195
1503688016351,-0.780,-0.178,-0.403,-0.445,+0.668,-0.446,-0.567,-25.875,+51.312,+5.812,1, 4, 3, 6, 11, -3, -4, -20,1.8935622139477943,0.8050533051084157
1503688016366,-0.780,-0.188,-0.404,-0.439,+0.691,-0.369,-0.556,-21.250,+58.125,+11.750,-1, 6, 4, 2, -3, -3, -1, -10,1.9017398223944035,0.8214469813679317
1503688016389,-0.780,-0.197,-0.406,-0.435,+0.710,-0.337,-0.562,-14.938,+56.312,+7.125,-3, -5, 1, -2, 1, -3, -3, 30,1.9084488327114708,0.8394686872587093
1503688016411,-0.779,-0.204,-0.407,-0.432,+0.723,-0.343,-0.557,-9.250,+45.750,+1.250,2, -4, 4, 3, 4, -4, -2, -31,1.9108907414573675,0.8522413392510045
1503688016426,-0.778,-0.211,-0.408,-0.429,+0.708,-0.421,-0.571,-7.688,+41.875,-3.812,0, -1, -1, 2, 2, 2, -2, -4,1.9135214861156056,0.8650993962573509
1503688016448,-0.776,-0.219,-0.409,-0.426,+0.702,-0.437,-0.548,-15.938,+49.125,-9.312,-1, 2, -1, 2, 0, 0, 2, 12,1.9139986247951801,0.8795955830849845
1503688016471,-0.775,-0.230,-0.409,-0.423,+0.695,-0.368,-0.517,-23.750,+62.062,-10.500,-2, 0, -1, 1, 2, 1, -2, -20,1.9197947352287883,0.8981186312147282
1503688016486,-0.773,-0.242,-0.410,-0.419,+0.702,-0.313,-0.492,-22.625,+69.750,-11.375,0, 0, 0, 0, 0, -6, 3, -4,1.9242267210588122,0.9198573122541704
1503688016508,-0.770,-0.254,-0.411,-0.417,+0.746,-0.342,-0.497,-12.812,+63.375,-20.812,4, 0, 1, -1, 1, 5, 1, 5,1.9251492059244535,0.9425743504188141
1503688016531,-0.766,-0.263,-0.410,-0.419,+0.722,-0.387,-0.527,-15.625,+46.188,-42.062,-3, -1, 1, 0, 1, -4, -5, -34,1.9195746333064911,0.957454601294368
1503688016546,-0.762,-0.274,-0.406,-0.423,+0.705,-0.282,-0.514,-20.812,+37.375,-54.312,8, -3, -1, -3, 0, -5, 0, -14,1.9156060369663537,0.9712329602885328
1503688016568,-0.758,-0.284,-0.403,-0.426,+0.747,-0.258,-0.517,-18.250,+42.312,-48.938,-7, -2, -1, -2, -4, 1, -3, -43,1.9118316161788498,0.9846417912685451
1503688016591,-0.756,-0.292,-0.401,-0.427,+0.812,-0.335,-0.490,-21.000,+34.062,-32.438,-5, -1, -3, -2, -2, -1, -8, 5,1.9131980270466422,0.9959494601895498
1503688016606,-0.756,-0.299,-0.396,-0.428,+0.899,-0.349,-0.481,-35.125,+11.812,-25.562,0, -2, 0, 0, -3, -2, -6, 1,1.9200067139420303,1.000331569921139
1503688016629,-0.757,-0.301,-0.390,-0.430,+0.880,-0.420,-0.550,-32.625,-11.875,-26.188,-3, -3, -2, 0, 1, -2, 3, 4,1.9247333026986617,0.9940889286189865
1503688016656,-0.759,-0.299,-0.384,-0.433,+0.781,-0.490,-0.589,-24.750,-26.750,-28.062,0, 0, -1, -2, -2, 2, 1, 25,1.927951578666742,0.981033389763661
1503688016666,-0.761,-0.297,-0.377,-0.436,+0.766,-0.458,-0.600,-29.875,-30.625,-21.812,-1, -5, -4, -3, -2, -1, 2, 27,1.9313796309662397,0.9663040467276027
1503688016689,-0.765,-0.297,-0.369,-0.436,+0.747,-0.353,-0.635,-40.000,-17.688,-8.438,-1, 9, 8, 2, 0, 0, -2, 3,1.9438508402512615,0.953241733370537
1503688016711,-0.768,-0.298,-0.363,-0.435,+0.691,-0.261,-0.623,-39.000,-2.875,-1.312,-2, -3, -2, -1, 1, 1, 0, -16,1.9546633736077368,0.9451518626051222
1503688016729,-0.770,-0.301,-0.358,-0.434,+0.704,-0.336,-0.637,-32.062,+8.750,-6.188,-6, -2, 0, 1, 1, -2, -2, -32,1.9643531929843305,0.9425456394103296
1503688016748,-0.769,-0.305,-0.357,-0.433,+0.745,-0.430,-0.555,-19.688,+23.938,-19.812,-6, -6, -2, 1, -1, 0, -1, -32,1.966121163307988,0.9478653070667574
1503688016771,-0.767,-0.311,-0.358,-0.433,+0.840,-0.436,-0.481,-13.750,+29.500,-26.375,-2, -3, -3, -1, -2, 0, 6, 10,1.9660477087748547,0.9607028142540768
1503688016788,-0.765,-0.316,-0.357,-0.434,+0.921,-0.448,-0.491,-16.875,+15.562,-31.625,2, 1, 0, 1, 3, 0, 4, 10,1.9650864302142723,0.968545143956674
1503688016808,-0.764,-0.317,-0.353,-0.437,+0.933,-0.486,-0.436,-19.125,-15.500,-35.500,10, -1, -1, -3, -2, -1, 0, 20,1.9626170332971427,0.9645063783858837
1503688016831,-0.762,-0.316,-0.350,-0.443,+0.892,-0.517,-0.428,-11.125,-28.188,-43.938,-1, 1, 1, 2, -2, -1, -3, -19,1.9536733385934106,0.9591306697548143
1503688016846,-0.762,-0.316,-0.347,-0.447,+0.793,-0.492,-0.480,-14.750,-15.875,-40.312,-13, -3, -2, -4, 1, -1, -4, 1,1.9520560542219982,0.9556691202816063
1503688016868,-0.761,-0.318,-0.344,-0.449,+0.733,-0.415,-0.508,-17.312,-3.062,-30.125,-20, -7, -2, 1, 5, 13, -1, -20,1.9509445091173612,0.9549725036202681
1503688016891,-0.760,-0.319,-0.343,-0.450,+0.769,-0.404,-0.472,-14.750,+1.125,-24.562,-12, -3, -1, 0, -1, -5, -4, -2,1.9489978743368206,0.9552878876531703
1503688016906,-0.759,-0.323,-0.342,-0.450,+0.841,-0.383,-0.451,-17.438,+14.750,-19.312,27, 5, -2, -1, -5, -6, 0, -10,1.950546475275045,0.9611355778171333
1503688016928,-0.757,-0.328,-0.342,-0.450,+0.902,-0.331,-0.424,-15.750,+13.688,-20.688,7, -4, 0, 3, 5, 3, 2, 35,1.9503554185239909,0.9702970196304528
1503688016951,-0.755,-0.332,-0.340,-0.452,+0.988,-0.242,-0.457,-13.000,+5.188,-25.188,0, 7, 3, -3, -3, -9, 2, 31,1.9486290232353398,0.9749318322402301
1503688016966,-0.754,-0.334,-0.336,-0.455,+0.962,-0.163,-0.531,-11.438,-7.500,-26.312,-13, -4, -5, -7, -3, -2, 7, -30,1.9474235055506999,0.9730435388135291
1503688016990,-0.753,-0.334,-0.333,-0.460,+0.891,-0.216,-0.575,-3.625,-18.812,-29.875,6, -1, -1, 1, 0, -3, -3, 4,1.9428424840060774,0.9696237976884494
1503688017011,-0.752,-0.333,-0.330,-0.464,+0.900,-0.264,-0.575,-0.875,-18.438,-31.000,-2, -11, -12, -5, 0, 2, 1, -23,1.9378268777958678,0.963846001531657
1503688017026,-0.751,-0.333,-0.328,-0.467,+0.894,-0.204,-0.541,+1.062,-8.938,-18.500,11, -4, -6, -5, -2, -1, 8, 66,1.9341569008921788,0.961326841744816
1503688017056,-0.750,-0.332,-0.328,-0.469,+0.849,-0.155,-0.543,+7.188,-5.000,-6.938,2, 9, 4, 0, 2, 0, -4, -21,1.9295322627827458,0.9597212422825693
1503688017071,-0.750,-0.331,-0.330,-0.469,+0.823,-0.242,-0.611,+12.625,+5.438,+2.125,-7, 2, 1, 0, 6, 3, -4, -41,1.9280322778371493,0.9610285400612616
1503688017089,-0.750,-0.329,-0.332,-0.468,+0.846,-0.240,-0.582,+9.125,+3.312,+10.688,13, 5, 4, 4, 12, 7, 7, 8,1.9260486914493515,0.9599922583321687
1503688017108,-0.751,-0.328,-0.334,-0.467,+0.868,-0.204,-0.490,+8.688,-5.875,+11.125,4, 12, 15, 2, -2, -6, -5, -22,1.92763057344637,0.9613296536512987
1503688017124,-0.750,-0.328,-0.335,-0.467,+0.812,-0.134,-0.489,+7.750,+1.250,+4.625,-7, -1, -2, -2, -6, -4, 2, 26,1.9248625158380614,0.9626105408812221
1503688017146,-0.749,-0.327,-0.335,-0.469,+0.783,-0.124,-0.533,+13.688,+1.188,-5.750,2, 2, 1, -3, 3, -2, -3, -14,1.9202512063690313,0.9610402430063482
1503688017168,-0.748,-0.326,-0.337,-0.470,+0.775,-0.181,-0.575,+15.875,+2.812,-7.188,-5, -11, -10, -4, -17, -1, -1, -118,1.9157149506089388,0.9624295261697836
1503688017191,-0.746,-0.327,-0.339,-0.472,+0.807,-0.187,-0.557,+18.812,+14.250,-7.875,-14, -7, -7, -1, 2, 2, -5, -37,1.9101765012343692,0.9677791572597901
1503688017206,-0.743,-0.327,-0.343,-0.472,+0.852,-0.190,-0.505,+17.938,+14.688,-1.438,9, 9, 13, 1, -1, -3, 2, 53,1.9016429497240455,0.9734182987542959
1503688017228,-0.743,-0.327,-0.345,-0.472,+0.875,-0.165,-0.461,+12.062,+5.125,+6.938,-9, -1, 1, 4, -4, -3, -7, 71,1.9012093974614974,0.976826062660954
1503688017251,-0.742,-0.328,-0.345,-0.471,+0.789,-0.131,-0.497,+2.062,+4.562,+1.688,4, 5, 2, 4, 7, 1, 2, 3,1.9001802614636685,0.9780153511526386
1503688017266,-0.741,-0.329,-0.347,-0.472,+0.791,-0.176,-0.555,+9.625,+17.250,-2.438,18, 18, 12, -2, -7, -2, -3, 78,1.8977441563962605,0.9834145389625764
1503688017289,-0.739,-0.331,-0.352,-0.471,+0.897,-0.232,-0.522,+20.188,+26.750,+1.812,12, 6, -3, 2, -4, -2, 0, 71,1.8941377926072975,0.9948077257051803
1503688017311,-0.738,-0.332,-0.356,-0.467,+0.985,-0.226,-0.432,+6.625,+14.625,+22.000,-3, -8, -1, 8, 5, 1, 0, -42,1.8936911210681653,1.0017790569683274
1503688017328,-0.740,-0.335,-0.355,-0.463,+0.935,-0.089,-0.376,-16.562,+8.938,+25.812,-6, -15, -8, -4, -1, -1, -3, -46,1.9041555952817446,1.0051044622582823
1503688017348,-0.741,-0.339,-0.354,-0.460,+0.933,-0.027,-0.470,-18.688,+14.438,+16.938,4, 3, 1, 1, 3, 1, 1, -39,1.9126786495840549,1.0104818142242429
1503688017371,-0.742,-0.340,-0.356,-0.456,+0.931,-0.147,-0.625,+1.000,+21.750,+26.188,-10, -14, -3, 0, 0, 3, 1, -30,1.9178597324157254,1.014752351442993
1503688017386,-0.744,-0.339,-0.357,-0.452,+0.938,-0.157,-0.584,+3.062,+4.750,+33.188,-5, -4, -3, -2, -4, -1, 0, -26,1.9237366543671377,1.013689356089088
1503688017408,-0.746,-0.338,-0.358,-0.448,+0.948,-0.121,-0.435,-4.250,-4.375,+32.625,9, 1, 3, -3, 1, -2, 0, -52,1.9296738826127877,1.0126163465234466
1503688017431,-0.749,-0.338,-0.358,-0.444,+0.866,-0.170,-0.375,-10.375,-3.375,+28.188,-13, 3, 2, -3, 8, 2, -3, 9,1.939503565440499,1.0121608054242244
1503688017446,-0.749,-0.341,-0.359,-0.440,+0.849,-0.121,-0.511,-7.875,+27.812,+26.062,26, 13, 5, 13, 2, -3, 4, 10,1.9445908998603796,1.0183397256591835
1503688017468,-0.747,-0.343,-0.364,-0.437,+0.830,-0.098,-0.676,+22.625,+45.438,+16.250,-3, -19, -4, -6, -7, -4, 1, 57,1.9419877382136583,1.0291708865779128
1503688017491,-0.747,-0.341,-0.365,-0.438,+0.886,-0.270,-0.467,+14.188,-9.438,+5.625,-4, 27, 14, -1, -3, 0, -2, -90,1.939084663631099,1.0273040440544519
1503688017506,-0.747,-0.341,-0.364,-0.440,+0.873,-0.199,-0.355,+1.688,-10.500,-10.625,-13, -14, -2, -5, -2, 1, 1, -18,1.938229116715303,1.0263267854459377
1503688017528,-0.746,-0.341,-0.362,-0.444,+0.677,-0.180,-0.482,+2.375,-4.875,-23.062,-10, 0, -8, 1, 2, -1, -5, 15,1.9339893076679657,1.0240129119361672
1503688017551,-0.745,-0.342,-0.359,-0.446,+0.752,-0.254,-0.454,-9.000,-2.625,-25.062,-11, 23, 5, 3, 1, 2, -4, -3,1.9321577253049367,1.021190219330023
1503688017566,-0.742,-0.347,-0.358,-0.448,+0.753,-0.178,-0.532,-4.375,+23.938,-26.938,-14, 4, 1, 0, -2, -3, -2, 18,1.9290528416327513,1.0291245285727273
1503688017590,-0.739,-0.348,-0.357,-0.453,+0.845,-0.286,-0.567,+8.688,+6.000,-34.875,13, -8, 1, -4, 0, 2, 5, 11,1.9201729687408817,1.0301816570417501
1503688017616,-0.737,-0.348,-0.356,-0.458,+0.894,-0.328,-0.408,+3.812,-8.062,-38.812,-14, -8, -7, -26, -21, -8, -10, -99,1.9128111266477255,1.029596195310469
1503688017626,-0.733,-0.352,-0.358,-0.460,+0.883,-0.317,-0.427,+5.375,+19.562,-31.625,23, -4, 3, 6, 0, 3, 11, -61,1.905689824233822,1.040325834612141
1503688017648,-0.731,-0.355,-0.359,-0.459,+0.862,-0.287,-0.442,-3.875,+24.812,-11.062,-9, -26, -6, -6, -6, -3, -9, 127,1.9042831951444927,1.0469636067473729
1503688017671,-0.729,-0.359,-0.362,-0.457,+0.906,-0.274,-0.459,+0.562,+29.625,+0.312,-5, -11, -4, 3, 18, 3, -1, 1,1.9040682907644069,1.0587520584355354
1503688017686,-0.726,-0.361,-0.366,-0.458,+0.844,-0.292,-0.450,+17.250,+25.125,-16.312,4, 0, -1, 7, 1, -4, 0, 30,1.8974182439807843,1.0690609854295365
1503688017708,-0.722,-0.362,-0.370,-0.458,+0.925,-0.372,-0.376,+17.312,+22.062,-15.312,2, 19, 0, 4, 1, 0, 2, 34,1.8876108726016867,1.0767220878163721
1503688017731,-0.720,-0.365,-0.377,-0.454,+0.971,-0.381,-0.341,+8.812,+38.688,+10.562,-4, 27, 4, -5, -4, -7, -1, -120,1.8863272187266247,1.0931147377577954
1503688017746,-0.719,-0.369,-0.383,-0.448,+0.949,-0.306,-0.348,+5.125,+40.500,+18.812,0, 44, 21, 5, -2, 3, -2, 29,1.8899079751217542,1.1095273959117995
1503688017768,-0.716,-0.372,-0.388,-0.446,+0.945,-0.270,-0.381,+13.125,+37.938,+4.000,-21, -27, -12, -11, -9, -3, -5, 35,1.8857041755383581,1.1229804469087508
1503688017792,-0.713,-0.372,-0.391,-0.448,+0.889,-0.284,-0.329,+18.875,+6.188,-12.500,32, 4, 5, 10, -5, -2, -3, 26,1.876577495721711,1.1281948020598969
1503688017806,-0.711,-0.374,-0.393,-0.448,+0.918,-0.317,-0.339,+11.312,+16.688,-9.562,-11, -17, -5, 5, 3, -6, 2, -38,1.8735346534276207,1.1352499167283394
1503688017828,-0.709,-0.375,-0.396,-0.447,+0.840,-0.247,-0.366,+10.438,+21.750,+1.312,20, 2, 11, 0, -2, 1, 1, 6,1.8694894090096335,1.1418383291246108
1503688017851,-0.706,-0.378,-0.399,-0.446,+0.934,-0.213,-0.349,+9.688,+27.625,-6.938,-19, -71, -27, -7, 2, 7, 0, -23,1.8654229965428937,1.1521659541828202
1503688017866,-0.701,-0.381,-0.403,-0.448,+0.927,-0.151,-0.443,+25.688,+33.812,-16.375,9, -2, -2, 2, -2, -8, -2, 66,1.85494771615233,1.164790185457982
1503688017888,-0.699,-0.379,-0.405,-0.451,+0.886,-0.258,-0.404,+25.500,+1.688,-7.250,-2, 10, 2, 8, 18, 9, 4, 11,1.8457697080231426,1.1649315039121206
1503688017911,-0.696,-0.381,-0.409,-0.451,+0.814,-0.200,-0.327,+25.938,+26.688,-5.688,0, 9, 5, -1, -2, 2, -2, -31,1.8399592488976804,1.1756071593030522
1503688017926,-0.690,-0.385,-0.415,-0.451,+0.916,-0.155,-0.377,+27.688,+50.812,-6.250,29, 22, -6, -7, 4, -2, 4, 5,1.828888069903493,1.1932939338990451
1503688017948,-0.686,-0.388,-0.420,-0.451,+1.061,-0.204,-0.341,+25.812,+33.000,-2.938,-20, -26, -16, -11, -19, -6, -2, -11,1.8218499483637316,1.2077786735050178
1503688017971,-0.682,-0.387,-0.424,-0.452,+0.976,-0.223,-0.292,+32.000,+11.562,-4.750,6, 1, 2, 15, 0, 3, -2, -1,1.8093987885402276,1.2127730058331305
1503688017986,-0.680,-0.386,-0.427,-0.455,+0.902,-0.243,-0.321,+26.812,+3.688,-8.500,-9, 9, -5, -11, -21, -6, -8, -11,1.8015160210218388,1.2170482757589212
1503688018013,-0.676,-0.386,-0.431,-0.456,+0.869,-0.213,-0.310,+26.438,+17.625,-8.875,-4, 16, 0, -5, -2, 0, 0, -2,1.790469835241228,1.2241708755359366
1503688018035,-0.672,-0.387,-0.435,-0.457,+0.925,-0.236,-0.302,+27.000,+26.188,-5.938,-12, 6, 7, 1, 2, 3, 0, -43,1.7808257763730508,1.2333347426890806
1503688018046,-0.668,-0.388,-0.439,-0.458,+0.965,-0.244,-0.250,+24.812,+15.312,-11.000,-20, -23, -4, 3, 14, -2, -4, 24,1.7712441565295294,1.2425683508653949
1503688018070,-0.665,-0.388,-0.441,-0.461,+0.918,-0.261,-0.213,+21.250,+4.188,-17.375,-10, -19, -2, -3, -2, 0, 8, 12,1.7626186863133082,1.246703901958083
1503688018096,-0.662,-0.388,-0.441,-0.464,+0.876,-0.280,-0.225,+15.562,-2.438,-24.438,15, -10, -5, -6, -8, -6, 0, -1,1.7543485475601814,1.2468079130496525
1503688018117,-0.659,-0.390,-0.442,-0.467,+0.854,-0.250,-0.235,+10.562,+8.750,-27.375,3, 3, 1, 5, 7, -1, 1, 8,1.7488026368324612,1.252815504244225
1503688018128,-0.656,-0.393,-0.443,-0.468,+0.903,-0.296,-0.256,+7.250,+18.750,-24.125,39, 2, -2, -1, -19, -1, -7, 14,1.7452342130800933,1.2601970045332778
1503688018151,-0.653,-0.397,-0.444,-0.469,+0.915,-0.287,-0.250,-0.188,+25.312,-25.500,-9, 2, 1, 0, 5, -3, -1, 14,1.7431895175832808,1.2695328499785645
1503688018167,-0.650,-0.400,-0.443,-0.471,+0.934,-0.232,-0.144,-2.250,+4.188,-28.625,-2, 2, 7, 3, 11, 1, -1, -11,1.739850972409592,1.273174636249635
1503688018188,-0.648,-0.403,-0.440,-0.474,+0.979,-0.220,-0.196,-8.312,-4.438,-35.438,3, 3, 2, 0, -3, -4, 1, 6,1.73909171303583,1.2733349404282568
1503688018211,-0.646,-0.406,-0.435,-0.478,+0.968,-0.165,-0.197,-11.250,-9.875,-38.375,-15, 8, -10, -3, 27, 2, -1, 11,1.7384542324148724,1.2698508740732355
1503688018227,-0.645,-0.408,-0.431,-0.481,+1.055,-0.227,-0.203,-13.188,-17.062,-32.875,-14, 7, 1, -3, 7, 2, -3, 10,1.7388929321312043,1.2664543579351337
1503688019187,-0.678,-0.240,-0.438,-0.539,+0.812,-0.321,-0.419,+71.562,-9.312,+21.500,1, -2, -2, -2, -2, -3, 0, -27,1.6075103697481379,1.0098478058798572
1503688019209,-0.675,-0.230,-0.445,-0.541,+0.778,-0.332,-0.434,+70.625,-17.625,+18.438,1, 7, 3, 8, 2, -1, 1, 16,1.5890286253063863,1.0093363707879641
1503688019234,-0.672,-0.220,-0.451,-0.544,+0.705,-0.350,-0.429,+65.438,-22.500,+10.375,-9, 2, 1, 1, -31, -1, -3, -43,1.5707619024982418,1.0077123389080669
1503688019247,-0.669,-0.213,-0.456,-0.547,+0.733,-0.337,-0.429,+59.062,-11.625,+4.125,0, -11, -2, -3, -36, -5, -2, 34,1.5555298757840044,1.009012015078608
1503688019270,-0.665,-0.209,-0.463,-0.548,+0.754,-0.317,-0.380,+49.875,+5.562,+4.000,2, -4, 0, 0, -13, 1, 4, -2,1.5402455635407366,1.0186189617551376
1503688019291,-0.661,-0.207,-0.469,-0.548,+0.808,-0.342,-0.376,+41.938,+12.312,+3.562,6, 1, 0, -3, 25, -1, -4, 21,1.5267805426078607,1.0287231955796654
1503688019307,-0.658,-0.204,-0.473,-0.550,+0.785,-0.378,-0.417,+35.688,+0.062,-2.062,9, 2, 3, 0, 3, 1, -7, -35,1.51539834742483,1.0340656966045236
1503688019329,-0.655,-0.201,-0.475,-0.553,+0.798,-0.390,-0.452,+32.125,-9.938,-8.625,-9, -7, -8, -8, -4, -5, -2, -26,1.5040947508766913,1.0352840796990936
1503688019350,-0.653,-0.198,-0.476,-0.556,+0.798,-0.401,-0.421,+25.812,-13.000,-10.375,-10, -9, 2, -2, 51, 0, 4, -1,1.4957444787490208,1.0343993911824023
1503688019374,-0.651,-0.195,-0.477,-0.558,+0.774,-0.394,-0.379,+16.875,-12.562,-7.812,2, 25, 4, 1, 59, -5, 5, 12,1.4873258999496795,1.033038223301827
1503688019390,-0.650,-0.195,-0.477,-0.559,+0.804,-0.365,-0.429,+10.000,-4.938,-3.812,1, 3, 6, 1, 64, 4, -2, 64,1.4845123467870542,1.033353633471046
1503688019411,-0.649,-0.195,-0.477,-0.559,+0.816,-0.363,-0.426,+4.812,+2.375,-0.562,2, -1, -1, -4, -64, -2, -2, -28,1.4815790734793173,1.0331355662964175
1503688019427,-0.648,-0.196,-0.478,-0.559,+0.875,-0.347,-0.384,+0.688,+4.000,-1.562,3, 4, 1, -5, -106, 2, 3, 19,1.4796301906261677,1.03679162796783
1503688019449,-0.649,-0.197,-0.477,-0.560,+0.828,-0.353,-0.401,-3.500,-5.938,+0.750,6, 4, 6, -1, 9, 0, 2, -39,1.483590835397056,1.0365837441395442
1503688019471,-0.650,-0.197,-0.475,-0.560,+0.764,-0.361,-0.486,-7.438,-0.312,+3.688,-2, -12, -13, -11, -16, -2, -5, -34,1.4864403582837713,1.0319906032020227
1503688019487,-0.651,-0.198,-0.475,-0.558,+0.801,-0.363,-0.507,-5.812,+8.312,+9.812,1, -2, -4, 19, -8, 5, 3, 10,1.4900747730225372,1.0326154895573596
1503688019516,-0.652,-0.198,-0.475,-0.556,+0.841,-0.364,-0.480,-2.312,+7.438,+10.938,-2, -2, 0, 5, -5, -3, -6, 55,1.4927794181663907,1.031774171593286
1503688019530,-0.654,-0.198,-0.475,-0.555,+0.819,-0.364,-0.472,-1.750,+3.000,+15.375,-8, 3, 9, 3, 36, 8, 3, 6,1.4985403848335823,1.0316856508369208
1503688019547,-0.656,-0.197,-0.475,-0.552,+0.759,-0.374,-0.469,-4.500,+8.438,+19.375,1, 2, -4, -4, 5, -6, -2, -17,1.5031885721227731,1.0290501800113487
1503688019569,-0.658,-0.199,-0.477,-0.547,+0.773,-0.376,-0.417,-9.000,+25.062,+22.500,-2, -12, -2, -1, 11, -3, 2, -37,1.510552593269413,1.0346030463705562
1503688019590,-0.660,-0.203,-0.480,-0.541,+0.849,-0.389,-0.393,-12.125,+36.438,+27.000,-1, 9, 1, 1, -12, 0, -6, 0,1.519815238061172,1.0450829066927847
1503688019613,-0.662,-0.207,-0.482,-0.535,+0.893,-0.377,-0.437,-13.250,+36.812,+26.125,-5, -4, -5, -9, -3, -6, -12, 3,1.5291698744186246,1.0532407076430086
1503688019629,-0.665,-0.210,-0.484,-0.530,+0.856,-0.373,-0.455,-14.938,+28.375,+24.125,1, -2, -1, -1, -93, 3, 0, 21,1.5406902504946716,1.0607139318200312
1503688019650,-0.668,-0.213,-0.485,-0.524,+0.819,-0.417,-0.466,-17.625,+32.062,+26.125,0, -4, -7, -5, -128, -1, -2, -14,1.5522537492873372,1.0652983025953007
1503688019668,-0.670,-0.217,-0.486,-0.517,+0.897,-0.416,-0.372,-24.188,+33.625,+27.875,-8, -19, 0, 3, 1, 5, 0, -11,1.5619197595724217,1.0707516222629245
1503688019689,-0.674,-0.221,-0.487,-0.510,+0.910,-0.388,-0.329,-28.188,+26.688,+29.938,1, 2, 4, 0, -61, -5, 2, 8,1.5777019057429102,1.076764610108697
1503688019718,-0.678,-0.224,-0.486,-0.504,+0.783,-0.385,-0.407,-29.312,+25.625,+32.125,0, 22, 6, 1, 12, 0, 4, 13,1.5926759354861466,1.0769373143029282
1503688019727,-0.682,-0.229,-0.486,-0.496,+0.731,-0.400,-0.423,-34.250,+35.500,+26.875,15, 4, 1, -2, 112, -2, -4, -3,1.6098474789307775,1.0818099242833277
1503688019749,-0.686,-0.234,-0.484,-0.491,+0.869,-0.369,-0.392,-38.750,+26.375,+20.250,-7, -7, -7, 0, 26, -3, -4, -14,1.6270643818287285,1.083518219196876
1503688019771,-0.691,-0.238,-0.479,-0.488,+0.815,-0.362,-0.352,-45.562,+0.312,+12.875,-10, -23, -6, 0, -70, -2, -6, -38,1.6462825939567778,1.0778401039463732
1503688019787,-0.695,-0.241,-0.472,-0.486,+0.728,-0.391,-0.404,-49.562,-4.375,+3.750,-1, -21, -2, 2, 25, 3, 0, 120,1.6615848121472727,1.0663158317086123
1503688019809,-0.700,-0.246,-0.466,-0.483,+0.693,-0.370,-0.455,-52.938,+10.125,-0.688,-4, -2, -5, -3, -116, -4, 4, 10,1.6819160776923743,1.0605910351218364
1503688019831,-0.703,-0.252,-0.460,-0.480,+0.772,-0.361,-0.423,-52.312,+15.562,-6.062,-2, 10, 6, -5, 41, 0, -1, 1,1.6974158823763934,1.05641291343896
1503688019847,-0.706,-0.259,-0.453,-0.479,+0.845,-0.375,-0.407,-55.250,+2.688,-14.188,4, 16, 3, 8, 30, -3, -2, -83,1.713651579324381,1.0531042268730786
1503688019870,-0.709,-0.263,-0.444,-0.480,+0.814,-0.388,-0.436,-56.438,-13.188,-20.562,0, 6, 4, -5, 64, -3, 3, 85,1.726709912325029,1.0415974654818665
1503688019892,-0.713,-0.267,-0.435,-0.482,+0.757,-0.398,-0.457,-55.250,-17.312,-23.062,15, 19, 7, 3, -91, 2, 1, -89,1.7423345056477997,1.0313673866338962
1503688019907,-0.716,-0.270,-0.426,-0.483,+0.728,-0.381,-0.503,-52.188,-13.750,-25.625,0, 1, -4, -1, -3, 1, 0, -75,1.7543556053202585,1.0190731212005166
1503688019929,-0.718,-0.275,-0.417,-0.485,+0.752,-0.349,-0.486,-51.625,-7.312,-30.438,-2, -1, -2, -1, 101, -2, -3, -29,1.765215598561604,1.0109806048234031
1503688019951,-0.719,-0.280,-0.409,-0.487,+0.838,-0.332,-0.451,-48.938,-6.688,-29.688,-13, -1, 1, -1, -60, -1, -2, 30,1.773207708304192,1.0050390176990627
1503688019969,-0.721,-0.284,-0.401,-0.489,+0.869,-0.340,-0.453,-47.938,-17.625,-30.125,-8, -7, -7, -5, -64, -3, -6, -18,1.7830019525555587,0.9979567373893072
1503688019989,-0.722,-0.287,-0.392,-0.492,+0.828,-0.326,-0.487,-46.875,-23.125,-30.875,2, 0, 3, 3, -82, 1, 3, 21,1.78888137350185,0.9875704215865803
1503688020012,-0.724,-0.290,-0.384,-0.495,+0.792,-0.293,-0.527,-42.875,-20.438,-28.375,12, 27, 16, 4, -3, 3, 4, -93,1.7973414217336252,0.9797701424720393
1503688020034,-0.726,-0.292,-0.376,-0.497,+0.807,-0.300,-0.530,-40.312,-19.938,-27.688,-7, -3, -6, -5, -17, -2, -1, -29,1.8051206694893913,0.9699728539562554
1503688020049,-0.727,-0.295,-0.369,-0.499,+0.835,-0.314,-0.507,-38.500,-16.688,-25.125,3, 1, 0, 0, 25, -1, -2, 23,1.8110738808357003,0.963789668687144
1503688020072,-0.728,-0.297,-0.363,-0.500,+0.834,-0.289,-0.530,-34.688,-11.750,-21.188,-6, -3, 0, -4, -19, -4, 0, 17,1.8162541871872155,0.957340515249389
1503688020094,-0.729,-0.299,-0.357,-0.501,+0.821,-0.279,-0.542,-34.062,-12.438,-21.375,-1, -12, -3, 2, -38, -3, -2, 15,1.8214481653808594,0.9510452256698915
1503688020115,-0.730,-0.301,-0.351,-0.503,+0.835,-0.274,-0.564,-32.750,-13.062,-22.188,-9, -5, -1, -1, 34, 1, -3, -33,1.8262780369261877,0.9453218820520467
1503688020131,-0.731,-0.303,-0.346,-0.505,+0.868,-0.250,-0.577,-23.438,-9.938,-20.062,6, 7, -1, -1, 38, 2, 1, 55,1.8309493172598772,0.9414838583962132
1503688020156,-0.731,-0.303,-0.342,-0.507,+0.880,-0.237,-0.560,-15.250,-18.438,-18.438,-3, 1, -1, 3, 32, -4, -4, -6,1.8308182760560756,0.935346880989693
1503688020171,-0.732,-0.302,-0.338,-0.509,+0.788,-0.248,-0.581,-12.125,-23.188,-15.812,0, -2, -1, -7, -3, -3, 2, 17,1.8322854430287394,0.9277471576470748
1503688020191,-0.732,-0.300,-0.334,-0.512,+0.774,-0.243,-0.583,-10.875,-19.188,-17.750,6, -5, 0, 2, -12, 4, -1, -24,1.829750069318116,0.9183637598606743
1503688020207,-0.732,-0.300,-0.332,-0.514,+0.794,-0.251,-0.593,-7.812,-8.438,-16.438,-2, 3, 0, -2, -15, -3, 0, -34,1.829300571322742,0.9157687726493792
1503688020229,-0.731,-0.300,-0.331,-0.515,+0.828,-0.238,-0.580,-2.375,-2.625,-13.625,-1, -9, -5, 0, 7, 0, 0, -7,1.8264674774772032,0.9141024769232092
1503688020251,-0.731,-0.299,-0.331,-0.517,+0.823,-0.241,-0.589,+3.062,-8.500,-12.062,-1, 2, 1, -2, 2, 3, -1, 27,1.8247106989887896,0.9130535112634808
1503688020267,-0.730,-0.297,-0.329,-0.520,+0.779,-0.217,-0.607,+5.875,-17.125,-14.938,-11, -7, -3, 1, 3, 2, 0, -25,1.8192832186443708,0.9067758845440413
1503688020289,-0.730,-0.294,-0.328,-0.523,+0.779,-0.225,-0.574,+8.438,-22.062,-15.250,3, 0, -1, -3, 1, -2, 0, 7,1.8153429509608134,0.9007327565228188
1503688020312,-0.729,-0.291,-0.328,-0.526,+0.787,-0.240,-0.562,+12.812,-12.000,-10.688,1, 4, 5, 4, 7, -2, -3, -9,1.8086806623374876,0.8960531653609073
1503688020327,-0.729,-0.289,-0.330,-0.526,+0.775,-0.262,-0.592,+14.938,-4.062,+0.500,-5, 8, -3, -3, -3, -1, -4, 3,1.806428666717937,0.8957853648007822
1503688020349,-0.728,-0.286,-0.332,-0.526,+0.755,-0.254,-0.590,+14.250,-3.438,+1.750,-5, 0, -1, -1, -1, 1, 3, 15,1.8005732746552752,0.893340936608424
1503688020372,-0.727,-0.285,-0.334,-0.528,+0.791,-0.208,-0.555,+15.188,-2.688,-5.750,0, -5, -1, -3, 1, -1, -1, -8,1.796018811858171,0.8954493357885351
1503688020387,-0.725,-0.284,-0.336,-0.530,+0.812,-0.191,-0.516,+18.438,+1.250,-11.812,5, 6, 6, 5, -4, -2, 0, 15,1.7888429258368133,0.8972252379203802
1503688020409,-0.722,-0.285,-0.340,-0.531,+0.809,-0.188,-0.529,+20.250,+13.750,-12.312,-4, -1, -4, -12, -5, -2, -1, 11,1.781076175117498,0.9053943831519279
1503688020431,-0.719,-0.287,-0.344,-0.532,+0.828,-0.209,-0.569,+20.625,+22.000,-9.500,7, -3, -3, -3, 5, -1, 3, 10,1.7743438499350495,0.9154452223267284
1503688020447,-0.715,-0.288,-0.348,-0.533,+0.850,-0.207,-0.587,+24.188,+22.625,-10.375,-5, 0, 3, 2, 0, -1, -6, -15,1.7640035910856646,0.9233840459690424
1503688020471,-0.712,-0.288,-0.353,-0.535,+0.915,-0.235,-0.500,+28.750,+7.312,-13.500,1, 2, 4, 0, -3, -6, -3, -8,1.7549499349175788,0.9321647567818928
1503688020491,-0.707,-0.287,-0.356,-0.539,+0.914,-0.274,-0.435,+28.375,-2.062,-23.312,4, 2, -5, -2, 3, -3, 0, 36,1.7393199253259526,0.9357779725500467
1503688020507,-0.703,-0.287,-0.360,-0.543,+0.893,-0.261,-0.448,+24.688,+3.062,-26.938,-6, -4, -2, -1, -4, 3, -7, 28,1.7273807354462032,0.9434365310134578
1503688020529,-0.699,-0.288,-0.362,-0.545,+0.876,-0.230,-0.525,+18.438,+9.062,-21.750,5, -4, -5, 3, 6, 1, 5, -40,1.7171927457925418,0.9483967467619611
1503688020551,-0.696,-0.289,-0.365,-0.547,+0.848,-0.184,-0.529,+14.188,+15.375,-14.812,-1, -3, 0, -12, -10, -1, -2, -77,1.709628847171067,0.9555723050173007
1503688020567,-0.693,-0.292,-0.367,-0.548,+0.917,-0.145,-0.515,+16.562,+16.312,-11.750,-8, 0, -1, -9, 1, -5, 2, 27,1.7045367037497288,0.9640459553377418
1503688020589,-0.689,-0.293,-0.369,-0.550,+0.982,-0.133,-0.459,+15.625,+4.062,-14.812,12, -14, -3, 0, -1, 1, -4, 6,1.6945177776194067,0.9690603107286355
1503688020611,-0.687,-0.293,-0.370,-0.553,+0.938,-0.164,-0.447,+12.500,-10.625,-12.750,6, 9, 3, 4, 2, 5, 1, 24,1.6886492711518306,0.9715364718431901
1503688020627,-0.686,-0.293,-0.370,-0.554,+0.875,-0.154,-0.463,+5.062,-5.875,-7.250,-1, 4, 5, 4, -3, 0, 0, -1,1.6858445054598845,0.9716248140150759
1503688020649,-0.686,-0.294,-0.370,-0.554,+0.848,-0.133,-0.504,+0.688,+3.438,-1.750,-4, 0, -2, 2, 3, -1, 2, -30,1.6869430665854437,0.9733969366987748
1503688020672,-0.685,-0.296,-0.370,-0.554,+0.865,-0.109,-0.521,-1.375,+8.312,-3.062,-3, 3, 0, 4, 3, 3, -4, 5,1.686513924058174,0.9766095645622006
1503688020687,-0.684,-0.296,-0.369,-0.556,+0.907,-0.130,-0.511,+3.062,-3.125,-9.500,3, 7, -10, -7, -4, -2, -1, -55,1.6836323187768887,0.9752386519094033
1503688020709,-0.683,-0.296,-0.368,-0.558,+0.903,-0.194,-0.479,-0.438,-11.125,-12.188,-4, 0, -1, 5, -3, -5, -2, 16,1.680759850735938,0.973868324051643
1503688020732,-0.683,-0.296,-0.367,-0.558,+0.805,-0.190,-0.510,-5.312,-3.000,-5.500,2, -3, 2, 2, 3, 0, 4, 20,1.6808257771802315,0.9719978142449994
1503688020747,-0.683,-0.298,-0.366,-0.558,+0.781,-0.159,-0.527,-9.250,+7.562,-3.938,-1, 2, 4, -14, -7, -6, -2, 46,1.6831224775041858,0.9736836649240738
1503688020770,-0.682,-0.301,-0.365,-0.557,+0.891,-0.152,-0.504,-9.688,+10.250,-6.500,-2, -1, 3, 6, 8, -3, -5, -15,1.6840941439227044,0.976411748951548
1503688020792,-0.681,-0.303,-0.365,-0.558,+0.925,-0.166,-0.490,-6.625,+2.000,-11.938,2, -7, -5, -4, -6, 4, 2, -13,1.6835866689518264,0.9800566068373984
1503688020807,-0.680,-0.305,-0.364,-0.559,+0.847,-0.186,-0.494,-4.500,+2.375,-12.500,11, 12, -1, 6, -1, -1, 1, -16,1.6831706018828867,0.9818479370222561
1503688020829,-0.680,-0.306,-0.364,-0.559,+0.848,-0.176,-0.511,-5.500,+5.062,-5.062,-6, -15, -5, 0, 3, 2, 0, 11,1.6843154207102133,0.9836397714160902
1503688020852,-0.679,-0.308,-0.364,-0.558,+0.862,-0.145,-0.492,-4.812,+11.750,-2.125,-6, -6, -4, -4, -2, 0, -4, 7,1.684168938969625,0.9864794280905901
1503688020868,-0.678,-0.310,-0.364,-0.558,+0.903,-0.159,-0.511,-1.938,+4.750,-8.062,-6, 0, 2, 8, 1, -3, 0, -62,1.6838868245218555,0.9897337088945315
1503688020896,-0.677,-0.309,-0.363,-0.560,+0.879,-0.161,-0.498,+0.125,-9.250,-14.500,-3, -1, 3, 6, 8, -5, 1, 16,1.6798901111267104,0.9865493445168876
1503688020912,-0.677,-0.308,-0.361,-0.563,+0.813,-0.187,-0.510,+0.875,-15.688,-18.062,-4, -4, -3, -9, -4, 1, 0, 17,1.6784202700553557,0.9822743685041107
1503688020934,-0.676,-0.308,-0.359,-0.565,+0.766,-0.195,-0.522,-0.750,-4.375,-13.125,-21, -3, 2, 0, 2, -2, -4, 38,1.675666501204218,0.9790533429954538
1503688020950,-0.675,-0.308,-0.359,-0.565,+0.812,-0.186,-0.507,-0.750,+4.000,-11.875,-6, -4, -5, -3, -6, 2, 6, -25,1.6730692202344994,0.9787062586531458
1503688020974,-0.674,-0.309,-0.359,-0.567,+0.880,-0.162,-0.504,-0.125,-0.938,-14.188,1, 9, 0, -3, 3, -3, -3, -79,1.6713646613536666,0.980960211285021
1503688020993,-0.673,-0.308,-0.357,-0.570,+0.845,-0.155,-0.509,+3.000,-15.188,-19.312,7, -1, 6, 3, -5, 3, 2, 19,1.667327406063008,0.97635367928262
1503688021009,-0.672,-0.307,-0.355,-0.573,+0.824,-0.155,-0.498,+3.812,-17.188,-21.188,-1, -4, -6, -4, -8, -1, -3, 50,1.6633031964677403,0.9717576619367235
1503688021031,-0.670,-0.307,-0.354,-0.575,+0.794,-0.160,-0.529,+1.625,-3.375,-15.188,6, 9, 13, 2, 2, -1, -3, 31,1.657933996537323,0.9700329669705242
1503688021053,-0.670,-0.308,-0.355,-0.575,+0.807,-0.159,-0.528,-0.375,+8.500,-6.750,5, -6, -10, -9, -1, -7, -4, -24,1.6590518806822387,0.9736509873950971
1503688021068,-0.669,-0.309,-0.355,-0.575,+0.917,-0.132,-0.497,-3.188,+5.188,-4.000,10, -2, -2, -4, -2, -2, 0, -8,1.6576416780782344,0.975087924587841
1503688021091,-0.668,-0.310,-0.354,-0.576,+0.926,-0.108,-0.494,+0.312,-6.750,-6.812,19, 11, 13, 2, -2, 0, 3, 7,1.6561763534209186,0.975093832966845
1503688021113,-0.668,-0.308,-0.352,-0.578,+0.876,-0.129,-0.541,+2.812,-19.562,-9.125,1, 2, -1, 0, -1, -2, -2, -2,1.6536925512175207,0.968663325465004
1503688021128,-0.669,-0.305,-0.350,-0.580,+0.833,-0.144,-0.528,-1.062,-20.812,-4.250,-20, -11, 4, 8, 8, 1, -1, 1,1.6526431088820108,0.9608234420130668
1503688021151,-0.670,-0.305,-0.349,-0.580,+0.788,-0.108,-0.531,-1.312,-5.000,-2.000,5, 9, -4, -5, 0, 2, -1, 4,1.6552839928258534,0.9593530045433575
1503688021175,-0.669,-0.306,-0.349,-0.581,+0.842,-0.096,-0.529,+0.062,+2.438,-7.562,-7, 0, 0, 4, -8, -1, -1, -9,1.6537506535062365,0.961183145006753
1503688021188,-0.668,-0.307,-0.348,-0.583,+0.925,-0.104,-0.514,-2.312,-7.000,-11.188,-19, -13, -8, -7, 0, 2, -1, -12,1.6521689989278787,0.9615937148978381
1503688021211,-0.667,-0.306,-0.346,-0.585,+0.903,-0.095,-0.525,+0.875,-11.500,-13.312,7, -3, -1, -2, -3, 1, -2, 17,1.6483010176414947,0.9566288107926529
1503688021233,-0.666,-0.305,-0.344,-0.587,+0.846,-0.106,-0.545,+1.375,-13.562,-11.938,-3, -9, -1, 5, 4, 0, -1, -8,1.6444354707506366,0.9516726756269622
1503688021248,-0.666,-0.305,-0.343,-0.588,+0.831,-0.082,-0.555,-1.938,-8.312,-7.562,7, -4, -4, -2, 3, 5, 0, 25,1.644382091855915,0.950263684949345
1503688021271,-0.666,-0.305,-0.342,-0.589,+0.851,-0.093,-0.548,-0.812,-3.312,-7.812,-4, 9, 4, 2, 6, -6, -1, 18,1.6443287901513615,0.9488567565718053
1503688021293,-0.665,-0.306,-0.341,-0.590,+0.863,-0.119,-0.532,-0.812,-3.312,-12.625,1, -3, -6, -1, -10, 0, -2, -21,1.6428703583533455,0.9488702823544439
1503688021309,-0.664,-0.306,-0.340,-0.592,+0.889,-0.131,-0.522,-1.875,-7.375,-12.688,-20, 2, -5, -1, 1, 0, -4, -26,1.6401479224274194,0.9475065250321509
1503688021330,-0.663,-0.306,-0.339,-0.593,+0.890,-0.112,-0.536,-3.312,-8.250,-11.938,1, 7, 7, 0, -2, -3, 2, -8,1.6375223726520631,0.9457445064193535
1503688021353,-0.663,-0.307,-0.337,-0.594,+0.842,-0.080,-0.555,-4.875,-7.312,-8.875,5, -1, 0, -1, -5, -2, 0, 7,1.6386975948133717,0.9443236053771408
1503688021368,-0.662,-0.307,-0.336,-0.595,+0.828,-0.075,-0.560,-2.938,-1.625,-7.875,0, 1, 1, 1, 2, -5, 1, -17,1.6360761844541072,0.942564699972948
1503688021391,-0.662,-0.308,-0.335,-0.596,+0.833,-0.069,-0.567,-2.875,+2.562,-7.812,-10, -7, -3, 2, 6, -6, -4, 2,1.6372162058737214,0.9429476392067093
1503688021413,-0.661,-0.309,-0.334,-0.597,+0.873,-0.042,-0.555,-2.688,-0.625,-7.375,-8, 0, -2, -3, -5, 3, -4, 1,1.6357920388226561,0.9429704371416516
1503688021428,-0.661,-0.309,-0.333,-0.597,+0.885,-0.079,-0.536,-2.750,-6.188,-1.688,14, 7, 9, 4, -2, -3, -1, 10,1.6358322931848408,0.9411847177999414
1503688021451,-0.662,-0.309,-0.332,-0.597,+0.866,-0.079,-0.550,-6.625,-8.062,-1.562,-9, -2, -4, -2, 0, 3, -3, -15,1.638440781808434,0.9397672399538329
1503688021473,-0.662,-0.309,-0.330,-0.598,+0.817,-0.029,-0.564,-3.000,-11.000,-3.250,3, -5, -2, 0, 2, -2, 2, -12,1.63843482155947,0.9366028164038802
1503688021488,-0.663,-0.308,-0.328,-0.599,+0.806,-0.055,-0.562,-2.188,-10.250,-3.375,-7, -1, -2, 8, -1, -7, -1, 6,1.6398067890623071,0.9320319740603162
1503688021511,-0.663,-0.308,-0.327,-0.599,+0.813,-0.069,-0.566,-5.000,-5.500,-4.500,12, -1, -1, -6, -13, 6, -2, 15,1.639849347286827,0.9302624279999019
1503688022856,-0.690,-0.212,-0.424,-0.547,+0.755,-0.357,-0.541,+36.500,-2.875,+14.438,-1, 0, -3, 0, -12, 4, 5, 40,1.615797359773878,0.941620317117911
1503688022869,-0.689,-0.207,-0.428,-0.547,+0.780,-0.367,-0.515,+37.688,-4.500,+13.875,0, -11, 0, -2, 1, -2, -2, -1,1.6085244794084725,0.9420434440820089
1503688022890,-0.688,-0.201,-0.432,-0.548,+0.775,-0.395,-0.531,+38.438,-9.562,+12.188,-6, -4, 0, -6, -2, -1, 0, -9,1.6004196994573534,0.9415985545387904
1503688022913,-0.687,-0.195,-0.436,-0.549,+0.751,-0.396,-0.520,+37.875,-12.250,+11.125,7, -1, -3, 4, 1, 4, 2, 6,1.5924164270377648,0.9413573750285529
1503688022929,-0.685,-0.190,-0.439,-0.549,+0.753,-0.396,-0.509,+38.438,-9.875,+11.188,-6, -2, -3, 2, 5, 0, 2, -22,1.582385121865492,0.9398118551646824
1503688022950,-0.684,-0.184,-0.443,-0.550,+0.755,-0.404,-0.514,+38.500,-9.500,+11.438,-10, -5, -5, -4, 20, 2, -1, 7,1.574536652624992,0.939943879493586
1503688022973,-0.682,-0.178,-0.447,-0.551,+0.736,-0.408,-0.522,+39.000,-11.000,+10.250,2, -11, -4, -6, -67, -4, 3, 11,1.5637864185134713,0.9400569419472766
1503688022994,-0.681,-0.172,-0.450,-0.552,+0.737,-0.426,-0.500,+38.125,-10.688,+8.812,4, 0, -5, -3, -39, -2, -5, 28,1.5561165434424045,0.9382980239310306
1503688023017,-0.679,-0.167,-0.454,-0.553,+0.736,-0.428,-0.485,+38.312,-10.500,+7.500,3, 1, 3, 4, 43, 0, -4, -31,1.5462723781210777,0.9403208731828667
1503688023033,-0.677,-0.162,-0.457,-0.554,+0.754,-0.440,-0.488,+38.500,-9.938,+6.250,-5, 3, -6, -2, 32, -2, 2, -3,1.536458293173164,0.940173552563686
1503688023051,-0.675,-0.157,-0.461,-0.555,+0.750,-0.458,-0.481,+37.000,-11.625,+6.188,0, -6, -3, 3, -20, -2, -1, 4,1.526695383129621,0.9425770800522476
1503688023070,-0.673,-0.152,-0.464,-0.556,+0.738,-0.467,-0.471,+34.750,-8.438,+5.562,4, -2, 2, -4, 28, -6, -2, -45,1.5169555906591163,0.9427662377103251
1503688023093,-0.671,-0.148,-0.468,-0.556,+0.742,-0.462,-0.469,+31.625,-3.875,+5.625,-13, 4, 3, 4, -6, 2, -2, 98,1.5079074448661076,0.9463694996945794
1503688023108,-0.669,-0.145,-0.471,-0.556,+0.764,-0.460,-0.460,+28.375,-1.375,+5.500,-4, -8, -1, 1, -2, -5, -2, -61,1.4995635992185894,0.9490899599387257
1503688023130,-0.668,-0.143,-0.474,-0.557,+0.777,-0.461,-0.442,+23.688,-3.562,+5.438,1, 10, 7, -1, 0, -1, 6, -23,1.4951731826206507,0.9541301529397014
1503688023153,-0.667,-0.140,-0.476,-0.556,+0.741,-0.462,-0.453,+18.312,-1.750,+7.375,3, -3, -2, -7, 13, -2, -3, 21,1.4898044024835144,0.9540993234759144
1503688023168,-0.667,-0.139,-0.478,-0.555,+0.744,-0.445,-0.459,+12.750,+6.812,+10.500,4, 2, -3, 4, -10, 0, -4, 33,1.4890098949481718,0.9570904230653909
1503688023190,-0.667,-0.140,-0.480,-0.553,+0.766,-0.430,-0.466,+8.375,+13.812,+13.250,-7, -1, -4, 3, -13, -3, -3, -15,1.4895379264726252,0.9622696020506153
1503688023213,-0.667,-0.140,-0.482,-0.551,+0.771,-0.452,-0.446,+6.062,+12.000,+14.438,3, -6, -3, -2, -26, -5, -1, 38,1.4893419056308994,0.966073498611689
1503688023229,-0.668,-0.140,-0.484,-0.548,+0.740,-0.471,-0.449,+3.188,+8.750,+15.125,0, -2, 3, -2, 32, 1, 4, -55,1.4921801995908546,0.9694522050722436
1503688023253,-0.670,-0.140,-0.485,-0.545,+0.701,-0.498,-0.463,-0.875,+15.312,+18.625,1, 1, 2, -2, -17, -2, -4, -8,1.498184343698702,0.9704758877613124
1503688023273,-0.672,-0.142,-0.487,-0.540,+0.687,-0.486,-0.451,-6.875,+27.562,+20.312,-5, 5, -1, 3, -19, 4, 3, 35,1.5054962990448473,0.9756213566102072
1503688023289,-0.674,-0.145,-0.489,-0.535,+0.790,-0.453,-0.450,-10.312,+31.688,+21.188,-2, 3, 4, 3, 12, -3, 0, 7,1.5136181957243686,0.9822339390538406
1503688023311,-0.676,-0.148,-0.490,-0.531,+0.812,-0.454,-0.447,-10.375,+20.812,+22.625,3, 13, 0, -10, -19, -7, -11, -7,1.5218871016163862,0.9869614738913954
1503688023333,-0.678,-0.148,-0.490,-0.527,+0.720,-0.475,-0.453,-10.688,+12.812,+22.500,5, 4, 1, 1, 7, 2, 0, 19,1.5279865598633098,0.9848301781814656
1503688023348,-0.681,-0.150,-0.491,-0.522,+0.691,-0.499,-0.428,-14.188,+22.188,+21.500,2, -3, -9, -8, 7, -5, -2, 1,1.5387914689026494,0.9877329865526217
1503688023370,-0.684,-0.154,-0.491,-0.517,+0.775,-0.491,-0.454,-18.625,+27.875,+21.562,-5, -3, 10, 3, 6, 1, 6, -7,1.551164237665808,0.9910347323236562
1503688023393,-0.687,-0.157,-0.490,-0.514,+0.803,-0.461,-0.423,-23.000,+15.938,+17.312,5, 1, 6, 3, -2, 0, -1, 0,1.5629322505028254,0.9916244687661545
1503688023409,-0.690,-0.159,-0.488,-0.511,+0.761,-0.467,-0.409,-25.625,+3.312,+15.000,-6, -4, -6, 0, 4, 2, 0, -2,1.5740065849087024,0.9882316772603368
1503688023430,-0.693,-0.161,-0.485,-0.509,+0.685,-0.486,-0.412,-30.000,+1.375,+11.312,-6, 7, 0, 5, 2, -2, 0, 5,1.5851168076916569,0.9829959096913854
1503688023462,-0.697,-0.164,-0.481,-0.506,+0.692,-0.470,-0.441,-34.062,+11.812,+7.625,-6, -19, -1, -4, 93, -7, -5, 1,1.6002271242868542,0.9764715652139055
1503688023475,-0.699,-0.169,-0.478,-0.504,+0.766,-0.441,-0.438,-37.250,+11.000,+2.938,7, 2, -1, 9, -24, -1, 0, 1,1.6104035681220945,0.9758976514721222
1503688023493,-0.702,-0.173,-0.473,-0.504,+0.765,-0.459,-0.418,-38.875,-7.188,-3.625,-2, -4, -6, -6, -34, -3, 0, 4,1.6229323916515763,0.9704867345217237
1503688023513,-0.706,-0.175,-0.466,-0.505,+0.671,-0.492,-0.417,-42.688,-16.625,-9.000,7, 9, -1, 0, 27, 2, 2, 1,1.6370364732510487,0.9581971153984401
1503688023529,-0.709,-0.179,-0.460,-0.504,+0.605,-0.501,-0.466,-48.750,-0.562,-9.000,-7, -10, -6, -4, 28, 1, -1, 0,1.6496045563745194,0.9503470017405545
1503688023554,-0.712,-0.185,-0.454,-0.503,+0.674,-0.465,-0.484,-51.250,+14.312,-11.062,2, 7, 3, -2, -52, 4, -1, -12,1.663644584371073,0.9460421344090609
1503688023573,-0.714,-0.193,-0.448,-0.502,+0.788,-0.430,-0.455,-51.938,+11.500,-15.312,1, 1, -9, -4, 32, 0, 1, 15,1.6761495708477627,0.9451329303635311
1503688023590,-0.716,-0.198,-0.441,-0.503,+0.775,-0.453,-0.448,-50.688,-7.562,-21.750,0, -6, -2, 4, 32, -2, 0, -3,1.6861786279898534,0.9386171937468654
1503688023611,-0.718,-0.202,-0.433,-0.505,+0.695,-0.485,-0.464,-53.500,-14.250,-28.188,6, 0, 6, -7, -79, -2, 2, 2,1.6953066494217568,0.9291785379111577
1503688023633,-0.720,-0.208,-0.425,-0.508,+0.675,-0.450,-0.523,-53.562,-4.562,-32.938,-15, -2, -1, 0, 38, -2, -4, -60,1.7057470258514793,0.9240372251788848
1503688023649,-0.721,-0.215,-0.418,-0.510,+0.746,-0.396,-0.557,-50.188,+6.250,-35.500,2, -6, -4, -3, -60, -4, -7, -20,1.7141867457939546,0.9222652444004394
1503688023672,-0.721,-0.222,-0.411,-0.512,+0.814,-0.379,-0.512,-48.062,+0.938,-31.875,10, 20, 7, 7, 8, 2, 2, 8,1.7198262599906993,0.9205503417457532
1503688023693,-0.722,-0.228,-0.404,-0.514,+0.781,-0.391,-0.501,-46.562,-6.312,-32.188,-1, -1, 4, 0, -96, -3, 1, -10,1.7276677974200312,0.917743934051954
1503688023709,-0.722,-0.233,-0.396,-0.517,+0.746,-0.378,-0.529,-46.188,-9.250,-36.875,-4, -1, 0, -1, 9, 0, 0, -15,1.7317258802898745,0.9117333047811307
1503688023731,-0.722,-0.238,-0.390,-0.520,+0.762,-0.350,-0.580,-42.625,-0.688,-36.938,-5, -3, -1, 5, -47, 1, -2, 1,1.7357053495384904,0.9099653373338968
1503688023756,-0.722,-0.244,-0.384,-0.522,+0.803,-0.341,-0.579,-36.875,+5.812,-32.562,1, 4, -2, -2, 100, -1, 2, -80,1.740882470542281,0.9096134674698032
1503688023769,-0.721,-0.249,-0.379,-0.523,+0.834,-0.351,-0.550,-34.812,+1.375,-30.500,-6, -9, 2, -2, -52, 4, 1, 32,1.7426783006974769,0.9088374441813125
1503688023791,-0.721,-0.254,-0.375,-0.525,+0.807,-0.353,-0.540,-33.375,-0.188,-29.812,3, 3, 0, 3, -66, -3, 0, -6,1.7470026070140134,0.9109077692959139
1503688023813,-0.720,-0.259,-0.370,-0.527,+0.801,-0.309,-0.584,-29.312,+4.000,-30.938,-3, -2, 2, -5, -31, -3, -1, -17,1.7487514904555945,0.9108646191648968
1503688023829,-0.719,-0.263,-0.366,-0.529,+0.827,-0.299,-0.577,-27.812,+0.312,-28.125,-3, 0, -4, -7, 0, -1, -3, 4,1.7495809361681336,0.9110391634165047
1503688023851,-0.718,-0.267,-0.362,-0.531,+0.796,-0.287,-0.539,-25.812,+2.875,-24.500,0, 0, 4, 0, 14, -2, 0, -17,1.7504875994700952,0.9112864601909919
1503688023873,-0.717,-0.271,-0.360,-0.531,+0.756,-0.295,-0.533,-24.000,+10.812,-23.812,-4, -7, -1, 3, -4, -2, -1, 0,1.7518006263509436,0.9143743197460007
1503688023896,-0.716,-0.276,-0.358,-0.532,+0.776,-0.301,-0.556,-23.750,+18.438,-24.250,5, -2, -7, -3, -7, 0, 2, 28,1.7538969922278125,0.9197422760311359
1503688023911,-0.714,-0.283,-0.357,-0.532,+0.825,-0.267,-0.566,-20.688,+27.125,-23.500,-7, 2, -3, -4, -8, -4, -5, 1,1.755582102318041,0.929793853067114
1503688023933,-0.712,-0.288,-0.357,-0.532,+0.883,-0.259,-0.561,-15.688,+20.938,-22.000,-3, -1, 5, 0, 0, 0, 1, 10,1.7553177212685678,0.9381215831282053
1503688023949,-0.711,-0.291,-0.355,-0.533,+0.869,-0.265,-0.524,-14.062,+7.938,-21.688,-2, 13, -1, 1, -3, 5, -2, 6,1.7556970441414732,0.9400056272680548
1503688023971,-0.709,-0.294,-0.354,-0.534,+0.843,-0.277,-0.503,-15.250,+4.500,-21.188,6, -6, 0, -4, -14, 0, -1, 6,1.7533691562373455,0.9433668573016086
1503688024001,-0.708,-0.298,-0.353,-0.534,+0.790,-0.267,-0.508,-14.625,+12.875,-20.438,-4, -3, -5, 0, 6, 2, 0, -6,1.7550558619080958,0.9484947490025692
1503688024009,-0.706,-0.302,-0.353,-0.535,+0.823,-0.216,-0.513,-12.188,+19.438,-18.500,12, 1, -1, -4, 2, 0, -3, 15,1.7538110238535942,0.9555111434561739
1503688024032,-0.704,-0.306,-0.353,-0.534,+0.881,-0.220,-0.505,-9.625,+18.625,-16.375,-1, -7, -1, 4, 3, -2, 2, -6,1.7531696331480418,0.9617225152155185
1503688024057,-0.702,-0.310,-0.354,-0.534,+0.901,-0.245,-0.483,-8.812,+18.500,-15.938,2, 4, 1, 0, 8, 2, -2, -14,1.752234286791408,0.9701673359120829
1503688024069,-0.700,-0.314,-0.354,-0.534,+0.891,-0.216,-0.499,-7.625,+18.125,-16.438,-1, -4, -1, 0, -2, -2, 0, 10,1.7514923964225397,0.9768388291798225
1503688024091,-0.699,-0.317,-0.354,-0.534,+0.866,-0.199,-0.497,-7.188,+14.812,-14.938,-4, -5, 3, -3, -4, 0, 0, -1,1.7522846884923546,0.9820370868126388
1503688024113,-0.697,-0.320,-0.355,-0.535,+0.859,-0.201,-0.511,-6.375,+15.562,-13.625,-11, -4, 0, -1, -1, -6, -3, 17,1.7501630200606162,0.9890813603938087
1503688024129,-0.695,-0.324,-0.355,-0.534,+0.875,-0.188,-0.516,-6.625,+19.438,-13.062,-3, 1, 0, -2, 4, 0, -3, -12,1.7498733477038342,0.9954192413009858
1503688024151,-0.694,-0.327,-0.356,-0.534,+0.875,-0.177,-0.486,-5.250,+20.250,-11.500,-2, -3, -4, 1, 2, 2, -3, -10,1.7506857846938164,1.0024565541175186
1503688024173,-0.692,-0.331,-0.357,-0.533,+0.890,-0.165,-0.467,-6.750,+21.688,-10.125,-1, -2, 2, 2, 4, 2, 1, 7,1.7504093083157861,1.0106433510925807
1503688024190,-0.690,-0.335,-0.358,-0.533,+0.920,-0.146,-0.465,-6.750,+21.062,-10.750,-1, -11, -3, 2, -10, 3, 0, 10,1.7499595616893795,1.01924303129211
1503688024211,-0.688,-0.339,-0.358,-0.532,+0.895,-0.148,-0.479,-5.938,+21.750,-12.438,3, 2, 3, -1, -2, -5, -2, 20,1.7499562159354136,1.0257004553290936
1503688024233,-0.686,-0.342,-0.359,-0.532,+0.904,-0.131,-0.477,-3.312,+16.750,-11.375,2, 1, -3, -4, -1, -4, -1, 21,1.7484296737411937,1.0324612632063126
1503688024249,-0.685,-0.344,-0.359,-0.533,+0.919,-0.137,-0.477,-1.375,+10.688,-12.938,3, 2, 2, -2, -2, -4, 3, -26,1.7481216022376656,1.0362683334687233
1503688024271,-0.683,-0.347,-0.359,-0.534,+0.907,-0.131,-0.459,-2.312,+9.375,-13.250,-3, -4, -6, -3, 0, 4, -4, -6,1.7465620465485974,1.0416245455997188
1503688024293,-0.682,-0.348,-0.359,-0.534,+0.894,-0.115,-0.456,-1.250,+9.062,-9.875,4, 4, -3, 0, -6, -3, 4, 22,1.745295438824225,1.0431732736843897
1503688024316,-0.680,-0.350,-0.359,-0.534,+0.876,-0.107,-0.453,-1.625,+10.438,-8.375,-2, 6, 3, 2, 2, 0, -1, -23,1.742781637798243,1.0462762628648588
1503688024331,-0.679,-0.352,-0.359,-0.534,+0.877,-0.102,-0.445,-1.875,+11.250,-8.625,-1, 3, 1, -2, -1, -3, -1, -12,1.7428075236835079,1.0497398074604278
1503688024353,-0.678,-0.355,-0.361,-0.534,+0.893,-0.103,-0.443,+0.500,+15.562,-5.312,-10, -4, -4, 0, 6, -1, -4, 7,1.7438891348332006,1.0587039641857277
1503688024369,-0.676,-0.357,-0.362,-0.533,+0.918,-0.099,-0.456,+0.688,+18.375,-0.750,7, 0, -3, 2, -1, 2, 0, -16,1.7415736072628922,1.0632730796047016
1503688024391,-0.676,-0.358,-0.363,-0.532,+0.937,-0.104,-0.447,+0.438,+12.500,+0.688,3, -17, -7, -6, -5, -5, 2, -5,1.7429764526191178,1.0666328562529848
1503688024413,-0.675,-0.360,-0.364,-0.532,+0.932,-0.100,-0.431,+0.125,+10.250,-0.438,2, 2, -5, -2, 2, -2, -3, 7,1.7429539920133807,1.0719221153804543
1503688024429,-0.674,-0.361,-0.365,-0.531,+0.935,-0.104,-0.423,+0.625,+2.750,-0.875,2, 4, 4, 3, -2, -1, -3, 2,1.7418746940425982,1.0749471819630947
1503688024452,-0.674,-0.360,-0.365,-0.531,+0.900,-0.112,-0.431,+1.062,-0.625,+1.688,9, -1, -1, -4, 9, 2, 1, -4,1.740568701240949,1.0730249433611359
1503688024474,-0.675,-0.360,-0.365,-0.531,+0.882,-0.123,-0.437,-1.062,+0.000,+3.375,-4, -1, -1, -6, -3, 3, -1, -9,1.7430625276727627,1.0733707606161105
1503688024491,-0.675,-0.361,-0.365,-0.530,+0.880,-0.103,-0.429,-1.250,+6.312,+1.875,-9, 0, 0, 5, -4, -3, 2, -1,1.7445986712403716,1.0749433526013645
1503688024512,-0.674,-0.362,-0.366,-0.529,+0.896,-0.096,-0.448,-0.188,+11.500,+2.312,0, 0, 0, -1, 3, 0, 0, -9,1.7435228145348982,1.077974973071389
1503688024534,-0.674,-0.363,-0.367,-0.528,+0.921,-0.097,-0.443,+0.062,+9.688,+2.188,-3, -6, 0, 1, 5, -3, -2, 31,1.7449419716069146,1.0813569458692591
1503688024549,-0.674,-0.364,-0.367,-0.528,+0.920,-0.113,-0.424,+0.062,+3.875,+1.438,-6, -2, -5, 0, -4, -3, -1, -27,1.7462544355721359,1.0832854994711119
1503688024572,-0.674,-0.364,-0.368,-0.527,+0.925,-0.107,-0.414,-0.062,+4.000,+0.500,5, 1, -1, -3, 0, 5, 1, -22,1.746363362307313,1.0847434435525822
1503688024595,-0.673,-0.365,-0.368,-0.527,+0.913,-0.109,-0.411,+1.000,+4.938,-1.000,3, 0, -1, 0, 0, -4, 0, 33,1.7451937719772341,1.0863316178930948
1503688024609,-0.673,-0.365,-0.369,-0.527,+0.896,-0.105,-0.408,-0.312,+1.062,+1.000,-1, 0, -9, -2, -6, -1, -2, 16,1.7450663113836722,1.0881381980172853
1503688024693,-0.674,-0.365,-0.369,-0.526,+0.889,-0.117,-0.408,-1.438,+0.938,+1.875,-12, 1, -3, -2, -1, 4, 0, -2,1.7477869585494517,1.0881344615034259
1503688024694,-0.672,-0.368,-0.370,-0.525,+0.909,-0.087,-0.417,-0.438,+11.375,-1.688,5, -4, 0, 1, -2, -2, -2, 2,1.7468980720398442,1.0947201196336296
1503688024697,-0.672,-0.369,-0.370,-0.525,+0.938,-0.085,-0.425,-0.312,+6.688,-0.875,-15, -3, 5, -2, -4, 0, -6, -15,1.7482272495903863,1.0966575944414267
1503688024715,-0.671,-0.370,-0.370,-0.525,+0.939,-0.095,-0.403,-0.188,-0.312,-2.938,3, -3, -6, 1, 2, -3, 1, -9,1.747085798069808,1.0982579834103616
1503688024730,-0.671,-0.370,-0.369,-0.526,+0.946,-0.093,-0.399,-3.438,-2.875,-2.438,6, 1, 7, 0, 3, 1, -2, 4,1.7469796201768524,1.0967916699544198
1503688024752,-0.672,-0.370,-0.368,-0.526,+0.924,-0.069,-0.417,-4.750,-5.125,-2.688,11, 18, 11, 2, -1, -1, 0, 8,1.7495820424483837,1.0953301020580972
1503688024774,-0.672,-0.370,-0.366,-0.527,+0.906,-0.075,-0.411,-4.688,-8.125,-3.562,-6, -6, -8, -7, -1, 0, -1, -4,1.7496063497057808,1.0920750700360957
1503688024789,-0.672,-0.371,-0.365,-0.527,+0.896,-0.110,-0.418,-3.625,-0.375,-2.500,-10, -6, -1, -4, 0, -4, 1, -16,1.7510734731979576,1.0922271489102928
1503688024812,-0.672,-0.372,-0.366,-0.526,+0.906,-0.141,-0.411,-5.312,+6.125,-0.062,4, -8, -6, 1, -2, 0, -4, -26,1.752518378798409,1.095627289200864
1503688024834,-0.672,-0.374,-0.367,-0.524,+0.993,-0.154,-0.388,-7.375,+10.188,+3.000,1, 3, 5, 2, -3, 0, 0, 15,1.7555522641696082,1.1006475471497255
1503688024849,-0.673,-0.375,-0.367,-0.522,+1.019,-0.140,-0.405,-8.625,+7.688,+5.500,-7, -3, -5, -3, 0, -2, 2, -6,1.7598550988729378,1.102274517685424
1503688024872,-0.675,-0.374,-0.366,-0.520,+0.941,-0.146,-0.427,-8.750,-8.750,+8.125,-1, 2, -5, -1, 1, 0, -1, 13,1.764097501848514,1.0985441526433444
1503688024894,-0.677,-0.373,-0.365,-0.519,+0.869,-0.148,-0.414,-10.938,-14.188,+9.188,3, 1, -2, -6, -3, -2, 1, 4,1.7681058905219156,1.095151718819683
1503688024909,-0.679,-0.372,-0.364,-0.518,+0.835,-0.153,-0.425,-8.938,-3.750,+4.000,-2, -5, 7, 2, 5, 4, -3, -6,1.7721345503571055,1.0917639320856036
1503688024932,-0.680,-0.372,-0.364,-0.516,+0.855,-0.158,-0.428,-7.062,+7.250,+6.875,-9, -5, -3, 2, -2, -4, -3, -1,1.7751548231983174,1.091433626810256
1503688024954,-0.681,-0.373,-0.365,-0.514,+0.906,-0.200,-0.415,-5.375,+8.625,+8.875,-9, 8, 7, 2, -7, -1, 4, 2,1.7793490396442613,1.0948448122591294
1503688024969,-0.682,-0.373,-0.367,-0.512,+0.928,-0.215,-0.404,-4.938,+7.125,+8.750,-3, 1, -1, 1, 2, -6, -5, 0,1.7820746888635945,1.098079516829688
1503688024993,-0.683,-0.373,-0.368,-0.510,+0.893,-0.194,-0.414,-4.062,+5.125,+9.500,-24, 5, 8, 1, 0, -3, 2, 12,1.7849633646693261,1.099533977442963
1503688025014,-0.684,-0.373,-0.369,-0.508,+0.897,-0.178,-0.407,-4.000,+4.125,+8.375,7, 3, 4, 1, -1, -1, -1, -17,1.7878597983564652,1.1009895601586985
1503688025029,-0.684,-0.373,-0.370,-0.506,+0.908,-0.178,-0.398,-3.000,+8.562,+7.500,4, 1, 2, 0, 6, 2, -1, 7,1.7882920059367788,1.1021067058154002
1503688025051,-0.685,-0.374,-0.371,-0.504,+0.910,-0.166,-0.387,-1.188,+6.938,+8.000,7, 7, 3, 1, -1, -2, -6, 6,1.7925086715750222,1.1055326027685655
1503688025073,-0.685,-0.374,-0.372,-0.503,+0.908,-0.151,-0.405,+1.062,+4.812,+5.812,-5, 4, -2, -6, -6, -6, -2, -27,1.7926465985613784,1.1069917279582167
1503688025089,-0.685,-0.374,-0.373,-0.503,+0.889,-0.106,-0.445,+4.625,+6.438,+0.875,-10, -25, -10, 1, -6, 0, 2, 3,1.7924807519253172,1.108789505307532
1503688025111,-0.684,-0.373,-0.373,-0.504,+0.888,-0.092,-0.448,+10.312,+1.812,-1.812,14, 16, 10, 0, 2, 5, 5, 27,1.7884004315554034,1.1068238051258066
1503688025133,-0.683,-0.372,-0.374,-0.505,+0.907,-0.115,-0.401,+10.438,-2.312,-4.188,0, 6, -6, -1, 0, -3, -7, 5,1.7841590819369706,1.106666608249921
1503688025149,-0.682,-0.372,-0.374,-0.507,+0.921,-0.108,-0.385,+9.812,-0.375,-6.875,-6, -8, 1, -3, 0, 0, 1, -13,1.7811016787429501,1.1070061679206444
1503688025172,-0.680,-0.372,-0.375,-0.508,+0.907,-0.110,-0.391,+11.438,+0.812,-7.438,8, 4, 0, 2, 2, -3, 0, 5,1.775707136266234,1.108482759177575
1503688025195,-0.679,-0.372,-0.376,-0.510,+0.892,-0.139,-0.410,+10.438,+0.562,-8.812,6, -4, -4, -2, 2, 0, -1, -1,1.77252465865901,1.110636731812615
1503688025209,-0.677,-0.372,-0.376,-0.511,+0.898,-0.159,-0.396,+8.375,+2.250,-9.812,-9, -6, -1, -4, 0, -2, -8, -6,1.7672994991784017,1.1103069819728677
1503688025232,-0.676,-0.372,-0.378,-0.512,+0.922,-0.177,-0.356,+8.188,+3.625,-6.625,13, 9, -3, 5, -1, -2, -2, -7,1.7642662444933677,1.1139526836959752
1503688025254,-0.675,-0.372,-0.378,-0.513,+0.970,-0.174,-0.378,+4.562,+0.438,-8.938,-1, -2, 2, -1, -2, -2, 1, 11,1.7615294422734438,1.1139580212595188
1503688025269,-0.674,-0.371,-0.377,-0.515,+0.958,-0.157,-0.427,+4.688,-12.188,-13.250,-7, -5, 2, -1, -3, -1, 4, -1,1.757351730963283,1.1105303012271708
1503688025292,-0.675,-0.368,-0.375,-0.518,+0.934,-0.169,-0.408,+4.125,-24.250,-14.250,-10, 1, -6, -6, -4, -3, 0, -9,1.7553807373298274,1.102414026768594
1503688025314,-0.675,-0.367,-0.373,-0.521,+0.894,-0.163,-0.393,-0.250,-19.812,-14.875,-17, -5, -1, -2, -1, -1, -4, -14,1.7535881491835534,1.0978667916534806
1503688025336,-0.674,-0.368,-0.371,-0.523,+0.887,-0.133,-0.373,-1.375,-5.875,-16.062,5, 3, -3, 1, 1, 1, 0, 7,1.7522041372018968,1.0965241766462588
1503688025352,-0.672,-0.369,-0.371,-0.524,+0.917,-0.130,-0.386,-0.312,-0.125,-14.438,11, 1, 4, -3, -2, 3, -2, 5,1.7483348904737428,1.0981259893511852
1503688025373,-0.671,-0.370,-0.370,-0.526,+0.964,-0.108,-0.395,-0.938,+0.875,-14.062,-1, -1, 0, 1, -5, -2, 2, 3,1.7468492757984757,1.0985966142041867
1503688025397,-0.670,-0.371,-0.368,-0.528,+0.964,-0.071,-0.417,-2.062,-7.312,-16.125,-1, 2, 1, -1, 8, -1, 3, -12,1.7455072714269269,1.0972666201468602
1503688026310,-0.717,-0.223,-0.403,-0.524,+0.764,-0.349,-0.521,+59.500,-10.500,+20.500,-5, 0, -3, 0, 2, 0, 0, -6,1.7070203121794603,0.9110012428211088
1503688026334,-0.714,-0.215,-0.409,-0.525,+0.762,-0.369,-0.522,+60.438,-14.000,+17.688,-3, 17, 5, 0, -8, -2, 0, 0,1.691262083545063,0.9096025819498683
1503688026355,-0.712,-0.206,-0.416,-0.527,+0.741,-0.401,-0.537,+60.188,-18.750,+14.562,5, -9, -3, -2, 3, 2, 1, 4,1.6775228067889638,0.9098962126378122
1503688026370,-0.710,-0.197,-0.421,-0.529,+0.742,-0.432,-0.530,+57.438,-21.125,+9.812,7, 5, 0, -3, -3, 0, 0, -3,1.6641046801151256,0.9064209548559566
1503688026393,-0.708,-0.190,-0.426,-0.531,+0.720,-0.426,-0.500,+54.000,-19.125,+7.500,5, -5, -6, -4, 0, -1, 1, 5,1.6523940872404344,0.906549571010938
1503688026415,-0.705,-0.183,-0.432,-0.533,+0.723,-0.419,-0.493,+51.125,-14.062,+6.688,-2, -1, 1, -3, -3, -3, 0, -4,1.6377860682620429,0.9089662763460977
1503688026430,-0.702,-0.177,-0.437,-0.534,+0.730,-0.430,-0.501,+49.188,-6.562,+6.938,5, 4, 3, 3, 0, 0, -1, 1,1.624111724918582,0.9105214018459592
1503688026453,-0.699,-0.172,-0.443,-0.534,+0.733,-0.433,-0.493,+47.188,-2.875,+6.000,-15, -2, -2, -2, -1, -1, 6, 7,1.6112337541406643,0.915605989171241
1503688026476,-0.696,-0.167,-0.448,-0.536,+0.744,-0.439,-0.482,+44.312,-5.938,+3.312,0, -2, -4, -5, -2, 0, 0, 7,1.5982637846752994,0.9199067342613663
1503688026490,-0.693,-0.162,-0.452,-0.538,+0.732,-0.452,-0.481,+41.500,-10.375,-1.562,7, 5, 3, -1, -6, -2, -1, 8,1.5853517017913208,0.9221466708595528
1503688026513,-0.690,-0.158,-0.455,-0.540,+0.721,-0.470,-0.464,+36.375,-9.562,-3.250,-3, -13, -5, 4, -2, -2, -5, 30,1.5731900768629414,0.9237485353637981
1503688026536,-0.688,-0.155,-0.459,-0.541,+0.708,-0.460,-0.469,+29.750,-3.000,-1.500,-2, -13, -2, -2, -25, 2, -4, -25,1.564862073240613,0.928965555363152
1503688026550,-0.686,-0.154,-0.462,-0.541,+0.724,-0.455,-0.479,+21.938,+7.125,+1.188,8, 32, 12, 6, 78, -1, -3, -61,1.5579362300401636,0.934259803356882
1503688026576,-0.685,-0.154,-0.465,-0.540,+0.715,-0.434,-0.490,+17.938,+14.438,+5.562,-7, -7, -6, -3, -12, 0, -2, 0,1.5548093760940922,0.9406791932061978
1503688026595,-0.684,-0.154,-0.469,-0.538,+0.760,-0.461,-0.438,+13.375,+17.562,+8.000,-3, 0, 2, -4, -53, -1, 2, 39,1.5516536054338421,0.9489693912926523
1503688026611,-0.684,-0.155,-0.471,-0.535,+0.756,-0.473,-0.404,+4.938,+14.000,+11.125,-5, -3, -1, 1, 19, 1, 2, -124,1.5523018131642603,0.9534824601287125
1503688026633,-0.685,-0.156,-0.473,-0.531,+0.724,-0.455,-0.436,-2.438,+19.812,+17.188,-5, -7, -4, -4, -36, 1, 4, 49,1.5560804485676327,0.9576022620048219
1503688026659,-0.687,-0.159,-0.475,-0.526,+0.719,-0.443,-0.483,-7.000,+30.750,+23.938,6, 2, 6, 3, 26, -5, -5, 62,1.5645018760983316,0.96431460553665
1503688026671,-0.689,-0.162,-0.477,-0.521,+0.715,-0.426,-0.520,-6.000,+37.750,+24.062,3, 24, 9, 0, 10, 2, 3, -3,1.5730083930653198,0.9710888220486822
