Timestamp,Orientation X,Orientation Y,Orientation Z,Orientation W,Accelerometer X,Accelerometer Y,Accelerometer Z,Gyroscope X,Gyroscope Y,Gyroscope Z,EMG1,EMG2,EMG3,EMG4,EMG5,EMG6,EMG7,EMG8,Roll,Yaw
1503943620104,+0.986,+0.154,-0.059,-0.000,+0.327,+0.122,-0.919,-1.125,-0.562,+0.938,13, 2, -1, 0, 0, 3, -1, 2,-3.1232729042860843,0.31075213337954877
1503943620127,+0.986,+0.154,-0.059,-0.000,+0.325,+0.126,-0.915,-1.688,-0.062,+0.875,-7, -1, 1, 0, -1, -1, 1, -1,-3.1232729042860843,0.31075213337954877
1503943620154,+0.986,+0.155,-0.059,-0.000,+0.336,+0.128,-0.912,-2.250,+0.188,+0.188,-4, 1, 2, 1, -1, -1, 2, -3,-3.123165451034819,0.3128328178127382
1503943620170,+0.986,+0.155,-0.059,-0.000,+0.335,+0.132,-0.916,-1.250,+0.312,+0.062,-3, 0, -2, -2, -2, -2, 0, 0,-3.123165451034819,0.3128328178127382
1503943620187,+0.986,+0.155,-0.059,-0.000,+0.326,+0.126,-0.912,-1.500,-0.375,-0.312,-3, -2, -2, -1, -3, -1, -1, -4,-3.123165451034819,0.3128328178127382
1503943620209,+0.986,+0.155,-0.059,-0.000,+0.334,+0.112,-0.923,-0.938,-0.312,-0.188,-12, -3, 0, 0, 2, 1, -2, -2,-3.123165451034819,0.3128328178127382
1503943620226,+0.986,+0.155,-0.059,-0.000,+0.317,+0.131,-0.919,-1.688,-0.875,+0.438,0, 2, 1, 0, 0, -1, 0, 1,-3.123165451034819,0.3128328178127382
1503943620247,+0.986,+0.154,-0.059,-0.000,+0.328,+0.129,-0.912,-1.250,-1.812,+1.000,1, 7, 1, 0, 0, -4, 0, 1,-3.1232729042860843,0.31075213337954877
1503943620269,+0.986,+0.154,-0.059,-0.000,+0.320,+0.120,-0.920,-1.062,-0.812,+0.750,9, 0, 0, -1, 1, 1, -1, 0,-3.1232729042860843,0.31075213337954877
1503943620284,+0.986,+0.154,-0.059,-0.000,+0.321,+0.126,-0.917,-1.188,-0.125,+0.312,-6, -8, -1, -1, 0, -2, -1, -1,-3.1232729042860843,0.31075213337954877
1503943620307,+0.986,+0.154,-0.059,-0.000,+0.330,+0.130,-0.917,-0.438,+1.250,-0.312,-1, -5, -1, 0, -3, 1, -2, -2,-3.1232729042860843,0.31075213337954877
1503943620329,+0.986,+0.155,-0.059,+0.000,+0.332,+0.130,-0.913,+0.188,+0.500,+0.062,1, -5, -6, -2, -3, -2, -1, -2,-3.123165451034819,0.3128328178127382
1503943620343,+0.986,+0.155,-0.059,+0.000,+0.335,+0.133,-0.912,+0.438,-0.438,-0.312,-4, -2, -2, 1, 0, -2, -5, -2,-3.123165451034819,0.3128328178127382
1503943620367,+0.986,+0.155,-0.058,+0.000,+0.336,+0.115,-0.920,+0.938,-0.625,-0.438,-12, -9, -2, -3, -1, -2, -2, -1,-3.1234777075908964,0.31276032571080375
1503943620388,+0.986,+0.155,-0.058,+0.000,+0.314,+0.120,-0.933,-1.125,-1.000,+0.062,-5, 0, -1, 0, -2, -1, 0, 0,-3.1234777075908964,0.31276032571080375
1503943620404,+0.986,+0.155,-0.058,+0.000,+0.318,+0.123,-0.915,-1.750,-0.875,+0.188,2, -5, 0, -3, -3, 2, -1, 0,-3.1234777075908964,0.31276032571080375
1503943620427,+0.986,+0.155,-0.058,+0.000,+0.318,+0.131,-0.914,-1.375,+0.500,+0.375,10, 0, -3, -2, -1, -3, -3, -2,-3.1234777075908964,0.31276032571080375
1503943620449,+0.986,+0.155,-0.058,+0.000,+0.327,+0.128,-0.927,-1.188,+0.688,+1.188,-3, -4, 0, -1, 1, 1, -1, 1,-3.1234777075908964,0.31276032571080375
1503943620463,+0.986,+0.155,-0.058,+0.000,+0.328,+0.132,-0.910,-1.438,-0.062,+0.875,3, 2, -1, 0, -2, -3, -1, -2,-3.1234777075908964,0.31276032571080375
1503943620486,+0.986,+0.155,-0.058,+0.000,+0.327,+0.122,-0.913,-0.500,+1.375,+0.562,-1, -1, -1, 2, 1, 0, -2, 2,-3.1234777075908964,0.31276032571080375
1503943620508,+0.986,+0.155,-0.058,+0.000,+0.326,+0.121,-0.915,+0.000,+1.625,+0.250,-5, -3, -2, -1, 1, 1, 0, -1,-3.1234777075908964,0.31276032571080375
1503943620523,+0.986,+0.155,-0.058,+0.000,+0.337,+0.121,-0.920,-0.562,+0.625,+0.188,1, -1, 1, -3, -2, -2, -2, -1,-3.1234777075908964,0.31276032571080375
1503943620546,+0.986,+0.155,-0.058,+0.000,+0.327,+0.127,-0.917,-0.875,-1.188,+0.688,1, 1, -1, -1, -2, -2, 0, 0,-3.1234777075908964,0.31276032571080375
1503943620568,+0.986,+0.155,-0.058,+0.000,+0.322,+0.120,-0.915,-0.062,-0.625,+1.000,-6, 0, -1, 1, 0, -2, -1, 1,-3.1234777075908964,0.31276032571080375
1503943620584,+0.986,+0.155,-0.058,+0.000,+0.321,+0.130,-0.920,-0.375,+0.375,+0.875,6, 0, 1, 1, -1, -1, -1, 0,-3.1234777075908964,0.31276032571080375
1503943620606,+0.986,+0.155,-0.058,+0.000,+0.326,+0.126,-0.917,-0.062,+1.000,+0.125,-15, -3, 0, -2, 0, -2, -1, -1,-3.1234777075908964,0.31276032571080375
1503943620628,+0.986,+0.155,-0.057,+0.000,+0.323,+0.121,-0.918,-0.688,+2.375,-0.250,-3, -7, -2, -2, -1, 1, 0, -1,-3.1237899676799654,0.31268910444913106
1503943620643,+0.986,+0.156,-0.057,+0.000,+0.334,+0.118,-0.921,-0.562,+2.188,+0.188,-13, -4, -2, -1, -2, -1, 0, -3,-3.1236863562794244,0.31477003494681244
1503943620668,+0.986,+0.156,-0.057,+0.000,+0.343,+0.117,-0.914,-1.062,-0.562,+0.812,-8, -2, -1, 0, -1, -2, -1, -2,-3.1236863562794244,0.31477003494681244
1503943620688,+0.986,+0.155,-0.057,+0.000,+0.331,+0.110,-0.911,-1.625,-2.188,+1.500,7, 3, -1, -2, 2, 0, -1, 0,-3.1237899676799654,0.31268910444913106
1503943620704,+0.986,+0.155,-0.057,+0.000,+0.321,+0.122,-0.916,-1.375,-1.125,+1.250,-9, -4, -4, -2, 0, -2, -1, 0,-3.1237899676799654,0.31268910444913106
1503943620726,+0.986,+0.155,-0.057,+0.000,+0.325,+0.121,-0.921,-0.875,+0.000,+0.625,3, 7, 0, 0, -1, 1, -2, -1,-3.1237899676799654,0.31268910444913106
1503943620748,+0.986,+0.155,-0.057,+0.000,+0.319,+0.117,-0.923,-0.875,+1.562,+0.250,2, -2, -1, -1, 0, -1, 0, -2,-3.1237899676799654,0.31268910444913106
1503943620765,+0.986,+0.156,-0.057,+0.000,+0.329,+0.125,-0.917,-0.750,+2.562,-0.062,-1, -2, 1, 1, -2, 0, -1, 0,-3.1236863562794244,0.31477003494681244
1503943620793,+0.986,+0.156,-0.057,+0.000,+0.337,+0.127,-0.913,-1.062,+3.062,+0.188,1, -3, -3, 1, -1, -2, -1, -2,-3.1236863562794244,0.31477003494681244
1503943620808,+0.986,+0.157,-0.057,+0.000,+0.345,+0.123,-0.922,-0.562,+1.375,-0.125,1, 7, 5, -1, 1, -1, 1, 1,-3.123582947455134,0.31685213974526377
1503943620823,+0.986,+0.157,-0.057,+0.000,+0.333,+0.123,-0.917,-1.688,-0.562,+0.938,1, -2, -1, 0, -2, -1, -2, 2,-3.123582947455134,0.31685213974526377
1503943620846,+0.986,+0.156,-0.057,+0.000,+0.330,+0.120,-0.912,-1.938,-1.312,+1.375,3, -1, -1, 1, -1, -1, -1, -1,-3.1236863562794244,0.31477003494681244
1503943620868,+0.986,+0.156,-0.057,+0.000,+0.323,+0.123,-0.920,-1.688,-0.188,+1.062,-13, -2, -1, -2, 0, 0, -1, 0,-3.1236863562794244,0.31477003494681244
1503943620883,+0.986,+0.156,-0.057,+0.000,+0.328,+0.131,-0.915,-1.062,+0.188,+0.875,-3, -1, -2, 0, -2, 0, -1, -1,-3.1236863562794244,0.31477003494681244
1503943620906,+0.986,+0.157,-0.057,+0.000,+0.329,+0.117,-0.918,-0.500,+2.000,+0.500,0, 0, 0, -1, -1, 0, -1, 1,-3.123582947455134,0.31685213974526377
1503943620929,+0.986,+0.157,-0.057,+0.000,+0.324,+0.112,-0.917,-0.625,+5.062,+0.375,5, 0, -1, -2, -2, 1, 0, 0,-3.123582947455134,0.31685213974526377
1503943620943,+0.986,+0.158,-0.057,+0.000,+0.347,+0.118,-0.912,-0.938,+4.062,-0.062,-5, 1, 2, -2, 0, 0, -1, 0,-3.1234797420731546,0.3189354246311218
1503943620966,+0.986,+0.159,-0.057,+0.000,+0.348,+0.125,-0.910,-0.875,+1.562,-0.500,-7, -5, -1, -2, 0, 0, 0, -2,-3.1233767409924265,0.3210198953549841
1503943620988,+0.986,+0.159,-0.057,+0.000,+0.333,+0.108,-0.916,-0.562,+0.000,+0.062,1, 1, 1, -1, 0, -1, -4, -1,-3.1233767409924265,0.3210198953549841
1503943621003,+0.986,+0.159,-0.057,+0.000,+0.336,+0.117,-0.924,-1.375,-0.250,+0.875,-9, -3, -1, 1, -1, 1, 1, -4,-3.1233767409924265,0.3210198953549841
1503943621026,+0.986,+0.159,-0.057,+0.000,+0.333,+0.115,-0.919,-1.688,-0.875,+0.750,-3, 1, 2, 0, -2, 0, -1, 1,-3.1233767409924265,0.3210198953549841
1503943621048,+0.986,+0.159,-0.057,+0.000,+0.325,+0.117,-0.922,-1.812,+0.438,+0.375,4, -2, -1, -2, 0, -2, 1, -1,-3.1233767409924265,0.3210198953549841
1503943621066,+0.986,+0.159,-0.057,+0.000,+0.331,+0.122,-0.912,-1.562,+1.375,+0.375,10, -1, -2, -3, 0, -2, 0, -3,-3.1233767409924265,0.3210198953549841
1503943621086,+0.986,+0.159,-0.057,+0.001,+0.342,+0.119,-0.911,-1.000,+2.562,-0.250,-6, -3, -2, 0, 0, -1, -2, 0,-3.1253581535046244,0.32091102984507996
1503943621108,+0.986,+0.160,-0.057,+0.001,+0.343,+0.124,-0.909,-0.875,+1.312,-0.188,4, 5, 0, 1, -1, 0, 0, 0,-3.125254080761768,0.3229967699133534
1503943621123,+0.986,+0.160,-0.057,+0.001,+0.349,+0.119,-0.907,-1.062,-0.562,-0.125,-2, -5, -1, -1, -1, -1, -1, 1,-3.125254080761768,0.3229967699133534
1503943621146,+0.986,+0.160,-0.057,+0.001,+0.331,+0.119,-0.926,-1.188,-0.812,+0.625,-3, 1, 0, 2, 1, 2, -2, -3,-3.125254080761768,0.3229967699133534
1503943621169,+0.986,+0.160,-0.057,+0.001,+0.325,+0.120,-0.917,-2.000,-1.062,+0.438,23, 6, -1, -2, -1, -1, -2, 0,-3.125254080761768,0.3229967699133534
1503943621183,+0.986,+0.160,-0.057,+0.001,+0.330,+0.128,-0.912,-2.312,+0.500,+0.625,-6, -3, -2, 0, -2, 0, 0, 0,-3.125254080761768,0.3229967699133534
1503943621206,+0.986,+0.160,-0.057,+0.001,+0.335,+0.133,-0.916,-1.688,+0.875,+1.062,-9, -5, -3, -2, -3, -1, 0, -3,-3.125254080761768,0.3229967699133534
1503943621228,+0.985,+0.160,-0.057,+0.001,+0.340,+0.126,-0.906,-1.688,+1.000,+0.688,-2, -1, -1, -1, -1, -3, -1, 1,-3.1251871271128797,0.32269135855141695
1503943621243,+0.985,+0.160,-0.057,+0.001,+0.347,+0.118,-0.915,-0.750,+1.875,+0.000,3, -2, 0, -1, -1, -3, 0, 1,-3.1251871271128797,0.32269135855141695
1503943621273,+0.985,+0.160,-0.057,+0.001,+0.343,+0.115,-0.917,-1.375,+0.938,-0.188,4, 0, -2, -1, -1, 0, -1, -2,-3.1251871271128797,0.32269135855141695
1503943621288,+0.985,+0.160,-0.057,+0.001,+0.340,+0.123,-0.913,-1.562,-1.062,+0.312,9, 1, -3, -1, -3, -3, 0, -4,-3.1251871271128797,0.32269135855141695
1503943621304,+0.985,+0.160,-0.057,+0.001,+0.328,+0.128,-0.917,-1.188,-0.938,+0.812,-5, 2, 0, -2, -1, -2, 1, 0,-3.1251871271128797,0.32269135855141695
1503943621326,+0.985,+0.160,-0.057,+0.001,+0.331,+0.113,-0.914,-1.062,+0.062,+0.500,13, 9, 0, 0, -1, -3, -2, 0,-3.1251871271128797,0.32269135855141695
1503943621348,+0.985,+0.160,-0.057,+0.001,+0.336,+0.122,-0.924,-0.750,+0.875,+0.312,-8, -4, -1, 0, 0, 0, -2, -5,-3.1251871271128797,0.32269135855141695
1503943621367,+0.985,+0.160,-0.057,+0.001,+0.338,+0.119,-0.907,-1.562,+0.312,+0.312,-15, -3, -1, -1, 1, 0, 2, 1,-3.1251871271128797,0.32269135855141695
1503943621386,+0.985,+0.160,-0.057,+0.001,+0.341,+0.117,-0.914,-0.688,+0.312,+0.125,-3, -1, 0, -3, -1, -1, -1, 1,-3.1251871271128797,0.32269135855141695
1503943621409,+0.985,+0.160,-0.057,+0.001,+0.344,+0.116,-0.915,-1.125,+0.375,+0.250,5, 3, 0, -1, -2, -1, -1, -1,-3.1251871271128797,0.32269135855141695
1503943621424,+0.985,+0.160,-0.057,+0.001,+0.338,+0.114,-0.916,-1.688,-0.750,+0.438,2, -4, 0, -2, 1, 0, -1, 0,-3.1251871271128797,0.32269135855141695
1503943621446,+0.985,+0.160,-0.057,+0.001,+0.331,+0.119,-0.914,-2.125,-0.750,+0.688,-15, 0, 1, 0, 0, -1, -1, -1,-3.1251871271128797,0.32269135855141695
1503943621468,+0.985,+0.160,-0.057,+0.001,+0.332,+0.126,-0.910,-1.938,-0.750,+0.812,2, -2, 0, 1, 0, -2, -3, 0,-3.1251871271128797,0.32269135855141695
1503943621484,+0.985,+0.160,-0.057,+0.001,+0.336,+0.130,-0.912,-1.188,+0.188,+0.438,0, 0, 0, 0, -1, -1, 0, 0,-3.1251871271128797,0.32269135855141695
1503943621506,+0.985,+0.160,-0.057,+0.001,+0.344,+0.123,-0.910,-0.625,+0.875,+0.000,-1, -3, -1, -1, 0, 0, 0, 0,-3.1251871271128797,0.32269135855141695
1503943621528,+0.985,+0.160,-0.057,+0.001,+0.345,+0.127,-0.909,-1.188,-0.250,-0.062,-15, -1, -1, -1, -1, -1, -1, 0,-3.1251871271128797,0.32269135855141695
1503943621544,+0.985,+0.160,-0.057,+0.001,+0.334,+0.120,-0.918,-1.312,-0.438,+0.250,9, -10, -4, -1, -1, -3, 1, 1,-3.1251871271128797,0.32269135855141695
1503943621568,+0.985,+0.160,-0.057,+0.001,+0.334,+0.116,-0.912,-1.562,-1.312,+0.875,6, 1, -2, 0, 0, -1, -2, 0,-3.1251871271128797,0.32269135855141695
1503943621589,+0.985,+0.160,-0.057,+0.000,+0.343,+0.130,-0.906,-1.500,-2.312,+0.938,6, 1, -1, -2, -2, -2, -4, -1,-3.123201141052704,0.32280016850542004
1503943621604,+0.986,+0.159,-0.057,+0.000,+0.332,+0.109,-0.914,-0.500,-1.125,+0.688,-2, 5, 3, 1, 1, 1, 2, -1,-3.1233767409924265,0.3210198953549841
1503943621626,+0.986,+0.159,-0.057,+0.000,+0.327,+0.121,-0.919,-1.062,+0.688,+0.250,-5, 0, 0, 0, -1, -3, -2, -1,-3.1233767409924265,0.3210198953549841
1503943621648,+0.986,+0.160,-0.057,+0.000,+0.339,+0.126,-0.912,-1.125,+1.188,+0.062,-4, -4, -3, -3, -1, 1, 1, -1,-3.12327394506476,0.32310555763110366
1503943621664,+0.986,+0.160,-0.057,+0.000,+0.348,+0.122,-0.913,-1.000,+0.375,+0.062,1, 6, 4, 2, 1, 0, 0, 1,-3.12327394506476,0.32310555763110366
1503943621686,+0.986,+0.160,-0.057,+0.000,+0.342,+0.111,-0.912,-1.125,-0.812,+0.312,-13, -8, -4, 0, 0, -1, 1, -1,-3.12327394506476,0.32310555763110366
1503943621708,+0.986,+0.160,-0.057,+0.000,+0.336,+0.117,-0.922,-1.438,-0.625,+0.438,0, 1, -2, -3, -1, 0, 0, -1,-3.12327394506476,0.32310555763110366
1503943621724,+0.986,+0.160,-0.057,+0.000,+0.330,+0.123,-0.914,-1.875,-0.375,+0.375,1, -3, -2, -5, -4, -2, -2, 1,-3.12327394506476,0.32310555763110366
1503943621746,+0.986,+0.160,-0.057,+0.000,+0.331,+0.127,-0.908,-1.250,+0.688,+0.250,15, 12, 1, 2, 1, 0, -2, -3,-3.12327394506476,0.32310555763110366
1503943621769,+0.985,+0.160,-0.057,+0.000,+0.342,+0.121,-0.915,-0.438,+1.500,-0.188,-8, -4, 0, -1, -3, 0, -1, -1,-3.123201141052704,0.32280016850542004
1503943621784,+0.985,+0.160,-0.056,+0.001,+0.350,+0.119,-0.914,+0.062,+0.812,-0.625,-4, 1, -1, -1, 1, -2, 0, 1,-3.1255097364657085,0.32262115091729726
1503943621806,+0.985,+0.160,-0.056,+0.001,+0.341,+0.117,-0.923,-0.625,+0.812,-0.500,0, -9, -3, -1, -2, 0, 1, -3,-3.1255097364657085,0.32262115091729726
1503943621828,+0.985,+0.160,-0.056,+0.001,+0.334,+0.114,-0.920,-1.312,-0.188,-0.750,5, 0, 0, 0, -1, 1, 0, 1,-3.1255097364657085,0.32262115091729726
1503943621844,+0.985,+0.160,-0.056,+0.001,+0.339,+0.130,-0.906,-1.062,-0.875,+0.062,7, 3, -3, -1, -1, -3, -2, -4,-3.1255097364657085,0.32262115091729726
1503943621866,+0.986,+0.160,-0.056,+0.001,+0.329,+0.125,-0.911,-0.188,-1.812,+0.375,-9, 0, 1, -1, -1, 0, -1, 0,-3.1255754134489138,0.3229265033956601
1503943621888,+0.986,+0.160,-0.056,+0.001,+0.339,+0.126,-0.917,+0.438,-0.625,+0.625,0, 2, 1, -1, -1, -2, -2, -2,-3.1255754134489138,0.3229265033956601
1503943621909,+0.986,+0.160,-0.056,+0.001,+0.334,+0.128,-0.920,+0.562,+0.188,+0.688,-4, -1, 0, 1, -1, -1, 2, -1,-3.1255754134489138,0.3229265033956601
1503943621926,+0.986,+0.160,-0.056,+0.001,+0.332,+0.122,-0.923,-0.312,+0.688,+0.375,-6, -4, -3, -1, -1, 0, -1, 2,-3.1255754134489138,0.3229265033956601
1503943621948,+0.986,+0.160,-0.056,+0.001,+0.337,+0.120,-0.923,-1.562,+0.125,+0.438,3, -1, -1, 0, -1, 2, -2, 0,-3.1255754134489138,0.3229265033956601
1503943621964,+0.986,+0.160,-0.056,+0.001,+0.347,+0.137,-0.909,-2.438,-0.750,+0.688,0, 3, -1, -1, 0, -1, 0, 1,-3.1255754134489138,0.3229265033956601
1503943621986,+0.986,+0.159,-0.057,+0.001,+0.337,+0.129,-0.911,-2.188,-1.125,+0.688,1, 0, 0, -1, -1, 0, -3, -4,-3.1253581535046244,0.32091102984507996
1503943622008,+0.986,+0.159,-0.057,+0.001,+0.337,+0.119,-0.913,-2.750,-0.875,+0.500,-5, -3, -2, -1, 1, -1, -2, -1,-3.1253581535046244,0.32091102984507996
1503943622024,+0.986,+0.159,-0.057,+0.001,+0.326,+0.126,-0.923,-2.938,+0.438,+0.750,-6, -2, 1, -1, -2, 0, -2, -2,-3.1253581535046244,0.32091102984507996
1503943622046,+0.986,+0.159,-0.058,+0.000,+0.325,+0.133,-0.918,-3.688,+0.500,+0.750,9, 1, 0, 0, 0, -2, 0, 3,-3.123057236139049,0.32109294413162287
1503943622076,+0.985,+0.159,-0.058,+0.000,+0.334,+0.125,-0.907,-2.812,+0.750,+1.000,1, 2, 0, -2, -2, 1, 0, 0,-3.1229835238312975,0.3207891876416022
1503943622091,+0.985,+0.160,-0.058,+0.000,+0.349,+0.117,-0.919,-2.500,+1.375,+1.125,4, 1, 1, -2, -1, -2, 0, -1,-3.1228785576172524,0.32287361435328393
1503943622107,+0.985,+0.160,-0.058,+0.000,+0.348,+0.108,-0.908,-2.375,+1.750,-0.188,-2, -2, 1, 0, -1, 0, 0, 0,-3.1228785576172524,0.32287361435328393
1503943622129,+0.985,+0.160,-0.058,+0.000,+0.343,+0.117,-0.906,-1.062,+0.688,-0.625,-5, -1, -3, 0, 1, -3, 0, 0,-3.1228785576172524,0.32287361435328393
1503943622144,+0.985,+0.160,-0.057,+0.001,+0.332,+0.096,-0.903,+1.625,+2.312,-1.625,-1, 2, 2, 1, -3, -1, -1, -3,-3.1251871271128797,0.32269135855141695
1503943622166,+0.985,+0.161,-0.056,+0.001,+0.334,+0.085,-0.918,+3.188,+5.000,-1.312,-11, -4, -3, -1, -2, -3, 1, 0,-3.1254072994690194,0.3247059512439466
1503943622188,+0.985,+0.162,-0.055,+0.001,+0.348,+0.106,-0.918,+3.000,+4.312,-0.250,-2, -2, -1, -2, -1, -2, -1, 0,-3.1256312804059396,0.3267221748377943
1503943622209,+0.985,+0.162,-0.055,+0.001,+0.348,+0.096,-0.923,+0.500,+1.500,-0.312,-2, -1, 0, -2, 0, -1, -2, -3,-3.1256312804059396,0.3267221748377943
1503943622226,+0.985,+0.162,-0.055,+0.001,+0.344,+0.107,-0.935,-2.188,+0.312,+1.062,-1, -5, -2, -2, -1, 1, -2, -1,-3.1256312804059396,0.3267221748377943
1503943622248,+0.985,+0.162,-0.056,+0.001,+0.348,+0.142,-0.912,-4.938,-2.062,+1.875,6, -1, 1, 1, 0, 1, -1, 2,-3.125305060878874,0.32679195948882395
1503943622264,+0.985,+0.162,-0.056,+0.001,+0.339,+0.143,-0.895,-4.125,-1.750,+1.688,4, 2, -2, -2, -1, 0, -1, -1,-3.125305060878874,0.32679195948882395
1503943622286,+0.985,+0.162,-0.057,+0.000,+0.335,+0.140,-0.913,-3.188,-0.250,+1.875,-5, -4, -1, -3, -1, 0, 1, -1,-3.122995449271578,0.3269717194726267
1503943622321,+0.985,+0.161,-0.058,+0.000,+0.342,+0.149,-0.911,-3.875,-1.312,+1.625,-5, 1, -2, -1, 0, -2, 0, -1,-3.122773802635206,0.32495924252461234
1503943622324,+0.985,+0.161,-0.058,-0.000,+0.329,+0.145,-0.906,-3.875,-0.250,+1.250,-12, -7, -1, -3, 1, 0, -1, -1,-3.122773802635206,0.32495924252461234
1503943622347,+0.985,+0.161,-0.059,-0.000,+0.348,+0.143,-0.900,-3.438,+0.500,+1.250,23, 11, 1, 0, 0, -1, -1, -2,-3.122449418279647,0.32503446322514307
1503943622368,+0.985,+0.162,-0.059,-0.000,+0.348,+0.137,-0.904,-2.375,+0.500,+0.062,-1, -3, -2, -2, -1, -1, 0, 1,-3.1223430742398093,0.32712176284012145
1503943622384,+0.985,+0.162,-0.059,-0.000,+0.352,+0.124,-0.904,+0.312,+0.562,-0.438,-4, 2, 1, 2, 1, -2, 0, 1,-3.1223430742398093,0.32712176284012145
1503943622408,+0.985,+0.162,-0.058,+0.000,+0.346,+0.097,-0.896,+2.312,+0.438,-2.250,12, 5, 0, -1, -1, 0, -2, 1,-3.1226692597420365,0.32704607782764883
1503943622428,+0.985,+0.162,-0.057,+0.001,+0.338,+0.092,-0.906,+5.625,+2.375,-2.875,-15, -4, -1, 0, 1, 0, -2, -3,-3.124978844818702,0.32686306629666084
1503943622446,+0.985,+0.163,-0.055,+0.002,+0.338,+0.087,-0.909,+7.938,+4.375,-3.375,2, 0, -1, 0, -2, -2, 0, -2,-3.1275133011984804,0.3287042231205352
1503943622466,+0.985,+0.164,-0.053,+0.003,+0.348,+0.099,-0.913,+9.062,+7.375,-4.625,-4, -2, -2, -2, -2, -1, -1, -2,-3.1300527159649447,0.33055799660440843
1503943622488,+0.985,+0.165,-0.052,+0.004,+0.370,+0.095,-0.940,+8.375,+4.688,-4.625,4, 1, -1, 0, 0, -1, -1, -1,-3.1322653534762197,0.3324844365557876
1503943622513,+0.985,+0.165,-0.051,+0.005,+0.345,+0.077,-0.938,+2.562,+1.562,-4.625,-2, -4, -2, -1, -2, 0, 0, 1,-3.134576988214265,0.3323275281005875
1503943622526,+0.985,+0.165,-0.051,+0.005,+0.348,+0.100,-0.927,-1.938,-1.375,-1.938,3, 0, 1, 0, 0, 0, -1, 1,-3.134576988214265,0.3323275281005875
1503943622548,+0.985,+0.164,-0.052,+0.005,+0.338,+0.145,-0.903,-4.500,-4.188,+0.500,-2, -6, -1, 0, 0, -1, -1, -3,-3.134345048049275,0.3302973548292537
1503943622571,+0.985,+0.164,-0.052,+0.005,+0.332,+0.132,-0.903,-3.375,-3.125,+1.188,0, 3, 1, 0, -3, -2, -1, -1,-3.134345048049275,0.3302973548292537
1503943622586,+0.985,+0.164,-0.053,+0.005,+0.329,+0.125,-0.930,-3.625,+0.750,+1.938,-1, -1, -4, -1, 0, 1, 0, -2,-3.134015166616868,0.3303563362446034
1503943622611,+0.985,+0.164,-0.053,+0.005,+0.343,+0.147,-0.904,-4.000,-0.188,+2.062,8, 3, 1, -1, 0, -2, -2, -2,-3.134015166616868,0.3303563362446034
1503943622631,+0.985,+0.164,-0.054,+0.004,+0.338,+0.157,-0.892,-3.062,+0.875,+1.688,-2, 1, 1, 0, 0, 2, 0, 1,-3.1317040354016403,0.3305194022419707
1503943622648,+0.985,+0.164,-0.055,+0.004,+0.342,+0.149,-0.907,-1.312,+2.250,+2.000,8, 3, -3, -1, -1, -1, 0, 1,-3.1313741691860657,0.3305829664815346
1503943622668,+0.985,+0.165,-0.055,+0.004,+0.355,+0.149,-0.901,-1.750,+2.312,+1.375,-7, -4, 1, 1, 3, 1, 0, -3,-3.1312703747244237,0.3326724231653946
1503943622691,+0.985,+0.165,-0.055,+0.004,+0.359,+0.127,-0.909,-0.750,+2.625,+0.750,1, -2, 1, -3, -1, 0, -2, -1,-3.1312703747244237,0.3326724231653946
1503943622706,+0.985,+0.166,-0.055,+0.004,+0.343,+0.110,-0.908,+0.188,+2.625,-0.312,1, -4, -3, -2, -3, -1, -2, -1,-3.1311667595743384,0.33476311188756025
1503943622728,+0.985,+0.166,-0.054,+0.005,+0.334,+0.098,-0.907,+2.000,+4.312,-1.188,-6, -1, 2, 0, -2, -2, 0, 1,-3.13347882167427,0.33459606978442125
1503943622751,+0.984,+0.167,-0.053,+0.005,+0.353,+0.084,-0.916,+3.625,+5.812,-1.750,-1, -2, -1, -3, -1, -2, -2, 2,-3.133669732374181,0.3363089731881289
1503943622766,+0.984,+0.168,-0.052,+0.005,+0.363,+0.070,-0.925,+3.188,+6.062,-1.125,8, 5, -3, -1, 0, -2, -2, -2,-3.1339066947241343,0.33833907961305526
1503943622788,+0.984,+0.169,-0.051,+0.006,+0.365,+0.065,-0.931,+0.250,+3.188,-1.125,-15, -5, 0, 0, 0, 0, 1, -3,-3.1361279191430267,0.34027430245075485
1503943622811,+0.984,+0.169,-0.051,+0.005,+0.358,+0.077,-0.931,-3.688,+2.188,-0.062,-28, -8, -1, 2, -1, -1, -2, -2,-3.1341473937612805,0.34037096217935203
1503943622826,+0.984,+0.169,-0.052,+0.005,+0.360,+0.103,-0.913,-6.125,-0.500,+0.438,-2, -6, -3, -3, -2, 0, -2, -2,-3.1338072479979644,0.34043063168581633
1503943622848,+0.984,+0.169,-0.053,+0.005,+0.349,+0.125,-0.900,-6.188,-0.688,+0.438,-1, 2, 0, -2, -1, -1, -1, 1,-3.1334671040362045,0.3404916682921759
1503943622871,+0.984,+0.169,-0.053,+0.005,+0.350,+0.122,-0.898,-4.125,-0.812,+0.438,-3, -4, 0, -2, -2, 1, 0, 1,-3.1334671040362045,0.3404916682921759
1503943622886,+0.984,+0.169,-0.054,+0.005,+0.348,+0.133,-0.903,-2.438,+0.875,+0.625,0, -1, 0, -2, -2, 0, -2, -3,-3.1331269619546935,0.340554073522841
1503943622908,+0.984,+0.169,-0.054,+0.005,+0.356,+0.121,-0.910,-1.750,+2.250,+0.562,11, 4, -2, -1, 0, -1, -1, -4,-3.1331269619546935,0.340554073522841
1503943622931,+0.984,+0.169,-0.054,+0.005,+0.352,+0.138,-0.911,-1.875,+1.562,+0.688,6, 4, 1, 1, 0, 0, -2, -2,-3.1331269619546935,0.340554073522841
1503943622947,+0.984,+0.170,-0.054,+0.005,+0.359,+0.140,-0.896,-0.250,+1.188,+1.000,-11, -5, -2, -1, -2, -2, -2, 0,-3.133024124308191,0.3426477373667397
1503943622968,+0.984,+0.170,-0.054,+0.005,+0.371,+0.126,-0.902,+0.500,+1.062,+0.375,-6, -6, 0, -1, -2, 0, 1, -2,-3.133024124308191,0.3426477373667397
1503943622991,+0.984,+0.170,-0.054,+0.005,+0.371,+0.117,-0.905,-0.125,-0.125,+0.750,-1, 3, 0, 0, -2, -2, -1, 2,-3.133024124308191,0.3426477373667397
1503943623006,+0.984,+0.170,-0.054,+0.005,+0.346,+0.124,-0.917,-1.188,-1.188,+0.188,1, 0, -3, -1, 0, -2, -1, -4,-3.133024124308191,0.3426477373667397
1503943623028,+0.984,+0.170,-0.054,+0.005,+0.339,+0.109,-0.909,-1.062,+1.000,-0.500,-8, -4, 0, -2, 0, -1, 0, 4,-3.133024124308191,0.3426477373667397
1503943623051,+0.984,+0.170,-0.054,+0.005,+0.353,+0.110,-0.915,-0.938,+3.750,-0.812,-1, 2, 0, 0, -2, 0, 0, -2,-3.133024124308191,0.3426477373667397
1503943623066,+0.984,+0.171,-0.054,+0.005,+0.373,+0.102,-0.914,-1.625,+3.500,-0.688,4, -1, -3, 0, 0, -1, -1, -1,-3.1329214618502212,0.34474266563897493
1503943623088,+0.984,+0.171,-0.054,+0.005,+0.368,+0.106,-0.909,-2.062,+1.250,-0.062,3, -2, 0, -2, -1, 0, -2, 0,-3.1329214618502212,0.34474266563897493
1503943623112,+0.984,+0.171,-0.054,+0.005,+0.360,+0.114,-0.901,-0.750,+0.312,+0.500,15, 2, -1, -2, -2, 0, 0, 1,-3.1329214618502212,0.34474266563897493
1503943623126,+0.984,+0.171,-0.053,+0.005,+0.358,+0.116,-0.896,+0.562,+0.188,+0.625,6, 7, 2, 2, -2, 0, 0, -4,-3.133265157683103,0.3446793998256149
1503943623148,+0.984,+0.172,-0.053,+0.006,+0.369,+0.125,-0.908,+0.750,+0.188,+0.062,2, 0, -1, -2, 1, -1, 0, 1,-3.1351408710234208,0.3466749131924733
1503943623171,+0.984,+0.172,-0.053,+0.006,+0.369,+0.117,-0.911,+0.250,-0.750,-0.562,3, 3, 0, -1, 0, 0, 2, -1,-3.1351408710234208,0.3466749131924733
1503943623186,+0.984,+0.171,-0.053,+0.006,+0.367,+0.104,-0.914,-0.688,-0.750,-0.938,-8, -5, -1, 0, -1, 0, -1, 0,-3.1352429518945417,0.34457906747799105
1503943623209,+0.984,+0.171,-0.053,+0.006,+0.350,+0.114,-0.920,-1.875,-0.312,-0.500,8, -1, -2, -3, -1, -3, -1, -2,-3.1352429518945417,0.34457906747799105
1503943623230,+0.984,+0.171,-0.053,+0.006,+0.360,+0.125,-0.899,-2.500,-1.062,-0.625,-2, 4, 1, -1, 0, -2, -2, -3,-3.1352429518945417,0.34457906747799105
1503943623247,+0.984,+0.171,-0.053,+0.006,+0.357,+0.126,-0.907,-1.125,+0.250,-0.812,-7, -4, -3, -1, -1, 0, -2, -1,-3.1352429518945417,0.34457906747799105
1503943623269,+0.984,+0.171,-0.053,+0.007,+0.364,+0.120,-0.904,-0.750,-0.375,-0.812,-9, -6, 1, 0, 0, -2, -1, -1,-3.1372207957837053,0.3444787279041097
1503943623291,+0.984,+0.171,-0.053,+0.007,+0.358,+0.124,-0.903,-0.312,-0.688,-1.250,2, -2, 0, 1, 0, 0, 0, 0,-3.1372207957837053,0.3444787279041097
1503943623307,+0.984,+0.171,-0.053,+0.007,+0.362,+0.117,-0.906,+0.750,-0.812,-1.688,-2, 5, -3, -3, -2, 2, 0, -2,-3.1372207957837053,0.3444787279041097
1503943623329,+0.984,+0.171,-0.052,+0.008,+0.365,+0.103,-0.910,+1.688,-0.250,-1.750,0, -4, 0, 2, 0, -1, 1, 2,-3.1395423928429222,0.3443222333894464
1503943623358,+0.984,+0.171,-0.052,+0.008,+0.356,+0.107,-0.915,+0.688,-1.438,-1.312,-2, 1, 0, -1, 0, 0, 0, -1,-3.1395423928429222,0.3443222333894464
1503943623367,+0.984,+0.170,-0.052,+0.008,+0.352,+0.114,-0.913,+0.188,-1.875,-0.500,6, -1, -2, -1, -2, -1, 1, 1,-3.1396455810879207,0.3422279302726222
1503943623389,+0.984,+0.170,-0.052,+0.008,+0.348,+0.109,-0.914,-0.125,-1.000,-0.250,-1, 0, 0, -1, -1, -1, 0, -3,-3.1396455810879207,0.3422279302726222
1503943623411,+0.984,+0.170,-0.052,+0.008,+0.348,+0.116,-0.921,-1.000,+0.500,+0.125,-6, -3, 0, -2, 0, -1, -1, -1,-3.1396455810879207,0.3422279302726222
1503943623427,+0.984,+0.170,-0.052,+0.008,+0.356,+0.122,-0.909,-1.500,+0.562,+0.188,-4, -2, -1, 0, -1, -1, 0, 2,-3.1396455810879207,0.3422279302726222
1503943623449,+0.984,+0.170,-0.052,+0.008,+0.358,+0.115,-0.902,-1.438,+0.688,-0.188,8, 2, -4, -1, -4, -1, -1, -3,-3.1396455810879207,0.3422279302726222
1503943623471,+0.984,+0.170,-0.052,+0.008,+0.365,+0.112,-0.913,-0.812,+1.500,+0.062,15, 9, 3, 1, -1, -1, 0, -1,-3.1396455810879207,0.3422279302726222
1503943623487,+0.984,+0.170,-0.052,+0.008,+0.365,+0.115,-0.904,-1.375,+0.188,-0.188,-3, -10, -2, 0, 1, 0, -1, 1,-3.1396455810879207,0.3422279302726222
1503943623509,+0.984,+0.170,-0.052,+0.008,+0.353,+0.112,-0.905,-1.312,-1.000,+0.188,-8, -4, -1, 0, -1, -3, -2, 0,-3.1396455810879207,0.3422279302726222
1503943623531,+0.984,+0.170,-0.052,+0.008,+0.352,+0.110,-0.909,-1.250,-0.062,+0.250,-7, -6, -1, -2, -1, 0, -1, 0,-3.1396455810879207,0.3422279302726222
1503943623549,+0.984,+0.170,-0.052,+0.008,+0.354,+0.111,-0.915,-1.562,+1.375,+0.750,1, 1, -1, -1, -1, -2, 2, -1,-3.1396455810879207,0.3422279302726222
1503943623569,+0.984,+0.170,-0.052,+0.008,+0.363,+0.114,-0.913,-1.688,+0.625,+0.938,4, 2, 0, -1, -1, 1, -2, 1,-3.1396455810879207,0.3422279302726222
1503943623591,+0.984,+0.170,-0.052,+0.008,+0.356,+0.111,-0.900,-1.500,+0.125,+1.188,1, 0, -1, -1, 0, 0, 0, -1,-3.1396455810879207,0.3422279302726222
1503943623607,+0.984,+0.170,-0.052,+0.008,+0.351,+0.112,-0.913,-0.812,+0.625,+1.125,-4, -2, 2, -1, 0, -2, -1, -1,-3.1396455810879207,0.3422279302726222
1503943623629,+0.984,+0.171,-0.052,+0.008,+0.359,+0.116,-0.906,-1.312,+1.125,+0.625,-1, -3, -2, -1, -1, -1, -2, -2,-3.1395423928429222,0.3443222333894464
1503943623652,+0.984,+0.171,-0.052,+0.008,+0.357,+0.116,-0.907,-1.750,+1.125,+0.188,-5, -2, 1, 1, 0, -2, -1, 0,-3.1395423928429222,0.3443222333894464
1503943623667,+0.984,+0.171,-0.052,+0.008,+0.358,+0.122,-0.904,-1.688,+1.500,+0.250,1, -1, -1, -2, -2, -1, -3, -2,-3.1395423928429222,0.3443222333894464
1503943623689,+0.984,+0.171,-0.052,+0.008,+0.370,+0.120,-0.900,-1.188,+0.938,+0.250,-7, -2, 0, -1, 0, -1, -1, -1,-3.1395423928429222,0.3443222333894464
1503943623711,+0.984,+0.171,-0.052,+0.008,+0.363,+0.116,-0.905,-1.250,+0.188,+0.625,2, -1, -1, -1, -1, -2, -2, 0,-3.1395423928429222,0.3443222333894464
1503943623727,+0.984,+0.171,-0.052,+0.008,+0.354,+0.121,-0.898,-1.062,+0.125,+0.312,-6, -2, -1, 0, 2, 0, 1, -2,-3.1395423928429222,0.3443222333894464
1503943623750,+0.984,+0.171,-0.052,+0.008,+0.357,+0.113,-0.908,-0.312,+1.000,-0.125,-11, 2, -1, 0, -1, -1, -2, 0,-3.1395423928429222,0.3443222333894464
1503943623771,+0.984,+0.172,-0.052,+0.008,+0.354,+0.108,-0.912,-0.062,+1.875,-0.312,7, 2, 1, -2, 0, -1, 1, 1,-3.1394393546520756,0.3464178080155165
1503943623787,+0.984,+0.172,-0.051,+0.008,+0.360,+0.093,-0.922,-1.250,+1.375,+0.188,-4, -2, 1, 0, -3, -1, -3, -2,-3.1397848458211346,0.34636262183349076
1503943623809,+0.984,+0.172,-0.051,+0.008,+0.355,+0.115,-0.897,-2.062,+0.625,+0.938,5, 0, -1, 0, 0, -2, -1, 0,-3.1397848458211346,0.34636262183349076
1503943623830,+0.984,+0.172,-0.051,+0.008,+0.367,+0.123,-0.898,-1.500,+0.688,+1.375,-5, -3, -1, -3, -2, 0, 1, 0,-3.1397848458211346,0.34636262183349076
1503943623847,+0.984,+0.172,-0.051,+0.008,+0.369,+0.117,-0.907,-0.688,+0.062,+1.312,-3, -3, -3, 0, 0, 1, -1, 1,-3.1397848458211346,0.34636262183349076
1503943623869,+0.984,+0.172,-0.051,+0.008,+0.357,+0.117,-0.909,-1.062,-0.125,+0.812,-5, -3, -2, 0, -1, -2, 1, -2,-3.1397848458211346,0.34636262183349076
1503943623891,+0.984,+0.172,-0.051,+0.008,+0.366,+0.099,-0.901,-0.812,+0.812,+0.312,5, 2, 1, -4, 0, -1, -1, 1,-3.1397848458211346,0.34636262183349076
1503943623907,+0.984,+0.172,-0.051,+0.008,+0.361,+0.115,-0.902,-1.000,+1.000,+0.250,-2, 6, 1, 0, 0, 1, 0, -3,-3.1397848458211346,0.34636262183349076
1503943623929,+0.984,+0.172,-0.051,+0.008,+0.368,+0.122,-0.901,-0.375,+0.312,+0.125,2, 0, 0, -1, -2, -1, -4, -1,-3.1397848458211346,0.34636262183349076
1503943623953,+0.984,+0.172,-0.051,+0.008,+0.371,+0.110,-0.901,+0.000,+0.875,+0.125,3, -1, -4, 0, -1, -1, 0, -1,-3.1397848458211346,0.34636262183349076
1503943623967,+0.984,+0.172,-0.051,+0.008,+0.367,+0.105,-0.910,-0.250,+0.438,+0.062,-5, -8, -1, -2, -2, -1, -1, -1,-3.1397848458211346,0.34636262183349076
1503943623989,+0.984,+0.172,-0.051,+0.008,+0.365,+0.104,-0.901,-1.188,-0.625,-0.312,-2, 0, 0, 0, -2, -1, -1, -1,-3.1397848458211346,0.34636262183349076
1503943624011,+0.984,+0.172,-0.051,+0.008,+0.356,+0.106,-0.914,-1.000,-0.062,+0.250,-1, -2, -1, -1, 0, -1, -1, 0,-3.1397848458211346,0.34636262183349076
1503943624027,+0.984,+0.172,-0.051,+0.008,+0.362,+0.120,-0.900,-1.625,-0.500,+0.875,-4, -8, -3, -1, -1, 0, 0, 0,-3.1397848458211346,0.34636262183349076
1503943624049,+0.984,+0.172,-0.051,+0.008,+0.366,+0.126,-0.899,-0.750,-0.188,+0.500,-3, -1, 1, 1, -1, -1, -3, -1,-3.1397848458211346,0.34636262183349076
1503943624071,+0.984,+0.172,-0.051,+0.008,+0.366,+0.112,-0.903,-0.625,-0.375,+0.500,-8, -3, 0, 0, -2, -1, -1, -3,-3.1397848458211346,0.34636262183349076
1503943624087,+0.984,+0.172,-0.051,+0.008,+0.364,+0.112,-0.917,-0.500,-0.500,+0.125,0, -1, 0, 1, 1, 1, 1, 2,-3.1397848458211346,0.34636262183349076
1503943624109,+0.984,+0.172,-0.051,+0.008,+0.361,+0.107,-0.910,-0.750,+0.000,-0.500,-7, -3, -3, -2, -2, -3, -3, -6,-3.1397848458211346,0.34636262183349076
1503943624131,+0.984,+0.173,-0.051,+0.009,+0.357,+0.108,-0.903,-0.188,+1.500,-0.250,2, -2, -2, -1, 0, 0, 0, 3,3.141526413137046,0.348362672904427
1503943624147,+0.984,+0.173,-0.051,+0.009,+0.364,+0.109,-0.903,+0.000,+1.562,-0.062,0, -1, -2, -1, -1, 1, 1, 1,3.141526413137046,0.348362672904427
1503943624169,+0.984,+0.173,-0.051,+0.009,+0.367,+0.117,-0.903,-0.062,-0.438,+0.688,7, 3, 2, 0, 0, -1, -2, 0,3.141526413137046,0.348362672904427
1503943624198,+0.984,+0.173,-0.050,+0.009,+0.364,+0.112,-0.904,+0.125,-0.750,+0.375,2, 0, -1, -1, -1, 0, -1, -2,3.141179152604699,0.34831036953873634
1503943624207,+0.984,+0.173,-0.050,+0.009,+0.373,+0.092,-0.916,-0.125,+0.500,+0.375,-4, -3, -1, -3, -2, -1, 0, 2,3.141179152604699,0.34831036953873634
1503943624229,+0.984,+0.173,-0.050,+0.009,+0.366,+0.107,-0.924,-1.875,-0.375,+0.438,-1, 2, -2, -1, -1, -2, -1, 0,3.141179152604699,0.34831036953873634
1503943624254,+0.984,+0.173,-0.050,+0.009,+0.358,+0.113,-0.896,-2.875,-1.938,+0.250,-5, -3, 0, 1, -2, -3, -3, -3,3.141179152604699,0.34831036953873634
1503943624267,+0.984,+0.173,-0.050,+0.009,+0.356,+0.111,-0.905,-1.000,-0.125,+0.438,-1, -3, -3, 0, 0, 0, 0, -1,3.141179152604699,0.34831036953873634
1503943624290,+0.984,+0.173,-0.050,+0.009,+0.361,+0.113,-0.912,-0.312,+0.812,+0.625,8, 3, -1, -1, -2, -1, 0, -1,3.141179152604699,0.34831036953873634
1503943624311,+0.984,+0.173,-0.050,+0.009,+0.371,+0.109,-0.909,-0.438,+0.188,+0.375,-2, -2, 1, 2, -1, -3, -2, -4,3.141179152604699,0.34831036953873634
1503943624327,+0.984,+0.173,-0.050,+0.009,+0.356,+0.113,-0.907,-1.500,+0.188,+0.562,4, 2, 0, -2, -1, -1, -1, -1,3.141179152604699,0.34831036953873634
1503943624349,+0.984,+0.173,-0.050,+0.009,+0.364,+0.111,-0.903,-1.688,+0.125,+0.688,1, 1, 0, 1, 0, -1, 0, 2,3.141179152604699,0.34831036953873634
1503943624371,+0.984,+0.173,-0.050,+0.009,+0.375,+0.110,-0.906,-2.125,-0.062,+0.625,-16, -11, -1, -2, -1, -1, 0, -2,3.141179152604699,0.34831036953873634
1503943624388,+0.984,+0.173,-0.050,+0.009,+0.369,+0.109,-0.909,-1.750,-0.562,+0.375,0, 6, 1, -1, 1, 0, -2, 1,3.141179152604699,0.34831036953873634
1503943624409,+0.984,+0.173,-0.050,+0.009,+0.360,+0.109,-0.905,-0.938,-0.500,-0.125,4, 1, -4, -1, -1, -1, 2, 0,3.141179152604699,0.34831036953873634
1503943624431,+0.984,+0.173,-0.050,+0.009,+0.359,+0.104,-0.896,+0.438,+0.875,-0.125,-10, -3, 0, 3, -1, -1, -1, -1,3.141179152604699,0.34831036953873634
1503943624447,+0.984,+0.173,-0.050,+0.009,+0.365,+0.115,-0.909,-0.125,-0.250,+0.375,2, 0, 2, -1, -2, 0, -1, -1,3.141179152604699,0.34831036953873634
1503943624469,+0.984,+0.173,-0.050,+0.009,+0.364,+0.113,-0.907,-0.938,-0.125,+0.188,-5, -2, 2, -1, -1, -1, -3, 2,3.141179152604699,0.34831036953873634
1503943624491,+0.984,+0.173,-0.050,+0.009,+0.357,+0.108,-0.909,-1.438,+0.125,+0.500,7, 3, -2, -2, -2, 0, -1, 0,3.141179152604699,0.34831036953873634
1503943624507,+0.984,+0.173,-0.050,+0.009,+0.358,+0.112,-0.909,-1.000,+0.312,+0.562,-11, -1, -2, 1, 0, -2, 0, 1,3.141179152604699,0.34831036953873634
1503943624530,+0.984,+0.173,-0.050,+0.009,+0.363,+0.095,-0.908,-1.250,+0.875,+0.062,-3, -5, -1, -1, -2, 0, 1, 2,3.141179152604699,0.34831036953873634
1503943624551,+0.984,+0.173,-0.050,+0.009,+0.362,+0.112,-0.910,-1.438,+1.938,+0.188,1, 1, 0, -2, -2, -1, 1, -1,3.141179152604699,0.34831036953873634
1503943624567,+0.984,+0.173,-0.050,+0.009,+0.368,+0.112,-0.899,-1.812,+0.312,+0.562,-1, 1, -1, 0, 1, -2, -1, -1,3.141179152604699,0.34831036953873634
1503943624590,+0.984,+0.173,-0.050,+0.009,+0.368,+0.116,-0.902,-1.250,+0.438,+0.625,-13, -5, -3, -1, -1, -2, 0, -1,3.141179152604699,0.34831036953873634
1503943624611,+0.984,+0.173,-0.050,+0.009,+0.359,+0.110,-0.906,-1.000,-0.312,+1.188,1, 3, 2, -3, -1, 0, 0, -3,3.141179152604699,0.34831036953873634
1503943624634,+0.984,+0.173,-0.050,+0.009,+0.369,+0.103,-0.902,-0.500,-0.188,+0.750,2, 2, -2, -1, -2, -3, -3, -2,3.141179152604699,0.34831036953873634
1503943624649,+0.984,+0.173,-0.050,+0.009,+0.367,+0.111,-0.902,-0.500,+0.688,+0.625,1, -1, 0, -1, 1, -1, -1, 0,3.141179152604699,0.34831036953873634
1503943624671,+0.984,+0.173,-0.050,+0.009,+0.370,+0.111,-0.907,-0.750,+0.625,-0.375,0, 0, 0, 0, 0, -1, -3, -1,3.141179152604699,0.34831036953873634
1503943624687,+0.984,+0.173,-0.050,+0.009,+0.370,+0.110,-0.911,-1.750,+0.438,-0.688,-6, -5, -2, 1, -2, 0, -2, -1,3.141179152604699,0.34831036953873634
1503943624709,+0.984,+0.173,-0.050,+0.009,+0.364,+0.096,-0.896,-2.250,-0.875,-0.438,0, -5, -4, -1, 0, 0, 1, 0,3.141179152604699,0.34831036953873634
1503943624732,+0.984,+0.173,-0.050,+0.009,+0.370,+0.104,-0.909,-1.312,-0.562,+0.438,5, -5, -4, -2, -1, -1, -1, 0,3.141179152604699,0.34831036953873634
1503943624747,+0.984,+0.173,-0.050,+0.009,+0.358,+0.102,-0.905,-1.875,-1.625,+0.625,2, 1, 0, 0, 0, -1, -1, -1,3.141179152604699,0.34831036953873634
1503943624769,+0.984,+0.173,-0.050,+0.009,+0.357,+0.104,-0.903,-1.250,-0.250,+0.438,1, 3, 0, -1, 0, 0, 1, -1,3.141179152604699,0.34831036953873634
1503943624791,+0.984,+0.173,-0.050,+0.009,+0.356,+0.106,-0.900,-0.688,+0.438,+0.438,2, 3, -2, -2, -3, 0, -1, 0,3.141179152604699,0.34831036953873634
1503943624807,+0.984,+0.173,-0.050,+0.009,+0.361,+0.118,-0.904,+0.375,+1.562,+0.500,6, -4, 0, 0, -1, 0, 0, -2,3.141179152604699,0.34831036953873634
1503943624830,+0.984,+0.173,-0.050,+0.009,+0.378,+0.113,-0.905,-0.188,+1.000,+0.500,0, -2, 1, -2, -2, -1, -2, -1,3.141179152604699,0.34831036953873634
1503943624851,+0.984,+0.173,-0.050,+0.009,+0.377,+0.122,-0.905,-1.250,+0.125,+0.375,10, 5, 1, -1, 0, 0, -2, 0,3.141179152604699,0.34831036953873634
1503943624868,+0.984,+0.174,-0.050,+0.009,+0.371,+0.119,-0.905,-2.000,-0.750,+0.438,-10, -7, -2, -2, -2, -1, -1, -4,3.141279734870617,0.35040774822299176
1503943624892,+0.984,+0.173,-0.050,+0.009,+0.363,+0.109,-0.904,-1.625,-2.062,+0.312,-4, -3, 0, -1, 1, 1, -1, 0,3.141179152604699,0.34831036953873634
1503943624911,+0.984,+0.173,-0.050,+0.009,+0.358,+0.099,-0.905,-0.625,-0.250,+0.688,-2, 1, 1, 0, -2, -3, -3, -1,3.141179152604699,0.34831036953873634
1503943624927,+0.984,+0.173,-0.050,+0.009,+0.358,+0.092,-0.915,-0.812,+0.125,+0.250,-3, -5, -1, 0, -1, 0, 0, 0,3.141179152604699,0.34831036953873634
1503943624949,+0.984,+0.173,-0.050,+0.009,+0.363,+0.101,-0.902,-1.812,+1.500,-0.062,1, 0, -1, 1, 0, -1, 0, 2,3.141179152604699,0.34831036953873634
1503943624971,+0.984,+0.173,-0.050,+0.009,+0.377,+0.116,-0.900,-1.438,+0.062,+0.438,-1, -1, -2, -2, -1, -1, 0, -2,3.141179152604699,0.34831036953873634
1503943624987,+0.984,+0.173,-0.050,+0.009,+0.373,+0.120,-0.897,-0.500,-1.500,+0.500,2, -2, -1, -2, -1, 0, 0, 1,3.141179152604699,0.34831036953873634
1503943625009,+0.984,+0.173,-0.049,+0.009,+0.363,+0.107,-0.910,+0.375,-2.000,+0.438,16, 8, 0, -3, -1, -1, -2, -2,3.1408318921720797,0.34825945857701707
1503943625031,+0.984,+0.173,-0.049,+0.009,+0.360,+0.097,-0.914,-0.562,-0.438,+0.062,-13, -2, -1, 1, -2, -2, 0, 1,3.1408318921720797,0.34825945857701707
1503943625047,+0.984,+0.173,-0.049,+0.009,+0.361,+0.094,-0.920,-1.250,+1.250,-0.500,4, 2, 0, -1, 1, -1, -1, 2,3.1408318921720797,0.34825945857701707
1503943625069,+0.984,+0.173,-0.049,+0.009,+0.359,+0.111,-0.897,-2.062,+0.750,+0.125,-5, -5, 0, 0, -2, 0, -1, -3,3.1408318921720797,0.34825945857701707
1503943625095,+0.984,+0.173,-0.049,+0.009,+0.365,+0.118,-0.904,-1.000,+0.188,+0.812,-1, -2, -1, -1, 0, 1, 0, 1,3.1408318921720797,0.34825945857701707
1503943625107,+0.984,+0.173,-0.049,+0.009,+0.372,+0.115,-0.907,-1.062,-0.875,+1.375,-3, 0, -4, 1, -1, 0, 1, 0,3.1408318921720797,0.34825945857701707
1503943625130,+0.984,+0.173,-0.049,+0.009,+0.368,+0.111,-0.912,-0.812,-0.438,+0.938,1, -5, -3, -1, -3, -1, 0, 0,3.1408318921720797,0.34825945857701707
1503943625152,+0.984,+0.173,-0.049,+0.009,+0.359,+0.108,-0.910,-1.812,+0.000,+0.312,-8, -3, 0, 1, 0, 0, -3, -7,3.1408318921720797,0.34825945857701707
1503943625167,+0.984,+0.173,-0.049,+0.009,+0.359,+0.102,-0.906,-1.125,+0.375,+0.062,3, -3, -2, -1, 0, -3, 0, 1,3.1408318921720797,0.34825945857701707
1503943625189,+0.984,+0.173,-0.049,+0.009,+0.363,+0.098,-0.908,-0.312,+1.188,+0.062,5, 2, -2, 0, -1, 0, -2, 1,3.1408318921720797,0.34825945857701707
1503943625212,+0.984,+0.173,-0.049,+0.009,+0.366,+0.103,-0.912,-0.250,+0.938,+0.750,-3, 0, 0, -2, 1, 0, 0, 2,3.1408318921720797,0.34825945857701707
1503943625228,+0.984,+0.174,-0.049,+0.009,+0.368,+0.114,-0.902,-0.625,+1.000,+0.812,9, 4, 0, -2, -2, 0, -4, -1,3.140930710220458,0.3503564332556293
1503943625250,+0.984,+0.174,-0.049,+0.009,+0.369,+0.118,-0.899,-1.500,-0.062,+1.062,-6, -4, 1, 0, 0, -1, 0, -3,3.140930710220458,0.3503564332556293
1503943625272,+0.984,+0.174,-0.049,+0.009,+0.370,+0.124,-0.909,-2.000,+0.250,+0.688,-7, -6, -5, -3, -1, -4, 0, 1,3.140930710220458,0.3503564332556293
1503943625287,+0.984,+0.174,-0.049,+0.009,+0.375,+0.106,-0.907,-2.250,+0.250,-0.312,2, 5, 1, 0, -2, 1, -1, 0,3.140930710220458,0.3503564332556293
1503943625309,+0.983,+0.174,-0.049,+0.009,+0.371,+0.099,-0.911,-1.688,+0.312,-0.875,-7, 3, 2, 0, 0, -2, 0, -1,3.1409462126298258,0.35002792444828773
1503943625332,+0.983,+0.174,-0.049,+0.009,+0.359,+0.098,-0.912,-1.625,+0.375,-0.375,-4, -4, -2, -2, -2, -1, -3, -5,3.1409462126298258,0.35002792444828773
1503943625347,+0.983,+0.174,-0.049,+0.009,+0.359,+0.104,-0.904,-1.375,-0.438,+0.125,11, -2, -1, -1, -3, 1, 1, 0,3.1409462126298258,0.35002792444828773
1503943625369,+0.983,+0.174,-0.049,+0.009,+0.369,+0.101,-0.898,-0.500,-0.562,+0.938,-5, 2, 3, 1, 1, -1, 0, 0,3.1409462126298258,0.35002792444828773
1503943625392,+0.984,+0.174,-0.049,+0.009,+0.365,+0.099,-0.913,+0.562,-0.250,+1.188,1, 1, -1, 0, 0, -1, -2, 1,3.140930710220458,0.3503564332556293
1503943625407,+0.984,+0.174,-0.049,+0.009,+0.365,+0.108,-0.912,-0.188,+0.438,+1.000,7, 7, 1, -2, -1, 0, 0, -1,3.140930710220458,0.3503564332556293
1503943625430,+0.984,+0.174,-0.049,+0.009,+0.363,+0.110,-0.908,-1.312,+0.375,+0.438,-1, -4, -2, -1, -1, -1, 2, 2,3.140930710220458,0.3503564332556293
1503943625452,+0.983,+0.174,-0.049,+0.009,+0.369,+0.112,-0.908,-1.500,+1.188,+0.500,5, 3, -1, 1, 1, -1, -2, 0,3.1409462126298258,0.35002792444828773
1503943625467,+0.983,+0.174,-0.049,+0.009,+0.373,+0.120,-0.907,-2.062,-0.125,+0.938,-1, -3, -2, -2, -3, -1, 0, 0,3.1409462126298258,0.35002792444828773
1503943625489,+0.983,+0.174,-0.049,+0.009,+0.373,+0.112,-0.900,-2.125,-0.750,+0.812,2, -2, 0, 0, -1, 0, -1, 0,3.1409462126298258,0.35002792444828773
1503943625511,+0.983,+0.174,-0.049,+0.009,+0.365,+0.113,-0.901,-1.688,-0.250,+0.750,-10, -2, -2, -1, -2, 1, -1, -2,3.1409462126298258,0.35002792444828773
1503943625533,+0.983,+0.174,-0.049,+0.009,+0.365,+0.107,-0.903,-1.875,+1.062,+0.250,-1, 3, 0, -2, -2, 0, 1, 0,3.1409462126298258,0.35002792444828773
1503943625555,+0.983,+0.174,-0.049,+0.009,+0.373,+0.114,-0.897,-1.562,+0.562,-0.062,6, -1, -2, -2, -1, -3, 1, -1,3.1409462126298258,0.35002792444828773
1503943625571,+0.983,+0.174,-0.049,+0.009,+0.371,+0.104,-0.902,-1.000,+0.750,-0.375,-1, 2, 0, -2, 0, 1, 1, 1,3.1409462126298258,0.35002792444828773
1503943625593,+0.983,+0.174,-0.049,+0.009,+0.375,+0.107,-0.907,-0.938,-0.438,-0.125,3, -2, 0, -2, 0, 0, 0, 1,3.1409462126298258,0.35002792444828773
1503943625608,+0.983,+0.174,-0.049,+0.009,+0.366,+0.087,-0.902,-1.000,-0.625,-0.250,-6, -4, -2, 1, 0, -1, 1, -1,3.1409462126298258,0.35002792444828773
1503943625631,+0.983,+0.174,-0.049,+0.009,+0.360,+0.090,-0.910,-1.688,-0.875,+0.312,3, -3, -3, 0, -2, -1, 1, -2,3.1409462126298258,0.35002792444828773
1503943625653,+0.983,+0.174,-0.049,+0.009,+0.358,+0.104,-0.906,-1.812,-0.375,+0.438,-1, 3, -1, -1, -3, 0, -2, -1,3.1409462126298258,0.35002792444828773
1503943625668,+0.983,+0.174,-0.049,+0.009,+0.364,+0.110,-0.903,-0.875,+0.188,+0.625,6, 3, 2, -1, 1, -2, 0, 0,3.1409462126298258,0.35002792444828773
1503943625690,+0.983,+0.174,-0.049,+0.009,+0.366,+0.107,-0.904,-0.562,+0.938,+0.500,-9, -8, -1, 0, -2, 1, -1, -1,3.1409462126298258,0.35002792444828773
1503943625713,+0.983,+0.174,-0.049,+0.009,+0.372,+0.108,-0.907,-0.562,+1.000,+0.312,3, 1, 0, 2, 0, -3, -3, -1,3.1409462126298258,0.35002792444828773
1503943625731,+0.983,+0.174,-0.049,+0.009,+0.376,+0.114,-0.901,-1.062,+0.250,+0.312,-1, 1, -1, -3, -1, 0, 0, 0,3.1409462126298258,0.35002792444828773
1503943625751,+0.983,+0.175,-0.049,+0.009,+0.373,+0.112,-0.907,-0.938,-0.250,+0.438,1, 0, -3, -1, -2, 0, -4, -3,3.1410452752248563,0.3521245600180376
1503943625773,+0.983,+0.175,-0.049,+0.009,+0.370,+0.106,-0.902,-1.750,-0.812,+0.438,1, -2, -3, -3, 1, -1, 2, -2,3.1410452752248563,0.3521245600180376
1503943625788,+0.983,+0.175,-0.049,+0.009,+0.368,+0.114,-0.899,-1.812,-0.938,+0.188,-5, -8, 0, 0, -3, -2, 0, 2,3.1410452752248563,0.3521245600180376
1503943625812,+0.983,+0.175,-0.049,+0.009,+0.370,+0.115,-0.906,-1.375,-0.625,+0.188,2, 1, -2, 0, 1, -3, -1, 0,3.1410452752248563,0.3521245600180376
1503943625833,+0.983,+0.174,-0.049,+0.009,+0.366,+0.115,-0.910,-1.625,-1.188,+0.062,-1, -3, 1, 0, 0, 3, 0, 3,3.1409462126298258,0.35002792444828773
1503943625848,+0.983,+0.174,-0.049,+0.009,+0.357,+0.090,-0.907,-1.188,-0.812,-0.188,7, 5, 1, -1, -1, 1, -2, -2,3.1409462126298258,0.35002792444828773
1503943625871,+0.983,+0.174,-0.049,+0.009,+0.352,+0.082,-0.914,-0.688,-0.062,+0.500,-1, 3, 2, -2, -1, -3, -2, -4,3.1409462126298258,0.35002792444828773
1503943625893,+0.983,+0.174,-0.049,+0.009,+0.358,+0.101,-0.908,-1.000,+0.688,+0.562,11, -1, -3, -1, -1, -2, -2, -2,3.1409462126298258,0.35002792444828773
1503943625916,+0.983,+0.175,-0.049,+0.009,+0.371,+0.107,-0.904,-0.125,+1.688,+0.625,-6, 0, -1, 0, 1, 0, -2, -1,3.1410452752248563,0.3521245600180376
1503943625932,+0.983,+0.175,-0.049,+0.009,+0.377,+0.117,-0.904,-0.688,+0.562,+0.562,-3, 1, 0, 1, 2, -1, 0, -1,3.1410452752248563,0.3521245600180376
1503943625953,+0.983,+0.175,-0.049,+0.009,+0.375,+0.121,-0.896,-1.062,-0.688,+0.375,-4, -6, -2, -3, -1, 1, 0, -2,3.1410452752248563,0.3521245600180376
1503943625968,+0.983,+0.174,-0.048,+0.009,+0.371,+0.104,-0.906,-0.812,-1.625,+0.688,0, -1, 0, 1, 0, -1, 0, 2,3.140595805571833,0.34997806473811394
1503943625990,+0.983,+0.174,-0.048,+0.009,+0.360,+0.099,-0.912,-1.625,-0.250,+0.000,-10, -5, -2, -1, -1, 0, -1, -1,3.140595805571833,0.34997806473811394
1503943626013,+0.983,+0.174,-0.048,+0.009,+0.362,+0.103,-0.906,-2.125,+0.562,-0.375,0, -1, -2, 1, -1, -2, 1, -1,3.140595805571833,0.34997806473811394
1503943626028,+0.983,+0.175,-0.049,+0.009,+0.370,+0.108,-0.904,-1.938,+1.375,-0.375,-5, -1, -1, 0, -1, 0, 0, 1,3.1410452752248563,0.3521245600180376
1503943626050,+0.983,+0.175,-0.049,+0.009,+0.373,+0.111,-0.900,-1.625,-0.125,+0.250,9, 0, 1, 0, 0, 0, 0, -2,3.1410452752248563,0.3521245600180376
1503943626073,+0.983,+0.175,-0.049,+0.009,+0.372,+0.109,-0.904,-1.188,-0.438,+0.625,6, 1, -1, -2, -3, 0, -1, 1,3.1410452752248563,0.3521245600180376
1503943626088,+0.983,+0.175,-0.049,+0.009,+0.366,+0.101,-0.907,-0.938,-0.750,+0.250,0, 1, -1, -1, -2, -1, 0, 1,3.1410452752248563,0.3521245600180376
1503943626111,+0.983,+0.175,-0.049,+0.009,+0.362,+0.106,-0.912,-1.500,+0.188,+0.000,-1, -1, -2, 0, -1, -1, -4, -3,3.1410452752248563,0.3521245600180376
1503943626134,+0.983,+0.175,-0.049,+0.009,+0.365,+0.104,-0.912,-1.250,+0.188,+0.125,-1, 0, 0, 1, -1, -1, 0, -1,3.1410452752248563,0.3521245600180376
1503943626148,+0.983,+0.175,-0.049,+0.009,+0.360,+0.109,-0.901,-1.688,+0.062,+0.500,9, -1, -2, 0, -1, -2, 1, -1,3.1410452752248563,0.3521245600180376
1503943626173,+0.983,+0.175,-0.049,+0.009,+0.373,+0.104,-0.907,-0.812,+0.750,+0.750,-23, -9, -1, 0, -3, -2, 0, -3,3.1410452752248563,0.3521245600180376
1503943626193,+0.983,+0.175,-0.049,+0.009,+0.372,+0.114,-0.901,-0.938,-0.188,+1.188,4, 0, 1, -1, 1, 1, -3, 0,3.1410452752248563,0.3521245600180376
1503943626209,+0.983,+0.175,-0.049,+0.009,+0.365,+0.096,-0.915,-0.625,+0.250,+0.938,4, 1, -1, 0, 0, 1, 0, -1,3.1410452752248563,0.3521245600180376
1503943626231,+0.983,+0.175,-0.049,+0.009,+0.372,+0.108,-0.911,-0.938,+0.812,+0.750,5, 0, -1, 2, 0, -1, -1, -1,3.1410452752248563,0.3521245600180376
1503943626253,+0.983,+0.175,-0.049,+0.009,+0.364,+0.116,-0.909,-2.375,+0.312,+0.125,6, 3, -1, 0, -1, -4, 0, 2,3.1410452752248563,0.3521245600180376
1503943626268,+0.983,+0.175,-0.049,+0.009,+0.371,+0.108,-0.908,-1.312,+1.062,-0.688,4, 1, -1, -4, -1, -2, -2, -8,3.1410452752248563,0.3521245600180376
1503943626291,+0.983,+0.175,-0.049,+0.009,+0.375,+0.105,-0.901,-1.562,+0.000,+0.062,2, 1, 1, -1, -2, -1, 0, 2,3.1410452752248563,0.3521245600180376
1503943626313,+0.983,+0.175,-0.049,+0.009,+0.374,+0.110,-0.905,-1.250,-1.000,+0.000,-3, 2, -1, -1, -1, -1, -1, 1,3.1410452752248563,0.3521245600180376
1503943626328,+0.983,+0.175,-0.049,+0.009,+0.368,+0.097,-0.913,-2.250,-1.562,+0.312,-1, 0, 0, -3, 0, 2, 2, 3,3.1410452752248563,0.3521245600180376
1503943626351,+0.983,+0.174,-0.049,+0.009,+0.356,+0.105,-0.908,-1.938,-2.000,+0.812,-5, 0, 2, -1, 1, 1, 0, -2,3.1409462126298258,0.35002792444828773
1503943626373,+0.983,+0.174,-0.049,+0.009,+0.361,+0.103,-0.902,-1.188,-0.750,+0.625,6, -2, -1, 0, -2, 0, -1, -2,3.1409462126298258,0.35002792444828773
1503943626388,+0.983,+0.174,-0.049,+0.009,+0.364,+0.102,-0.910,-0.188,+0.875,+0.250,-2, -4, -1, -1, 0, -3, -1, -2,3.1409462126298258,0.35002792444828773
1503943626411,+0.983,+0.175,-0.049,+0.009,+0.370,+0.107,-0.905,-0.750,+1.125,-0.062,-6, 0, 1, -3, -1, 1, 0, 2,3.1410452752248563,0.3521245600180376
1503943626438,+0.983,+0.175,-0.049,+0.009,+0.378,+0.120,-0.904,-1.375,-0.625,+0.062,-6, -1, -3, 1, 0, -1, -1, 0,3.1410452752248563,0.3521245600180376
1503943626448,+0.983,+0.174,-0.049,+0.009,+0.373,+0.119,-0.896,-1.688,-2.438,+0.688,-5, -2, -2, -2, -2, -3, -3, -3,3.1409462126298258,0.35002792444828773
1503943626471,+0.983,+0.174,-0.049,+0.009,+0.366,+0.115,-0.903,-0.875,-3.125,+1.250,2, 2, -2, -2, 0, -2, 0, -2,3.1409462126298258,0.35002792444828773
1503943626493,+0.984,+0.173,-0.049,+0.008,+0.368,+0.104,-0.911,-1.938,-4.188,+1.438,8, 6, 1, 1, -4, -1, -2, -3,-3.140378245884654,0.34835202814080996
1503943626508,+0.984,+0.173,-0.049,+0.008,+0.368,+0.101,-0.904,-2.438,-4.062,+1.188,-5, -6, -2, 0, 0, -1, 0, 1,-3.140378245884654,0.34835202814080996
1503943626530,+0.984,+0.172,-0.049,+0.008,+0.355,+0.105,-0.904,-2.688,-3.562,+1.562,8, -3, -3, -2, -1, -1, 0, 0,-3.1404758293715016,0.34625640835158666
1503943626553,+0.984,+0.171,-0.050,+0.008,+0.356,+0.114,-0.908,-2.062,-3.000,+1.312,4, -2, -1, 0, -2, 0, 1, -2,-3.140229832145133,0.34421407701462586
1503943626570,+0.984,+0.171,-0.050,+0.008,+0.370,+0.107,-0.899,-1.312,-2.562,+0.688,1, 6, 1, -1, 0, 0, 0, -2,-3.140229832145133,0.34421407701462586
1503943626591,+0.984,+0.171,-0.049,+0.007,+0.364,+0.104,-0.907,-0.562,-2.625,+1.125,-1, -6, 1, 1, 0, -2, -3, -3,-3.138595659565796,0.3442547727596817
1503943626613,+0.984,+0.170,-0.049,+0.007,+0.358,+0.104,-0.914,-1.562,-3.312,+0.750,-4, -5, -1, -1, -2, 0, -2, -1,-3.138692163690797,0.3421617727166833
1503943626628,+0.984,+0.170,-0.049,+0.007,+0.348,+0.101,-0.913,-1.750,-1.688,+0.625,-3, 0, 0, 0, -1, 0, 0, -1,-3.138692163690797,0.3421617727166833
1503943626651,+0.984,+0.170,-0.050,+0.007,+0.357,+0.115,-0.907,-1.875,-1.125,+0.438,-9, -5, -3, 0, 0, 1, 0, -2,-3.1383502219369204,0.3422152915682233
1503943626673,+0.984,+0.169,-0.050,+0.007,+0.359,+0.125,-0.913,-2.000,-1.188,+0.688,0, 3, -1, -1, 0, -1, -2, 2,-3.138448649150876,0.34012315617048283
1503943626688,+0.984,+0.169,-0.050,+0.007,+0.354,+0.110,-0.904,-1.688,-1.250,+0.312,23, 9, 0, -3, 1, -2, 1, 3,-3.138448649150876,0.34012315617048283
1503943626711,+0.984,+0.169,-0.050,+0.007,+0.365,+0.114,-0.908,-1.875,-1.750,+1.125,0, 0, 0, -2, -1, -1, 0, -3,-3.138448649150876,0.34012315617048283
1503943626733,+0.984,+0.169,-0.050,+0.007,+0.366,+0.110,-0.907,-2.062,-3.375,+1.625,-11, -4, -1, 2, -1, 0, -2, 0,-3.138448649150876,0.34012315617048283
1503943626748,+0.984,+0.168,-0.050,+0.006,+0.354,+0.094,-0.914,-2.125,-3.562,+1.125,-1, 0, -2, -1, -2, 0, -3, -2,-3.1365653030987644,0.3381271070580753
1503943626771,+0.984,+0.168,-0.050,+0.006,+0.354,+0.112,-0.907,-2.688,-3.562,+1.000,-12, -2, 1, -1, -1, 0, -1, 0,-3.1365653030987644,0.3381271070580753
1503943626793,+0.985,+0.167,-0.051,+0.006,+0.361,+0.120,-0.900,-1.688,-3.875,+0.500,3, -3, -1, 0, -2, -2, 0, 1,-3.136358959703056,0.3364101015304419
1503943626809,+0.985,+0.166,-0.051,+0.006,+0.350,+0.109,-0.917,-0.938,-4.375,+0.688,2, -6, -2, -2, -2, -3, -1, 1,-3.136457910527119,0.334319731062869
1503943626830,+0.985,+0.166,-0.050,+0.006,+0.352,+0.094,-0.916,-1.625,-4.938,+0.438,-12, -3, 1, 0, -1, -1, 1, -4,-3.136791382277615,0.3342645065903135
1503943626853,+0.985,+0.165,-0.050,+0.006,+0.339,+0.100,-0.914,-2.188,-3.250,+0.312,-6, -5, 0, -3, 0, 0, -1, -4,-3.136888697934432,0.33217578299642536
1503943626868,+0.985,+0.164,-0.051,+0.006,+0.349,+0.120,-0.902,-2.438,-3.500,+0.688,-6, -3, 1, 2, -1, 1, 2, 1,-3.1366562697576126,0.3301427011989222
1503943626890,+0.985,+0.164,-0.051,+0.006,+0.348,+0.114,-0.915,-1.375,-3.500,+0.562,4, 1, 1, -3, -1, -2, -3, 1,-3.1366562697576126,0.3301427011989222
1503943626914,+0.985,+0.163,-0.051,+0.006,+0.355,+0.113,-0.909,-0.812,-5.250,+0.938,-6, 2, 1, 0, 0, 0, -1, 0,-3.1367556763728874,0.3280560307468471
1503943626929,+0.985,+0.162,-0.051,+0.005,+0.346,+0.102,-0.921,-1.062,-5.500,+0.750,-1, 0, -2, -2, -1, -3, 0, 2,-3.1348712878081737,0.3260677238774652
1503943626951,+0.986,+0.161,-0.051,+0.005,+0.339,+0.106,-0.915,-1.312,-5.812,+0.750,6, 2, 1, 1, -2, -2, -4, -1,-3.1350059429346664,0.3242904030287382
1503943626973,+0.986,+0.160,-0.051,+0.005,+0.346,+0.108,-0.905,-1.875,-7.250,+0.812,10, 2, -2, -1, 0, 1, 2, 0,-3.135104142891885,0.32220576390781613
1503943626989,+0.986,+0.159,-0.051,+0.005,+0.334,+0.105,-0.924,-0.938,-6.500,+0.938,9, 3, -1, 1, 1, 6, -8, 0,-3.1352024953928828,0.32012232520279243
1503943627010,+0.986,+0.158,-0.051,+0.005,+0.324,+0.114,-0.918,-1.750,-5.250,+0.938,-7, 1, 1, -1, 0, -4, -6, -1,-3.1353009995427574,0.31804008121543575
1503943627033,+0.986,+0.157,-0.051,+0.005,+0.321,+0.116,-0.916,-1.812,-3.438,+0.750,-11, -5, -1, -4, -3, 0, 2, 1,-3.13539965444064,0.3159590262110653
1503943627050,+0.986,+0.157,-0.051,+0.005,+0.326,+0.109,-0.925,-1.312,-3.312,+1.000,-1, -1, 0, 1, 0, -1, 0, -2,-3.13539965444064,0.3159590262110653
1503943627070,+0.986,+0.156,-0.051,+0.004,+0.331,+0.106,-0.922,-1.812,-2.875,+1.375,-15, 0, -1, -1, 0, 2, 2, -1,-3.133512786244269,0.31397668237221416
1503943627094,+0.986,+0.156,-0.051,+0.004,+0.337,+0.107,-0.926,-2.438,-4.188,+1.688,-8, -7, -1, -1, 0, -3, -1, 0,-3.133512786244269,0.31397668237221416
1503943627109,+0.987,+0.155,-0.051,+0.004,+0.327,+0.116,-0.908,-3.250,-3.375,+1.688,3, 3, 1, 1, -1, -10, -6, -2,-3.1336501316158056,0.3121946297940798
1503943627131,+0.987,+0.155,-0.052,+0.003,+0.326,+0.139,-0.921,-1.750,-3.188,+3.062,-3, 1, -1, 1, -2, 0, -2, -3,-3.131358042246994,0.3123500903899803
1503943627153,+0.987,+0.154,-0.052,+0.003,+0.305,+0.108,-0.917,-2.125,-3.062,+0.875,-8, -5, -1, -2, -2, 2, -2, -1,-3.1314561217796726,0.3102705763214551
1503943627169,+0.987,+0.154,-0.052,+0.003,+0.336,+0.116,-0.920,-1.500,+0.562,+1.312,-6, -5, -1, -1, 0, -4, 1, -2,-3.1314561217796726,0.3102705763214551
1503943627198,+0.987,+0.154,-0.052,+0.003,+0.329,+0.105,-0.915,-2.312,+0.750,+0.312,5, 1, 0, 0, -3, 1, 3, -2,-3.1314561217796726,0.3102705763214551
1503943627220,+0.987,+0.154,-0.052,+0.003,+0.332,+0.107,-0.926,-1.375,+0.500,+0.438,9, 3, 0, -1, 0, 2, 6, 1,-3.1314561217796726,0.3102705763214551
1503943627229,+0.987,+0.154,-0.052,+0.003,+0.334,+0.111,-0.906,-1.938,-2.562,+1.125,6, -1, 0, -1, 0, 2, 5, -1,-3.1314561217796726,0.3102705763214551
1503943627250,+0.987,+0.153,-0.052,+0.003,+0.331,+0.102,-0.922,-0.062,-2.625,+1.312,0, -6, -4, -2, -3, 4, 3, -2,-3.13155436367067,0.30819222274559543
1503943627276,+0.987,+0.153,-0.051,+0.003,+0.330,+0.101,-0.923,-0.250,-2.688,+0.812,2, -1, -3, 0, 0, -4, -2, 1,-3.131861823105147,0.30813515803758185
1503943627289,+0.987,+0.153,-0.051,+0.003,+0.327,+0.100,-0.926,-0.500,-2.875,+0.562,8, 4, 1, -1, -2, -4, -3, -1,-3.131861823105147,0.30813515803758185
1503943627311,+0.987,+0.152,-0.051,+0.003,+0.322,+0.099,-0.930,-0.250,-2.312,+0.500,-11, -6, -2, -4, -1, 0, -11, -3,-3.13195840486215,0.30605837199172453
1503943627333,+0.987,+0.152,-0.051,+0.003,+0.322,+0.103,-0.924,-0.500,-1.375,+0.625,-5, -1, 3, 2, 2, -9, -6, -3,-3.13195840486215,0.30605837199172453
1503943627350,+0.987,+0.152,-0.050,+0.003,+0.326,+0.107,-0.920,+0.312,-1.000,+0.188,-14, -6, -2, 1, 1, 0, 5, -1,-3.1322640444902956,0.3060029537997682
1503943627371,+0.987,+0.152,-0.050,+0.003,+0.324,+0.111,-0.927,+0.812,-0.938,+0.062,1, 2, 0, -1, -1, -1, -2, -2,-3.1322640444902956,0.3060029537997682
1503943627393,+0.987,+0.151,-0.050,+0.003,+0.329,+0.113,-0.918,+0.312,-1.875,-0.062,-4, -2, -1, 0, 0, 4, -2, 2,-3.1323589582396707,0.3039277213934623
1503943627413,+0.987,+0.151,-0.050,+0.003,+0.321,+0.120,-0.921,+0.562,-1.188,-0.438,6, 1, 1, -1, -1, -1, 4, 2,-3.1323589582396707,0.3039277213934623
1503943627430,+0.987,+0.151,-0.049,+0.003,+0.324,+0.112,-0.917,+0.875,-0.062,-0.750,2, -1, 0, -2, 1, 0, 0, 0,-3.1326627744556856,0.3038739322394837
1503943627453,+0.987,+0.151,-0.049,+0.003,+0.328,+0.104,-0.921,+1.312,-0.438,-1.000,10, 8, 2, -2, -3, 1, -1, 0,-3.1326627744556856,0.3038739322394837
1503943627469,+0.987,+0.151,-0.049,+0.004,+0.320,+0.100,-0.933,+0.000,+0.375,-0.562,6, 3, -2, 0, 1, -2, -2, -1,-3.1346486840700454,0.3037799675445855
1503943627490,+0.987,+0.151,-0.049,+0.004,+0.315,+0.106,-0.927,-1.812,+0.375,-1.000,-3, -3, -1, -1, 0, -1, -4, -3,-3.1346486840700454,0.3037799675445855
1503943627515,+0.987,+0.151,-0.049,+0.004,+0.314,+0.127,-0.911,-1.375,+1.562,-0.438,1, 1, -3, -3, -3, 0, 0, -1,-3.1346486840700454,0.3037799675445855
1503943627529,+0.987,+0.152,-0.049,+0.004,+0.311,+0.116,-0.922,+0.312,+3.625,-1.125,-1, -2, 0, -1, 1, 2, 2, 1,-3.1345543824463,0.3058548658525137
1503943627553,+0.987,+0.153,-0.049,+0.005,+0.329,+0.099,-0.932,-0.062,+6.125,-1.438,-6, -9, -4, -1, -3, -2, -1, -1,-3.136443757618799,0.3078370690845674
1503943627573,+0.987,+0.154,-0.049,+0.005,+0.325,+0.117,-0.926,-0.688,+6.688,-1.312,-7, -6, -2, 0, 3, 0, 0, 0,-3.1363485187695783,0.30991433563281345
1503943627589,+0.987,+0.155,-0.049,+0.005,+0.312,+0.119,-0.921,+0.375,+8.562,-0.938,-6, -1, 1, 1, -1, -1, -1, 0,-3.1362534188270987,0.31199276381179625
1503943627612,+0.986,+0.157,-0.049,+0.006,+0.326,+0.123,-0.930,+0.750,+9.188,-0.938,0, -3, -2, -4, 1, -1, -1, 0,-3.1380161006949767,0.3157596183037647
1503943627633,+0.986,+0.159,-0.049,+0.006,+0.333,+0.149,-0.913,+2.000,+12.188,+0.875,5, -2, -2, -1, -1, 0, 1, -1,-3.1378236529693866,0.31992143618108104
1503943627649,+0.986,+0.162,-0.049,+0.006,+0.339,+0.196,-0.924,+2.562,+17.250,+1.938,-1, 2, 0, -1, -1, 0, 0, 0,-3.1375360190731962,0.326173141852104
1503943627671,+0.985,+0.165,-0.048,+0.007,+0.366,+0.188,-0.862,+8.125,+17.312,-1.875,0, -3, 0, 2, -2, 0, -1, 0,-3.1395321479120546,0.3319789594656886
1503943627693,+0.985,+0.168,-0.046,+0.009,+0.406,+0.154,-0.825,+19.500,+14.875,-6.188,-7, -7, -3, 0, 1, -1, 0, -1,3.1393115816487267,0.3379735615681773
1503943627712,+0.984,+0.173,-0.042,+0.012,+0.385,+0.113,-0.859,+27.500,+25.625,-9.750,-1, -2, -2, -1, -3, -2, -1, -2,3.1324758111307816,0.3477041615045124
1503943627730,+0.983,+0.178,-0.037,+0.015,+0.392,+0.083,-0.970,+28.625,+34.188,-10.562,2, 0, -2, -1, -2, -1, -3, -1,3.12520969703399,0.35748182025915415
1503943627755,+0.982,+0.185,-0.037,+0.016,+0.132,+0.522,-1.033,+23.188,+59.125,+8.250,-3, -3, -2, 0, 0, 1, 1, -4,3.1238089147454478,0.3717806757029653
1503943627768,+0.978,+0.206,-0.032,+0.017,+0.677,+0.062,-0.898,+31.812,+121.812,-0.250,6, -1, -3, -2, -3, -1, 0, -1,3.1214839237118084,0.41459202054825045
1503943627790,+0.973,+0.228,-0.022,+0.019,+0.751,+0.079,-0.946,+53.062,+131.812,+5.312,-1, -2, 0, 1, 3, -3, -1, -4,3.1145876924504114,0.45945592560871057
1503943627813,+0.969,+0.246,-0.011,+0.020,+0.769,+0.097,-0.995,+59.000,+102.938,+11.312,-4, -5, -2, -6, -9, 0, -1, 0,3.108222127627427,0.4967143070498974
1503943627828,+0.965,+0.260,+0.002,+0.021,+0.850,-0.023,-0.991,+69.500,+77.938,+9.562,-2, 2, -1, -3, 0, -2, 0, 0,3.0999488237183312,0.5258473492398854
1503943627850,+0.962,+0.273,+0.018,+0.021,+0.827,-0.101,-1.018,+84.438,+69.938,+25.750,3, 2, 7, 18, 8, 3, -1, 2,3.091400133256783,0.5539975458658948
1503943627873,+0.958,+0.284,+0.035,+0.019,+0.777,-0.122,-0.984,+90.000,+66.750,+36.500,-2, -1, 0, -7, -1, -2, -5, -1,3.0851901186569197,0.5779869980718093
1503943627889,+0.953,+0.296,+0.054,+0.016,+0.729,-0.126,-0.951,+94.375,+74.750,+41.000,-1, 1, -1, 12, -16, -2, 0, 1,3.078685798785193,0.6046760104192112
1503943627912,+0.948,+0.310,+0.073,+0.012,+0.685,-0.134,-0.936,+100.062,+91.750,+51.938,0, -3, -4, -1, 8, 0, -1, -4,3.072974349889788,0.6367678436488418
1503943627933,+0.941,+0.325,+0.093,+0.006,+0.679,-0.191,-0.874,+103.125,+101.000,+64.000,0, -1, 2, -9, -6, -2, -1, -7,3.068680873805905,0.6712569881531198
1503943627949,+0.934,+0.339,+0.114,-0.002,+0.713,-0.257,-0.812,+100.438,+96.375,+75.812,-1, -2, -4, -2, -20, -2, -2, -10,3.066258911531168,0.7046928875860295
1503943627971,+0.927,+0.350,+0.134,-0.010,+0.732,-0.227,-0.771,+100.125,+82.000,+80.125,2, 0, 5, 16, 33, 3, 3, 2,3.063652611040185,0.7320776449167353
1503943627993,+0.921,+0.358,+0.154,-0.017,+0.708,-0.144,-0.701,+104.438,+59.312,+75.938,-3, -1, -3, -1, -3, 0, -3, -1,3.058921338723362,0.7542776194451898
1503943628009,+0.915,+0.362,+0.177,-0.022,+0.643,-0.150,-0.658,+115.375,+36.000,+72.938,3, 3, 1, -12, -14, -6, -5, 2,3.048023191879699,0.7699233497229307
1503943628031,+0.911,+0.361,+0.199,-0.027,+0.583,-0.272,-0.620,+113.938,+12.500,+77.062,-3, 3, -2, 7, 2, -3, 4, 6,3.0393048919775714,0.7753308143809008
1503943628053,+0.907,+0.358,+0.220,-0.035,+0.522,-0.392,-0.590,+101.562,-4.250,+88.875,-2, 0, 1, 0, 5, -2, -8, -1,3.0376789367054533,0.7753585595548388
1503943628070,+0.903,+0.352,+0.240,-0.042,+0.429,-0.447,-0.518,+90.812,-9.812,+83.938,-2, -2, 2, -7, -18, 4, 2, -4,3.03601666739613,0.7682826717147744
1503943628091,+0.900,+0.347,+0.259,-0.050,+0.399,-0.484,-0.471,+83.625,-11.500,+84.312,1, -3, -9, -10, -3, -1, -2, -2,3.037711297605929,0.7638932909076627
1503943628115,+0.897,+0.340,+0.277,-0.058,+0.383,-0.512,-0.424,+74.688,-20.250,+80.188,-4, -1, 7, 26, 9, 2, 5, 3,3.0416103999116193,0.7539679008959913
1503943628129,+0.894,+0.333,+0.293,-0.065,+0.369,-0.535,-0.385,+61.250,-24.438,+77.062,6, -2, 1, 12, 12, 10, 5, 2,3.045675756440876,0.7431408171397923
1503943628151,+0.892,+0.323,+0.307,-0.071,+0.342,-0.552,-0.440,+61.938,-39.000,+68.750,1, 3, 1, -16, -18, -6, -4, 7,3.052257005563473,0.7236475216752231
1503943628173,+0.892,+0.312,+0.318,-0.077,+0.291,-0.650,-0.448,+34.125,-44.000,+56.625,-3, 1, 5, 3, 19, 4, -4, 6,3.0640603973356355,0.6996916480099529
1503943628190,+0.893,+0.301,+0.325,-0.082,+0.248,-0.611,-0.446,+13.375,-42.625,+51.000,1, -4, -10, -13, -9, -6, -6, -2,3.0782860456931944,0.672979696948259
1503943628224,+0.893,+0.292,+0.330,-0.088,+0.304,-0.647,-0.390,-1.375,-38.438,+46.375,-4, -5, -6, -12, -7, -1, 2, -1,3.0951786737342175,0.6483778170781597
1503943628238,+0.895,+0.284,+0.331,-0.092,+0.351,-0.672,-0.353,-19.500,-40.500,+34.875,-2, -1, 1, 0, 2, -2, -3, -8,3.1110426102714435,0.6254762006508853
1503943628249,+0.898,+0.276,+0.330,-0.095,+0.389,-0.718,-0.441,-30.438,-45.375,+19.812,3, 0, -3, -1, 1, -1, 7, 5,3.1265119839881006,0.6022609319733141
1503943628273,+0.902,+0.268,+0.325,-0.095,+0.411,-0.730,-0.443,-49.812,-44.188,+3.688,-1, -5, -3, -15, -2, 4, -1, -5,3.1379343991036994,0.578992321073529
1503943628293,+0.906,+0.262,+0.318,-0.094,+0.412,-0.722,-0.485,-63.438,-43.750,-10.812,1, 4, 0, 4, -15, -14, -6, -4,-3.1368479012734443,0.5609584835820982
1503943628309,+0.912,+0.255,+0.307,-0.091,+0.352,-0.760,-0.514,-78.750,-46.062,-33.875,-6, -5, 1, 0, -6, -4, -5, -7,-3.129729884069161,0.540823815417621
1503943628331,+0.919,+0.250,+0.293,-0.085,+0.247,-0.711,-0.628,-91.062,-32.188,-57.938,4, -28, 9, -1, 10, 12, 9, 11,-3.1296416968961784,0.5274700684158018
1503943628353,+0.925,+0.252,+0.273,-0.080,+0.246,-0.791,-0.558,-116.375,+6.875,-67.188,11, 33, 3, 3, 7, 6, 5, 5,-3.1291770664938605,0.5283064823654466
1503943628375,+0.928,+0.266,+0.248,-0.076,+0.307,-0.778,-0.627,-133.688,+80.312,-82.000,0, 28, -3, 2, -13, -8, -2, -8,-3.1310360239508412,0.5549980844393528
1503943628391,+0.930,+0.288,+0.218,-0.070,+0.545,-0.373,-0.624,-148.062,+115.812,-113.000,-8, -26, -17, -1, -2, -9, -6, -4,-3.1364212560627633,0.5995750880377831
1503943628413,+0.929,+0.313,+0.187,-0.060,+0.635,+0.005,-0.575,-139.375,+137.812,-133.375,-13, -75, -30, 7, 17, 0, -3, -5,3.135538628943755,0.650888316580002
1503943628435,+0.912,+0.378,+0.155,-0.043,-2.641,+0.148,+0.765,-104.688,+378.938,-216.188,-13, 13, 25, 1, 19, 6, -1, -5,3.100795965852322,0.7928179943923555
1503943628452,+0.889,+0.439,+0.131,+0.003,+1.920,+1.011,-0.656,+13.250,+344.188,-349.750,-10, -46, -46, -33, -36, -19, -12, -7,3.0176540165176884,0.9320300583483485
1503943628474,+0.879,+0.460,+0.125,-0.005,+3.575,-0.376,+0.935,-47.250,+142.438,+6.062,4, 22, -30, -18, 11, -11, -9, -5,3.0323626835285964,0.9765918155101002
1503943628495,+0.887,+0.449,+0.106,-0.008,+0.153,-0.347,-0.613,-117.062,-68.812,-28.188,-60, 38, -22, 6, 15, 16, 11, -92,3.058857119891819,0.9450780638305362
1503943628511,+0.888,+0.449,+0.096,-0.007,+0.207,+1.018,-1.374,-49.938,-6.062,-33.438,69, -83, 86, 2, 19, 85, 48, 95,3.0664748995989117,0.942494219574323
1503943628533,+0.879,+0.465,+0.107,-0.008,+1.333,-0.057,-0.555,+63.750,+93.125,+42.562,71, 5, 84, -21, -84, 72, 23, 77,3.0544220753198617,0.9821037908853544
1503943628556,+0.875,+0.471,+0.116,-0.005,+1.369,-0.335,-0.663,+55.375,+30.938,+4.875,12, 30, -27, 25, -35, -112, -37, 26,3.0388490376080273,0.9992210018985472
1503943628571,+0.878,+0.463,+0.123,-0.002,+1.116,-0.312,-0.528,+39.000,-62.188,+7.250,6, -82, -63, -15, 40, -65, -13, 62,3.0283386993260866,0.9833790143031635
1503943628594,+0.882,+0.453,+0.131,-0.003,+0.727,-0.304,-0.628,+34.375,-53.188,+31.688,-6, -95, -71, -28, -47, 20, -16, -22,3.0247741816392577,0.9630646549999903
1503943628617,+0.884,+0.446,+0.140,-0.006,+0.540,-0.286,-0.716,+34.125,-12.688,+32.562,27, 74, 45, -4, 70, 79, 7, -68,3.023207673077792,0.9497615260737746
1503943628631,+0.883,+0.446,+0.149,-0.009,+0.695,-0.371,-0.646,+38.750,+15.250,+32.625,-63, -20, -21, -44, -122, -91, -28, -55,3.0199513283155985,0.9530105263314859
1503943628654,+0.880,+0.448,+0.157,-0.011,+0.941,-0.417,-0.572,+36.438,+14.938,+25.062,-14, 19, -25, 7, -1, -7, 0, 7,3.014610698486461,0.960262063047991
1503943628675,+0.880,+0.446,+0.164,-0.011,+0.954,-0.407,-0.508,+26.312,-10.875,+17.125,-1, 68, 4, -6, 2, 0, -6, -27,3.008303852190038,0.9588434651916066
1503943628691,+0.881,+0.442,+0.168,-0.010,+0.787,-0.353,-0.525,+20.375,-25.312,+10.312,-10, -27, -17, -14, 16, 3, -4, -11,3.0036773124086915,0.951456483212728
1503943628713,+0.882,+0.439,+0.172,-0.009,+0.650,-0.318,-0.534,+19.812,-11.875,+2.438,-6, 12, 3, 28, 19, -7, 5, -12,2.9989981152457084,0.9467271665049377
1503943628736,+0.881,+0.440,+0.175,-0.008,+0.645,-0.310,-0.532,+20.500,+9.688,-0.625,-5, 24, 2, 20, 2, -12, 1, 6,2.993769120875616,0.9507366729124854
1503943628752,+0.879,+0.443,+0.178,-0.008,+0.719,-0.329,-0.495,+17.875,+26.000,+2.250,-10, -19, -14, 8, 25, 3, 2, -1,2.989599497496428,0.9592303154334045
1503943628773,+0.876,+0.447,+0.181,-0.008,+0.757,-0.345,-0.476,+13.188,+29.000,+0.688,1, -4, 2, 6, 9, -6, -3, 0,2.9847131396462414,0.9698683427121932
1503943628796,+0.874,+0.450,+0.183,-0.009,+0.756,-0.335,-0.469,+8.938,+20.125,+4.250,-4, 0, 5, 1, -2, -7, -6, -2,2.983222070190376,0.9776692247308364
1503943628812,+0.873,+0.451,+0.185,-0.010,+0.710,-0.335,-0.475,+4.125,+14.250,+6.062,-6, 20, 1, -10, -23, 6, 7, -2,2.9824762229919024,0.980808272127708
1503943628834,+0.872,+0.453,+0.185,-0.011,+0.682,-0.309,-0.488,+1.625,+16.500,+4.375,-3, -14, -9, 4, 8, -12, -3, -5,2.983527756643341,0.9853018426296314
1503943628856,+0.871,+0.455,+0.185,-0.011,+0.724,-0.294,-0.492,+2.125,+20.938,+1.000,4, 22, 0, 3, 4, -3, -2, 1,2.982754309727056,0.9900216910737679
1503943628872,+0.870,+0.458,+0.185,-0.011,+0.786,-0.294,-0.490,+0.625,+18.062,-4.750,1, 7, 25, 12, 8, 2, 1, 2,2.9819059091550058,0.9973797949369118
1503943628895,+0.869,+0.459,+0.184,-0.010,+0.793,-0.282,-0.482,-0.562,+11.688,-9.062,-3, -27, -28, -7, 5, -1, -5, -1,2.980361306523124,0.999051216206973
1503943628916,+0.868,+0.461,+0.182,-0.009,+0.762,-0.271,-0.493,-2.438,+14.500,-9.000,0, 3, 2, 5, 6, 2, 2, 1,2.9797189595914277,1.0027149245759752
1503943628932,+0.867,+0.464,+0.181,-0.008,+0.766,-0.278,-0.475,-3.875,+18.625,-8.625,-3, 2, 4, 2, 4, -3, -1, -4,2.978075467788647,1.0096571836898987
1503943628958,+0.866,+0.467,+0.179,-0.008,+0.765,-0.273,-0.478,-4.875,+22.688,-9.250,-1, -13, -1, 0, -1, 0, 0, 0,2.979236059556059,1.0157715624836483
1503943628975,+0.864,+0.471,+0.177,-0.007,+0.795,-0.275,-0.465,-5.625,+24.062,-10.625,2, 8, -2, -2, -10, 3, 5, 3,2.977975834220456,1.0242248970129482
1503943628992,+0.862,+0.475,+0.175,-0.007,+0.831,-0.283,-0.427,-7.250,+28.375,-11.312,-2, -5, 4, 2, 5, 1, -1, -1,2.9785633144590475,1.032513980040461
1503943629014,+0.859,+0.481,+0.173,-0.007,+0.885,-0.277,-0.426,-10.188,+34.312,-9.125,-2, -4, -1, 0, 1, -4, 2, 0,2.9785327138502367,1.045633012278307
1503943629036,+0.857,+0.486,+0.170,-0.007,+0.913,-0.262,-0.433,-11.000,+32.125,-9.250,-4, -4, 1, -1, -3, -4, -5, -1,2.9802084934310678,1.0560486452423619
1503943629057,+0.856,+0.489,+0.168,-0.006,+0.920,-0.268,-0.452,-9.125,+17.875,-9.312,-2, -2, -1, 0, 1, 2, 0, -2,2.9798003836832465,1.0624756244720281
1503943629074,+0.855,+0.491,+0.165,-0.005,+0.916,-0.261,-0.438,-9.438,+7.562,-11.625,-1, 2, 0, -1, 3, -3, -2, -4,2.9804537492250787,1.0656563169639897
1503943629097,+0.855,+0.492,+0.163,-0.004,+0.892,-0.248,-0.447,-7.938,+3.875,-13.688,1, 0, -3, -2, -1, -3, 0, 1,2.9807086768842272,1.0672905422341645
1503943629112,+0.855,+0.493,+0.161,-0.002,+0.856,-0.250,-0.459,-4.938,+5.750,-13.812,1, -2, 3, 0, -1, 1, -1, -1,2.97921457262645,1.0690951840441794
1503943629133,+0.854,+0.494,+0.159,-0.001,+0.843,-0.259,-0.459,-2.250,+12.812,-11.000,-2, -2, -3, -3, 1, -3, -3, -3,2.978911580368671,1.0702523588067336
1503943629156,+0.853,+0.497,+0.159,+0.000,+0.870,-0.267,-0.434,-1.312,+20.250,-8.625,-1, -2, -1, 2, 2, -1, 1, 0,2.9766079816801807,1.0778903959016146
1503943629172,+0.851,+0.501,+0.158,+0.001,+0.901,-0.270,-0.441,-1.688,+24.562,-10.375,2, 1, 0, -4, -4, -2, -1, 1,2.974788694786088,1.0871328777494562
1503943629195,+0.849,+0.505,+0.156,+0.002,+0.917,-0.265,-0.422,-1.125,+26.312,-12.812,0, 1, -2, 1, -2, 0, 2, 0,2.9740450169442387,1.095820381078509
1503943629215,+0.847,+0.509,+0.155,+0.004,+0.903,-0.254,-0.412,+1.250,+25.812,-14.312,0, 1, -2, 1, -3, 0, -1, 0,2.9705934154860714,1.1052558675398576
1503943629232,+0.844,+0.513,+0.154,+0.006,+0.899,-0.234,-0.394,+2.188,+27.000,-14.562,-3, -2, -1, -3, 0, 1, -1, 0,2.966607706527171,1.1142407909074
1503943629255,+0.841,+0.518,+0.153,+0.008,+0.901,-0.228,-0.383,+3.125,+29.438,-15.312,-2, 0, 0, 1, 1, -1, -2, -4,2.9627399642161123,1.1259340947135728
1503943629275,+0.839,+0.522,+0.153,+0.010,+0.899,-0.230,-0.380,+3.750,+29.812,-17.000,1, -1, -1, -1, 2, 1, 0, 2,2.9584151657271507,1.1360156768626202
1503943629292,+0.836,+0.527,+0.152,+0.012,+0.893,-0.250,-0.361,+4.188,+31.062,-19.938,2, 1, 0, -1, 0, 0, 0, 0,2.9546869079419986,1.1477754900059127
1503943629313,+0.833,+0.533,+0.151,+0.014,+0.915,-0.246,-0.359,+3.875,+36.750,-19.938,-2, -1, -1, -1, -1, 1, 0, 0,2.951148132757639,1.1622684640005794
1503943629335,+0.829,+0.539,+0.150,+0.016,+0.929,-0.231,-0.356,+4.312,+42.625,-17.438,-1, 0, -2, 1, -1, -1, -1, -2,2.947093670472018,1.1763857203096042
1503943629352,+0.825,+0.545,+0.149,+0.018,+0.942,-0.211,-0.341,+5.375,+41.188,-15.938,-1, -2, -1, -2, -1, -2, -2, -3,2.943140460587749,1.1905735853814587
1503943629373,+0.822,+0.550,+0.149,+0.021,+0.942,-0.208,-0.341,+6.375,+32.312,-16.625,2, 0, 0, 1, -1, -1, -1, -2,2.9370184811466515,1.2032189296311897
1503943629395,+0.819,+0.553,+0.148,+0.024,+0.930,-0.210,-0.327,+7.562,+25.062,-20.000,-2, -3, 0, -1, 1, -1, -1, 0,2.9317478003275093,1.2098860581596347
1503943629412,+0.817,+0.557,+0.148,+0.027,+0.916,-0.241,-0.313,+7.625,+25.312,-22.875,-3, -1, 0, -2, -2, -1, -1, -4,2.926255304622534,1.2202674472138508
1503943629434,+0.814,+0.562,+0.147,+0.030,+0.918,-0.253,-0.301,+7.062,+30.562,-22.750,1, -1, 0, -1, 0, 1, -1, 1,2.9215020360645485,1.2324064890551962
1503943629457,+0.810,+0.567,+0.146,+0.032,+0.930,-0.229,-0.286,+5.062,+35.812,-21.312,-2, 1, 0, -3, 0, -1, 1, 0,2.91779941428659,1.2441117282649046
1503943629472,+0.806,+0.572,+0.146,+0.034,+0.955,-0.205,-0.272,+4.250,+37.688,-19.500,-5, -4, -1, 0, -1, -2, -3, -1,2.9130410459048126,1.2564648612036629
1503943629495,+0.802,+0.578,+0.145,+0.037,+0.967,-0.193,-0.266,+6.438,+36.250,-19.375,-3, 0, -2, 0, -1, 1, -3, 1,2.908158807482633,1.2711141201683076
1503943629515,+0.799,+0.582,+0.145,+0.039,+0.970,-0.211,-0.261,+7.562,+32.312,-20.438,-1, -3, 1, -2, 0, -3, -2, -5,2.9039857067482537,1.2811940463346887
1503943629533,+0.796,+0.586,+0.144,+0.042,+0.956,-0.205,-0.270,+6.875,+29.750,-18.000,-3, 0, 0, -1, 0, 0, 1, -1,2.899451290783024,1.2908013488117385
1503943629553,+0.794,+0.589,+0.144,+0.044,+0.963,-0.182,-0.258,+5.438,+26.188,-15.250,-1, -1, -4, 0, 0, -1, 1, -2,2.8958003614917764,1.2985264046327745
1503943629575,+0.792,+0.592,+0.143,+0.046,+0.969,-0.157,-0.255,+4.188,+18.438,-13.125,-3, -1, 0, -2, 0, 1, -2, -1,2.8933541594901553,1.3056781316241346
1503943629593,+0.791,+0.593,+0.142,+0.048,+0.955,-0.132,-0.252,+2.438,+7.812,-12.312,0, 0, -2, 1, -2, -1, 1, 2,2.891019151686112,1.307672809959601
1503943629614,+0.791,+0.593,+0.141,+0.050,+0.929,-0.108,-0.238,+2.188,+2.688,-10.625,-2, 0, -1, -1, 1, -1, -2, -2,2.8890755708252085,1.307242107867272
1503943629636,+0.791,+0.593,+0.140,+0.052,+0.917,-0.101,-0.227,+2.375,-0.500,-8.875,-2, 2, -2, -1, -1, 0, -1, 0,2.887133937389721,1.3068137264662658
1503943629652,+0.791,+0.593,+0.139,+0.054,+0.914,-0.101,-0.217,+2.562,+1.562,-8.438,-1, -2, -2, -1, -1, -2, -2, 1,2.8851942630717953,1.306387650340572
1503943629673,+0.790,+0.594,+0.139,+0.056,+0.931,-0.110,-0.211,+3.750,+6.000,-10.438,2, -2, -3, -2, -1, 0, 0, -2,2.8817282600335514,1.3089589075707344
1503943629698,+0.789,+0.596,+0.138,+0.058,+0.923,-0.109,-0.206,+5.438,+14.250,-14.438,4, 2, -2, -1, -1, -1, 1, 3,2.8797917880551043,1.3136969975692003
1503943629712,+0.786,+0.600,+0.137,+0.061,+0.935,-0.084,-0.165,+7.562,+23.688,-17.938,-2, -1, -1, -3, 1, -2, -1, -3,2.8756562152628726,1.323384127844238
1503943629734,+0.781,+0.606,+0.137,+0.064,+0.981,-0.064,-0.168,+10.062,+36.375,-15.562,0, 0, 1, -1, 1, -1, -1, -5,2.869768075529001,1.3385845047852267
1503943629760,+0.776,+0.612,+0.137,+0.066,+0.977,-0.052,-0.164,+9.125,+44.625,-10.438,0, 1, 2, 0, 1, -1, 0, 0,2.8655163466913036,1.3538181360685084
1503943629778,+0.770,+0.619,+0.137,+0.069,+0.958,-0.027,-0.109,+12.750,+53.188,-13.188,-7, 0, 0, -2, -1, -2, -2, -2,2.8595768500600958,1.3717131967401912
1503943629795,+0.762,+0.628,+0.138,+0.074,+0.997,-0.031,-0.065,+26.438,+56.812,-20.875,2, 4, 8, 2, -1, 0, -1, 0,2.8490863243741593,1.3954845709514234
1503943629817,+0.754,+0.637,+0.141,+0.080,+1.054,-0.058,-0.041,+33.750,+62.250,-25.562,1, -5, -3, -2, 0, -2, -3, -2,2.835018379231109,1.4206864418715648
1503943629832,+0.746,+0.645,+0.143,+0.086,+1.065,-0.101,-0.036,+33.438,+60.500,-29.938,-1, -1, -1, 1, -1, 0, -1, 0,2.8219818481787637,1.4427667021046497
1503943629855,+0.738,+0.652,+0.144,+0.093,+1.026,-0.120,-0.047,+32.250,+55.000,-38.062,1, -2, -3, 0, -3, -1, 1, -2,2.8085062917091026,1.4617212507284298
1503943629876,+0.732,+0.658,+0.144,+0.102,+1.011,-0.105,-0.022,+33.375,+34.500,-48.000,9, -1, 0, 1, -1, -1, -2, -2,2.7948057648642,1.4777834104560872
1503943629893,+0.730,+0.659,+0.142,+0.112,+1.046,-0.174,+0.007,+31.812,-1.062,-64.188,4, 4, -1, -1, 0, -1, 0, -8,2.7825496694176777,1.4793870205751165
1503943629914,+0.731,+0.657,+0.138,+0.123,+1.035,-0.234,+0.005,+22.562,-23.312,-72.188,-4, -3, 0, 0, 0, 1, -2, 2,2.7719081315787326,1.4719582665176791
1503943629937,+0.732,+0.655,+0.132,+0.132,+0.974,-0.216,-0.022,+10.688,-25.688,-74.562,1, -7, 0, 5, 7, 4, -5, 7,2.7663932185564417,1.4634370666868304
1503943629951,+0.733,+0.654,+0.125,+0.142,+0.956,-0.097,-0.070,+3.750,-23.062,-72.750,-5, -2, 0, -4, -1, -6, 0, -15,2.761394060397458,1.4573142550013318
1503943629974,+0.735,+0.650,+0.118,+0.151,+0.997,-0.039,-0.125,+5.062,-32.938,-66.500,-15, -9, -2, -1, -2, 1, 6, 10,2.756261091118808,1.443204101369124
1503943629996,+0.740,+0.643,+0.110,+0.161,+0.979,+0.032,-0.211,+6.188,-54.438,-67.562,-4, 6, -4, -13, -13, -27, 0, -5,2.750936847619352,1.4210712258970812
1503943630012,+0.747,+0.634,+0.101,+0.174,+0.901,+0.149,-0.256,+9.250,-72.625,-68.750,23, 9, 1, 2, 6, 9, -16, -13,2.7424378372518405,1.3938236607097083
1503943630035,+0.753,+0.624,+0.093,+0.185,+0.871,+0.169,-0.255,+12.000,-71.938,-60.438,19, -4, -3, -5, -13, -3, -1, 1,2.7334780246158887,1.3644160794968454
1503943630063,+0.758,+0.617,+0.089,+0.193,+0.903,+0.138,-0.215,+17.688,-53.438,-41.062,26, 12, -2, 0, 4, 13, 2, -7,2.725438656143296,1.3449796417427315
1503943630072,+0.760,+0.612,+0.087,+0.200,+0.973,+0.147,-0.192,+18.062,-34.188,-27.375,3, 3, 4, 4, 5, 8, 40, -44,2.7154711769496016,1.331175120612288
1503943630100,+0.762,+0.608,+0.086,+0.205,+1.018,+0.155,-0.203,+17.688,-28.875,-20.625,-9, -9, -3, 0, 0, -9, 3, 16,2.7079708026533975,1.3205241691441507
1503943630116,+0.764,+0.604,+0.086,+0.210,+0.988,+0.154,-0.249,+17.312,-29.688,-16.688,-25, -9, 0, -2, -6, -18, -7, 9,2.699344183211017,1.3103554118685168
1503943630134,+0.767,+0.598,+0.086,+0.214,+0.964,+0.157,-0.267,+19.938,-36.000,-11.812,28, -8, -6, -9, -11, -1, -23, 24,2.691274253191886,1.2950288760697708
1503943630154,+0.771,+0.592,+0.086,+0.218,+1.005,+0.136,-0.247,+21.250,-44.312,-10.000,-54, 0, 3, 5, 4, -6, -5, 25,2.68419045400719,1.280139034678439
1503943630176,+0.775,+0.586,+0.086,+0.222,+1.017,+0.112,-0.228,+16.938,-42.000,-9.062,-20, 2, -7, -2, 0, 13, -7, -16,2.677160704892034,1.2653726055652628
1503943630192,+0.777,+0.581,+0.086,+0.225,+0.988,+0.100,-0.277,+15.000,-31.000,-8.375,15, 18, 16, 5, 3, 3, 2, 17,2.6704571791607674,1.2526555471752134
1503943630214,+0.779,+0.577,+0.087,+0.228,+0.912,+0.151,-0.333,+16.625,-20.750,-5.000,17, -4, 4, 1, 2, 5, 0, -5,2.6636307781070947,1.2431847611665983
1503943630237,+0.781,+0.573,+0.088,+0.231,+0.889,+0.178,-0.346,+16.500,-18.562,-2.938,-5, 0, -5, 0, -1, 1, -1, -9,2.6568359506761685,1.2337737453752038
1503943630252,+0.782,+0.571,+0.089,+0.233,+0.970,+0.149,-0.285,+15.562,-15.562,-2.812,-7, 0, -7, -3, -1, -4, -2, -19,2.6522458159181266,1.2293680569683163
1503943630274,+0.782,+0.569,+0.091,+0.235,+0.998,+0.153,-0.259,+16.250,-9.500,-0.688,19, 7, -17, -3, 1, 5, 1, -2,2.645579183559313,1.2250992904712867
1503943630297,+0.783,+0.568,+0.092,+0.237,+0.925,+0.175,-0.259,+13.250,-8.000,+0.188,31, -23, -16, -7, 0, -2, -1, 21,2.641953479019558,1.2234303593442681
1503943630312,+0.784,+0.566,+0.092,+0.239,+0.855,+0.187,-0.292,+10.250,-13.812,-1.500,-40, -6, 5, 1, 1, 3, 0, -7,2.638411702842437,1.2185727220545362
1503943630334,+0.786,+0.562,+0.092,+0.241,+0.804,+0.170,-0.330,+6.875,-19.750,+0.438,-4, 5, 7, 2, -1, -1, 0, 4,2.6341085106323563,1.2087639891377457
1503943630358,+0.788,+0.559,+0.092,+0.241,+0.796,+0.153,-0.353,+6.938,-16.000,+5.812,-13, 39, 2, 2, -1, 2, 9, 5,2.633534972750716,1.2015392552173552
1503943630373,+0.790,+0.556,+0.093,+0.241,+0.843,+0.156,-0.266,+6.312,-15.688,+8.375,-5, 14, 32, 8, 1, 2, 1, 2,2.632008252251971,1.1948661974845325
1503943630398,+0.792,+0.553,+0.093,+0.241,+0.852,+0.110,-0.234,+1.938,-25.812,+5.312,6, -25, -14, -6, -1, -3, -2, -3,2.631490925993924,1.1876966428159756
1503943630416,+0.795,+0.549,+0.091,+0.241,+0.798,+0.124,-0.326,-5.688,-29.750,+2.875,1, -9, -1, -1, -2, -2, -3, -6,2.63315210039432,1.177262757706808
1503943630432,+0.799,+0.544,+0.088,+0.242,+0.745,+0.167,-0.445,-9.875,-30.375,+0.688,4, 1, 6, 1, 0, -1, -3, -1,2.634614379499488,1.1642159319805805
1503943630454,+0.803,+0.539,+0.086,+0.241,+0.780,+0.189,-0.445,-7.250,-27.688,+10.938,-7, -13, -2, -2, 0, -1, -2, -1,2.637964091918297,1.1516364565649801
1503943630477,+0.807,+0.534,+0.086,+0.238,+0.875,+0.130,-0.415,-1.000,-28.062,+22.312,-3, -7, -6, -2, -2, 0, -1, -2,2.642332631612981,1.1400210614436295
1503943630492,+0.810,+0.530,+0.087,+0.235,+0.908,+0.125,-0.425,-4.812,-25.625,+26.500,5, 20, 16, 3, -1, 0, -1, 6,2.6456093640107183,1.1311607495458638
1503943630514,+0.815,+0.524,+0.087,+0.232,+0.909,+0.156,-0.445,-6.000,-33.875,+26.750,-6, -20, -15, -2, -1, 0, -1, 0,2.650499071520064,1.1175174499698588
1503943630537,+0.820,+0.518,+0.087,+0.228,+0.927,+0.129,-0.438,-1.250,-43.312,+30.062,-6, 1, 12, 4, -2, 2, 0, 4,2.656997462712667,1.1038989284174117
1503943630552,+0.824,+0.513,+0.090,+0.223,+0.947,+0.061,-0.454,-3.500,-26.250,+40.062,4, 0, -2, -3, 1, 0, -3, 0,2.662061611645568,1.0939752307037067
1503943630575,+0.826,+0.512,+0.094,+0.215,+0.922,+0.072,-0.485,-4.250,-0.188,+56.188,-11, -1, 1, -1, -1, -6, -2, -4,2.6716502556847144,1.0937733103822604
1503943630600,+0.828,+0.512,+0.100,+0.208,+0.937,+0.095,-0.520,+5.938,+12.312,+58.000,5, -11, -7, -6, -1, -3, -2, -1,2.678731545213316,1.097325597851246
1503943630612,+0.828,+0.512,+0.107,+0.201,+1.073,+0.037,-0.438,+11.125,+7.625,+54.500,-2, -7, -3, 0, -8, -2, -1, -3,2.6826948539438193,1.1005516183163169
1503943630635,+0.829,+0.511,+0.115,+0.194,+1.162,-0.041,-0.347,+16.625,-6.750,+52.375,-9, -1, -5, -1, 1, 0, 1, -1,2.6861683445300626,1.1023353838349184
1503943630656,+0.833,+0.506,+0.122,+0.189,+1.081,-0.079,-0.354,+20.562,-31.750,+49.438,-6, -4, -1, 0, -2, -2, -2, -4,2.6882992797856757,1.094983249905732
1503943630670,+0.837,+0.498,+0.128,+0.185,+0.931,-0.085,-0.347,+16.000,-48.750,+43.438,0, 1, -6, -22, -26, -4, -2, 2,2.6881576881274087,1.0796459464469046
1503943630693,+0.840,+0.493,+0.134,+0.181,+0.861,-0.114,-0.373,+16.312,-25.250,+40.875,3, 0, 0, 18, 21, 3, 0, -2,2.6891020139449333,1.0716572429887676
1503943630716,+0.840,+0.494,+0.141,+0.176,+0.831,-0.139,-0.390,+20.062,+17.000,+39.562,0, -7, -3, -1, 4, -1, 0, -1,2.691060737641239,1.0781240779644918
1503943630734,+0.837,+0.498,+0.149,+0.171,+0.905,-0.150,-0.352,+17.375,+40.250,+38.562,-1, 0, -3, -5, -2, 0, -1, -1,2.69043009538452,1.0916394423689408
1503943630753,+0.834,+0.503,+0.156,+0.166,+1.000,-0.169,-0.318,+12.438,+34.250,+32.188,-5, -2, -1, -6, -9, -3, -3, -3,2.691176269064748,1.1072277513571451
1503943630776,+0.833,+0.504,+0.160,+0.163,+1.031,-0.184,-0.339,+7.062,+9.688,+21.562,-1, 6, 10, 25, 29, 7, 1, 0,2.6914908867146576,1.1117737189828405
1503943630790,+0.834,+0.503,+0.161,+0.162,+0.905,-0.183,-0.381,-0.875,-9.812,+5.000,2, 1, -2, -14, -19, -6, -3, -3,2.6926607366166113,1.110245167468502
1503943630813,+0.835,+0.500,+0.161,+0.162,+0.858,-0.125,-0.364,-1.688,-21.500,-1.125,-41, -5, 3, -4, 2, -2, -2, -2,2.6920719352707003,1.1030308298659848
1503943630836,+0.836,+0.498,+0.161,+0.163,+0.884,-0.125,-0.374,+2.125,-14.562,-3.875,13, -11, -12, -5, -6, -1, 0, 4,2.69056139876919,1.0985286528191138
1503943630851,+0.836,+0.497,+0.161,+0.165,+0.883,-0.111,-0.417,+2.875,-2.750,-7.375,-4, -3, -7, -8, 3, -2, 0, 1,2.68694759205058,1.0962751596902707
1503943630873,+0.836,+0.497,+0.161,+0.167,+0.893,-0.062,-0.451,+3.938,+1.875,-8.188,-9, 7, -6, -7, -8, -1, 2, 0,2.68392550843306,1.0965710372885458
1503943630896,+0.836,+0.497,+0.160,+0.168,+0.943,-0.049,-0.448,+4.000,-1.750,-4.375,26, 13, -3, 13, 8, 4, 3, 5,2.6833138706038526,1.0959904636673186
1503943630911,+0.836,+0.496,+0.161,+0.169,+0.996,-0.069,-0.435,+4.125,-5.812,+0.438,3, 21, -6, -2, 3, -2, 0, -1,2.6803141538272777,1.0943223931600665
1503943630933,+0.836,+0.496,+0.162,+0.169,+1.006,-0.085,-0.427,+6.562,-3.812,+4.000,-14, -11, 3, 0, 1, 0, -2, -3,2.6794205801996203,1.0950554925981857
1503943630955,+0.836,+0.495,+0.163,+0.169,+0.970,-0.084,-0.423,+6.188,-2.500,+7.812,-1, -6, 27, 4, -1, 1, 1, 2,2.6779297266654862,1.0932494743270373
1503943630971,+0.836,+0.495,+0.165,+0.168,+0.941,-0.103,-0.421,+6.125,+0.125,+12.125,-5, 6, 5, 4, 10, 2, 0, 1,2.6776522425720657,1.0945821998299696
1503943630993,+0.836,+0.495,+0.168,+0.166,+0.928,-0.110,-0.406,+5.250,+6.438,+13.250,-25, -91, -25, -9, -5, -3, -3, -4,2.6779891975636976,1.0965254905372281
1503943631016,+0.835,+0.497,+0.170,+0.164,+0.946,-0.105,-0.390,+4.250,+15.375,+15.625,4, 9, -14, -3, 0, 2, 0, 1,2.679182995552143,1.1023669882023173
1503943631038,+0.833,+0.500,+0.173,+0.162,+0.953,-0.125,-0.382,+6.875,+22.750,+13.312,-12, -20, -3, 0, 4, -1, -1, -5,2.678843870913978,1.1111013697262002
1503943631061,+0.831,+0.502,+0.175,+0.161,+0.944,-0.141,-0.377,+3.250,+15.750,+8.750,-7, -3, -19, -6, -4, -3, -6, -6,2.6772972141889357,1.116710312421217
1503943631076,+0.831,+0.503,+0.175,+0.161,+0.930,-0.114,-0.367,+0.000,+6.062,+2.875,0, 40, 0, 2, -1, -2, -2, 1,2.677889136149035,1.119266800300175
1503943631098,+0.831,+0.503,+0.175,+0.162,+0.885,-0.115,-0.380,+0.938,-3.438,-5.500,9, 12, 37, 9, 1, 2, 1, 3,2.676391594590735,1.119420745353546
1503943631113,+0.831,+0.503,+0.174,+0.163,+0.838,-0.086,-0.379,-2.250,+0.250,-10.750,6, -2, -5, -4, -2, 0, -1, 0,2.6758011258476575,1.118798369903842
1503943631136,+0.829,+0.505,+0.172,+0.165,+0.824,-0.042,-0.407,-2.000,+14.625,-10.625,-4, -13, -1, -3, -1, 1, 3, -2,2.673411503845457,1.1217883782945977
1503943631158,+0.828,+0.508,+0.172,+0.167,+0.860,-0.064,-0.413,+1.562,+18.625,-12.125,-7, -15, 0, 1, 0, -2, -2, -2,2.671066125501856,1.12932594114924
1503943631173,+0.826,+0.509,+0.171,+0.168,+0.911,-0.108,-0.392,-0.062,+11.000,-10.000,8, 7, -3, -3, 0, 0, -3, 1,2.6686924392749436,1.1303931373049063
1503943631196,+0.826,+0.510,+0.170,+0.170,+0.894,-0.105,-0.390,+0.188,+1.375,-11.188,8, 29, -5, 1, 1, 0, 0, 2,2.667275156533905,1.1324825328599906
1503943631218,+0.826,+0.509,+0.168,+0.172,+0.837,-0.077,-0.396,-2.000,-4.000,-17.750,7, 4, -2, -2, 0, 0, -1, -1,2.665506683224435,1.1286866585061512
1503943631233,+0.826,+0.508,+0.166,+0.175,+0.857,-0.048,-0.434,-0.812,-2.875,-17.188,-3, -18, 0, 1, 0, 0, -4, -1,2.6622499931164065,1.1250455848564511
1503943631256,+0.826,+0.508,+0.165,+0.178,+0.915,-0.065,-0.444,+2.062,-1.375,-14.812,4, 7, 12, 3, -2, 0, 1, 1,2.6587342170169834,1.1247226969833763
1503943631271,+0.827,+0.507,+0.164,+0.180,+0.952,-0.094,-0.417,+0.125,-11.500,-11.938,9, 22, 16, 2, -1, 1, -4, 0,2.6572668931124865,1.1221421212954354
1503943631301,+0.829,+0.504,+0.162,+0.182,+0.926,-0.120,-0.376,-3.438,-23.875,-10.438,-5, -24, 3, 0, -3, -1, 1, 1,2.6566082414909413,1.114166209433793
1503943631315,+0.831,+0.501,+0.160,+0.183,+0.877,-0.113,-0.375,-6.562,-25.750,-12.000,-7, -5, -8, -3, -5, -3, 0, 1,2.6574128012444076,1.106083782222915
1503943631338,+0.832,+0.499,+0.157,+0.185,+0.854,-0.063,-0.400,-9.250,-15.875,-11.062,2, -13, 17, 9, 4, 1, 1, -1,2.6570449499752087,1.0995356762188797
1503943631353,+0.832,+0.499,+0.155,+0.186,+0.857,-0.034,-0.431,-4.312,-1.500,-11.438,6, 3, -6, -1, 0, -1, 0, 1,2.6573395886099203,1.0982249477552075
1503943631377,+0.832,+0.499,+0.154,+0.189,+0.924,-0.055,-0.417,-1.562,-1.125,-15.062,0, 0, -1, -4, -4, -3, 0, -3,2.6538011141917335,1.097925360358757
1503943631398,+0.832,+0.498,+0.152,+0.192,+0.960,-0.066,-0.401,-1.812,-13.062,-20.688,-2, 5, 0, -2, 0, 1, 2, -4,2.6504834403572177,1.094367273007269
1503943631413,+0.834,+0.495,+0.148,+0.196,+0.947,-0.057,-0.399,-4.938,-32.438,-28.438,5, -8, 18, 6, 0, -1, -1, 4,2.6485524816576222,1.085388942306735
1503943631438,+0.835,+0.491,+0.143,+0.201,+0.904,-0.013,-0.422,-7.812,-29.688,-28.375,5, -15, -9, -6, -3, 0, -1, 0,2.6440553101024027,1.0729196780293524
1503943631458,+0.836,+0.490,+0.141,+0.204,+0.871,+0.034,-0.473,-3.250,-9.438,-18.312,-3, 2, -8, -4, -3, -4, -1, 0,2.64192710688169,1.0698871458070267
1503943631473,+0.835,+0.492,+0.141,+0.204,+0.936,-0.014,-0.477,-0.125,+10.250,-3.875,-5, -3, -4, -1, -2, -2, -1, -5,2.6420708248896454,1.0744667961876144
1503943631495,+0.833,+0.494,+0.141,+0.204,+1.009,-0.025,-0.455,+0.812,+17.000,+1.250,7, 22, 1, 0, -1, 2, 0, 7,2.6409835200966056,1.0785880001222936
1503943631518,+0.832,+0.495,+0.142,+0.204,+1.021,-0.039,-0.440,+3.312,+2.750,+1.062,0, -1, -1, -1, -3, -2, -2, -5,2.639573232845834,1.0813453246622007
1503943632433,+0.839,+0.464,+0.147,+0.241,+0.885,-0.009,-0.504,+25.250,+9.938,+1.938,-16, -5, -6, 0, -3, -5, -1, -4,2.568720132329355,1.0161974068083501
1503943632455,+0.839,+0.463,+0.152,+0.243,+0.905,-0.024,-0.527,+28.562,+5.125,+2.875,4, 2, -1, -4, -3, 1, 2, 4,2.5612538591488905,1.0178691841993246
1503943632478,+0.838,+0.461,+0.156,+0.245,+0.919,-0.044,-0.507,+29.062,-3.562,+3.250,20, 8, 3, -1, -4, 1, 3, 2,2.55239588600528,1.0159206634367666
1503943632493,+0.838,+0.459,+0.161,+0.247,+0.891,-0.059,-0.465,+29.125,-7.688,+3.562,5, 2, 1, 2, 3, 0, 0, 1,2.5442570358364556,1.0153506881213497
1503943632516,+0.837,+0.457,+0.166,+0.249,+0.849,-0.043,-0.479,+34.188,-1.312,+5.125,-13, -3, -2, -4, -2, -1, -3, -1,2.5346759409972286,1.0144173569039243
1503943632538,+0.836,+0.456,+0.172,+0.251,+0.844,-0.046,-0.502,+38.812,+4.750,+7.750,3, 1, -8, -2, 1, 0, 0, -5,2.5251396934014765,1.016891609192296
1503943632553,+0.835,+0.454,+0.179,+0.253,+0.905,-0.073,-0.505,+40.250,+3.500,+11.250,-8, -2, -5, 2, 2, 3, 3, -3,2.5141239608366495,1.01796643452148
1503943632575,+0.835,+0.451,+0.186,+0.255,+0.925,-0.086,-0.496,+40.750,-5.188,+10.312,-18, -8, 1, 2, 2, -2, 1, 2,2.503961661815974,1.0173118774132968
1503943632598,+0.835,+0.447,+0.192,+0.257,+0.883,-0.099,-0.484,+41.688,-14.000,+6.562,-2, 2, -4, 2, 1, -1, -2, 0,2.493843948532027,1.0135443669203215
1503943632619,+0.835,+0.443,+0.198,+0.260,+0.862,-0.099,-0.508,+42.188,-12.875,+8.000,6, -3, -5, -2, -1, -2, -2, -6,2.482486410903542,1.0101835134272332
1503943632638,+0.834,+0.440,+0.205,+0.262,+0.846,-0.111,-0.497,+43.438,-5.188,+11.938,11, 7, 6, 2, 1, -1, -2, 0,2.470965361882842,1.0097115427239318
1503943632658,+0.833,+0.437,+0.213,+0.263,+0.867,-0.119,-0.478,+43.188,-1.188,+14.625,-5, -3, 1, 0, -3, -2, 1, 3,2.4601173437710107,1.0102528550337904
1503943632673,+0.833,+0.434,+0.220,+0.265,+0.885,-0.134,-0.487,+43.938,-5.125,+12.938,-9, -5, -5, -2, 2, 0, 1, -1,2.4504353815214808,1.0107334192187365
1503943632698,+0.832,+0.431,+0.226,+0.267,+0.861,-0.132,-0.506,+44.125,-6.812,+8.938,6, -5, -5, -1, -3, -1, -1, -2,2.439772910733957,1.0099186039741144
1503943632718,+0.831,+0.427,+0.233,+0.270,+0.834,-0.146,-0.505,+42.938,-6.938,+9.125,-3, 0, 1, -2, -1, 2, 3, 6,2.4264467246226253,1.0082645465746352
1503943632733,+0.830,+0.424,+0.239,+0.272,+0.852,-0.144,-0.473,+39.750,-4.000,+8.750,-18, -8, 1, 0, -2, 2, -4, 1,2.415884455560217,1.0078572698875303
1503943632755,+0.829,+0.422,+0.245,+0.274,+0.846,-0.148,-0.475,+39.000,+0.562,+7.625,9, 0, -6, -4, 0, 1, -1, -4,2.4061470802987666,1.00998225527434
1503943632780,+0.827,+0.420,+0.251,+0.276,+0.839,-0.145,-0.489,+39.375,+1.375,+7.375,-6, -4, 1, 1, 1, -1, 0, 1,2.3945862243604803,1.0118277214691287
1503943632793,+0.826,+0.418,+0.256,+0.278,+0.842,-0.148,-0.495,+37.375,+1.375,+4.562,7, -1, 3, 0, -1, 0, -2, 8,2.385544397586344,1.013117060226456
1503943632816,+0.824,+0.416,+0.261,+0.280,+0.844,-0.153,-0.505,+37.375,+1.062,+5.375,2, -2, -2, -2, -3, 0, 1, 1,2.3746149208327134,1.0140874980450472
1503943632838,+0.823,+0.414,+0.266,+0.283,+0.837,-0.171,-0.501,+36.125,+0.250,+3.562,13, 1, -2, 0, 0, -1, -3, -2,2.364422615557096,1.0159256285943938
1503943632854,+0.822,+0.413,+0.272,+0.284,+0.836,-0.184,-0.478,+34.500,+3.938,+4.750,-4, 3, 0, -3, 1, 1, 0, -3,2.356872199517421,1.0208918844211443
1503943632875,+0.820,+0.412,+0.277,+0.286,+0.824,-0.194,-0.473,+33.062,+8.750,+7.250,-20, -3, 2, -1, -3, 0, 0, -3,2.346785223999863,1.0245969787258613
1503943632900,+0.818,+0.411,+0.282,+0.286,+0.804,-0.200,-0.484,+29.688,+10.688,+7.500,22, -1, -4, -1, 1, -1, -3, -2,2.3390351252589126,1.0278318456420414
1503943632920,+0.816,+0.411,+0.287,+0.287,+0.838,-0.185,-0.475,+29.250,+14.188,+9.312,-6, -4, 0, -2, -5, -2, -2, 1,2.330910401433085,1.0337932137186583
1503943632935,+0.814,+0.411,+0.292,+0.287,+0.846,-0.208,-0.457,+29.000,+12.625,+11.312,-9, 3, -1, 1, 0, 0, 0, -1,2.3239308640111873,1.039565977728211
1503943632958,+0.813,+0.410,+0.297,+0.287,+0.853,-0.231,-0.468,+27.750,+9.062,+12.188,-3, -3, -1, -1, -3, -3, -1, 0,2.31816381290274,1.043567662583233
1503943632973,+0.812,+0.408,+0.302,+0.287,+0.811,-0.236,-0.497,+26.438,+7.562,+11.625,-12, 0, -2, -3, 1, -1, 2, 4,2.3115775448557505,1.0453747469221846
1503943632995,+0.811,+0.407,+0.306,+0.287,+0.813,-0.231,-0.461,+23.438,+8.625,+12.875,8, -9, -4, -3, -5, -1, -1, 0,2.306389164938997,1.0482015450600217
1503943633018,+0.810,+0.406,+0.310,+0.286,+0.856,-0.256,-0.422,+19.875,+4.875,+13.500,11, 5, -2, -1, 1, -1, -1, 3,2.302324225704985,1.0507819244701178
1503943633033,+0.810,+0.405,+0.314,+0.285,+0.816,-0.258,-0.421,+15.812,+3.312,+14.188,-21, -6, -1, -1, -2, 1, -2, -1,2.300372166232731,1.053847096855311
1503943633055,+0.809,+0.405,+0.317,+0.284,+0.792,-0.250,-0.435,+12.625,+11.375,+16.188,-1, 1, -3, 0, 0, -2, 0, -4,2.2976857514560645,1.0574163124635225
1503943633078,+0.809,+0.406,+0.320,+0.281,+0.813,-0.265,-0.405,+7.625,+16.312,+16.000,3, 2, -1, 0, -3, -1, 1, 0,2.3001876402786743,1.0630879854787034
1503943633093,+0.808,+0.408,+0.322,+0.278,+0.822,-0.293,-0.339,-3.688,+16.188,+14.000,-7, 0, 2, -3, -3, -2, 0, 1,2.3019452691073954,1.0692306111187342
1503943633121,+0.808,+0.410,+0.322,+0.274,+0.799,-0.315,-0.335,-13.062,+17.562,+11.812,14, 5, 5, -2, 2, 0, -3, -2,2.308115978362158,1.0725645995289455
1503943633138,+0.808,+0.413,+0.322,+0.270,+0.795,-0.332,-0.358,-20.312,+20.188,+10.250,-17, -7, 5, 1, 2, -1, 1, 2,2.315135659223624,1.0782448781859029
1503943633154,+0.808,+0.417,+0.320,+0.266,+0.805,-0.291,-0.410,-27.562,+21.500,+4.312,-2, -5, -1, 0, 1, 1, -1, -3,2.3241889400518034,1.0833983112932855
1503943633175,+0.809,+0.420,+0.316,+0.263,+0.840,-0.239,-0.455,-27.750,+19.375,+4.000,2, 2, 1, 2, -4, -1, 4, -1,2.3346030928859247,1.0841518002892903
1503943633198,+0.810,+0.421,+0.313,+0.261,+0.936,-0.256,-0.429,-25.188,+0.688,+5.125,1, 6, 3, 1, 1, -1, -2, -4,2.341647621546471,1.0820399045125952
1503943633213,+0.813,+0.420,+0.309,+0.259,+0.887,-0.299,-0.409,-29.562,-17.938,+6.750,-28, -7, -9, -5, -5, -1, -2, -2,2.3518003474642986,1.0747196390785352
1503943633235,+0.817,+0.418,+0.304,+0.257,+0.754,-0.268,-0.409,-33.438,-20.000,+5.500,16, 1, -6, 0, 1, -3, 0, -2,2.3638085786656493,1.064189625044387
1503943633258,+0.819,+0.418,+0.299,+0.254,+0.703,-0.234,-0.433,-33.875,+0.125,+4.000,-18, -5, 1, 2, 1, 2, -1, 0,2.37458170104637,1.0573396536691295
1503943633274,+0.821,+0.419,+0.294,+0.251,+0.765,-0.246,-0.452,-37.062,+3.062,+4.562,11, 2, 8, 11, 7, 6, 3, 2,2.386154927077329,1.0529789661294422
1503943633295,+0.824,+0.421,+0.289,+0.247,+0.847,-0.260,-0.402,-47.625,-1.812,+6.438,6, 9, 4, -1, -3, -6, -7, -5,2.4016860688587696,1.051259475055064
1503943633318,+0.828,+0.421,+0.280,+0.243,+0.777,-0.210,-0.424,-57.250,-11.125,+5.125,-3, -4, -7, -4, -3, -1, -1, 9,2.420251653028512,1.0403505141395062
1503943633333,+0.832,+0.422,+0.271,+0.239,+0.697,-0.155,-0.458,-60.375,-10.562,+3.250,3, -1, -4, -6, -2, -2, -1, -1,2.439536465142223,1.032233245577014
1503943633360,+0.836,+0.421,+0.261,+0.235,+0.696,-0.150,-0.509,-60.750,-11.188,+3.500,3, 0, -2, -1, 0, -3, -3, -9,2.458108672209591,1.0186061134833049
1503943633378,+0.840,+0.421,+0.251,+0.231,+0.769,-0.190,-0.469,-64.125,-15.062,+4.625,7, 5, 6, 1, 2, 2, 2, 9,2.4773905063977395,1.0078503376281713
1503943633395,+0.845,+0.421,+0.241,+0.226,+0.824,-0.197,-0.445,-72.375,-23.250,+5.500,-2, 2, 4, 7, 5, 1, -4, -8,2.499759604061174,0.9977858754373219
1503943633417,+0.850,+0.419,+0.229,+0.221,+0.786,-0.195,-0.487,-75.188,-30.500,+5.562,-9, 1, -5, -1, 0, 1, -2, -5,2.5222225062924757,0.9813903132453301
1503943633438,+0.856,+0.416,+0.218,+0.217,+0.791,-0.168,-0.553,-70.375,-31.062,+1.875,-1, -8, -6, -6, -4, -1, 2, 5,2.5435714953246684,0.9650142616509414
1503943633454,+0.859,+0.415,+0.207,+0.214,+0.863,-0.136,-0.545,-62.188,-24.312,-0.062,6, -7, 17, 4, 3, 1, 0, 2,2.5598161671966153,0.9527768022395839
1503943633476,+0.864,+0.413,+0.198,+0.211,+0.926,-0.199,-0.509,-62.125,-37.750,-0.938,-6, -10, -2, 0, -2, 0, -2, 2,2.5771313638233266,0.9414607150045519
1503943633498,+0.869,+0.409,+0.188,+0.207,+0.991,-0.262,-0.502,-65.625,-47.562,+4.750,1, 2, 0, -1, 1, -1, -1, 0,2.595432089227268,0.9246675378993713
1503943633514,+0.874,+0.405,+0.179,+0.202,+0.876,-0.229,-0.548,-64.438,-44.500,+9.250,-3, -30, -6, -5, -4, -2, 0, 5,2.6145055395956116,0.9089533269483095
1503943633536,+0.878,+0.401,+0.170,+0.198,+0.812,-0.186,-0.562,-57.750,-36.125,+6.375,0, -12, -9, -2, -2, 0, 1, -2,2.630627614715206,0.8933603414951404
1503943633558,+0.881,+0.400,+0.163,+0.194,+0.875,-0.200,-0.566,-51.188,-20.188,+6.875,-10, -6, -3, -2, -1, -2, -2, -2,2.6454178808401436,0.8862672205286303
1503943633574,+0.882,+0.401,+0.158,+0.189,+0.912,-0.224,-0.547,-47.062,-5.500,+8.312,6, 10, 1, 3, 0, -2, -2, -1,2.6586364881589066,0.8844014358069608
1503943633596,+0.883,+0.403,+0.153,+0.185,+0.907,-0.200,-0.562,-47.125,-5.500,+5.625,-10, 1, -1, -3, -2, -4, -4, -7,2.670795934051442,0.8852630352048482
1503943633621,+0.885,+0.403,+0.147,+0.182,+0.889,-0.177,-0.580,-44.750,-14.312,+2.125,2, 3, 5, 5, 5, 6, 5, 0,2.682453915335414,0.881509289314985
1503943633634,+0.887,+0.401,+0.141,+0.179,+0.837,-0.171,-0.619,-38.625,-16.750,-1.312,0, 1, 0, -1, -1, 0, -1, 3,2.6932006838591778,0.8731529645264707
1503943633658,+0.889,+0.400,+0.136,+0.178,+0.801,-0.122,-0.644,-32.500,-14.750,-3.938,1, 13, 2, -2, -4, -2, -1, -1,2.7004305741544106,0.8683430310478523
1503943633678,+0.890,+0.398,+0.131,+0.177,+0.792,-0.115,-0.586,-29.062,-17.375,-3.750,4, -6, -9, -5, -4, -2, 0, -2,2.7059998710227724,0.8607310104386385
1503943633694,+0.892,+0.397,+0.127,+0.176,+0.829,-0.113,-0.590,-25.500,-13.312,-1.062,7, 7, -1, 1, -2, -1, -2, -7,2.7124488360291688,0.8567317189750495
1503943633716,+0.892,+0.398,+0.124,+0.176,+0.886,+0.023,-0.725,-12.812,-2.750,-1.250,2, -6, -3, 2, 0, 1, -3, -1,2.715057420141127,0.8572736801479265
1503943633738,+0.893,+0.396,+0.123,+0.175,+0.874,+0.010,-0.812,-4.812,-3.062,+7.938,-9, -10, -9, -5, -2, 0, -2, -1,2.7177071771949235,0.8522742019047723
1503943633755,+0.895,+0.393,+0.122,+0.172,+0.836,-0.169,-0.647,-16.500,-22.188,+12.688,3, 1, 2, -1, 0, -1, -1, 2,2.724371419371738,0.8451121833086032
1503943633776,+0.897,+0.391,+0.117,+0.170,+0.833,-0.113,-0.501,-31.125,-27.625,+5.188,-5, -9, -3, -4, -6, -1, 1, 0,2.732700773816444,0.8381680436326152
1503943633798,+0.899,+0.389,+0.113,+0.169,+0.679,-0.018,-0.604,-22.000,-18.062,+0.750,1, 20, 2, -2, -1, -2, -4, -3,2.7386328800478474,0.8320467994149323
1503943633817,+0.899,+0.389,+0.111,+0.168,+0.653,-0.028,-0.678,-12.188,+9.000,+2.625,-4, -7, -4, 0, 0, -2, -1, -3,2.7417251888085574,0.8307767073616995
1503943633836,+0.897,+0.393,+0.111,+0.166,+0.741,-0.069,-0.638,-11.750,+28.062,+6.000,1, -4, 0, 0, -1, -1, 0, 1,2.7444820734456226,0.8389088483385136
1503943633863,+0.896,+0.397,+0.109,+0.164,+0.850,-0.036,-0.600,-15.188,+17.375,+5.625,1, -1, 1, 2, 2, 0, 0, 0,2.7498157993686565,0.8465038195937066
1503943633877,+0.896,+0.398,+0.107,+0.163,+0.846,-0.015,-0.631,-17.812,+1.375,+1.500,-3, 2, -1, -1, 0, -1, -1, -3,2.753361064125966,0.8476610195379153
1503943633898,+0.897,+0.398,+0.103,+0.162,+0.739,-0.031,-0.644,-20.312,-6.438,-0.250,-1, -9, 0, 0, -3, -2, -1, 1,2.7590346965972667,0.8459261985724783
1503943633918,+0.898,+0.398,+0.100,+0.160,+0.698,-0.055,-0.618,-23.000,-0.562,+1.562,-7, -5, -5, -3, 0, 0, 1, 3,2.7656258216599867,0.8446309206052727
1503943633936,+0.897,+0.401,+0.098,+0.158,+0.749,-0.052,-0.573,-20.438,+16.875,+3.375,1, -3, 1, -1, 0, -1, -1, -1,2.7706430935134736,0.8499897305867734
1503943633960,+0.896,+0.405,+0.097,+0.156,+0.798,-0.045,-0.579,-13.000,+23.375,+4.562,-3, -1, -2, 1, 0, 0, -1, 2,2.775339523255314,0.8582855713955764
1503943633978,+0.894,+0.408,+0.097,+0.155,+0.820,-0.039,-0.600,-7.875,+19.625,+2.688,-3, -2, -2, 0, -2, -2, -1, -2,2.7762334050340467,0.8643061411684214
1503943633994,+0.894,+0.410,+0.096,+0.154,+0.801,-0.031,-0.608,-8.500,+8.562,+2.062,-4, 0, -3, 0, 0, -2, 1, -1,2.7794775737130006,0.8685008376064414
1503943634016,+0.894,+0.410,+0.094,+0.153,+0.791,-0.017,-0.593,-11.062,+0.438,+2.625,9, 5, -4, 0, -1, -3, -3, 1,2.7826887954928132,0.8674001583976524
1503943634038,+0.894,+0.411,+0.093,+0.152,+0.781,-0.012,-0.570,-11.188,+1.562,+3.938,-7, 2, 3, 2, -2, 1, -3, -2,2.7855361555502016,0.8692070696342572
1503943634057,+0.894,+0.413,+0.092,+0.150,+0.779,-0.013,-0.566,-7.812,+7.250,+5.500,1, 4, 2, -3, -2, 1, 2, 1,2.790459045908568,0.8733186030820628
1503943634076,+0.893,+0.414,+0.092,+0.149,+0.782,-0.024,-0.586,-4.312,+11.875,+7.438,-2, -12, -7, -3, -1, -3, -2, -1,2.7915866019551236,0.8750865449927744
1503943634098,+0.893,+0.416,+0.093,+0.147,+0.804,-0.044,-0.592,-4.000,+9.188,+7.938,-2, 3, 2, -3, -1, -1, -2, -4,2.79495147893501,0.8801644443150831
1503943634114,+0.892,+0.417,+0.093,+0.146,+0.824,-0.070,-0.582,-5.250,+4.500,+8.188,-4, -7, -7, -4, 0, 0, -2, 2,2.7960862436605227,0.8819386738487619
1503943634136,+0.892,+0.418,+0.094,+0.144,+0.824,-0.080,-0.580,-5.688,+3.812,+8.750,2, 1, 0, 0, -1, -2, -2, 0,2.799050924385501,0.8846002234898336
1503943634158,+0.892,+0.418,+0.094,+0.142,+0.811,-0.083,-0.583,-4.812,+1.438,+8.062,1, 3, 1, 1, -2, -1, 1, 1,2.802419696638926,0.884361650257722
1503943634174,+0.893,+0.417,+0.095,+0.141,+0.796,-0.085,-0.597,-4.250,-1.562,+7.438,-1, -5, -5, -2, -1, 1, 0, 2,2.803860345907114,0.8828177985725232
1503943634199,+0.893,+0.417,+0.095,+0.139,+0.801,-0.087,-0.607,-3.938,-4.938,+6.688,1, -5, 1, -2, -3, -2, -1, -2,2.8072375223440433,0.8825761301231032
1503943634218,+0.894,+0.416,+0.095,+0.138,+0.805,-0.085,-0.588,-4.312,-5.500,+6.125,-1, 7, 3, 0, -3, 1, -2, -5,2.8094713279067554,0.880559929188169
1503943634235,+0.894,+0.415,+0.096,+0.137,+0.797,-0.083,-0.599,-4.250,-2.562,+5.375,1, 0, -6, 0, 1, -3, -2, -2,2.8100162023430504,0.8784840502664591
1503943634264,+0.894,+0.415,+0.095,+0.136,+0.793,-0.062,-0.594,-4.812,+0.000,+4.438,6, 5, -2, -2, 0, 0, 1, 1,2.8125005662895366,0.8778926378613681
1503943634278,+0.894,+0.415,+0.095,+0.135,+0.794,-0.055,-0.604,-5.312,+0.875,+3.125,-11, -8, 0, 3, 1, -1, 0, -1,2.814199725737185,0.8777710104600617
1503943634295,+0.894,+0.416,+0.095,+0.135,+0.813,-0.050,-0.596,-5.875,+1.438,+2.875,2, -1, 4, -2, -1, -1, -1, 1,2.814555182491492,0.8801963359248827
1503943634316,+0.894,+0.416,+0.094,+0.134,+0.803,-0.038,-0.592,-4.375,-0.375,+0.625,-1, -1, -1, 1, 1, 0, -3, 0,2.8170447545818234,0.8796120722831767
1503943634338,+0.895,+0.416,+0.093,+0.134,+0.792,-0.044,-0.584,-4.062,-3.250,-0.562,-2, 2, 4, 0, -1, 3, 3, 3,2.8187205589333755,0.8796835204941598
1503943634359,+0.895,+0.416,+0.093,+0.134,+0.781,-0.044,-0.583,-4.375,-0.562,+0.000,1, -4, -5, -3, -1, -2, -3, 1,2.8187205589333755,0.8796835204941598
1503943634376,+0.895,+0.416,+0.093,+0.134,+0.771,-0.040,-0.585,-3.188,+2.750,+1.000,-5, -4, 0, -2, -1, 2, -1, -5,2.8187205589333755,0.8796835204941598
1503943634399,+0.895,+0.416,+0.092,+0.133,+0.781,-0.040,-0.594,-2.688,+2.688,+2.750,-2, -2, -3, -3, -1, -1, -1, -2,2.821209576419959,0.8791095297404383
1503943634414,+0.894,+0.417,+0.093,+0.133,+0.809,-0.049,-0.583,-1.875,+1.562,+3.375,-7, -8, -1, -1, -3, -2, 1, -2,2.819890290191796,0.8814611058270995
1503943634436,+0.894,+0.417,+0.093,+0.132,+0.803,-0.065,-0.591,-1.438,-0.625,+3.812,-3, -3, -3, 0, 1, 0, 0, -1,2.821591915319603,0.8813425832438576
1503943634459,+0.895,+0.417,+0.093,+0.131,+0.799,-0.065,-0.588,-3.125,-0.875,+4.312,1, 3, 8, 1, 0, -1, 0, 0,2.8241665524885353,0.881755353211427
1503943634474,+0.895,+0.417,+0.093,+0.130,+0.797,-0.064,-0.589,-3.062,-1.000,+5.312,-6, -7, -3, 0, -1, -2, 1, -3,2.825868460009236,0.8816369152507474
1503943634497,+0.895,+0.416,+0.094,+0.130,+0.790,-0.061,-0.607,-1.938,-2.000,+5.250,-1, 4, 18, 3, 0, -2, -1, -1,2.824734634585087,0.8796631640532203
1503943634518,+0.895,+0.416,+0.094,+0.129,+0.793,-0.054,-0.614,-2.812,-1.375,+4.938,2, -8, -10, -4, -3, -1, 0, -3,2.82644016859048,0.8795430883824171
1503943634534,+0.896,+0.416,+0.094,+0.128,+0.798,-0.055,-0.589,-3.125,-0.750,+4.750,-4, -12, -8, -1, 2, 0, -1, 2,2.8290083573704776,0.8799542666756215
1503943634561,+0.896,+0.416,+0.093,+0.128,+0.802,-0.050,-0.583,-3.500,-0.688,+3.188,6, 21, 9, 2, 0, 0, 0, 0,2.829800074690929,0.8795022316648737
1503943634578,+0.896,+0.416,+0.093,+0.127,+0.804,-0.045,-0.589,-2.750,-0.188,+3.375,2, 5, 14, 1, -1, 0, -2, 3,2.831506684145052,0.8793834571853578
1503943634597,+0.896,+0.416,+0.093,+0.126,+0.785,-0.057,-0.597,-2.938,-0.688,+3.250,0, 0, -2, -3, -2, -3, -1, -1,2.8332151621109283,0.8792646486084992
1503943634616,+0.896,+0.415,+0.093,+0.126,+0.786,-0.064,-0.598,-3.188,-0.875,+2.562,1, 7, -7, -3, -2, -2, -3, 1,2.8328870380927738,0.8768366024368199
1503943634638,+0.896,+0.416,+0.093,+0.125,+0.785,-0.061,-0.587,-3.125,+1.188,+2.188,2, -6, -14, -4, -1, 0, 0, 0,2.8349255016688155,0.8791458059229684
1503943634654,+0.896,+0.416,+0.093,+0.125,+0.801,-0.062,-0.588,-2.500,+3.062,+2.312,-4, 18, -2, -1, 0, 0, 0, -2,2.8349255016688155,0.8791458059229684
1503943634676,+0.896,+0.417,+0.093,+0.125,+0.812,-0.067,-0.592,-2.062,+2.562,+1.812,0, -11, -1, 0, -1, -3, 0, -2,2.8352511278789634,0.8815757726549991
1503943634699,+0.896,+0.417,+0.093,+0.125,+0.805,-0.067,-0.592,-1.312,-0.375,+0.875,1, -3, -1, 1, 0, 1, -2, -1,2.8352511278789634,0.8815757726549991
1503943634714,+0.896,+0.416,+0.093,+0.124,+0.799,-0.071,-0.596,-2.375,-2.062,+0.125,7, 12, 10, 1, 1, 0, -1, 0,2.836637695840316,0.8790269291174335
1503943634736,+0.896,+0.416,+0.093,+0.124,+0.788,-0.062,-0.596,-3.812,-2.125,+0.750,-7, -9, -10, -1, -2, -2, -1, -2,2.836637695840316,0.8790269291174335
1503943634764,+0.896,+0.416,+0.093,+0.124,+0.791,-0.059,-0.586,-4.250,-2.125,+1.812,-3, -5, -2, -2, -1, 0, -1, 1,2.836637695840316,0.8790269291174335
1503943634774,+0.896,+0.416,+0.092,+0.123,+0.787,-0.053,-0.585,-3.938,-1.500,+2.188,8, 4, -1, 0, -1, -2, 0, 0,2.839148168741282,0.8784652035730299
1503943634800,+0.896,+0.416,+0.092,+0.123,+0.794,-0.051,-0.585,-3.062,-1.688,+3.062,-6, -7, 4, -2, -3, 1, -1, -3,2.839148168741282,0.8784652035730299
1503943634818,+0.897,+0.415,+0.092,+0.122,+0.790,-0.059,-0.602,-3.062,-1.500,+3.875,1, -1, -3, -2, -2, -3, 1, 0,2.8413783769741916,0.8764503604828786
1503943634836,+0.897,+0.415,+0.092,+0.121,+0.786,-0.061,-0.590,-2.938,-2.625,+4.375,-3, -7, -4, -3, -3, -1, -1, 1,2.843095932531326,0.8763323728242182
1503943634856,+0.897,+0.414,+0.092,+0.121,+0.786,-0.058,-0.592,-2.625,-2.875,+4.562,-1, -5, -11, -3, 1, -1, -1, -3,2.842783000956247,0.8739043641620662
1503943634879,+0.897,+0.414,+0.092,+0.120,+0.790,-0.071,-0.590,-1.375,-0.750,+4.500,-2, 6, -4, -1, 1, 1, 1, 2,2.844505038812902,0.8737859620674708
1503943634901,+0.897,+0.414,+0.093,+0.119,+0.793,-0.069,-0.610,-1.750,+1.750,+4.125,-4, -7, -5, -2, -2, -1, -2, 1,2.845433043298525,0.8741052114456906
1503943634916,+0.897,+0.415,+0.093,+0.119,+0.801,-0.072,-0.599,-3.062,+0.688,+2.938,-3, 19, 7, 1, 0, -3, -3, -5,2.845739952792901,0.8765339767572481
1503943634938,+0.897,+0.415,+0.092,+0.118,+0.807,-0.062,-0.593,-4.000,-1.375,+1.750,1, -9, 0, 0, -1, 0, -2, -2,2.8482594736852285,0.8759782091721641
1503943634954,+0.898,+0.414,+0.092,+0.118,+0.800,-0.064,-0.594,-2.688,-3.125,+0.875,-3, 0, 5, -1, 1, -2, -1, 0,2.84876929819363,0.8740819045149276
1503943634977,+0.898,+0.414,+0.092,+0.118,+0.782,-0.077,-0.599,-2.375,-1.500,+0.250,-1, 4, -2, 0, -1, -1, 2, 0,2.84876929819363,0.8740819045149276
1503943635000,+0.898,+0.414,+0.092,+0.118,+0.784,-0.070,-0.599,-2.500,-0.250,-0.125,-4, -2, 3, 1, 0, -1, -1, -2,2.84876929819363,0.8740819045149276
1503943635014,+0.898,+0.414,+0.092,+0.118,+0.794,-0.062,-0.601,-2.625,+0.938,-0.312,10, 0, -3, -3, 0, -1, -3, -1,2.84876929819363,0.8740819045149276
1503943635037,+0.898,+0.415,+0.092,+0.118,+0.788,-0.064,-0.600,-1.688,+2.250,-0.875,-4, -9, -1, -1, -1, 1, -2, 0,2.8490718059003775,0.8765106238853263
1503943635059,+0.897,+0.415,+0.092,+0.118,+0.792,-0.059,-0.598,-1.250,+2.875,-1.500,2, 1, 1, 1, -1, -2, -2, -2,2.8482594736852285,0.8759782091721641
1503943635074,+0.897,+0.415,+0.091,+0.119,+0.785,-0.054,-0.600,-1.062,+1.562,-1.250,2, 20, -1, -1, -3, -1, -4, -4,2.847333409483078,0.8756617440727477
1503943635097,+0.897,+0.415,+0.091,+0.119,+0.786,-0.056,-0.590,-1.000,+0.938,-0.875,-1, -12, -5, 0, 0, -1, 1, -1,2.847333409483078,0.8756617440727477
1503943635118,+0.897,+0.416,+0.092,+0.119,+0.793,-0.062,-0.589,-0.375,+2.250,+0.062,-7, -12, 0, -1, -1, 0, 2, 0,2.8468442355531725,0.8785266111471375
1503943635134,+0.897,+0.416,+0.092,+0.119,+0.798,-0.067,-0.603,-0.500,+1.938,+0.188,-3, -3, -8, -1, 0, -1, 1, 2,2.8468442355531725,0.8785266111471375
1503943635156,+0.897,+0.416,+0.092,+0.119,+0.800,-0.066,-0.594,-1.562,+0.000,-0.125,-4, -2, -1, -2, -1, 0, 1, -3,2.8468442355531725,0.8785266111471375
1503943635178,+0.897,+0.416,+0.092,+0.119,+0.797,-0.061,-0.603,-2.188,-0.500,+0.625,-3, -11, -3, -3, -1, -1, -1, 2,2.8468442355531725,0.8785266111471375
1503943635194,+0.897,+0.416,+0.092,+0.119,+0.789,-0.060,-0.587,-2.500,-1.188,+0.562,-2, -1, 2, 0, -1, -1, -1, -3,2.8468442355531725,0.8785266111471375
1503943635216,+0.897,+0.416,+0.092,+0.119,+0.788,-0.066,-0.601,-2.062,+0.062,+0.125,2, 12, 17, 1, 1, -1, 0, -1,2.8468442355531725,0.8785266111471375
1503943635239,+0.897,+0.416,+0.092,+0.119,+0.801,-0.059,-0.600,-1.938,+0.312,-0.312,1, -3, -3, 0, -1, 0, 0, 1,2.8468442355531725,0.8785266111471375
1503943635254,+0.897,+0.416,+0.091,+0.119,+0.798,-0.062,-0.593,-2.375,-0.625,-0.500,2, -6, -5, 1, -3, -2, 0, -3,2.8476418364193674,0.8780920716989846
1503943635276,+0.897,+0.416,+0.091,+0.119,+0.789,-0.061,-0.587,-2.438,-1.375,-0.938,4, 7, -4, -3, -1, 0, -2, -1,2.8476418364193674,0.8780920716989846
1503943635306,+0.897,+0.416,+0.091,+0.119,+0.781,-0.055,-0.583,-1.938,+0.375,-0.750,-6, 6, -1, 0, -1, 1, 0, 0,2.8476418364193674,0.8780920716989846
1503943635314,+0.897,+0.416,+0.091,+0.119,+0.785,-0.054,-0.595,-0.562,+2.625,-0.125,-3, -1, -3, -2, -1, -2, -3, -3,2.8476418364193674,0.8780920716989846
1503943635336,+0.896,+0.417,+0.091,+0.119,+0.785,-0.059,-0.600,-0.062,+3.500,-0.188,-3, -11, -3, -1, -1, -2, 0, -1,2.847137269624392,0.8799916366812015
1503943635359,+0.896,+0.417,+0.091,+0.119,+0.789,-0.057,-0.593,-0.438,+2.375,-0.312,-1, -4, -4, 1, -1, 1, 0, 1,2.847137269624392,0.8799916366812015
1503943635375,+0.896,+0.418,+0.091,+0.119,+0.796,-0.056,-0.581,-0.688,+2.250,-0.188,-1, 4, 0, 0, 0, 0, 1, -2,2.847448408749158,0.8824254921274218
1503943635398,+0.896,+0.418,+0.092,+0.119,+0.794,-0.055,-0.591,-0.062,+2.938,-0.688,3, 16, -3, 0, -2, -1, 0, -2,2.8466468584842106,0.8828602478120974
1503943635419,+0.896,+0.419,+0.092,+0.120,+0.792,-0.058,-0.589,+0.188,+3.625,-0.062,1, -16, 0, 0, 1, 1, 0, 1,2.845243303893654,0.8854122763118955
1503943635435,+0.895,+0.419,+0.092,+0.120,+0.806,-0.063,-0.588,+0.500,+2.750,-0.125,-2, -2, 1, 0, 1, -1, 0, -1,2.844424220480254,0.884880645265383
1503943635457,+0.895,+0.419,+0.093,+0.120,+0.805,-0.066,-0.596,+0.688,+2.188,-0.312,-6, -10, -6, -1, -3, 0, -1, 1,2.8436206287069563,0.885319992045149
1503943635479,+0.895,+0.419,+0.093,+0.120,+0.796,-0.058,-0.589,+0.000,+0.750,-0.438,1, 5, 4, 0, 0, -1, 1, 1,2.8436206287069563,0.885319992045149
1503943635494,+0.895,+0.419,+0.093,+0.120,+0.803,-0.058,-0.592,-0.438,+0.562,+0.062,-5, -3, 1, 1, -1, -3, -4, -2,2.8436206287069563,0.885319992045149
1503943635516,+0.895,+0.420,+0.093,+0.120,+0.791,-0.054,-0.589,-0.250,+1.438,-0.750,1, -4, -1, -1, 1, 2, 1, 0,2.8439358438047613,0.8877569406544311
1503943635539,+0.895,+0.420,+0.093,+0.121,+0.796,-0.050,-0.585,-0.125,+0.812,-1.000,1, 5, -3, -2, -1, -2, -1, 1,2.8422233502589385,0.8878745514296856
1503943635554,+0.895,+0.420,+0.093,+0.121,+0.806,-0.053,-0.588,-0.688,-0.375,-0.875,-1, -4, 0, -2, -1, 0, -2, -3,2.8422233502589385,0.8878745514296856
1503943635583,+0.895,+0.420,+0.093,+0.121,+0.800,-0.055,-0.583,-0.812,-0.750,-0.188,4, -6, -2, 0, 0, 0, -1, -2,2.8422233502589385,0.8878745514296856
1503943635600,+0.895,+0.420,+0.093,+0.121,+0.789,-0.063,-0.585,-0.438,-0.062,+0.750,-2, -6, -8, -3, -1, -2, 0, -1,2.8422233502589385,0.8878745514296856
1503943635614,+0.895,+0.420,+0.093,+0.121,+0.789,-0.062,-0.593,-0.562,+1.312,+1.938,-3, 1, -2, -2, -1, -1, 0, -2,2.8422233502589385,0.8878745514296856
1503943635636,+0.895,+0.420,+0.093,+0.120,+0.789,-0.061,-0.595,-0.500,+0.750,+1.938,-1, 1, 11, 2, -2, 0, 0, -1,2.8439358438047613,0.8877569406544311
1503943635659,+0.895,+0.420,+0.093,+0.120,+0.802,-0.061,-0.590,-1.062,-0.688,+1.500,1, -5, -6, -1, -1, -1, 0, 0,2.8439358438047613,0.8877569406544311
1503943635675,+0.895,+0.419,+0.093,+0.120,+0.798,-0.067,-0.592,-1.500,-1.562,+1.875,1, 3, -2, 1, 1, -2, 0, 2,2.8436206287069563,0.885319992045149
1503943635696,+0.895,+0.419,+0.093,+0.120,+0.784,-0.058,-0.590,-1.750,+0.312,+2.188,-1, 3, -3, -3, -4, 0, -2, -1,2.8436206287069563,0.885319992045149
1503943635719,+0.895,+0.420,+0.093,+0.119,+0.792,-0.052,-0.586,-1.375,+1.312,+2.188,-1, 2, 1, 0, -1, 1, 0, 0,2.84565013853374,0.8876392958708642
1503943635735,+0.895,+0.420,+0.094,+0.119,+0.816,-0.066,-0.579,-1.062,+1.125,+2.000,5, 5, 1, -1, 0, -1, 1, -1,2.844845441191227,0.8880805617281078
1503943635756,+0.895,+0.420,+0.094,+0.119,+0.809,-0.068,-0.589,-0.812,-0.750,+0.688,-6, -8, -4, -2, 0, -1, 1, -3,2.844845441191227,0.8880805617281078
1503943635779,+0.895,+0.420,+0.094,+0.119,+0.804,-0.070,-0.589,-1.125,-1.000,+0.812,0, 1, -3, 0, 0, 0, 1, -2,2.844845441191227,0.8880805617281078
1503943635794,+0.895,+0.420,+0.094,+0.119,+0.794,-0.064,-0.589,-0.938,-0.250,+0.812,1, -4, -1, -1, -1, -4, -3, 0,2.844845441191227,0.8880805617281078
1503943635816,+0.895,+0.420,+0.094,+0.119,+0.789,-0.059,-0.588,-1.062,+1.562,+0.688,0, 7, 2, -1, -2, -2, -1, 0,2.844845441191227,0.8880805617281078
1503943635840,+0.895,+0.420,+0.094,+0.119,+0.794,-0.062,-0.587,-0.875,+2.125,+0.375,-3, -1, 0, -3, -3, -1, -1, -4,2.844845441191227,0.8880805617281078
1503943635861,+0.894,+0.421,+0.094,+0.119,+0.802,-0.065,-0.583,-1.375,+1.688,+0.438,-3, -7, 1, 3, -1, 0, -3, -1,2.844337148482808,0.8899884326949351
1503943635877,+0.894,+0.421,+0.094,+0.119,+0.795,-0.070,-0.595,-1.000,+2.062,+0.375,-2, -4, -3, -2, 0, -1, -2, -1,2.844337148482808,0.8899884326949351
1503943635898,+0.894,+0.421,+0.094,+0.119,+0.797,-0.072,-0.585,-1.000,+2.250,+0.375,-3, -1, -3, 0, -2, 1, 1, 0,2.844337148482808,0.8899884326949351
1503943635920,+0.894,+0.422,+0.094,+0.118,+0.803,-0.075,-0.581,-1.500,+2.312,+0.500,-1, 2, -7, -2, -1, -1, -1, -1,2.8463652479546613,0.8923110217716139
1503943635936,+0.894,+0.422,+0.094,+0.119,+0.805,-0.070,-0.583,-1.438,+2.125,-0.438,0, 3, 4, 2, 0, 0, -1, 0,2.8446517431591487,0.8924292700375801
1503943635958,+0.894,+0.422,+0.094,+0.119,+0.811,-0.065,-0.583,-1.688,+2.500,-0.875,0, 18, -8, 0, -4, -2, -3, -3,2.8446517431591487,0.8924292700375801
1503943635980,+0.893,+0.423,+0.094,+0.119,+0.803,-0.053,-0.578,-1.750,+1.875,-0.938,7, -3, -2, -1, 0, 0, -1, -1,2.8441465426881587,0.8943410012298046
1503943635995,+0.893,+0.423,+0.094,+0.119,+0.797,-0.059,-0.587,-1.125,+1.625,-1.250,-1, -4, 1, -1, -1, -3, 0, -2,2.8441465426881587,0.8943410012298046
1503943636018,+0.893,+0.423,+0.094,+0.119,+0.789,-0.056,-0.583,-0.625,+2.500,-1.312,0, -7, 2, 1, 1, 0, 2, 4,2.8441465426881587,0.8943410012298046
1503943636040,+0.893,+0.424,+0.094,+0.119,+0.791,-0.063,-0.582,-0.625,+4.812,-0.688,1, 2, -1, 0, 0, 1, 2, -1,2.8444638491157086,0.896785356688968
1503943636055,+0.892,+0.425,+0.094,+0.119,+0.809,-0.061,-0.578,-0.500,+5.375,-0.250,2, -12, -1, -2, -2, 0, -1, 0,2.843961766452258,0.8987009937040794
1503943636078,+0.892,+0.425,+0.095,+0.120,+0.817,-0.062,-0.574,+0.375,+2.688,-0.375,-6, -10, -1, -1, -2, 0, -2, -2,2.8414364002801618,0.8992646161725693
1503943636100,+0.892,+0.426,+0.095,+0.120,+0.807,-0.064,-0.579,+1.000,+1.000,+0.250,-2, 3, 0, 2, 0, -1, -1, 0,2.8417584972809014,0.9017120531556927
1503943636115,+0.892,+0.425,+0.095,+0.120,+0.807,-0.075,-0.583,+0.500,+0.125,+1.625,-2, -2, -6, -3, -2, -2, -3, -4,2.8414364002801618,0.8992646161725693
1503943636138,+0.892,+0.425,+0.096,+0.119,+0.805,-0.075,-0.573,-1.125,-0.500,+1.812,-2, 3, 2, -2, 0, -2, 0, 2,2.842331429556288,0.8995943907831617
1503943636160,+0.892,+0.425,+0.096,+0.119,+0.814,-0.068,-0.578,-1.875,-1.000,+1.375,0, -1, -2, -3, 1, 0, -1, -1,2.842331429556288,0.8995943907831617
1503943636183,+0.892,+0.425,+0.096,+0.119,+0.817,-0.062,-0.579,-2.000,-1.500,+0.625,-4, -2, 0, -2, -1, -1, -2, -3,2.842331429556288,0.8995943907831617
1503943636198,+0.892,+0.425,+0.095,+0.119,+0.804,-0.062,-0.577,-1.562,-2.250,+0.125,-1, 3, 3, 1, -2, 0, -1, -1,2.8431463935812293,0.8991461002049282
1503943636220,+0.892,+0.424,+0.095,+0.119,+0.795,-0.064,-0.577,-1.500,-2.125,+0.188,-2, 9, 8, 1, 0, -2, -1, -2,2.842827111778719,0.8966997351680714
1503943636238,+0.893,+0.424,+0.095,+0.119,+0.804,-0.062,-0.579,-1.312,-1.500,+0.938,-1, 5, 4, 1, -3, 0, -1, -1,2.8436517391686778,0.8972302227604938
1503943636257,+0.893,+0.424,+0.095,+0.119,+0.799,-0.062,-0.580,-0.875,-0.562,+0.375,3, -4, -3, -1, -1, -2, -1, -3,2.8436517391686778,0.8972302227604938
1503943636280,+0.893,+0.424,+0.095,+0.119,+0.804,-0.063,-0.579,-0.938,+0.812,+0.125,-3, -5, -7, 0, -1, 0, 1, 1,2.8436517391686778,0.8972302227604938
1503943636295,+0.893,+0.424,+0.095,+0.119,+0.802,-0.069,-0.575,-0.938,+1.000,+0.000,-4, -3, -2, -3, 0, 1, -1, 1,2.8436517391686778,0.8972302227604938
1503943636317,+0.892,+0.425,+0.096,+0.119,+0.804,-0.069,-0.579,-0.688,+1.500,+0.562,3, 2, 3, -1, -1, 1, 2, 1,2.842331429556288,0.8995943907831617
1503943636341,+0.892,+0.425,+0.096,+0.119,+0.803,-0.067,-0.580,-0.062,+1.062,+0.562,-1, -7, -5, -2, -1, -1, 0, 0,2.842331429556288,0.8995943907831617
1503943636357,+0.892,+0.425,+0.096,+0.119,+0.803,-0.065,-0.577,-0.375,+1.500,+0.625,4, 2, 0, -1, 1, 0, 0, 4,2.842331429556288,0.8995943907831617
1503943636378,+0.892,+0.425,+0.096,+0.119,+0.815,-0.067,-0.568,-0.188,+1.375,+0.375,0, 1, -5, -2, 0, -2, -2, -4,2.842331429556288,0.8995943907831617
1503943636400,+0.892,+0.426,+0.096,+0.119,+0.805,-0.061,-0.570,-0.312,+1.375,+0.500,2, -11, 2, 1, -1, -2, -3, -3,2.842650193572365,0.9020422047437475
1503943636415,+0.892,+0.425,+0.097,+0.119,+0.795,-0.065,-0.586,+0.312,+0.750,+0.688,-6, -10, -8, -1, -3, 0, -1, -2,2.8415168751517323,0.9000458691054044
1503943636439,+0.892,+0.426,+0.097,+0.119,+0.801,-0.073,-0.583,-0.188,+1.312,+1.188,-4, 3, 1, 0, 0, -1, -3, 0,2.8418350184711976,0.9024936584232858
1503943636460,+0.892,+0.426,+0.097,+0.119,+0.801,-0.063,-0.573,-0.875,+2.000,+0.875,2, 3, 7, -2, -1, -1, 1, 0,2.8418350184711976,0.9024936584232858
1503943636477,+0.891,+0.426,+0.097,+0.119,+0.806,-0.057,-0.578,-1.188,+2.688,+1.000,3, 3, -2, -2, -1, 0, -2, -1,2.841005542732416,0.9019641411362357
1503943636497,+0.891,+0.427,+0.097,+0.119,+0.812,-0.063,-0.570,-0.375,+2.875,+0.125,2, 5, 1, 1, -1, -1, -1, 0,2.841326308296874,0.9044139743646649
1503943636520,+0.891,+0.427,+0.097,+0.119,+0.818,-0.071,-0.571,+0.062,+2.562,-0.625,-1, 2, 1, 2, -1, 1, 1, 1,2.841326308296874,0.9044139743646649
1503943636535,+0.891,+0.427,+0.098,+0.119,+0.811,-0.075,-0.569,+0.500,+1.250,-1.250,-5, -3, -3, -2, 1, -2, -1, 0,2.8405082949494633,0.9048688762100767
1503943636557,+0.891,+0.427,+0.098,+0.119,+0.809,-0.073,-0.569,+0.062,+0.062,-0.688,-4, 0, -1, 1, 0, 0, 1, 11,2.8405082949494633,0.9048688762100767
1503943636580,+0.891,+0.428,+0.098,+0.120,+0.817,-0.069,-0.556,+0.125,+0.062,-0.125,2, 3, 4, -1, -1, -2, -2, -2,2.839125697277355,0.9074411111313215
1503943636595,+0.891,+0.428,+0.098,+0.120,+0.808,-0.057,-0.567,-0.062,+0.312,+0.250,-8, -4, -2, 0, 1, -2, -4, -7,2.839125697277355,0.9074411111313215
1503943636618,+0.890,+0.428,+0.098,+0.120,+0.799,-0.058,-0.576,+0.188,+0.750,+0.438,1, 19, 4, 0, -1, -1, 2, -5,2.838290452964939,0.9069125103695079
1503943636642,+0.891,+0.428,+0.099,+0.120,+0.802,-0.078,-0.577,-0.125,-0.500,+1.000,1, -10, -5, -2, -2, 0, 0, -1,2.8383083580626045,0.9079003631039126
1503943636655,+0.891,+0.428,+0.099,+0.120,+0.812,-0.073,-0.570,-0.312,-0.875,+0.812,2, -2, 2, 0, 1, -1, -1, -1,2.8383083580626045,0.9079003631039126
1503943636678,+0.891,+0.427,+0.099,+0.120,+0.809,-0.064,-0.566,-0.062,-0.625,+1.250,-3, -5, -4, -1, -1, 0, 0, -1,2.8379859962883374,0.9054495491542451
1503943636701,+0.891,+0.427,+0.099,+0.120,+0.804,-0.062,-0.571,+1.125,+0.062,+1.500,2, -2, 0, -4, -2, -1, 0, 3,2.8379859962883374,0.9054495491542451
1503943636716,+0.891,+0.427,+0.100,+0.120,+0.806,-0.068,-0.568,+1.188,+0.438,+1.688,2, 1, -1, 0, -1, -1, -3, -4,2.8371696852596475,0.905912035467525
1503943636738,+0.890,+0.427,+0.100,+0.119,+0.814,-0.079,-0.580,+0.438,+0.812,+1.875,-3, -4, 0, 1, -2, -2, -3, -5,2.838034032263883,0.9052594900885697
1503943636760,+0.890,+0.427,+0.100,+0.119,+0.814,-0.076,-0.572,-0.250,+0.375,+1.062,3, 14, 3, 1, 0, 1, 1, 0,2.838034032263883,0.9052594900885697
1503943636776,+0.890,+0.427,+0.100,+0.119,+0.814,-0.080,-0.572,-0.500,-0.500,+0.750,2, -4, -1, -1, -3, -1, -3, -1,2.838034032263883,0.9052594900885697
1503943636797,+0.890,+0.427,+0.100,+0.119,+0.808,-0.073,-0.576,-0.438,-0.375,+0.500,-8, -9, -3, -3, -1, -2, -1, -5,2.838034032263883,0.9052594900885697
1503943636820,+0.890,+0.427,+0.100,+0.119,+0.798,-0.071,-0.573,-0.438,-0.438,+0.562,2, -2, -1, -1, 1, 1, 2, 1,2.838034032263883,0.9052594900885697
1503943636835,+0.890,+0.427,+0.101,+0.120,+0.812,-0.073,-0.570,+0.062,-0.188,+0.250,4, -4, -3, 0, -2, 0, 0, 1,2.8355081074825113,0.9058493753516756
1503943636858,+0.890,+0.427,+0.101,+0.120,+0.822,-0.079,-0.575,+0.438,-0.188,-0.438,-5, 0, 5, -1, 1, 0, 0, 1,2.8355081074825113,0.9058493753516756
1503943636880,+0.890,+0.427,+0.101,+0.120,+0.825,-0.081,-0.564,+1.000,-1.188,-1.125,1, -3, 2, -1, -1, 0, 0, -1,2.8355081074825113,0.9058493753516756
1503943636895,+0.890,+0.427,+0.101,+0.121,+0.823,-0.072,-0.571,+1.312,-1.000,-1.938,-1, 6, -1, -1, -3, -2, -1, -1,2.833803420686857,0.9059744139692342
