Timestamp,Orientation X,Orientation Y,Orientation Z,Orientation W,Accelerometer X,Accelerometer Y,Accelerometer Z,Gyroscope X,Gyroscope Y,Gyroscope Z,EMG1,EMG2,EMG3,EMG4,EMG5,EMG6,EMG7,EMG8
1503685379093,+0.139,+0.223,-0.517,-0.814,+0.923,-0.206,-0.350,+7.875,-16.062,+27.000,-20, -3, -4, -1, -3, -4, -4, -4
1503685379115,+0.137,+0.226,-0.514,-0.816,+0.938,-0.227,-0.327,+9.625,-17.875,+26.062,-6, -7, -4, -3, -4, -3, -2, -3
1503685379137,+0.135,+0.229,-0.510,-0.818,+0.931,-0.249,-0.315,+8.312,-19.188,+21.000,-7, -7, -3, -1, -1, 1, -2, -11
1503685379153,+0.135,+0.231,-0.508,-0.819,+0.899,-0.256,-0.275,+7.250,-18.000,+9.000,13, 6, 7, 3, 1, 1, 2, 2
1503685379175,+0.137,+0.231,-0.507,-0.819,+0.898,-0.283,-0.257,+4.312,-7.812,-10.000,-9, -8, 0, 0, 2, 1, 1, 11
1503685379197,+0.139,+0.230,-0.510,-0.817,+0.927,-0.320,-0.221,-4.250,+7.188,-24.312,-13, -5, -7, -7, -6, -4, -1, -2
1503685379213,+0.140,+0.228,-0.514,-0.815,+0.957,-0.327,-0.233,-17.000,+17.312,-26.500,14, 10, 4, 0, -4, -3, -5, -2
1503685379235,+0.142,+0.223,-0.518,-0.814,+0.916,-0.226,-0.293,-19.312,+12.875,-25.250,4, -8, -19, -14, -8, -2, 4, 0
1503685379259,+0.145,+0.218,-0.520,-0.813,+0.859,-0.096,-0.332,-13.375,+6.312,-29.312,6, -3, -4, 1, 4, 0, -7, 4
1503685379273,+0.148,+0.215,-0.522,-0.812,+0.944,-0.084,-0.377,-5.750,+8.125,-19.438,-1, 1, -1, -1, 0, -2, 1, 5
1503685379297,+0.148,+0.214,-0.521,-0.813,+0.973,-0.137,-0.411,-0.812,+1.500,-0.375,12, 2, 4, 4, 4, 0, -1, -4
1503685379317,+0.147,+0.215,-0.520,-0.813,+0.991,-0.184,-0.361,+0.500,-5.812,+12.062,-5, -1, -3, 1, 2, 0, -2, -4
1503685379333,+0.145,+0.217,-0.518,-0.815,+0.956,-0.211,-0.337,+3.188,-8.250,+22.375,4, 3, 2, 0, -3, 1, -1, -1
1503685379355,+0.142,+0.220,-0.515,-0.816,+0.897,-0.196,-0.356,+3.750,-11.312,+26.750,-2, 5, 2, 2, -1, -2, -1, -5
1503685379376,+0.140,+0.222,-0.512,-0.818,+0.898,-0.165,-0.341,+5.812,-11.375,+27.188,-6, -5, -2, 0, 0, 0, 4, 0
1503685379395,+0.138,+0.226,-0.509,-0.819,+0.917,-0.189,-0.350,+8.938,-13.125,+28.562,-12, -6, -4, -2, -1, -1, -4, -11
1503685379415,+0.136,+0.229,-0.506,-0.821,+0.931,-0.235,-0.353,+9.625,-16.312,+25.062,-9, -3, 0, 0, 0, -3, -7, -13
1503685379437,+0.136,+0.231,-0.502,-0.822,+0.919,-0.268,-0.286,+6.750,-22.938,+10.625,8, 4, 2, 5, 6, 8, 4, 17
1503685379469,+0.139,+0.231,-0.501,-0.823,+0.883,-0.277,-0.244,+6.438,-18.875,-14.250,8, 3, -2, -4, -3, -4, 0, 3
1503685379475,+0.142,+0.230,-0.504,-0.820,+0.917,-0.315,-0.215,-1.250,+8.188,-32.625,-10, -24, -12, -3, -1, -1, 1, 1
1503685379498,+0.145,+0.226,-0.511,-0.817,+0.937,-0.342,-0.218,-16.562,+32.562,-41.688,11, 12, 10, 1, -2, -2, -1, -5
1503685379513,+0.147,+0.221,-0.518,-0.813,+0.926,-0.259,-0.273,-21.375,+35.062,-45.812,2, 4, 2, 0, -1, 1, -3, -1
1503685379536,+0.153,+0.214,-0.523,-0.811,+0.843,-0.120,-0.308,-15.250,+13.562,-52.750,-14, -2, 0, -2, -3, -2, 1, -2
1503685379556,+0.160,+0.207,-0.525,-0.810,+0.855,-0.065,-0.313,-12.938,+2.375,-53.375,5, -1, 1, 3, 1, 0, 0, 11
1503685379574,+0.165,+0.202,-0.527,-0.809,+0.933,-0.075,-0.357,-10.062,+4.000,-34.062,4, 4, 2, 2, 1, -2, -2, -5
1503685379597,+0.167,+0.199,-0.527,-0.810,+0.932,-0.109,-0.372,-7.750,-5.688,-15.125,-2, 3, 0, 1, 1, 1, -1, 1
1503685379616,+0.168,+0.197,-0.524,-0.811,+0.929,-0.147,-0.359,-8.312,-16.062,-9.188,4, -3, -3, -1, -2, 0, 1, 3
1503685379633,+0.168,+0.195,-0.522,-0.813,+0.931,-0.180,-0.340,-9.688,-18.375,-2.312,-3, -3, 2, -2, -4, -1, 1, -4
1503685379655,+0.167,+0.194,-0.519,-0.816,+0.908,-0.191,-0.314,-10.375,-24.500,+4.250,-4, 0, -1, -1, -4, -1, -5, -3
1503685379677,+0.166,+0.193,-0.515,-0.819,+0.890,-0.172,-0.339,-10.125,-26.625,+7.375,6, 3, -1, -1, 9, 0, -1, 0
1503685379695,+0.165,+0.192,-0.511,-0.821,+0.894,-0.180,-0.348,-8.875,-25.875,+2.938,-15, -5, -2, -10, -14, -6, 6, -1
1503685379715,+0.165,+0.191,-0.509,-0.823,+0.919,-0.187,-0.353,-6.188,-21.000,-0.562,3, 0, 0, 3, 6, 14, -5, 10
1503685379738,+0.166,+0.190,-0.507,-0.824,+0.949,-0.183,-0.349,-6.000,-16.188,-4.688,-10, 0, 2, 1, -1, 0, 9, 12
1503685379753,+0.167,+0.189,-0.506,-0.825,+0.981,-0.175,-0.349,-5.250,-11.750,-8.938,5, -5, -11, -3, -1, -5, 3, -5
1503685379775,+0.169,+0.187,-0.505,-0.825,+0.995,-0.154,-0.335,-3.250,-10.875,-11.562,-3, 5, 4, -6, -5, -4, 1, -6
1503685386756,+0.255,+0.272,-0.489,-0.789,+0.963,-0.163,-0.295,-8.312,-0.875,-12.812,-22, -18, -1, -11, -11, -6, 0, -4
1503685386779,+0.256,+0.270,-0.490,-0.789,+0.965,-0.154,-0.314,-12.000,-1.062,-7.188,0, 7, 8, 4, 1, -2, -1, 2
1503685386801,+0.256,+0.267,-0.490,-0.789,+0.932,-0.137,-0.339,-11.250,-2.562,-3.812,-1, 4, 5, 2, -2, -1, 1, -7
1503685386816,+0.256,+0.265,-0.491,-0.789,+0.933,-0.137,-0.321,-13.062,-2.188,-5.625,15, 9, -8, -6, -3, -1, -3, 3
1503685386839,+0.256,+0.263,-0.492,-0.790,+0.922,-0.120,-0.338,-11.938,+1.500,-7.125,-10, -9, -3, 9, 13, 5, 2, -1
1503685386861,+0.257,+0.260,-0.493,-0.790,+0.909,-0.095,-0.347,-11.562,-2.375,-10.250,6, -9, 3, -7, -8, -4, -4, -17
1503685386881,+0.259,+0.256,-0.493,-0.790,+0.902,-0.059,-0.352,-12.062,-7.375,-16.438,2, 4, -3, 4, 7, 1, -1, 0
1503685386899,+0.262,+0.251,-0.494,-0.790,+0.884,-0.042,-0.335,-10.375,-7.938,-21.438,21, 6, 19, 1, -3, 2, 1, 16
1503685386922,+0.265,+0.247,-0.495,-0.790,+0.926,-0.063,-0.328,-11.312,-2.562,-23.812,3, 1, -11, -5, -1, -4, 0, -8
1503685386936,+0.268,+0.243,-0.497,-0.789,+0.929,-0.028,-0.387,-10.562,+2.812,-21.188,-9, -8, -8, -3, -1, -1, -2, -5
1503685386959,+0.271,+0.240,-0.497,-0.789,+0.924,-0.008,-0.413,-5.625,-3.062,-17.812,-6, -6, -5, 0, 0, -3, -3, -2
1503685386982,+0.274,+0.237,-0.497,-0.789,+0.925,-0.011,-0.379,-2.062,-8.812,-15.875,-19, -3, -1, 1, 1, -1, 3, 1
1503685386996,+0.276,+0.235,-0.496,-0.789,+0.929,-0.037,-0.348,-2.000,-9.875,-12.750,6, 0, -3, -4, -3, -2, -1, 2
1503685387019,+0.278,+0.233,-0.496,-0.789,+0.935,-0.042,-0.327,-5.062,-7.875,-8.125,8, 8, -1, -3, 2, 0, -5, -21
1503685387041,+0.278,+0.231,-0.496,-0.790,+0.939,-0.033,-0.332,-10.688,-7.062,-2.875,0, -12, -8, -5, -4, -3, 1, 1
1503685387056,+0.277,+0.228,-0.496,-0.791,+0.929,-0.033,-0.335,-15.938,-9.062,+2.312,-1, -3, -2, -2, -4, -1, -4, -4
1503685387081,+0.275,+0.225,-0.495,-0.793,+0.928,-0.040,-0.322,-20.562,-11.750,+6.125,-2, -4, -4, -6, -10, -4, -1, 9
1503685387101,+0.273,+0.223,-0.495,-0.794,+0.936,-0.044,-0.347,-23.062,-8.375,+9.312,-4, 2, -5, -12, -18, -6, -1, -2
1503685387117,+0.270,+0.220,-0.495,-0.796,+0.931,-0.059,-0.373,-23.750,-8.875,+11.688,-9, 1, 7, 6, 5, 1, -2, -2
1503685387149,+0.267,+0.217,-0.494,-0.799,+0.927,-0.059,-0.378,-23.125,-10.562,+10.375,0, 0, 6, 19, 30, 9, 0, 4
1503685387161,+0.265,+0.215,-0.494,-0.800,+0.912,-0.072,-0.387,-20.688,-3.688,+7.062,-4, -2, -3, -8, -7, 0, 4, 10
1503685387176,+0.263,+0.213,-0.494,-0.801,+0.889,-0.064,-0.410,-16.125,+1.500,+1.875,-9, -4, -5, -8, -10, -6, -8, -7
1503685387200,+0.263,+0.211,-0.495,-0.801,+0.919,-0.072,-0.405,-11.500,-0.562,-1.625,4, -3, -8, -10, -7, -3, -3, -3
1503685387222,+0.262,+0.209,-0.494,-0.802,+0.931,-0.076,-0.404,-11.188,-4.312,+0.125,-9, -7, -5, -9, -6, -3, -5, -13
1503685387236,+0.261,+0.208,-0.493,-0.804,+0.935,-0.075,-0.388,-11.812,-10.688,+4.188,-3, -7, -3, -3, -5, -7, -6, 0
1503685387259,+0.259,+0.206,-0.492,-0.805,+0.923,-0.083,-0.371,-13.125,-12.688,+9.188,-1, 0, -1, -9, -11, -4, -2, 0
1503685387284,+0.256,+0.205,-0.491,-0.807,+0.909,-0.081,-0.393,-14.938,-8.125,+13.562,8, 4, 4, 3, 8, 4, 6, 3
1503685387297,+0.253,+0.205,-0.490,-0.809,+0.900,-0.095,-0.389,-14.000,-5.312,+15.438,-1, 2, 13, 4, -1, 0, 1, 2
1503685387319,+0.250,+0.205,-0.489,-0.810,+0.912,-0.114,-0.391,-12.438,-2.000,+14.000,-4, 14, 7, 2, -1, -2, -3, -1
1503685387341,+0.248,+0.205,-0.489,-0.811,+0.938,-0.128,-0.392,-11.562,-1.562,+13.125,-4, -5, 0, 13, 13, 5, 0, -1
1503685387357,+0.244,+0.204,-0.489,-0.812,+0.938,-0.110,-0.397,-12.438,-1.500,+15.688,-9, -11, -5, -5, -7, -3, 1, 2
1503685387379,+0.241,+0.204,-0.488,-0.813,+0.936,-0.100,-0.389,-12.812,-5.062,+16.250,-4, -3, -7, -6, 0, -1, -2, -4
1503685387401,+0.239,+0.204,-0.487,-0.815,+0.921,-0.109,-0.393,-10.188,-6.500,+13.938,10, 6, -3, 0, -2, -1, -3, 2
1503685387417,+0.237,+0.204,-0.486,-0.816,+0.928,-0.115,-0.416,-6.312,-5.688,+12.250,3, 0, 0, -3, -4, -1, -2, 2
1503685387439,+0.235,+0.205,-0.485,-0.817,+0.928,-0.125,-0.419,-2.688,-5.312,+12.438,-10, -8, -7, -2, 1, 0, 1, 1
1503685387461,+0.234,+0.206,-0.484,-0.818,+0.926,-0.145,-0.423,+0.625,-3.312,+12.500,-3, 21, 33, 11, 0, 2, -1, 1
1503685387476,+0.232,+0.209,-0.482,-0.818,+0.922,-0.162,-0.429,+5.750,-1.438,+12.875,10, 9, 2, -3, -3, -2, -1, -2
1503685393603,+0.343,+0.306,-0.551,-0.697,+0.954,-0.048,-0.192,-31.750,-20.188,-8.125,-27, -8, 2, -5, -8, -3, -4, -8
1503685393630,+0.342,+0.301,-0.550,-0.699,+0.988,-0.026,-0.214,-27.125,-16.812,-6.062,8, 1, 3, 3, 0, -2, 1, 0
1503685393642,+0.342,+0.297,-0.549,-0.703,+1.037,-0.036,-0.219,-24.500,-22.562,-1.250,-9, -9, 10, 0, 1, 2, -1, -1
1503685393664,+0.341,+0.293,-0.547,-0.706,+1.012,-0.042,-0.199,-21.688,-22.250,+0.312,5, 3, -2, -1, -4, -3, -1, 1
1503685393686,+0.341,+0.290,-0.545,-0.709,+0.988,-0.038,-0.229,-18.688,-22.500,-0.875,9, -2, 2, 3, 1, 1, 3, 7
1503685393702,+0.340,+0.286,-0.543,-0.712,+0.975,-0.032,-0.232,-17.062,-20.312,+0.938,1, -1, -4, -6, -8, -5, -2, 2
1503685393724,+0.339,+0.284,-0.542,-0.715,+1.018,-0.040,-0.245,-15.438,-13.875,+7.562,-6, -1, -4, 1, 7, 0, -4, -10
1503685393746,+0.337,+0.284,-0.540,-0.717,+1.027,-0.043,-0.254,-11.625,-10.375,+12.688,-1, 6, 6, 10, 6, 2, 1, -1
1503685393769,+0.335,+0.283,-0.538,-0.720,+1.029,-0.052,-0.248,-8.250,-12.500,+14.875,5, 1, 0, -5, -5, 0, -3, -2
1503685393783,+0.333,+0.284,-0.536,-0.722,+1.044,-0.062,-0.258,-6.250,-12.750,+17.875,4, 4, -2, -2, -7, -6, -4, 2
1503685393806,+0.330,+0.285,-0.533,-0.725,+1.036,-0.078,-0.237,-2.562,-11.438,+24.562,-6, -3, -4, -1, 8, 4, 3, -11
1503685393821,+0.327,+0.288,-0.530,-0.727,+1.017,-0.095,-0.238,+0.375,-10.625,+28.875,0, 3, 16, 2, -1, -1, 0, 1
1503685393843,+0.324,+0.290,-0.528,-0.730,+0.986,-0.104,-0.250,+1.000,-7.500,+31.812,4, 2, -3, -2, -2, -2, 0, 1
1503685393866,+0.320,+0.294,-0.525,-0.732,+0.978,-0.114,-0.238,+1.500,-4.875,+33.625,-2, -3, -5, -10, -2, 2, -2, 1
1503685393882,+0.316,+0.297,-0.522,-0.734,+0.993,-0.106,-0.261,+3.812,-3.062,+36.750,-6, -7, -5, 4, 10, 1, -6, -3
1503685393903,+0.312,+0.301,-0.519,-0.737,+0.975,-0.104,-0.276,+5.125,-7.188,+42.938,6, 6, 1, -4, -3, 2, 10, 17
1503685393927,+0.308,+0.305,-0.514,-0.740,+0.943,-0.114,-0.257,+6.062,-12.438,+44.750,1, -3, -8, -5, -5, -2, -1, 6
1503685393941,+0.304,+0.309,-0.510,-0.743,+0.910,-0.114,-0.254,+7.062,-12.312,+43.125,-14, -10, -7, -6, -10, -7, -5, -12
1503685393964,+0.300,+0.312,-0.506,-0.746,+0.868,-0.105,-0.253,+7.312,-9.500,+39.750,14, 7, -5, -2, -2, -2, -3, 0
1503685393986,+0.297,+0.316,-0.503,-0.747,+0.849,-0.116,-0.241,+6.688,-4.812,+33.125,-17, -15, -14, -4, -1, 1, 2, -4
1503685394002,+0.295,+0.318,-0.502,-0.748,+0.843,-0.135,-0.223,+6.188,-0.062,+21.938,3, 19, 15, 7, 1, -1, -3, -2
1503685394024,+0.295,+0.320,-0.502,-0.747,+0.866,-0.169,-0.189,+7.875,+5.500,+3.000,3, -5, -7, -5, -9, -3, -1, 6
1503685394046,+0.298,+0.321,-0.504,-0.744,+0.876,-0.197,-0.165,+8.375,+11.250,-20.875,-1, 0, 15, 5, 0, -2, -1, -2
1503685394062,+0.302,+0.320,-0.508,-0.740,+0.909,-0.219,-0.152,+5.312,+15.500,-41.312,-1, 2, -1, -2, -2, -5, -4, -13
1503685394085,+0.307,+0.316,-0.513,-0.736,+0.936,-0.227,-0.150,-3.562,+15.750,-54.125,28, 11, -7, -1, 0, -3, -3, 0
1503685394106,+0.313,+0.311,-0.519,-0.732,+0.965,-0.194,-0.151,-12.625,+13.562,-60.688,-28, -8, -1, -3, -3, 1, -1, -6
1503685394122,+0.319,+0.305,-0.524,-0.729,+0.970,-0.113,-0.196,-13.375,+4.438,-61.062,6, 0, 0, 0, 0, 1, 6, 9
1503685394144,+0.326,+0.298,-0.527,-0.726,+0.948,-0.038,-0.249,-9.188,-3.000,-57.000,-2, 1, 2, 1, 1, -1, 2, 0
1503685394166,+0.332,+0.292,-0.529,-0.725,+0.920,-0.016,-0.237,-8.125,-7.375,-51.188,0, 5, 7, 3, 0, 0, 2, -7
1503685394182,+0.337,+0.287,-0.531,-0.723,+0.970,-0.018,-0.245,-8.000,-2.125,-39.750,-10, -8, -4, -1, 0, -1, -2, -2
1503685402070,+0.188,+0.265,-0.532,-0.782,+0.948,-0.201,-0.293,-18.875,-17.000,+37.875,1, 2, 4, 0, -2, -3, -3, -4
1503685402093,+0.182,+0.265,-0.528,-0.786,+0.912,-0.226,-0.296,-15.688,-16.625,+36.438,-12, -4, 3, -3, -3, -2, -1, -9
1503685402108,+0.178,+0.266,-0.524,-0.789,+0.878,-0.229,-0.303,-12.438,-15.750,+29.500,11, 2, -4, -2, 0, -1, -1, 1
1503685402131,+0.175,+0.266,-0.522,-0.792,+0.894,-0.244,-0.269,-8.625,-15.062,+17.562,9, 6, 2, 1, 0, -1, -1, 3
1503685402155,+0.175,+0.266,-0.519,-0.793,+0.905,-0.265,-0.248,-5.312,-15.250,+3.562,-6, 1, 0, 0, -2, 1, 1, -1
1503685402168,+0.177,+0.265,-0.518,-0.794,+0.896,-0.290,-0.232,-3.562,-14.625,-13.062,-6, -5, -7, -2, -2, -2, 1, 1
1503685402191,+0.180,+0.262,-0.518,-0.794,+0.909,-0.308,-0.203,-5.812,-10.812,-25.062,3, -6, -5, 0, 0, -1, 3, 1
1503685402213,+0.182,+0.259,-0.520,-0.794,+0.946,-0.302,-0.210,-13.812,-4.375,-26.750,-6, -1, 1, 0, -1, -2, -2, -2
1503685402228,+0.182,+0.255,-0.522,-0.793,+0.970,-0.252,-0.234,-21.562,+3.625,-21.750,-2, -4, -4, -3, -3, 1, 0, -3
1503685402253,+0.184,+0.251,-0.523,-0.793,+0.974,-0.144,-0.332,-16.625,+1.812,-18.438,-6, -8, -6, -5, -1, -1, -4, -6
1503685402273,+0.188,+0.246,-0.523,-0.794,+0.897,-0.046,-0.355,-9.062,-11.062,-20.125,12, 1, -1, -3, -2, -2, -1, 10
1503685402288,+0.192,+0.241,-0.520,-0.797,+0.875,-0.003,-0.353,-3.750,-27.062,-17.062,0, -1, -3, -1, 2, 1, 2, 0
1503685402310,+0.195,+0.240,-0.516,-0.799,+0.909,-0.134,-0.325,+0.625,-30.062,-6.562,0, -3, 1, 0, -2, 0, 1, -2
1503685402333,+0.195,+0.239,-0.513,-0.801,+0.945,-0.286,-0.291,-2.625,-22.438,-3.500,-2, 20, 44, 15, 2, 1, -1, -3
1503685402348,+0.196,+0.238,-0.511,-0.802,+0.937,-0.319,-0.257,-6.438,-16.312,-14.750,-8, -15, -23, -10, -4, -2, -1, -1
1503685402371,+0.199,+0.236,-0.514,-0.800,+0.950,-0.300,-0.163,-12.188,-1.062,-34.562,-6, -4, -7, -2, -2, -1, 2, -4
1503685402393,+0.201,+0.231,-0.521,-0.797,+0.981,-0.253,-0.125,-24.438,+20.812,-41.688,-2, -2, -6, -7, 6, 3, -8, -2
1503685402408,+0.203,+0.226,-0.528,-0.793,+1.021,-0.117,-0.297,-21.625,+37.500,-36.688,4, 1, 1, 1, 0, 3, 5, 3
1503685402431,+0.207,+0.222,-0.533,-0.790,+0.978,-0.019,-0.395,-8.062,+25.438,-32.875,-2, -6, -12, -5, -4, -8, -5, -5
1503685402455,+0.212,+0.218,-0.534,-0.789,+0.980,-0.022,-0.355,-0.688,+0.375,-29.375,-7, -4, -5, 5, -2, -2, -2, -4
1503685402468,+0.215,+0.216,-0.534,-0.789,+0.994,-0.070,-0.333,+1.562,-1.500,-17.062,1, 18, 26, 10, 1, 1, 1, -4
1503685402491,+0.214,+0.216,-0.534,-0.789,+0.966,-0.086,-0.320,-1.500,+2.688,+3.375,5, 2, -7, -1, 4, 0, 0, 6
1503685402513,+0.212,+0.217,-0.532,-0.791,+0.958,-0.073,-0.327,-2.562,-9.188,+18.125,-2, -17, -19, -10, -5, -4, -4, -2
1503685402536,+0.210,+0.219,-0.529,-0.793,+0.957,-0.103,-0.333,+1.500,-15.375,+24.062,-5, 16, 24, 0, -8, -4, -1, -9
1503685402550,+0.208,+0.221,-0.525,-0.795,+0.914,-0.165,-0.315,+6.062,-18.062,+21.750,-14, -15, -10, -6, -4, -3, -3, -3
1503685402573,+0.207,+0.223,-0.522,-0.797,+0.920,-0.234,-0.250,+3.562,-16.938,+11.625,5, -5, -9, -7, -4, -2, -3, -4
1503685402594,+0.207,+0.225,-0.522,-0.796,+0.921,-0.260,-0.225,-0.625,-0.938,-3.125,1, -3, -8, -8, -3, -2, -4, -3
1503685402611,+0.208,+0.225,-0.526,-0.793,+0.880,-0.229,-0.219,-2.562,+23.750,-19.750,22, 14, 1, 2, 1, 1, 1, 3
1503685402633,+0.209,+0.223,-0.534,-0.788,+0.950,-0.165,-0.189,-7.812,+42.250,-30.438,-8, -8, -4, 10, 19, 5, 1, 9
1503685402648,+0.210,+0.221,-0.542,-0.783,+1.024,-0.069,-0.252,-7.375,+48.062,-25.812,-15, -14, -9, -9, -8, -1, 2, 2
1503685402670,+0.213,+0.219,-0.546,-0.780,+1.002,+0.028,-0.335,+1.000,+22.688,-17.750,-5, -4, -1, 7, 8, 1, 0, -2
1503685402694,+0.217,+0.218,-0.545,-0.780,+0.948,+0.013,-0.360,+9.312,-1.062,-14.125,4, 1, 1, -7, -3, 0, 0, 4
1503685402708,+0.221,+0.218,-0.544,-0.780,+0.933,-0.070,-0.349,+13.375,-3.938,-12.188,-1, -2, 0, 0, -3, -3, -3, -11
1503685409916,+0.239,+0.293,-0.505,-0.776,+1.008,-0.200,-0.227,-16.438,-3.625,+13.000,-6, 0, 2, 5, 2, 0, -4, -7
1503685409939,+0.236,+0.292,-0.507,-0.776,+0.963,-0.195,-0.244,-17.562,+7.688,+11.688,3, -7, -6, -5, -7, -4, 0, -1
1503685409954,+0.234,+0.290,-0.507,-0.777,+0.968,-0.227,-0.229,-17.750,-3.000,+5.688,4, 8, 9, 5, 0, 1, -2, 0
1503685409976,+0.231,+0.289,-0.508,-0.778,+0.938,-0.300,-0.167,-23.438,-2.250,+0.500,2, -2, -7, 3, 9, 2, 3, 4
1503685409998,+0.227,+0.286,-0.510,-0.779,+0.941,-0.299,-0.186,-32.500,+5.250,-0.375,1, 5, 0, -2, -6, -4, -4, -2
1503685410018,+0.222,+0.282,-0.514,-0.779,+0.930,-0.237,-0.205,-42.062,+12.938,+4.125,-1, -3, -5, -5, -1, 1, 4, -2
1503685410036,+0.218,+0.278,-0.518,-0.779,+0.911,-0.208,-0.244,-41.250,+20.000,+2.250,3, -21, -14, -1, -1, -1, -5, -1
1503685410058,+0.215,+0.274,-0.521,-0.780,+0.934,-0.251,-0.282,-31.250,+13.812,-5.750,-5, 6, 5, 7, 9, 1, -1, -5
1503685410075,+0.214,+0.271,-0.522,-0.780,+0.949,-0.294,-0.309,-22.875,+2.812,-12.062,-3, 1, 2, -5, -11, -4, -4, -3
1503685410098,+0.213,+0.267,-0.522,-0.781,+0.957,-0.279,-0.307,-24.312,-1.375,-10.188,1, -27, -22, -6, -3, -2, -2, 2
1503685410120,+0.211,+0.265,-0.524,-0.781,+0.970,-0.210,-0.310,-18.500,+12.500,-2.562,0, 4, 2, -2, -3, 1, 1, 3
1503685410134,+0.209,+0.265,-0.526,-0.781,+0.986,-0.171,-0.327,-8.812,+15.750,+4.250,-9, -1, 3, -2, 2, 1, 2, 0
1503685410156,+0.208,+0.266,-0.527,-0.780,+0.997,-0.219,-0.296,-1.375,+7.750,+7.000,8, 8, 5, -1, 3, 0, -2, 0
1503685410185,+0.208,+0.267,-0.526,-0.780,+0.963,-0.274,-0.258,+2.812,+0.812,+0.250,-6, 1, 2, -2, -7, -1, 1, -1
1503685410194,+0.209,+0.266,-0.527,-0.780,+0.916,-0.213,-0.259,+0.188,+0.062,-14.438,-1, 0, -2, 3, 3, -1, 1, 4
1503685410217,+0.213,+0.263,-0.529,-0.779,+0.897,-0.104,-0.250,-6.062,+6.438,-25.125,-9, -6, -1, -4, -7, -3, -4, -8
1503685410241,+0.216,+0.258,-0.533,-0.776,+0.910,-0.034,-0.261,-7.938,+13.938,-28.375,-4, -8, -9, -2, -2, -2, -1, 1
1503685410254,+0.219,+0.254,-0.536,-0.775,+0.927,-0.003,-0.258,-8.750,+13.062,-25.625,-11, 2, 3, 2, 0, 1, 1, -8
1503685410277,+0.222,+0.250,-0.538,-0.774,+0.943,-0.011,-0.239,-10.750,+2.500,-21.312,8, 8, 6, 7, 13, 2, -3, 4
1503685410298,+0.224,+0.245,-0.540,-0.774,+0.939,+0.029,-0.262,-14.688,-2.750,-17.750,8, 20, 3, -5, -11, -4, -2, 3
1503685410314,+0.226,+0.240,-0.540,-0.774,+0.905,+0.047,-0.250,-17.125,-6.875,-13.688,1, 4, 1, 1, 1, -1, 0, 5
1503685410336,+0.228,+0.235,-0.541,-0.775,+0.902,+0.013,-0.238,-17.250,-8.688,-12.000,-2, -6, -4, -7, -11, -2, -2, -1
1503685410358,+0.229,+0.230,-0.541,-0.776,+0.912,+0.005,-0.269,-17.500,-7.438,-12.500,0, -6, -2, -5, -6, -5, -3, 4
1503685410376,+0.230,+0.226,-0.542,-0.777,+0.933,-0.007,-0.278,-18.125,-7.062,-13.125,-1, 0, 1, 4, 8, 6, 2, -1
1503685410396,+0.231,+0.221,-0.541,-0.778,+0.949,-0.035,-0.286,-18.188,-12.250,-9.125,3, 0, -2, -1, -3, 0, -3, -4
1503685410418,+0.230,+0.218,-0.540,-0.780,+0.951,-0.064,-0.281,-20.250,-16.375,-3.250,1, 1, -1, 0, 2, -4, -8, -3
1503685410435,+0.229,+0.214,-0.539,-0.782,+0.976,-0.083,-0.279,-22.375,-14.062,-0.062,2, -4, -2, -6, -8, -1, 3, 1
1503685410456,+0.227,+0.211,-0.538,-0.784,+0.979,-0.098,-0.299,-23.750,-11.625,+2.625,20, 8, 4, 2, 4, 1, -1, -2
1503685410480,+0.225,+0.208,-0.537,-0.786,+0.958,-0.100,-0.311,-22.312,-12.812,+3.812,-7, -5, -9, -3, 2, 0, 1, -1
1503685410494,+0.222,+0.206,-0.535,-0.789,+1.007,-0.119,-0.310,-20.938,-15.562,+6.125,0, 7, -3, -3, 3, -3, -7, -2
1503685410516,+0.220,+0.204,-0.533,-0.791,+1.006,-0.105,-0.320,-18.625,-17.000,+9.688,0, 7, 10, 5, 4, -4, 0, -7
1503685410538,+0.218,+0.203,-0.531,-0.794,+0.983,-0.101,-0.327,-15.438,-16.938,+11.875,-8, -2, 1, 4, 4, 0, 5, -4
1503685410554,+0.215,+0.202,-0.529,-0.796,+0.967,-0.122,-0.326,-11.938,-15.500,+12.375,-7, -6, 1, -1, -1, 1, 3, 1
1503685410577,+0.213,+0.202,-0.526,-0.798,+0.981,-0.122,-0.342,-8.562,-13.250,+15.625,-8, -9, -8, -5, -2, -1, 0, -3
1503685410598,+0.211,+0.203,-0.524,-0.800,+0.975,-0.121,-0.346,-4.125,-14.438,+18.312,3, 2, 2, 1, -1, 0, -1, 2
1503685410614,+0.209,+0.204,-0.521,-0.802,+0.955,-0.118,-0.350,-0.688,-16.938,+18.188,-4, -3, 3, 4, 5, 1, 0, -4
1503685410636,+0.207,+0.206,-0.518,-0.804,+0.948,-0.128,-0.354,+3.562,-14.062,+16.875,1, -8, -15, -6, -1, -2, -6, -4
1503685410660,+0.206,+0.208,-0.515,-0.805,+0.940,-0.127,-0.347,+9.375,-9.500,+17.375,5, 10, 1, -1, 2, 1, -1, -1
1503685415640,+0.286,+0.298,-0.533,-0.738,+1.017,-0.126,-0.158,+1.875,+1.812,-21.000,-3, -2, 0, -1, -1, -1, -2, -2
1503685415661,+0.288,+0.297,-0.534,-0.737,+1.006,-0.094,-0.166,-1.188,+1.250,-14.062,1, -1, 0, -1, -1, -1, -2, -1
1503685415683,+0.290,+0.295,-0.535,-0.736,+1.002,-0.089,-0.188,-2.125,-1.625,-11.438,0, -1, -1, -1, 0, 0, 0, 0
1503685415699,+0.292,+0.294,-0.536,-0.736,+0.990,-0.088,-0.199,-2.000,-1.250,-12.062,-1, -1, -1, -1, -2, 1, 0, -3
1503685415720,+0.294,+0.292,-0.537,-0.735,+0.959,-0.084,-0.216,-3.000,-0.938,-15.375,-3, -4, -3, -2, -1, -4, -1, -2
1503685415742,+0.296,+0.290,-0.538,-0.734,+0.975,-0.071,-0.226,-2.312,+2.125,-19.688,0, -2, 1, 0, -1, -1, -2, 0
1503685415759,+0.298,+0.288,-0.539,-0.733,+0.985,-0.048,-0.290,+0.625,+5.312,-13.375,-1, 1, -2, 1, 0, -1, 1, -2
1503685415781,+0.301,+0.287,-0.539,-0.732,+0.955,-0.016,-0.284,+8.625,+2.688,-11.125,-2, 0, 1, 0, -1, -1, -3, 2
1503685415804,+0.305,+0.287,-0.539,-0.731,+0.954,-0.035,-0.255,+11.250,+1.125,-13.625,-2, 0, -1, -2, -3, -2, -2, -4
1503685415819,+0.308,+0.287,-0.539,-0.730,+0.984,-0.061,-0.225,+11.688,+1.750,-12.750,-2, 1, -2, -1, -1, 0, -1, -3
1503685415841,+0.309,+0.288,-0.539,-0.729,+1.016,-0.074,-0.185,+6.938,+1.625,-7.750,2, 1, 0, 0, -1, 1, 2, 0
1503685415862,+0.310,+0.288,-0.539,-0.728,+1.000,-0.061,-0.204,+4.062,-0.250,-3.438,-2, -2, -2, -1, 0, -1, 0, -4
1503685415879,+0.312,+0.288,-0.539,-0.727,+0.969,-0.024,-0.225,+4.625,-0.438,-5.688,-4, -5, -1, -1, -1, -2, 0, -2
1503685415901,+0.314,+0.287,-0.539,-0.727,+0.972,-0.018,-0.221,+6.375,-0.625,-7.875,0, 0, 1, 1, -1, -1, 0, -1
1503685415922,+0.316,+0.287,-0.539,-0.726,+1.004,-0.016,-0.230,+6.562,-1.250,-4.312,1, -1, -1, 0, 0, 1, 2, 4
1503685415939,+0.317,+0.287,-0.539,-0.726,+0.979,-0.013,-0.219,+4.562,-1.438,+0.812,-3, -4, -2, -2, -1, -3, -4, -1
1503685415961,+0.317,+0.287,-0.538,-0.726,+0.971,-0.005,-0.187,-0.062,-3.812,+4.062,-2, -1, -1, -2, -1, -1, -2, -4
1503685415983,+0.317,+0.286,-0.538,-0.727,+0.955,-0.004,-0.203,-3.625,-6.625,+4.312,3, 2, 1, 1, 0, 0, 1, 3
1503685415998,+0.317,+0.285,-0.538,-0.728,+0.942,-0.010,-0.209,-7.188,-4.375,+3.500,-1, -2, -2, -3, 0, 1, 2, 2
1503685416020,+0.316,+0.284,-0.538,-0.728,+0.967,-0.012,-0.216,-9.750,-4.438,+5.062,-3, 6, 8, 0, -1, -2, -1, -6
1503685416043,+0.315,+0.282,-0.537,-0.730,+0.962,-0.014,-0.202,-12.562,-8.062,+6.188,3, 1, -4, -3, 0, -3, 0, 5
1503685416059,+0.314,+0.280,-0.537,-0.731,+0.964,-0.021,-0.205,-15.750,-5.688,+5.938,0, -1, -1, -1, 0, 0, 0, -1
1503685416081,+0.312,+0.277,-0.537,-0.733,+0.954,-0.011,-0.239,-17.938,-5.438,+4.312,-4, -4, -3, 0, 0, -1, -2, -2
1503685416102,+0.311,+0.275,-0.537,-0.734,+0.945,-0.019,-0.261,-16.625,-7.562,+2.188,-1, 0, -2, -1, -2, -3, -3, -5
1503685416119,+0.310,+0.272,-0.536,-0.736,+0.947,-0.036,-0.261,-15.250,-8.438,+2.875,-2, -1, 2, -1, -1, 0, 1, 1
1503685416141,+0.309,+0.270,-0.535,-0.738,+0.962,-0.062,-0.255,-15.938,-9.938,+4.250,0, 1, -1, 1, 0, -1, -2, -4
1503685416162,+0.308,+0.268,-0.534,-0.740,+0.960,-0.062,-0.265,-17.188,-10.875,+4.312,-3, -3, -2, 0, -4, -1, -1, -2
1503685416180,+0.307,+0.265,-0.534,-0.742,+0.947,-0.051,-0.271,-16.438,-9.938,+3.375,0, 2, 0, -2, 2, 0, 1, 3
1503685416200,+0.306,+0.263,-0.533,-0.744,+0.952,-0.046,-0.273,-14.500,-8.875,+3.062,-1, 2, 1, 1, -1, -1, -2, 0
1503685416222,+0.304,+0.262,-0.532,-0.745,+0.966,-0.054,-0.279,-13.125,-5.250,+6.750,1, 3, 3, -1, -1, -1, -2, 1
1503685416240,+0.302,+0.261,-0.531,-0.747,+0.974,-0.063,-0.274,-11.812,-7.750,+8.625,-1, -2, 2, 7, 4, 0, -4, -2
1503685416260,+0.301,+0.260,-0.530,-0.749,+0.972,-0.068,-0.273,-9.625,-10.750,+7.000,1, 0, 0, -4, -2, -1, 2, 0
1503685416282,+0.301,+0.259,-0.528,-0.751,+0.964,-0.082,-0.277,-7.062,-10.938,+4.625,3, 0, -2, 1, 6, 2, 3, 3
1503685416298,+0.300,+0.258,-0.527,-0.752,+0.962,-0.100,-0.273,-5.062,-9.375,+3.375,0, -1, 3, 7, 11, 2, -1, 1
1503685416321,+0.299,+0.258,-0.526,-0.753,+0.967,-0.101,-0.279,-4.750,-7.812,+4.188,-1, -1, 1, 9, -3, -4, -6, -6
1503685416343,+0.299,+0.258,-0.525,-0.754,+0.979,-0.092,-0.266,-5.188,-7.312,+5.062,0, -2, -6, -12, -6, -7, 1, 2
1503685416358,+0.298,+0.258,-0.524,-0.755,+0.984,-0.101,-0.256,-5.562,-7.188,+5.375,-1, 2, -1, -5, -6, 1, 2, 1
1503685416382,+0.297,+0.258,-0.523,-0.756,+0.970,-0.112,-0.255,-5.875,-5.625,+6.312,-5, -5, -7, -13, -14, -3, -2, -4
1503685416403,+0.295,+0.258,-0.523,-0.757,+0.975,-0.096,-0.269,-6.062,-3.812,+8.062,2, -3, -4, -2, -1, 1, 1, 0
1503685422628,+0.367,+0.333,-0.541,-0.679,+0.975,-0.039,-0.159,-13.500,-4.812,-1.562,5, 13, 10, 2, 1, 0, 1, 0
1503685422643,+0.367,+0.331,-0.542,-0.680,+0.964,-0.005,-0.159,-13.938,-3.062,-5.312,-6, -5, -3, -3, -2, 1, -1, 0
1503685422666,+0.367,+0.328,-0.542,-0.681,+0.962,+0.008,-0.153,-14.375,-5.562,-0.562,10, 0, -3, -3, -2, -4, -4, -4
1503685422688,+0.366,+0.327,-0.542,-0.682,+0.978,+0.010,-0.177,-13.062,-4.812,+7.625,-5, -3, 2, -1, -4, 0, 2, 2
1503685422704,+0.364,+0.326,-0.542,-0.684,+1.001,+0.005,-0.151,-11.062,-5.000,+13.375,-1, 1, 1, -2, 3, -2, 0, 4
1503685422726,+0.362,+0.326,-0.541,-0.685,+1.013,-0.018,-0.169,-6.438,-2.438,+15.688,0, -2, -3, 8, 10, 2, -1, -2
1503685422748,+0.360,+0.328,-0.540,-0.687,+0.996,-0.050,-0.204,-0.938,+0.750,+15.312,-7, 5, 10, 0, -3, -1, -2, -5
1503685422763,+0.359,+0.330,-0.539,-0.687,+0.976,-0.066,-0.224,+6.250,+4.250,+13.500,-2, 7, 1, -2, -4, -2, -2, 6
1503685422786,+0.359,+0.333,-0.537,-0.687,+1.002,-0.093,-0.240,+13.250,+6.188,+11.875,0, 0, -5, -5, -2, -1, 0, 0
1503685422808,+0.360,+0.336,-0.535,-0.687,+0.979,-0.112,-0.243,+19.438,+3.188,+8.938,0, -2, -1, 9, 11, 0, -2, -1
1503685422823,+0.362,+0.339,-0.533,-0.685,+0.971,-0.090,-0.182,+25.688,+1.688,+1.250,-2, 1, 2, -1, -5, -1, 1, -5
1503685422846,+0.364,+0.343,-0.532,-0.683,+0.993,-0.077,-0.168,+27.812,+6.500,-0.062,3, -2, -7, -7, -7, -3, 1, -4
1503685422868,+0.366,+0.347,-0.531,-0.681,+0.982,-0.097,-0.200,+29.500,+11.938,+3.125,-6, -2, -3, -3, 1, -1, 0, 5
1503685422883,+0.369,+0.352,-0.529,-0.678,+0.953,-0.104,-0.156,+31.125,+7.938,-0.938,-4, -4, -1, 3, 5, 1, -2, -8
1503685422908,+0.373,+0.355,-0.529,-0.675,+0.960,-0.088,-0.127,+32.938,+5.000,-12.125,-3, -8, -5, -8, -9, -2, -3, -4
1503685422927,+0.377,+0.358,-0.529,-0.671,+1.005,-0.100,-0.077,+29.812,+10.750,-17.938,-1, -6, -5, -4, -3, 0, -3, -2
1503685422950,+0.379,+0.361,-0.530,-0.667,+1.021,-0.101,-0.063,+25.562,+10.812,-12.875,2, 16, 26, 9, 5, 1, 3, 3
1503685422964,+0.382,+0.363,-0.529,-0.665,+1.007,-0.080,-0.082,+18.125,-1.688,-5.938,-9, 3, -2, -4, -3, -3, -2, 0
1503685422987,+0.383,+0.363,-0.528,-0.665,+0.997,-0.068,-0.066,+9.000,-11.375,-2.188,1, -5, -9, -7, -6, -2, -2, -3
1503685423010,+0.383,+0.364,-0.527,-0.665,+1.016,-0.081,-0.052,-1.688,-7.625,+4.938,12, 8, -2, -6, -6, -1, -3, -5
1503685423024,+0.382,+0.363,-0.527,-0.667,+0.967,-0.056,-0.060,-9.312,-6.750,+7.562,-1, 0, 0, 1, -4, -2, 0, -4
1503685423047,+0.381,+0.361,-0.528,-0.668,+0.983,-0.054,-0.040,-19.625,-11.188,-0.875,-3, -6, -7, 0, 1, 2, 5, 3
1503685423070,+0.380,+0.356,-0.529,-0.670,+0.995,-0.032,-0.078,-27.062,-12.125,-4.938,2, -1, 2, 3, 3, -2, -3, 0
1503685423085,+0.378,+0.352,-0.531,-0.672,+0.965,-0.018,-0.132,-31.375,-9.250,-2.438,-3, 30, 40, 15, 6, 3, 2, 0
1503685423108,+0.376,+0.347,-0.533,-0.674,+0.942,-0.008,-0.119,-34.438,-7.312,-2.500,6, -8, -11, -3, -2, -2, 0, 9
1503685423130,+0.374,+0.342,-0.534,-0.677,+0.981,-0.026,-0.123,-36.688,-9.750,-3.312,-8, -15, -14, -4, -2, -2, -3, -9
1503685423145,+0.372,+0.336,-0.536,-0.680,+1.015,-0.050,-0.130,-39.938,-13.000,-3.062,3, 2, 4, 1, 0, 0, 1, 4
1503685423167,+0.369,+0.330,-0.537,-0.683,+1.011,-0.020,-0.135,-43.812,-15.562,-1.750,4, -4, -5, -2, 2, -2, -4, -4
1503685423190,+0.366,+0.324,-0.538,-0.687,+0.990,+0.023,-0.151,-45.000,-18.312,+3.938,-6, -4, -4, 0, 1, 0, -4, -4
1503685423205,+0.362,+0.318,-0.538,-0.691,+0.994,+0.016,-0.178,-43.625,-16.312,+11.250,1, -5, -9, -4, -3, -3, -1, 2
1503685423227,+0.358,+0.313,-0.538,-0.696,+1.011,-0.041,-0.191,-40.188,-19.312,+13.562,-13, -5, -1, 0, 0, 1, -2, -1
1503685423251,+0.354,+0.309,-0.537,-0.701,+1.029,-0.087,-0.200,-39.688,-21.000,+13.000,3, -4, -7, -3, 1, 0, -2, -1
1503685423264,+0.351,+0.305,-0.536,-0.705,+0.980,-0.062,-0.228,-35.125,-18.875,+9.812,3, 2, 1, -2, -3, -2, 1, 2
1503685423287,+0.349,+0.301,-0.535,-0.709,+0.963,-0.061,-0.230,-29.375,-17.312,+4.562,3, -2, 1, -1, 1, -1, -1, 0
1503685423310,+0.347,+0.297,-0.534,-0.712,+0.984,-0.071,-0.235,-26.938,-16.062,+3.062,-9, -7, -4, 1, 3, 0, 0, -4
1503685423324,+0.344,+0.294,-0.533,-0.715,+1.000,-0.095,-0.226,-25.000,-11.750,+3.188,-3, 0, 2, 1, 0, 0, -2, -6
1503685423347,+0.343,+0.291,-0.533,-0.717,+0.990,-0.085,-0.242,-21.250,-9.375,+2.312,-2, -4, -4, -4, -2, -2, 0, 2
1503685423370,+0.341,+0.289,-0.532,-0.719,+0.973,-0.059,-0.254,-16.688,-11.625,+2.500,0, 0, -2, 1, -1, 0, 1, 3
1503685423385,+0.340,+0.287,-0.531,-0.721,+0.964,-0.064,-0.248,-13.062,-11.000,+6.750,9, 12, 11, 2, 0, 0, 0, 2
1503685423410,+0.338,+0.287,-0.529,-0.724,+0.986,-0.068,-0.242,-9.500,-10.938,+12.312,-3, -5, -9, -3, -4, -1, -1, -2
1503685423429,+0.336,+0.287,-0.527,-0.726,+0.979,-0.066,-0.278,-5.750,-11.500,+18.625,-1, -3, -3, 0, -2, -1, -1, -2
1503685428592,+0.206,+0.302,-0.542,-0.756,+0.959,-0.247,-0.166,+11.750,+2.312,+4.500,-2, -2, 1, 1, -1, -1, 0, -1
1503685428612,+0.207,+0.305,-0.541,-0.756,+0.939,-0.254,-0.127,+10.188,-4.250,+5.188,-2, 0, -1, -2, -2, -1, -1, 1
1503685428627,+0.206,+0.306,-0.541,-0.756,+0.904,-0.258,-0.141,+2.000,-2.438,+4.125,2, -2, -1, -1, -2, -1, -3, 0
1503685428649,+0.205,+0.306,-0.541,-0.756,+0.915,-0.221,-0.170,-2.562,+4.875,+5.562,0, -1, -1, -1, -1, -2, -2, -1
1503685428672,+0.204,+0.307,-0.542,-0.755,+0.938,-0.213,-0.173,-2.000,+9.875,+4.562,0, 0, -1, -1, 0, -1, 2, 1
1503685428687,+0.204,+0.307,-0.543,-0.755,+0.961,-0.215,-0.157,-0.812,+2.500,+1.500,-1, -1, -1, -1, -1, 0, 0, 0
1503685428710,+0.205,+0.307,-0.542,-0.755,+0.958,-0.228,-0.153,-2.188,-5.000,-0.875,-1, 1, 1, -1, -1, 2, 0, -1
1503685428732,+0.204,+0.306,-0.542,-0.755,+0.953,-0.229,-0.160,-6.000,-1.750,-1.062,-2, -1, 1, -1, -2, -1, 0, -2
1503685428747,+0.204,+0.305,-0.543,-0.755,+0.926,-0.223,-0.168,-8.188,+3.625,-1.938,-1, 0, -3, -1, 2, -1, -2, -1
1503685428770,+0.204,+0.303,-0.544,-0.756,+0.958,-0.185,-0.191,-6.750,-1.125,-2.375,-1, 2, 4, 0, 1, 0, -2, 1
1503685428792,+0.205,+0.302,-0.543,-0.756,+0.938,-0.195,-0.189,-3.312,-4.562,-5.312,0, 0, -1, 0, 0, -1, 0, 2
1503685428807,+0.207,+0.301,-0.544,-0.755,+0.928,-0.200,-0.183,+1.500,+5.125,-11.438,-1, 0, 2, 1, -1, 0, 1, 1
1503685428829,+0.209,+0.301,-0.547,-0.753,+0.917,-0.208,-0.190,+4.125,+13.438,-16.562,-1, -3, -3, 0, -1, -3, -1, -1
1503685428852,+0.211,+0.300,-0.549,-0.751,+0.944,-0.209,-0.159,+5.062,+10.500,-20.375,-3, -3, 0, -1, -1, 0, -1, -3
1503685428870,+0.215,+0.299,-0.551,-0.749,+0.956,-0.215,-0.143,+6.500,+3.688,-25.750,-1, -3, -3, -2, -2, 0, -3, -5
1503685428889,+0.219,+0.297,-0.552,-0.748,+0.931,-0.205,-0.146,+5.438,-0.812,-27.938,1, -1, 0, 0, -2, -2, 1, 0
1503685428914,+0.223,+0.296,-0.553,-0.746,+0.944,-0.226,-0.161,+3.750,+1.812,-26.750,0, 0, 3, 1, 0, -1, -2, 0
1503685428927,+0.225,+0.294,-0.555,-0.745,+0.971,-0.243,-0.140,-1.938,+4.438,-20.938,-2, 1, -2, -3, -2, -2, 0, -1
1503685428949,+0.225,+0.293,-0.556,-0.745,+1.012,-0.228,-0.117,-11.812,+3.625,-11.625,2, -2, -3, -2, -2, -1, -3, -2
1503685428973,+0.223,+0.290,-0.557,-0.745,+1.000,-0.223,-0.091,-22.438,-4.625,-5.125,1, -2, -2, 0, -1, 0, 0, -1
1503685428987,+0.221,+0.286,-0.558,-0.747,+0.977,-0.230,-0.088,-29.438,-10.562,-6.312,-1, 2, 2, 1, 2, 0, -3, 0
1503685429009,+0.220,+0.281,-0.558,-0.749,+0.953,-0.230,-0.092,-35.188,-13.062,-13.375,0, -3, -2, -1, 0, 1, -2, -2
1503685429032,+0.219,+0.273,-0.560,-0.751,+0.965,-0.223,-0.099,-44.188,-15.000,-23.250,1, 2, 2, -1, 0, 0, 1, 1
1503685429047,+0.218,+0.264,-0.561,-0.754,+0.978,-0.170,-0.132,-51.812,-17.750,-27.812,-3, 0, 1, -3, -2, 0, -1, -1
1503685429071,+0.217,+0.253,-0.562,-0.757,+0.945,-0.107,-0.174,-57.375,-19.375,-26.875,2, 0, -1, -1, 0, -1, -1, -1
1503685429092,+0.216,+0.242,-0.563,-0.760,+0.939,-0.030,-0.229,-57.375,-17.000,-23.062,-1, -2, -2, 0, 0, -1, -2, -2
1503685429110,+0.215,+0.232,-0.564,-0.762,+0.934,+0.003,-0.216,-53.812,-10.500,-22.812,-3, -3, -2, -1, -1, 0, 0, 0
1503685429129,+0.217,+0.222,-0.566,-0.764,+0.962,+0.027,-0.256,-41.438,-10.500,-31.250,-1, -2, -1, -3, -2, -2, -1, 1
1503685429152,+0.221,+0.212,-0.566,-0.766,+0.950,+0.076,-0.306,-31.312,-17.250,-36.562,-1, -2, -2, 0, -1, -1, -1, -1
1503685429168,+0.225,+0.204,-0.563,-0.768,+0.931,+0.045,-0.306,-22.562,-29.750,-34.000,2, 4, 1, 0, 0, 0, -1, -2
1503685429189,+0.228,+0.197,-0.561,-0.771,+0.960,+0.002,-0.288,-19.438,-28.812,-25.562,-2, -2, -1, -2, -2, -1, -2, -4
1503685429212,+0.229,+0.193,-0.560,-0.773,+0.999,-0.017,-0.261,-17.188,-17.875,-15.750,0, 0, 1, 0, 1, -2, -1, -2
1503685429227,+0.230,+0.190,-0.559,-0.774,+0.984,-0.011,-0.311,-11.875,-10.562,-8.438,-4, -5, -2, -1, -1, -1, -1, 0
1503685429249,+0.231,+0.188,-0.557,-0.775,+0.987,-0.037,-0.313,-5.375,-14.500,-7.562,0, 2, 2, 0, 1, -1, 0, 1
1503685429272,+0.232,+0.187,-0.554,-0.777,+1.040,-0.067,-0.307,-2.625,-19.312,-5.188,0, 0, 0, -1, -2, -1, -1, -1
1503685429287,+0.232,+0.186,-0.552,-0.779,+1.056,-0.083,-0.292,-3.125,-20.250,+0.188,-2, 0, -3, -1, -1, 0, 1, -1
1503685429309,+0.232,+0.186,-0.549,-0.781,+1.012,-0.070,-0.295,-2.688,-20.688,+3.812,0, 1, 0, 0, -1, 0, 0, -2
1503685429332,+0.232,+0.186,-0.546,-0.784,+0.999,-0.055,-0.312,-0.125,-21.000,+4.000,-1, -3, -3, 0, -1, -2, 0, 1
1503685429348,+0.232,+0.186,-0.543,-0.785,+1.020,-0.054,-0.304,+2.062,-20.625,+5.688,1, 0, 0, 0, -1, 1, -1, -1
1503685429372,+0.232,+0.187,-0.540,-0.787,+1.028,-0.056,-0.308,+3.312,-18.812,+12.188,-2, -2, 0, 0, -1, 0, 0, -3
1503685429392,+0.230,+0.189,-0.537,-0.789,+0.996,-0.058,-0.333,+6.438,-16.375,+17.375,-1, -1, -1, -1, -2, -1, -1, -1
1503685429414,+0.229,+0.192,-0.533,-0.791,+0.971,-0.064,-0.346,+10.062,-13.188,+20.438,-1, 0, -2, -2, -3, 0, -2, 0
1503685429429,+0.228,+0.196,-0.531,-0.792,+0.979,-0.072,-0.335,+13.312,-7.875,+23.500,-3, -2, -1, -2, 0, 0, 0, 0
1503685429452,+0.226,+0.200,-0.529,-0.793,+0.980,-0.084,-0.320,+16.125,-3.938,+25.500,2, 0, 0, 0, -2, -1, -2, 0
1503685429475,+0.224,+0.205,-0.527,-0.794,+0.962,-0.107,-0.322,+16.375,-0.250,+25.875,-2, -5, -3, -3, -1, 1, -1, -4
1503685429489,+0.222,+0.210,-0.526,-0.794,+0.938,-0.114,-0.298,+16.250,+2.438,+24.312,1, 2, 0, 2, -2, -1, -2, -3
1503685429512,+0.220,+0.215,-0.525,-0.794,+0.914,-0.097,-0.284,+16.312,+1.562,+23.688,0, 0, 1, -1, 0, -3, 0, 0
1503685435834,+0.161,+0.307,-0.563,-0.750,+0.835,-0.467,+0.027,+38.500,-13.438,-36.250,-4, -3, -4, 1, -2, 0, 1, -2
1503685435856,+0.168,+0.311,-0.563,-0.748,+0.891,-0.511,+0.015,+37.938,-9.000,-38.125,-5, -14, 1, 0, 0, -1, 0, 9
1503685435872,+0.173,+0.314,-0.562,-0.745,+0.923,-0.481,-0.000,+30.625,-8.750,-33.000,0, 5, -2, -1, 0, -2, -4, -5
1503685435894,+0.179,+0.315,-0.562,-0.743,+0.958,-0.399,-0.008,+25.562,-14.125,-30.438,-2, -1, 0, 0, -1, -1, 0, -4
1503685435916,+0.185,+0.316,-0.561,-0.742,+0.954,-0.392,-0.031,+22.312,-14.250,-30.062,1, -1, -2, -2, -1, 2, 1, 0
1503685435939,+0.191,+0.317,-0.560,-0.741,+0.962,-0.364,-0.023,+21.688,-16.250,-28.625,1, -2, -2, -2, -1, 1, -1, 0
1503685435954,+0.197,+0.318,-0.559,-0.740,+0.979,-0.347,-0.035,+21.062,-16.938,-29.188,-1, -4, -4, -2, -1, -1, -3, -1
1503685435977,+0.202,+0.319,-0.559,-0.738,+0.993,-0.327,-0.068,+22.438,-9.438,-29.000,0, 1, 1, 1, 1, 0, 1, 2
1503685435993,+0.207,+0.319,-0.559,-0.737,+1.005,-0.285,-0.094,+16.438,-6.125,-27.062,-1, -3, 3, 1, -1, -3, -1, 1
1503685436015,+0.212,+0.318,-0.560,-0.735,+1.004,-0.233,-0.109,+13.875,-5.188,-24.750,5, 23, 0, -2, -1, -1, 1, -1
1503685436039,+0.217,+0.318,-0.560,-0.734,+1.014,-0.200,-0.105,+15.250,-3.000,-23.125,-1, -3, -4, -2, -1, 0, -3, -2
1503685436053,+0.221,+0.318,-0.561,-0.732,+1.039,-0.171,-0.120,+15.250,+1.312,-17.188,2, -7, -2, -1, -1, 1, 1, 6
1503685436075,+0.224,+0.318,-0.562,-0.730,+1.032,-0.140,-0.122,+13.812,+4.000,-11.125,-1, -3, 0, -1, 0, -1, 0, 0
1503685436096,+0.227,+0.318,-0.563,-0.728,+1.026,-0.138,-0.104,+10.000,+3.250,-6.812,-3, -4, -1, 0, -1, 0, -1, -4
1503685436113,+0.229,+0.318,-0.563,-0.727,+1.011,-0.147,-0.120,+8.375,-0.625,-7.062,1, -2, -6, -3, -2, -1, -1, -2
1503685436135,+0.231,+0.318,-0.563,-0.727,+0.960,-0.143,-0.114,+4.875,-3.312,-8.500,-1, 1, -1, -2, 0, -1, -2, -3
1503685436156,+0.233,+0.316,-0.564,-0.726,+1.013,-0.141,-0.099,-1.562,+1.125,-10.375,-4, -6, -2, 0, -1, -2, -1, -2
1503685436173,+0.232,+0.316,-0.566,-0.726,+1.034,-0.178,-0.094,-6.125,+5.375,-1.812,-1, 0, 0, -1, 0, -1, -1, 1
1503685436195,+0.231,+0.314,-0.566,-0.726,+0.995,-0.165,-0.082,-16.188,-2.500,+2.812,-1, -6, -3, -2, -2, -1, -2, -1
1503685436216,+0.228,+0.311,-0.568,-0.727,+0.973,-0.177,-0.053,-25.625,+0.562,+1.312,0, -4, 0, 0, 1, 0, 0, 2
1503685436233,+0.225,+0.308,-0.570,-0.728,+0.948,-0.191,-0.093,-31.562,+6.938,+0.188,0, 4, 5, 1, 2, -1, 0, 0
1503685436254,+0.222,+0.304,-0.572,-0.729,+0.936,-0.184,-0.116,-35.062,+6.438,-3.875,0, 1, -1, 0, -3, -2, -2, -1
1503685436277,+0.220,+0.298,-0.574,-0.730,+0.922,-0.154,-0.110,-36.562,+3.438,-12.938,-2, -3, -1, 0, -1, -1, -2, -2
1503685436293,+0.219,+0.292,-0.576,-0.731,+0.952,-0.141,-0.127,-32.875,+0.625,-17.562,-1, -2, -1, 0, 0, 1, -1, 1
1503685436315,+0.218,+0.286,-0.578,-0.733,+0.949,-0.129,-0.153,-32.750,-3.250,-16.500,-1, 1, 0, 1, 0, -2, -1, -1
1503685436336,+0.218,+0.280,-0.579,-0.734,+0.966,-0.108,-0.147,-31.625,-5.312,-16.938,-1, -2, -2, -2, -1, 5, 2, -3
1503685436352,+0.218,+0.274,-0.581,-0.735,+0.990,-0.130,-0.127,-29.750,-1.250,-17.375,-1, -2, -2, -1, -1, -1, -1, 0
1503685436375,+0.217,+0.269,-0.582,-0.736,+0.982,-0.165,-0.137,-29.500,-1.250,-16.438,-1, 2, -1, -3, -1, -1, -2, -3
1503685436396,+0.217,+0.264,-0.583,-0.737,+0.975,-0.143,-0.138,-27.500,-8.250,-19.312,4, 13, 0, 0, 0, 3, -1, 1
1503685436419,+0.219,+0.257,-0.584,-0.739,+0.940,-0.102,-0.140,-25.062,-12.938,-27.062,1, -2, -1, -2, 0, -1, -2, -1
1503685436435,+0.221,+0.251,-0.584,-0.739,+0.938,-0.097,-0.161,-22.562,-9.062,-33.125,-1, -2, 0, -1, -1, 0, 0, 1
1503685436456,+0.224,+0.245,-0.586,-0.740,+0.984,-0.083,-0.170,-19.750,-5.562,-30.688,0, -6, -3, -1, 0, -3, -3, -1
1503685436479,+0.225,+0.240,-0.587,-0.740,+1.025,-0.044,-0.180,-18.750,-4.125,-21.125,-5, -8, -3, -1, -1, 0, 1, -2
1503685436494,+0.226,+0.236,-0.587,-0.741,+1.037,-0.038,-0.169,-19.500,-8.688,-12.438,-2, -4, 2, -2, -2, -3, 0, -1
1503685436516,+0.227,+0.232,-0.586,-0.743,+1.002,-0.046,-0.142,-16.812,-19.188,-12.812,2, 0, -1, -1, 0, 0, 0, 0
1503685436541,+0.229,+0.227,-0.585,-0.745,+0.969,-0.035,-0.152,-15.250,-21.562,-20.188,2, -2, -1, -1, -1, 0, 1, -1
1503685436555,+0.232,+0.221,-0.584,-0.746,+0.958,-0.016,-0.194,-18.125,-19.875,-25.125,-2, 0, -2, -2, 0, 1, -1, -2
1503685436577,+0.234,+0.215,-0.583,-0.748,+0.975,+0.059,-0.252,-15.750,-15.375,-21.250,-1, 2, -2, -1, -2, -4, -1, -2
1503685436599,+0.237,+0.210,-0.581,-0.749,+0.972,+0.104,-0.231,-11.188,-18.000,-15.875,0, 3, 3, 2, 1, -1, 1, 1
1503685436616,+0.240,+0.206,-0.580,-0.751,+0.969,+0.086,-0.201,-6.562,-19.625,-12.938,-2, 2, -3, -2, -2, 0, 0, -2
1503685436637,+0.242,+0.203,-0.578,-0.752,+0.989,+0.060,-0.184,-5.625,-17.750,-9.188,0, 0, 1, -1, 0, -3, 0, -2
1503685436660,+0.243,+0.201,-0.577,-0.753,+0.972,+0.042,-0.200,-5.688,-15.625,-4.562,1, 0, 0, 0, -2, -1, -1, 1
1503685436675,+0.244,+0.199,-0.576,-0.755,+0.972,+0.057,-0.221,-3.562,-12.875,-2.000,-2, -3, -2, -2, -1, -1, -4, -2
1503685436696,+0.245,+0.198,-0.574,-0.756,+0.983,+0.021,-0.224,-1.750,-16.000,-0.125,-2, -5, -2, -1, -1, -1, -2, -1
1503685436719,+0.245,+0.198,-0.572,-0.758,+1.001,-0.032,-0.212,-2.125,-17.625,+2.125,-3, 0, -1, 1, 0, 0, -1, -3
1503685443604,+0.261,+0.318,-0.519,-0.749,+0.955,-0.208,-0.184,+17.375,-4.250,-10.000,-1, 15, 11, -2, -2, -3, -2, -3
1503685443621,+0.263,+0.319,-0.518,-0.748,+1.000,-0.207,-0.191,+17.375,-5.750,-7.938,1, -8, -12, -4, -5, -4, -5, -3
1503685443642,+0.266,+0.321,-0.517,-0.748,+1.022,-0.203,-0.185,+15.000,-9.562,-4.688,-4, -10, -11, -2, -1, -2, -2, -2
1503685443664,+0.268,+0.322,-0.515,-0.748,+1.001,-0.186,-0.198,+11.375,-13.000,+1.062,-10, -10, -2, -5, -7, -3, 0, -1
1503685443680,+0.269,+0.323,-0.513,-0.749,+1.006,-0.171,-0.197,+8.500,-14.062,+6.000,-1, 4, 0, -5, -10, -5, -3, -2
1503685443702,+0.269,+0.324,-0.511,-0.750,+1.008,-0.167,-0.194,+5.812,-13.000,+11.938,-2, -5, -3, 1, 2, -1, 0, 3
1503685443718,+0.268,+0.325,-0.509,-0.751,+0.997,-0.136,-0.230,+4.438,-8.438,+17.500,11, 0, 4, 0, -3, 0, -4, 0
1503685443741,+0.267,+0.326,-0.507,-0.752,+0.989,-0.146,-0.250,+4.875,-6.500,+19.250,-7, -10, -12, -6, -2, 0, 0, 0
1503685443764,+0.267,+0.328,-0.505,-0.753,+0.994,-0.149,-0.237,+4.500,-10.688,+19.500,5, 4, 10, 6, 8, 2, 0, 1
1503685443784,+0.265,+0.329,-0.503,-0.754,+0.978,-0.157,-0.213,+2.812,-6.625,+19.312,-4, -7, -7, -12, -14, -2, 2, -2
1503685443800,+0.263,+0.330,-0.503,-0.754,+0.940,-0.165,-0.221,+1.250,+3.000,+18.875,-8, -4, -7, -3, 3, -3, -1, -2
1503685443823,+0.261,+0.332,-0.503,-0.754,+0.934,-0.179,-0.230,-0.750,+8.562,+17.188,9, 3, 1, -1, -3, -4, -3, 3
1503685443844,+0.259,+0.333,-0.504,-0.754,+0.933,-0.204,-0.208,-2.188,+10.188,+12.000,4, 0, -5, 2, 1, 0, 0, -2
1503685443860,+0.258,+0.333,-0.506,-0.753,+0.948,-0.208,-0.188,-3.000,+12.000,+3.250,5, 0, -3, 1, 6, -3, 0, 6
1503685443882,+0.258,+0.334,-0.508,-0.751,+0.924,-0.227,-0.205,-1.750,+12.875,-4.625,-5, 2, -4, -2, -2, -2, -2, -3
1503685443904,+0.260,+0.333,-0.510,-0.750,+0.861,-0.227,-0.217,+0.125,+11.062,-19.125,-1, -7, -5, -1, 5, 0, -1, -1
1503685443922,+0.263,+0.330,-0.513,-0.747,+0.886,-0.237,-0.176,-1.000,+7.750,-34.750,-3, -4, -3, 3, 5, 1, 0, -3
1503685443943,+0.267,+0.327,-0.516,-0.745,+0.919,-0.227,-0.204,-4.500,+8.438,-36.750,-1, 0, 1, -7, -10, -3, -6, -3
1503685443965,+0.270,+0.324,-0.519,-0.744,+0.926,-0.201,-0.224,-6.188,+7.312,-31.438,3, 2, 0, -1, -3, -3, -4, -5
1503685443981,+0.273,+0.321,-0.520,-0.743,+0.959,-0.216,-0.212,-7.750,+0.625,-24.875,-1, 1, 0, -5, -7, 1, 0, 2
1503685444002,+0.274,+0.319,-0.521,-0.743,+0.973,-0.212,-0.215,-8.938,-4.875,-16.562,-5, 8, 5, -4, -9, -5, -2, -5
1503685444026,+0.276,+0.316,-0.520,-0.744,+0.958,-0.207,-0.221,-8.750,-11.500,-11.000,-11, 1, -2, 0, 2, 0, -1, -4
1503685444038,+0.277,+0.314,-0.519,-0.745,+0.969,-0.183,-0.227,-6.750,-11.875,-13.062,8, 15, 8, 5, 2, -2, -3, -1
1503685444061,+0.280,+0.312,-0.519,-0.745,+0.956,-0.200,-0.211,-4.250,-13.438,-16.938,0, 1, 6, 5, 4, 1, 0, -1
1503685444083,+0.282,+0.310,-0.518,-0.746,+0.964,-0.197,-0.203,-4.188,-13.688,-17.500,3, -3, 1, 4, 1, 1, 4, 6
1503685444099,+0.284,+0.307,-0.518,-0.746,+0.958,-0.151,-0.225,-4.938,-7.750,-14.438,-8, -8, -7, 2, 4, -1, 0, 6
1503685444121,+0.286,+0.306,-0.518,-0.746,+0.956,-0.121,-0.248,-4.062,-1.562,-9.625,4, 2, 5, 3, 3, 2, -3, -4
1503685444144,+0.287,+0.305,-0.518,-0.746,+1.001,-0.141,-0.238,+0.125,-4.312,-6.500,-1, -10, -10, -6, -6, -1, 1, -3
1503685444159,+0.288,+0.305,-0.517,-0.746,+1.007,-0.164,-0.243,+4.500,-9.812,-4.500,-6, -2, -2, -2, 2, 0, 2, 1
1503685444181,+0.290,+0.305,-0.516,-0.747,+0.985,-0.174,-0.236,+4.125,-10.938,-3.750,7, -1, -11, -5, -4, -1, -3, -2
1503685444204,+0.291,+0.305,-0.515,-0.747,+0.977,-0.185,-0.251,+5.438,-5.125,-4.875,-2, -1, 4, -1, -3, -1, -4, -4
1503685444219,+0.293,+0.306,-0.514,-0.746,+1.001,-0.173,-0.264,+8.562,-3.000,-4.250,-3, -12, -5, -2, -1, -1, 0, -3
1503685444241,+0.295,+0.307,-0.513,-0.745,+0.995,-0.160,-0.272,+16.000,-1.438,-4.875,2, 5, -4, 0, 0, 0, 0, 2
1503685444264,+0.298,+0.310,-0.512,-0.744,+0.967,-0.158,-0.278,+22.312,+1.188,-7.875,4, 17, 8, 3, 2, 2, -1, 0
1503685444279,+0.302,+0.312,-0.511,-0.742,+0.928,-0.157,-0.229,+26.125,-3.312,-13.875,0, -7, -4, 0, 1, 1, 2, 5
1503685444301,+0.306,+0.313,-0.511,-0.740,+1.010,-0.153,-0.209,+17.500,-2.562,-14.375,2, 6, 3, -2, 0, 1, -3, 3
1503685444327,+0.307,+0.315,-0.510,-0.739,+0.991,-0.160,-0.224,+12.188,-0.562,-0.938,8, 0, -4, -3, 0, -2, -1, 0
1503685444339,+0.307,+0.316,-0.510,-0.739,+0.978,-0.131,-0.176,+8.125,-0.688,+3.688,-5, -7, -10, -4, -2, -1, -2, -2
1503685444362,+0.307,+0.317,-0.511,-0.738,+0.984,-0.144,-0.130,-4.438,+1.938,+1.562,-7, 6, 8, 3, 1, 1, 1, -2
1503685444383,+0.305,+0.315,-0.513,-0.738,+0.966,-0.130,-0.135,-13.812,+0.812,+0.062,-23, -5, 1, 0, -1, -1, -2, -6
1503685444399,+0.304,+0.313,-0.514,-0.738,+0.929,-0.114,-0.160,-19.438,-0.688,-4.812,-1, 0, -1, -1, -2, -2, -5, -5
1503685444421,+0.304,+0.309,-0.517,-0.739,+0.932,-0.101,-0.176,-25.188,-0.500,-8.125,-6, -2, 0, 1, -1, 0, -1, -2
1503685444444,+0.302,+0.304,-0.519,-0.739,+0.930,-0.097,-0.192,-28.875,+0.625,-8.750,-1, -3, -1, -2, -3, -4, 0, -8
1503685444466,+0.301,+0.300,-0.521,-0.740,+0.953,-0.104,-0.204,-30.062,-1.875,-8.312,7, 3, 4, 3, 0, 0, 0, 2
1503685444481,+0.300,+0.295,-0.521,-0.743,+0.968,-0.111,-0.226,-32.188,-11.500,-7.875,0, 0, -2, -3, -2, -2, -1, -5
1503685451246,+0.379,+0.430,-0.520,-0.633,+0.973,-0.167,+0.006,-3.250,-2.875,+0.562,1, -2, -2, -2, 1, 0, 1, -1
1503685451269,+0.379,+0.429,-0.521,-0.633,+0.963,-0.152,-0.006,-8.125,-7.188,-8.812,-2, 0, -3, -2, -1, 0, -4, -2
1503685451284,+0.381,+0.425,-0.522,-0.634,+0.946,-0.144,-0.005,-15.625,-9.750,-18.875,-4, -2, -1, -1, -2, -3, -2, -3
1503685451309,+0.381,+0.421,-0.525,-0.634,+1.007,-0.127,-0.009,-23.000,-5.688,-19.438,2, 0, 0, -2, -1, 0, 1, 0
1503685451328,+0.380,+0.416,-0.527,-0.636,+1.000,-0.110,-0.011,-30.250,-5.062,-12.062,-1, 0, -1, -1, 0, 0, 2, 0
1503685451345,+0.379,+0.411,-0.530,-0.637,+1.004,-0.086,+0.003,-34.938,-5.062,-10.688,-2, 0, -2, 1, -1, 0, 1, 1
1503685451366,+0.377,+0.405,-0.532,-0.641,+0.998,-0.072,-0.013,-41.938,-14.375,-9.062,-1, 0, 0, 0, 0, 0, -1, 0
1503685451388,+0.375,+0.398,-0.534,-0.645,+0.971,-0.097,-0.036,-48.188,-21.500,-5.375,-1, 0, -1, 1, 0, -1, -1, 0
1503685451404,+0.372,+0.390,-0.535,-0.651,+0.947,-0.106,-0.078,-55.000,-24.500,-7.000,4, -1, -1, -1, -1, 0, -1, 0
1503685451426,+0.370,+0.381,-0.538,-0.655,+0.965,-0.091,-0.088,-57.188,-17.000,-17.312,-3, -2, -2, -1, -1, 0, -1, -2
1503685451449,+0.370,+0.371,-0.541,-0.658,+0.975,-0.050,-0.110,-53.125,-14.750,-28.250,-4, 0, 1, 0, -1, -1, -2, -5
1503685451464,+0.371,+0.361,-0.544,-0.660,+0.966,-0.017,-0.122,-48.500,-15.250,-34.062,-1, -2, -2, -2, -3, -2, -3, -1
1503685451486,+0.372,+0.351,-0.547,-0.662,+0.997,-0.043,-0.111,-49.000,-20.938,-34.062,-2, -1, -1, -1, -1, -1, -3, -2
1503685451510,+0.372,+0.342,-0.549,-0.666,+1.028,-0.076,-0.101,-50.250,-24.188,-28.812,0, -1, -1, -2, -3, -2, 1, 1
1503685451524,+0.370,+0.332,-0.552,-0.669,+1.010,-0.044,-0.101,-54.750,-22.438,-25.250,0, 0, 0, 0, 2, 1, 0, -2
1503685451546,+0.370,+0.322,-0.554,-0.673,+1.000,+0.022,-0.140,-54.312,-20.625,-24.188,-1, 0, 1, 1, 0, -2, -2, -1
1503685451568,+0.369,+0.313,-0.556,-0.676,+1.002,+0.050,-0.184,-50.188,-21.438,-19.312,2, -3, -2, 0, -1, -2, 1, 3
1503685451585,+0.368,+0.304,-0.557,-0.680,+0.995,+0.045,-0.189,-45.312,-23.312,-14.188,2, 1, -1, 0, 1, -2, 0, 2
1503685451606,+0.367,+0.297,-0.557,-0.684,+0.994,+0.028,-0.168,-41.500,-24.875,-10.688,0, 0, -3, -2, -3, 0, -2, -2
1503685451628,+0.366,+0.290,-0.557,-0.687,+1.036,+0.029,-0.202,-38.125,-21.250,-5.438,-2, -2, 0, -1, -2, -1, 0, -1
1503685451644,+0.363,+0.285,-0.556,-0.692,+1.006,+0.020,-0.223,-36.375,-24.562,+1.750,-3, -1, 0, -1, 0, -2, 1, -2
1503685451666,+0.361,+0.280,-0.554,-0.696,+1.000,+0.013,-0.216,-32.750,-25.438,+3.938,2, 2, -1, 0, 0, 0, 0, 1
1503685451688,+0.359,+0.275,-0.552,-0.700,+0.994,-0.014,-0.230,-28.750,-22.938,+4.438,-3, -1, 0, 0, -1, 0, -2, -2
1503685451704,+0.357,+0.272,-0.551,-0.703,+1.026,-0.022,-0.228,-25.250,-16.375,+7.938,-4, -2, -1, 1, -1, 0, -4, -3
1503685451726,+0.354,+0.270,-0.550,-0.707,+1.020,-0.018,-0.234,-23.188,-14.875,+12.250,-1, -4, -3, -2, 0, 0, -2, 0
1503685451748,+0.351,+0.268,-0.548,-0.710,+1.010,-0.035,-0.227,-20.875,-16.438,+12.000,-1, -1, -1, -3, -1, -1, -2, -2
1503685451764,+0.349,+0.267,-0.546,-0.713,+1.021,-0.041,-0.248,-16.562,-15.938,+12.125,-1, -1, 0, 0, -2, 0, 0, -1
1503685451786,+0.346,+0.266,-0.544,-0.716,+1.020,-0.057,-0.248,-13.125,-15.500,+14.688,-1, -1, 0, -1, -1, -1, 1, 1
1503685451808,+0.343,+0.267,-0.542,-0.719,+1.010,-0.070,-0.248,-9.875,-13.750,+17.938,2, -1, 1, 1, -1, -2, 1, 2
1503685451826,+0.340,+0.267,-0.539,-0.723,+1.004,-0.076,-0.253,-8.125,-13.625,+21.812,-4, -3, -2, -2, -1, -1, 0, -3
1503685451847,+0.337,+0.269,-0.536,-0.726,+1.008,-0.070,-0.256,-5.812,-12.875,+26.062,-3, -2, -2, 1, -1, -2, -1, -2
1503685451868,+0.334,+0.271,-0.533,-0.729,+0.987,-0.055,-0.281,-2.438,-11.688,+30.438,2, 1, -1, 1, 1, 0, -2, 1
1503685451884,+0.331,+0.273,-0.529,-0.732,+0.983,-0.034,-0.276,+1.062,-14.125,+34.688,1, 1, -2, -2, -1, 0, -2, 3
1503685451906,+0.327,+0.276,-0.525,-0.736,+0.966,-0.045,-0.264,+4.812,-16.438,+39.062,-3, -1, -1, -1, -2, 1, -2, 0
1503685451928,+0.323,+0.280,-0.521,-0.739,+0.953,-0.075,-0.259,+6.812,-16.125,+41.188,-1, -2, 1, -1, -1, -1, -2, -2
1503685451946,+0.320,+0.284,-0.516,-0.742,+0.910,-0.098,-0.249,+6.625,-14.750,+38.812,-2, -3, -1, -2, -2, -2, -3, -2
1503685451966,+0.317,+0.287,-0.513,-0.744,+0.883,-0.109,-0.234,+6.062,-9.562,+31.750,-1, 0, 1, -1, -1, -3, 0, -1
1503685451988,+0.314,+0.290,-0.511,-0.745,+0.895,-0.124,-0.217,+4.438,-3.938,+23.062,1, 1, 0, -2, -1, 0, 1, 0
1503685452004,+0.313,+0.292,-0.511,-0.746,+0.884,-0.139,-0.192,+2.562,+0.188,+10.875,-1, -1, -1, 0, 0, 0, 1, -2
1503685452026,+0.313,+0.292,-0.512,-0.745,+0.900,-0.151,-0.176,+0.375,+3.750,-6.000,3, 3, 0, -1, -1, 0, -1, 0
1503685452048,+0.315,+0.291,-0.514,-0.742,+0.909,-0.169,-0.177,-2.500,+9.250,-24.250,0, -1, -3, -2, -1, 0, -2, -3
1503685452064,+0.319,+0.289,-0.518,-0.739,+0.919,-0.174,-0.192,-4.000,+14.875,-40.438,-3, -2, -2, 0, 0, -1, -3, -3
1503685452086,+0.324,+0.286,-0.523,-0.734,+0.942,-0.138,-0.205,-3.750,+18.938,-53.000,-3, -2, 0, -1, 0, 0, -2, 0
1503685452108,+0.329,+0.282,-0.528,-0.730,+1.003,-0.091,-0.208,-3.062,+16.125,-54.188,0, -1, -2, -1, -2, 0, 1, -1
1503685452124,+0.334,+0.279,-0.531,-0.727,+1.003,-0.017,-0.274,+0.188,+9.500,-40.938,0, 0, -2, -1, -1, -2, -1, -3
1503685457771,+0.247,+0.276,-0.566,-0.737,+0.988,-0.140,-0.087,-30.625,-12.062,-11.812,-1, -3, 0, -1, -1, 1, 0, -1
1503685457793,+0.246,+0.269,-0.566,-0.739,+0.998,-0.126,-0.084,-37.500,-18.500,-13.625,-1, -3, -1, -1, -2, -1, -1, -1
1503685457809,+0.244,+0.262,-0.567,-0.742,+0.993,-0.127,-0.095,-44.375,-20.938,-18.562,-1, -2, -2, -2, 1, 0, -2, 0
1503685457831,+0.243,+0.252,-0.568,-0.745,+0.998,-0.100,-0.105,-51.500,-19.812,-23.562,0, -3, -3, -2, -3, 1, -3, 0
1503685457853,+0.242,+0.242,-0.569,-0.748,+0.998,-0.029,-0.165,-57.750,-21.250,-20.312,0, -2, -2, 0, 2, -1, 2, -2
1503685457869,+0.239,+0.232,-0.570,-0.751,+0.931,+0.020,-0.205,-56.625,-15.750,-15.125,-1, 1, 0, -1, -2, -1, -5, -2
1503685457892,+0.238,+0.223,-0.571,-0.754,+0.945,+0.035,-0.223,-48.938,-15.250,-17.375,-6, -2, 10, 1, 1, -2, -1, -4
1503685457913,+0.239,+0.214,-0.570,-0.756,+0.984,+0.035,-0.289,-37.750,-16.688,-23.500,-3, -3, -6, -2, 0, -1, -1, -2
1503685457929,+0.241,+0.206,-0.569,-0.758,+0.986,+0.027,-0.297,-29.625,-21.000,-24.062,1, -1, -1, -2, -1, -2, -2, -1
1503685457951,+0.242,+0.200,-0.567,-0.762,+0.991,+0.006,-0.271,-27.000,-30.750,-16.875,0, 2, -1, -1, -1, -1, 1, 0
1503685457973,+0.242,+0.194,-0.564,-0.765,+0.993,-0.019,-0.273,-25.625,-29.875,-6.875,0, 0, 2, -1, -2, -3, -1, -2
1503685457990,+0.240,+0.190,-0.562,-0.769,+0.993,-0.025,-0.266,-24.250,-24.750,-0.938,-1, -4, 0, -1, -1, -2, -2, -2
1503685458011,+0.238,+0.187,-0.560,-0.771,+0.966,-0.025,-0.276,-23.875,-17.375,+3.438,0, 3, -1, -1, -1, 0, 0, 1
1503685458033,+0.236,+0.184,-0.558,-0.774,+0.968,-0.008,-0.303,-21.500,-13.312,+6.000,0, 0, 0, -2, 0, 0, -1, 0
1503685458049,+0.234,+0.182,-0.558,-0.775,+1.008,-0.012,-0.283,-18.688,-7.188,+7.938,1, -6, -1, 1, 1, -1, 0, 1
1503685458071,+0.232,+0.181,-0.558,-0.776,+1.022,-0.030,-0.269,-15.000,-5.500,+7.250,-1, -1, -1, -2, 0, -1, -1, 0
1503685458094,+0.230,+0.180,-0.557,-0.778,+0.987,-0.030,-0.271,-12.688,-7.625,+6.188,-1, -3, -1, 0, 0, -2, -4, 0
1503685458109,+0.229,+0.178,-0.556,-0.779,+0.982,-0.022,-0.283,-11.938,-8.688,+5.625,-2, -6, -3, 0, 1, 0, 1, 0
1503685458131,+0.227,+0.177,-0.555,-0.780,+0.976,-0.028,-0.269,-10.438,-8.000,+4.688,0, -2, 0, 0, 0, -3, -3, -1
1503685458156,+0.226,+0.177,-0.554,-0.781,+0.974,-0.033,-0.286,-8.875,-7.562,+3.375,-2, 5, 1, -4, 0, 0, 1, 0
1503685458169,+0.226,+0.176,-0.553,-0.782,+0.972,-0.034,-0.308,-6.625,-7.750,+3.125,1, -1, -5, 0, -1, -1, -1, -3
1503685458191,+0.225,+0.176,-0.552,-0.784,+0.970,-0.028,-0.330,-4.312,-8.625,+5.500,1, -1, 1, -1, 0, 0, -5, -3
1503685458213,+0.224,+0.176,-0.550,-0.785,+0.990,-0.035,-0.316,-1.000,-7.938,+9.562,-1, 0, -2, 0, -2, -3, -1, -1
1503685458232,+0.222,+0.178,-0.548,-0.787,+1.013,-0.042,-0.323,+1.250,-9.000,+15.000,-2, -1, 1, 0, -1, 0, -1, -3
1503685458251,+0.221,+0.180,-0.546,-0.788,+1.012,-0.040,-0.330,+5.375,-9.312,+20.000,-1, -2, -3, -1, -1, -2, 0, 2
1503685458273,+0.219,+0.184,-0.543,-0.790,+1.000,-0.055,-0.328,+11.375,-9.438,+25.812,-1, -1, 0, -1, -3, 1, 1, -2
1503685458292,+0.216,+0.189,-0.540,-0.791,+0.983,-0.079,-0.338,+15.562,-8.562,+32.250,1, 11, -2, -2, -1, -1, 0, -1
1503685458311,+0.213,+0.194,-0.537,-0.793,+0.956,-0.099,-0.325,+17.625,-6.562,+35.750,-1, -4, -3, 0, 0, -2, -4, 0
1503685458333,+0.210,+0.200,-0.534,-0.794,+0.959,-0.120,-0.301,+19.188,-4.562,+35.625,-3, -2, 2, 0, -1, 0, 1, 0
1503685463614,+0.290,+0.323,-0.572,-0.696,+0.959,-0.070,-0.092,-18.000,+18.750,+22.438,2, 0, 0, -1, -1, -3, -5, -1
1503685463636,+0.285,+0.324,-0.574,-0.697,+0.942,-0.107,-0.081,-21.688,+16.312,+22.375,0, -1, -1, -2, 0, -1, -1, 3
1503685463664,+0.278,+0.324,-0.575,-0.698,+0.947,-0.142,-0.087,-24.750,+16.812,+24.125,-1, 1, 0, -2, 1, -1, 3, -1
1503685463674,+0.271,+0.324,-0.576,-0.699,+0.912,-0.194,-0.081,-30.938,+13.875,+24.750,-1, -1, 0, 1, -1, 0, -2, -1
1503685463696,+0.264,+0.323,-0.578,-0.701,+0.895,-0.213,-0.048,-37.438,+13.062,+22.312,1, -1, 0, 0, -1, -2, 0, -1
1503685463720,+0.255,+0.322,-0.580,-0.703,+0.895,-0.239,-0.058,-44.438,+13.562,+20.438,-4, 0, -1, 0, 1, 1, -2, -4
1503685463734,+0.247,+0.318,-0.582,-0.707,+0.890,-0.251,-0.060,-53.750,+5.938,+17.625,-1, -1, 0, -1, -1, -1, -3, -1
1503685463758,+0.238,+0.314,-0.583,-0.710,+0.896,-0.248,-0.058,-59.750,+2.375,+14.562,3, 1, -1, -2, 1, -2, 1, 2
1503685463777,+0.230,+0.308,-0.585,-0.714,+0.921,-0.240,-0.081,-61.312,+3.812,+13.812,-1, -2, -2, -2, -2, -1, 2, 0
1503685463794,+0.222,+0.303,-0.586,-0.718,+0.934,-0.223,-0.100,-59.188,-2.562,+14.125,0, 0, 0, 0, -1, 1, 0, -1
1503685463816,+0.215,+0.298,-0.586,-0.722,+0.948,-0.222,-0.118,-52.438,-5.000,+13.938,-1, -1, 0, -2, -2, -4, -2, -3
1503685463838,+0.209,+0.295,-0.585,-0.726,+0.964,-0.245,-0.135,-43.938,-8.812,+14.938,-2, -1, -3, -2, 1, -1, -4, -3
1503685463855,+0.204,+0.292,-0.583,-0.730,+0.981,-0.292,-0.106,-36.750,-15.500,+15.688,0, -3, 0, -2, 0, -2, -3, -1
1503685463876,+0.199,+0.290,-0.581,-0.734,+0.976,-0.302,-0.097,-31.438,-15.750,+11.438,-1, -1, -1, -1, -3, -1, 0, 1
1503685463898,+0.196,+0.287,-0.581,-0.736,+0.948,-0.281,-0.093,-27.875,-9.625,+1.125,-2, -2, 0, 0, 0, -2, -1, -3
1503685463914,+0.195,+0.284,-0.581,-0.737,+0.970,-0.242,-0.106,-21.062,-6.562,-8.562,-2, -1, -1, -1, -2, -1, 0, -1
1503685463943,+0.195,+0.281,-0.581,-0.739,+1.003,-0.226,-0.125,-15.812,-8.062,-12.438,2, 1, 1, -1, -1, -2, -1, 1
1503685463965,+0.196,+0.279,-0.581,-0.739,+1.018,-0.241,-0.103,-11.812,-6.500,-13.625,-2, -3, 1, 1, 0, -1, 1, -3
1503685463974,+0.197,+0.276,-0.581,-0.740,+0.988,-0.227,-0.110,-8.562,-5.125,-17.250,-1, -1, -2, 0, -1, 1, 2, 0
1503685463997,+0.199,+0.273,-0.582,-0.739,+0.981,-0.196,-0.111,-7.250,-2.438,-22.312,2, 1, -1, 0, 0, 2, 1, 0
1503685464018,+0.202,+0.271,-0.584,-0.738,+1.006,-0.159,-0.128,-4.562,+4.812,-23.875,-2, -3, -2, -1, -2, -4, -2, -1
1503685464034,+0.205,+0.269,-0.586,-0.737,+0.997,-0.128,-0.146,-0.812,+5.500,-20.562,0, 1, 0, 1, 1, 1, 0, 2
1503685464056,+0.207,+0.267,-0.586,-0.737,+1.040,-0.124,-0.155,+1.062,-2.312,-16.750,-1, -2, -1, -1, -1, 0, -2, 1
1503685464078,+0.209,+0.266,-0.586,-0.736,+1.067,-0.133,-0.126,+1.250,-4.938,-10.062,-3, -3, 0, 1, -2, -2, -1, -1
1503685464095,+0.209,+0.266,-0.586,-0.736,+1.046,-0.166,-0.087,+1.625,+1.562,-1.000,0, -1, -3, -1, -1, 0, -1, 0
1503685464116,+0.209,+0.268,-0.586,-0.735,+0.999,-0.202,-0.089,+3.312,+0.875,+3.125,-1, 1, 0, -1, -1, 0, 0, -1
1503685464138,+0.209,+0.268,-0.586,-0.736,+0.988,-0.182,-0.126,-2.062,-3.750,-2.188,3, 2, 1, -1, -2, 0, -3, 1
1503685464156,+0.210,+0.267,-0.586,-0.736,+0.985,-0.156,-0.131,-3.688,-1.938,-8.250,0, 1, 0, 0, 1, 1, -2, -2
1503685464176,+0.211,+0.266,-0.587,-0.735,+0.950,-0.106,-0.154,+1.688,+3.875,-10.125,-2, -4, -4, -3, -1, -2, -3, 1
1503685464199,+0.213,+0.265,-0.587,-0.735,+0.957,-0.140,-0.123,+0.125,+3.125,-9.500,1, 1, 1, -2, -1, 0, 0, -2
1503685464214,+0.213,+0.264,-0.588,-0.734,+0.992,-0.174,-0.094,-2.875,+3.000,-9.875,-1, 1, 0, 0, -1, -2, 0, 2
1503685464236,+0.215,+0.262,-0.589,-0.733,+0.995,-0.136,-0.090,-5.812,-2.062,-17.688,-3, -1, -2, -1, -3, -2, -3, -1
1503685464258,+0.219,+0.257,-0.590,-0.734,+0.917,-0.032,-0.130,-7.750,-11.125,-31.750,-2, -1, -1, -1, -2, -2, -1, -3
1503685464274,+0.226,+0.250,-0.591,-0.733,+0.882,+0.053,-0.156,-4.750,-10.625,-45.750,-1, -1, 0, 0, -1, 0, 0, 0
1503685464297,+0.234,+0.244,-0.592,-0.732,+0.896,+0.063,-0.169,-0.688,-4.250,-50.000,0, 0, -2, -1, -1, 0, 0, -1
1503685464318,+0.240,+0.239,-0.594,-0.730,+0.958,+0.073,-0.160,-0.062,+0.812,-40.125,-1, 0, -1, -1, 0, 0, -2, -1
1503685464334,+0.246,+0.234,-0.595,-0.729,+0.995,+0.108,-0.173,+2.500,-4.438,-30.812,-2, -1, -2, -1, 0, -3, 1, 0
1503685470078,+0.279,+0.297,-0.520,-0.751,+0.997,-0.149,-0.252,+1.312,-1.875,-12.250,-1, -2, -1, 0, -2, -4, 1, -1
1503685470101,+0.281,+0.297,-0.521,-0.750,+0.995,-0.116,-0.246,+2.562,+2.125,-9.875,-2, -1, -2, -1, -1, 0, 0, 1
1503685470123,+0.283,+0.296,-0.522,-0.748,+1.021,-0.079,-0.236,+3.375,+6.625,-8.688,0, 1, -2, 0, -2, -1, -1, 0
1503685470138,+0.284,+0.296,-0.524,-0.747,+1.027,-0.071,-0.226,+1.938,+7.688,-5.750,-3, -2, 1, 2, 0, -1, -3, -1
1503685470162,+0.284,+0.295,-0.525,-0.746,+1.034,-0.065,-0.221,-0.938,+7.125,-0.812,0, -1, 0, 0, -1, 0, 1, 0
1503685470186,+0.284,+0.295,-0.526,-0.745,+1.015,-0.060,-0.216,-3.875,+6.000,+4.125,-2, -2, -1, -2, -1, -1, 1, 0
1503685470198,+0.282,+0.295,-0.528,-0.745,+0.991,-0.075,-0.216,-6.750,+7.000,+8.375,1, -2, -2, -2, -1, -1, 1, 1
1503685470221,+0.280,+0.295,-0.529,-0.745,+0.975,-0.087,-0.220,-10.938,+7.438,+11.000,-1, -3, -2, -1, 1, 0, -3, 2
1503685470244,+0.277,+0.294,-0.530,-0.746,+0.956,-0.116,-0.231,-14.938,+7.438,+13.812,-2, -1, 0, 0, -1, -2, 0, -2
1503685470259,+0.273,+0.293,-0.530,-0.747,+0.926,-0.126,-0.229,-19.562,+6.562,+14.312,0, 1, 0, 0, -2, -1, 0, 1
1503685470281,+0.270,+0.292,-0.531,-0.748,+0.923,-0.142,-0.248,-22.062,+6.750,+11.875,2, -1, 0, 1, 0, -3, 0, 2
1503685470303,+0.266,+0.290,-0.532,-0.750,+0.919,-0.146,-0.262,-21.375,+5.562,+10.125,-1, -1, 1, -2, -1, 0, -2, -3
1503685470320,+0.264,+0.288,-0.532,-0.751,+0.899,-0.156,-0.287,-19.375,+1.125,+8.125,-2, -2, -1, 0, 0, -1, -5, -5
1503685470340,+0.262,+0.287,-0.531,-0.753,+0.912,-0.163,-0.295,-15.438,-1.875,+5.750,1, 0, -2, -1, -1, 2, 1, -1
1503685470363,+0.261,+0.286,-0.530,-0.754,+0.923,-0.154,-0.302,-8.750,-1.500,+2.438,-1, -1, 0, -1, -2, -1, -3, -4
1503685470377,+0.261,+0.285,-0.529,-0.755,+0.940,-0.168,-0.280,-2.438,-6.500,+0.250,-3, -1, -2, -2, -1, -1, 0, 0
1503685470401,+0.262,+0.285,-0.528,-0.756,+0.950,-0.173,-0.268,+1.250,-5.688,+0.312,-2, 1, -1, -2, -2, -2, -3, -2
1503685470423,+0.263,+0.286,-0.527,-0.756,+0.958,-0.154,-0.247,+3.312,-2.000,-1.375,-2, -2, 0, 0, -3, 0, 1, 1
1503685470437,+0.264,+0.286,-0.527,-0.755,+0.966,-0.153,-0.233,+7.000,-0.312,-3.938,-2, -1, -1, -1, -2, -1, -2, -2
1503685470460,+0.265,+0.287,-0.527,-0.755,+0.976,-0.163,-0.222,+9.688,-0.062,-4.312,-1, 0, 0, -2, -1, 0, -1, -1
1503685470482,+0.266,+0.289,-0.527,-0.754,+0.977,-0.161,-0.228,+8.375,+1.125,-3.938,-3, -1, 1, 1, 1, 0, 0, 1
1503685470498,+0.267,+0.289,-0.527,-0.753,+0.985,-0.159,-0.220,+5.188,+2.188,-2.062,1, -3, -3, -2, 0, 0, -3, 1
1503685470521,+0.267,+0.290,-0.527,-0.753,+0.979,-0.171,-0.227,+3.062,+0.625,-0.062,0, 0, 3, 2, 1, -1, -1, 1
1503685470542,+0.268,+0.291,-0.527,-0.753,+0.979,-0.172,-0.236,+3.500,-0.500,-0.625,0, 0, 0, -2, 0, 0, 1, 1
1503685470558,+0.269,+0.291,-0.526,-0.753,+0.959,-0.174,-0.244,+4.562,-0.750,-1.625,-1, -1, -1, -1, -1, -1, -1, -1
1503685470580,+0.270,+0.292,-0.526,-0.752,+0.945,-0.164,-0.239,+6.562,-1.312,-3.562,-2, 0, 0, 2, -1, -1, -3, -3
1503685470606,+0.271,+0.293,-0.526,-0.752,+0.954,-0.154,-0.247,+6.312,+2.562,-3.812,-1, 2, 0, 1, -2, -2, -2, 0
1503685470617,+0.272,+0.294,-0.526,-0.751,+0.980,-0.153,-0.250,+10.000,+4.000,-2.250,2, -1, -1, -1, -2, 1, 0, -1
1503685470640,+0.273,+0.296,-0.525,-0.750,+0.972,-0.150,-0.253,+14.500,+4.062,-0.438,0, -1, 0, -1, 0, -3, -4, 3
1503685470663,+0.275,+0.299,-0.524,-0.749,+0.959,-0.179,-0.268,+18.750,+4.125,-0.125,0, 0, -2, 0, 1, -1, 2, 1
1503685470678,+0.277,+0.302,-0.523,-0.747,+0.966,-0.203,-0.235,+21.438,+0.500,-1.625,-4, -3, -3, -2, -2, 1, -1, -4
1503685470700,+0.279,+0.305,-0.522,-0.747,+0.951,-0.216,-0.218,+18.625,-1.750,-1.500,0, -1, -2, -2, 0, -1, 0, -1
1503685470725,+0.280,+0.307,-0.521,-0.746,+0.937,-0.219,-0.204,+13.562,-0.500,-3.000,-1, 1, 0, -1, -2, -1, -2, -3
1503685470738,+0.282,+0.308,-0.521,-0.745,+0.916,-0.192,-0.198,+8.938,+1.312,-9.750,-1, 1, -1, -3, 0, 0, -1, -1
1503685470763,+0.284,+0.307,-0.522,-0.743,+0.923,-0.174,-0.203,+6.375,-0.125,-17.938,-1, 0, -2, 1, 0, 0, -2, -1
1503685470782,+0.287,+0.306,-0.523,-0.742,+0.963,-0.166,-0.217,+4.500,+1.125,-21.750,-2, -1, -1, -1, -1, 0, 0, -4
1503685470798,+0.290,+0.305,-0.523,-0.741,+0.969,-0.132,-0.228,+3.062,-1.438,-18.938,0, -1, 0, -1, 0, 0, 0, -1
1503685470822,+0.294,+0.303,-0.523,-0.740,+0.954,-0.085,-0.216,+3.625,-9.125,-19.688,-1, -1, -2, 0, 0, -1, 1, 3
1503685470842,+0.298,+0.300,-0.523,-0.740,+0.946,-0.101,-0.237,+2.500,-9.062,-22.625,-3, -2, 0, 0, 0, -1, -2, -4
1503685473881,+0.227,+0.302,-0.532,-0.758,+0.837,-0.262,-0.099,+118.062,+33.125,-0.812,12, 3, 6, 3, 0, -1, -2, 6
1503685473911,+0.236,+0.318,-0.532,-0.749,+0.846,-0.251,-0.093,+111.875,+31.562,-4.438,-6, 7, 10, 6, 4, -3, -7, -19
1503685473925,+0.244,+0.332,-0.532,-0.740,+0.863,-0.271,-0.082,+103.688,+29.188,-8.250,-17, -8, -7, -1, -1, 0, -4, -16
1503685473942,+0.253,+0.344,-0.532,-0.731,+0.890,-0.265,-0.051,+95.375,+24.062,-16.125,6, 9, -2, 0, 0, -2, 0, -6
1503685473963,+0.263,+0.354,-0.532,-0.723,+0.893,-0.246,-0.057,+86.938,+15.000,-22.500,-4, 2, 7, 4, 3, 1, 0, -5
1503685473985,+0.272,+0.362,-0.531,-0.716,+0.893,-0.223,-0.073,+78.625,+8.500,-26.438,-7, -1, 1, -1, 3, 0, 0, -1
1503685474001,+0.283,+0.369,-0.530,-0.710,+0.902,-0.211,-0.061,+71.125,-1.250,-30.938,3, -4, -6, -3, -3, -1, -2, 0
1503685474023,+0.293,+0.373,-0.529,-0.704,+0.921,-0.207,-0.024,+60.938,-6.688,-36.062,2, -1, -3, -2, -2, 1, 2, 6
1503685474045,+0.302,+0.376,-0.529,-0.699,+0.935,-0.170,-0.018,+49.438,-5.375,-38.312,6, 7, 3, -2, -2, -2, 0, -4
1503685474061,+0.310,+0.377,-0.530,-0.693,+0.952,-0.142,-0.040,+40.000,+1.250,-36.312,1, -3, -4, -3, -3, 0, 1, 3
1503685474083,+0.317,+0.378,-0.531,-0.689,+0.988,-0.105,-0.057,+32.438,+3.938,-31.062,5, 0, 1, 0, -1, 1, 0, 3
1503685474107,+0.323,+0.379,-0.532,-0.684,+1.024,-0.083,-0.061,+28.562,+2.125,-25.000,-2, -5, -1, 3, 2, 1, -1, 1
1503685474121,+0.329,+0.380,-0.533,-0.681,+1.037,-0.082,-0.059,+26.188,-2.500,-22.875,1, -3, -1, -1, 0, 0, 0, 2
1503685474143,+0.335,+0.380,-0.533,-0.678,+1.020,-0.082,-0.063,+23.875,-8.875,-23.062,-2, 3, -1, 5, 3, 1, -1, -6
1503685474164,+0.340,+0.379,-0.532,-0.676,+1.006,-0.094,-0.058,+20.000,-9.812,-22.062,-1, 3, 0, -1, -1, -1, -1, -4
1503685474195,+0.344,+0.379,-0.533,-0.673,+1.007,-0.082,-0.039,+13.875,-1.188,-19.500,-1, -2, -3, -5, -5, -1, 0, 1
1503685474210,+0.347,+0.379,-0.535,-0.671,+1.005,-0.063,-0.051,+10.500,+4.875,-17.188,-4, -1, 0, -3, -1, 0, -1, 0
1503685474225,+0.350,+0.379,-0.536,-0.668,+1.008,-0.078,-0.058,+9.812,+1.562,-15.438,3, 1, 1, 1, 0, -2, -1, 1
1503685474241,+0.353,+0.378,-0.536,-0.667,+1.014,-0.101,-0.067,+6.688,-3.500,-15.750,1, 1, 5, 2, 0, 0, -1, -5
1503685474263,+0.356,+0.376,-0.537,-0.666,+0.969,-0.093,-0.080,+1.875,-6.750,-17.562,0, -9, -4, -3, 1, -1, 0, 0
1503685474285,+0.358,+0.374,-0.538,-0.665,+0.954,-0.078,-0.070,-2.125,-5.625,-19.812,-1, 1, 0, 4, 4, 2, -2, -2
1503685474301,+0.361,+0.371,-0.539,-0.664,+0.962,-0.065,-0.071,-4.750,-3.000,-21.250,-2, -5, -6, -5, -5, -3, -2, 1
1503685474323,+0.363,+0.368,-0.541,-0.663,+0.976,-0.058,-0.069,-8.312,-3.500,-21.188,0, -6, -3, 1, 3, -1, -1, -4
1503685474345,+0.365,+0.364,-0.543,-0.663,+1.002,-0.049,-0.063,-13.500,-4.750,-19.562,2, 1, -7, -11, -11, -2, 1, 1
1503685474361,+0.365,+0.361,-0.545,-0.663,+1.034,-0.030,-0.067,-17.438,-2.875,-14.875,-2, -8, -11, -8, -6, -3, -3, -5
1503685474383,+0.365,+0.357,-0.547,-0.663,+1.025,-0.026,-0.063,-20.438,-6.188,-12.188,0, 2, 3, 2, 1, -1, -4, -3
1503685474407,+0.365,+0.352,-0.548,-0.666,+1.063,-0.012,-0.060,-26.938,-18.500,-10.125,2, -2, 0, 2, 0, 0, -4, -3
1503685474421,+0.363,+0.347,-0.548,-0.669,+1.071,-0.037,-0.087,-33.812,-17.000,+5.812,-4, -9, -10, -7, -6, -3, 0, 0
1503685474444,+0.359,+0.343,-0.547,-0.674,+0.991,-0.038,-0.094,-36.812,-19.688,+13.125,-6, -2, -3, -2, 0, -2, -1, -2
1503685474465,+0.356,+0.338,-0.548,-0.677,+0.958,-0.043,-0.083,-39.562,-20.125,+3.438,3, 0, -5, -1, -2, -1, -2, 0
1503685474481,+0.354,+0.331,-0.548,-0.681,+0.978,-0.022,-0.139,-40.812,-17.000,-4.188,-1, -11, -7, 0, 0, 1, -2, -3
1503685474503,+0.352,+0.325,-0.549,-0.684,+0.987,-0.026,-0.152,-41.688,-14.188,-5.250,-5, -8, -7, -2, 1, -2, -1, 0
1503685474525,+0.350,+0.319,-0.550,-0.688,+0.969,-0.034,-0.151,-42.562,-15.500,-4.312,-3, 1, 0, 1, 1, 1, 0, -5
1503685474542,+0.347,+0.313,-0.551,-0.691,+0.985,-0.053,-0.165,-41.125,-14.938,-3.500,-4, -7, -4, 2, 1, -1, -2, -2
1503685474563,+0.345,+0.307,-0.552,-0.695,+0.991,-0.072,-0.160,-42.250,-16.688,-3.375,-5, 3, 4, 0, -1, 1, -2, -14
1503685474588,+0.343,+0.300,-0.551,-0.699,+0.964,-0.057,-0.187,-41.125,-20.875,-5.500,-4, 0, -7, -6, -4, -2, 0, 3
1503685474601,+0.341,+0.293,-0.550,-0.703,+0.953,-0.034,-0.202,-40.562,-27.375,-8.375,1, 0, -3, -8, -5, -2, 0, 6
1503685474623,+0.340,+0.286,-0.549,-0.708,+0.970,-0.035,-0.191,-40.438,-29.375,-7.000,3, 0, -1, -4, -2, -3, -4, -5
1503685474646,+0.338,+0.280,-0.549,-0.712,+0.966,-0.046,-0.213,-39.062,-23.188,-3.000,-5, -5, -3, -1, -3, 1, 3, 1
1503685474661,+0.336,+0.275,-0.548,-0.715,+0.958,-0.035,-0.247,-35.312,-16.688,-1.938,-2, 2, 6, 5, 3, 1, -1, -1
1503685474683,+0.334,+0.270,-0.547,-0.718,+0.988,-0.037,-0.238,-32.125,-19.188,-2.500,-6, -1, 1, 0, 0, -1, -1, -9
1503685474708,+0.332,+0.265,-0.546,-0.722,+1.032,-0.042,-0.235,-29.188,-20.750,-0.375,4, -1, -4, -3, -4, -2, -1, -1
1503685474727,+0.331,+0.261,-0.545,-0.725,+1.018,-0.049,-0.240,-26.000,-24.188,+1.125,3, 10, 5, 4, 3, 2, 0, -1
1503685474744,+0.330,+0.257,-0.542,-0.729,+0.999,-0.042,-0.268,-22.812,-27.125,-0.062,-3, -7, -4, -5, -6, -4, -3, -6
1503685478725,+0.214,+0.247,-0.526,-0.785,+0.952,-0.233,-0.221,+3.625,-1.438,-15.625,2, 2, 3, -3, -1, 0, -1, 10
1503685478747,+0.216,+0.247,-0.527,-0.784,+0.964,-0.194,-0.223,+1.438,+0.812,-18.375,0, -4, -6, 4, 3, 0, -4, -6
1503685478770,+0.219,+0.245,-0.528,-0.783,+0.972,-0.151,-0.218,+3.125,-1.250,-20.875,0, -3, -8, -5, -4, -2, -3, -7
1503685478785,+0.222,+0.244,-0.529,-0.782,+0.983,-0.127,-0.251,+3.188,-2.750,-16.625,0, -4, -8, -4, 0, -1, 0, -2
1503685478807,+0.224,+0.244,-0.529,-0.781,+0.984,-0.106,-0.264,+3.750,-0.500,-11.188,1, -7, -8, -5, -3, -1, 1, 2
1503685478830,+0.226,+0.244,-0.530,-0.781,+0.979,-0.109,-0.269,+5.688,-0.750,-7.812,2, 0, -3, 0, 0, -2, -3, 0
1503685478845,+0.228,+0.244,-0.530,-0.780,+0.962,-0.121,-0.251,+5.250,+1.438,-7.875,-1, 8, 4, 2, -1, 1, 3, -2
1503685478868,+0.229,+0.244,-0.531,-0.779,+0.953,-0.124,-0.252,+4.000,+2.875,-10.438,-2, 0, 2, -1, 0, -1, -3, -3
1503685478883,+0.231,+0.243,-0.532,-0.778,+0.948,-0.101,-0.267,+2.688,+4.438,-12.625,-2, 3, 7, 0, 0, -1, -1, 2
1503685478906,+0.234,+0.242,-0.533,-0.776,+0.932,-0.081,-0.284,+3.188,+3.562,-15.125,-2, -1, -2, 0, 2, -1, 1, 1
1503685478929,+0.237,+0.241,-0.533,-0.776,+0.954,-0.084,-0.299,+4.812,+3.125,-14.938,-1, -4, -2, -3, -3, 0, 1, 0
1503685478943,+0.239,+0.240,-0.534,-0.775,+0.957,-0.096,-0.301,+6.062,+0.625,-12.938,1, 0, 1, -2, -4, -2, -2, -6
1503685478968,+0.242,+0.240,-0.533,-0.774,+0.958,-0.096,-0.271,+6.750,-2.375,-12.812,-2, -6, -3, -3, -4, -1, -3, -9
1503685478987,+0.244,+0.240,-0.534,-0.773,+0.945,-0.083,-0.263,+4.688,-1.750,-11.750,2, 5, 4, -2, -1, 0, -1, 9
1503685479006,+0.247,+0.239,-0.534,-0.772,+0.927,-0.073,-0.259,+4.250,+2.062,-14.188,-1, 5, 2, 5, 2, 1, 2, -18
1503685479025,+0.250,+0.238,-0.535,-0.771,+0.938,-0.060,-0.260,+5.188,+3.312,-16.312,1, -3, -4, 0, 1, -1, -1, -13
1503685479048,+0.253,+0.237,-0.536,-0.770,+0.947,-0.064,-0.249,+4.875,-0.438,-17.625,-5, -1, 0, 0, 0, -1, 1, 3
1503685479064,+0.256,+0.236,-0.536,-0.769,+0.957,-0.070,-0.255,+3.125,-0.312,-18.188,1, 0, -1, 0, 1, -1, -1, 9
1503685479086,+0.258,+0.234,-0.538,-0.768,+0.946,-0.049,-0.261,+0.812,+3.438,-16.500,0, 0, 3, 9, 0, -2, 0, 6
1503685479108,+0.260,+0.233,-0.539,-0.766,+0.958,-0.042,-0.243,+0.625,+4.375,-15.250,-1, 1, -1, -5, -2, -2, 0, 4
1503685479131,+0.262,+0.232,-0.540,-0.765,+0.981,-0.041,-0.259,+0.938,+3.625,-15.125,-4, 0, 3, 2, 2, 1, -2, -2
1503685479146,+0.265,+0.230,-0.541,-0.764,+0.973,-0.023,-0.250,-0.312,+0.000,-15.500,-7, -3, -4, -8, -7, -2, -5, -5
1503685479168,+0.267,+0.229,-0.542,-0.763,+0.979,-0.000,-0.236,-0.625,+0.562,-14.438,-2, -3, 0, 1, 0, 0, 1, 0
1503685479189,+0.269,+0.227,-0.543,-0.763,+0.966,-0.009,-0.262,-1.250,-0.250,-10.375,2, 0, 0, 14, 13, 2, 0, 1
1503685479206,+0.271,+0.226,-0.543,-0.762,+0.966,-0.012,-0.267,+0.000,-2.312,-9.938,3, -2, -3, -10, -8, -2, 0, 2
1503685479227,+0.272,+0.225,-0.543,-0.762,+0.981,-0.006,-0.271,-0.062,-4.000,-9.938,5, 0, -1, -6, -1, -2, 0, 5
1503685479249,+0.274,+0.224,-0.542,-0.762,+0.970,-0.034,-0.282,+1.250,-4.000,-9.062,-1, -1, -1, -12, -6, -5, -1, -1
1503685479265,+0.275,+0.223,-0.542,-0.762,+0.957,-0.083,-0.307,+0.125,-3.750,-9.938,7, 7, 7, 8, 0, 1, 0, 5
1503685479288,+0.277,+0.222,-0.541,-0.762,+0.975,-0.085,-0.313,-1.000,-2.438,-12.562,-1, -3, -5, -9, -3, -4, 1, -1
1503685479309,+0.279,+0.222,-0.541,-0.762,+0.979,-0.052,-0.296,+1.688,+0.688,-12.000,3, 1, -1, -2, 5, 2, 1, 2
1503685479333,+0.281,+0.222,-0.541,-0.761,+0.965,-0.036,-0.305,+8.125,+0.625,-6.875,-4, -2, -3, -5, -5, 0, -1, -4
1503685479347,+0.282,+0.224,-0.540,-0.761,+0.977,-0.035,-0.273,+10.750,-1.938,-2.125,-6, -3, -2, 2, 0, -1, -3, -4
1503685479370,+0.283,+0.226,-0.539,-0.760,+0.973,-0.024,-0.282,+13.250,-0.438,+3.750,1, 1, 5, 0, 2, 1, 1, -1
1503685479385,+0.283,+0.228,-0.538,-0.760,+0.966,-0.030,-0.296,+15.688,+1.750,+9.000,-1, -2, -3, -2, -3, -1, 0, -2
1503685479408,+0.284,+0.232,-0.537,-0.760,+0.981,-0.040,-0.264,+16.688,-0.250,+12.062,-2, 2, -2, -1, -2, -3, -2, -1
1503685479434,+0.283,+0.236,-0.535,-0.760,+0.968,-0.071,-0.279,+18.375,-0.125,+14.125,-4, -3, -1, 5, 5, 0, -1, -5
1503685479446,+0.283,+0.240,-0.533,-0.760,+0.958,-0.092,-0.285,+19.938,-2.938,+14.250,5, 3, 1, -4, -4, -6, -3, 0
1503685479471,+0.284,+0.244,-0.531,-0.760,+0.953,-0.089,-0.275,+20.750,-5.812,+10.562,0, -1, -5, -1, 0, 1, -3, 2
1503685479489,+0.285,+0.247,-0.529,-0.760,+0.945,-0.120,-0.283,+20.125,+0.625,+3.562,-1, -2, -8, -2, 0, 3, 0, 1
1503685479506,+0.287,+0.250,-0.530,-0.758,+0.907,-0.090,-0.255,+17.062,+13.438,-5.812,-2, 0, 2, -2, -1, 2, 1, -2
1503685479527,+0.290,+0.251,-0.532,-0.755,+0.973,-0.029,-0.233,+14.938,+17.562,-12.500,-4, -3, 0, -1, -1, 2, 2, -3
1503685479549,+0.292,+0.252,-0.534,-0.752,+1.021,+0.001,-0.222,+12.250,+10.125,-10.812,-1, 0, 2, 1, 0, -1, 0, 1
1503685479567,+0.294,+0.253,-0.535,-0.751,+1.000,+0.025,-0.200,+7.625,+1.375,-2.250,-1, -4, 0, -1, -2, -5, -4, -2
1503685479588,+0.294,+0.253,-0.536,-0.750,+0.953,+0.048,-0.199,+3.250,+0.688,+1.625,-2, -2, -2, -1, -1, -5, -2, -2
1503685479610,+0.295,+0.252,-0.536,-0.749,+0.957,+0.076,-0.199,+1.188,+0.750,+2.938,0, 0, 1, 1, -1, 1, 1, 2
1503685479625,+0.295,+0.251,-0.536,-0.750,+0.962,+0.065,-0.213,-3.062,-5.375,+7.000,0, -2, -1, 0, 0, -3, -2, -3
1503685479648,+0.294,+0.250,-0.536,-0.751,+0.955,+0.053,-0.212,-8.875,-8.938,+8.062,-1, 1, 1, -1, -1, -1, 2, -1
1503685479670,+0.293,+0.248,-0.536,-0.752,+0.933,+0.040,-0.221,-13.875,-9.062,+9.562,-2, -3, -1, 0, 0, 1, -2, -2
1503685479686,+0.291,+0.246,-0.535,-0.754,+0.937,-0.009,-0.252,-18.500,-8.938,+11.625,1, 0, -1, 0, 0, -2, 0, 1
1503685479708,+0.287,+0.243,-0.534,-0.757,+0.961,-0.051,-0.260,-25.375,-10.312,+12.312,2, 0, 0, -1, -2, -1, -1, 0
1503685479730,+0.284,+0.240,-0.534,-0.760,+0.963,-0.061,-0.259,-31.562,-12.062,+11.000,1, 1, 0, 0, 0, 0, 0, -2
1503685479749,+0.280,+0.235,-0.533,-0.763,+0.953,-0.044,-0.281,-34.875,-16.812,+9.812,-1, -2, -1, 0, 0, 1, 0, 0
1503685479768,+0.277,+0.231,-0.532,-0.766,+0.945,-0.050,-0.308,-36.625,-17.375,+8.500,0, 1, 0, 1, 0, 2, 0, -1
1503685479789,+0.273,+0.226,-0.531,-0.770,+0.953,-0.015,-0.313,-34.125,-13.938,+8.438,-1, -3, -2, -3, -1, -3, -2, -1
1503685479806,+0.271,+0.222,-0.530,-0.772,+0.964,-0.004,-0.307,-28.875,-17.062,+9.125,-1, -3, -1, -2, -2, -3, -1, 0
1503685479828,+0.268,+0.218,-0.528,-0.776,+0.957,-0.015,-0.311,-25.812,-21.062,+9.375,-1, -1, 0, -1, -2, -1, -3, -4
1503685479850,+0.266,+0.215,-0.526,-0.779,+0.957,-0.043,-0.313,-25.438,-21.812,+9.688,-2, 1, -2, 1, -2, 1, 2, 0
1503685479867,+0.263,+0.212,-0.524,-0.782,+0.918,-0.066,-0.324,-24.312,-17.812,+10.125,-5, -2, -1, -2, -1, 1, -2, -4
1503685479888,+0.260,+0.209,-0.523,-0.785,+0.919,-0.067,-0.345,-23.688,-11.812,+10.562,-1, 0, 1, 0, 1, -1, 1, -1
1503685479911,+0.257,+0.207,-0.521,-0.787,+0.942,-0.075,-0.353,-20.812,-9.938,+10.938,1, 1, 0, -1, -1, 0, -1, 1
1503685479926,+0.255,+0.206,-0.520,-0.789,+0.958,-0.082,-0.351,-15.938,-12.750,+11.188,-2, -2, -3, -2, -2, -3, -3, -2
1503685479948,+0.252,+0.204,-0.517,-0.792,+0.965,-0.097,-0.337,-14.938,-18.750,+11.375,-2, 0, 0, 0, 1, -1, -1, -3
1503685479970,+0.250,+0.204,-0.515,-0.795,+0.948,-0.116,-0.345,-14.500,-20.500,+14.438,1, 0, -1, -1, -1, 0, 0, 1
1503685479985,+0.246,+0.203,-0.512,-0.797,+0.937,-0.115,-0.354,-12.938,-15.875,+18.438,-1, -3, -5, 0, 0, -1, 0, -2
1503685480009,+0.243,+0.204,-0.510,-0.800,+0.944,-0.108,-0.378,-11.250,-11.062,+20.938,-1, -2, -1, -3, -2, -1, 0, 1
1503685480030,+0.239,+0.205,-0.508,-0.802,+0.981,-0.122,-0.382,-8.625,-7.500,+23.625,-3, -6, -3, -2, 1, -2, 1, -2
1503685480045,+0.235,+0.206,-0.506,-0.804,+0.968,-0.122,-0.402,-4.500,-5.625,+27.812,1, 2, 1, 0, -2, -2, 1, -1
1503685480069,+0.231,+0.209,-0.503,-0.806,+0.960,-0.129,-0.399,+0.312,-11.375,+30.812,0, 0, -1, -1, 0, -2, -2, 3
1503685485535,+0.199,+0.341,-0.523,-0.756,+0.913,-0.253,-0.164,+27.062,+2.562,+10.250,-3, 0, -3, -2, -1, -2, -1, -5
1503685485550,+0.201,+0.344,-0.522,-0.754,+0.917,-0.265,-0.149,+22.625,-0.750,+3.812,0, -1, -1, -1, 0, -1, -2, -1
1503685485573,+0.204,+0.346,-0.521,-0.753,+0.893,-0.272,-0.150,+18.500,-3.938,-3.625,-1, 0, 0, 0, -1, 0, -1, -1
1503685485596,+0.207,+0.346,-0.521,-0.752,+0.904,-0.272,-0.148,+13.812,-4.000,-11.562,0, 1, 1, 1, 0, -1, 0, -1
1503685485610,+0.210,+0.346,-0.521,-0.752,+0.923,-0.279,-0.168,+8.812,-4.125,-12.938,-3, 1, 1, 1, 2, -3, -3, -4
1503685485633,+0.212,+0.346,-0.521,-0.751,+0.933,-0.278,-0.172,+4.750,-3.750,-11.000,-2, -5, -1, 0, -2, 0, -3, -1
1503685485655,+0.214,+0.345,-0.521,-0.751,+0.928,-0.273,-0.156,+2.250,-3.125,-10.625,0, -1, -1, -1, -2, 0, -2, 1
1503685485671,+0.216,+0.344,-0.521,-0.751,+0.920,-0.272,-0.159,-0.625,-5.188,-11.062,3, -1, -3, -2, 0, 0, 2, 2
1503685485693,+0.218,+0.342,-0.521,-0.751,+0.935,-0.274,-0.179,-4.188,-6.375,-13.250,2, 2, 2, 1, -1, -2, 0, 4
1503685485715,+0.220,+0.339,-0.521,-0.752,+0.945,-0.266,-0.200,-8.062,-9.000,-14.938,1, 0, 2, -1, -2, 0, 2, 1
1503685485739,+0.222,+0.337,-0.520,-0.753,+0.958,-0.263,-0.196,-4.750,-13.750,-13.500,-3, -3, -5, -1, -2, -2, -2, -2
1503685485753,+0.224,+0.336,-0.519,-0.754,+0.963,-0.265,-0.204,-1.000,-13.688,-9.312,-2, 0, 0, 0, -2, 0, 0, -3
1503685485775,+0.226,+0.335,-0.518,-0.754,+0.966,-0.261,-0.202,+1.500,-7.875,-7.438,-2, 0, 0, -1, -1, 0, -1, -3
1503685485791,+0.227,+0.335,-0.518,-0.754,+0.985,-0.289,-0.186,+2.000,-2.562,-5.750,1, 1, 0, -4, -2, 1, 1, 0
1503685485813,+0.227,+0.335,-0.518,-0.753,+0.977,-0.273,-0.169,-1.062,-2.000,+0.875,-2, -3, 0, -1, -1, -1, -2, -1
1503685485835,+0.226,+0.336,-0.518,-0.753,+0.993,-0.262,-0.174,-1.812,+3.688,+10.812,-1, -2, -2, -1, -2, 0, -1, 0
1503685485850,+0.224,+0.337,-0.518,-0.754,+0.938,-0.275,-0.169,-1.562,+1.438,+13.188,0, 0, -2, -4, -1, -2, 0, 1
1503685485873,+0.222,+0.337,-0.518,-0.754,+0.954,-0.266,-0.153,-6.312,+3.250,+7.125,-1, -1, -1, -2, 0, -1, -1, -2
1503685485895,+0.221,+0.337,-0.518,-0.754,+0.971,-0.283,-0.179,-7.000,-1.750,+5.750,1, -1, -2, 0, -1, -1, -2, -1
1503685485910,+0.219,+0.337,-0.517,-0.756,+0.987,-0.292,-0.196,-8.562,-6.812,+10.312,-1, 0, -1, -1, -1, -1, 1, -1
1503685485933,+0.217,+0.337,-0.516,-0.757,+0.973,-0.288,-0.196,-8.312,-3.250,+17.125,-1, 0, -2, -2, 0, 0, -3, -2
1503685485955,+0.214,+0.339,-0.515,-0.758,+0.946,-0.293,-0.200,-5.438,+1.438,+19.000,0, -1, 0, 0, -1, -1, 1, 0
1503685485970,+0.211,+0.340,-0.515,-0.758,+0.945,-0.307,-0.208,-3.125,+2.625,+17.188,3, 1, 0, 2, 0, 1, 2, 4
1503685485993,+0.209,+0.341,-0.514,-0.759,+0.942,-0.311,-0.198,-1.562,+2.250,+13.500,1, 0, 0, 0, -2, 0, -1, 0
1503685486017,+0.208,+0.342,-0.514,-0.759,+0.928,-0.302,-0.184,-1.312,+1.750,+9.875,-3, -4, -2, -4, -2, -3, -3, -8
1503685486035,+0.207,+0.343,-0.514,-0.759,+0.920,-0.307,-0.188,-0.812,+1.812,+4.938,-1, 1, -2, -1, 0, 0, -1, -1
1503685486053,+0.207,+0.343,-0.513,-0.759,+0.913,-0.311,-0.186,+0.188,+0.750,+0.250,-2, -2, 0, 0, 0, 0, -3, -3
1503685486075,+0.208,+0.343,-0.514,-0.759,+0.906,-0.307,-0.190,-0.375,+1.062,-4.625,1, 1, -2, 0, -2, -1, 1, 2
1503685486090,+0.209,+0.342,-0.514,-0.758,+0.913,-0.302,-0.188,+0.438,+1.250,-10.688,-2, -2, 0, -1, 0, -2, 0, -2
1503685486115,+0.211,+0.341,-0.515,-0.758,+0.924,-0.294,-0.192,+0.062,-0.938,-14.688,-3, 0, 0, 2, 0, 0, 0, 0
1503685486135,+0.214,+0.340,-0.516,-0.757,+0.923,-0.281,-0.184,-0.562,-3.125,-15.812,3, 4, 1, -1, -2, 1, 1, 4
1503685486149,+0.216,+0.338,-0.516,-0.757,+0.923,-0.272,-0.195,+1.125,-0.500,-15.125,-3, -2, 0, -2, -2, -1, -1, 0
1503685486172,+0.218,+0.337,-0.517,-0.756,+0.936,-0.266,-0.203,+1.562,-1.625,-14.438,-3, -1, 0, 1, -1, -1, -1, -3
1503685486194,+0.221,+0.336,-0.517,-0.756,+0.956,-0.259,-0.214,+4.500,-5.625,-14.875,-4, -5, -4, -3, -2, 0, 0, -2
1503685486209,+0.224,+0.336,-0.516,-0.756,+0.934,-0.242,-0.220,+8.438,-8.688,-13.562,-3, -5, 0, -2, -1, -2, -3, -4
1503685486233,+0.227,+0.336,-0.515,-0.756,+0.964,-0.281,-0.208,+7.312,-8.875,-7.375,-1, 0, -2, -1, -1, 0, -2, -1
1503685486254,+0.227,+0.337,-0.513,-0.756,+0.988,-0.289,-0.222,+7.125,-5.812,+4.812,2, 3, 2, 1, 0, -1, 0, 2
1503685486269,+0.227,+0.338,-0.512,-0.757,+0.944,-0.282,-0.201,+4.312,-7.875,+9.750,-3, -4, -2, -3, -3, -2, -1, -2
1503685486292,+0.227,+0.339,-0.511,-0.756,+0.934,-0.281,-0.177,+4.625,-2.250,+2.562,0, 1, 0, 0, 1, 0, 1, 3
1503685486314,+0.228,+0.339,-0.511,-0.756,+0.924,-0.287,-0.161,+0.938,-4.875,-3.938,-1, -5, 0, -3, -2, 0, -1, -2
1503685490537,+0.160,+0.033,-0.510,-0.845,+0.914,+0.122,-0.444,-2.688,+8.062,-2.500,2, -4, 12, -4, -5, -2, 0, -4
1503685490553,+0.160,+0.033,-0.513,-0.843,+0.995,+0.139,-0.365,-3.938,+14.312,-3.875,-5, -1, -5, 3, 3, 2, -7, -16
1503685490575,+0.162,+0.033,-0.517,-0.840,+1.092,+0.167,-0.363,+2.062,+20.750,-11.438,-2, 5, 5, 5, 0, 2, 4, 19
1503685490597,+0.165,+0.033,-0.522,-0.836,+1.043,+0.208,-0.381,+9.000,+31.062,-12.625,-8, 4, 7, 8, 1, -1, -6, -10
1503685490612,+0.168,+0.037,-0.528,-0.832,+0.853,+0.331,-0.428,+29.812,+47.938,+6.750,2, 4, 4, 0, 4, 1, 0, -18
1503685490635,+0.167,+0.041,-0.530,-0.830,+0.981,+0.394,-0.586,+15.938,+28.062,+33.625,5, -3, -6, -4, -3, 0, 2, 8
1503685490657,+0.165,+0.046,-0.540,-0.824,+0.802,+0.501,-0.396,+22.500,+79.188,+43.688,5, -1, -7, -4, -4, -2, 1, 9
1503685490679,+0.160,+0.059,-0.553,-0.816,+0.677,+0.327,-0.443,+37.938,+107.375,+58.625,-8, -9, -6, -3, -3, -4, -4, -11
1503685490695,+0.160,+0.072,-0.554,-0.814,+1.185,+0.270,-0.712,+67.438,+39.688,+51.188,-1, -12, -8, -2, -3, 1, 4, 2
1503685490717,+0.156,+0.091,-0.555,-0.812,+1.172,+0.139,-0.296,+75.938,+21.438,+85.562,-2, 1, 0, -2, -2, 0, 3, 0
1503685490739,+0.155,+0.108,-0.551,-0.813,+1.035,+0.103,-0.235,+84.438,-14.625,+73.250,-2, 0, 7, 4, 4, -1, -5, -4
1503685490755,+0.156,+0.123,-0.543,-0.816,+0.947,+0.102,-0.322,+83.625,-33.938,+60.938,4, 0, 1, 2, 0, -1, -2, 4
1503685490777,+0.157,+0.139,-0.535,-0.819,+0.811,+0.020,-0.357,+87.312,-30.062,+56.188,-3, 0, 0, -9, -7, -3, -2, 3
1503685490801,+0.159,+0.157,-0.529,-0.819,+0.721,-0.120,-0.365,+91.875,-7.250,+48.875,-2, 1, -2, -3, -5, -3, -3, -3
1503685490822,+0.161,+0.174,-0.527,-0.816,+0.721,-0.217,-0.356,+91.438,+25.562,+35.438,-1, -2, -3, 1, 2, -2, -2, -1
1503685490837,+0.164,+0.191,-0.529,-0.810,+0.765,-0.271,-0.333,+88.688,+43.438,+20.250,3, -10, -7, -1, -4, 0, 1, -2
1503685490863,+0.168,+0.207,-0.532,-0.804,+0.834,-0.305,-0.276,+86.938,+46.688,+5.000,2, 15, 7, -1, -2, 0, -1, 17
1503685490875,+0.175,+0.221,-0.535,-0.797,+0.895,-0.325,-0.232,+84.562,+35.625,-7.062,-3, -8, 0, 8, 7, 0, 0, -9
1503685490898,+0.182,+0.233,-0.535,-0.792,+0.896,-0.354,-0.219,+82.500,+18.375,-14.000,-6, -4, -6, -17, -11, -3, 0, -14
1503685490919,+0.191,+0.245,-0.533,-0.787,+0.847,-0.389,-0.204,+80.625,+7.000,-21.375,-1, -1, 3, 5, 3, 2, -1, 49
1503685490935,+0.200,+0.255,-0.532,-0.783,+0.805,-0.401,-0.164,+78.750,+1.688,-30.000,-1, -8, 1, 3, 1, 2, -3, -27
1503685490957,+0.210,+0.264,-0.532,-0.777,+0.879,-0.371,-0.150,+72.438,+7.875,-36.250,3, 19, 10, 6, 2, 0, 2, -10
1503685490979,+0.219,+0.271,-0.532,-0.772,+0.922,-0.319,-0.141,+64.375,+8.688,-34.688,2, -12, -9, -6, -3, -1, -1, 5
1503685490997,+0.227,+0.278,-0.532,-0.767,+0.946,-0.298,-0.125,+59.750,+0.375,-30.125,-2, 1, 2, -2, 2, -1, 0, -2
1503685491017,+0.235,+0.284,-0.531,-0.763,+0.944,-0.289,-0.109,+54.812,-3.000,-31.688,2, -2, -1, 2, 1, 1, -1, -5
1503685491040,+0.243,+0.289,-0.531,-0.758,+0.972,-0.275,-0.111,+48.812,+2.312,-33.688,-2, 4, 6, 2, -6, -2, -3, -6
1503685491055,+0.250,+0.293,-0.532,-0.754,+1.010,-0.237,-0.125,+42.000,+4.250,-30.438,-2, -6, -4, -18, -11, -3, -1, -2
1503685491078,+0.257,+0.296,-0.533,-0.750,+1.034,-0.204,-0.146,+38.312,+1.438,-27.000,-5, -2, -2, 2, 1, -1, 0, -5
1503685491100,+0.264,+0.299,-0.533,-0.746,+1.025,-0.169,-0.180,+36.500,+3.188,-28.500,1, -7, -4, 1, -1, -1, 0, -2
1503685491117,+0.271,+0.301,-0.534,-0.742,+1.036,-0.146,-0.168,+34.812,+3.000,-28.562,1, 3, -1, -5, -2, 0, 1, 9
1503685491139,+0.277,+0.302,-0.534,-0.739,+1.039,-0.129,-0.158,+30.812,-0.500,-25.312,-1, 3, 5, 1, 2, 0, -2, -2
1503685491159,+0.282,+0.304,-0.534,-0.737,+1.019,-0.103,-0.158,+26.625,-1.188,-19.625,-1, -6, -12, -11, -8, -2, -1, -3
1503685491175,+0.287,+0.305,-0.535,-0.734,+0.985,-0.094,-0.192,+24.375,+4.438,-18.625,1, -2, -2, 2, -1, -1, -3, -1
1503685491198,+0.291,+0.306,-0.536,-0.731,+0.962,-0.078,-0.209,+22.812,+8.750,-19.438,-3, 1, -3, -4, -4, -5, -2, -7
1503685491220,+0.297,+0.307,-0.537,-0.728,+0.952,-0.062,-0.188,+22.688,+3.375,-22.188,2, 1, 5, 2, 2, 2, 2, 1
1503685491235,+0.301,+0.307,-0.537,-0.726,+1.018,-0.085,-0.156,+17.375,-3.125,-21.500,6, -1, -3, 0, -1, 1, -1, 3
1503685491257,+0.304,+0.307,-0.536,-0.725,+0.967,-0.057,-0.203,+11.062,-4.688,-10.625,-3, -1, -8, -3, 1, 0, -2, -3
1503685491279,+0.307,+0.307,-0.536,-0.724,+0.942,-0.034,-0.181,+7.375,-1.875,-6.125,-1, -7, -8, -3, -1, 0, -2, -6
1503685491295,+0.309,+0.306,-0.537,-0.723,+0.946,-0.054,-0.173,+3.500,-2.375,-8.688,-5, -1, 2, 2, -2, -2, -3, 11
1503685491318,+0.311,+0.305,-0.536,-0.723,+0.974,-0.067,-0.179,+2.250,-6.562,-11.000,-4, -3, -3, -9, -14, -4, -3, -5
1503685491333,+0.313,+0.303,-0.536,-0.723,+0.953,-0.068,-0.205,+0.812,-10.812,-13.188,-2, -2, -4, 1, 6, -3, -1, -3
1503685491355,+0.317,+0.300,-0.535,-0.724,+0.923,-0.055,-0.198,-0.938,-13.625,-17.062,2, 0, 1, 0, 2, -2, 1, 1
1503685491377,+0.320,+0.297,-0.535,-0.724,+0.937,-0.044,-0.181,-3.875,-13.688,-19.375,-1, -2, -3, 3, 1, -1, -4, -2
1503685491400,+0.322,+0.294,-0.535,-0.724,+0.972,-0.061,-0.181,-7.375,-8.562,-19.438,8, 2, 2, 0, -2, -1, -5, 17
1503685491415,+0.324,+0.291,-0.536,-0.723,+0.979,-0.040,-0.212,-9.312,-5.188,-16.375,-7, -4, 0, 1, 2, 5, 6, 0
1503685495337,+0.123,+0.005,-0.495,-0.860,+0.877,+0.116,-0.460,-3.062,+2.750,+0.188,4, -1, -1, 1, 0, 0, -2, -1
1503685495365,+0.123,+0.005,-0.495,-0.860,+0.881,+0.117,-0.453,-2.688,+1.188,-0.312,11, 0, -5, -2, -2, -1, -4, -7
1503685495381,+0.123,+0.005,-0.495,-0.860,+0.873,+0.116,-0.463,-2.312,+1.062,-0.438,-3, -2, 1, -1, -2, -1, 0, -3
1503685495398,+0.123,+0.004,-0.496,-0.860,+0.868,+0.113,-0.456,-2.562,+1.312,-0.438,-11, -1, 0, -3, -3, 0, 2, -3
1503685495419,+0.123,+0.004,-0.497,-0.859,+0.880,+0.132,-0.466,-2.938,+5.250,-1.188,-1, -3, -5, -3, -3, 0, 0, 1
1503685495441,+0.124,+0.004,-0.498,-0.858,+0.901,+0.148,-0.454,-1.875,+8.188,-4.188,-1, -11, -9, -3, 1, 0, -1, -1
1503685495457,+0.125,+0.003,-0.501,-0.856,+0.911,+0.151,-0.460,-0.188,+19.438,-5.000,-6, 0, 4, 1, 1, 0, 1, 1
1503685495479,+0.127,+0.004,-0.507,-0.852,+0.933,+0.164,-0.479,+1.062,+45.938,-9.875,0, 0, -3, -1, -3, -2, -2, 3
1503685495502,+0.130,+0.005,-0.518,-0.845,+0.971,+0.110,-0.407,+4.688,+72.688,-19.438,3, 2, 1, -1, 0, 0, 2, 1
1503685495517,+0.134,+0.003,-0.528,-0.838,+1.209,+0.039,-0.364,-4.188,+56.812,-40.500,6, -7, -6, 0, 2, -2, -3, 7
1503685495539,+0.138,-0.001,-0.539,-0.831,+1.105,+0.073,-0.313,-23.438,+60.000,-44.062,-11, -1, -2, 1, -1, -1, -1, -3
1503685495562,+0.145,-0.006,-0.552,-0.821,+0.805,+0.378,-0.365,-8.938,+96.625,-41.500,2, 0, 1, 1, 2, 2, 4, 3
1503685495577,+0.146,-0.001,-0.567,-0.810,+0.550,+0.386,-0.438,+14.438,+119.125,+2.125,0, 4, 4, 1, 1, -2, -2, -3
1503685495600,+0.150,+0.006,-0.583,-0.799,+0.880,+0.647,-0.532,+33.812,+122.875,+5.812,-2, 2, 3, 2, 0, -1, -5, -2
1503685495621,+0.150,+0.018,-0.597,-0.788,+1.066,+0.452,-0.208,+46.312,+110.500,+40.500,2, 0, -1, 0, -1, -3, -3, -2
1503685495637,+0.149,+0.033,-0.605,-0.781,+1.139,+0.330,-0.281,+59.188,+76.875,+59.750,-3, -2, -5, -5, -1, -3, -1, -2
1503685495662,+0.149,+0.048,-0.604,-0.781,+1.208,+0.260,-0.393,+70.625,+17.500,+63.562,9, 1, -1, 0, -1, -2, 5, 12
1503685495681,+0.150,+0.064,-0.596,-0.786,+1.056,+0.232,-0.380,+86.500,-30.375,+68.000,1, 3, 3, 0, 0, -1, -2, 1
1503685495699,+0.152,+0.083,-0.585,-0.793,+0.908,+0.119,-0.384,+98.062,-51.125,+70.312,-6, -5, -5, 0, 0, 0, 0, -5
1503685495720,+0.154,+0.103,-0.574,-0.798,+0.827,-0.003,-0.377,+106.188,-48.562,+68.875,-4, -3, -5, -4, 0, 1, 2, -2
1503685495742,+0.157,+0.124,-0.566,-0.800,+0.773,-0.138,-0.350,+111.812,-27.688,+63.375,1, 15, 16, 4, -3, -2, -3, -7
1503685495757,+0.160,+0.145,-0.560,-0.800,+0.790,-0.216,-0.333,+114.688,-2.812,+59.750,-6, -9, -7, -1, 1, 2, 0, -8
1503685495780,+0.163,+0.168,-0.557,-0.797,+0.832,-0.235,-0.349,+119.812,+14.062,+56.688,-5, 0, 2, 4, 3, -1, -8, -12
1503685495802,+0.167,+0.191,-0.554,-0.793,+0.833,-0.270,-0.323,+125.438,+18.062,+50.188,2, -5, -7, -4, -4, -2, 1, 14
1503685495818,+0.174,+0.212,-0.551,-0.788,+0.861,-0.325,-0.242,+126.625,+13.312,+37.438,3, 5, 4, 2, -1, 0, -1, 3
1503685495840,+0.182,+0.232,-0.548,-0.783,+0.895,-0.331,-0.158,+125.625,+13.062,+21.438,-1, -1, 5, 1, 0, 0, -3, 4
1503685495864,+0.191,+0.250,-0.546,-0.777,+0.916,-0.294,-0.157,+123.438,+15.750,+12.688,5, -4, -15, -12, -9, -7, -2, -12
1503685495877,+0.200,+0.268,-0.543,-0.770,+0.899,-0.282,-0.164,+121.500,+13.250,+8.938,1, 3, 3, -1, -1, 1, 2, 0
1503685495900,+0.211,+0.284,-0.540,-0.763,+0.899,-0.314,-0.099,+118.375,+10.562,-1.375,1, -3, -1, 1, 0, 0, 1, -1
1503685495922,+0.222,+0.299,-0.538,-0.756,+0.932,-0.341,-0.051,+111.062,+9.750,-12.562,-7, -4, -3, 0, -1, 2, 1, -4
1503685495938,+0.232,+0.311,-0.537,-0.749,+0.957,-0.305,-0.067,+101.875,+13.688,-13.562,-2, -12, -5, -4, -3, -2, -2, -3
1503685495960,+0.241,+0.324,-0.536,-0.742,+0.925,-0.271,-0.081,+90.938,+12.312,-9.875,1, 0, -2, -2, -1, 0, 1, 4
1503685495982,+0.248,+0.334,-0.535,-0.736,+0.941,-0.244,-0.059,+78.562,+8.875,-10.500,-1, -2, -1, 0, 0, 0, 0, 1
1503685496000,+0.255,+0.342,-0.535,-0.729,+0.983,-0.231,-0.045,+67.312,+13.812,-15.062,-1, -2, -4, -4, -4, -3, -1, -2
1503685496020,+0.262,+0.349,-0.536,-0.723,+0.994,-0.198,-0.058,+58.438,+16.312,-15.688,-3, 2, 10, 5, 3, 0, 1, -3
1503685496042,+0.269,+0.354,-0.536,-0.718,+0.991,-0.171,-0.070,+52.750,+5.688,-16.062,-5, -8, -9, -1, -3, -2, -1, -2
1503685496058,+0.276,+0.358,-0.535,-0.714,+0.990,-0.165,-0.062,+44.625,-6.500,-18.750,2, 1, 1, -1, 0, 1, 2, 4
1503685496080,+0.282,+0.360,-0.535,-0.711,+0.957,-0.152,-0.071,+35.250,-4.625,-22.688,0, 5, 0, -1, -1, -2, -4, -1
1503685496105,+0.288,+0.361,-0.536,-0.707,+0.956,-0.115,-0.093,+28.188,+3.438,-24.812,-2, -2, 0, 1, 1, -2, -2, -4
1503685496117,+0.293,+0.361,-0.537,-0.704,+0.983,-0.092,-0.116,+22.000,+6.812,-21.625,-3, -1, -3, -2, -1, -3, 1, 6
1503685496141,+0.297,+0.361,-0.538,-0.701,+0.998,-0.075,-0.105,+16.312,+4.500,-14.250,2, 1, 2, -2, -1, -1, -3, -13
1503685496162,+0.300,+0.361,-0.539,-0.699,+0.998,-0.075,-0.097,+13.625,+2.125,-10.812,1, -3, -3, 4, 3, -2, -3, 39
1503685496177,+0.304,+0.361,-0.539,-0.697,+0.978,-0.080,-0.107,+11.938,-1.188,-9.812,-1, 2, -1, -4, -5, 0, 0, -40
1503685496201,+0.307,+0.361,-0.540,-0.696,+0.949,-0.093,-0.099,+11.250,-2.062,-11.062,-5, -15, -8, -3, 2, 0, 0, -8
1503685496222,+0.310,+0.360,-0.540,-0.695,+0.942,-0.104,-0.105,+7.938,+0.125,-13.812,-4, 1, 2, 1, -2, 1, 2, 5
1503685496237,+0.312,+0.360,-0.541,-0.693,+0.964,-0.121,-0.104,+4.875,+2.562,-16.312,-4, -5, -9, -7, -6, -2, -2, 0
1503685496260,+0.315,+0.358,-0.542,-0.692,+0.967,-0.139,-0.101,+1.250,-1.062,-18.812,1, 7, 5, -5, -5, 0, -5, -5
1503685496282,+0.317,+0.355,-0.543,-0.691,+0.976,-0.131,-0.094,-4.250,-6.625,-19.438,7, 0, -3, -5, -5, -1, 2, 6
1503685496303,+0.319,+0.353,-0.544,-0.691,+0.975,-0.132,-0.092,-8.188,-6.125,-18.938,-1, -4, -2, 1, 1, -2, 0, 2
1503685496320,+0.320,+0.350,-0.546,-0.691,+0.998,-0.125,-0.084,-11.188,-2.625,-18.750,-3, 0, -1, -2, 1, 0, -3, 1
1503685496342,+0.322,+0.346,-0.547,-0.691,+1.010,-0.119,-0.103,-14.188,-4.312,-16.750,-3, 0, 1, 1, 0, 1, -4, -1
1503685496357,+0.322,+0.343,-0.548,-0.692,+1.012,-0.125,-0.100,-17.125,-11.000,-14.562,1, 1, -1, 3, -1, -1, 1, 0
1503685496380,+0.323,+0.339,-0.548,-0.693,+1.002,-0.133,-0.099,-19.438,-12.875,-15.188,-1, -4, -4, -3, -1, 0, -2, 0
1503685496402,+0.323,+0.334,-0.549,-0.695,+1.014,-0.123,-0.101,-21.812,-10.938,-14.750,-3, 0, -2, 0, 0, -1, 1, 0
1503685496417,+0.323,+0.331,-0.550,-0.696,+1.026,-0.118,-0.113,-22.812,-10.062,-10.625,2, 1, -1, 2, 2, -1, -4, -2
1503685496446,+0.322,+0.326,-0.550,-0.698,+1.026,-0.092,-0.133,-23.812,-11.188,-7.250,-1, -4, 4, 9, 2, -1, -7, -6
1503685496462,+0.321,+0.323,-0.550,-0.700,+1.010,-0.083,-0.140,-23.125,-12.938,-2.750,-2, -4, -1, 0, -4, -1, 3, 2
1503685496477,+0.320,+0.320,-0.549,-0.703,+1.008,-0.077,-0.167,-21.250,-14.188,+1.375,1, 0, -2, 11, 15, 6, 4, 3
1503685496503,+0.319,+0.317,-0.548,-0.705,+1.006,-0.084,-0.174,-18.688,-12.625,+5.625,-2, -1, -3, -14, -18, -5, -5, -3
1503685496522,+0.317,+0.315,-0.547,-0.708,+1.015,-0.092,-0.203,-17.312,-12.062,+10.750,-1, 2, 1, 7, 17, 2, -4, -12
1503685496538,+0.315,+0.314,-0.545,-0.711,+1.005,-0.108,-0.199,-14.688,-13.312,+13.750,-2, -2, 1, -2, -2, -1, 0, 2
1503685496560,+0.313,+0.313,-0.543,-0.713,+1.004,-0.111,-0.199,-12.312,-10.875,+14.562,3, 4, 4, 4, 4, -1, -2, 2
1503685496582,+0.311,+0.313,-0.542,-0.716,+0.997,-0.114,-0.211,-8.812,-8.312,+15.562,4, 4, 6, 8, 6, 2, 2, 4
1503685496597,+0.309,+0.314,-0.540,-0.717,+0.999,-0.121,-0.203,-4.750,-5.688,+16.062,1, -5, -6, -7, -6, -2, 1, -1
1503685496620,+0.307,+0.315,-0.538,-0.719,+0.993,-0.137,-0.208,-1.375,-4.938,+16.375,1, 4, 1, 0, 2, -1, 0, 6
1503685496642,+0.306,+0.317,-0.536,-0.721,+0.979,-0.144,-0.219,+1.625,-5.688,+15.438,-4, -1, -4, -3, -5, 0, 0, -2
1503685496657,+0.305,+0.318,-0.534,-0.722,+0.964,-0.147,-0.225,+3.500,-4.688,+14.188,1, -1, 4, 6, 5, 2, 2, 3
1503685501442,+0.238,+0.251,-0.527,-0.777,+0.941,-0.131,-0.281,+4.812,+4.375,-16.188,0, -2, 0, 0, -3, 0, -2, -4
1503685501464,+0.241,+0.250,-0.527,-0.775,+0.931,-0.119,-0.280,+6.000,+1.188,-20.062,-1, 10, 3, -4, -2, -1, 0, -1
1503685501486,+0.245,+0.249,-0.528,-0.774,+0.941,-0.104,-0.261,+4.688,+0.375,-22.125,-1, -7, -5, 0, -1, -1, 1, -4
1503685501503,+0.248,+0.248,-0.530,-0.773,+0.971,-0.085,-0.260,+2.938,+5.250,-18.625,0, -4, -6, -5, -5, -1, -1, -6
1503685501525,+0.250,+0.247,-0.532,-0.771,+0.969,-0.070,-0.279,+3.125,+10.812,-14.438,-1, -3, -2, 0, 2, 0, -1, -13
1503685501547,+0.253,+0.246,-0.533,-0.769,+0.952,-0.062,-0.267,+4.188,+4.750,-17.812,-1, -6, -7, -2, 0, -2, -1, 22
1503685501563,+0.257,+0.244,-0.534,-0.768,+0.958,-0.083,-0.257,+5.625,+0.312,-24.812,0, -3, -3, 0, -2, -2, 1, -63
1503685501584,+0.261,+0.243,-0.536,-0.766,+0.949,-0.057,-0.255,+5.500,+5.250,-27.500,2, -4, -5, -3, -1, -2, -4, 33
1503685501607,+0.264,+0.241,-0.537,-0.764,+0.951,-0.009,-0.255,+2.938,+2.125,-20.438,0, 1, -1, 0, -1, -1, 2, 13
1503685501622,+0.268,+0.239,-0.538,-0.763,+0.943,-0.024,-0.241,+4.062,+0.438,-17.562,-2, 1, 3, 2, 0, -2, -1, -12
1503685501646,+0.271,+0.238,-0.539,-0.761,+0.953,-0.050,-0.256,+5.125,+4.188,-19.250,0, 1, -1, 0, 1, 1, -1, 4
1503685501666,+0.274,+0.237,-0.540,-0.760,+0.954,-0.059,-0.269,+6.312,+5.688,-23.938,-5, -6, -4, -3, -2, -3, -3, 6
1503685501682,+0.279,+0.236,-0.542,-0.757,+0.969,-0.064,-0.260,+7.125,+8.875,-30.875,3, 1, 2, -2, -1, 2, -1, 4
1503685501706,+0.282,+0.235,-0.544,-0.754,+0.993,-0.041,-0.264,+4.812,+11.500,-28.875,2, 5, 5, 1, 1, 0, -1, 3
1503685501726,+0.286,+0.234,-0.545,-0.753,+0.985,-0.042,-0.264,+4.250,+2.250,-20.688,-3, -1, 1, 4, 3, 0, -4, -6
1503685501743,+0.288,+0.233,-0.546,-0.752,+1.002,-0.041,-0.261,+5.438,+5.500,-14.000,-5, -5, -8, -4, -5, -3, 2, 3
1503685501765,+0.289,+0.234,-0.547,-0.750,+1.012,-0.019,-0.301,+6.438,+9.438,-3.125,3, 2, -1, 0, -1, -2, -2, -1
1503685501786,+0.289,+0.236,-0.546,-0.750,+1.015,-0.050,-0.280,+8.000,+4.688,+4.625,-4, -3, -3, -1, 3, 2, 1, -5
1503685501802,+0.289,+0.238,-0.546,-0.750,+1.020,-0.046,-0.246,+6.000,-0.750,+6.125,3, 4, 1, -2, -3, -3, 0, 2
1503685501825,+0.289,+0.239,-0.545,-0.750,+1.006,-0.009,-0.226,+4.250,-2.000,+5.375,1, 1, -7, -5, -6, 1, 0, 0
1503685501847,+0.289,+0.238,-0.545,-0.750,+1.003,+0.063,-0.242,-1.000,-1.688,+6.625,4, 5, 2, -4, -5, 1, 0, 2
1503685501864,+0.288,+0.238,-0.545,-0.750,+0.964,+0.112,-0.223,-2.750,-2.188,+12.625,-8, -9, -5, -5, -3, -4, -3, -5
1503685501885,+0.286,+0.239,-0.546,-0.751,+0.958,+0.072,-0.211,-0.438,+2.375,+18.438,-2, 0, 1, -1, -6, -2, -1, -4
1503685501907,+0.284,+0.240,-0.545,-0.751,+0.989,+0.028,-0.221,-0.562,+1.625,+19.812,0, -3, 2, 9, 7, 1, 2, 4
1503685501922,+0.282,+0.241,-0.544,-0.752,+0.964,+0.001,-0.234,-3.938,-4.375,+19.812,4, 4, 5, 2, 0, 1, 3, 5
1503685501945,+0.280,+0.241,-0.543,-0.754,+0.953,+0.010,-0.246,-8.188,-7.188,+20.625,8, 10, 2, 0, 5, 2, -5, 3
1503685501967,+0.276,+0.242,-0.542,-0.756,+0.946,-0.009,-0.254,-9.938,-5.938,+24.938,2, -4, -3, -5, 1, -1, 0, -1
1503685501981,+0.272,+0.242,-0.541,-0.758,+0.962,-0.042,-0.262,-11.875,-1.062,+26.750,0, -1, 1, 3, -2, -2, -1, 0
1503685502004,+0.267,+0.243,-0.540,-0.760,+0.977,-0.083,-0.260,-13.938,-1.625,+28.500,-8, -7, -1, 1, 9, 0, -1, -5
1503685502026,+0.262,+0.244,-0.539,-0.762,+0.980,-0.107,-0.262,-15.875,-4.125,+28.750,-3, -1, 3, 3, 1, -1, 1, 3
1503685502044,+0.257,+0.244,-0.537,-0.765,+0.963,-0.124,-0.261,-18.062,-7.938,+30.000,2, -5, -1, 0, -2, -2, 1, 2
1503685502064,+0.252,+0.245,-0.536,-0.768,+0.944,-0.153,-0.259,-19.562,-10.000,+29.062,-1, 0, -3, -3, -4, 1, -5, -2
1503685502086,+0.246,+0.244,-0.534,-0.771,+0.926,-0.169,-0.252,-21.938,-8.812,+25.750,-3, -1, -2, -4, 0, 0, 0, -7
1503685502101,+0.241,+0.244,-0.533,-0.774,+0.932,-0.184,-0.254,-24.125,-7.375,+20.750,-2, -5, -5, -4, -2, -3, -4, -1
1503685502123,+0.237,+0.242,-0.532,-0.776,+0.955,-0.168,-0.271,-25.812,-5.125,+17.938,3, 1, -1, 1, 0, -2, -1, 3
1503685502146,+0.232,+0.240,-0.532,-0.778,+0.953,-0.140,-0.272,-26.688,-3.812,+18.500,2, -1, -1, -1, 0, -2, 1, 2
1503685502161,+0.227,+0.239,-0.531,-0.780,+0.958,-0.128,-0.265,-23.812,-6.062,+22.062,-4, -3, -4, -1, -5, -2, 1, 1
1503685502184,+0.223,+0.239,-0.530,-0.783,+0.939,-0.142,-0.295,-18.688,-7.562,+23.438,-2, 0, -1, -1, -1, 0, -2, -1
1503685502208,+0.219,+0.239,-0.528,-0.785,+0.934,-0.137,-0.307,-14.375,-7.375,+23.062,0, 2, 1, 0, 1, 0, -1, -2
1503685502221,+0.215,+0.239,-0.526,-0.787,+0.944,-0.150,-0.316,-10.062,-7.500,+25.312,-3, -1, -1, -1, -4, -4, -2, -3
1503685502244,+0.211,+0.241,-0.523,-0.790,+0.964,-0.167,-0.327,-7.750,-9.812,+28.750,-4, 0, -2, -3, -1, 0, -2, -5
1503685502266,+0.207,+0.243,-0.521,-0.792,+0.958,-0.179,-0.317,-5.188,-11.750,+32.688,0, 0, 0, 1, 0, 0, 1, 0
1503685502283,+0.202,+0.245,-0.517,-0.795,+0.952,-0.193,-0.330,-1.812,-13.312,+35.375,-2, 0, 2, -1, -1, 0, -4, -7
1503685502304,+0.198,+0.248,-0.514,-0.797,+0.953,-0.209,-0.329,-0.188,-12.125,+37.000,-2, -4, -3, -3, -2, 0, 0, 2
1503685502326,+0.194,+0.251,-0.510,-0.799,+0.932,-0.208,-0.328,+0.438,-12.000,+37.500,0, -1, -1, 0, -1, -1, -2, -2
1503685502348,+0.190,+0.254,-0.507,-0.802,+0.923,-0.208,-0.325,+2.438,-11.688,+35.000,1, -2, 1, 2, -2, -3, -1, -1
1503685502371,+0.186,+0.257,-0.504,-0.803,+0.901,-0.220,-0.312,+3.062,-12.250,+30.938,-2, 0, -1, -2, 1, -1, -3, 0
1503685502386,+0.184,+0.260,-0.501,-0.805,+0.886,-0.228,-0.303,+3.125,-12.500,+24.625,-1, 1, -1, 0, -1, -1, 2, 0
1503685506189,+0.224,+0.263,-0.520,-0.781,+0.940,-0.230,-0.219,+24.562,-19.000,-14.938,-2, -5, -4, -5, -5, -1, -3, -5
1503685506212,+0.228,+0.265,-0.519,-0.781,+0.949,-0.217,-0.230,+19.375,-12.438,-8.375,-8, -2, 2, 4, 7, 1, -2, -1
1503685506227,+0.230,+0.267,-0.517,-0.780,+0.975,-0.193,-0.252,+16.312,-9.438,-4.750,-2, 0, -1, -2, -3, -1, -2, -2
1503685506249,+0.233,+0.268,-0.516,-0.780,+0.989,-0.177,-0.259,+14.750,-9.812,-6.312,-1, 1, -1, 2, 1, -1, -1, -1
1503685506271,+0.236,+0.269,-0.514,-0.780,+1.025,-0.172,-0.260,+13.875,-15.500,-8.062,4, 1, 0, -2, -3, 0, 1, 6
1503685506287,+0.239,+0.269,-0.512,-0.780,+1.008,-0.179,-0.244,+13.188,-16.750,-7.812,-1, 2, -1, -8, -10, -2, -2, 0
1503685506310,+0.241,+0.270,-0.512,-0.779,+1.012,-0.172,-0.247,+11.500,-7.312,-8.000,6, 1, -3, -2, 0, -3, 0, 1
1503685506324,+0.244,+0.271,-0.512,-0.778,+1.014,-0.157,-0.273,+9.750,+1.188,-8.750,0, -1, 1, 2, 4, -1, 0, 4
1503685506347,+0.246,+0.271,-0.513,-0.777,+1.032,-0.145,-0.261,+9.625,+2.000,-8.062,5, 7, 4, -1, -6, -2, -2, -3
1503685506370,+0.248,+0.272,-0.513,-0.775,+1.005,-0.142,-0.278,+9.625,+1.062,-9.312,-5, -9, -5, 0, 1, 0, 3, -2
1503685506384,+0.250,+0.272,-0.514,-0.774,+0.984,-0.125,-0.278,+9.688,+5.750,-10.000,-4, 0, 1, 2, 2, -1, 0, -1
1503685506407,+0.252,+0.273,-0.516,-0.772,+1.004,-0.112,-0.266,+7.188,+9.938,-7.750,5, 0, -1, -1, -1, 1, -1, -2
1503685506429,+0.252,+0.273,-0.518,-0.770,+1.030,-0.095,-0.259,+4.500,+10.750,-0.500,0, -2, -3, 0, 3, 0, -2, 0
1503685506445,+0.252,+0.274,-0.519,-0.769,+0.986,-0.103,-0.210,-0.625,+6.750,+5.562,11, 6, 2, 1, -1, -2, -1, 3
1503685506474,+0.250,+0.275,-0.521,-0.769,+1.013,-0.119,-0.232,-6.750,+12.188,+10.500,-3, -4, -5, -4, -4, 1, 0, -1
1503685506489,+0.247,+0.275,-0.523,-0.768,+1.004,-0.098,-0.265,-8.875,+11.438,+17.625,-18, -6, -1, 6, 5, -1, -1, -4
1503685506505,+0.243,+0.276,-0.523,-0.769,+0.970,-0.112,-0.249,-12.125,+8.938,+22.438,-5, -5, -2, -2, -4, -1, -2, -8
1503685506527,+0.237,+0.276,-0.524,-0.770,+0.963,-0.157,-0.244,-15.688,+11.625,+26.438,1, 4, 2, 2, 3, 0, -1, 1
1503685506549,+0.231,+0.277,-0.526,-0.770,+0.950,-0.172,-0.238,-19.625,+16.000,+29.875,9, 0, -1, -3, 1, 1, 2, 1
1503685506564,+0.225,+0.278,-0.527,-0.771,+0.924,-0.169,-0.258,-21.438,+15.625,+29.188,-11, -4, -2, 2, 1, 2, 3, -4
1503685506587,+0.219,+0.277,-0.528,-0.772,+0.913,-0.189,-0.263,-21.875,+13.750,+25.375,-4, -4, -1, -3, -3, -3, -2, 2
1503685506610,+0.214,+0.277,-0.530,-0.773,+0.924,-0.215,-0.253,-23.438,+12.750,+21.500,-6, -3, -3, -3, -5, -2, 0, -6
1503685506624,+0.208,+0.276,-0.531,-0.774,+0.921,-0.212,-0.256,-24.750,+13.188,+18.312,7, 4, 4, 6, 8, 1, 0, 1
1503685506648,+0.204,+0.275,-0.532,-0.774,+0.894,-0.193,-0.262,-23.562,+12.375,+13.375,-2, -5, -3, 1, -4, -3, -3, -1
1503685506669,+0.201,+0.273,-0.534,-0.775,+0.890,-0.214,-0.280,-19.625,+14.188,+7.562,6, 2, -2, 3, 1, -2, -2, -1
1503685506691,+0.198,+0.272,-0.536,-0.774,+0.901,-0.219,-0.279,-15.000,+18.688,+4.312,-5, 2, 12, 7, 4, 0, -3, -1
1503685506707,+0.195,+0.272,-0.538,-0.773,+0.913,-0.248,-0.256,-13.250,+17.688,+3.188,0, -4, -9, -5, -4, -1, 1, 0
1503685506729,+0.194,+0.271,-0.539,-0.774,+0.922,-0.249,-0.260,-11.188,+8.250,+2.375,-8, -7, -10, -12, -6, -4, 3, 4
1503685506751,+0.192,+0.271,-0.539,-0.774,+0.937,-0.233,-0.242,-10.000,-0.562,+3.062,3, 9, 11, 12, 8, 3, -3, -3
1503685506767,+0.191,+0.271,-0.539,-0.775,+0.934,-0.235,-0.247,-7.312,+4.562,+5.312,-3, -5, -5, -5, -1, 0, 2, 2
1503685506789,+0.189,+0.271,-0.540,-0.774,+0.932,-0.230,-0.221,-5.625,+8.875,+6.938,2, -7, -6, -5, -5, -2, 0, -3
1503685506806,+0.187,+0.272,-0.541,-0.774,+0.937,-0.229,-0.221,-4.375,+9.625,+4.938,6, 3, -1, -2, 1, 0, 1, 0
1503685506827,+0.187,+0.272,-0.541,-0.774,+0.926,-0.239,-0.208,-3.938,+2.875,-0.500,-9, -9, -9, -11, -2, 0, -2, -4
1503685506849,+0.187,+0.270,-0.541,-0.774,+0.932,-0.242,-0.206,-7.562,-5.375,-5.125,4, -5, -5, 1, 1, -4, -3, -3
1503685506864,+0.187,+0.269,-0.541,-0.775,+0.965,-0.232,-0.203,-10.375,-2.438,-5.750,-5, -1, 1, -3, -1, 0, 0, -5
1503685506887,+0.186,+0.267,-0.542,-0.774,+0.946,-0.187,-0.224,-11.188,+4.938,-4.125,-7, -2, -1, 5, -2, -1, -2, -9
1503685506909,+0.187,+0.265,-0.543,-0.774,+0.926,-0.154,-0.258,-9.250,+4.750,-5.625,4, -1, 1, 2, 3, 1, 2, 3
1503685506924,+0.188,+0.263,-0.544,-0.774,+0.967,-0.171,-0.261,-6.000,+1.062,-9.125,6, -5, -4, -5, -6, -5, -3, 3
1503685506947,+0.189,+0.262,-0.544,-0.775,+0.975,-0.173,-0.254,-2.812,-2.062,-6.250,-2, -1, -6, -6, -6, -3, 5, 2
1503685506969,+0.189,+0.261,-0.544,-0.775,+0.961,-0.178,-0.232,-1.750,-2.812,-2.500,0, 2, 5, 7, 3, 2, -2, -3
1503685513313,+0.317,+0.265,-0.495,-0.765,+0.935,-0.083,-0.323,+18.375,+6.062,-35.875,-3, -1, 0, 1, -1, -2, 1, -3
1503685513335,+0.323,+0.265,-0.496,-0.761,+0.967,-0.086,-0.303,+19.000,+4.312,-33.250,-3, -2, -1, -2, -2, -1, -1, -4
1503685513352,+0.328,+0.265,-0.497,-0.759,+0.995,-0.060,-0.303,+14.562,-0.562,-27.375,0, 0, -1, -1, -1, -1, -1, -2
1503685513373,+0.332,+0.264,-0.497,-0.757,+0.956,-0.054,-0.297,+11.562,-1.750,-19.125,0, -1, -2, 0, -2, -2, 0, 0
1503685513395,+0.335,+0.264,-0.497,-0.756,+0.948,-0.034,-0.293,+9.750,-4.688,-13.625,-1, -1, 0, -1, 0, 0, -1, -1
1503685513410,+0.337,+0.264,-0.497,-0.755,+0.958,-0.039,-0.281,+4.188,-6.125,-10.000,0, 0, 0, -1, -2, 0, -1, -2
1503685513433,+0.338,+0.263,-0.497,-0.755,+0.979,-0.033,-0.280,-0.438,-3.250,-6.875,0, 0, -1, -1, 0, -3, 1, 0
1503685513456,+0.338,+0.262,-0.497,-0.755,+0.971,-0.010,-0.285,-3.375,-4.000,-3.250,0, -1, 0, -1, -1, -1, -2, 3
1503685513470,+0.339,+0.261,-0.498,-0.755,+0.947,-0.024,-0.292,-5.750,-3.625,-1.312,0, 1, -1, -1, -1, 0, -2, -5
1503685513494,+0.338,+0.260,-0.498,-0.755,+0.939,-0.029,-0.293,-8.812,-1.688,-0.438,-1, -1, -2, -2, -1, -2, 0, 1
1503685513508,+0.337,+0.258,-0.499,-0.755,+0.954,-0.032,-0.290,-12.625,-0.312,+0.250,-2, -1, -3, -3, -1, -1, 0, -3
1503685513530,+0.335,+0.257,-0.501,-0.755,+0.960,-0.052,-0.298,-14.562,+4.188,+2.688,0, 0, 0, 1, 1, -1, -2, 0
1503685513553,+0.333,+0.256,-0.502,-0.756,+0.958,-0.056,-0.310,-14.750,+3.312,+4.688,-3, -1, -2, -2, -1, 0, 0, -3
1503685513568,+0.331,+0.255,-0.503,-0.756,+0.935,-0.067,-0.325,-13.375,+5.438,+5.812,0, -2, -2, -1, 0, -1, 0, 1
1503685513593,+0.329,+0.255,-0.504,-0.757,+0.940,-0.081,-0.317,-12.688,+6.500,+5.500,0, 0, 0, -1, 0, 0, 0, 0
1503685513613,+0.327,+0.255,-0.505,-0.757,+0.940,-0.090,-0.337,-12.125,+6.500,+5.688,0, -2, -1, 0, -1, 1, -2, -2
1503685513629,+0.325,+0.255,-0.505,-0.758,+0.936,-0.096,-0.337,-10.938,+5.875,+6.938,-1, 2, 1, 0, -1, -1, -1, -1
1503685513650,+0.323,+0.255,-0.505,-0.759,+0.938,-0.094,-0.343,-9.875,+4.688,+7.688,2, 1, 0, -1, -2, -2, 0, 1
1503685513673,+0.321,+0.255,-0.506,-0.759,+0.926,-0.087,-0.354,-7.625,+5.312,+7.188,-1, -1, -1, -1, -1, 0, 2, 1
1503685513689,+0.320,+0.256,-0.506,-0.759,+0.925,-0.095,-0.317,-4.562,+6.375,+6.000,-4, -2, -2, 1, 0, 0, -1, -2
1503685513710,+0.318,+0.257,-0.507,-0.759,+0.929,-0.103,-0.302,-2.688,+9.438,+6.375,-1, -2, -2, -1, 0, -1, 0, 1
1503685513733,+0.317,+0.258,-0.508,-0.759,+0.930,-0.077,-0.313,-1.500,+10.188,+7.375,-1, -2, -4, -1, -2, -2, -2, -3
1503685513748,+0.315,+0.259,-0.508,-0.758,+0.931,-0.063,-0.306,-0.875,+8.000,+7.562,2, 2, 2, 1, -1, 0, 0, 2
1503685513770,+0.314,+0.260,-0.509,-0.758,+0.945,-0.041,-0.336,-1.375,+8.188,+8.250,1, -1, -1, -2, -1, 0, -1, 2
1503685513793,+0.313,+0.260,-0.509,-0.758,+0.962,-0.024,-0.331,-0.562,+5.812,+10.938,1, 0, -1, 0, -1, 1, -2, -2
1503685513808,+0.311,+0.261,-0.509,-0.759,+0.942,-0.012,-0.313,-1.750,+5.125,+14.250,-2, -2, 0, -1, 0, -2, 1, -3
1503685513831,+0.309,+0.262,-0.510,-0.759,+0.959,+0.013,-0.340,-4.562,+9.312,+17.562,0, 0, -1, 0, -3, -1, -1, 1
1503685513861,+0.306,+0.264,-0.511,-0.759,+0.987,+0.023,-0.400,-1.188,+17.688,+27.938,0, -2, -2, 1, -1, 0, -1, 2
1503685513875,+0.302,+0.267,-0.511,-0.759,+0.996,+0.041,-0.445,+6.000,+25.750,+38.500,0, -1, -2, -1, 0, 0, 1, -2
1503685513891,+0.298,+0.273,-0.512,-0.758,+0.971,+0.059,-0.440,+16.438,+29.125,+44.375,-2, -2, -3, -2, -3, -3, -2, -1
1503685513913,+0.294,+0.280,-0.511,-0.758,+0.977,-0.026,-0.385,+23.312,+23.562,+44.188,-2, 0, -2, -2, -3, -2, -1, -1
1503685513935,+0.291,+0.287,-0.509,-0.757,+0.970,-0.063,-0.363,+27.125,+17.750,+38.938,-1, -2, -2, 0, 0, -3, -3, 1
1503685513950,+0.290,+0.292,-0.507,-0.757,+0.925,-0.083,-0.333,+27.812,+8.375,+27.625,1, 1, 0, 1, 0, -1, 0, -1
1503685513973,+0.291,+0.296,-0.505,-0.756,+0.904,-0.103,-0.298,+25.938,-0.625,+13.625,-1, -4, -2, -1, 0, 0, -1, 0
1503685513995,+0.294,+0.300,-0.503,-0.755,+0.883,-0.109,-0.271,+29.750,-0.875,-1.250,-2, -2, -1, -2, 0, 0, -1, -1
1503685520460,+0.332,+0.304,-0.525,-0.722,+0.979,-0.063,-0.267,-39.312,-13.125,+6.938,-1, -4, -2, 2, 0, -1, 1, 5
1503685520477,+0.329,+0.300,-0.525,-0.726,+0.981,-0.065,-0.316,-32.375,-8.250,+10.062,1, 1, -7, -3, -4, -2, -3, -1
1503685520497,+0.326,+0.298,-0.524,-0.729,+0.966,-0.070,-0.325,-24.812,-6.938,+14.312,-7, -4, 0, 1, 0, 0, -2, -4
1503685520520,+0.323,+0.297,-0.522,-0.732,+0.987,-0.091,-0.318,-17.625,-5.562,+18.875,3, 0, -4, -3, -2, -3, -1, 3
1503685520536,+0.319,+0.297,-0.520,-0.734,+0.979,-0.126,-0.313,-10.188,-3.625,+23.750,-3, -9, -6, -1, 2, -1, 4, -2
1503685520557,+0.316,+0.299,-0.518,-0.736,+0.959,-0.154,-0.303,-3.188,-0.875,+26.125,-6, 1, 5, 8, 5, 1, -4, -5
1503685520580,+0.312,+0.302,-0.516,-0.738,+0.946,-0.177,-0.310,+1.188,+3.750,+27.250,-2, -4, 0, 9, 6, 0, 0, -2
1503685520596,+0.309,+0.306,-0.515,-0.739,+0.956,-0.192,-0.302,+5.125,+9.438,+26.875,-4, -3, -3, 7, 2, -1, -2, 3
1503685520617,+0.306,+0.311,-0.514,-0.739,+0.968,-0.197,-0.285,+12.812,+14.625,+23.438,-1, -5, -5, -11, -15, -6, 0, 0
1503685520640,+0.305,+0.316,-0.513,-0.737,+0.961,-0.184,-0.253,+20.375,+13.875,+19.188,-2, -5, -7, -16, -12, -6, -2, -2
1503685520655,+0.304,+0.322,-0.512,-0.736,+0.970,-0.200,-0.249,+26.562,+13.438,+15.312,5, 2, 4, 0, -6, 2, 7, 8
1503685520678,+0.304,+0.328,-0.511,-0.734,+0.964,-0.221,-0.250,+31.188,+15.875,+12.250,4, -2, -4, 6, 6, 0, 0, 1
1503685520702,+0.306,+0.335,-0.511,-0.731,+0.945,-0.207,-0.258,+37.250,+17.812,+7.562,-4, -11, -7, 0, 3, 1, 3, 0
1503685520716,+0.309,+0.341,-0.510,-0.727,+0.924,-0.192,-0.235,+44.375,+17.688,+0.375,1, -1, -2, 2, 0, -1, -1, 2
1503685520738,+0.313,+0.348,-0.509,-0.722,+0.932,-0.185,-0.242,+51.062,+16.875,-7.312,2, 7, 8, 13, 6, 2, -5, 3
1503685520760,+0.319,+0.354,-0.509,-0.717,+0.923,-0.180,-0.199,+54.250,+15.625,-12.562,-2, -4, 1, 7, 5, 0, 2, 2
1503685520776,+0.324,+0.360,-0.508,-0.712,+0.939,-0.162,-0.157,+52.562,+13.000,-14.438,0, 6, 6, -2, -4, -1, 2, 0
1503685520797,+0.330,+0.366,-0.508,-0.707,+0.964,-0.157,-0.105,+48.062,+9.500,-13.188,0, 1, 0, 2, 2, -3, -3, -8
1503685520820,+0.334,+0.371,-0.508,-0.702,+0.973,-0.153,-0.104,+42.062,+11.938,-10.562,-3, -3, -3, -5, -11, -4, -3, 2
1503685520837,+0.338,+0.375,-0.508,-0.698,+0.951,-0.166,-0.115,+37.062,+10.375,-10.750,-3, -1, -3, -5, -5, 0, 2, 0
1503685520857,+0.342,+0.378,-0.508,-0.695,+0.934,-0.171,-0.104,+30.938,+0.125,-17.438,-10, -5, -1, 0, -1, -5, -6, -7
1503685520880,+0.348,+0.377,-0.507,-0.692,+0.929,-0.175,-0.069,+19.062,-12.812,-26.250,7, 3, 2, 4, 8, 8, 2, 4
1503685520896,+0.350,+0.376,-0.509,-0.691,+0.999,-0.205,-0.070,+1.500,-2.750,-23.750,1, 2, -2, -5, 1, 3, 3, -2
1503685520918,+0.351,+0.374,-0.511,-0.690,+0.960,-0.170,-0.100,-13.875,-0.062,-14.312,3, -1, -1, 0, 3, -1, 2, -1
1503685520940,+0.351,+0.369,-0.513,-0.691,+0.974,-0.122,-0.082,-24.812,-9.250,-17.500,-2, 1, 0, -9, -16, -9, -8, -5
1503685520956,+0.352,+0.363,-0.515,-0.692,+0.989,-0.107,-0.058,-32.562,-16.062,-23.125,1, 0, 0, -1, 3, -3, -7, 4
1503685520978,+0.351,+0.356,-0.518,-0.694,+1.039,-0.129,-0.073,-42.750,-12.562,-17.062,3, 1, 0, 2, 0, 1, -1, 1
1503685521000,+0.348,+0.349,-0.521,-0.697,+1.007,-0.099,-0.110,-51.375,-14.312,-9.375,-1, 2, 1, 4, 4, 1, 2, -1
1503685521016,+0.347,+0.340,-0.524,-0.700,+0.980,-0.036,-0.126,-54.188,-14.812,-16.500,-6, -6, -4, -7, -4, 0, 1, -6
1503685521039,+0.347,+0.330,-0.527,-0.703,+0.947,-0.015,-0.153,-53.375,-16.500,-26.625,-3, -3, -2, 0, -3, -1, -3, -2
1503685521060,+0.347,+0.320,-0.530,-0.705,+0.980,-0.021,-0.195,-50.688,-16.312,-29.688,-2, -2, -2, -2, -3, -1, -8, -7
1503685521076,+0.348,+0.310,-0.532,-0.707,+0.978,-0.012,-0.229,-47.750,-15.500,-27.250,-2, -6, -2, 1, 1, 4, 3, -1
1503685521098,+0.348,+0.300,-0.534,-0.710,+0.974,+0.039,-0.231,-45.000,-19.312,-23.375,-1, 1, 0, 1, -3, -1, 1, 0
1503685521120,+0.348,+0.292,-0.534,-0.713,+0.981,+0.017,-0.227,-43.062,-22.625,-15.875,1, 1, 1, -1, 0, -1, 3, -3
1503685521136,+0.347,+0.285,-0.535,-0.716,+0.988,+0.019,-0.250,-40.500,-20.750,-9.688,3, 1, 1, 0, 0, 1, -1, 6
1503685521158,+0.346,+0.278,-0.535,-0.719,+0.966,+0.032,-0.298,-35.938,-14.750,-2.812,-4, -1, 0, -1, 0, -1, 0, -3
1503685521181,+0.344,+0.273,-0.534,-0.722,+0.975,+0.016,-0.284,-28.875,-15.000,+1.062,0, -1, -1, -1, 2, -2, 0, 4
1503685526220,+0.162,+0.032,-0.487,-0.858,+0.872,+0.107,-0.464,-0.500,-15.562,-1.312,-7, -5, -7, -7, -7, -6, -4, -3
1503685526244,+0.162,+0.031,-0.484,-0.859,+0.851,+0.100,-0.472,-1.188,-19.000,-1.188,0, -6, -8, -5, -5, -3, -5, -8
1503685526265,+0.162,+0.031,-0.482,-0.861,+0.886,+0.113,-0.479,-1.625,-21.250,-1.938,-1, -7, -3, 0, 1, 1, 0, 4
1503685526281,+0.163,+0.030,-0.478,-0.862,+0.863,+0.135,-0.492,+2.500,-23.562,-1.875,0, 0, -1, -1, -2, 1, 2, 1
1503685526302,+0.164,+0.030,-0.474,-0.865,+0.861,+0.160,-0.520,+9.312,-26.750,+2.688,-5, -2, -2, -3, -1, 0, 1, -4
1503685526325,+0.164,+0.032,-0.472,-0.865,+0.858,+0.200,-0.520,+13.312,-8.688,+11.062,4, 6, 3, 2, -1, 1, 2, -3
1503685526343,+0.163,+0.035,-0.473,-0.865,+0.927,+0.255,-0.516,+15.688,+8.188,+25.062,-6, -3, 4, 1, 0, 1, -1, -2
1503685526362,+0.159,+0.042,-0.477,-0.864,+0.910,+0.239,-0.510,+25.062,+25.812,+48.688,0, -5, -10, -11, -9, -7, -2, 16
1503685526385,+0.152,+0.053,-0.480,-0.862,+1.009,+0.220,-0.586,+38.750,+32.062,+68.438,1, -5, -7, -6, -6, -6, -4, -9
1503685526400,+0.146,+0.064,-0.487,-0.859,+0.910,+0.271,-0.499,+39.938,+55.812,+71.562,3, 16, 22, 15, 10, 5, 1, 12
1503685526422,+0.146,+0.076,-0.495,-0.853,+0.861,+0.358,-0.623,+65.625,+81.562,+47.688,-6, -5, -3, -1, 2, -2, -5, -11
1503685526445,+0.145,+0.091,-0.508,-0.844,+0.870,+0.226,-0.438,+67.812,+103.312,+41.062,3, 4, 1, -2, -4, 1, 3, 13
1503685526460,+0.142,+0.106,-0.523,-0.834,+0.856,+0.153,-0.429,+56.688,+121.688,+43.000,1, 6, 9, 4, 0, 0, -3, -4
1503685526483,+0.138,+0.120,-0.529,-0.828,+0.999,-0.014,-0.754,+56.375,+85.625,+60.938,0, 0, 1, 5, 3, 0, 0, 0
1503685526505,+0.133,+0.135,-0.533,-0.825,+1.206,-0.051,-0.361,+55.312,+38.625,+67.938,-13, -2, -3, 1, 0, 2, 1, -1
1503685526527,+0.132,+0.149,-0.532,-0.823,+1.023,-0.041,-0.223,+66.125,+2.000,+53.188,-2, 5, -1, -2, -1, -1, -2, -1
1503685526544,+0.134,+0.162,-0.528,-0.823,+0.894,-0.079,-0.293,+69.188,-14.562,+36.812,1, 5, 7, 4, 1, -1, -1, -1
1503685526565,+0.136,+0.174,-0.523,-0.823,+0.787,-0.187,-0.382,+66.812,-11.125,+29.188,-2, 1, 3, 1, 1, 0, 0, -8
1503685526582,+0.137,+0.186,-0.521,-0.822,+0.721,-0.278,-0.359,+63.688,+8.375,+23.438,-6, 0, 0, 0, -2, -2, -1, -5
1503685526604,+0.138,+0.198,-0.523,-0.817,+0.743,-0.297,-0.279,+60.375,+34.438,+14.312,-4, -1, -1, 2, 1, 1, -1, -1
1503685526625,+0.141,+0.209,-0.529,-0.811,+0.859,-0.308,-0.257,+57.375,+52.625,+1.188,1, 1, -1, -2, -3, -3, -3, -2
1503685526641,+0.144,+0.219,-0.534,-0.804,+0.937,-0.333,-0.265,+56.688,+46.500,-7.062,-1, 0, 5, 23, 19, 6, 2, -4
1503685526663,+0.148,+0.228,-0.536,-0.799,+0.956,-0.360,-0.230,+52.250,+23.375,-9.625,5, 2, 4, 17, 4, 0, 2, 5
1503685526686,+0.153,+0.235,-0.536,-0.797,+0.944,-0.370,-0.214,+47.062,+5.125,-12.000,-2, -3, -1, -12, -6, -2, -4, 3
1503685526701,+0.158,+0.242,-0.535,-0.794,+0.910,-0.336,-0.197,+44.000,+3.188,-11.688,8, 1, 1, -4, -2, 0, 2, 3
1503685526723,+0.162,+0.248,-0.536,-0.791,+0.878,-0.303,-0.200,+42.125,+8.062,-9.250,-2, -1, -2, -1, 1, -2, 0, 4
1503685526745,+0.165,+0.254,-0.536,-0.788,+0.906,-0.315,-0.170,+39.062,+8.812,-9.000,-2, -3, -6, -15, -9, -5, -2, 4
1503685526761,+0.169,+0.259,-0.537,-0.785,+0.941,-0.343,-0.153,+33.750,+6.125,-11.125,-1, -3, -1, -8, -5, -1, -2, 23
1503685526788,+0.173,+0.263,-0.538,-0.782,+0.950,-0.324,-0.166,+27.875,+6.438,-16.500,-2, -3, -7, -3, -2, 0, -1, -30
1503685526805,+0.177,+0.265,-0.539,-0.780,+0.925,-0.273,-0.159,+22.938,+3.562,-18.125,1, -3, -4, -5, -1, -1, 0, -3
1503685526821,+0.180,+0.268,-0.539,-0.778,+0.934,-0.249,-0.169,+21.000,+1.312,-14.938,0, 2, 0, 2, 1, -1, 0, -4
1503685526846,+0.183,+0.270,-0.540,-0.776,+0.940,-0.251,-0.174,+18.250,+2.500,-10.688,0, -3, 9, 5, 1, -1, -1, -5
1503685526865,+0.186,+0.271,-0.541,-0.774,+0.942,-0.232,-0.173,+16.312,+5.562,-11.375,0, 6, 4, 1, 4, 2, -3, -1
1503685526881,+0.189,+0.273,-0.542,-0.772,+0.947,-0.207,-0.177,+16.438,+3.750,-13.000,-3, -2, -4, -5, -4, -2, 0, 7
1503685526903,+0.192,+0.274,-0.542,-0.771,+0.983,-0.208,-0.181,+15.062,+1.250,-9.688,-1, -2, 0, 0, 0, -2, -1, 4
1503685526925,+0.194,+0.275,-0.543,-0.769,+1.008,-0.200,-0.184,+11.875,+2.000,-5.750,-4, -7, -3, -1, -2, -3, 0, 2
1503685526941,+0.195,+0.277,-0.543,-0.768,+1.006,-0.195,-0.181,+9.188,+1.188,-0.375,1, 4, -1, -3, -3, 0, 0, -1
1503685526963,+0.195,+0.278,-0.543,-0.768,+0.977,-0.194,-0.185,+5.562,-1.062,+3.438,0, -1, -4, -1, 0, 0, 1, 0
1503685526987,+0.195,+0.279,-0.543,-0.768,+0.972,-0.167,-0.199,+4.500,-0.125,+4.625,-1, -4, -6, -1, -5, 0, 0, -1
1503685527001,+0.195,+0.280,-0.542,-0.768,+0.961,-0.176,-0.217,+4.562,-0.750,+5.875,0, -1, -1, -8, -5, -2, 0, -1
1503685527023,+0.196,+0.280,-0.541,-0.768,+0.968,-0.200,-0.211,+4.750,-4.438,+4.875,-1, 3, 3, -3, 1, 0, 1, -3
1503685527047,+0.196,+0.281,-0.540,-0.769,+0.971,-0.211,-0.218,+3.625,-9.312,+3.562,0, 10, 4, 1, -2, -1, 0, 0
1503685527061,+0.197,+0.282,-0.539,-0.769,+0.961,-0.229,-0.195,+5.188,-5.812,+1.750,0, -4, -4, 0, -1, -1, -1, -2
1503685527083,+0.197,+0.283,-0.539,-0.768,+0.950,-0.210,-0.211,+5.500,+2.188,-0.062,-3, -4, -1, 5, 4, -1, -1, -1
1503685527105,+0.198,+0.284,-0.540,-0.767,+0.953,-0.223,-0.200,+4.875,+8.500,-2.812,0, 1, 0, 1, -2, 0, 0, 0
1503685527123,+0.199,+0.284,-0.542,-0.766,+0.920,-0.216,-0.185,+5.438,+9.188,-10.625,-2, 0, 1, -2, 1, 0, -1, 0
1503685527143,+0.202,+0.283,-0.544,-0.764,+0.933,-0.208,-0.158,+3.375,+6.062,-21.938,-4, 1, 6, 9, 4, 2, -2, -9
1503685527165,+0.206,+0.281,-0.546,-0.762,+0.930,-0.183,-0.167,+0.562,+2.938,-28.312,2, 3, 3, -1, 0, 0, 1, 2
1503685527182,+0.210,+0.278,-0.547,-0.761,+0.946,-0.163,-0.187,-2.375,+2.688,-28.375,1, -4, -5, -10, -4, -3, 0, 2
1503685527203,+0.213,+0.275,-0.549,-0.760,+0.963,-0.132,-0.196,-4.438,+3.000,-25.188,-1, -2, -4, -2, -3, 0, 0, -1
1503685527225,+0.216,+0.271,-0.552,-0.759,+0.968,-0.102,-0.179,-8.000,+5.062,-23.625,2, 1, 3, 8, 7, 2, -1, 1
1503685527245,+0.217,+0.268,-0.554,-0.758,+0.985,-0.100,-0.154,-12.062,+3.312,-20.625,-1, 1, 0, -1, -8, -4, -4, -6
1503685527263,+0.218,+0.264,-0.555,-0.758,+1.011,-0.097,-0.164,-16.312,-3.125,-10.938,3, 0, 0, -2, 0, -1, 1, -1
1503685527286,+0.217,+0.261,-0.556,-0.759,+0.992,-0.101,-0.188,-21.250,-6.688,-1.250,1, 0, 3, 3, 1, 1, -3, -2
1503685527301,+0.215,+0.257,-0.556,-0.761,+0.966,-0.098,-0.183,-26.375,-10.125,+2.562,-6, -4, -7, -11, -8, -3, -2, -2
1503685527324,+0.213,+0.253,-0.555,-0.763,+0.948,-0.109,-0.195,-30.500,-10.688,+1.438,2, -5, -6, -1, 2, 0, -2, 0
1503685527345,+0.210,+0.248,-0.556,-0.765,+0.974,-0.108,-0.194,-34.000,-9.562,+0.000,-6, -5, -3, -6, -3, -2, -3, -3
1503685527361,+0.208,+0.243,-0.555,-0.768,+0.979,-0.102,-0.202,-36.875,-13.125,+1.500,-1, -1, 1, 1, 2, 0, 0, -2
1503685527383,+0.205,+0.237,-0.555,-0.771,+0.972,-0.099,-0.206,-36.688,-17.312,+1.625,-5, -2, -3, 5, 4, 2, 0, 1
1503685532566,+0.166,+0.327,-0.522,-0.771,+0.940,-0.303,-0.230,-13.375,-0.125,+69.250,2, 3, -2, -1, -3, -4, -2, 1
1503685532594,+0.157,+0.330,-0.517,-0.774,+0.936,-0.299,-0.239,-13.562,-6.875,+62.625,0, -1, -4, -2, 0, -1, -2, 3
1503685532609,+0.151,+0.333,-0.513,-0.777,+0.901,-0.306,-0.204,-10.188,-13.562,+52.688,-1, -3, -2, -5, -1, 0, 1, -2
1503685532626,+0.146,+0.336,-0.510,-0.778,+0.848,-0.337,-0.175,-0.438,-4.312,+37.938,-2, -6, -4, -3, -4, -2, -1, -4
1503685532648,+0.143,+0.339,-0.511,-0.777,+0.841,-0.360,-0.167,+4.250,+11.688,+20.812,2, 2, 2, 2, 4, -1, -2, -3
1503685532669,+0.143,+0.340,-0.513,-0.775,+0.861,-0.377,-0.156,+5.312,+17.188,-2.188,-7, -4, -6, -7, -6, -3, 3, 0
1503685532691,+0.144,+0.340,-0.517,-0.772,+0.896,-0.384,-0.145,+4.000,+21.812,-21.125,-4, 2, 4, 8, 6, 1, 1, 1
1503685532708,+0.146,+0.339,-0.522,-0.769,+0.916,-0.384,-0.159,-2.625,+26.125,-23.500,-1, 1, -3, -5, -5, -3, 0, -1
1503685532730,+0.146,+0.337,-0.526,-0.767,+0.896,-0.365,-0.155,-7.688,+19.125,-18.875,-1, -8, -8, -2, -2, -1, 1, -3
1503685532746,+0.147,+0.334,-0.529,-0.766,+0.877,-0.311,-0.161,-12.812,+13.750,-17.500,-2, -11, -9, -6, -6, -2, 2, 1
1503685532768,+0.147,+0.331,-0.532,-0.766,+0.859,-0.247,-0.220,-14.188,+15.375,-9.938,-5, -4, -5, -6, -5, -2, 1, -3
1503685532790,+0.146,+0.329,-0.534,-0.765,+0.891,-0.255,-0.254,-10.188,+15.375,+2.625,-1, 13, 12, 5, 3, 1, -5, 7
1503685532805,+0.143,+0.329,-0.532,-0.767,+0.937,-0.324,-0.237,-10.500,-2.500,+14.625,-1, 4, 7, 7, 4, 3, 2, -7
1503685532828,+0.140,+0.327,-0.527,-0.771,+0.943,-0.361,-0.217,-19.312,-28.312,+22.750,4, 4, 7, 5, 2, 2, -1, 10
1503685532849,+0.137,+0.326,-0.521,-0.777,+0.934,-0.345,-0.183,-25.438,-41.125,+26.438,-1, 6, 8, 5, 1, -1, -2, -15
1503685532865,+0.133,+0.325,-0.519,-0.779,+0.875,-0.354,-0.172,-19.438,-13.000,+23.000,-8, -3, 0, 2, 1, -2, -5, -1
1503685532888,+0.131,+0.325,-0.521,-0.778,+0.899,-0.348,-0.196,-7.062,+16.938,+9.812,2, 7, 3, -1, -1, 1, 2, 4
1503685532909,+0.130,+0.326,-0.524,-0.776,+0.967,-0.375,-0.203,+1.562,+20.562,+0.625,-5, 0, 2, -1, 0, -2, 0, 5
1503685532926,+0.130,+0.327,-0.525,-0.775,+0.956,-0.426,-0.187,+2.375,+7.188,-3.938,-4, -7, -6, -1, -1, -1, -4, -10
1503685532947,+0.131,+0.326,-0.525,-0.775,+0.910,-0.430,-0.139,-3.312,-4.375,-9.312,2, 7, 7, 1, -1, -1, 0, 9
1503685532969,+0.131,+0.325,-0.526,-0.775,+0.903,-0.404,-0.155,-9.000,-0.250,-13.312,-3, -3, -8, -4, -5, -1, -1, 1
1503685532986,+0.132,+0.322,-0.527,-0.776,+0.913,-0.347,-0.210,-12.000,+1.438,-13.688,0, 7, 2, -2, -2, -1, 1, 5
1503685533008,+0.133,+0.319,-0.527,-0.776,+0.924,-0.305,-0.239,-8.250,+0.188,-11.062,-2, 2, 1, -2, 1, 3, 1, -4
1503685533024,+0.135,+0.318,-0.527,-0.776,+0.907,-0.311,-0.252,-2.750,-1.188,-6.625,0, -5, -5, -1, -1, -1, -2, 2
1503685533045,+0.136,+0.318,-0.527,-0.777,+0.912,-0.328,-0.226,+1.125,-4.500,-2.750,4, 2, 4, 0, 0, 0, -4, -9
1503685533068,+0.136,+0.318,-0.525,-0.778,+0.901,-0.355,-0.217,+1.812,-7.125,+2.688,-1, 1, -3, 0, -1, 0, 1, 1
1503685533090,+0.136,+0.318,-0.524,-0.778,+0.891,-0.357,-0.209,+0.500,-8.750,+4.500,2, 9, 10, 4, 2, 0, -3, 2
1503685533105,+0.136,+0.318,-0.522,-0.780,+0.894,-0.346,-0.217,-2.812,-9.875,+3.438,0, -3, -5, -5, -3, -1, 1, -11
1503685533128,+0.136,+0.318,-0.521,-0.781,+0.913,-0.342,-0.228,-3.625,-10.688,+1.125,-6, 3, 0, -1, 1, 2, -1, -32
1503685533143,+0.138,+0.317,-0.519,-0.782,+0.900,-0.326,-0.221,+0.688,-14.750,-2.938,-3, -3, -5, -3, 1, -1, -1, -19
1503685533166,+0.141,+0.316,-0.517,-0.783,+0.872,-0.307,-0.240,+6.312,-13.875,-11.562,1, -4, -4, -11, -8, -2, -2, 24
1503685533190,+0.146,+0.316,-0.516,-0.783,+0.875,-0.293,-0.257,+12.500,-9.688,-20.438,3, -8, -4, 3, -3, -2, 3, 30
1503685533210,+0.151,+0.316,-0.516,-0.782,+0.898,-0.310,-0.254,+18.500,-7.938,-24.562,-4, -3, -4, -3, -5, -4, -3, -8
