Timestamp,Orientation X,Orientation Y,Orientation Z,Orientation W,Accelerometer X,Accelerometer Y,Accelerometer Z,Gyroscope X,Gyroscope Y,Gyroscope Z,EMG1,EMG2,EMG3,EMG4,EMG5,EMG6,EMG7,EMG8,Roll,Yaw,Window
1503685379093,+0.139,+0.223,-0.517,-0.814,+0.923,-0.206,-0.350,+7.875,-16.062,+27.000,-20, -3, -4, -1, -3, -4, -4, -4,-0.48741926553514275,1.1860082978103874,0
1503685379115,+0.137,+0.226,-0.514,-0.816,+0.938,-0.227,-0.327,+9.625,-17.875,+26.062,-6, -7, -4, -3, -4, -3, -2, -3,-0.4873111179006657,1.1815665415585401,0
1503685379137,+0.135,+0.229,-0.510,-0.818,+0.931,-0.249,-0.315,+8.312,-19.188,+21.000,-7, -7, -3, -1, -1, 1, -2, -11,-0.48676373883921753,1.1745746762814941,0
1503685379153,+0.135,+0.231,-0.508,-0.819,+0.899,-0.256,-0.275,+7.250,-18.000,+9.000,13, 6, 7, 3, 1, 1, 2, 2,-0.4889127802518591,1.1717712879034659,0
1503685379175,+0.137,+0.231,-0.507,-0.819,+0.898,-0.283,-0.257,+4.312,-7.812,-10.000,-9, -8, 0, 0, 2, 1, 1, 11,-0.4919978899816439,1.1695589077444193,0
1503685379197,+0.139,+0.230,-0.510,-0.817,+0.927,-0.320,-0.221,-4.250,+7.188,-24.312,-13, -5, -7, -7, -6, -4, -1, -2,-0.4948840803059768,1.1758785983737368,0
1503685379213,+0.140,+0.228,-0.514,-0.815,+0.957,-0.327,-0.233,-17.000,+17.312,-26.500,14, 10, 4, 0, -4, -3, -5, -2,-0.49503812755952653,1.1836381038915353,0
1503685379235,+0.142,+0.223,-0.518,-0.814,+0.916,-0.226,-0.293,-19.312,+12.875,-25.250,4, -8, -19, -14, -8, -2, 4, 0,-0.4930504125109192,1.1891118400394944,0
1503685379259,+0.145,+0.218,-0.520,-0.813,+0.859,-0.096,-0.332,-13.375,+6.312,-29.312,6, -3, -4, 1, 4, 0, -7, 4,-0.49200822027763713,1.18966779545488,0
1503685379273,+0.148,+0.215,-0.522,-0.812,+0.944,-0.084,-0.377,-5.750,+8.125,-19.438,-1, 1, -1, -1, 0, -2, 1, 5,-0.49369016625236695,1.1921502263247463,0
1503685379297,+0.148,+0.214,-0.521,-0.813,+0.973,-0.137,-0.411,-0.812,+1.500,-0.375,12, 2, 4, 4, 4, 0, -1, -4,-0.4922201717060649,1.1890313154493197,0
1503685379317,+0.147,+0.215,-0.520,-0.813,+0.991,-0.184,-0.361,+0.500,-5.812,+12.062,-5, -1, -3, 1, 2, 0, -2, -4,-0.4914378283006834,1.1872030659937403,0
1503685379333,+0.145,+0.217,-0.518,-0.815,+0.956,-0.211,-0.337,+3.188,-8.250,+22.375,4, 3, 2, 0, -3, 1, -1, -1,-0.49039310984005346,1.1843503429847584,0
1503685379355,+0.142,+0.220,-0.515,-0.816,+0.897,-0.196,-0.356,+3.750,-11.312,+26.750,-2, 5, 2, 2, -1, -2, -1, -5,-0.4882826570580065,1.1792967229889688,0
1503685379376,+0.140,+0.222,-0.512,-0.818,+0.898,-0.165,-0.341,+5.812,-11.375,+27.188,-6, -5, -2, 0, 0, 0, 4, 0,-0.4868016045796352,1.1738947058332707,0
1503685379395,+0.138,+0.226,-0.509,-0.819,+0.917,-0.189,-0.350,+8.938,-13.125,+28.562,-12, -6, -4, -2, -1, -1, -4, -11,-0.4877573087216327,1.1700265460571444,0
1503685379415,+0.136,+0.229,-0.506,-0.821,+0.931,-0.235,-0.353,+9.625,-16.312,+25.062,-9, -3, 0, 0, 0, -3, -7, -13,-0.4875889244509112,1.1656475523144987,0
1503685379437,+0.136,+0.231,-0.502,-0.822,+0.919,-0.268,-0.286,+6.750,-22.938,+10.625,8, 4, 2, 5, 6, 8, 4, 17,-0.4888857824696835,1.1577079916609716,0
1503685379469,+0.139,+0.231,-0.501,-0.823,+0.883,-0.277,-0.244,+6.438,-18.875,-14.250,8, 3, -2, -4, -3, -4, 0, 3,-0.49400249062845697,1.156123725742336,0
1503685379475,+0.142,+0.230,-0.504,-0.820,+0.917,-0.315,-0.215,-1.250,+8.188,-32.625,-10, -24, -12, -3, -1, -1, 1, 1,-0.49841805585050253,1.162184313143873,0
1503685379498,+0.145,+0.226,-0.511,-0.817,+0.937,-0.342,-0.218,-16.562,+32.562,-41.688,11, 12, 10, 1, -2, -2, -1, -5,-0.5003395870240811,1.1756345096505965,0
1503685379513,+0.147,+0.221,-0.518,-0.813,+0.926,-0.259,-0.273,-21.375,+35.062,-45.812,2, 4, 2, 0, -1, 1, -3, -1,-0.4987885541853662,1.187657612453037,0
1503685379536,+0.153,+0.214,-0.523,-0.811,+0.843,-0.120,-0.308,-15.250,+13.562,-52.750,-14, -2, 0, -2, -3, -2, 1, -2,-0.5011802553761391,1.1942263197018788,0
1503685379556,+0.160,+0.207,-0.525,-0.810,+0.855,-0.065,-0.313,-12.938,+2.375,-53.375,5, -1, 1, 3, 1, 0, 0, 11,-0.5044819337995304,1.19372132464298,0
1503685379574,+0.165,+0.202,-0.527,-0.809,+0.933,-0.075,-0.357,-10.062,+4.000,-34.062,4, 4, 2, 2, 1, -2, -2, -5,-0.5070190930428923,1.1948031285662533,0
1503685379597,+0.167,+0.199,-0.527,-0.810,+0.932,-0.109,-0.372,-7.750,-5.688,-15.125,-2, 3, 0, 1, 1, 1, -1, 1,-0.5068505318138026,1.192861726798959,0
1503685379616,+0.168,+0.197,-0.524,-0.811,+0.929,-0.147,-0.359,-8.312,-16.062,-9.188,4, -3, -3, -1, -2, 0, 1, 3,-0.5052235862160144,1.1839244231090553,0
1503685379633,+0.168,+0.195,-0.522,-0.813,+0.931,-0.180,-0.340,-9.688,-18.375,-2.312,-3, -3, 2, -2, -4, -1, 1, -4,-0.5025085242844323,1.1778453447804949,0
1503685379655,+0.167,+0.194,-0.519,-0.816,+0.908,-0.191,-0.314,-10.375,-24.500,+4.250,-4, 0, -1, -1, -4, -1, -5, -3,-0.4992964069956867,1.170329861916793,0
1503685379677,+0.166,+0.193,-0.515,-0.819,+0.890,-0.172,-0.339,-10.125,-26.625,+7.375,6, 3, -1, -1, 9, 0, -1, 0,-0.49574452092419663,1.1602768227448628,0
1503685379695,+0.165,+0.192,-0.511,-0.821,+0.894,-0.180,-0.348,-8.875,-25.875,+2.938,-15, -5, -2, -10, -14, -6, 6, -1,-0.4919040887472919,1.1498422623816782,0
1503685379715,+0.165,+0.191,-0.509,-0.823,+0.919,-0.187,-0.353,-6.188,-21.000,-0.562,3, 0, 0, 3, 6, 14, -5, 10,-0.4905350733844939,1.1447196270761502,0
1503685379738,+0.166,+0.190,-0.507,-0.824,+0.949,-0.183,-0.349,-6.000,-16.188,-4.688,-10, 0, 2, 1, -1, 0, 9, 12,-0.49066576240067955,1.1393465987446767,0
1503685379753,+0.167,+0.189,-0.506,-0.825,+0.981,-0.175,-0.349,-5.250,-11.750,-8.938,5, -5, -11, -3, -1, -5, 3, -5,-0.49114772801771,1.1365426822173788,0
1503685379775,+0.169,+0.187,-0.505,-0.825,+0.995,-0.154,-0.335,-3.250,-10.875,-11.562,-3, 5, 4, -6, -5, -4, 1, -6,-0.49187465987638973,1.132644293818319,0
1503685386756,+0.255,+0.272,-0.489,-0.789,+0.963,-0.163,-0.295,-8.312,-0.875,-12.812,-22, -18, -1, -11, -11, -6, 0, -4,-0.7468840888990098,1.1811899082094257,1
1503685386779,+0.256,+0.270,-0.490,-0.789,+0.965,-0.154,-0.314,-12.000,-1.062,-7.188,0, 7, 8, 4, 1, -2, -1, 2,-0.7462142656666401,1.1814160378959382,1
1503685386801,+0.256,+0.267,-0.490,-0.789,+0.932,-0.137,-0.339,-11.250,-2.562,-3.812,-1, 4, 5, 2, -2, -1, 1, -7,-0.7418029866490429,1.1777979146665443,1
1503685386816,+0.256,+0.265,-0.491,-0.789,+0.933,-0.137,-0.321,-13.062,-2.188,-5.625,15, 9, -8, -6, -3, -1, -3, 3,-0.7392751513720779,1.1778575892870893,1
1503685386839,+0.256,+0.263,-0.492,-0.790,+0.922,-0.120,-0.338,-11.938,+1.500,-7.125,-10, -9, -3, 9, 13, 5, 2, -1,-0.737139631894043,1.178317571981406,1
1503685386861,+0.257,+0.260,-0.493,-0.790,+0.909,-0.095,-0.347,-11.562,-2.375,-10.250,6, -9, 3, -7, -8, -4, -4, -17,-0.7350637585225775,1.1774436461476658,1
1503685386881,+0.259,+0.256,-0.493,-0.790,+0.902,-0.059,-0.352,-12.062,-7.375,-16.438,2, 4, -3, 4, 7, 1, -1, 0,-0.7330756565804117,1.1731871353398335,1
1503685386899,+0.262,+0.251,-0.494,-0.790,+0.884,-0.042,-0.335,-10.375,-7.938,-21.438,21, 6, 19, 1, -3, 2, 1, 16,-0.7319963176308203,1.1704987278764007,1
1503685386922,+0.265,+0.247,-0.495,-0.790,+0.926,-0.063,-0.328,-11.312,-2.562,-23.812,3, 1, -11, -5, -1, -4, 0, -8,-0.732403842846188,1.1690159026636122,1
1503685386936,+0.268,+0.243,-0.497,-0.789,+0.929,-0.028,-0.387,-10.562,+2.812,-21.188,-9, -8, -8, -3, -1, -1, -2, -5,-0.7328281232493191,1.169652449334861,1
1503685386959,+0.271,+0.240,-0.497,-0.789,+0.924,-0.008,-0.413,-5.625,-3.062,-17.812,-6, -6, -5, 0, 0, -3, -3, -2,-0.7343641142943155,1.166903382344728,1
1503685386982,+0.274,+0.237,-0.497,-0.789,+0.925,-0.011,-0.379,-2.062,-8.812,-15.875,-19, -3, -1, 1, 1, -1, 3, 1,-0.7359458225474272,1.1641786678547033,1
1503685386996,+0.276,+0.235,-0.496,-0.789,+0.929,-0.037,-0.348,-2.000,-9.875,-12.750,6, 0, -3, -4, -3, -2, -1, 2,-0.7366760778114159,1.1599144361388471,1
1503685387019,+0.278,+0.233,-0.496,-0.789,+0.935,-0.042,-0.327,-5.062,-7.875,-8.125,8, 8, -1, -3, 2, 0, -5, -21,-0.7377799335154132,1.1581220782624706,1
1503685387041,+0.278,+0.231,-0.496,-0.790,+0.939,-0.033,-0.332,-10.688,-7.062,-2.875,0, -12, -8, -5, -4, -3, 1, 1,-0.7354660682066356,1.1563675662848663,1
1503685387056,+0.277,+0.228,-0.496,-0.791,+0.929,-0.033,-0.335,-15.938,-9.062,+2.312,-1, -3, -2, -2, -4, -1, -4, -4,-0.7298859592713876,1.153380567231419,1
1503685387081,+0.275,+0.225,-0.495,-0.793,+0.928,-0.040,-0.322,-20.562,-11.750,+6.125,-2, -4, -4, -6, -10, -4, -1, 9,-0.7224835807892834,1.1481885719610962,1
1503685387101,+0.273,+0.223,-0.495,-0.794,+0.936,-0.044,-0.347,-23.062,-8.375,+9.312,-4, 2, -5, -12, -18, -6, -1, -2,-0.7163719067564375,1.1461356943296508,1
1503685387117,+0.270,+0.220,-0.495,-0.796,+0.931,-0.059,-0.373,-23.750,-8.875,+11.688,-9, 1, 7, 6, 5, 1, -2, -2,-0.7074377193700605,1.143300965047885,1
1503685387149,+0.267,+0.217,-0.494,-0.799,+0.927,-0.059,-0.378,-23.125,-10.562,+10.375,0, 0, 6, 19, 30, 9, 0, 4,-0.6986114585426976,1.1384579019265462,1
1503685387161,+0.265,+0.215,-0.494,-0.800,+0.912,-0.072,-0.387,-20.688,-3.688,+7.062,-4, -2, -3, -8, -7, 0, 4, 10,-0.6925570780680878,1.1364889384346184,1
1503685387176,+0.263,+0.213,-0.494,-0.801,+0.889,-0.064,-0.410,-16.125,+1.500,+1.875,-9, -4, -5, -8, -10, -6, -8, -7,-0.6865168837484406,1.134540809634545,1
1503685387200,+0.263,+0.211,-0.495,-0.801,+0.919,-0.072,-0.405,-11.500,-0.562,-1.625,4, -3, -8, -10, -7, -3, -3, -3,-0.6842331918528497,1.1350301872123034,1
1503685387222,+0.262,+0.209,-0.494,-0.802,+0.931,-0.076,-0.404,-11.188,-4.312,+0.125,-9, -7, -5, -9, -6, -3, -5, -13,-0.6798006527000073,1.1308210064668238,1
1503685387236,+0.261,+0.208,-0.493,-0.804,+0.935,-0.075,-0.388,-11.812,-10.688,+4.188,-3, -7, -3, -3, -5, -7, -6, 0,-0.6770838361205566,1.1280298562078477,1
1503685387259,+0.259,+0.206,-0.492,-0.805,+0.923,-0.083,-0.371,-13.125,-12.688,+9.188,-1, 0, -1, -9, -11, -4, -2, 0,-0.6707629608048798,1.1236719714371475,1
1503685387284,+0.256,+0.205,-0.491,-0.807,+0.909,-0.081,-0.393,-14.938,-8.125,+13.562,8, 4, 4, 3, 8, 4, 6, 3,-0.664237073537163,1.1205452284302786,1
1503685387297,+0.253,+0.205,-0.490,-0.809,+0.900,-0.095,-0.389,-14.000,-5.312,+15.438,-1, 2, 13, 4, -1, 0, 1, 2,-0.6589981430537207,1.1183872243568789,1
1503685387319,+0.250,+0.205,-0.489,-0.810,+0.912,-0.114,-0.391,-12.438,-2.000,+14.000,-4, 14, 7, 2, -1, -2, -3, -1,-0.6533617003503406,1.115798440015526,1
1503685387341,+0.248,+0.205,-0.489,-0.811,+0.938,-0.128,-0.392,-11.562,-1.562,+13.125,-4, -5, 0, 13, 13, 5, 0, -1,-0.6499584409798773,1.1158681428190615,1
1503685387357,+0.244,+0.204,-0.489,-0.812,+0.938,-0.110,-0.397,-12.438,-1.500,+15.688,-9, -11, -5, -5, -7, -3, 1, 2,-0.6414890940429636,1.1146224027356977,1
1503685387379,+0.241,+0.204,-0.488,-0.813,+0.936,-0.100,-0.389,-12.812,-5.062,+16.250,-4, -3, -7, -6, 0, -1, -2, -4,-0.6358760398556991,1.1120297281873615,1
1503685387401,+0.239,+0.204,-0.487,-0.815,+0.921,-0.109,-0.393,-10.188,-6.500,+13.938,10, 6, -3, 0, -2, -1, -3, 2,-0.6325437435502622,1.1100528827040124,1
1503685387417,+0.237,+0.204,-0.486,-0.816,+0.928,-0.115,-0.416,-6.312,-5.688,+12.250,3, 0, 0, -3, -4, -1, -2, 2,-0.6288223040101211,1.1076415075559696,1
1503685387439,+0.235,+0.205,-0.485,-0.817,+0.928,-0.125,-0.419,-2.688,-5.312,+12.438,-10, -8, -7, -2, 1, 0, 1, 1,-0.6263737911875109,1.106177136851323,1
1503685387461,+0.234,+0.206,-0.484,-0.818,+0.926,-0.145,-0.423,+0.625,-3.312,+12.500,-3, 21, 33, 11, 0, 2, -1, 1,-0.6258098234730535,1.1048995897514489,1
1503685387476,+0.232,+0.209,-0.482,-0.818,+0.922,-0.162,-0.429,+5.750,-1.438,+12.875,10, 9, 2, -3, -3, -2, -1, -2,-0.6251962434926693,1.1024386204336545,1
1503685393603,+0.343,+0.306,-0.551,-0.697,+0.954,-0.048,-0.192,-31.750,-20.188,-8.125,-27, -8, 2, -5, -8, -3, -4, -8,-0.9545912055568908,1.363663215847963,2
1503685393630,+0.342,+0.301,-0.550,-0.699,+0.988,-0.026,-0.214,-27.125,-16.812,-6.062,8, 1, 3, 3, 0, -2, 1, 0,-0.9449571014529109,1.3548865262054144,2
1503685393642,+0.342,+0.297,-0.549,-0.703,+1.037,-0.036,-0.219,-24.500,-22.562,-1.250,-9, -9, 10, 0, 1, 2, -1, -1,-0.9397541624023313,1.3481199977444698,2
1503685393664,+0.341,+0.293,-0.547,-0.706,+1.012,-0.042,-0.199,-21.688,-22.250,+0.312,5, 3, -2, -1, -4, -3, -1, 1,-0.9319278877141932,1.3386012719912073,2
1503685393686,+0.341,+0.290,-0.545,-0.709,+0.988,-0.038,-0.229,-18.688,-22.500,-0.875,9, -2, 2, 3, 1, 1, 3, 7,-0.9276879112447559,1.3305723552601176,2
1503685393702,+0.340,+0.286,-0.543,-0.712,+0.975,-0.032,-0.232,-17.062,-20.312,+0.938,1, -1, -4, -6, -8, -5, -2, 2,-0.9199747127637614,1.321172225181169,2
1503685393724,+0.339,+0.284,-0.542,-0.715,+1.018,-0.040,-0.245,-15.438,-13.875,+7.562,-6, -1, -4, 1, 7, 0, -4, -10,-0.9157877178417817,1.3168340330384134,2
1503685393746,+0.337,+0.284,-0.540,-0.717,+1.027,-0.043,-0.254,-11.625,-10.375,+12.688,-1, 6, 6, 10, 6, 2, 1, -1,-0.9120265971981935,1.3121788966462355,2
1503685393769,+0.335,+0.283,-0.538,-0.720,+1.029,-0.052,-0.248,-8.250,-12.500,+14.875,5, 1, 0, -5, -5, 0, -3, -2,-0.9071199252380253,1.306538580395992,2
1503685393783,+0.333,+0.284,-0.536,-0.722,+1.044,-0.062,-0.258,-6.250,-12.750,+17.875,4, 4, -2, -2, -7, -6, -4, 2,-0.904914827411907,1.3031679354544474,2
1503685393806,+0.330,+0.285,-0.533,-0.725,+1.036,-0.078,-0.237,-2.562,-11.438,+24.562,-6, -3, -4, -1, 8, 4, 3, -11,-0.9008264557077054,1.297492363557057,2
1503685393821,+0.327,+0.288,-0.530,-0.727,+1.017,-0.095,-0.238,+0.375,-10.625,+28.875,0, 3, 16, 2, -1, -1, 0, 1,-0.8994512992231102,1.2941170751444537,2
1503685393843,+0.324,+0.290,-0.528,-0.730,+0.986,-0.104,-0.250,+1.000,-7.500,+31.812,4, 2, -3, -2, -2, -2, 0, 1,-0.8972897600017767,1.2922178823758326,2
1503685393866,+0.320,+0.294,-0.525,-0.732,+0.978,-0.114,-0.238,+1.500,-4.875,+33.625,-2, -3, -5, -10, -2, 2, -2, 1,-0.8955973606192293,1.290065190279475,2
1503685393882,+0.316,+0.297,-0.522,-0.734,+0.993,-0.106,-0.261,+3.812,-3.062,+36.750,-6, -7, -5, 4, 10, 1, -6, -3,-0.8923594015516552,1.28665061592583,2
1503685393903,+0.312,+0.301,-0.519,-0.737,+0.975,-0.104,-0.276,+5.125,-7.188,+42.938,6, 6, 1, -4, -3, 2, 10, 17,-0.8911410397369653,1.2849072853729944,2
1503685393927,+0.308,+0.305,-0.514,-0.740,+0.943,-0.114,-0.257,+6.062,-12.438,+44.750,1, -3, -8, -5, -5, -2, -1, 6,-0.8891842038207993,1.2783939357445124,2
1503685393941,+0.304,+0.309,-0.510,-0.743,+0.910,-0.114,-0.254,+7.062,-12.312,+43.125,-14, -10, -7, -6, -10, -7, -5, -12,-0.8876319129970404,1.2743817249138665,2
1503685393964,+0.300,+0.312,-0.506,-0.746,+0.868,-0.105,-0.253,+7.312,-9.500,+39.750,14, 7, -5, -2, -2, -2, -3, 0,-0.8844724314659964,1.2690553078053906,2
1503685393986,+0.297,+0.316,-0.503,-0.747,+0.849,-0.116,-0.241,+6.688,-4.812,+33.125,-17, -15, -14, -4, -1, 1, 2, -4,-0.8844919400033652,1.2671604732793256,2
1503685394002,+0.295,+0.318,-0.502,-0.748,+0.843,-0.135,-0.223,+6.188,-0.062,+21.938,3, 19, 15, 7, 1, -1, -3, -2,-0.8839656584512157,1.2674963312173455,2
1503685394024,+0.295,+0.320,-0.502,-0.747,+0.866,-0.169,-0.189,+7.875,+5.500,+3.000,3, -5, -7, -5, -9, -3, -1, 6,-0.8868875383589939,1.2700276726673017,2
1503685394046,+0.298,+0.321,-0.504,-0.744,+0.876,-0.197,-0.165,+8.375,+11.250,-20.875,-1, 0, 15, 5, 0, -2, -1, -2,-0.893899583333398,1.2759262207144682,2
1503685394062,+0.302,+0.320,-0.508,-0.740,+0.909,-0.219,-0.152,+5.312,+15.500,-41.312,-1, 2, -1, -2, -2, -5, -4, -13,-0.8999149451500579,1.2836783654159842,2
1503685394085,+0.307,+0.316,-0.513,-0.736,+0.936,-0.227,-0.150,-3.562,+15.750,-54.125,28, 11, -7, -1, 0, -3, -3, 0,-0.9032505396178955,1.2898089731705746,2
1503685394106,+0.313,+0.311,-0.519,-0.732,+0.965,-0.194,-0.151,-12.625,+13.562,-60.688,-28, -8, -1, -3, -3, 1, -1, -6,-0.9072557706687615,1.2972286706910245,2
1503685394122,+0.319,+0.305,-0.524,-0.729,+0.970,-0.113,-0.196,-13.375,+4.438,-61.062,6, 0, 0, 0, 0, 1, 6, 9,-0.9096951111091243,1.3012783340346132,2
1503685394144,+0.326,+0.298,-0.527,-0.726,+0.948,-0.038,-0.249,-9.188,-3.000,-57.000,-2, 1, 2, 1, 1, -1, 2, 0,-0.9118267950857288,1.2994564779982878,2
1503685394166,+0.332,+0.292,-0.529,-0.725,+0.920,-0.016,-0.237,-8.125,-7.375,-51.188,0, 5, 7, 3, 0, 0, 2, -7,-0.9142481291615169,1.297085863479327,2
1503685394182,+0.337,+0.287,-0.531,-0.723,+0.970,-0.018,-0.245,-8.000,-2.125,-39.750,-10, -8, -4, -1, 0, -1, -2, -2,-0.9160377831160194,1.295680031975069,2
1503685402070,+0.188,+0.265,-0.532,-0.782,+0.948,-0.201,-0.293,-18.875,-17.000,+37.875,1, 2, 4, 0, -2, -3, -3, -4,-0.6306792509134104,1.26561570022069,3
1503685402093,+0.182,+0.265,-0.528,-0.786,+0.912,-0.226,-0.296,-15.688,-16.625,+36.438,-12, -4, 3, -3, -3, -2, -1, -9,-0.6196647196089137,1.2557082081782627,3
1503685402108,+0.178,+0.266,-0.524,-0.789,+0.878,-0.229,-0.303,-12.438,-15.750,+29.500,11, 2, -4, -2, 0, -1, -1, 1,-0.6133108950245089,1.246950812482774,3
1503685402131,+0.175,+0.266,-0.522,-0.792,+0.894,-0.244,-0.269,-8.625,-15.062,+17.562,9, 6, 2, 1, 0, -1, -1, 3,-0.6080586198786991,1.2423392153581951,3
1503685402155,+0.175,+0.266,-0.519,-0.793,+0.905,-0.265,-0.248,-5.312,-15.250,+3.562,-6, 1, 0, 0, -2, 1, 1, -1,-0.6070050116014751,1.2350123286764676,3
1503685402168,+0.177,+0.265,-0.518,-0.794,+0.896,-0.290,-0.232,-3.562,-14.625,-13.062,-6, -5, -7, -2, -2, -2, 1, 1,-0.6088636315837109,1.232019237717208,3
1503685402191,+0.180,+0.262,-0.518,-0.794,+0.909,-0.308,-0.203,-5.812,-10.812,-25.062,3, -6, -5, 0, 0, -1, 3, 1,-0.6096599736805076,1.2291288542333998,3
1503685402213,+0.182,+0.259,-0.520,-0.794,+0.946,-0.302,-0.210,-13.812,-4.375,-26.750,-6, -1, 1, 0, -1, -2, -2, -2,-0.6096028631720792,1.2311950289677138,3
1503685402228,+0.182,+0.255,-0.522,-0.793,+0.970,-0.252,-0.234,-21.562,+3.625,-21.750,-2, -4, -4, -3, -3, 1, 0, -3,-0.6042506587810366,1.2314797377870617,3
1503685402253,+0.184,+0.251,-0.523,-0.793,+0.974,-0.144,-0.332,-16.625,+1.812,-18.438,-6, -8, -6, -5, -1, -1, -4, -6,-0.6023280858802899,1.2299779398939816,3
1503685402273,+0.188,+0.246,-0.523,-0.794,+0.897,-0.046,-0.355,-9.062,-11.062,-20.125,12, 1, -1, -3, -2, -2, -1, 10,-0.6024280511501695,1.225602566101634,3
1503685402288,+0.192,+0.241,-0.520,-0.797,+0.875,-0.003,-0.353,-3.750,-27.062,-17.062,0, -1, -3, -1, 2, 1, 2, 0,-0.6020671770117454,1.2144026517187663,3
1503685402310,+0.195,+0.240,-0.516,-0.799,+0.909,-0.134,-0.325,+0.625,-30.062,-6.562,0, -3, 1, 0, -2, 0, 1, -2,-0.6050313932298561,1.2044325602973238,3
1503685402333,+0.195,+0.239,-0.513,-0.801,+0.945,-0.286,-0.291,-2.625,-22.438,-3.500,-2, 20, 44, 15, 2, 1, -1, -3,-0.6030666440976086,1.1965180284737542,3
1503685402348,+0.196,+0.238,-0.511,-0.802,+0.937,-0.319,-0.257,-6.438,-16.312,-14.750,-8, -15, -23, -10, -4, -2, -1, -1,-0.6029808338379963,1.1909567875250688,3
1503685402371,+0.199,+0.236,-0.514,-0.800,+0.950,-0.300,-0.163,-12.188,-1.062,-34.562,-6, -4, -7, -2, -2, -1, 2, -4,-0.6060873268403695,1.1962452868992293,3
1503685402393,+0.201,+0.231,-0.521,-0.797,+0.981,-0.253,-0.125,-24.438,+20.812,-41.688,-2, -2, -6, -7, 6, 3, -8, -2,-0.6043894027861989,1.2080957778092625,3
1503685402408,+0.203,+0.226,-0.528,-0.793,+1.021,-0.117,-0.297,-21.625,+37.500,-36.688,4, 1, 1, 1, 0, 3, 5, 3,-0.6022922384942129,1.2197438409501042,3
1503685402431,+0.207,+0.222,-0.533,-0.790,+0.978,-0.019,-0.395,-8.062,+25.438,-32.875,-2, -6, -12, -5, -4, -8, -5, -5,-0.6046931494227326,1.2280900977131104,3
1503685402455,+0.212,+0.218,-0.534,-0.789,+0.980,-0.022,-0.355,-0.688,+0.375,-29.375,-7, -4, -5, 5, -2, -2, -2, -4,-0.6080987158853347,1.2271262365692628,3
1503685402468,+0.215,+0.216,-0.534,-0.789,+0.994,-0.070,-0.333,+1.562,-1.500,-17.062,1, 18, 26, 10, 1, 1, 1, -4,-0.6107188757483929,1.225633997414422,3
1503685402491,+0.214,+0.216,-0.534,-0.789,+0.966,-0.086,-0.320,-1.500,+2.688,+3.375,5, 2, -7, -1, 4, 0, 0, 6,-0.608922777125757,1.2254869127886068,3
1503685402513,+0.212,+0.217,-0.532,-0.791,+0.958,-0.073,-0.327,-2.562,-9.188,+18.125,-2, -17, -19, -10, -5, -4, -4, -2,-0.6066991761683295,1.2217685524130382,3
1503685402536,+0.210,+0.219,-0.529,-0.793,+0.957,-0.103,-0.333,+1.500,-15.375,+24.062,-5, 16, 24, 0, -8, -4, -1, -9,-0.6054811807359968,1.2164772353058977,3
1503685402550,+0.208,+0.221,-0.525,-0.795,+0.914,-0.165,-0.315,+6.062,-18.062,+21.750,-14, -15, -10, -6, -4, -3, -3, -3,-0.6038790833402111,1.2086611910971798,3
1503685402573,+0.207,+0.223,-0.522,-0.797,+0.920,-0.234,-0.250,+3.562,-16.938,+11.625,5, -5, -9, -7, -4, -2, -3, -4,-0.6044215251024148,1.2035853779185646,3
1503685402594,+0.207,+0.225,-0.522,-0.796,+0.921,-0.260,-0.225,-0.625,-0.938,-3.125,1, -3, -8, -8, -3, -2, -4, -3,-0.6068420702603727,1.2051971654875453,3
1503685402611,+0.208,+0.225,-0.526,-0.793,+0.880,-0.229,-0.219,-2.562,+23.750,-19.750,22, 14, 1, 2, 1, 1, 1, 3,-0.6090984465381932,1.2144283334845665,3
1503685402633,+0.209,+0.223,-0.534,-0.788,+0.950,-0.165,-0.189,-7.812,+42.250,-30.438,-8, -8, -4, 10, 19, 5, 1, 9,-0.6093397195445532,1.2312171339636901,3
1503685402648,+0.210,+0.221,-0.542,-0.783,+1.024,-0.069,-0.252,-7.375,+48.062,-25.812,-15, -14, -9, -9, -8, -1, 2, 2,-0.6095225143192587,1.2481609369544373,3
1503685402670,+0.213,+0.219,-0.546,-0.780,+1.002,+0.028,-0.335,+1.000,+22.688,-17.750,-5, -4, -1, 7, 8, 1, 0, -2,-0.6124484812616035,1.2558913368723055,3
1503685402694,+0.217,+0.218,-0.545,-0.780,+0.948,+0.013,-0.360,+9.312,-1.062,-14.125,4, 1, 1, -7, -3, 0, 0, 4,-0.6178079630291509,1.2528946243251,3
1503685402708,+0.221,+0.218,-0.544,-0.780,+0.933,-0.070,-0.349,+13.375,-3.938,-12.188,-1, -2, 0, 0, -3, -3, -3, -11,-0.6246017184468156,1.2508741933807934,3
1503685409916,+0.239,+0.293,-0.505,-0.776,+1.008,-0.200,-0.227,-16.438,-3.625,+13.000,-6, 0, 2, 5, 2, 0, -4, -7,-0.7512298568453913,1.2390315232034583,4
1503685409939,+0.236,+0.292,-0.507,-0.776,+0.963,-0.195,-0.244,-17.562,+7.688,+11.688,3, -7, -6, -5, -7, -4, 0, -1,-0.7450561210166374,1.242108052297678,4
1503685409954,+0.234,+0.290,-0.507,-0.777,+0.968,-0.227,-0.229,-17.750,-3.000,+5.688,4, 8, 9, 5, 0, 1, -2, 0,-0.7386259603837638,1.239491898215233,4
1503685409976,+0.231,+0.289,-0.508,-0.778,+0.938,-0.300,-0.167,-23.438,-2.250,+0.500,2, -2, -7, 3, 9, 2, 3, 4,-0.7323947028736859,1.2404586297150708,4
1503685409998,+0.227,+0.286,-0.510,-0.779,+0.941,-0.299,-0.186,-32.500,+5.250,-0.375,1, 5, 0, -2, -6, -4, -4, -2,-0.7216840526640018,1.2412128992038995,4
1503685410018,+0.222,+0.282,-0.514,-0.779,+0.930,-0.237,-0.205,-42.062,+12.938,+4.125,-1, -3, -5, -5, -1, 1, 4, -2,-0.708193483173721,1.2452730844973334,4
1503685410036,+0.218,+0.278,-0.518,-0.779,+0.911,-0.208,-0.244,-41.250,+20.000,+2.250,3, -21, -14, -1, -1, -1, -5, -1,-0.6965695525735429,1.249659955425173,4
1503685410058,+0.215,+0.274,-0.521,-0.780,+0.934,-0.251,-0.282,-31.250,+13.812,-5.750,-5, 6, 5, 7, 9, 1, -1, -5,-0.6866926164560339,1.2521702922761444,4
1503685410075,+0.214,+0.271,-0.522,-0.780,+0.949,-0.294,-0.309,-22.875,+2.812,-12.062,-3, 1, 2, -5, -11, -4, -4, -3,-0.680751688543643,1.2509360121999202,4
1503685410098,+0.213,+0.267,-0.522,-0.781,+0.957,-0.279,-0.307,-24.312,-1.375,-10.188,1, -27, -22, -6, -3, -2, -2, 2,-0.6732334351272661,1.2463823569993464,4
1503685410120,+0.211,+0.265,-0.524,-0.781,+0.970,-0.210,-0.310,-18.500,+12.500,-2.562,0, 4, 2, -2, -3, 1, 1, 3,-0.6674943600356561,1.2487633149485025,4
1503685410134,+0.209,+0.265,-0.526,-0.781,+0.986,-0.171,-0.327,-8.812,+15.750,+4.250,-9, -1, 3, -2, 2, 1, 2, 0,-0.66478216997052,1.2534886924473891,4
1503685410156,+0.208,+0.266,-0.527,-0.780,+0.997,-0.219,-0.296,-1.375,+7.750,+7.000,8, 8, 5, -1, 3, 0, -2, 0,-0.6646093862432557,1.2566829234444725,4
1503685410185,+0.208,+0.267,-0.526,-0.780,+0.963,-0.274,-0.258,+2.812,+0.812,+0.250,-6, 1, 2, -2, -7, -1, 1, -1,-0.6656977424099847,1.2553129420662488,4
1503685410194,+0.209,+0.266,-0.527,-0.780,+0.916,-0.213,-0.259,+0.188,+0.062,-14.438,-1, 0, -2, 3, 3, -1, 1, 4,-0.666385469659188,1.2568504347521408,4
1503685410217,+0.213,+0.263,-0.529,-0.779,+0.897,-0.104,-0.250,-6.062,+6.438,-25.125,-9, -6, -1, -4, -7, -3, -4, -8,-0.6694739971039418,1.2587797961484564,4
1503685410241,+0.216,+0.258,-0.533,-0.776,+0.910,-0.034,-0.261,-7.938,+13.938,-28.375,-4, -8, -9, -2, -2, -2, -1, 1,-0.6679347247670049,1.2627187454510782,4
1503685410254,+0.219,+0.254,-0.536,-0.775,+0.927,-0.003,-0.258,-8.750,+13.062,-25.625,-11, 2, 3, 2, 0, 1, 1, -8,-0.6681777961111551,1.2659932153813511,4
1503685410277,+0.222,+0.250,-0.538,-0.774,+0.943,-0.011,-0.239,-10.750,+2.500,-21.312,8, 8, 6, 7, 13, 2, -3, 4,-0.6680381454276828,1.2667854012266688,4
1503685410298,+0.224,+0.245,-0.540,-0.774,+0.939,+0.029,-0.262,-14.688,-2.750,-17.750,8, 20, 3, -5, -11, -4, -2, 3,-0.6650253196547983,1.2667317757602525,4
1503685410314,+0.226,+0.240,-0.540,-0.774,+0.905,+0.047,-0.250,-17.125,-6.875,-13.688,1, 4, 1, 1, 1, -1, 0, 5,-0.6612992895642622,1.2616774853570785,4
1503685410336,+0.228,+0.235,-0.541,-0.775,+0.902,+0.013,-0.238,-17.250,-8.688,-12.000,-2, -6, -4, -7, -11, -2, -2, -1,-0.658390032102963,1.259597002792565,4
1503685410358,+0.229,+0.230,-0.541,-0.776,+0.912,+0.005,-0.269,-17.500,-7.438,-12.500,0, -6, -2, -5, -6, -5, -3, 4,-0.6533835333270471,1.254917029470812,4
1503685410376,+0.230,+0.226,-0.542,-0.777,+0.933,-0.007,-0.278,-18.125,-7.062,-13.125,-1, 0, 1, 4, 8, 6, 2, -1,-0.6502285011903685,1.2538942515875584,4
1503685410396,+0.231,+0.221,-0.541,-0.778,+0.949,-0.035,-0.286,-18.188,-12.250,-9.125,3, 0, -2, -1, -3, 0, -3, -4,-0.6449964699263764,1.2468321288954336,4
1503685410418,+0.230,+0.218,-0.540,-0.780,+0.951,-0.064,-0.281,-20.250,-16.375,-3.250,1, 1, -1, 0, 2, -4, -8, -3,-0.6393849139483408,1.2418784377243657,4
1503685410435,+0.229,+0.214,-0.539,-0.782,+0.976,-0.083,-0.279,-22.375,-14.062,-0.062,2, -4, -2, -6, -8, -1, 3, 1,-0.6324214778289801,1.2360036823002654,4
1503685410456,+0.227,+0.211,-0.538,-0.784,+0.979,-0.098,-0.299,-23.750,-11.625,+2.625,20, 8, 4, 2, 4, 1, -1, -2,-0.6250689619558918,1.231006992835172,4
1503685410480,+0.225,+0.208,-0.537,-0.786,+0.958,-0.100,-0.311,-22.312,-12.812,+3.812,-7, -5, -9, -3, 2, 0, 1, -1,-0.617745003418841,1.2260538239960472,4
1503685410494,+0.222,+0.206,-0.535,-0.789,+1.007,-0.119,-0.310,-20.938,-15.562,+6.125,0, 7, -3, -3, 3, -3, -7, -2,-0.6100220606679397,1.2197376474913815,4
1503685410516,+0.220,+0.204,-0.533,-0.791,+1.006,-0.105,-0.320,-18.625,-17.000,+9.688,0, 7, 10, 5, 4, -4, 0, -7,-0.6037566290995381,1.2132217312101012,4
1503685410538,+0.218,+0.203,-0.531,-0.794,+0.983,-0.101,-0.327,-15.438,-16.938,+11.875,-8, -2, 1, 4, 4, 0, 5, -4,-0.5992080406201332,1.208024206572228,4
1503685410554,+0.215,+0.202,-0.529,-0.796,+0.967,-0.122,-0.326,-11.938,-15.500,+12.375,-7, -6, 1, -1, -1, 1, 3, 1,-0.5924885947520228,1.2023183258724865,4
1503685410577,+0.213,+0.202,-0.526,-0.798,+0.981,-0.122,-0.342,-8.562,-13.250,+15.625,-8, -9, -8, -5, -2, -1, 0, -3,-0.5885734163308679,1.195123221116014,4
1503685410598,+0.211,+0.203,-0.524,-0.800,+0.975,-0.121,-0.346,-4.125,-14.438,+18.312,3, 2, 2, 1, -1, 0, -1, 2,-0.5863161911517216,1.1914065793920918,4
1503685410614,+0.209,+0.204,-0.521,-0.802,+0.955,-0.118,-0.350,-0.688,-16.938,+18.188,-4, -3, 3, 4, 5, 1, 0, -4,-0.5837055463761475,1.1851488959268626,4
1503685410636,+0.207,+0.206,-0.518,-0.804,+0.948,-0.128,-0.354,+3.562,-14.062,+16.875,1, -8, -15, -6, -1, -2, -6, -4,-0.5824050833445997,1.1798297938109528,4
1503685410660,+0.206,+0.208,-0.515,-0.805,+0.940,-0.127,-0.347,+9.375,-9.500,+17.375,5, 10, 1, -1, 2, 1, -1, -1,-0.582552076128069,1.1742962541125814,4
1503685415640,+0.286,+0.298,-0.533,-0.738,+1.017,-0.126,-0.158,+1.875,+1.812,-21.000,-3, -2, 0, -1, -1, -1, -2, -2,-0.8432512846580205,1.31119859729095,5
1503685415661,+0.288,+0.297,-0.534,-0.737,+1.006,-0.094,-0.166,-1.188,+1.250,-14.062,1, -1, 0, -1, -1, -1, -2, -1,-0.8453618343819995,1.3123843786419354,5
1503685415683,+0.290,+0.295,-0.535,-0.736,+1.002,-0.089,-0.188,-2.125,-1.625,-11.438,0, -1, -1, -1, 0, 0, 0, 0,-0.8458693795365865,1.3122714592944869,5
1503685415699,+0.292,+0.294,-0.536,-0.736,+0.990,-0.088,-0.199,-2.000,-1.250,-12.062,-1, -1, -1, -1, -2, 1, 0, -3,-0.8483801818528368,1.3137419327227886,5
1503685415720,+0.294,+0.292,-0.537,-0.735,+0.959,-0.084,-0.216,-3.000,-0.938,-15.375,-3, -4, -3, -2, -1, -4, -1, -2,-0.8489098644757955,1.3136510560829746,5
1503685415742,+0.296,+0.290,-0.538,-0.734,+0.975,-0.071,-0.226,-2.312,+2.125,-19.688,0, -2, 1, 0, -1, -1, -2, 0,-0.8494524516226877,1.3135745963439245,5
1503685415759,+0.298,+0.288,-0.539,-0.733,+0.985,-0.048,-0.290,+0.625,+5.312,-13.375,-1, 1, -2, 1, 0, -1, 1, -2,-0.8500079752543643,1.3135125300058432,5
1503685415781,+0.301,+0.287,-0.539,-0.732,+0.955,-0.016,-0.284,+8.625,+2.688,-11.125,-2, 0, 1, 0, -1, -1, -3, 2,-0.853655549884577,1.3124069553850772,5
1503685415804,+0.305,+0.287,-0.539,-0.731,+0.954,-0.035,-0.255,+11.250,+1.125,-13.625,-2, 0, -1, -2, -3, -2, -2, -4,-0.8607860952025621,1.312719409527297,5
1503685415819,+0.308,+0.287,-0.539,-0.730,+0.984,-0.061,-0.225,+11.688,+1.750,-12.750,-2, 1, -2, -1, -1, 0, -1, -3,-0.8660515303763773,1.312884316758715,5
1503685415841,+0.309,+0.288,-0.539,-0.729,+1.016,-0.074,-0.185,+6.938,+1.625,-7.750,2, 1, 0, 0, -1, 1, 2, 0,-0.8691226289703685,1.3140293470785882,5
1503685415862,+0.310,+0.288,-0.539,-0.728,+1.000,-0.061,-0.204,+4.062,-0.250,-3.438,-2, -2, -2, -1, 0, -1, 0, -4,-0.8706147551882636,1.3139013536278084,5
1503685415879,+0.312,+0.288,-0.539,-0.727,+0.969,-0.024,-0.225,+4.625,-0.438,-5.688,-4, -5, -1, -1, -1, -2, 0, -2,-0.8740040278845161,1.3139202290292613,5
1503685415901,+0.314,+0.287,-0.539,-0.727,+0.972,-0.018,-0.221,+6.375,-0.625,-7.875,0, 0, 1, 1, -1, -1, 0, -1,-0.8762237325474397,1.312938046314167,5
1503685415922,+0.316,+0.287,-0.539,-0.726,+1.004,-0.016,-0.230,+6.562,-1.250,-4.312,1, -1, -1, 0, 0, 1, 2, 4,-0.8796267773270611,1.3129559513022948,5
1503685415939,+0.317,+0.287,-0.539,-0.726,+0.979,-0.013,-0.219,+4.562,-1.438,+0.812,-3, -4, -2, -2, -1, -3, -4, -1,-0.8815328438975604,1.313102680549935,5
1503685415961,+0.317,+0.287,-0.538,-0.726,+0.971,-0.005,-0.187,-0.062,-3.812,+4.062,-2, -1, -1, -2, -1, -1, -2, -4,-0.881166665343879,1.3106415677411478,5
1503685415983,+0.317,+0.286,-0.538,-0.727,+0.955,-0.004,-0.203,-3.625,-6.625,+4.312,3, 2, 1, 1, 0, 0, 1, 3,-0.879998164812566,1.309645229752746,5
1503685415998,+0.317,+0.285,-0.538,-0.728,+0.942,-0.010,-0.209,-7.188,-4.375,+3.500,-1, -2, -2, -3, 0, 1, 2, 2,-0.8788336638012373,1.3086542056249102,5
1503685416020,+0.316,+0.284,-0.538,-0.728,+0.967,-0.012,-0.216,-9.750,-4.438,+5.062,-3, 6, 8, 0, -1, -2, -1, -6,-0.8753575720866034,1.3072396964918471,5
1503685416043,+0.315,+0.282,-0.537,-0.730,+0.962,-0.014,-0.202,-12.562,-8.062,+6.188,3, 1, -4, -3, 0, -3, 0, 5,-0.8707722638689359,1.3026698825720722,5
1503685416059,+0.314,+0.280,-0.537,-0.731,+0.964,-0.021,-0.205,-15.750,-5.688,+5.938,0, -1, -1, -1, 0, 0, 0, -1,-0.866158477124925,1.3002979140929904,5
1503685416081,+0.312,+0.277,-0.537,-0.733,+0.954,-0.011,-0.239,-17.938,-5.438,+4.312,-4, -4, -3, 0, 0, -1, -2, -2,-0.8585119192705392,1.296842503472633,5
1503685416102,+0.311,+0.275,-0.537,-0.734,+0.945,-0.019,-0.261,-16.625,-7.562,+2.188,-1, 0, -2, -1, -2, -3, -3, -5,-0.8539302307295076,1.2945144109670486,5
1503685416119,+0.310,+0.272,-0.536,-0.736,+0.947,-0.036,-0.261,-15.250,-8.438,+2.875,-2, -1, 2, -1, -1, 0, 1, 1,-0.8478795954311158,1.2888021576132478,5
1503685416141,+0.309,+0.270,-0.535,-0.738,+0.962,-0.062,-0.255,-15.938,-9.938,+4.250,0, 1, -1, 1, 0, -1, -2, -4,-0.8433821783208809,1.2843402350766588,5
1503685416162,+0.308,+0.268,-0.534,-0.740,+0.960,-0.062,-0.265,-17.188,-10.875,+4.312,-3, -3, -2, 0, -4, -1, -1, -2,-0.8389004322519478,1.2798988761053378,5
1503685416180,+0.307,+0.265,-0.534,-0.742,+0.947,-0.051,-0.271,-16.438,-9.938,+3.375,0, 2, 0, -2, 2, 0, 1, 3,-0.8332851383735173,1.2767595365942166,5
1503685416200,+0.306,+0.263,-0.533,-0.744,+0.952,-0.046,-0.273,-14.500,-8.875,+3.062,-1, 2, 1, 1, -1, -1, -2, 0,-0.8288408108698248,1.2723672206361964,5
1503685416222,+0.304,+0.262,-0.532,-0.745,+0.966,-0.054,-0.279,-13.125,-5.250,+6.750,1, 3, 3, -1, -1, -1, -2, 1,-0.823580288908403,1.268704521415852,5
1503685416240,+0.302,+0.261,-0.531,-0.747,+0.974,-0.063,-0.274,-11.812,-7.750,+8.625,-1, -2, 2, 7, 4, 0, -4, -2,-0.8187399440816214,1.265363617475337,5
1503685416260,+0.301,+0.260,-0.530,-0.749,+0.972,-0.068,-0.273,-9.625,-10.750,+7.000,1, 0, 0, -4, -2, -1, 2, 0,-0.8158122426178217,1.262188644459839,5
1503685416282,+0.301,+0.259,-0.528,-0.751,+0.964,-0.082,-0.277,-7.062,-10.938,+4.625,3, 0, -2, 1, 6, 2, 3, 3,-0.8144417456681411,1.2567041106517702,5
1503685416298,+0.300,+0.258,-0.527,-0.752,+0.962,-0.100,-0.273,-5.062,-9.375,+3.375,0, -1, 3, 7, 11, 2, -1, 1,-0.8111087358184466,1.2532206090499862,5
1503685416321,+0.299,+0.258,-0.526,-0.753,+0.967,-0.101,-0.279,-4.750,-7.812,+4.188,-1, -1, 1, 9, -3, -4, -6, -6,-0.80925551520312,1.2509107554556889,5
1503685416343,+0.299,+0.258,-0.525,-0.754,+0.979,-0.092,-0.266,-5.188,-7.312,+5.062,0, -2, -6, -12, -6, -7, 1, 2,-0.8093122566910341,1.2487660897343935,5
1503685416358,+0.298,+0.258,-0.524,-0.755,+0.984,-0.101,-0.256,-5.562,-7.188,+5.375,-1, 2, -1, -5, -6, 1, 2, 1,-0.8074571430935233,1.2464600940708583,5
1503685416382,+0.297,+0.258,-0.523,-0.756,+0.970,-0.112,-0.255,-5.875,-5.625,+6.312,-5, -5, -7, -13, -14, -3, -2, -4,-0.8056013761969489,1.2441554247023703,5
1503685416403,+0.295,+0.258,-0.523,-0.757,+0.975,-0.096,-0.269,-6.062,-3.812,+8.062,2, -3, -4, -2, -1, 1, 1, 0,-0.8021961745286227,1.2441599314686245,5
1503685422628,+0.367,+0.333,-0.541,-0.679,+0.975,-0.039,-0.159,-13.500,-4.812,-1.562,5, 13, 10, 2, 1, 0, 1, 0,-1.0358503189059975,1.3763093579771877,6
1503685422643,+0.367,+0.331,-0.542,-0.680,+0.964,-0.005,-0.159,-13.938,-3.062,-5.312,-6, -5, -3, -3, -2, 1, -1, 0,-1.0331707177321117,1.3760165309861097,6
1503685422666,+0.367,+0.328,-0.542,-0.681,+0.962,+0.008,-0.153,-14.375,-5.562,-0.562,10, 0, -3, -3, -2, -4, -4, -4,-1.0284789658392188,1.3719153251422918,6
1503685422688,+0.366,+0.327,-0.542,-0.682,+0.978,+0.010,-0.177,-13.062,-4.812,+7.625,-5, -3, 2, -1, -4, 0, 2, 2,-1.0252123137400484,1.370569204053499,6
1503685422704,+0.364,+0.326,-0.542,-0.684,+1.001,+0.005,-0.151,-11.062,-5.000,+13.375,-1, 1, 1, -2, 3, -2, 0, 4,-1.020371748335783,1.3693142852084939,6
1503685422726,+0.362,+0.326,-0.541,-0.685,+1.013,-0.018,-0.169,-6.438,-2.438,+15.688,0, -2, -3, 8, 10, 2, -1, -2,-1.016495970033756,1.3668686990402816,6
1503685422748,+0.360,+0.328,-0.540,-0.687,+0.996,-0.050,-0.204,-0.938,+0.750,+15.312,-7, 5, 10, 0, -3, -1, -2, -5,-1.0163739873289537,1.3675016540334546,6
1503685422763,+0.359,+0.330,-0.539,-0.687,+0.976,-0.066,-0.224,+6.250,+4.250,+13.500,-2, 7, 1, -2, -4, -2, -2, 6,-1.0174577179600568,1.36784665280853,6
1503685422786,+0.359,+0.333,-0.537,-0.687,+1.002,-0.093,-0.240,+13.250,+6.188,+11.875,0, 0, -5, -5, -2, -1, 0, 0,-1.021852844197875,1.3674065137654705,6
1503685422808,+0.360,+0.336,-0.535,-0.687,+0.979,-0.112,-0.243,+19.438,+3.188,+8.938,0, -2, -1, 9, 11, 0, -2, -1,-1.0282172046936793,1.3671533153930349,6
1503685422823,+0.362,+0.339,-0.533,-0.685,+0.971,-0.090,-0.182,+25.688,+1.688,+1.250,-2, 1, 2, -1, -5, -1, 1, -5,-1.0358135645754298,1.3666582344677696,6
1503685422846,+0.364,+0.343,-0.532,-0.683,+0.993,-0.077,-0.168,+27.812,+6.500,-0.062,3, -2, -7, -7, -7, -3, 1, -4,-1.0455181561644489,1.3700835418787987,6
1503685422868,+0.366,+0.347,-0.531,-0.681,+0.982,-0.097,-0.200,+29.500,+11.938,+3.125,-6, -2, -3, -3, 1, -1, 0, 5,-1.055276479649828,1.3735830005444345,6
1503685422883,+0.369,+0.352,-0.529,-0.678,+0.953,-0.104,-0.156,+31.125,+7.938,-0.938,-4, -4, -1, 3, 5, 1, -2, -8,-1.0680929934160845,1.3762660547609296,6
1503685422908,+0.373,+0.355,-0.529,-0.675,+0.960,-0.088,-0.127,+32.938,+5.000,-12.125,-3, -8, -5, -8, -9, -2, -3, -4,-1.0801154678632972,1.3808054626131112,6
1503685422927,+0.377,+0.358,-0.529,-0.671,+1.005,-0.100,-0.077,+29.812,+10.750,-17.938,-1, -6, -5, -4, -3, 0, -3, -2,-1.0918368102526355,1.3851840444786239,6
1503685422950,+0.379,+0.361,-0.530,-0.667,+1.021,-0.101,-0.063,+25.562,+10.812,-12.875,2, 16, 26, 9, 5, 1, 3, 3,-1.1000115203123946,1.3916767830884957,6
1503685422964,+0.382,+0.363,-0.529,-0.665,+1.007,-0.080,-0.082,+18.125,-1.688,-5.938,-9, 3, -2, -4, -3, -3, -2, 0,-1.1084435598632436,1.3924884826855932,6
1503685422987,+0.383,+0.363,-0.528,-0.665,+0.997,-0.068,-0.066,+9.000,-11.375,-2.188,1, -5, -9, -7, -6, -2, -2, -3,-1.1100878797216867,1.390293158561204,6
1503685423010,+0.383,+0.364,-0.527,-0.665,+1.016,-0.081,-0.052,-1.688,-7.625,+4.938,12, 8, -2, -6, -6, -1, -3, -5,-1.111541517727885,1.3895436040887807,6
1503685423024,+0.382,+0.363,-0.527,-0.667,+0.967,-0.056,-0.060,-9.312,-6.750,+7.562,-1, 0, 0, 1, -4, -2, 0, -4,-1.1084775676054965,1.3882203874169403,6
1503685423047,+0.381,+0.361,-0.528,-0.668,+0.983,-0.054,-0.040,-19.625,-11.188,-0.875,-3, -6, -7, 0, 1, 2, 5, 3,-1.1036322487720416,1.3874707713373668,6
1503685423070,+0.380,+0.356,-0.529,-0.670,+0.995,-0.032,-0.078,-27.062,-12.125,-4.938,2, -1, 2, 3, 3, -2, -3, 0,-1.0938689381301694,1.3822892976061125,6
1503685423085,+0.378,+0.352,-0.531,-0.672,+0.965,-0.018,-0.132,-31.375,-9.250,-2.438,-3, 30, 40, 15, 6, 3, 2, 0,-1.0842877279434373,1.3809541650586588,6
1503685423108,+0.376,+0.347,-0.533,-0.674,+0.942,-0.008,-0.119,-34.438,-7.312,-2.500,6, -8, -11, -3, -2, -2, 0, 9,-1.0730308458037046,1.3781977641960235,6
1503685423130,+0.374,+0.342,-0.534,-0.677,+0.981,-0.026,-0.123,-36.688,-9.750,-3.312,-8, -15, -14, -4, -2, -2, -3, -9,-1.0618859178042561,1.3734109830148935,6
1503685423145,+0.372,+0.336,-0.536,-0.680,+1.015,-0.050,-0.130,-39.938,-13.000,-3.062,3, 2, 4, 1, 0, 0, 1, 4,-1.0494605974625548,1.3696444560150447,6
1503685423167,+0.369,+0.330,-0.537,-0.683,+1.011,-0.020,-0.135,-43.812,-15.562,-1.750,4, -4, -5, -2, 2, -2, -4, -4,-1.0348481093539548,1.36353480089761,6
1503685423190,+0.366,+0.324,-0.538,-0.687,+0.990,+0.023,-0.151,-45.000,-18.312,+3.938,-6, -4, -4, 0, 1, 0, -4, -4,-1.0207348689099172,1.357808261941263,6
1503685423205,+0.362,+0.318,-0.538,-0.691,+0.994,+0.016,-0.178,-43.625,-16.312,+11.250,1, -5, -9, -4, -3, -3, -1, 2,-1.0044404780702154,1.3497060307810955,6
1503685423227,+0.358,+0.313,-0.538,-0.696,+1.011,-0.041,-0.191,-40.188,-19.312,+13.562,-13, -5, -1, 0, 0, 1, -2, -1,-0.99030460721126,1.3433783220650994,6
1503685423251,+0.354,+0.309,-0.537,-0.701,+1.029,-0.087,-0.200,-39.688,-21.000,+13.000,3, -4, -7, -3, 1, 0, -2, -1,-0.9775540461408279,1.3361225174930675,6
1503685423264,+0.351,+0.305,-0.536,-0.705,+0.980,-0.062,-0.228,-35.125,-18.875,+9.812,3, 2, 1, -2, -3, -2, 1, 2,-0.9664361682938567,1.3288374382239738,6
1503685423287,+0.349,+0.301,-0.535,-0.709,+0.963,-0.061,-0.230,-29.375,-17.312,+4.562,3, -2, 1, -1, 1, -1, -1, 0,-0.9573402695779488,1.3217742620903303,6
1503685423310,+0.347,+0.297,-0.534,-0.712,+0.984,-0.071,-0.235,-26.938,-16.062,+3.062,-9, -7, -4, 1, 3, 0, 0, -4,-0.9479019305072248,1.3145189426197397,6
1503685423324,+0.344,+0.294,-0.533,-0.715,+1.000,-0.095,-0.226,-25.000,-11.750,+3.188,-3, 0, 2, 1, 0, 0, -2, -6,-0.9381403053326287,1.3084908818127623,6
1503685423347,+0.343,+0.291,-0.533,-0.717,+0.990,-0.085,-0.242,-21.250,-9.375,+2.312,-2, -4, -4, -4, -2, -2, 0, 2,-0.9322696558354044,1.3049642653848512,6
1503685423370,+0.341,+0.289,-0.532,-0.719,+0.973,-0.059,-0.254,-16.688,-11.625,+2.500,0, 0, -2, 1, -1, 0, 1, 3,-0.9256884426402056,1.300181333629688,6
1503685423385,+0.340,+0.287,-0.531,-0.721,+0.964,-0.064,-0.248,-13.062,-11.000,+6.750,9, 12, 11, 2, 0, 0, 0, 2,-0.9210807538141742,1.2955706544153247,6
1503685423410,+0.338,+0.287,-0.529,-0.724,+0.986,-0.068,-0.242,-9.500,-10.938,+12.312,-3, -5, -9, -3, -4, -1, -1, -2,-0.9177041206819744,1.2912517549469715,6
1503685423429,+0.336,+0.287,-0.527,-0.726,+0.979,-0.066,-0.278,-5.750,-11.500,+18.625,-1, -3, -3, 0, -2, -1, -1, -2,-0.9139149600575665,1.2866487426054383,6
1503685428592,+0.206,+0.302,-0.542,-0.756,+0.959,-0.247,-0.166,+11.750,+2.312,+4.500,-2, -2, 1, 1, -1, -1, 0, -1,-0.7170571508668017,1.3317270616097832,7
1503685428612,+0.207,+0.305,-0.541,-0.756,+0.939,-0.254,-0.127,+10.188,-4.250,+5.188,-2, 0, -1, -2, -2, -1, -1, 1,-0.723302528750239,1.3332845039234902,7
1503685428627,+0.206,+0.306,-0.541,-0.756,+0.904,-0.258,-0.141,+2.000,-2.438,+4.125,2, -2, -1, -1, -2, -1, -3, 0,-0.7232404835457662,1.3344596230354386,7
1503685428649,+0.205,+0.306,-0.541,-0.756,+0.915,-0.221,-0.170,-2.562,+4.875,+5.562,0, -1, -1, -1, -1, -2, -2, -1,-0.721512029498938,1.334311966227403,7
1503685428672,+0.204,+0.307,-0.542,-0.755,+0.938,-0.213,-0.173,-2.000,+9.875,+4.562,0, 0, -1, -1, 0, -1, 2, 1,-0.7216164666733217,1.3377660441645267,7
1503685428687,+0.204,+0.307,-0.543,-0.755,+0.961,-0.215,-0.157,-0.812,+2.500,+1.500,-1, -1, -1, -1, -1, 0, 0, 0,-0.7220914432330607,1.340299925254055,7
1503685428710,+0.205,+0.307,-0.542,-0.755,+0.958,-0.228,-0.153,-2.188,-5.000,-0.875,-1, 1, 1, -1, -1, 2, 0, -1,-0.7233414154285419,1.3379121449681752,7
1503685428732,+0.204,+0.306,-0.542,-0.755,+0.953,-0.229,-0.160,-6.000,-1.750,-1.062,-2, -1, 1, -1, -2, -1, 0, -2,-0.7199430303920303,1.3364388527853481,7
1503685428747,+0.204,+0.305,-0.543,-0.755,+0.926,-0.223,-0.168,-8.188,+3.625,-1.938,-1, 0, -3, -1, 2, -1, -2, -1,-0.7187460900480491,1.3376524863792068,7
1503685428770,+0.204,+0.303,-0.544,-0.756,+0.958,-0.185,-0.191,-6.750,-1.125,-2.375,-1, 2, 4, 0, 1, 0, -2, 1,-0.7162018560355372,1.3378177321557818,7
1503685428792,+0.205,+0.302,-0.543,-0.756,+0.938,-0.195,-0.189,-3.312,-4.562,-5.312,0, 0, -1, 0, 0, -1, 0, 2,-0.7157974538028273,1.3341174542655871,7
1503685428807,+0.207,+0.301,-0.544,-0.755,+0.928,-0.200,-0.183,+1.500,+5.125,-11.438,-1, 0, 2, 1, -1, 0, 1, 1,-0.7177438931118167,1.3353782405653396,7
1503685428829,+0.209,+0.301,-0.547,-0.753,+0.917,-0.208,-0.190,+4.125,+13.438,-16.562,-1, -3, -3, 0, -1, -3, -1, -1,-0.721950891929162,1.3427565079449935,7
1503685428852,+0.211,+0.300,-0.549,-0.751,+0.944,-0.209,-0.159,+5.062,+10.500,-20.375,-3, -3, 0, -1, -1, 0, -1, -3,-0.7240237849572542,1.3463036598381444,7
1503685428870,+0.215,+0.299,-0.551,-0.749,+0.956,-0.215,-0.143,+6.500,+3.688,-25.750,-1, -3, -3, -2, -2, 0, -3, -5,-0.7295415934370839,1.3501273179101054,7
1503685428889,+0.219,+0.297,-0.552,-0.748,+0.931,-0.205,-0.146,+5.438,-0.812,-27.938,1, -1, 0, 0, -2, -2, 1, 0,-0.7332841289562985,1.3503767944739178,7
1503685428914,+0.223,+0.296,-0.553,-0.746,+0.944,-0.226,-0.161,+3.750,+1.812,-26.750,0, 0, 3, 1, 0, -1, -2, 0,-0.7383577461851389,1.351666546770698,7
1503685428927,+0.225,+0.294,-0.555,-0.745,+0.971,-0.243,-0.140,-1.938,+4.438,-20.938,-2, 1, -2, -3, -2, -2, 0, -1,-0.739096517292072,1.3542032649837954,7
1503685428949,+0.225,+0.293,-0.556,-0.745,+1.012,-0.228,-0.117,-11.812,+3.625,-11.625,2, -2, -3, -2, -2, -1, -3, -2,-0.7378976163118821,1.3554718574371303,7
1503685428973,+0.223,+0.290,-0.557,-0.745,+1.000,-0.223,-0.091,-22.438,-4.625,-5.125,1, -2, -2, 0, -1, 0, 0, -1,-0.7299577700544365,1.353984924814017,7
1503685428987,+0.221,+0.286,-0.558,-0.747,+0.977,-0.230,-0.088,-29.438,-10.562,-6.312,-1, 2, 2, 1, 2, 0, -3, 0,-0.7210985193763998,1.3517974271264617,7
1503685429009,+0.220,+0.281,-0.558,-0.749,+0.953,-0.230,-0.092,-35.188,-13.062,-13.375,0, -3, -2, -1, 0, 1, -2, -2,-0.7119784406597655,1.3460552190569144,7
1503685429032,+0.219,+0.273,-0.560,-0.751,+0.965,-0.223,-0.099,-44.188,-15.000,-23.250,1, 2, 2, -1, 0, 0, 1, 1,-0.6990333789513372,1.3419789784875933,7
1503685429047,+0.218,+0.264,-0.561,-0.754,+0.978,-0.170,-0.132,-51.812,-17.750,-27.812,-3, 0, 1, -3, -2, 0, -1, -1,-0.6846211316449992,1.334755640862757,7
1503685429071,+0.217,+0.253,-0.562,-0.757,+0.945,-0.107,-0.174,-57.375,-19.375,-26.875,2, 0, -1, -1, 0, -1, -1, -1,-0.66738127344355,1.325693734395544,7
1503685429092,+0.216,+0.242,-0.563,-0.760,+0.939,-0.030,-0.229,-57.375,-17.000,-23.062,-1, -2, -2, 0, 0, -1, -2, -2,-0.6504694011169384,1.3171551173734992,7
1503685429110,+0.215,+0.232,-0.564,-0.762,+0.934,+0.003,-0.216,-53.812,-10.500,-22.812,-3, -3, -2, -1, -1, 0, 0, 0,-0.6349898896610958,1.3098555431486614,7
1503685429129,+0.217,+0.222,-0.566,-0.764,+0.962,+0.027,-0.256,-41.438,-10.500,-31.250,-1, -2, -1, -3, -2, -2, -1, 1,-0.6253736778973855,1.3059240710426692,7
1503685429152,+0.221,+0.212,-0.566,-0.766,+0.950,+0.076,-0.306,-31.312,-17.250,-36.562,-1, -2, -2, 0, -1, -1, -1, -1,-0.6188207806579056,1.2974290995092665,7
1503685429168,+0.225,+0.204,-0.563,-0.768,+0.931,+0.045,-0.306,-22.562,-29.750,-34.000,2, 4, 1, 0, 0, 0, -1, -2,-0.6143717270166466,1.2833152482743755,7
1503685429189,+0.228,+0.197,-0.561,-0.771,+0.960,+0.002,-0.288,-19.438,-28.812,-25.562,-2, -2, -1, -2, -2, -1, -2, -4,-0.6104964773599107,1.2731332934819564,7
1503685429212,+0.229,+0.193,-0.560,-0.773,+0.999,-0.017,-0.261,-17.188,-17.875,-15.750,0, 0, 1, 0, 1, -2, -1, -2,-0.6072498727630171,1.267788412520129,7
1503685429227,+0.230,+0.190,-0.559,-0.774,+0.984,-0.011,-0.311,-11.875,-10.562,-8.438,-4, -5, -2, -1, -1, -1, -1, 0,-0.6050371374527277,1.2630333208363742,7
1503685429249,+0.231,+0.188,-0.557,-0.775,+0.987,-0.037,-0.313,-5.375,-14.500,-7.562,0, 2, 2, 0, 1, -1, 0, 1,-0.6038964158213327,1.2565672357085553,7
1503685429272,+0.232,+0.187,-0.554,-0.777,+1.040,-0.067,-0.307,-2.625,-19.312,-5.188,0, 0, 0, -1, -2, -1, -1, -1,-0.6041957537472742,1.2487273456272356,7
1503685429287,+0.232,+0.186,-0.552,-0.779,+1.056,-0.083,-0.292,-3.125,-20.250,+0.188,-2, 0, -3, -1, -1, 0, 1, -1,-0.6030108574509185,1.2433882494469135,7
1503685429309,+0.232,+0.186,-0.549,-0.781,+1.012,-0.070,-0.295,-2.688,-20.688,+3.812,0, 1, 0, 0, -1, 0, 0, -2,-0.6028559093875943,1.2363306504010505,7
1503685429332,+0.232,+0.186,-0.546,-0.784,+0.999,-0.055,-0.312,-0.125,-21.000,+4.000,-1, -3, -3, 0, -1, -2, 0, 1,-0.6030833749734474,1.2296622163748567,7
1503685429348,+0.232,+0.186,-0.543,-0.785,+1.020,-0.054,-0.304,+2.062,-20.625,+5.688,1, 0, 0, 0, -1, 1, -1, -1,-0.6025459140792713,1.222285856722313,7
1503685429372,+0.232,+0.187,-0.540,-0.787,+1.028,-0.056,-0.308,+3.312,-18.812,+12.188,-2, -2, 0, 0, -1, 0, 0, -3,-0.6037047785332369,1.2161604237667807,7
1503685429392,+0.230,+0.189,-0.537,-0.789,+0.996,-0.058,-0.333,+6.438,-16.375,+17.375,-1, -1, -1, -1, -2, -1, -1, -1,-0.6025182980871778,1.21066787216873,7
1503685429414,+0.229,+0.192,-0.533,-0.791,+0.971,-0.064,-0.346,+10.062,-13.188,+20.438,-1, 0, -2, -2, -3, 0, -2, 0,-0.6041404104492619,1.2036576127249294,7
1503685429429,+0.228,+0.196,-0.531,-0.792,+0.979,-0.072,-0.335,+13.312,-7.875,+23.500,-3, -2, -1, -2, 0, 0, 0, 0,-0.6073294458544418,1.2023413680030173,7
1503685429452,+0.226,+0.200,-0.529,-0.793,+0.980,-0.084,-0.320,+16.125,-3.938,+25.500,2, 0, 0, 0, -2, -1, -2, 0,-0.6087063647639885,1.2009456936281473,7
1503685429475,+0.224,+0.205,-0.527,-0.794,+0.962,-0.107,-0.322,+16.375,-0.250,+25.875,-2, -5, -3, -3, -1, 1, -1, -4,-0.6114360874483326,1.2005368357278536,7
1503685429489,+0.222,+0.210,-0.526,-0.794,+0.938,-0.114,-0.298,+16.250,+2.438,+24.312,1, 2, 0, 2, -2, -1, -2, -3,-0.6141784644466377,1.2023829443734904,7
1503685429512,+0.220,+0.215,-0.525,-0.794,+0.914,-0.097,-0.284,+16.312,+1.562,+23.688,0, 0, 1, -1, 0, -3, 0, 0,-0.6169772892133057,1.2043156636889427,7
1503685435834,+0.161,+0.307,-0.563,-0.750,+0.835,-0.467,+0.027,+38.500,-13.438,-36.250,-4, -3, -4, 1, -2, 0, 1, -2,-0.6580303566222067,1.3847468697938692,8
1503685435856,+0.168,+0.311,-0.563,-0.748,+0.891,-0.511,+0.015,+37.938,-9.000,-38.125,-5, -14, 1, 0, 0, -1, 0, 9,-0.6758990473243819,1.390447261481112,8
1503685435872,+0.173,+0.314,-0.562,-0.745,+0.923,-0.481,-0.000,+30.625,-8.750,-33.000,0, 5, -2, -1, 0, -2, -4, -5,-0.6880132473422951,1.3918478829380023,8
1503685435894,+0.179,+0.315,-0.562,-0.743,+0.958,-0.399,-0.008,+25.562,-14.125,-30.438,-2, -1, 0, 0, -1, -1, 0, -4,-0.6991214585061805,1.3934804734850779,8
1503685435916,+0.185,+0.316,-0.561,-0.742,+0.954,-0.392,-0.031,+22.312,-14.250,-30.062,1, -1, -2, -2, -1, 2, 1, 0,-0.7100442106290386,1.392758397954212,8
1503685435939,+0.191,+0.317,-0.560,-0.741,+0.962,-0.364,-0.023,+21.688,-16.250,-28.625,1, -2, -2, -2, -1, 1, -1, 0,-0.7210096143845455,1.3920521485356268,8
1503685435954,+0.197,+0.318,-0.559,-0.740,+0.979,-0.347,-0.035,+21.062,-16.938,-29.188,-1, -4, -4, -2, -1, -1, -3, -1,-0.7320192536936033,1.3913616988655753,8
1503685435977,+0.202,+0.319,-0.559,-0.738,+0.993,-0.327,-0.068,+22.438,-9.438,-29.000,0, 1, 1, 1, 1, 0, 1, 2,-0.7415644067748848,1.3929032194196516,8
1503685435993,+0.207,+0.319,-0.559,-0.737,+1.005,-0.285,-0.094,+16.438,-6.125,-27.062,-1, -3, 3, 1, -1, -3, -1, 1,-0.7496985309694956,1.3932807085752286,8
1503685436015,+0.212,+0.318,-0.560,-0.735,+1.004,-0.233,-0.109,+13.875,-5.188,-24.750,5, 23, 0, -2, -1, -1, 1, -1,-0.7562830024946753,1.3946187295358181,8
1503685436039,+0.217,+0.318,-0.560,-0.734,+1.014,-0.200,-0.105,+15.250,-3.000,-23.125,-1, -3, -4, -2, -1, 0, -3, -2,-0.7644636835851645,1.3949889919188372,8
1503685436053,+0.221,+0.318,-0.561,-0.732,+1.039,-0.171,-0.120,+15.250,+1.312,-17.188,2, -7, -2, -1, -1, 1, 1, 6,-0.7711062815321557,1.3975662961512563,8
1503685436075,+0.224,+0.318,-0.562,-0.730,+1.032,-0.140,-0.122,+13.812,+4.000,-11.125,-1, -3, 0, -1, 0, -1, 0, 0,-0.776043011219963,1.400028566559775,8
1503685436096,+0.227,+0.318,-0.563,-0.728,+1.026,-0.138,-0.104,+10.000,+3.250,-6.812,-3, -4, -1, 0, -1, 0, -1, -4,-0.780978243565073,1.4024898433560795,8
1503685436113,+0.229,+0.318,-0.563,-0.727,+1.011,-0.147,-0.120,+8.375,-0.625,-7.062,1, -2, -6, -3, -2, -1, -1, -2,-0.7840714825562702,1.4025148488232082,8
1503685436135,+0.231,+0.318,-0.563,-0.727,+0.960,-0.143,-0.114,+4.875,-3.312,-8.500,-1, 1, -1, -2, 0, -1, -2, -3,-0.787500729881745,1.4027323936821525,8
1503685436156,+0.233,+0.316,-0.564,-0.726,+1.013,-0.141,-0.099,-1.562,+1.125,-10.375,-4, -6, -2, 0, -1, -2, -1, -2,-0.7876008697307432,1.4025623743278264,8
1503685436173,+0.232,+0.316,-0.566,-0.726,+1.034,-0.178,-0.094,-6.125,+5.375,-1.812,-1, 0, 0, -1, 0, -1, -1, 1,-0.7867937634648383,1.4074900970702866,8
1503685436195,+0.231,+0.314,-0.566,-0.726,+0.995,-0.165,-0.082,-16.188,-2.500,+2.812,-1, -6, -3, -2, -2, -1, -2, -1,-0.7816301902624309,1.4046958589730945,8
1503685436216,+0.228,+0.311,-0.568,-0.727,+0.973,-0.177,-0.053,-25.625,+0.562,+1.312,0, -4, 0, 0, 1, 0, 0, 2,-0.7725820670710462,1.405618826290704,8
1503685436233,+0.225,+0.308,-0.570,-0.728,+0.948,-0.191,-0.093,-31.562,+6.938,+0.188,0, 4, 5, 1, 2, -1, 0, 0,-0.7635661618418942,1.4066001589086847,8
1503685436254,+0.222,+0.304,-0.572,-0.729,+0.936,-0.184,-0.116,-35.062,+6.438,-3.875,0, 1, -1, 0, -3, -2, -2, -1,-0.7528834675205363,1.4063426014251539,8
1503685436277,+0.220,+0.298,-0.574,-0.730,+0.922,-0.154,-0.110,-36.562,+3.438,-12.938,-2, -3, -1, 0, -1, -1, -2, -2,-0.7405810632732351,1.4037274055207438,8
1503685436293,+0.219,+0.292,-0.576,-0.731,+0.952,-0.141,-0.127,-32.875,+0.625,-17.562,-1, -2, -1, 0, 0, 1, -1, 1,-0.7300720952714316,1.4013857078643912,8
1503685436315,+0.218,+0.286,-0.578,-0.733,+0.949,-0.129,-0.153,-32.750,-3.250,-16.500,-1, 1, 0, 1, 0, -2, -1, -1,-0.7199854698300662,1.3994155868964155,8
1503685436336,+0.218,+0.280,-0.579,-0.734,+0.966,-0.108,-0.147,-31.625,-5.312,-16.938,-1, -2, -2, -2, -1, 5, 2, -3,-0.7109262581408929,1.3949476948789614,8
1503685436352,+0.218,+0.274,-0.581,-0.735,+0.990,-0.130,-0.127,-29.750,-1.250,-17.375,-1, -2, -2, -1, -1, -1, -1, 0,-0.702389000149728,1.3932109783472464,8
1503685436375,+0.217,+0.269,-0.582,-0.736,+0.982,-0.165,-0.137,-29.500,-1.250,-16.438,-1, 2, -1, -3, -1, -1, -2, -3,-0.6934108605220821,1.390108560622942,8
1503685436396,+0.217,+0.264,-0.583,-0.737,+0.975,-0.143,-0.138,-27.500,-8.250,-19.312,4, 13, 0, 0, 0, 3, -1, 1,-0.6862005380146035,1.3872141849289026,8
1503685436419,+0.219,+0.257,-0.584,-0.739,+0.940,-0.102,-0.140,-25.062,-12.938,-27.062,1, -2, -1, -2, 0, -1, -2, -1,-0.6796769149209938,1.382635198527224,8
1503685436435,+0.221,+0.251,-0.584,-0.739,+0.938,-0.097,-0.161,-22.562,-9.062,-33.125,-1, -2, 0, -1, -1, 0, 0, 1,-0.6737608777530822,1.3762974338302245,8
1503685436456,+0.224,+0.245,-0.586,-0.740,+0.984,-0.083,-0.170,-19.750,-5.562,-30.688,0, -6, -3, -1, 0, -3, -3, -1,-0.670803498761604,1.3756160462925942,8
1503685436479,+0.225,+0.240,-0.587,-0.740,+1.025,-0.044,-0.180,-18.750,-4.125,-21.125,-5, -8, -3, -1, -1, 0, 1, -2,-0.6652693752100313,1.3730956165271389,8
1503685436494,+0.226,+0.236,-0.587,-0.741,+1.037,-0.038,-0.169,-19.500,-8.688,-12.438,-2, -4, 2, -2, -2, -3, 0, -1,-0.6612871383457863,1.369319333631749,8
1503685436516,+0.227,+0.232,-0.586,-0.743,+1.002,-0.046,-0.142,-16.812,-19.188,-12.812,2, 0, -1, -1, 0, 0, 0, 0,-0.6573465673590182,1.3632410356758795,8
1503685436541,+0.229,+0.227,-0.585,-0.745,+0.969,-0.035,-0.152,-15.250,-21.562,-20.188,2, -2, -1, -1, -1, 0, 1, -1,-0.6537279885192548,1.3563426492000012,8
1503685436555,+0.232,+0.221,-0.584,-0.746,+0.958,-0.016,-0.194,-18.125,-19.875,-25.125,-2, 0, -2, -2, 0, 1, -1, -2,-0.6501278827707349,1.3484219077584676,8
1503685436577,+0.234,+0.215,-0.583,-0.748,+0.975,+0.059,-0.252,-15.750,-15.375,-21.250,-1, 2, -2, -1, -2, -4, -1, -2,-0.6452834981933303,1.3407961837073992,8
1503685436599,+0.237,+0.210,-0.581,-0.749,+0.972,+0.104,-0.231,-11.188,-18.000,-15.875,0, 3, 3, 2, 1, -1, 1, 1,-0.6430602667454082,1.3314456243339172,8
1503685436616,+0.240,+0.206,-0.580,-0.751,+0.969,+0.086,-0.201,-6.562,-19.625,-12.938,-2, 2, -3, -2, -2, 0, 0, -2,-0.6430961494234044,1.3259942560540945,8
1503685436637,+0.242,+0.203,-0.578,-0.752,+0.989,+0.060,-0.184,-5.625,-17.750,-9.188,0, 0, 1, -1, 0, -3, 0, -2,-0.642136888646204,1.3185133250126801,8
1503685436660,+0.243,+0.201,-0.577,-0.753,+0.972,+0.042,-0.200,-5.688,-15.625,-4.562,1, 0, 0, 0, -2, -1, -1, 1,-0.6411698439194905,1.314480098260814,8
1503685436675,+0.244,+0.199,-0.576,-0.755,+0.972,+0.057,-0.221,-3.562,-12.875,-2.000,-2, -3, -2, -2, -1, -1, -4, -2,-0.6406158983338328,1.3107603761244813,8
1503685436696,+0.245,+0.198,-0.574,-0.756,+0.983,+0.021,-0.224,-1.750,-16.000,-0.125,-2, -5, -2, -1, -1, -1, -2, -1,-0.6407707879385185,1.3050427906585602,8
1503685436719,+0.245,+0.198,-0.572,-0.758,+1.001,-0.032,-0.212,-2.125,-17.625,+2.125,-3, 0, -1, 1, 0, 0, -1, -3,-0.6409214959419732,1.3004287859454204,8
1503685443604,+0.261,+0.318,-0.519,-0.749,+0.955,-0.208,-0.184,+17.375,-4.250,-10.000,-1, 15, 11, -2, -2, -3, -2, -3,-0.8284448992951627,1.3028449711228856,9
1503685443621,+0.263,+0.319,-0.518,-0.748,+1.000,-0.207,-0.191,+17.375,-5.750,-7.938,1, -8, -12, -4, -5, -4, -5, -3,-0.832966140839865,1.3018567929487064,9
1503685443642,+0.266,+0.321,-0.517,-0.748,+1.022,-0.203,-0.185,+15.000,-9.562,-4.688,-4, -10, -11, -2, -1, -2, -2, -2,-0.8413668976151618,1.3027413842161724,9
1503685443664,+0.268,+0.322,-0.515,-0.748,+1.001,-0.186,-0.198,+11.375,-13.000,+1.062,-10, -10, -2, -5, -7, -3, 0, -1,-0.8458381358827148,1.299624379900088,9
1503685443680,+0.269,+0.323,-0.513,-0.749,+1.006,-0.171,-0.197,+8.500,-14.062,+6.000,-1, 4, 0, -5, -10, -5, -3, -2,-0.8488474723835573,1.2966320720390543,9
1503685443702,+0.269,+0.324,-0.511,-0.750,+1.008,-0.167,-0.194,+5.812,-13.000,+11.938,-2, -5, -3, 1, 2, -1, 0, 3,-0.850021803457598,1.2934771069911364,9
1503685443718,+0.268,+0.325,-0.509,-0.751,+0.997,-0.136,-0.230,+4.438,-8.438,+17.500,11, 0, 4, 0, -3, 0, -4, 0,-0.8493548993173977,1.2901514068679771,9
1503685443741,+0.267,+0.326,-0.507,-0.752,+0.989,-0.146,-0.250,+4.875,-6.500,+19.250,-7, -10, -12, -6, -2, 0, 0, 0,-0.8486845415529225,1.2868334746924062,9
1503685443764,+0.267,+0.328,-0.505,-0.753,+0.994,-0.149,-0.237,+4.500,-10.688,+19.500,5, 4, 10, 6, 8, 2, 0, 1,-0.8515457858673814,1.2851566785992126,9
1503685443784,+0.265,+0.329,-0.503,-0.754,+0.978,-0.157,-0.213,+2.812,-6.625,+19.312,-4, -7, -7, -12, -14, -2, 2, -2,-0.8490294198640673,1.2816701032915412,9
1503685443800,+0.263,+0.330,-0.503,-0.754,+0.940,-0.165,-0.221,+1.250,+3.000,+18.875,-8, -4, -7, -3, 3, -3, -1, -2,-0.8470505922684459,1.282737884448784,9
1503685443823,+0.261,+0.332,-0.503,-0.754,+0.934,-0.179,-0.230,-0.750,+8.562,+17.188,9, 3, 1, -1, -3, -4, -3, 3,-0.8467919270984892,1.2852714777277559,9
1503685443844,+0.259,+0.333,-0.504,-0.754,+0.933,-0.204,-0.208,-2.188,+10.188,+12.000,4, 0, -5, 2, 1, 0, 0, -2,-0.8452959526129926,1.2887788341140385,9
1503685443860,+0.258,+0.333,-0.506,-0.753,+0.948,-0.208,-0.188,-3.000,+12.000,+3.250,5, 0, -3, 1, 6, -3, 0, 6,-0.8440261916579905,1.2931583977424186,9
1503685443882,+0.258,+0.334,-0.508,-0.751,+0.924,-0.227,-0.205,-1.750,+12.875,-4.625,-5, 2, -4, -2, -2, -2, -2, -3,-0.8459535329149723,1.298918950845626,9
1503685443904,+0.260,+0.333,-0.510,-0.750,+0.861,-0.227,-0.217,+0.125,+11.062,-19.125,-1, -7, -5, -1, 5, 0, -1, -1,-0.8484304098718539,1.3024023688325508,9
1503685443922,+0.263,+0.330,-0.513,-0.747,+0.886,-0.237,-0.176,-1.000,+7.750,-34.750,-3, -4, -3, 3, 5, 1, 0, -3,-0.8490334411570403,1.3050415943970106,9
1503685443943,+0.267,+0.327,-0.516,-0.745,+0.919,-0.227,-0.204,-4.500,+8.438,-36.750,-1, 0, 1, -7, -10, -3, -6, -3,-0.8518263485464391,1.308175131732808,9
1503685443965,+0.270,+0.324,-0.519,-0.744,+0.926,-0.201,-0.224,-6.188,+7.312,-31.438,3, 2, 0, -1, -3, -3, -4, -5,-0.8531685183471522,1.3114452996037183,9
1503685443981,+0.273,+0.321,-0.520,-0.743,+0.959,-0.216,-0.212,-7.750,+0.625,-24.875,-1, 1, 0, -5, -7, 1, 0, 2,-0.8536677369379047,1.3098771075245967,9
1503685444002,+0.274,+0.319,-0.521,-0.743,+0.973,-0.212,-0.215,-8.938,-4.875,-16.562,-5, 8, 5, -4, -9, -5, -2, -5,-0.8525722206446106,1.3096779889610515,9
1503685444026,+0.276,+0.316,-0.520,-0.744,+0.958,-0.207,-0.221,-8.750,-11.500,-11.000,-11, 1, -2, 0, 2, 0, -1, -4,-0.8511824170915697,1.303670661092779,9
1503685444038,+0.277,+0.314,-0.519,-0.745,+0.969,-0.183,-0.227,-6.750,-11.875,-13.062,8, 15, 8, 5, 2, -2, -3, -1,-0.8496548451955417,1.298912249814312,9
1503685444061,+0.280,+0.312,-0.519,-0.745,+0.956,-0.200,-0.211,-4.250,-13.438,-16.938,0, 1, 6, 5, 4, 1, 0, -1,-0.8518990747996704,1.2966713362243218,9
1503685444083,+0.282,+0.310,-0.518,-0.746,+0.964,-0.197,-0.203,-4.188,-13.688,-17.500,3, -3, 1, 4, 1, 1, 4, 6,-0.8522824633976035,1.2921243246537588,9
1503685444099,+0.284,+0.307,-0.518,-0.746,+0.958,-0.151,-0.225,-4.938,-7.750,-14.438,-8, -8, -7, 2, 4, -1, 0, 6,-0.8511022828013065,1.2883862960430097,9
1503685444121,+0.286,+0.306,-0.518,-0.746,+0.956,-0.121,-0.248,-4.062,-1.562,-9.625,4, 2, 5, 3, 3, 2, -3, -4,-0.8532059184640867,1.2873788502650159,9
1503685444144,+0.287,+0.305,-0.518,-0.746,+1.001,-0.141,-0.238,+0.125,-4.312,-6.500,-1, -10, -10, -6, -6, -1, 1, -3,-0.8534515675891204,1.286201694108346,9
1503685444159,+0.288,+0.305,-0.517,-0.746,+1.007,-0.164,-0.243,+4.500,-9.812,-4.500,-6, -2, -2, -2, 2, 0, 2, 1,-0.8549163150053214,1.283938786149998,9
1503685444181,+0.290,+0.305,-0.516,-0.747,+0.985,-0.174,-0.236,+4.125,-10.938,-3.750,7, -1, -11, -5, -4, -1, -3, -2,-0.8586434235196607,1.2821520616537625,9
1503685444204,+0.291,+0.305,-0.515,-0.747,+0.977,-0.185,-0.251,+5.438,-5.125,-4.875,-2, -1, 4, -1, -3, -1, -4, -4,-0.8601182139171012,1.279897688019409,9
1503685444219,+0.293,+0.306,-0.514,-0.746,+1.001,-0.173,-0.264,+8.562,-3.000,-4.250,-3, -12, -5, -2, -1, -1, 0, -3,-0.8647099449132803,1.2788792339582944,9
1503685444241,+0.295,+0.307,-0.513,-0.745,+0.995,-0.160,-0.272,+16.000,-1.438,-4.875,2, 5, -4, 0, 0, 0, 0, 2,-0.869310816950788,1.2778711262391922,9
1503685444264,+0.298,+0.310,-0.512,-0.744,+0.967,-0.158,-0.278,+22.312,+1.188,-7.875,4, 17, 8, 3, 2, 2, -1, 0,-0.8790605775571019,1.2797978185424836,9
1503685444279,+0.302,+0.312,-0.511,-0.742,+0.928,-0.157,-0.229,+26.125,-3.312,-13.875,0, -7, -4, 0, 1, 1, 2, 5,-0.888722871366599,1.2802715922627121,9
1503685444301,+0.306,+0.313,-0.511,-0.740,+1.010,-0.153,-0.209,+17.500,-2.562,-14.375,2, 6, 3, -2, 0, 1, -3, 3,-0.8971790630174998,1.2817909455830931,9
1503685444327,+0.307,+0.315,-0.510,-0.739,+0.991,-0.160,-0.224,+12.188,-0.562,-0.938,8, 0, -4, -3, 0, -2, -1, 0,-0.9015747820526987,1.2820605546875872,9
1503685444339,+0.307,+0.316,-0.510,-0.739,+0.978,-0.131,-0.176,+8.125,-0.688,+3.688,-5, -7, -10, -4, -2, -1, -2, -2,-0.9032167116315974,1.2834615042145028,9
1503685444362,+0.307,+0.317,-0.511,-0.738,+0.984,-0.144,-0.130,-4.438,+1.938,+1.562,-7, 6, 8, 3, 1, 1, 1, -2,-0.9048742612430543,1.286977855410204,9
1503685444383,+0.305,+0.315,-0.513,-0.738,+0.966,-0.130,-0.135,-13.812,+0.812,+0.062,-23, -5, 1, 0, -1, -1, -2, -6,-0.8985803244957808,1.288632205156638,9
1503685444399,+0.304,+0.313,-0.514,-0.738,+0.929,-0.114,-0.160,-19.438,-0.688,-4.812,-1, 0, -1, -1, -2, -2, -5, -5,-0.8937995164635358,1.288082811551171,9
1503685444421,+0.304,+0.309,-0.517,-0.739,+0.932,-0.101,-0.176,-25.188,-0.500,-8.125,-6, -2, 0, 1, -1, 0, -1, -2,-0.8888392000054824,1.2901087304921828,9
1503685444444,+0.302,+0.304,-0.519,-0.739,+0.930,-0.097,-0.192,-28.875,+0.625,-8.750,-1, -3, -1, -2, -3, -4, 0, -8,-0.8777360818412794,1.2878175900116002,9
1503685444466,+0.301,+0.300,-0.521,-0.740,+0.953,-0.104,-0.204,-30.062,-1.875,-8.312,7, 3, 4, 3, 0, 0, 0, 2,-0.870583366613309,1.2874432157667883,9
1503685444481,+0.300,+0.295,-0.521,-0.743,+0.968,-0.111,-0.226,-32.188,-11.500,-7.875,0, 0, -2, -3, -2, -2, -1, -5,-0.8618956786609153,1.2815533512610295,9
1503685451246,+0.379,+0.430,-0.520,-0.633,+0.973,-0.167,+0.006,-3.250,-2.875,+0.562,1, -2, -2, -2, 1, 0, 1, -1,-1.2164896408664112,1.4802152211547064,10
1503685451269,+0.379,+0.429,-0.521,-0.633,+0.963,-0.152,-0.006,-8.125,-7.188,-8.812,-2, 0, -3, -2, -1, 0, -4, -2,-1.2147962977958073,1.4806283141019352,10
1503685451284,+0.381,+0.425,-0.522,-0.634,+0.946,-0.144,-0.005,-15.625,-9.750,-18.875,-4, -2, -1, -1, -2, -3, -2, -3,-1.2111982088979367,1.4759437193223282,10
1503685451309,+0.381,+0.421,-0.525,-0.634,+1.007,-0.127,-0.009,-23.000,-5.688,-19.438,2, 0, 0, -2, -1, 0, 1, 0,-1.2042196080037395,1.4755277596502665,10
1503685451328,+0.380,+0.416,-0.527,-0.636,+1.000,-0.110,-0.011,-30.250,-5.062,-12.062,-1, 0, -1, -1, 0, 0, 2, 0,-1.193700123873646,1.4713488823732175,10
1503685451345,+0.379,+0.411,-0.530,-0.637,+1.004,-0.086,+0.003,-34.938,-5.062,-10.688,-2, 0, -2, 1, -1, 0, 1, 1,-1.1832953000952051,1.4694400650880501,10
1503685451366,+0.377,+0.405,-0.532,-0.641,+0.998,-0.072,-0.013,-41.938,-14.375,-9.062,-1, 0, 0, 0, 0, 0, -1, 0,-1.1697203478957143,1.4639507299981571,10
1503685451388,+0.375,+0.398,-0.534,-0.645,+0.971,-0.097,-0.036,-48.188,-21.500,-5.375,-1, 0, -1, 1, 0, -1, -1, 0,-1.1543884690352644,1.4569654726307746,10
1503685451404,+0.372,+0.390,-0.535,-0.651,+0.947,-0.106,-0.078,-55.000,-24.500,-7.000,4, -1, -1, -1, -1, 0, -1, 0,-1.13575065694084,1.4464326010093846,10
1503685451426,+0.370,+0.381,-0.538,-0.655,+0.965,-0.091,-0.088,-57.188,-17.000,-17.312,-3, -2, -2, -1, -1, 0, -1, -2,-1.1174396105292785,1.439014261057465,10
1503685451449,+0.370,+0.371,-0.541,-0.658,+0.975,-0.050,-0.110,-53.125,-14.750,-28.250,-4, 0, 1, 0, -1, -1, -2, -5,-1.1010911568160604,1.4304612678917916,10
1503685451464,+0.371,+0.361,-0.544,-0.660,+0.966,-0.017,-0.122,-48.500,-15.250,-34.062,-1, -2, -2, -2, -3, -2, -3, -1,-1.0866657440109504,1.4223084366106318,10
1503685451486,+0.372,+0.351,-0.547,-0.662,+0.997,-0.043,-0.111,-49.000,-20.938,-34.062,-2, -1, -1, -1, -1, -1, -3, -2,-1.072569520773627,1.4145955419963,10
1503685451510,+0.372,+0.342,-0.549,-0.666,+1.028,-0.076,-0.101,-50.250,-24.188,-28.812,0, -1, -1, -2, -3, -2, 1, 1,-1.0589693510759206,1.4066506821660358,10
1503685451524,+0.370,+0.332,-0.552,-0.669,+1.010,-0.044,-0.101,-54.750,-22.438,-25.250,0, 0, 0, 0, 2, 1, 0, -2,-1.0399906274326998,1.3996223885047563,10
1503685451546,+0.370,+0.322,-0.554,-0.673,+1.000,+0.022,-0.140,-54.312,-20.625,-24.188,-1, 0, 1, 1, 0, -2, -2, -1,-1.0252705982771726,1.3910437105920725,10
1503685451568,+0.369,+0.313,-0.556,-0.676,+1.002,+0.050,-0.184,-50.188,-21.438,-19.312,2, -3, -2, 0, -1, -2, 1, 3,-1.0101618767641705,1.383942174199377,10
1503685451585,+0.368,+0.304,-0.557,-0.680,+0.995,+0.045,-0.189,-45.312,-23.312,-14.188,2, 1, -1, 0, 1, -2, 0, 2,-0.9953586185029786,1.3749522292396372,10
1503685451606,+0.367,+0.297,-0.557,-0.684,+0.994,+0.028,-0.168,-41.500,-24.875,-10.688,0, 0, -3, -2, -3, 0, -2, -2,-0.9836852856020648,1.3664547059115923,10
1503685451628,+0.366,+0.290,-0.557,-0.687,+1.036,+0.029,-0.202,-38.125,-21.250,-5.438,-2, -2, 0, -1, -2, -1, 0, -1,-0.9717624667829347,1.357926912601065,10
1503685451644,+0.363,+0.285,-0.556,-0.692,+1.006,+0.020,-0.223,-36.375,-24.562,+1.750,-3, -1, 0, -1, 0, -2, 1, -2,-0.9596661434825446,1.3498866120610507,10
1503685451666,+0.361,+0.280,-0.554,-0.696,+1.000,+0.013,-0.216,-32.750,-25.438,+3.938,2, 2, -1, 0, 0, 0, 0, 1,-0.9489023513391996,1.3393653032411565,10
1503685451688,+0.359,+0.275,-0.552,-0.700,+0.994,-0.014,-0.230,-28.750,-22.938,+4.438,-3, -1, 0, 0, -1, 0, -2, -2,-0.9382292721496984,1.3289440929857956,10
1503685451704,+0.357,+0.272,-0.551,-0.703,+1.026,-0.022,-0.228,-25.250,-16.375,+7.938,-4, -2, -1, 1, -1, 0, -4, -3,-0.9306008316873418,1.3232922387842618,10
1503685451726,+0.354,+0.270,-0.550,-0.707,+1.020,-0.018,-0.234,-23.188,-14.875,+12.250,-1, -4, -3, -2, 0, 0, -2, 0,-0.9229752466668014,1.319043842762534,10
1503685451748,+0.351,+0.268,-0.548,-0.710,+1.010,-0.035,-0.227,-20.875,-16.438,+12.000,-1, -1, -1, -3, -1, -1, -2, -2,-0.9146207471536251,1.3120643473735338,10
1503685451764,+0.349,+0.267,-0.546,-0.713,+1.021,-0.041,-0.248,-16.562,-15.938,+12.125,-1, -1, 0, 0, -2, 0, 0, -1,-0.9097782459231852,1.306456515121871,10
1503685451786,+0.346,+0.266,-0.544,-0.716,+1.020,-0.057,-0.248,-13.125,-15.500,+14.688,-1, -1, 0, -1, -1, -1, 1, 1,-0.9029671006044483,1.3007232466240488,10
1503685451808,+0.343,+0.267,-0.542,-0.719,+1.010,-0.070,-0.248,-9.875,-13.750,+17.938,2, -1, 1, 1, -1, -2, 1, 2,-0.8991838665433498,1.2974237380728086,10
1503685451826,+0.340,+0.267,-0.539,-0.723,+1.004,-0.076,-0.253,-8.125,-13.625,+21.812,-4, -3, -2, -2, -1, -1, 0, -3,-0.8939864170510875,1.2907448859962172,10
1503685451847,+0.337,+0.269,-0.536,-0.726,+1.008,-0.070,-0.256,-5.812,-12.875,+26.062,-3, -2, -2, 1, -1, -2, -1, -2,-0.8913792889121207,1.2862253322351769,10
1503685451868,+0.334,+0.271,-0.533,-0.729,+0.987,-0.055,-0.281,-2.438,-11.688,+30.438,2, 1, -1, 1, 1, 0, -2, 1,-0.8887737952586244,1.2817375178013315,10
1503685451884,+0.331,+0.273,-0.529,-0.732,+0.983,-0.034,-0.276,+1.062,-14.125,+34.688,1, 1, -2, -2, -1, 0, -2, 3,-0.885823615564444,1.274826249579606,10
1503685451906,+0.327,+0.276,-0.525,-0.736,+0.966,-0.045,-0.264,+4.812,-16.438,+39.062,-3, -1, -1, -1, -2, 1, -2, 0,-0.8828539008321086,1.2693546728771008,10
1503685451928,+0.323,+0.280,-0.521,-0.739,+0.953,-0.075,-0.259,+6.812,-16.125,+41.188,-1, -2, 1, -1, -1, -1, -2, -2,-0.8810040567807093,1.264890579825425,10
1503685451946,+0.320,+0.284,-0.516,-0.742,+0.910,-0.098,-0.249,+6.625,-14.750,+38.812,-2, -3, -1, -2, -2, -2, -3, -2,-0.8807527358849763,1.258248075731083,10
1503685451966,+0.317,+0.287,-0.513,-0.744,+0.883,-0.109,-0.234,+6.062,-9.562,+31.750,-1, 0, 1, -1, -1, -3, 0, -1,-0.879287289069023,1.2549379146005573,10
1503685451988,+0.314,+0.290,-0.511,-0.745,+0.895,-0.124,-0.217,+4.438,-3.938,+23.062,1, 1, 0, -2, -1, 0, 1, 0,-0.8778047827180523,1.2537704455944993,10
1503685452004,+0.313,+0.292,-0.511,-0.746,+0.884,-0.139,-0.192,+2.562,+0.188,+10.875,-1, -1, -1, 0, 0, 0, 1, -2,-0.8793950699078474,1.256527396122487,10
1503685452026,+0.313,+0.292,-0.512,-0.745,+0.900,-0.151,-0.176,+0.375,+3.750,-6.000,3, 3, 0, -1, -1, 0, -1, 0,-0.8793681165020792,1.2586311194577706,10
1503685452048,+0.315,+0.291,-0.514,-0.742,+0.909,-0.169,-0.177,-2.500,+9.250,-24.250,0, -1, -3, -2, -1, 0, -2, -3,-0.8812009145308266,1.2615804439322167,10
1503685452064,+0.319,+0.289,-0.518,-0.739,+0.919,-0.174,-0.192,-4.000,+14.875,-40.438,-3, -2, -2, 0, 0, -1, -3, -3,-0.8860691719175389,1.2684491854049047,10
1503685452086,+0.324,+0.286,-0.523,-0.734,+0.942,-0.138,-0.205,-3.750,+18.938,-53.000,-3, -2, 0, -1, 0, 0, -2, 0,-0.8908627626730283,1.276048449023468,10
1503685452108,+0.329,+0.282,-0.528,-0.730,+1.003,-0.091,-0.208,-3.062,+16.125,-54.188,0, -1, -2, -1, -2, 0, 1, -1,-0.8945179453033452,1.2827451515988295,10
1503685452124,+0.334,+0.279,-0.531,-0.727,+1.003,-0.017,-0.274,+0.188,+9.500,-40.938,0, 0, -2, -1, -1, -2, -1, -3,-0.8994498543497738,1.2861858103419541,10
1503685457771,+0.247,+0.276,-0.566,-0.737,+0.988,-0.140,-0.087,-30.625,-12.062,-11.812,-1, -3, 0, -1, -1, 1, 0, -1,-0.7503803188400856,1.3607431350729569,11
1503685457793,+0.246,+0.269,-0.566,-0.739,+0.998,-0.126,-0.084,-37.500,-18.500,-13.625,-1, -3, -1, -1, -2, -1, -1, -1,-0.7382620142364327,1.3528594669756637,11
1503685457809,+0.244,+0.262,-0.567,-0.742,+0.993,-0.127,-0.095,-44.375,-20.938,-18.562,-1, -2, -2, -2, 1, 0, -2, 0,-0.725281530343204,1.347867022789039,11
1503685457831,+0.243,+0.252,-0.568,-0.745,+0.998,-0.100,-0.105,-51.500,-19.812,-23.562,0, -3, -3, -2, -3, 1, -3, 0,-0.7096105420165175,1.3399081861145465,11
1503685457853,+0.242,+0.242,-0.569,-0.748,+0.998,-0.029,-0.165,-57.750,-21.250,-20.312,0, -2, -2, 0, 2, -1, 2, -2,-0.6942047101599342,1.3323772160772482,11
1503685457869,+0.239,+0.232,-0.570,-0.751,+0.931,+0.020,-0.205,-56.625,-15.750,-15.125,-1, 1, 0, -1, -2, -1, -5, -2,-0.6755006084006444,1.3250460183382815,11
1503685457892,+0.238,+0.223,-0.571,-0.754,+0.945,+0.035,-0.223,-48.938,-15.250,-17.375,-6, -2, 10, 1, 1, -2, -1, -4,-0.662040683870075,1.3193514178908152,11
1503685457913,+0.239,+0.214,-0.570,-0.756,+0.984,+0.035,-0.289,-37.750,-16.688,-23.500,-3, -3, -6, -2, 0, -1, -1, -2,-0.651275183407162,1.3087360502162728,11
1503685457929,+0.241,+0.206,-0.569,-0.758,+0.986,+0.027,-0.297,-29.625,-21.000,-24.062,1, -1, -1, -2, -1, -2, -2, -1,-0.6439491374371419,1.2994512383755352,11
1503685457951,+0.242,+0.200,-0.567,-0.762,+0.991,+0.006,-0.271,-27.000,-30.750,-16.875,0, 2, -1, -1, -1, -1, 1, 0,-0.6382625881717369,1.2901152097348145,11
1503685457973,+0.242,+0.194,-0.564,-0.765,+0.993,-0.019,-0.273,-25.625,-29.875,-6.875,0, 0, 2, -1, -2, -3, -1, -2,-0.6302093132201166,1.277910327657046,11
1503685457990,+0.240,+0.190,-0.562,-0.769,+0.993,-0.025,-0.266,-24.250,-24.750,-0.938,-1, -4, 0, -1, -1, -2, -2, -2,-0.622081701194467,1.270296027377149,11
1503685458011,+0.238,+0.187,-0.560,-0.771,+0.966,-0.025,-0.276,-23.875,-17.375,+3.438,0, 3, -1, -1, -1, 0, 0, 1,-0.61457276997697,1.2629498230278862,11
1503685458033,+0.236,+0.184,-0.558,-0.774,+0.968,-0.008,-0.303,-21.500,-13.312,+6.000,0, 0, 0, -2, 0, 0, -1, 0,-0.6074849818846433,1.2559892969045878,11
1503685458049,+0.234,+0.182,-0.558,-0.775,+1.008,-0.012,-0.283,-18.688,-7.188,+7.938,1, -6, -1, 1, 1, -1, 0, 1,-0.6015842677271209,1.254424602056312,11
1503685458071,+0.232,+0.181,-0.558,-0.776,+1.022,-0.030,-0.269,-15.000,-5.500,+7.250,-1, -1, -1, -2, 0, -1, -1, 0,-0.5970241392332984,1.2537108765328198,11
1503685458094,+0.230,+0.180,-0.557,-0.778,+0.987,-0.030,-0.271,-12.688,-7.625,+6.188,-1, -3, -1, 0, 0, -2, -4, 0,-0.5925518093355517,1.250748488715481,11
1503685458109,+0.229,+0.178,-0.556,-0.779,+0.982,-0.022,-0.283,-11.938,-8.688,+5.625,-2, -6, -3, 0, 1, 0, 1, 0,-0.5881840340502034,1.2467343442237113,11
1503685458131,+0.227,+0.177,-0.555,-0.780,+0.976,-0.028,-0.269,-10.438,-8.000,+4.688,0, -2, 0, 0, 0, -3, -3, -1,-0.5833417463847551,1.2434384539123169,11
1503685458156,+0.226,+0.177,-0.554,-0.781,+0.974,-0.033,-0.286,-8.875,-7.562,+3.375,-2, 5, 1, -4, 0, 0, 1, 0,-0.5816216939538787,1.2410771251001915,11
1503685458169,+0.226,+0.176,-0.553,-0.782,+0.972,-0.034,-0.308,-6.625,-7.750,+3.125,1, -1, -5, 0, -1, -1, -1, -3,-0.5803910557490877,1.2380181736513054,11
1503685458191,+0.225,+0.176,-0.552,-0.784,+0.970,-0.028,-0.330,-4.312,-8.625,+5.500,1, -1, 1, -1, 0, 0, -5, -3,-0.5790465144114176,1.2360253323896455,11
1503685458213,+0.224,+0.176,-0.550,-0.785,+0.990,-0.035,-0.316,-1.000,-7.938,+9.562,-1, 0, -2, 0, -2, -3, -1, -1,-0.5770274994485872,1.2310748127942528,11
1503685458232,+0.222,+0.178,-0.548,-0.787,+1.013,-0.042,-0.323,+1.250,-9.000,+15.000,-2, -1, 1, 0, -1, 0, -1, -3,-0.576185958753211,1.2280135334977957,11
1503685458251,+0.221,+0.180,-0.546,-0.788,+1.012,-0.040,-0.330,+5.375,-9.312,+20.000,-1, -2, -3, -1, -1, -2, 0, 2,-0.5767690361969722,1.224724930417239,11
1503685458273,+0.219,+0.184,-0.543,-0.790,+1.000,-0.055,-0.328,+11.375,-9.438,+25.812,-1, -1, 0, -1, -3, 1, 1, -2,-0.578227271498022,1.220797194904502,11
1503685458292,+0.216,+0.189,-0.540,-0.791,+0.983,-0.079,-0.338,+15.562,-8.562,+32.250,1, 11, -2, -2, -1, -1, 0, -1,-0.5788306859408676,1.2172957444779393,11
1503685458311,+0.213,+0.194,-0.537,-0.793,+0.956,-0.099,-0.325,+17.625,-6.562,+35.750,-1, -4, -3, 0, 0, -2, -4, 0,-0.5798070736960806,1.2142628806483275,11
1503685458333,+0.210,+0.200,-0.534,-0.794,+0.959,-0.120,-0.301,+19.188,-4.562,+35.625,-3, -2, 2, 0, -1, 0, 1, 0,-0.581773508394458,1.2118459975021538,11
1503685463614,+0.290,+0.323,-0.572,-0.696,+0.959,-0.070,-0.092,-18.000,+18.750,+22.438,2, 0, 0, -1, -1, -3, -5, -1,-0.8924473324488053,1.4324233639647348,12
1503685463636,+0.285,+0.324,-0.574,-0.697,+0.942,-0.107,-0.081,-21.688,+16.312,+22.375,0, -1, -1, -2, 0, -1, -1, 3,-0.8864558964183124,1.4384597634082246,12
1503685463664,+0.278,+0.324,-0.575,-0.698,+0.947,-0.142,-0.087,-24.750,+16.812,+24.125,-1, 1, 0, -2, 1, -1, 3, -1,-0.8748386536882902,1.440492619016073,12
1503685463674,+0.271,+0.324,-0.576,-0.699,+0.912,-0.194,-0.081,-30.938,+13.875,+24.750,-1, -1, 0, 1, -1, 0, -2, -1,-0.8633180485485507,1.442539350582518,12
1503685463696,+0.264,+0.323,-0.578,-0.701,+0.895,-0.213,-0.048,-37.438,+13.062,+22.312,1, -1, 0, 0, -1, -2, 0, -1,-0.8509210238955627,1.4458777452038631,12
1503685463720,+0.255,+0.322,-0.580,-0.703,+0.895,-0.239,-0.058,-44.438,+13.562,+20.438,-4, 0, -1, 0, 1, 1, -2, -4,-0.8351680182576816,1.4490858978493633,12
1503685463734,+0.247,+0.318,-0.582,-0.707,+0.890,-0.251,-0.060,-53.750,+5.938,+17.625,-1, -1, 0, -1, -1, -1, -3, -1,-0.8166936713753771,1.4486532155483263,12
1503685463758,+0.238,+0.314,-0.583,-0.710,+0.896,-0.248,-0.058,-59.750,+2.375,+14.562,3, 1, -1, -2, 1, -2, 1, 2,-0.7958483844300921,1.4455704776227623,12
1503685463777,+0.230,+0.308,-0.585,-0.714,+0.921,-0.240,-0.081,-61.312,+3.812,+13.812,-1, -2, -2, -2, -2, -1, 2, 0,-0.774150295728726,1.4427250464508672,12
1503685463794,+0.222,+0.303,-0.586,-0.718,+0.934,-0.223,-0.100,-59.188,-2.562,+14.125,0, 0, 0, 0, -1, 1, 0, -1,-0.7538606562501537,1.4387955474828862,12
1503685463816,+0.215,+0.298,-0.586,-0.722,+0.948,-0.222,-0.118,-52.438,-5.000,+13.938,-1, -1, 0, -2, -2, -4, -2, -3,-0.7349063795729047,1.4325111709135916,12
1503685463838,+0.209,+0.295,-0.585,-0.726,+0.964,-0.245,-0.135,-43.938,-8.812,+14.938,-2, -1, -3, -2, 1, -1, -4, -3,-0.7206318874162887,1.4263426676216757,12
1503685463855,+0.204,+0.292,-0.583,-0.730,+0.981,-0.292,-0.106,-36.750,-15.500,+15.688,0, -3, 0, -2, 0, -2, -3, -1,-0.7076039113155665,1.4177296056434798,12
1503685463876,+0.199,+0.290,-0.581,-0.734,+0.976,-0.302,-0.097,-31.438,-15.750,+11.438,-1, -1, -1, -1, -3, -1, 0, 1,-0.6962631117625958,1.4103839432186722,12
1503685463898,+0.196,+0.287,-0.581,-0.736,+0.948,-0.281,-0.093,-27.875,-9.625,+1.125,-2, -2, 0, 0, 0, -2, -1, -3,-0.6868912814862881,1.4068034244923113,12
1503685463914,+0.195,+0.284,-0.581,-0.737,+0.970,-0.242,-0.106,-21.062,-6.562,-8.562,-2, -1, -1, -1, -2, -1, 0, -1,-0.6805722207427355,1.4032606558629876,12
1503685463943,+0.195,+0.281,-0.581,-0.739,+1.003,-0.226,-0.125,-15.812,-8.062,-12.438,2, 1, 1, -1, -1, -2, -1, 1,-0.6762591310337674,1.4000547519971405,12
1503685463965,+0.196,+0.279,-0.581,-0.739,+1.018,-0.241,-0.103,-11.812,-6.500,-13.625,-2, -3, 1, 1, 0, -1, 1, -3,-0.6746592638312922,1.3977702163497416,12
1503685463974,+0.197,+0.276,-0.581,-0.740,+0.988,-0.227,-0.110,-8.562,-5.125,-17.250,-1, -1, -2, 0, -1, 1, 2, 0,-0.6717628130375195,1.3945302935529789,12
1503685463997,+0.199,+0.273,-0.582,-0.739,+0.981,-0.196,-0.111,-7.250,-2.438,-22.312,2, 1, -1, 0, 0, 2, 1, 0,-0.6703818203141033,1.3936023173780845,12
1503685464018,+0.202,+0.271,-0.584,-0.738,+1.006,-0.159,-0.128,-4.562,+4.812,-23.875,-2, -3, -2, -1, -2, -4, -2, -1,-0.6727397638181337,1.3965529515300108,12
1503685464034,+0.205,+0.269,-0.586,-0.737,+0.997,-0.128,-0.146,-0.812,+5.500,-20.562,0, 1, 0, 1, 1, 1, 0, 2,-0.6751010495256582,1.3995171482995006,12
1503685464056,+0.207,+0.267,-0.586,-0.737,+1.040,-0.124,-0.155,+1.062,-2.312,-16.750,-1, -2, -1, -1, -1, 0, -2, 1,-0.6752644157148928,1.3974240373796385,12
1503685464078,+0.209,+0.266,-0.586,-0.736,+1.067,-0.133,-0.126,+1.250,-4.938,-10.062,-3, -3, 0, 1, -2, -2, -1, -1,-0.6767140244871258,1.3962710578265125,12
1503685464095,+0.209,+0.266,-0.586,-0.736,+1.046,-0.166,-0.087,+1.625,+1.562,-1.000,0, -1, -3, -1, -1, 0, -1, 0,-0.6767140244871258,1.3962710578265125,12
1503685464116,+0.209,+0.268,-0.586,-0.735,+0.999,-0.202,-0.089,+3.312,+0.875,+3.125,-1, 1, 0, -1, -1, 0, 0, -1,-0.6795858915765897,1.3983408970098328,12
1503685464138,+0.209,+0.268,-0.586,-0.736,+0.988,-0.182,-0.126,-2.062,-3.750,-2.188,3, 2, 1, -1, -2, 0, -3, 1,-0.6799146773079486,1.3985441987280804,12
1503685464156,+0.210,+0.267,-0.586,-0.736,+0.985,-0.156,-0.131,-3.688,-1.938,-8.250,0, 1, 0, 0, 1, 1, -2, -2,-0.6800030494835653,1.3974989975908492,12
1503685464176,+0.211,+0.266,-0.587,-0.735,+0.950,-0.106,-0.154,+1.688,+3.875,-10.125,-2, -4, -4, -3, -1, -2, -3, 1,-0.6801828562591463,1.3988443281492016,12
1503685464199,+0.213,+0.265,-0.587,-0.735,+0.957,-0.140,-0.123,+0.125,+3.125,-9.500,1, 1, 1, -2, -1, 0, 0, -2,-0.6819719207286228,1.3978982133020248,12
1503685464214,+0.213,+0.264,-0.588,-0.734,+0.992,-0.174,-0.094,-2.875,+3.000,-9.875,-1, 1, 0, 0, -1, -2, 0, 2,-0.6804583715059588,1.3991606163350314,12
1503685464236,+0.215,+0.262,-0.589,-0.733,+0.995,-0.136,-0.090,-5.812,-2.062,-17.688,-3, -1, -2, -1, -3, -2, -3, -1,-0.6807412351309651,1.399493062899251,12
1503685464258,+0.219,+0.257,-0.590,-0.734,+0.917,-0.032,-0.130,-7.750,-11.125,-31.750,-2, -1, -1, -1, -2, -2, -1, -3,-0.6803770703924287,1.3971224502912891,12
1503685464274,+0.226,+0.250,-0.591,-0.733,+0.882,+0.053,-0.156,-4.750,-10.625,-45.750,-1, -1, 0, 0, -1, 0, 0, 0,-0.6814406729770219,1.3925600687079496,12
1503685464297,+0.234,+0.244,-0.592,-0.732,+0.896,+0.063,-0.169,-0.688,-4.250,-50.000,0, 0, -2, -1, -1, 0, 0, -1,-0.6859728620786868,1.3893069070721158,12
1503685464318,+0.240,+0.239,-0.594,-0.730,+0.958,+0.073,-0.160,-0.062,+0.812,-40.125,-1, 0, -1, -1, 0, 0, -2, -1,-0.6887347624396024,1.3894174376816066,12
1503685464334,+0.246,+0.234,-0.595,-0.729,+0.995,+0.108,-0.173,+2.500,-4.438,-30.812,-2, -1, -2, -1, 0, -3, 1, 0,-0.6915966794115076,1.3872250712579994,12
1503685470078,+0.279,+0.297,-0.520,-0.751,+0.997,-0.149,-0.252,+1.312,-1.875,-12.250,-1, -2, -1, 0, -2, -4, 1, -1,-0.8283838226937574,1.2805491083791787,13
1503685470101,+0.281,+0.297,-0.521,-0.750,+0.995,-0.116,-0.246,+2.562,+2.125,-9.875,-2, -1, -2, -1, -1, 0, 0, 1,-0.8321294105480957,1.2830428962879792,13
1503685470123,+0.283,+0.296,-0.522,-0.748,+1.021,-0.079,-0.236,+3.375,+6.625,-8.688,0, 1, -2, 0, -2, -1, -1, 0,-0.8338947344073527,1.2839253729233844,13
1503685470138,+0.284,+0.296,-0.524,-0.747,+1.027,-0.071,-0.226,+1.938,+7.688,-5.750,-3, -2, 1, 2, 0, -1, -3, -1,-0.8361771010867013,1.2887031864333074,13
1503685470162,+0.284,+0.295,-0.525,-0.746,+1.034,-0.065,-0.221,-0.938,+7.125,-0.812,0, -1, 0, 0, -1, 0, 1, 0,-0.8345961198121623,1.2895572223446665,13
1503685470186,+0.284,+0.295,-0.526,-0.745,+1.015,-0.060,-0.216,-3.875,+6.000,+4.125,-2, -2, -1, -2, -1, -1, 1, 0,-0.834611044067556,1.2917212972496845,13
1503685470198,+0.282,+0.295,-0.528,-0.745,+0.991,-0.075,-0.216,-6.750,+7.000,+8.375,1, -2, -2, -2, -1, -1, 1, 1,-0.8316956062885522,1.29631521584822,13
1503685470221,+0.280,+0.295,-0.529,-0.745,+0.975,-0.087,-0.220,-10.938,+7.438,+11.000,-1, -3, -2, -1, 1, 0, -3, 2,-0.8283904050042283,1.298455739715136,13
1503685470244,+0.277,+0.294,-0.530,-0.746,+0.956,-0.116,-0.231,-14.938,+7.438,+13.812,-2, -1, 0, 0, -1, -2, 0, -2,-0.8220285750569445,1.299431784330481,13
1503685470259,+0.273,+0.293,-0.530,-0.747,+0.926,-0.126,-0.229,-19.562,+6.562,+14.312,0, 1, 0, 0, -2, -1, 0, 1,-0.8134357399379731,1.2977890266446257,13
1503685470281,+0.270,+0.292,-0.531,-0.748,+0.923,-0.142,-0.248,-22.062,+6.750,+11.875,2, -1, 0, 1, 0, -3, 0, 2,-0.807110488742516,1.2987869121587985,13
1503685470303,+0.266,+0.290,-0.532,-0.750,+0.919,-0.146,-0.262,-21.375,+5.562,+10.125,-1, -1, 1, -2, -1, 0, -2, -3,-0.7977536706377517,1.2986509800243908,13
1503685470320,+0.264,+0.288,-0.532,-0.751,+0.899,-0.156,-0.287,-19.375,+1.125,+8.125,-2, -2, -1, 0, 0, -1, -5, -5,-0.7912935790411124,1.2960840744050546,13
1503685470340,+0.262,+0.287,-0.531,-0.753,+0.912,-0.163,-0.295,-15.438,-1.875,+5.750,1, 0, -2, -1, -1, 2, 1, -1,-0.7863943415212693,1.2926034353217066,13
1503685470363,+0.261,+0.286,-0.530,-0.754,+0.923,-0.154,-0.302,-8.750,-1.500,+2.438,-1, -1, 0, -1, -2, -1, -3, -4,-0.7829513462140667,1.2889924102939418,13
1503685470377,+0.261,+0.285,-0.529,-0.755,+0.940,-0.168,-0.280,-2.438,-6.500,+0.250,-3, -1, -2, -2, -1, -1, 0, 0,-0.7813407690657247,1.2855474973389833,13
1503685470401,+0.262,+0.285,-0.528,-0.756,+0.950,-0.173,-0.268,+1.250,-5.688,+0.312,-2, 1, -1, -2, -2, -2, -3, -2,-0.7831382009942005,1.2835276663367654,13
1503685470423,+0.263,+0.286,-0.527,-0.756,+0.958,-0.154,-0.247,+3.312,-2.000,-1.375,-2, -2, 0, 0, -3, 0, 1, 1,-0.786135367755836,1.2824688087551896,13
1503685470437,+0.264,+0.286,-0.527,-0.755,+0.966,-0.153,-0.233,+7.000,-0.312,-3.938,-2, -1, -1, -1, -2, -1, -2, -2,-0.7875941372492783,1.2823300293170234,13
1503685470460,+0.265,+0.287,-0.527,-0.755,+0.976,-0.163,-0.222,+9.688,-0.062,-4.312,-1, 0, 0, -2, -1, 0, -1, -1,-0.7910054207608508,1.283758873878804,13
1503685470482,+0.266,+0.289,-0.527,-0.754,+0.977,-0.161,-0.228,+8.375,+1.125,-3.938,-3, -1, 1, 1, 1, 0, 0, 1,-0.7956241199410454,1.28616224750365,13
1503685470498,+0.267,+0.289,-0.527,-0.753,+0.985,-0.159,-0.220,+5.188,+2.188,-2.062,1, -3, -3, -2, 0, 0, -3, 1,-0.7970847977739828,1.2860269286255823,13
1503685470521,+0.267,+0.290,-0.527,-0.753,+0.979,-0.171,-0.227,+3.062,+0.625,-0.062,0, 0, 3, 2, 1, -1, -1, 1,-0.7986688319401405,1.2873036882246163,13
1503685470542,+0.268,+0.291,-0.527,-0.753,+0.979,-0.172,-0.236,+3.500,-0.500,-0.625,0, 0, 0, -2, 0, 0, 1, 1,-0.802094385801881,1.2887477756121883,13
1503685470558,+0.269,+0.291,-0.526,-0.753,+0.959,-0.174,-0.244,+4.562,-0.750,-1.625,-1, -1, -1, -1, -1, -1, -1, -1,-0.8035257859419671,1.2864410714470935,13
1503685470580,+0.270,+0.292,-0.526,-0.752,+0.945,-0.164,-0.239,+6.562,-1.312,-3.562,-2, 0, 0, 2, -1, -1, -3, -3,-0.8065785000854123,1.287593546995355,13
1503685470606,+0.271,+0.293,-0.526,-0.752,+0.954,-0.154,-0.247,+6.312,+2.562,-3.812,-1, 2, 0, 1, -2, -2, -2, 0,-0.810013155875915,1.2890477206677833,13
1503685470617,+0.272,+0.294,-0.526,-0.751,+0.980,-0.153,-0.250,+10.000,+4.000,-2.250,2, -1, -1, -1, -2, 1, 0, -1,-0.813073430164455,1.2902103121816968,13
1503685470640,+0.273,+0.296,-0.525,-0.750,+0.972,-0.150,-0.253,+14.500,+4.062,-0.438,0, -1, 0, -1, 0, -3, -4, 3,-0.8173283395883426,1.2902168293623157,13
1503685470663,+0.275,+0.299,-0.524,-0.749,+0.959,-0.179,-0.268,+18.750,+4.125,-0.125,0, 0, -2, 0, 1, -1, 2, 1,-0.8250505452051046,1.2917292031085186,13
1503685470678,+0.277,+0.302,-0.523,-0.747,+0.966,-0.203,-0.235,+21.438,+0.500,-1.625,-4, -3, -3, -2, -2, 1, -1, -4,-0.832424013267686,1.2929982162543774,13
1503685470700,+0.279,+0.305,-0.522,-0.747,+0.951,-0.216,-0.218,+18.625,-1.750,-1.500,0, -1, -2, -2, 0, -1, 0, -1,-0.840582283610143,1.2948952598119234,13
1503685470725,+0.280,+0.307,-0.521,-0.746,+0.937,-0.219,-0.204,+13.562,-0.500,-3.000,-1, 1, 0, -1, -2, -1, -2, -3,-0.8449045436701131,1.295025761518002,13
1503685470738,+0.282,+0.308,-0.521,-0.745,+0.916,-0.192,-0.198,+8.938,+1.312,-9.750,-1, 1, -1, -3, 0, 0, -1, -1,-0.8498705010754406,1.2964319029612803,13
1503685470763,+0.284,+0.307,-0.522,-0.743,+0.923,-0.174,-0.203,+6.375,-0.125,-17.938,-1, 0, -2, 1, 0, 0, -2, -1,-0.8516045134461238,1.297285075447263,13
1503685470782,+0.287,+0.306,-0.523,-0.742,+0.963,-0.166,-0.217,+4.500,+1.125,-21.750,-2, -1, -1, -1, -1, 0, 0, -4,-0.8555810025677721,1.2985938107730686,13
1503685470798,+0.290,+0.305,-0.523,-0.741,+0.969,-0.132,-0.228,+3.062,-1.438,-18.938,0, -1, 0, -1, 0, 0, 0, -1,-0.8591655124547687,1.2974604445597784,13
1503685470822,+0.294,+0.303,-0.523,-0.740,+0.954,-0.085,-0.216,+3.625,-9.125,-19.688,-1, -1, -2, 0, 0, -1, 1, 3,-0.8630223944947454,1.295153490811283,13
1503685470842,+0.298,+0.300,-0.523,-0.740,+0.946,-0.101,-0.237,+2.500,-9.062,-22.625,-3, -2, 0, 0, 0, -1, -2, -4,-0.8657042027977059,1.2918156589263663,13
1503685473881,+0.227,+0.302,-0.532,-0.758,+0.837,-0.262,-0.099,+118.062,+33.125,-0.812,12, 3, 6, 3, 0, -1, -2, 6,-0.7498521178519882,1.310281003553628,14
1503685473911,+0.236,+0.318,-0.532,-0.749,+0.846,-0.251,-0.093,+111.875,+31.562,-4.438,-6, 7, 10, 6, 4, -3, -7, -19,-0.7894032499462692,1.3308466871624405,14
1503685473925,+0.244,+0.332,-0.532,-0.740,+0.863,-0.271,-0.082,+103.688,+29.188,-8.250,-17, -8, -7, -1, -1, 0, -4, -16,-0.8245737154915574,1.3495877581938704,14
1503685473942,+0.253,+0.344,-0.532,-0.731,+0.890,-0.265,-0.051,+95.375,+24.062,-16.125,6, 9, -2, 0, 0, -2, 0, -6,-0.8586269049856291,1.3664298598710758,14
1503685473963,+0.263,+0.354,-0.532,-0.723,+0.893,-0.246,-0.057,+86.938,+15.000,-22.500,-4, 2, 7, 4, 3, 1, 0, -5,-0.8916671509460071,1.3812374037438042,14
1503685473985,+0.272,+0.362,-0.531,-0.716,+0.893,-0.223,-0.073,+78.625,+8.500,-26.438,-7, -1, 1, -1, 3, 0, 0, -1,-0.9194994591077392,1.391011770330893,14
1503685474001,+0.283,+0.369,-0.530,-0.710,+0.902,-0.211,-0.061,+71.125,-1.250,-30.938,3, -4, -6, -3, -3, -1, -2, 0,-0.9496527598677408,1.399949940572176,14
1503685474023,+0.293,+0.373,-0.529,-0.704,+0.921,-0.207,-0.024,+60.938,-6.688,-36.062,2, -1, -3, -2, -2, 1, 2, 6,-0.9726351175452714,1.4041415554617223,14
1503685474045,+0.302,+0.376,-0.529,-0.699,+0.935,-0.170,-0.018,+49.438,-5.375,-38.312,6, 7, 3, -2, -2, -2, 0, -4,-0.9928475195266906,1.409214601417341,14
1503685474061,+0.310,+0.377,-0.530,-0.693,+0.952,-0.142,-0.040,+40.000,+1.250,-36.312,1, -3, -4, -3, -3, 0, 1, 3,-1.0076643764056445,1.4131372869313445,14
1503685474083,+0.317,+0.378,-0.531,-0.689,+0.988,-0.105,-0.057,+32.438,+3.938,-31.062,5, 0, 1, 0, -1, 1, 0, 3,-1.0213937575365755,1.417273729400218,14
1503685474107,+0.323,+0.379,-0.532,-0.684,+1.024,-0.083,-0.061,+28.562,+2.125,-25.000,-2, -5, -1, 3, 2, 1, -1, 1,-1.0330015290080061,1.4211236608840967,14
1503685474121,+0.329,+0.380,-0.533,-0.681,+1.037,-0.082,-0.059,+26.188,-2.500,-22.875,1, -3, -1, -1, 0, 0, 0, 2,-1.0453223818647075,1.4252909331221126,14
1503685474143,+0.335,+0.380,-0.533,-0.678,+1.020,-0.082,-0.063,+23.875,-8.875,-23.062,-2, 3, -1, 5, 3, 1, -1, -6,-1.0554317271805573,1.4254908605698138,14
1503685474164,+0.340,+0.379,-0.532,-0.676,+1.006,-0.094,-0.058,+20.000,-9.812,-22.062,-1, 3, 0, -1, -1, -1, -1, -4,-1.0618320909444705,1.4217838547624606,14
1503685474195,+0.344,+0.379,-0.533,-0.673,+1.007,-0.082,-0.039,+13.875,-1.188,-19.500,-1, -2, -3, -5, -5, -1, 0, 1,-1.068683850804716,1.4240922013922663,14
1503685474210,+0.347,+0.379,-0.535,-0.671,+1.005,-0.063,-0.051,+10.500,+4.875,-17.188,-4, -1, 0, -3, -1, 0, -1, 0,-1.0743754962112253,1.4287736877958248,14
1503685474225,+0.350,+0.379,-0.536,-0.668,+1.008,-0.078,-0.058,+9.812,+1.562,-15.438,3, 1, 1, 1, 0, -2, -1, 1,-1.0793751495800439,1.4309703610176296,14
1503685474241,+0.353,+0.378,-0.536,-0.667,+1.014,-0.101,-0.067,+6.688,-3.500,-15.750,1, 1, 5, 2, 0, 0, -1, -5,-1.0828396049217548,1.4295283998674357,14
1503685474263,+0.356,+0.376,-0.537,-0.666,+0.969,-0.093,-0.080,+1.875,-6.750,-17.562,0, -9, -4, -3, 1, -1, 0, 0,-1.0848369773974476,1.4288175230672968,14
1503685474285,+0.358,+0.374,-0.538,-0.665,+0.954,-0.078,-0.070,-2.125,-5.625,-19.812,-1, 1, 0, 4, 4, 2, -2, -2,-1.0849664337604208,1.4280172328296188,14
1503685474301,+0.361,+0.371,-0.539,-0.664,+0.962,-0.065,-0.071,-4.750,-3.000,-21.250,-2, -5, -6, -5, -5, -3, -2, 1,-1.0851949381984791,1.4257584086794761,14
1503685474323,+0.363,+0.368,-0.541,-0.663,+0.976,-0.058,-0.069,-8.312,-3.500,-21.188,0, -6, -3, 1, 3, -1, -1, -4,-1.0839069161834602,1.425772864573014,14
1503685474345,+0.365,+0.364,-0.543,-0.663,+1.002,-0.049,-0.063,-13.500,-4.750,-19.562,2, 1, -7, -11, -11, -2, 1, 1,-1.0811921735398153,1.4244379992448288,14
1503685474361,+0.365,+0.361,-0.545,-0.663,+1.034,-0.030,-0.067,-17.438,-2.875,-14.875,-2, -8, -11, -8, -6, -3, -3, -5,-1.076485060525795,1.4245075736009416,14
1503685474383,+0.365,+0.357,-0.547,-0.663,+1.025,-0.026,-0.063,-20.438,-6.188,-12.188,0, 2, 3, 2, 1, -1, -4, -3,-1.070017962969379,1.4231026863910183,14
1503685474407,+0.365,+0.352,-0.548,-0.666,+1.063,-0.012,-0.060,-26.938,-18.500,-10.125,2, -2, 0, 2, 0, 0, -4, -3,-1.0625478157767192,1.418390662815296,14
1503685474421,+0.363,+0.347,-0.548,-0.669,+1.071,-0.037,-0.087,-33.812,-17.000,+5.812,-4, -9, -10, -7, -6, -3, 0, 0,-1.050968514654141,1.4112003194955136,14
1503685474444,+0.359,+0.343,-0.547,-0.674,+0.991,-0.038,-0.094,-36.812,-19.688,+13.125,-6, -2, -3, -2, 0, -2, -1, -2,-1.0377386124205952,1.4033282976457682,14
1503685474465,+0.356,+0.338,-0.548,-0.677,+0.958,-0.043,-0.083,-39.562,-20.125,+3.438,3, 0, -5, -1, -2, -1, -2, 0,-1.0247404875641342,1.3985969228743669,14
1503685474481,+0.354,+0.331,-0.548,-0.681,+0.978,-0.022,-0.139,-40.812,-17.000,-4.188,-1, -11, -7, 0, 0, 1, -2, -3,-1.0103535647217998,1.3890123461716053,14
1503685474503,+0.352,+0.325,-0.549,-0.684,+0.987,-0.026,-0.152,-41.688,-14.188,-5.250,-5, -8, -7, -2, 1, -2, -1, 0,-0.9977899218015408,1.3832511732370454,14
1503685474525,+0.350,+0.319,-0.550,-0.688,+0.969,-0.034,-0.151,-42.562,-15.500,-4.312,-3, 1, 0, 1, 1, 1, 0, -5,-0.9857283431034086,1.3778606937996345,14
1503685474542,+0.347,+0.313,-0.551,-0.691,+0.985,-0.053,-0.165,-41.125,-14.938,-3.500,-4, -7, -4, 2, 1, -1, -2, -2,-0.9714684254041607,1.3723014388505117,14
1503685474563,+0.345,+0.307,-0.552,-0.695,+0.991,-0.072,-0.160,-42.250,-16.688,-3.375,-5, 3, 4, 0, -1, 1, -2, -14,-0.9596462273584454,1.3672489830231886,14
1503685474588,+0.343,+0.300,-0.551,-0.699,+0.964,-0.057,-0.187,-41.125,-20.875,-5.500,-4, 0, -7, -6, -4, -2, 0, 3,-0.9456198987744696,1.3561460432255001,14
1503685474601,+0.341,+0.293,-0.550,-0.703,+0.953,-0.034,-0.202,-40.562,-27.375,-8.375,1, 0, -3, -8, -5, -2, 0, 6,-0.9317559593401064,1.3452325628062356,14
1503685474623,+0.340,+0.286,-0.549,-0.708,+0.970,-0.035,-0.191,-40.438,-29.375,-7.000,3, 0, -1, -4, -2, -3, -4, -5,-0.9204062769447501,1.3349024505453209,14
1503685474646,+0.338,+0.280,-0.549,-0.712,+0.966,-0.046,-0.213,-39.062,-23.188,-3.000,-5, -5, -3, -1, -3, 1, 3, 1,-0.9087757646057661,1.3281121729324914,14
1503685474661,+0.336,+0.275,-0.548,-0.715,+0.958,-0.035,-0.247,-35.312,-16.688,-1.938,-2, 2, 6, 5, 3, 1, -1, -1,-0.8980440616288708,1.3199641221656249,14
1503685474683,+0.334,+0.270,-0.547,-0.718,+0.988,-0.037,-0.238,-32.125,-19.188,-2.500,-6, -1, 1, 0, 0, -1, -1, -9,-0.8873947512667468,1.31191388424031,14
1503685474708,+0.332,+0.265,-0.546,-0.722,+1.032,-0.042,-0.235,-29.188,-20.750,-0.375,4, -1, -4, -3, -4, -2, -1, -1,-0.8772526857466745,1.3042507219630646,14
1503685474727,+0.331,+0.261,-0.545,-0.725,+1.018,-0.049,-0.240,-26.000,-24.188,+1.125,3, 10, 5, 4, 3, 2, 0, -1,-0.8702172653723701,1.2977307752307004,14
1503685474744,+0.330,+0.257,-0.542,-0.729,+0.999,-0.042,-0.268,-22.812,-27.125,-0.062,-3, -7, -4, -5, -6, -4, -3, -6,-0.8630003226658712,1.2866028442208062,14
1503685478725,+0.214,+0.247,-0.526,-0.785,+0.952,-0.233,-0.221,+3.625,-1.438,-15.625,2, 2, 3, -3, -1, 0, -1, 10,-0.6483917739351824,1.2354682905444303,15
1503685478747,+0.216,+0.247,-0.527,-0.784,+0.964,-0.194,-0.223,+1.438,+0.812,-18.375,0, -4, -6, 4, 3, 0, -4, -6,-0.6520292780229758,1.2379841037590915,15
1503685478770,+0.219,+0.245,-0.528,-0.783,+0.972,-0.151,-0.218,+3.125,-1.250,-20.875,0, -3, -8, -5, -4, -2, -3, -7,-0.6545531823443553,1.2384895180757909,15
1503685478785,+0.222,+0.244,-0.529,-0.782,+0.983,-0.127,-0.251,+3.188,-2.750,-16.625,0, -4, -8, -4, 0, -1, 0, -2,-0.6585358062739697,1.240080822933125,15
1503685478807,+0.224,+0.244,-0.529,-0.781,+0.984,-0.106,-0.264,+3.750,-0.500,-11.188,1, -7, -8, -5, -3, -1, 1, 2,-0.661781370779731,1.2400539058604971,15
1503685478830,+0.226,+0.244,-0.530,-0.781,+0.979,-0.109,-0.269,+5.688,-0.750,-7.812,2, 0, -3, 0, 0, -2, -3, 0,-0.6657759418769309,1.2429071681538184,15
1503685478845,+0.228,+0.244,-0.530,-0.780,+0.962,-0.121,-0.251,+5.250,+1.438,-7.875,-1, 8, 4, 2, -1, 1, 3, -2,-0.6690267907829056,1.2428798668536756,15
1503685478868,+0.229,+0.244,-0.531,-0.779,+0.953,-0.124,-0.252,+4.000,+2.875,-10.438,-2, 0, 2, -1, 0, -1, -3, -3,-0.6708578430765616,1.245227219068401,15
1503685478883,+0.231,+0.243,-0.532,-0.778,+0.948,-0.101,-0.267,+2.688,+4.438,-12.625,-2, 3, 7, 0, 0, -1, -1, 2,-0.6730427316104012,1.246652941186844,15
1503685478906,+0.234,+0.242,-0.533,-0.776,+0.932,-0.081,-0.284,+3.188,+3.562,-15.125,-2, -1, -2, 0, 2, -1, 1, 1,-0.6766712350699591,1.2478946653243552,15
1503685478929,+0.237,+0.241,-0.533,-0.776,+0.954,-0.084,-0.299,+4.812,+3.125,-14.938,-1, -4, -2, -3, -3, 0, 1, 0,-0.6806640183748202,1.2472846333309597,15
1503685478943,+0.239,+0.240,-0.534,-0.775,+0.957,-0.096,-0.301,+6.062,+0.625,-12.938,1, 0, 1, -2, -4, -2, -2, -6,-0.6828569676514405,1.2487134733209342,15
1503685478968,+0.242,+0.240,-0.533,-0.774,+0.958,-0.096,-0.271,+6.750,-2.375,-12.812,-2, -6, -3, -3, -4, -1, -3, -9,-0.6875687982295916,1.246300228954505,15
1503685478987,+0.244,+0.240,-0.534,-0.773,+0.945,-0.083,-0.263,+4.688,-1.750,-11.750,2, 5, 4, -2, -1, 0, -1, 9,-0.691211404755474,1.2487975655388406,15
1503685479006,+0.247,+0.239,-0.534,-0.772,+0.927,-0.073,-0.259,+4.250,+2.062,-14.188,-1, 5, 2, 5, 2, 1, 2, -18,-0.6948696257221881,1.2478444234942176,15
1503685479025,+0.250,+0.238,-0.535,-0.771,+0.938,-0.060,-0.260,+5.188,+3.312,-16.312,1, -3, -4, 0, 1, -1, -1, -13,-0.6989075609831623,1.2494221027273353,15
1503685479048,+0.253,+0.237,-0.536,-0.770,+0.947,-0.064,-0.249,+4.875,-0.438,-17.625,-5, -1, 0, 0, 0, -1, 1, 3,-0.702953326325959,1.250999309210666,15
1503685479064,+0.256,+0.236,-0.536,-0.769,+0.957,-0.070,-0.255,+3.125,-0.312,-18.188,1, 0, -1, 0, 1, -1, -1, 9,-0.7066469806373505,1.2500465289818325,15
1503685479086,+0.258,+0.234,-0.538,-0.768,+0.946,-0.049,-0.261,+0.812,+3.438,-16.500,0, 0, 3, 9, 0, -2, 0, 6,-0.7077931885349769,1.2529506843345453,15
1503685479108,+0.260,+0.233,-0.539,-0.766,+0.958,-0.042,-0.243,+0.625,+4.375,-15.250,-1, 1, -1, -5, -2, -2, 0, 4,-0.7096192517399796,1.2540496911498191,15
1503685479131,+0.262,+0.232,-0.540,-0.765,+0.981,-0.041,-0.259,+0.938,+3.625,-15.125,-4, 0, 3, 2, 2, 1, -2, -2,-0.7118409774851511,1.255488913530536,15
1503685479146,+0.265,+0.230,-0.541,-0.764,+0.973,-0.023,-0.250,-0.312,+0.000,-15.500,-7, -3, -4, -8, -7, -2, -5, -5,-0.7144921044705135,1.2560306408059352,15
1503685479168,+0.267,+0.229,-0.542,-0.763,+0.979,-0.000,-0.236,-0.625,+0.562,-14.438,-2, -3, 0, 1, 0, 0, 1, 0,-0.7167229470438589,1.257477235187765,15
1503685479189,+0.269,+0.227,-0.543,-0.763,+0.966,-0.009,-0.262,-1.250,-0.250,-10.375,2, 0, 0, 14, 13, 2, 0, 1,-0.7179434863873733,1.2582280496558573,15
1503685479206,+0.271,+0.226,-0.543,-0.762,+0.966,-0.012,-0.267,+0.000,-2.312,-9.938,3, -2, -3, -10, -8, -2, 0, 2,-0.7198432981872563,1.2571431895686775,15
1503685479227,+0.272,+0.225,-0.543,-0.762,+0.981,-0.006,-0.271,-0.062,-4.000,-9.938,5, 0, -1, -6, -1, -2, 0, 5,-0.7202944373857944,1.256255870929288,15
1503685479249,+0.274,+0.224,-0.542,-0.762,+0.970,-0.034,-0.282,+1.250,-4.000,-9.062,-1, -1, -1, -12, -6, -5, -1, -1,-0.7222827587041485,1.252971790727252,15
1503685479265,+0.275,+0.223,-0.542,-0.762,+0.957,-0.083,-0.307,+0.125,-3.750,-9.938,7, 7, 7, 8, 0, 1, 0, 5,-0.7227481879591389,1.2520897758257767,15
1503685479288,+0.277,+0.222,-0.541,-0.762,+0.975,-0.085,-0.313,-1.000,-2.438,-12.562,-1, -3, -5, -9, -3, -4, 1, -1,-0.7247618021233557,1.2488121161507455,15
1503685479309,+0.279,+0.222,-0.541,-0.762,+0.979,-0.052,-0.296,+1.688,+0.688,-12.000,3, 1, -1, -2, 5, 2, 1, 2,-0.7285202025286557,1.249093223484058,15
1503685479333,+0.281,+0.222,-0.541,-0.761,+0.965,-0.036,-0.305,+8.125,+0.625,-6.875,-4, -2, -3, -5, -5, 0, -1, -4,-0.7318683573169616,1.2490318508499767,15
1503685479347,+0.282,+0.224,-0.540,-0.761,+0.977,-0.035,-0.273,+10.750,-1.938,-2.125,-6, -3, -2, 2, 0, -1, -3, -4,-0.7362242514927185,1.2486889341522402,15
1503685479370,+0.283,+0.226,-0.539,-0.760,+0.973,-0.024,-0.282,+13.250,-0.438,+3.750,1, 1, 5, 0, 2, 1, 1, -1,-0.7401694465191042,1.2480256340360656,15
1503685479385,+0.283,+0.228,-0.538,-0.760,+0.966,-0.030,-0.296,+15.688,+1.750,+9.000,-1, -2, -3, -2, -3, -1, 0, -2,-0.7426521612339235,1.2475813552599433,15
1503685479408,+0.284,+0.232,-0.537,-0.760,+0.981,-0.040,-0.264,+16.688,-0.250,+12.062,-2, 2, -2, -1, -2, -3, -2, -1,-0.7498635655534935,1.249417331111172,15
1503685479434,+0.283,+0.236,-0.535,-0.760,+0.968,-0.071,-0.279,+18.375,-0.125,+14.125,-4, -3, -1, 5, 5, 0, -1, -5,-0.7529882306345242,1.2485078324751213,15
1503685479446,+0.283,+0.240,-0.533,-0.760,+0.958,-0.092,-0.285,+19.938,-2.938,+14.250,5, 3, 1, -4, -4, -6, -3, 0,-0.7580255904658716,1.2478202696075535,15
1503685479471,+0.284,+0.244,-0.531,-0.760,+0.953,-0.089,-0.275,+20.750,-5.812,+10.562,0, -1, -5, -1, 0, 1, -3, 2,-0.7649759393492161,1.2473635415428117,15
1503685479489,+0.285,+0.247,-0.529,-0.760,+0.945,-0.120,-0.283,+20.125,+0.625,+3.562,-1, -2, -8, -2, 0, 3, 0, 1,-0.7705020057467452,1.2458645949571565,15
1503685479506,+0.287,+0.250,-0.530,-0.758,+0.907,-0.090,-0.255,+17.062,+13.438,-5.812,-2, 0, 2, -2, -1, 2, 1, -2,-0.7781873328310185,1.251385550129293,15
1503685479527,+0.290,+0.251,-0.532,-0.755,+0.973,-0.029,-0.233,+14.938,+17.562,-12.500,-4, -3, 0, -1, -1, 2, 2, -3,-0.7848069935879098,1.2569862645347731,15
1503685479549,+0.292,+0.252,-0.534,-0.752,+1.021,+0.001,-0.222,+12.250,+10.125,-10.812,-1, 0, 2, 1, 0, -1, 0, 1,-0.7895377289687371,1.2624468305975651,15
1503685479567,+0.294,+0.253,-0.535,-0.751,+1.000,+0.025,-0.200,+7.625,+1.375,-2.250,-1, -4, 0, -1, -2, -5, -4, -2,-0.7947417523634284,1.2660684970987541,15
1503685479588,+0.294,+0.253,-0.536,-0.750,+0.953,+0.048,-0.199,+3.250,+0.688,+1.625,-2, -2, -2, -1, -1, -5, -2, -2,-0.7946841988603546,1.2682449675803176,15
1503685479610,+0.295,+0.252,-0.536,-0.749,+0.957,+0.076,-0.199,+1.188,+0.750,+2.938,0, 0, 1, 1, -1, 1, 1, 2,-0.7946906224771718,1.2669328568553135,15
1503685479625,+0.295,+0.251,-0.536,-0.750,+0.962,+0.065,-0.213,-3.062,-5.375,+7.000,0, -2, -1, 0, 0, -3, -2, -3,-0.7936330713288242,1.26611557535755,15
1503685479648,+0.294,+0.250,-0.536,-0.751,+0.955,+0.053,-0.212,-8.875,-8.938,+8.062,-1, 1, 1, -1, -1, -1, 2, -1,-0.7906824631876523,1.2651527280224502,15
1503685479670,+0.293,+0.248,-0.536,-0.752,+0.933,+0.040,-0.221,-13.875,-9.062,+9.562,-2, -3, -1, 0, 0, 1, -2, -2,-0.786272211036427,1.2630691104303673,15
1503685479686,+0.291,+0.246,-0.535,-0.754,+0.937,-0.009,-0.252,-18.500,-8.938,+11.625,1, 0, -1, 0, 0, -2, 0, 1,-0.7800442113782777,1.2586761458106637,15
1503685479708,+0.287,+0.243,-0.534,-0.757,+0.961,-0.051,-0.260,-25.375,-10.312,+12.312,2, 0, 0, -1, -2, -1, -1, 0,-0.7690150618032557,1.2532251651004236,15
1503685479730,+0.284,+0.240,-0.534,-0.760,+0.963,-0.061,-0.259,-31.562,-12.062,+11.000,1, 1, 0, 0, 0, 0, 0, -2,-0.7602611979260012,1.250481901609937,15
1503685479749,+0.280,+0.235,-0.533,-0.763,+0.953,-0.044,-0.281,-34.875,-16.812,+9.812,-1, -2, -1, 0, 0, 1, 0, 0,-0.7464540623507572,1.2429759778626512,15
1503685479768,+0.277,+0.231,-0.532,-0.766,+0.945,-0.050,-0.308,-36.625,-17.375,+8.500,0, 1, 0, 1, 0, 2, 0, -1,-0.7360244356654356,1.2367874339727214,15
1503685479789,+0.273,+0.226,-0.531,-0.770,+0.953,-0.015,-0.313,-34.125,-13.938,+8.438,-1, -3, -2, -3, -1, -3, -2, -1,-0.7227802891738774,1.229841423174698,15
1503685479806,+0.271,+0.222,-0.530,-0.772,+0.964,-0.004,-0.307,-28.875,-17.062,+9.125,-1, -3, -1, -2, -2, -3, -1, 0,-0.713939817462335,1.2236193494612595,15
1503685479828,+0.268,+0.218,-0.528,-0.776,+0.957,-0.015,-0.311,-25.812,-21.062,+9.375,-1, -1, 0, -1, -2, -1, -3, -4,-0.703758176872138,1.2155228243635567,15
1503685479850,+0.266,+0.215,-0.526,-0.779,+0.957,-0.043,-0.313,-25.438,-21.812,+9.688,-2, 1, -2, 1, -2, 1, 2, 0,-0.6964638210353868,1.2082852088150005,15
1503685479867,+0.263,+0.212,-0.524,-0.782,+0.918,-0.066,-0.324,-24.312,-17.812,+10.125,-5, -2, -1, -2, -1, 1, -2, -4,-0.6873236088377657,1.2009449853735021,15
1503685479888,+0.260,+0.209,-0.523,-0.785,+0.919,-0.067,-0.345,-23.688,-11.812,+10.562,-1, 0, 1, 0, 1, -1, 1, -1,-0.6785439116702008,1.1961782370713752,15
1503685479911,+0.257,+0.207,-0.521,-0.787,+0.942,-0.075,-0.353,-20.812,-9.938,+10.938,1, 1, 0, -1, -1, 0, -1, 1,-0.6703985769646315,1.189509313201785,15
1503685479926,+0.255,+0.206,-0.520,-0.789,+0.958,-0.082,-0.351,-15.938,-12.750,+11.188,-2, -2, -3, -2, -2, -3, -3, -2,-0.6657983137710253,1.1864958585775904,15
1503685479948,+0.252,+0.204,-0.517,-0.792,+0.965,-0.097,-0.337,-14.938,-18.750,+11.375,-2, 0, 0, 0, 1, -1, -1, -3,-0.6577577057336291,1.177735101379975,15
1503685479970,+0.250,+0.204,-0.515,-0.795,+0.948,-0.116,-0.345,-14.500,-20.500,+14.438,1, 0, -1, -1, -1, 0, 0, 1,-0.6545581234821368,1.173573651986859,15
1503685479985,+0.246,+0.203,-0.512,-0.797,+0.937,-0.115,-0.354,-12.938,-15.875,+18.438,-1, -3, -5, 0, 0, -1, 0, -2,-0.6455736309693342,1.1652398857316415,15
1503685480009,+0.243,+0.204,-0.510,-0.800,+0.944,-0.108,-0.378,-11.250,-11.062,+20.938,-1, -2, -1, -3, -2, -1, 0, 1,-0.6417981104316101,1.1618833460032798,15
1503685480030,+0.239,+0.205,-0.508,-0.802,+0.981,-0.122,-0.382,-8.625,-7.500,+23.625,-3, -6, -3, -2, 1, -2, 1, -2,-0.6357569814876989,1.1579608082317743,15
1503685480045,+0.235,+0.206,-0.506,-0.804,+0.968,-0.122,-0.402,-4.500,-5.625,+27.812,1, 2, 1, 0, -2, -2, 1, -1,-0.6297154818544075,1.1540371563946779,15
1503685480069,+0.231,+0.209,-0.503,-0.806,+0.960,-0.129,-0.399,+0.312,-11.375,+30.812,0, 0, -1, -1, 0, -2, -2, 3,-0.6259542298011459,1.149508193839825,15
1503685485535,+0.199,+0.341,-0.523,-0.756,+0.913,-0.253,-0.164,+27.062,+2.562,+10.250,-3, 0, -3, -2, -1, -2, -1, -5,-0.7626187990604916,1.337271549471381,16
1503685485550,+0.201,+0.344,-0.522,-0.754,+0.917,-0.265,-0.149,+22.625,-0.750,+3.812,0, -1, -1, -1, 0, -1, -2, -1,-0.7703171738185363,1.3390875820388681,16
1503685485573,+0.204,+0.346,-0.521,-0.753,+0.893,-0.272,-0.150,+18.500,-3.938,-3.625,-1, 0, 0, 0, -1, 0, -1, -1,-0.7782760944079383,1.3398570211109098,16
1503685485596,+0.207,+0.346,-0.521,-0.752,+0.904,-0.272,-0.148,+13.812,-4.000,-11.562,0, 1, 1, 1, 0, -1, 0, -1,-0.7831631237176723,1.340105615792993,16
1503685485610,+0.210,+0.346,-0.521,-0.752,+0.923,-0.279,-0.168,+8.812,-4.125,-12.938,-3, 1, 1, 1, 2, -3, -3, -4,-0.788366851385816,1.3406031446228042,16
1503685485633,+0.212,+0.346,-0.521,-0.751,+0.933,-0.278,-0.172,+4.750,-3.750,-11.000,-2, -5, -1, 0, -2, 0, -3, -1,-0.7915301102866404,1.3406849052941643,16
1503685485655,+0.214,+0.345,-0.521,-0.751,+0.928,-0.273,-0.156,+2.250,-3.125,-10.625,0, -1, -1, -1, -2, 0, -2, 1,-0.7932128400701939,1.3395050569068316,16
1503685485671,+0.216,+0.344,-0.521,-0.751,+0.920,-0.272,-0.159,-0.625,-5.188,-11.062,3, -1, -3, -2, 0, 0, 2, 2,-0.7949063682682643,1.3383304261489573,16
1503685485693,+0.218,+0.342,-0.521,-0.751,+0.935,-0.274,-0.179,-4.188,-6.375,-13.250,2, 2, 2, 1, -1, -2, 0, 4,-0.7948278910359631,1.335664411320456,16
1503685485715,+0.220,+0.339,-0.521,-0.752,+0.945,-0.266,-0.200,-8.062,-9.000,-14.938,1, 0, 2, -1, -2, 0, 2, 1,-0.7933244727110388,1.331789925903017,16
1503685485739,+0.222,+0.337,-0.520,-0.753,+0.958,-0.263,-0.196,-4.750,-13.750,-13.500,-3, -3, -5, -1, -2, -2, -2, -2,-0.7931369196317769,1.3269531511143309,16
1503685485753,+0.224,+0.336,-0.519,-0.754,+0.963,-0.265,-0.204,-1.000,-13.688,-9.312,-2, 0, 0, 0, -2, 0, 0, -3,-0.7947362120079554,1.323609112561912,16
1503685485775,+0.226,+0.335,-0.518,-0.754,+0.966,-0.261,-0.202,+1.500,-7.875,-7.438,-2, 0, 0, -1, -1, 0, -1, -3,-0.7960275738393714,1.3200119635444258,16
1503685485791,+0.227,+0.335,-0.518,-0.754,+0.985,-0.289,-0.186,+2.000,-2.562,-5.750,1, 1, 0, -4, -2, 1, 1, 0,-0.7977952055796893,1.3201845629867959,16
1503685485813,+0.227,+0.335,-0.518,-0.753,+0.977,-0.273,-0.169,-1.062,-2.000,+0.875,-2, -3, 0, -1, -1, -1, -2, -1,-0.7974659123865082,1.3199175795492495,16
1503685485835,+0.226,+0.336,-0.518,-0.753,+0.993,-0.262,-0.174,-1.812,+3.688,+10.812,-1, -2, -2, -1, -2, 0, -1, 0,-0.7974489608254798,1.3212129573166518,16
1503685485850,+0.224,+0.337,-0.518,-0.754,+0.938,-0.275,-0.169,-1.562,+1.438,+13.188,0, 0, -2, -4, -1, -2, 0, 1,-0.7960007081950363,1.322605320876444,16
1503685485873,+0.222,+0.337,-0.518,-0.754,+0.954,-0.266,-0.153,-6.312,+3.250,+7.125,-1, -1, -1, -2, 0, -1, -1, -2,-0.7924765209875427,1.3222604860150207,16
1503685485895,+0.221,+0.337,-0.518,-0.754,+0.971,-0.283,-0.179,-7.000,-1.750,+5.750,1, -1, -2, 0, -1, -1, -2, -1,-0.7907164002089596,1.3220877164456706,16
1503685485910,+0.219,+0.337,-0.517,-0.756,+0.987,-0.292,-0.196,-8.562,-6.812,+10.312,-1, 0, -1, -1, -1, -1, 1, -1,-0.7873487317199419,1.3197942614961249,16
1503685485933,+0.217,+0.337,-0.516,-0.757,+0.973,-0.288,-0.196,-8.312,-3.250,+17.125,-1, 0, -2, -2, 0, 0, -3, -2,-0.7836549994501358,1.3172316435143876,16
1503685485955,+0.214,+0.339,-0.515,-0.758,+0.946,-0.293,-0.200,-5.438,+1.438,+19.000,0, -1, 0, 0, -1, -1, 1, 0,-0.7817211003342611,1.317448673489794,16
1503685485970,+0.211,+0.340,-0.515,-0.758,+0.945,-0.307,-0.208,-3.125,+2.625,+17.188,3, 1, 0, 2, 0, 1, 2, 4,-0.7782255525690628,1.3184027310684165,16
1503685485993,+0.209,+0.341,-0.514,-0.759,+0.942,-0.311,-0.198,-1.562,+2.250,+13.500,1, 0, 0, 0, -2, 0, -1, 0,-0.7762982384622313,1.3173211124923951,16
1503685486017,+0.208,+0.342,-0.514,-0.759,+0.928,-0.302,-0.184,-1.312,+1.750,+9.875,-3, -4, -2, -4, -2, -3, -3, -8,-0.776322514795609,1.3186391698644717,16
1503685486035,+0.207,+0.343,-0.514,-0.759,+0.920,-0.307,-0.188,-0.812,+1.812,+4.938,-1, 1, -2, -1, 0, 0, -1, -1,-0.7763527179916303,1.3199619112360887,16
1503685486053,+0.207,+0.343,-0.513,-0.759,+0.913,-0.311,-0.186,+0.188,+0.750,+0.250,-2, -2, 0, 0, 0, 0, -3, -3,-0.7758381683455138,1.3174737027611159,16
1503685486075,+0.208,+0.343,-0.514,-0.759,+0.906,-0.307,-0.190,-0.375,+1.062,-4.625,1, 1, -2, 0, -2, -1, 1, 2,-0.7781009743494707,1.3201406364171757,16
1503685486090,+0.209,+0.342,-0.514,-0.758,+0.913,-0.302,-0.188,+0.438,+1.250,-10.688,-2, -2, 0, -1, 0, -2, 0, -2,-0.7777598509258028,1.3185490467715695,16
1503685486115,+0.211,+0.341,-0.515,-0.758,+0.924,-0.294,-0.192,+0.062,-0.938,-14.688,-3, 0, 0, 2, 0, 0, 0, 0,-0.77999622320756,1.3198948086950317,16
1503685486135,+0.214,+0.340,-0.516,-0.757,+0.923,-0.281,-0.184,-0.562,-3.125,-15.812,3, 4, 1, -1, -2, 1, 1, 4,-0.7836734201953723,1.321149483631221,16
1503685486149,+0.216,+0.338,-0.516,-0.757,+0.923,-0.272,-0.195,+1.125,-0.500,-15.125,-3, -2, 0, -2, -2, -1, -1, 0,-0.7836552329003743,1.3185330176048777,16
1503685486172,+0.218,+0.337,-0.517,-0.756,+0.936,-0.266,-0.203,+1.562,-1.625,-14.438,-3, -1, 0, 1, -1, -1, -1, -3,-0.7855899196463518,1.319619648911626,16
1503685486194,+0.221,+0.336,-0.517,-0.756,+0.956,-0.259,-0.214,+4.500,-5.625,-14.875,-4, -5, -4, -3, -2, 0, 0, -2,-0.7891165709436254,1.3186712021024083,16
1503685486209,+0.224,+0.336,-0.516,-0.756,+0.934,-0.242,-0.220,+8.438,-8.688,-13.562,-3, -5, 0, -2, -1, -2, -3, -4,-0.7939200155775694,1.3167213554334443,16
1503685486233,+0.227,+0.336,-0.515,-0.756,+0.964,-0.281,-0.208,+7.312,-8.875,-7.375,-1, 0, -2, -1, -1, 0, -2, -1,-0.7987414462930628,1.314779608746575,16
1503685486254,+0.227,+0.337,-0.513,-0.756,+0.988,-0.289,-0.222,+7.125,-5.812,+4.812,2, 3, 2, 1, 0, -1, 0, 2,-0.7995141974418404,1.3113172991228996,16
1503685486269,+0.227,+0.338,-0.512,-0.757,+0.944,-0.282,-0.201,+4.312,-7.875,+9.750,-3, -4, -2, -3, -3, -2, -1, -2,-0.8011053892863355,1.3106041722945176,16
1503685486292,+0.227,+0.339,-0.511,-0.756,+0.934,-0.281,-0.177,+4.625,-2.250,+2.562,0, 1, 0, 0, 1, 0, 1, 3,-0.8020404207060453,1.3093485205491495,16
1503685486314,+0.228,+0.339,-0.511,-0.756,+0.924,-0.287,-0.161,+0.938,-4.875,-3.938,-1, -5, 0, -3, -2, 0, -1, -2,-0.8038168072226678,1.3095311120821385,16
1503685490537,+0.160,+0.033,-0.510,-0.845,+0.914,+0.122,-0.444,-2.688,+8.062,-2.500,2, -4, 12, -4, -5, -2, 0, -4,-0.3107959001656277,1.0699184887253912,17
1503685490553,+0.160,+0.033,-0.513,-0.843,+0.995,+0.139,-0.365,-3.938,+14.312,-3.875,-5, -1, -5, 3, 3, 2, -7, -16,-0.3103725876245597,1.0767905234901107,17
1503685490575,+0.162,+0.033,-0.517,-0.840,+1.092,+0.167,-0.363,+2.062,+20.750,-11.438,-2, 5, 5, 5, 0, 2, 4, 19,-0.313321216806551,1.0858911833028866,17
1503685490597,+0.165,+0.033,-0.522,-0.836,+1.043,+0.208,-0.381,+9.000,+31.062,-12.625,-8, 4, 7, 8, 1, -1, -6, -10,-0.31780973578308924,1.0972247213962043,17
1503685490612,+0.168,+0.037,-0.528,-0.832,+0.853,+0.331,-0.428,+29.812,+47.938,+6.750,2, 4, 4, 0, 4, 1, 0, -18,-0.3265444315864963,1.1123860016962286,17
1503685490635,+0.167,+0.041,-0.530,-0.830,+0.981,+0.394,-0.586,+15.938,+28.062,+33.625,5, -3, -6, -4, -3, 0, 2, 8,-0.32848867961013717,1.1178683185573743,17
1503685490657,+0.165,+0.046,-0.540,-0.824,+0.802,+0.501,-0.396,+22.500,+79.188,+43.688,5, -1, -7, -4, -4, -2, 1, 9,-0.32921555541411707,1.1431081748062981,17
1503685490679,+0.160,+0.059,-0.553,-0.816,+0.677,+0.327,-0.443,+37.938,+107.375,+58.625,-8, -9, -6, -3, -3, -4, -4, -11,-0.3335791032300827,1.1783070306377286,17
1503685490695,+0.160,+0.072,-0.554,-0.814,+1.185,+0.270,-0.712,+67.438,+39.688,+51.188,-1, -12, -8, -2, -3, 1, 4, 2,-0.34783705921289815,1.1848781625346612,17
1503685490717,+0.156,+0.091,-0.555,-0.812,+1.172,+0.139,-0.296,+75.938,+21.438,+85.562,-2, 1, 0, -2, -2, 0, 3, 0,-0.3623455667342058,1.194466517755744,17
1503685490739,+0.155,+0.108,-0.551,-0.813,+1.035,+0.103,-0.235,+84.438,-14.625,+73.250,-2, 0, 7, 4, 4, -1, -5, -4,-0.380132389301675,1.1924180682380792,17
1503685490755,+0.156,+0.123,-0.543,-0.816,+0.947,+0.102,-0.322,+83.625,-33.938,+60.938,4, 0, 1, 2, 0, -1, -2, 4,-0.3988461426533709,1.180794146789798,17
1503685490777,+0.157,+0.139,-0.535,-0.819,+0.811,+0.020,-0.357,+87.312,-30.062,+56.188,-3, 0, 0, -9, -7, -3, -2, 3,-0.4187149661510335,1.1708439236478771,17
1503685490801,+0.159,+0.157,-0.529,-0.819,+0.721,-0.120,-0.365,+91.875,-7.250,+48.875,-2, 1, -2, -3, -5, -3, -3, -3,-0.4425247368429399,1.167504949050792,17
1503685490822,+0.161,+0.174,-0.527,-0.816,+0.721,-0.217,-0.356,+91.438,+25.562,+35.438,-1, -2, -3, 1, 2, -2, -2, -1,-0.4657589250554737,1.1738817776733916,17
1503685490837,+0.164,+0.191,-0.529,-0.810,+0.765,-0.271,-0.333,+88.688,+43.438,+20.250,3, -10, -7, -1, -4, 0, 1, -2,-0.4917625878811825,1.190754241551514,17
1503685490863,+0.168,+0.207,-0.532,-0.804,+0.834,-0.305,-0.276,+86.938,+46.688,+5.000,2, 15, 7, -1, -2, 0, -1, 17,-0.5193128113305164,1.210722137213778,17
1503685490875,+0.175,+0.221,-0.535,-0.797,+0.895,-0.325,-0.232,+84.562,+35.625,-7.062,-3, -8, 0, 8, 7, 0, 0, -9,-0.5497898359297371,1.2299908637145416,17
1503685490898,+0.182,+0.233,-0.535,-0.792,+0.896,-0.354,-0.219,+82.500,+18.375,-14.000,-6, -4, -6, -17, -11, -3, 0, -14,-0.5774265454619503,1.2411299707461867,17
1503685490919,+0.191,+0.245,-0.533,-0.787,+0.847,-0.389,-0.204,+80.625,+7.000,-21.375,-1, -1, 3, 5, 3, 2, -1, 49,-0.6081535077082951,1.2481504138379127,17
1503685490935,+0.200,+0.255,-0.532,-0.783,+0.805,-0.401,-0.164,+78.750,+1.688,-30.000,-1, -8, 1, 3, 1, 2, -3, -27,-0.637035155301952,1.2565735196734902,17
1503685490957,+0.210,+0.264,-0.532,-0.777,+0.879,-0.371,-0.150,+72.438,+7.875,-36.250,3, 19, 10, 6, 2, 0, 2, -10,-0.6662445426488923,1.2663988213966517,17
1503685490979,+0.219,+0.271,-0.532,-0.772,+0.922,-0.319,-0.141,+64.375,+8.688,-34.688,2, -12, -9, -6, -3, -1, -1, 5,-0.6912076112154654,1.2744301316457598,17
1503685490997,+0.227,+0.278,-0.532,-0.767,+0.946,-0.298,-0.125,+59.750,+0.375,-30.125,-2, 1, 2, -2, 2, -1, 0, -2,-0.7145668172859855,1.2825613816385162,17
1503685491017,+0.235,+0.284,-0.531,-0.763,+0.944,-0.289,-0.109,+54.812,-3.000,-31.688,2, -2, -1, 2, 1, 1, -1, -5,-0.7364476294925015,1.2874953358242611,17
1503685491040,+0.243,+0.289,-0.531,-0.758,+0.972,-0.275,-0.111,+48.812,+2.312,-33.688,-2, 4, 6, 2, -6, -2, -3, -6,-0.7569531205457928,1.2935653877216498,17
1503685491055,+0.250,+0.293,-0.532,-0.754,+1.010,-0.237,-0.125,+42.000,+4.250,-30.438,-2, -6, -4, -18, -11, -3, -1, -2,-0.7749463632650323,1.3011115429989812,17
1503685491078,+0.257,+0.296,-0.533,-0.750,+1.034,-0.204,-0.146,+38.312,+1.438,-27.000,-5, -2, -2, 2, 1, -1, 0, -5,-0.7914007920148004,1.3074311197294457,17
1503685491100,+0.264,+0.299,-0.533,-0.746,+1.025,-0.169,-0.180,+36.500,+3.188,-28.500,1, -7, -4, 1, -1, -1, 0, -2,-0.8074939509186536,1.3113130367902266,17
1503685491117,+0.271,+0.301,-0.534,-0.742,+1.036,-0.146,-0.168,+34.812,+3.000,-28.562,1, 3, -1, -5, -2, 0, 1, 9,-0.8224390576594771,1.3163983526666856,17
1503685491139,+0.277,+0.302,-0.534,-0.739,+1.039,-0.129,-0.158,+30.812,-0.500,-25.312,-1, 3, 5, 1, 2, 0, -2, -2,-0.8339304451040923,1.317824746826288,17
1503685491159,+0.282,+0.304,-0.534,-0.737,+1.019,-0.103,-0.158,+26.625,-1.188,-19.625,-1, -6, -12, -11, -8, -2, -1, -3,-0.8456348421817086,1.3207058513921184,17
1503685491175,+0.287,+0.305,-0.535,-0.734,+0.985,-0.094,-0.192,+24.375,+4.438,-18.625,1, -2, -2, 2, -1, -1, -3, -1,-0.8557632606488544,1.3244584697360915,17
1503685491198,+0.291,+0.306,-0.536,-0.731,+0.962,-0.078,-0.209,+22.812,+8.750,-19.438,-3, 1, -3, -4, -4, -5, -2, -7,-0.8640619976189792,1.328064888303467,17
1503685491220,+0.297,+0.307,-0.537,-0.728,+0.952,-0.062,-0.188,+22.688,+3.375,-22.188,2, 1, 5, 2, 2, 2, 2, 1,-0.8760897994159911,1.3319700650680644,17
1503685491235,+0.301,+0.307,-0.537,-0.726,+1.018,-0.085,-0.156,+17.375,-3.125,-21.500,6, -1, -3, 0, -1, 1, -1, 3,-0.8827722420520516,1.3320434622837092,17
1503685491257,+0.304,+0.307,-0.536,-0.725,+0.967,-0.057,-0.203,+11.062,-4.688,-10.625,-3, -1, -8, -3, 1, 0, -2, -3,-0.8876017928038634,1.3297801738463662,17
1503685491279,+0.307,+0.307,-0.536,-0.724,+0.942,-0.034,-0.181,+7.375,-1.875,-6.125,-1, -7, -8, -3, -1, 0, -2, -6,-0.8928385237877994,1.3299652059193312,17
1503685491295,+0.309,+0.306,-0.537,-0.723,+0.946,-0.054,-0.173,+3.500,-2.375,-8.688,-5, -1, 2, 2, -2, -2, -3, 11,-0.8949558232993399,1.331100125152766,17
1503685491318,+0.311,+0.305,-0.536,-0.723,+0.974,-0.067,-0.179,+2.250,-6.562,-11.000,-4, -3, -3, -9, -14, -4, -3, -5,-0.8967032659366116,1.3276071309731814,17
1503685491333,+0.313,+0.303,-0.536,-0.723,+0.953,-0.068,-0.205,+0.812,-10.812,-13.188,-2, -2, -4, 1, 6, -3, -1, -3,-0.8972229424964535,1.3252260611769195,17
1503685491355,+0.317,+0.300,-0.535,-0.724,+0.923,-0.055,-0.198,-0.938,-13.625,-17.062,2, 0, 1, 0, 2, -2, 1, 1,-0.8999690004920885,1.3196527628437151,17
1503685491377,+0.320,+0.297,-0.535,-0.724,+0.937,-0.044,-0.181,-3.875,-13.688,-19.375,-1, -2, -3, 3, 1, -1, -4, -2,-0.9008650304150954,1.3161424580797125,17
1503685491400,+0.322,+0.294,-0.535,-0.724,+0.972,-0.061,-0.181,-7.375,-8.562,-19.438,8, 2, 2, 0, -2, -1, -5, 17,-0.8999004469447105,1.312512821730785,17
1503685491415,+0.324,+0.291,-0.536,-0.723,+0.979,-0.040,-0.212,-9.312,-5.188,-16.375,-7, -4, 0, 1, 2, 5, 6, 0,-0.8989361801824706,1.3110858791696136,17
1503685495337,+0.123,+0.005,-0.495,-0.860,+0.877,+0.116,-0.460,-3.062,+2.750,+0.188,4, -1, -1, 1, 0, 0, -2, -1,-0.2196739401601889,1.0318251626858725,18
1503685495365,+0.123,+0.005,-0.495,-0.860,+0.881,+0.117,-0.453,-2.688,+1.188,-0.312,11, 0, -5, -2, -2, -1, -4, -7,-0.2196739401601889,1.0318251626858725,18
1503685495381,+0.123,+0.005,-0.495,-0.860,+0.873,+0.116,-0.463,-2.312,+1.062,-0.438,-3, -2, 1, -1, -2, -1, 0, -3,-0.2196739401601889,1.0318251626858725,18
1503685495398,+0.123,+0.004,-0.496,-0.860,+0.868,+0.113,-0.456,-2.562,+1.312,-0.438,-11, -1, 0, -3, -3, 0, 2, -3,-0.21870519656536436,1.034282695317043,18
1503685495419,+0.123,+0.004,-0.497,-0.859,+0.880,+0.132,-0.466,-2.938,+5.250,-1.188,-1, -3, -5, -3, -3, 0, 0, 1,-0.21847130382265414,1.0363746827772204,18
1503685495441,+0.124,+0.004,-0.498,-0.858,+0.901,+0.148,-0.454,-1.875,+8.188,-4.188,-1, -11, -9, -3, 1, 0, -1, -1,-0.22003191420588164,1.0384738155620505,18
1503685495457,+0.125,+0.003,-0.501,-0.856,+0.911,+0.151,-0.460,-0.188,+19.438,-5.000,-6, 0, 4, 1, 1, 0, 1, 1,-0.22037228535371473,1.0451497418175886,18
1503685495479,+0.127,+0.004,-0.507,-0.852,+0.933,+0.164,-0.479,+1.062,+45.938,-9.875,0, 0, -3, -1, -3, -2, -2, 3,-0.22399723485734818,1.0589875845348142,18
1503685495502,+0.130,+0.005,-0.518,-0.845,+0.971,+0.110,-0.407,+4.688,+72.688,-19.438,3, 2, 1, -1, 0, 0, 2, 1,-0.22868707959714168,1.0846492198071624,18
1503685495517,+0.134,+0.003,-0.528,-0.838,+1.209,+0.039,-0.364,-4.188,+56.812,-40.500,6, -7, -6, 0, 2, -2, -3, 7,-0.2319868416702835,1.1075570510219184,18
1503685495539,+0.138,-0.001,-0.539,-0.831,+1.105,+0.073,-0.313,-23.438,+60.000,-44.062,-11, -1, -2, 1, -1, -1, -1, -3,-0.23300696283543254,1.1332192608095681,18
1503685495562,+0.145,-0.006,-0.552,-0.821,+0.805,+0.378,-0.365,-8.938,+96.625,-41.500,2, 0, 1, 1, 2, 2, 4, 3,-0.23709938406395528,1.1632782377246806,18
1503685495577,+0.146,-0.001,-0.567,-0.810,+0.550,+0.386,-0.438,+14.438,+119.125,+2.125,0, 4, 4, 1, 1, -2, -2, -3,-0.2410862882309275,1.1999773539710261,18
1503685495600,+0.150,+0.006,-0.583,-0.799,+0.880,+0.647,-0.532,+33.812,+122.875,+5.812,-2, 2, 3, 2, 0, -1, -5, -2,-0.2528124437877643,1.2403882686053633,18
1503685495621,+0.150,+0.018,-0.597,-0.788,+1.066,+0.452,-0.208,+46.312,+110.500,+40.500,2, 0, -1, 0, -1, -3, -3, -2,-0.26392371300971657,1.2767699610884498,18
1503685495637,+0.149,+0.033,-0.605,-0.781,+1.139,+0.330,-0.281,+59.188,+76.875,+59.750,-3, -2, -5, -5, -1, -3, -1, -2,-0.2785539781307989,1.2993269029014214,18
1503685495662,+0.149,+0.048,-0.604,-0.781,+1.208,+0.260,-0.393,+70.625,+17.500,+63.562,9, 1, -1, 0, -1, -2, 5, 12,-0.2966821038001488,1.3001230604692413,18
1503685495681,+0.150,+0.064,-0.596,-0.786,+1.056,+0.232,-0.380,+86.500,-30.375,+68.000,1, 3, 3, 0, 0, -1, -2, 1,-0.318405932494119,1.284584529796877,18
1503685495699,+0.152,+0.083,-0.585,-0.793,+0.908,+0.119,-0.384,+98.062,-51.125,+70.312,-6, -5, -5, 0, 0, 0, 0, -5,-0.3453455141848323,1.2641434989626605,18
1503685495720,+0.154,+0.103,-0.574,-0.798,+0.827,-0.003,-0.377,+106.188,-48.562,+68.875,-4, -3, -5, -4, 0, 1, 2, -2,-0.3726028214765128,1.245359149076491,18
1503685495742,+0.157,+0.124,-0.566,-0.800,+0.773,-0.138,-0.350,+111.812,-27.688,+63.375,1, 15, 16, 4, -3, -2, -3, -7,-0.40241305186516413,1.2360578469440724,18
1503685495757,+0.160,+0.145,-0.560,-0.800,+0.790,-0.216,-0.333,+114.688,-2.812,+59.750,-6, -9, -7, -1, 1, 2, 0, -8,-0.4323168547173913,1.2332615262846045,18
1503685495780,+0.163,+0.168,-0.557,-0.797,+0.832,-0.235,-0.349,+119.812,+14.062,+56.688,-5, 0, 2, 4, 3, -1, -8, -12,-0.46523392458705826,1.2406243362387939,18
1503685495802,+0.167,+0.191,-0.554,-0.793,+0.833,-0.270,-0.323,+125.438,+18.062,+50.188,2, -5, -7, -4, -4, -2, 1, 14,-0.5004582073830912,1.2499437126253765,18
1503685495818,+0.174,+0.212,-0.551,-0.788,+0.861,-0.325,-0.242,+126.625,+13.312,+37.438,3, 5, 4, 2, -1, 0, -1, 3,-0.5387838341967207,1.2597254849430843,18
1503685495840,+0.182,+0.232,-0.548,-0.783,+0.895,-0.331,-0.158,+125.625,+13.062,+21.438,-1, -1, 5, 1, 0, 0, -3, 4,-0.5783438769037621,1.2706426745316977,18
1503685495864,+0.191,+0.250,-0.546,-0.777,+0.916,-0.294,-0.157,+123.438,+15.750,+12.688,5, -4, -15, -12, -9, -7, -2, -12,-0.6177100672711137,1.283647736454142,18
1503685495877,+0.200,+0.268,-0.543,-0.770,+0.899,-0.282,-0.164,+121.500,+13.250,+8.938,1, 3, 3, -1, -1, 1, 2, 0,-0.6571943452631489,1.2953355695019066,18
1503685495900,+0.211,+0.284,-0.540,-0.763,+0.899,-0.314,-0.099,+118.375,+10.562,-1.375,1, -3, -1, 1, 0, 0, 1, -1,-0.6978798343111536,1.3064543620427047,18
1503685495922,+0.222,+0.299,-0.538,-0.756,+0.932,-0.341,-0.051,+111.062,+9.750,-12.562,-7, -4, -3, 0, -1, 2, 1, -4,-0.7381571426655243,1.3200995495491943,18
1503685495938,+0.232,+0.311,-0.537,-0.749,+0.957,-0.305,-0.067,+101.875,+13.688,-13.562,-2, -12, -5, -4, -3, -2, -2, -3,-0.772823307941895,1.333134775931805,18
1503685495960,+0.241,+0.324,-0.536,-0.742,+0.925,-0.271,-0.081,+90.938,+12.312,-9.875,1, 0, -2, -2, -1, 0, 1, 4,-0.8079390885389901,1.3481341790634076,18
1503685495982,+0.248,+0.334,-0.535,-0.736,+0.941,-0.244,-0.059,+78.562,+8.875,-10.500,-1, -2, -1, 0, 0, 0, 0, 1,-0.8351682632945217,1.359518151882567,18
1503685496000,+0.255,+0.342,-0.535,-0.729,+0.983,-0.231,-0.045,+67.312,+13.812,-15.062,-1, -2, -4, -4, -4, -3, -1, -2,-0.8592999839908991,1.370649998188563,18
1503685496020,+0.262,+0.349,-0.536,-0.723,+0.994,-0.198,-0.058,+58.438,+16.312,-15.688,-3, 2, 10, 5, 3, 0, 1, -3,-0.8826568202440738,1.3832369848495634,18
1503685496042,+0.269,+0.354,-0.536,-0.718,+0.991,-0.171,-0.070,+52.750,+5.688,-16.062,-5, -8, -9, -1, -3, -2, -1, -2,-0.9024351871327347,1.3907375329857738,18
1503685496058,+0.276,+0.358,-0.535,-0.714,+0.990,-0.165,-0.062,+44.625,-6.500,-18.750,2, 1, 1, -1, 0, 1, 2, 4,-0.9203901488230716,1.3945829208150187,18
