Timestamp,Orientation X,Orientation Y,Orientation Z,Orientation W,Accelerometer X,Accelerometer Y,Accelerometer Z,Gyroscope X,Gyroscope Y,Gyroscope Z,EMG1,EMG2,EMG3,EMG4,EMG5,EMG6,EMG7,EMG8,Roll,Yaw
1503685368585,+0.108,+0.024,-0.435,-0.894,+0.804,+0.062,-0.575,-1.188,+1.812,+0.938,-1, -1, -1, 0, -2, -2, 1, -1,-0.21593383510505867,0.9007245307996036
1503685368607,+0.108,+0.024,-0.435,-0.894,+0.806,+0.057,-0.570,-0.938,+0.938,+1.062,0, -1, -2, -1, 0, 1, 1, -2,-0.21593383510505867,0.9007245307996036
1503685368623,+0.108,+0.024,-0.435,-0.894,+0.808,+0.056,-0.574,-1.188,+0.688,+0.688,-1, -1, 0, 0, -2, -2, -1, -1,-0.21593383510505867,0.9007245307996036
1503685368649,+0.108,+0.024,-0.435,-0.894,+0.803,+0.056,-0.569,-1.000,+0.875,+0.812,0, 0, -1, -1, 0, -2, -2, -1,-0.21593383510505867,0.9007245307996036
1503685368667,+0.108,+0.024,-0.435,-0.894,+0.804,+0.060,-0.576,-1.125,+0.188,+0.375,0, 0, 0, 0, -2, -1, -1, -1,-0.21593383510505867,0.9007245307996036
1503685368683,+0.108,+0.024,-0.435,-0.894,+0.803,+0.060,-0.573,-0.938,+0.250,+0.500,1, -1, -1, -1, 1, 2, 0, -1,-0.21593383510505867,0.9007245307996036
1503685368705,+0.108,+0.024,-0.435,-0.894,+0.804,+0.057,-0.583,-1.062,-0.062,+0.438,-1, 0, 0, -1, -1, 0, -1, 0,-0.21593383510505867,0.9007245307996036
1503685368727,+0.108,+0.024,-0.435,-0.894,+0.804,+0.059,-0.574,-1.125,+0.062,+0.438,-2, -2, 1, -1, -2, 0, -2, 0,-0.21593383510505867,0.9007245307996036
1503685368743,+0.108,+0.024,-0.435,-0.894,+0.804,+0.057,-0.576,-1.250,-0.062,+0.500,0, -2, 0, -1, 1, -1, -1, -2,-0.21593383510505867,0.9007245307996036
1503685368766,+0.108,+0.024,-0.435,-0.894,+0.806,+0.056,-0.570,-1.312,-0.812,+0.188,0, 0, 1, 1, -1, 0, -1, 0,-0.21593383510505867,0.9007245307996036
1503685368788,+0.108,+0.024,-0.435,-0.894,+0.804,+0.056,-0.573,-1.312,+0.000,+0.250,-1, -1, -1, -1, 0, -1, 0, 0,-0.21593383510505867,0.9007245307996036
1503685368803,+0.108,+0.024,-0.435,-0.894,+0.808,+0.060,-0.573,-1.375,-0.375,+0.062,-1, -1, -2, -2, -2, 0, -1, 0,-0.21593383510505867,0.9007245307996036
1503685368825,+0.108,+0.024,-0.435,-0.894,+0.805,+0.060,-0.580,-1.500,+0.125,+0.188,0, 0, -1, -1, 0, -1, 1, 0,-0.21593383510505867,0.9007245307996036
1503685368848,+0.108,+0.024,-0.435,-0.894,+0.807,+0.055,-0.573,-1.125,+0.125,+0.500,-1, -1, -2, -2, -1, -1, 0, -2,-0.21593383510505867,0.9007245307996036
1503685368863,+0.108,+0.024,-0.435,-0.894,+0.804,+0.058,-0.578,-1.188,-0.125,+0.250,-2, 1, -1, -1, -1, -2, 0, 0,-0.21593383510505867,0.9007245307996036
1503685368888,+0.108,+0.024,-0.435,-0.894,+0.805,+0.058,-0.584,-1.438,+0.250,+0.500,-2, -1, -2, -1, -1, -1, -1, -3,-0.21593383510505867,0.9007245307996036
1503685368908,+0.108,+0.024,-0.435,-0.894,+0.803,+0.059,-0.571,-1.500,+1.062,+0.375,0, 0, -2, 1, -1, 1, 0, -1,-0.21593383510505867,0.9007245307996036
1503685368923,+0.108,+0.024,-0.435,-0.894,+0.806,+0.059,-0.567,-1.375,+0.812,+0.375,-1, 0, 0, -2, 0, -3, -3, -2,-0.21593383510505867,0.9007245307996036
1503685368946,+0.108,+0.024,-0.435,-0.894,+0.809,+0.060,-0.578,-1.375,+0.562,+0.438,-2, -1, 0, 1, 0, -1, 0, -2,-0.21593383510505867,0.9007245307996036
1503685368969,+0.108,+0.024,-0.435,-0.894,+0.806,+0.061,-0.574,-1.250,-0.312,+0.438,1, -2, -1, -1, -2, 0, 0, 0,-0.21593383510505867,0.9007245307996036
1503685368987,+0.108,+0.024,-0.435,-0.894,+0.803,+0.058,-0.571,-1.000,+0.125,+0.438,-2, -1, -1, -2, -2, -2, -1, -2,-0.21593383510505867,0.9007245307996036
1503685369006,+0.108,+0.024,-0.435,-0.894,+0.802,+0.056,-0.571,-1.250,-0.312,+0.312,-1, -2, 0, -1, -2, -2, -1, -1,-0.21593383510505867,0.9007245307996036
1503685369029,+0.108,+0.024,-0.435,-0.894,+0.807,+0.057,-0.571,-1.312,-0.500,+0.250,0, -1, -1, 0, 0, 0, -2, 0,-0.21593383510505867,0.9007245307996036
1503685369043,+0.108,+0.024,-0.435,-0.894,+0.804,+0.061,-0.573,-1.312,+0.125,+0.375,-2, 0, 0, 0, 1, 0, -1, 0,-0.21593383510505867,0.9007245307996036
1503685369066,+0.108,+0.024,-0.435,-0.894,+0.804,+0.062,-0.572,-1.312,-0.562,+0.250,0, -1, -2, -2, -1, 0, 1, -2,-0.21593383510505867,0.9007245307996036
1503685369089,+0.108,+0.024,-0.435,-0.894,+0.805,+0.057,-0.579,-1.312,+0.125,+0.312,-1, -1, 0, -1, -1, 0, 0, -1,-0.21593383510505867,0.9007245307996036
1503685369104,+0.108,+0.024,-0.435,-0.894,+0.803,+0.058,-0.562,-1.125,-0.062,+0.688,0, -1, -2, -1, 1, -2, -2, 0,-0.21593383510505867,0.9007245307996036
1503685369127,+0.108,+0.024,-0.435,-0.894,+0.806,+0.060,-0.575,-0.875,+0.062,+0.562,0, -1, 0, 0, -2, -1, -1, -2,-0.21593383510505867,0.9007245307996036
1503685369148,+0.108,+0.024,-0.435,-0.894,+0.807,+0.054,-0.579,-0.750,+0.000,+0.938,1, -2, 0, -1, -2, -3, 0, 1,-0.21593383510505867,0.9007245307996036
1503685369163,+0.108,+0.024,-0.435,-0.894,+0.804,+0.060,-0.573,-1.000,-0.250,+0.438,0, 1, -2, 0, 0, 1, -1, 0,-0.21593383510505867,0.9007245307996036
1503685369188,+0.108,+0.024,-0.435,-0.894,+0.807,+0.054,-0.574,-1.000,+0.000,+0.500,-1, -2, 0, -2, -1, 0, 0, -3,-0.21593383510505867,0.9007245307996036
1503685369208,+0.108,+0.024,-0.435,-0.894,+0.810,+0.058,-0.573,-1.062,-0.562,+0.375,0, -2, -2, -1, 0, -2, 0, 0,-0.21593383510505867,0.9007245307996036
1503685369225,+0.108,+0.024,-0.435,-0.894,+0.800,+0.052,-0.575,-1.188,-0.688,+0.562,0, 1, -1, 1, -1, -1, 1, 0,-0.21593383510505867,0.9007245307996036
1503685369246,+0.108,+0.024,-0.435,-0.894,+0.800,+0.056,-0.577,-1.188,-0.750,+0.562,-1, 0, -1, 1, -1, -1, 0, 2,-0.21593383510505867,0.9007245307996036
1503685369268,+0.108,+0.024,-0.435,-0.894,+0.805,+0.057,-0.577,-1.062,-0.250,+0.312,-2, -2, 0, -1, -1, -1, -1, -1,-0.21593383510505867,0.9007245307996036
1503685369283,+0.108,+0.024,-0.435,-0.894,+0.799,+0.056,-0.570,-1.000,+0.062,+0.625,1, 1, -1, -1, -2, 0, -1, -1,-0.21593383510505867,0.9007245307996036
1503685369306,+0.108,+0.024,-0.435,-0.894,+0.803,+0.061,-0.571,-1.062,+0.125,+0.688,-1, -2, -2, 0, 0, 1, -2, 0,-0.21593383510505867,0.9007245307996036
1503685369328,+0.108,+0.024,-0.435,-0.894,+0.809,+0.051,-0.572,-1.062,-0.250,+0.438,-2, -2, 0, -1, -1, -2, 0, -2,-0.21593383510505867,0.9007245307996036
1503685369343,+0.108,+0.024,-0.435,-0.894,+0.803,+0.057,-0.572,-1.062,-0.375,+0.500,0, -2, 0, -2, 0, -1, -1, 0,-0.21593383510505867,0.9007245307996036
1503685369367,+0.108,+0.024,-0.435,-0.894,+0.804,+0.059,-0.574,-1.000,-0.062,+0.438,0, 1, -2, -1, -1, 0, -3, -2,-0.21593383510505867,0.9007245307996036
1503685369391,+0.108,+0.024,-0.435,-0.894,+0.806,+0.056,-0.581,-1.000,-0.688,+0.562,0, 0, -2, 0, 0, -1, -2, 0,-0.21593383510505867,0.9007245307996036
1503685369403,+0.108,+0.024,-0.435,-0.894,+0.801,+0.062,-0.575,-1.000,-0.125,+0.750,-1, 0, -1, -1, -1, -1, 0, 0,-0.21593383510505867,0.9007245307996036
1503685369433,+0.108,+0.024,-0.435,-0.894,+0.808,+0.059,-0.572,-0.625,-0.625,+0.812,-1, 0, -3, -2, 0, 0, -2, -2,-0.21593383510505867,0.9007245307996036
1503685369448,+0.108,+0.024,-0.435,-0.894,+0.804,+0.060,-0.578,-0.875,-0.938,+0.438,-1, -3, 0, 0, -1, -1, 0, 0,-0.21593383510505867,0.9007245307996036
1503685369465,+0.108,+0.024,-0.435,-0.894,+0.800,+0.053,-0.578,-0.875,-0.125,+0.625,0, -1, -1, -2, 0, 0, 0, -1,-0.21593383510505867,0.9007245307996036
1503685369486,+0.108,+0.024,-0.435,-0.894,+0.800,+0.055,-0.573,-1.188,-0.562,+0.375,-4, 1, 1, 0, -1, -3, 0, -2,-0.21593383510505867,0.9007245307996036
1503685369508,+0.108,+0.024,-0.435,-0.894,+0.809,+0.056,-0.578,-1.312,-0.062,+0.312,-2, -1, -2, -2, 0, 0, -2, -1,-0.21593383510505867,0.9007245307996036
1503685369525,+0.108,+0.024,-0.435,-0.894,+0.812,+0.060,-0.572,-1.000,-0.688,+0.375,-2, 1, 1, 1, 1, -2, 0, 0,-0.21593383510505867,0.9007245307996036
1503685369546,+0.108,+0.024,-0.435,-0.894,+0.807,+0.061,-0.571,-1.125,-0.875,+0.312,0, 0, -1, -1, -2, -3, 0, 0,-0.21593383510505867,0.9007245307996036
1503685369568,+0.108,+0.024,-0.435,-0.894,+0.803,+0.054,-0.574,-1.125,-1.062,+0.375,-1, -2, -1, 0, -1, 0, -2, -2,-0.21593383510505867,0.9007245307996036
1503685369584,+0.108,+0.024,-0.435,-0.894,+0.802,+0.058,-0.571,-1.250,-0.875,+0.188,0, 0, -2, 0, -1, -1, -1, -1,-0.21593383510505867,0.9007245307996036
1503685369606,+0.108,+0.024,-0.435,-0.894,+0.805,+0.058,-0.573,-1.125,-0.125,+0.438,0, -2, 1, -1, 0, -2, -2, 0,-0.21593383510505867,0.9007245307996036
1503685369629,+0.108,+0.024,-0.435,-0.894,+0.804,+0.056,-0.578,-1.125,-0.250,+0.438,-1, 0, 0, -2, -1, 0, 2, -1,-0.21593383510505867,0.9007245307996036
1503685369644,+0.108,+0.024,-0.435,-0.894,+0.799,+0.058,-0.574,-1.250,+0.062,+0.562,-2, -1, 0, -1, -1, -1, -3, 0,-0.21593383510505867,0.9007245307996036
1503685369667,+0.108,+0.024,-0.435,-0.894,+0.804,+0.058,-0.574,-1.188,+0.375,+0.438,1, -3, -1, -1, -3, 0, 0, 1,-0.21593383510505867,0.9007245307996036
1503685369688,+0.108,+0.024,-0.435,-0.894,+0.809,+0.055,-0.572,-1.062,+0.062,+0.562,-2, 0, -1, -1, -1, -1, 0, -1,-0.21593383510505867,0.9007245307996036
1503685369703,+0.108,+0.024,-0.435,-0.894,+0.809,+0.060,-0.580,-1.062,-0.375,+0.625,0, 0, -1, 0, -1, 1, 1, -1,-0.21593383510505867,0.9007245307996036
1503685369727,+0.108,+0.024,-0.435,-0.894,+0.804,+0.058,-0.573,-1.375,-0.688,+0.438,-1, -2, -1, -1, 1, 0, 0, 0,-0.21593383510505867,0.9007245307996036
1503685369748,+0.108,+0.024,-0.435,-0.894,+0.799,+0.053,-0.585,-1.250,-0.062,+0.500,-1, 1, -1, -1, 0, 1, -3, -3,-0.21593383510505867,0.9007245307996036
1503685369764,+0.108,+0.024,-0.435,-0.894,+0.801,+0.057,-0.577,-1.250,+0.062,+0.438,-1, -3, -2, 0, -1, -2, -2, 1,-0.21593383510505867,0.9007245307996036
1503685369786,+0.108,+0.024,-0.435,-0.894,+0.803,+0.059,-0.572,-1.125,+0.125,+0.375,0, -1, -1, -1, -2, -2, -1, -1,-0.21593383510505867,0.9007245307996036
1503685369808,+0.108,+0.024,-0.435,-0.894,+0.802,+0.057,-0.577,-1.125,+0.062,+0.375,0, 0, -2, 0, 0, -2, 0, 0,-0.21593383510505867,0.9007245307996036
1503685369823,+0.108,+0.024,-0.435,-0.894,+0.806,+0.057,-0.574,-1.062,+0.375,+0.562,0, -1, -2, -1, -1, 0, -1, -1,-0.21593383510505867,0.9007245307996036
1503685369846,+0.108,+0.024,-0.435,-0.894,+0.809,+0.058,-0.574,-1.250,-0.062,+0.438,0, -2, -1, -1, -1, -3, -1, 0,-0.21593383510505867,0.9007245307996036
1503685369868,+0.108,+0.024,-0.435,-0.894,+0.804,+0.061,-0.571,-1.250,-0.375,+0.562,0, 0, -1, -1, 0, 0, 0, -2,-0.21593383510505867,0.9007245307996036
1503685369886,+0.108,+0.024,-0.435,-0.894,+0.806,+0.055,-0.576,-1.062,-0.125,+0.500,0, -1, 0, -1, -1, -1, 0, 0,-0.21593383510505867,0.9007245307996036
1503685369908,+0.108,+0.024,-0.435,-0.894,+0.805,+0.056,-0.570,-1.000,-0.500,+0.438,0, -1, -1, 0, -1, -1, -1, -1,-0.21593383510505867,0.9007245307996036
1503685369929,+0.108,+0.024,-0.435,-0.894,+0.801,+0.056,-0.581,-1.062,+0.125,+0.500,-2, 0, -2, -2, -1, 0, -1, 0,-0.21593383510505867,0.9007245307996036
1503685369943,+0.108,+0.024,-0.435,-0.894,+0.800,+0.054,-0.573,-0.875,+0.438,+0.500,-3, -1, -2, -2, 0, -1, -1, -3,-0.21593383510505867,0.9007245307996036
1503685369966,+0.108,+0.024,-0.435,-0.894,+0.807,+0.056,-0.568,-1.312,-0.375,+0.375,1, -1, 0, 0, -1, 0, -1, -1,-0.21593383510505867,0.9007245307996036
1503685369988,+0.108,+0.024,-0.435,-0.894,+0.806,+0.055,-0.573,-1.312,+0.000,+0.312,0, 0, -1, -2, -2, -2, -1, 0,-0.21593383510505867,0.9007245307996036
1503685370003,+0.108,+0.024,-0.435,-0.894,+0.807,+0.056,-0.576,-1.438,-1.000,+0.125,0, -1, 0, -2, 1, -1, 0, -1,-0.21593383510505867,0.9007245307996036
1503685370028,+0.108,+0.024,-0.435,-0.894,+0.805,+0.061,-0.577,-1.375,-0.688,+0.250,-1, -2, -1, -3, 0, -1, -1, -2,-0.21593383510505867,0.9007245307996036
1503685370049,+0.108,+0.024,-0.435,-0.894,+0.797,+0.059,-0.574,-1.250,-0.312,+0.188,0, -1, -2, 1, -1, -1, 0, -1,-0.21593383510505867,0.9007245307996036
1503685370063,+0.108,+0.024,-0.435,-0.894,+0.799,+0.056,-0.577,-1.375,+0.000,+0.312,-1, -1, 0, 0, 0, 0, 0, -1,-0.21593383510505867,0.9007245307996036
1503685370086,+0.108,+0.024,-0.435,-0.894,+0.803,+0.055,-0.574,-1.312,+0.938,+0.500,-2, -1, 0, 0, -2, 0, 0, -1,-0.21593383510505867,0.9007245307996036
1503685370108,+0.108,+0.024,-0.435,-0.894,+0.805,+0.058,-0.574,-1.250,+0.125,+0.625,-1, -1, -2, 1, 0, 0, -1, -1,-0.21593383510505867,0.9007245307996036
1503685370123,+0.108,+0.024,-0.435,-0.894,+0.805,+0.058,-0.570,-1.125,+0.562,+0.875,-2, 1, 0, -2, -2, -2, -2, -1,-0.21593383510505867,0.9007245307996036
1503685370146,+0.108,+0.024,-0.435,-0.893,+0.803,+0.057,-0.567,-0.875,+0.125,+0.812,-1, 0, 1, -1, 0, 0, 1, 1,-0.2157225697381623,0.9001832935513541
1503685370168,+0.108,+0.024,-0.435,-0.893,+0.808,+0.056,-0.574,-0.812,+0.375,+0.875,0, 0, -1, -1, -2, -1, 0, 0,-0.2157225697381623,0.9001832935513541
1503685370190,+0.108,+0.024,-0.435,-0.893,+0.810,+0.052,-0.571,-0.875,-0.250,+0.750,0, -2, 0, 0, 0, -2, 0, 0,-0.2157225697381623,0.9001832935513541
1503685370205,+0.108,+0.024,-0.435,-0.893,+0.804,+0.053,-0.574,-1.125,-0.188,+0.375,-2, -1, -1, 1, 1, -1, -3, -3,-0.2157225697381623,0.9001832935513541
1503685370229,+0.108,+0.024,-0.435,-0.893,+0.804,+0.054,-0.578,-1.250,-0.625,+0.375,0, -2, -1, -1, -1, -1, -2, -2,-0.2157225697381623,0.9001832935513541
1503685370250,+0.108,+0.024,-0.435,-0.893,+0.806,+0.060,-0.576,-1.312,-0.250,+0.250,-1, 0, 0, -1, -1, -1, 0, 0,-0.2157225697381623,0.9001832935513541
1503685370265,+0.108,+0.024,-0.435,-0.893,+0.805,+0.058,-0.576,-1.188,-0.500,+0.562,0, 0, -1, -2, -1, -2, 0, -1,-0.2157225697381623,0.9001832935513541
1503685370287,+0.108,+0.024,-0.435,-0.893,+0.805,+0.053,-0.573,-1.188,-0.125,+0.125,-2, -1, 0, -2, -3, -1, -3, -1,-0.2157225697381623,0.9001832935513541
1503685370310,+0.108,+0.024,-0.435,-0.893,+0.800,+0.055,-0.574,-1.250,-0.875,+0.062,0, -1, -1, 0, 0, 0, -1, -1,-0.2157225697381623,0.9001832935513541
1503685370325,+0.108,+0.024,-0.435,-0.893,+0.802,+0.058,-0.581,-1.250,+0.000,+0.438,0, 0, -1, 0, -1, -1, 0, 0,-0.2157225697381623,0.9001832935513541
1503685370347,+0.108,+0.024,-0.435,-0.893,+0.802,+0.055,-0.576,-1.188,-0.500,+0.312,0, -2, -1, -1, 0, -1, -1, 0,-0.2157225697381623,0.9001832935513541
1503685370370,+0.108,+0.024,-0.435,-0.894,+0.805,+0.059,-0.581,-1.375,-0.125,+0.438,-2, 0, -1, 1, -2, 0, -1, -1,-0.21593383510505867,0.9007245307996036
1503685370385,+0.108,+0.024,-0.435,-0.893,+0.801,+0.056,-0.569,-1.062,-0.125,+0.625,1, 0, -1, -2, 0, -1, 0, -1,-0.2157225697381623,0.9001832935513541
1503685370407,+0.108,+0.024,-0.435,-0.893,+0.805,+0.059,-0.577,-1.000,-0.375,+0.438,-1, -1, 0, 1, -1, -2, -2, -3,-0.2157225697381623,0.9001832935513541
1503685370431,+0.108,+0.024,-0.435,-0.894,+0.800,+0.056,-0.579,-1.125,+0.000,+0.625,-3, 0, -1, -3, -1, -1, -1, 0,-0.21593383510505867,0.9007245307996036
1503685370445,+0.108,+0.024,-0.435,-0.894,+0.802,+0.057,-0.574,-1.125,+0.062,+0.250,0, -1, -1, -1, -2, 0, -1, -1,-0.21593383510505867,0.9007245307996036
1503685370467,+0.108,+0.024,-0.435,-0.894,+0.803,+0.057,-0.575,-1.250,-0.250,+0.375,-1, 0, -1, -1, -1, 1, -2, -1,-0.21593383510505867,0.9007245307996036
1503685370490,+0.108,+0.024,-0.435,-0.894,+0.806,+0.055,-0.576,-1.312,-0.188,+0.438,-2, 0, -2, -2, 0, -1, 1, 1,-0.21593383510505867,0.9007245307996036
1503685370513,+0.108,+0.024,-0.435,-0.893,+0.806,+0.054,-0.571,-1.250,-0.438,+0.312,1, -2, -2, 1, -1, -1, -1, 1,-0.2157225697381623,0.9001832935513541
1503685370527,+0.108,+0.024,-0.435,-0.894,+0.798,+0.056,-0.573,-1.188,-0.438,+0.312,-1, 0, 2, -1, -1, -2, 2, 0,-0.21593383510505867,0.9007245307996036
1503685370550,+0.108,+0.024,-0.435,-0.893,+0.806,+0.059,-0.575,-1.188,+0.062,+0.312,-1, 0, -1, -1, -1, -1, -3, -1,-0.2157225697381623,0.9001832935513541
1503685370565,+0.108,+0.024,-0.435,-0.894,+0.801,+0.057,-0.579,-1.188,+0.375,+0.438,-1, -1, -3, 0, 0, -1, -2, -1,-0.21593383510505867,0.9007245307996036
1503685370588,+0.108,+0.024,-0.435,-0.894,+0.803,+0.060,-0.579,-1.500,+0.188,+0.188,-2, -1, -2, 0, 0, -2, 0, -2,-0.21593383510505867,0.9007245307996036
1503685370610,+0.108,+0.024,-0.435,-0.894,+0.807,+0.059,-0.573,-1.438,+0.125,+0.250,-1, 0, 1, 0, 0, -1, -4, 0,-0.21593383510505867,0.9007245307996036
1503685370625,+0.108,+0.024,-0.435,-0.894,+0.801,+0.057,-0.570,-1.438,+0.250,+0.438,0, -1, 0, -2, -1, -1, -1, -1,-0.21593383510505867,0.9007245307996036
1503685370647,+0.108,+0.024,-0.435,-0.893,+0.808,+0.056,-0.577,-1.188,+0.125,+0.375,1, -2, -1, -1, 1, 1, 1, 0,-0.2157225697381623,0.9001832935513541
1503685370672,+0.108,+0.024,-0.435,-0.893,+0.809,+0.062,-0.579,-1.250,+1.000,+0.562,0, -1, -2, 0, -2, 0, 0, 0,-0.2157225697381623,0.9001832935513541
1503685370685,+0.108,+0.024,-0.435,-0.893,+0.805,+0.058,-0.569,-1.000,+0.250,+0.625,-1, -2, 1, -1, 0, 1, 0, -1,-0.2157225697381623,0.9001832935513541
1503685370710,+0.108,+0.024,-0.435,-0.893,+0.804,+0.057,-0.568,-1.125,-0.125,+0.375,-2, -2, -1, -2, -3, -1, -2, 0,-0.2157225697381623,0.9001832935513541
1503685370730,+0.108,+0.024,-0.435,-0.893,+0.799,+0.059,-0.578,-1.000,+0.438,+0.750,-1, -1, 0, 0, 0, -1, 0, 0,-0.2157225697381623,0.9001832935513541
1503685370747,+0.108,+0.024,-0.435,-0.893,+0.813,+0.057,-0.575,-1.000,-0.062,+0.438,0, 1, -1, -1, -1, -1, -1, -1,-0.2157225697381623,0.9001832935513541
1503685370768,+0.108,+0.024,-0.435,-0.893,+0.801,+0.056,-0.574,-1.188,+0.312,+0.500,1, -1, 0, -2, 0, -1, 0, -1,-0.2157225697381623,0.9001832935513541
1503685370792,+0.108,+0.024,-0.435,-0.893,+0.805,+0.055,-0.574,-1.250,-0.125,+0.438,-1, 0, -2, 0, 0, -1, -2, 0,-0.2157225697381623,0.9001832935513541
1503685370805,+0.108,+0.024,-0.435,-0.893,+0.812,+0.062,-0.574,-1.312,-0.688,+0.312,-1, -2, -1, -1, 0, -1, 1, -1,-0.2157225697381623,0.9001832935513541
1503685370827,+0.108,+0.024,-0.435,-0.893,+0.802,+0.057,-0.575,-1.000,-0.062,+0.500,-1, -1, 1, -1, 1, 1, -2, -1,-0.2157225697381623,0.9001832935513541
1503685370850,+0.108,+0.024,-0.435,-0.893,+0.805,+0.054,-0.575,-1.000,-1.188,+0.438,0, -2, -2, 0, -2, -1, -1, 0,-0.2157225697381623,0.9001832935513541
1503685370867,+0.108,+0.024,-0.435,-0.893,+0.800,+0.057,-0.577,-1.375,-0.062,+0.125,-1, -1, 0, -1, -2, -2, 0, -1,-0.2157225697381623,0.9001832935513541
1503685370887,+0.108,+0.024,-0.435,-0.893,+0.801,+0.055,-0.573,-1.375,+0.250,+0.438,0, 0, 0, -3, -1, -2, 0, -1,-0.2157225697381623,0.9001832935513541
1503685370911,+0.108,+0.024,-0.435,-0.893,+0.807,+0.061,-0.576,-1.312,+0.250,+0.312,-3, -3, -1, -1, 0, 0, -1, -3,-0.2157225697381623,0.9001832935513541
1503685370926,+0.108,+0.024,-0.435,-0.893,+0.802,+0.052,-0.576,-0.938,+0.062,+0.625,-1, -1, -2, 0, -1, -1, -2, 0,-0.2157225697381623,0.9001832935513541
1503685370947,+0.108,+0.024,-0.435,-0.893,+0.802,+0.058,-0.573,-0.812,+0.188,+0.562,0, 1, -2, 0, -2, 0, 0, -1,-0.2157225697381623,0.9001832935513541
1503685370971,+0.108,+0.024,-0.435,-0.893,+0.805,+0.059,-0.572,-0.812,+0.250,+0.625,0, -1, -1, -2, -2, -1, -1, 0,-0.2157225697381623,0.9001832935513541
1503685370985,+0.108,+0.024,-0.435,-0.893,+0.803,+0.059,-0.582,-0.812,-0.125,+0.688,-1, 0, -1, 1, 0, 0, -1, 0,-0.2157225697381623,0.9001832935513541
1503685371008,+0.108,+0.025,-0.435,-0.893,+0.801,+0.056,-0.579,+0.062,+1.125,+1.000,1, -1, 0, 0, 0, -1, -1, 0,-0.21659446508693256,0.9003946479388124
1503685371030,+0.108,+0.025,-0.436,-0.893,+0.798,+0.049,-0.571,-0.125,+2.375,+0.312,1, 1, -2, -1, 0, 0, -1, -1,-0.21664335703404694,0.9028724741740435
1503685371045,+0.108,+0.025,-0.436,-0.893,+0.812,+0.057,-0.574,-0.500,+1.875,+0.688,-2, -2, 0, 0, -1, 0, 1, -1,-0.21664335703404694,0.9028724741740435
1503685371069,+0.108,+0.025,-0.437,-0.893,+0.811,+0.043,-0.560,-1.000,+1.875,+0.625,-2, -2, 0, -1, -1, -1, -1, -1,-0.2166922479289317,0.9053518463849936
1503685371092,+0.108,+0.025,-0.437,-0.893,+0.823,+0.061,-0.564,-2.062,-0.125,+0.062,-2, -2, -3, 0, -1, -3, -1, -2,-0.2166922479289317,0.9053518463849936
1503685371106,+0.108,+0.025,-0.436,-0.893,+0.811,+0.055,-0.567,-1.750,-1.500,+0.312,1, 0, 1, 0, -2, 0, 0, 3,-0.21664335703404694,0.9028724741740435
1503685371127,+0.108,+0.025,-0.436,-0.893,+0.808,+0.056,-0.573,-1.875,-2.375,+0.375,-1, -3, -1, -3, -2, -2, -1, 1,-0.21664335703404694,0.9028724741740435
1503685371150,+0.108,+0.025,-0.436,-0.893,+0.797,+0.059,-0.582,-1.438,-1.438,+0.062,-1, 0, 0, 0, -1, 0, -1, -1,-0.21664335703404694,0.9028724741740435
1503685371165,+0.108,+0.025,-0.436,-0.893,+0.800,+0.059,-0.584,-1.312,-0.562,+0.438,-1, 0, -3, -2, 0, -2, -1, -2,-0.21664335703404694,0.9028724741740435
1503685371187,+0.108,+0.025,-0.436,-0.893,+0.794,+0.059,-0.571,-1.188,+1.312,+0.438,0, 0, -2, -2, -2, 0, 0, -3,-0.21664335703404694,0.9028724741740435
1503685371211,+0.108,+0.025,-0.436,-0.893,+0.807,+0.054,-0.568,-1.188,+1.000,+0.625,0, -1, -1, -1, -1, -1, 1, 0,-0.21664335703404694,0.9028724741740435
1503685371225,+0.108,+0.025,-0.437,-0.893,+0.820,+0.058,-0.565,-1.375,+1.250,+0.438,-1, -1, 1, 1, 0, 0, -1, 0,-0.2166922479289317,0.9053518463849936
1503685371248,+0.108,+0.025,-0.437,-0.893,+0.811,+0.052,-0.566,-1.312,-0.188,+0.500,0, 1, 0, -1, -1, -2, -1, -1,-0.2166922479289317,0.9053518463849936
1503685371271,+0.108,+0.025,-0.437,-0.893,+0.808,+0.056,-0.564,-1.562,-1.125,+0.312,-3, -1, -2, -1, -1, 0, 0, 2,-0.2166922479289317,0.9053518463849936
1503685371284,+0.108,+0.025,-0.436,-0.893,+0.800,+0.056,-0.574,-1.438,-0.688,+0.375,-1, -2, 0, 0, 0, -2, 0, -2,-0.21664335703404694,0.9028724741740435
1503685371309,+0.108,+0.025,-0.436,-0.893,+0.800,+0.059,-0.578,-1.250,-0.688,+0.562,-1, -1, 1, -1, -1, -1, -2, 0,-0.21664335703404694,0.9028724741740435
1503685371330,+0.108,+0.025,-0.436,-0.893,+0.804,+0.057,-0.574,-1.188,-0.125,+0.375,1, 0, -1, -1, -1, 1, 0, -2,-0.21664335703404694,0.9028724741740435
1503685371345,+0.108,+0.025,-0.436,-0.893,+0.802,+0.053,-0.566,-1.312,+0.375,+0.625,-1, 0, -2, -1, -1, 0, 0, -2,-0.21664335703404694,0.9028724741740435
1503685371367,+0.108,+0.025,-0.436,-0.893,+0.809,+0.056,-0.569,-1.188,+0.562,+0.312,-1, -3, -2, 0, 0, -2, -1, 0,-0.21664335703404694,0.9028724741740435
1503685371391,+0.108,+0.025,-0.437,-0.893,+0.809,+0.058,-0.566,-1.250,-0.250,+0.125,0, 0, -2, 0, 0, -1, -2, -3,-0.2166922479289317,0.9053518463849936
1503685371408,+0.108,+0.025,-0.437,-0.893,+0.804,+0.061,-0.570,-0.875,-0.438,+0.562,-2, 0, -1, -2, -1, -2, -1, -2,-0.2166922479289317,0.9053518463849936
1503685371427,+0.108,+0.025,-0.437,-0.893,+0.809,+0.059,-0.564,-0.938,-0.938,+0.562,-1, 0, 0, -1, 0, 0, -1, 0,-0.2166922479289317,0.9053518463849936
1503685371450,+0.108,+0.025,-0.436,-0.893,+0.808,+0.057,-0.571,-0.938,-1.688,+0.438,0, -3, 0, -1, 0, -2, 1, 1,-0.21664335703404694,0.9028724741740435
1503685371465,+0.108,+0.025,-0.436,-0.893,+0.802,+0.055,-0.574,-1.000,-1.625,+0.438,0, -1, 1, -1, -1, 1, -2, 1,-0.21664335703404694,0.9028724741740435
1503685371487,+0.108,+0.025,-0.436,-0.893,+0.802,+0.055,-0.576,-1.188,-1.062,+0.375,-1, 0, -1, -1, -2, -1, 0, -2,-0.21664335703404694,0.9028724741740435
1503685371511,+0.108,+0.025,-0.436,-0.893,+0.798,+0.054,-0.577,-1.375,-0.312,+0.125,-1, 0, -1, 0, 0, 2, -1, 0,-0.21664335703404694,0.9028724741740435
1503685371525,+0.108,+0.025,-0.436,-0.893,+0.809,+0.053,-0.574,-1.562,-0.062,+0.000,-2, -1, 0, 1, 0, -1, -1, -1,-0.21664335703404694,0.9028724741740435
1503685371547,+0.108,+0.025,-0.436,-0.893,+0.806,+0.054,-0.571,-1.375,+0.125,+0.000,0, 0, 0, -1, 0, -1, 0, -2,-0.21664335703404694,0.9028724741740435
1503685371572,+0.108,+0.025,-0.436,-0.893,+0.804,+0.061,-0.569,-1.375,-0.750,+0.000,0, -2, -2, 0, -2, -1, 1, 0,-0.21664335703404694,0.9028724741740435
1503685371585,+0.108,+0.025,-0.436,-0.893,+0.808,+0.056,-0.576,-1.375,-1.250,+0.000,0, -1, 0, -1, 1, -2, -1, 1,-0.21664335703404694,0.9028724741740435
1503685371608,+0.108,+0.025,-0.436,-0.893,+0.804,+0.062,-0.572,-1.562,-0.688,+0.250,-3, -2, -2, -1, -1, -1, -2, -2,-0.21664335703404694,0.9028724741740435
1503685371630,+0.108,+0.025,-0.436,-0.893,+0.803,+0.061,-0.567,-1.438,-1.125,+0.250,0, 0, -1, -1, -3, 1, 1, 0,-0.21664335703404694,0.9028724741740435
1503685371645,+0.108,+0.025,-0.436,-0.893,+0.802,+0.055,-0.572,-0.812,-1.500,+0.062,-3, -1, -2, 0, 0, -1, -1, -2,-0.21664335703404694,0.9028724741740435
1503685371667,+0.108,+0.025,-0.435,-0.893,+0.809,+0.056,-0.585,-1.000,-1.875,-0.312,0, 0, 0, -1, -1, -3, 0, 0,-0.21659446508693256,0.9003946479388124
1503685371690,+0.108,+0.025,-0.435,-0.894,+0.795,+0.058,-0.584,-0.938,-0.312,+0.438,2, -5, -5, -3, -2, 1, -2, -1,-0.2168056707516097,0.9009356822282275
1503685371707,+0.108,+0.025,-0.435,-0.894,+0.799,+0.055,-0.574,-0.812,+0.750,+1.000,-1, 1, -2, -1, -1, 0, -1, 2,-0.2168056707516097,0.9009356822282275
1503685371727,+0.108,+0.025,-0.435,-0.894,+0.808,+0.061,-0.576,-0.875,+0.562,+0.625,0, 0, 1, 1, -1, -2, -2, -2,-0.2168056707516097,0.9009356822282275
1503685371750,+0.108,+0.025,-0.435,-0.893,+0.806,+0.054,-0.580,-0.812,+1.250,+1.062,0, 0, -1, 0, 0, -1, 0, -2,-0.21659446508693256,0.9003946479388124
1503685371765,+0.108,+0.025,-0.435,-0.893,+0.810,+0.059,-0.567,-1.062,+0.188,+0.875,-2, 0, 1, 0, 0, -1, 1, 0,-0.21659446508693256,0.9003946479388124
1503685371787,+0.108,+0.025,-0.435,-0.893,+0.809,+0.060,-0.573,-1.125,-0.375,+0.500,0, 0, 0, 0, -2, -1, 0, -2,-0.21659446508693256,0.9003946479388124
1503685371811,+0.108,+0.025,-0.435,-0.893,+0.799,+0.053,-0.573,-1.250,+0.000,+1.000,0, -1, -2, -1, 0, 0, -1, 0,-0.21659446508693256,0.9003946479388124
1503685371825,+0.108,+0.025,-0.435,-0.893,+0.799,+0.055,-0.575,-1.312,-0.250,+0.500,-1, -2, 0, -2, -2, -2, -2, -1,-0.21659446508693256,0.9003946479388124
1503685371847,+0.108,+0.025,-0.435,-0.893,+0.808,+0.059,-0.580,-1.500,+0.062,+0.625,-2, -1, 0, -1, 0, -1, -1, 0,-0.21659446508693256,0.9003946479388124
1503685371869,+0.108,+0.025,-0.435,-0.893,+0.803,+0.059,-0.571,-1.000,+0.500,+0.625,-1, -1, 0, -1, -1, 1, 0, -2,-0.21659446508693256,0.9003946479388124
1503685371885,+0.108,+0.025,-0.435,-0.893,+0.807,+0.056,-0.575,-1.000,-0.562,+0.375,-1, 1, -2, 0, 0, -2, -1, 0,-0.21659446508693256,0.9003946479388124
1503685371910,+0.108,+0.025,-0.435,-0.893,+0.804,+0.057,-0.579,-1.188,-0.062,+0.625,0, -2, 0, -1, -2, -2, 0, 1,-0.21659446508693256,0.9003946479388124
1503685371930,+0.108,+0.025,-0.435,-0.893,+0.802,+0.055,-0.568,-1.125,-0.938,+0.500,2, 0, 0, -1, 0, -1, 0, 0,-0.21659446508693256,0.9003946479388124
1503685371945,+0.108,+0.025,-0.435,-0.893,+0.805,+0.058,-0.581,-1.000,-0.625,+0.812,-2, -3, -1, 0, -1, 0, 0, -2,-0.21659446508693256,0.9003946479388124
1503685371967,+0.108,+0.025,-0.435,-0.893,+0.808,+0.057,-0.573,-1.062,-1.062,+0.562,0, 0, 0, 0, -1, 1, -1, 0,-0.21659446508693256,0.9003946479388124
1503685371989,+0.108,+0.025,-0.435,-0.893,+0.798,+0.055,-0.581,-1.000,-0.812,+0.625,0, 0, -1, -1, 0, 0, 0, -1,-0.21659446508693256,0.9003946479388124
1503685372005,+0.108,+0.025,-0.435,-0.893,+0.798,+0.060,-0.577,-1.000,+0.062,+0.562,-2, 1, -1, -1, 1, -2, -1, -2,-0.21659446508693256,0.9003946479388124
1503685372027,+0.108,+0.025,-0.435,-0.893,+0.802,+0.054,-0.573,-1.062,+0.500,+0.500,-2, 0, 1, -1, -2, -1, -2, 0,-0.21659446508693256,0.9003946479388124
1503685372050,+0.108,+0.025,-0.435,-0.893,+0.806,+0.057,-0.577,-1.125,+0.188,+0.500,0, -1, -1, -3, -2, -2, -1, -2,-0.21659446508693256,0.9003946479388124
1503685372065,+0.108,+0.025,-0.435,-0.893,+0.806,+0.058,-0.570,-1.188,+0.188,+0.438,-1, -1, -2, 0, -1, -1, -1, 0,-0.21659446508693256,0.9003946479388124
1503685372087,+0.108,+0.025,-0.435,-0.893,+0.804,+0.053,-0.576,-1.250,-0.750,+0.312,0, 0, -2, 0, -1, 0, -1, -1,-0.21659446508693256,0.9003946479388124
1503685372112,+0.108,+0.025,-0.435,-0.893,+0.802,+0.058,-0.577,-1.312,+0.188,+0.438,-1, 0, 1, 1, -2, -1, -1, -1,-0.21659446508693256,0.9003946479388124
1503685372125,+0.108,+0.025,-0.435,-0.893,+0.802,+0.053,-0.567,-1.188,-0.062,+0.375,-1, -1, 0, -1, -2, -2, 0, -2,-0.21659446508693256,0.9003946479388124
1503685372147,+0.108,+0.025,-0.435,-0.893,+0.803,+0.057,-0.574,-1.125,+0.000,+0.438,-1, -1, -2, 1, 1, -2, -1, 1,-0.21659446508693256,0.9003946479388124
1503685372169,+0.108,+0.025,-0.435,-0.893,+0.804,+0.055,-0.576,-1.062,+0.375,+0.438,-2, -2, -2, 0, -1, 1, -1, -1,-0.21659446508693256,0.9003946479388124
1503685372186,+0.108,+0.025,-0.435,-0.893,+0.804,+0.057,-0.577,-1.500,-0.125,+0.250,1, -2, -1, 0, 0, 1, -2, 0,-0.21659446508693256,0.9003946479388124
1503685372208,+0.108,+0.025,-0.435,-0.893,+0.808,+0.057,-0.575,-1.500,+0.750,+0.500,-2, -1, 0, 0, 0, 0, 1, 0,-0.21659446508693256,0.9003946479388124
1503685372229,+0.108,+0.025,-0.435,-0.893,+0.808,+0.057,-0.563,-1.312,+0.000,+0.375,0, 1, -1, -1, -1, -2, -2, 0,-0.21659446508693256,0.9003946479388124
1503685372249,+0.108,+0.025,-0.435,-0.893,+0.808,+0.057,-0.577,-1.375,-0.688,+0.375,-1, -2, -1, -1, 0, 0, -2, -2,-0.21659446508693256,0.9003946479388124
1503685372267,+0.108,+0.025,-0.435,-0.893,+0.801,+0.055,-0.577,-1.188,-0.062,+0.625,1, 0, 1, -1, 1, -2, 0, 3,-0.21659446508693256,0.9003946479388124
1503685372290,+0.108,+0.025,-0.435,-0.893,+0.802,+0.053,-0.577,-1.000,-0.312,+0.562,-2, -1, -2, -1, -2, 0, 0, -1,-0.21659446508693256,0.9003946479388124
1503685372305,+0.108,+0.025,-0.435,-0.893,+0.801,+0.057,-0.574,-1.250,+0.938,+0.562,0, -1, -1, -2, 0, -2, -1, -1,-0.21659446508693256,0.9003946479388124
1503685372327,+0.108,+0.025,-0.435,-0.893,+0.804,+0.056,-0.570,-1.250,-0.188,+0.375,-1, 1, 2, 0, 0, 0, -1, 1,-0.21659446508693256,0.9003946479388124
1503685372350,+0.108,+0.025,-0.435,-0.893,+0.812,+0.059,-0.573,-1.250,-0.188,+0.500,0, -2, -1, 0, 0, -2, -3, -2,-0.21659446508693256,0.9003946479388124
1503685372365,+0.108,+0.025,-0.435,-0.893,+0.806,+0.055,-0.577,-1.000,+0.000,+0.438,1, -1, -3, -1, 0, -1, 0, -4,-0.21659446508693256,0.9003946479388124
1503685372387,+0.108,+0.025,-0.435,-0.893,+0.806,+0.055,-0.579,-1.000,-0.812,+0.188,1, -2, -2, -2, -2, -1, 0, 1,-0.21659446508693256,0.9003946479388124
1503685372413,+0.108,+0.025,-0.435,-0.893,+0.811,+0.054,-0.579,-1.312,-0.625,+0.375,-1, 0, 0, 0, -2, 1, -2, 0,-0.21659446508693256,0.9003946479388124
1503685372425,+0.108,+0.025,-0.435,-0.893,+0.801,+0.058,-0.574,-1.125,-0.438,+0.438,-2, 1, -1, 1, -1, 0, -2, -2,-0.21659446508693256,0.9003946479388124
1503685372451,+0.108,+0.025,-0.435,-0.893,+0.803,+0.053,-0.579,-1.250,-0.375,+0.500,-1, 1, -1, -1, -1, 0, 1, -2,-0.21659446508693256,0.9003946479388124
1503685372469,+0.108,+0.025,-0.435,-0.893,+0.806,+0.055,-0.575,-1.500,+0.000,+0.438,-1, -1, -1, 0, 0, -1, -1, -1,-0.21659446508693256,0.9003946479388124
1503685372486,+0.108,+0.025,-0.435,-0.893,+0.797,+0.059,-0.572,-1.250,+0.312,+0.562,0, -1, -1, -2, -2, -1, -1, -1,-0.21659446508693256,0.9003946479388124
1503685372507,+0.108,+0.025,-0.435,-0.893,+0.807,+0.057,-0.578,-1.000,+0.562,+0.688,-2, -2, -2, 0, -1, 0, 0, 0,-0.21659446508693256,0.9003946479388124
1503685372529,+0.108,+0.025,-0.435,-0.893,+0.804,+0.054,-0.573,-0.875,+0.750,+0.812,-1, -2, -2, -1, -1, -1, -1, -1,-0.21659446508693256,0.9003946479388124
1503685372546,+0.108,+0.025,-0.435,-0.893,+0.806,+0.053,-0.571,-0.750,-0.125,+0.750,-1, 0, 1, -1, -1, 0, -2, 2,-0.21659446508693256,0.9003946479388124
1503685372568,+0.108,+0.025,-0.435,-0.893,+0.810,+0.056,-0.576,-0.812,+0.250,+0.625,0, -2, -1, -1, -1, -1, 0, 1,-0.21659446508693256,0.9003946479388124
1503685372590,+0.108,+0.025,-0.435,-0.893,+0.804,+0.053,-0.575,-0.875,-0.125,+0.750,-1, 0, -1, 0, -1, 1, 0, -3,-0.21659446508693256,0.9003946479388124
1503685372606,+0.108,+0.025,-0.435,-0.893,+0.807,+0.057,-0.576,-1.188,-0.438,+0.375,1, 1, -3, 0, 0, -2, 1, 2,-0.21659446508693256,0.9003946479388124
1503685372628,+0.108,+0.025,-0.435,-0.893,+0.804,+0.056,-0.573,-1.125,-0.250,+0.500,1, -1, -1, -1, -1, 0, -2, 0,-0.21659446508693256,0.9003946479388124
1503685372650,+0.108,+0.025,-0.435,-0.893,+0.800,+0.055,-0.573,-1.125,-0.438,+0.500,-1, -2, 0, 0, -2, -1, -1, -1,-0.21659446508693256,0.9003946479388124
1503685372672,+0.108,+0.025,-0.435,-0.893,+0.806,+0.054,-0.578,-1.188,-0.688,+0.312,0, 0, -1, -1, 0, -1, 0, -1,-0.21659446508693256,0.9003946479388124
1503685372688,+0.108,+0.025,-0.435,-0.893,+0.803,+0.057,-0.575,-1.188,+0.250,+0.375,0, -1, -1, 0, -1, 0, -1, -2,-0.21659446508693256,0.9003946479388124
1503685372709,+0.108,+0.025,-0.435,-0.893,+0.808,+0.056,-0.568,-1.188,-0.562,+0.125,0, 0, -1, 0, 0, 0, -1, 1,-0.21659446508693256,0.9003946479388124
1503685372725,+0.108,+0.025,-0.435,-0.893,+0.807,+0.055,-0.572,-1.312,+0.000,+0.188,-2, -2, 0, -1, -3, -1, -1, -1,-0.21659446508693256,0.9003946479388124
1503685372748,+0.108,+0.025,-0.435,-0.893,+0.806,+0.054,-0.573,-1.250,-0.500,+0.312,-1, -1, -2, -2, -2, -2, -1, -1,-0.21659446508693256,0.9003946479388124
1503685372770,+0.108,+0.025,-0.435,-0.893,+0.801,+0.060,-0.577,-1.250,-0.062,+0.438,-2, -1, -1, 0, 0, 0, -2, -2,-0.21659446508693256,0.9003946479388124
1503685372785,+0.108,+0.025,-0.435,-0.893,+0.805,+0.055,-0.563,-1.188,-0.125,+0.500,-3, -1, 0, 0, -2, -2, 1, 0,-0.21659446508693256,0.9003946479388124
1503685372807,+0.108,+0.025,-0.435,-0.893,+0.806,+0.056,-0.574,-1.312,-0.438,+0.250,1, -1, -2, -1, 0, -2, -2, -1,-0.21659446508693256,0.9003946479388124
1503685372829,+0.108,+0.025,-0.435,-0.893,+0.803,+0.055,-0.571,-1.188,+0.312,+0.500,0, -2, -2, 0, -2, -1, -3, -1,-0.21659446508693256,0.9003946479388124
1503685372847,+0.108,+0.025,-0.436,-0.893,+0.804,+0.055,-0.567,-1.250,+0.250,+0.250,-1, -3, -1, 0, -2, 1, -1, -1,-0.21664335703404694,0.9028724741740435
1503685372867,+0.108,+0.025,-0.436,-0.893,+0.808,+0.054,-0.575,-1.250,-0.375,+0.125,0, 1, 0, -1, -1, -2, -1, 0,-0.21664335703404694,0.9028724741740435
1503685372890,+0.108,+0.025,-0.436,-0.893,+0.801,+0.058,-0.579,-1.438,-0.250,+0.375,-2, 0, -2, 0, 1, 1, 0, -1,-0.21664335703404694,0.9028724741740435
1503685372906,+0.108,+0.025,-0.435,-0.893,+0.801,+0.056,-0.577,-1.125,-0.688,+0.125,0, 0, -2, -1, 0, 0, -1, 0,-0.21659446508693256,0.9003946479388124
1503685372927,+0.108,+0.025,-0.435,-0.893,+0.801,+0.059,-0.570,-1.188,+0.312,+0.312,-2, -1, -3, -1, -2, -1, -1, -1,-0.21659446508693256,0.9003946479388124
1503685372949,+0.108,+0.025,-0.435,-0.893,+0.803,+0.060,-0.574,-1.250,+0.125,+0.500,-1, 0, -1, 0, 0, 1, -1, -3,-0.21659446508693256,0.9003946479388124
1503685372965,+0.108,+0.025,-0.436,-0.893,+0.809,+0.057,-0.564,-1.125,+0.688,+0.750,0, 1, -2, -1, -1, -2, -1, 0,-0.21664335703404694,0.9028724741740435
1503685372988,+0.108,+0.025,-0.436,-0.893,+0.805,+0.052,-0.566,-1.062,+0.000,+0.562,-3, -2, 0, -1, -1, 0, 0, 2,-0.21664335703404694,0.9028724741740435
1503685373009,+0.108,+0.025,-0.436,-0.893,+0.807,+0.054,-0.578,-1.062,-0.188,+0.250,1, 1, 0, -2, -1, 0, -1, -2,-0.21664335703404694,0.9028724741740435
1503685373025,+0.108,+0.025,-0.436,-0.893,+0.799,+0.055,-0.578,-1.062,+0.188,+0.750,0, -2, -1, -1, -1, 1, -1, -2,-0.21664335703404694,0.9028724741740435
1503685373049,+0.108,+0.025,-0.436,-0.893,+0.809,+0.056,-0.567,-1.000,+0.188,+0.625,1, 0, -1, 1, 1, -1, 0, 0,-0.21664335703404694,0.9028724741740435
1503685373069,+0.108,+0.025,-0.436,-0.893,+0.805,+0.053,-0.572,-1.188,-0.062,+0.250,-1, -1, 0, -1, -2, 0, -1, 1,-0.21664335703404694,0.9028724741740435
1503685373086,+0.108,+0.025,-0.436,-0.893,+0.805,+0.054,-0.571,-1.250,+0.125,+0.438,-1, -1, -1, 0, -2, -3, -1, -3,-0.21664335703404694,0.9028724741740435
1503685373107,+0.108,+0.025,-0.436,-0.893,+0.805,+0.057,-0.578,-1.062,-0.250,+0.312,0, 0, 0, -1, 1, -1, -1, -1,-0.21664335703404694,0.9028724741740435
1503685373129,+0.108,+0.025,-0.436,-0.893,+0.804,+0.051,-0.567,-0.938,+0.000,+0.750,-2, -1, -2, 0, -1, 1, 0, -3,-0.21664335703404694,0.9028724741740435
1503685373146,+0.108,+0.025,-0.436,-0.893,+0.810,+0.055,-0.573,-1.188,+0.125,+0.375,-1, -1, -3, -3, -1, -1, -1, -4,-0.21664335703404694,0.9028724741740435
1503685373167,+0.108,+0.025,-0.436,-0.893,+0.803,+0.052,-0.576,-1.188,-0.375,+0.188,2, -1, -2, 0, -1, -1, -1, 1,-0.21664335703404694,0.9028724741740435
1503685373189,+0.108,+0.025,-0.436,-0.893,+0.800,+0.058,-0.575,-1.500,+0.062,+0.125,0, -2, -1, -1, -1, -1, -1, 0,-0.21664335703404694,0.9028724741740435
1503685373212,+0.108,+0.025,-0.436,-0.893,+0.807,+0.055,-0.570,-1.250,-0.312,+0.312,0, -1, -2, -2, -1, 0, -1, 0,-0.21664335703404694,0.9028724741740435
1503685373228,+0.108,+0.025,-0.436,-0.893,+0.803,+0.055,-0.569,-1.375,-0.188,+0.375,0, 1, -1, 0, -1, -3, 0, -2,-0.21664335703404694,0.9028724741740435
1503685373251,+0.108,+0.025,-0.436,-0.893,+0.806,+0.057,-0.572,-1.375,-0.375,+0.312,-1, -2, -3, -3, -1, 0, 0, -2,-0.21664335703404694,0.9028724741740435
1503685373265,+0.108,+0.025,-0.436,-0.893,+0.803,+0.058,-0.570,-1.625,+0.062,+0.188,-2, 0, 0, 0, -1, -1, -1, -1,-0.21664335703404694,0.9028724741740435
1503685373288,+0.108,+0.025,-0.436,-0.893,+0.802,+0.059,-0.573,-1.312,-0.312,+0.312,-1, -2, -2, -1, 0, 1, -1, 0,-0.21664335703404694,0.9028724741740435
1503685373309,+0.108,+0.025,-0.436,-0.893,+0.804,+0.056,-0.577,-1.125,+0.688,+0.625,0, -1, 1, -1, 0, 0, -1, 0,-0.21664335703404694,0.9028724741740435
1503685373326,+0.108,+0.025,-0.436,-0.893,+0.799,+0.053,-0.568,-1.312,+0.312,+0.625,0, 0, 0, 0, -1, -2, -1, -1,-0.21664335703404694,0.9028724741740435
1503685373348,+0.108,+0.025,-0.436,-0.893,+0.813,+0.058,-0.571,-1.500,+0.562,+0.312,-3, 0, -1, 0, -2, -2, 0, -1,-0.21664335703404694,0.9028724741740435
1503685373369,+0.108,+0.025,-0.436,-0.893,+0.804,+0.058,-0.577,-1.188,+0.875,+0.812,-1, 0, 0, -1, 0, 0, 2, 0,-0.21664335703404694,0.9028724741740435
1503685373386,+0.108,+0.025,-0.436,-0.893,+0.805,+0.054,-0.572,-1.125,+0.500,+0.625,-1, -1, 1, -2, -3, -1, -2, 1,-0.21664335703404694,0.9028724741740435
1503685373407,+0.108,+0.025,-0.436,-0.893,+0.810,+0.053,-0.573,-1.062,+0.875,+0.562,0, -1, -1, 1, -1, -3, -3, 0,-0.21664335703404694,0.9028724741740435
1503685373429,+0.108,+0.025,-0.436,-0.893,+0.805,+0.055,-0.568,-1.062,+0.625,+0.688,-2, 0, -1, -1, -1, 0, 0, -2,-0.21664335703404694,0.9028724741740435
1503685373446,+0.108,+0.025,-0.436,-0.893,+0.815,+0.053,-0.570,-1.062,+0.000,+0.375,-1, -1, -1, -3, -1, -2, 0, -2,-0.21664335703404694,0.9028724741740435
1503685373467,+0.108,+0.025,-0.436,-0.893,+0.807,+0.053,-0.564,-1.125,-0.312,+0.438,0, -3, 0, -1, -1, 0, -1, -4,-0.21664335703404694,0.9028724741740435
1503685373491,+0.108,+0.025,-0.436,-0.893,+0.802,+0.054,-0.568,-1.125,-0.750,+0.312,0, 0, 0, -1, 1, 1, 0, 2,-0.21664335703404694,0.9028724741740435
1503685373505,+0.108,+0.025,-0.436,-0.893,+0.807,+0.059,-0.573,-1.062,-0.438,+0.438,-1, -2, -1, 0, -1, -1, -2, -2,-0.21664335703404694,0.9028724741740435
1503685373528,+0.108,+0.025,-0.436,-0.893,+0.811,+0.054,-0.573,-1.188,-0.250,+0.438,0, -1, 1, 0, 0, -1, -2, -2,-0.21664335703404694,0.9028724741740435
1503685373554,+0.108,+0.025,-0.436,-0.893,+0.806,+0.053,-0.573,-1.188,-0.375,+0.125,-3, 0, -2, -2, 0, -1, -2, -2,-0.21664335703404694,0.9028724741740435
1503685373566,+0.108,+0.025,-0.436,-0.893,+0.801,+0.057,-0.580,-1.250,-0.375,+0.125,-3, 0, -1, 0, -1, -2, 0, -1,-0.21664335703404694,0.9028724741740435
1503685373589,+0.108,+0.025,-0.436,-0.893,+0.804,+0.058,-0.568,-1.375,-0.438,+0.375,0, 0, -1, -1, -1, -1, 1, 1,-0.21664335703404694,0.9028724741740435
1503685373610,+0.108,+0.025,-0.436,-0.893,+0.807,+0.056,-0.573,-1.000,+0.000,+0.875,0, 0, -1, -1, -2, 0, -1, 0,-0.21664335703404694,0.9028724741740435
1503685373627,+0.108,+0.025,-0.436,-0.893,+0.808,+0.053,-0.579,-1.000,+0.000,+0.688,-1, -1, -1, 0, -1, 0, 0, 0,-0.21664335703404694,0.9028724741740435
1503685373648,+0.108,+0.025,-0.436,-0.893,+0.809,+0.056,-0.575,-1.062,+0.062,+0.312,0, 0, 1, 0, 0, -2, 0, -1,-0.21664335703404694,0.9028724741740435
1503685373670,+0.108,+0.025,-0.436,-0.893,+0.801,+0.059,-0.569,-1.125,+0.062,+0.438,-1, -1, -1, 1, -1, -2, -2, -1,-0.21664335703404694,0.9028724741740435
1503685373687,+0.108,+0.025,-0.436,-0.893,+0.808,+0.053,-0.570,-1.062,-0.312,+0.688,-2, -3, -1, -1, 1, -1, -1, -1,-0.21664335703404694,0.9028724741740435
1503685373715,+0.108,+0.025,-0.436,-0.893,+0.811,+0.052,-0.568,-1.188,+0.062,+0.625,0, 3, 0, -1, -1, 1, 0, -2,-0.21664335703404694,0.9028724741740435
1503685373730,+0.108,+0.025,-0.436,-0.893,+0.810,+0.053,-0.570,-1.062,-0.625,+0.312,0, -2, -2, 0, 0, -2, 0, 0,-0.21664335703404694,0.9028724741740435
1503685373754,+0.108,+0.025,-0.436,-0.893,+0.809,+0.052,-0.574,-1.250,-0.438,+0.312,-2, -2, -1, -1, -2, -1, -2, -1,-0.21664335703404694,0.9028724741740435
1503685373768,+0.108,+0.025,-0.436,-0.893,+0.801,+0.054,-0.569,-1.062,-0.500,+0.562,-1, 0, 0, -1, -1, 0, 1, -1,-0.21664335703404694,0.9028724741740435
1503685373791,+0.108,+0.025,-0.436,-0.893,+0.803,+0.052,-0.569,-1.188,-0.812,+0.250,1, -1, -2, 0, -1, 1, -2, -1,-0.21664335703404694,0.9028724741740435
1503685373812,+0.108,+0.025,-0.436,-0.893,+0.804,+0.057,-0.573,-1.250,-0.125,+0.312,-2, -2, -1, -2, 0, 2, -2, 0,-0.21664335703404694,0.9028724741740435
1503685373830,+0.108,+0.025,-0.436,-0.893,+0.810,+0.055,-0.570,-1.062,-0.312,+0.250,-1, -2, -1, -2, 0, 0, -1, -2,-0.21664335703404694,0.9028724741740435
1503685373850,+0.108,+0.025,-0.436,-0.893,+0.807,+0.054,-0.575,-1.188,-0.438,+0.375,0, 0, 0, -1, 1, -2, -3, 0,-0.21664335703404694,0.9028724741740435
1503685373872,+0.108,+0.025,-0.436,-0.893,+0.806,+0.056,-0.575,-1.062,-0.562,+0.500,0, -1, -1, -1, -1, 0, 0, -1,-0.21664335703404694,0.9028724741740435
1503685373888,+0.108,+0.025,-0.436,-0.893,+0.806,+0.056,-0.569,-1.000,-1.188,+0.250,0, -1, 1, -1, -2, -1, 0, -1,-0.21664335703404694,0.9028724741740435
1503685373910,+0.108,+0.025,-0.436,-0.893,+0.799,+0.058,-0.571,-1.062,-0.562,+0.562,-1, 0, -3, 0, -1, -3, 0, -1,-0.21664335703404694,0.9028724741740435
1503685373932,+0.108,+0.025,-0.436,-0.893,+0.806,+0.053,-0.570,-1.000,-1.000,+0.375,1, 0, 0, -1, 0, 0, -1, -1,-0.21664335703404694,0.9028724741740435
1503685373948,+0.108,+0.025,-0.436,-0.893,+0.807,+0.058,-0.573,-0.875,-0.125,+0.625,-1, -2, 0, -1, -1, -1, -1, -1,-0.21664335703404694,0.9028724741740435
1503685373970,+0.108,+0.025,-0.436,-0.893,+0.806,+0.054,-0.574,-0.750,-0.812,+0.875,-2, -2, -2, -2, -2, -2, 0, -1,-0.21664335703404694,0.9028724741740435
1503685373992,+0.108,+0.025,-0.436,-0.893,+0.808,+0.054,-0.576,-1.000,-0.125,+0.562,-1, -1, -1, 0, -2, 0, 1, 0,-0.21664335703404694,0.9028724741740435
1503685374008,+0.108,+0.025,-0.436,-0.893,+0.801,+0.050,-0.576,-1.000,+0.062,+0.750,0, -1, 1, 0, -1, 0, -1, -1,-0.21664335703404694,0.9028724741740435
1503685374031,+0.108,+0.025,-0.436,-0.893,+0.805,+0.059,-0.574,-1.062,-0.125,+0.312,-2, -1, -1, -3, 0, 0, 0, -2,-0.21664335703404694,0.9028724741740435
1503685374052,+0.108,+0.025,-0.436,-0.893,+0.804,+0.054,-0.570,-1.188,-0.125,+0.625,-1, -1, 2, 0, -2, -2, -1, -2,-0.21664335703404694,0.9028724741740435
1503685374068,+0.108,+0.025,-0.436,-0.893,+0.805,+0.051,-0.570,-1.188,-0.188,+0.562,-1, 1, 0, 0, 1, 1, -1, 2,-0.21664335703404694,0.9028724741740435
1503685374091,+0.108,+0.025,-0.436,-0.893,+0.811,+0.057,-0.574,-1.312,-0.812,+0.125,0, 1, -1, 1, -1, -3, -1, -2,-0.21664335703404694,0.9028724741740435
1503685374112,+0.108,+0.025,-0.436,-0.893,+0.803,+0.055,-0.582,-1.312,-0.438,+0.500,0, 0, 0, -2, 0, -1, -2, -1,-0.21664335703404694,0.9028724741740435
1503685374128,+0.108,+0.025,-0.436,-0.893,+0.801,+0.055,-0.578,-1.250,-0.938,+0.188,-1, -1, -1, 0, 0, 0, 1, 0,-0.21664335703404694,0.9028724741740435
1503685374150,+0.108,+0.025,-0.436,-0.893,+0.798,+0.060,-0.577,-1.250,+0.062,+0.625,-1, -1, -3, -1, -2, -2, -1, -1,-0.21664335703404694,0.9028724741740435
1503685374172,+0.108,+0.025,-0.436,-0.893,+0.805,+0.054,-0.577,-1.250,-0.125,+0.375,-1, -2, -1, -1, 0, -1, -2, -2,-0.21664335703404694,0.9028724741740435
1503685374190,+0.108,+0.025,-0.436,-0.893,+0.805,+0.056,-0.579,-1.125,+0.188,+0.312,-1, -1, -1, -1, -2, -1, -1, 0,-0.21664335703404694,0.9028724741740435
1503685374210,+0.108,+0.025,-0.436,-0.893,+0.800,+0.056,-0.580,-1.062,+0.312,+0.562,0, -1, -2, 0, -1, 0, 0, 0,-0.21664335703404694,0.9028724741740435
1503685374233,+0.108,+0.025,-0.436,-0.893,+0.806,+0.055,-0.578,-0.875,+0.188,+0.375,-2, -2, 0, 0, 0, -1, -1, -1,-0.21664335703404694,0.9028724741740435
1503685374248,+0.108,+0.025,-0.436,-0.893,+0.809,+0.056,-0.573,-0.875,-0.062,+0.625,1, -2, 0, -2, -1, -1, 1, -2,-0.21664335703404694,0.9028724741740435
1503685374270,+0.108,+0.025,-0.436,-0.893,+0.808,+0.053,-0.569,-0.938,-0.250,+0.625,-2, -1, -3, -2, -1, 1, -1, -1,-0.21664335703404694,0.9028724741740435
1503685374292,+0.108,+0.025,-0.436,-0.893,+0.805,+0.055,-0.570,-1.125,-0.312,+0.375,-2, -2, -1, 0, -1, 0, -2, -2,-0.21664335703404694,0.9028724741740435
1503685374308,+0.108,+0.025,-0.436,-0.893,+0.801,+0.057,-0.577,-1.062,-0.062,+0.625,0, -2, -1, -2, -1, -1, -1, -1,-0.21664335703404694,0.9028724741740435
1503685374331,+0.108,+0.025,-0.436,-0.893,+0.805,+0.052,-0.572,-1.250,-0.375,+0.312,1, 0, -3, -1, -3, -3, -2, -2,-0.21664335703404694,0.9028724741740435
1503685374352,+0.108,+0.025,-0.436,-0.893,+0.805,+0.054,-0.573,-1.312,+0.562,+0.625,0, -1, 0, -1, -2, -1, 0, 0,-0.21664335703404694,0.9028724741740435
1503685374368,+0.108,+0.025,-0.436,-0.893,+0.811,+0.051,-0.570,-1.188,+0.250,+0.438,-1, -1, 0, 1, -1, -2, -1, -1,-0.21664335703404694,0.9028724741740435
1503685374392,+0.108,+0.025,-0.436,-0.893,+0.810,+0.052,-0.574,-1.312,-0.812,+0.312,0, 0, 1, 1, 1, -2, 0, 0,-0.21664335703404694,0.9028724741740435
1503685374412,+0.108,+0.025,-0.436,-0.893,+0.798,+0.055,-0.574,-1.375,-0.438,+0.438,0, 0, 0, 0, -1, -2, -1, -1,-0.21664335703404694,0.9028724741740435
1503685374428,+0.108,+0.025,-0.436,-0.893,+0.801,+0.056,-0.572,-1.375,-0.875,+0.125,-1, -1, 1, -1, -1, -1, 0, 0,-0.21664335703404694,0.9028724741740435
1503685374452,+0.108,+0.025,-0.436,-0.893,+0.804,+0.051,-0.576,-1.312,+0.750,+0.312,-1, -2, 0, -1, -2, 0, 1, -1,-0.21664335703404694,0.9028724741740435
1503685374473,+0.108,+0.025,-0.436,-0.893,+0.804,+0.055,-0.569,-1.188,-0.062,+0.312,-2, -1, -1, -1, 0, -1, -2, -1,-0.21664335703404694,0.9028724741740435
1503685374488,+0.108,+0.025,-0.436,-0.893,+0.808,+0.060,-0.576,-1.000,+0.062,+0.625,0, 1, -1, -1, 0, 1, 0, 0,-0.21664335703404694,0.9028724741740435
1503685374511,+0.108,+0.025,-0.436,-0.893,+0.799,+0.053,-0.578,-1.000,-0.250,+0.875,-1, -1, -1, -1, -1, -3, -2, 0,-0.21664335703404694,0.9028724741740435
1503685374534,+0.108,+0.025,-0.436,-0.893,+0.805,+0.052,-0.576,-1.312,+0.000,+0.312,-2, -2, 0, -1, 0, 0, 1, 2,-0.21664335703404694,0.9028724741740435
1503685374548,+0.108,+0.025,-0.436,-0.893,+0.807,+0.053,-0.569,-1.438,+0.250,+0.375,-1, -1, -2, -1, 0, -1, -3, -2,-0.21664335703404694,0.9028724741740435
1503685374570,+0.108,+0.025,-0.436,-0.893,+0.807,+0.056,-0.573,-1.625,-0.250,+0.125,0, 1, -1, -1, 0, 0, 0, 0,-0.21664335703404694,0.9028724741740435
1503685374594,+0.108,+0.025,-0.436,-0.893,+0.807,+0.056,-0.572,-1.500,-0.250,+0.188,0, 0, -2, -1, -1, -1, -1, 0,-0.21664335703404694,0.9028724741740435
1503685374608,+0.108,+0.025,-0.436,-0.893,+0.804,+0.054,-0.575,-1.375,-0.375,+0.375,-1, 0, -1, 0, -2, -2, -2, -1,-0.21664335703404694,0.9028724741740435
1503685374630,+0.108,+0.025,-0.436,-0.893,+0.801,+0.057,-0.572,-1.562,-0.500,+0.062,-1, -2, -1, -1, 0, -1, -1, -2,-0.21664335703404694,0.9028724741740435
1503685374652,+0.108,+0.025,-0.436,-0.893,+0.805,+0.059,-0.574,-1.562,+0.000,+0.312,0, -1, -1, -1, 0, -2, -1, -1,-0.21664335703404694,0.9028724741740435
1503685374668,+0.108,+0.025,-0.436,-0.893,+0.806,+0.056,-0.582,-1.250,-0.250,+0.438,-1, 0, 0, -2, 0, 0, -1, 0,-0.21664335703404694,0.9028724741740435
1503685374690,+0.108,+0.025,-0.436,-0.893,+0.807,+0.064,-0.576,-1.125,-0.125,+0.688,-1, 0, -1, 0, -2, -1, 0, -1,-0.21664335703404694,0.9028724741740435
1503685374712,+0.108,+0.025,-0.436,-0.893,+0.804,+0.054,-0.569,-1.000,-0.125,+0.500,0, 0, -2, 0, -2, 1, -1, -2,-0.21664335703404694,0.9028724741740435
1503685374729,+0.108,+0.025,-0.436,-0.893,+0.804,+0.053,-0.569,-1.062,-0.625,+0.250,-1, -2, 0, -2, -2, -1, -2, -2,-0.21664335703404694,0.9028724741740435
1503685374752,+0.108,+0.025,-0.436,-0.893,+0.799,+0.055,-0.582,-1.312,+0.125,+0.438,-2, -2, 0, -2, 0, -1, -2, -2,-0.21664335703404694,0.9028724741740435
1503685374772,+0.108,+0.025,-0.436,-0.893,+0.803,+0.062,-0.576,-1.188,+0.750,+0.750,-1, 0, -1, -1, 1, -2, 0, -1,-0.21664335703404694,0.9028724741740435
1503685374788,+0.108,+0.026,-0.436,-0.893,+0.800,+0.064,-0.583,-0.438,+2.812,+0.750,1, -1, -1, -1, -3, 0, 0, 0,-0.21751789849435127,0.9030865900403415
1503685374810,+0.108,+0.026,-0.437,-0.893,+0.792,+0.056,-0.580,+1.375,+5.500,+0.750,-3, -1, -1, -2, 1, -2, 0, 0,-0.21756873070514515,0.9055656280181429
1503685374833,+0.108,+0.027,-0.438,-0.892,+0.806,+0.050,-0.582,+1.438,+8.000,+0.500,0, 2, -1, 1, -1, 0, -2, -1,-0.21828760360667104,0.9077233062954181
1503685374848,+0.108,+0.027,-0.439,-0.892,+0.817,+0.046,-0.550,+1.438,+7.000,+0.250,1, 1, 1, -1, -1, 0, -1, 0,-0.21834037862361694,0.9102057255588331
1503685374871,+0.108,+0.027,-0.440,-0.891,+0.834,+0.042,-0.550,-1.188,+2.500,-0.062,1, 1, -1, 1, -1, -3, 0, 0,-0.21818204986602666,0.9121508137473388
1503685374895,+0.108,+0.027,-0.440,-0.891,+0.821,+0.073,-0.566,-0.312,-1.000,+0.438,1, -1, -3, -2, -1, 0, -2, 1,-0.21818204986602666,0.9121508137473388
1503685374908,+0.108,+0.028,-0.440,-0.891,+0.787,+0.055,-0.569,+0.500,-0.250,+1.562,0, -3, 0, -1, 1, -1, 1, 0,-0.21906590016252203,0.9123702359225071
1503685374931,+0.108,+0.028,-0.440,-0.891,+0.808,+0.052,-0.572,+0.375,+1.312,+1.750,4, -1, -2, -1, -3, -1, -2, -1,-0.21906590016252203,0.9123702359225071
1503685374952,+0.108,+0.028,-0.440,-0.891,+0.815,+0.043,-0.567,-0.438,+1.125,+1.125,-4, -2, 0, -1, 0, -1, 1, -2,-0.21906590016252203,0.9123702359225071
1503685374968,+0.108,+0.028,-0.440,-0.891,+0.818,+0.048,-0.568,-1.438,+0.375,+0.438,-2, 6, 1, 0, -3, -1, -1, 0,-0.21906590016252203,0.9123702359225071
1503685374991,+0.108,+0.028,-0.440,-0.891,+0.815,+0.054,-0.561,-1.625,-0.625,+0.750,0, 0, -2, -2, 0, -1, -1, -1,-0.21906590016252203,0.9123702359225071
1503685375012,+0.108,+0.028,-0.440,-0.891,+0.805,+0.054,-0.566,-1.688,-1.500,+0.750,2, -2, 0, -1, -1, 0, -1, -1,-0.21906590016252203,0.9123702359225071
1503685375030,+0.108,+0.028,-0.439,-0.891,+0.808,+0.047,-0.566,-1.875,-1.438,+0.688,3, 0, -1, 0, 0, -2, -1, -1,-0.2190111819652734,0.9098859520903692
1503685375051,+0.108,+0.028,-0.439,-0.891,+0.806,+0.045,-0.571,-1.875,-0.875,+0.375,4, 1, 0, -1, -1, -1, 1, 1,-0.2190111819652734,0.9098859520903692
1503685375073,+0.108,+0.028,-0.439,-0.891,+0.810,+0.053,-0.569,-1.688,+0.062,-0.188,-1, 0, -1, -2, -1, -1, -2, 1,-0.2190111819652734,0.9098859520903692
1503685375088,+0.108,+0.028,-0.439,-0.891,+0.811,+0.052,-0.567,-1.688,-0.312,-0.312,0, -3, -1, 1, -1, -1, -2, -2,-0.2190111819652734,0.9098859520903692
1503685375110,+0.108,+0.028,-0.439,-0.891,+0.816,+0.051,-0.564,-2.125,-1.062,-0.375,0, 2, 0, -2, -1, 0, -1, 0,-0.2190111819652734,0.9098859520903692
1503685375134,+0.108,+0.028,-0.439,-0.891,+0.807,+0.054,-0.567,-2.188,-0.625,-0.125,-1, -2, -1, -2, -1, 0, -1, 0,-0.2190111819652734,0.9098859520903692
1503685375148,+0.108,+0.028,-0.439,-0.891,+0.804,+0.058,-0.573,-1.875,-0.375,+0.125,0, -1, -2, 1, -1, -1, 0, -1,-0.2190111819652734,0.9098859520903692
1503685375177,+0.108,+0.028,-0.439,-0.891,+0.799,+0.061,-0.575,-1.500,+1.000,+1.062,-1, -2, -3, -1, -1, 1, 0, 1,-0.2190111819652734,0.9098859520903692
1503685375192,+0.108,+0.028,-0.440,-0.891,+0.801,+0.064,-0.569,-0.375,+2.438,+1.812,0, 0, -2, 0, 1, 0, 0, 0,-0.21906590016252203,0.9123702359225071
1503685375208,+0.107,+0.029,-0.440,-0.891,+0.809,+0.061,-0.577,+1.375,+4.562,+2.250,-4, -2, 0, 0, -1, -1, -1, -1,-0.2181159216015923,0.9125572663411898
1503685375231,+0.107,+0.029,-0.441,-0.890,+0.797,+0.060,-0.566,+2.500,+7.875,+2.688,0, -1, -1, -1, -2, -2, -1, 0,-0.2179634740999828,0.9145043264180533
1503685375252,+0.107,+0.030,-0.442,-0.890,+0.812,+0.052,-0.558,+2.375,+7.625,+3.812,-1, -2, -2, -1, -1, 0, 0, 0,-0.2189095100748674,0.9172161540724609
1503685375268,+0.107,+0.031,-0.443,-0.890,+0.835,+0.040,-0.518,+2.312,+1.938,+4.500,1, -1, 0, -1, -2, -1, 0, 0,-0.21986015652938384,0.9199319751371441
1503685375290,+0.107,+0.032,-0.443,-0.890,+0.865,+0.054,-0.523,+5.375,-7.812,+1.562,0, 0, -2, 0, -1, -1, -2, -1,-0.2207529296975222,0.9201619629475072
1503685375313,+0.108,+0.034,-0.441,-0.890,+0.897,+0.061,-0.565,+11.062,-13.438,-0.438,-1, 1, 1, -2, 0, -1, -1, -1,-0.22424015952271184,0.9156988403293456
1503685375328,+0.109,+0.035,-0.439,-0.891,+0.824,+0.049,-0.577,+12.438,-7.688,+0.000,-4, -3, 0, 0, 0, 1, 2, -1,-0.22704033329444331,0.9115544378515568
1503685375350,+0.110,+0.037,-0.438,-0.891,+0.787,+0.112,-0.603,+12.500,-2.875,+4.812,-4, -3, -1, -3, 1, -2, -1, 0,-0.23058057837674512,0.9096150019917696
1503685375374,+0.111,+0.038,-0.438,-0.891,+0.839,+0.129,-0.612,+11.938,-1.000,+6.562,-1, -4, -2, 0, 0, 0, 1, -1,-0.23330475758955618,0.9099153409399717
1503685375388,+0.110,+0.041,-0.439,-0.891,+0.877,+0.078,-0.590,+11.562,+5.938,+12.562,0, -3, 0, 1, -1, -1, -1, 2,-0.23421525645786456,0.9131269355412529
1503685375410,+0.108,+0.046,-0.443,-0.889,+0.964,-0.000,-0.618,+17.688,+26.750,+20.625,2, 4, -6, -2, 0, -2, -2, -2,-0.23495605172183942,0.9232333784432059
1503685375433,+0.108,+0.055,-0.449,-0.885,+1.004,-0.010,-0.682,+42.125,+46.375,+17.875,-4, -2, -4, 0, -1, -2, -1, -2,-0.24293599743073285,0.9386653207435495
1503685375448,+0.109,+0.065,-0.457,-0.880,+0.939,-0.014,-0.618,+50.125,+66.312,+18.438,-4, 2, -6, -3, -4, -2, -3, -5,-0.25400519410034894,0.959325394397651
1503685375470,+0.110,+0.076,-0.467,-0.874,+0.902,+0.068,-0.629,+61.062,+75.812,+21.562,3, 3, 1, -3, 1, -1, -2, 0,-0.266529326768919,0.9853638909234734
1503685375492,+0.111,+0.091,-0.471,-0.871,+0.882,+0.026,-0.667,+75.312,+47.562,+37.250,-1, -4, 6, 2, -1, 2, 4, 7,-0.28325110236219325,1.000034523883467
1503685375514,+0.101,+0.105,-0.462,-0.875,+1.033,-0.240,-0.795,+45.000,-28.875,+87.250,-5, -7, 2, 1, 0, 2, -2, 1,-0.27847813250583203,0.9845296054039208
1503685375529,+0.093,+0.116,-0.454,-0.879,+1.065,-0.091,-0.462,+33.062,-53.062,+85.125,1, -2, -3, -2, -2, -1, -5, -7,-0.2741733290742929,0.9707434893617387
1503685375552,+0.085,+0.126,-0.441,-0.884,+0.931,-0.106,-0.465,+37.375,-79.688,+83.750,-2, -1, 1, 0, -2, -2, 3, 0,-0.2675058603462189,0.9447307118755901
1503685375575,+0.079,+0.137,-0.422,-0.893,+0.776,-0.152,-0.596,+39.562,-108.000,+77.625,-3, -6, 3, 1, 4, -3, -5, -3,-0.2639349298464415,0.9071440265375997
1503685375590,+0.072,+0.147,-0.403,-0.901,+0.646,-0.180,-0.614,+39.812,-111.875,+78.500,2, 2, -4, -3, -5, 0, -4, 1,-0.25650303142841013,0.8688742992113757
1503685375612,+0.064,+0.157,-0.384,-0.908,+0.599,-0.218,-0.612,+38.312,-100.312,+84.688,4, -2, -6, -3, 0, 1, 2, -2,-0.2461491610399655,0.8302621933089884
1503685375634,+0.056,+0.168,-0.366,-0.914,+0.596,-0.258,-0.633,+36.750,-87.938,+87.375,8, 11, 14, 33, 42, 21, 6, 4,-0.23594523789701705,0.7943630601046383
1503685375657,+0.048,+0.178,-0.350,-0.918,+0.594,-0.264,-0.657,+35.938,-79.375,+80.500,-3, -5, -3, -12, -14, -2, -5, -2,-0.22439907143836485,0.7617634567309967
1503685375672,+0.041,+0.188,-0.335,-0.922,+0.649,-0.289,-0.640,+38.125,-81.000,+75.438,3, 0, -3, -5, -9, -7, -1, 0,-0.2143396385915628,0.7318581728377017
1503685375694,+0.034,+0.197,-0.320,-0.926,+0.651,-0.319,-0.582,+37.125,-83.250,+73.312,-7, -1, -1, -2, -6, -6, 1, -1,-0.20265086923996092,0.7013232627912889
1503685375710,+0.028,+0.206,-0.306,-0.929,+0.640,-0.357,-0.599,+33.000,-82.438,+67.625,-2, -8, -1, -4, 2, -5, 0, -1,-0.19253244905824934,0.6728945166325866
1503685375735,+0.024,+0.214,-0.292,-0.932,+0.559,-0.367,-0.640,+33.125,-74.000,+55.562,1, 2, -6, -11, -17, -17, -2, -1,-0.18492359717257162,0.6444978149981618
1503685375754,+0.021,+0.222,-0.280,-0.934,+0.590,-0.385,-0.641,+35.312,-68.000,+50.438,0, -1, -6, 0, 6, -2, 0, -1,-0.17965102051858892,0.6206797494837913
1503685375770,+0.017,+0.231,-0.269,-0.935,+0.600,-0.402,-0.671,+40.000,-62.812,+49.062,-3, 1, 2, 0, 2, -1, -4, -1,-0.17307773384350672,0.5988792048101141
1503685375792,+0.015,+0.238,-0.257,-0.936,+0.569,-0.375,-0.672,+38.125,-66.625,+46.250,-2, -6, 3, -4, 1, 10, 1, -1,-0.16811319825327686,0.5742715318650484
1503685375814,+0.012,+0.246,-0.245,-0.938,+0.565,-0.365,-0.693,+36.812,-72.562,+49.062,-1, -1, -1, 4, -4, -6, -1, 0,-0.1613873833318697,0.5502177635835882
1503685375829,+0.009,+0.253,-0.232,-0.939,+0.429,-0.336,-0.734,+39.688,-66.562,+52.938,0, 6, 0, -1, 10, 24, 1, -2,-0.15283739539523575,0.5225792099711624
1503685375852,+0.005,+0.261,-0.221,-0.940,+0.428,-0.386,-0.742,+45.625,-53.375,+49.125,-1, 18, 16, 7, -2, -12, -1, 0,-0.14345700146803284,0.49957844667565326
1503685375874,+0.002,+0.271,-0.213,-0.939,+0.462,-0.461,-0.740,+53.812,-40.750,+43.812,2, 0, -10, -7, -11, -4, 0, 0,-0.13882760340902064,0.48431908560024745
1503685375889,+0.000,+0.281,-0.205,-0.938,+0.459,-0.515,-0.734,+57.062,-40.438,+39.812,-4, 1, 4, 15, 28, 10, -2, -7,-0.13597209137373803,0.4695045288480664
1503685375912,-0.001,+0.292,-0.199,-0.936,+0.384,-0.562,-0.759,+60.000,-28.250,+31.000,2, -39, -38, -7, 14, 15, 1, 6,-0.1369884980891484,0.46023931537165547
1503685375937,-0.002,+0.303,-0.195,-0.933,+0.355,-0.619,-0.724,+58.875,-15.812,+22.375,-16, 7, 41, 16, -13, -24, -3, -5,-0.1392709064236256,0.4555016269859918
1503685375949,-0.002,+0.304,-0.194,-0.933,+0.162,-0.732,-1.143,+16.188,+21.312,-12.562,1, -3, -14, 5, 28, 58, 13, 7,-0.13921336902897544,0.4536945534154156
1503685375972,+0.011,+0.334,-0.199,-0.921,+0.852,-0.551,-0.231,+192.062,+5.750,-40.625,4, -4, -16, 9, -4, -42, -8, -2,-0.19475065061706084,0.4919713630999792
1503685375994,+0.004,+0.339,-0.187,-0.922,+1.269,-1.474,+0.294,+17.500,-51.500,+71.375,-6, 17, 1, -12, 13, 19, 1, -3,-0.1724769586197553,0.46070708039905006
1503685376010,+0.001,+0.328,-0.175,-0.929,-0.113,-0.454,-0.765,-65.500,-41.875,+8.438,-3, -61, -68, -49, 6, -20, -31, -10,-0.14756069268958683,0.4230769796596756
1503685376032,+0.006,+0.314,-0.188,-0.931,+0.341,-0.216,-0.428,-65.438,+56.500,-56.812,-15, 44, 81, -10, 28, 80, -3, 5,-0.15962468945215524,0.450187949615979
1503685376054,+0.008,+0.311,-0.214,-0.926,+0.520,-0.418,-0.896,-5.938,+145.875,-58.938,7, -70, -97, -27, -62, -85, -20, -5,-0.18141394998336688,0.5114705964687425
1503685376071,+0.013,+0.311,-0.242,-0.919,+0.549,-0.359,-0.675,+20.312,+146.375,-75.312,-14, 65, 107, 77, 61, 33, 3, 2,-0.2130570346887328,0.5812059250951175
1503685376092,+0.024,+0.311,-0.267,-0.912,+0.783,-0.399,-0.473,+29.375,+122.188,-103.062,-27, 86, 65, 28, 12, 92, 24, 11,-0.25488486903602986,0.6472985515940524
1503685376115,+0.032,+0.311,-0.288,-0.905,+0.737,-0.464,-0.502,+17.812,+103.312,-78.688,16, -64, -90, -50, 13, 14, -35, -1,-0.2865494920665636,0.7014182380288224
1503685376129,+0.038,+0.308,-0.305,-0.900,+0.657,-0.437,-0.489,+1.000,+79.688,-63.375,-1, -18, -46, -39, -21, 32, -23, 7,-0.30736103856052605,0.7421252598039396
1503685376152,+0.043,+0.304,-0.324,-0.895,+0.672,-0.414,-0.432,-8.312,+96.250,-59.062,11, -7, -15, 28, 17, -39, 8, -1,-0.3255963882213713,0.7861312478350253
1503685376174,+0.046,+0.300,-0.345,-0.888,+0.712,-0.357,-0.435,-8.875,+114.688,-59.750,12, -29, -31, -14, -30, -44, 15, -7,-0.3401402939521819,0.8331173155952295
1503685376189,+0.049,+0.297,-0.367,-0.880,+0.784,-0.272,-0.554,-1.438,+123.625,-64.188,5, -9, -20, -14, -31, -43, 7, -5,-0.35576436306183895,0.8833742537807794
1503685376213,+0.055,+0.295,-0.390,-0.871,+0.789,-0.232,-0.547,+11.000,+129.750,-70.000,3, -10, -19, -15, -1, -8, 2, -2,-0.37834908522313376,0.9382838364860902
1503685376234,+0.059,+0.293,-0.411,-0.861,+0.795,-0.264,-0.521,+10.250,+122.938,-61.812,-8, 14, 4, -2, -4, 4, 3, -5,-0.39501829222768625,0.9869247924231446
1503685376249,+0.060,+0.291,-0.431,-0.852,+0.823,-0.253,-0.436,+5.625,+116.000,-42.625,6, -14, -22, -6, 18, 27, 8, 7,-0.4050764473390815,1.0327604050723327
1503685376273,+0.060,+0.290,-0.448,-0.844,+0.829,-0.232,-0.382,+0.875,+108.062,-36.375,-1, -12, -2, 1, -19, -30, -1, -3,-0.4127742759374734,1.0724982047536882
1503685376294,+0.062,+0.287,-0.466,-0.835,+0.881,-0.163,-0.439,+2.812,+106.062,-43.750,2, -3, -5, -5, -10, -21, -3, -2,-0.42146201998142374,1.1130188069233624
1503685376309,+0.067,+0.283,-0.480,-0.827,+0.860,-0.185,-0.460,+11.938,+90.750,-50.312,-1, 4, 7, 0, -5, -10, 1, -4,-0.43144641068233214,1.1432605802165792
1503685376332,+0.073,+0.281,-0.493,-0.820,+0.833,-0.301,-0.379,+16.812,+73.438,-53.375,-3, -2, -2, -1, -7, -7, 0, -2,-0.44527352523278335,1.173998437370498
1503685376354,+0.078,+0.281,-0.505,-0.812,+0.814,-0.387,-0.320,+17.188,+78.625,-51.625,-1, 0, 3, 1, -7, -7, -2, 0,-0.4593265271872456,1.2038874723740673
1503685376372,+0.082,+0.279,-0.517,-0.805,+0.869,-0.385,-0.351,+12.812,+79.062,-48.500,-4, -6, 4, 2, -2, -7, -5, -5,-0.46851827260111445,1.2316929110688661
1503685376392,+0.087,+0.278,-0.528,-0.798,+0.932,-0.379,-0.334,+14.125,+69.938,-48.500,6, 5, 3, 3, 9, -2, 0, 2,-0.4801515418089341,1.2583219642219563
1503685376414,+0.093,+0.278,-0.534,-0.793,+0.866,-0.475,-0.278,+21.938,+34.312,-53.812,-2, -1, -3, -1, 3, 0, -2, -1,-0.4925208444939877,1.2737030445463826
1503685376429,+0.102,+0.278,-0.538,-0.790,+0.880,-0.518,-0.269,+27.375,+17.750,-62.312,-1, -1, -2, 6, 8, 3, -1, -1,-0.5091011642523875,1.2848948775768287
1503685376452,+0.111,+0.276,-0.540,-0.787,+0.855,-0.433,-0.307,+21.688,+8.688,-61.500,-6, 4, 2, 10, 11, -4, -5, -7,-0.5214374720350251,1.288345853122002
1503685376476,+0.121,+0.274,-0.540,-0.786,+0.833,-0.479,-0.292,+22.812,-4.500,-65.625,0, -1, -3, -1, -4, -20, 0, 5,-0.5348384147802999,1.2872860489908096
1503685376489,+0.132,+0.274,-0.539,-0.785,+0.889,-0.508,-0.222,+28.375,-19.188,-66.688,4, 4, 1, -1, 4, -4, -2, -3,-0.5526098330391546,1.28610859145923
1503685376512,+0.142,+0.274,-0.538,-0.785,+0.954,-0.490,-0.143,+27.312,-25.188,-57.875,4, -3, -8, -10, -24, -6, 0, 6,-0.569024994788466,1.2851005837428295
1503685376534,+0.149,+0.274,-0.536,-0.785,+0.926,-0.472,-0.131,+17.375,-27.312,-44.188,1, 3, 3, 11, 15, -5, 6, 1,-0.5799610768821213,1.2810254387715467
1503685376549,+0.154,+0.275,-0.534,-0.784,+0.921,-0.490,-0.138,+13.250,-18.812,-32.250,4, -1, -5, -4, -4, -2, -3, -3,-0.588831547794819,1.2775152470947027
1503685376574,+0.156,+0.276,-0.534,-0.784,+0.973,-0.444,-0.203,+6.500,-2.562,-18.562,9, 4, 5, 6, 10, 7, 0, 1,-0.5938074455875062,1.2790327646014783
1503685376594,+0.156,+0.276,-0.534,-0.784,+1.006,-0.389,-0.165,-6.188,-7.812,-5.250,-15, -4, -5, -14, -26, -1, -4, -6,-0.5938074455875062,1.2790327646014783
1503685376610,+0.154,+0.274,-0.531,-0.787,+1.024,-0.371,-0.114,-20.938,-32.062,+6.938,-2, -5, -5, -4, 0, 3, 0, 0,-0.5866554603078935,1.2695281620805199
1503685376632,+0.150,+0.274,-0.527,-0.790,+0.971,-0.394,-0.066,-23.438,-34.312,+21.812,5, 5, 1, -2, -5, 1, -1, 4,-0.5786818312554807,1.2594732696792164
1503685376654,+0.143,+0.272,-0.524,-0.794,+0.878,-0.366,-0.067,-37.938,-28.625,+23.938,6, -6, -4, -3, 3, 1, 2, 2,-0.5631795092038202,1.2494625775361705
1503685376669,+0.136,+0.268,-0.524,-0.797,+0.911,-0.353,-0.085,-51.812,-13.188,+19.312,-9, -20, -15, -6, -4, 0, -4, -3,-0.5458150438460848,1.24460994201503
1503685376692,+0.128,+0.262,-0.523,-0.801,+0.949,-0.353,-0.122,-66.500,-16.188,+19.750,2, -10, -8, 8, 7, 2, 2, 4,-0.5235441992818428,1.23517262309203
1503685376715,+0.118,+0.254,-0.521,-0.807,+0.922,-0.414,-0.137,-82.000,-31.250,+25.750,-6, 7, 3, -1, 3, 2, -2, -4,-0.4949819159624589,1.2215268186768957
1503685376729,+0.106,+0.246,-0.517,-0.813,+0.921,-0.432,-0.164,-90.562,-33.938,+28.750,-3, 4, 11, 19, 17, 5, 0, -2,-0.4622193803784094,1.202639620194547
1503685376752,+0.095,+0.236,-0.516,-0.818,+0.928,-0.402,-0.210,-93.188,-16.000,+21.938,-2, -6, -8, -9, -7, -3, 3, 10,-0.4297302405986073,1.1898152801642
1503685376776,+0.085,+0.225,-0.518,-0.821,+0.935,-0.423,-0.218,-96.062,-2.250,+6.125,0, 1, 2, -1, -2, 3, 4, 13,-0.3988424163779267,1.1839246117965914
1503685376789,+0.078,+0.213,-0.521,-0.823,+0.943,-0.328,-0.267,-86.750,+7.750,-8.938,-5, 4, 0, -1, 0, -1, -9, -26,-0.3723081672996534,1.1805901152797476
1503685376812,+0.074,+0.202,-0.523,-0.825,+0.932,-0.227,-0.383,-65.938,+7.062,-13.000,-16, 0, 0, 0, 1, 2, 4, -18,-0.3520896521152855,1.176659261287262
1503685376834,+0.073,+0.194,-0.524,-0.826,+0.939,-0.164,-0.524,-39.312,+11.125,-17.250,-33, -11, -5, 0, -2, -5, -18, -12,-0.3405519203071983,1.1730658739498034
1503685376850,+0.076,+0.188,-0.525,-0.827,+0.945,-0.080,-0.493,-18.500,+6.625,-20.188,19, 58, 73, 20, 3, -1, 3, 10,-0.3385063220130764,1.1718866607177407
1503685376874,+0.081,+0.184,-0.524,-0.828,+1.020,-0.039,-0.389,+0.688,-14.125,-24.375,53, -1, -17, -9, -3, -1, 3, 21,-0.3417636643648688,1.1673447451470078
1503685376894,+0.087,+0.182,-0.520,-0.830,+0.971,-0.164,-0.387,+12.250,-31.312,-26.625,-19, -10, -12, -6, -3, 4, 11, 34,-0.3484426691169312,1.1570292390219066
1503685376918,+0.093,+0.184,-0.516,-0.831,+0.942,-0.247,-0.396,+21.375,-27.500,-19.125,-9, -7, -9, -5, -2, -4, -3, -21,-0.3600470541170627,1.1493804682918445
1503685376939,+0.098,+0.187,-0.514,-0.832,+0.945,-0.263,-0.400,+28.812,-13.000,-16.500,12, -1, -2, -2, -4, -1, -3, -2,-0.37192748444268176,1.1476688851129289
1503685376954,+0.103,+0.190,-0.513,-0.831,+0.984,-0.272,-0.373,+33.062,-8.688,-14.312,-7, 2, 7, 4, 0, 0, -17, -49,-0.38382364179163564,1.147778003648469
1503685376969,+0.108,+0.195,-0.510,-0.831,+1.000,-0.278,-0.351,+33.625,-20.188,-10.188,8, 7, 5, 3, 1, 6, 7, 31,-0.39775517779266517,1.1447998745307681
1503685376992,+0.113,+0.199,-0.506,-0.832,+0.960,-0.283,-0.346,+34.500,-28.625,-9.625,44, -3, -11, -7, -1, 0, 6, -4,-0.4102931551265907,1.1389828522998688
1503685377014,+0.118,+0.202,-0.502,-0.833,+0.888,-0.243,-0.310,+28.500,-28.688,-13.875,2, -7, -6, -4, -3, -2, 2, 11,-0.42159368664812213,1.132453158985974
1503685377029,+0.125,+0.204,-0.499,-0.833,+0.869,-0.201,-0.299,+28.750,-27.125,-23.000,14, 4, 5, 3, 2, 0, -4, -11,-0.435328358341851,1.127664892728795
1503685377052,+0.133,+0.205,-0.497,-0.833,+0.874,-0.213,-0.314,+26.625,-20.812,-35.250,-36, -9, 13, 3, -2, -4, -7, -32,-0.44998456294134415,1.1248277493875019
1503685377075,+0.140,+0.204,-0.496,-0.832,+0.907,-0.199,-0.284,+16.250,-16.688,-39.438,5, -9, -22, -9, -3, -1, -9, 15,-0.46049212365210623,1.1222147296277234
1503685377089,+0.147,+0.201,-0.496,-0.832,+0.968,-0.143,-0.310,+4.625,-17.375,-34.375,7, 14, -6, -4, -1, -1, 0, 9,-0.46912124238090996,1.1208570686124044
1503685377112,+0.152,+0.198,-0.495,-0.833,+0.933,-0.110,-0.311,-0.188,-22.438,-27.750,4, -3, 1, 1, -3, 0, 4, -4,-0.4741562175316189,1.1170417927351144
1503685377134,+0.157,+0.194,-0.493,-0.834,+0.928,-0.101,-0.343,-4.188,-27.062,-26.688,-31, -7, -10, -3, 0, -2, 1, -21,-0.477661990757037,1.1098605940000286
1503685377150,+0.160,+0.190,-0.491,-0.835,+0.940,-0.137,-0.393,-8.875,-23.812,-24.375,-8, -12, -19, -8, -4, -6, -29, -31,-0.4776749084585357,1.1023888295310278
1503685377172,+0.164,+0.185,-0.489,-0.836,+0.922,-0.102,-0.371,-13.625,-23.250,-24.438,-5, -8, -6, -5, -3, -1, -2, -28,-0.4783562223563833,1.0943306474676684
1503685377194,+0.167,+0.181,-0.489,-0.837,+0.914,-0.052,-0.378,-12.188,-14.250,-24.250,-12, -12, -8, -5, -4, -3, 5, -16,-0.47920749743790275,1.092051748780662
1503685377212,+0.169,+0.177,-0.490,-0.837,+0.920,-0.071,-0.393,-11.812,+0.875,-17.250,9, 16, 23, 6, 3, 0, 4, 19,-0.4783127033913659,1.091726775398171
1503685377232,+0.171,+0.175,-0.491,-0.836,+0.975,-0.087,-0.429,-9.312,+2.188,-12.062,-10, -6, -9, -4, -1, 0, 3, -3,-0.47953953693058987,1.0925549848525222
1503685377254,+0.172,+0.172,-0.491,-0.836,+1.001,-0.108,-0.453,-8.938,-5.125,-12.438,-58, -8, -8, -2, -2, -2, -3, -49,-0.4777523472004487,1.0903762890966693
1503685377270,+0.175,+0.170,-0.490,-0.837,+0.953,-0.090,-0.446,-3.188,-14.312,-18.750,45, -5, -7, -2, 1, 1, 4, 28,-0.4808193887674118,1.08723705678184
1503685377292,+0.180,+0.167,-0.489,-0.837,+0.907,-0.085,-0.438,-1.062,-13.438,-26.125,3, 0, -5, -4, 1, 3, 12, 10,-0.4860725536638056,1.083201604619218
1503685377314,+0.185,+0.165,-0.489,-0.836,+0.879,-0.111,-0.418,+3.375,-3.125,-33.375,1, -8, -19, -7, -1, 5, 18, 40,-0.4925308903939847,1.0820001072536964
1503685377330,+0.190,+0.163,-0.491,-0.835,+0.918,-0.113,-0.424,+3.312,+6.062,-37.875,-22, -11, -2, -5, -4, -5, -6, 9,-0.4995913258465938,1.0858418355458106
1503685377352,+0.196,+0.160,-0.493,-0.833,+0.919,-0.057,-0.434,+0.438,+7.750,-38.250,20, 10, 11, 2, -1, -1, -4, 9,-0.5069839871065701,1.0886168309579909
1503685377374,+0.202,+0.157,-0.495,-0.831,+0.921,-0.003,-0.385,+1.312,+1.875,-39.438,-24, -7, 1, 2, -2, -5, -9, -25,-0.5143876143576119,1.0913919543513582
1503685377390,+0.208,+0.154,-0.496,-0.829,+0.893,+0.045,-0.416,+6.375,+6.062,-39.688,-13, -9, -8, -5, -4, -5, -3, -14,-0.5215383187114738,1.091639976530093
1503685377412,+0.215,+0.151,-0.498,-0.827,+0.863,+0.065,-0.425,+8.062,+5.750,-38.375,5, 1, 5, 4, 3, 3, -12, 10,-0.5308425251116435,1.0945542988584878
1503685377434,+0.221,+0.149,-0.499,-0.825,+0.874,+0.037,-0.386,+5.812,+3.562,-33.188,24, 0, -3, 0, 1, 1, 5, 8,-0.5392207982155997,1.0955285518626308
1503685377450,+0.225,+0.146,-0.501,-0.823,+0.883,+0.066,-0.366,+1.875,+3.062,-29.938,-15, 6, 5, 1, -2, -1, -4, -45,-0.5429674682121705,1.0980320333386897
1503685377472,+0.230,+0.143,-0.501,-0.822,+0.913,+0.135,-0.430,+4.500,+0.125,-24.938,-45, -18, -3, -6, -6, -6, -8, -27,-0.5485013339646343,1.0960684126845412
1503685377494,+0.235,+0.142,-0.499,-0.822,+0.866,+0.174,-0.510,+15.125,-9.500,-13.000,20, -1, -6, 1, 2, 5, 4, 25,-0.5563031701934179,1.0909398346692991
1503685377510,+0.239,+0.142,-0.496,-0.823,+0.872,+0.148,-0.447,+17.000,-18.250,-7.062,17, 2, 5, 4, 2, 4, 20, 45,-0.5635717537013715,1.0843517319692364
1503685377531,+0.242,+0.143,-0.493,-0.823,+0.866,+0.077,-0.434,+21.438,-13.750,-2.875,9, 14, -2, -3, -2, -3, -15, -42,-0.5697062685236818,1.0779239278026946
1503685377555,+0.245,+0.146,-0.491,-0.823,+0.890,+0.105,-0.504,+30.562,-7.125,+3.312,-19, 11, 20, 3, -1, 0, 9, -7,-0.5783752425757159,1.075527575380099
1503685377570,+0.249,+0.151,-0.486,-0.824,+0.881,+0.102,-0.531,+38.312,-18.125,+8.000,13, -7, -11, -4, -1, -1, -1, 0,-0.5909370529822209,1.067833332753032
1503685377595,+0.252,+0.156,-0.481,-0.825,+0.907,+0.015,-0.511,+42.000,-18.250,+9.500,-12, -4, -2, 0, 3, 1, 2, 2,-0.6015884587819977,1.0601923222116216
1503685377616,+0.255,+0.164,-0.476,-0.826,+0.846,-0.033,-0.544,+52.062,-4.250,+12.688,3, 3, -1, -5, -1, 2, 13, 25,-0.6157060531762668,1.05519465373746
1503685377630,+0.257,+0.173,-0.474,-0.824,+0.849,-0.016,-0.541,+55.812,+11.312,+12.812,14, 1, -6, 1, -1, 2, 2, 21,-0.6286923773447805,1.0572086094661888
1503685377652,+0.259,+0.183,-0.476,-0.820,+0.916,-0.044,-0.432,+55.188,+30.875,+11.812,-6, -6, -2, -1, -2, -3, -3, 15,-0.6433657021093483,1.0693738216660555
1503685377674,+0.261,+0.194,-0.478,-0.816,+0.964,-0.069,-0.390,+57.312,+35.062,+11.688,-2, 0, 4, 0, 0, 0, -2, 7,-0.6595788958801804,1.08287359868379
1503685377691,+0.264,+0.205,-0.480,-0.811,+0.975,-0.026,-0.439,+60.250,+38.062,+12.938,1, 3, 5, 5, 3, 1, -4, 15,-0.6776875927121485,1.0966050815964568
1503685377715,+0.266,+0.216,-0.483,-0.806,+0.928,+0.000,-0.417,+62.500,+39.312,+11.875,6, 2, -2, -1, 0, 0, -6, 13,-0.6945850292656699,1.113115080867614
1503685377734,+0.270,+0.227,-0.486,-0.800,+0.918,-0.014,-0.333,+64.688,+41.625,+7.188,-2, 1, 7, 2, -3, 1, -4, -8,-0.7153470074713655,1.1301029174761017
1503685377750,+0.273,+0.238,-0.490,-0.793,+0.941,-0.009,-0.324,+68.188,+49.125,+8.125,-7, -5, -5, -4, -1, -1, 2, -12,-0.734557032835721,1.149481456035175
1503685377772,+0.276,+0.249,-0.494,-0.786,+0.929,-0.009,-0.254,+63.875,+44.062,+7.688,-1, -3, -1, 0, -1, -3, -14, -13,-0.7542283083787481,1.1694176689349496
1503685377794,+0.278,+0.258,-0.497,-0.780,+0.980,-0.038,-0.181,+48.375,+32.062,+6.688,-4, 0, 1, 0, 2, 6, 9, 5,-0.76958984628332,1.1852832006815937
1503685377810,+0.278,+0.264,-0.500,-0.777,+1.018,-0.064,-0.215,+32.688,+25.062,+14.875,-7, -10, -11, -8, -5, -5, -2, 0,-0.7782459115506661,1.198628120855954
1503685377832,+0.276,+0.270,-0.500,-0.775,+0.968,-0.068,-0.262,+18.438,+16.312,+28.125,0, -3, -9, -4, -2, -2, -3, -2,-0.7825060157192675,1.204754278858594
1503685377854,+0.271,+0.275,-0.501,-0.775,+0.981,-0.121,-0.305,+7.688,+18.438,+36.438,-1, 0, 5, 16, 12, -4, -9, -1,-0.7809129387137185,1.2123591065212256
1503685377870,+0.266,+0.279,-0.500,-0.775,+0.939,-0.153,-0.304,+3.875,+13.812,+40.375,-7, -1, -3, -13, -19, -8, -2, -21,-0.7771450328906625,1.2138949290994034
1503685377892,+0.260,+0.284,-0.501,-0.775,+0.924,-0.191,-0.247,+1.812,+18.062,+42.938,0, -4, -5, -3, 12, 5, 1, 0,-0.7739541201667233,1.2214498136497245
1503685377916,+0.252,+0.289,-0.502,-0.775,+0.923,-0.219,-0.269,-4.750,+23.000,+45.312,-4, -1, 4, 11, -2, -1, -2, 2,-0.7672319273696641,1.228697109383057
1503685377930,+0.243,+0.293,-0.503,-0.776,+0.938,-0.231,-0.263,-11.688,+24.000,+49.000,-9, 6, 3, 0, 1, 2, 1, -12,-0.7576865300886624,1.2348792399693416
1503685377953,+0.235,+0.297,-0.504,-0.776,+0.929,-0.241,-0.259,-13.812,+22.000,+47.250,8, 3, 3, -2, -4, -9, -4, 2,-0.7498083448073652,1.2409795884581727
1503685377974,+0.226,+0.299,-0.505,-0.777,+0.921,-0.258,-0.244,-16.688,+17.625,+45.312,-8, -6, -9, -16, -12, -3, -1, -5,-0.7374462605031322,1.2446412318001328
1503685377997,+0.218,+0.302,-0.506,-0.778,+0.931,-0.264,-0.220,-17.312,+19.562,+42.500,-11, -5, 1, -5, 1, 0, -4, -1,-0.728626293559098,1.2498451076824586
1503685378012,+0.210,+0.304,-0.507,-0.779,+0.933,-0.285,-0.234,-18.062,+19.812,+40.000,6, -4, -2, 11, 10, 4, 2, 4,-0.7183147906743581,1.253753271905915
1503685378034,+0.203,+0.307,-0.508,-0.779,+0.900,-0.284,-0.272,-14.125,+20.875,+35.188,0, 1, 9, 5, -1, 2, 3, 2,-0.7111957199339657,1.2588966476227659
1503685378050,+0.197,+0.308,-0.509,-0.779,+0.912,-0.293,-0.259,-13.188,+19.375,+28.750,-6, -13, -9, 3, 4, -1, -1, -7,-0.7026799369116538,1.2615792485521484
1503685378071,+0.192,+0.310,-0.511,-0.779,+0.922,-0.291,-0.233,-11.125,+20.312,+24.250,4, 6, 2, 3, 4, 1, 0, 2,-0.6981288673181436,1.268344670814136
1503685378094,+0.187,+0.311,-0.512,-0.778,+0.905,-0.301,-0.229,-8.312,+15.750,+22.125,8, -16, -7, 3, 1, 1, 3, 10,-0.6911914376233859,1.2709459467433006
1503685378110,+0.184,+0.312,-0.512,-0.779,+0.883,-0.297,-0.246,-10.500,+9.125,+18.875,3, 3, -2, -1, 0, -3, -2, -7,-0.68789325677046,1.2720460621632204
1503685378132,+0.180,+0.312,-0.513,-0.779,+0.875,-0.303,-0.251,-10.375,+9.000,+13.812,-4, -1, -2, 5, 6, 3, 3, -1,-0.6814097290593145,1.2738116203283598
1503685378155,+0.178,+0.313,-0.514,-0.779,+0.893,-0.313,-0.250,-6.812,+10.000,+8.188,0, 5, -4, -6, -4, -1, 2, -4,-0.6800958013966999,1.2773313757386737
1503685378170,+0.177,+0.313,-0.514,-0.779,+0.908,-0.311,-0.253,-3.500,+7.875,+3.625,-6, 22, 29, 9, 2, 0, -7, -8,-0.6783547519903209,1.2771412385378522
1503685378194,+0.177,+0.313,-0.515,-0.778,+0.875,-0.288,-0.253,+1.688,+10.062,-1.312,-5, -5, -4, -6, -8, -1, -3, 0,-0.6785771197561912,1.2793703100399028
1503685378215,+0.178,+0.313,-0.516,-0.777,+0.861,-0.285,-0.250,+4.438,+8.125,-10.375,-3, -10, -7, -1, -2, 2, -5, -1,-0.680536371327666,1.2817899751095947
1503685378230,+0.181,+0.313,-0.517,-0.776,+0.887,-0.305,-0.228,+5.250,+6.000,-16.500,-2, -9, -6, -11, -23, -11, -2, -3,-0.6859679198691312,1.2845806438963767
1503685378252,+0.183,+0.312,-0.519,-0.775,+0.886,-0.294,-0.222,+2.375,+5.438,-18.062,-4, -3, -2, 4, 6, -1, 1, -2,-0.6884934577879366,1.288354337891617
1503685378274,+0.185,+0.311,-0.520,-0.774,+0.882,-0.295,-0.223,-0.438,+3.812,-19.625,0, -2, 2, 1, 2, 1, 2, 8,-0.6905097555858855,1.2895926605056898
1503685378290,+0.188,+0.308,-0.522,-0.773,+0.882,-0.261,-0.204,-6.125,+2.688,-25.188,8, 6, 6, 13, 11, 5, 1, 4,-0.6914416305659659,1.290853260386065
1503685378313,+0.191,+0.305,-0.523,-0.773,+0.939,-0.264,-0.213,-7.500,-2.062,-23.875,-3, -4, -6, -6, -9, -5, -2, 2,-0.6922049953193677,1.2899132339158914
1503685378334,+0.193,+0.302,-0.524,-0.773,+0.938,-0.257,-0.221,-5.625,-4.312,-17.375,-6, -6, -6, -5, -6, -1, -2, -3,-0.6912567782784103,1.2888336116689034
1503685378352,+0.194,+0.300,-0.525,-0.772,+0.914,-0.244,-0.211,-7.750,+1.250,-12.875,2, -3, -7, -1, 4, 0, -6, -5,-0.689908215872391,1.2886185117539675
1503685378372,+0.195,+0.298,-0.526,-0.772,+0.907,-0.258,-0.187,-12.562,-0.062,-17.125,1, -2, 1, 10, 11, 2, 2, 1,-0.6888776098142302,1.2887232874177446
1503685378394,+0.197,+0.294,-0.528,-0.772,+0.941,-0.218,-0.200,-13.938,-0.938,-19.375,15, 21, 6, 2, -3, -6, -2, 5,-0.686844614080788,1.2889845072389865
1503685378410,+0.199,+0.291,-0.529,-0.772,+0.953,-0.188,-0.256,-10.188,-1.125,-16.188,-3, 4, 2, 11, 18, 5, 1, -3,-0.6859867199634735,1.288040730084536
1503685378432,+0.200,+0.289,-0.528,-0.773,+0.998,-0.174,-0.257,-3.875,-5.812,-6.250,-4, -3, -5, -16, -17, -1, 3, -4,-0.6843974809967174,1.2834561965104987
1503685378454,+0.200,+0.289,-0.527,-0.774,+0.977,-0.222,-0.243,-0.625,-9.562,+2.250,2, 4, 4, -3, -4, 0, 2, 1,-0.6842555494677958,1.281230632969496
1503685378470,+0.201,+0.289,-0.526,-0.774,+0.958,-0.244,-0.218,-0.938,-8.938,+1.625,-1, -1, 5, 7, 16, 2, -5, -13,-0.6855508037113862,1.2788680778289834
1503685378493,+0.201,+0.288,-0.526,-0.775,+0.951,-0.250,-0.194,-3.875,-8.750,-6.750,-12, -10, -11, -18, -18, -4, -2, 0,-0.6842817452881743,1.2779239966350326
1503685378514,+0.203,+0.286,-0.525,-0.776,+0.942,-0.271,-0.180,-10.688,-11.812,-14.875,-7, -8, -3, 8, 22, 9, 2, 5,-0.684500919526735,1.2735516856461613
1503685378530,+0.204,+0.282,-0.526,-0.776,+0.959,-0.233,-0.191,-17.688,-8.312,-17.438,0, 7, 11, 4, -5, -1, 1, -5,-0.6804252407442088,1.2713042366262104
1503685378554,+0.205,+0.279,-0.528,-0.776,+0.989,-0.193,-0.225,-15.750,+0.688,-14.312,-4, -3, -13, -2, 2, -3, -5, -14,-0.6783951582975071,1.2728719417812386
1503685378574,+0.205,+0.276,-0.529,-0.776,+0.973,-0.166,-0.226,-15.062,+0.500,-7.375,-7, -4, -2, -4, -2, -3, -5, -6,-0.6741734088404365,1.2717794970043526
1503685378591,+0.204,+0.274,-0.530,-0.776,+0.990,-0.195,-0.232,-12.500,+4.062,-0.125,0, -3, -2, 3, 14, 5, 7, 6,-0.6697541374383403,1.2717547886084808
1503685378612,+0.202,+0.273,-0.531,-0.777,+0.997,-0.195,-0.250,-12.000,+1.500,+7.438,0, 1, 2, 0, -3, -3, -6, 0,-0.6654524926073406,1.273094140854918
1503685378634,+0.199,+0.273,-0.530,-0.778,+0.970,-0.199,-0.239,-12.938,-2.375,+12.688,-1, -13, -18, -9, -13, -7, 0, 6,-0.6600588645361614,1.2703778962301946
1503685378650,+0.196,+0.272,-0.530,-0.779,+0.948,-0.217,-0.228,-13.438,+0.000,+12.688,-7, -8, 2, -1, -5, 1, 1, 4,-0.6535690539979961,1.2690176964499318
1503685378672,+0.194,+0.271,-0.530,-0.780,+0.923,-0.231,-0.212,-18.000,-2.000,+8.000,-4, -1, 2, -4, -9, -2, 1, 0,-0.6488404457800108,1.2678291013862404
1503685378696,+0.191,+0.269,-0.531,-0.781,+0.920,-0.244,-0.209,-22.812,-0.562,+2.562,-1, 4, 2, 2, 1, 4, 1, 0,-0.6412746673519285,1.267862837815822
1503685378710,+0.188,+0.266,-0.532,-0.781,+0.941,-0.252,-0.215,-27.375,+4.750,+3.125,-1, -1, 1, 11, 18, 1, -4, -8,-0.6318898270815254,1.2664418601332283
1503685378732,+0.184,+0.263,-0.534,-0.782,+0.936,-0.261,-0.185,-33.750,+4.812,+5.688,11, 5, -2, -9, -20, -6, -1, 2,-0.6215433865457213,1.267801488484927
1503685378755,+0.179,+0.259,-0.536,-0.784,+0.920,-0.261,-0.159,-40.312,-0.062,+0.750,-5, 0, 7, 12, 27, 8, 3, 1,-0.6082865521658151,1.2682723553374873
1503685378770,+0.176,+0.253,-0.537,-0.785,+0.928,-0.237,-0.188,-45.500,-2.188,-5.875,2, -5, -10, -7, -9, -4, -6, -5,-0.5948274585731393,1.2640571848263906
1503685378792,+0.174,+0.246,-0.538,-0.787,+0.917,-0.153,-0.279,-41.375,-5.875,-9.500,18, 20, 10, -3, -8, -4, 1, 10,-0.582024855754167,1.2594349586699745
1503685378814,+0.173,+0.240,-0.536,-0.791,+0.976,-0.130,-0.325,-35.625,-17.250,-3.812,-15, 7, 9, 0, -6, -4, -6, -17,-0.5718915014191867,1.2491643602738929
1503685378830,+0.169,+0.236,-0.535,-0.793,+0.979,-0.156,-0.314,-31.375,-13.062,+10.938,23, 14, 1, 5, 9, -1, 1, 4,-0.559355907176988,1.2425331098493226
1503685378852,+0.165,+0.234,-0.534,-0.796,+0.925,-0.135,-0.329,-24.312,-3.688,+18.938,-16, -16, -17, -11, 1, -1, -3, -13,-0.5500110784778415,1.2383506138097025
1503685378874,+0.162,+0.232,-0.533,-0.798,+0.945,-0.161,-0.324,-21.562,-6.438,+15.375,7, 7, 7, 7, 2, 2, 2, 6,-0.5421211165646366,1.2339950757799218
1503685378891,+0.160,+0.230,-0.532,-0.799,+0.969,-0.207,-0.272,-17.000,-9.562,+8.375,-6, -2, 3, -6, -6, -11, -4, 5,-0.5356961177425729,1.2294571368680263
1503685378912,+0.158,+0.228,-0.531,-0.801,+0.949,-0.201,-0.300,-17.312,-10.625,+4.250,-7, -15, -9, 0, -2, 2, 5, -4,-0.5295646075376053,1.2253036857826716
1503685378934,+0.156,+0.225,-0.529,-0.803,+0.940,-0.195,-0.300,-20.250,-11.188,+3.375,6, 7, 19, 5, -16, -1, -4, -3,-0.5216496226640994,1.2176107671996579
1503685378958,+0.154,+0.223,-0.528,-0.805,+0.949,-0.207,-0.280,-20.500,-13.250,+4.688,3, -5, -16, -12, -8, -4, -2, 5,-0.5155481201888915,1.2135174741642816
1503685378972,+0.152,+0.221,-0.527,-0.807,+0.960,-0.210,-0.278,-21.125,-11.625,+5.062,3, 0, -5, 3, 7, 1, -1, -2,-0.5094565915996564,1.2094496351875972
1503685378994,+0.150,+0.218,-0.527,-0.808,+0.934,-0.148,-0.318,-19.688,-4.938,+7.375,-6, 10, 4, -6, -16, -5, -3, -5,-0.5021272708597704,1.206675987627272
1503685379016,+0.148,+0.216,-0.526,-0.809,+0.922,-0.129,-0.364,-14.438,+2.375,+9.750,-1, -12, -5, -1, 0, 2, 5, 0,-0.49579772006102923,1.2022794722697465
1503685379032,+0.146,+0.216,-0.526,-0.810,+0.949,-0.152,-0.387,-8.188,+2.812,+15.125,3, -1, -2, 0, 0, -4, 1, 9,-0.4925865793044913,1.2023485053917684
1503685379054,+0.143,+0.217,-0.524,-0.811,+0.932,-0.160,-0.385,-1.125,-2.750,+20.812,-5, 1, -2, 2, -1, 3, 2, 2,-0.48821773857610273,1.197994664581373
1503685379076,+0.141,+0.220,-0.521,-0.813,+0.917,-0.183,-0.372,+5.188,-11.312,+25.875,1, -3, 1, -2, 0, 1, 1, 2,-0.48815740716438594,1.1934764555004587
1503685379797,+0.171,+0.186,-0.505,-0.826,+0.984,-0.144,-0.328,+0.688,-14.500,-13.438,-10, 2, 18, 6, 3, 1, -4, -7,-0.49450818146806186,1.132568889160645
1503685379813,+0.174,+0.185,-0.503,-0.826,+0.934,-0.137,-0.342,+3.312,-13.750,-17.625,-1, -2, -8, -6, -3, -5, -4, -6,-0.4979902937723524,1.127122561510578
1503685379835,+0.178,+0.184,-0.503,-0.826,+0.900,-0.142,-0.376,+2.562,-5.625,-20.875,-3, -8, -9, -1, -1, -3, -1, -8,-0.5039505363098715,1.1269371392881242
1503685379856,+0.181,+0.183,-0.504,-0.825,+0.922,-0.117,-0.417,+4.188,+5.062,-18.438,8, -6, -9, -7, -6, -2, 1, 11,-0.5081281360274834,1.1287000201319437
1503685379873,+0.183,+0.184,-0.505,-0.824,+0.963,-0.097,-0.440,+9.812,+6.562,-11.688,3, 2, -1, -2, -1, 0, 3, 5,-0.5129924733505774,1.1319513424697427
1503685379897,+0.185,+0.185,-0.504,-0.823,+0.977,-0.122,-0.442,+15.125,+1.250,-3.688,-5, -4, -7, -1, 0, -1, -4, -6,-0.5172137338126155,1.1301210327541134
1503685379924,+0.187,+0.188,-0.503,-0.823,+0.973,-0.128,-0.420,+19.125,-0.500,+2.312,-14, -14, -12, -10, -4, -1, 3, 4,-0.5242706811427287,1.1304178479439173
1503685379939,+0.188,+0.193,-0.502,-0.822,+0.957,-0.138,-0.410,+25.312,+4.188,+8.000,2, -2, -4, -2, 0, -1, 0, -2,-0.5317347010545007,1.1318901283613512
1503685379955,+0.189,+0.199,-0.502,-0.820,+0.974,-0.144,-0.420,+32.938,+7.688,+11.188,-2, -4, -7, -4, -5, -4, -4, -5,-0.5405427679436356,1.1364664402907037
1503685379976,+0.190,+0.206,-0.501,-0.819,+0.972,-0.166,-0.419,+39.562,+6.188,+12.625,5, 5, 3, 1, 0, 1, 2, 4,-0.5507140008152732,1.1400031280436924
1503685379999,+0.192,+0.214,-0.499,-0.818,+0.964,-0.191,-0.417,+44.938,+4.875,+12.688,-5, 0, 1, 1, 4, 2, -1, -11,-0.5637595016623582,1.1423452721247795
1503685380015,+0.195,+0.222,-0.497,-0.816,+0.953,-0.176,-0.388,+49.062,+4.000,+11.688,11, 1, 3, 2, 2, -1, -2, -3,-0.5784248536654532,1.1447452468029533
1503685380039,+0.198,+0.230,-0.495,-0.814,+0.946,-0.177,-0.376,+53.750,+1.812,+10.688,0, -4, -3, -8, -8, -2, -2, -1,-0.5932310797165609,1.1474538983498381
1503685380053,+0.202,+0.239,-0.493,-0.812,+0.936,-0.181,-0.368,+58.750,+2.625,+8.125,-3, -4, -4, 1, 4, 1, 1, -5,-0.6113908282894324,1.151725546577512
1503685380075,+0.207,+0.248,-0.491,-0.809,+0.893,-0.171,-0.371,+60.938,+3.500,+3.188,-8, 2, -4, -12, -18, -6, -1, 0,-0.6312512898729178,1.156194572998356
1503685380098,+0.212,+0.257,-0.489,-0.806,+0.920,-0.181,-0.374,+63.750,+0.938,+1.812,-2, -2, 8, 20, 13, 3, 0, -1,-0.6513348160900259,1.161083937046097
1503685380113,+0.218,+0.265,-0.486,-0.804,+0.903,-0.161,-0.359,+62.938,-4.750,+1.688,0, -4, -4, 0, 2, -2, -1, 3,-0.6719610959354558,1.1633480558706835
1503685380135,+0.223,+0.274,-0.482,-0.802,+0.878,-0.197,-0.354,+64.375,-6.062,+1.500,-1, 0, 0, -1, 0, 0, -1, 0,-0.6919816576608934,1.1645029374235976
1503685380157,+0.230,+0.282,-0.479,-0.799,+0.832,-0.174,-0.339,+65.875,-3.125,-2.000,-3, -4, 0, -6, -4, -5, -3, -2,-0.7145288544201641,1.1673880107769457
1503685380173,+0.236,+0.290,-0.476,-0.796,+0.853,-0.205,-0.333,+64.312,-5.312,-4.688,4, 1, -2, -5, -4, -3, -2, -1,-0.7354354060401015,1.1704296607046885
1503685380195,+0.242,+0.297,-0.473,-0.793,+0.859,-0.206,-0.334,+60.875,-6.562,-5.062,-3, 2, 2, -1, 1, -1, 0, 0,-0.7550114073421226,1.1725265621579066
1503685380217,+0.248,+0.304,-0.469,-0.791,+0.858,-0.197,-0.337,+57.375,-7.188,-3.438,-4, -5, -4, -2, -1, -1, -3, -4,-0.7746863317266175,1.1728880845907406
1503685380233,+0.254,+0.311,-0.466,-0.789,+0.873,-0.204,-0.335,+55.750,-10.688,-2.625,4, -1, -4, -3, -1, -1, -1, -1,-0.7950003357678629,1.1759835876423363
1503685380255,+0.260,+0.316,-0.461,-0.787,+0.849,-0.206,-0.337,+51.812,-16.000,-5.812,0, -2, -1, -3, -2, 0, -2, 1,-0.8113896142977427,1.1717614937220184
1503685380277,+0.266,+0.321,-0.457,-0.786,+0.860,-0.208,-0.349,+47.312,-17.625,-6.750,-2, 3, 0, -1, -3, -1, -1, 0,-0.8287303188682722,1.1705269065032333
1503685380293,+0.271,+0.325,-0.453,-0.785,+0.868,-0.223,-0.316,+42.312,-19.938,-4.875,-4, -13, -14, -9, -7, -4, 3, 3,-0.8426513470332894,1.167776990515163
1503685380315,+0.276,+0.328,-0.449,-0.784,+0.847,-0.214,-0.326,+33.688,-19.375,-3.188,-1, -5, -5, 0, 0, 0, 1, 2,-0.8550255056569019,1.1637049681695362
1503685380339,+0.279,+0.331,-0.447,-0.783,+0.862,-0.240,-0.287,+22.938,-12.562,-4.688,3, 6, 7, 5, 3, -1, -1, -1,-0.8644891660298474,1.1638981861031314
1503685380353,+0.281,+0.331,-0.446,-0.783,+0.903,-0.247,-0.301,+7.875,-5.875,-5.062,-6, 0, -3, -1, 2, 2, -1, -1,-0.867920922462695,1.162097107922175
1503685380376,+0.281,+0.330,-0.446,-0.783,+0.929,-0.208,-0.322,-5.875,-5.562,-1.875,-14, -9, -6, 2, 1, 1, 2, -2,-0.866276255517189,1.1606067688174466
1503685380397,+0.280,+0.327,-0.447,-0.784,+0.900,-0.223,-0.321,-19.375,-5.062,-0.125,8, -3, -4, -1, -2, -2, -4, 0,-0.8602448567972596,1.158607132482611
1503685380413,+0.279,+0.323,-0.448,-0.786,+0.893,-0.239,-0.350,-29.438,-0.625,-2.250,5, 6, 4, 0, 0, -2, -2, 1,-0.8530070537567978,1.1555713119716677
1503685380435,+0.276,+0.318,-0.451,-0.787,+0.915,-0.218,-0.377,-38.250,+5.500,-2.000,0, -1, -2, 4, 7, 1, 0, -3,-0.8408488483954604,1.1549942347256816
1503685380457,+0.273,+0.312,-0.454,-0.789,+0.922,-0.213,-0.388,-44.188,+12.188,+0.125,-1, 0, -1, -2, -3, -1, 0, -3,-0.8275785907571087,1.1535492614765388
1503685380473,+0.268,+0.306,-0.458,-0.790,+0.927,-0.198,-0.370,-47.812,+15.938,+3.625,1, 11, 14, 10, 4, 0, -2, 5,-0.8106372638469161,1.1538085962541864
1503685380495,+0.262,+0.300,-0.463,-0.792,+0.893,-0.209,-0.368,-52.000,+19.688,+4.500,-14, 2, 7, 5, 0, 0, -1, 1,-0.7927378012855819,1.1568525963818224
1503685380517,+0.257,+0.294,-0.468,-0.793,+0.886,-0.190,-0.411,-52.062,+22.688,+1.750,2, 3, -2, -4, -4, 0, 2, 3,-0.7765118696464313,1.1600470085522943
1503685380534,+0.254,+0.289,-0.471,-0.794,+0.921,-0.155,-0.429,-39.375,+16.250,-0.188,-7, -5, -5, 1, 3, 2, 3, -2,-0.7648605140383945,1.160434107881246
1503685380555,+0.251,+0.284,-0.473,-0.795,+0.953,-0.161,-0.405,-34.562,+6.250,+1.250,8, 4, 0, -9, -4, 0, 3, 9,-0.7528606083494539,1.1585492599532365
1503685380577,+0.248,+0.279,-0.475,-0.797,+0.923,-0.185,-0.359,-37.062,-1.312,+4.562,1, 2, 5, 3, 0, -2, -3, -3,-0.7413149698222873,1.1571944351657941
1503685380593,+0.245,+0.273,-0.476,-0.799,+0.889,-0.130,-0.355,-44.125,-0.938,+3.750,-11, 5, 2, -4, -5, -3, -4, -9,-0.7279586209213154,1.1523191168430194
1503685380615,+0.242,+0.266,-0.479,-0.801,+0.895,-0.063,-0.430,-38.250,+8.750,-0.188,7, 11, 13, 9, 5, 1, -5, -4,-0.7140906986121579,1.151325431197362
1503685380637,+0.241,+0.262,-0.480,-0.802,+0.946,-0.097,-0.432,-26.500,+4.312,-1.125,-6, -3, -5, 3, 1, -2, 0, -4,-0.7072223076209013,1.149223474704678
1503685380653,+0.238,+0.258,-0.482,-0.803,+0.939,-0.156,-0.332,-30.438,-1.500,+3.938,3, -13, -9, -10, -6, -4, -1, 0,-0.6970467047538772,1.1492235939261068
1503685380676,+0.234,+0.253,-0.484,-0.804,+0.877,-0.155,-0.300,-41.750,+7.750,+4.750,-1, 4, -2, -4, -2, -1, 0, 7,-0.6836337552425582,1.1479741190913266
1503685380697,+0.229,+0.248,-0.489,-0.804,+0.914,-0.149,-0.347,-47.562,+22.125,+2.312,-3, -6, -5, -4, -3, -1, 0, 4,-0.6692584627384842,1.1536895878865576
1503685380713,+0.225,+0.242,-0.494,-0.804,+0.918,-0.063,-0.403,-40.750,+26.688,+4.375,-2, -6, -7, 4, 1, 0, 0, -6,-0.6554128812278136,1.1587323145218242
1503685380735,+0.221,+0.238,-0.498,-0.804,+0.928,-0.086,-0.359,-33.688,+18.438,+5.000,0, -1, 1, 0, 0, -1, 1, 0,-0.6440228618363232,1.16364368951708
1503685380757,+0.217,+0.235,-0.501,-0.804,+0.914,-0.111,-0.331,-33.625,+12.688,+6.938,4, -4, -3, -1, 2, 1, 1, 1,-0.6336746998397657,1.1672294765678477
1503685380779,+0.213,+0.231,-0.503,-0.805,+0.874,-0.138,-0.375,-35.312,+16.000,+8.938,-5, 2, 2, -2, -2, 0, -1, -1,-0.621957912030361,1.1677514864238625
1503685380794,+0.209,+0.227,-0.506,-0.805,+0.891,-0.078,-0.402,-34.125,+15.688,+5.188,-4, 1, 3, -4, -4, -3, -4, -6,-0.6103179804645208,1.1704977824664735
1503685380817,+0.207,+0.222,-0.507,-0.807,+0.930,-0.058,-0.416,-27.125,-0.125,+5.062,-2, -7, -3, -4, -2, -1, 0, 1,-0.600944953222819,1.1684637893615857
1503685380832,+0.205,+0.219,-0.505,-0.809,+0.919,-0.099,-0.412,-19.625,-13.688,+7.562,-2, 10, 9, -3, -4, 0, 0, -1,-0.5932142257459355,1.1609172268691177
1503685380854,+0.203,+0.218,-0.503,-0.811,+0.881,-0.118,-0.367,-11.562,-7.250,+10.500,4, -3, -3, -8, -2, -1, 0, -1,-0.5881860666214613,1.1553547035577858
1503685380877,+0.201,+0.219,-0.503,-0.812,+0.905,-0.161,-0.364,-7.125,+1.125,+14.312,-4, -7, -16, -19, -13, -4, 3, 1,-0.5862239191254368,1.156382410318327
1503685380891,+0.198,+0.220,-0.502,-0.812,+0.953,-0.182,-0.391,-1.375,+1.812,+15.750,8, -7, -5, -1, -5, -4, -2, 3,-0.5817406744048214,1.1542949695961235
1503685380914,+0.197,+0.222,-0.501,-0.813,+0.938,-0.194,-0.410,+3.438,-4.312,+16.188,-4, 0, 0, 5, 4, 1, 1, -2,-0.5825682625277276,1.1539619935684664
1503685380937,+0.196,+0.224,-0.498,-0.814,+0.926,-0.188,-0.383,+8.438,-8.812,+12.125,-1, 2, -3, -18, -12, -3, -7, -2,-0.5826390464565102,1.1485982111197846
1503685380951,+0.196,+0.227,-0.497,-0.814,+0.913,-0.204,-0.346,+14.125,-5.188,+8.250,-4, -3, -4, 0, -2, -2, 3, -1,-0.5863005288383817,1.1490735676128452
1503685380975,+0.197,+0.231,-0.496,-0.814,+0.932,-0.230,-0.308,+20.625,-1.875,+5.812,-5, -9, -3, 0, 2, 1, 0, -4,-0.5931577493305195,1.1507966292775895
1503685380996,+0.199,+0.236,-0.495,-0.813,+0.941,-0.259,-0.341,+25.000,-2.250,+2.062,4, 0, 2, 5, 3, -1, -1, 1,-0.6029140805398109,1.1534157077150227
1503685381012,+0.201,+0.241,-0.493,-0.812,+0.930,-0.272,-0.348,+29.312,-4.250,-0.062,-3, 7, 3, 8, 2, 2, 1, -10,-0.6123328138274294,1.1536472315874389
1503685381034,+0.204,+0.247,-0.491,-0.810,+0.921,-0.291,-0.320,+36.000,-4.562,-2.688,1, 4, 6, 6, 4, 0, 0, 6,-0.6246972653761759,1.1548938810975231
1503685381056,+0.208,+0.253,-0.489,-0.809,+0.901,-0.317,-0.324,+39.250,-4.938,-7.188,14, 5, 0, -5, 7, 2, 1, 18,-0.6393223336277928,1.1569419741994824
1503685381072,+0.212,+0.259,-0.486,-0.807,+0.897,-0.333,-0.333,+43.562,-7.062,-10.938,-15, -12, -1, 4, 11, 5, 2, -14,-0.6532876206677598,1.1562995708583819
1503685381095,+0.218,+0.265,-0.483,-0.806,+0.890,-0.353,-0.346,+46.125,-10.875,-15.062,5, 4, -5, -4, -8, -1, -2, -4,-0.6713856204605815,1.1567091538419167
1503685381117,+0.224,+0.271,-0.480,-0.804,+0.891,-0.334,-0.341,+47.000,-10.688,-18.875,-12, -4, 2, 10, 2, -2, 0, -8,-0.6892623463482523,1.156956626708137
1503685381131,+0.232,+0.276,-0.477,-0.801,+0.912,-0.321,-0.324,+51.625,-12.062,-23.625,20, 2, -5, -8, 5, 0, -1, -5,-0.7091575403761874,1.15627623102647
1503685381154,+0.239,+0.282,-0.474,-0.799,+0.905,-0.316,-0.310,+50.812,-14.500,-25.188,-9, -5, 1, -2, -4, -3, -1, -2,-0.7291684008590151,1.1572185939667958
1503685381177,+0.247,+0.287,-0.472,-0.796,+0.899,-0.297,-0.305,+48.562,-12.312,-27.625,-2, 13, 10, 5, -2, 0, 1, 4,-0.7497720771022718,1.159402978005119
1503685381191,+0.255,+0.291,-0.471,-0.793,+0.919,-0.259,-0.279,+41.562,-4.625,-30.312,-3, -2, -5, -14, -6, -1, -4, -1,-0.7694214496249376,1.1628833268364573
1503685381214,+0.261,+0.294,-0.472,-0.789,+0.960,-0.214,-0.264,+37.000,+1.375,-28.875,-2, 2, -2, -7, 0, 2, 0, 0,-0.7843172237193392,1.1691243691496183
1503685381240,+0.267,+0.297,-0.473,-0.785,+0.961,-0.174,-0.293,+34.938,+9.625,-23.188,-12, -7, -5, -20, -27, -11, -5, -5,-0.7992610241969268,1.1754185248509181
1503685381252,+0.271,+0.300,-0.476,-0.781,+0.978,-0.147,-0.281,+26.875,+13.062,-16.625,1, -2, -1, 7, 1, -1, 0, 3,-0.8112849135210445,1.1861078066324562
1503685381274,+0.274,+0.302,-0.478,-0.778,+1.035,-0.139,-0.242,+15.875,+13.562,-11.188,-2, -7, -3, -1, 1, -2, -1, -2,-0.8198266066989219,1.1932150103664112
1503685381296,+0.275,+0.302,-0.482,-0.775,+1.009,-0.103,-0.242,+7.750,+17.688,-7.688,-2, -14, -14, 5, 8, 2, 3, 2,-0.8222646365774956,1.2019892092024909
1503685381313,+0.275,+0.303,-0.486,-0.772,+1.009,-0.090,-0.232,-0.750,+19.062,-1.812,-10, -7, -3, 1, 1, -1, -3, -3,-0.8243772023809942,1.2119279060054706
1503685381334,+0.273,+0.302,-0.490,-0.771,+0.966,-0.089,-0.227,-12.438,+20.375,+2.812,5, -2, -2, -1, 0, 2, 1, 3,-0.820312440972995,1.219461092193555
1503685381357,+0.270,+0.300,-0.495,-0.769,+0.982,-0.105,-0.224,-24.438,+25.688,+5.562,5, 20, 0, -8, -10, -4, 0, -4,-0.8128424777265726,1.2275837212405827
1503685381374,+0.265,+0.297,-0.501,-0.769,+1.008,-0.141,-0.265,-35.250,+30.500,+9.938,16, 12, 0, -6, -8, -4, 2, 2,-0.801266645828866,1.2371986691736325
1503685381394,+0.258,+0.294,-0.506,-0.769,+0.992,-0.145,-0.287,-41.125,+28.125,+14.312,4, 16, 3, 9, 10, 2, -1, -1,-0.7856372992768138,1.2441386535705456
1503685381417,+0.250,+0.291,-0.509,-0.771,+0.954,-0.152,-0.242,-48.250,+17.312,+26.750,11, 0, 0, 4, 2, -2, -4, -10,-0.7681731024035111,1.2467742280114926
1503685381442,+0.240,+0.288,-0.513,-0.772,+0.923,-0.199,-0.242,-53.625,+22.625,+32.625,7, 1, -2, -8, -17, -4, 1, 5,-0.7472466290839144,1.2513015459762133
1503685381454,+0.230,+0.284,-0.517,-0.774,+0.897,-0.220,-0.239,-56.250,+22.875,+29.625,-4, 4, 3, -3, -9, -5, -1, 1,-0.725299235590876,1.255059949906112
1503685381477,+0.221,+0.280,-0.518,-0.777,+0.893,-0.242,-0.281,-54.875,+11.125,+26.938,-13, -12, -2, 3, 7, 1, -2, -4,-0.704356759471113,1.2519803709967212
1503685381499,+0.212,+0.276,-0.518,-0.781,+0.875,-0.263,-0.307,-53.000,+2.562,+27.000,-9, -12, -5, 7, 15, 1, -1, 2,-0.6834284266306756,1.2468252945333038
1503685381514,+0.204,+0.273,-0.517,-0.785,+0.849,-0.310,-0.322,-47.562,-3.750,+26.812,-4, 1, -1, -1, 2, 0, 1, -1,-0.6654546231740165,1.2406138624156526
1503685381536,+0.197,+0.270,-0.516,-0.788,+0.847,-0.298,-0.316,-38.938,-1.562,+23.000,-1, 3, 4, 6, 6, 2, 1, 10,-0.6489798887887632,1.2342867875671935
1503685381559,+0.192,+0.269,-0.515,-0.791,+0.857,-0.335,-0.335,-29.938,-3.500,+17.000,-5, 1, 1, 1, 1, 0, 1, -2,-0.6391068932604974,1.2307107945404276
1503685381576,+0.189,+0.268,-0.513,-0.794,+0.892,-0.318,-0.330,-19.562,-10.250,+11.312,8, -1, 2, -1, -10, -1, -7, -4,-0.6323339121679439,1.2249771857469256
1503685381597,+0.187,+0.267,-0.510,-0.796,+0.906,-0.301,-0.305,-9.375,-13.125,+6.750,-3, -3, -1, -3, -2, -4, -3, -2,-0.6265737445025286,1.2165474770659621
1503685381619,+0.187,+0.268,-0.508,-0.797,+0.894,-0.311,-0.284,+3.250,-12.188,+2.750,4, 0, -2, 1, 2, -2, -5, -1,-0.6274880778645865,1.2130087243053436
1503685381634,+0.189,+0.270,-0.507,-0.797,+0.905,-0.310,-0.281,+12.562,-7.438,-5.000,-7, 1, -1, -3, -2, 0, -6, -10,-0.6335985666494841,1.2132106644916356
1503685381657,+0.191,+0.272,-0.506,-0.796,+0.918,-0.299,-0.289,+15.125,-3.250,-10.312,4, -5, -2, 6, 16, -1, 3, 9,-0.6394086674107143,1.2130729674156255
1503685381681,+0.195,+0.274,-0.505,-0.795,+0.943,-0.269,-0.284,+15.750,-4.812,-11.812,-2, 7, 7, -3, -6, 0, 4, 2,-0.6488075507987751,1.213356840087164
1503685381694,+0.199,+0.275,-0.505,-0.794,+0.924,-0.239,-0.271,+17.375,-6.500,-16.188,3, -8, -1, 2, 3, 1, 1, 1,-0.657165100543615,1.2149833160489172
1503685381717,+0.204,+0.275,-0.504,-0.793,+0.923,-0.214,-0.279,+19.750,-7.500,-21.125,-5, -11, -7, -3, -3, -2, 5, 3,-0.665375774750354,1.2130946312312452
1503685381739,+0.210,+0.276,-0.504,-0.791,+0.925,-0.189,-0.296,+25.000,-6.875,-27.812,-1, 26, 21, 5, 0, 1, 1, -4,-0.6770406833828657,1.2147663656308403
1503685381754,+0.219,+0.276,-0.503,-0.789,+0.932,-0.167,-0.300,+29.375,-10.750,-38.875,7, 1, -3, -3, -1, -1, -3, -4,-0.69222049692614,1.213323446961388
1503685381777,+0.229,+0.276,-0.503,-0.787,+0.925,-0.154,-0.286,+32.125,-10.375,-47.188,-5, -10, -10, -5, -2, -3, -10, -4,-0.7097470103756701,1.2145764489079036
1503685381800,+0.238,+0.275,-0.503,-0.784,+0.914,-0.154,-0.281,+28.625,-5.000,-45.438,1, 5, 1, 8, 17, 2, 0, -2,-0.7236646454539288,1.2140478294840245
1503685381814,+0.245,+0.275,-0.505,-0.781,+0.947,-0.132,-0.272,+22.938,+2.500,-38.562,3, -2, -4, -2, -7, 0, 1, -1,-0.736299339774516,1.2192929946541335
1503685381837,+0.252,+0.274,-0.507,-0.777,+0.946,-0.090,-0.251,+18.500,+6.438,-35.250,5, -1, -2, -4, -8, -1, 4, 1,-0.7470655787326472,1.2229487563860992
1503685381859,+0.259,+0.273,-0.509,-0.774,+0.948,-0.066,-0.261,+17.562,+3.875,-37.000,1, -6, -10, -4, -5, -2, 1, 1,-0.7582242196439976,1.226941707679138
1503685381880,+0.265,+0.272,-0.512,-0.771,+0.987,-0.053,-0.247,+14.125,+5.438,-34.375,10, 7, 2, 3, 2, 6, 3, 1,-0.7679385081726847,1.2332042780955
1503685381897,+0.269,+0.269,-0.514,-0.769,+1.019,-0.028,-0.243,+3.500,+3.375,-23.250,-7, -3, -4, -2, -3, -2, -8, -4,-0.7709061347053151,1.2345529787444711
1503685381919,+0.271,+0.267,-0.516,-0.767,+1.039,-0.003,-0.221,-6.438,+2.812,-9.938,-7, -7, -1, 0, 0, 0, 2, 0,-0.7716438392704777,1.2367694652451353
1503685381934,+0.269,+0.265,-0.518,-0.767,+1.027,+0.010,-0.195,-16.625,+1.312,+3.875,-2, -4, -1, -1, -3, -3, 0, -4,-0.7656847944931531,1.238988838228829
1503685381957,+0.266,+0.262,-0.520,-0.768,+1.012,-0.010,-0.212,-24.812,+0.125,+16.438,-4, -7, -7, -2, 0, -2, 2, 1,-0.7567778270004432,1.2402354052048776
1503685381980,+0.260,+0.260,-0.521,-0.770,+1.007,-0.059,-0.249,-34.000,+1.188,+24.438,-2, -2, 0, -1, 0, -1, 1, -1,-0.7438209042656557,1.2400450079830596
1503685381994,+0.253,+0.257,-0.522,-0.773,+1.001,-0.106,-0.255,-40.875,-3.375,+30.000,4, 5, 5, 3, 2, -2, 0, 0,-0.7279781283945892,1.2389162440962314
1503685382024,+0.245,+0.254,-0.521,-0.777,+0.984,-0.136,-0.265,-45.375,-7.688,+33.938,1, 5, 2, -3, -4, 0, -1, -1,-0.7099712434017678,1.233022190941426
1503685382039,+0.236,+0.251,-0.521,-0.781,+0.964,-0.188,-0.270,-49.875,-4.062,+35.625,-4, -5, -2, -3, -4, 0, -2, -2,-0.6905985243762445,1.2295229300251846
1503685382054,+0.226,+0.248,-0.522,-0.784,+0.958,-0.204,-0.293,-50.812,+2.375,+36.188,1, 3, 3, 1, 1, 1, -2, -1,-0.6695318328568328,1.2280871924339956
1503685382078,+0.217,+0.246,-0.522,-0.788,+0.957,-0.205,-0.325,-44.000,+0.750,+35.500,-3, 1, 2, 4, 3, 1, -3, -2,-0.6517864232374773,1.2258094549724987
1503685382092,+0.210,+0.244,-0.520,-0.791,+0.947,-0.229,-0.341,-35.812,-6.438,+32.625,-2, -10, -8, -1, 0, -2, 0, -1,-0.636549500576214,1.2184777437452812
1503685382114,+0.204,+0.243,-0.518,-0.794,+0.941,-0.261,-0.328,-27.312,-9.375,+26.312,-2, -6, -5, -3, -6, -5, -4, -6,-0.6245651021268337,1.2124004668719919
1503685382136,+0.199,+0.243,-0.516,-0.797,+0.931,-0.304,-0.303,-18.938,-7.125,+16.375,2, 0, 1, 2, 1, 2, 1, 3,-0.6158013719044597,1.207566464051031
1503685382159,+0.196,+0.243,-0.516,-0.797,+0.935,-0.350,-0.262,-14.875,-1.312,+3.938,3, 6, 0, -2, -2, 0, 3, 3,-0.6104349637387106,1.2070389572978049
1503685382174,+0.195,+0.243,-0.517,-0.797,+0.948,-0.377,-0.246,-15.562,+3.500,-7.312,-2, -1, -3, -2, -1, -2, -4, -13,-0.60905468053636,1.2094058340817646
1503685382196,+0.193,+0.241,-0.520,-0.796,+0.983,-0.373,-0.254,-19.562,+13.562,-16.312,-3, -7, -5, -4, -2, 0, -1, -5,-0.6035236251897758,1.2142045368883836
1503685382221,+0.193,+0.239,-0.525,-0.794,+1.016,-0.257,-0.325,-20.500,+26.938,-17.250,0, -3, -6, -3, -5, -4, -3, -7,-0.602030124657976,1.2241278015931025
1503685382234,+0.192,+0.237,-0.528,-0.792,+0.953,-0.138,-0.385,-11.062,+24.250,-9.438,-4, 2, 0, 0, 0, -1, -4, 0,-0.5979532637038266,1.2288305053231872
1503685382256,+0.194,+0.237,-0.529,-0.792,+0.979,-0.168,-0.365,+4.375,+7.250,-8.875,-6, 1, 11, 7, 4, 0, -4, -5,-0.6018892629335019,1.2317114075933453
1503685382280,+0.196,+0.238,-0.528,-0.791,+1.012,-0.260,-0.302,+10.812,-5.062,-9.812,12, 8, 9, 0, 0, 3, 6, 11,-0.6061402592072335,1.2301582879586679
1503685382295,+0.197,+0.240,-0.527,-0.791,+0.993,-0.308,-0.262,+8.562,-7.125,-7.500,-3, -8, -5, -5, -3, -3, -4, 0,-0.6103821554015462,1.2298609545461878
1503685382317,+0.198,+0.240,-0.525,-0.792,+0.935,-0.302,-0.268,+1.750,-9.500,-6.562,-10, -6, -1, 2, 1, 0, 2, -3,-0.6116887578036803,1.2252793430463143
1503685382332,+0.199,+0.239,-0.524,-0.793,+0.887,-0.283,-0.286,-6.375,-10.312,-12.250,-3, -5, -4, -4, -2, -3, -3, -6,-0.611970376650509,1.2222054788642203
1503685382355,+0.201,+0.236,-0.523,-0.794,+0.864,-0.270,-0.316,-13.062,-11.938,-23.750,0, 4, 2, 2, -1, -1, -2, -4,-0.6112075110954088,1.2172212606522796
1503685382376,+0.204,+0.231,-0.522,-0.795,+0.867,-0.240,-0.323,-17.875,-14.000,-36.500,7, 3, -2, 1, 2, -2, -4, -10,-0.6094752941801881,1.2103908194726487
1503685382399,+0.208,+0.224,-0.521,-0.797,+0.847,-0.195,-0.328,-22.562,-20.312,-43.125,1, 9, 4, -3, -1, -3, -2, 2,-0.6072310026472747,1.2021963861648788
1503685382414,+0.213,+0.215,-0.520,-0.799,+0.822,-0.167,-0.322,-30.000,-25.250,-46.375,-5, 0, -1, 0, 0, 0, -1, -5,-0.6042928739616591,1.1924129298926494
1503685382437,+0.216,+0.205,-0.519,-0.801,+0.806,-0.133,-0.305,-43.750,-24.688,-48.500,-7, -1, -2, -3, -3, -1, 1, -2,-0.596701169665227,1.181672277992328
1503685382459,+0.219,+0.192,-0.519,-0.803,+0.754,-0.031,-0.387,-51.812,-18.750,-45.625,2, 4, -3, 0, -2, -1, 2, 3,-0.5858679420047005,1.1711747819367229
1503685382474,+0.222,+0.180,-0.520,-0.805,+0.741,+0.072,-0.420,-49.188,-13.250,-40.250,11, -4, -3, -2, -3, 2, 5, 16,-0.57705485782292,1.1646629325281206
1503685382496,+0.224,+0.169,-0.521,-0.806,+0.763,+0.110,-0.449,-42.562,-1.875,-37.500,-6, -5, -5, -3, -2, -2, -4, -5,-0.5676014865101672,1.1589023618588994
1503685382519,+0.226,+0.160,-0.524,-0.805,+0.749,+0.112,-0.423,-37.625,+13.938,-32.875,-4, -1, 1, -3, -3, -1, -4, -3,-0.5606224527258029,1.1593801038236151
1503685382534,+0.227,+0.152,-0.528,-0.804,+0.817,+0.064,-0.348,-39.562,+16.188,-24.875,0, 5, -7, -2, -3, -1, 2, 5,-0.5533578371764021,1.1633474527229974
1503685382557,+0.225,+0.145,-0.534,-0.802,+0.893,+0.062,-0.292,-45.812,+20.500,-17.438,1, -2, -1, -1, 0, -1, 0, 1,-0.541911580840202,1.172718507977866
1503685382581,+0.223,+0.137,-0.539,-0.801,+0.958,+0.124,-0.294,-46.500,+19.000,-16.562,-7, -3, 0, 2, 0, -1, -1, 1,-0.5293815212856,1.1795323258613186
1503685382594,+0.222,+0.128,-0.542,-0.800,+1.004,+0.186,-0.323,-43.812,-0.938,-18.062,-4, 10, 5, 1, 1, -1, -1, -5,-0.5170370014052813,1.1809110329083994
1503685382617,+0.222,+0.119,-0.543,-0.801,+0.995,+0.189,-0.271,-44.438,-17.312,-20.312,-3, -7, -4, -3, 0, 0, -2, -6,-0.5069382302159411,1.1783044406979546
1503685382639,+0.222,+0.109,-0.542,-0.803,+0.906,+0.186,-0.209,-45.562,-27.125,-19.938,-3, -4, -2, -2, -2, 0, -3, -5,-0.4957912871827812,1.170586487213731
1503685382654,+0.223,+0.100,-0.542,-0.804,+0.865,+0.231,-0.220,-39.062,-23.812,-19.938,-3, -13, 0, 1, 0, 1, -1, 1,-0.48762163672585085,1.1660499880022426
1503685382676,+0.224,+0.091,-0.542,-0.805,+0.857,+0.281,-0.276,-34.625,-16.500,-19.562,1, 6, 2, 0, -1, -1, 1, -2,-0.4795899569655627,1.1617884624202128
1503685382699,+0.224,+0.083,-0.542,-0.806,+0.884,+0.281,-0.282,-33.625,-15.375,-15.625,1, 0, -4, -3, -2, 1, 0, 1,-0.4709580780111913,1.158219574284935
1503685382716,+0.224,+0.076,-0.544,-0.805,+0.907,+0.293,-0.275,-28.688,-4.750,-6.938,-2, -2, -1, 1, -1, -2, -2, -5,-0.4629988201645014,1.1597704272751743
1503685382736,+0.228,+0.068,-0.527,-0.816,+1.168,+0.369,-0.706,-9.625,-121.625,-26.875,2, 5, 2, 0, -2, -1, 0, 0,-0.46398675470139833,1.1163861428599984
1503685382759,+0.229,+0.062,-0.518,-0.822,+1.077,+0.227,-0.252,-10.938,-84.875,-3.125,2, 3, 3, 5, 12, 0, -2, 1,-0.46093318758406737,1.0930047638568576
1503685382774,+0.229,+0.059,-0.509,-0.827,+1.131,+0.233,-0.343,-0.562,-79.250,+5.125,2, 0, 2, -2, -2, -2, 2, 1,-0.45890753778141635,1.0706284720968122
1503685382796,+0.229,+0.058,-0.501,-0.833,+1.096,+0.126,-0.399,+1.812,-69.500,+3.438,-2, 3, -1, -2, 1, 0, 1, -4,-0.45952835833871125,1.052404557394901
1503685382819,+0.230,+0.056,-0.493,-0.837,+1.072,+0.162,-0.494,+1.875,-60.750,+2.250,-7, -8, 0, -2, -4, -2, -4, -4,-0.46028314043773266,1.032968676174769
1503685382834,+0.230,+0.056,-0.484,-0.842,+0.854,+0.150,-0.494,+8.438,-56.938,+5.688,-4, -2, -2, 1, -4, -4, -1, 1,-0.4614504288281459,1.0124484921025512
1503685382857,+0.232,+0.056,-0.474,-0.848,+0.594,+0.101,-0.541,+12.250,-56.688,+4.625,-2, -4, -4, -3, -2, 0, 1, -3,-0.46682059900137385,0.9902404559414348
1503685382879,+0.235,+0.055,-0.464,-0.852,+0.533,+0.118,-0.574,+14.812,-46.500,-6.688,5, -3, -3, -5, -4, -3, 2, -4,-0.47241915569633763,0.9668391860835622
1503685382895,+0.239,+0.055,-0.458,-0.854,+0.639,+0.121,-0.572,+18.500,-25.062,-15.000,-4, 0, -3, -2, -4, -1, -1, -3,-0.4805422434462934,0.9531038008611655
1503685382919,+0.241,+0.057,-0.456,-0.855,+0.988,+0.077,-0.547,+12.688,-19.500,-4.438,1, -3, -1, 0, -1, 1, -2, -1,-0.4865607588203761,0.9496989455059742
1503685382939,+0.241,+0.058,-0.456,-0.855,+1.126,+0.131,-0.493,+6.812,-8.875,-0.562,-4, 2, 2, -1, -1, -1, 0, -2,-0.48748113603050336,0.9501698363250841
1503685382955,+0.241,+0.060,-0.452,-0.857,+0.944,+0.091,-0.472,+9.438,-31.125,+5.938,4, 1, 3, -3, -4, -2, -4, 0,-0.4897563561285059,0.9422273658440513
1503685382976,+0.242,+0.059,-0.446,-0.860,+0.765,+0.026,-0.501,+3.500,-41.312,-4.438,-3, 0, 1, 11, 16, 6, 0, -1,-0.4914813403935546,0.9285439286881202
1503685382999,+0.244,+0.056,-0.441,-0.862,+0.840,+0.102,-0.554,-6.375,-39.625,-15.875,3, 1, 0, -5, -7, -6, 2, 9,-0.4931250461338588,0.9159702486799104
1503685383014,+0.246,+0.052,-0.437,-0.864,+0.874,+0.148,-0.577,-9.000,-34.750,-14.750,0, -3, -3, 2, -4, 1, 4, 4,-0.49408116383515943,0.9054362824515864
1503685383036,+0.247,+0.049,-0.432,-0.866,+0.773,+0.155,-0.602,-6.125,-33.438,-7.125,1, -2, 0, -4, -2, -1, -3, -2,-0.49391131903678476,0.8929010394870774
1503685383060,+0.248,+0.047,-0.427,-0.868,+0.667,+0.120,-0.610,-5.500,-27.875,-3.562,-1, -5, -5, -5, -7, 0, -1, -3,-0.49466823789037007,0.8808856288756716
1503685383075,+0.248,+0.045,-0.424,-0.870,+0.693,+0.135,-0.620,-9.125,-18.375,-4.375,0, 3, -2, -9, -2, -4, -5, -7,-0.4936165535407948,0.8737347651820861
1503685383096,+0.248,+0.043,-0.423,-0.871,+0.789,+0.170,-0.611,-9.188,-8.000,-0.125,-1, 0, -2, 1, -8, -3, -7, -4,-0.49230545682755683,0.8709305886177292
1503685383125,+0.247,+0.042,-0.423,-0.871,+0.795,+0.162,-0.590,-5.625,-3.938,+4.750,0, 1, -2, -6, -10, -3, 4, -5,-0.48945017975821814,0.8704223192839782
1503685383134,+0.246,+0.042,-0.421,-0.872,+0.767,+0.141,-0.587,-2.188,-8.000,+5.500,4, -4, -1, 0, -1, -6, -3, 1,-0.48771950352781174,0.8660445312932071
1503685383157,+0.246,+0.042,-0.420,-0.873,+0.761,+0.126,-0.603,-1.625,-8.625,+5.750,-2, -1, 0, 0, 3, -5, -9, -2,-0.4880831409125852,0.8641613167291377
1503685383172,+0.245,+0.042,-0.419,-0.873,+0.770,+0.147,-0.594,-2.312,-5.625,+4.562,-3, -8, -3, -1, 1, 6, 1, -1,-0.4859878652168277,0.8616747157748644
1503685383195,+0.245,+0.042,-0.419,-0.874,+0.765,+0.167,-0.600,-1.188,-3.688,+3.625,-7, -1, 1, 1, 2, 6, 4, -8,-0.4864248811320852,0.8622249597950475
1503685383216,+0.244,+0.042,-0.419,-0.874,+0.787,+0.163,-0.604,+1.750,-0.875,+3.500,3, 0, 1, -3, 0, 8, 14, 1,-0.4844052109203815,0.8621698359076282
1503685383233,+0.244,+0.043,-0.418,-0.874,+0.761,+0.138,-0.600,+3.688,-0.375,+3.000,0, 0, -1, 0, 1, 0, -5, 4,-0.4851561188797737,0.8601914208349944
1503685383256,+0.244,+0.044,-0.418,-0.874,+0.764,+0.125,-0.601,+3.562,+2.062,+2.500,-4, -6, -3, -1, -4, -10, -2, 0,-0.48598349036678207,0.8606452935516962
1503685383276,+0.244,+0.045,-0.419,-0.874,+0.794,+0.117,-0.584,+0.750,+2.125,+2.375,-7, -4, -4, 0, 1, -7, -5, -10,-0.4868925249467304,0.8635292430906781
1503685383293,+0.244,+0.045,-0.419,-0.874,+0.783,+0.125,-0.595,-1.250,-1.438,+2.875,3, 2, -3, -2, -2, -8, -2, 4,-0.4868925249467304,0.8635292430906781
1503685383315,+0.243,+0.045,-0.419,-0.874,+0.765,+0.122,-0.619,-1.812,+1.062,+2.250,-1, -3, 1, 2, 2, 12, -2, -3,-0.48487625931448114,0.8634703135710335
1503685383337,+0.243,+0.045,-0.419,-0.874,+0.752,+0.133,-0.603,-2.062,+3.938,+1.688,2, 4, 2, 0, -1, 2, -1, 1,-0.48487625931448114,0.8634703135710335
1503685383359,+0.243,+0.045,-0.420,-0.873,+0.776,+0.133,-0.599,-2.062,+6.875,+2.562,-3, -4, -2, -2, -1, 8, -5, 1,-0.48452309342409394,0.8653509371479218
1503685383375,+0.242,+0.046,-0.421,-0.873,+0.791,+0.126,-0.583,-2.188,+6.875,+2.938,1, 0, -2, 0, -2, -1, 0, -1,-0.4834273727937036,0.8681791465925819
1503685383396,+0.242,+0.046,-0.422,-0.872,+0.801,+0.119,-0.580,-2.438,+4.125,+2.625,-2, -2, 0, 0, 1, 3, -1, 0,-0.4830775559184886,0.8700638471559362
1503685383421,+0.241,+0.046,-0.423,-0.872,+0.794,+0.129,-0.583,-2.312,+1.438,+1.375,1, -2, -2, -2, -2, 2, -3, -4,-0.48115097808684276,0.8724394667904136
1503685383435,+0.241,+0.046,-0.423,-0.872,+0.787,+0.132,-0.585,-2.562,+1.062,+1.062,-3, 1, 0, -1, -1, -1, -1, -6,-0.48115097808684276,0.8724394667904136
1503685383459,+0.241,+0.046,-0.423,-0.872,+0.778,+0.136,-0.587,-1.750,+0.688,+1.188,0, 1, 2, 0, 1, -5, 7, 2,-0.48115097808684276,0.8724394667904136
1503685383479,+0.241,+0.046,-0.423,-0.872,+0.775,+0.134,-0.596,-0.688,+2.438,+1.938,0, -1, -2, -3, -1, -10, 0, 0,-0.48115097808684276,0.8724394667904136
1503685383495,+0.241,+0.047,-0.424,-0.872,+0.774,+0.117,-0.590,+0.250,+3.688,+2.500,0, -1, 1, -1, -1, 0, 0, 1,-0.4820772481678483,0.875331862414768
1503685383516,+0.240,+0.048,-0.424,-0.872,+0.786,+0.117,-0.583,-0.625,+4.250,+2.625,1, 0, -1, 0, 2, -3, -3, 1,-0.4809170989717135,0.8757279059242796
1503685383539,+0.240,+0.048,-0.425,-0.872,+0.796,+0.115,-0.575,-1.438,+3.188,+1.938,-3, -3, -2, -4, -3, -1, 3, 1,-0.48100282278531137,0.8781657942327126
1503685383558,+0.240,+0.048,-0.425,-0.871,+0.793,+0.122,-0.582,-2.125,+1.812,+1.562,-2, -1, 0, -1, 1, 0, -3, -1,-0.4805741270264462,0.8776188701227464
1503685383576,+0.239,+0.048,-0.426,-0.871,+0.792,+0.125,-0.586,-3.062,+1.938,+1.062,-3, 0, -1, -1, 0, 0, 1, -1,-0.478657740738181,0.8799974472995546
1503685383599,+0.239,+0.048,-0.426,-0.871,+0.792,+0.123,-0.585,-2.625,+2.000,+0.750,-4, -2, -4, -1, 0, -1, -3, -4,-0.478657740738181,0.8799974472995546
1503685383614,+0.239,+0.048,-0.427,-0.871,+0.786,+0.123,-0.579,-3.000,+2.250,+1.000,-3, 0, -1, -2, 0, -4, 1, -3,-0.4787435729456722,0.8824396821729418
1503685383636,+0.239,+0.048,-0.427,-0.871,+0.790,+0.128,-0.578,-3.188,+2.125,+1.000,1, 2, -1, -1, -2, 0, 1, 0,-0.4787435729456722,0.8824396821729418
1503685383661,+0.238,+0.048,-0.428,-0.871,+0.787,+0.128,-0.578,-2.625,+2.438,+0.625,-4, -3, -2, 1, -2, -3, -4, -2,-0.4768294687469429,0.8848225173731485
1503685383674,+0.238,+0.048,-0.428,-0.870,+0.788,+0.127,-0.576,-2.062,+2.312,+0.562,0, -5, -1, -2, 0, 1, 0, -1,-0.47640342603855024,0.8842761443908442
1503685383698,+0.238,+0.048,-0.429,-0.870,+0.802,+0.122,-0.580,-1.688,+1.875,+0.688,1, 1, 0, -1, 0, 0, -1, 4,-0.476489365707279,0.8867227333746698
1503685383719,+0.238,+0.048,-0.429,-0.870,+0.793,+0.128,-0.577,-1.938,+0.625,+0.250,-5, -3, -2, -2, -3, -1, -3, -3,-0.476489365707279,0.8867227333746698
1503685383741,+0.238,+0.048,-0.429,-0.870,+0.790,+0.127,-0.584,-1.875,-0.188,+0.500,2, -1, 0, 1, 0, 0, 1, 2,-0.476489365707279,0.8867227333746698
1503685383757,+0.238,+0.048,-0.429,-0.870,+0.789,+0.126,-0.589,-1.625,+0.188,+0.625,0, -4, -2, -1, -1, 0, 4, 1,-0.476489365707279,0.8867227333746698
1503685383779,+0.238,+0.048,-0.429,-0.870,+0.786,+0.130,-0.578,-1.438,+1.938,+0.938,-3, 1, 0, -1, 0, -1, 0, -2,-0.476489365707279,0.8867227333746698
1503685383795,+0.238,+0.048,-0.429,-0.870,+0.795,+0.128,-0.575,-1.875,+1.312,+1.312,3, -1, -1, 0, -1, 1, -2, 3,-0.476489365707279,0.8867227333746698
1503685383817,+0.238,+0.048,-0.429,-0.870,+0.802,+0.124,-0.580,-1.625,+0.500,+0.938,-2, -1, -1, 0, 0, -1, 1, -2,-0.476489365707279,0.8867227333746698
1503685383839,+0.238,+0.048,-0.430,-0.870,+0.788,+0.125,-0.578,-1.625,+0.938,+0.812,0, -2, -1, -2, -1, 0, -3, -1,-0.47657529775240093,0.8891711431131187
1503685383859,+0.238,+0.048,-0.430,-0.870,+0.793,+0.132,-0.569,-2.062,+0.875,+0.625,-2, -3, -3, -2, -1, -2, -4, -3,-0.47657529775240093,0.8891711431131187
1503685383877,+0.238,+0.048,-0.430,-0.870,+0.806,+0.133,-0.567,-1.625,+0.125,+1.125,-2, -1, -1, -1, -1, -1, -4, -2,-0.47657529775240093,0.8891711431131187
1503685383900,+0.238,+0.048,-0.430,-0.870,+0.801,+0.127,-0.566,-1.000,-1.375,+1.000,-1, 1, 1, 0, -3, 1, 1, 1,-0.47657529775240093,0.8891711431131187
1503685383915,+0.238,+0.048,-0.429,-0.870,+0.800,+0.121,-0.570,-1.062,-2.438,+0.500,1, 0, -1, -1, 0, -3, 0, 0,-0.476489365707279,0.8867227333746698
1503685383937,+0.238,+0.048,-0.429,-0.870,+0.803,+0.120,-0.576,-1.688,-3.875,+0.000,-1, 0, -1, -1, -2, -1, 1, -1,-0.476489365707279,0.8867227333746698
1503685383959,+0.238,+0.048,-0.429,-0.870,+0.789,+0.128,-0.581,-2.125,-3.125,-0.812,-4, -4, -1, 0, 1, 0, -2, -3,-0.476489365707279,0.8867227333746698
1503685383975,+0.238,+0.047,-0.428,-0.871,+0.784,+0.130,-0.580,-1.688,-2.688,-0.562,-1, -4, -3, -1, 0, 0, -2, -1,-0.47597545284168447,0.8843707314095365
1503685383997,+0.238,+0.047,-0.428,-0.871,+0.791,+0.126,-0.577,-1.500,-2.125,-1.188,0, 1, 1, 1, 0, -1, -1, -2,-0.47597545284168447,0.8843707314095365
1503685384019,+0.238,+0.047,-0.428,-0.871,+0.787,+0.133,-0.571,-0.938,-1.750,-1.062,-1, -1, 0, -2, -2, -1, 0, -1,-0.47597545284168447,0.8843707314095365
1503685384035,+0.238,+0.047,-0.428,-0.871,+0.795,+0.129,-0.570,-0.812,-2.812,-0.688,0, -3, -4, -2, 0, -2, -1, 1,-0.47597545284168447,0.8843707314095365
1503685384059,+0.239,+0.047,-0.427,-0.871,+0.800,+0.134,-0.578,-0.500,-3.688,-1.062,-1, 1, -1, -1, -2, -1, 0, 0,-0.4778917009022982,0.8819859365619783
1503685384079,+0.239,+0.047,-0.427,-0.871,+0.783,+0.133,-0.590,-0.062,-3.562,-0.625,0, 2, 1, 0, -2, -1, -2, -1,-0.4778917009022982,0.8819859365619783
1503685384095,+0.239,+0.047,-0.426,-0.871,+0.779,+0.138,-0.588,+0.250,-2.250,+0.125,-1, -1, 0, 0, -2, -1, 1, 0,-0.47780760081042223,0.8795429738453472
1503685384117,+0.239,+0.047,-0.426,-0.871,+0.772,+0.129,-0.595,+0.375,-0.812,+0.750,-1, -1, -3, -2, -3, -2, 1, 1,-0.47780760081042223,0.8795429738453472
1503685384139,+0.239,+0.047,-0.426,-0.871,+0.780,+0.131,-0.598,+0.562,+1.000,+1.375,-2, 0, 0, -1, 0, 0, -2, -2,-0.47780760081042223,0.8795429738453472
1503685384155,+0.239,+0.048,-0.426,-0.871,+0.780,+0.128,-0.588,+0.438,+2.188,+1.750,-2, 0, 1, 0, 0, 1, -1, -2,-0.478657740738181,0.8799974472995546
1503685384177,+0.239,+0.048,-0.427,-0.871,+0.785,+0.131,-0.585,-0.062,+2.688,+2.312,-1, -1, -2, -2, 0, -2, -1, -2,-0.4787435729456722,0.8824396821729418
1503685384199,+0.239,+0.048,-0.427,-0.871,+0.784,+0.128,-0.583,+0.125,+3.250,+3.000,-3, -2, 1, 1, -2, 0, -3, -3,-0.4787435729456722,0.8824396821729418
1503685384215,+0.238,+0.049,-0.427,-0.871,+0.788,+0.121,-0.583,+0.375,+3.438,+3.125,2, -1, -1, 1, -1, 1, -1, 1,-0.4775973099163481,0.8828336541104133
1503685384237,+0.238,+0.050,-0.428,-0.871,+0.789,+0.120,-0.576,-0.188,+2.750,+3.125,-2, -1, -2, -2, -1, -1, -1, 2,-0.4785419065156894,0.8857347654783285
1503685384261,+0.238,+0.050,-0.428,-0.870,+0.793,+0.118,-0.579,-1.000,+2.875,+2.938,-2, 1, 2, -1, -1, 0, 0, -3,-0.4781164291496262,0.885189270004554
1503685384275,+0.237,+0.050,-0.429,-0.870,+0.793,+0.122,-0.582,-0.938,+2.688,+2.250,-1, -2, -2, -1, -1, -3, -1, -1,-0.47621019664665076,0.8875708452952008
1503685384297,+0.237,+0.051,-0.429,-0.870,+0.794,+0.122,-0.578,-0.938,+2.812,+1.562,-1, -1, 2, 0, -2, 1, 0, -1,-0.4770710356498226,0.8880298136256219
1503685384319,+0.237,+0.051,-0.430,-0.870,+0.796,+0.122,-0.574,-0.688,+2.875,+1.375,1, 2, -1, 0, -1, 0, 1, 0,-0.477162246535172,0.8904762582511788
1503685384336,+0.237,+0.051,-0.430,-0.870,+0.800,+0.119,-0.577,-0.625,+1.312,+1.625,-3, -2, 0, -2, -2, -1, -2, 0,-0.477162246535172,0.8904762582511788
1503685384357,+0.237,+0.051,-0.430,-0.870,+0.798,+0.116,-0.573,-1.125,+1.062,+0.875,0, 1, 1, -2, 3, 0, 0, -1,-0.477162246535172,0.8904762582511788
1503685384379,+0.237,+0.051,-0.430,-0.870,+0.794,+0.117,-0.572,-1.125,+1.188,+0.438,0, 0, -1, 0, 0, 0, -1, -1,-0.477162246535172,0.8904762582511788
1503685384397,+0.237,+0.052,-0.431,-0.869,+0.797,+0.121,-0.574,-1.062,+1.062,+0.250,0, -2, 2, 0, 0, -1, 1, -1,-0.4776956070889428,0.8928410756775826
1503685384417,+0.237,+0.052,-0.431,-0.869,+0.803,+0.118,-0.571,-1.188,+0.312,+0.188,-3, -4, -4, -2, 0, -2, 0, -2,-0.4776956070889428,0.8928410756775826
1503685384440,+0.237,+0.052,-0.431,-0.869,+0.800,+0.118,-0.572,-1.562,-0.688,+0.000,-2, -1, -2, -2, 1, -3, -2, -4,-0.4776956070889428,0.8928410756775826
1503685384455,+0.237,+0.051,-0.431,-0.870,+0.805,+0.124,-0.572,-1.750,-1.938,+0.000,1, 1, -2, -2, -4, -2, -3, 2,-0.47725344881889237,0.8929244990327921
1503685384477,+0.237,+0.051,-0.430,-0.870,+0.796,+0.122,-0.581,-1.500,-2.062,-0.375,1, 3, 1, 0, 0, -3, -1, 0,-0.477162246535172,0.8904762582511788
1503685384500,+0.237,+0.051,-0.430,-0.870,+0.787,+0.118,-0.586,-1.500,-1.375,-0.125,-3, 0, -2, 0, 0, 1, -1, -2,-0.477162246535172,0.8904762582511788
1503685384515,+0.237,+0.051,-0.430,-0.870,+0.786,+0.122,-0.579,-1.562,-0.375,-0.250,-1, -2, -2, -1, 0, -2, -1, -4,-0.477162246535172,0.8904762582511788
1503685384539,+0.237,+0.051,-0.430,-0.870,+0.787,+0.129,-0.579,-1.312,+0.625,+0.375,-1, 1, 2, 0, -1, -3, -1, -2,-0.477162246535172,0.8904762582511788
1503685384563,+0.237,+0.051,-0.430,-0.870,+0.796,+0.127,-0.571,-0.812,+0.188,+0.562,-3, -3, -3, -3, 1, -1, -1, -3,-0.477162246535172,0.8904762582511788
1503685384575,+0.237,+0.051,-0.430,-0.870,+0.796,+0.124,-0.582,-0.500,+0.000,+0.812,0, 0, 1, -1, -2, -1, 1, 1,-0.477162246535172,0.8904762582511788
1503685384598,+0.237,+0.051,-0.430,-0.870,+0.795,+0.126,-0.584,-0.438,+0.250,+1.125,-2, 0, -2, -3, -1, 0, -2, -1,-0.477162246535172,0.8904762582511788
1503685384619,+0.237,+0.051,-0.430,-0.870,+0.792,+0.123,-0.574,-0.312,+0.000,+1.312,1, -2, 0, 2, 1, -1, 2, 2,-0.477162246535172,0.8904762582511788
1503685384636,+0.237,+0.051,-0.430,-0.870,+0.783,+0.116,-0.581,-0.688,+0.625,+1.188,-1, -3, -2, -1, 1, 1, 0, 0,-0.477162246535172,0.8904762582511788
1503685384657,+0.237,+0.051,-0.430,-0.870,+0.793,+0.116,-0.572,-0.750,+0.750,+0.875,0, 0, 0, -1, -1, -2, -1, -2,-0.477162246535172,0.8904762582511788
1503685384679,+0.237,+0.051,-0.430,-0.870,+0.800,+0.118,-0.575,-0.812,+1.438,+0.688,-3, -8, -3, -2, -2, -2, 1, -1,-0.477162246535172,0.8904762582511788
1503685384697,+0.237,+0.051,-0.431,-0.870,+0.792,+0.118,-0.581,-1.062,+1.312,+0.438,1, -1, 0, 0, -2, -2, -2, -2,-0.47725344881889237,0.8929244990327921
1503685384718,+0.237,+0.052,-0.431,-0.869,+0.805,+0.121,-0.571,-1.375,+0.938,+0.438,1, 1, -1, 0, -1, -1, -1, 1,-0.4776956070889428,0.8928410756775826
1503685384740,+0.237,+0.052,-0.431,-0.869,+0.797,+0.120,-0.573,-1.312,+0.250,+0.750,-1, 2, -1, 0, 0, 2, -1, -2,-0.4776956070889428,0.8928410756775826
1503685384755,+0.237,+0.052,-0.431,-0.869,+0.796,+0.125,-0.577,-1.438,+0.062,+0.688,-1, 2, 0, -2, -1, 0, 1, -3,-0.4776956070889428,0.8928410756775826
1503685384777,+0.237,+0.052,-0.431,-0.869,+0.791,+0.122,-0.573,-1.438,+0.250,+0.562,1, 3, 0, 0, -2, -3, 0, -2,-0.4776956070889428,0.8928410756775826
1503685384800,+0.237,+0.052,-0.431,-0.869,+0.793,+0.122,-0.575,-1.500,+0.875,+0.688,-1, -1, 0, -1, 0, 0, -1, 0,-0.4776956070889428,0.8928410756775826
1503685384815,+0.237,+0.052,-0.431,-0.869,+0.804,+0.123,-0.574,-1.562,+0.688,+0.500,-3, -2, -1, -1, 0, 0, -3, -3,-0.4776956070889428,0.8928410756775826
1503685384838,+0.237,+0.052,-0.431,-0.869,+0.793,+0.118,-0.571,-1.000,+0.562,+0.562,-1, 1, 0, 1, -1, 1, 0, 3,-0.4776956070889428,0.8928410756775826
1503685384861,+0.237,+0.052,-0.431,-0.869,+0.801,+0.125,-0.574,-1.062,-0.312,+0.062,2, 1, 2, -1, 1, 0, 1, 3,-0.4776956070889428,0.8928410756775826
1503685384875,+0.237,+0.052,-0.431,-0.869,+0.798,+0.125,-0.576,-0.750,-0.438,-0.125,-2, 0, -1, 0, -1, 0, 0, -1,-0.4776956070889428,0.8928410756775826
1503685384899,+0.237,+0.052,-0.431,-0.869,+0.791,+0.122,-0.578,-0.938,-0.625,+0.312,0, 0, -2, 0, -1, -2, -2, -1,-0.4776956070889428,0.8928410756775826
1503685384920,+0.237,+0.052,-0.431,-0.869,+0.792,+0.123,-0.582,-1.312,-0.062,+0.750,-2, -3, -2, -3, 0, 0, -1, -2,-0.4776956070889428,0.8928410756775826
1503685384935,+0.237,+0.052,-0.431,-0.869,+0.792,+0.121,-0.575,-1.250,+0.500,+0.438,-1, -2, -2, 0, 0, 0, -4, -2,-0.4776956070889428,0.8928410756775826
1503685384957,+0.237,+0.052,-0.431,-0.869,+0.800,+0.120,-0.568,-1.312,+0.500,+0.562,-2, 2, 2, 2, -2, -3, -3, -6,-0.4776956070889428,0.8928410756775826
1503685384980,+0.237,+0.052,-0.431,-0.869,+0.799,+0.119,-0.572,-1.062,-0.500,+0.375,-1, -1, 1, 1, 0, 1, 1, 1,-0.4776956070889428,0.8928410756775826
1503685384995,+0.237,+0.052,-0.431,-0.869,+0.794,+0.125,-0.577,-0.875,-0.625,+0.312,0, -2, -1, 0, 1, 0, -1, -2,-0.4776956070889428,0.8928410756775826
