Timestamp,Orientation X,Orientation Y,Orientation Z,Orientation W,Accelerometer X,Accelerometer Y,Accelerometer Z,Gyroscope X,Gyroscope Y,Gyroscope Z,EMG1,EMG2,EMG3,EMG4,EMG5,EMG6,EMG7,EMG8,Roll,Yaw
1503701150713,+0.642,+0.525,-0.295,-0.475,+1.012,-0.138,-0.204,-1.125,-5.062,-32.000,-15, 0, 0, -1, 5, 0, -3, 2,-1.9585164638296275,1.2905325908392682
1503701150736,+0.644,+0.524,-0.298,-0.472,+1.004,-0.106,-0.223,-1.875,+1.250,-27.750,8, 2, 0, -6, -7, -6, -7, -14,-1.9611261279176753,1.2924646238033475
1503701150756,+0.645,+0.523,-0.301,-0.469,+0.995,-0.085,-0.211,-4.188,+7.375,-19.312,-8, -6, 3, 1, 3, 1, -5, -19,-1.9617228664958848,1.2941309005313457
1503701150773,+0.645,+0.524,-0.303,-0.467,+1.005,-0.085,-0.222,-4.625,+12.250,-13.688,20, 14, 0, -3, -1, -2, -3, -3,-1.9636218539689152,1.2990251707941964
1503701150795,+0.644,+0.525,-0.306,-0.465,+1.021,-0.063,-0.191,-4.438,+13.938,-10.312,1, 13, -6, -2, 2, -1, -4, 12,-1.9630820157999729,1.3050799943636169
1503701150816,+0.643,+0.525,-0.309,-0.464,+1.062,-0.071,-0.191,-6.688,+10.938,-5.625,21, -10, -7, -3, -6, 0, -4, 13,-1.9603347976908911,1.3089512193105806
1503701150833,+0.642,+0.526,-0.311,-0.463,+1.027,-0.066,-0.183,-7.500,+9.500,-5.688,-18, -11, -2, -3, -1, -3, -7, -9,-1.959705691995147,1.3137759322948723
1503701150855,+0.641,+0.525,-0.312,-0.464,+1.012,-0.091,-0.160,-10.750,-1.688,-1.125,-15, -5, -4, -3, -5, 2, 1, -1,-1.955065845256315,1.3127441658884407
1503701150877,+0.642,+0.523,-0.311,-0.466,+1.036,-0.119,-0.187,-8.938,-20.562,+6.812,4, 0, -4, -2, -2, -1, 1, 4,-1.9530990012629414,1.3071559258207377
1503701150893,+0.643,+0.521,-0.311,-0.467,+0.903,-0.024,-0.214,-8.312,-12.562,-4.688,-26, -17, -3, -2, 6, -1, -3, -4,-1.9512378109806816,1.302871552469293
1503701150915,+0.644,+0.519,-0.311,-0.468,+0.961,-0.089,-0.243,-6.375,-8.062,+1.250,21, 20, 2, -3, 0, 12, 7, -9,-1.9493949432257693,1.2986024997119545
1503701150938,+0.644,+0.518,-0.311,-0.469,+0.958,-0.056,-0.265,-4.062,-5.312,+1.625,-10, -41, -4, -2, -4, -3, -16, 3,-1.9472129210202753,1.2964174246733267
1503701150953,+0.644,+0.518,-0.311,-0.469,+0.934,-0.097,-0.206,-2.625,-0.438,-0.375,3, 2, 0, -1, 2, 5, 6, 14,-1.9472129210202753,1.2964174246733267
1503701150975,+0.644,+0.518,-0.311,-0.470,+1.006,-0.101,-0.227,-4.688,-2.125,+2.312,10, 1, 1, 2, -3, -5, -3, -1,-1.946738134359753,1.296586502228662
1503701150997,+0.644,+0.518,-0.311,-0.470,+1.006,-0.066,-0.238,-3.938,+3.438,+0.062,7, 3, 1, 1, -4, 1, 4, 9,-1.946738134359753,1.296586502228662
1503701151012,+0.644,+0.518,-0.312,-0.469,+0.990,-0.056,-0.234,-1.938,+1.562,-0.375,-5, 6, 10, 9, -3, -1, 2, -1,-1.9468309376199042,1.2978757340381677
1503701151035,+0.643,+0.518,-0.312,-0.469,+0.964,-0.077,-0.188,-0.188,-1.625,+1.688,-3, -1, -5, -5, -2, -6, -5, -3,-1.944771259285966,1.29759528885046
1503701151057,+0.644,+0.518,-0.311,-0.470,+0.992,-0.086,-0.228,+1.625,-2.250,+3.250,6, -13, -4, -3, -3, -4, 1, 5,-1.946738134359753,1.296586502228662
1503701151073,+0.644,+0.518,-0.310,-0.469,+0.953,-0.066,-0.253,+2.750,-3.562,-0.562,-1, 0, -8, -6, 0, -3, -5, 9,-1.9475956441491957,1.2949613250284686
1503701151095,+0.645,+0.518,-0.309,-0.469,+0.911,-0.065,-0.276,+7.688,+4.688,+1.188,1, 4, -3, 1, 0, -1, 1, -9,-1.9500388752705733,1.293792174272502
1503701151117,+0.645,+0.520,-0.309,-0.468,+0.922,-0.072,-0.253,+9.875,+8.500,+1.750,-2, 4, -6, -3, -5, -4, -8, -23,-1.9539259966553204,1.2983370422267755
1503701151133,+0.644,+0.522,-0.308,-0.466,+0.988,-0.108,-0.218,+10.312,+11.375,+0.938,-1, -3, -7, -4, -2, 0, 5, -2,-1.9566557160431437,1.3010050196047944
1503701151155,+0.644,+0.524,-0.308,-0.465,+1.032,-0.107,-0.203,+6.938,+9.438,-2.125,10, -2, 2, 6, 4, 5, -2, -3,-1.9605670958356514,1.3055775366778997
1503701151177,+0.643,+0.526,-0.307,-0.464,+1.050,-0.106,-0.201,+5.188,+5.438,+4.750,-9, 2, 3, -4, 7, -1, 2, 21,-1.962855809679006,1.3084517034745384
1503701151193,+0.643,+0.526,-0.307,-0.464,+1.011,-0.085,-0.172,+4.625,-4.125,+2.250,19, 13, 1, 1, -1, 0, 12, 9,-1.962855809679006,1.3084517034745384
1503701151215,+0.644,+0.525,-0.306,-0.464,+0.966,-0.064,-0.197,+2.438,-11.438,+0.188,27, 4, 4, 7, 7, -1, -3, -23,-1.9635770544817994,1.3049184971285386
1503701151238,+0.645,+0.526,-0.305,-0.464,+0.912,-0.092,-0.230,+5.250,+1.125,+0.000,1, -3, -8, -4, -2, -8, -14, -7,-1.9677266325094163,1.3061431601440017
1503701151253,+0.645,+0.526,-0.304,-0.463,+0.912,-0.099,-0.220,+3.875,-0.062,-0.188,15, 11, 1, 3, 21, 3, 3, 6,-1.9686367847593491,1.304558027065349
1503701151275,+0.645,+0.527,-0.304,-0.463,+0.992,-0.120,-0.206,+1.250,+2.688,+0.688,-25, 2, 1, 2, 4, -4, 4, -11,-1.9703493476225447,1.3069392413063903
1503701151298,+0.645,+0.527,-0.304,-0.462,+1.002,-0.103,-0.199,+0.188,-0.562,-4.688,3, -4, -3, -6, -13, -5, -14, -16,-1.970853708482568,1.306779908066409
1503701151313,+0.647,+0.526,-0.304,-0.461,+0.981,-0.100,-0.213,+1.812,-6.875,-11.250,0, -3, -1, 1, 0, 2, 1, 8,-1.973706070609907,1.3047926110749382
1503701151335,+0.649,+0.523,-0.304,-0.461,+1.054,-0.095,-0.206,-3.438,-21.750,-12.125,-3, -5, 0, -6, -14, 0, -13, 12,-1.9726726587713355,1.2982225051674436
1503701151357,+0.652,+0.520,-0.304,-0.460,+0.966,-0.054,-0.219,+1.500,-20.562,-14.125,-15, -11, -1, -5, -11, 0, 12, 14,-1.9742452709207972,1.2917995824258988
1503701151374,+0.654,+0.519,-0.303,-0.460,+0.954,-0.099,-0.208,-1.750,-13.375,-4.312,-9, -14, -7, -1, 1, -2, -5, -18,-1.977069924829025,1.2885846407467325
1503701151395,+0.654,+0.518,-0.303,-0.460,+0.979,-0.051,-0.229,-0.688,-2.938,-4.125,2, 5, -5, -1, 1, -1, -1, -2,-1.9753975532251788,1.2862198635586153
1503701151417,+0.655,+0.518,-0.303,-0.460,+0.997,-0.043,-0.239,-0.312,-3.625,+1.562,1, -2, -7, -6, -7, -4, -4, -3,-1.9774463501344381,1.2865114879491115
1503701151433,+0.655,+0.518,-0.302,-0.460,+1.002,-0.062,-0.223,+4.188,-3.000,+2.750,14, 5, 10, 6, 18, 2, 0, 8,-1.9778573847864265,1.2850875055333104
1503701151455,+0.655,+0.518,-0.301,-0.460,+0.986,-0.077,-0.234,+4.438,-6.125,+5.000,-19, 2, 6, -1, -6, -2, 2, -7,-1.9782692046665558,1.2836658252134523
1503701151477,+0.656,+0.518,-0.299,-0.461,+0.973,-0.082,-0.243,+2.938,-10.438,+5.125,-16, -9, -8, -2, -1, 1, -4, 6,-1.9806197756284392,1.2812980964517162
1503701151493,+0.657,+0.517,-0.298,-0.461,+0.969,-0.062,-0.246,+5.062,-7.438,+4.250,26, 15, 7, 3, 3, -15, 0, 15,-1.9814152239079328,1.2778153680062407
1503701153434,+0.703,+0.513,-0.240,-0.430,+0.936,-0.090,-0.332,-7.312,-13.500,-6.562,-16, -6, -1, -4, -19, -12, -3, -8,-2.114892707167211,1.2020620115332343
1503701153456,+0.704,+0.511,-0.240,-0.430,+0.919,-0.093,-0.306,-5.312,-6.875,-6.625,3, -5, -1, -6, 0, 0, -2, 12,-2.113840940511977,1.1975707234981885
1503701153479,+0.705,+0.510,-0.240,-0.430,+0.928,-0.104,-0.322,-5.125,-7.812,-5.750,13, -15, -10, -6, -9, -12, -2, 7,-2.1143115788281017,1.1955170008509013
1503701153494,+0.706,+0.508,-0.241,-0.430,+0.925,-0.084,-0.325,-5.562,-7.312,-8.562,19, 1, -5, 0, -1, 0, -1, -1,-2.1127595189768136,1.1922611314824352
1503701153516,+0.707,+0.507,-0.242,-0.429,+0.945,-0.101,-0.322,-5.562,-7.625,-9.625,-2, 11, 1, -2, -2, -3, -1, 10,-2.113456333210866,1.1912596860571756
1503701153539,+0.709,+0.505,-0.243,-0.429,+0.958,-0.104,-0.322,-6.250,-8.875,-12.000,-1, 4, 0, 0, 0, -6, -1, 1,-2.1139336210396134,1.1884094400541643
1503701153556,+0.710,+0.503,-0.244,-0.428,+0.965,-0.064,-0.302,-8.500,-7.688,-10.250,-2, 8, -2, -3, 0, 11, 3, -12,-2.1131814716738835,1.1850151283239205
1503701153576,+0.711,+0.501,-0.245,-0.428,+0.955,-0.079,-0.320,-7.938,-11.312,-9.625,6, -1, 0, 1, 9, -5, -3, -16,-2.1117153397322483,1.1818199943722005
1503701153599,+0.712,+0.499,-0.246,-0.428,+0.952,-0.062,-0.347,-6.188,-9.875,-10.688,-15, 1, 3, 1, -2, 0, -2, 0,-2.11027099749345,1.178641894579803
1503701153614,+0.714,+0.497,-0.247,-0.427,+0.920,-0.054,-0.362,-6.312,-9.062,-7.062,2, -4, -3, -4, -1, -3, -3, -7,-2.1115988291783627,1.1756737674066253
1503701153636,+0.714,+0.496,-0.247,-0.427,+0.929,-0.059,-0.358,-5.312,-4.125,-5.312,0, -9, -1, 0, -3, -9, -13, 2,-2.110145033165717,1.17328386020694
1503701153659,+0.715,+0.495,-0.248,-0.427,+0.941,-0.041,-0.338,-3.312,-1.312,-4.875,16, 4, -1, -2, 0, -4, -3, -16,-2.110203478125031,1.1725285394796792
1503701153674,+0.716,+0.495,-0.248,-0.426,+0.930,-0.074,-0.345,-0.375,-2.625,-5.188,28, 7, -1, 0, -5, -1, 1, 3,-2.1129593466762473,1.17272047194382
1503701153696,+0.716,+0.494,-0.249,-0.426,+0.903,-0.041,-0.357,-2.312,-0.938,-1.250,-12, -1, 2, -2, 28, 21, 6, 12,-2.1110075929556196,1.1715863468868237
1503701153719,+0.716,+0.494,-0.249,-0.426,+0.926,-0.047,-0.356,+0.438,+0.688,-2.500,-13, 0, 3, 3, 1, 4, 7, 24,-2.1110075929556196,1.1715863468868237
1503701153735,+0.717,+0.494,-0.249,-0.425,+0.947,-0.064,-0.348,+2.000,-0.562,-4.188,2, -8, -5, -1, -10, -9, -4, -5,-2.11376711691654,1.1717770943491876
1503701153758,+0.717,+0.494,-0.249,-0.424,+0.923,-0.064,-0.346,+1.625,+2.688,-1.750,-16, -1, -1, -3, -10, -3, 2, -1,-2.1145095704926513,1.171583231210731
1503701153779,+0.717,+0.494,-0.249,-0.424,+0.939,-0.065,-0.336,-0.438,+0.938,-5.375,-4, -4, -1, -4, -11, -7, -1, -7,-2.1145095704926513,1.171583231210731
1503701153795,+0.718,+0.494,-0.250,-0.422,+0.979,-0.046,-0.333,-1.812,-1.250,-8.812,6, 10, 1, -2, -9, -10, -4, 4,-2.1175060201449645,1.172829687106597
1503701153816,+0.719,+0.493,-0.250,-0.422,+0.940,-0.032,-0.348,-0.562,-4.500,-5.875,20, 16, 0, -3, -1, 0, 0, 9,-2.1180964099152213,1.1708330829632285
1503701153839,+0.718,+0.494,-0.250,-0.421,+0.946,-0.064,-0.327,-0.875,+1.812,-1.938,1, -11, 6, 8, 8, 7, 9, 10,-2.1182545783284197,1.1726355162869817
1503701153855,+0.719,+0.493,-0.251,-0.421,+0.968,-0.049,-0.326,-2.188,-1.812,-2.938,5, -9, -4, 0, -5, 0, -4, 0,-2.1183318786924747,1.1718905593187534
1503701153876,+0.719,+0.493,-0.251,-0.421,+0.954,-0.017,-0.340,-2.625,-2.750,-1.125,7, 22, 0, 3, 1, -1, 7, -9,-2.1183318786924747,1.1718905593187534
1503701153900,+0.719,+0.493,-0.251,-0.421,+0.941,-0.043,-0.327,-1.938,-2.062,+2.875,-14, -17, -3, -1, -1, 3, 2, -14,-2.1183318786924747,1.1718905593187534
1503701153915,+0.719,+0.492,-0.251,-0.422,+0.952,-0.071,-0.325,-3.750,-4.750,+3.312,-19, 2, -3, -3, -11, -9, -4, -12,-2.116159761369044,1.169708603428003
1503701153936,+0.719,+0.491,-0.251,-0.423,+0.941,-0.062,-0.344,-4.688,-7.938,+1.062,-2, 1, 0, -2, 4, -1, -2, -1,-2.113990109062087,1.1675299275410331
1503701153961,+0.719,+0.490,-0.250,-0.423,+0.923,-0.064,-0.331,-5.375,-7.875,-0.562,7, -18, -4, -5, 1, -13, -10, 7,-2.1130730275987286,1.1638985515509126
1503701153974,+0.720,+0.489,-0.250,-0.424,+0.934,-0.067,-0.344,-5.250,-12.375,-2.938,-9, -3, -8, -2, -4, 3, -3, 0,-2.1129390669231447,1.1621133570075763
1503701153997,+0.722,+0.486,-0.250,-0.425,+0.944,-0.042,-0.359,-4.688,-15.875,-1.688,-3, 1, -1, 1, 6, 7, -2, -4,-2.1120222259243797,1.155993473960768
1503701154019,+0.723,+0.484,-0.250,-0.424,+0.947,-0.006,-0.337,-4.188,-11.125,-5.562,5, 0, -3, 2, 6, 3, -1, -8,-2.111995896456867,1.151459793614517
1503701154035,+0.724,+0.484,-0.250,-0.424,+0.954,-0.064,-0.360,-1.375,-7.312,-4.375,9, 0, 9, 7, 6, 1, -2, 6,-2.114039662785588,1.151854216201217
1503701154056,+0.725,+0.482,-0.249,-0.425,+0.929,-0.027,-0.382,-3.938,-14.375,+3.938,-1, -1, -1, -6, -15, -5, -1, -11,-2.113039769772813,1.1464798096083417
1503701154079,+0.726,+0.479,-0.249,-0.426,+0.921,-0.041,-0.402,-6.000,-11.875,-1.000,-2, 2, 5, -1, -4, -1, 0, 11,-2.1101664799621003,1.1400266166780628
1503701154095,+0.726,+0.478,-0.249,-0.427,+0.872,-0.026,-0.423,-4.625,-3.375,-0.875,5, 7, -2, -3, -4, -4, -2, 0,-2.108031553193012,1.1378866390635218
1503701156879,+0.715,+0.522,-0.245,-0.396,+0.962,-0.080,-0.286,-6.938,-5.188,-12.625,-8, -6, 4, 1, 12, 12, 5, -6,-2.1749413052903512,1.2286315747712484
1503701156900,+0.716,+0.521,-0.247,-0.395,+1.002,-0.039,-0.286,-8.562,-6.312,-13.062,-2, -8, -8, -8, -8, -2, 2, 10,-2.1750380066425423,1.2287560702308669
1503701156922,+0.717,+0.519,-0.248,-0.394,+0.940,-0.040,-0.312,-5.188,-3.625,-11.188,-8, 1, 1, 5, 30, 6, 2, 6,-2.174309785536523,1.2252512978449563
1503701156937,+0.718,+0.517,-0.249,-0.393,+0.937,-0.011,-0.331,-5.125,-7.688,-8.938,8, -6, -2, -3, -7, -12, -8, -8,-2.173603111567232,1.2217586580568398
1503701156960,+0.720,+0.515,-0.249,-0.392,+0.922,-0.012,-0.324,+0.812,-10.812,-11.312,-26, -8, 3, -2, -6, 6, 6, 7,-2.1754346424075015,1.2174250966422697
1503701156982,+0.721,+0.515,-0.249,-0.391,+0.910,-0.035,-0.311,+1.062,+0.250,-6.438,4, 12, -6, -2, -10, -2, -1, 11,-2.1781825856250516,1.217609384098883
1503701156997,+0.719,+0.516,-0.250,-0.391,+0.964,-0.066,-0.267,-4.562,+11.625,+2.375,4, -11, -7, -1, -3, -4, -3, -10,-2.1751558065215697,1.2205414004274837
1503701157021,+0.719,+0.517,-0.251,-0.391,+1.002,-0.022,-0.290,-3.625,+5.500,-2.250,-14, -18, -8, -4, -4, -3, -1, 0,-2.175984783284157,1.2241880111397239
1503701157042,+0.719,+0.517,-0.251,-0.390,+0.976,-0.008,-0.273,+3.000,+0.625,-4.312,6, -1, -1, -2, 0, 2, -1, 2,-2.176804456099304,1.2240172505396605
1503701157057,+0.719,+0.518,-0.251,-0.389,+0.960,-0.057,-0.269,+3.188,-1.125,-1.938,-15, -6, 6, 3, 0, -2, -2, -5,-2.1790423505502274,1.2262847470094609
1503701157083,+0.719,+0.518,-0.251,-0.389,+1.008,-0.023,-0.307,-3.188,+1.062,+2.438,7, 3, 6, 6, 25, 17, 0, 4,-2.1790423505502274,1.2262847470094609
1503701157102,+0.719,+0.518,-0.251,-0.389,+0.972,-0.002,-0.295,+0.000,+3.000,+3.312,7, -6, -2, -4, -12, -6, -2, -7,-2.1790423505502274,1.2262847470094609
1503701157118,+0.719,+0.519,-0.250,-0.389,+0.969,-0.030,-0.297,+4.750,-1.375,+5.625,-7, 5, -4, -2, -5, -2, 6, 11,-2.1810521882584806,1.2275177559365331
1503701157140,+0.719,+0.519,-0.249,-0.389,+0.966,-0.026,-0.307,+6.125,+3.000,+6.438,12, 10, 0, -2, -7, -8, -1, 13,-2.1816479994411626,1.2263145840909921
1503701157161,+0.718,+0.521,-0.248,-0.390,+0.923,-0.033,-0.292,+5.750,+7.375,+10.125,17, 5, -5, -2, 0, 8, -1, -4,-2.1823506750311,1.2298218157569356
1503701157176,+0.717,+0.523,-0.246,-0.390,+0.961,-0.037,-0.321,+7.750,+6.625,+10.250,2, 2, 2, -3, -7, -4, -4, -16,-2.1845018404723624,1.2319870731262303
1503701157199,+0.717,+0.524,-0.245,-0.389,+0.922,-0.040,-0.307,+11.688,+5.875,+6.875,7, -10, -8, -2, -9, -1, 4, -4,-2.187364270087549,1.233092112286609
1503701157222,+0.717,+0.526,-0.242,-0.389,+0.894,-0.101,-0.294,+11.812,+5.375,+4.000,23, 4, 5, -2, -2, -4, -5, 2,-2.1920534312449718,1.2344769311982795
1503701157236,+0.716,+0.527,-0.241,-0.388,+0.919,-0.106,-0.288,+8.062,+5.688,+1.000,-20, -14, 1, 2, 2, -2, -2, 2,-2.193057182955641,1.2352647826410912
1503701157259,+0.716,+0.528,-0.241,-0.387,+0.965,-0.084,-0.241,+2.938,+5.250,-5.500,-15, -1, 2, -2, -1, -26, -11, -20,-2.1953325869985094,1.2375757095782802
1503701157282,+0.716,+0.528,-0.242,-0.386,+1.019,-0.090,-0.240,-1.562,-4.562,-4.438,0, -3, 0, 7, -6, 3, 3, -1,-2.195553204100574,1.238585998339336
1503701157296,+0.718,+0.526,-0.242,-0.385,+0.962,-0.058,-0.265,-2.562,-12.875,-15.500,-4, -2, -5, -1, 9, 1, -3, 4,-2.197294777984703,1.2341845154458682
1503701157319,+0.720,+0.524,-0.243,-0.384,+0.938,-0.062,-0.279,-4.562,-7.062,-15.125,1, -4, -3, -2, 5, 1, -4, -6,-2.198449039095015,1.2309677230946285
1503701157341,+0.721,+0.523,-0.245,-0.383,+0.972,-0.060,-0.263,-6.938,-9.875,-14.938,-9, 18, 0, -5, -7, 1, 3, 19,-2.1985396284587533,1.2310512609713813
1503701157356,+0.723,+0.520,-0.246,-0.383,+0.985,-0.042,-0.268,-10.250,-14.562,-13.625,-6, -9, -3, 7, 2, 3, -1, -9,-2.19750190070758,1.2255798491035312
1503701157379,+0.724,+0.517,-0.248,-0.383,+1.011,-0.021,-0.290,-12.875,-13.750,-10.125,4, 12, 3, 0, -3, 3, 2, 5,-2.194005616103353,1.2209805214348572
1503701157401,+0.726,+0.514,-0.249,-0.383,+0.977,+0.017,-0.311,-9.812,-14.062,-9.188,4, 1, 9, 6, 11, 1, 3, 5,-2.1930659706933215,1.215578385977646
1503701157416,+0.727,+0.512,-0.250,-0.383,+0.943,-0.002,-0.311,-7.062,-13.250,-4.188,-22, -17, -5, -6, -3, -4, 3, -3,-2.1916288132895487,1.2122771870141649
1503701157439,+0.728,+0.510,-0.250,-0.384,+0.958,-0.017,-0.310,-8.312,-10.750,+0.312,11, -8, 4, -2, -1, -1, -2, -9,-2.18995924699642,1.2079605240383324
1503701157461,+0.728,+0.508,-0.250,-0.385,+0.956,-0.011,-0.312,-7.938,-10.312,+0.438,1, 3, 1, -6, -17, 3, -9, -22,-2.18637023163654,1.2032921374554124
1503701157476,+0.729,+0.507,-0.251,-0.386,+0.957,-0.024,-0.303,-8.375,-10.250,+1.375,0, 2, 7, 16, 43, 12, 4, -3,-2.1855090435971762,1.2026309806783686
1503701157499,+0.729,+0.505,-0.251,-0.388,+0.964,-0.022,-0.308,-10.188,-9.812,+3.125,3, 11, -5, -6, -8, 0, 2, -4,-2.181097957637822,1.1981646188396289
1503701157521,+0.729,+0.504,-0.251,-0.389,+0.958,-0.015,-0.301,-10.625,-12.188,+3.938,7, 15, 4, 1, -1, -3, 1, 8,-2.1788948384248727,1.1959359838129195
1503701157536,+0.729,+0.502,-0.251,-0.392,+0.947,-0.028,-0.305,-12.688,-14.125,+7.250,-19, -11, -7, 7, 17, 6, 8, 6,-2.1736657741260372,1.1916738120251484
1503701157559,+0.729,+0.499,-0.251,-0.395,+0.937,-0.038,-0.312,-14.500,-15.750,+8.562,-14, -5, -4, -7, -14, -11, -2, 4,-2.1670842354158264,1.185027927971664
1503701157585,+0.730,+0.497,-0.251,-0.397,+0.909,-0.034,-0.313,-15.062,-16.875,+4.562,-24, -15, -6, -12, -15, -2, 1, -9,-2.1646835670073066,1.1809909845477526
1503701157596,+0.730,+0.494,-0.252,-0.399,+0.889,-0.024,-0.345,-17.625,-9.750,+3.125,3, 17, -8, -8, -8, -8, -5, 7,-2.1584058472922645,1.175438732249027
1503701157619,+0.730,+0.492,-0.254,-0.401,+0.942,-0.023,-0.350,-18.562,-7.000,+0.938,-5, -20, -6, -5, -5, -2, 0, 18,-2.152973221522279,1.1735480122450797
1503701157641,+0.730,+0.489,-0.255,-0.403,+0.985,+0.021,-0.369,-17.562,-14.688,+1.875,3, -12, -2, -2, -4, -1, -9, -7,-2.146744737648369,1.1680662905301444
1503701157656,+0.731,+0.487,-0.255,-0.404,+0.949,+0.033,-0.368,-7.312,-10.375,-2.562,-5, 2, -1, 9, 10, 2, 4, 11,-2.1452406047495525,1.163910342124956
1503701157679,+0.733,+0.484,-0.254,-0.405,+0.927,+0.006,-0.395,-1.250,-17.250,+1.250,11, 6, 5, -3, -1, 1, 1, 2,-2.1449484446779796,1.1565356703544154
1503701157701,+0.734,+0.483,-0.253,-0.405,+0.922,-0.006,-0.381,+1.875,-12.000,+0.812,0, 3, 8, 2, 3, -1, 0, 4,-2.146148821279854,1.1533092488714511
1503701159021,+0.610,+0.587,-0.173,-0.503,+0.913,-0.378,-0.206,-1.438,+3.812,-15.375,-9, 6, 1, 2, 5, 0, -4, -19,-2.0585888956512526,1.2959612492034782
1503701159044,+0.611,+0.587,-0.175,-0.502,+0.922,-0.378,-0.190,-2.938,+4.875,-13.938,-3, -2, -3, -2, -4, -3, 2, 28,-2.059837209376503,1.2982361828179116
1503701159061,+0.612,+0.586,-0.176,-0.501,+0.948,-0.375,-0.192,-3.062,+1.062,-12.562,17, 12, 25, 5, -2, 1, -3, 1,-2.0596276341626707,1.2967050982106716
1503701159082,+0.613,+0.586,-0.178,-0.499,+0.917,-0.366,-0.211,-2.125,-1.938,-12.375,-2, -4, -10, -2, -5, 2, -4, 4,-2.061501795674666,1.29888737615167
1503701159097,+0.614,+0.585,-0.179,-0.499,+0.902,-0.371,-0.208,-3.375,-1.812,-11.812,-10, 1, 6, 12, 16, 1, 3, -8,-2.060691407798125,1.2974756227967783
1503701159119,+0.615,+0.585,-0.180,-0.498,+0.905,-0.357,-0.185,-3.562,-1.500,-11.375,-1, -4, -3, -5, -8, -3, -6, -15,-2.0625414465112586,1.2987394933125551
1503701159141,+0.617,+0.584,-0.182,-0.496,+0.906,-0.352,-0.174,-1.812,-3.625,-18.625,-6, -3, -2, -2, 3, 1, -1, 6,-2.064223400745445,1.2985039241157403
1503701159164,+0.619,+0.583,-0.184,-0.494,+0.886,-0.375,-0.210,-2.188,-4.750,-24.562,-5, -3, -5, -6, -5, 0, 1, -8,-2.065927116059685,1.2982832670802467
1503701159178,+0.621,+0.582,-0.186,-0.492,+0.877,-0.390,-0.242,-5.750,+3.500,-23.250,5, -3, -3, -1, -3, -1, -1, 6,-2.0676524698253576,1.2980773835793895
1503701159201,+0.621,+0.581,-0.189,-0.491,+0.908,-0.349,-0.207,-11.688,+5.562,-20.875,-1, -7, 1, 0, -3, 0, -1, -5,-2.064534352899409,1.298380572406449
1503701159224,+0.622,+0.580,-0.194,-0.490,+0.993,-0.337,-0.170,-16.188,+4.625,-19.562,-2, 7, 14, 4, 0, 1, 0, 1,-2.0621034294783738,1.3011792502629662
1503701159239,+0.622,+0.579,-0.197,-0.489,+0.974,-0.311,-0.158,-15.750,+1.562,-16.562,-2, -14, -12, -5, -3, -2, -4, -5,-2.059027883782753,1.3015739385524538
1503701159269,+0.624,+0.576,-0.201,-0.488,+0.920,-0.312,-0.171,-17.562,-7.812,-20.938,3, -2, -7, -4, -3, -1, 0, 4,-2.0551769722411444,1.2983559565342193
1503701159283,+0.625,+0.573,-0.204,-0.489,+0.930,-0.319,-0.193,-22.625,-5.562,-20.000,-9, -6, -4, -3, -1, 0, 0, -3,-2.0489083156810817,1.2940483462514456
1503701159299,+0.624,+0.572,-0.209,-0.490,+0.972,-0.307,-0.186,-26.875,+4.938,-9.938,-2, 2, 0, -2, -1, 1, 3, 7,-2.041764059623648,1.296737443648734
1503701159321,+0.623,+0.570,-0.214,-0.491,+1.010,-0.280,-0.155,-32.625,+7.500,-7.250,9, 2, -4, -2, -1, -1, -1, 0,-2.032745731538266,1.296876081016282
1503701159344,+0.623,+0.567,-0.219,-0.493,+1.010,-0.264,-0.180,-36.750,-4.562,-7.500,-4, -9, -8, 0, -1, -2, -2, -2,-2.023182029005571,1.2949514164152125
1503701159359,+0.623,+0.562,-0.222,-0.496,+0.940,-0.268,-0.207,-37.312,-16.750,-8.375,-4, 1, -6, -2, -1, 0, 0, 6,-2.010346323907469,1.2857293046613867
1503701159381,+0.624,+0.556,-0.226,-0.500,+0.906,-0.284,-0.213,-40.062,-16.688,-11.688,-1, -6, -3, -3, -3, -2, -1, 6,-1.9966233759219825,1.2757434719402696
1503701159405,+0.625,+0.551,-0.230,-0.502,+0.900,-0.260,-0.224,-39.875,-12.188,-11.875,-2, -2, -1, 1, 2, 1, -1, -3,-1.986091885175663,1.2683066357740564
1503701159419,+0.626,+0.547,-0.234,-0.505,+0.906,-0.249,-0.238,-39.062,-8.688,-14.688,-2, -1, 1, 0, 0, -3, -1, 0,-1.9771033175409405,1.2637631532820224
1503701159443,+0.626,+0.542,-0.240,-0.507,+0.922,-0.258,-0.242,-40.938,-4.688,-15.625,3, -3, -3, -1, 0, -1, -1, 3,-1.964058328687651,1.2588812296677843
1503701159466,+0.625,+0.538,-0.245,-0.509,+0.931,-0.247,-0.275,-40.062,-0.750,-15.500,-7, -1, -3, -4, -3, -3, -2, -2,-1.9514847092826486,1.2551510991871684
1503701159479,+0.626,+0.533,-0.250,-0.511,+0.936,-0.232,-0.298,-39.312,-4.375,-19.375,-5, -1, -6, -1, 1, -1, 0, 1,-1.9411995563233504,1.2498099327947658
1503701159508,+0.628,+0.528,-0.255,-0.512,+0.927,-0.207,-0.281,-36.625,-11.125,-22.188,18, 1, 2, 1, 10, 3, 2, 17,-1.933600641527025,1.244878219613634
1503701159524,+0.630,+0.523,-0.259,-0.513,+0.916,-0.206,-0.268,-31.500,-13.875,-23.375,-9, -5, -3, 1, -7, -3, 1, 3,-1.926574753702286,1.2388208466369084
1503701159540,+0.631,+0.518,-0.264,-0.513,+0.918,-0.227,-0.292,-30.125,-6.125,-25.500,11, 9, 7, 5, 2, 0, -3, -36,-1.917737791218772,1.2337775655199739
1503701159561,+0.633,+0.514,-0.269,-0.514,+0.903,-0.187,-0.331,-31.938,-2.250,-27.062,5, -9, -5, -4, -1, 1, -1, 0,-1.9124874298949135,1.231868965992548
1503701159584,+0.634,+0.510,-0.274,-0.513,+0.901,-0.132,-0.293,-29.125,-0.500,-27.375,-12, -3, -4, -3, -6, -5, -5, -3,-1.9061529604569087,1.2294084570950716
1503701159600,+0.635,+0.507,-0.279,-0.512,+0.967,-0.146,-0.280,-23.125,+2.562,-25.000,11, -16, -13, -5, -1, -1, 6, 39,-1.901680642531508,1.22946686036645
1503701159621,+0.636,+0.504,-0.284,-0.511,+1.017,-0.180,-0.270,-22.375,+0.062,-24.062,-9, -3, 8, 3, -3, -1, -3, 4,-1.8972841687435409,1.229643880918326
1503701159644,+0.637,+0.501,-0.288,-0.511,+0.992,-0.148,-0.294,-24.875,-3.500,-20.000,-3, -4, -1, 4, 4, 2, -9, -36,-1.8928757119786817,1.2286903665051223
1503701159659,+0.637,+0.498,-0.292,-0.511,+0.956,-0.123,-0.293,-23.875,-4.250,-15.938,2, 18, 6, 1, -1, -2, -3, -17,-1.8864162573850711,1.2274929108069286
1503701159681,+0.637,+0.495,-0.295,-0.512,+0.978,-0.141,-0.285,-23.938,-3.812,-12.562,3, 14, 6, -1, 0, -1, -1, 2,-1.8799226636151445,1.2251226786494744
1503701159703,+0.638,+0.490,-0.297,-0.514,+1.001,-0.117,-0.291,-29.500,-20.500,-10.625,1, 0, -1, 3, 4, 1, 0, 9,-1.8721163035665227,1.2172898128854557
1503701159719,+0.640,+0.484,-0.299,-0.516,+0.976,-0.097,-0.285,-28.000,-25.750,-12.562,-1, -6, 1, -7, -6, -1, 2, 9,-1.8648957828952055,1.207637491316893
1503701159741,+0.642,+0.478,-0.301,-0.518,+0.945,-0.094,-0.323,-26.500,-25.625,-9.562,-9, -1, -2, 0, 1, 1, 3, 15,-1.8578526964804851,1.198142766807819
1503701159766,+0.643,+0.474,-0.303,-0.520,+0.940,-0.064,-0.321,-25.688,-19.375,-8.125,3, -1, -5, -4, -2, -1, -2, -4,-1.852108297636312,1.1929438031026385
1503701159779,+0.644,+0.470,-0.304,-0.522,+0.949,-0.072,-0.343,-21.750,-15.000,-3.312,-4, -4, -4, -3, -5, -2, -1, 4,-1.8467111807085335,1.1863037130135647
1503701159801,+0.644,+0.467,-0.305,-0.524,+0.969,-0.070,-0.350,-18.812,-10.875,+0.250,-3, -1, 0, 2, 12, 2, 1, 3,-1.8408181237295553,1.1816003617468995
1503701159824,+0.644,+0.465,-0.306,-0.525,+0.961,-0.052,-0.355,-13.438,-5.938,+0.125,-6, -4, -5, -2, -4, -1, -3, -7,-1.8369428656860896,1.1789226827850947
1503701159839,+0.645,+0.463,-0.306,-0.526,+0.956,-0.046,-0.372,-6.812,-9.188,+1.500,4, 6, 6, 5, 2, -2, -1, -7,-1.835550562185974,1.1750808925983807
1503701159861,+0.645,+0.462,-0.306,-0.526,+0.937,-0.050,-0.383,+1.938,-2.812,+0.438,-3, -7, -1, 0, 10, 3, 2, 0,-1.833917895986957,1.172867060624141
1503701159884,+0.646,+0.463,-0.305,-0.525,+0.919,-0.061,-0.380,+8.125,+1.250,+2.062,-4, 12, 10, 2, -15, -6, -2, 0,-1.838358448852759,1.173663894050586
1503701159901,+0.646,+0.464,-0.303,-0.524,+0.925,-0.064,-0.391,+13.375,+5.312,+4.188,-3, -8, -5, -3, -11, -1, 6, 11,-1.8408317750795125,1.1725784165616049
1503701159921,+0.646,+0.467,-0.302,-0.523,+0.913,-0.058,-0.385,+19.250,+13.375,+5.125,-1, 12, 8, -2, -2, -1, -2, -10,-1.8463499668356818,1.177497846892858
1503701159946,+0.646,+0.471,-0.300,-0.520,+0.947,-0.066,-0.387,+26.188,+17.938,+6.000,-11, -6, -6, -3, 1, 3, 2, -9,-1.8545283151007392,1.182722631940854
1503701159959,+0.646,+0.475,-0.295,-0.519,+0.984,-0.113,-0.378,+28.812,+2.500,+14.000,2, -5, -4, -2, -2, 0, 3, 5,-1.8628730548085475,1.183993470016381
1503701159981,+0.648,+0.478,-0.290,-0.518,+1.002,-0.105,-0.369,+34.250,-6.188,+11.125,-5, -2, 1, 2, 4, 2, 1, 3,-1.8740158695892544,1.1838772407071614
1503701160005,+0.650,+0.480,-0.284,-0.516,+0.943,-0.096,-0.369,+40.188,-13.625,+11.875,10, -6, -5, -2, -6, -3, -6, 1,-1.884243818301521,1.1799436113126438
1503701160019,+0.653,+0.483,-0.276,-0.515,+0.908,-0.089,-0.383,+46.188,-13.312,+13.625,-2, 7, -2, -1, 2, -2, -4, -3,-1.898597784481755,1.1762030918826305
1503701160047,+0.655,+0.486,-0.268,-0.513,+0.917,-0.130,-0.355,+50.000,-10.500,+15.500,-2, -9, -4, -2, 1, -1, -2, -16,-1.911342501309166,1.1721652143234944
1503701160064,+0.656,+0.491,-0.260,-0.511,+0.942,-0.169,-0.330,+50.125,-6.312,+17.625,-1, 1, -2, -2, -3, 0, -1, -5,-1.9254667264645262,1.172724704491924
1503701160079,+0.657,+0.496,-0.253,-0.508,+0.946,-0.158,-0.340,+51.500,-6.812,+18.000,-2, -7, -6, -2, -4, -1, -4, -1,-1.9399275840623067,1.1747994526042402
1503701160101,+0.659,+0.500,-0.245,-0.506,+0.953,-0.146,-0.352,+54.000,-8.312,+17.688,-3, -1, -1, -1, 14, 5, 2, 3,-1.9548887192901723,1.1740729602600575
1503701160124,+0.661,+0.504,-0.236,-0.503,+0.954,-0.173,-0.331,+56.000,-14.438,+18.062,-6, 2, 1, 1, -6, -3, -1, 0,-1.9709405062299319,1.1722089787769256
1503701160140,+0.663,+0.508,-0.226,-0.501,+0.916,-0.195,-0.312,+56.125,-19.438,+19.625,1, -3, -1, -1, -3, -4, -3, -2,-1.9871119774645551,1.169683946011713
1503701160161,+0.665,+0.512,-0.216,-0.499,+0.897,-0.218,-0.327,+55.812,-16.375,+19.750,3, -2, -7, 0, -3, 0, -2, -2,-2.0035244054887937,1.1676267776744524
1503701163723,+0.582,+0.565,-0.209,-0.546,+0.829,-0.467,-0.221,+8.625,+1.812,+31.312,-6, 5, 6, 6, 32, 4, -1, 7,-1.9184636165122524,1.2706410493262144
1503701163746,+0.579,+0.567,-0.205,-0.549,+0.792,-0.444,-0.214,+6.250,-1.125,+27.000,4, 1, -3, -17, -1, -16, 12, 5,-1.917273035498358,1.270550338992965
1503701163763,+0.577,+0.568,-0.201,-0.551,+0.783,-0.455,-0.228,+5.438,-0.188,+16.875,-8, -3, -6, -5, -20, 2, 2, 9,-1.91634944883419,1.2680198905851814
1503701163783,+0.576,+0.570,-0.200,-0.551,+0.833,-0.417,-0.210,+3.375,+7.125,+6.875,0, 4, 12, 20, 17, 2, 0, 10,-1.9191823598849245,1.2719416921172453
1503701163806,+0.576,+0.571,-0.201,-0.550,+0.870,-0.376,-0.208,+3.312,+6.188,-1.000,-7, 0, -15, -9, -19, 1, 7, -4,-1.921371346568661,1.275743819310513
1503701163821,+0.576,+0.571,-0.201,-0.549,+0.898,-0.372,-0.199,+3.875,+0.312,-7.375,-8, -17, -18, -10, -12, 2, 1, 2,-1.9218023460059124,1.275616507928216
1503701163843,+0.578,+0.571,-0.202,-0.547,+0.901,-0.360,-0.219,+4.125,-2.188,-11.812,0, -7, -7, -17, -20, 1, -10, -8,-1.926127923583891,1.2772678504916022
1503701163866,+0.580,+0.570,-0.203,-0.545,+0.892,-0.354,-0.223,+3.688,-3.812,-15.125,-9, -5, 4, 23, 12, 6, -2, -21,-1.9282898228808891,1.2761810618571667
1503701163881,+0.582,+0.570,-0.203,-0.543,+0.908,-0.381,-0.226,+3.375,-5.625,-15.500,13, -2, -6, -10, -36, 0, -4, 2,-1.9330612385149728,1.27664258365872
1503701163903,+0.584,+0.569,-0.204,-0.541,+0.924,-0.385,-0.212,+3.125,-5.750,-13.562,-2, -3, -11, -9, -1, -4, 6, -12,-1.9352561822338397,1.275561449243325
1503701163933,+0.586,+0.569,-0.204,-0.540,+0.918,-0.393,-0.225,+3.625,-2.812,-14.000,2, -7, -5, 1, -8, -17, 3, 15,-1.9395898868947434,1.2761476816594897
1503701163942,+0.587,+0.569,-0.205,-0.538,+0.884,-0.336,-0.226,+2.188,-1.125,-10.188,11, 2, -6, -10, -23, -15, -4, 3,-1.9419981341311723,1.277428305175252
1503701163965,+0.589,+0.569,-0.206,-0.537,+0.914,-0.395,-0.198,+2.875,-3.188,-14.000,-5, 1, 4, 9, 6, 4, 5, -19,-1.9458804582620013,1.279187033027714
1503701163986,+0.590,+0.568,-0.206,-0.535,+0.917,-0.366,-0.228,+1.625,-3.312,-12.250,-5, -3, 3, 2, 17, 9, 2, 3,-1.9466331875778662,1.2765792122875914
1503701164002,+0.592,+0.568,-0.207,-0.533,+0.889,-0.350,-0.216,+1.375,-1.625,-15.688,-12, -24, -11, -26, -34, -9, -1, -2,-1.9509905692026035,1.2782081937637453
1503701164023,+0.594,+0.567,-0.209,-0.532,+0.914,-0.354,-0.204,+0.500,-4.125,-16.750,-7, -1, -15, -15, -8, -4, -4, 12,-1.9523351463604224,1.2784505708674525
1503701164046,+0.596,+0.566,-0.210,-0.529,+0.909,-0.354,-0.211,-0.312,-7.375,-22.562,-3, 11, -3, -4, -6, -4, 1, 8,-1.955098290835692,1.27726179570438
1503701164064,+0.599,+0.564,-0.211,-0.527,+0.897,-0.359,-0.208,-0.875,-10.000,-25.000,3, -2, 0, 12, 19, -2, -31, -12,-1.9572899407429678,1.2738870387728318
1503701164083,+0.602,+0.562,-0.213,-0.525,+0.884,-0.356,-0.228,-1.375,-8.562,-26.500,1, -2, 2, 43, 44, 12, 13, 0,-1.9590839481727014,1.2717300545834573
1503701164106,+0.605,+0.561,-0.215,-0.523,+0.898,-0.341,-0.211,-4.125,-4.875,-29.688,-3, 1, 4, -17, -2, -10, -5, -8,-1.962952813214789,1.272250429811053
1503701164121,+0.608,+0.559,-0.219,-0.519,+0.935,-0.316,-0.212,-5.312,-5.750,-34.625,1, 2, 8, -8, -1, 0, 5, -9,-1.9649184988565302,1.2722784926743702
1503701164143,+0.612,+0.556,-0.223,-0.516,+0.952,-0.286,-0.225,-7.188,-5.250,-35.250,0, -3, -9, -24, -44, -6, 1, 9,-1.9664364139718187,1.2702315309923606
1503701164166,+0.616,+0.554,-0.226,-0.513,+0.950,-0.261,-0.258,-3.562,-9.625,-35.438,8, -1, 1, -12, -14, -7, 4, -26,-1.9704704830512578,1.269641242301931
1503701164181,+0.619,+0.551,-0.228,-0.510,+0.938,-0.272,-0.254,-5.000,-8.625,-31.312,-3, 14, 9, 11, 27, -6, 5, 11,-1.97113411103638,1.2649393261888726
1503701164203,+0.622,+0.549,-0.231,-0.508,+0.957,-0.259,-0.254,-4.062,-5.500,-29.250,-3, 1, -3, -10, 20, 2, -17, 21,-1.9728527470037098,1.26423272127426
1503701164226,+0.625,+0.547,-0.233,-0.505,+0.968,-0.241,-0.264,-3.875,-3.250,-23.438,15, -13, -7, -12, -27, 1, 3, -13,-1.9755818759820583,1.2621810152186073
1503701164241,+0.626,+0.546,-0.235,-0.504,+0.969,-0.238,-0.271,-1.500,-0.375,-15.688,-3, 9, 4, 1, -11, 3, 5, 10,-1.9752806796450033,1.262308997310582
1503701164264,+0.627,+0.546,-0.236,-0.502,+0.973,-0.244,-0.249,-0.688,+3.562,-9.875,-5, -8, 2, 6, -47, -6, 4, 4,-1.9778313523326625,1.2636002616349555
1503701164286,+0.628,+0.546,-0.238,-0.501,+0.972,-0.220,-0.229,-1.188,+2.812,-10.438,-7, 2, 9, 6, 7, -3, 7, -6,-1.9794208184848312,1.2662846558389798
1503701164302,+0.629,+0.545,-0.239,-0.500,+0.938,-0.206,-0.259,-1.250,-5.000,-12.125,0, -7, -1, -1, -2, 2, 4, -10,-1.9795883632092095,1.265187050769912
1503701164323,+0.631,+0.544,-0.239,-0.499,+0.938,-0.260,-0.250,-1.312,-5.875,-12.938,-6, -10, -4, -3, 1, -1, -4, 11,-1.9821871669813158,1.2631834719807922
1503701164346,+0.632,+0.543,-0.240,-0.497,+0.946,-0.242,-0.252,-1.875,-5.188,-12.938,0, 2, -8, 1, 14, 1, -4, 6,-1.9828998278262089,1.2619467146335945
1503701164362,+0.634,+0.542,-0.241,-0.496,+0.925,-0.241,-0.238,-3.625,-6.750,-15.062,-5, -8, -7, -15, -21, 0, 2, 4,-1.9850813652032413,1.2612059615157576
1503701164391,+0.636,+0.540,-0.243,-0.495,+0.937,-0.239,-0.229,-4.938,-7.500,-17.875,-1, 23, 25, 7, 22, 3, 3, 11,-1.9849996258705405,1.2592185701221361
1503701164414,+0.638,+0.538,-0.244,-0.494,+0.927,-0.237,-0.246,-5.688,-8.000,-20.562,-15, 4, 5, 8, 12, 16, 8, 24,-1.9854019818755877,1.2559960481995016
1503701164422,+0.640,+0.536,-0.246,-0.492,+0.939,-0.226,-0.244,-8.438,-9.125,-21.938,3, 9, -17, -7, -3, -10, -6, -18,-1.9859259582043978,1.253907156371781
1503701164443,+0.643,+0.533,-0.248,-0.491,+0.949,-0.223,-0.233,-9.688,-9.250,-24.500,-1, -15, -11, -3, 2, 10, -25, -1,-1.9861695214959487,1.2498636714165812
1503701164466,+0.645,+0.530,-0.251,-0.489,+0.951,-0.195,-0.249,-10.500,-10.938,-27.062,11, 3, 5, 4, -5, -2, -1, -23,-1.9845810691965142,1.2466533120660075
1503701164482,+0.648,+0.527,-0.254,-0.487,+0.909,-0.199,-0.277,-9.625,-10.438,-29.438,4, 0, -3, -4, -5, -24, -8, -7,-1.9850832878020315,1.2438499086745805
1503701164504,+0.651,+0.524,-0.257,-0.486,+0.936,-0.119,-0.275,-14.312,-9.562,-23.500,-11, -7, -3, -9, 7, 6, 33, 0,-1.9851420392542818,1.2412774759412384
1503701165824,+0.671,+0.575,-0.216,-0.415,+1.038,-0.179,-0.187,+5.438,+4.188,-7.875,13, 9, 10, -3, -3, -2, -2, -10,-2.1798544335042873,1.3182058577749642
1503701165846,+0.672,+0.574,-0.216,-0.414,+0.980,-0.175,-0.202,+2.688,-3.312,-7.375,-3, -3, -5, -1, -12, -4, -1, 6,-2.180730217431755,1.315780835538722
1503701165862,+0.673,+0.574,-0.216,-0.413,+0.950,-0.169,-0.188,+2.125,-0.500,-4.438,2, 4, 2, -1, -10, 0, -1, -1,-2.1832765773335336,1.3159646229527313
1503701165884,+0.673,+0.575,-0.217,-0.412,+0.980,-0.168,-0.199,+3.375,+4.938,-2.750,-5, 5, 15, 12, 1, 0, 1, 2,-2.1850496090105587,1.3195227535183351
1503701165909,+0.673,+0.576,-0.217,-0.411,+0.987,-0.165,-0.206,+2.312,+3.438,-3.688,-5, -11, -14, -6, 5, -1, -2, 0,-2.187494210001045,1.3220192619404185
1503701165922,+0.673,+0.575,-0.217,-0.410,+0.961,-0.171,-0.195,+1.625,-1.688,-5.250,-13, -9, -5, -6, -7, -1, -1, 1,-2.186629951666084,1.319303160545669
1503701165945,+0.674,+0.576,-0.217,-0.409,+0.972,-0.186,-0.182,+0.938,-0.188,-4.812,5, 3, 0, -2, 3, -3, -3, -7,-2.1908271517893323,1.3220903079760833
1503701165966,+0.674,+0.576,-0.218,-0.409,+0.977,-0.165,-0.201,+0.562,+2.938,-4.750,0, 1, 4, 0, 3, 3, -1, 0,-2.190147938146805,1.3231509954415563
1503701165982,+0.674,+0.576,-0.218,-0.408,+0.967,-0.166,-0.214,+0.250,+0.625,-4.188,0, 12, 0, -1, 1, -1, -1, 2,-2.190942841246404,1.32304242800848
1503701166004,+0.675,+0.576,-0.219,-0.407,+0.955,-0.164,-0.199,+1.938,+1.875,-6.312,0, -11, -6, -6, 9, 1, -1, -4,-2.1928044358152996,1.3242827201516894
1503701166026,+0.676,+0.576,-0.219,-0.405,+0.959,-0.162,-0.215,+4.188,-0.562,-7.938,3, 6, 1, 3, 2, 1, -1, 0,-2.196146602150361,1.3243510319677005
1503701166043,+0.677,+0.575,-0.219,-0.404,+0.972,-0.160,-0.199,+4.062,-2.688,-9.125,7, 18, 9, 3, -1, -2, -1, 3,-2.197061820651571,1.321928227470147
1503701166064,+0.677,+0.575,-0.219,-0.403,+0.978,-0.153,-0.199,+2.875,+0.562,-4.875,-3, -7, -10, -6, -4, -3, -2, 3,-2.19786760899414,1.321818752153758
1503701166086,+0.678,+0.576,-0.219,-0.401,+0.970,-0.148,-0.187,+5.000,+2.562,-5.375,-4, -11, -3, 0, -2, 0, -1, -8,-2.202854040453038,1.3244875443876074
1503701166102,+0.678,+0.576,-0.219,-0.400,+0.992,-0.143,-0.196,+4.625,+1.375,-3.750,-14, -11, -4, -2, 0, -2, -1, 2,-2.203666913183637,1.3243792368951015
1503701166124,+0.678,+0.577,-0.219,-0.399,+0.994,-0.166,-0.199,+5.125,+0.000,-3.562,10, 10, -2, 3, 7, 0, 0, 1,-2.206102935761317,1.3268735001801124
1503701166148,+0.679,+0.577,-0.218,-0.398,+0.966,-0.152,-0.196,+4.812,-1.375,-2.375,2, -8, 7, 7, -7, 3, -3, -9,-2.2093486150297426,1.3259941861728186
1503701166162,+0.680,+0.577,-0.218,-0.397,+0.955,-0.161,-0.198,+5.500,-2.438,-3.625,0, -9, -12, -8, 5, -6, 1, 1,-2.211898870095373,1.326170459560963
1503701166185,+0.680,+0.577,-0.218,-0.396,+0.962,-0.152,-0.192,+4.125,-0.188,-4.750,16, -18, 4, -3, -15, 2, 0, -1,-2.2127233878558332,1.3260634485747407
1503701166206,+0.681,+0.577,-0.218,-0.395,+0.980,-0.161,-0.183,+2.812,+0.125,-5.188,3, 11, 5, 7, 12, 1, -1, 1,-2.2152762972037667,1.3262396242616352
1503701166222,+0.682,+0.577,-0.218,-0.394,+0.982,-0.148,-0.195,+2.750,-2.688,-5.125,1, 10, 4, -3, -2, -2, -4, -26,-2.2178287814536355,1.3264155515502314
1503701166245,+0.682,+0.576,-0.218,-0.393,+0.973,-0.141,-0.194,+1.938,-2.688,-7.062,-2, 14, 6, 7, 30, 3, 0, 9,-2.217063266181032,1.323707306870057
1503701166266,+0.683,+0.576,-0.218,-0.393,+0.974,-0.174,-0.206,-0.125,-0.312,-4.750,1, 1, 4, -4, 17, 8, 3, 2,-2.2187895763503365,1.323992457597565
1503701166282,+0.683,+0.576,-0.219,-0.392,+0.970,-0.162,-0.191,-2.062,-1.812,-5.562,1, 3, 5, 1, -16, -3, 0, 1,-2.218920294878703,1.3249360993451154
1503701166304,+0.685,+0.575,-0.219,-0.391,+0.964,-0.154,-0.205,-1.750,-7.750,-9.938,-19, -16, -5, -8, -14, -4, -1, -3,-2.221619729850359,1.3228011436893288
1503701166326,+0.687,+0.573,-0.220,-0.391,+0.956,-0.151,-0.213,-2.375,-11.375,-13.062,-7, 2, -3, -4, -13, -1, 0, 5,-2.221218193844111,1.3192490531497794
1503701166342,+0.689,+0.571,-0.221,-0.389,+0.958,-0.145,-0.189,-3.562,-11.625,-15.625,-1, -8, 0, 4, 1, 5, 0, -1,-2.2225307697967303,1.3154962454800325
1503701166364,+0.690,+0.569,-0.222,-0.388,+0.979,-0.148,-0.197,-5.250,-12.375,-15.938,-1, -1, -3, 2, -9, -6, -2, 11,-2.221297262692613,1.3115801984510504
1503701166387,+0.693,+0.566,-0.223,-0.387,+0.968,-0.118,-0.234,-6.438,-12.250,-16.188,3, -2, -9, 4, 11, -5, -4, -19,-2.222038107480091,1.305703169555111
1503701166408,+0.695,+0.563,-0.225,-0.386,+0.976,-0.106,-0.222,-5.875,-14.500,-20.250,-5, 2, -3, -5, 0, -1, 1, 5,-2.220403187610481,1.3006443224663373
1503701166424,+0.698,+0.561,-0.226,-0.384,+0.981,-0.102,-0.219,-1.875,-13.250,-21.250,17, 8, 13, -3, -5, -1, -1, 6,-2.223651512994881,1.2972805093812791
1503701166447,+0.700,+0.558,-0.227,-0.383,+1.006,-0.096,-0.192,-6.688,-14.812,-11.938,-25, 6, -4, 1, -4, -2, -2, 0,-2.2228178378477588,1.2912063730373007
1503701166469,+0.702,+0.556,-0.228,-0.382,+0.996,-0.113,-0.202,-5.562,-15.188,-15.188,8, -4, -10, -3, 0, -1, -3, -7,-2.2235361815856796,1.287705035953173
1503701166491,+0.703,+0.554,-0.230,-0.382,+0.959,-0.093,-0.233,-9.812,-12.938,-12.125,0, -10, -5, -3, -10, -4, -1, 2,-2.2209722076729213,1.2851398759105368
1503701166507,+0.705,+0.551,-0.231,-0.383,+0.949,-0.092,-0.243,-12.750,-11.750,-8.688,5, 7, 7, 0, 8, 1, 1, -3,-2.218559045990914,1.279417248626949
1503701166529,+0.706,+0.549,-0.232,-0.383,+0.978,-0.097,-0.234,-13.562,-11.938,-7.125,-5, 2, 3, 0, -1, -1, -2, 5,-2.216726588735578,1.2758002858195667
1503701166549,+0.707,+0.545,-0.234,-0.384,+0.981,-0.084,-0.230,-13.375,-17.375,-11.062,0, 0, 0, -1, 1, 0, -2, 5,-2.210453797033779,1.2684329214751597
1503701166566,+0.709,+0.542,-0.235,-0.384,+0.978,-0.085,-0.226,-14.188,-20.438,-12.188,9, 3, 0, 3, -13, -7, -1, 0,-2.2090326740886472,1.262689964120521
1503701166590,+0.711,+0.538,-0.237,-0.385,+0.964,-0.072,-0.250,-18.438,-21.812,-9.875,-12, -12, -5, -2, 1, -1, -1, -1,-2.204713652169633,1.2557742114990902
1503701166604,+0.713,+0.534,-0.239,-0.387,+0.984,-0.042,-0.265,-19.750,-21.438,-6.500,-7, -26, -5, 1, 9, 4, -1, -9,-2.1996396125665956,1.249087612659719
1503701166627,+0.715,+0.530,-0.240,-0.388,+1.006,-0.025,-0.286,-14.062,-20.938,-7.000,-6, 4, 3, 0, 5, -2, 0, 2,-2.196118021207643,1.241167427943803
1503701166650,+0.716,+0.526,-0.241,-0.390,+0.980,-0.013,-0.296,-13.125,-21.062,+0.875,-1, 3, 1, -2, -3, 2, 1, 3,-2.1899485115170534,1.2331168545308377
1503701166665,+0.718,+0.524,-0.240,-0.391,+0.980,-0.041,-0.294,-9.250,-19.750,+3.375,2, 10, 11, 0, -1, 4, -1, -2,-2.1906291447773074,1.2278834356709996
1503701170428,+0.665,+0.603,-0.228,-0.376,+1.071,-0.135,-0.130,-6.562,-5.625,-0.188,-2, -2, -2, 1, -1, -5, -15, -2,-2.238917216634148,1.3990851234682662
1503701170451,+0.666,+0.601,-0.228,-0.378,+1.028,-0.155,-0.140,-11.000,-11.688,+3.125,4, 1, 3, 11, 3, -1, 5, -4,-2.2356356289889106,1.3941892162291187
1503701170466,+0.666,+0.599,-0.229,-0.381,+0.976,-0.178,-0.123,-18.062,-13.750,+3.875,11, -2, -2, -3, -5, -1, 3, 7,-2.2291408918582993,1.3902239819260758
1503701170489,+0.667,+0.596,-0.230,-0.384,+0.940,-0.161,-0.136,-19.938,-10.188,+1.062,-1, -2, -5, -3, -1, -1, -1, 21,-2.222705957153161,1.383884512269393
1503701170511,+0.667,+0.594,-0.232,-0.385,+0.938,-0.129,-0.146,-18.500,-9.562,-5.312,12, -4, -5, -7, -1, -31, -12, -21,-2.217166434552928,1.3808653337863133
1503701170527,+0.668,+0.591,-0.234,-0.386,+0.961,-0.139,-0.149,-18.500,-11.625,-10.250,-14, -1, 2, 0, 0, 2, -2, -14,-2.2117050557896762,1.3755014783833532
1503701170549,+0.670,+0.588,-0.237,-0.387,+0.988,-0.144,-0.153,-18.938,-13.000,-14.500,-17, -2, -2, -8, -14, 7, -2, 9,-2.2072925520111055,1.3715183096854193
1503701170579,+0.672,+0.584,-0.240,-0.387,+0.980,-0.130,-0.160,-18.125,-11.875,-18.438,8, 1, -3, -3, -13, -11, -14, -1,-2.2021502980244096,1.3649388900431583
1503701170587,+0.674,+0.581,-0.242,-0.388,+0.971,-0.127,-0.168,-18.125,-14.750,-15.062,7, 0, -1, -2, 2, 3, -3, -9,-2.1986004487521895,1.3600152963944567
1503701170609,+0.674,+0.578,-0.244,-0.389,+0.991,-0.145,-0.174,-19.562,-10.188,-11.062,2, -1, 0, -1, 3, 3, 3, 4,-2.1916156565788194,1.3546542978928324
1503701170631,+0.675,+0.576,-0.247,-0.390,+0.985,-0.129,-0.211,-19.125,-5.438,-12.062,11, 2, -3, -6, -2, 2, 3, 15,-2.187349791172493,1.3532898918586502
1503701170650,+0.677,+0.572,-0.248,-0.392,+1.005,-0.154,-0.254,-22.125,-16.312,-4.938,-16, -3, -4, -4, -7, 6, 3, 24,-2.1822552850566104,1.3449510490340004
1503701170669,+0.678,+0.568,-0.250,-0.394,+1.041,-0.099,-0.187,-18.000,-19.188,-7.562,5, -3, -3, -5, -3, 0, 5, -6,-2.1747907634334553,1.3375772806827866
1503701170693,+0.681,+0.564,-0.251,-0.395,+0.983,-0.096,-0.213,-14.688,-23.312,-9.688,-4, 6, 3, -1, -6, -16, -1, 1,-2.1724179627146767,1.3295299623696226
1503701170710,+0.683,+0.560,-0.251,-0.396,+0.959,-0.096,-0.221,-13.375,-21.125,-9.688,-16, -10, 6, 0, 4, 6, -5, -29,-2.1689538179229464,1.3201031698934333
1503701170729,+0.684,+0.558,-0.252,-0.397,+0.940,-0.062,-0.228,-9.438,-10.812,-4.625,4, 6, -3, 12, 7, 5, -15, -2,-2.1662263731856264,1.3166502612938173
1503701170752,+0.685,+0.556,-0.252,-0.398,+0.972,-0.075,-0.217,-6.500,-9.062,+0.250,13, 11, -1, -2, -2, -1, -5, -17,-2.164146666597137,1.312034803291842
1503701170776,+0.684,+0.556,-0.252,-0.399,+1.019,-0.128,-0.233,-6.062,-1.125,+5.250,15, 8, 7, -1, 0, -1, 8, -3,-2.161542823854876,1.3118784231476872
1503701170789,+0.683,+0.556,-0.253,-0.400,+0.973,-0.103,-0.205,-8.938,+5.812,+3.625,-7, -12, -10, -5, -10, -1, 4, 0,-2.1583186904937044,1.3129092841792471
1503701170813,+0.684,+0.555,-0.254,-0.399,+0.934,-0.033,-0.274,-4.500,-1.062,-7.062,7, 5, 1, 13, 13, 3, -8, 13,-2.1587270007332386,1.3117447487233045
1503701170827,+0.687,+0.553,-0.254,-0.398,+0.870,-0.063,-0.255,+3.250,-6.250,-13.688,6, -17, -8, -7, -4, -1, 5, -6,-2.1618914745392797,1.3074639578437788
1503701170850,+0.687,+0.553,-0.255,-0.396,+0.928,-0.131,-0.238,+2.375,+3.188,-10.562,21, -19, -19, -8, -9, -6, -12, -43,-2.162810593969178,1.3083923913620006
1503701170871,+0.687,+0.554,-0.257,-0.394,+1.026,-0.091,-0.202,-2.000,+10.875,-12.250,-14, 11, 3, 0, 2, 1, 2, -6,-2.1646660660059314,1.3130247259111554
1503701170887,+0.687,+0.554,-0.259,-0.392,+1.012,-0.054,-0.189,-0.938,+8.750,-14.625,-9, -5, 1, -5, -7, 1, -7, -9,-2.1649648526245,1.3151653893339248
1503701170912,+0.688,+0.555,-0.260,-0.390,+1.014,-0.075,-0.186,+1.688,+2.125,-12.000,-29, -9, 2, -2, -8, -4, -2, 2,-2.1692767324733384,1.3188864776226068
1503701170930,+0.689,+0.553,-0.260,-0.390,+1.073,-0.054,-0.162,-4.062,-16.875,-7.500,-7, 0, -3, -2, 1, -1, 0, -3,-2.168033987748002,1.314172283651668
1503701170947,+0.690,+0.551,-0.261,-0.389,+0.968,-0.066,-0.176,-3.125,-8.812,-8.562,-2, 6, -2, -6, -6, -2, -4, -35,-2.166961593933289,1.310543597265533
1503701170969,+0.692,+0.549,-0.261,-0.390,+0.943,-0.076,-0.216,-7.250,-14.562,-7.375,-13, -18, -1, 0, 7, -4, 3, 22,-2.166830259233121,1.306272888645482
1503701170991,+0.694,+0.546,-0.262,-0.389,+0.943,-0.040,-0.254,-5.625,-12.625,-11.250,21, 13, 1, 1, -6, -3, -4, 6,-2.1661491308514296,1.3004813586864963
1503701171007,+0.695,+0.545,-0.263,-0.389,+0.976,-0.050,-0.208,-7.625,-5.562,-11.375,-28, -7, -5, 3, 2, 2, 1, 5,-2.1658886476050228,1.2995173761302174
1503701171029,+0.694,+0.544,-0.265,-0.389,+1.000,-0.091,-0.183,-11.500,-1.500,-7.438,-13, -7, -4, 0, 2, 2, -2, -3,-2.1612823440770326,1.2992060473606222
1503701171051,+0.695,+0.542,-0.267,-0.389,+0.986,-0.070,-0.185,-12.625,-7.375,-7.875,-3, -16, -1, 4, 3, -2, 2, -2,-2.158926238497003,1.2970310521195232
1503701171067,+0.696,+0.540,-0.269,-0.390,+0.989,-0.037,-0.205,-14.438,-12.688,-10.812,9, 4, -2, -1, -6, 1, 0, -33,-2.1558291233219182,1.2950334146016804
1503701171089,+0.697,+0.537,-0.270,-0.391,+0.978,-0.033,-0.215,-13.938,-15.750,-7.688,-14, -13, -5, -6, -2, -2, 1, 12,-2.151858094824936,1.2893620490545874
1503701171112,+0.699,+0.533,-0.271,-0.392,+0.982,-0.032,-0.232,-15.500,-21.938,-9.062,-10, 4, 0, -2, -4, 10, -15, -2,-2.1483413480693705,1.2815823095513412
1503701171127,+0.701,+0.530,-0.272,-0.393,+0.992,-0.020,-0.254,-14.812,-18.438,-5.375,-13, -2, -1, 4, 0, 3, 15, 46,-2.1463780319718944,1.2762967844734265
1503701171149,+0.703,+0.526,-0.273,-0.394,+0.996,-0.010,-0.253,-11.750,-22.438,-5.938,1, -9, 10, -2, -2, 0, -5, -6,-2.142994955443078,1.26862494164266
1503701171170,+0.704,+0.523,-0.273,-0.395,+0.973,-0.031,-0.243,-10.250,-21.125,-5.562,-9, 27, -1, -3, -7, -5, 1, -14,-2.1397642878868735,1.261830332752104
1503701171187,+0.705,+0.520,-0.273,-0.397,+0.972,-0.033,-0.242,-14.438,-19.312,+0.062,-4, -10, 2, 11, 15, 4, -1, 7,-2.1357995733683706,1.255227917340573
1503701171209,+0.706,+0.517,-0.274,-0.400,+1.006,-0.004,-0.255,-15.250,-19.875,+3.375,-6, -9, -4, 0, -8, 4, -3, 13,-2.1305627452153595,1.2501188439504936
1503701171231,+0.707,+0.513,-0.274,-0.402,+0.999,+0.021,-0.270,-13.750,-22.062,+6.812,13, -13, 5, 2, 5, 4, 3, 1,-2.1252083650653355,1.241182731156126
1503701171248,+0.708,+0.510,-0.272,-0.405,+0.987,+0.008,-0.300,-10.688,-21.688,+11.750,-23, 9, 2, 5, 4, 1, 1, -33,-2.121670925818592,1.2322662661314134
1503701171269,+0.708,+0.508,-0.271,-0.408,+0.960,-0.012,-0.295,-7.188,-21.500,+13.625,-14, -21, -16, -28, -8, -6, 1, 2,-2.117071508898182,1.2267260239978597
1503701173450,+0.613,+0.465,-0.304,-0.562,+0.913,-0.132,-0.380,-3.000,-1.062,-2.500,-4, 4, 2, 1, 5, -2, -3, -5,-1.7579214535410856,1.173384758612393
1503701173473,+0.613,+0.464,-0.303,-0.563,+0.919,-0.132,-0.328,+0.250,-5.688,+2.375,-2, -1, 1, 2, 10, 8, 4, 20,-1.7561327161989828,1.1698361516319091
1503701173488,+0.613,+0.465,-0.303,-0.563,+0.924,-0.195,-0.332,-1.125,+0.312,+3.000,9, -13, -17, -8, -10, -8, -16, -42,-1.7578657909081066,1.1720499970355032
1503701173510,+0.611,+0.466,-0.304,-0.564,+0.957,-0.147,-0.316,-6.250,+7.750,+5.500,-8, -5, -3, -9, 7, -5, 0, 15,-1.7547567478877049,1.175347599512507
1503701173533,+0.611,+0.465,-0.304,-0.564,+0.945,-0.109,-0.333,-3.812,-0.375,+3.625,4, 1, 2, -2, -6, 0, 4, 15,-1.7530170112382935,1.1731325478034795
1503701173548,+0.612,+0.464,-0.304,-0.564,+0.921,-0.143,-0.356,-1.500,-7.125,-2.688,0, -4, -1, -2, -8, 0, 1, 5,-1.7535064737809822,1.1712848083537897
1503701173570,+0.612,+0.463,-0.303,-0.564,+0.893,-0.170,-0.367,-1.250,-6.312,-2.875,-3, -1, 0, 1, 1, 0, 1, -1,-1.7519418138935519,1.1674971151537343
1503701173595,+0.612,+0.463,-0.303,-0.564,+0.905,-0.175,-0.331,-2.000,-0.750,-0.750,-5, -3, 0, -1, 3, -7, -2, -10,-1.7519418138935519,1.1674971151537343
1503701173608,+0.612,+0.464,-0.303,-0.564,+0.938,-0.148,-0.353,-1.750,+4.688,+1.375,-2, 3, -2, 0, 5, 0, 1, 6,-1.7536771356277943,1.1697089660325377
1503701173631,+0.612,+0.464,-0.304,-0.564,+0.951,-0.140,-0.335,-1.562,+4.125,+1.062,5, -12, -4, -1, -2, 0, -1, -3,-1.7535064737809822,1.1712848083537897
1503701173654,+0.612,+0.464,-0.304,-0.564,+0.931,-0.140,-0.327,+0.000,+0.688,+0.062,0, -2, -4, 1, -15, -5, -2, 1,-1.7535064737809822,1.1712848083537897
1503701173670,+0.612,+0.464,-0.304,-0.563,+0.903,-0.138,-0.353,+1.312,-1.625,-4.375,-4, -4, -1, -1, 2, -4, -4, -4,-1.753731637205714,1.1710454789370477
1503701173691,+0.613,+0.464,-0.304,-0.562,+0.883,-0.145,-0.364,+1.875,+2.375,-6.875,2, 12, 2, -1, -7, 0, 1, -8,-1.7561882946677896,1.1711714755975702
1503701173713,+0.614,+0.464,-0.304,-0.561,+0.898,-0.151,-0.356,+2.938,+4.000,-9.438,-8, -8, -10, -4, 1, -13, -10, -11,-1.7586479272298,1.1712973971277427
1503701173731,+0.615,+0.465,-0.305,-0.560,+0.917,-0.165,-0.344,+4.500,+4.750,-10.250,7, -7, -2, -4, -4, 1, -5, -21,-1.762658549732704,1.1752087876552813
1503701173750,+0.615,+0.465,-0.306,-0.558,+0.977,-0.175,-0.291,+1.000,+4.188,-11.500,-1, -3, -3, 0, -4, -2, 1, 2,-1.7629535088636086,1.1763079419148992
1503701173773,+0.615,+0.466,-0.307,-0.557,+0.977,-0.106,-0.313,-0.750,+7.438,-4.312,8, 2, 6, 3, 5, 6, 5, 10,-1.7647395059162903,1.1798604621979853
1503701173788,+0.616,+0.466,-0.308,-0.555,+0.968,-0.135,-0.310,-1.062,-1.438,-8.438,-5, -2, 1, -3, -2, -18, -5, 2,-1.7672614892197391,1.1813222463189381
1503701173810,+0.617,+0.465,-0.309,-0.555,+0.972,-0.128,-0.335,-2.062,-2.438,-3.938,2, 3, 2, -6, 1, 0, -1, 1,-1.7675786359147345,1.1810456237506237
1503701173833,+0.617,+0.465,-0.309,-0.555,+0.954,-0.132,-0.306,-3.375,-3.000,-2.438,6, -4, -4, 2, 7, 17, -2, -34,-1.7675786359147345,1.1810456237506237
1503701173848,+0.617,+0.464,-0.309,-0.555,+0.919,-0.114,-0.337,-4.250,-3.500,-1.688,-1, -7, -2, 1, 0, -28, -21, -8,-1.7658608386855723,1.178837557444039
1503701173870,+0.618,+0.463,-0.309,-0.555,+0.903,-0.148,-0.335,-2.875,-3.938,-7.438,-9, 20, 24, 8, 7, 11, 6, 19,-1.7663744106183608,1.1769901037808215
1503701173893,+0.619,+0.462,-0.309,-0.555,+0.936,-0.127,-0.386,-1.312,-4.375,-7.562,-11, 0, -9, -2, -3, 6, 14, -11,-1.7668952717044275,1.1751464088266266
1503701173908,+0.620,+0.461,-0.309,-0.554,+0.919,-0.105,-0.350,-1.188,-4.875,-4.562,0, 0, -3, 0, 2, 1, 4, -10,-1.7676678552603584,1.1730651445367006
1503701173931,+0.621,+0.461,-0.309,-0.554,+0.947,-0.142,-0.321,-1.688,-2.188,-3.938,-1, -21, -24, -1, 8, 1, -3, -6,-1.7699017716959098,1.1734250504104744
1503701173953,+0.620,+0.461,-0.310,-0.554,+0.951,-0.120,-0.319,-3.188,+2.688,-2.875,13, 8, -15, -10, -18, 1, 8, 26,-1.7674860381837219,1.17464842716456
1503701173968,+0.621,+0.461,-0.311,-0.553,+0.911,-0.073,-0.361,-1.562,+3.062,-0.375,-6, -8, 1, 3, 10, 18, 7, -1,-1.7697818812055037,1.1763498552257974
1503701173990,+0.621,+0.461,-0.311,-0.553,+0.912,-0.118,-0.361,+2.500,+0.750,-2.688,2, -1, 8, -7, -21, 1, 7, 6,-1.7697818812055037,1.1763498552257974
1503701174013,+0.622,+0.461,-0.311,-0.552,+0.920,-0.142,-0.330,+1.750,-0.812,-6.250,-3, -13, -6, 10, -2, -4, -4, -15,-1.7722621687093836,1.176465952453761
1503701174028,+0.622,+0.461,-0.311,-0.551,+0.919,-0.147,-0.327,-0.750,+0.625,-5.875,-30, 2, 5, -3, -2, -3, 4, 18,-1.772513030402407,1.1762251721018044
1503701174050,+0.623,+0.460,-0.311,-0.551,+0.927,-0.126,-0.338,-1.688,+0.500,-7.375,6, -3, 3, 4, 21, -11, -8, -30,-1.7730555716017442,1.1743870637167237
1503701174073,+0.624,+0.460,-0.312,-0.549,+0.968,-0.070,-0.351,+2.000,+0.688,-12.062,-26, 4, -6, -4, -11, -9, 0, 34,-1.7756119860907174,1.1758453363810943
1503701174088,+0.625,+0.460,-0.313,-0.548,+0.954,-0.088,-0.349,+2.812,+3.375,-4.000,1, -20, -17, -10, -8, -20, -16, -9,-1.7779149120910709,1.1775450383632844
1503701174110,+0.625,+0.461,-0.313,-0.547,+0.955,-0.101,-0.343,+4.812,+0.938,-5.250,10, 1, 2, 7, 43, 21, 10, 5,-1.7798575623733637,1.1794976789417317
1503701174133,+0.626,+0.461,-0.313,-0.545,+0.949,-0.108,-0.307,+4.188,+4.188,-4.250,13, 5, 12, -6, -30, 3, 4, -9,-1.7826166975465494,1.1793709948790148
1503701174148,+0.626,+0.462,-0.313,-0.544,+0.966,-0.127,-0.312,+3.500,+0.750,-4.562,5, 10, 13, -5, -4, 19, 8, -3,-1.7845668960755194,1.1813292032963496
1503701174171,+0.627,+0.462,-0.313,-0.544,+0.945,-0.066,-0.358,+3.125,-2.562,-0.312,-1, 0, -8, -3, 1, -1, -2, 0,-1.786797313432396,1.1816820837034927
1503701174193,+0.628,+0.462,-0.312,-0.543,+0.893,-0.121,-0.356,+6.438,-3.438,-4.938,13, -29, -13, 0, 2, 0, 5, 7,-1.7894993190259962,1.1802177392377529
1503701174209,+0.629,+0.462,-0.311,-0.543,+0.908,-0.135,-0.337,+4.125,-2.188,-4.938,5, 7, 1, 3, -10, -7, -10, -1,-1.7919312284911157,1.1789969229982329
1503701174230,+0.629,+0.462,-0.312,-0.541,+0.933,-0.118,-0.330,+1.938,+4.688,-8.125,27, 1, -6, 5, 6, -15, -32, -12,-1.7922828299187707,1.1800935978454894
1503701174253,+0.630,+0.462,-0.312,-0.541,+0.942,-0.131,-0.327,-1.562,-2.375,-5.250,-20, 6, 1, -3, 3, 4, 3, 5,-1.7945133667879545,1.180447433196573
1503701174268,+0.631,+0.461,-0.313,-0.540,+0.972,-0.103,-0.312,-2.062,-1.062,-9.500,-1, -5, 10, 4, -6, -20, -12, 4,-1.79514952079576,1.179938546557028
1503701174290,+0.632,+0.460,-0.314,-0.539,+0.911,-0.041,-0.295,-4.500,-7.625,-11.188,-5, 11, 4, -1, -2, 4, 3, -10,-1.79579496423825,1.1794343682587363
1503701174313,+0.633,+0.458,-0.314,-0.539,+0.936,-0.112,-0.344,-2.375,-6.938,-8.438,7, 8, 1, -8, -1, 1, -4, -12,-1.7947158874824647,1.1754053419821489
1503701174328,+0.634,+0.457,-0.314,-0.538,+0.962,-0.123,-0.326,-5.000,-6.750,-7.750,-9, -5, 0, -6, 0, -3, 5, 10,-1.795589021105177,1.173328470763818
1503701174350,+0.635,+0.456,-0.315,-0.538,+0.981,-0.070,-0.336,-4.562,-5.312,-8.875,-8, -8, -7, -2, -3, 1, 5, 1,-1.795981654524444,1.1730824129080575
1503701174373,+0.636,+0.455,-0.316,-0.537,+0.998,-0.043,-0.316,-2.750,-3.750,-5.812,1, 0, 0, 4, 1, 11, 12, -1,-1.796667518065311,1.1725967501814338
1503701174388,+0.636,+0.455,-0.316,-0.537,+1.014,-0.028,-0.345,+0.688,-3.812,+0.812,15, 5, -3, 1, -6, -8, -6, -8,-1.796667518065311,1.1725967501814338
1503701174410,+0.637,+0.455,-0.315,-0.537,+0.993,-0.028,-0.365,+7.812,-6.125,+5.562,-4, -11, -14, -7, -5, -6, -5, -19,-1.7991203287988742,1.1713654817487138
1503701174434,+0.638,+0.456,-0.312,-0.536,+0.970,-0.032,-0.381,+14.312,-0.750,+10.562,0, 4, 3, 3, -1, 11, 2, -1,-1.8039233464452666,1.1689219819226762
1503701174448,+0.638,+0.458,-0.309,-0.536,+0.981,-0.017,-0.428,+21.875,+0.625,+14.000,-13, 5, 3, 2, 6, -3, 2, 8,-1.8078473943034534,1.1685962299201318
1503701174472,+0.639,+0.461,-0.303,-0.536,+0.953,-0.054,-0.432,+35.688,-4.438,+21.000,1, -11, -2, -3, 2, -4, -3, -3,-1.8163512026615254,1.1662402581921645
1503701174493,+0.641,+0.463,-0.294,-0.538,+0.923,-0.128,-0.502,+33.875,-20.688,+28.688,-10, -14, -20, -10, 8, -1, 2, 2,-1.8255444883393306,1.158105149712482
1503701174508,+0.641,+0.467,-0.286,-0.538,+0.935,-0.090,-0.374,+43.062,-13.875,+35.125,-2, 7, 4, 0, -4, -17, -21, 36,-1.83411185692318,1.1549954486579308
1503701176353,+0.651,+0.545,-0.209,-0.486,+0.919,-0.250,-0.282,-2.188,+1.688,-5.125,-5, -17, -8, -1, -2, -1, -2, 0,-2.044949297374012,1.2349712072457968
1503701176369,+0.651,+0.545,-0.210,-0.485,+0.925,-0.256,-0.281,-2.750,+4.438,-5.875,-8, -6, 4, 1, 3, 4, 0, -3,-2.0450493857582073,1.2359775280782628
1503701176406,+0.651,+0.545,-0.211,-0.485,+0.937,-0.264,-0.279,-3.125,+1.750,-6.438,1, -2, 2, -4, -9, -3, -3, -12,-2.044535195643434,1.2371287815669423
1503701176416,+0.652,+0.544,-0.212,-0.484,+0.953,-0.261,-0.254,-4.188,-1.938,-5.500,-4, 3, 9, 0, 1, 1, -1, -3,-2.044772040554661,1.2359414310111922
1503701176429,+0.652,+0.544,-0.213,-0.484,+0.953,-0.245,-0.250,-6.125,-0.750,-4.938,0, 4, 1, 4, 6, 0, -1, -6,-2.0442598431221186,1.2370981804636123
1503701176458,+0.651,+0.544,-0.214,-0.484,+0.930,-0.237,-0.261,-6.375,+2.438,-2.750,0, -6, 6, -1, -2, 0, 1, -1,-2.04180847200269,1.2378906339482347
1503701176473,+0.651,+0.543,-0.215,-0.484,+0.934,-0.242,-0.280,-5.438,+2.500,-0.938,-2, 4, 3, 0, -5, 0, 0, 3,-2.0394988308917887,1.2364940756997729
1503701176496,+0.651,+0.543,-0.215,-0.484,+0.941,-0.244,-0.280,-5.312,+0.812,-2.500,1, 1, 2, 3, 3, 1, 2, 1,-2.0394988308917887,1.2364940756997729
1503701176511,+0.652,+0.542,-0.216,-0.484,+0.927,-0.237,-0.283,-4.000,-2.750,-5.000,4, 6, -8, -6, -5, -3, -2, 4,-2.0391443664283484,1.2354738337426445
1503701176533,+0.652,+0.542,-0.216,-0.484,+0.908,-0.244,-0.279,-3.625,-1.875,-4.812,-3, 0, -3, -1, 0, 0, -2, -10,-2.0391443664283484,1.2354738337426445
1503701176556,+0.652,+0.542,-0.217,-0.484,+0.916,-0.250,-0.267,-4.188,+1.938,-4.062,0, -8, -8, -6, -11, -4, -1, 1,-2.038640248906116,1.2366446805466398
1503701176571,+0.652,+0.542,-0.218,-0.483,+0.950,-0.239,-0.277,-3.250,+4.000,-5.875,-1, 1, 4, 1, -3, -2, -1, -2,-2.0387424792898288,1.2376710908102377
1503701176593,+0.653,+0.541,-0.219,-0.482,+0.950,-0.215,-0.289,-1.438,-0.750,-7.812,0, 15, 22, 6, 4, 2, -1, 0,-2.0390084526147834,1.236517217762631
1503701176617,+0.655,+0.540,-0.220,-0.481,+0.919,-0.215,-0.301,+1.062,-2.375,-9.688,-4, -1, -4, -1, 2, -1, -2, -2,-2.04123861408537,1.2357354104141334
1503701176638,+0.656,+0.540,-0.219,-0.480,+0.918,-0.232,-0.295,+3.750,-1.938,-8.875,-7, -22, -5, -1, -7, -1, -3, -4,-2.0443056287788854,1.2347752242437855
1503701176654,+0.657,+0.540,-0.220,-0.479,+0.933,-0.240,-0.276,+3.375,-0.188,-8.625,1, 5, -1, -2, 2, -2, -1, 5,-2.046362601301526,1.2361673818011245
1503701176676,+0.657,+0.540,-0.220,-0.477,+0.936,-0.221,-0.273,+2.438,+1.125,-10.250,-2, -1, -3, 0, -16, -8, -1, -2,-2.0475993415823726,1.235870516716031
1503701176692,+0.659,+0.540,-0.221,-0.475,+0.923,-0.216,-0.295,+3.000,+1.125,-12.312,4, -6, -5, -1, 4, 0, 0, -5,-2.052227504048303,1.2374760814540098
1503701176713,+0.660,+0.539,-0.222,-0.473,+0.930,-0.217,-0.281,+3.000,-1.250,-14.500,3, -1, -2, -1, 7, 1, 1, -3,-2.0531645015082898,1.236184334599609
1503701176736,+0.662,+0.539,-0.223,-0.471,+0.928,-0.203,-0.282,+4.062,-1.938,-17.000,-4, 7, 2, -3, 4, 6, 1, 0,-2.0578033980436725,1.2377869676045892
1503701176752,+0.664,+0.538,-0.224,-0.468,+0.895,-0.201,-0.288,+5.500,-0.438,-21.062,1, -2, -6, 2, -13, -5, -1, -7,-2.0613537723267013,1.236712022206893
1503701176774,+0.665,+0.539,-0.225,-0.465,+0.913,-0.206,-0.275,+4.750,+5.188,-18.000,-5, -6, -3, -4, -15, -13, -3, 1,-2.0664258299123786,1.2403239629078127
1503701176795,+0.666,+0.540,-0.227,-0.462,+0.961,-0.233,-0.241,+3.312,+8.625,-20.688,3, 1, -4, -4, -32, -19, -4, 8,-2.070970531941567,1.2451120021446442
1503701176819,+0.667,+0.540,-0.229,-0.459,+0.994,-0.199,-0.240,-0.750,+4.500,-23.000,-2, -14, -3, -1, 1, 2, -1, -3,-2.073803590161269,1.2473793564419684
1503701176833,+0.669,+0.539,-0.231,-0.456,+0.978,-0.156,-0.284,+2.375,+2.875,-21.375,8, 3, -2, -6, 6, 0, -2, -8,-2.0768809025192145,1.2474838960945318
1503701176855,+0.670,+0.539,-0.233,-0.454,+0.951,-0.135,-0.279,+0.688,+1.125,-14.000,-6, -5, -4, 1, 26, 14, 4, 5,-2.0790703470516734,1.249908281069759
1503701176871,+0.671,+0.539,-0.233,-0.453,+0.983,-0.182,-0.273,+3.375,-0.625,-11.500,-2, -3, -2, -2, 11, 6, 2, 0,-2.081663828047319,1.250104323790979
1503701176894,+0.672,+0.539,-0.234,-0.452,+0.992,-0.203,-0.239,+0.812,-2.062,-7.500,0, 12, -1, -2, -4, -3, -1, 3,-2.083721292441796,1.2514882642899219
1503701176919,+0.672,+0.538,-0.234,-0.451,+0.980,-0.177,-0.220,-2.688,-3.188,-8.562,3, -7, 2, 3, 1, 1, -3, -5,-2.082717708798473,1.2488338277125695
1503701176932,+0.673,+0.537,-0.236,-0.450,+0.938,-0.151,-0.262,-5.312,-4.500,-11.500,5, 19, 17, 5, 6, 0, 3, 1,-2.082581032770457,1.2489148972936281
1503701176954,+0.674,+0.536,-0.237,-0.449,+0.940,-0.151,-0.275,-6.062,-4.250,-9.688,-5, -5, -7, 3, 10, 4, -4, 6,-2.0829901783803995,1.2478095316634488
1503701176975,+0.675,+0.535,-0.238,-0.449,+0.945,-0.159,-0.271,-5.562,-2.750,-10.125,-2, -17, -5, -5, -29, -9, -4, -2,-2.082739473334187,1.2468639697911605
1503701176992,+0.676,+0.533,-0.239,-0.448,+0.926,-0.176,-0.292,-5.375,-2.750,-12.062,-10, 7, -1, -2, -4, 0, 1, 1,-2.0815206582425003,1.2432864490455546
1503701177014,+0.677,+0.532,-0.241,-0.448,+0.952,-0.109,-0.263,-8.750,-1.312,-7.875,-4, -7, -4, 1, 13, 9, -1, -6,-2.080770271390828,1.2435746767025935
1503701177036,+0.678,+0.531,-0.243,-0.447,+0.962,-0.146,-0.258,-6.625,-1.438,-14.312,3, 6, 4, 2, 5, 0, 4, 6,-2.080702293760888,1.2437221836495218
1503701177053,+0.679,+0.529,-0.244,-0.447,+0.988,-0.180,-0.313,-10.250,-10.625,-9.688,-3, 16, 6, -1, -1, -3, -1, -5,-2.078874290086206,1.2403517280083636
1503701177074,+0.681,+0.527,-0.245,-0.446,+0.943,-0.120,-0.275,-9.500,-8.750,-12.938,1, -1, -1, 0, 3, -1, -2, -4,-2.0796986633924877,1.2371864966646293
1503701177096,+0.682,+0.524,-0.246,-0.446,+0.939,-0.128,-0.289,-8.062,-12.000,-11.438,15, -6, -4, -2, -15, -7, -4, -35,-2.0763093324631923,1.231399343590758
1503701177111,+0.684,+0.522,-0.247,-0.446,+0.955,-0.138,-0.282,-10.125,-10.875,-10.312,0, 0, -7, 0, 5, 1, -4, 2,-2.0765380521732624,1.2284439827728357
1503701177134,+0.685,+0.520,-0.249,-0.446,+0.958,-0.125,-0.281,-11.312,-8.688,-9.375,-6, -2, 3, -2, -10, -7, 1, 7,-2.0743108695011263,1.226401572124984
1503701177156,+0.686,+0.518,-0.250,-0.447,+0.970,-0.101,-0.290,-11.875,-9.188,-8.688,-7, -5, -3, -2, 8, 4, 0, 12,-2.0719514001733943,1.2233075717825974
1503701177171,+0.687,+0.516,-0.251,-0.447,+0.974,-0.092,-0.292,-11.312,-9.500,-7.500,-1, 8, 0, -2, -1, 1, -2, -4,-2.070278638866052,1.2200624786768868
1503701177194,+0.688,+0.513,-0.252,-0.447,+0.977,-0.082,-0.307,-10.375,-11.375,-5.250,-2, -15, 2, 3, 6, 1, -1, 18,-2.0670535709805304,1.2144164065247918
1503701177216,+0.688,+0.511,-0.253,-0.448,+0.979,-0.090,-0.288,-9.750,-10.250,-2.438,4, -6, -5, -4, 4, 8, 1, -9,-2.0627586691303743,1.2110303473433062
1503701177231,+0.689,+0.509,-0.253,-0.449,+0.972,-0.087,-0.301,-8.812,-12.188,-0.188,0, 2, -1, -4, 15, -22, -5, 4,-2.0609817849006156,1.2067523487879475
1503701177256,+0.690,+0.508,-0.253,-0.450,+0.951,-0.088,-0.326,-7.625,-11.125,+1.500,6, 11, 26, 4, -2, 2, 1, 0,-2.0607853365090913,1.2048928409353736
1503701177276,+0.690,+0.506,-0.253,-0.451,+0.960,-0.081,-0.318,-5.750,-11.312,+3.625,-8, 15, 8, 6, 0, 5, 1, -3,-2.0570090617739436,1.2002708410934044
1503701177292,+0.691,+0.505,-0.252,-0.452,+0.958,-0.076,-0.330,-3.375,-8.312,+5.312,1, -7, -14, -8, -6, 0, 1, 7,-2.057306038576037,1.1971487791569406
1503701177314,+0.691,+0.505,-0.251,-0.453,+0.923,-0.082,-0.337,+1.000,-2.375,+7.062,3, -2, -3, -2, -18, -10, -3, -11,-2.0571312234007633,1.1960592644114758
1503701177336,+0.689,+0.506,-0.250,-0.454,+0.958,-0.110,-0.329,+1.188,+4.000,+12.875,-4, -2, -1, 4, 6, 11, -9, 1,-2.0544598494728437,1.1966288880708345
1503701177351,+0.688,+0.507,-0.249,-0.455,+0.972,-0.087,-0.325,+3.250,+2.938,+14.750,-6, 21, 10, 2, 16, 10, 5, 0,-2.0538317632028997,1.1975760051750752
1503701177374,+0.687,+0.509,-0.247,-0.456,+0.977,-0.125,-0.354,+4.938,+7.875,+18.812,-4, -7, -6, -4, -5, -21, -5, 5,-2.05527425583192,1.199678027139712
1503701177397,+0.686,+0.509,-0.245,-0.459,+1.022,-0.105,-0.353,+2.062,-6.062,+22.438,2, -2, 6, 0, 0, 5, 1, -11,-2.052276078452081,1.1973267142367086
1503701177412,+0.686,+0.509,-0.241,-0.461,+1.003,-0.088,-0.350,+8.125,-18.688,+24.875,1, -6, -14, -5, -6, 1, 1, -5,-2.052896803420131,1.1926746014737721
1503701177434,+0.687,+0.508,-0.235,-0.464,+0.943,-0.107,-0.358,+13.000,-24.500,+26.000,-4, -11, -7, -3, -11, -4, 3, 6,-2.0542528110149463,1.1837263756423935
1503701177456,+0.687,+0.507,-0.229,-0.467,+0.912,-0.141,-0.368,+16.562,-19.688,+28.938,6, -6, -4, -3, -10, 0, 4, 0,-2.0535769207831125,1.1744683232189843
1503701177471,+0.687,+0.508,-0.223,-0.469,+0.928,-0.159,-0.359,+17.500,-13.562,+31.500,-3, -4, -8, 0, 3, 1, -4, -2,-2.05676433712761,1.1699826669658104
1503701179458,+0.720,+0.547,-0.204,-0.376,+0.966,-0.127,-0.271,-10.312,-6.312,-6.625,8, 7, 2, -9, -8, -2, -1, 0,-2.264018333612403,1.2446015892236753
1503701179473,+0.720,+0.545,-0.206,-0.376,+0.967,-0.115,-0.285,-10.875,-6.688,-9.062,5, -1, 0, -6, -10, -1, 0, 1,-2.2597541191782198,1.2415553401903205
1503701179495,+0.722,+0.543,-0.207,-0.375,+0.934,-0.081,-0.311,-7.125,-6.938,-13.375,-1, 2, 7, 4, -2, -4, 0, 1,-2.260648276867871,1.2380776922374006
1503701179513,+0.723,+0.541,-0.209,-0.374,+0.950,-0.098,-0.292,-5.625,-6.125,-13.438,1, -24, -16, -6, 5, 0, -1, -3,-2.259114939751332,1.235299195517501
1503701179533,+0.724,+0.540,-0.210,-0.374,+0.977,-0.094,-0.284,-6.875,-4.438,-11.000,-15, 2, 6, -1, 0, 1, -1, -3,-2.258782792068851,1.2341689452882298
1503701179555,+0.724,+0.539,-0.212,-0.374,+0.982,-0.089,-0.257,-8.688,-3.000,-5.125,1, 10, 1, -2, -13, -3, 0, 2,-2.2559982304767146,1.2337390454702575
1503701179572,+0.725,+0.538,-0.213,-0.374,+1.001,-0.112,-0.256,-11.000,-7.000,-4.500,15, 15, 12, 9, 8, 0, -1, 2,-2.255687137015413,1.2326281265151886
1503701179593,+0.726,+0.536,-0.214,-0.375,+0.945,-0.087,-0.297,-12.250,-9.125,-7.000,-4, -11, -3, -4, -4, -1, 0, 2,-2.2530690992585267,1.229152088072777
1503701179615,+0.727,+0.534,-0.216,-0.375,+0.920,-0.071,-0.312,-11.875,-7.375,-6.938,10, 15, 7, 2, 6, 0, -2, -2,-2.2507175512670488,1.2266196191085528
1503701179631,+0.727,+0.532,-0.217,-0.375,+0.968,-0.083,-0.306,-9.188,-8.375,-6.312,-6, -10, 0, 2, 2, 2, 2, 0,-2.2472598161346844,1.2226770558029796
1503701179653,+0.728,+0.530,-0.218,-0.375,+0.951,-0.073,-0.310,-9.188,-5.812,-8.375,12, 3, 5, 4, 1, 2, -1, -3,-2.2456188700045105,1.2191133932151381
1503701179675,+0.729,+0.529,-0.218,-0.375,+0.884,-0.150,-0.322,-4.438,-4.500,-11.438,2, 10, -12, -6, 12, -6, -3, -3,-2.246045954098795,1.2169804753822122
1503701179691,+0.730,+0.527,-0.219,-0.376,+0.953,-0.011,-0.312,-11.188,-8.312,+4.312,-8, -4, -4, -4, -6, -1, -1, 1,-2.2435237885764425,1.2135944347869811
1503701179713,+0.729,+0.527,-0.220,-0.377,+1.005,-0.098,-0.297,-7.062,-2.188,-0.250,8, 10, 0, -1, 4, 3, 0, 0,-2.240133229220677,1.2144680053352361
1503701179735,+0.730,+0.526,-0.221,-0.377,+0.985,-0.048,-0.284,-7.625,-3.750,-1.438,-1, 2, -3, 1, -7, -3, -1, 0,-2.2399220789918326,1.2134398384727103
1503701179759,+0.730,+0.525,-0.221,-0.378,+0.959,-0.053,-0.305,-5.812,-7.812,+1.000,2, 44, 28, 6, 7, 3, 1, 2,-2.2376364964821436,1.2111084809508237
1503701179780,+0.730,+0.524,-0.221,-0.379,+0.946,-0.062,-0.319,-6.438,-7.375,+2.312,-7, -30, -14, -1, -5, -4, -5, -4,-2.235351778818264,1.2087798787981294
1503701179795,+0.730,+0.523,-0.221,-0.380,+0.949,-0.053,-0.323,-5.625,-2.812,+4.000,-10, -1, -2, -6, -8, 1, -1, -10,-2.233067968148153,1.2064540491351476
1503701179817,+0.731,+0.522,-0.221,-0.380,+0.940,-0.047,-0.324,-2.938,-4.188,+3.812,11, 4, -8, -3, -12, -9, -2, 3,-2.233529728609446,1.2043474037691604
1503701179833,+0.731,+0.522,-0.220,-0.381,+0.931,-0.071,-0.328,-1.688,-2.125,+4.562,-8, -16, 4, 6, 6, 0, 0, 6,-2.2332719654810407,1.2034068232650883
1503701179855,+0.730,+0.522,-0.220,-0.381,+0.926,-0.077,-0.319,-2.562,+2.000,+3.812,-3, 16, 6, 1, 2, 0, -3, 0,-2.231428175952819,1.2030304786115258
1503701179880,+0.729,+0.523,-0.220,-0.382,+0.936,-0.079,-0.305,-2.000,+5.062,+3.438,0, 4, 5, 1, 21, 0, -1, -11,-2.230071547759638,1.2052958479530222
1503701179893,+0.729,+0.523,-0.220,-0.382,+0.970,-0.078,-0.310,-1.812,+3.000,+3.250,-1, 9, 12, -1, -17, -4, -1, -3,-2.230071547759638,1.2052958479530222
1503701179916,+0.729,+0.523,-0.221,-0.382,+0.951,-0.062,-0.331,-1.000,+1.375,+0.688,1, -6, -5, -6, 7, -6, -1, 6,-2.229428624992912,1.2063961394536045
1503701179940,+0.729,+0.524,-0.220,-0.382,+0.924,-0.062,-0.317,+2.312,+3.062,+0.375,5, 4, -7, -2, 0, 3, 0, 1,-2.231460842420532,1.2077799737597275
1503701179953,+0.729,+0.524,-0.220,-0.381,+0.943,-0.099,-0.295,+2.875,+0.125,-0.812,6, -11, -1, 3, 4, 2, -1, 0,-2.2323589184936226,1.2076232046961306
1503701179975,+0.729,+0.524,-0.220,-0.381,+0.938,-0.089,-0.299,+0.750,-1.312,-3.000,-4, -4, -6, 0, -9, -4, 3, -1,-2.2323589184936226,1.2076232046961306
1503701179998,+0.729,+0.524,-0.220,-0.380,+0.937,-0.069,-0.314,-1.188,+2.750,-2.500,1, -12, 0, -6, -9, 1, -3, -4,-2.233259071096615,1.2074663061857007
1503701180013,+0.729,+0.525,-0.221,-0.380,+0.973,-0.055,-0.317,-0.500,+2.688,-2.438,-4, -5, -4, -5, -5, -2, -2, 1,-2.2339986776553182,1.21104989066861
1503701180035,+0.729,+0.525,-0.221,-0.379,+0.998,-0.053,-0.300,-0.625,+3.375,-2.062,4, 11, 11, 5, 9, 2, -2, 0,-2.234899532507323,1.210893796157985
1503701180058,+0.729,+0.525,-0.221,-0.379,+0.968,-0.065,-0.287,-0.188,-2.625,-1.438,2, 8, 0, 9, 5, 2, 7, -1,-2.234899532507323,1.210893796157985
1503701180074,+0.730,+0.524,-0.221,-0.379,+0.913,-0.077,-0.306,+0.188,-4.125,-1.562,-7, -6, 3, -2, 7, 4, 1, 3,-2.235351778818264,1.2087798787981294
1503701180095,+0.730,+0.524,-0.221,-0.379,+0.918,-0.086,-0.311,-3.562,-0.500,+0.562,5, 3, -3, -1, 8, 4, 7, 3,-2.235351778818264,1.2087798787981294
1503701180118,+0.729,+0.524,-0.221,-0.380,+0.978,-0.082,-0.305,-5.562,+0.625,+2.625,-7, -11, -6, -6, -10, -8, -5, -1,-2.2326118377144737,1.2085645305412374
1503701180133,+0.729,+0.524,-0.222,-0.380,+0.981,-0.066,-0.292,-5.750,-1.750,+0.438,-10, 1, 5, 0, 2, 1, -1, -2,-2.2319656780328443,1.2096656309664784
1503701180155,+0.729,+0.523,-0.222,-0.380,+0.955,-0.075,-0.302,-4.188,-4.375,-1.250,-6, -7, -4, 0, 3, 0, -5, -16,-2.230578770804072,1.2071826009837994
1503701180178,+0.730,+0.522,-0.222,-0.380,+0.927,-0.077,-0.308,-2.812,-7.875,-2.688,6, 3, -5, -5, -6, -1, -1, 7,-2.2310412211593467,1.205075178791601
1503701180193,+0.731,+0.521,-0.222,-0.381,+0.917,-0.085,-0.309,-5.500,-9.250,-3.625,-8, -3, 1, 4, 6, -8, -11, -2,-2.23061010284482,1.2031316339349771
1503701180215,+0.732,+0.519,-0.222,-0.382,+0.950,-0.084,-0.306,-8.375,-10.250,-3.250,-2, -6, -2, -5, 5, 3, 3, -13,-2.2288114935542245,1.1987211436165617
1503701180237,+0.732,+0.518,-0.223,-0.382,+0.975,-0.056,-0.308,-10.000,-7.188,-1.812,6, -1, 1, 6, 14, 11, 5, 2,-2.226803021107513,1.1973602312869027
1503701180253,+0.733,+0.516,-0.224,-0.383,+0.964,-0.047,-0.315,-8.125,-9.625,-2.438,2, -1, 1, 8, 1, -11, -2, -1,-2.2243979484032903,1.1940856531543937
1503701180275,+0.734,+0.514,-0.224,-0.383,+0.944,-0.049,-0.330,-6.188,-11.188,-2.375,-8, -6, -2, -2, 1, 4, 3, 7,-2.223533353578936,1.189544024493809
1503701180298,+0.734,+0.513,-0.224,-0.384,+0.946,-0.057,-0.315,-6.500,-9.188,+1.938,-7, -3, -2, -6, -8, -4, -2, -7,-2.2212756888171623,1.1872524697273676
1503701180314,+0.735,+0.511,-0.224,-0.385,+0.956,-0.048,-0.329,-6.938,-9.062,+3.688,3, 7, 6, 4, 5, 0, -2, 6,-2.219537194932623,1.1828957904606996
1503701180335,+0.735,+0.510,-0.224,-0.386,+0.964,-0.035,-0.346,-5.250,-9.688,+5.062,-10, -8, 3, -1, -6, -4, -2, -6,-2.2172860638515037,1.1806134736692173
1503701180357,+0.735,+0.509,-0.223,-0.388,+0.948,-0.046,-0.340,-3.688,-6.438,+6.875,-10, 10, 6, 0, -5, 3, 0, -10,-2.2147640042803403,1.1773802101230229
1503701180375,+0.734,+0.510,-0.223,-0.389,+0.937,-0.060,-0.332,-2.875,+0.938,+10.312,5, -7, -8, -4, 0, -1, 1, 1,-2.213357426432874,1.1796115092030757
1503701180395,+0.732,+0.511,-0.223,-0.390,+0.944,-0.058,-0.326,-2.438,+10.812,+14.000,5, -5, -6, -3, -2, -2, -4, -5,-2.210070530163004,1.1814558977407978
1503701180418,+0.730,+0.514,-0.222,-0.392,+0.992,-0.057,-0.339,-1.188,+13.750,+17.312,-6, -15, -9, -4, -5, 3, -3, -1,-2.2093142480893055,1.1872678969361934
1503701180433,+0.728,+0.516,-0.222,-0.393,+0.973,-0.049,-0.326,-1.250,+9.500,+15.875,-1, 0, 1, 4, 14, 14, 7, 5,-2.207470704400476,1.1915897972766398
1503701180455,+0.726,+0.518,-0.221,-0.395,+0.988,-0.067,-0.319,+1.312,+8.688,+20.062,2, 2, -4, -2, 1, -5, -3, 3,-2.205408752256089,1.1949687860648737
1503701180480,+0.724,+0.520,-0.219,-0.397,+0.932,-0.079,-0.325,+4.250,+9.562,+21.750,1, 2, 3, 1, -4, -3, 0, -4,-2.2040043432123215,1.1972481453626906
1503701180493,+0.722,+0.522,-0.217,-0.399,+0.932,-0.082,-0.341,+0.875,+13.062,+23.812,4, -16, -10, -5, -9, -9, -4, -6,-2.2026424117669063,1.1995493004143507
1503701180515,+0.719,+0.525,-0.215,-0.401,+0.947,-0.092,-0.330,+4.750,+15.062,+27.688,-4, -8, -2, 2, 7, 11, 3, 0,-2.2009094964297464,1.2039838314744336
1503701180537,+0.716,+0.527,-0.213,-0.405,+1.005,-0.126,-0.375,-0.438,+5.062,+31.875,-3, -13, 6, 2, -1, -3, -5, -2,-2.1960931719093213,1.2062644032011878
1503701180553,+0.715,+0.527,-0.209,-0.409,+1.022,-0.103,-0.323,+1.000,-5.812,+33.562,-8, -6, -3, -3, -2, 0, 2, -3,-2.1933419435040995,1.2021390097078604
1503701180581,+0.714,+0.527,-0.205,-0.412,+0.968,-0.105,-0.319,+5.750,-17.812,+33.188,2, 1, 0, 1, 8, 1, -1, -2,-2.191436121256795,1.1978891340772815
1503701183001,+0.715,+0.524,-0.237,-0.398,+0.896,-0.057,-0.348,-9.875,-9.562,-0.250,5, 18, 7, -2, -5, 0, -1, -3,-2.180980914961924,1.2244480951415841
1503701183014,+0.715,+0.522,-0.237,-0.399,+0.898,-0.041,-0.326,-6.000,-4.750,+0.250,-14, 4, 5, 4, 2, 0, 0, 3,-2.177259117477228,1.219685293138762
1503701183036,+0.715,+0.522,-0.237,-0.399,+1.000,-0.068,-0.308,-2.875,-3.438,+2.312,-7, -14, -8, -8, 8, 2, -2, -9,-2.177259117477228,1.219685293138762
1503701183061,+0.715,+0.522,-0.237,-0.399,+1.026,-0.075,-0.282,-2.438,-2.188,-0.875,-7, 5, -2, 0, -3, 2, 1, 2,-2.177259117477228,1.219685293138762
1503701183080,+0.716,+0.522,-0.238,-0.399,+0.942,-0.053,-0.292,-2.312,-1.188,-0.562,-5, 12, 16, 0, -1, -1, -1, -3,-2.1785625841165572,1.2212142731026812
1503701183097,+0.716,+0.521,-0.237,-0.400,+0.922,-0.052,-0.317,-1.500,-2.875,+1.812,6, -4, -7, -4, 8, 4, 3, 7,-2.1768949343152233,1.217750667441219
1503701183119,+0.716,+0.521,-0.237,-0.400,+0.956,-0.079,-0.295,-1.562,-1.375,+3.562,-7, -1, 4, 0, -9, -5, -3, -6,-2.1768949343152233,1.217750667441219
1503701183140,+0.716,+0.521,-0.237,-0.400,+0.973,-0.083,-0.299,-0.938,-2.812,+1.000,0, 2, -6, -3, -5, -5, -1, -1,-2.1768949343152233,1.217750667441219
1503701183155,+0.717,+0.520,-0.236,-0.400,+0.932,-0.092,-0.302,-1.750,-5.875,-3.062,6, -6, -5, -3, -1, 1, 0, 5,-2.17794889631086,1.2144878360755373
1503701183177,+0.717,+0.519,-0.237,-0.400,+0.909,-0.101,-0.320,-4.750,-2.625,-6.062,1, -8, -8, -6, 2, 1, 2, 9,-2.1759123549352255,1.213201810545929
1503701183200,+0.718,+0.518,-0.238,-0.400,+0.924,-0.082,-0.319,-7.812,-2.438,-9.500,15, -3, 6, 3, 1, -1, -1, 3,-2.1757920053171564,1.2122875000091362
1503701183215,+0.718,+0.517,-0.240,-0.399,+0.952,-0.075,-0.300,-8.688,+0.188,-11.000,-6, 3, 0, 1, 6, 0, -2, 4,-2.173995455659205,1.21202800335766
1503701183238,+0.718,+0.516,-0.242,-0.398,+0.947,-0.061,-0.304,-8.312,+3.500,-10.438,-4, -4, -3, -1, 2, 1, 0, -3,-2.1722029890947856,1.2117843403889026
1503701183260,+0.719,+0.516,-0.244,-0.398,+0.951,-0.046,-0.267,-6.250,-1.812,-10.000,-2, -1, 1, 27, 42, 2, -5, -5,-2.172954507007681,1.2145291943086598
1503701183275,+0.720,+0.515,-0.245,-0.395,+1.004,-0.072,-0.309,+1.875,-1.188,-18.125,-6, -2, -6, -6, -20, -4, 1, -2,-2.175320724851039,1.213133549666358
1503701183298,+0.722,+0.513,-0.245,-0.395,+0.945,+0.015,-0.305,-3.500,-11.188,-6.438,9, 5, 6, -1, 0, -1, -4, -16,-2.176342762226108,1.2089877340162065
1503701183320,+0.722,+0.512,-0.245,-0.395,+0.963,-0.083,-0.299,-5.562,-6.875,-1.062,-1, -7, -8, -7, -12, -3, -2, -10,-2.174933215835697,1.206555377525599
1503701183335,+0.722,+0.511,-0.246,-0.396,+0.991,-0.027,-0.336,-8.125,-2.250,-0.375,-3, -3, 0, -1, -6, 0, -1, 2,-2.1721222957758237,1.2055020016219333
1503701183357,+0.722,+0.512,-0.247,-0.396,+0.985,+0.007,-0.332,-3.188,+4.250,+1.250,1, 2, -1, -10, -18, 1, 0, 4,-2.172951104323295,1.2091340976410478
1503701183380,+0.721,+0.512,-0.247,-0.395,+0.948,-0.024,-0.315,+2.188,+2.250,+2.375,-6, 2, 0, -2, -9, -4, 2, 1,-2.171835065210544,1.2085960147214945
1503701183398,+0.721,+0.513,-0.246,-0.395,+0.914,-0.055,-0.311,+4.062,+2.062,+1.938,19, 12, -6, 1, -4, -2, -1, 8,-2.173830602452826,1.2098239335401513
1503701183418,+0.721,+0.514,-0.245,-0.395,+0.905,-0.073,-0.268,+2.625,+3.625,+4.375,4, 7, 21, 8, 4, 2, 3, -3,-2.175828816692619,1.2110587743664194
1503701183440,+0.721,+0.513,-0.245,-0.396,+0.953,-0.087,-0.284,-4.688,-5.312,+2.875,0, -10, -1, 1, 0, 0, -3, -10,-2.17359428303211,1.2087977226254214
1503701183455,+0.720,+0.513,-0.245,-0.397,+0.980,-0.057,-0.288,-7.875,-2.312,+3.125,-3, -13, -5, 1, -2, 0, -1, -5,-2.1708453206177394,1.2086075203611204
1503701183478,+0.720,+0.513,-0.246,-0.399,+0.983,-0.037,-0.286,-8.375,-4.688,+6.438,7, 2, 0, -3, -9, 0, -3, -7,-2.1686407480617107,1.2101568619140486
1503701183501,+0.719,+0.512,-0.245,-0.400,+0.985,-0.074,-0.264,-8.688,-7.250,+7.875,-3, -3, -2, 2, 10, 3, 3, 12,-2.165049787820174,1.2063333066931776
1503701183515,+0.719,+0.510,-0.246,-0.403,+1.002,-0.078,-0.277,-14.812,-14.250,+8.375,-3, 13, 2, -3, -10, -4, -1, 1,-2.1592150939124033,1.203212291701884
1503701183538,+0.720,+0.507,-0.246,-0.405,+0.946,+0.015,-0.335,-12.625,-18.062,+3.000,5, 5, 1, -3, 4, 0, 0, -7,-2.1553003469450305,1.196675128992287
1503701183560,+0.720,+0.505,-0.246,-0.407,+0.860,-0.048,-0.352,-10.000,-8.062,+6.250,3, -8, -4, -3, -8, 0, 5, -1,-2.1508681925012936,1.1922058343542454
1503701183575,+0.719,+0.506,-0.246,-0.409,+0.898,-0.082,-0.367,-9.625,+6.875,+14.188,-13, -17, 0, 2, -2, -6, -4, -3,-2.148751173285589,1.194609686475904
1503701183599,+0.716,+0.507,-0.246,-0.411,+0.977,-0.040,-0.369,-6.812,+16.250,+13.750,1, 11, -3, -2, 3, 2, 3, 1,-2.1427231967885767,1.1962706042103857
1503701183620,+0.717,+0.507,-0.246,-0.411,+0.932,-0.017,-0.341,+0.375,-3.625,+2.250,-4, 14, 11, 1, 0, -2, -4, -7,-2.144690475963292,1.1966421826054798
1503701183635,+0.718,+0.506,-0.245,-0.411,+0.869,-0.086,-0.334,+4.750,-5.625,-3.688,1, 8, -1, -2, -1, 5, 3, 2,-2.1457709015396875,1.1933819527921263
1503701183658,+0.718,+0.506,-0.244,-0.410,+0.896,-0.119,-0.318,-0.938,-0.438,-3.188,-3, 3, 0, -1, -5, 14, 8, 22,-2.147106603362536,1.1919864057501355
1503701183680,+0.718,+0.505,-0.245,-0.410,+0.942,-0.076,-0.321,-6.000,-0.250,-8.375,-7, 9, -1, -1, 10, -3, 0, -1,-2.1451188090031903,1.1907852757006425
1503701183695,+0.719,+0.504,-0.247,-0.408,+0.962,-0.040,-0.319,-3.500,-3.000,-13.500,-1, -16, -3, -4, 0, 1, 4, 3,-2.146129416448233,1.1908220249494623
1503701183718,+0.721,+0.503,-0.249,-0.406,+0.969,-0.037,-0.316,-2.688,-3.125,-20.625,8, 8, -3, 1, 11, -10, -5, 4,-2.14913274088962,1.1912435470489102
1503701185638,+0.603,+0.535,-0.209,-0.553,+0.904,-0.350,-0.272,+2.000,+0.875,-2.688,-1, 3, -2, 1, 3, 2, 0, -1,-1.8953927543854756,1.2005199355235123
1503701185660,+0.603,+0.536,-0.209,-0.553,+0.924,-0.341,-0.276,+1.562,-0.188,-0.688,3, 6, 6, 2, 1, -2, 1, -3,-1.8974091688562853,1.2031073250353468
1503701185676,+0.602,+0.537,-0.208,-0.553,+0.913,-0.343,-0.283,+0.938,+2.188,+3.312,-2, -7, -1, 4, 0, -1, -1, -1,-1.8977449410427663,1.2040382606879516
1503701185698,+0.602,+0.537,-0.209,-0.553,+0.906,-0.324,-0.280,-0.875,+2.438,+3.375,-5, 0, 0, -1, 0, 2, 3, 2,-1.8973779890179028,1.2052886964126486
1503701185720,+0.601,+0.538,-0.208,-0.553,+0.930,-0.335,-0.284,+0.000,+1.750,+6.062,1, 2, -1, -1, 0, -3, 0, 5,-1.8977227262929424,1.20622594047289
1503701185736,+0.601,+0.538,-0.207,-0.554,+0.928,-0.351,-0.297,+0.875,-1.625,+7.250,-1, 0, 0, -3, 8, 1, 1, 5,-1.8976796039364001,1.2051362510483745
1503701185758,+0.600,+0.538,-0.206,-0.555,+0.893,-0.360,-0.292,-0.062,-4.375,+9.188,1, 2, 1, -1, 4, 0, -2, -5,-1.8955882080576356,1.2036362896958168
1503701185781,+0.599,+0.538,-0.205,-0.556,+0.888,-0.340,-0.299,+0.000,-0.250,+11.000,1, -2, -2, -1, -5, -1, -3, -4,-1.8934946250939664,1.2021344228244843
1503701185796,+0.598,+0.539,-0.204,-0.557,+0.897,-0.353,-0.287,+0.688,-0.500,+10.750,-3, -4, -5, -5, -13, -2, -2, -1,-1.8934492326796792,1.2032430359304798
1503701185820,+0.598,+0.539,-0.202,-0.557,+0.870,-0.359,-0.292,+2.562,-4.188,+6.938,-5, -1, 0, 4, 7, -1, -5, -8,-1.8941825460786266,1.2007600770826916
1503701185840,+0.599,+0.539,-0.201,-0.557,+0.857,-0.387,-0.285,+1.875,-5.500,+1.938,1, -2, -2, -7, -6, -9, 1, 6,-1.8966030711057498,1.1999407749801116
1503701185856,+0.599,+0.539,-0.200,-0.558,+0.881,-0.389,-0.293,+0.875,-4.250,-0.188,7, 4, 1, 7, 2, 1, 0, 3,-1.896561911316231,1.1988619203359028
1503701185878,+0.599,+0.539,-0.200,-0.558,+0.862,-0.396,-0.280,-1.438,-0.938,-2.125,-16, -6, -3, -6, -8, -2, 0, -5,-1.896561911316231,1.1988619203359028
1503701185900,+0.599,+0.539,-0.200,-0.557,+0.854,-0.369,-0.279,-2.812,+1.188,-3.312,2, 1, 0, 1, 3, 2, 1, -6,-1.8969732734637546,1.1987060005862773
1503701185917,+0.599,+0.539,-0.202,-0.557,+0.886,-0.367,-0.266,-6.188,+3.250,-6.250,-1, 8, 4, 1, 1, 1, -4, -16,-1.8962336782878864,1.2011775664678765
1503701185939,+0.599,+0.539,-0.204,-0.556,+0.896,-0.378,-0.253,-10.312,+6.438,-10.750,10, 11, 6, 1, 6, 0, 0, 2,-1.8959060825839398,1.2035005458783634
1503701185960,+0.598,+0.538,-0.207,-0.556,+0.917,-0.351,-0.261,-13.500,+6.812,-10.750,2, -11, -11, -2, 2, -1, -4, -7,-1.8907140808144547,1.2042192267814118
1503701185984,+0.599,+0.537,-0.211,-0.556,+0.879,-0.343,-0.304,-14.625,+8.000,-15.000,1, 1, 2, 1, -4, 2, 0, 0,-1.889289642621267,1.2070562992347742
1503701185998,+0.599,+0.536,-0.213,-0.555,+0.888,-0.315,-0.328,-10.750,+6.375,-11.688,1, -4, -1, 0, 0, 0, -1, 1,-1.8869464293597376,1.2068360193383756
1503701186020,+0.600,+0.534,-0.216,-0.554,+0.858,-0.337,-0.292,-10.562,-0.125,-17.688,-6, -1, 5, -1, -2, -3, -2, 3,-1.88429921885833,1.205737162507454
1503701186043,+0.603,+0.532,-0.217,-0.553,+0.884,-0.368,-0.288,-8.500,-9.250,-22.562,-2, -1, -2, -1, -1, 0, 2, 6,-1.886517524961114,1.202931590207555
1503701186058,+0.605,+0.530,-0.219,-0.552,+0.934,-0.376,-0.314,-9.188,-7.688,-20.375,-3, 3, 4, 3, 13, 1, 0, 3,-1.886364657171521,1.2010273188299394
1503701186083,+0.605,+0.529,-0.222,-0.552,+0.921,-0.286,-0.290,-13.625,+5.812,-9.750,0, -9, 3, -2, -2, -2, 0, -3,-1.883347508695163,1.202346773454309
1503701186102,+0.605,+0.528,-0.225,-0.551,+0.894,-0.254,-0.266,-10.625,+4.188,-10.812,0, -24, -16, -5, -6, -1, 3, 4,-1.880738792829004,1.2035306132970038
1503701186119,+0.606,+0.527,-0.227,-0.550,+0.958,-0.319,-0.250,-10.250,-2.812,-13.750,0, -5, -7, 0, -3, 0, -3, 2,-1.8805547870829793,1.2038358153318878
1503701186154,+0.607,+0.525,-0.230,-0.550,+0.945,-0.329,-0.267,-17.688,-3.562,-14.938,-1, 1, -2, 2, 1, 2, 2, 4,-1.8777072080410728,1.2031258528634008
1503701186170,+0.608,+0.522,-0.233,-0.550,+0.860,-0.282,-0.300,-20.062,-2.375,-17.625,3, 6, -3, -1, -4, -2, 0, -6,-1.872961588981926,1.1999695956424796
1503701186178,+0.609,+0.520,-0.236,-0.550,+0.870,-0.276,-0.315,-17.750,-0.312,-15.562,-1, -2, 1, -1, -1, -2, -4, -3,-1.870212088852337,1.199374238703624
1503701186200,+0.610,+0.518,-0.239,-0.550,+0.915,-0.283,-0.310,-17.125,+2.312,-15.188,-3, 8, -5, -6, -8, -3, -2, 1,-1.867504861278238,1.1988291001183264
1503701186222,+0.610,+0.516,-0.242,-0.550,+0.929,-0.295,-0.287,-18.875,+1.500,-14.812,-3, 5, -1, -4, -6, -4, -3, -3,-1.8627400913951935,1.1979433146106035
1503701186238,+0.610,+0.514,-0.246,-0.550,+0.929,-0.280,-0.292,-21.188,+0.500,-13.812,-7, 8, 13, 4, 3, 2, 0, 0,-1.8577045233568794,1.1984754445466017
1503701186260,+0.611,+0.512,-0.249,-0.551,+0.934,-0.258,-0.300,-22.688,+1.875,-14.125,-2, -6, -4, 0, -2, -3, 2, -4,-1.8547655708126336,1.198279048943944
1503701186284,+0.611,+0.509,-0.253,-0.551,+0.938,-0.228,-0.316,-21.188,+0.688,-12.812,5, -3, -2, 0, -4, 0, 0, 3,-1.8479429491566273,1.1965274207403138
1503701186298,+0.611,+0.507,-0.256,-0.551,+0.950,-0.224,-0.323,-19.562,-1.375,-10.562,-2, -18, -8, -1, -5, -6, -5, -10,-1.843334134415688,1.195882466296196
1503701186320,+0.612,+0.504,-0.258,-0.552,+0.942,-0.230,-0.314,-19.188,-3.875,-9.000,-2, 7, -4, -3, 1, 1, -2, 2,-1.8389630186159924,1.1920609836648866
1503701186342,+0.612,+0.502,-0.260,-0.553,+0.938,-0.232,-0.306,-18.875,-6.250,-6.812,1, -5, 7, 1, -1, 2, 1, 0,-1.8343687920258782,1.190300653815703
1503701186359,+0.612,+0.499,-0.262,-0.554,+0.926,-0.233,-0.320,-19.000,-6.500,-5.875,1, 0, -5, 0, -1, 0, 0, -1,-1.8279550107243585,1.1862007843903875
1503701186380,+0.613,+0.497,-0.264,-0.555,+0.909,-0.228,-0.322,-19.188,-5.188,-4.875,-4, 2, -4, -4, 7, 5, 1, -1,-1.8255776602837235,1.184908485175835
1503701186402,+0.613,+0.494,-0.266,-0.556,+0.907,-0.226,-0.326,-19.812,-3.938,-6.062,-1, 7, -1, 1, 4, 1, -1, 6,-1.819253785665316,1.1809137215082872
1503701186422,+0.613,+0.492,-0.268,-0.557,+0.921,-0.208,-0.321,-19.750,-4.188,-7.375,3, 3, -1, -3, 3, 1, -3, -2,-1.8147978746282676,1.1793194861532557
1503701186441,+0.613,+0.489,-0.271,-0.558,+0.914,-0.195,-0.333,-19.250,-3.312,-8.688,2, 3, 6, 0, 6, 1, -1, -3,-1.8083177795413488,1.1768902434610036
1503701186462,+0.613,+0.487,-0.273,-0.559,+0.911,-0.203,-0.346,-17.562,-2.250,-7.438,-3, 3, -2, -1, -6, -4, -2, 2,-1.80393378414267,1.1753861832179446
1503701186478,+0.614,+0.485,-0.275,-0.559,+0.924,-0.198,-0.342,-16.062,+0.000,-7.438,-2, -3, -9, -4, -3, 0, 1, 3,-1.802045219228539,1.1740842266691136
1503701186500,+0.614,+0.483,-0.277,-0.559,+0.936,-0.191,-0.351,-15.000,-0.375,-8.625,3, -1, 6, -1, -18, -10, -1, 12,-1.7980014775087572,1.1724305682969018
1503701186523,+0.615,+0.481,-0.279,-0.559,+0.926,-0.161,-0.368,-12.188,-1.812,-10.000,-4, -8, -4, -4, -11, -1, -2, -11,-1.7961685149581708,1.17119041356865
1503701186538,+0.616,+0.479,-0.280,-0.559,+0.927,-0.153,-0.374,-8.000,-1.375,-8.625,5, 2, 2, 4, 16, 7, 4, 1,-1.794581309704564,1.168483486596489
1503701186561,+0.616,+0.479,-0.281,-0.558,+0.959,-0.174,-0.371,-3.250,-0.500,-5.375,-2, 3, 10, 6, 20, 6, -1, -9,-1.7946432856060572,1.1697570261672672
1503701186582,+0.617,+0.478,-0.281,-0.558,+0.968,-0.177,-0.372,+0.750,-2.812,-0.250,0, -2, -9, -3, -11, -2, 0, -2,-1.7950662350940747,1.1678530728723169
1503701186598,+0.617,+0.478,-0.279,-0.558,+0.957,-0.170,-0.374,+5.188,-5.562,+2.750,-2, -2, -2, 0, -5, -1, 0, 5,-1.7955001619407842,1.1648601750171697
1503701186621,+0.618,+0.478,-0.277,-0.558,+0.968,-0.158,-0.367,+9.812,-9.188,+5.750,0, 3, -1, -4, 17, 16, 2, 3,-1.798138976208817,1.1622627649413102
1503701191104,+0.552,+0.570,-0.185,-0.580,+0.835,-0.436,-0.248,+14.188,+7.688,+10.000,-2, -14, -15, -8, -19, -8, 0, -3,-1.8663888057546207,1.2485588154204759
1503701191121,+0.551,+0.573,-0.183,-0.579,+0.848,-0.444,-0.243,+14.688,+6.500,+8.062,-4, 3, -1, -3, -5, -1, 0, 1,-1.8725309452961367,1.2541297423875506
1503701191143,+0.551,+0.574,-0.181,-0.578,+0.856,-0.475,-0.221,+15.875,-1.062,+5.250,-3, -6, 1, 4, 10, 2, 4, -17,-1.8760213783365018,1.2544747309633533
1503701191164,+0.552,+0.576,-0.178,-0.577,+0.834,-0.506,-0.233,+15.000,-4.562,+0.688,4, 9, 1, 2, 8, -18, -5, -7,-1.884264562160118,1.2569382717280342
1503701191181,+0.553,+0.577,-0.177,-0.575,+0.805,-0.486,-0.238,+13.812,-4.188,-3.688,-3, -18, -1, 2, 12, 6, 9, 2,-1.8897664301886552,1.2587929445897814
1503701191203,+0.554,+0.578,-0.176,-0.573,+0.807,-0.465,-0.216,+12.500,-1.500,-9.125,-2, -5, -7, -2, -2, 0, 1, 5,-1.8952855033143194,1.2606608481290333
1503701191225,+0.556,+0.579,-0.176,-0.571,+0.842,-0.478,-0.205,+11.125,-0.688,-14.250,7, 7, 1, -2, 4, 5, -3, -6,-1.9023510827835897,1.2640841484898382
1503701191241,+0.558,+0.578,-0.176,-0.568,+0.867,-0.490,-0.197,+8.875,-8.625,-20.312,-3, -18, 2, -1, 1, 1, 1, -5,-1.9051558839564635,1.2616462167185574
1503701191270,+0.562,+0.578,-0.177,-0.565,+0.900,-0.505,-0.182,+3.375,-13.062,-26.375,-2, 20, 1, 0, -1, 0, -6, 8,-1.9137918998937968,1.264004453888337
1503701191292,+0.565,+0.576,-0.178,-0.563,+0.837,-0.455,-0.220,-1.000,-8.312,-23.938,4, -2, -6, -16, -40, -6, -3, -7,-1.9154607606047476,1.260388743496484
1503701191301,+0.568,+0.574,-0.180,-0.561,+0.856,-0.461,-0.186,-5.750,-9.188,-26.875,-10, -4, -3, 24, 25, 14, 13, 6,-1.9167536492433837,1.2579522140798232
1503701191323,+0.570,+0.573,-0.183,-0.560,+0.925,-0.462,-0.198,-10.750,-3.250,-23.125,0, 1, 3, -14, -12, 1, -6, -4,-1.917536661828237,1.25924849780816
1503701191344,+0.573,+0.570,-0.187,-0.559,+0.866,-0.395,-0.230,-13.188,-5.062,-26.000,1, -2, -6, -2, 14, 0, -2, 3,-1.9154102810372458,1.25654444598571
1503701191361,+0.576,+0.567,-0.190,-0.557,+0.849,-0.385,-0.236,-13.188,-11.062,-31.188,-5, 7, 8, 1, 16, -2, -15, 0,-1.914248868620027,1.2526500374732354
1503701191383,+0.580,+0.564,-0.193,-0.555,+0.847,-0.422,-0.244,-12.688,-8.562,-33.500,-9, -8, 8, 4, 42, -22, -13, -4,-1.915170257458269,1.2492323189359975
1503701191404,+0.582,+0.562,-0.198,-0.553,+0.856,-0.388,-0.258,-11.375,+2.875,-34.375,6, 10, 7, 5, -9, 7, 3, 2,-1.9135777471649116,1.250229532464455
1503701191421,+0.585,+0.560,-0.203,-0.550,+0.900,-0.354,-0.238,-10.312,+5.062,-37.188,0, 0, -3, -1, -5, 4, 3, -13,-1.914460253630327,1.2515591972438822
1503701191443,+0.588,+0.559,-0.207,-0.547,+0.937,-0.352,-0.228,-10.250,+0.125,-36.125,-26, -4, -11, 0, -4, -5, -7, 26,-1.917928568488475,1.25442576840867
1503701191465,+0.592,+0.556,-0.211,-0.544,+0.986,-0.365,-0.248,-9.312,-5.938,-37.062,3, 16, -5, -5, -13, 3, 17, 9,-1.9192281121582497,1.2523654481110447
1503701191481,+0.596,+0.553,-0.215,-0.542,+0.971,-0.296,-0.306,-6.750,-8.062,-29.312,4, 2, 8, 10, 13, 9, -1, -22,-1.920215251735427,1.2505393931186457
1503701191503,+0.600,+0.550,-0.216,-0.539,+0.905,-0.280,-0.300,-0.125,-13.688,-25.562,1, -16, -15, -9, -14, -6, 0, -26,-1.9229585618020026,1.2449467856135241
1503701191526,+0.602,+0.549,-0.216,-0.538,+0.968,-0.363,-0.243,+0.812,-8.625,-14.875,1, -36, 35, 4, -22, -6, -4, -4,-1.9253646896816912,1.2429314873164068
1503701191541,+0.603,+0.549,-0.217,-0.537,+0.942,-0.335,-0.260,-1.188,-0.312,-8.938,1, -1, -13, -5, 7, -7, -13, 14,-1.9273999031945668,1.2443919289033878
1503701191563,+0.604,+0.548,-0.218,-0.536,+0.885,-0.278,-0.297,-0.125,+2.750,-10.938,4, 12, -6, -6, 6, 0, 6, 15,-1.927422989327696,1.2432451779623954
1503701191585,+0.605,+0.548,-0.220,-0.535,+0.938,-0.227,-0.273,-1.312,-1.375,-5.188,2, -8, -17, -4, -8, 6, -10, 5,-1.9290555073424607,1.245945081608923
1503701191601,+0.607,+0.547,-0.220,-0.533,+0.934,-0.305,-0.272,+3.750,-7.000,-11.500,2, 9, -2, -9, -4, 3, 5, -7,-1.9319476383691179,1.2437907246489595
1503701191623,+0.609,+0.546,-0.220,-0.532,+0.911,-0.324,-0.272,+2.375,-6.750,-11.625,-1, -7, 0, 7, 50, 27, 7, -7,-1.9344075262254776,1.2417909457682421
1503701191645,+0.610,+0.545,-0.220,-0.531,+0.874,-0.320,-0.282,+2.688,-4.000,-10.812,0, -5, -9, 6, -3, -12, 3, -6,-1.9348825632560827,1.2394247005770422
1503701191662,+0.611,+0.545,-0.220,-0.530,+0.884,-0.331,-0.262,+1.500,+2.188,-11.375,-1, 3, 7, -1, -10, -3, -4, 1,-1.9373429912055107,1.2396471027916764
1503701191683,+0.612,+0.546,-0.222,-0.528,+0.924,-0.331,-0.224,+0.375,+2.250,-14.625,2, -1, -6, -9, -20, -4, 1, 9,-1.9414099972586871,1.244776877559688
1503701194967,+0.660,+0.568,-0.215,-0.442,+0.973,-0.211,-0.239,-27.312,-11.500,-17.250,-4, 5, 2, 5, -2, 1, -2, -12,-2.128655068937965,1.2986241276537107
1503701194983,+0.662,+0.564,-0.219,-0.443,+0.932,-0.211,-0.225,-28.000,-11.750,-17.812,-2, 12, -1, -8, -1, -3, -1, 1,-2.1222054895367957,1.2933866908403027
1503701195004,+0.662,+0.561,-0.223,-0.444,+0.949,-0.204,-0.208,-28.625,-6.938,-16.000,-7, -6, -3, 3, -2, 2, 2, 5,-2.1139249530737865,1.2902345164223552
1503701195027,+0.663,+0.558,-0.228,-0.445,+0.948,-0.166,-0.225,-29.062,-1.625,-15.188,4, 1, 0, -1, -6, -3, -2, 0,-2.1069869407934703,1.2886525155871789
1503701195045,+0.663,+0.555,-0.232,-0.446,+0.962,-0.152,-0.244,-26.812,-0.375,-12.562,9, 0, -5, -6, 0, -7, -3, -1,-2.098859349418807,1.2857348695724022
1503701195064,+0.663,+0.553,-0.236,-0.447,+1.003,-0.173,-0.236,-25.562,-1.000,-9.375,3, -6, -3, 12, 40, 9, 0, 9,-2.092504409642525,1.2854605878203218
1503701195087,+0.662,+0.551,-0.239,-0.449,+1.008,-0.167,-0.236,-23.875,-0.562,-4.812,3, -6, -9, -12, -19, -4, 1, 6,-2.084201004850632,1.2839008917634618
1503701195112,+0.662,+0.548,-0.241,-0.451,+0.973,-0.145,-0.260,-23.438,-2.188,-1.125,-25, -2, 2, -1, 0, 0, -1, -5,-2.076668017081728,1.2789992278461828
1503701195132,+0.661,+0.547,-0.244,-0.453,+0.965,-0.140,-0.264,-21.438,+4.438,+3.812,-15, -12, -6, -7, -8, 5, 0, 10,-2.0701469327929187,1.2800678467532813
1503701195149,+0.659,+0.547,-0.246,-0.454,+0.975,-0.135,-0.258,-17.688,+7.500,+7.500,6, 4, 2, 3, 6, -1, -6, -12,-2.0646186277013565,1.2820077379757902
1503701195169,+0.658,+0.546,-0.247,-0.456,+0.977,-0.154,-0.275,-12.688,+4.250,+8.500,4, -3, 2, 5, -8, -1, 0, 5,-2.0591913577437255,1.280691244230512
1503701195185,+0.657,+0.545,-0.247,-0.458,+0.978,-0.173,-0.272,-11.125,-4.438,+8.625,-5, -6, -8, -5, -25, 8, 3, -1,-2.0542891817695748,1.2781547863802314
1503701195207,+0.657,+0.544,-0.247,-0.460,+0.966,-0.178,-0.243,-10.750,-6.312,+6.688,-10, -16, -3, 0, 4, -3, -4, -14,-2.0513233811964526,1.275941123975151
1503701195223,+0.656,+0.543,-0.247,-0.462,+0.924,-0.165,-0.249,-10.688,-3.000,+4.062,-15, -3, -5, 1, 7, 0, -1, 6,-2.046427126757144,1.2734096759667601
1503701195250,+0.656,+0.542,-0.248,-0.463,+0.927,-0.162,-0.245,-11.875,-1.500,+3.750,-8, -2, 4, -1, 9, 2, -4, -7,-2.0435822761587263,1.2722956025093064
1503701195267,+0.655,+0.541,-0.249,-0.464,+0.962,-0.169,-0.251,-10.625,+0.875,+3.125,19, -3, -7, -6, -9, -5, -2, 11,-2.0387961891906503,1.2708668719055976
1503701195283,+0.655,+0.541,-0.250,-0.465,+0.958,-0.173,-0.247,-9.062,-2.250,-1.438,8, 2, -6, 0, -1, 1, -3, -3,-2.0377008185086622,1.2722635001481366
1503701195304,+0.656,+0.539,-0.250,-0.465,+0.936,-0.177,-0.249,-8.188,-4.750,-5.625,2, 0, -4, 0, 0, 0, -3, 2,-2.0361923303330713,1.267609237419774
1503701195327,+0.656,+0.538,-0.252,-0.465,+0.925,-0.184,-0.244,-7.000,-0.562,-7.312,3, -10, -5, -1, -9, -9, -2, 4,-2.033484818478005,1.2676338753665004
1503701195342,+0.656,+0.538,-0.253,-0.465,+0.943,-0.176,-0.259,-5.438,+3.312,-7.688,6, 5, 1, 0, -4, -11, -9, -6,-2.0329975913218523,1.26889343525895
1503701195364,+0.657,+0.537,-0.254,-0.464,+0.970,-0.155,-0.261,-5.938,+2.500,-9.438,-13, 0, -1, -2, -4, 1, 3, 3,-2.0333464405220214,1.2678491566289203
1503701195387,+0.657,+0.537,-0.256,-0.463,+0.958,-0.134,-0.272,-4.125,+4.000,-10.875,6, 7, -2, 1, 6, 13, -1, 2,-2.0329693287640658,1.2702283435569435
1503701195403,+0.658,+0.536,-0.257,-0.461,+0.962,-0.140,-0.263,+0.750,-1.125,-10.375,-4, -4, -2, -3, -25, -37, -4, 0,-2.033926900901098,1.2690411842481508
1503701195432,+0.660,+0.536,-0.257,-0.460,+0.973,-0.143,-0.247,+4.500,-4.625,-11.312,16, 10, -1, 0, -1, -3, -5, 19,-2.0384598331648918,1.269531260611132
1503701195448,+0.661,+0.535,-0.258,-0.458,+0.967,-0.156,-0.239,+1.062,-0.938,-10.938,-11, -6, -4, 0, 9, 15, 2, 3,-2.0394444282066613,1.2683482803991835
1503701195462,+0.660,+0.536,-0.259,-0.457,+0.989,-0.131,-0.254,-0.062,+9.188,-3.250,18, 1, 4, 0, 1, 24, 9, 7,-2.0392890487449953,1.2716118391235014
1503701195485,+0.660,+0.538,-0.259,-0.456,+0.951,-0.109,-0.263,+4.625,+11.875,-0.312,40, 12, 0, 3, 28, 32, -1, 2,-2.043294622877847,1.276395484289501
1503701195507,+0.660,+0.538,-0.258,-0.455,+0.998,-0.137,-0.247,+8.000,-0.125,+0.625,21, 1, 2, -2, -5, -13, -5, -4,-2.0443996277877488,1.2749743449318138
1503701195529,+0.661,+0.539,-0.257,-0.454,+1.015,-0.164,-0.223,+7.688,-1.875,+0.438,-4, 7, 3, 0, -7, -11, 8, -12,-2.0491684562512655,1.2763493438205897
1503701195544,+0.661,+0.540,-0.256,-0.454,+0.962,-0.132,-0.243,+6.250,+1.438,+3.625,-25, -10, -1, -4, -6, 0, 2, -1,-2.0513697407563742,1.2775667456639028
1503701195567,+0.660,+0.541,-0.255,-0.454,+0.932,-0.124,-0.271,+7.438,+6.500,+6.625,-14, 7, 3, 1, -4, -11, -7, -4,-2.051630733123819,1.2784763234342542
1503701195583,+0.660,+0.543,-0.255,-0.453,+0.947,-0.145,-0.244,+7.188,+7.875,+3.688,-5, -29, -1, -1, -11, -13, -5, -11,-2.055658677548401,1.2832983605399113
1503701195604,+0.659,+0.544,-0.254,-0.452,+0.992,-0.160,-0.254,+8.750,+5.875,+3.250,-10, 10, 10, 2, 5, 3, -3, -14,-2.05656668849715,1.2840820236715451
1503701195627,+0.660,+0.544,-0.252,-0.452,+1.003,-0.163,-0.241,+7.750,-5.188,+0.312,4, -7, -7, -2, 0, -4, -1, 4,-2.0595341018909976,1.2819082884120474
1503701195642,+0.661,+0.544,-0.251,-0.451,+0.981,-0.165,-0.228,+5.812,-9.562,-0.312,-2, 5, -9, -6, -3, -5, -5, -2,-2.062616420096442,1.2808392286323935
1503701199311,+0.681,+0.579,-0.242,-0.377,+0.999,-0.126,-0.163,-0.375,+5.500,-3.438,-6, 4, -5, 1, -15, 4, 9, 4,-2.2164882801903385,1.3554687860224006
1503701199332,+0.681,+0.579,-0.243,-0.376,+1.011,-0.096,-0.165,-2.125,+3.062,-7.375,8, -10, -6, 4, -8, 3, 1, 11,-2.2166118269232418,1.356479636064706
1503701199347,+0.683,+0.578,-0.244,-0.375,+0.994,-0.067,-0.171,+0.250,-7.875,-10.125,25, 2, -6, -7, 3, 1, -1, 11,-2.2186425858417644,1.3554237854137643
1503701199369,+0.685,+0.576,-0.244,-0.374,+0.969,-0.094,-0.168,+1.500,-10.312,-10.125,-9, -6, -4, -1, 13, 3, 3, 8,-2.2198404864991974,1.3506981008051773
1503701199392,+0.685,+0.575,-0.244,-0.374,+0.989,-0.101,-0.167,-0.188,-6.875,-5.750,7, 7, 9, 3, 15, 8, -2, 7,-2.2182925702561964,1.3481392707296476
1503701199412,+0.686,+0.575,-0.244,-0.373,+0.997,-0.082,-0.150,-1.750,-1.000,-3.375,-21, 8, 3, -7, -7, -2, 1, -9,-2.220867894107408,1.3482861206748253
1503701199429,+0.686,+0.574,-0.245,-0.373,+1.043,-0.100,-0.135,-5.312,-8.562,-2.438,-5, -4, -1, 2, -2, -14, -5, -11,-2.218626823785928,1.346853566252951
1503701199452,+0.687,+0.573,-0.245,-0.374,+1.043,-0.088,-0.157,-8.500,-12.875,-0.938,-3, 3, -6, -3, -13, 2, 3, -7,-2.2180011580521293,1.344666544512328
1503701199467,+0.688,+0.570,-0.245,-0.375,+0.961,-0.084,-0.199,-9.125,-12.812,-3.562,-20, 11, 0, 0, -2, 1, -1, -13,-2.2143078969671834,1.3373883380111018
1503701199489,+0.690,+0.568,-0.246,-0.376,+0.951,-0.080,-0.211,-7.188,-12.500,-3.000,-4, -2, 4, 9, 5, -5, -8, -43,-2.2132512413423737,1.3340802167860737
1503701199512,+0.690,+0.566,-0.246,-0.377,+0.971,-0.074,-0.204,-7.875,-8.750,-2.500,-10, 0, 4, 0, -3, 0, 2, 12,-2.2093618788894958,1.3291164604276957
1503701199527,+0.691,+0.565,-0.247,-0.377,+1.004,-0.085,-0.178,-8.188,-6.500,-2.500,13, -6, -7, -5, 15, 9, -2, 5,-2.2089320106751513,1.327994005549323
1503701199549,+0.691,+0.564,-0.248,-0.378,+1.007,-0.090,-0.163,-10.812,-8.312,-2.125,3, 5, 2, -4, -7, -17, -6, -9,-2.205906661937635,1.32672698798591
1503701199572,+0.692,+0.562,-0.248,-0.380,+1.009,-0.079,-0.174,-11.750,-13.625,-0.188,13, -31, -18, -6, -5, -1, 1, 6,-2.202997992064772,1.3221859657809039
1503701199587,+0.693,+0.559,-0.249,-0.381,+0.969,-0.071,-0.188,-12.125,-18.250,-0.250,-8, 4, -4, -3, -8, -1, 0, -13,-2.1987424228379195,1.3161729907579816
1503701199611,+0.694,+0.556,-0.248,-0.383,+0.966,-0.081,-0.210,-11.375,-19.375,+1.500,-1, -29, -14, 0, 16, 4, 3, -4,-2.1950072939391228,1.3079937254069807
1503701199632,+0.695,+0.554,-0.248,-0.386,+0.966,-0.089,-0.215,-13.375,-15.562,+4.938,10, 10, 6, 12, 4, 1, 4, 2,-2.191343527638276,1.3036458210987498
1503701199647,+0.694,+0.553,-0.250,-0.387,+0.915,-0.060,-0.198,-15.688,-3.500,+1.250,0, 30, 6, -8, -23, -4, 0, -11,-2.1859058598954992,1.3033112044297144
1503701199669,+0.693,+0.553,-0.251,-0.389,+0.964,-0.093,-0.241,-14.938,+8.938,+6.062,-9, 0, -4, -5, -3, 5, 0, 13,-2.1818377586422075,1.304458761207604
1503701199692,+0.692,+0.552,-0.253,-0.391,+0.993,-0.042,-0.235,-15.562,-1.062,+5.625,18, -1, 3, 1, -23, 6, 0, 7,-2.175622164224474,1.3042916314620345
1503701199711,+0.692,+0.552,-0.253,-0.392,+0.977,-0.052,-0.240,-6.625,+2.500,+4.000,-2, 1, -1, -6, 3, 7, 2, -6,-2.174834037968333,1.3044252262781775
1503701199729,+0.692,+0.551,-0.253,-0.392,+0.964,-0.060,-0.232,-3.062,-5.375,+1.312,18, 4, 2, -2, -24, -16, -6, -14,-2.173300974671147,1.3019245780870927
1503701199752,+0.693,+0.549,-0.252,-0.393,+0.961,-0.069,-0.244,-1.062,-8.812,+0.688,2, -1, -3, 4, 15, -4, -7, -2,-2.171918439400008,1.2961697471194287
1503701199767,+0.693,+0.549,-0.252,-0.393,+0.949,-0.074,-0.250,-0.625,-1.875,+0.000,-9, -7, 4, -1, 34, 6, 4, 29,-2.171918439400008,1.2961697471194287
1503701199790,+0.693,+0.550,-0.252,-0.393,+0.967,-0.086,-0.249,-3.062,+6.312,+4.812,-11, 1, 1, 1, 10, -4, 3, 3,-2.1734496868707796,1.2986685887128278
1503701199812,+0.691,+0.551,-0.253,-0.393,+1.004,-0.059,-0.235,-1.812,+13.750,+4.500,-4, -3, 3, 5, 8, 4, -1, -1,-2.1706720569741105,1.301765646151922
1503701199827,+0.690,+0.553,-0.253,-0.393,+1.013,-0.059,-0.242,+3.875,+15.938,+5.125,-12, 32, 5, 2, -7, -2, 0, -9,-2.1719135254735353,1.306479491679329
1503701199849,+0.690,+0.554,-0.253,-0.392,+0.967,-0.061,-0.220,+6.562,+4.875,+1.188,5, 7, -1, -4, -11, -4, 2, 27,-2.1742396656107474,1.3088523469852684
1503701199872,+0.690,+0.555,-0.252,-0.391,+0.950,-0.112,-0.194,+7.750,+1.375,-1.812,16, 1, -4, -1, -9, -1, 1, -20,-2.1772004809003334,1.31004696203348
1503701199888,+0.690,+0.556,-0.251,-0.390,+0.954,-0.119,-0.191,+3.500,+1.688,-3.812,-1, -8, -2, 1, 5, 7, 2, 7,-2.180169059540183,1.3112509006611475
1503701199909,+0.690,+0.556,-0.252,-0.389,+0.996,-0.105,-0.168,-0.625,-0.875,-4.688,2, -9, -3, -2, 4, 1, -2, -1,-2.1803229899651786,1.3122977633681963
1503701199932,+0.690,+0.556,-0.252,-0.389,+1.031,-0.090,-0.178,-3.750,-2.562,-3.188,-4, 2, 5, -1, 0, 6, 2, 4,-2.1803229899651786,1.3122977633681963
1503701199947,+0.691,+0.555,-0.253,-0.389,+0.999,-0.061,-0.194,-3.562,-7.500,-4.875,11, -11, -3, -3, -4, 1, -3, -14,-2.179972712262428,1.3112530128169282
1503701199969,+0.692,+0.553,-0.253,-0.388,+0.948,-0.067,-0.217,-2.062,-11.812,-6.750,-2, 7, -4, -1, -1, -8, -3, -1,-2.179530278664828,1.3063961058602078
1503701199992,+0.693,+0.552,-0.253,-0.389,+0.966,-0.101,-0.190,-6.812,-10.938,-1.688,-5, 2, 1, -2, -5, -5, -4, -16,-2.179041435830284,1.3043159311580022
1503701200007,+0.693,+0.550,-0.253,-0.391,+1.034,-0.091,-0.207,-12.312,-6.938,+3.062,-11, -18, -23, -4, -10, -4, -3, -12,-2.1744009734589276,1.299583812979187
1503701200029,+0.693,+0.549,-0.254,-0.392,+1.021,-0.023,-0.225,-10.188,-9.250,+1.438,-4, -27, -6, 0, -1, -24, -10, 4,-2.171458792774086,1.2984136280350296
1503701200052,+0.695,+0.547,-0.254,-0.393,+0.950,-0.016,-0.268,-2.438,-10.750,+1.375,-14, -5, 2, -8, -14, 3, 8, 20,-2.1713246054681083,1.294161929368378
1503701200067,+0.696,+0.546,-0.252,-0.393,+0.911,-0.071,-0.248,+0.625,-9.500,+5.000,-7, 3, 2, -13, -35, 2, 2, 2,-2.172897007377647,1.2895887863380964
1503701200089,+0.695,+0.546,-0.251,-0.395,+0.943,-0.109,-0.229,-3.250,-1.062,+9.312,-5, 9, 8, -10, -12, -3, 1, 0,-2.170084514869281,1.2883757684556165
1503701203052,+0.572,+0.542,-0.253,-0.562,+0.909,-0.313,-0.235,-7.938,+2.000,-7.562,-1, 2, -3, -6, -5, -2, -2, -1,-1.8286632942519965,1.2660764376173366
1503701203074,+0.572,+0.541,-0.255,-0.562,+0.914,-0.305,-0.237,-8.875,+2.125,-9.250,1, 5, 12, 6, 1, 1, -1, 0,-1.8260124765722086,1.266290727334298
1503701203090,+0.573,+0.540,-0.257,-0.561,+0.921,-0.304,-0.237,-8.125,+3.625,-11.188,2, 8, -2, -3, 0, 1, -1, -3,-1.8257106043780373,1.2667029474024287
1503701203112,+0.573,+0.539,-0.259,-0.560,+0.912,-0.306,-0.243,-7.438,+3.562,-13.562,2, 4, 8, 3, 2, 0, -2, 1,-1.8233835731186216,1.2667912185930421
1503701203135,+0.575,+0.538,-0.261,-0.559,+0.928,-0.293,-0.257,-5.500,+1.000,-15.938,-5, -4, -9, -4, -3, -1, -2, 0,-1.8251437388130738,1.267571920412281
1503701203150,+0.576,+0.536,-0.263,-0.558,+0.911,-0.278,-0.268,-3.875,+0.438,-16.312,-19, -8, 1, -1, -1, -2, 0, 0,-1.8228419095654662,1.2655243585641183
1503701203173,+0.577,+0.536,-0.264,-0.556,+0.932,-0.285,-0.238,-1.375,+3.000,-13.312,0, -2, 0, -2, -2, -1, 1, -1,-1.825210660023989,1.2669319202046974
1503701203195,+0.577,+0.536,-0.266,-0.555,+0.969,-0.288,-0.241,-1.375,+7.938,-9.812,6, 10, 11, 4, 2, 0, 0, -1,-1.8249501239975225,1.2695750122305416
1503701203210,+0.578,+0.536,-0.268,-0.554,+0.959,-0.278,-0.238,-0.750,+4.688,-10.500,-4, -6, -6, -2, -2, -1, -2, -2,-1.8267315430022353,1.2725550180799294
1503701203235,+0.579,+0.536,-0.268,-0.553,+0.951,-0.276,-0.240,-0.438,-4.375,-11.000,-3, -14, -13, -2, -1, 1, -1, 2,-1.8290778635630336,1.2727191806481688
1503701203255,+0.581,+0.535,-0.269,-0.551,+0.976,-0.270,-0.201,+0.500,-8.062,-11.625,2, 5, 7, 0, 0, 0, -2, 1,-1.831479997175676,1.2719658658603112
1503701203271,+0.582,+0.534,-0.270,-0.551,+0.986,-0.266,-0.229,-3.625,-3.312,-5.250,3, 3, -1, -2, -2, -1, 2, 0,-1.8312316155973984,1.2712212770492946
1503701203293,+0.582,+0.534,-0.270,-0.551,+0.933,-0.246,-0.249,-2.438,+1.375,-2.625,-2, -4, -4, -1, -1, -2, -2, -1,-1.8312316155973984,1.2712212770492946
1503701203315,+0.583,+0.533,-0.270,-0.551,+0.937,-0.262,-0.220,-3.500,-5.000,-1.562,-8, -5, -9, -3, -2, -2, -3, 1,-1.831278018272506,1.2690728275379755
1503701203330,+0.583,+0.533,-0.270,-0.551,+0.950,-0.276,-0.220,-3.188,-5.062,-2.188,0, -4, -12, -3, 0, 0, 0, -4,-1.831278018272506,1.2690728275379755
1503701203353,+0.583,+0.532,-0.271,-0.551,+0.953,-0.299,-0.222,-6.000,-1.250,-0.812,18, 11, -8, -3, 0, -1, -2, -3,-1.8290000004275868,1.2680136976824947
1503701203375,+0.582,+0.532,-0.271,-0.552,+0.942,-0.274,-0.252,-9.188,+0.875,+0.500,-1, -11, -8, -3, -1, -1, -2, 0,-1.8266422641141191,1.2678519429576924
1503701203390,+0.582,+0.531,-0.272,-0.553,+0.917,-0.238,-0.265,-8.562,+1.562,+0.500,0, -18, 2, -1, 0, 0, 2, 0,-1.8240646705463581,1.2669711250359734
1503701203413,+0.582,+0.530,-0.273,-0.553,+0.916,-0.260,-0.233,-5.875,-2.125,-2.500,1, 5, 5, 0, -3, -2, 0, -1,-1.8217977757595352,1.2659308372105618
1503701203436,+0.583,+0.529,-0.274,-0.552,+0.936,-0.258,-0.245,-4.188,-2.375,-8.188,-1, 8, 0, 1, -1, 0, -1, -1,-1.8218943692586613,1.2650583350257367
1503701203450,+0.584,+0.528,-0.275,-0.552,+0.889,-0.256,-0.260,-4.438,-2.562,-11.625,-1, 2, 7, 1, -2, -1, -1, -1,-1.8217002152360506,1.2643645477885173
1503701203474,+0.585,+0.527,-0.276,-0.551,+0.911,-0.259,-0.268,-2.125,+1.250,-11.938,-4, 6, 8, 0, 3, -1, -1, -3,-1.8218162945145897,1.2635064486795398
1503701203495,+0.586,+0.527,-0.277,-0.550,+0.953,-0.261,-0.249,-0.688,+5.688,-9.188,-3, -7, -2, 2, 1, 0, -2, -1,-1.8239087321742755,1.2650974145392426
1503701203510,+0.586,+0.528,-0.279,-0.548,+0.973,-0.246,-0.235,-1.000,+5.312,-9.000,1, -8, -2, -3, -3, 0, 3, 1,-1.8259352663590125,1.2700683075497383
1503701203533,+0.587,+0.527,-0.280,-0.547,+0.984,-0.230,-0.225,-0.375,-0.750,-9.125,-2, 1, -2, -1, -1, -3, -2, 0,-1.8260621034804074,1.2692180653870169
1503701203555,+0.588,+0.527,-0.280,-0.547,+0.970,-0.225,-0.244,-1.125,-4.750,-4.688,-16, 2, 4, 3, 1, 0, 1, -3,-1.8281207761275715,1.2695408999443065
1503701203572,+0.588,+0.526,-0.280,-0.546,+0.944,-0.244,-0.234,-1.438,-0.500,-3.188,-11, -4, -8, -3, -6, 0, 0, -17,-1.8264734130419236,1.2669330502273657
1503701203593,+0.589,+0.526,-0.281,-0.546,+0.951,-0.234,-0.244,-1.750,-1.562,-2.312,-4, -1, 1, 1, -1, -1, -1, 8,-1.8282608678574133,1.2686973288169505
1503701203615,+0.589,+0.525,-0.280,-0.546,+0.939,-0.235,-0.248,-2.500,-4.938,-2.375,16, -8, -5, -4, -1, -1, -4, -6,-1.8265862078008483,1.2648247654185882
1503701203630,+0.589,+0.525,-0.281,-0.546,+0.942,-0.253,-0.232,-4.312,-4.375,-2.625,4, 1, -1, 0, -1, 0, 1, 3,-1.8263122528188818,1.2662669524882721
1503701203653,+0.590,+0.524,-0.281,-0.547,+0.960,-0.255,-0.219,-7.062,-3.438,-2.875,-12, 0, -3, -2, -1, -1, 1, 14,-1.8261263079216636,1.264339056320686
1503701203677,+0.590,+0.523,-0.282,-0.547,+0.947,-0.244,-0.234,-10.125,-3.625,-4.250,12, -2, -8, -2, -1, -2, -3, 6,-1.8239146638266186,1.2633620587864125
1503701203690,+0.590,+0.521,-0.284,-0.547,+0.942,-0.234,-0.235,-11.500,-4.000,-7.625,-7, -2, -2, 0, 0, 0, -3, 0,-1.8195056506236242,1.2614328670788009
1503701203714,+0.591,+0.519,-0.285,-0.548,+0.948,-0.227,-0.259,-10.375,-7.312,-8.500,4, 7, 15, 5, 0, 0, 2, -2,-1.817163480454722,1.2585810201322296
1503701203735,+0.592,+0.517,-0.286,-0.548,+0.938,-0.228,-0.265,-10.750,-8.438,-8.625,9, 0, 7, 0, -1, -1, -1, -3,-1.815144155345412,1.2555727106634058
1503701203750,+0.593,+0.515,-0.286,-0.549,+0.931,-0.233,-0.233,-12.062,-7.562,-6.812,2, 3, -1, -2, -1, -1, -4, 6,-1.813110503247775,1.251300012492693
1503701203781,+0.593,+0.513,-0.288,-0.549,+0.962,-0.227,-0.209,-13.500,-6.750,-6.250,-10, -1, -3, -2, -1, -2, 1, 5,-1.8087886263506379,1.249474107381956
1503701203795,+0.593,+0.512,-0.290,-0.550,+0.933,-0.222,-0.246,-16.812,-2.750,-6.312,4, -6, -8, -2, -3, 0, 0, -2,-1.8061058213571364,1.2502433579897154
1503701203811,+0.592,+0.510,-0.292,-0.551,+0.912,-0.221,-0.259,-21.250,+0.500,-4.188,-4, 3, 1, -5, -1, -1, -1, 2,-1.7994384006658044,1.2483355010592019
1503701203833,+0.591,+0.508,-0.295,-0.552,+0.951,-0.202,-0.247,-21.812,+4.000,-5.000,0, 3, 4, 1, 0, 0, -2, 1,-1.7925591497424165,1.2479674852533853
1503701203855,+0.591,+0.506,-0.298,-0.553,+0.974,-0.188,-0.273,-19.812,-0.062,-5.750,9, 9, 1, -1, 1, -1, -4, -9,-1.7878310353465434,1.2479854371088754
1503701203870,+0.592,+0.503,-0.300,-0.554,+0.952,-0.188,-0.285,-17.938,-6.375,-8.188,4, -8, -7, -2, 1, -1, -1, 4,-1.783602949146935,1.2445284590939032
1503701203893,+0.593,+0.500,-0.301,-0.555,+0.933,-0.184,-0.284,-15.500,-8.312,-10.250,7, -3, 0, -2, 0, 1, 3, 13,-1.7796446503219443,1.2395999917525518
1503701203919,+0.594,+0.497,-0.302,-0.555,+0.938,-0.180,-0.289,-13.750,-9.688,-9.688,2, -11, -2, -1, -2, -2, 2, 2,-1.775980288252108,1.2345119177321289
1503701203929,+0.595,+0.495,-0.304,-0.556,+0.941,-0.183,-0.298,-12.562,-5.500,-7.312,3, 8, 5, 1, -1, 0, 0, 5,-1.7737594689556986,1.2335127011482652
1503701203951,+0.594,+0.494,-0.305,-0.556,+0.966,-0.171,-0.290,-12.625,+0.062,-2.312,-13, -2, 8, 1, 0, -1, 0, 4,-1.7695614410468117,1.232422808747788
1503701203975,+0.594,+0.493,-0.307,-0.557,+0.997,-0.142,-0.288,-9.500,+0.062,-1.312,-8, -8, -3, 1, -1, 0, -4, 3,-1.7670813654672666,1.23343475802733
1503701203989,+0.595,+0.492,-0.307,-0.557,+1.001,-0.130,-0.301,-4.125,-5.438,-1.125,1, -7, -2, -1, 0, -1, 0, -3,-1.7673889794474669,1.2314760777023623
1503701204012,+0.597,+0.490,-0.306,-0.557,+0.981,-0.149,-0.319,+0.750,-13.750,+0.812,1, 0, -2, -4, 0, 0, -2, -1,-1.7682221793600874,1.2260171404839144
1503701204034,+0.598,+0.489,-0.303,-0.558,+0.965,-0.166,-0.334,+4.250,-17.250,+4.750,4, 5, -2, -1, -3, -1, 0, -8,-1.76889979321373,1.2196289028625207
1503701206756,+0.656,+0.558,-0.224,-0.456,+0.946,-0.214,-0.225,-4.375,-4.125,-4.625,-4, -9, -4, 0, 1, 0, -1, -2,-2.0887706031024815,1.283258449731478
1503701206772,+0.656,+0.558,-0.225,-0.456,+0.974,-0.212,-0.207,-5.062,+0.812,-2.625,-2, 0, 1, -3, -12, -4, -1, -2,-2.088205211464673,1.284404469723914
1503701206794,+0.656,+0.558,-0.226,-0.456,+0.981,-0.204,-0.235,-6.188,+1.500,-1.562,2, -8, 0, 1, 6, -1, -2, -2,-2.087640940962024,1.2855529593664465
1503701206817,+0.656,+0.557,-0.227,-0.456,+0.969,-0.188,-0.244,-5.688,-1.562,-0.312,-2, 5, 0, -3, -4, 1, 1, 4,-2.0853235157363197,1.284138361245052
1503701206832,+0.656,+0.556,-0.227,-0.456,+0.945,-0.183,-0.243,-4.688,-4.688,-0.312,0, -1, -1, 3, -1, -1, -3, -3,-2.0835674487572007,1.2815734338081182
1503701206855,+0.657,+0.555,-0.227,-0.457,+0.948,-0.191,-0.232,-4.375,-5.000,-1.125,-4, 4, 1, 3, -10, -4, -2, -4,-2.083038518756361,1.2794692071224467
1503701206876,+0.657,+0.555,-0.228,-0.457,+0.969,-0.206,-0.237,-5.625,-2.375,-1.688,-1, 1, 0, -3, 3, 1, 0, 0,-2.082482780551954,1.280628222931042
1503701206902,+0.657,+0.554,-0.228,-0.458,+0.960,-0.218,-0.229,-7.812,-0.750,-1.438,4, -3, -4, -4, 0, 0, 0, -2,-2.080077333651597,1.2782050826419713
1503701206916,+0.657,+0.553,-0.229,-0.458,+0.950,-0.232,-0.229,-10.375,-2.000,-1.688,-2, -5, 1, 3, 3, 0, 0, -1,-2.077777059756903,1.2768154935674834
1503701206936,+0.657,+0.552,-0.230,-0.459,+0.943,-0.209,-0.229,-12.312,-2.188,-3.438,-3, -1, 0, -2, 2, -4, -1, -2,-2.074830816603374,1.275570513180616
1503701206952,+0.657,+0.551,-0.232,-0.460,+0.938,-0.199,-0.222,-13.438,-4.688,-5.562,1, -2, -3, -3, 2, -1, -1, -15,-2.0713540398740298,1.2755137407913608
1503701206975,+0.657,+0.549,-0.234,-0.460,+0.929,-0.185,-0.250,-13.938,-1.812,-7.562,-2, 2, -2, -4, 1, 1, -2, 6,-2.0667912819892305,1.2728035703375131
1503701206996,+0.658,+0.547,-0.236,-0.460,+0.950,-0.178,-0.255,-13.625,-1.375,-9.625,0, -5, -6, -3, -2, -2, -2, -3,-2.064163661760729,1.2704548614752211
1503701207012,+0.658,+0.546,-0.238,-0.460,+0.951,-0.182,-0.267,-12.125,-1.750,-9.125,-1, 0, -2, 1, -5, -2, 0, 3,-2.061374420869334,1.2703305630602963
1503701207036,+0.659,+0.544,-0.240,-0.461,+0.948,-0.197,-0.252,-10.125,-3.250,-8.438,0, -1, 0, 2, 0, -1, -3, -5,-2.058167002479777,1.2681852948026353
1503701207056,+0.659,+0.543,-0.241,-0.461,+0.996,-0.221,-0.200,-11.938,-5.562,-5.750,0, 7, -1, -6, -11, -3, 1, -6,-2.0559235523486548,1.2668881966173005
1503701207072,+0.659,+0.542,-0.243,-0.461,+0.987,-0.167,-0.237,-14.875,-1.875,-8.750,1, -2, -7, -4, -2, -1, -3, 2,-2.053171473012253,1.2668212204224298
1503701207096,+0.661,+0.539,-0.245,-0.461,+0.900,-0.129,-0.280,-13.938,-7.750,-12.500,0, 0, -7, -3, -3, -3, -2, -1,-2.0508894091703707,1.262442730570977
1503701207116,+0.662,+0.536,-0.247,-0.461,+0.917,-0.150,-0.283,-9.562,-8.875,-13.562,-2, 1, 0, -2, -3, -1, -2, -1,-2.0467138271873053,1.2577848424570748
1503701207132,+0.664,+0.538,-0.247,-0.457,+0.917,-0.327,-0.265,+13.938,+7.500,-30.625,-2, -2, 2, -1, -2, -1, -1, -6,-2.0565127217430517,1.2628087826066425
1503701207155,+0.663,+0.536,-0.251,-0.458,+0.996,+0.061,-0.243,-21.562,+6.625,+9.875,2, -4, -4, -1, -1, -2, 0, -1,-2.048528724189451,1.2626396413979188
1503701207176,+0.663,+0.536,-0.252,-0.458,+0.957,-0.200,-0.235,-5.812,+1.875,-9.625,2, 2, -2, -1, -8, -1, -1, 0,-2.0480297783272894,1.2638914494997207
1503701207193,+0.663,+0.536,-0.254,-0.458,+0.995,-0.214,-0.235,-9.500,-0.312,-9.250,-2, 0, -4, -6, -18, -2, -2, 3,-2.0470347670888,1.2664023151737585
1503701207214,+0.664,+0.533,-0.256,-0.458,+0.970,-0.135,-0.263,-15.000,-6.312,-9.938,-3, -8, -1, -2, 5, -1, -3, 1,-2.0429510603405467,1.2618563616144785
1503701207237,+0.665,+0.531,-0.257,-0.458,+0.854,-0.185,-0.280,-10.625,-7.250,-14.375,-3, -7, -2, -2, 2, -1, -1, -6,-2.0410742871721173,1.2585382620645165
1503701207253,+0.665,+0.529,-0.258,-0.459,+0.956,-0.090,-0.265,-15.500,-5.125,-1.375,0, 11, 5, -2, 2, 0, -1, -3,-2.0366284642067445,1.255069164341829
1503701207275,+0.666,+0.528,-0.260,-0.459,+0.970,-0.184,-0.282,-6.938,-0.312,-9.438,1, 0, -3, 1, 1, -2, -2, 0,-2.0359832456615123,1.2555183804972143
1503701207297,+0.666,+0.527,-0.261,-0.459,+0.983,-0.148,-0.254,-11.625,-5.938,-7.438,-1, -7, -3, -7, -4, -2, 0, 1,-2.0338382128251355,1.2543639713670935
1503701207313,+0.667,+0.524,-0.263,-0.459,+0.977,-0.106,-0.246,-13.375,-9.875,-12.375,3, 4, -3, -1, -6, -2, -1, -1,-2.029897260666216,1.2499775304075398
1503701207335,+0.669,+0.521,-0.265,-0.459,+0.959,-0.104,-0.258,-12.938,-10.750,-12.375,-2, -6, -6, -3, 0, -2, -4, -2,-2.028014593965604,1.2459748132245851
1503701207356,+0.670,+0.519,-0.266,-0.459,+0.962,-0.118,-0.292,-12.875,-7.188,-8.188,0, 0, 0, -3, 1, 0, 0, -3,-2.0262759516593474,1.2427853204025359
1503701207373,+0.670,+0.517,-0.268,-0.460,+0.974,-0.084,-0.279,-12.938,-9.000,-4.562,-9, 0, 9, 2, 7, 0, -2, -2,-2.021488017477159,1.2407708960941213
1503701207395,+0.671,+0.515,-0.268,-0.461,+0.969,-0.082,-0.278,-9.625,-10.438,-2.500,2, 2, -1, 5, 5, -1, -3, 1,-2.0196553605289598,1.2364755081329977
1503701207416,+0.672,+0.512,-0.269,-0.462,+0.961,-0.111,-0.292,-11.188,-13.500,-4.812,-1, 7, 12, 3, -3, 0, 2, 1,-2.015766911475262,1.2311281589113228
1503701207433,+0.673,+0.510,-0.269,-0.463,+0.945,-0.093,-0.305,-11.500,-13.188,-3.812,-3, -1, 0, -10, -3, 0, 1, 2,-2.013979607055618,1.2268706152559163
1503701207455,+0.674,+0.508,-0.270,-0.463,+0.932,-0.070,-0.321,-9.750,-7.875,-3.250,3, 5, -1, 6, 3, 0, -1, -2,-2.0123532253524736,1.2237806947033207
1503701207476,+0.675,+0.506,-0.270,-0.464,+0.938,-0.078,-0.318,-5.812,-5.875,-1.438,3, 1, -6, 0, 1, -1, -2, -2,-2.0106043280137094,1.2195535898172716
1503701207493,+0.676,+0.505,-0.270,-0.464,+0.948,-0.105,-0.312,-4.000,-6.562,-4.125,1, -8, -3, -1, 2, 1, 0, -5,-2.0110567243966733,1.217527418282491
1503701207514,+0.677,+0.504,-0.271,-0.464,+0.933,-0.101,-0.308,-3.312,-5.375,-7.125,5, 1, 12, 3, -2, 2, -3, -17,-2.011084274453489,1.2168482898263038
1503701207538,+0.678,+0.503,-0.271,-0.463,+0.958,-0.105,-0.296,-3.938,-5.812,-7.188,1, -5, -6, 1, 4, 0, -2, 7,-2.012131628804844,1.2146406914338648
1503701207552,+0.678,+0.501,-0.272,-0.463,+0.963,-0.088,-0.305,-6.188,-4.688,-7.688,0, 8, -8, -6, -4, -2, -2, 3,-2.0085140856654498,1.2112543547558676
1503701209156,+0.646,+0.574,-0.190,-0.467,+0.933,-0.293,-0.204,+3.375,+10.250,-34.250,-13, 4, 4, 1, 3, -5, -2, 3,-2.1118364234885645,1.2862137323437186
1503701209179,+0.648,+0.574,-0.193,-0.462,+0.950,-0.294,-0.202,+3.562,+5.438,-37.250,-8, -8, -2, -1, 0, 4, 10, 3,-2.1170844309342045,1.2894377620906474
1503701209194,+0.652,+0.573,-0.197,-0.457,+0.954,-0.278,-0.199,+3.438,-4.500,-42.688,2, -6, 0, -2, -2, -3, -3, 2,-2.123519240581233,1.2917037538285
1503701209218,+0.656,+0.570,-0.201,-0.452,+0.955,-0.262,-0.215,+1.188,-7.250,-46.312,-1, 3, -5, -2, -7, -8, -3, 5,-2.1264334414263675,1.2887073727603577
1503701209242,+0.659,+0.569,-0.205,-0.447,+0.945,-0.244,-0.202,-1.812,-2.250,-43.625,5, 9, 3, 1, -1, 0, 1, -5,-2.1311960949573816,1.2907182858267705
1503701209254,+0.662,+0.568,-0.209,-0.442,+0.944,-0.205,-0.209,-2.562,+2.188,-42.500,2, 1, 3, -1, 0, -4, -1, 0,-2.136003788014349,1.292756950208668
1503701209276,+0.665,+0.566,-0.214,-0.437,+0.984,-0.177,-0.227,-1.125,+3.875,-41.250,11, 4, -2, -2, 3, 2, -3, -5,-2.13851312293062,1.2933063268475313
1503701209299,+0.668,+0.565,-0.218,-0.432,+0.998,-0.173,-0.224,-0.750,+2.250,-37.000,5, -1, -6, -1, -2, 0, -5, -19,-2.143430429370252,1.2954215343116096
1503701209314,+0.670,+0.565,-0.221,-0.429,+1.001,-0.167,-0.228,-0.250,+3.375,-31.000,-5, 2, -1, -3, -1, 1, -1, 9,-2.1473987130746126,1.2989761776888828
1503701209336,+0.671,+0.564,-0.224,-0.425,+1.011,-0.143,-0.221,-1.125,+2.750,-23.375,-9, -7, -1, -2, -3, -3, -7, -5,-2.1486305089011353,1.299535460009025
1503701209359,+0.672,+0.564,-0.226,-0.423,+1.009,-0.151,-0.217,-1.938,+3.188,-15.938,0, 2, 2, 1, 9, 4, 5, 9,-2.150684237959681,1.3018203236817403
1503701209374,+0.673,+0.564,-0.228,-0.422,+1.000,-0.144,-0.210,-2.500,+3.812,-9.312,-3, 8, 6, -6, -2, 0, -1, -3,-2.151988888213941,1.3042320126086717
1503701209396,+0.672,+0.564,-0.229,-0.421,+1.004,-0.134,-0.220,-3.562,+3.625,-4.000,2, 1, -6, 5, 3, 0, -1, -2,-2.150297047968636,1.3049284017295602
1503701209419,+0.672,+0.564,-0.230,-0.421,+0.997,-0.138,-0.208,-3.250,+2.938,-1.438,4, 2, 3, 0, -6, -2, -1, -1,-2.149670504635177,1.306051064163983
1503701209434,+0.672,+0.564,-0.230,-0.421,+0.983,-0.152,-0.215,-1.125,-1.500,+0.188,3, -2, -5, -2, -9, -4, 0, 2,-2.149670504635177,1.306051064163983
1503701209456,+0.673,+0.563,-0.230,-0.421,+0.977,-0.158,-0.216,+0.188,-4.562,+0.562,-1, 6, 2, -1, -2, 0, -1, -1,-2.149828629441544,1.3037877975588321
1503701209479,+0.673,+0.563,-0.229,-0.421,+0.960,-0.168,-0.217,-0.688,-4.188,+0.750,3, 4, -9, -4, -1, 0, -2, -10,-2.15045385766539,1.3026642615391522
1503701209494,+0.673,+0.563,-0.229,-0.421,+0.948,-0.169,-0.218,-0.688,-0.938,-0.125,-5, -5, 2, 3, 5, 3, 1, -5,-2.15045385766539,1.3026642615391522
1503701209518,+0.673,+0.563,-0.229,-0.421,+0.932,-0.162,-0.231,-0.562,+1.938,-2.938,-1, 4, -1, 0, -1, 0, 1, 0,-2.15045385766539,1.3026642615391522
1503701209539,+0.674,+0.563,-0.230,-0.420,+0.930,-0.158,-0.225,+0.750,+1.188,-5.562,4, -6, -5, -3, 1, -1, -2, 1,-2.152392434461637,1.3039658244268113
1503701209554,+0.675,+0.562,-0.230,-0.419,+0.963,-0.153,-0.212,+2.062,-0.938,-10.500,-1, 5, 4, 2, 2, 3, 4, 12,-2.153311666166175,1.3015841079402326
1503701209576,+0.676,+0.562,-0.231,-0.417,+0.983,-0.154,-0.219,+2.062,-0.312,-12.125,-10, 11, -7, -1, -4, -3, -1, -1,-2.1560091519689344,1.3027634279783553
1503701209599,+0.677,+0.561,-0.232,-0.415,+0.953,-0.155,-0.232,+1.500,-3.125,-13.312,1, -15, -11, -6, -2, -3, -7, -20,-2.157077023625738,1.301387951621066
1503701209614,+0.678,+0.561,-0.232,-0.414,+0.950,-0.145,-0.229,+1.062,-1.562,-11.875,8, 12, -4, -5, -1, -2, 1, 1,-2.1596561490157873,1.3015651376596684
1503701209636,+0.679,+0.561,-0.234,-0.412,+0.959,-0.136,-0.215,+1.438,+2.875,-12.250,-14, -2, 2, -7, -1, 0, -2, -12,-2.161736291262252,1.3038757401642085
1503701209659,+0.680,+0.561,-0.235,-0.410,+0.978,-0.132,-0.198,+2.125,+3.625,-11.375,-2, -36, 9, 9, 6, 2, 2, -2,-2.164449580919996,1.305057180580279
1503701209676,+0.681,+0.561,-0.236,-0.408,+1.007,-0.132,-0.208,+4.562,+1.000,-14.938,4, -5, -13, -4, -1, 0, -3, 0,-2.167165929510717,1.3062386789356562
1503701209696,+0.682,+0.560,-0.236,-0.406,+0.967,-0.132,-0.214,+0.875,-4.688,-13.125,9, 2, 3, 0, 1, 5, 1, 0,-2.168922959368936,1.3037410490353398
1503701209719,+0.684,+0.559,-0.236,-0.406,+0.977,-0.178,-0.240,-2.250,-8.438,-11.188,-12, 0, 5, 4, 3, -3, -2, 6,-2.1709549646351114,1.3017969798303173
1503701209734,+0.685,+0.558,-0.238,-0.404,+0.980,-0.107,-0.201,-3.000,-5.062,-11.562,26, 15, -2, -9, -7, -4, 0, 4,-2.1714694296392545,1.3015811416432128
1503701209756,+0.686,+0.556,-0.238,-0.403,+0.996,-0.124,-0.221,-0.312,-9.750,-11.125,-9, -10, 5, -3, -4, -1, -4, 5,-2.170907048200733,1.296685299017697
1503701209779,+0.688,+0.554,-0.239,-0.403,+0.988,-0.072,-0.222,-2.625,-11.188,-9.125,-2, 4, 2, 2, 0, -2, 1, -9,-2.170779156580072,1.2933812317887587
1503701209794,+0.690,+0.552,-0.239,-0.401,+0.952,-0.100,-0.235,+1.188,-11.375,-13.125,3, 28, 4, -1, -2, -2, -2, 0,-2.1728827740189964,1.2886811483457206
1503701209816,+0.692,+0.551,-0.239,-0.401,+0.962,-0.103,-0.242,-1.750,-6.375,-8.750,-11, -7, 8, 7, -2, 3, 1, 8,-2.1749946897643664,1.2867805066578006
1503701209839,+0.693,+0.550,-0.240,-0.400,+0.995,-0.105,-0.219,-2.062,-4.688,-8.125,-8, 5, 5, 5, 5, 1, 1, 10,-2.1754428861466284,1.2855904140695393
1503701209854,+0.693,+0.550,-0.241,-0.399,+1.020,-0.104,-0.203,-2.062,-4.625,-6.500,7, 5, -5, -7, -5, -5, -1, 1,-2.175606362459104,1.2866086159149142
1503701209877,+0.694,+0.549,-0.241,-0.399,+0.998,-0.091,-0.215,-2.875,-8.188,-6.188,3, 11, 11, 5, 3, -1, -6, -7,-2.175901948378678,1.2844066883112266
1503701209899,+0.695,+0.547,-0.241,-0.399,+0.960,-0.091,-0.240,-5.000,-9.312,-3.250,-5, -2, -11, -12, -1, 2, 3, 1,-2.1746682221734726,1.279700130756143
1503701209916,+0.695,+0.546,-0.242,-0.400,+0.964,-0.108,-0.243,-8.125,-4.750,+0.062,0, -2, 8, 8, 2, -1, 2, 14,-2.1717168730961776,1.27849410840056
