Timestamp,Orientation X,Orientation Y,Orientation Z,Orientation W,Accelerometer X,Accelerometer Y,Accelerometer Z,Gyroscope X,Gyroscope Y,Gyroscope Z,EMG1,EMG2,EMG3,EMG4,EMG5,EMG6,EMG7,EMG8
1503599967797,-0.072,-0.028,-0.507,-0.859,+0.839,+0.025,-0.487,+0.938,+10.375,+7.188,-19, -20, 17, 0, -5, -37, 1, 15
1503599967819,-0.073,-0.027,-0.509,-0.858,+0.833,+0.020,-0.465,+4.688,+15.562,+12.750,-20, 42, 41, 10, 8, 17, -2, 0
1503599967834,-0.075,-0.024,-0.512,-0.856,+0.840,-0.009,-0.459,+6.125,+22.312,+18.812,-26, 2, 2, 5, -9, -47, 6, 9
1503599967858,-0.076,-0.022,-0.516,-0.853,+0.935,-0.039,-0.425,+8.000,+26.188,+20.125,-1, -21, -16, 0, 12, 10, 1, 3
1503599967879,-0.079,-0.018,-0.519,-0.851,+1.012,-0.073,-0.432,+10.188,+16.438,+21.562,-31, 0, -3, -7, -6, 24, -6, 11
1503599967895,-0.080,-0.015,-0.520,-0.850,+0.903,-0.078,-0.396,+8.312,+8.062,+14.500,14, -58, -25, -9, -6, -21, 14, -1
1503599967917,-0.080,-0.014,-0.520,-0.850,+0.772,-0.027,-0.424,+5.938,+3.375,+3.875,15, 1, 14, 15, 9, -14, -20, -53
1503599967939,-0.080,-0.012,-0.522,-0.849,+0.838,-0.036,-0.441,+9.438,+15.625,+11.562,35, -35, -4, -11, -7, 21, -7, 3
1503599967954,-0.082,-0.008,-0.527,-0.846,+0.947,-0.113,-0.415,+14.250,+30.375,+20.000,-35, -10, 8, 9, 8, 25, 3, 8
1503599967977,-0.082,-0.006,-0.531,-0.843,+1.044,-0.146,-0.299,+10.438,+21.812,+4.188,-30, 57, 14, -4, -4, 5, -7, 10
1503599968000,-0.080,-0.005,-0.532,-0.843,+0.998,-0.076,-0.390,+8.938,+2.938,-5.188,7, -34, -18, -9, 0, 15, -6, -8
1503599968014,-0.078,-0.004,-0.531,-0.844,+0.876,-0.053,-0.391,+7.062,-11.875,-8.312,33, -12, -3, 3, 12, 55, 10, -25
1503599968037,-0.077,-0.003,-0.529,-0.845,+0.842,-0.088,-0.371,+5.938,-8.188,-1.938,-14, -8, 0, -5, -16, -23, -1, 8
1503599968063,-0.078,-0.002,-0.531,-0.844,+0.893,-0.118,-0.378,+0.562,+8.625,+2.562,-19, -13, 4, 3, 7, 14, -3, 16
1503599968074,-0.078,-0.002,-0.532,-0.843,+0.963,-0.071,-0.333,-2.688,+2.125,+3.625,10, -7, -27, -14, -8, -23, -8, 0
1503599968097,-0.079,-0.003,-0.532,-0.843,+0.975,-0.071,-0.345,-5.625,-3.688,+1.438,-34, -29, -22, -12, -14, -21, -4, -14
1503599968119,-0.079,-0.004,-0.530,-0.845,+0.915,-0.034,-0.415,-4.875,-13.375,-1.312,40, 38, 1, -7, 2, 18, -17, 15
1503599968135,-0.079,-0.004,-0.528,-0.846,+0.930,-0.074,-0.376,-4.375,-15.375,+3.375,44, 6, 16, 1, -1, 13, 19, 5
1503599968157,-0.081,-0.004,-0.527,-0.846,+0.904,-0.094,-0.392,-5.188,-4.000,+5.625,40, 55, 2, 1, 6, 5, 3, 10
1503599968179,-0.081,-0.004,-0.526,-0.846,+0.923,-0.079,-0.402,-5.438,-6.000,+1.562,-68, 15, 19, 0, -3, -39, -1, -46
1503599968194,-0.081,-0.005,-0.525,-0.847,+0.947,-0.068,-0.396,-6.125,-7.812,-2.500,35, 14, 12, 10, 18, 41, 4, 20
1503599968217,-0.082,-0.005,-0.523,-0.849,+0.930,-0.099,-0.431,-5.375,-17.938,-0.625,-33, 45, 49, 8, -4, 22, 19, 5
1503599968239,-0.082,-0.006,-0.519,-0.851,+0.921,-0.095,-0.399,-7.250,-26.062,-2.062,19, -37, -25, -5, -2, 3, 1, 12
1503599968257,-0.082,-0.007,-0.515,-0.853,+0.890,-0.076,-0.414,-8.062,-26.688,-3.438,30, 90, 64, 17, 1, -7, -10, 1
1503599968277,-0.083,-0.008,-0.512,-0.855,+0.872,-0.077,-0.401,-10.375,-21.000,-2.375,47, -33, -23, -5, 3, 23, 1, 15
1503599968299,-0.083,-0.009,-0.510,-0.856,+0.870,-0.063,-0.452,-10.312,-15.938,-1.500,-43, -50, -23, -4, -16, -33, 11, -15
1503599968316,-0.083,-0.010,-0.507,-0.858,+0.895,-0.068,-0.436,-9.000,-15.438,-3.062,22, -7, -17, 0, 8, 6, -8, -5
1503599968337,-0.083,-0.012,-0.506,-0.859,+0.865,-0.086,-0.395,-10.438,-12.688,-8.438,-49, -75, -35, -9, -4, -10, -15, -1
1503599968365,-0.083,-0.014,-0.504,-0.860,+0.855,-0.078,-0.425,-11.750,-9.188,-7.188,-2, -33, -22, -8, 1, 9, 14, -19
1503599968374,-0.083,-0.016,-0.503,-0.860,+0.852,-0.049,-0.437,-13.312,-5.125,-5.438,-55, 29, -18, -8, 0, 37, 2, 28
1503599968397,-0.083,-0.018,-0.502,-0.860,+0.882,-0.029,-0.464,-12.438,-3.000,-4.375,22, 7, -7, -2, 7, 23, -7, -3
1503599968419,-0.084,-0.020,-0.502,-0.861,+0.889,-0.043,-0.449,-11.062,-1.312,-1.688,47, 40, -2, 4, 7, 25, 11, 7
1503599968434,-0.085,-0.021,-0.502,-0.860,+0.872,-0.047,-0.457,-9.938,+1.750,+2.375,18, 100, 54, 16, 10, 1, -10, 0
1503599968457,-0.086,-0.021,-0.502,-0.860,+0.889,-0.045,-0.466,-8.938,+3.312,+4.938,2, -77, -19, -4, -12, -7, 39, 13
1503599968479,-0.088,-0.022,-0.503,-0.860,+0.939,-0.036,-0.472,-5.938,+0.375,+8.500,-20, -93, -17, -6, -1, -8, -22, -15
1503599968496,-0.089,-0.021,-0.502,-0.860,+0.935,-0.055,-0.457,-0.812,-3.562,+10.500,15, -31, -10, -2, -5, -25, -11, 18
1503599968517,-0.091,-0.019,-0.502,-0.860,+0.923,-0.102,-0.460,-1.000,-2.375,+11.375,-14, -21, 12, 0, -8, -19, -7, -6
1503599968539,-0.093,-0.018,-0.502,-0.860,+0.908,-0.083,-0.466,+0.938,-1.312,+10.812,0, 54, 17, 0, 6, 2, -4, -23
1503599968555,-0.094,-0.016,-0.503,-0.859,+0.913,-0.100,-0.448,+1.375,+4.000,+9.438,27, -4, 10, 0, -6, -16, -28, 13
1503599968577,-0.094,-0.015,-0.504,-0.859,+0.917,-0.103,-0.474,+4.688,+5.625,+5.125,-38, -26, -5, 4, 19, 41, -4, -3
1503599968599,-0.095,-0.013,-0.505,-0.858,+0.938,-0.109,-0.449,+6.438,+4.062,+4.188,-16, -27, -14, -1, -7, -39, 12, 12
1503599968615,-0.095,-0.011,-0.506,-0.857,+0.910,-0.103,-0.441,+5.750,+6.625,+2.938,32, 14, -6, -7, -22, -31, -6, 2
1503599968637,-0.094,-0.010,-0.508,-0.857,+0.904,-0.088,-0.452,+7.625,+9.812,-0.062,9, -15, -2, -3, -2, -4, 29, -6
1503599968659,-0.092,-0.009,-0.509,-0.856,+0.922,-0.102,-0.433,+8.312,+8.500,-4.062,30, 13, -9, -1, 1, 26, 12, 19
1503599968675,-0.091,-0.008,-0.511,-0.855,+0.917,-0.101,-0.425,+10.438,+7.938,-5.062,-3, 22, 3, 4, 9, 14, 15, -10
1503599968698,-0.089,-0.006,-0.512,-0.854,+0.908,-0.101,-0.423,+12.188,+6.062,-4.438,-8, -18, 4, -4, 0, 12, -2, -14
1503599968719,-0.087,-0.004,-0.513,-0.854,+0.883,-0.094,-0.446,+13.938,+5.500,-3.938,11, 18, 13, 8, 17, 21, 0, -2
1503599968735,-0.085,-0.002,-0.514,-0.854,+0.875,-0.068,-0.438,+14.500,+6.125,-4.438,9, -6, -23, -8, -2, -14, 1, 5
1503599968757,-0.083,-0.001,-0.515,-0.853,+0.910,-0.057,-0.396,+14.875,+6.938,-3.000,-9, -7, 10, -1, -3, -17, 0, -1
1503599968788,-0.081,+0.002,-0.517,-0.852,+0.923,-0.075,-0.392,+17.000,+4.688,-1.062,-13, 55, -2, -5, 2, -10, -23, -7
1503599968799,-0.079,+0.004,-0.517,-0.852,+0.900,-0.077,-0.409,+16.625,+1.562,-5.375,36, 35, -9, -5, -17, 3, -29, 12
1503599968817,-0.076,+0.005,-0.518,-0.852,+0.913,-0.063,-0.394,+17.062,-1.312,-6.500,-15, 15, 12, 7, 9, 25, -4, -2
1503599968840,-0.074,+0.008,-0.518,-0.852,+0.893,-0.059,-0.418,+17.625,+1.250,-4.125,-3, -21, -4, 9, 3, 12, 9, 6
1503599968855,-0.071,+0.010,-0.519,-0.852,+0.894,-0.055,-0.419,+19.250,+3.000,-2.875,-10, -23, 11, 3, 7, 20, 18, -4
1503599968877,-0.069,+0.013,-0.520,-0.851,+0.878,-0.085,-0.405,+20.375,+8.250,-2.312,-46, 6, 10, -4, -11, -19, 13, -3
1503599968908,-0.067,+0.015,-0.522,-0.850,+0.893,-0.099,-0.426,+19.250,+10.562,-2.938,-40, -15, -2, -1, -4, -14, -7, -11
1503599968922,-0.065,+0.018,-0.523,-0.849,+0.912,-0.091,-0.397,+19.000,+9.812,-1.438,29, 44, -2, -8, -11, -24, -23, -11
1503599968937,-0.062,+0.021,-0.525,-0.849,+0.915,-0.071,-0.410,+19.875,+10.375,-1.125,2, 18, 17, 3, 2, -30, -2, 1
1503599968959,-0.060,+0.023,-0.526,-0.848,+0.911,-0.061,-0.414,+22.812,+5.688,-1.562,22, -29, -8, -3, -3, -12, -10, 2
1503599968975,-0.057,+0.027,-0.527,-0.847,+0.885,-0.097,-0.423,+26.562,+8.000,+1.312,17, -4, -1, -1, -1, 1, -10, 1
1503599969000,-0.055,+0.032,-0.528,-0.847,+0.861,-0.112,-0.414,+27.812,+8.375,+0.438,21, -3, -14, -4, -5, -13, -1, 6
1503599969019,-0.053,+0.036,-0.529,-0.846,+0.874,-0.117,-0.407,+27.812,+8.000,+2.625,-1, -9, -5, -6, -9, 6, 10, -1
1503599969035,-0.051,+0.040,-0.530,-0.845,+0.911,-0.112,-0.401,+28.688,+5.188,+3.375,-30, -2, 4, 7, -3, 17, 3, 6
1503599969057,-0.048,+0.045,-0.531,-0.845,+0.939,-0.123,-0.390,+29.188,+3.562,+2.250,5, 12, -22, -10, 0, -1, 0, -14
1503599969079,-0.046,+0.050,-0.532,-0.844,+0.918,-0.142,-0.391,+30.188,+3.250,+1.812,4, 6, 13, 7, -4, 19, 0, 9
1503599969097,-0.043,+0.054,-0.532,-0.844,+0.920,-0.147,-0.400,+30.375,+3.000,-0.188,8, 25, 5, -3, 0, -32, 2, 5
1503599969117,-0.040,+0.059,-0.533,-0.844,+0.917,-0.138,-0.420,+30.438,+1.062,-1.500,29, 20, 1, -2, 3, 16, 8, -20
1503599969139,-0.036,+0.063,-0.533,-0.843,+0.923,-0.134,-0.413,+31.750,+5.750,-1.562,18, -3, -14, -6, -3, -13, -20, 2
1503599969155,-0.033,+0.068,-0.534,-0.842,+0.928,-0.137,-0.397,+33.062,+6.875,-0.375,3, -13, 16, 9, 9, 12, -3, 8
1503599969177,-0.030,+0.072,-0.536,-0.841,+0.921,-0.139,-0.404,+34.500,+10.125,-1.375,-23, -39, -11, -4, -4, 7, -7, -4
1503599973242,-0.038,+0.034,-0.435,-0.899,+0.774,-0.079,-0.609,+2.000,-7.312,+2.500,-3, -26, -6, 0, 9, 34, 2, 7
1503599973257,-0.038,+0.035,-0.434,-0.899,+0.741,-0.075,-0.582,+2.188,-6.062,+0.125,12, 2, 6, -1, 0, -10, 4, 16
1503599973279,-0.038,+0.035,-0.433,-0.900,+0.767,-0.103,-0.588,+1.438,-7.375,+3.188,-9, 4, -1, -2, -4, -8, 28, 0
1503599973302,-0.038,+0.036,-0.432,-0.900,+0.809,-0.112,-0.574,+1.000,-6.250,+0.500,-2, 0, -4, -5, -6, 12, -10, -8
1503599973317,-0.038,+0.036,-0.431,-0.901,+0.871,-0.095,-0.568,-0.375,-7.250,+0.875,-6, 24, -6, -1, -2, -1, -1, 4
1503599973339,-0.037,+0.036,-0.430,-0.901,+0.801,-0.089,-0.603,+1.500,-10.125,-3.625,-11, -7, -3, -3, -3, -24, -10, 2
1503599973362,-0.036,+0.036,-0.429,-0.902,+0.767,-0.107,-0.586,+0.125,-7.438,-5.750,-1, 5, -3, -1, -10, 1, -2, -9
1503599973377,-0.036,+0.036,-0.428,-0.902,+0.782,-0.095,-0.592,-3.250,-4.625,-2.062,24, 4, 3, 7, 5, -6, -2, -2
1503599973399,-0.036,+0.035,-0.427,-0.903,+0.816,-0.091,-0.582,-4.375,-6.688,-0.375,9, -9, -3, -6, 0, 2, -2, 14
1503599973421,-0.037,+0.035,-0.427,-0.903,+0.848,-0.081,-0.583,-6.188,-6.562,+4.688,-14, -8, -4, -2, 2, 12, 10, 11
1503599973438,-0.038,+0.035,-0.426,-0.904,+0.812,-0.061,-0.588,-4.438,-6.750,+6.938,6, -22, -2, 0, 4, -16, 2, -5
1503599973459,-0.039,+0.036,-0.424,-0.904,+0.830,-0.083,-0.584,+3.125,-16.375,+9.812,-50, -2, 2, -3, -2, -12, -10, 9
1503599973481,-0.039,+0.037,-0.421,-0.906,+0.736,-0.098,-0.612,+2.750,-16.875,+5.188,8, -15, -7, -4, 0, 1, -14, -2
1503599973497,-0.039,+0.038,-0.419,-0.907,+0.757,-0.110,-0.613,+2.125,-11.000,+3.875,-7, 8, -8, 2, -1, 10, 2, -2
1503599973519,-0.039,+0.039,-0.417,-0.907,+0.833,-0.111,-0.597,+2.812,-11.375,+2.875,-10, -36, -10, 0, 2, -2, -12, -7
1503599973542,-0.039,+0.040,-0.415,-0.908,+0.806,-0.113,-0.608,+1.875,-17.875,-1.750,-1, 16, 20, 4, -1, -5, 6, 5
1503599973557,-0.038,+0.040,-0.412,-0.910,+0.729,-0.096,-0.652,+3.000,-16.312,-4.438,-37, -13, -2, -3, -1, 0, -8, -11
1503599973579,-0.037,+0.040,-0.409,-0.911,+0.688,-0.126,-0.637,-1.188,-13.000,-3.562,1, -13, 2, 1, -3, -6, 2, -21
1503599973602,-0.037,+0.039,-0.408,-0.911,+0.778,-0.131,-0.622,-6.250,-7.062,-3.125,-18, 1, 7, 4, 5, 22, 3, -1
1503599973617,-0.036,+0.038,-0.407,-0.912,+0.792,-0.067,-0.644,-5.688,-10.875,-6.125,11, 4, -5, -1, -5, -6, -4, 25
1503599973640,-0.035,+0.037,-0.405,-0.913,+0.743,-0.084,-0.627,-2.125,-10.812,-8.688,16, 16, -3, -4, -8, -3, 1, 9
1503599973661,-0.034,+0.037,-0.404,-0.913,+0.741,-0.119,-0.642,-3.938,-6.000,-5.000,-1, 0, -6, -3, 7, 11, 8, 14
1503599973677,-0.033,+0.036,-0.404,-0.914,+0.785,-0.076,-0.648,-2.938,-3.562,-7.688,-36, -8, -10, -5, -1, -6, 4, 2
1503599973699,-0.032,+0.035,-0.403,-0.914,+0.767,-0.074,-0.628,-1.938,-1.750,-5.125,40, 15, 4, -1, -10, -8, -8, -4
1503599973721,-0.032,+0.035,-0.402,-0.914,+0.721,-0.093,-0.646,-4.750,-3.625,-3.312,40, 36, 6, 3, 3, -28, 6, 13
1503599973737,-0.031,+0.034,-0.402,-0.914,+0.747,-0.069,-0.648,-3.562,+0.375,-4.438,-37, -24, -15, -7, -2, 8, -3, -18
1503599973759,-0.030,+0.033,-0.402,-0.914,+0.765,-0.068,-0.628,-3.188,-1.812,-5.750,11, 22, -5, -3, -6, -6, -13, -23
1503599973781,-0.030,+0.032,-0.402,-0.914,+0.766,-0.091,-0.628,-3.750,+0.000,-4.938,-8, 25, 9, -1, 2, -15, -8, 0
1503599973799,-0.029,+0.031,-0.402,-0.915,+0.792,-0.075,-0.600,-5.375,-5.062,-3.875,7, -34, -18, -9, -8, 1, 5, -15
1503599973819,-0.029,+0.030,-0.401,-0.915,+0.766,-0.062,-0.650,-6.375,-5.500,-2.750,21, 10, 2, 1, 0, -3, 3, 6
1503599973842,-0.029,+0.029,-0.401,-0.915,+0.725,-0.048,-0.651,-3.562,-2.812,-3.250,18, 3, -1, 3, 0, -1, -1, -5
1503599973857,-0.029,+0.029,-0.400,-0.916,+0.764,-0.074,-0.628,-3.562,-3.875,+0.938,1, -12, 12, 6, 7, 3, -9, -4
1503599973879,-0.029,+0.029,-0.400,-0.916,+0.785,-0.090,-0.616,-6.438,-6.188,+0.625,14, 1, -10, -10, -3, -22, -23, 2
1503599973910,-0.030,+0.028,-0.398,-0.916,+0.769,-0.068,-0.660,-6.562,-6.938,+2.625,-20, 6, -5, -4, 2, 3, 2, -20
1503599973917,-0.030,+0.027,-0.398,-0.917,+0.753,-0.061,-0.663,-3.375,-5.188,+0.062,-2, 8, 0, -3, -5, -1, -1, 2
1503599973939,-0.030,+0.027,-0.397,-0.917,+0.749,-0.074,-0.638,-3.438,-0.500,+2.875,8, 2, 11, 3, -1, 7, 12, 10
1503599973961,-0.031,+0.027,-0.397,-0.917,+0.737,-0.068,-0.646,-4.062,-2.125,+3.812,19, 39, -2, -2, -1, -18, -5, 4
1503599973977,-0.032,+0.027,-0.397,-0.917,+0.750,-0.090,-0.628,-6.000,-3.188,+6.000,12, 8, 0, 2, 0, 12, 13, 8
1503599974000,-0.034,+0.026,-0.396,-0.917,+0.751,-0.082,-0.638,-8.000,-4.062,+6.500,-19, -24, -7, -6, -1, 14, 4, 13
1503599974029,-0.035,+0.026,-0.395,-0.918,+0.781,-0.061,-0.648,-7.188,-5.312,+4.062,25, -5, -8, 1, 2, -4, -6, 3
1503599974044,-0.036,+0.025,-0.395,-0.918,+0.739,-0.067,-0.659,-5.938,-3.250,+2.750,23, 19, 15, -2, -1, 5, 2, 3
1503599974059,-0.036,+0.024,-0.394,-0.918,+0.732,-0.067,-0.654,-7.188,-3.500,+2.000,1, 56, 15, 1, -2, -5, -19, 6
1503599974081,-0.037,+0.024,-0.394,-0.918,+0.729,-0.067,-0.661,-6.188,-0.188,+5.375,-24, -23, -3, 2, 2, -4, -1, -8
1503599974097,-0.038,+0.023,-0.393,-0.918,+0.723,-0.049,-0.659,-4.125,-1.938,+3.312,8, -8, 8, 9, 14, 36, 4, -16
1503599974119,-0.039,+0.023,-0.393,-0.918,+0.760,-0.075,-0.665,-4.750,-1.375,+5.438,-31, -14, -15, -6, -5, -1, 2, -20
1503599974142,-0.039,+0.023,-0.393,-0.919,+0.714,-0.054,-0.685,-2.812,+1.562,+3.062,-24, -18, -15, -5, -9, -13, 3, 13
1503599974158,-0.039,+0.023,-0.393,-0.919,+0.707,-0.038,-0.670,+0.062,+1.875,+0.250,-2, 1, 6, 1, 0, 2, 3, 5
1503599974179,-0.039,+0.023,-0.393,-0.918,+0.746,-0.061,-0.665,+0.938,+4.438,+2.750,-8, -10, -5, 0, 5, -1, -4, -9
1503599974202,-0.040,+0.024,-0.394,-0.918,+0.750,-0.067,-0.650,+1.500,+5.500,+3.312,18, -7, -13, 0, 3, 20, 13, 0
1503599974218,-0.040,+0.024,-0.395,-0.918,+0.768,-0.082,-0.650,+2.500,+2.062,+1.562,-42, -31, -10, -5, -7, -19, -13, 4
1503599974240,-0.040,+0.025,-0.395,-0.917,+0.747,-0.083,-0.641,+1.062,+4.250,-0.188,-6, -25, -16, -4, -8, -19, -1, 6
1503599974262,-0.039,+0.025,-0.396,-0.917,+0.758,-0.071,-0.648,-0.438,+3.938,-0.438,-7, -26, -9, 2, 12, 11, 5, -28
1503599974278,-0.039,+0.025,-0.397,-0.917,+0.770,-0.076,-0.634,+0.250,+4.938,+0.562,10, -1, -8, -4, -3, -13, -2, 3
1503599974299,-0.039,+0.025,-0.398,-0.916,+0.767,-0.079,-0.633,+0.125,+4.125,+0.000,-2, 4, 4, 5, 2, 7, -8, 3
1503599974321,-0.039,+0.025,-0.399,-0.916,+0.762,-0.085,-0.644,-0.812,+4.438,-0.438,7, -7, -2, 0, 2, -3, 21, -22
1503599974338,-0.039,+0.025,-0.400,-0.915,+0.760,-0.077,-0.632,-2.000,+5.812,+0.250,5, -5, -3, -3, 0, 7, 15, 10
1503599974360,-0.039,+0.025,-0.400,-0.915,+0.770,-0.060,-0.650,+0.188,+1.625,+0.938,1, -14, -6, -1, -7, -11, -11, 5
1503599974382,-0.039,+0.026,-0.401,-0.915,+0.719,-0.060,-0.666,+0.750,+5.125,-0.500,19, -3, -5, 9, 7, 3, 7, 0
1503599974398,-0.039,+0.026,-0.402,-0.915,+0.773,-0.076,-0.650,-0.250,+8.125,+2.875,-22, 13, 8, 3, 2, -9, -10, -35
1503599974420,-0.040,+0.026,-0.403,-0.914,+0.805,-0.078,-0.614,-0.125,+7.062,+5.438,-3, 0, 0, 0, 5, 11, 8, -12
1503599974442,-0.040,+0.027,-0.404,-0.914,+0.785,-0.070,-0.630,+2.125,+1.562,+3.375,-18, -3, -6, -3, -1, -4, 2, -4
1503599974458,-0.040,+0.027,-0.404,-0.914,+0.727,-0.085,-0.634,+2.688,-0.125,-1.062,10, -8, -3, -1, -3, 3, 5, 17
1503599974480,-0.040,+0.028,-0.404,-0.913,+0.743,-0.108,-0.612,+0.000,+4.312,+1.875,-25, -12, -15, -9, -3, 11, -3, -19
1503599974502,-0.041,+0.029,-0.406,-0.913,+0.793,-0.105,-0.621,-2.062,+6.062,+5.875,6, -1, 2, -7, -7, -7, -12, 10
1503599974518,-0.041,+0.028,-0.406,-0.913,+0.775,-0.070,-0.633,-3.312,+0.188,+0.500,6, -5, 8, 3, 1, -9, 1, -3
1503599974540,-0.041,+0.028,-0.406,-0.913,+0.755,-0.072,-0.619,-3.500,-1.062,-1.125,26, 40, 19, 7, 1, -22, 3, 5
1503599974561,-0.041,+0.027,-0.405,-0.913,+0.742,-0.083,-0.638,-2.938,-0.562,+1.000,12, -1, 10, 2, 1, -4, -3, -3
1503599974578,-0.042,+0.027,-0.406,-0.913,+0.757,-0.084,-0.635,-3.062,+1.562,+1.438,-41, -5, -3, 0, 0, 6, -5, -8
1503599974600,-0.042,+0.027,-0.406,-0.913,+0.750,-0.078,-0.628,-2.562,+3.375,+0.875,22, -15, -10, -2, 0, 3, -18, 6
1503599974622,-0.042,+0.027,-0.406,-0.912,+0.763,-0.079,-0.633,-3.188,+1.438,+0.250,4, 8, 3, 1, -3, -12, 9, -2
1503599974638,-0.042,+0.026,-0.406,-0.912,+0.761,-0.074,-0.639,-3.125,+1.125,+0.000,-6, 5, -1, -1, 7, 20, 1, -7
1503599974660,-0.042,+0.026,-0.406,-0.912,+0.756,-0.075,-0.630,-2.812,+0.812,+0.125,17, 3, 0, 1, 0, -3, -43, -1
1503599974681,-0.043,+0.026,-0.407,-0.912,+0.773,-0.086,-0.626,-3.000,+2.375,+1.562,12, 23, 7, 0, -2, 0, 35, 5
1503599974698,-0.043,+0.026,-0.407,-0.912,+0.775,-0.077,-0.631,-2.125,+1.875,+2.188,-5, -12, -3, -1, 5, 1, 1, -12
1503599974720,-0.043,+0.026,-0.408,-0.912,+0.782,-0.074,-0.644,-1.750,+1.938,+0.625,10, -7, -23, -11, -8, -10, -7, -1
1503599974742,-0.043,+0.026,-0.408,-0.912,+0.759,-0.081,-0.633,-1.312,+1.875,+0.188,-1, -6, -10, -1, 2, -2, 4, -2
1503599974758,-0.043,+0.026,-0.408,-0.911,+0.770,-0.088,-0.635,-2.125,+4.312,-1.375,0, -14, -3, 1, -4, -2, 9, 9
1503599974780,-0.043,+0.025,-0.409,-0.911,+0.782,-0.080,-0.614,-1.750,+3.562,-1.812,-13, -3, 4, 0, 3, 1, -7, -2
1503599974801,-0.042,+0.025,-0.410,-0.911,+0.777,-0.084,-0.610,-2.500,+2.188,-3.500,-20, -20, 2, -1, -3, 4, -1, -2
1503599974818,-0.041,+0.024,-0.410,-0.911,+0.776,-0.080,-0.623,-2.375,+0.750,-5.000,-2, 1, 0, 1, -4, -3, 6, -4
1503599974840,-0.041,+0.024,-0.411,-0.911,+0.766,-0.089,-0.606,-2.188,+3.875,-3.625,14, 5, 8, 3, -2, 8, 13, -4
1503599974861,-0.040,+0.024,-0.411,-0.910,+0.761,-0.084,-0.608,-2.438,+5.062,-4.375,-18, -19, -11, -6, 0, 6, 0, -11
1503599974879,-0.040,+0.024,-0.414,-0.909,+0.789,-0.113,-0.588,-1.625,+12.312,-0.938,-9, -1, -4, -2, -6, -12, -2, 9
1503599974899,-0.040,+0.024,-0.416,-0.908,+0.815,-0.101,-0.606,-1.562,+10.062,-0.812,-11, -5, -4, -4, 6, 15, -4, 3
1503599974921,-0.039,+0.023,-0.417,-0.908,+0.790,-0.056,-0.607,-3.188,+4.062,-8.312,-4, -1, 4, 5, -1, -1, 11, 1
1503599974944,-0.038,+0.022,-0.417,-0.908,+0.744,-0.060,-0.612,-1.250,+3.812,-8.688,27, 6, -13, -7, -14, -10, 0, -6
1503599974959,-0.037,+0.021,-0.418,-0.907,+0.792,-0.070,-0.596,-4.062,+8.188,-8.000,-7, 3, 2, -1, 2, -1, -3, 0
1503599974982,-0.037,+0.021,-0.420,-0.907,+0.772,-0.096,-0.602,-4.562,+10.062,+2.438,20, 4, 4, 3, -1, 13, 8, 0
1503599975004,-0.037,+0.019,-0.419,-0.907,+0.819,-0.005,-0.625,-7.062,-3.500,-5.312,13, 22, 5, -7, -2, -12, -2, -4
1503599975020,-0.036,+0.017,-0.419,-0.907,+0.772,-0.040,-0.592,-8.500,-1.062,-5.250,-7, -10, -7, -3, 3, 2, 5, -4
1503599975042,-0.035,+0.015,-0.417,-0.908,+0.757,-0.006,-0.618,-8.625,-12.500,-7.750,12, 20, -9, 1, 0, -5, -1, -2
1503599975064,-0.036,+0.017,-0.417,-0.908,+0.716,-0.099,-0.607,+1.250,-0.875,+4.938,-4, -10, 2, -1, -3, -11, 2, 12
1503599975080,-0.035,+0.015,-0.414,-0.909,+0.771,+0.021,-0.629,-5.938,-14.562,-3.625,-29, -13, -3, 2, 0, 10, -4, -3
1503599975102,-0.035,+0.014,-0.412,-0.910,+0.776,-0.012,-0.623,-4.438,-12.062,-2.000,11, 3, -3, -2, -2, -4, 4, 3
1503599975124,-0.035,+0.014,-0.410,-0.911,+0.768,-0.044,-0.635,-2.812,-13.062,-0.312,5, -8, -4, -3, -3, 7, -4, -20
1503599975154,-0.035,+0.013,-0.409,-0.912,+0.743,-0.048,-0.635,-3.250,-9.062,+1.875,-6, 1, -2, 1, -4, -6, 0, 2
1503599975162,-0.036,+0.013,-0.408,-0.912,+0.772,-0.042,-0.621,-2.500,-7.062,+3.938,19, 9, 8, 0, 3, 1, -8, 6
1503599975184,-0.037,+0.014,-0.407,-0.913,+0.812,-0.050,-0.620,-1.750,-7.875,+5.000,-15, -13, -2, 0, 3, 6, 0, 1
1503599975200,-0.038,+0.014,-0.406,-0.913,+0.805,-0.069,-0.620,-2.688,-10.188,+5.000,33, 24, 6, 1, -3, 5, 4, 8
1503599975222,-0.038,+0.014,-0.404,-0.914,+0.782,-0.051,-0.646,-2.688,-11.125,+4.062,-8, -5, 7, 3, -3, -27, -1, -9
1503599975244,-0.039,+0.014,-0.402,-0.915,+0.735,-0.045,-0.645,-2.000,-12.688,+2.812,5, -27, -12, -6, 1, 24, 8, 2
1503599975260,-0.039,+0.014,-0.400,-0.915,+0.725,-0.055,-0.658,-1.250,-7.375,+3.625,6, 1, -1, 4, 3, 8, -2, -8
1503599975282,-0.040,+0.015,-0.399,-0.916,+0.736,-0.064,-0.659,-2.688,-4.125,+5.688,3, -6, -8, -4, -4, -2, -8, -10
1503599975305,-0.041,+0.015,-0.399,-0.916,+0.735,-0.052,-0.645,-2.188,-1.688,+5.125,9, 2, -10, -1, 2, -5, 14, 7
1503599975320,-0.042,+0.015,-0.399,-0.916,+0.750,-0.051,-0.659,-0.125,-1.500,+5.250,-16, -9, 1, 2, 2, -2, 9, 0
1503599975344,-0.042,+0.016,-0.399,-0.916,+0.751,-0.061,-0.662,+0.562,+1.438,+5.625,14, -8, -3, -1, -4, -4, -5, -2
1503599975364,-0.043,+0.017,-0.399,-0.916,+0.745,-0.062,-0.642,+1.562,+4.000,+5.375,1, 16, 6, -4, -2, -6, -17, -7
1503599975380,-0.044,+0.018,-0.400,-0.915,+0.760,-0.083,-0.636,+1.562,+4.750,+4.375,-8, 7, -4, -2, 2, 9, -3, 7
1503599975402,-0.044,+0.018,-0.401,-0.915,+0.757,-0.082,-0.637,+0.438,+6.375,+3.125,6, 0, -14, -3, -5, -9, -3, 2
1503599975424,-0.044,+0.018,-0.402,-0.914,+0.754,-0.071,-0.622,-0.250,+6.125,+1.500,-15, 7, 0, -2, 8, -15, -20, -9
1503599975440,-0.044,+0.019,-0.403,-0.914,+0.770,-0.075,-0.634,-0.750,+4.188,+1.625,-24, -24, 3, 2, 1, -1, -11, 9
1503599975462,-0.045,+0.019,-0.403,-0.914,+0.776,-0.075,-0.650,-1.938,+0.625,+2.812,-15, 0, 9, 1, -2, 2, -1, -1
1503599975484,-0.045,+0.019,-0.404,-0.914,+0.765,-0.060,-0.622,-0.562,+2.875,-0.062,8, 59, 20, 1, -3, 5, 8, -2
1503599975500,-0.045,+0.019,-0.404,-0.914,+0.771,-0.075,-0.623,-0.625,+0.125,+0.688,7, -6, -3, -3, -8, -7, -7, 2
1503599975522,-0.045,+0.019,-0.404,-0.914,+0.777,-0.079,-0.620,-0.750,+0.625,+0.500,-7, -46, -14, -2, -2, 6, 12, -2
1503599975546,-0.045,+0.019,-0.404,-0.914,+0.780,-0.074,-0.626,-2.188,-1.375,+0.312,8, 11, 3, -2, -2, -6, -1, -5
1503599975560,-0.045,+0.019,-0.404,-0.914,+0.759,-0.070,-0.633,-2.000,-2.250,-1.250,0, 29, -3, -6, -4, -1, 1, 3
1503599975582,-0.044,+0.019,-0.403,-0.914,+0.748,-0.068,-0.637,-1.375,-2.000,-1.750,5, -12, -2, 8, 4, -5, 0, -13
1503599975605,-0.044,+0.018,-0.403,-0.914,+0.764,-0.074,-0.633,-2.562,-1.062,-0.500,-20, -35, 1, 2, 0, 0, -10, -17
1503599975621,-0.044,+0.018,-0.403,-0.914,+0.761,-0.071,-0.633,-3.062,-1.188,-2.250,16, 37, 4, 1, 0, 8, 10, 18
1503599975642,-0.044,+0.018,-0.403,-0.914,+0.776,-0.061,-0.640,-1.938,-0.688,-2.062,-8, 3, -4, -3, -5, -4, 2, 2
1503599975664,-0.043,+0.018,-0.403,-0.914,+0.755,-0.061,-0.631,-0.688,-2.812,-2.875,-7, -17, -5, -2, 2, -9, 33, -1
1503599975681,-0.043,+0.018,-0.402,-0.914,+0.757,-0.068,-0.633,-0.500,-1.875,-2.625,33, -10, -7, -3, -1, 3, 3, 0
1503599975703,-0.042,+0.018,-0.402,-0.914,+0.771,-0.067,-0.636,-1.062,-1.750,-2.000,-38, -34, -10, -3, -2, 6, -12, 3
1503599975724,-0.042,+0.017,-0.402,-0.915,+0.765,-0.066,-0.630,-0.812,-2.500,-3.938,-12, 1, 4, -3, -6, -2, 7, 5
1503599975740,-0.041,+0.017,-0.401,-0.915,+0.770,-0.071,-0.632,-1.000,-5.312,-3.938,17, 14, 3, 1, 5, 3, -10, -17
1503599975762,-0.040,+0.017,-0.401,-0.915,+0.769,-0.058,-0.635,-1.375,-4.625,-4.938,-3, 0, -6, -3, 3, 14, 3, 3
1503599975784,-0.039,+0.017,-0.400,-0.916,+0.782,-0.052,-0.635,-0.812,-6.250,-3.750,-10, -6, -6, -4, -4, -10, -11, 5
1503599975800,-0.039,+0.017,-0.399,-0.916,+0.770,-0.057,-0.630,-0.375,-6.125,-4.125,-1, 10, 0, 2, 0, 0, 5, 9
1503599975822,-0.038,+0.017,-0.398,-0.917,+0.766,-0.070,-0.656,-0.625,-11.562,-4.188,-5, -5, 1, 1, 0, -3, -8, 2
1503599975847,-0.037,+0.016,-0.396,-0.917,+0.726,-0.057,-0.654,-1.188,-8.188,-5.000,-13, -2, 0, 0, 0, 14, 7, 2
1503599975860,-0.036,+0.016,-0.395,-0.918,+0.739,-0.058,-0.653,-2.125,-6.062,-3.938,9, 7, 1, 0, -4, -13, -3, -1
1503599975882,-0.036,+0.016,-0.394,-0.918,+0.748,-0.051,-0.668,-2.438,-3.938,-1.562,3, 0, -4, -8, 5, -1, -2, 1
1503599975904,-0.036,+0.015,-0.394,-0.918,+0.751,-0.039,-0.667,-1.875,-2.688,-1.688,8, -9, -3, -2, 1, 4, -4, -10
1503599975920,-0.036,+0.015,-0.394,-0.918,+0.740,-0.039,-0.665,-0.125,+0.125,-1.062,-14, -6, -3, 1, -2, -17, -6, -9
1503599975942,-0.035,+0.016,-0.394,-0.918,+0.736,-0.042,-0.666,+1.750,+1.562,+0.562,-4, -6, 0, 1, -4, -9, -5, 2
1503599975964,-0.035,+0.016,-0.395,-0.918,+0.756,-0.040,-0.663,+2.625,+4.688,+0.438,16, 5, 0, 0, -9, 3, 3, 7
1503599975981,-0.035,+0.017,-0.396,-0.918,+0.742,-0.036,-0.673,+4.438,+7.375,-0.438,-2, 7, 3, 0, -3, -18, -16, -6
1503599976002,-0.034,+0.017,-0.397,-0.917,+0.759,-0.042,-0.643,+6.375,+7.250,-1.562,11, -25, -2, 4, 4, 3, 2, 5
1503599976024,-0.033,+0.019,-0.399,-0.916,+0.780,-0.057,-0.637,+7.375,+9.625,+0.812,-21, -16, -8, -4, -2, 25, 21, -5
1503599976040,-0.033,+0.020,-0.400,-0.916,+0.798,-0.054,-0.641,+8.438,+8.625,+0.688,9, 13, 17, 3, 0, 3, -2, -3
1503599976062,-0.031,+0.022,-0.401,-0.915,+0.797,-0.044,-0.655,+11.750,+5.062,-3.375,9, -5, -10, -6, -9, -6, -10, -3
1503599976091,-0.029,+0.023,-0.401,-0.915,+0.624,-0.049,-0.663,+12.938,+6.312,-6.938,-17, -22, -8, -11, 1, -1, -5, 1
1503599976100,-0.027,+0.026,-0.407,-0.913,+0.727,-0.097,-0.597,+16.375,+34.688,-5.625,11, 5, 1, 1, -2, -12, 9, 8
1503599976123,-0.026,+0.028,-0.414,-0.910,+0.758,-0.050,-0.619,+14.688,+45.312,+1.875,-10, 1, -8, -2, -4, -9, 1, 4
1503599976144,-0.024,+0.031,-0.423,-0.905,+0.783,-0.086,-0.591,+19.500,+59.625,-5.000,5, 16, -6, 1, -8, -24, -2, 2
1503599976160,-0.022,+0.033,-0.432,-0.901,+0.819,-0.064,-0.590,+21.125,+59.062,-5.312,-4, -4, 4, -1, -2, 8, 23, -1
1503599976183,-0.020,+0.037,-0.442,-0.896,+0.860,-0.088,-0.548,+23.500,+60.438,-5.750,-32, -10, -14, -3, -3, -19, -5, 5
1503599976205,-0.017,+0.040,-0.450,-0.892,+0.869,-0.085,-0.537,+24.312,+47.375,-4.438,14, 1, -4, 0, -1, -9, 6, 3
1503599976220,-0.016,+0.044,-0.453,-0.890,+0.919,-0.119,-0.607,+23.250,+20.812,+3.688,-8, -17, 12, 3, 2, -8, 1, 4
1503599976243,-0.014,+0.048,-0.455,-0.889,+0.930,-0.083,-0.524,+25.688,+4.812,-2.750,27, 24, 1, -1, -2, 7, -16, -1
1503599976265,-0.010,+0.052,-0.455,-0.889,+0.878,-0.083,-0.514,+29.062,-5.312,-6.312,-2, 7, 2, -1, -4, -5, 22, -5
1503599976280,-0.007,+0.057,-0.454,-0.889,+0.809,-0.111,-0.544,+32.125,-6.875,-4.312,2, 2, 8, 11, -1, -21, -5, 0
1503599976303,-0.004,+0.062,-0.453,-0.889,+0.798,-0.127,-0.545,+33.375,-2.625,-3.938,-10, -17, -8, -3, -3, 7, -3, -7
1503599976326,-0.001,+0.067,-0.455,-0.888,+0.851,-0.122,-0.537,+36.375,+8.250,-1.312,-14, -26, -6, -4, -1, 4, -2, -3
1503599976340,+0.003,+0.073,-0.456,-0.887,+0.872,-0.117,-0.540,+39.688,+10.750,-1.500,2, -4, 1, 1, 4, 7, 2, -1
1503599976363,+0.007,+0.079,-0.457,-0.886,+0.879,-0.123,-0.544,+41.625,+4.438,-2.812,-3, -1, -5, -6, -9, -29, 5, 4
1503599976385,+0.011,+0.086,-0.458,-0.885,+0.862,-0.120,-0.541,+45.000,+2.250,-2.438,-7, 3, 6, 7, 6, 5, -1, 3
1503599976400,+0.015,+0.094,-0.457,-0.884,+0.849,-0.126,-0.540,+52.562,-2.188,-0.875,7, -24, -14, -6, 1, 10, 1, -4
1503599976423,+0.019,+0.102,-0.456,-0.884,+0.849,-0.163,-0.549,+54.188,-4.125,+3.125,-4, 2, 13, 4, 2, 7, 1, -6
1503599976445,+0.023,+0.111,-0.456,-0.883,+0.848,-0.167,-0.542,+57.125,-2.438,+6.750,-1, 5, -2, -1, -6, -1, -1, -1
1503599976460,+0.026,+0.121,-0.455,-0.882,+0.832,-0.183,-0.527,+59.062,+0.250,+9.188,6, 10, 0, 2, 1, -8, 11, 8
1503599976486,+0.029,+0.131,-0.454,-0.881,+0.828,-0.222,-0.501,+61.062,-0.562,+12.000,-1, -26, -13, -4, 4, -4, -2, 0
1503599976505,+0.032,+0.142,-0.454,-0.879,+0.821,-0.247,-0.500,+61.188,+4.625,+13.688,-8, -7, -5, -3, -1, -18, -9, 1
1503599976521,+0.034,+0.152,-0.455,-0.877,+0.828,-0.248,-0.507,+60.000,+6.062,+12.500,-4, 3, 11, 2, 0, 5, -3, 5
1503599976543,+0.037,+0.162,-0.455,-0.875,+0.817,-0.251,-0.485,+57.375,+4.938,+11.375,-1, 18, 1, 0, 5, 22, 4, 1
1503599976565,+0.039,+0.171,-0.455,-0.873,+0.819,-0.278,-0.472,+54.125,+5.188,+11.500,25, 30, -7, -4, -8, -1, -5, -3
1503599976588,+0.041,+0.181,-0.456,-0.871,+0.800,-0.306,-0.443,+50.500,+8.750,+11.312,-9, -11, -6, -4, 0, -5, -1, 0
1503599976603,+0.043,+0.189,-0.458,-0.868,+0.816,-0.305,-0.427,+46.875,+20.125,+8.875,-2, -6, -2, -1, -6, 6, 10, 4
1503599976625,+0.045,+0.196,-0.461,-0.865,+0.838,-0.309,-0.458,+45.312,+20.312,+4.062,41, 17, -2, -7, 0, -2, -3, 0
1503599976640,+0.047,+0.203,-0.463,-0.862,+0.855,-0.317,-0.409,+38.500,+14.250,+2.688,-3, -15, -7, 3, 6, 14, 0, -1
1503599985609,-0.048,+0.044,-0.501,-0.863,+0.845,-0.123,-0.480,-2.688,-4.188,-0.312,-11, -9, 2, 2, 0, 5, 0, -5
1503599985631,-0.048,+0.045,-0.500,-0.864,+0.872,-0.106,-0.472,+2.812,-4.312,+5.438,-46, -23, 1, -2, 2, 38, 13, 10
1503599985651,-0.049,+0.046,-0.500,-0.863,+0.920,-0.153,-0.427,-1.812,-1.750,+9.312,-34, 2, 2, 2, 9, 0, -19, -8
1503599985669,-0.051,+0.046,-0.501,-0.863,+0.836,-0.129,-0.466,-3.812,+10.562,+6.188,3, 30, 1, -3, -3, 5, -7, -7
1503599985691,-0.051,+0.046,-0.502,-0.862,+0.823,-0.105,-0.476,+2.375,+6.938,+4.625,-31, 13, -3, -1, -1, -5, 20, -4
1503599985707,-0.052,+0.047,-0.503,-0.861,+0.883,-0.148,-0.408,+0.562,+9.375,+6.625,3, 31, 14, 5, 0, -10, -2, -7
1503599985729,-0.052,+0.048,-0.506,-0.860,+0.875,-0.150,-0.406,-1.438,+16.062,+1.875,7, -18, -9, -3, -4, 5, -2, -11
1503599985752,-0.051,+0.047,-0.507,-0.859,+0.875,-0.098,-0.471,+3.750,+5.625,-5.812,-13, -15, -8, -5, -2, -2, -16, -5
1503599985767,-0.049,+0.048,-0.507,-0.859,+0.877,-0.125,-0.449,+6.625,+3.000,-6.312,12, -7, 12, 1, -2, -14, 6, 7
1503599985789,-0.048,+0.048,-0.508,-0.859,+0.866,-0.154,-0.411,+4.438,+3.562,-8.438,9, -13, -5, -2, -2, -10, -4, -15
1503599985811,-0.046,+0.048,-0.509,-0.858,+0.850,-0.139,-0.416,+3.375,+9.312,-10.438,26, -3, -10, -5, -11, 11, 6, -4
1503599985827,-0.044,+0.047,-0.511,-0.857,+0.887,-0.124,-0.410,+1.562,+8.750,-14.438,15, 10, -2, 2, 0, -8, 6, 1
1503599985850,-0.041,+0.046,-0.512,-0.857,+0.935,-0.096,-0.438,+4.188,+5.875,-15.500,-8, -27, -7, -3, -2, -1, -9, 5
1503599985871,-0.039,+0.046,-0.512,-0.857,+0.920,-0.133,-0.433,+2.500,-4.125,-11.750,-10, 5, 0, 7, 4, 4, -1, 7
1503599985887,-0.037,+0.046,-0.512,-0.857,+0.947,-0.143,-0.408,+2.750,-0.938,-10.125,8, 0, 7, 2, 6, 9, -9, -3
1503599985909,-0.036,+0.046,-0.512,-0.857,+0.957,-0.118,-0.420,+1.938,-6.188,-8.000,-15, -32, -18, -7, -1, -17, -16, 2
1503599985931,-0.035,+0.046,-0.510,-0.858,+0.919,-0.107,-0.424,+0.312,-10.188,-4.375,37, 19, 2, 3, 5, 11, -3, -7
1503599985947,-0.034,+0.045,-0.509,-0.859,+0.886,-0.094,-0.459,+1.562,-11.625,-4.562,-27, -28, -15, -13, -15, 6, 3, 0
1503599985969,-0.032,+0.046,-0.506,-0.861,+0.889,-0.093,-0.450,+5.500,-14.875,-5.625,11, -9, -9, 0, 1, 11, -8, 15
1503599985991,-0.029,+0.047,-0.504,-0.862,+0.850,-0.130,-0.467,+9.062,-17.062,-10.875,-13, -16, 0, 9, 2, 3, 4, -3
1503599986007,-0.027,+0.046,-0.500,-0.864,+0.849,-0.161,-0.429,+0.000,-25.250,-17.250,12, 8, 0, 0, 5, 10, 33, -4
1503599986029,-0.025,+0.044,-0.498,-0.866,+0.849,-0.116,-0.394,-5.875,-17.500,-17.188,-3, 8, 4, 3, -5, 13, 16, -8
1503599986051,-0.023,+0.042,-0.497,-0.867,+0.930,-0.071,-0.417,-7.812,-12.875,-10.750,-28, 0, 5, -3, -1, -12, -17, -8
1503599986067,-0.021,+0.040,-0.494,-0.868,+0.931,-0.012,-0.488,-6.312,-18.812,-12.750,-27, -9, -9, -4, 0, -7, 5, 9
1503599986089,-0.019,+0.038,-0.491,-0.870,+0.870,-0.035,-0.483,-1.875,-21.312,-13.938,1, -19, -10, -6, 8, 61, -3, -4
1503599986111,-0.018,+0.037,-0.489,-0.871,+0.917,-0.103,-0.425,-5.500,-18.438,-6.125,-33, -48, -1, 0, -4, -2, -35, -23
1503599986127,-0.018,+0.036,-0.487,-0.872,+0.875,-0.056,-0.487,-6.688,-12.562,-0.500,10, 4, 5, -2, -11, -53, 28, 3
1503599986152,-0.017,+0.035,-0.484,-0.874,+0.842,-0.012,-0.558,+0.125,-14.812,-3.750,27, -3, -8, -3, -1, -15, 21, 4
1503599986171,-0.016,+0.035,-0.482,-0.875,+0.880,-0.060,-0.480,+2.812,-16.188,-3.750,9, 22, 17, 7, 13, 14, 3, 0
1503599986189,-0.016,+0.036,-0.481,-0.876,+0.854,-0.123,-0.488,+1.562,-8.125,+0.062,6, -12, -10, -3, -1, -9, -15, 9
1503599986209,-0.016,+0.037,-0.480,-0.876,+0.875,-0.089,-0.493,-1.250,-7.625,+0.625,-72, -1, -10, -3, 1, 2, 1, -21
1503599986231,-0.017,+0.036,-0.479,-0.877,+0.897,-0.057,-0.485,-3.250,-5.500,+5.312,45, 14, -8, -1, -1, 14, -28, 6
1503599986248,-0.018,+0.037,-0.478,-0.877,+0.868,-0.074,-0.490,-2.062,-8.250,+5.375,8, -3, -12, -4, -5, -18, -4, 3
1503599986270,-0.018,+0.037,-0.477,-0.878,+0.835,-0.081,-0.505,-2.812,-9.875,+3.000,-14, -32, -2, 0, -2, -1, 5, -8
1503599986292,-0.019,+0.037,-0.475,-0.879,+0.794,-0.078,-0.500,-3.750,-5.625,+4.250,-3, 52, 14, 4, -7, -40, -15, 9
1503599986307,-0.020,+0.037,-0.475,-0.879,+0.858,-0.085,-0.494,-5.312,-5.750,+6.500,29, -2, 1, 4, 5, 1, 20, -17
1503599986329,-0.021,+0.037,-0.474,-0.880,+0.875,-0.084,-0.500,-4.562,-4.938,+6.312,-2, 0, 14, 4, 7, 4, -19, -11
1503599986353,-0.022,+0.036,-0.473,-0.880,+0.850,-0.085,-0.518,-3.938,-9.562,+0.688,-4, -4, -1, -1, -1, 3, -2, -2
1503599986367,-0.022,+0.036,-0.471,-0.881,+0.822,-0.093,-0.535,-4.375,-6.312,+1.812,29, 5, 3, -1, -2, 8, 15, 13
1503599986390,-0.023,+0.036,-0.470,-0.882,+0.817,-0.074,-0.526,-4.062,-4.625,+2.750,-29, 0, 10, -3, -4, -4, -5, 6
1503599986412,-0.023,+0.036,-0.470,-0.882,+0.829,-0.070,-0.507,-5.375,+1.125,+3.375,14, -12, -26, -9, -5, 2, -35, -12
1503599986427,-0.024,+0.035,-0.471,-0.881,+0.844,-0.079,-0.532,-3.562,+2.938,+2.188,-19, -11, -9, 1, -1, 0, 7, 12
1503599986449,-0.024,+0.035,-0.471,-0.881,+0.860,-0.084,-0.521,-1.500,+1.375,+0.875,-30, -29, -11, -3, 7, 24, 3, -14
1503599986471,-0.024,+0.035,-0.470,-0.881,+0.860,-0.090,-0.503,-1.625,-2.625,+0.000,21, 37, 19, 4, -3, -21, 24, 4
1503599986488,-0.024,+0.035,-0.470,-0.882,+0.844,-0.084,-0.531,-2.188,-1.500,-0.938,23, 46, 18, 13, 1, 0, -8, 2
1503599986510,-0.024,+0.035,-0.470,-0.882,+0.833,-0.065,-0.522,-1.312,-2.438,-1.500,-14, -11, 1, -5, -3, -1, 8, -1
1503599986532,-0.023,+0.035,-0.470,-0.882,+0.828,-0.071,-0.511,-0.250,+0.875,-1.188,22, 16, -5, -3, -4, -23, -14, 5
1503599986547,-0.023,+0.035,-0.470,-0.882,+0.856,-0.083,-0.524,+1.062,+2.562,-0.812,4, -29, -13, -6, 3, 33, 16, 9
1503599986569,-0.023,+0.035,-0.471,-0.881,+0.871,-0.078,-0.505,+1.188,+2.125,+0.062,-46, -16, -1, 2, 4, 5, 18, 3
1503599986592,-0.022,+0.036,-0.470,-0.881,+0.867,-0.083,-0.521,+2.750,-1.000,-0.875,-14, -17, -5, -13, -4, -10, -11, -4
1503599986607,-0.022,+0.036,-0.470,-0.882,+0.828,-0.088,-0.509,+1.938,-1.438,-3.500,20, 7, -14, -7, -3, -15, -2, -1
1503599986631,-0.021,+0.036,-0.471,-0.881,+0.839,-0.096,-0.498,-0.375,+1.312,-0.500,20, 32, 26, 5, -2, 17, -14, -7
1503599986652,-0.022,+0.036,-0.471,-0.881,+0.868,-0.081,-0.508,-1.625,+1.375,+1.438,-46, 7, -4, -1, -3, 2, 24, -12
1503599986667,-0.021,+0.036,-0.471,-0.881,+0.852,-0.063,-0.517,-0.125,-2.562,-1.688,-4, -14, -6, -1, 3, 30, -4, -12
1503599986689,-0.021,+0.036,-0.470,-0.882,+0.853,-0.094,-0.487,-1.625,-4.438,-3.250,-33, -2, -5, 6, 1, -8, -26, -16
1503599986712,-0.021,+0.036,-0.470,-0.882,+0.860,-0.094,-0.500,-3.562,-3.250,-0.312,52, -23, 0, 1, 8, -1, 5, 16
1503599986727,-0.021,+0.035,-0.469,-0.882,+0.851,-0.077,-0.513,-4.500,-4.688,-0.125,7, 28, 11, 3, 7, 10, -11, -10
1503599986750,-0.021,+0.035,-0.469,-0.882,+0.838,-0.079,-0.505,-3.938,-3.562,-0.875,-37, -19, -10, -1, -7, 7, 10, 15
1503599986771,-0.021,+0.035,-0.468,-0.883,+0.852,-0.080,-0.519,-3.750,-4.250,+0.625,8, 13, -4, -2, -1, 9, 27, 25
1503599986788,-0.021,+0.034,-0.467,-0.883,+0.856,-0.062,-0.527,-5.000,-6.375,-0.500,1, 5, 9, 1, -3, -2, -27, -12
1503599986810,-0.021,+0.033,-0.466,-0.884,+0.853,-0.070,-0.536,-4.188,-5.875,-0.250,-8, 0, 1, -5, -10, -4, -19, -17
1503599986832,-0.022,+0.033,-0.466,-0.884,+0.844,-0.080,-0.519,-4.438,-3.250,+1.562,68, 10, -3, 0, 2, 8, -6, 12
1503599986854,-0.022,+0.033,-0.466,-0.884,+0.831,-0.075,-0.519,-4.375,-0.500,+1.938,-25, -40, -4, -3, -3, -17, 2, -3
1503599986869,-0.023,+0.032,-0.465,-0.884,+0.858,-0.060,-0.529,-4.500,-3.312,+2.312,29, 14, 8, 3, 3, -4, -19, 6
1503599986892,-0.023,+0.032,-0.465,-0.885,+0.846,-0.071,-0.530,-3.500,-3.562,+1.000,16, 21, -6, 0, 0, 4, 5, 9
1503599986907,-0.023,+0.031,-0.464,-0.885,+0.844,-0.064,-0.532,-4.125,-5.562,+0.062,18, 28, 12, -2, -1, -9, 32, 9
1503599986929,-0.023,+0.031,-0.463,-0.886,+0.830,-0.065,-0.537,-4.312,-6.312,-0.688,-5, 15, -10, 3, 1, -2, -10, -3
1503599986952,-0.024,+0.030,-0.462,-0.886,+0.830,-0.066,-0.542,-3.938,-3.688,+2.562,-14, -11, -6, -1, -1, 23, 13, -10
1503599986967,-0.024,+0.030,-0.461,-0.886,+0.823,-0.063,-0.537,-3.625,-1.875,+1.500,0, -20, -8, -5, -12, 3, 7, -8
1503599986992,-0.025,+0.030,-0.461,-0.887,+0.831,-0.071,-0.535,-3.062,-1.625,+1.875,-15, -20, 0, -1, -1, -15, -2, 6
1503599987012,-0.024,+0.030,-0.461,-0.887,+0.840,-0.071,-0.527,-2.125,-3.000,-0.250,-50, -13, 6, -3, -12, -15, -4, -22
1503599987028,-0.025,+0.030,-0.460,-0.887,+0.836,-0.069,-0.541,-1.812,-1.562,+0.750,-9, -19, -5, -2, 7, 26, 2, 4
1503599987050,-0.025,+0.030,-0.460,-0.887,+0.830,-0.068,-0.535,-1.625,-1.000,+0.250,22, -19, -17, -5, -3, -10, -11, 3
1503599987072,-0.025,+0.030,-0.460,-0.887,+0.832,-0.066,-0.535,-1.750,+0.625,+0.625,-35, -8, -2, -2, 5, 0, -18, 0
1503599987087,-0.024,+0.030,-0.460,-0.887,+0.838,-0.061,-0.538,-0.562,-1.312,+0.438,-16, 5, 4, -3, -2, -1, -6, -7
1503599987109,-0.024,+0.030,-0.460,-0.887,+0.822,-0.072,-0.541,-1.125,+0.875,-0.250,4, -15, -6, 0, 1, 8, 9, 5
1503599987132,-0.024,+0.030,-0.461,-0.887,+0.843,-0.070,-0.531,-0.562,+2.812,+0.625,22, -5, -19, -3, 7, 11, -7, 4
1503599987147,-0.024,+0.030,-0.461,-0.887,+0.843,-0.068,-0.522,-0.438,+2.125,+0.562,-10, 16, 8, 2, -2, -12, 8, -5
1503599987170,-0.024,+0.030,-0.461,-0.887,+0.826,-0.073,-0.528,-0.188,+0.438,-0.688,0, 1, 4, 7, 2, 5, 3, 11
1503599987192,-0.024,+0.030,-0.462,-0.886,+0.833,-0.071,-0.531,-0.250,+2.875,+0.438,-3, 15, 9, 6, 0, -4, -1, -4
1503599987207,-0.024,+0.030,-0.462,-0.886,+0.842,-0.069,-0.522,-0.438,+2.750,+0.000,8, 34, -2, -3, -8, -2, 35, -13
1503599987230,-0.024,+0.030,-0.462,-0.886,+0.847,-0.079,-0.521,+0.062,+0.688,-0.750,16, 4, 3, 5, 13, -10, 10, -5
1503599987252,-0.023,+0.030,-0.462,-0.886,+0.828,-0.073,-0.534,+0.125,-0.625,-1.562,14, 1, -5, -9, -13, 1, -3, 3
1503599987274,-0.023,+0.031,-0.462,-0.886,+0.836,-0.077,-0.524,-0.062,+0.875,-2.000,-4, -21, -6, -3, -2, -2, -3, 4
1503599987289,-0.023,+0.031,-0.463,-0.886,+0.864,-0.079,-0.507,-1.062,-0.312,-1.375,26, 19, -6, -3, -1, -2, -53, -1
1503599987312,-0.022,+0.030,-0.462,-0.886,+0.865,-0.066,-0.520,+0.000,-5.125,-2.438,15, 19, 0, 3, 12, 7, 9, -7
1503599987327,-0.021,+0.030,-0.461,-0.887,+0.839,-0.062,-0.544,+0.438,-7.188,-3.312,8, -11, -6, 0, -1, -3, -9, 18
1503599987348,-0.021,+0.030,-0.460,-0.887,+0.814,-0.063,-0.552,-1.438,-5.125,-1.812,-3, -24, -6, -5, 3, -18, -86, 3
1503599987371,-0.021,+0.030,-0.460,-0.887,+0.833,-0.042,-0.543,-2.625,+0.000,+2.000,18, 2, 8, 0, -15, -46, 17, 7
1503599987386,-0.022,+0.029,-0.460,-0.887,+0.861,-0.018,-0.548,-2.500,-0.875,+3.938,-2, -18, -1, 1, -1, -20, 7, 1
1503599987408,-0.022,+0.029,-0.460,-0.887,+0.856,-0.023,-0.552,+1.938,+0.438,+2.938,13, 6, 6, 5, 11, -11, 15, -3
1503599987431,-0.021,+0.030,-0.460,-0.887,+0.845,-0.023,-0.559,+3.938,+0.312,+1.688,15, 8, 2, -1, -5, -13, 5, 16
1503599987446,-0.020,+0.030,-0.459,-0.888,+0.850,+0.021,-0.600,+4.500,-3.938,-1.500,35, 2, 1, 1, -4, 13, 14, -5
1503599987469,-0.019,+0.030,-0.458,-0.888,+0.830,-0.012,-0.556,+7.625,-4.250,+2.125,-7, -13, -12, -4, -3, 2, 3, -5
1503599987491,-0.018,+0.032,-0.457,-0.889,+0.851,-0.026,-0.572,+10.938,-3.625,+1.000,30, 28, 7, 3, -10, 1, -1, 5
1503599987506,-0.016,+0.033,-0.456,-0.889,+0.849,-0.025,-0.578,+13.250,-5.250,-2.562,29, 18, 2, -5, 6, 11, 16, 6
1503599987529,-0.014,+0.035,-0.453,-0.891,+0.839,-0.057,-0.608,+14.812,-19.562,-4.438,-12, -10, -10, -5, 1, 20, 0, -3
1503599987551,-0.011,+0.035,-0.451,-0.892,+0.815,-0.017,-0.606,+10.562,-11.750,-12.125,9, -5, -3, -1, -1, 2, 9, 2
1503599987573,-0.006,+0.035,-0.450,-0.893,+0.845,+0.006,-0.581,+11.125,-7.562,-26.062,22, 14, 3, 1, -11, -6, 0, 4
1503599987588,+0.000,+0.034,-0.450,-0.893,+0.896,+0.013,-0.552,+13.938,-5.500,-26.812,-24, -6, -3, -3, 5, -2, 2, 3
1503599987611,+0.007,+0.034,-0.450,-0.892,+0.894,+0.004,-0.506,+16.938,-2.062,-34.625,-38, -17, -3, -2, 1, -6, -27, -8
1503599987634,+0.016,+0.033,-0.451,-0.892,+0.914,+0.014,-0.550,+22.500,+2.750,-40.875,-6, -4, 2, 4, 5, -2, 6, -4
1503599987648,+0.024,+0.034,-0.453,-0.891,+0.925,-0.003,-0.529,+25.875,+1.750,-38.438,10, -20, -17, -6, -3, 9, -10, -16
1503599987671,+0.032,+0.036,-0.453,-0.890,+0.950,-0.017,-0.529,+31.500,-3.438,-37.438,4, 17, 5, 4, 2, 27, 32, 5
1503599987695,+0.040,+0.039,-0.454,-0.889,+0.921,-0.067,-0.513,+34.688,-2.750,-36.125,-13, 12, 1, 0, -1, -9, -11, -3
1503599987708,+0.048,+0.042,-0.454,-0.889,+0.874,-0.075,-0.553,+33.938,-0.125,-32.125,-27, -19, 13, 6, 5, -1, -5, -5
1503599987732,+0.053,+0.047,-0.453,-0.889,+0.900,-0.063,-0.562,+37.125,-3.438,-19.938,-10, -27, -4, -2, -3, 0, -5, -18
1503599987753,+0.057,+0.053,-0.453,-0.888,+0.917,-0.116,-0.522,+38.125,-5.938,-6.250,-7, 17, 6, 1, 4, -1, 21, 4
1503599987769,+0.059,+0.060,-0.453,-0.887,+0.865,-0.151,-0.496,+33.688,+2.625,+1.625,15, 6, -2, 1, -8, -18, -12, 5
1503599987791,+0.061,+0.067,-0.454,-0.886,+0.878,-0.129,-0.554,+36.938,+9.062,+3.812,4, 10, 2, -1, 2, -8, -3, 4
1503599987813,+0.062,+0.074,-0.456,-0.885,+0.865,-0.150,-0.529,+35.750,+11.250,+6.562,-15, -4, -3, -4, 3, 1, -18, -6
1503599987831,+0.063,+0.081,-0.458,-0.883,+0.889,-0.158,-0.480,+36.562,+12.062,+11.438,11, -13, -2, -5, -7, -13, -19, 1
1503599987851,+0.063,+0.090,-0.459,-0.882,+0.845,-0.180,-0.524,+39.188,+16.000,+14.312,9, -9, -1, 1, 3, 7, 2, 2
1503599987873,+0.064,+0.097,-0.461,-0.880,+0.832,-0.189,-0.496,+37.375,+15.312,+12.750,-3, -8, -4, 3, 10, 44, -21, -6
1503599987888,+0.064,+0.105,-0.464,-0.877,+0.862,-0.174,-0.458,+38.250,+22.875,+14.000,-3, -23, -13, -2, 4, 3, 2, 0
1503599987911,+0.064,+0.113,-0.467,-0.875,+0.833,-0.173,-0.468,+37.125,+23.812,+14.312,12, -15, -8, 2, -14, -30, 3, -2
1503599987934,+0.065,+0.120,-0.470,-0.872,+0.810,-0.184,-0.464,+35.688,+22.312,+11.000,-29, 0, 3, 0, -3, -4, 8, 5
1503599987948,+0.066,+0.127,-0.472,-0.870,+0.848,-0.187,-0.478,+38.562,+22.062,+10.062,8, 42, 9, 0, -5, 8, 5, -4
1503599987971,+0.067,+0.134,-0.475,-0.867,+0.817,-0.200,-0.452,+36.438,+22.062,+6.938,17, 15, 5, 1, -5, -4, 6, 4
1503599987993,+0.069,+0.140,-0.478,-0.865,+0.802,-0.200,-0.421,+34.000,+25.250,+4.688,-10, -27, -8, -8, -3, -20, 0, 2
1503599988008,+0.070,+0.147,-0.481,-0.862,+0.808,-0.200,-0.474,+34.062,+26.688,+6.312,9, 12, -2, -5, 0, -4, 7, -2
1503599988033,+0.071,+0.152,-0.483,-0.860,+0.818,-0.204,-0.450,+30.188,+20.438,+4.375,-25, -19, -2, 3, 2, -6, -7, -5
1503600000076,-0.097,-0.063,-0.541,-0.833,+0.960,-0.009,-0.387,+0.062,+5.375,-4.688,-12, -9, 0, 0, 3, 1, -5, -7
1503600000104,-0.095,-0.064,-0.541,-0.833,+0.938,-0.006,-0.373,+0.312,+3.875,-12.062,-30, -27, -14, -14, -8, 29, -14, 6
1503600000120,-0.094,-0.065,-0.542,-0.833,+0.961,+0.005,-0.395,+0.562,+5.562,-9.750,10, -16, -7, -7, -2, 26, -39, -22
1503600000136,-0.093,-0.065,-0.543,-0.832,+0.956,+0.003,-0.345,+1.438,+4.750,-7.250,-44, -12, 4, 3, 0, -27, -3, 6
1503600000158,-0.091,-0.065,-0.543,-0.832,+1.012,+0.004,-0.375,+2.750,+1.375,-5.188,-47, 20, -10, 2, -2, -4, 6, -7
1503600000180,-0.090,-0.065,-0.542,-0.833,+0.961,+0.054,-0.401,+5.312,-2.438,-5.188,17, 17, 15, 9, 0, -17, 13, 8
1503600000196,-0.088,-0.064,-0.542,-0.833,+0.896,+0.014,-0.353,+9.500,-4.375,-6.688,-16, -11, -1, 3, 2, 45, -31, 5
1503600000218,-0.086,-0.064,-0.542,-0.834,+0.918,-0.022,-0.294,+6.125,-5.812,-9.500,7, 10, 5, -3, 5, 38, 34, 8
1503600000241,-0.084,-0.063,-0.541,-0.834,+0.863,+0.068,-0.367,+5.875,-0.562,-5.312,-45, -3, -2, 1, -6, -44, 2, -9
1503600000256,-0.083,-0.063,-0.540,-0.835,+0.916,+0.076,-0.377,+8.750,-6.188,-1.562,10, -29, -13, -8, 6, 56, 14, 2
1503600000278,-0.082,-0.060,-0.538,-0.836,+0.983,+0.017,-0.353,+11.312,-17.125,+3.188,11, -20, -6, 8, 12, 11, 11, -3
1503600000300,-0.082,-0.059,-0.536,-0.838,+0.924,-0.053,-0.272,+3.375,-24.875,-1.938,24, 20, -6, -7, -9, -51, 1, 5
1503600000316,-0.083,-0.059,-0.533,-0.840,+0.854,+0.021,-0.335,-4.500,-17.938,-0.625,8, -1, 6, 4, -3, -60, -24, -23
1503600000338,-0.083,-0.060,-0.532,-0.841,+0.860,+0.064,-0.387,-2.375,-10.875,+3.875,-3, 14, 14, -1, -3, -2, -3, 0
1503600000360,-0.083,-0.060,-0.531,-0.841,+0.928,+0.041,-0.351,-4.000,-7.375,-0.375,-13, -17, 2, -1, -4, -4, 0, 0
1503600000376,-0.083,-0.061,-0.529,-0.842,+0.942,+0.027,-0.354,-5.875,-12.375,-4.312,-13, -18, -3, 1, 6, 36, 16, -2
1503600000400,-0.083,-0.062,-0.527,-0.844,+0.913,+0.054,-0.400,-4.750,-14.250,-3.188,-47, -24, -10, -9, -5, 9, -9, -4
1503600000420,-0.083,-0.062,-0.525,-0.845,+0.912,+0.040,-0.409,-3.312,-14.312,+0.125,-2, 20, 2, 1, 1, 24, 5, 4
1503600000436,-0.083,-0.062,-0.523,-0.846,+0.928,+0.022,-0.378,-2.375,-11.125,+2.062,6, -9, -3, 2, 1, 20, -1, -3
1503600000458,-0.084,-0.062,-0.522,-0.847,+0.935,+0.030,-0.404,-2.000,-14.188,+1.875,22, 34, -1, -5, 0, -12, -8, -5
1503600000480,-0.084,-0.062,-0.520,-0.848,+0.931,+0.042,-0.410,-3.312,-14.188,+2.375,10, -22, -1, -1, 2, 31, 0, 1
1503600000496,-0.085,-0.062,-0.518,-0.849,+0.933,+0.027,-0.417,-0.375,-9.938,+4.312,6, -14, -9, 2, 35, 69, 7, 17
1503600000518,-0.085,-0.061,-0.517,-0.849,+0.934,+0.001,-0.411,-0.125,-7.188,+2.938,2, 3, -3, 1, -4, 10, 26, 6
1503600000540,-0.085,-0.061,-0.518,-0.849,+0.932,+0.023,-0.424,-1.625,+1.562,+0.438,-16, -16, -8, -7, -5, 11, -25, -15
1503600000557,-0.085,-0.061,-0.519,-0.848,+0.939,+0.031,-0.417,-0.938,+7.562,-0.312,-71, -36, -5, 3, -1, -25, -8, -38
1503600000578,-0.085,-0.062,-0.521,-0.847,+0.960,+0.018,-0.391,-1.250,+14.188,-0.500,44, -14, 1, 1, -7, -1, 4, 14
1503600000602,-0.084,-0.062,-0.524,-0.845,+0.973,+0.019,-0.396,+0.938,+16.500,-0.375,31, -4, -3, -8, -9, -20, 20, 9
1503600000616,-0.084,-0.062,-0.527,-0.844,+0.945,+0.024,-0.406,+1.750,+17.500,-1.938,-13, -3, 21, 23, 4, 10, -14, -4
1503600000639,-0.083,-0.062,-0.530,-0.842,+0.934,+0.039,-0.385,+1.688,+21.812,-1.688,-34, -4, -6, -17, -14, -35, -36, -9
1503600000660,-0.082,-0.062,-0.533,-0.840,+0.923,+0.022,-0.385,+2.250,+23.250,-1.125,-48, 11, -5, -9, 1, 24, 0, -9
1503600000676,-0.080,-0.062,-0.536,-0.838,+0.901,+0.020,-0.371,+1.938,+23.375,-6.875,-3, -6, 4, 4, -4, 24, 17, -11
1503600000698,-0.079,-0.064,-0.540,-0.836,+0.874,+0.039,-0.336,-0.188,+25.562,-9.438,51, 18, 14, 3, 2, -1, 8, -2
1503600000720,-0.076,-0.065,-0.543,-0.834,+0.874,+0.058,-0.360,+1.500,+25.375,-10.000,18, 31, -6, 2, 0, 16, 32, 13
1503600000737,-0.073,-0.067,-0.546,-0.832,+0.874,+0.065,-0.325,+1.562,+23.625,-17.125,-51, -17, -10, -5, 12, 73, 4, 3
1503600000758,-0.069,-0.069,-0.548,-0.831,+0.914,+0.108,-0.337,+3.938,+17.062,-23.500,47, -21, -2, 3, -7, -18, -5, 13
1503600000780,-0.063,-0.072,-0.549,-0.831,+0.893,+0.109,-0.341,+5.625,+7.125,-30.438,50, 19, -3, 0, -4, 5, 38, 1
1503600000796,-0.057,-0.073,-0.548,-0.831,+0.908,+0.116,-0.368,+10.688,+0.438,-31.250,1, -1, 3, -2, 6, -26, 37, 13
1503600000818,-0.052,-0.074,-0.548,-0.832,+0.906,+0.092,-0.349,+14.000,-1.750,-28.312,-9, 19, 8, -1, -12, -39, -11, 8
1503600000840,-0.047,-0.073,-0.547,-0.833,+0.973,+0.031,-0.326,+15.625,-6.875,-23.250,9, -7, 5, 5, 7, 27, -27, 7
1503600000856,-0.043,-0.072,-0.545,-0.834,+0.959,+0.038,-0.354,+17.000,-10.312,-20.188,13, -9, -1, 8, 4, -31, -18, 2
1503600000878,-0.039,-0.071,-0.543,-0.836,+0.993,+0.050,-0.337,+18.375,-18.312,-17.812,-12, 38, 1, -10, -4, 18, -4, -2
1503600000903,-0.036,-0.068,-0.541,-0.837,+0.979,+0.056,-0.347,+19.438,-16.250,-11.375,4, -17, -18, -3, 2, 13, 38, -22
1503600000916,-0.034,-0.065,-0.539,-0.839,+0.980,+0.037,-0.352,+18.375,-19.062,-4.250,-13, 3, 0, -1, -1, -14, 2, 7
1503600000939,-0.033,-0.062,-0.538,-0.840,+0.981,+0.030,-0.353,+18.375,-11.688,+2.312,-23, -27, -9, -5, -3, -35, -21, -62
1503600000960,-0.031,-0.058,-0.537,-0.841,+0.994,+0.048,-0.401,+21.438,-7.125,+3.188,-26, 8, 5, -8, -9, 18, 11, 24
1503600000977,-0.029,-0.054,-0.537,-0.842,+1.008,+0.052,-0.374,+23.250,-7.688,+0.562,21, 13, -15, -3, 7, 3, -8, 18
1503600000998,-0.027,-0.050,-0.535,-0.843,+1.016,+0.055,-0.389,+27.188,-11.312,+2.312,40, -21, -12, -3, -11, -16, -11, 11
1503600013567,-0.058,+0.041,-0.499,-0.864,+0.911,-0.127,-0.484,-6.875,-6.250,+3.375,-29, -13, -6, -3, -3, 7, -5, 5
1503600013589,-0.060,+0.043,-0.498,-0.864,+0.956,-0.207,-0.442,-2.250,-5.375,+14.312,15, -15, -4, 0, -4, 1, 1, 7
1503600013605,-0.063,+0.044,-0.497,-0.864,+0.912,-0.201,-0.451,-9.062,-7.500,+13.500,-2, -4, -4, -2, -4, -8, -4, -6
1503600013627,-0.065,+0.043,-0.497,-0.864,+0.831,-0.146,-0.466,-10.688,-1.125,+7.188,-17, -8, -6, 8, 4, 2, -2, -14
1503600013650,-0.066,+0.043,-0.497,-0.864,+0.839,-0.125,-0.481,-4.875,+7.125,+6.188,5, 3, -9, -8, 1, 0, -21, -2
1503600013667,-0.068,+0.042,-0.500,-0.862,+0.889,-0.154,-0.470,-7.938,+19.688,+8.188,-5, 12, 6, 2, -3, -3, 1, -6
1503600013694,-0.069,+0.040,-0.504,-0.860,+0.893,-0.111,-0.434,-9.688,+30.000,-2.188,-15, -2, -6, 0, 1, -3, 2, 5
1503600013710,-0.067,+0.039,-0.508,-0.858,+0.900,-0.100,-0.423,-1.438,+25.125,-11.125,-9, -19, -9, -3, 2, 7, 3, 1
1503600013725,-0.064,+0.037,-0.510,-0.857,+0.894,-0.098,-0.441,+1.062,+13.312,-18.625,-6, 12, 13, 0, -3, 6, 0, -1
1503600013747,-0.060,+0.035,-0.511,-0.857,+0.841,-0.064,-0.458,+3.812,+7.125,-21.938,22, 8, 2, -1, -1, 1, 6, 3
1503600013771,-0.057,+0.034,-0.512,-0.856,+0.827,-0.079,-0.437,+5.812,+8.312,-17.625,-2, 1, 2, -1, -5, 1, -21, 3
1503600013785,-0.054,+0.034,-0.514,-0.856,+0.859,-0.095,-0.407,+5.812,+10.562,-13.062,9, -5, 6, 2, 2, 0, 10, 0
1503600013807,-0.052,+0.033,-0.516,-0.854,+0.868,-0.071,-0.426,+4.562,+16.062,-10.688,1, -2, 0, -1, 0, -2, 3, -10
1503600013830,-0.050,+0.033,-0.517,-0.854,+0.901,-0.086,-0.439,+5.812,+8.000,-6.812,1, 11, -7, -2, 3, 1, 7, 12
1503600013845,-0.050,+0.034,-0.517,-0.854,+0.958,-0.121,-0.415,+2.500,-2.625,-1.938,28, 13, 3, -1, -1, 1, 2, 1
1503600013868,-0.050,+0.035,-0.515,-0.855,+0.905,-0.107,-0.447,+0.000,-15.500,+6.000,0, -10, -4, 1, -2, -2, 4, -13
1503600013889,-0.052,+0.036,-0.512,-0.857,+0.875,-0.125,-0.417,-2.562,-16.938,+12.062,1, 12, 14, 3, 2, 3, 3, 11
1503600013905,-0.054,+0.037,-0.511,-0.857,+0.880,-0.119,-0.432,-2.688,-10.062,+13.750,10, 30, 15, 3, -1, -3, -2, -7
1503600013927,-0.056,+0.038,-0.509,-0.858,+0.902,-0.157,-0.426,-4.312,-13.500,+12.812,-21, -28, -19, -6, -2, -3, -3, 0
1503600013950,-0.058,+0.039,-0.507,-0.859,+0.902,-0.148,-0.413,-6.375,-12.312,+9.000,-21, -34, -5, -2, 0, 1, 2, 4
1503600013965,-0.059,+0.039,-0.504,-0.861,+0.877,-0.141,-0.488,-5.938,-21.688,+6.688,3, -4, -5, 3, -3, -8, 11, 2
1503600013987,-0.060,+0.039,-0.501,-0.862,+0.915,-0.140,-0.447,-5.562,-18.000,+2.250,20, 2, -1, -1, 3, 9, 1, 6
1503600014010,-0.060,+0.039,-0.499,-0.864,+0.920,-0.133,-0.435,-2.938,-15.438,+1.000,2, 8, -3, -1, 3, 14, -2, -9
1503600014025,-0.060,+0.039,-0.497,-0.865,+0.898,-0.137,-0.458,-1.938,-15.312,-1.062,-2, -4, -5, 0, -3, -9, 0, 0
1503600014047,-0.060,+0.039,-0.496,-0.865,+0.917,-0.147,-0.454,-2.938,-9.062,-1.375,6, -5, -5, -3, -4, 1, -2, 5
1503600014070,-0.060,+0.039,-0.495,-0.866,+0.909,-0.137,-0.467,-0.750,-10.812,-1.375,0, 15, -3, -1, -1, 2, -1, -34
1503600014085,-0.059,+0.039,-0.493,-0.867,+0.851,-0.141,-0.464,-1.625,-10.688,-6.125,-28, -7, -6, -5, 1, 4, -6, 3
1503600014107,-0.058,+0.038,-0.492,-0.868,+0.812,-0.159,-0.473,-6.188,-1.875,-7.875,-13, 3, 4, 0, -3, 1, -1, 4
1503600014130,-0.058,+0.036,-0.492,-0.868,+0.824,-0.130,-0.465,-5.938,+1.188,-7.562,-7, -10, -1, -3, 1, 7, -10, -4
1503600014145,-0.057,+0.035,-0.493,-0.868,+0.887,-0.122,-0.460,-5.188,+1.125,-9.438,-13, 6, 8, 3, 2, 7, 0, -6
1503600014169,-0.055,+0.034,-0.492,-0.868,+0.906,-0.144,-0.467,-6.625,-6.938,-12.312,28, 5, -6, -3, -5, -4, 16, 0
1503600014190,-0.053,+0.032,-0.491,-0.869,+0.872,-0.129,-0.478,-7.125,-10.688,-17.625,15, -12, -5, -2, -1, 1, 2, -11
1503600014205,-0.052,+0.030,-0.489,-0.870,+0.836,-0.118,-0.481,-8.188,-10.000,-15.562,1, -13, 5, 4, -6, -21, 1, 9
1503600014227,-0.050,+0.028,-0.488,-0.871,+0.849,-0.102,-0.479,-7.750,-6.688,-13.688,7, -6, -1, 1, -6, 2, -1, 1
1503600014251,-0.048,+0.026,-0.487,-0.871,+0.869,-0.087,-0.491,-6.312,-1.750,-14.250,-4, 5, 0, -1, -2, -16, 8, 5
1503600014265,-0.047,+0.023,-0.487,-0.872,+0.880,-0.102,-0.472,-8.938,-3.125,-16.312,18, 11, 8, 7, 3, 1, 1, -1
1503600014287,-0.045,+0.021,-0.487,-0.872,+0.881,-0.084,-0.460,-11.500,-1.375,-14.500,3, -6, -5, -7, 5, 8, -6, 2
1503600014310,-0.044,+0.018,-0.487,-0.872,+0.873,-0.055,-0.478,-10.750,-0.125,-13.000,6, 28, 5, 3, 11, 24, -7, -2
1503600014325,-0.043,+0.015,-0.487,-0.872,+0.862,-0.022,-0.492,-9.875,-1.188,-13.125,6, 8, 5, 2, 0, 0, -3, -3
1503600014347,-0.041,+0.013,-0.487,-0.872,+0.893,-0.023,-0.500,-6.938,-0.812,-10.938,2, -2, -10, -2, -1, -5, -1, -1
1503600014370,-0.040,+0.012,-0.486,-0.873,+0.877,-0.044,-0.470,-6.125,-3.562,-8.438,2, 30, 35, 5, 0, -2, -1, -19
1503600014385,-0.040,+0.010,-0.486,-0.873,+0.879,-0.048,-0.465,-9.125,-5.750,-7.875,-2, -6, 1, -6, -7, 0, -1, 9
1503600014407,-0.039,+0.008,-0.485,-0.874,+0.855,-0.025,-0.489,-9.250,-3.938,-4.188,18, -3, 6, 2, -2, -1, -1, 1
1503600014430,-0.040,+0.006,-0.484,-0.874,+0.853,-0.008,-0.493,-7.625,-3.938,-0.625,-23, -9, -12, -5, 1, 14, 2, 3
1503600014446,-0.040,+0.006,-0.484,-0.874,+0.855,-0.014,-0.492,-4.750,-4.938,+0.688,5, 6, -9, 0, -5, -17, -9, 6
1503600014467,-0.040,+0.005,-0.484,-0.874,+0.870,-0.047,-0.449,-5.250,-1.875,+0.750,17, -5, -3, -4, 0, 4, 1, 2
1503600014497,-0.041,+0.004,-0.482,-0.875,+0.871,-0.045,-0.511,-10.375,-7.500,+0.750,-31, -24, -17, -4, -2, 18, 2, 6
1503600014505,-0.042,+0.003,-0.481,-0.876,+0.859,-0.023,-0.488,-8.188,-5.625,-0.062,-12, -20, -5, -3, -2, 0, 14, 3
1503600014527,-0.042,+0.002,-0.481,-0.876,+0.873,-0.039,-0.488,-6.438,-6.312,+0.688,-2, -8, -4, -2, -6, -16, -1, -4
1503600014549,-0.042,+0.001,-0.479,-0.877,+0.861,-0.038,-0.496,-4.125,-7.562,-1.562,6, 5, -3, 3, 8, 10, -3, -3
1503600014565,-0.042,+0.001,-0.479,-0.877,+0.848,-0.058,-0.466,-6.312,-5.562,-0.688,5, -8, -5, 2, 2, 5, -5, -3
1503600014587,-0.043,+0.000,-0.479,-0.877,+0.841,-0.047,-0.491,-5.625,+0.312,+1.438,-14, 12, 11, -1, -3, -8, -14, -8
1503600014610,-0.044,-0.000,-0.479,-0.877,+0.866,-0.035,-0.511,-6.125,+3.250,+2.625,-13, -15, -3, 2, 2, 1, 5, 1
1503600014625,-0.044,-0.001,-0.480,-0.876,+0.871,-0.029,-0.483,-4.562,+4.000,+2.000,4, 11, -5, -1, -1, 9, -4, 4
1503600014647,-0.045,-0.001,-0.480,-0.876,+0.887,-0.042,-0.479,-3.062,+0.062,+2.750,-2, -7, 4, 0, -4, -13, -1, -11
1503600014671,-0.045,-0.001,-0.480,-0.876,+0.864,-0.041,-0.474,-2.938,-3.938,+0.625,-8, -8, -8, -10, -3, -1, -1, 9
1503600014685,-0.045,-0.001,-0.479,-0.877,+0.838,-0.036,-0.490,-2.250,-3.875,-0.125,-22, -7, -8, -4, -2, -4, 0, -2
1503600014708,-0.045,-0.001,-0.479,-0.877,+0.855,-0.045,-0.487,-2.438,-4.562,+1.375,-4, 4, 0, 1, 2, 3, 0, -2
1503600014731,-0.046,-0.001,-0.478,-0.877,+0.861,-0.046,-0.482,-2.750,-3.562,+4.000,9, -5, -1, 0, 3, -2, -4, 2
1503600014745,-0.046,-0.001,-0.477,-0.878,+0.854,-0.025,-0.498,-1.312,-6.375,+2.250,18, 7, 4, 4, 1, 1, -3, -30
1503600014767,-0.046,-0.001,-0.476,-0.878,+0.832,-0.013,-0.525,+0.938,-7.188,+0.750,22, 10, 2, -1, -11, -6, 8, 13
1503600014789,-0.045,-0.000,-0.475,-0.879,+0.838,-0.026,-0.519,+2.250,-7.500,-1.375,-4, 7, 2, -3, 6, 7, -6, 4
1503600014806,-0.045,+0.001,-0.475,-0.879,+0.845,-0.031,-0.499,+4.812,-1.875,-0.125,-3, -14, -1, 1, 3, -5, -2, 9
1503600014827,-0.044,+0.001,-0.475,-0.879,+0.838,-0.043,-0.502,+6.000,+0.500,-3.875,9, 26, 5, 0, -4, -4, -1, -17
1503600014850,-0.042,+0.002,-0.475,-0.879,+0.847,-0.057,-0.496,+5.500,-1.500,-8.125,2, -6, 0, -3, -6, 6, 2, 6
1503600014865,-0.040,+0.002,-0.474,-0.879,+0.855,-0.046,-0.507,+5.250,-0.500,-9.062,-22, -16, -2, -2, -8, 2, 5, 22
1503600014887,-0.038,+0.002,-0.473,-0.880,+0.875,-0.040,-0.518,+4.000,-13.188,-9.375,8, -10, 4, 3, 8, -1, -6, -3
1503600014910,-0.036,+0.003,-0.471,-0.881,+0.881,-0.026,-0.503,+5.375,-10.250,-9.062,9, -5, 1, -1, -5, -10, -7, -11
1503600014925,-0.034,+0.003,-0.470,-0.882,+0.849,-0.028,-0.506,+6.688,-10.812,-9.000,-21, -10, -1, -2, 0, -4, 1, -15
1503600014949,-0.032,+0.004,-0.469,-0.883,+0.889,-0.036,-0.511,+6.875,-10.312,-6.438,3, 16, 10, 4, 3, 1, 6, 5
1503600014980,-0.031,+0.005,-0.467,-0.884,+0.855,-0.040,-0.509,+7.500,-11.812,-4.188,28, -5, -9, -1, -1, -4, -1, 1
1503600014992,-0.030,+0.006,-0.467,-0.884,+0.903,-0.044,-0.484,+7.000,-9.750,-4.000,53, 5, -5, 1, -2, -4, 5, 11
1503600015008,-0.029,+0.007,-0.466,-0.884,+0.867,-0.045,-0.512,+6.875,-4.438,-0.750,0, -27, -15, -3, -1, 2, -7, -8
1503600015029,-0.028,+0.008,-0.466,-0.884,+0.895,-0.029,-0.537,+7.188,-2.750,-2.000,-12, 7, -5, -5, 1, -4, 1, 10
1503600015045,-0.026,+0.009,-0.465,-0.885,+0.878,-0.028,-0.538,+7.438,-5.000,-4.625,-20, -3, 4, -1, -4, -2, 1, 1
1503600015067,-0.025,+0.010,-0.466,-0.884,+0.849,-0.028,-0.524,+8.000,+3.062,-4.625,-40, -1, 0, -4, 1, 0, 6, -13
1503600015089,-0.024,+0.011,-0.466,-0.884,+0.832,-0.006,-0.538,+9.000,+4.938,-2.312,-10, 1, 0, 5, -2, 7, -4, -22
1503600015107,-0.023,+0.012,-0.468,-0.883,+0.847,-0.018,-0.524,+11.000,+12.125,+0.875,28, 23, 6, 0, 0, -1, -5, -10
1503600015127,-0.022,+0.014,-0.470,-0.882,+0.868,-0.032,-0.551,+10.062,+14.062,+2.250,16, -28, -14, -6, -5, -11, 6, 6
1503600015150,-0.021,+0.016,-0.471,-0.882,+0.917,-0.011,-0.534,+10.438,+2.250,+0.312,-5, 3, 12, 5, 0, -26, -7, -14
1503600015165,-0.019,+0.017,-0.471,-0.882,+0.899,-0.016,-0.517,+13.375,-2.438,-1.125,-7, 1, -1, 0, 0, 10, 1, 8
1503600015188,-0.017,+0.020,-0.470,-0.882,+0.859,-0.030,-0.542,+16.188,-6.938,-1.938,-6, 27, 25, 4, 2, -4, 4, 2
1503600015210,-0.016,+0.022,-0.469,-0.883,+0.848,-0.044,-0.553,+17.125,-4.562,+0.312,14, 11, -5, -8, -3, -16, -6, 18
1503600025096,-0.010,+0.010,-0.545,-0.838,+0.903,-0.036,-0.372,+3.250,+0.250,+2.375,1, 5, 3, 2, 0, 3, -12, -12
1503600025116,-0.010,+0.010,-0.546,-0.838,+0.901,-0.055,-0.377,+2.000,+6.500,+2.188,-11, -17, -5, 1, 1, 0, -1, -5
1503600025132,-0.010,+0.011,-0.547,-0.837,+0.905,-0.055,-0.367,+0.812,+8.375,-2.438,-14, -9, -7, -5, 1, -1, -4, -12
1503600025154,-0.008,+0.011,-0.548,-0.836,+0.902,-0.037,-0.357,+5.375,+8.688,-8.875,-32, -16, -8, 0, -13, -26, -5, 9
1503600025176,-0.005,+0.011,-0.549,-0.836,+0.909,-0.052,-0.348,+4.750,+5.625,-17.062,4, 9, 5, 0, 3, -22, -4, 4
1503600025193,-0.002,+0.010,-0.550,-0.835,+0.888,-0.030,-0.369,+4.500,+12.188,-18.750,0, 0, 4, 3, 5, 5, 13, -3
1503600025215,+0.001,+0.009,-0.552,-0.834,+0.898,-0.005,-0.356,+7.375,+17.500,-17.062,6, 18, 3, 2, 2, 23, 1, -8
1503600025237,+0.005,+0.009,-0.555,-0.832,+0.946,-0.011,-0.323,+8.125,+18.250,-20.812,12, 9, 0, -4, 1, 6, -4, 4
1503600025253,+0.008,+0.008,-0.558,-0.830,+0.973,-0.003,-0.307,+5.750,+15.438,-18.562,-23, -7, -2, 1, -2, -17, 13, 3
1503600025274,+0.010,+0.008,-0.560,-0.829,+0.981,+0.033,-0.337,+5.375,+14.438,-10.938,-10, 2, 1, -3, -7, -46, -3, 6
1503600025298,+0.012,+0.007,-0.562,-0.827,+0.954,+0.037,-0.328,+4.125,+13.000,-6.000,16, -24, -7, -5, 6, 40, 0, 3
1503600025312,+0.014,+0.008,-0.564,-0.826,+0.962,+0.015,-0.300,+6.375,+12.375,-7.312,-15, -3, -11, -4, -2, -2, -7, -6
1503600025334,+0.015,+0.008,-0.566,-0.824,+0.966,-0.011,-0.320,+2.438,+18.500,-5.625,13, 18, 3, 3, -1, 8, 1, 2
1503600025358,+0.015,+0.008,-0.567,-0.824,+1.078,+0.042,-0.287,-0.250,+0.188,-1.812,17, 14, 7, 6, 3, -10, -13, 3
1503600025372,+0.014,+0.009,-0.569,-0.822,+1.069,-0.045,-0.254,-0.500,+11.312,+11.500,14, 10, 7, -7, 2, 25, 1, -5
1503600025395,+0.014,+0.010,-0.571,-0.821,+0.972,-0.028,-0.317,+1.375,+8.875,-1.625,19, 4, 6, 2, -3, -15, 1, 8
1503600025417,+0.014,+0.011,-0.570,-0.822,+1.036,-0.057,-0.297,+3.375,-7.688,-1.875,3, -6, -1, 0, -2, 4, 3, 0
1503600025453,+0.014,+0.012,-0.569,-0.822,+0.989,-0.079,-0.277,-0.812,-12.250,-0.500,-4, 37, -3, -3, -3, -3, -6, -10
1503600025460,+0.014,+0.010,-0.567,-0.824,+0.953,-0.039,-0.315,-5.938,-15.125,-10.125,-10, -7, -5, 0, 9, 16, 5, -6
1503600025481,+0.016,+0.008,-0.563,-0.826,+0.925,-0.014,-0.283,-7.562,-25.250,-13.875,14, 4, 12, 6, 1, 3, 6, 11
1503600025493,+0.016,+0.006,-0.560,-0.828,+0.859,-0.014,-0.262,-12.750,-22.938,-12.750,-14, -2, -21, -10, -3, 7, 3, -6
1503600025518,+0.016,+0.003,-0.559,-0.829,+0.893,+0.021,-0.280,-18.375,-12.812,-6.188,6, 24, 4, 2, -3, -30, -5, -6
1503600025537,+0.014,-0.001,-0.558,-0.829,+0.901,+0.074,-0.326,-21.938,-2.875,-2.062,33, 30, 4, -1, -3, 10, -3, 4
1503600025563,+0.014,-0.005,-0.559,-0.829,+0.933,+0.070,-0.249,-23.250,-3.125,-7.312,-16, -35, -5, 0, -3, 4, -4, -10
1503600025575,+0.014,-0.010,-0.559,-0.829,+0.941,+0.090,-0.298,-23.875,-1.812,-12.750,9, 13, 6, 4, -2, -10, 0, -3
1503600025597,+0.014,-0.016,-0.557,-0.830,+0.927,+0.129,-0.337,-23.625,-12.500,-12.688,-12, -22, -5, 4, 12, 22, -2, 5
1503600025619,+0.015,-0.021,-0.555,-0.831,+0.890,+0.130,-0.353,-20.562,-11.875,-13.875,1, 3, 2, -2, -5, -9, -2, -1
1503600025635,+0.016,-0.025,-0.554,-0.832,+0.873,+0.105,-0.369,-18.438,-6.875,-17.062,-3, 15, -6, -10, -7, -1, 4, 9
1503600025656,+0.016,-0.029,-0.553,-0.833,+0.863,+0.103,-0.377,-20.312,+1.000,-12.688,-25, -19, -5, 1, 6, -10, -2, -12
1503600025679,+0.016,-0.033,-0.553,-0.833,+0.908,+0.136,-0.378,-17.188,+1.438,-8.188,-6, -12, -3, -3, -5, -8, -2, -1
1503600025695,+0.016,-0.036,-0.552,-0.833,+0.949,+0.131,-0.372,-12.750,-2.812,-8.062,0, -35, -11, -5, -2, 2, 1, 2
1503600025716,+0.017,-0.038,-0.550,-0.834,+0.936,+0.109,-0.373,-9.562,-11.375,-5.375,13, -12, -11, -4, -2, -4, 3, 14
1503600025739,+0.016,-0.039,-0.548,-0.835,+0.902,+0.093,-0.360,-6.000,-14.312,-0.875,-81, -26, -5, -2, -5, -8, -6, -15
1503600025755,+0.016,-0.039,-0.547,-0.836,+0.896,+0.090,-0.362,-5.812,-8.750,+1.062,31, 15, 7, -2, -5, -8, 6, -12
1503600025776,+0.015,-0.040,-0.546,-0.837,+0.897,+0.095,-0.376,-4.000,-3.625,+2.938,-6, -9, 13, 6, 6, -3, 1, 6
1503600025794,+0.014,-0.039,-0.545,-0.838,+0.937,+0.074,-0.379,-2.062,-7.125,+4.875,-12, 7, -3, -2, -2, -6, 0, -3
1503600025815,+0.013,-0.039,-0.543,-0.839,+0.957,+0.074,-0.343,-4.062,-13.375,+2.438,-17, 29, -4, -5, -1, 11, 1, -11
1503600025837,+0.013,-0.040,-0.541,-0.840,+0.936,+0.074,-0.357,-3.625,-15.938,+0.688,-36, -5, 3, -2, 6, 8, 0, 0
1503600025853,+0.013,-0.040,-0.539,-0.841,+0.917,+0.089,-0.365,-5.000,-13.500,+0.188,-12, -1, 4, -5, -8, -4, -3, 6
1503600025875,+0.012,-0.041,-0.538,-0.842,+0.922,+0.101,-0.364,-4.875,-11.750,+2.562,6, 5, 1, 1, 0, 0, 6, 14
1503600025897,+0.011,-0.041,-0.536,-0.843,+0.925,+0.100,-0.379,-4.438,-12.438,+3.250,24, 1, 1, 2, 0, 5, 0, 6
1503600025913,+0.010,-0.041,-0.534,-0.845,+0.928,+0.091,-0.384,-4.562,-14.250,+3.438,-2, 6, 6, 1, 5, -9, 32, -3
1503600025935,+0.009,-0.042,-0.532,-0.846,+0.910,+0.090,-0.381,-5.812,-13.375,+6.812,12, -3, -3, 1, 1, -28, -20, -5
1503600025956,+0.007,-0.042,-0.531,-0.847,+0.930,+0.096,-0.359,-5.938,-12.125,+9.062,-23, -18, -4, -1, -4, 4, 7, -12
1503600025973,+0.005,-0.042,-0.529,-0.848,+0.920,+0.106,-0.396,-6.562,-14.125,+12.062,21, -1, 13, 4, -7, -12, 1, 10
1503600025996,+0.003,-0.041,-0.526,-0.849,+0.910,+0.090,-0.390,-6.688,-16.000,+12.500,31, -4, -8, -7, -5, -2, 6, 2
1503600026017,+0.001,-0.041,-0.525,-0.850,+0.911,+0.092,-0.408,-5.438,-12.000,+11.000,-5, 24, 0, -6, -10, 25, 13, 8
1503600026039,-0.001,-0.041,-0.524,-0.851,+0.931,+0.070,-0.394,-6.312,-10.000,+11.000,-8, 14, 3, 1, -5, -42, -11, -5
1503600026055,-0.003,-0.041,-0.522,-0.852,+0.910,+0.058,-0.412,-6.062,-9.812,+10.125,-38, 8, -1, -1, 7, 22, -9, -12
1503600026076,-0.005,-0.040,-0.521,-0.853,+0.885,+0.048,-0.429,-5.688,-6.625,+8.312,11, -7, -2, -1, 2, -9, -8, 0
1503600026096,-0.006,-0.040,-0.520,-0.853,+0.896,+0.043,-0.416,-5.375,-4.438,+6.250,-15, -11, -2, 3, 3, 7, 1, -21
1503600026115,-0.008,-0.040,-0.520,-0.853,+0.907,+0.038,-0.415,-5.875,-1.812,+5.625,-8, -23, -9, -12, -7, 2, -3, 38
1503600026138,-0.009,-0.040,-0.520,-0.853,+0.914,+0.035,-0.413,-5.875,-3.438,+4.500,14, 33, 3, 0, -1, 19, -5, 3
1503600026153,-0.010,-0.040,-0.519,-0.854,+0.917,+0.049,-0.426,-4.500,-3.250,+6.562,-9, -29, -3, 3, 10, -6, -7, -22
1503600026175,-0.011,-0.040,-0.518,-0.854,+0.915,+0.064,-0.426,-3.125,-5.250,+6.062,6, 28, 3, 1, -1, -13, -2, -4
1503600026198,-0.012,-0.039,-0.518,-0.855,+0.907,+0.060,-0.427,+0.000,-3.875,+5.375,21, 40, 24, 1, -4, -37, -11, 4
1503600026213,-0.013,-0.038,-0.518,-0.855,+0.916,+0.027,-0.419,+1.125,-2.750,+4.938,-13, -38, -12, -1, -4, 0, 8, 0
1503600026236,-0.013,-0.037,-0.518,-0.854,+0.913,+0.026,-0.415,+1.750,+3.688,+2.688,36, -6, -4, 1, 5, 31, 0, 25
1503600026257,-0.013,-0.036,-0.519,-0.854,+0.937,+0.035,-0.399,+3.312,+4.188,+0.375,-24, 8, -13, -5, -3, -19, 4, -3
1503600026273,-0.012,-0.035,-0.520,-0.854,+0.934,+0.043,-0.402,+3.625,+2.750,-1.000,15, -18, -3, -3, -4, -2, -8, -30
1503600026296,-0.011,-0.035,-0.520,-0.853,+0.897,+0.059,-0.411,+4.125,+1.375,-3.438,10, 4, 4, 8, 17, -4, -22, 2
1503600026317,-0.010,-0.034,-0.521,-0.853,+0.882,+0.046,-0.401,+5.625,+5.250,-3.188,-47, -16, 3, -1, -9, -18, 2, 0
1503600026333,-0.008,-0.033,-0.522,-0.852,+0.903,+0.038,-0.396,+7.500,+7.750,-5.062,-16, -9, -2, -3, 0, 19, 22, 6
1503600026355,-0.006,-0.033,-0.523,-0.852,+0.916,+0.054,-0.391,+7.562,+5.000,-8.625,6, -3, -7, -2, 2, 9, 10, 19
1503600026377,-0.004,-0.032,-0.524,-0.851,+0.929,+0.056,-0.375,+8.062,+5.750,-8.875,35, -12, -8, 2, -2, 6, -10, -3
1503600026393,-0.002,-0.032,-0.524,-0.851,+0.909,+0.068,-0.378,+8.688,-0.562,-9.938,-6, -8, -5, -8, -20, -35, 13, -19
1503600026415,+0.001,-0.031,-0.524,-0.851,+0.909,+0.066,-0.362,+9.312,-0.875,-7.812,3, 3, 6, 0, -9, -21, 35, 3
1503600026438,+0.002,-0.030,-0.525,-0.851,+0.901,+0.045,-0.349,+8.562,+0.812,-5.312,20, 5, 0, -1, -1, -11, -11, -25
1503600026453,+0.004,-0.029,-0.526,-0.850,+0.909,+0.042,-0.372,+9.625,+5.438,-5.188,-12, -34, -12, -3, 4, 5, 16, 12
1503600026475,+0.006,-0.028,-0.527,-0.849,+0.944,+0.042,-0.348,+9.375,+5.125,-7.812,-40, -32, -16, -7, 4, -11, 5, -23
1503600026499,+0.008,-0.027,-0.528,-0.849,+0.940,+0.048,-0.348,+8.812,+4.062,-8.562,-23, -22, -10, 0, -2, -6, -1, 14
1503600026520,+0.010,-0.027,-0.528,-0.849,+0.930,+0.057,-0.372,+9.812,-1.688,-8.938,-55, -20, -10, -11, -5, -1, 8, -9
1503600026535,+0.012,-0.025,-0.527,-0.849,+0.957,+0.072,-0.388,+11.500,-8.188,-6.688,25, -15, 5, 5, 3, 11, 8, -13
1503600026557,+0.015,-0.024,-0.526,-0.850,+0.930,+0.075,-0.387,+14.062,-12.250,-6.375,7, 20, 8, 2, -2, -9, 4, 15
1503600026579,+0.017,-0.022,-0.525,-0.851,+0.915,+0.052,-0.379,+16.312,-9.500,-6.688,20, -5, -5, 7, 4, 6, -11, -6
1503600026597,+0.020,-0.020,-0.524,-0.851,+0.913,+0.046,-0.392,+17.750,-5.188,-5.875,-11, -19, -7, -4, 9, 4, 6, -3
1503600026617,+0.023,-0.017,-0.523,-0.852,+0.917,+0.054,-0.405,+20.500,-3.000,-6.188,24, 42, -2, -9, -1, 7, 1, 8
1503600026640,+0.025,-0.014,-0.523,-0.852,+0.932,+0.043,-0.411,+22.750,-5.438,-4.750,18, -4, -3, -3, -12, -15, -29, -15
1503600026655,+0.028,-0.010,-0.522,-0.852,+0.952,+0.038,-0.387,+24.188,-6.938,-1.562,-29, 7, 12, 4, -1, -1, 7, 11
1503600034401,+0.020,+0.054,-0.502,-0.863,+0.888,-0.042,-0.432,+1.250,+27.875,-20.625,-1, 3, 0, -1, -1, -3, -2, -1
1503600034424,+0.023,+0.053,-0.506,-0.861,+0.899,-0.031,-0.433,+2.812,+27.312,-20.812,4, 10, -1, 1, 0, 1, -1, 1
1503600034439,+0.026,+0.051,-0.510,-0.858,+0.921,-0.012,-0.411,+2.750,+22.875,-17.812,-4, -6, -4, -2, -3, -1, 1, -2
1503600034462,+0.029,+0.051,-0.513,-0.856,+0.917,-0.019,-0.416,+5.062,+19.500,-15.875,4, -2, -3, -1, -2, -2, -1, -5
1503600034485,+0.032,+0.050,-0.516,-0.855,+0.907,-0.022,-0.431,+4.562,+16.312,-15.000,1, 2, 1, 1, -1, -1, 0, -14
1503600034499,+0.034,+0.049,-0.517,-0.854,+0.933,-0.025,-0.391,+3.188,+9.188,-11.562,-3, -3, 3, 0, -2, -1, 0, 7
1503600034521,+0.035,+0.049,-0.520,-0.852,+0.952,-0.019,-0.371,+1.625,+10.875,-1.688,-5, -3, -2, -2, -2, -3, -1, 1
1503600034544,+0.035,+0.050,-0.522,-0.851,+0.943,-0.039,-0.412,+4.562,+15.938,+2.188,-3, -6, -1, -1, 1, 0, -1, 3
1503600034560,+0.036,+0.051,-0.524,-0.850,+0.916,-0.042,-0.425,+5.188,+12.500,-2.438,7, -1, -4, -4, -1, 2, 2, 0
1503600034581,+0.037,+0.052,-0.525,-0.849,+0.902,-0.065,-0.405,+5.062,+10.438,-7.188,-3, 19, 6, 1, -1, -1, -5, -4
1503600034604,+0.038,+0.052,-0.528,-0.847,+0.936,-0.066,-0.386,+5.125,+17.750,-6.312,-9, -4, 0, 0, 3, -1, -1, 3
1503600034619,+0.039,+0.053,-0.532,-0.845,+0.934,-0.073,-0.382,-0.250,+25.875,-2.812,-11, -5, -1, 0, -2, -3, -1, -2
1503600034641,+0.039,+0.053,-0.535,-0.842,+0.940,-0.042,-0.372,-0.125,+25.500,-2.500,-2, 3, -3, -2, -2, -3, 0, -2
1503600034664,+0.040,+0.053,-0.539,-0.840,+0.954,-0.040,-0.389,+4.562,+23.438,-6.375,-1, 7, 3, -1, 1, -2, -2, 1
1503600034679,+0.042,+0.053,-0.541,-0.839,+0.942,-0.050,-0.371,+3.250,+11.938,-10.125,1, 1, 3, 0, -1, 1, 1, 0
1503600034705,+0.043,+0.053,-0.542,-0.838,+0.931,-0.050,-0.352,+2.438,+10.625,-6.688,1, -9, -2, -2, 0, 0, -3, 1
1503600034725,+0.043,+0.054,-0.545,-0.836,+0.950,-0.068,-0.336,+2.312,+16.938,+0.125,1, -7, 0, 0, -1, -2, 0, -2
1503600034739,+0.043,+0.054,-0.547,-0.834,+0.960,-0.072,-0.348,-1.500,+13.125,+0.250,3, -2, -1, 0, -1, -1, -3, 1
1503600034761,+0.042,+0.054,-0.548,-0.834,+0.948,-0.070,-0.324,-5.625,+7.562,+1.125,4, 4, -1, -1, -1, -1, 1, 1
1503600034783,+0.041,+0.054,-0.548,-0.834,+0.993,-0.056,-0.304,-7.125,-2.938,+4.438,3, -6, -3, -3, 1, 1, -2, 0
1503600034799,+0.038,+0.054,-0.548,-0.834,+1.004,-0.059,-0.309,-10.688,-6.688,+8.688,-3, 8, -3, -1, -2, -2, -3, -4
1503600034821,+0.036,+0.052,-0.546,-0.835,+0.944,-0.054,-0.329,-14.375,-13.688,+5.438,-2, -4, 2, 0, 0, -1, -1, -2
1503600034844,+0.035,+0.050,-0.544,-0.837,+0.906,-0.039,-0.332,-18.125,-16.438,+2.000,-3, 11, 3, 1, 0, 2, -1, -3
1503600034860,+0.033,+0.047,-0.543,-0.838,+0.897,-0.008,-0.331,-19.000,-10.000,+3.875,0, 2, -2, 0, 0, 3, 1, -2
1503600034881,+0.031,+0.045,-0.541,-0.839,+0.915,+0.015,-0.362,-18.125,-12.438,+3.625,-2, -4, -1, -2, -2, -4, -3, -4
1503600034903,+0.030,+0.042,-0.539,-0.841,+0.938,+0.013,-0.373,-17.312,-16.125,+2.562,3, 4, -2, -3, -1, -3, -3, -1
1503600034921,+0.029,+0.040,-0.536,-0.843,+0.896,-0.006,-0.392,-16.062,-18.500,+2.438,2, 0, -5, 1, -1, -2, -1, 5
1503600034941,+0.027,+0.038,-0.532,-0.845,+0.875,-0.007,-0.387,-14.562,-26.312,+2.375,3, 1, 2, -1, -3, -3, -3, 2
1503600034964,+0.026,+0.035,-0.529,-0.848,+0.871,-0.013,-0.401,-15.938,-26.125,+1.750,-10, 3, -1, -1, -3, -1, 0, -2
1503600034979,+0.025,+0.033,-0.526,-0.850,+0.829,-0.005,-0.405,-16.250,-18.062,-1.562,-3, -8, 1, 2, 5, 8, -5, 2
1503600035001,+0.024,+0.030,-0.523,-0.851,+0.846,+0.012,-0.405,-14.688,-13.875,+0.562,-10, -7, 1, -2, 2, 5, -1, 1
1503600035024,+0.023,+0.028,-0.522,-0.852,+0.866,+0.016,-0.412,-13.375,-10.250,+2.562,-9, -12, -2, 5, 0, -14, 1, -2
1503600035040,+0.022,+0.026,-0.521,-0.853,+0.875,+0.007,-0.421,-11.562,-6.188,-0.438,-8, 0, 3, -1, -3, 1, 7, 2
1503600035061,+0.022,+0.025,-0.519,-0.854,+0.914,+0.013,-0.428,-10.000,-11.125,-3.500,0, 2, -2, -3, 1, 13, 1, 8
1503600035084,+0.022,+0.023,-0.517,-0.856,+0.935,+0.010,-0.407,-7.062,-17.188,-1.250,1, 12, -5, -5, -4, -6, -2, -2
1503600035100,+0.022,+0.022,-0.515,-0.857,+0.903,-0.015,-0.423,-6.750,-13.750,-2.125,6, -12, 1, 5, 0, 1, -2, -2
1503600035123,+0.023,+0.021,-0.513,-0.858,+0.862,-0.014,-0.442,-5.438,-10.562,-4.438,-19, -18, -5, -4, -9, -1, -1, -7
1503600035144,+0.023,+0.020,-0.512,-0.858,+0.880,-0.015,-0.438,-5.312,-6.438,-4.750,-12, 17, 4, -2, 1, -2, -3, 0
1503600035159,+0.023,+0.020,-0.512,-0.859,+0.921,-0.011,-0.426,-3.562,-2.062,-1.125,21, 9, 1, -4, -1, -4, -5, -4
1503600035181,+0.023,+0.019,-0.512,-0.859,+0.936,-0.021,-0.432,-4.938,-2.688,-1.062,8, 4, -4, -2, -1, -8, 0, 1
1503600035204,+0.023,+0.019,-0.511,-0.859,+0.928,-0.004,-0.441,-3.750,-5.188,-1.375,3, 8, 1, -1, -2, -1, 1, 1
1503600035220,+0.023,+0.019,-0.510,-0.860,+0.940,-0.018,-0.442,-1.812,-10.875,+0.688,7, -2, 2, 0, 2, 1, -1, -6
1503600035241,+0.022,+0.019,-0.508,-0.861,+0.916,-0.022,-0.425,-2.688,-13.125,-0.688,-3, -16, -7, 0, 0, 4, 2, 0
1503600035264,+0.022,+0.018,-0.506,-0.862,+0.874,-0.012,-0.423,-4.375,-11.812,+0.000,-7, 6, -2, -2, 6, -1, -10, 0
1503600035280,+0.022,+0.018,-0.506,-0.862,+0.863,+0.024,-0.445,-3.812,-4.375,+0.812,7, 30, 5, -1, -3, 0, 2, 1
1503600035301,+0.022,+0.017,-0.505,-0.863,+0.900,+0.033,-0.450,-1.375,-2.938,+0.938,0, -13, -1, 1, -4, -3, 0, 1
1503600035325,+0.022,+0.017,-0.505,-0.863,+0.916,+0.018,-0.415,-0.188,-3.688,+3.250,-1, -14, -5, 0, -2, -3, 3, -1
1503600035339,+0.022,+0.017,-0.504,-0.863,+0.917,+0.021,-0.418,-0.438,-8.500,+3.312,-2, -3, -9, -2, -1, -4, -2, -7
1503600035361,+0.022,+0.018,-0.503,-0.864,+0.897,+0.051,-0.432,+1.188,-10.500,+4.250,-13, -10, 5, 0, -6, 0, 1, -11
1503600035384,+0.021,+0.018,-0.501,-0.865,+0.888,+0.032,-0.434,+1.688,-13.250,+6.125,6, 2, 1, 1, 2, 3, 3, 0
1503600035400,+0.021,+0.019,-0.500,-0.865,+0.883,+0.015,-0.441,+2.750,-6.188,+8.438,-15, -1, -5, -4, -4, -6, -2, -1
1503600035421,+0.020,+0.020,-0.500,-0.866,+0.876,+0.013,-0.450,+2.375,-5.250,+8.500,11, 8, 1, -1, -3, 1, -6, 5
1503600035452,+0.019,+0.021,-0.499,-0.866,+0.901,-0.000,-0.431,+3.125,-7.125,+8.438,-4, -13, 2, 2, 2, 11, 8, 4
1503600035467,+0.018,+0.023,-0.498,-0.867,+0.895,-0.033,-0.449,+2.250,-7.875,+7.875,15, -5, -4, 4, 0, 1, 1, 2
1503600035482,+0.018,+0.023,-0.496,-0.868,+0.888,-0.011,-0.439,+0.438,-10.562,+7.312,4, 0, 5, 2, 2, 0, 2, 7
1503600035505,+0.016,+0.024,-0.495,-0.868,+0.890,+0.007,-0.448,+1.500,-10.625,+10.750,1, 0, 3, -1, 1, -6, 3, 2
1503600035528,+0.016,+0.025,-0.494,-0.869,+0.884,+0.014,-0.451,+3.312,-10.500,+9.375,-22, 0, 0, 1, 2, -10, -9, -4
1503600035541,+0.015,+0.027,-0.492,-0.870,+0.884,-0.009,-0.449,+6.188,-11.938,+7.625,27, 41, 9, 7, 2, 15, 3, -1
1503600035564,+0.015,+0.029,-0.491,-0.870,+0.875,-0.023,-0.443,+8.062,-7.562,+6.812,-18, -6, -13, -10, -3, -2, -6, -4
1503600035579,+0.015,+0.031,-0.491,-0.871,+0.898,-0.028,-0.432,+9.250,-5.688,+6.812,5, -1, -8, -1, -4, -14, -4, -10
1503600035601,+0.016,+0.033,-0.490,-0.871,+0.909,-0.025,-0.460,+13.562,-6.375,+7.562,14, -2, -3, -4, -5, -8, 0, 1
1503600035624,+0.016,+0.036,-0.489,-0.872,+0.908,-0.059,-0.467,+15.688,-11.438,+6.562,-8, -10, -1, 2, 6, 19, 16, 6
1503600045411,-0.101,-0.021,-0.526,-0.844,+0.961,-0.065,-0.405,-0.438,+4.438,-3.000,-3, 1, 1, -1, 0, 12, 0, -2
1503600045432,-0.100,-0.021,-0.524,-0.846,+0.932,-0.044,-0.393,-2.938,-13.688,-4.000,-2, -2, -1, -7, -2, -8, -3, 0
1503600045448,-0.100,-0.021,-0.521,-0.847,+0.888,-0.044,-0.412,-3.188,-16.875,-0.125,0, 8, 2, -2, -4, -7, -2, -1
1503600045471,-0.101,-0.022,-0.520,-0.848,+0.849,-0.071,-0.390,-7.500,-8.812,+0.688,2, 18, 13, 4, -4, -4, -2, -2
1503600045487,-0.102,-0.023,-0.519,-0.848,+0.868,-0.048,-0.396,-10.812,-3.438,+1.875,-5, -6, -7, -3, -3, -9, -7, -2
1503600045508,-0.103,-0.025,-0.518,-0.849,+0.935,-0.028,-0.394,-11.188,-8.188,+4.312,-4, -6, -3, 7, -1, -4, -2, -2
1503600045531,-0.105,-0.027,-0.517,-0.849,+0.906,-0.018,-0.396,-16.000,-10.062,+3.500,2, -1, -1, 0, -2, 0, -1, 0
1503600045547,-0.106,-0.029,-0.515,-0.850,+0.870,-0.002,-0.414,-15.938,-14.125,+2.812,-2, 2, -3, -1, 1, 2, 1, -2
1503600045569,-0.108,-0.031,-0.513,-0.851,+0.888,-0.016,-0.417,-16.000,-10.750,+5.875,-1, -4, -3, 0, 4, 5, 1, -2
1503600045591,-0.110,-0.032,-0.511,-0.852,+0.866,-0.024,-0.443,-14.250,-7.562,+5.750,5, -2, -1, -8, 1, -3, 1, -3
1503600045607,-0.111,-0.034,-0.510,-0.852,+0.859,-0.026,-0.439,-13.188,-6.562,+0.562,2, 25, 3, -1, 3, 2, 2, -1
1503600045631,-0.112,-0.036,-0.509,-0.853,+0.902,-0.031,-0.440,-11.875,-3.125,+1.812,-5, -9, -5, -2, -3, 0, -2, 0
1503600045651,-0.113,-0.037,-0.509,-0.853,+0.896,-0.057,-0.452,-11.000,+0.875,+2.938,-1, 11, 3, 2, 0, 4, 11, 2
1503600045691,-0.114,-0.038,-0.509,-0.853,+0.866,-0.040,-0.477,-9.688,+2.312,-0.750,-2, -4, 0, 2, -2, -6, -12, -5
1503600045712,-0.114,-0.039,-0.509,-0.853,+0.876,-0.063,-0.476,-6.875,+4.562,-3.125,2, 12, -4, -2, 0, 1, -1, 1
1503600045719,-0.114,-0.040,-0.509,-0.852,+0.938,-0.090,-0.423,-6.562,+3.750,-4.125,-7, -10, -3, 1, 0, -5, -1, -12
1503600045727,-0.114,-0.040,-0.509,-0.852,+0.961,-0.090,-0.442,-4.188,-2.625,-3.438,-5, 5, 1, -2, -1, 4, 5, 3
1503600045749,-0.114,-0.041,-0.508,-0.853,+0.914,-0.089,-0.437,-6.562,-6.062,-4.188,-11, -12, -2, -2, -2, -2, -1, 3
1503600045775,-0.115,-0.041,-0.507,-0.853,+0.917,-0.076,-0.467,-6.312,-5.188,-1.812,12, -2, 3, 1, -3, 0, 2, 4
1503600045790,-0.115,-0.042,-0.507,-0.853,+0.906,-0.060,-0.472,-3.750,-2.062,-2.312,-6, 16, 5, -1, -2, 1, -6, 2
1503600045808,-0.114,-0.042,-0.506,-0.854,+0.926,-0.063,-0.439,-2.812,-7.062,-6.812,8, 14, 0, 1, 2, 0, 3, 2
1503600045831,-0.113,-0.043,-0.505,-0.855,+0.909,-0.047,-0.447,-1.375,-8.000,-9.000,1, -34, -8, -2, -3, -8, 0, 3
1503600045846,-0.112,-0.043,-0.503,-0.856,+0.908,-0.051,-0.461,-1.250,-9.500,-8.188,0, 17, 7, -1, -1, 1, 0, -7
1503600045868,-0.111,-0.043,-0.502,-0.857,+0.866,-0.040,-0.449,+1.500,-5.750,-6.062,1, 5, -2, 0, 1, 0, -2, -3
1503600045891,-0.109,-0.043,-0.502,-0.857,+0.853,-0.036,-0.465,+2.562,-0.938,-6.875,4, -12, -5, 0, 1, 12, 3, 1
1503600045907,-0.108,-0.043,-0.502,-0.857,+0.872,-0.037,-0.435,-1.375,-3.000,-6.000,-1, -9, -6, -3, -2, 3, -1, 2
1503600045928,-0.108,-0.044,-0.501,-0.857,+0.865,-0.013,-0.442,-2.625,-1.812,-3.562,7, -3, -1, -1, -3, -6, -1, 1
1503600045951,-0.107,-0.045,-0.501,-0.858,+0.870,+0.004,-0.481,+0.062,-0.938,-5.125,3, 16, 3, 6, -4, -4, 0, 2
1503600045967,-0.106,-0.045,-0.501,-0.858,+0.912,-0.008,-0.436,+0.938,-1.688,-4.875,-3, 7, 6, 0, 4, 2, 0, -3
1503600045990,-0.105,-0.045,-0.500,-0.858,+0.877,-0.042,-0.403,-1.688,-5.250,-4.562,6, -1, -7, -5, -3, 0, -1, 5
1503600046011,-0.105,-0.046,-0.500,-0.859,+0.855,-0.021,-0.438,-5.625,-3.188,-7.438,-4, 0, -2, -8, 4, 2, -1, -5
1503600046027,-0.104,-0.048,-0.500,-0.859,+0.875,+0.013,-0.453,-5.875,+1.438,-4.250,-18, 10, 7, 3, 4, -2, -1, 0
1503600046049,-0.104,-0.049,-0.500,-0.858,+0.910,+0.000,-0.408,-6.250,+2.125,-1.250,17, -8, -8, -1, -3, -2, 0, 7
1503600046071,-0.104,-0.051,-0.500,-0.858,+0.894,+0.012,-0.422,-8.750,-0.125,-2.312,-15, 1, 3, -1, -3, -6, -4, 0
1503600046087,-0.104,-0.052,-0.500,-0.858,+0.874,+0.017,-0.469,-9.062,-2.938,-1.625,8, 16, -7, -9, -7, -7, -5, 0
1503600046109,-0.105,-0.053,-0.499,-0.859,+0.887,+0.007,-0.446,-7.062,-5.250,+0.000,6, -6, 9, 2, 0, -6, -3, -3
1503600046132,-0.105,-0.054,-0.499,-0.859,+0.907,-0.015,-0.411,-8.000,-2.688,-0.312,-12, -16, -5, 2, 2, 2, 2, -1
1503600046147,-0.106,-0.055,-0.498,-0.859,+0.905,+0.000,-0.437,-11.500,-8.750,+1.250,8, 0, -1, 1, 1, -2, -3, -15
1503600046169,-0.108,-0.057,-0.496,-0.860,+0.867,+0.031,-0.465,-10.000,-11.375,+3.688,-9, -8, 4, 4, 1, 3, 2, 0
1503600046190,-0.108,-0.057,-0.493,-0.861,+0.838,+0.027,-0.464,-6.750,-12.938,+3.188,-3, -19, -8, -6, -3, 1, 3, 4
1503600046208,-0.109,-0.058,-0.492,-0.862,+0.864,+0.004,-0.455,-6.875,-11.875,+3.625,-13, 15, 5, -1, -2, 0, -2, 2
1503600046229,-0.111,-0.058,-0.490,-0.863,+0.863,+0.008,-0.471,-5.750,-9.438,+6.062,10, 5, -6, -5, 0, 6, 1, -1
1503600046251,-0.112,-0.057,-0.488,-0.864,+0.859,+0.025,-0.508,-2.875,-12.188,+6.062,-13, 2, -1, -7, -1, -6, -1, -17
1503600046267,-0.112,-0.057,-0.486,-0.865,+0.829,+0.020,-0.481,-1.875,-9.625,+4.375,-4, -3, 7, 3, 2, -1, 0, -2
1503600046289,-0.113,-0.056,-0.485,-0.865,+0.867,-0.010,-0.489,+0.312,-6.375,+6.500,6, -4, 0, 0, 1, 1, 3, 8
1503600046311,-0.114,-0.055,-0.485,-0.865,+0.884,-0.037,-0.483,+2.500,-1.688,+6.312,17, -1, -6, 1, 1, 0, -1, 3
1503600046327,-0.115,-0.054,-0.485,-0.865,+0.912,-0.039,-0.463,+1.625,-4.875,+6.125,7, 26, 10, 11, 1, 1, -1, 3
1503600046351,-0.116,-0.053,-0.484,-0.866,+0.897,-0.023,-0.473,+0.938,-8.938,+6.375,-8, -16, -12, -4, -1, -5, -4, 1
1503600046371,-0.116,-0.052,-0.483,-0.867,+0.894,-0.021,-0.488,+3.062,-12.250,+4.250,-33, -5, -4, -5, -2, 20, -2, -14
1503600046387,-0.116,-0.050,-0.481,-0.868,+0.876,-0.034,-0.489,+4.000,-12.000,+3.875,15, 0, -1, 0, -2, 0, -4, -5
1503600046410,-0.116,-0.049,-0.479,-0.869,+0.865,-0.033,-0.484,+4.625,-12.688,+2.812,-27, -29, -8, -4, -4, -2, -2, 3
1503600046431,-0.116,-0.047,-0.479,-0.869,+0.867,-0.036,-0.485,+5.375,-7.625,+2.438,4, 1, -4, -1, 8, 6, 4, 11
1503600046447,-0.116,-0.046,-0.478,-0.869,+0.872,-0.058,-0.479,+4.188,-3.750,+2.625,29, 6, 0, 1, -5, -9, 2, 8
1503600046469,-0.116,-0.045,-0.479,-0.869,+0.876,-0.062,-0.493,+4.188,+0.312,+2.875,-12, 0, 5, -2, 0, -18, -1, 8
1503600046490,-0.116,-0.043,-0.479,-0.869,+0.870,-0.066,-0.499,+3.875,-1.688,+0.812,15, -4, 0, -2, -1, -17, -4, -2
1503600046508,-0.116,-0.042,-0.478,-0.870,+0.890,-0.056,-0.473,+2.250,-6.375,+1.250,-2, 16, 2, 1, -1, -3, -3, -5
1503600046529,-0.116,-0.041,-0.478,-0.870,+0.886,-0.049,-0.480,+3.125,-5.562,+2.438,-1, -2, -1, 0, -5, -3, -1, -25
1503600046550,-0.116,-0.041,-0.477,-0.870,+0.878,-0.044,-0.486,+2.250,-7.500,+2.375,10, -4, 12, 2, -4, 2, 3, -1
1503600046571,-0.116,-0.040,-0.476,-0.871,+0.849,-0.016,-0.511,+3.812,-9.188,+1.562,-36, -5, -6, -3, 3, 16, 3, 4
1503600046589,-0.116,-0.039,-0.474,-0.872,+0.849,-0.012,-0.512,+5.500,-7.312,+1.062,-18, -17, -13, -6, 3, 5, -1, -3
1503600046612,-0.115,-0.037,-0.474,-0.872,+0.856,-0.041,-0.506,+7.625,-3.188,+1.312,16, 10, 18, 7, 3, -3, 2, -2
1503600046636,-0.114,-0.036,-0.474,-0.872,+0.849,-0.045,-0.505,+7.438,-2.438,-0.250,-42, -5, -6, -2, 2, 19, 1, -1
1503600046649,-0.113,-0.034,-0.474,-0.872,+0.858,-0.037,-0.501,+9.375,+1.875,+0.000,26, 14, -4, 0, -5, -22, -1, -15
1503600046671,-0.112,-0.033,-0.475,-0.872,+0.879,-0.035,-0.507,+11.438,+0.000,-0.250,19, -12, -13, -5, -1, 7, -2, 4
1503600046687,-0.111,-0.030,-0.475,-0.873,+0.891,-0.030,-0.526,+14.500,-4.000,+1.688,18, -7, 5, 7, -4, -1, 3, 0
1503600046709,-0.110,-0.027,-0.474,-0.873,+0.867,-0.049,-0.530,+17.438,-7.438,+2.625,-16, -2, 10, -3, 0, -4, -2, -6
1503600046731,-0.109,-0.024,-0.472,-0.874,+0.848,-0.068,-0.524,+18.875,-11.000,+3.250,-1, -3, -6, -4, -6, -12, 5, 19
1503600046753,-0.108,-0.020,-0.472,-0.875,+0.807,-0.078,-0.507,+18.625,-3.250,+5.500,16, 11, 6, 5, 3, 2, -23, -31
1503600046774,-0.107,-0.017,-0.473,-0.875,+0.812,-0.073,-0.513,+17.938,+2.688,+4.062,-1, -2, -5, -2, -1, -16, -1, 6
1503600046790,-0.106,-0.014,-0.474,-0.874,+0.843,-0.080,-0.491,+16.312,+5.188,+0.438,8, 1, 1, 0, -8, -13, 6, 16
1503600046813,-0.104,-0.012,-0.475,-0.874,+0.873,-0.062,-0.514,+16.188,+3.312,-1.750,-10, -24, -4, -2, 3, 11, -1, 8
1503600046839,-0.102,-0.010,-0.475,-0.874,+0.883,-0.035,-0.520,+15.938,-1.438,-6.250,-16, -1, -4, -4, 0, -8, -6, 4
1503600046851,-0.098,-0.009,-0.474,-0.875,+0.849,-0.006,-0.535,+16.875,-4.250,-11.125,-18, -9, -4, -3, 0, 7, 7, 1
1503600046873,-0.094,-0.009,-0.473,-0.876,+0.845,+0.014,-0.552,+17.875,-6.125,-15.375,23, 40, -7, -3, -4, -8, -4, -6
1503600057502,-0.046,-0.043,-0.598,-0.799,+0.948,+0.033,-0.216,-23.875,+29.562,-12.625,-3, -10, -3, -1, -1, 3, 3, 11
1503600057516,-0.045,-0.048,-0.601,-0.797,+0.993,+0.047,-0.216,-20.688,+23.062,-14.875,6, -12, -6, -3, -3, -3, -1, -2
1503600057539,-0.045,-0.053,-0.603,-0.795,+0.962,+0.044,-0.223,-21.000,+15.750,-17.500,-5, -4, -2, -1, -1, -5, -1, -5
1503600057560,-0.046,-0.057,-0.604,-0.793,+1.048,+0.043,-0.186,-26.875,+11.375,-9.062,11, 4, 4, 2, 3, -1, 0, -1
1503600057578,-0.048,-0.061,-0.605,-0.793,+1.033,+0.096,-0.259,-24.812,+5.000,+0.500,-4, -19, -2, -4, -4, -5, -1, 15
1503600057599,-0.049,-0.064,-0.605,-0.792,+0.918,+0.106,-0.250,-18.875,+5.938,-2.062,-7, 1, -4, -3, -6, 1, 0, -3
1503600057620,-0.048,-0.068,-0.605,-0.792,+0.959,+0.129,-0.239,-14.188,+4.438,-9.375,-12, -1, -2, 0, 4, -3, -2, -5
1503600057636,-0.050,-0.069,-0.604,-0.792,+1.038,+0.064,-0.259,-10.125,-2.062,+2.812,0, 0, 5, -1, -1, 1, -2, -1
1503600057659,-0.052,-0.070,-0.604,-0.792,+1.007,+0.057,-0.227,-16.125,+2.750,+7.438,0, 23, 2, 2, 2, -2, -1, -3
1503600057681,-0.053,-0.071,-0.605,-0.792,+0.943,+0.113,-0.265,-9.062,+6.188,+2.562,-1, -2, -4, -2, 0, 12, 4, -8
1503600057696,-0.053,-0.071,-0.604,-0.792,+0.965,+0.113,-0.285,-2.000,-0.812,+0.312,4, -11, 0, 1, 0, -3, -1, 2
1503600057718,-0.052,-0.072,-0.604,-0.792,+0.949,+0.098,-0.258,+2.375,-2.188,-2.875,-11, -3, -1, -2, 0, -4, -3, -4
1503600057740,-0.050,-0.071,-0.603,-0.793,+0.960,+0.081,-0.237,+4.250,-0.375,-2.812,-3, 1, 6, 4, -1, 9, 0, -15
1503600057756,-0.049,-0.070,-0.604,-0.792,+0.920,+0.099,-0.233,+8.875,+7.562,+1.750,3, -4, -3, 0, 0, -4, -1, 1
1503600057778,-0.047,-0.069,-0.605,-0.792,+0.934,+0.074,-0.230,+11.188,+10.250,-3.562,-3, 6, 0, 0, 3, -8, -8, 0
1503600057800,-0.045,-0.068,-0.606,-0.791,+0.961,+0.092,-0.253,+13.688,+7.812,-4.688,-1, -5, -5, -3, -2, -4, 0, -14
1503600057816,-0.043,-0.066,-0.607,-0.791,+0.955,+0.090,-0.239,+16.438,+10.375,+1.875,20, -1, 5, 1, 3, 6, 4, 5
1503600057838,-0.041,-0.064,-0.609,-0.789,+0.974,+0.054,-0.184,+16.000,+13.750,+3.500,11, -2, -4, -2, -6, -3, -5, 2
1503600057860,-0.041,-0.061,-0.611,-0.788,+1.001,+0.031,-0.139,+9.688,+8.938,+5.625,-8, 1, 4, 1, -1, -1, -2, 2
1503600057876,-0.040,-0.059,-0.612,-0.788,+0.992,+0.064,-0.200,+10.438,+5.812,+7.438,17, 11, 2, -1, 0, -1, 4, -17
1503600057898,-0.039,-0.057,-0.612,-0.788,+0.970,+0.062,-0.208,+13.000,+2.000,+3.688,4, -10, -5, -1, 0, 4, 0, 10
1503600057920,-0.038,-0.055,-0.612,-0.788,+0.984,+0.044,-0.209,+13.688,-6.062,+2.625,-4, 11, 6, -5, -3, 4, 0, -6
1503600057937,-0.037,-0.053,-0.611,-0.789,+0.972,+0.027,-0.174,+13.562,-10.250,-0.250,0, -4, -7, -3, -2, -3, -1, 0
1503600057958,-0.035,-0.051,-0.609,-0.791,+0.944,+0.016,-0.188,+9.625,-11.250,-4.188,8, -19, 0, 2, 0, -4, 2, 1
1503600057980,-0.034,-0.051,-0.607,-0.792,+0.917,+0.064,-0.225,+6.000,-13.812,-3.625,-6, -11, -6, 1, 0, -1, -3, -22
1503600057996,-0.033,-0.050,-0.605,-0.794,+0.904,+0.099,-0.246,+8.750,-9.938,+2.375,-1, -2, 1, 7, -7, -6, 0, 1
1503600058019,-0.031,-0.048,-0.604,-0.795,+0.934,+0.094,-0.236,+13.812,-8.812,+1.125,9, -5, -5, -3, 3, 4, -2, 3
1503600058040,-0.030,-0.047,-0.602,-0.797,+0.976,+0.026,-0.200,+11.438,-16.500,-1.438,3, -5, -5, -2, -2, 1, -2, 6
1503600058056,-0.029,-0.045,-0.600,-0.798,+0.946,+0.039,-0.204,+8.188,-14.625,-2.000,-4, 1, 0, -3, 0, -4, 0, -1
1503600058080,-0.027,-0.044,-0.598,-0.800,+0.923,+0.056,-0.218,+10.062,-13.375,-3.188,12, -2, -2, -2, -6, -1, -2, 1
1503600058101,-0.025,-0.044,-0.597,-0.800,+0.929,+0.064,-0.217,+7.250,-7.812,-7.188,4, 10, 2, -1, 0, -4, -1, 2
1503600058116,-0.023,-0.044,-0.597,-0.801,+0.973,+0.078,-0.231,+7.938,-3.312,-7.125,-4, 10, -1, 0, 0, 1, -2, -9
1503600058139,-0.021,-0.044,-0.596,-0.801,+0.969,+0.059,-0.231,+8.812,-5.750,-9.625,-13, -10, 0, 2, -4, -1, 6, 3
1503600058161,-0.019,-0.044,-0.595,-0.802,+0.994,+0.049,-0.204,+5.188,-9.250,-10.312,-1, 7, 5, 0, 2, 4, -1, 0
1503600058177,-0.017,-0.044,-0.594,-0.803,+0.987,+0.053,-0.203,+2.625,-12.688,-8.188,0, -11, -4, -1, -2, -6, -1, 4
1503600058199,-0.016,-0.045,-0.592,-0.804,+0.981,+0.064,-0.227,-1.062,-12.688,-5.062,-9, -10, -1, 0, 4, 3, -3, 0
1503600058221,-0.016,-0.045,-0.591,-0.805,+0.973,+0.074,-0.246,-0.938,-12.125,-2.062,-11, 8, -1, -3, 0, -5, 1, -5
1503600058239,-0.016,-0.045,-0.590,-0.806,+0.980,+0.059,-0.238,-3.250,-7.562,-0.938,2, 17, 1, -2, -1, -7, -11, 0
1503600058259,-0.016,-0.046,-0.589,-0.807,+0.994,+0.071,-0.239,-2.750,-10.188,-0.375,-3, -16, -3, 1, 3, 0, 3, -4
1503600058281,-0.017,-0.046,-0.587,-0.808,+1.005,+0.070,-0.245,-4.500,-14.062,+3.062,7, 7, 2, 0, -1, 7, 4, 4
1503600058297,-0.018,-0.046,-0.586,-0.809,+0.969,+0.076,-0.264,-6.312,-12.188,+5.625,-1, -1, -3, -3, -1, -3, -3, -5
1503600058319,-0.020,-0.047,-0.584,-0.810,+0.963,+0.075,-0.258,-7.188,-10.938,+6.188,-13, -12, 3, -1, -1, 6, -3, 2
1503600058341,-0.022,-0.046,-0.583,-0.811,+0.980,+0.063,-0.253,-6.375,-9.000,+10.438,0, -8, -6, 0, 0, -1, -3, 1
1503600058356,-0.023,-0.046,-0.582,-0.812,+0.982,+0.055,-0.263,-7.688,-9.812,+9.188,-5, 2, -4, -11, -8, -2, 2, -1
1503600058380,-0.025,-0.047,-0.581,-0.812,+0.967,+0.063,-0.258,-9.625,-9.438,+7.625,-4, 9, 4, -2, 4, -12, 1, 0
1503600058401,-0.027,-0.047,-0.580,-0.813,+0.974,+0.048,-0.271,-7.375,-8.812,+7.938,-2, -12, -13, -7, -10, -10, -4, 3
1503600058416,-0.029,-0.047,-0.579,-0.813,+0.977,+0.023,-0.285,-8.438,-5.312,+8.500,6, 16, 7, 4, 4, 12, 3, 0
1503600058440,-0.031,-0.047,-0.579,-0.814,+0.964,+0.028,-0.268,-9.812,-4.375,+4.875,5, 1, -4, 1, 1, -6, -16, -9
1503600058461,-0.033,-0.048,-0.578,-0.814,+0.965,+0.019,-0.295,-11.125,-4.625,+4.375,0, 0, 1, 0, 1, -3, -1, 1
1503600058477,-0.034,-0.049,-0.578,-0.814,+0.953,+0.019,-0.283,-12.688,-1.875,+2.375,4, 0, -1, 0, -1, 7, 3, -1
1503600058499,-0.035,-0.051,-0.577,-0.814,+0.943,+0.050,-0.299,-11.250,-0.125,+1.438,3, 7, 0, 4, 0, 5, 2, 2
1503600058524,-0.036,-0.052,-0.576,-0.815,+0.947,+0.055,-0.315,-8.875,-3.938,+0.438,4, 2, -3, -5, -7, -2, 1, -1
1503600058537,-0.037,-0.052,-0.575,-0.815,+0.941,+0.034,-0.302,-7.625,-5.875,+1.188,-13, -18, -3, -1, 2, -1, -1, 0
1503600058559,-0.038,-0.053,-0.575,-0.816,+0.931,+0.029,-0.294,-7.250,-2.500,-1.188,-2, -6, 2, 4, 2, -6, 0, -3
1503600058582,-0.038,-0.054,-0.575,-0.816,+0.938,+0.044,-0.304,-5.188,+1.750,-0.500,2, -7, 2, 3, 1, 2, 2, -1
1503600058596,-0.038,-0.054,-0.575,-0.816,+0.959,+0.039,-0.308,-3.000,-0.375,-0.375,-1, -4, -6, -6, -3, -3, -6, -5
1503600058620,-0.038,-0.054,-0.574,-0.816,+0.962,+0.034,-0.304,-1.625,-2.562,-1.438,-3, -1, -3, -3, 0, 0, -1, 1
1503600058641,-0.038,-0.053,-0.573,-0.817,+0.958,+0.028,-0.330,+1.500,-6.562,-1.062,-4, 6, 3, -6, -5, -3, 12, -1
1503600058656,-0.037,-0.053,-0.571,-0.818,+0.925,+0.015,-0.316,+1.125,-10.500,-4.562,4, 3, 0, -2, 6, 0, -5, -4
1503600058679,-0.037,-0.053,-0.571,-0.819,+0.955,+0.001,-0.272,-3.500,-6.688,-3.312,-2, -7, 0, 2, 0, 1, 4, 2
1503600058701,-0.037,-0.053,-0.570,-0.819,+0.934,+0.039,-0.302,-3.438,-1.312,-0.438,7, 11, 6, 4, 2, -14, -1, 3
1503600058717,-0.037,-0.054,-0.570,-0.819,+0.931,+0.060,-0.320,-2.250,-1.750,-0.562,-13, -15, -7, -2, -6, -4, -4, -5
1503600058741,-0.037,-0.054,-0.569,-0.820,+0.944,+0.044,-0.302,-1.625,-4.562,+0.062,-7, -2, -5, -7, -9, -16, -2, -1
1503600058771,-0.038,-0.054,-0.569,-0.820,+0.972,+0.027,-0.280,-2.188,-6.188,+0.938,-1, -3, 2, 3, 5, 30, -5, -22
1503600058782,-0.038,-0.054,-0.568,-0.821,+0.945,+0.049,-0.310,-2.562,-5.250,+0.750,1, 39, 17, 4, 1, -6, 3, -1
1503600058799,-0.039,-0.054,-0.567,-0.821,+0.935,+0.050,-0.313,-2.688,-6.875,+1.938,-39, -31, -7, -5, -3, -3, -6, 10
1503600058821,-0.039,-0.054,-0.566,-0.822,+0.944,+0.049,-0.302,-2.875,-3.562,+2.375,11, 9, 0, 0, -11, -23, -2, 4
1503600058836,-0.039,-0.054,-0.566,-0.822,+0.944,+0.043,-0.311,-1.875,-4.062,+0.062,-10, -11, -6, 2, 6, 5, 1, 3
1503600058859,-0.039,-0.054,-0.565,-0.823,+0.949,+0.059,-0.316,-2.000,-4.812,-1.062,12, -1, -1, 0, -3, -20, -3, -4
1503600058881,-0.039,-0.054,-0.564,-0.823,+0.950,+0.050,-0.315,-1.250,-5.000,+0.312,-13, -6, -3, -3, -2, 9, -4, 4
1503600058896,-0.039,-0.054,-0.564,-0.823,+0.948,+0.053,-0.296,-3.312,-3.250,+0.438,27, 2, -2, 1, 10, 17, 1, -21
1503600058919,-0.039,-0.055,-0.563,-0.823,+0.958,+0.060,-0.318,-2.625,-2.375,-0.125,-7, -5, -3, -1, 1, 16, -2, 3
1503600058942,-0.039,-0.055,-0.563,-0.824,+0.958,+0.065,-0.322,-1.312,-3.000,-0.250,14, 5, -6, 7, -3, -5, 4, -5
1503600058956,-0.039,-0.055,-0.562,-0.824,+0.952,+0.056,-0.324,-0.125,-4.000,+0.312,-1, 3, -2, -7, 1, 16, 5, 0
1503600058980,-0.039,-0.055,-0.562,-0.825,+0.942,+0.051,-0.321,-0.875,-3.750,+1.000,-9, -12, 0, -2, -3, -14, -1, 8
1503600059001,-0.039,-0.054,-0.562,-0.825,+0.945,+0.032,-0.298,-1.750,-2.688,+0.562,7, 8, 4, 2, 1, 5, 2, 8
1503600059017,-0.040,-0.055,-0.562,-0.825,+0.964,+0.053,-0.312,-3.375,-0.938,+1.312,-2, -10, -7, -5, -2, -18, -3, 5
1503600059039,-0.040,-0.055,-0.561,-0.825,+0.946,+0.080,-0.330,-3.125,-2.375,+1.500,-12, -5, -4, 0, -9, 6, -3, -6
1503600059061,-0.040,-0.055,-0.561,-0.825,+0.946,+0.059,-0.316,-1.312,-4.188,+1.562,22, 14, 0, -6, -8, -5, 1, -12
1503600059077,-0.040,-0.055,-0.560,-0.826,+0.943,+0.040,-0.314,-1.188,-2.938,+1.500,2, -2, 0, -2, -5, -21, 2, 12
1503600059099,-0.041,-0.055,-0.560,-0.826,+0.932,+0.057,-0.317,-1.812,-2.062,+1.750,-20, -21, -6, -2, 4, 21, 5, 7
1503600059122,-0.041,-0.055,-0.560,-0.826,+0.939,+0.043,-0.324,-2.875,-2.812,+3.375,0, 7, 0, -2, 12, 9, 13, 14
1503600059136,-0.042,-0.055,-0.559,-0.826,+0.943,+0.050,-0.312,-3.750,-2.375,+3.250,1, 0, -2, -1, 3, -2, -10, -12
1503600059159,-0.042,-0.055,-0.559,-0.827,+0.944,+0.066,-0.327,-3.812,-5.750,+1.438,-3, 5, 5, 1, -7, -25, -2, -2
1503600059181,-0.043,-0.055,-0.557,-0.827,+0.935,+0.066,-0.339,-2.688,-7.000,+2.188,4, 4, -1, -2, -3, -16, -8, 0
1503600059195,-0.043,-0.055,-0.557,-0.828,+0.935,+0.056,-0.332,-0.688,-6.500,+3.062,6, -6, 3, 1, -1, -9, -5, -2
1503600059218,-0.043,-0.055,-0.556,-0.828,+0.935,+0.033,-0.321,-0.625,-4.500,+1.938,12, 10, 1, 0, -10, -13, -2, -4
1503600059240,-0.044,-0.055,-0.556,-0.828,+0.938,+0.034,-0.323,-2.250,-1.312,+1.375,3, 22, 1, -1, 2, 9, -9, 8
1503600059255,-0.044,-0.055,-0.556,-0.828,+0.943,+0.047,-0.322,-2.562,-1.000,+1.062,3, -7, -1, 1, 4, 5, 3, 0
1503600059278,-0.044,-0.055,-0.556,-0.828,+0.951,+0.062,-0.339,-0.938,-0.938,+1.312,-1, -2, 4, 7, 1, 5, -6, -5
1503600059300,-0.044,-0.054,-0.555,-0.829,+0.944,+0.047,-0.338,+0.125,-3.062,+0.688,-35, -19, -15, -6, -6, 4, 6, 10
1503600059315,-0.044,-0.054,-0.555,-0.829,+0.941,+0.027,-0.322,-0.750,-3.188,+1.125,4, -13, -3, -1, 1, 8, 5, 7
1503600059338,-0.044,-0.054,-0.555,-0.829,+0.931,+0.039,-0.320,-3.500,-0.250,+1.375,-12, -3, 3, 0, -2, 3, 5, 7
1503600059360,-0.045,-0.055,-0.555,-0.829,+0.942,+0.064,-0.334,-2.750,+0.875,+1.750,-14, -15, -7, -4, -10, -7, -6, -5
1503600059377,-0.045,-0.054,-0.555,-0.829,+0.967,+0.046,-0.330,-2.438,-0.875,+2.438,7, 1, 6, 5, 7, 5, 2, -18
1503600059398,-0.046,-0.054,-0.555,-0.829,+0.957,+0.049,-0.331,-1.875,-4.375,+3.500,11, 46, 15, 5, 3, 7, 1, -8
1503600059420,-0.046,-0.054,-0.554,-0.830,+0.941,+0.043,-0.322,-2.500,-7.062,+3.625,-23, -26, -19, -7, -5, -14, -39, -2
1503600059435,-0.047,-0.054,-0.553,-0.830,+0.946,+0.037,-0.314,-3.500,-4.938,+6.438,34, -2, -1, -3, 0, 4, 7, -5
1503600059458,-0.049,-0.053,-0.553,-0.830,+0.937,+0.044,-0.338,-3.312,-2.625,+8.125,13, 5, -3, -4, -6, 6, 7, -4
1503600059481,-0.050,-0.053,-0.553,-0.830,+0.951,+0.055,-0.343,-3.188,-4.062,+8.875,-19, 6, -2, 1, 0, -1, -5, -1
1503600059496,-0.052,-0.052,-0.552,-0.831,+0.960,+0.041,-0.336,-1.312,-6.875,+11.000,-2, -13, -9, 0, 2, -1, -4, -1
1503600059518,-0.053,-0.051,-0.551,-0.831,+0.953,+0.019,-0.339,-1.688,-8.312,+10.188,27, 16, 18, 2, -3, 0, 8, 1
1503600059540,-0.055,-0.050,-0.550,-0.832,+0.930,+0.007,-0.337,-2.438,-6.688,+9.438,-21, 13, -5, -2, -11, -37, 0, 3
1503600059556,-0.057,-0.049,-0.549,-0.832,+0.926,+0.017,-0.332,-4.312,-5.625,+9.750,4, -5, -7, -1, 7, 11, 5, -11
1503600059580,-0.058,-0.049,-0.549,-0.833,+0.929,+0.039,-0.359,-3.688,-4.000,+8.312,-7, -6, 2, -2, 2, -4, -11, -2
1503600059600,-0.059,-0.049,-0.548,-0.833,+0.907,+0.042,-0.365,-2.375,-2.688,+7.188,-35, -21, -7, -2, 10, 27, 4, -11
1503600059616,-0.060,-0.048,-0.548,-0.833,+0.917,+0.015,-0.340,-0.500,-2.188,+7.250,4, -5, 1, 1, -1, -15, 3, 6
1503600059638,-0.061,-0.047,-0.548,-0.833,+0.925,+0.007,-0.338,-0.938,-2.000,+7.125,7, -6, -4, -5, 1, 6, -5, 5
1503600059660,-0.062,-0.047,-0.547,-0.833,+0.917,+0.004,-0.333,-3.750,-3.312,+6.188,5, -19, -11, -2, 0, 1, 0, 3
1503600059676,-0.063,-0.047,-0.547,-0.833,+0.931,+0.029,-0.335,-4.438,-3.688,+8.125,6, -5, -10, -3, -1, 9, 4, 3
1503600059697,-0.064,-0.046,-0.546,-0.834,+0.900,+0.035,-0.356,-2.000,-8.812,+7.250,1, 1, 9, 4, 2, -6, 13, 8
1503600059721,-0.065,-0.046,-0.544,-0.835,+0.902,+0.003,-0.360,-1.438,-9.750,+7.188,-1, -7, 2, -1, -9, 8, -1, -5
1503600059743,-0.067,-0.045,-0.543,-0.836,+0.892,-0.004,-0.337,-2.000,-9.625,+7.375,-5, 2, -5, -4, -3, -4, -4, -6
1503600059758,-0.068,-0.044,-0.542,-0.837,+0.896,-0.006,-0.340,-2.688,-10.312,+6.875,-37, -9, 1, -1, 1, -5, -3, -1
1503600059789,-0.069,-0.044,-0.541,-0.837,+0.917,-0.019,-0.335,-4.188,-8.562,+6.750,9, 3, 11, 0, -2, -3, 8, -6
1503600059803,-0.070,-0.044,-0.540,-0.838,+0.916,+0.001,-0.350,-4.625,-10.000,+5.312,25, 31, 13, 2, -1, 0, -1, -1
1503600059818,-0.071,-0.043,-0.538,-0.839,+0.911,+0.008,-0.377,-3.375,-12.500,+4.750,-8, -21, -12, -2, -1, -3, -3, 3
1503600059840,-0.072,-0.043,-0.536,-0.840,+0.902,+0.010,-0.378,-1.875,-13.688,+5.000,-5, -8, -7, -3, 0, -3, -4, -1
1503600059863,-0.073,-0.043,-0.534,-0.842,+0.905,-0.004,-0.375,-2.375,-14.188,+3.812,1, -1, 1, -4, 1, -4, -3, 2
1503600059881,-0.074,-0.043,-0.532,-0.843,+0.907,-0.004,-0.377,-3.688,-13.562,+3.562,-3, -7, -2, -1, -11, -19, 3, 8
1503600059900,-0.075,-0.042,-0.530,-0.844,+0.920,-0.010,-0.387,-4.938,-11.750,+4.375,-7, -1, -10, 0, 6, 6, -2, -3
1503600059923,-0.076,-0.043,-0.529,-0.844,+0.925,-0.002,-0.372,-5.438,-10.000,+4.000,-44, -10, -2, -3, 0, -17, -4, -10
1503600059938,-0.076,-0.043,-0.527,-0.845,+0.932,+0.009,-0.389,-2.750,-10.812,+2.500,21, 14, 7, 1, 0, 0, -4, -1
1503600059960,-0.076,-0.042,-0.526,-0.846,+0.929,-0.007,-0.393,-1.000,-11.438,+1.625,8, 0, -2, 1, 4, 0, -5, -19
1503600059983,-0.076,-0.042,-0.525,-0.847,+0.935,-0.018,-0.398,+0.438,-9.062,+0.812,3, 4, 10, 3, 2, 2, 4, 0
1503600059997,-0.076,-0.041,-0.524,-0.847,+0.925,-0.020,-0.413,+2.438,-7.062,-0.438,34, 17, 10, 4, 13, 34, 9, 27
1503600060021,-0.076,-0.041,-0.523,-0.848,+0.922,-0.016,-0.420,+2.438,-7.125,-2.125,11, 15, 11, 5, 3, 5, 1, 8
1503600060036,-0.075,-0.040,-0.522,-0.849,+0.933,-0.012,-0.413,+2.812,-6.938,-1.250,-30, 23, 5, 2, 0, -2, 0, 1
1503600060058,-0.075,-0.039,-0.521,-0.849,+0.921,-0.011,-0.414,+2.812,-3.938,-1.562,-4, 3, 0, -1, -3, -3, 2, -2
1503600060081,-0.074,-0.039,-0.521,-0.850,+0.926,-0.012,-0.423,+4.375,-5.688,-1.312,13, 17, 0, -1, 4, 3, 1, 8
1503600060096,-0.074,-0.038,-0.520,-0.850,+0.917,-0.021,-0.423,+4.750,-4.750,+1.750,-13, -4, 3, 1, -5, 0, 5, 4
1503600060118,-0.073,-0.036,-0.519,-0.851,+0.902,-0.019,-0.411,+5.750,-5.625,+1.625,-17, -5, -7, -6, -4, -10, -3, -6
1503600060140,-0.073,-0.035,-0.519,-0.851,+0.912,-0.025,-0.403,+5.375,-6.562,+1.438,9, -18, -7, -1, 2, -6, 5, -2
1503600060156,-0.073,-0.034,-0.518,-0.852,+0.918,-0.024,-0.417,+4.812,-5.688,+1.875,3, 1, -1, -5, 4, 0, -3, -9
1503600060177,-0.073,-0.032,-0.517,-0.853,+0.906,-0.010,-0.423,+6.500,-9.500,+3.688,-22, 14, 3, 0, 2, -4, 0, 0
1503600060200,-0.072,-0.031,-0.515,-0.854,+0.897,-0.001,-0.435,+8.000,-13.500,+3.812,10, 5, -18, -6, -2, 1, -5, -5
1503600060217,-0.072,-0.029,-0.513,-0.855,+0.896,-0.004,-0.434,+9.375,-13.938,+5.375,-11, -7, 0, -2, -15, -7, -1, 1
1503600060238,-0.072,-0.026,-0.511,-0.856,+0.892,-0.035,-0.447,+10.062,-10.625,+7.062,4, 14, 10, 4, 7, -4, 3, -2
1503600060260,-0.072,-0.024,-0.510,-0.857,+0.883,-0.027,-0.441,+9.438,-6.750,+5.500,-8, 7, 29, -5, -1, -3, 1, -4
1503600060276,-0.072,-0.022,-0.509,-0.857,+0.906,-0.027,-0.438,+10.312,-8.000,+3.438,-4, -5, -3, -1, 2, -17, 10, 9
1503600060297,-0.071,-0.020,-0.508,-0.858,+0.901,-0.038,-0.441,+10.625,-7.000,+0.812,-3, 14, 4, 1, -3, -5, -9, -7
1503600060320,-0.070,-0.019,-0.507,-0.859,+0.905,-0.055,-0.425,+8.000,-9.625,-2.500,-7, -10, -14, 0, -2, -2, -8, 16
1503600060336,-0.068,-0.018,-0.506,-0.859,+0.896,-0.038,-0.421,+5.062,-7.750,-4.375,5, -6, -5, -5, -7, -15, -6, 11
1503600060358,-0.067,-0.018,-0.506,-0.860,+0.887,-0.012,-0.449,+5.375,-5.500,-6.688,0, 11, 13, 4, 7, 17, 18, -11
1503600060384,-0.065,-0.018,-0.505,-0.860,+0.896,+0.006,-0.454,+5.375,-3.188,-8.688,-2, 6, -8, 3, 0, -4, -8, 8
1503600060396,-0.062,-0.018,-0.505,-0.861,+0.912,+0.009,-0.448,+7.000,-3.250,-8.625,2, -21, -8, 1, 3, 4, -3, -12
1503600060420,-0.060,-0.018,-0.505,-0.861,+0.927,-0.014,-0.428,+6.875,-1.000,-9.875,2, -24, -10, -1, 2, 6, 1, -4
1503600060440,-0.058,-0.018,-0.505,-0.861,+0.930,+0.006,-0.449,+8.125,-0.062,-10.875,-19, -5, 1, 0, -6, -9, 4, 3
1503600060463,-0.055,-0.017,-0.506,-0.861,+0.919,+0.000,-0.458,+10.688,+1.750,-11.750,5, 4, -2, 0, 5, 5, -1, 14
1503600060478,-0.052,-0.016,-0.506,-0.861,+0.931,-0.010,-0.436,+11.375,+0.250,-10.688,23, 10, 5, 3, -1, 0, 7, -5
1503600071225,-0.006,+0.005,-0.513,-0.858,+0.842,-0.018,-0.455,-2.875,-4.625,-6.438,-5, -5, -4, -1, -4, -2, -2, -7
1503600071248,-0.006,+0.005,-0.513,-0.859,+0.902,-0.028,-0.441,-0.688,-1.688,+0.125,5, 4, 0, 0, 2, 1, -2, -4
1503600071277,-0.007,+0.005,-0.512,-0.859,+0.928,-0.030,-0.434,+0.188,-4.938,+1.375,-3, -4, -2, -2, 0, 0, -1, -2
1503600071292,-0.006,+0.006,-0.511,-0.860,+0.896,-0.020,-0.449,-0.125,-10.125,+0.125,0, 15, -3, -1, 0, -1, -1, -6
1503600071315,-0.006,+0.006,-0.509,-0.861,+0.859,+0.007,-0.467,+2.125,-10.812,-0.250,0, -12, -1, -6, -3, 0, -1, 4
1503600071329,-0.005,+0.007,-0.507,-0.862,+0.849,-0.008,-0.437,+3.812,-9.812,+0.062,0, -3, -1, -1, -1, 1, 1, -2
1503600071345,-0.006,+0.008,-0.507,-0.862,+0.887,-0.034,-0.420,+2.312,-3.688,+3.500,-4, 3, -2, -1, 1, -1, 0, -2
1503600071367,-0.006,+0.009,-0.507,-0.862,+0.886,-0.043,-0.425,+2.688,+3.188,+5.000,1, 16, 2, 2, -1, -1, -3, 1
1503600071389,-0.007,+0.010,-0.508,-0.862,+0.898,-0.032,-0.447,+2.375,+2.250,+4.312,0, 6, 3, -2, -3, -2, 1, 2
1503600071408,-0.007,+0.011,-0.507,-0.862,+0.905,-0.021,-0.443,+3.812,-4.750,+7.250,-2, -11, -4, -1, -3, -2, -1, 5
1503600071427,-0.008,+0.013,-0.506,-0.863,+0.884,-0.055,-0.450,+3.438,-8.000,+6.438,1, -7, -1, 0, -1, -1, 1, 2
1503600071450,-0.009,+0.014,-0.505,-0.863,+0.876,-0.072,-0.438,+1.625,-8.000,+5.812,-3, 21, 6, 0, -4, 1, -2, -18
1503600071465,-0.010,+0.016,-0.503,-0.864,+0.890,-0.066,-0.449,+0.500,-8.062,+9.562,-1, -13, -1, 0, 3, 1, -1, 5
1503600071487,-0.011,+0.016,-0.503,-0.864,+0.873,-0.046,-0.469,-0.750,-3.188,+9.250,2, -12, -3, -2, 0, 0, 0, 1
1503600071510,-0.012,+0.017,-0.502,-0.865,+0.876,-0.030,-0.466,+0.188,-6.000,+5.000,-3, -9, -2, -3, -2, 0, -2, -2
1503600071525,-0.012,+0.018,-0.501,-0.865,+0.911,-0.050,-0.442,+0.938,-4.062,+4.125,-1, 2, -1, 0, -2, -3, 1, 0
1503600071547,-0.012,+0.018,-0.501,-0.865,+0.887,-0.036,-0.454,+0.562,-1.500,+1.062,0, -15, -2, 1, 1, -1, -1, 1
1503600071569,-0.012,+0.018,-0.500,-0.866,+0.875,-0.022,-0.459,-0.562,-3.000,-1.438,-2, -9, -4, 0, 2, -1, 0, -1
1503600071585,-0.011,+0.017,-0.501,-0.865,+0.885,-0.035,-0.434,-1.500,+3.125,-3.188,1, -1, 0, -7, -2, -2, -2, -1
1503600071609,-0.011,+0.017,-0.502,-0.864,+0.870,-0.040,-0.457,-1.375,+9.875,-6.188,0, 14, 4, -2, -3, -3, -1, -4
1503600071629,-0.009,+0.016,-0.504,-0.864,+0.890,-0.025,-0.459,-2.438,+10.062,-8.562,-2, 1, -3, -2, 1, 0, -2, 1
1503600071646,-0.008,+0.015,-0.506,-0.863,+0.919,-0.029,-0.422,-2.188,+10.188,-7.250,-4, -16, -3, 2, 0, 1, 0, 2
1503600071667,-0.008,+0.014,-0.507,-0.862,+0.928,-0.052,-0.414,-4.500,+6.312,-5.062,1, 8, 3, 1, 1, 2, 0, 1
1503600071689,-0.008,+0.014,-0.508,-0.862,+0.925,-0.023,-0.431,-5.375,+1.438,-0.625,-1, -6, 0, 1, -3, -2, -1, -1
1503600071705,-0.008,+0.013,-0.508,-0.861,+0.889,-0.011,-0.441,-6.188,+0.625,-0.312,0, 1, 0, -1, 1, -1, 0, 1
1503600071727,-0.009,+0.012,-0.508,-0.862,+0.896,-0.012,-0.431,-6.500,-1.500,+0.812,0, 2, -4, -2, -4, -1, -2, -1
1503600071750,-0.010,+0.012,-0.507,-0.862,+0.909,-0.021,-0.440,-5.188,-2.500,+4.625,0, -18, -5, 0, 1, 3, -1, 2
1503600071765,-0.011,+0.011,-0.506,-0.863,+0.892,-0.008,-0.455,-5.062,-9.375,+4.500,-2, -7, -2, -1, -2, -1, -2, 0
1503600071787,-0.011,+0.011,-0.504,-0.864,+0.871,-0.013,-0.458,-4.312,-12.250,+4.500,1, 5, -2, -1, 0, 0, 0, 0
1503600071810,-0.012,+0.011,-0.502,-0.865,+0.865,-0.022,-0.470,-2.750,-11.000,+5.750,-3, 6, -2, -2, -1, -3, -1, 3
1503600071826,-0.013,+0.011,-0.500,-0.866,+0.856,-0.026,-0.456,-3.625,-9.312,+4.875,2, 9, 1, 2, 3, 0, -1, -3
1503600071849,-0.014,+0.011,-0.499,-0.867,+0.862,-0.020,-0.469,-3.375,-9.688,+4.000,-2, 3, 0, -1, -3, -4, -2, -2
1503600071869,-0.014,+0.011,-0.498,-0.867,+0.851,-0.020,-0.467,-0.812,-6.250,+3.562,-3, 1, -1, -1, 2, 0, -2, -2
1503600071885,-0.014,+0.012,-0.497,-0.868,+0.862,-0.024,-0.467,-1.188,-4.375,+1.750,2, 4, 6, 2, 0, 1, 2, 2
1503600071909,-0.015,+0.011,-0.497,-0.868,+0.873,-0.015,-0.460,-1.438,-0.250,+2.188,2, 1, -2, -1, 3, 2, -3, -1
1503600071929,-0.015,+0.012,-0.497,-0.868,+0.880,-0.020,-0.483,+0.250,+0.562,+2.375,-1, 1, -1, 3, 4, -1, 2, -1
1503600071946,-0.015,+0.013,-0.496,-0.868,+0.887,-0.033,-0.476,+2.188,-2.125,+2.938,1, -1, 2, 4, -4, -1, -2, -1
1503600071967,-0.015,+0.013,-0.496,-0.868,+0.886,-0.041,-0.465,+2.000,-4.000,+0.812,0, -3, 2, -2, 0, -3, 0, 0
1503600071989,-0.015,+0.013,-0.496,-0.868,+0.889,-0.046,-0.447,-1.562,+0.250,+0.375,-1, -2, -4, -6, -1, -3, -2, 1
1503600072005,-0.015,+0.013,-0.496,-0.868,+0.876,-0.030,-0.459,+0.062,+2.125,+2.562,-3, -3, -4, -2, -3, -3, -3, -2
1503600072027,-0.015,+0.014,-0.496,-0.868,+0.891,-0.034,-0.471,+1.188,-0.438,+2.625,-1, 3, 5, 7, -2, -2, -1, 0
1503600072049,-0.015,+0.014,-0.496,-0.868,+0.884,-0.038,-0.463,+0.188,-0.750,+0.438,-1, -2, -2, -3, 1, -3, 8, 2
1503600072066,-0.015,+0.015,-0.496,-0.868,+0.874,-0.044,-0.466,+0.562,-0.188,+2.250,-5, -6, -2, -7, -4, -1, -2, -3
1503600072088,-0.015,+0.015,-0.496,-0.868,+0.887,-0.043,-0.452,-0.875,+1.500,+0.562,-1, -5, -5, 4, -2, 7, 6, 2
1503600072110,-0.015,+0.015,-0.496,-0.868,+0.899,-0.036,-0.463,-1.250,+0.312,+1.312,-3, -2, 1, -3, -1, -2, 0, -5
1503600072126,-0.015,+0.016,-0.496,-0.868,+0.868,-0.040,-0.475,+1.812,-2.562,+1.250,-1, 3, -4, -1, -2, 6, -5, -3
1503600072148,-0.015,+0.016,-0.495,-0.869,+0.875,-0.058,-0.475,-0.688,-5.438,-2.125,4, 7, 0, 1, -1, -2, -4, 3
1503600072169,-0.014,+0.016,-0.494,-0.869,+0.866,-0.059,-0.459,-0.312,-4.062,-2.812,1, 12, 1, -3, 0, -2, -1, -4
1503600072186,-0.014,+0.016,-0.494,-0.869,+0.871,-0.065,-0.463,-1.000,-3.062,-2.438,0, 23, 10, 1, 4, 0, -3, -3
1503600072208,-0.014,+0.015,-0.494,-0.869,+0.875,-0.057,-0.453,-4.375,-2.938,-5.562,-1, -25, -11, -4, -4, -3, 1, 1
1503600072229,-0.013,+0.014,-0.493,-0.870,+0.879,-0.043,-0.456,-6.188,-6.438,-6.250,1, -4, 3, -1, 1, -1, -1, -3
1503600072246,-0.013,+0.013,-0.492,-0.870,+0.874,-0.029,-0.461,-7.062,-5.500,-5.125,3, 6, -4, -1, -1, -3, 4, 5
1503600072268,-0.012,+0.011,-0.491,-0.871,+0.856,-0.001,-0.470,-5.250,-5.250,-5.000,-6, -10, 3, 0, -4, -3, -2, -5
1503600072289,-0.012,+0.010,-0.490,-0.872,+0.873,-0.007,-0.471,-5.688,-8.062,-3.562,-5, -4, -7, -4, 1, -2, -3, 3
1503600072306,-0.012,+0.009,-0.490,-0.872,+0.885,-0.009,-0.464,-6.125,-5.000,-0.938,-3, -10, -8, -2, -3, 6, 0, 1
1503600072328,-0.013,+0.008,-0.489,-0.872,+0.883,-0.017,-0.468,-6.688,-7.250,+1.938,2, 0, 1, -2, -1, -3, 0, -2
1503600072350,-0.014,+0.008,-0.488,-0.873,+0.885,-0.014,-0.489,-5.062,-6.188,+4.312,4, -2, 1, 2, 2, 13, 18, 2
1503600072366,-0.014,+0.008,-0.487,-0.873,+0.863,-0.017,-0.488,-5.625,-6.312,+2.688,-42, 1, 0, -3, -3, -5, -5, -1
1503600072388,-0.015,+0.007,-0.486,-0.874,+0.872,-0.009,-0.496,-5.000,-6.250,+3.625,18, -8, 1, -1, 0, -4, -6, 0
1503600072411,-0.016,+0.007,-0.485,-0.874,+0.894,-0.010,-0.488,-4.812,-5.125,+7.062,6, 23, 7, -1, 1, -1, -7, 2
1503600072426,-0.017,+0.007,-0.485,-0.874,+0.875,-0.020,-0.496,-5.000,-1.625,+6.688,6, -2, 2, 1, -4, -4, -4, -2
1503600072448,-0.018,+0.007,-0.485,-0.874,+0.880,-0.010,-0.481,-4.062,-0.812,+5.500,-10, -12, -5, -1, 0, -3, -5, -3
1503600072469,-0.019,+0.007,-0.484,-0.875,+0.889,-0.012,-0.490,-3.688,-4.625,+6.625,12, 5, -4, 4, 3, 4, 10, -20
1503600072486,-0.020,+0.007,-0.484,-0.875,+0.864,-0.011,-0.504,-2.188,-4.062,+6.688,10, -8, -2, -3, -5, -4, -4, -11
1503600072507,-0.021,+0.008,-0.483,-0.875,+0.852,-0.035,-0.502,+0.125,-2.625,+4.625,-20, 1, 0, -1, -1, 20, 1, -3
1503600072529,-0.021,+0.008,-0.483,-0.875,+0.859,-0.043,-0.490,-0.125,+0.500,+3.938,15, 22, 5, 0, 5, 1, -3, 0
1503600072546,-0.022,+0.009,-0.483,-0.875,+0.868,-0.026,-0.490,+0.062,-0.062,+4.750,7, -4, -4, -4, -4, -8, -7, 7
1503600072568,-0.023,+0.009,-0.483,-0.875,+0.865,-0.023,-0.483,-0.562,+0.750,+5.750,-5, 5, 3, -1, -3, -8, -4, 6
1503600072590,-0.023,+0.010,-0.483,-0.875,+0.859,-0.029,-0.476,+0.188,+0.250,+3.625,30, 3, -5, -1, -2, 22, -1, 6
1503600072606,-0.023,+0.011,-0.483,-0.875,+0.858,-0.031,-0.512,+3.188,-0.688,+3.812,7, -14, 4, 2, 1, -9, -3, -12
1503600072634,-0.023,+0.011,-0.482,-0.876,+0.844,-0.026,-0.500,+2.688,-4.750,+4.125,-16, -14, -14, -3, -2, -2, -8, -6
1503600072650,-0.024,+0.012,-0.482,-0.876,+0.852,-0.041,-0.471,+1.812,-3.375,+4.000,-27, -2, -8, -2, 0, 0, 3, 4
1503600072665,-0.024,+0.013,-0.482,-0.876,+0.856,-0.058,-0.489,+3.125,-0.312,+5.000,6, -10, 0, 5, 4, -11, 3, 9
1503600072688,-0.025,+0.014,-0.481,-0.876,+0.864,-0.048,-0.509,+1.750,-1.188,+5.438,-16, -17, -3, -4, -3, -13, 3, 13
1503600072709,-0.025,+0.015,-0.481,-0.876,+0.864,-0.046,-0.489,+1.812,-5.188,+6.062,2, -4, -2, -5, -14, -4, -8, -12
1503600072725,-0.026,+0.016,-0.480,-0.877,+0.866,-0.060,-0.490,+3.312,-8.500,+4.625,-30, -32, 0, 6, 4, 5, 0, -6
1503600072748,-0.026,+0.017,-0.478,-0.878,+0.852,-0.067,-0.497,+2.125,-9.312,+3.500,5, 54, 31, 7, 6, -8, 1, -8
1503600072770,-0.027,+0.018,-0.477,-0.878,+0.844,-0.062,-0.506,-0.375,-5.062,+5.125,-14, -19, -10, -3, -3, -15, 0, 1
1503600072789,-0.027,+0.019,-0.477,-0.878,+0.860,-0.058,-0.493,-1.188,-4.125,+6.188,6, -3, -5, -4, -4, -3, -5, 7
1503600072808,-0.028,+0.019,-0.476,-0.879,+0.868,-0.056,-0.501,-0.688,-3.500,+5.438,24, -9, -4, 0, 0, 13, 3, 2
1503600072829,-0.029,+0.019,-0.476,-0.879,+0.862,-0.053,-0.500,-0.750,-6.250,+3.438,4, -4, 3, -1, -2, -13, -14, -33
1503600072847,-0.029,+0.020,-0.475,-0.880,+0.855,-0.047,-0.506,+0.438,-6.500,+4.375,-1, -25, -12, -4, 3, 11, 1, 4
1503600072867,-0.029,+0.021,-0.474,-0.880,+0.853,-0.059,-0.512,+1.438,-3.750,+3.000,-8, 9, 6, 0, -1, -2, -2, 1
1503600072890,-0.029,+0.021,-0.474,-0.880,+0.853,-0.050,-0.507,+0.438,+0.625,+0.750,10, -4, -9, 0, 3, 8, 2, 3
1503600072906,-0.029,+0.021,-0.474,-0.880,+0.869,-0.055,-0.504,+0.812,+0.875,+2.312,9, 35, 7, 3, 4, -2, 5, 4
1503600072928,-0.029,+0.022,-0.474,-0.880,+0.872,-0.059,-0.491,+0.812,-0.562,+2.812,-25, -21, -6, -3, -3, 0, 0, 5
1503600072951,-0.029,+0.022,-0.474,-0.880,+0.856,-0.047,-0.504,+1.125,-0.562,+0.312,-6, 0, -5, -6, -3, 0, -5, 0
1503600072966,-0.028,+0.022,-0.474,-0.880,+0.844,-0.042,-0.515,+1.062,+0.375,-1.625,25, 5, 3, 2, 3, 3, 4, 8
1503600072988,-0.028,+0.022,-0.475,-0.880,+0.839,-0.054,-0.493,+0.688,+0.250,-1.812,-11, 8, 4, 1, -2, -8, -2, 1
1503600073010,-0.027,+0.022,-0.475,-0.879,+0.843,-0.060,-0.504,+1.312,+3.125,-2.062,-2, -1, -7, -6, 3, -3, -5, -5
1503600073026,-0.027,+0.022,-0.476,-0.879,+0.850,-0.046,-0.492,-0.500,+3.938,-3.000,7, 7, 9, 4, 0, -2, 2, 6
1503600073049,-0.026,+0.021,-0.476,-0.879,+0.856,-0.053,-0.499,-1.000,+2.375,-3.562,5, -9, 3, -1, -3, -6, 1, 1
1503600073070,-0.025,+0.021,-0.476,-0.879,+0.841,-0.060,-0.501,-1.375,+1.812,-5.375,-2, -8, -12, -2, -5, -8, 1, -1
1503600073087,-0.024,+0.020,-0.476,-0.879,+0.841,-0.058,-0.501,-1.250,+1.062,-6.875,-6, 11, 6, -3, 1, -2, 3, 12
1503600073108,-0.023,+0.020,-0.477,-0.879,+0.844,-0.056,-0.500,-1.688,+0.375,-7.375,1, -11, -7, -3, 3, 11, 4, -6
1503600073130,-0.022,+0.019,-0.477,-0.879,+0.845,-0.052,-0.503,-2.125,+0.250,-5.812,54, 12, 4, 3, 3, -4, 0, -25
1503600073145,-0.022,+0.019,-0.476,-0.879,+0.857,-0.052,-0.507,-1.500,-0.688,-3.750,-15, 4, 9, 2, 4, -2, 3, -2
1503600073168,-0.021,+0.018,-0.476,-0.879,+0.860,-0.058,-0.501,-2.062,-3.312,-2.875,38, 13, 18, 5, 3, -7, -1, -1
1503600073191,-0.021,+0.018,-0.476,-0.879,+0.850,-0.063,-0.502,-0.938,-2.875,-2.688,-31, 0, -7, -1, -1, -11, -5, 3
1503600073206,-0.021,+0.018,-0.475,-0.880,+0.851,-0.065,-0.503,-1.125,-3.250,-2.375,-38, 1, 8, 5, 3, -6, -5, -5
1503600073228,-0.021,+0.018,-0.475,-0.880,+0.861,-0.070,-0.495,-1.938,-0.812,-1.312,25, 1, -5, -3, 1, 16, 2, 4
1503600073262,-0.021,+0.018,-0.475,-0.879,+0.862,-0.074,-0.480,-3.375,-0.125,-0.562,7, -9, -10, -4, -3, -5, -1, -1
1503600073266,-0.021,+0.018,-0.475,-0.879,+0.883,-0.068,-0.489,-4.125,-0.875,-0.562,16, -4, 1, 3, 4, -7, 1, -11
1503600073288,-0.021,+0.018,-0.476,-0.879,+0.883,-0.056,-0.485,-5.500,-1.188,-0.062,-8, -4, -2, -3, -13, -8, -3, -7
1503600073310,-0.022,+0.017,-0.476,-0.879,+0.873,-0.037,-0.498,-4.875,-1.625,+0.938,-1, 7, -6, -5, 1, -3, 3, 6
1503600073326,-0.022,+0.016,-0.475,-0.880,+0.867,-0.021,-0.503,-3.750,-4.125,+0.312,-3, -28, -6, 3, 1, -29, -6, -8
1503600073350,-0.022,+0.016,-0.474,-0.880,+0.859,-0.004,-0.500,-2.938,-7.312,-0.250,13, 8, 3, -2, -3, -5, 3, -20
1503600073370,-0.022,+0.015,-0.473,-0.881,+0.852,-0.004,-0.502,-1.625,-5.688,+1.625,-5, 6, 1, -3, -3, 6, -6, 4
1503600073386,-0.021,+0.015,-0.473,-0.881,+0.862,+0.017,-0.506,+0.500,-5.312,+2.750,3, -8, -2, -1, 4, 5, 4, 3
1503600073408,-0.021,+0.015,-0.472,-0.881,+0.888,+0.026,-0.504,+3.188,-5.250,+2.500,-10, -1, -5, 5, -2, -9, -1, 12
1503600073430,-0.020,+0.016,-0.471,-0.882,+0.893,+0.018,-0.521,+7.750,-6.625,+0.500,8, -16, -7, -5, 1, 15, -3, -2
1503600073445,-0.018,+0.017,-0.470,-0.882,+0.889,+0.006,-0.531,+11.812,-10.375,-2.062,-3, 11, 6, -1, -9, -13, 4, 5
1503600084620,-0.006,+0.037,-0.501,-0.865,+0.874,-0.073,-0.458,+0.000,-3.188,-0.125,2, -4, -1, 1, 0, -1, 1, 0
1503600084636,-0.006,+0.037,-0.502,-0.864,+0.887,-0.081,-0.447,+0.250,+1.750,+1.812,1, 24, 7, 1, -3, -2, -1, 0
1503600084658,-0.006,+0.037,-0.502,-0.864,+0.905,-0.067,-0.440,-0.688,+0.000,+1.438,-1, -18, -5, -6, -2, 0, -2, 1
1503600084680,-0.006,+0.037,-0.501,-0.865,+0.890,-0.063,-0.441,-1.875,-5.125,+0.500,0, -2, 0, 6, 1, -1, 2, 3
1503600084695,-0.007,+0.037,-0.500,-0.865,+0.870,-0.080,-0.446,-1.500,-5.688,+1.062,1, 2, 0, -3, -3, 0, -1, -1
1503600084718,-0.007,+0.037,-0.500,-0.865,+0.874,-0.083,-0.434,-1.938,-2.688,+2.500,-1, -17, 0, 1, 1, -1, -1, -11
1503600084740,-0.008,+0.038,-0.500,-0.865,+0.881,-0.068,-0.442,-2.188,-2.688,+3.312,-3, -6, -2, 1, 3, 0, 0, -1
1503600084755,-0.008,+0.038,-0.499,-0.866,+0.886,-0.083,-0.442,-2.312,-2.812,+4.000,1, 0, 1, -2, 1, -3, -1, 3
1503600084778,-0.009,+0.038,-0.499,-0.866,+0.893,-0.079,-0.435,-4.438,-5.438,+5.125,2, 8, 4, 2, 3, 2, -3, -15
1503600084800,-0.010,+0.038,-0.498,-0.867,+0.886,-0.074,-0.433,-5.875,-8.562,+5.688,-1, -10, -6, -3, -3, -1, 0, -1
1503600084815,-0.012,+0.038,-0.496,-0.868,+0.853,-0.075,-0.468,-6.938,-10.562,+7.375,0, -9, -2, 0, -1, 2, -1, 5
1503600084838,-0.013,+0.037,-0.494,-0.868,+0.867,-0.058,-0.463,-6.500,-8.938,+8.312,-1, 20, 3, 1, 1, 1, 2, 6
1503600084859,-0.015,+0.038,-0.493,-0.869,+0.912,-0.090,-0.466,-6.000,-7.750,+9.562,-3, -5, 0, -1, 0, 3, 0, 1
1503600084875,-0.017,+0.037,-0.492,-0.870,+0.921,-0.091,-0.468,-8.062,-12.438,+8.000,-1, -2, 0, 7, -1, -1, -1, -2
1503600084898,-0.018,+0.037,-0.490,-0.871,+0.864,-0.074,-0.483,-6.375,-11.000,+5.688,1, 1, -1, -4, 0, -2, 0, 1
1503600084921,-0.020,+0.037,-0.489,-0.871,+0.865,-0.087,-0.485,-6.250,-6.125,+7.188,-4, -20, -8, -5, -2, 1, 1, -1
1503600084935,-0.021,+0.037,-0.488,-0.872,+0.876,-0.084,-0.461,-8.625,-4.625,+8.062,0, -7, -1, -1, 1, 0, 0, -1
1503600084958,-0.022,+0.036,-0.487,-0.873,+0.869,-0.048,-0.486,-5.938,-11.688,+6.375,0, 3, 0, -1, -1, -3, -2, 4
1503600084980,-0.023,+0.036,-0.484,-0.874,+0.843,-0.051,-0.500,-2.438,-12.250,+5.125,-1, 2, 0, -2, -2, 0, -3, -1
1503600084995,-0.024,+0.037,-0.483,-0.875,+0.862,-0.089,-0.485,-1.312,-10.312,+9.188,-1, 1, -5, -3, -1, 0, -1, -1
1503600085017,-0.026,+0.038,-0.482,-0.875,+0.867,-0.117,-0.488,-1.938,-5.500,+9.375,-1, 2, 1, 0, -2, 0, 1, 1
1503600085039,-0.027,+0.038,-0.481,-0.875,+0.875,-0.103,-0.495,-2.625,-5.062,+4.125,-1, -18, -6, -2, 1, -1, -1, 0
1503600085054,-0.026,+0.038,-0.481,-0.876,+0.871,-0.090,-0.474,-0.875,-4.000,+0.000,-2, -6, -2, -2, -1, -3, -1, -4
1503600085076,-0.026,+0.039,-0.480,-0.876,+0.878,-0.098,-0.493,+2.250,-5.125,-2.188,-2, 12, -1, -10, -2, 0, -1, -2
1503600085099,-0.025,+0.039,-0.480,-0.876,+0.836,-0.105,-0.503,+1.250,-3.625,-4.438,0, 2, 2, 0, 0, 5, -1, -4
1503600085114,-0.024,+0.039,-0.479,-0.877,+0.838,-0.081,-0.499,+1.875,-2.875,-5.875,1, 28, 8, 2, 3, 2, 1, 0
1503600085136,-0.023,+0.039,-0.479,-0.877,+0.865,-0.080,-0.505,+0.750,-2.000,-3.188,-6, -14, -6, -3, -3, -2, -3, 8
1503600085159,-0.023,+0.039,-0.479,-0.877,+0.847,-0.074,-0.493,+1.562,+0.125,-0.562,-1, -6, -2, -3, 0, 0, -2, 1
1503600085174,-0.022,+0.039,-0.479,-0.877,+0.857,-0.089,-0.496,+2.875,-1.562,-1.062,1, -2, 0, 2, 1, -2, 0, -3
1503600085196,-0.022,+0.040,-0.479,-0.877,+0.856,-0.097,-0.486,+1.688,-0.375,-2.188,0, -4, -1, -1, -3, -4, 1, -2
1503600085219,-0.021,+0.040,-0.479,-0.877,+0.862,-0.094,-0.493,+3.000,-1.812,-2.188,0, -17, -3, -2, -2, 0, -1, 0
1503600085234,-0.020,+0.040,-0.478,-0.877,+0.857,-0.113,-0.481,+0.125,-2.688,-4.188,-2, 14, 5, 8, 3, 1, 0, -1
1503600085258,-0.019,+0.040,-0.478,-0.877,+0.859,-0.110,-0.494,-0.688,-5.062,-5.875,-2, -14, -6, -5, -1, -3, -4, -3
1503600085281,-0.019,+0.040,-0.477,-0.878,+0.868,-0.096,-0.488,-1.875,-6.000,-5.500,0, 11, 4, -1, 0, 1, -1, -3
1503600085294,-0.018,+0.039,-0.476,-0.878,+0.850,-0.087,-0.493,-4.125,-7.312,-2.938,0, 3, 1, -3, -2, -3, 0, 0
1503600085316,-0.018,+0.038,-0.475,-0.879,+0.852,-0.067,-0.500,-4.688,-9.812,-2.375,-3, -3, -3, -2, -3, -2, 3, 3
1503600085339,-0.018,+0.038,-0.473,-0.880,+0.871,-0.072,-0.495,-5.125,-11.250,-1.812,7, -4, -1, -1, -1, 1, -1, 0
1503600085361,-0.018,+0.037,-0.471,-0.881,+0.847,-0.078,-0.503,-5.062,-11.875,-2.250,-8, -9, -1, 1, -1, 2, -4, -5
1503600085387,-0.018,+0.036,-0.469,-0.882,+0.836,-0.062,-0.516,-5.125,-13.750,-1.812,-2, -17, -7, -1, -1, -4, 0, 1
1503600085399,-0.018,+0.035,-0.468,-0.883,+0.854,-0.071,-0.516,-5.188,-11.312,+0.812,-2, 1, 0, -2, 1, -1, -6, 1
1503600085415,-0.018,+0.035,-0.466,-0.884,+0.840,-0.070,-0.529,-5.000,-8.875,-0.500,-6, 6, 0, -1, -2, -4, -1, -4
1503600085436,-0.018,+0.034,-0.465,-0.885,+0.826,-0.059,-0.522,-3.938,-8.312,-0.375,4, 21, 1, 0, 0, 3, 3, 4
1503600085459,-0.018,+0.034,-0.464,-0.885,+0.860,-0.074,-0.526,-3.312,-4.875,+0.625,-1, -1, 2, 0, -2, -6, -3, -3
1503600085474,-0.018,+0.034,-0.463,-0.885,+0.841,-0.069,-0.514,-4.000,-6.250,+0.312,12, 17, 0, -3, -2, -2, 2, 4
1503600085496,-0.019,+0.033,-0.462,-0.886,+0.836,-0.065,-0.537,-3.125,-5.812,+1.062,-2, 0, 0, 3, -1, -4, 0, -3
1503600085519,-0.019,+0.033,-0.461,-0.886,+0.815,-0.065,-0.541,-2.750,-4.812,+0.875,-8, -14, -3, -1, -3, 13, 0, 3
1503600085534,-0.019,+0.033,-0.461,-0.887,+0.821,-0.083,-0.522,-4.062,-3.625,+2.750,-8, -9, 2, 10, 2, -5, -1, -6
1503600085557,-0.020,+0.033,-0.461,-0.887,+0.833,-0.079,-0.524,-4.500,-1.812,+2.688,16, 9, -5, -7, -1, -6, -2, -1
1503600085587,-0.021,+0.032,-0.460,-0.887,+0.840,-0.069,-0.533,-5.188,-3.438,+2.375,-13, -14, -3, -7, -4, 1, -4, -2
1503600085594,-0.021,+0.032,-0.460,-0.887,+0.833,-0.068,-0.539,-3.562,-1.312,+1.938,9, -5, -4, -3, -5, -3, 4, 8
1503600085617,-0.022,+0.032,-0.460,-0.887,+0.853,-0.082,-0.522,-3.062,-2.562,+2.250,-4, -1, -1, 4, -5, -10, -1, 8
1503600085639,-0.022,+0.032,-0.459,-0.887,+0.830,-0.084,-0.529,-3.312,-2.000,-0.188,-21, -20, 1, -4, 0, 2, 0, -2
1503600085654,-0.021,+0.031,-0.459,-0.887,+0.852,-0.079,-0.517,-3.062,-1.938,-4.062,-5, -3, 1, 0, 4, 3, -3, -8
1503600085676,-0.021,+0.031,-0.458,-0.888,+0.855,-0.067,-0.520,-2.750,-8.062,-4.812,-1, 7, -1, 0, -5, -1, -5, -7
1503600085699,-0.020,+0.030,-0.457,-0.889,+0.825,-0.063,-0.537,-3.062,-8.125,-5.312,12, 9, -2, 3, 0, 1, 1, -2
1503600085716,-0.019,+0.029,-0.456,-0.889,+0.836,-0.063,-0.547,-2.062,-7.625,-3.188,4, -2, -3, -7, 3, 1, -5, 10
1503600085736,-0.018,+0.029,-0.455,-0.890,+0.809,-0.047,-0.561,+1.062,-6.812,-5.625,7, 25, 13, 2, 4, 0, -2, -8
1503600085759,-0.016,+0.029,-0.454,-0.890,+0.824,-0.085,-0.513,+3.125,-8.125,-10.688,-2, -7, -7, 0, 1, -1, -1, 3
1503600085774,-0.016,+0.029,-0.453,-0.891,+0.902,-0.106,-0.512,-5.188,-12.812,-0.438,-4, -5, 0, 1, -1, -2, -6, -10
1503600085796,-0.016,+0.028,-0.450,-0.892,+0.815,-0.017,-0.596,-3.625,-13.875,+1.375,3, 0, -2, 1, 1, 6, 5, -3
1503600085819,-0.016,+0.028,-0.449,-0.893,+0.803,-0.018,-0.572,+1.062,-8.250,-2.438,-7, 15, 2, -1, -6, -41, -10, 3
1503600085834,-0.016,+0.030,-0.448,-0.894,+0.809,-0.077,-0.551,+6.375,-6.062,+5.938,0, -6, -2, 1, 6, 17, 0, -4
1503600085856,-0.016,+0.031,-0.447,-0.894,+0.817,-0.099,-0.512,+0.188,-6.125,+2.438,-4, 5, 1, 0, 2, 19, 0, -1
1503600085879,-0.017,+0.030,-0.446,-0.894,+0.842,-0.062,-0.540,-9.125,-7.312,+2.875,4, -3, 4, 1, 4, 8, 7, -4
1503600085894,-0.018,+0.029,-0.445,-0.895,+0.835,-0.012,-0.597,-3.188,-8.438,+3.938,-5, -4, -7, -5, -6, -11, -1, 8
1503600085918,-0.018,+0.030,-0.444,-0.896,+0.811,-0.048,-0.560,+2.750,-9.312,+3.562,-5, -2, 0, 6, -2, -15, -3, -10
1503600085939,-0.018,+0.030,-0.442,-0.896,+0.781,-0.082,-0.566,-0.250,-7.625,+3.000,0, 0, 7, 1, -2, -6, 0, -9
1503600085954,-0.018,+0.030,-0.441,-0.897,+0.778,-0.072,-0.578,-2.375,-6.062,+1.750,27, 25, -10, -6, -6, -4, -3, -13
1503600085976,-0.019,+0.030,-0.440,-0.897,+0.842,-0.060,-0.576,-1.875,-6.312,+2.625,-21, 22, 2, 5, 3, 5, -4, 4
1503600085999,-0.018,+0.030,-0.439,-0.898,+0.830,-0.062,-0.589,-0.562,-6.062,-0.812,19, -11, 5, 0, -10, -32, 2, 5
1503600086014,-0.018,+0.031,-0.438,-0.898,+0.797,-0.060,-0.580,+2.438,-5.250,-2.750,0, -3, -1, 4, 17, 10, -14, 2
1503600086036,-0.017,+0.031,-0.438,-0.898,+0.783,-0.076,-0.600,+3.062,-0.375,-0.250,-7, -12, -2, -1, 0, 24, -3, -6
1503600086060,-0.017,+0.032,-0.438,-0.898,+0.792,-0.073,-0.574,+4.062,+2.875,+2.062,-22, -29, -3, -4, -9, -37, -4, 11
1503600086074,-0.017,+0.033,-0.439,-0.898,+0.819,-0.062,-0.582,+2.438,+4.500,-2.000,-15, -3, -2, 0, 2, 19, 7, -11
1503600086096,-0.016,+0.033,-0.440,-0.897,+0.819,-0.063,-0.561,+4.938,+5.438,-3.750,-8, 2, -6, -9, -7, -9, -2, -3
1503600086119,-0.015,+0.034,-0.441,-0.897,+0.827,-0.086,-0.551,+4.000,+4.688,-1.688,-28, 1, -10, -4, -10, -3, 9, 9
1503600086134,-0.015,+0.034,-0.442,-0.896,+0.827,-0.088,-0.548,+1.875,+4.875,-1.375,16, 22, 2, 1, 6, 31, 5, -8
1503600086156,-0.014,+0.034,-0.442,-0.896,+0.822,-0.053,-0.576,+0.000,-2.688,-4.125,-21, -37, -17, -3, -5, -3, -3, -1
1503600086179,-0.013,+0.035,-0.442,-0.896,+0.785,-0.067,-0.553,+4.312,-0.125,-4.312,11, -8, -5, -2, 4, -3, 2, -1
1503600086195,-0.013,+0.036,-0.444,-0.895,+0.856,-0.124,-0.526,+2.562,+11.438,+1.500,34, 49, 8, -2, -1, -12, -7, 8
1503600086219,-0.012,+0.035,-0.443,-0.896,+0.846,-0.045,-0.582,-2.688,-6.500,-6.125,-20, -4, -2, -5, -8, -31, -4, -7
1503600086239,-0.010,+0.035,-0.443,-0.896,+0.793,-0.083,-0.573,+5.375,+4.250,-7.375,27, 8, 10, 3, 0, 17, 0, -7
1503600086257,-0.009,+0.035,-0.443,-0.896,+0.774,-0.083,-0.576,+0.688,-3.250,-7.875,4, -2, 4, 3, 0, 1, 1, -3
