Timestamp,Orientation X,Orientation Y,Orientation Z,Orientation W,Accelerometer X,Accelerometer Y,Accelerometer Z,Gyroscope X,Gyroscope Y,Gyroscope Z,EMG1,EMG2,EMG3,EMG4,EMG5,EMG6,EMG7,EMG8,Roll,Yaw
1503704016295,-0.028,+0.011,-0.453,-0.891,+0.682,-0.049,-0.541,-25.312,+33.375,+37.250,6, -4, -12, -3, -2, -2, 3, 29,0.03998108763411875,0.9398142354242046
1503704016317,-0.036,+0.009,-0.457,-0.889,+0.723,-0.037,-0.534,-30.250,+33.688,+34.438,30, 0, -8, -3, -3, -1, -2, 16,0.05587781880878402,0.9487444195344795
1503704016339,-0.043,+0.007,-0.463,-0.885,+0.730,-0.040,-0.562,-30.000,+43.625,+34.125,7, 19, 6, 5, 5, -5, -7, 18,0.06977983607726602,0.9617701730638646
1503704016355,-0.048,+0.005,-0.469,-0.882,+0.750,-0.022,-0.554,-20.938,+47.250,+22.562,0, -5, 2, -2, -3, 0, -1, -1,0.08018400949778114,0.9754583373817606
1503704016377,-0.050,+0.004,-0.473,-0.880,+0.757,-0.048,-0.534,-8.000,+35.625,+9.688,-12, -6, 14, 1, 1, 0, 8, -3,0.08444065051025412,0.9846347434762275
1503704016399,-0.050,+0.004,-0.475,-0.878,+0.732,-0.087,-0.546,-0.875,+21.375,-5.125,-1, -2, -2, -3, -3, -2, -4, 3,0.08422509841385367,0.9886977223015838
1503704016415,-0.047,+0.003,-0.477,-0.878,+0.718,-0.021,-0.546,+2.312,+20.938,-15.375,5, 15, 15, 3, -8, -20, -2, -10,0.07985481759797039,0.9938676164883385
1503704016437,-0.044,+0.002,-0.479,-0.877,+0.732,-0.029,-0.528,+2.438,+18.062,-17.062,-5, -2, -11, -2, 0, 1, -3, -14,0.07540987712829451,0.9985189710515257
1503704016459,-0.041,-0.000,-0.481,-0.876,+0.737,-0.033,-0.483,-3.062,+18.625,-24.125,-2, -6, -10, -2, 0, 1, 6, -10,0.0719498997496474,1.0032172753371422
1503704016475,-0.035,-0.004,-0.484,-0.875,+0.765,+0.045,-0.466,-3.188,+20.188,-37.500,-1, -12, -10, -2, 0, -1, 2, 2,0.0651915244619971,1.0105809916955057
1503704016497,-0.026,-0.009,-0.485,-0.874,+0.774,+0.065,-0.524,+4.750,+13.062,-53.188,-3, -2, -4, -3, -1, 1, -4, -5,0.05420699347853112,1.0128474989496485
1503704016520,-0.017,-0.014,-0.483,-0.875,+0.798,+0.086,-0.503,+2.625,-5.938,-57.312,-14, -10, -8, -3, 2, 5, 2, 12,0.04328895604062391,1.0084211669645673
1503704016535,-0.008,-0.019,-0.480,-0.877,+0.854,+0.086,-0.505,-1.562,-17.312,-55.500,12, -1, -13, -5, -2, 1, -1, 20,0.032288229375340705,1.0019426377360912
1503704016557,-0.002,-0.024,-0.479,-0.878,+0.846,+0.088,-0.512,-8.062,-9.438,-41.312,43, 1, -5, 2, 2, 0, 3, 73,0.026528555309895927,1.000147441888948
1503704016579,+0.002,-0.028,-0.478,-0.878,+0.899,+0.103,-0.509,-8.812,-3.000,-31.750,10, 15, 10, 0, 1, 7, -5, -13,0.023288498191771166,0.9978230189913456
1503704016595,+0.006,-0.031,-0.476,-0.879,+0.896,+0.075,-0.486,-4.125,-18.375,-28.875,-18, 3, 5, 1, 0, 1, -1, -23,0.018999603247928657,0.9933774643468073
1503704016617,+0.008,-0.035,-0.472,-0.881,+0.940,+0.106,-0.473,-16.188,-25.375,-21.562,3, 10, -3, -2, -2, 0, 2, -9,0.018990680560781802,0.9845344831097549
1503704016639,+0.005,-0.039,-0.469,-0.883,+0.927,+0.086,-0.514,-24.250,-28.625,+4.062,-16, -20, -6, 1, -1, -1, -2, -1,0.027830887553632607,0.9785187530699707
1503704016655,+0.000,-0.043,-0.469,-0.882,+0.987,+0.149,-0.477,-35.062,-8.375,+18.438,-12, -16, -12, -6, -2, -1, -1, -24,0.040461613814122645,0.9787578123393061
1503704016679,-0.005,-0.046,-0.467,-0.883,+0.994,+0.187,-0.510,-28.125,-15.562,+24.125,-29, -8, 3, -2, -4, -3, 0, -21,0.05196989707733606,0.9748917555414075
1503704016700,-0.009,-0.048,-0.463,-0.885,+0.925,+0.141,-0.499,-21.312,-38.188,+16.875,11, 14, 7, 0, 0, -1, -1, -1,0.06059311794846118,0.9663213912672423
1503704016716,-0.012,-0.051,-0.457,-0.888,+0.841,+0.080,-0.485,-21.812,-42.062,+4.938,9, 32, 27, 3, 0, -1, -4, -12,0.06819506009868806,0.9534131408081796
1503704016737,-0.014,-0.055,-0.453,-0.890,+0.819,+0.113,-0.502,-25.500,-25.438,+2.750,7, -8, -19, -2, 1, 0, 2, -3,0.07509319272463053,0.9452599483178905
1503704016759,-0.017,-0.057,-0.451,-0.891,+0.838,+0.132,-0.581,-19.938,-15.125,+8.562,2, -6, -8, -5, -1, -2, -7, -32,0.08210528899550695,0.9413552799228433
1503704016775,-0.020,-0.058,-0.447,-0.893,+0.846,+0.083,-0.600,-14.812,-22.938,+9.125,-22, 1, 1, -4, -4, -2, -2, -3,0.08800831451700986,0.9327871655709721
1503704016798,-0.021,-0.059,-0.443,-0.894,+0.842,+0.039,-0.570,-12.125,-27.188,+2.938,-3, -8, -6, -5, -3, 0, -2, -2,0.09028600747148834,0.923585498134862
1503704016820,-0.022,-0.060,-0.439,-0.896,+0.779,+0.055,-0.560,-9.125,-20.500,-3.625,0, 2, -4, -1, -2, -2, 0, 15,0.09259694205063189,0.9149553670574736
1503704016835,-0.022,-0.061,-0.437,-0.897,+0.777,+0.055,-0.544,-8.062,-15.000,-7.000,8, 8, 10, 3, 2, 2, 0, 4,0.09329727041570927,0.9107267096783339
1503704016858,-0.021,-0.063,-0.437,-0.897,+0.806,+0.096,-0.570,-9.312,-2.188,-6.250,14, 41, 30, 12, 6, -1, -6, 8,0.09328963258005324,0.9110968883807506
1503704016881,-0.022,-0.064,-0.437,-0.897,+0.825,+0.140,-0.577,-7.250,+0.188,+1.250,-2, -13, -1, 3, 1, 1, 2, -13,0.09599006842378592,0.9114031661911015
1503704016895,-0.024,-0.064,-0.436,-0.898,+0.823,+0.096,-0.586,-4.125,-7.062,+9.875,1, -5, -6, -3, -4, -2, 3, 15,0.09951513649632104,0.9096080423529102
1503704016918,-0.026,-0.063,-0.435,-0.898,+0.841,+0.024,-0.559,-4.875,-8.875,+9.062,4, 6, -1, 2, 0, -4, -4, -13,0.10210155393191757,0.9070448423133779
1503704016939,-0.027,-0.062,-0.434,-0.898,+0.808,+0.061,-0.598,-2.688,-5.312,+4.625,-5, -7, -3, -5, -3, -1, -3, -7,0.10288774928346614,0.9044059054421649
1503704016956,-0.027,-0.061,-0.434,-0.898,+0.709,+0.051,-0.584,+5.938,+6.125,+2.688,-6, -14, -7, 0, -1, 0, 0, -8,0.1019957533717056,0.9041782397236322
1503704016978,-0.028,-0.060,-0.438,-0.897,+0.800,-0.008,-0.499,-3.812,+18.625,+2.688,1, 10, 19, 1, -2, -1, 1, 8,0.10333190018022807,0.91344099123986
1503704016999,-0.029,-0.061,-0.444,-0.894,+0.905,+0.046,-0.464,-12.875,+30.938,+1.688,3, -13, -9, -4, -1, -1, 0, 20,0.1065907109666456,0.9271118494879212
1503704017016,-0.028,-0.063,-0.447,-0.892,+0.986,+0.120,-0.517,-3.875,+15.312,-5.188,8, 6, 2, 3, 3, 3, 5, 13,0.10688503462996078,0.9339504960359007
1503704017037,-0.024,-0.063,-0.445,-0.893,+1.022,+0.183,-0.552,+10.438,-23.125,-19.812,1, -3, -5, 0, 1, 0, -2, 3,0.09951177852499433,0.9291698096170086
1503704017059,-0.018,-0.062,-0.438,-0.896,+0.952,+0.105,-0.562,+17.250,-47.312,-30.188,3, 5, -11, -4, -3, 0, 0, 4,0.08707495859534792,0.9125985769555551
1503704017075,-0.012,-0.061,-0.434,-0.899,+0.853,+0.067,-0.572,+20.188,-32.000,-32.062,-6, -22, -14, 2, 2, 0, -3, -12,0.07496382028448155,0.9035805502421981
1503704017097,-0.007,-0.060,-0.433,-0.899,+0.820,+0.100,-0.607,+18.625,-0.438,-25.125,-5, -2, 18, 0, 0, 1, 2, 12,0.06492912308824235,0.900512844954663
1503704021199,+0.051,-0.042,-0.439,-0.896,+0.892,+0.197,-0.501,-24.375,-21.375,+30.438,-10, 4, 6, 3, -3, -4, -7, 1,-0.05494076991261713,0.907770449583967
1503704021222,+0.044,-0.045,-0.439,-0.896,+0.875,+0.203,-0.547,-25.500,-8.500,+32.500,-2, -4, 11, 0, -2, -2, -3, -33,-0.039631362151531145,0.9083857924485899
1503704021237,+0.037,-0.046,-0.440,-0.896,+0.887,+0.191,-0.599,-25.500,-2.062,+33.688,-12, -6, -2, -2, -1, -3, 7, 30,-0.025999396795429185,0.9113795517931099
1503704021259,+0.031,-0.048,-0.439,-0.897,+0.898,+0.158,-0.622,-21.875,-9.562,+31.125,27, 10, 3, 0, 0, -1, -7, -24,-0.013557706500121263,0.9099808526810558
1503704021283,+0.028,-0.049,-0.436,-0.898,+0.841,+0.153,-0.619,-14.438,-15.250,+17.500,17, 8, 5, 1, -2, -1, 12, 59,-0.007608319118190016,0.903320428443306
1503704021297,+0.027,-0.048,-0.433,-0.900,+0.746,+0.114,-0.673,-0.812,-17.750,+3.750,-28, -2, 3, -3, 0, 3, -5, -48,-0.007074798403022631,0.8968662933656903
1503704021320,+0.030,-0.048,-0.430,-0.901,+0.700,+0.085,-0.670,+9.438,-6.688,-16.438,4, -1, 10, 0, 0, -3, -3, -18,-0.012861713145249951,0.8897621144040793
1503704021342,+0.036,-0.048,-0.431,-0.901,+0.662,+0.116,-0.562,+11.000,+11.750,-33.438,-1, -8, -13, -4, -6, -5, 8, 6,-0.02366198104648359,0.8918856440119014
1503704021358,+0.044,-0.047,-0.435,-0.898,+0.617,+0.049,-0.542,+20.125,+38.938,-39.438,-11, -5, -7, -4, 0, 2, -3, 13,-0.038433837995733286,0.8996492419515566
1503704021380,+0.052,-0.047,-0.443,-0.894,+0.747,+0.132,-0.510,+14.625,+56.125,-37.812,-12, 8, -1, 0, 2, -1, -8, -39,-0.05179704094231091,0.9170600708793862
1503704021402,+0.057,-0.046,-0.448,-0.891,+0.931,+0.153,-0.546,+15.875,+27.938,-24.062,10, -7, -5, -1, 2, -4, -1, 9,-0.060937127078594104,0.9276657192995756
1503704021418,+0.057,-0.044,-0.449,-0.891,+0.946,+0.092,-0.537,+6.312,-2.250,-1.875,-13, -6, -11, -3, -3, -4, 0, 4,-0.06263030785184409,0.9300379999604594
1503704021439,+0.055,-0.043,-0.448,-0.891,+0.882,+0.121,-0.512,+0.562,-11.312,+14.875,-6, 4, 4, 0, 2, 3, -2, -14,-0.059995450947400636,0.9275456663634807
1503704021462,+0.052,-0.042,-0.445,-0.893,+0.844,+0.130,-0.539,-2.188,-20.438,+20.250,-28, -5, -3, -2, -4, 0, 5, -10,-0.05593394277146646,0.9211532896138839
1503704021479,+0.048,-0.042,-0.443,-0.894,+0.831,+0.151,-0.576,-9.500,-16.562,+22.188,21, 5, -1, -2, -3, 30, -2, -3,-0.048971565780905606,0.9168728224268918
1503704021500,+0.043,-0.042,-0.441,-0.895,+0.794,+0.176,-0.609,-7.750,-8.688,+27.250,-2, -2, 5, 4, -5, -8, 8, 37,-0.04019494442363109,0.9126544515040407
1503704021522,+0.037,-0.041,-0.440,-0.896,+0.845,+0.135,-0.613,-13.188,-7.188,+33.375,-3, -10, -12, -6, 1, -5, -2, -9,-0.030400129533168493,0.9109159193945172
1503704021538,+0.033,-0.041,-0.441,-0.896,+0.826,+0.163,-0.582,-9.875,+4.562,+24.875,-29, 2, 23, 6, 5, -6, -6, 26,-0.023097876456138432,0.9136218278654542
1503704021560,+0.032,-0.041,-0.444,-0.895,+0.821,+0.151,-0.563,-2.375,+14.750,+9.750,-48, -32, -11, -1, 0, -5, -5, -28,-0.02098245191650904,0.9206517509510278
1503704021583,+0.034,-0.040,-0.446,-0.894,+0.848,+0.098,-0.546,+5.625,+11.938,-6.125,25, -4, -10, -5, -1, -6, -10, -4,-0.025245819675136963,0.9249462608650494
1503704021598,+0.037,-0.040,-0.447,-0.893,+0.855,+0.105,-0.559,+8.938,+10.125,-19.875,2, -3, -4, -5, -4, -3, 3, -4,-0.030493672398057683,0.9267760220741045
1503704021621,+0.040,-0.040,-0.447,-0.893,+0.805,+0.085,-0.547,+4.000,-0.562,-14.750,5, -1, -4, -3, -4, -5, -13, -16,-0.03589439937494542,0.9266311142593069
1503704021642,+0.041,-0.040,-0.447,-0.893,+0.807,+0.089,-0.523,-0.625,+1.000,-5.250,19, 14, 7, 2, 1, 2, 8, 9,-0.037695611033861105,0.9265827992246549
1503704021658,+0.039,-0.039,-0.449,-0.892,+0.820,+0.073,-0.513,-2.875,+6.938,+6.938,33, 16, 4, -2, -1, -1, -3, -5,-0.0347515171911433,0.9310951950461333
1503704021687,+0.037,-0.039,-0.451,-0.891,+0.844,+0.089,-0.510,-5.500,+9.000,+14.938,12, 2, -7, -2, -7, -12, 5, 4,-0.03092494101343088,0.9356920697399885
1503704021702,+0.034,-0.038,-0.453,-0.890,+0.854,+0.116,-0.518,-4.375,+8.250,+17.312,-7, -6, -1, 3, -14, 8, 6, 2,-0.02622237568002528,0.9402574318718977
1503704021718,+0.032,-0.037,-0.454,-0.890,+0.856,+0.106,-0.529,-0.500,+4.688,+14.875,-1, 6, -1, 1, 14, 11, -3, -8,-0.023472046359226683,0.9427890526963953
1503704021740,+0.030,-0.035,-0.455,-0.889,+0.877,+0.079,-0.508,-0.125,+3.938,+13.188,-14, -25, -24, -8, -6, -10, -10, 2,-0.021578372544366512,0.9447038559851154
1503704021762,+0.028,-0.034,-0.456,-0.889,+0.854,+0.067,-0.518,+2.188,+3.000,+10.062,-54, -25, 2, -1, -2, -6, -6, -12,-0.018846902815919032,0.947234336768914
1503704021778,+0.028,-0.033,-0.456,-0.889,+0.819,+0.044,-0.533,+0.688,+2.500,+4.062,14, 28, 6, -1, 1, 1, 4, 2,-0.01975945655542752,0.9471579881625896
1503704021800,+0.028,-0.033,-0.458,-0.888,+0.788,+0.026,-0.521,-3.438,+11.125,-1.938,17, 17, 13, 10, 10, 1, 5, -26,-0.01957082262684805,0.951683279518911
1503704021822,+0.028,-0.034,-0.462,-0.886,+0.824,+0.035,-0.477,-9.500,+22.375,-6.875,4, 7, 2, -2, 3, 2, 1, 8,-0.01826885836822071,0.9608366079805347
1503704021838,+0.029,-0.036,-0.466,-0.883,+0.917,+0.068,-0.463,-9.000,+25.688,-15.250,22, 14, 2, -1, -2, -2, 5, 49,-0.017735951474791317,0.9695443723626818
1503704021860,+0.033,-0.037,-0.469,-0.882,+0.974,+0.128,-0.508,+2.000,+13.750,-20.625,-10, 7, -1, -1, -4, -2, -3, -18,-0.023617734089977263,0.9765886967107522
1503704021882,+0.038,-0.038,-0.470,-0.881,+0.934,+0.119,-0.509,+8.875,+0.688,-26.188,-25, -10, -4, -2, -3, -1, -3, 17,-0.03140713646235596,0.9784908036576256
1503704021905,+0.043,-0.037,-0.470,-0.881,+0.878,+0.084,-0.539,+17.562,+3.938,-26.125,16, 6, 2, 6, 4, 0, 7, 31,-0.041228119453390326,0.9782006356890481
1503704024304,+0.042,-0.002,-0.533,-0.845,+0.751,+0.071,-0.459,+7.875,+18.812,-53.812,-12, 7, -9, -4, 1, 0, 1, 9,-0.06898268116601404,1.1237050651192733
1503704024319,+0.053,-0.006,-0.537,-0.842,+0.797,+0.106,-0.403,+12.875,+35.875,-67.812,-9, 15, 2, -2, -2, -2, -2, 10,-0.08309012709269181,1.1328284006790286
1503704024342,+0.065,-0.009,-0.541,-0.839,+0.848,+0.096,-0.420,+21.938,+38.000,-62.438,-3, -21, -16, -3, -1, -3, -6, -3,-0.09986159756972676,1.1420023467254623
1503704024366,+0.073,-0.009,-0.544,-0.836,+0.997,+0.077,-0.394,+22.625,+26.750,-47.812,6, -4, -7, -1, 0, -3, -1, -19,-0.1130084395524364,1.1486277581995092
1503704024380,+0.081,-0.008,-0.546,-0.834,+1.075,+0.078,-0.345,+26.188,+5.438,-33.750,-2, -1, -5, -1, -14, 12, -1, 2,-0.12737554350919197,1.1530789645034558
1503704024402,+0.086,-0.006,-0.544,-0.835,+1.033,+0.062,-0.335,+26.375,-16.625,-22.000,6, 5, 8, 13, 8, -22, 2, 4,-0.13827246639385288,1.1482133265657062
1503704024424,+0.088,-0.004,-0.541,-0.836,+0.933,+0.054,-0.291,+13.000,-20.312,-11.125,-1, -7, 2, 2, 7, 13, 5, 0,-0.144054520341921,1.14072109321306
1503704024439,+0.087,-0.004,-0.541,-0.837,+0.890,+0.108,-0.308,-2.000,-6.625,+7.875,5, -5, -7, -7, -11, -10, -1, 14,-0.1425139594258926,1.1411776594951242
1503704024461,+0.082,-0.003,-0.541,-0.837,+0.916,+0.113,-0.371,-13.438,+3.312,+29.438,-12, -5, -3, -4, 10, 9, -8, -24,-0.13502476941795144,1.1412502229616204
1503704024484,+0.075,-0.003,-0.541,-0.837,+0.982,+0.123,-0.364,-23.750,-4.188,+34.438,7, -13, -2, -1, 1, -1, -2, 6,-0.12307265027645276,1.1412677910774993
1503704024507,+0.068,-0.005,-0.539,-0.839,+1.000,+0.118,-0.335,-29.688,-22.188,+30.750,8, 1, -1, -6, -10, -3, 1, 2,-0.10929700522906219,1.1367596490492573
1503704024522,+0.061,-0.007,-0.536,-0.842,+0.962,+0.107,-0.378,-29.062,-27.250,+29.500,3, -5, -7, -2, -3, -4, 0, 38,-0.09565063786202088,1.130093744735685
1503704024544,+0.056,-0.009,-0.532,-0.845,+0.924,+0.089,-0.426,-25.812,-28.250,+25.312,-3, 15, -4, -4, -1, -3, -2, -12,-0.08540657829735004,1.120821812953241
1503704024559,+0.051,-0.012,-0.528,-0.847,+0.889,+0.077,-0.426,-28.812,-23.250,+13.688,-15, -13, 4, -2, 1, 2, -2, 11,-0.07399363183977599,1.111151281048221
1503704024581,+0.050,-0.015,-0.527,-0.848,+0.805,+0.130,-0.430,-21.125,-2.000,-2.375,14, 42, 45, 11, 3, 1, -2, -27,-0.0692571113653102,1.1089919625491014
1503704024605,+0.053,-0.017,-0.527,-0.848,+0.784,+0.132,-0.459,-1.750,+8.375,-17.250,-15, 13, -1, -3, -5, -2, -13, -13,-0.07229250396480534,1.1089719213841298
1503704024619,+0.060,-0.020,-0.530,-0.846,+0.861,+0.122,-0.418,+7.375,+19.438,-43.812,-2, -43, -24, -3, 0, 0, 7, -8,-0.08079149922326644,1.1159350800083288
1503704024642,+0.068,-0.021,-0.531,-0.844,+0.917,+0.132,-0.423,+17.000,+15.062,-42.250,-4, -9, -10, -3, -2, 0, 12, 97,-0.0931580033134887,1.1175347286305626
1503704024664,+0.073,-0.021,-0.530,-0.845,+0.903,+0.086,-0.447,+17.125,-2.125,-24.875,5, -6, -6, 0, 4, 2, 2, -8,-0.10193588849214845,1.115246315194368
1503704024679,+0.074,-0.020,-0.528,-0.846,+0.931,+0.040,-0.362,+5.688,-12.062,-6.500,10, -2, -4, -3, -4, -2, -7, -20,-0.10493888273530233,1.1103667565617912
1503704024702,+0.072,-0.018,-0.527,-0.846,+0.931,+0.053,-0.354,-0.688,-11.812,+12.125,-5, 2, -3, 1, 5, -2, 1, -43,-0.10362512325053357,1.1077355558125175
1503704024724,+0.068,-0.017,-0.526,-0.848,+0.936,+0.094,-0.389,-7.875,-11.438,+21.000,0, 5, 1, 0, -2, -9, 0, 7,-0.09809512538992371,1.106090145321849
1503704024739,+0.066,-0.017,-0.526,-0.848,+0.892,+0.149,-0.396,-7.438,-2.188,+15.500,-1, 0, 0, 7, 4, -1, 1, -14,-0.0946502727416383,1.1061207611398687
1503704024761,+0.065,-0.017,-0.527,-0.847,+0.916,+0.139,-0.362,-0.375,+2.875,+6.562,9, -6, -2, -5, -5, -3, 2, 16,-0.09276488219770675,1.1083172460844442
1503704024784,+0.065,-0.017,-0.527,-0.847,+1.023,+0.113,-0.386,-0.250,+1.562,+1.000,18, -3, -4, -4, 6, 4, -8, 3,-0.09276488219770675,1.1083172460844442
1503704024799,+0.064,-0.017,-0.525,-0.848,+1.006,+0.100,-0.370,-4.625,-19.625,+4.625,-19, 0, 23, 11, -3, 4, -3, -11,-0.0912423748120331,1.1034986724202718
1503704024821,+0.062,-0.018,-0.522,-0.851,+0.902,+0.098,-0.385,-10.562,-27.062,+8.625,37, -13, -17, -4, 10, 3, -7, -15,-0.0872390840956583,1.0970197670213804
1503704024845,+0.058,-0.019,-0.520,-0.852,+0.853,+0.103,-0.400,-15.000,-12.625,+16.062,-27, 6, 3, 1, 11, 1, -1, -38,-0.07949761205670441,1.092290609835768
1503704024866,+0.053,-0.019,-0.521,-0.852,+0.905,+0.110,-0.407,-20.938,+0.875,+25.250,-35, 12, 4, 3, 2, -8, -6, -31,-0.0708451480016115,1.095020597827138
1503704024881,+0.048,-0.021,-0.524,-0.850,+0.866,+0.123,-0.403,-22.500,+20.000,+23.188,-20, 7, 3, -4, -1, 2, -1, 1,-0.059849404354602724,1.1021441221609858
1503704024906,+0.044,-0.022,-0.529,-0.847,+0.930,+0.127,-0.337,-20.438,+31.188,+16.062,3, 4, 5, 1, -7, -24, -2, -4,-0.05146382244392285,1.114101872068106
1503704024927,+0.043,-0.023,-0.533,-0.845,+1.037,+0.111,-0.347,-11.188,+22.875,+5.062,-14, 9, 8, -1, -16, -35, -8, -5,-0.04834440682859481,1.1238698614270168
1503704024942,+0.044,-0.025,-0.533,-0.844,+1.020,+0.139,-0.402,-4.938,-1.875,-11.125,-15, -1, -8, -6, -20, -1, -9, 53,-0.047830667032488124,1.1234845788257977
1503704024964,+0.047,-0.027,-0.530,-0.846,+0.884,+0.115,-0.427,-1.875,-19.875,-17.188,-22, 5, -6, -1, -1, 5, -1, -27,-0.05116019810865997,1.116468118339908
1503704024987,+0.049,-0.028,-0.528,-0.848,+0.788,+0.071,-0.407,-2.000,-9.312,-15.188,-6, 9, -15, -4, -4, -9, -6, -31,-0.05382716462867034,1.1120966820426297
1503704025005,+0.050,-0.029,-0.529,-0.847,+0.788,+0.057,-0.409,-4.500,+10.938,-8.312,11, -28, 15, 5, -10, -6, 5, 14,-0.05432786331220835,1.1143186484268668
1503704025024,+0.049,-0.030,-0.532,-0.845,+0.894,+0.040,-0.376,-10.062,+23.188,-5.312,-8, 19, -1, -5, -14, -3, -8, -58,-0.05118346583354647,1.121459708907923
1503704025048,+0.049,-0.030,-0.535,-0.843,+0.994,+0.056,-0.383,-4.938,+21.250,-5.000,-17, -24, -6, -2, 0, 1, -3, 16,-0.05080595040698595,1.1285359027512019
1503704025073,+0.050,-0.032,-0.537,-0.841,+1.041,+0.076,-0.317,-10.312,+4.188,-13.125,11, 11, 3, 2, 14, 5, 7, -13,-0.05004318246800401,1.133076578732347
1503704025084,+0.053,-0.034,-0.536,-0.842,+0.992,+0.142,-0.366,+2.375,-6.000,-16.438,12, 3, 8, 0, -4, 3, 0, -8,-0.05317590465645017,1.1309284602171479
1503704025107,+0.055,-0.034,-0.535,-0.842,+0.972,+0.160,-0.386,+4.250,-9.125,-8.312,-3, 0, -1, -1, 8, 3, -2, 6,-0.056653554368692724,1.1281958887640209
1503704025121,+0.056,-0.032,-0.535,-0.842,+0.949,+0.172,-0.419,+12.750,+0.875,+1.438,0, 4, -3, -3, -6, -8, -8, 7,-0.060494023788267126,1.1280229521826979
1503704025144,+0.055,-0.028,-0.537,-0.841,+0.979,+0.114,-0.391,+16.125,+11.062,+16.188,43, -12, -7, -2, -4, -10, -1, -14,-0.06283447944389886,1.1326903938058395
1503704025166,+0.054,-0.022,-0.540,-0.840,+1.025,+0.081,-0.368,+20.312,+20.500,+23.688,-4, 17, 6, -1, -1, -2, 0, 35,-0.06731657860011117,1.1400106903650056
1503704025182,+0.053,-0.016,-0.543,-0.838,+1.072,+0.061,-0.361,+25.688,+20.000,+25.125,3, -20, -7, -4, -1, -2, -1, -14,-0.07176922436404974,1.147006620321028
1503704025207,+0.052,-0.009,-0.545,-0.837,+1.078,+0.060,-0.371,+31.188,+11.562,+23.500,15, -6, -3, -1, -1, -3, -3, 5,-0.0775149997692635,1.1519088383189868
1503704025227,+0.052,-0.001,-0.546,-0.836,+1.023,+0.058,-0.393,+36.812,+8.000,+23.938,-15, -9, -9, 0, 3, -2, -25, -48,-0.0861055524274495,1.154335719434535
1503704025243,+0.052,+0.008,-0.547,-0.835,+0.981,+0.062,-0.370,+39.625,+11.625,+27.812,-1, 62, 22, 6, 6, 4, 7, 16,-0.0958297162341818,1.1570664545400635
1503704025264,+0.052,+0.017,-0.550,-0.833,+0.939,+0.046,-0.367,+45.125,+21.625,+32.500,7, 0, 10, 3, 1, 0, 5, 16,-0.10557233834992928,1.1650175198684187
1503704025287,+0.051,+0.029,-0.554,-0.831,+0.948,-0.006,-0.359,+49.750,+33.312,+39.438,-3, -34, -22, -4, -3, -3, -4, -24,-0.11716518048107787,1.1763663999291936
1503704032105,+0.006,-0.079,-0.553,-0.830,+0.957,+0.166,-0.277,-26.562,-2.625,-6.312,2, -1, -4, -1, -3, 3, 8, 21,0.07823818177431278,1.181776694509384
1503704032127,+0.004,-0.083,-0.551,-0.831,+0.989,+0.159,-0.354,-28.312,-15.500,-5.812,-15, -5, 3, 1, -4, -13, -2, 5,0.08579461436584529,1.1781214990508637
1503704032149,+0.003,-0.086,-0.547,-0.833,+0.933,+0.199,-0.408,-16.375,-23.938,-4.062,9, 5, -6, 0, -1, -2, -3, 9,0.09017993890068592,1.1691991705363547
1503704032165,+0.002,-0.089,-0.542,-0.836,+0.997,+0.147,-0.294,-17.938,-39.312,-4.812,-10, -9, -8, -5, -4, -2, -3, -1,0.0943509414755358,1.1580961391919704
1503704032188,-0.001,-0.092,-0.535,-0.840,+0.993,+0.081,-0.266,-23.750,-53.688,-7.000,-53, -10, -2, 0, 0, 2, 1, -7,0.10149428016924608,1.1423331196726654
1503704032209,-0.004,-0.098,-0.528,-0.843,+0.923,+0.126,-0.284,-39.375,-54.500,-6.500,-10, -7, -3, 0, -4, -7, -4, -16,0.11192474972612951,1.1273454263275382
1503704032226,-0.008,-0.104,-0.521,-0.847,+0.872,+0.175,-0.377,-38.688,-48.125,-2.688,0, -6, -3, -3, -6, -2, -3, -1,0.12399263195844237,1.1131678051436686
1503704032247,-0.012,-0.107,-0.515,-0.850,+0.869,+0.172,-0.445,-28.000,-38.812,+4.500,25, 2, -1, -1, 3, 13, 14, 17,0.1329218025663333,1.1002321388765706
1503704032269,-0.016,-0.109,-0.510,-0.853,+0.885,+0.133,-0.430,-25.125,-34.750,+6.438,2, -1, -3, -1, -2, -9, -4, -3,0.14097950491804007,1.0896626851111046
1503704032293,-0.020,-0.112,-0.505,-0.856,+0.930,+0.155,-0.414,-28.875,-35.812,+7.188,24, 6, -2, -4, 0, -2, -1, -8,0.15013786909906526,1.0796088835860298
1503704032307,-0.024,-0.115,-0.500,-0.858,+0.935,+0.184,-0.403,-26.125,-37.375,+8.688,22, 7, -4, -1, 0, 18, -3, -26,0.15925715459393608,1.0691862414973188
1503704032336,-0.028,-0.118,-0.495,-0.861,+0.930,+0.171,-0.421,-25.375,-41.375,+7.312,19, -1, -3, -7, -5, -1, 0, -9,0.16842692715030472,1.0593663369290844
1503704032351,-0.030,-0.120,-0.490,-0.863,+0.890,+0.162,-0.443,-13.938,-33.625,-2.438,-1, -1, 1, 3, 0, -6, -1, -1,0.17298041221239105,1.0484692105460842
1503704032367,-0.031,-0.120,-0.485,-0.866,+0.885,+0.132,-0.479,-8.438,-32.750,-3.250,-18, 8, -1, -1, -3, -9, -8, 13,0.17371446454214895,1.0371072177063496
1503704032390,-0.032,-0.122,-0.481,-0.868,+0.889,+0.096,-0.424,-13.750,-26.500,-6.375,3, -7, -3, -2, -3, -4, -4, 10,0.17673488048464944,1.0287943711849776
1503704032411,-0.033,-0.123,-0.478,-0.869,+0.902,+0.136,-0.421,-13.312,-26.500,-5.375,57, 4, -5, 1, 2, 2, 0, -1,0.178874157449538,1.0221394046694054
1503704032427,-0.034,-0.125,-0.474,-0.871,+0.926,+0.153,-0.423,-14.938,-32.750,-5.812,-3, 1, 6, 2, 2, -1, -1, -1,0.1818680108142218,1.0139073529805271
1503704032449,-0.035,-0.128,-0.468,-0.874,+0.920,+0.204,-0.466,-15.625,-38.688,-6.812,0, -3, -3, -1, 3, 7, 3, -1,0.18543944235726662,1.0015786661321928
1503704032471,-0.036,-0.130,-0.462,-0.877,+0.837,+0.215,-0.521,-12.625,-39.125,-4.188,-12, -14, -10, -2, -2, -6, -1, -1,0.18794070749535383,0.988865307784192
1503704032487,-0.038,-0.131,-0.458,-0.878,+0.830,+0.201,-0.512,-12.438,-25.938,+0.812,-28, -12, 5, 3, 1, -2, 2, 7,0.19156241232678659,0.9799529246683127
1503704032509,-0.041,-0.133,-0.456,-0.879,+0.846,+0.201,-0.471,-18.312,-14.688,+8.938,-15, 6, -3, -2, -3, -5, 1, -3,0.1985176325381364,0.9768133048255788
1503704032533,-0.044,-0.135,-0.457,-0.878,+0.884,+0.191,-0.460,-18.938,-3.125,+12.562,8, -2, 0, -1, 0, -1, 1, 2,0.20611540611342913,0.980300815052381
1503704032547,-0.047,-0.135,-0.456,-0.878,+0.913,+0.196,-0.527,-13.438,-4.625,+9.062,-8, 2, 3, -4, -5, -1, -3, -3,0.21121665284979296,0.9782169240053171
1503704032569,-0.047,-0.135,-0.455,-0.879,+0.886,+0.237,-0.617,-2.500,-4.188,+2.938,21, 5, 1, -3, -8, -7, -6, 5,0.21104121234450854,0.9761945213879396
1503704032592,-0.048,-0.135,-0.453,-0.880,+0.887,+0.183,-0.543,+1.375,-13.625,+0.375,-46, -6, -2, -3, -1, 0, -4, -6,0.21239153652350204,0.9717915728950537
1503704032607,-0.048,-0.134,-0.451,-0.881,+0.880,+0.147,-0.495,+3.500,-16.250,-2.750,8, -1, 1, 0, -1, -2, -6, 1,0.21093503072792893,0.9667352815656248
1503704032629,-0.048,-0.133,-0.450,-0.882,+0.823,+0.165,-0.494,+1.438,-12.250,+1.250,5, -1, 4, 4, 4, 1, -3, -4,0.20975315172502074,0.9642225424010544
1503704032645,-0.049,-0.132,-0.450,-0.882,+0.832,+0.184,-0.525,+2.812,-2.625,+5.188,-5, -10, -4, 0, -1, -1, -4, 0,0.21054243249239515,0.9638766825380539
1503704032667,-0.049,-0.130,-0.450,-0.882,+0.869,+0.213,-0.571,+5.750,+3.750,+8.938,-21, 5, 4, 9, -3, -14, 6, 1,0.20852828498858167,0.9628868101271257
1503704032691,-0.050,-0.128,-0.451,-0.882,+0.886,+0.201,-0.539,+6.000,+3.438,+12.312,-2, 3, 0, -3, -5, 1, 0, -2,0.20857157636833418,0.9645884945132003
1503704032712,-0.052,-0.126,-0.452,-0.882,+0.896,+0.166,-0.491,+6.188,-2.250,+13.625,10, 0, -2, -3, 0, -9, 0, -2,0.21040721316120375,0.9664440304433489
1503704032727,-0.053,-0.123,-0.453,-0.881,+0.866,+0.168,-0.500,+9.750,+2.688,+15.438,-2, 0, -1, -2, 4, 6, 1, -3,0.209333440344246,0.9671646473155535
1503704032749,-0.055,-0.120,-0.454,-0.881,+0.858,+0.158,-0.527,+8.000,+6.062,+17.438,25, -8, -4, -5, -2, 0, 0, -2,0.21015417763508332,0.9685684826718655
1503704032772,-0.057,-0.117,-0.457,-0.880,+0.874,+0.157,-0.528,+8.312,+12.000,+20.625,3, 0, -3, -4, -1, 6, -5, -4,0.21132234878402595,0.9745263080103186
1503704032787,-0.059,-0.114,-0.460,-0.879,+0.869,+0.162,-0.530,+11.125,+18.062,+18.375,-5, 0, -7, -3, 2, -2, -6, 2,0.2124551925306992,0.9805067394105056
1503704032809,-0.060,-0.110,-0.463,-0.877,+0.917,+0.157,-0.527,+15.750,+16.625,+18.562,-5, 0, 8, 3, 5, 7, 3, 3,0.2106420474413855,0.9854317901969408
1503704032831,-0.061,-0.106,-0.465,-0.877,+0.883,+0.137,-0.537,+20.875,+11.750,+18.938,-20, -6, -3, -6, -6, -6, -5, -4,0.20882385071666562,0.9889041986775647
1503704032847,-0.061,-0.101,-0.468,-0.876,+0.851,+0.129,-0.513,+18.875,+12.188,+16.688,-25, -8, -6, 1, 3, 4, 5, 0,0.2042865421356565,0.9939294090690137
1503704032869,-0.062,-0.097,-0.470,-0.875,+0.849,+0.146,-0.521,+21.812,+14.062,+17.625,18, 7, 4, 4, 6, -2, -5, -4,0.20231070927987593,0.9970041162946612
1503704032893,-0.062,-0.092,-0.473,-0.874,+0.854,+0.119,-0.506,+21.688,+19.375,+19.062,-6, 1, 13, 3, -6, -2, -2, 1,0.19772203714810827,1.0021958167463951
1503704032908,-0.063,-0.088,-0.477,-0.872,+0.889,+0.118,-0.497,+21.938,+22.125,+18.375,7, -5, 2, -4, 0, 1, 0, 0,0.19592728253329247,1.0099872580851517
1503704032929,-0.064,-0.084,-0.481,-0.871,+0.880,+0.099,-0.475,+18.875,+20.250,+18.500,-10, -7, -3, 3, 3, 2, 4, 1,0.1942039322444508,1.0183576584479055
1503704032951,-0.064,-0.080,-0.484,-0.869,+0.868,+0.101,-0.457,+18.312,+18.875,+18.250,7, -2, -7, -2, -3, 0, 5, 1,0.19038347581848486,1.0236433154124667
1503704032968,-0.065,-0.076,-0.487,-0.868,+0.850,+0.084,-0.484,+19.562,+20.750,+16.500,13, 8, 13, 6, 0, 0, 4, 8,0.1884161843196549,1.0295838919555218
1503704032989,-0.065,-0.072,-0.491,-0.866,+0.848,+0.083,-0.489,+16.938,+24.562,+15.062,-3, 2, -8, -3, 1, 0, 1, -5,0.1846708524442336,1.037585781446525
1503704033011,-0.065,-0.069,-0.494,-0.864,+0.871,+0.086,-0.495,+17.812,+25.125,+14.688,-14, -3, -7, -3, -6, -2, -6, -7,0.18176655321321536,1.0433955122109864
1503704033027,-0.065,-0.065,-0.497,-0.863,+0.883,+0.048,-0.449,+15.188,+18.438,+12.562,-8, -1, 3, -2, 0, -3, -2, -9,0.17793726155124556,1.0494605053541564
1503704033049,-0.065,-0.062,-0.500,-0.862,+0.879,+0.041,-0.463,+15.000,+12.938,+11.312,-7, -1, -3, 1, 1, -2, 7, 2,0.17510320962323409,1.0558756716262692
1503704033072,-0.065,-0.059,-0.501,-0.861,+0.854,+0.041,-0.475,+16.625,+10.812,+11.125,6, -6, -2, -2, -3, 0, 1, -1,0.17200872915365925,1.0571505438291693
1503704033087,-0.065,-0.055,-0.502,-0.860,+0.848,+0.015,-0.461,+15.875,+10.062,+10.188,10, 17, 5, -1, 14, -2, -9, -2,0.16788221424573274,1.0582017289756522
1503704033109,-0.066,-0.052,-0.505,-0.859,+0.852,-0.006,-0.437,+14.312,+18.062,+11.750,1, -7, -4, -5, -7, 6, 0, -3,0.16672205289730735,1.0648046154788335
1503704033132,-0.067,-0.049,-0.509,-0.857,+0.886,-0.002,-0.419,+9.438,+22.000,+16.125,-3, -8, -10, -2, -5, -2, 0, -5,0.16549395628759508,1.0735688046190408
1503704033147,-0.068,-0.047,-0.512,-0.855,+0.900,+0.006,-0.388,+7.500,+18.188,+13.938,0, -5, -1, -1, -2, -2, 0, 2,0.16516741997925197,1.0800087181605746
1503704033176,-0.069,-0.045,-0.514,-0.854,+0.913,+0.034,-0.441,+7.375,+12.562,+11.875,4, -1, -3, -2, -2, 0, 3, 7,0.16485998888404202,1.084344748401343
1503704033191,-0.070,-0.043,-0.515,-0.853,+0.897,+0.005,-0.425,+5.375,+8.375,+13.188,-1, 0, -3, 2, -2, -4, -11, -13,0.16445129237675946,1.0860813729823218
1503704033207,-0.072,-0.040,-0.516,-0.853,+0.904,+0.015,-0.440,+6.438,+7.438,+15.312,-3, -4, 2, -1, -3, -1, 3, 2,0.1648593324208734,1.0881383092375674
1503704033229,-0.074,-0.038,-0.518,-0.852,+0.889,-0.007,-0.409,+4.000,+8.875,+16.938,6, 18, 12, 2, 0, 2, 2, 6,0.16623771648544766,1.0925627236119282
1503704033253,-0.076,-0.036,-0.519,-0.851,+0.887,-0.001,-0.409,+2.188,+10.062,+17.562,-2, -10, -4, -2, 0, -1, -1, -5,0.16752689431600284,1.094377457012334
1503704033267,-0.078,-0.035,-0.521,-0.849,+0.896,+0.002,-0.417,+3.125,+13.750,+18.375,1, -7, -6, -2, 0, -2, 1, -11,0.16976976737034521,1.0985499026591012
1503704033289,-0.079,-0.033,-0.523,-0.848,+0.928,+0.029,-0.428,+4.625,+11.125,+15.688,-3, 2, 0, 2, 0, -1, -6, 1,0.16937064438160257,1.1029853709236634
1503704033312,-0.080,-0.031,-0.524,-0.847,+0.929,+0.007,-0.406,+6.625,+6.438,+14.500,-9, -9, 0, -4, -5, -3, 4, -7,0.16889392527584007,1.1048051098604725
1503704033329,-0.081,-0.029,-0.525,-0.847,+0.920,-0.020,-0.403,+7.812,+5.250,+14.125,3, 14, 5, -2, -1, 0, -9, 2,0.16856839548008748,1.1071093470812683
1503704033349,-0.083,-0.026,-0.526,-0.846,+0.916,-0.028,-0.398,+8.562,+7.375,+14.688,-5, -9, -1, 0, -1, 1, 10, 22,0.16874549771502623,1.1088121658495802
1503704033371,-0.084,-0.024,-0.528,-0.845,+0.920,-0.037,-0.401,+8.750,+10.000,+14.750,6, 22, 8, 1, 1, 2, 1, -6,0.16829035234363388,1.113322363074124
1503704033388,-0.085,-0.021,-0.530,-0.844,+0.937,-0.037,-0.394,+7.500,+11.562,+15.562,3, -12, 0, -2, 0, -1, 2, -4,0.16675756727444727,1.1177019361414355
1503704033409,-0.086,-0.019,-0.531,-0.843,+0.938,-0.022,-0.396,+8.125,+9.875,+15.375,-9, -7, 0, 1, -1, 0, -1, -5,0.16622870051213368,1.1196107589251612
1503704033431,-0.087,-0.017,-0.533,-0.842,+0.932,-0.039,-0.389,+9.375,+6.500,+13.875,-2, -31, -18, -7, -3, -2, -4, 5,0.16572459294307776,1.1241886541009682
1503704033447,-0.088,-0.014,-0.534,-0.841,+0.939,-0.045,-0.375,+9.312,+6.562,+15.312,2, 1, -3, 3, 2, 0, -4, 0,0.1641084133596593,1.12600239676644
1503704033472,-0.089,-0.012,-0.535,-0.840,+0.936,-0.059,-0.383,+8.000,+5.375,+16.625,0, -5, -2, -2, -2, -2, -13, -12,0.16354784258836402,1.1279663515583753
1503704033492,-0.091,-0.009,-0.536,-0.839,+0.922,-0.068,-0.381,+6.688,+8.375,+17.875,-2, 6, 3, -1, 0, 1, 6, 4,0.1636310281402336,1.1298418706142486
1503704033510,-0.093,-0.007,-0.538,-0.838,+0.924,-0.072,-0.369,+7.250,+9.562,+19.000,0, 0, 8, 5, 1, -2, -1, -13,0.16478492247607723,1.1345160028900447
1503704033534,-0.095,-0.004,-0.539,-0.837,+0.938,-0.087,-0.367,+6.875,+8.938,+18.250,9, 0, -1, 2, -3, -1, 1, 15,0.16484049472786755,1.1364407742697396
1503704033551,-0.097,-0.001,-0.541,-0.836,+0.943,-0.098,-0.378,+6.562,+8.188,+19.000,-3, -1, -7, -6, -4, -3, 3, -6,0.16488687421133721,1.141069899404574
1503704033567,-0.099,+0.001,-0.542,-0.835,+0.939,-0.106,-0.367,+4.062,+7.500,+19.250,-1, -5, -2, -3, 0, -2, 3, -10,0.1659888157273559,1.1431319447474413
1503704033590,-0.101,+0.004,-0.543,-0.834,+0.931,-0.120,-0.366,+4.938,+8.438,+17.938,4, 3, -2, -2, 0, -3, -2, 29,0.16600574628672146,1.1451358960930222
1503704033612,-0.103,+0.006,-0.545,-0.832,+0.937,-0.111,-0.371,+7.812,+8.625,+18.625,-6, -1, -2, 0, 2, 1, -4, -26,0.16687168498949614,1.149469383435565
1503704033627,-0.104,+0.009,-0.546,-0.831,+0.938,-0.131,-0.358,+8.562,+6.312,+16.750,0, 8, -2, 0, -2, 0, 0, 6,0.1651344207252565,1.1515341717341019
1503704033650,-0.106,+0.012,-0.547,-0.830,+0.946,-0.161,-0.352,+7.750,+6.688,+17.125,0, -8, -1, 0, 1, 0, -1, -10,0.16510752427718794,1.1536236183426736
1503704033672,-0.108,+0.015,-0.548,-0.829,+0.940,-0.157,-0.347,+5.688,+8.312,+17.125,-11, -9, -4, -2, -2, -2, -2, -1,0.1650692748410872,1.15574300785754
1503704033687,-0.110,+0.017,-0.550,-0.828,+0.928,-0.158,-0.358,+6.188,+9.688,+17.250,1, -4, -2, 0, 1, -1, -1, -3,0.16606940724785557,1.1606244013445803
1503704033710,-0.112,+0.020,-0.552,-0.826,+0.925,-0.162,-0.339,+7.688,+11.812,+17.625,3, 14, 5, 4, 2, 1, 1, -1,0.16573992685302336,1.1650706471862002
1503704033733,-0.113,+0.023,-0.553,-0.825,+0.937,-0.165,-0.342,+11.125,+12.062,+16.500,3, 20, 16, 2, 0, -3, -16, -8,0.1639269704178075,1.1673005689589242
1503704033747,-0.114,+0.026,-0.555,-0.824,+0.924,-0.167,-0.343,+12.938,+10.938,+16.250,-2, -7, -4, -4, -2, 3, 1, -5,0.16204874385861148,1.172290313032108
1503704033770,-0.114,+0.030,-0.557,-0.822,+0.926,-0.177,-0.321,+14.875,+8.438,+14.562,-1, -6, -4, -3, -2, 0, 1, -4,0.1570930583870529,1.1769365135016716
1503704033792,-0.114,+0.033,-0.557,-0.822,+0.901,-0.163,-0.325,+14.312,+3.375,+11.250,-8, -11, -13, -6, -3, -1, 4, -4,0.15379674865342424,1.17702453997051
1503704033808,-0.114,+0.035,-0.557,-0.822,+0.845,-0.154,-0.312,+12.750,-0.562,+4.750,0, 8, -4, 0, 3, -2, 2, 7,0.15159897768206215,1.177102092270154
1503704033833,-0.112,+0.037,-0.557,-0.822,+0.822,-0.146,-0.321,+10.625,+0.438,-1.062,-3, -4, 6, 4, 2, -1, -3, -16,0.14595510379738724,1.1772525386823813
1503704033852,-0.111,+0.037,-0.557,-0.822,+0.809,-0.130,-0.306,+6.500,+0.500,-6.500,-3, 1, 1, -3, -5, 2, 1, -2,0.14423416125860672,1.1772814175816402
1503704033868,-0.108,+0.036,-0.557,-0.823,+0.829,-0.122,-0.301,+4.625,-3.438,-11.312,5, 8, 0, -1, 1, -3, -3, 7,0.14039739154277983,1.1777491138804892
1503704033890,-0.105,+0.035,-0.556,-0.824,+0.832,-0.118,-0.293,+2.750,-10.750,-16.938,0, -8, -5, -1, -2, 0, 0, 7,0.13663184391750952,1.1754861362458542
1503704033912,-0.101,+0.033,-0.553,-0.826,+0.824,-0.127,-0.284,+0.000,-21.688,-24.375,-2, -8, -5, -2, -4, -3, -2, -4,0.1325830293981261,1.1682013744754465
1503704033927,-0.097,+0.030,-0.549,-0.829,+0.804,-0.135,-0.265,-4.938,-27.500,-29.188,-2, 7, -1, -3, 0, -2, 2, 1,0.12984361434567535,1.1586519170322167
1503704033950,-0.094,+0.027,-0.546,-0.832,+0.797,-0.149,-0.276,-9.188,-26.062,-28.438,-1, -8, 1, -5, -5, -3, 0, -5,0.12869237246869505,1.151861763354161
1503704033975,-0.091,+0.024,-0.543,-0.835,+0.833,-0.153,-0.317,-11.938,-22.000,-29.562,3, -21, -2, -1, -2, 3, 4, 9,0.1274814113985736,1.1451343703786137
1503704033988,-0.087,+0.020,-0.539,-0.837,+0.870,-0.138,-0.351,-11.750,-23.062,-31.938,0, -5, 0, 0, 2, -2, -3, 5,0.12542570266853068,1.1353436298337078
1503704034010,-0.084,+0.016,-0.536,-0.840,+0.934,-0.160,-0.347,-12.500,-28.812,-35.312,2, 21, 7, -3, -5, -1, -1, -2,0.12515030087181941,1.1287622992795086
1503704034035,-0.079,+0.012,-0.532,-0.843,+0.943,-0.138,-0.327,-11.375,-31.938,-36.188,-2, 0, 2, 5, 3, 1, 0, -8,0.1213840367472886,1.1196169534207023
1503704034047,-0.076,+0.008,-0.528,-0.846,+0.914,-0.146,-0.325,-11.875,-31.875,-35.812,-3, -8, -3, -1, 1, -1, -2, -5,0.12097030560677995,1.110540386545547
1503704034070,-0.072,+0.004,-0.524,-0.849,+0.922,-0.127,-0.381,-10.812,-25.375,-34.500,-1, -3, 1, -2, -1, -1, 5, 25,0.11874350855972902,1.101561040972318
1503704034092,-0.069,+0.001,-0.522,-0.850,+0.978,-0.116,-0.396,-10.562,-16.938,-28.625,-2, 11, 14, 4, 1, 0, -2, -16,0.1168392754907461,1.096923710694774
1503704034108,-0.066,-0.001,-0.522,-0.851,+1.047,-0.111,-0.388,-7.312,-11.062,-22.125,-4, -10, -7, 3, 1, -4, -7, -13,0.11387781446951985,1.0975243517464748
1503704034130,-0.064,-0.002,-0.520,-0.852,+1.064,-0.103,-0.426,-2.250,-12.000,-17.000,1, 5, -2, 1, 1, -1, 0, 3,0.11158935400155728,1.0927904067054903
1503704034152,-0.062,-0.003,-0.519,-0.852,+1.030,-0.101,-0.423,+2.062,-12.062,-12.562,3, 7, -3, -5, 0, 1, 3, -2,0.10917084174449344,1.0902179594282542
1503704034168,-0.061,-0.002,-0.519,-0.853,+1.009,-0.102,-0.430,+5.125,-7.938,-6.688,-2, 1, 1, 0, 0, 0, -3, -2,0.10653382152693587,1.090630363989506
1503704034190,-0.059,+0.000,-0.518,-0.853,+0.985,-0.106,-0.461,+9.938,-2.625,-3.438,-3, -12, -8, -3, -4, 2, 6, 9,0.10101467443125348,1.0878770243729605
1503704034212,-0.059,+0.002,-0.519,-0.853,+0.980,-0.108,-0.460,+11.812,+4.500,-0.062,-2, -5, -7, -4, -3, -3, -1, 3,0.0989457402434465,1.0904082291205848
1503704034227,-0.058,+0.006,-0.521,-0.852,+1.014,-0.086,-0.473,+16.875,+11.750,+8.062,7, 21, 7, 2, 1, 0, -3, -4,0.09294528009853677,1.0950465237390237
1503704034250,-0.058,+0.010,-0.523,-0.850,+1.029,-0.099,-0.458,+20.500,+14.125,+13.875,-1, 3, 1, 5, 1, -2, -8, -2,0.08852293573937756,1.0992767513455486
1503704034272,-0.058,+0.015,-0.526,-0.849,+1.025,-0.085,-0.458,+22.688,+14.625,+15.938,-2, -8, -4, -1, -1, -3, -2, -3,0.08311005630556796,1.106705472513757
1503704034287,-0.058,+0.019,-0.528,-0.847,+0.978,-0.071,-0.439,+24.750,+15.125,+16.125,-3, 8, 1, -1, 0, -1, 1, -7,0.07861253150393957,1.1111052754087454
1503704034311,-0.058,+0.024,-0.531,-0.845,+0.946,-0.081,-0.424,+26.375,+18.812,+15.000,1, -6, -4, 2, 1, 1, 0, -1,0.07297825866042174,1.1182779633627251
1503704034332,-0.057,+0.030,-0.534,-0.843,+0.936,-0.089,-0.443,+29.125,+25.125,+15.938,3, 3, -2, -1, -2, -2, -2, 0,0.06450840494960156,1.125658587220791
1503704034347,-0.057,+0.035,-0.538,-0.840,+0.936,-0.108,-0.435,+28.812,+29.250,+15.750,-7, -19, -3, 0, 1, 2, 5, 0,0.0585575497281181,1.1353269188029544
1503704045138,-0.028,-0.054,-0.507,-0.860,+0.792,+0.126,-0.485,-15.375,-9.250,+36.312,2, 1, -4, -1, -1, 5, -6, -12,0.10331409513403304,1.069019920249438
1503704045155,-0.036,-0.051,-0.506,-0.860,+0.905,+0.041,-0.458,-12.062,-5.688,+46.125,-12, 1, -1, -5, -6, -40, -5, 9,0.11392832941690559,1.0661712700107517
1503704045176,-0.044,-0.050,-0.507,-0.860,+0.922,-0.017,-0.391,-20.125,-4.625,+44.938,-3, 0, 1, 11, 49, 14, 15, -14,0.1268268705004372,1.0689522950678898
1503704045198,-0.050,-0.049,-0.507,-0.859,+0.859,+0.006,-0.363,-18.188,+0.812,+30.312,-30, -17, -15, -10, -14, 15, 5, -26,0.1360818997168257,1.0685311798798187
1503704045215,-0.053,-0.050,-0.507,-0.859,+0.861,-0.037,-0.381,-16.750,-3.938,+9.125,-4, 18, -17, -5, -12, -1, -6, 8,0.14230682175536966,1.0688974345997961
1503704045236,-0.053,-0.053,-0.506,-0.859,+0.796,+0.077,-0.411,-15.500,-2.062,-10.562,-59, -29, -33, -8, -8, -6, -11, 1,0.14530291046651533,1.0669877562486902
1503704045260,-0.050,-0.057,-0.507,-0.859,+0.796,+0.107,-0.480,-8.312,+13.062,-17.312,14, -7, 3, 3, -4, 1, -2, 4,0.14435825283788695,1.0704042723155354
1503704045274,-0.047,-0.060,-0.510,-0.857,+0.904,+0.126,-0.491,-4.250,+25.250,-21.875,18, 14, 17, -2, -8, -3, 1, 4,0.1424528279047183,1.077849169956538
1503704045296,-0.040,-0.062,-0.512,-0.856,+0.944,+0.097,-0.460,+11.312,+15.625,-37.812,13, -1, 0, 0, -2, 5, -1, 1,0.13263735660985554,1.0827057080413391
1503704045318,-0.031,-0.063,-0.510,-0.857,+0.875,+0.070,-0.479,+18.625,-2.188,-47.312,21, 4, 9, 1, -2, -1, 1, 7,0.11801211622207332,1.0776781879481263
1503704045341,-0.022,-0.064,-0.509,-0.858,+0.804,+0.106,-0.431,+19.438,-3.250,-49.250,2, -4, 3, 1, 0, 0, 14, -1,0.10348432072090451,1.0752517664078154
1503704045356,-0.015,-0.064,-0.510,-0.858,+0.896,+0.123,-0.453,+22.125,+7.938,-35.625,3, 1, 5, 1, 2, 2, 4, -1,0.09155676197561424,1.077443669345179
1503704045380,-0.010,-0.063,-0.512,-0.857,+1.078,+0.154,-0.436,+18.562,+14.000,-17.750,-5, 5, 4, 2, -4, -10, -8, 3,0.08213672588300787,1.081667025242545
1503704045401,-0.009,-0.059,-0.513,-0.857,+1.079,+0.036,-0.446,+21.062,-2.062,+4.188,12, 18, 15, 2, -2, 1, -4, 1,0.07635628200710447,1.0833333928325413
1503704045417,-0.012,-0.055,-0.513,-0.857,+0.971,-0.022,-0.334,+7.625,-9.562,+16.438,-12, -26, -18, -2, 1, 5, -1, 8,0.07733458631060249,1.0826464400921756
1503704045438,-0.013,-0.054,-0.513,-0.857,+0.864,+0.031,-0.333,-0.500,-4.812,+9.938,2, -16, -9, -3, 1, 1, -3, -1,0.07800966941869601,1.0824928724344607
1503704045461,-0.018,-0.054,-0.511,-0.858,+0.859,+0.004,-0.345,-16.250,-15.062,+15.438,-6, -16, -30, -4, -4, -1, -6, -4,0.08642161347583979,1.0779889768738022
1503704045476,-0.023,-0.056,-0.510,-0.858,+0.858,+0.053,-0.366,-30.500,-10.688,+16.188,17, 22, 30, 1, -3, -3, -2, 20,0.09699588321557423,1.076059590299543
1503704045498,-0.028,-0.060,-0.508,-0.859,+0.883,+0.083,-0.406,-32.938,-14.125,+17.250,-4, -11, -6, 0, 4, 4, -6, -14,0.10958791510687413,1.0725084039230253
1503704045521,-0.034,-0.063,-0.507,-0.859,+0.935,+0.063,-0.392,-37.250,-15.625,+17.875,-4, 5, 1, -5, -18, -17, -14, -18,0.1229373856428082,1.0709899451898761
1503704045543,-0.036,-0.068,-0.506,-0.859,+0.938,+0.153,-0.396,-30.938,-3.812,-0.375,1, 9, 5, -2, 8, 68, -29, -2,0.13146692021769799,1.0698276114640246
1503704045558,-0.035,-0.073,-0.506,-0.859,+0.869,+0.183,-0.413,-18.188,-2.938,-12.312,-12, -1, 2, -4, -21, -21, 10, 3,0.13496046239236406,1.0711722505683847
1503704045581,-0.031,-0.077,-0.503,-0.860,+0.824,+0.126,-0.428,-7.750,-13.438,-34.688,4, -4, -6, 2, -2, -13, 6, -8,0.1318401344259746,1.0647284834832016
1503704045596,-0.024,-0.083,-0.501,-0.861,+0.876,+0.159,-0.423,-12.312,-7.438,-48.438,11, -2, 2, -1, -1, -12, -4, 9,0.12571438491400905,1.0613057993726147
1503704045618,-0.021,-0.087,-0.500,-0.861,+0.865,+0.163,-0.499,-8.938,+1.438,-29.938,21, -1, -2, -2, -6, -7, -8, 24,0.1245195973808964,1.0597308412066235
1503704045641,-0.021,-0.089,-0.501,-0.861,+0.970,+0.147,-0.448,-16.188,-0.312,-4.062,-11, 3, 8, 4, 12, 9, -7, -9,0.12678806028467982,1.0630019604648269
1503704045656,-0.024,-0.092,-0.498,-0.862,+1.020,+0.149,-0.420,-20.375,-21.625,+8.812,0, 2, -12, -2, 6, 10, -3, 1,0.13463758354446537,1.0569604430286355
1503704045678,-0.028,-0.094,-0.492,-0.865,+0.895,+0.152,-0.433,-21.375,-42.875,+9.062,2, 18, 14, 3, -2, -3, -5, -10,0.14272374416283154,1.0439255549599622
1503704045701,-0.032,-0.097,-0.486,-0.868,+0.819,+0.137,-0.429,-28.312,-42.750,+10.125,18, -11, -7, -1, -6, -5, -2, 11,0.15185107330519812,1.0313744213691867
1503704045716,-0.038,-0.099,-0.483,-0.869,+0.872,+0.167,-0.451,-27.875,-25.750,+21.438,-1, -1, -8, -7, -4, -3, -2, -2,0.1639138475253124,1.0255007755966672
1503704045738,-0.044,-0.100,-0.480,-0.871,+0.951,+0.155,-0.475,-24.375,-26.000,+26.125,-14, 11, 28, 0, -6, -1, -3, -8,0.17505976055338718,1.019807214608575
1503704045761,-0.050,-0.102,-0.476,-0.872,+0.950,+0.117,-0.458,-24.812,-34.188,+24.000,15, -20, -6, -2, -1, 0, 0, -1,0.18697669862110855,1.011491352007717
1503704045776,-0.054,-0.103,-0.472,-0.874,+0.875,+0.112,-0.438,-19.438,-30.938,+11.062,-7, -2, 0, 2, -4, -1, 3, 8,0.19446263647885895,1.003131799960058
1503704045798,-0.055,-0.105,-0.468,-0.876,+0.825,+0.129,-0.518,-11.250,-20.250,-5.688,-8, 2, -6, -3, -3, 1, 11, -2,0.19765277472151688,0.994898008539917
1503704045821,-0.053,-0.106,-0.466,-0.877,+0.821,+0.139,-0.551,-4.312,-10.250,-14.438,6, 0, 2, -2, -1, 1, 1, -1,0.19479425722356672,0.9905063952363696
1503704045836,-0.050,-0.107,-0.465,-0.878,+0.872,+0.110,-0.500,-1.562,-4.438,-18.375,10, 2, 0, -1, -4, -1, -3, -7,0.19035263593974178,0.9885410310278652
1503704045858,-0.047,-0.109,-0.464,-0.878,+0.869,+0.102,-0.458,-2.188,-4.750,-24.812,12, 2, -20, -6, 1, 0, -3, 8,0.18680656691888242,0.9864730657256879
1503704045874,-0.043,-0.110,-0.463,-0.878,+0.857,+0.104,-0.468,+1.188,-5.125,-29.625,40, 8, 4, 1, -3, 0, 3, 22,0.18047298631416486,0.9838578549125951
1503704045895,-0.038,-0.112,-0.462,-0.879,+0.832,+0.125,-0.474,+2.062,-7.062,-33.938,-4, -2, -1, 0, -1, 22, 4, -3,0.17343312432080946,0.98204727268038
1503704045918,-0.033,-0.114,-0.461,-0.879,+0.857,+0.158,-0.476,+1.312,-1.438,-33.500,-1, -2, 3, 2, -4, -4, -2, -4,0.16630014212937688,0.9797040477402048
1503704053081,+0.024,+0.004,-0.490,-0.871,+0.910,-0.031,-0.518,-17.250,-14.250,+52.500,24, 11, -1, -3, -2, 3, 3, -1,-0.04575025963851938,1.0239385242527477
1503704053103,+0.017,+0.005,-0.489,-0.872,+0.897,+0.026,-0.488,-18.438,-3.688,+41.875,-9, 1, 6, 2, 3, 2, 1, 3,-0.03454595428533095,1.02187247910787
1503704053125,+0.010,+0.006,-0.487,-0.873,+0.866,+0.001,-0.490,-15.188,-14.750,+33.938,12, 0, -1, -1, -2, 1, -1, -3,-0.023306119726683287,1.0172217132982384
1503704053142,+0.005,+0.007,-0.486,-0.874,+0.789,-0.102,-0.420,-14.125,-6.312,+27.625,9, -6, 0, 3, 14, -4, -1, 6,-0.01554504858540753,1.0151553462505425
1503704053163,+0.003,+0.007,-0.487,-0.873,+0.821,-0.098,-0.423,-10.000,+2.125,+2.812,4, -2, 6, 12, 35, 34, 17, 6,-0.01205681440420203,1.0172028165801552
1503704053193,+0.003,+0.004,-0.488,-0.873,+0.744,-0.047,-0.456,-16.188,+7.625,-12.250,14, 3, 5, -2, -18, -14, -7, -19,-0.009142202412992989,1.0197135821731358
1503704053202,+0.005,+0.001,-0.488,-0.873,+0.720,-0.000,-0.513,-12.875,+13.375,-15.938,4, -1, 2, -2, -3, 0, -3, 1,-0.009706199918702904,1.019680697412053
1503704053224,+0.007,-0.003,-0.489,-0.872,+0.765,+0.025,-0.549,-12.500,+15.125,-22.750,-13, 0, 0, 0, 2, -28, -3, 4,-0.00927480995344545,1.0217345263092967
1503704053246,+0.010,-0.006,-0.490,-0.872,+0.799,+0.042,-0.582,-10.500,+14.062,-23.188,-87, -36, -28, -12, -24, -5, -4, 2,-0.011562629861606718,1.0243200194103852
1503704053262,+0.013,-0.009,-0.490,-0.872,+0.860,+0.020,-0.548,-7.562,+6.500,-23.000,9, 25, 14, -6, -8, 0, -1, -46,-0.013858042272453405,1.0243376692995756
1503704053284,+0.015,-0.011,-0.488,-0.872,+0.928,-0.009,-0.506,-10.250,-12.812,-19.500,23, 14, -5, 4, -6, 1, -1, 12,-0.015433455309508763,1.0191955174154868
1503704053306,+0.016,-0.014,-0.486,-0.874,+0.839,+0.023,-0.481,-12.812,-12.375,-15.812,2, -1, 5, 3, 6, 4, -2, 4,-0.014372003570136384,1.0151318658695612
1503704053322,+0.017,-0.016,-0.484,-0.875,+0.776,-0.027,-0.489,-11.438,-15.750,-16.875,7, -7, 1, -2, 3, 4, -1, 5,-0.014276592507187156,1.010549746842878
1503704053344,+0.019,-0.019,-0.481,-0.876,+0.779,-0.036,-0.457,-15.625,-13.812,-22.375,27, 3, 10, 3, -10, -11, 1, 6,-0.015030573787722323,1.0034382771922385
1503704053365,+0.020,-0.023,-0.480,-0.877,+0.807,-0.020,-0.416,-19.938,-8.688,-21.188,6, 0, -1, -4, -10, -1, -2, 9,-0.013023462606038785,1.0015658074508638
1503704053382,+0.020,-0.027,-0.479,-0.877,+0.864,-0.028,-0.474,-23.125,-11.188,-16.750,7, -4, -2, 3, -8, -7, -5, 3,-0.009234589786163622,0.9992501038938971
1503704053404,+0.020,-0.032,-0.477,-0.878,+0.816,+0.053,-0.461,-26.875,-11.250,-18.812,-4, 2, -3, -5, 1, 3, -1, 3,-0.004605082815288955,0.9950280621070443
1503704053425,+0.022,-0.037,-0.476,-0.878,+0.840,+0.111,-0.444,-22.250,-10.625,-19.812,-42, -16, -8, -4, -10, -15, -3, -16,-0.00342066368734703,0.9928538031822587
1503704053444,+0.024,-0.041,-0.477,-0.878,+0.924,+0.097,-0.441,-15.812,-0.125,-20.500,-9, -5, -7, -3, 8, 25, -1, 1,-0.003043730040461377,0.9957586812161601
1503704053464,+0.027,-0.043,-0.477,-0.877,+0.979,+0.122,-0.468,-4.250,-2.750,-22.375,-4, 1, 2, -1, -4, -12, -1, 10,-0.006368751618286207,0.9953268977119039
1503704053485,+0.030,-0.044,-0.476,-0.878,+1.021,+0.118,-0.511,+1.250,-14.500,-19.500,-2, 1, -2, 1, 75, 59, 5, -4,-0.010853135247946039,0.9932529580753215
1503704053503,+0.032,-0.044,-0.472,-0.880,+0.941,+0.122,-0.541,+7.812,-24.625,-10.125,-6, 5, -11, -3, -31, -27, -7, -7,-0.014870946182574625,0.9839452411358752
1503704053524,+0.034,-0.044,-0.469,-0.882,+0.903,+0.111,-0.463,+5.188,-27.875,-11.688,-36, -4, 23, 7, -8, -7, -9, 8,-0.01881816363114509,0.9772239450886699
1503704053546,+0.035,-0.044,-0.468,-0.882,+0.896,+0.095,-0.433,+4.188,-14.938,-6.000,19, 8, 1, -4, -6, 6, 2, 4,-0.020683831671458944,0.9746188310751027
1503704053562,+0.035,-0.043,-0.469,-0.881,+0.927,+0.139,-0.448,+3.688,+2.125,+0.062,19, 11, 9, 0, -4, -5, 3, 5,-0.021464688069686596,0.9765407066665089
1503704053584,+0.035,-0.042,-0.471,-0.880,+0.972,+0.122,-0.474,+3.938,+6.000,+7.000,12, -5, 1, -2, -8, 2, 1, 0,-0.022164892978447166,0.9810273646240435
1503704053606,+0.032,-0.041,-0.472,-0.880,+0.963,+0.086,-0.446,-5.312,-2.938,+14.625,-10, -31, -23, -6, -8, -5, -1, -3,-0.017709969183023977,0.9836251910232915
1503704053622,+0.027,-0.041,-0.473,-0.880,+0.921,+0.098,-0.412,-14.125,-2.188,+23.125,-1, -7, -6, -1, -2, -2, -5, -3,-0.008776076457885607,0.9864134979288077
1503704053649,+0.022,-0.041,-0.475,-0.879,+0.911,+0.134,-0.456,-16.688,+6.812,+31.062,-14, -8, -4, -4, -1, -2, -2, -3,0.00027519157259261936,0.9912402238772199
1503704053665,+0.015,-0.042,-0.477,-0.878,+0.943,+0.146,-0.502,-20.250,+7.125,+38.000,2, 1, 0, 0, -3, -21, 0, -4,0.013781955431756799,0.9962849884736922
1503704053681,+0.008,-0.042,-0.478,-0.878,+0.915,+0.159,-0.517,-16.062,+2.688,+38.250,6, 6, 4, 3, 12, -19, -9, -2,0.026193794124201107,0.999170124961831
1503704053704,+0.003,-0.042,-0.478,-0.877,+0.894,+0.140,-0.501,-15.312,+1.875,+29.875,-9, -2, -3, -2, -1, -45, -5, -3,0.034999861708599554,0.9988792129190087
1503704053725,+0.000,-0.042,-0.479,-0.877,+0.818,+0.125,-0.497,-10.250,+7.312,+16.438,2, 4, -1, -2, 9, 25, -2, -3,0.04035653202345497,1.001581292832487
1503704053741,+0.001,-0.043,-0.481,-0.876,+0.811,+0.106,-0.475,-2.000,+11.188,-3.000,-1, -1, 0, 3, 0, 10, 4, 1,0.039740182585764006,1.0062973516851044
1503704053763,+0.005,-0.045,-0.484,-0.874,+0.805,+0.125,-0.510,+3.125,+25.875,-21.812,11, 27, 8, -4, -19, 5, 3, -18,0.03494911335719752,1.013091090950205
1503704053785,+0.009,-0.045,-0.487,-0.872,+0.815,+0.114,-0.510,+7.625,+24.250,-22.125,-12, -5, -5, -1, -5, -2, -3, -17,0.02824548775699193,1.0196141260602003
1503704053802,+0.012,-0.045,-0.489,-0.871,+0.876,+0.056,-0.493,+6.188,+14.312,-16.312,53, 70, 49, 18, 5, 17, 6, 8,0.023202505901707752,1.0241315939437448
1503704053824,+0.014,-0.044,-0.490,-0.871,+0.929,+0.054,-0.462,+4.750,+5.688,-7.938,-22, 11, 6, 3, 4, 9, -3, 11,0.01880999654624366,1.0264873708551727
1503704053848,+0.014,-0.044,-0.488,-0.871,+0.913,+0.052,-0.479,+3.062,-10.250,-2.625,8, -23, -10, 0, -3, 3, 5, 4,0.01863330481398457,1.0213127311542656
1503704053862,+0.013,-0.043,-0.486,-0.873,+0.868,+0.036,-0.442,-2.938,-16.000,-0.750,16, -21, -11, -4, -2, 3, -2, 9,0.019173042163916066,1.0170815067301133
1503704057887,+0.102,+0.108,-0.612,-0.777,+0.887,-0.062,-0.218,-24.688,-4.188,+4.875,-7, -5, -4, -1, -1, -4, -3, 0,-0.2952348401871289,1.3410459674799522
1503704057904,+0.099,+0.105,-0.610,-0.779,+0.854,-0.075,-0.236,-26.062,-10.562,-1.375,-1, -6, -5, 0, -4, -2, -6, 1,-0.28650750644892836,1.3345999108083897
1503704057926,+0.099,+0.100,-0.608,-0.781,+0.866,-0.076,-0.253,-24.688,-11.188,-13.750,-4, -18, -5, -4, 2, 4, 3, -2,-0.2800686656161363,1.327470628567144
1503704057947,+0.101,+0.095,-0.607,-0.783,+0.854,-0.023,-0.261,-19.562,-9.188,-26.750,1, 3, -1, -2, -1, -1, 6, 16,-0.2771146906376896,1.323282303465686
1503704057964,+0.104,+0.090,-0.608,-0.782,+0.832,-0.020,-0.215,-9.500,+5.125,-34.625,-9, 1, 0, -1, -2, -3, 0, -31,-0.2755983321633469,1.3238152409260213
1503704057986,+0.111,+0.086,-0.610,-0.780,+0.840,+0.013,-0.200,-0.750,+13.500,-47.188,1, 7, 10, 1, -1, 0, 2, 29,-0.2817924434112779,1.3274326869402888
1503704058008,+0.119,+0.081,-0.614,-0.776,+0.899,+0.089,-0.198,+6.188,+25.438,-56.500,-1, -3, -7, -2, -3, -2, -3, -12,-0.2881891390737007,1.3356826665283636
1503704058030,+0.127,+0.077,-0.616,-0.774,+1.032,+0.069,-0.203,+15.312,+15.125,-51.312,-3, -3, -2, 1, -9, -6, 0, -10,-0.2959566212930751,1.3394533122759216
1503704058046,+0.134,+0.076,-0.616,-0.773,+1.088,+0.050,-0.176,+16.312,-1.688,-35.875,2, -2, 2, -3, -2, -4, -1, -2,-0.3058742489768314,1.3390584769509848
1503704058068,+0.139,+0.075,-0.615,-0.773,+1.071,+0.035,-0.127,+10.562,-16.750,-26.375,0, -2, 0, -2, -1, 4, -2, -9,-0.3126688434747926,1.3361211209746178
1503704058084,+0.142,+0.073,-0.613,-0.774,+1.003,+0.063,-0.126,+3.188,-19.938,-18.688,-3, -3, -13, -5, 2, 0, 1, -9,-0.3150746005590802,1.3302972456397801
1503704058106,+0.142,+0.072,-0.611,-0.776,+0.981,+0.065,-0.149,-3.938,-18.438,-6.000,14, 8, 6, 2, 2, -1, 4, 28,-0.3140834507799309,1.3250308492879288
1503704058136,+0.140,+0.070,-0.609,-0.777,+1.012,+0.039,-0.141,-14.625,-18.062,+5.500,0, 2, -5, -1, -2, 1, -6, 1,-0.3082715145013533,1.3190659615912563
1503704058144,+0.136,+0.068,-0.608,-0.779,+1.012,+0.024,-0.121,-27.938,-17.250,+10.875,-3, -8, 0, -2, -3, 0, -2, -1,-0.29956306937398663,1.3161117224005368
1503704058169,+0.131,+0.064,-0.607,-0.781,+0.983,+0.057,-0.141,-33.625,-18.688,+7.625,3, -3, -7, -2, 1, 0, 0, 4,-0.2867284782016618,1.3125148245386702
1503704058187,+0.128,+0.059,-0.605,-0.783,+0.970,+0.088,-0.166,-34.312,-24.062,-1.188,-3, 5, 0, -2, -1, 0, 0, -11,-0.2758670935121053,1.3060159359262622
1503704058204,+0.127,+0.053,-0.602,-0.786,+0.962,+0.086,-0.196,-33.250,-28.438,-8.000,5, 10, -1, 0, -2, 1, 1, -2,-0.26727581126629946,1.2969875363437375
1503704058226,+0.126,+0.047,-0.601,-0.788,+0.960,+0.103,-0.203,-30.750,-20.250,-12.562,-7, -5, -4, -2, -1, 1, -3, -11,-0.2587112898152391,1.293292865706808
1503704058248,+0.125,+0.042,-0.599,-0.790,+0.954,+0.145,-0.256,-27.250,-17.125,-10.375,1, -2, 2, 0, 1, 0, 1, 3,-0.2513168299250112,1.2872253479331282
1503704058264,+0.124,+0.037,-0.597,-0.792,+0.944,+0.169,-0.270,-23.688,-16.875,-6.688,-2, -7, -6, -1, 0, -2, 0, 2,-0.24397199961519644,1.2812653926806532
1503704058286,+0.123,+0.033,-0.595,-0.794,+0.944,+0.141,-0.281,-17.188,-13.500,-2.875,-3, 0, 1, 0, 0, 0, -2, -5,-0.23786816990741141,1.275609802333709
1503704058308,+0.122,+0.032,-0.594,-0.795,+0.948,+0.110,-0.295,-11.562,-7.875,+1.500,4, 5, 11, 1, -2, -6, -1, -3,-0.23518540139262367,1.272993555379632
1503704058324,+0.121,+0.031,-0.593,-0.795,+0.968,+0.112,-0.297,-9.875,-1.438,+4.250,-3, -15, -2, -1, -1, -1, -6, -46,-0.23226792515586347,1.2700325771768584
1503704058346,+0.120,+0.031,-0.592,-0.796,+0.934,+0.130,-0.350,-1.375,-0.250,+10.062,-1, -3, -4, 0, 3, 1, 0, 2,-0.23077644018687915,1.2676189663755988
1503704058370,+0.119,+0.035,-0.591,-0.797,+0.912,+0.096,-0.322,+8.188,+1.375,+19.375,-1, 4, 4, -1, -4, -3, -5, 9,-0.23402380668874415,1.2660021235976988
1503704058384,+0.117,+0.038,-0.591,-0.797,+0.941,+0.030,-0.251,+7.375,+3.500,+18.375,3, 9, 10, 2, 0, 2, 3, 10,-0.23425541315900902,1.266590526067165
1503704058406,+0.115,+0.041,-0.592,-0.797,+1.003,+0.009,-0.192,+6.250,+2.062,+10.875,-7, -18, -11, -5, 0, -3, -7, 2,-0.23457881982503154,1.2699457939048087
1503704058427,+0.115,+0.043,-0.592,-0.797,+1.042,+0.012,-0.200,+7.375,-1.938,+0.938,3, -5, -2, -3, -11, -5, 4, 12,-0.23696547418076397,1.2704038221498353
1503704058444,+0.118,+0.044,-0.590,-0.797,+1.001,+0.021,-0.263,+13.062,-10.125,-12.062,-2, -4, -3, 0, 7, 1, -1, 0,-0.24297727124138263,1.2652412310867331
1503704058466,+0.124,+0.043,-0.588,-0.798,+0.966,+0.037,-0.233,+17.000,-19.250,-29.938,0, 0, -3, 3, -1, 0, -2, 3,-0.2518723172791169,1.2600441709640553
1503704058487,+0.131,+0.042,-0.587,-0.798,+0.931,+0.064,-0.136,+14.875,-15.562,-39.812,-10, 19, 20, 1, 2, 2, 0, -2,-0.2623585244184834,1.257250857737029
1503704058504,+0.137,+0.040,-0.587,-0.797,+0.984,+0.089,-0.135,+9.812,-5.750,-35.438,-9, -6, -8, -4, 0, 3, 4, -10,-0.26985904576823777,1.2565599848719053
1503704058526,+0.139,+0.038,-0.588,-0.796,+1.101,+0.111,-0.164,+0.938,-6.812,-20.125,-4, -4, -9, 1, 0, -2, -2, 12,-0.27068950923420887,1.2585152128072703
1503704058548,+0.139,+0.037,-0.585,-0.798,+1.125,+0.138,-0.237,-5.062,-24.312,-1.188,0, -4, -8, -2, -2, -2, 3, -1,-0.26983344520790553,1.2507979528829447
1503704058564,+0.138,+0.035,-0.581,-0.801,+1.012,+0.130,-0.259,-10.375,-32.562,+6.000,5, 3, 8, 1, 1, 2, 2, 6,-0.2663243638927768,1.2405012555730444
1503704058586,+0.136,+0.033,-0.578,-0.804,+0.925,+0.136,-0.254,-13.250,-23.438,+4.688,-2, -7, -4, 0, -3, -3, -4, -12,-0.26119954990269306,1.2329694635943063
1503704058608,+0.134,+0.031,-0.577,-0.805,+0.953,+0.119,-0.264,-14.812,-11.438,+5.750,-1, -8, -10, -5, -3, -3, -12, -6,-0.25568266762240704,1.2301609375450282
1503704058624,+0.131,+0.030,-0.577,-0.806,+1.010,+0.105,-0.287,-18.062,-5.688,+12.812,10, 15, -5, -2, 0, -1, 2, 6,-0.24968201058871797,1.2302824047715057
1503704058646,+0.127,+0.029,-0.576,-0.807,+1.050,+0.100,-0.293,-17.500,-9.562,+13.188,-8, 11, 9, 1, -1, -2, 0, -16,-0.24192794361900924,1.2276659793033242
1503704058668,+0.125,+0.028,-0.574,-0.809,+1.006,+0.108,-0.312,-11.812,-17.812,+6.938,10, -22, -10, -2, 1, 3, -3, 2,-0.23776330705849058,1.2227675787422718
1503704058684,+0.126,+0.027,-0.571,-0.811,+0.946,+0.122,-0.319,-3.312,-18.125,-1.688,-10, -24, -4, -3, -1, -1, 0, 6,-0.23864922951429812,1.215226592822141
1503704058706,+0.127,+0.026,-0.569,-0.812,+0.903,+0.100,-0.324,+2.062,-17.625,-9.875,5, 11, 9, 1, 0, 0, 6, 22,-0.23935965987670593,1.2100220487530728
1503704058728,+0.129,+0.026,-0.568,-0.813,+0.906,+0.071,-0.306,+2.438,-7.500,-12.812,-1, -20, 1, -1, 1, -1, 0, -19,-0.2429775703896006,1.207747835684211
1503704058745,+0.131,+0.025,-0.568,-0.812,+0.908,+0.061,-0.278,-0.812,+2.375,-15.125,6, 1, -7, 0, -2, -2, 2, 1,-0.2450147707627352,1.2071895838482807
1503704058767,+0.134,+0.023,-0.569,-0.811,+0.915,+0.112,-0.299,+0.375,+10.375,-19.500,0, 1, 2, 0, -1, 0, -13, -12,-0.2476785995789056,1.2091843493747096
1503704065447,-0.002,+0.023,-0.617,-0.787,+0.916,-0.013,-0.184,+5.000,-6.250,-30.625,-6, -28, -5, -1, 4, 0, -3, 1,-0.025255557084234232,1.330866351577686
1503704065470,+0.001,+0.022,-0.617,-0.787,+1.011,+0.016,-0.206,+6.188,-2.562,-13.938,14, 19, 16, 5, -1, -2, -1, 17,-0.028741970185926186,1.3308112400527805
1503704065492,+0.003,+0.022,-0.616,-0.787,+1.033,+0.010,-0.208,+3.000,-3.188,-3.812,-3, -19, -12, -4, -7, -2, 6, 24,-0.031846640660002215,1.328059960438494
1503704065507,+0.004,+0.021,-0.615,-0.788,+0.995,+0.003,-0.154,+3.312,-9.625,-8.062,0, 10, -4, -3, 2, -1, -8, 10,-0.03215231338271006,1.3255108898990475
1503704065530,+0.007,+0.019,-0.614,-0.789,+0.928,+0.040,-0.208,+0.625,-7.625,-16.875,1, 3, -5, 0, 1, -2, -1, -14,-0.034392646181317835,1.3229098022751544
1503704065553,+0.009,+0.017,-0.614,-0.789,+0.914,+0.070,-0.197,-3.438,+0.562,-13.000,-14, -13, -8, -3, -1, 1, -6, -3,-0.03508956817770916,1.32277999090694
1503704065567,+0.010,+0.015,-0.615,-0.789,+1.029,+0.046,-0.163,-5.812,-1.562,-1.938,7, -6, -3, 4, 3, -1, -5, -32,-0.034238878273423395,1.3254226251783858
1503704065591,+0.008,+0.015,-0.614,-0.789,+1.045,+0.013,-0.191,-7.375,-8.000,+6.312,-4, -1, 1, 3, 2, 41, 28, -12,-0.031051969598584226,1.3226396717730933
1503704065612,+0.006,+0.015,-0.613,-0.790,+0.987,-0.031,-0.205,-8.688,-8.188,+12.688,22, 4, 3, -10, -28, 27, -17, 2,-0.027877331910235895,1.320159559827931
1503704065627,+0.003,+0.016,-0.611,-0.791,+0.954,-0.033,-0.212,-7.625,-8.438,+11.500,-23, 0, 1, -5, -2, 6, -17, -13,-0.024306097067360134,1.3149710194835422
1503704065650,+0.002,+0.015,-0.610,-0.792,+0.967,-0.024,-0.208,-8.875,-5.500,+3.938,16, 6, 4, 4, 7, -18, 6, 21,-0.02147453520574517,1.312446459289749
1503704065672,-0.000,+0.013,-0.609,-0.793,+0.951,-0.022,-0.195,-18.125,-10.562,+1.938,-21, -3, 0, -1, 1, -12, 0, -5,-0.015838029281497065,1.3098715063535533
1503704065688,-0.003,+0.011,-0.607,-0.795,+0.982,-0.014,-0.186,-23.938,-17.688,+3.875,0, -8, -5, -1, 4, -15, -1, -17,-0.008586021427716582,1.3048715230779484
1503704065710,-0.007,+0.007,-0.605,-0.797,+0.987,-0.023,-0.182,-32.062,-20.562,+7.562,8, -7, -6, -1, 1, -6, 4, -7,0.0026885204735941706,1.2998507601428124
1503704065733,-0.012,+0.003,-0.601,-0.799,+0.959,-0.009,-0.216,-37.250,-27.625,+8.750,-1, -9, 2, -4, -3, -5, -2, -25,0.015573506720664276,1.289417573626679
1503704065748,-0.016,-0.001,-0.596,-0.803,+0.916,-0.011,-0.271,-35.375,-31.188,+2.000,10, 6, 0, -1, -15, 4, 0, -1,0.026895340663703627,1.277037409090368
1503704065770,-0.018,-0.007,-0.591,-0.807,+0.896,-0.021,-0.201,-40.688,-38.750,-10.500,26, -4, -7, -3, 0, -1, -3, 13,0.03733650709052655,1.2648821431571893
1503704065792,-0.021,-0.016,-0.585,-0.810,+0.932,-0.031,-0.158,-51.062,-46.062,-17.188,-28, -11, -3, 3, 9, 0, -11, -16,0.05276460023446984,1.250076734448113
1503704065808,-0.025,-0.024,-0.579,-0.815,+0.935,-0.026,-0.217,-55.750,-50.625,-16.500,7, -10, -7, 0, 1, 1, -1, 4,0.06859922538524332,1.2363608698832036
1503704065830,-0.029,-0.034,-0.570,-0.820,+0.890,+0.016,-0.275,-64.000,-58.625,-13.750,9, -12, -17, -8, -1, -3, -3, 8,0.08645013349434769,1.2152128687298924
1503704065852,-0.034,-0.044,-0.562,-0.826,+0.882,+0.030,-0.295,-63.688,-58.000,-15.812,-20, -9, 4, 3, 2, -1, 1, -3,0.10588375988849977,1.1978338655673515
1503704065868,-0.037,-0.053,-0.553,-0.831,+0.923,+0.002,-0.276,-61.125,-62.000,-20.938,-22, -9, -7, -10, -21, -39, -6, -8,0.12053693387107725,1.1776889731279918
1503704065890,-0.039,-0.063,-0.544,-0.836,+0.960,-0.003,-0.302,-55.062,-62.750,-28.875,10, 6, 8, 7, -16, 23, 3, 7,0.13442138157021377,1.1582903195472385
1503704065913,-0.040,-0.072,-0.535,-0.841,+0.974,-0.017,-0.354,-50.375,-60.000,-36.500,4, 8, 3, 6, 8, -1, -11, -7,0.14527437729964682,1.139118012729312
1503704065928,-0.040,-0.081,-0.527,-0.845,+0.933,+0.068,-0.408,-47.000,-48.062,-34.938,28, -3, -1, -10, 11, -4, -9, -13,0.15427651401203415,1.1225453192188888
1503704065950,-0.040,-0.089,-0.520,-0.849,+0.909,+0.154,-0.427,-43.062,-45.500,-24.562,-87, -19, -2, 3, -2, 2, -1, 2,0.16215872299534795,1.1086616344573965
1503704065973,-0.043,-0.095,-0.513,-0.852,+1.002,+0.127,-0.439,-38.875,-44.562,-12.438,8, 6, 1, 2, 3, 6, -6, 4,0.17279721323695202,1.0941320351889519
1503704065995,-0.045,-0.100,-0.506,-0.855,+0.995,+0.120,-0.470,-33.062,-45.375,-6.625,11, 0, 1, -4, 0, -1, -3, -4,0.1805522171940426,1.0793654581199983
1503704066017,-0.047,-0.104,-0.499,-0.859,+0.982,+0.138,-0.476,-27.562,-45.125,-7.438,-3, -1, -4, -6, -5, -1, 1, 6,0.187254024066502,1.064873283520903
1503704066032,-0.049,-0.106,-0.493,-0.862,+0.925,+0.152,-0.545,-13.812,-39.062,-3.188,-1, 11, 12, 0, -6, -3, 2, -13,0.1919002505821466,1.0518092018258987
1503704066059,-0.050,-0.107,-0.489,-0.865,+0.910,+0.091,-0.481,-12.500,-28.250,-2.312,9, -7, 9, 5, 11, -3, 3, 2,0.19415465376304297,1.0434748520006716
1503704066070,-0.051,-0.107,-0.487,-0.865,+0.939,+0.079,-0.436,-9.688,-14.938,-1.875,8, -16, -5, -5, -5, 0, -2, -3,0.19548342848453734,1.0384197156490493
1503704066093,-0.052,-0.107,-0.486,-0.866,+0.953,+0.113,-0.452,-2.812,-10.188,+1.188,11, 31, 20, 6, 4, 3, 9, 24,0.1971275757263398,1.0364492305258486
1503704066115,-0.051,-0.107,-0.485,-0.867,+0.924,+0.126,-0.513,+3.062,-8.188,-5.625,-8, -10, -13, -1, 4, 1, 1, -10,0.19526163811597103,1.0342615882321293
1503704066130,-0.049,-0.106,-0.483,-0.868,+0.887,+0.112,-0.490,+6.750,-7.750,-10.938,3, 9, 5, -2, -2, -1, 7, -3,0.19038213915205632,1.028970963394562
1503704066152,-0.047,-0.105,-0.483,-0.868,+0.887,+0.085,-0.437,+6.062,-3.312,-11.125,21, 10, 7, -2, -4, 1, 1, -10,0.18582892496613718,1.0283362836827645
1503704066167,-0.046,-0.105,-0.484,-0.868,+0.916,+0.092,-0.413,+2.875,+1.250,-8.438,1, -4, -3, -4, -11, -2, 3, -2,0.18428009964318787,1.0308029451118046
1503704066192,-0.045,-0.105,-0.485,-0.867,+0.937,+0.122,-0.431,+0.938,+1.188,-5.312,-3, -1, 4, 1, 3, -3, -5, -14,0.1826423436603486,1.0327700198704404
1503704066212,-0.044,-0.104,-0.484,-0.868,+0.933,+0.160,-0.517,+6.438,-0.875,-4.188,-29, -4, 4, -1, -1, -3, -9, -21,0.17972923993396492,1.0301773960118716
1503704066227,-0.042,-0.103,-0.484,-0.868,+0.868,+0.153,-0.517,+9.500,+0.188,-5.500,10, -2, 2, -2, -2, -2, 3, 0,0.17518164011950324,1.0295591912694138
1503704066250,-0.040,-0.102,-0.486,-0.867,+0.846,+0.145,-0.454,+11.062,+11.125,-5.125,-43, -6, -1, 1, 2, 1, 4, 26,0.17096357674376209,1.0336066995143345
1503704066272,-0.038,-0.100,-0.489,-0.866,+0.892,+0.136,-0.444,+10.250,+22.938,-2.188,-12, 0, 1, -1, 4, 19, 0, -2,0.1659093445310801,1.0398701147250413
1503704066295,-0.038,-0.099,-0.494,-0.863,+0.941,+0.158,-0.468,+9.312,+27.562,+3.938,-37, 0, 3, 1, 3, -1, 8, 0,0.1656280701249723,1.0509481271820085
1503704066310,-0.037,-0.097,-0.498,-0.861,+0.966,+0.174,-0.456,+9.688,+26.562,+8.438,19, 3, -2, -6, -12, -15, -13, -2,0.16241480471337114,1.059495848715781
1503704066333,-0.036,-0.094,-0.501,-0.860,+0.980,+0.182,-0.488,+16.250,+19.938,+9.000,17, 0, 4, -2, -12, -1, 4, -6,0.1580085504106641,1.0656068001191306
1503704066355,-0.036,-0.091,-0.503,-0.859,+0.938,+0.171,-0.494,+19.750,+15.312,+12.688,19, 4, 5, 0, -2, 11, 8, 12,0.15513289898851612,1.0692487269332822
1503704066370,-0.036,-0.086,-0.506,-0.857,+0.927,+0.136,-0.442,+20.188,+18.938,+15.500,5, -2, -3, -6, -8, -7, -9, -8,0.15022696015030848,1.0743707704298526
1503704066394,-0.037,-0.082,-0.511,-0.855,+0.928,+0.129,-0.425,+21.500,+25.750,+20.312,-67, -16, -5, 5, 13, -1, -10, -12,0.14839475694488458,1.0852365089495248
1503704066408,-0.037,-0.077,-0.515,-0.853,+0.948,+0.129,-0.422,+20.625,+26.812,+22.688,-1, 7, 13, 6, 8, 4, 7, -20,0.14354756033099544,1.0931818557745125
1503704066430,-0.038,-0.072,-0.519,-0.851,+0.973,+0.128,-0.441,+24.312,+25.375,+25.125,22, 10, 13, 5, 0, -5, 0, -15,0.14035589140793187,1.1013108550759383
1503704066452,-0.039,-0.066,-0.523,-0.849,+0.941,+0.124,-0.437,+26.938,+22.875,+27.500,60, -3, -11, -5, -3, -5, 2, 20,0.1360215915874085,1.1092745676002846
1503704066469,-0.040,-0.060,-0.527,-0.847,+0.936,+0.087,-0.393,+27.812,+25.938,+25.750,-3, -1, -3, -5, 15, 19, 0, -10,0.13161150874196617,1.1173856902882637
1503704066490,-0.041,-0.053,-0.531,-0.844,+0.915,+0.075,-0.397,+30.438,+28.688,+28.438,40, 8, -4, 3, 3, -46, -8, -7,0.12596072393189742,1.1249592984380226
1503704066512,-0.042,-0.046,-0.536,-0.842,+0.936,+0.048,-0.392,+29.875,+31.312,+28.000,-2, -6, -1, -6, -6, -2, -17, 21,0.12039371488792117,1.1358479247470052
1503704066528,-0.043,-0.039,-0.541,-0.839,+0.985,+0.029,-0.389,+29.562,+29.125,+29.688,-17, 1, -4, -1, -1, 5, 12, -53,0.11462331718458121,1.146503471629423
1503704066550,-0.044,-0.033,-0.545,-0.837,+0.952,+0.021,-0.381,+27.750,+24.125,+28.250,2, 20, 8, 4, -1, 9, 2, 10,0.10984928564529452,1.1553112786891155
1503704066572,-0.045,-0.027,-0.548,-0.835,+0.929,+0.011,-0.371,+27.250,+24.000,+26.688,9, -11, -11, -1, -3, -1, -1, 7,0.10493524858601998,1.16160257249241
1503704066588,-0.046,-0.021,-0.552,-0.832,+0.907,+0.004,-0.346,+24.438,+28.625,+26.562,-3, -7, 0, 5, -3, 2, -10, 5,0.09990689491434686,1.1702934329649755
1503704066610,-0.047,-0.015,-0.557,-0.829,+0.932,-0.005,-0.338,+27.062,+33.312,+27.938,3, 11, 6, -1, 1, -3, -2, 2,0.09481380176108212,1.1818504942979278
1503704066632,-0.048,-0.009,-0.562,-0.826,+0.953,-0.028,-0.333,+26.562,+31.500,+25.625,18, -1, -1, 1, 4, 5, 9, 12,0.08959999256511328,1.1936016338494322
1503704066655,-0.048,-0.003,-0.566,-0.823,+0.967,-0.051,-0.333,+26.562,+25.312,+22.375,-4, -8, -1, -2, -1, 1, 1, -2,0.08259861461379463,1.202839679778692
1503704066670,-0.049,+0.003,-0.569,-0.821,+0.928,-0.043,-0.322,+25.250,+21.562,+22.188,-24, -6, 8, -3, -11, 2, -2, 2,0.07726304010064282,1.2099542388544766
1503704066700,-0.049,+0.008,-0.571,-0.819,+0.892,-0.047,-0.327,+23.938,+20.688,+19.688,8, 4, -8, -1, 2, 4, 22, 9,0.07135702875798355,1.2145166478904124
1503704066715,-0.049,+0.012,-0.574,-0.817,+0.854,-0.047,-0.306,+21.188,+22.438,+16.375,-30, -17, -5, -1, -3, -4, -4, -8,0.06653080538748206,1.221905328491333
1503704066734,-0.049,+0.016,-0.577,-0.815,+0.855,-0.064,-0.295,+20.250,+23.000,+13.375,19, -8, 2, -4, -6, -4, -8, 7,0.06165580885875081,1.229385120741563
1503704066752,-0.048,+0.020,-0.580,-0.813,+0.866,-0.065,-0.288,+18.812,+20.375,+10.938,-26, 1, -5, -1, 2, -2, -1, -1,0.055090430738634136,1.2369697089161467
1503704066775,-0.047,+0.022,-0.581,-0.812,+0.854,-0.085,-0.237,+14.875,+10.562,+2.125,11, 13, 8, -1, 1, 0, 1, -4,0.05099464638672809,1.239436553564213
1503704066790,-0.045,+0.024,-0.582,-0.812,+0.796,-0.102,-0.214,+12.688,+1.000,-7.312,-5, 12, 10, 3, 0, 1, -2, 12,0.0453489543887692,1.2423191602431825
1503704066812,-0.042,+0.024,-0.581,-0.812,+0.753,-0.101,-0.225,+9.250,-4.062,-16.500,-8, -16, -15, -4, -3, -1, -9, -18,0.04048744754950861,1.2396282997053099
1503704066835,-0.039,+0.023,-0.581,-0.813,+0.784,-0.109,-0.207,+4.500,-0.688,-22.938,-1, 0, 0, -3, -1, -2, -8, 2,0.03682238868447211,1.239990510666186
1503704066850,-0.035,+0.021,-0.581,-0.813,+0.841,-0.074,-0.197,+2.812,-5.688,-26.312,22, 3, 1, -4, -1, 0, 0, 6,0.032605119757726626,1.2399291262455645
1503704066872,-0.031,+0.019,-0.580,-0.814,+0.875,-0.103,-0.197,+0.938,-12.312,-29.312,-19, -4, 4, 3, -3, -3, -3, -13,0.028495647545266477,1.2375203408290973
1503704066896,-0.027,+0.016,-0.578,-0.815,+0.894,-0.088,-0.216,-2.125,-15.312,-30.500,13, 1, -2, -2, -1, 0, 4, 7,0.025558794893495284,1.2323495336054473
1503704066910,-0.023,+0.013,-0.577,-0.817,+0.899,-0.057,-0.252,-1.812,-11.500,-27.562,3, -8, -6, -1, -2, -3, -3, -9,0.022607713291851086,1.230319066287959
1503704066932,-0.020,+0.012,-0.575,-0.818,+0.971,-0.040,-0.296,+2.375,-10.188,-21.125,5, 26, 34, 7, 0, 0, -3, -7,0.018938342908683223,1.2252569410587175
1503704066955,-0.017,+0.011,-0.575,-0.818,+1.002,-0.065,-0.273,+3.375,-8.688,-17.125,-42, -22, -22, -6, -2, -1, 0, -6,0.015173278496273203,1.225249558205266
1503704066970,-0.015,+0.011,-0.574,-0.819,+1.020,-0.066,-0.271,+3.938,-9.625,-9.938,16, -17, -9, -4, -2, -3, 5, 5,0.01194970076683579,1.2229364550237873
1503704066992,-0.014,+0.012,-0.573,-0.819,+1.034,-0.057,-0.265,+2.875,-5.938,-4.188,0, -7, 0, 3, 1, -1, -2, -3,0.009185988260480771,1.2202599702985477
1503704067015,-0.014,+0.013,-0.574,-0.819,+1.083,-0.043,-0.279,+6.062,-0.500,+1.500,13, 6, -3, 2, 3, -1, -1, 5,0.008013678562581714,1.2230151386052792
1503704067031,-0.014,+0.016,-0.574,-0.819,+1.113,-0.021,-0.356,+14.062,+0.250,+8.812,2, 4, -1, 2, 1, 3, 2, 8,0.00456809781392946,1.2231501525163446
1503704067052,-0.013,+0.019,-0.575,-0.818,+1.081,-0.034,-0.324,+16.750,+4.688,+8.125,-4, 1, -1, -2, -1, 1, 0, -15,-0.0005826175087072541,1.2256609002961965
1503704067075,-0.012,+0.023,-0.576,-0.817,+1.116,-0.057,-0.271,+23.250,+5.500,+9.875,-2, -1, -1, -3, -6, -7, 4, 2,-0.006897174373311168,1.228291051609267
1503704077102,-0.115,-0.004,-0.502,-0.857,+0.949,-0.042,-0.481,+1.062,+20.688,-13.375,1, -7, -2, -1, 5, 23, 3, 3,0.2037308073543665,1.0483646767368973
1503704077117,-0.113,-0.004,-0.503,-0.857,+0.939,-0.109,-0.456,+6.250,+7.438,-12.125,-4, -7, -9, 1, 8, -7, -8, -1,0.20017669675924968,1.0509684218567683
1503704077139,-0.110,-0.005,-0.503,-0.858,+0.875,-0.094,-0.417,+3.438,-7.188,-17.812,2, -7, -4, 1, 4, -2, -13, -5,0.19605500937090414,1.0515839235463644
1503704077163,-0.106,-0.006,-0.501,-0.859,+0.766,-0.107,-0.432,+4.562,-10.438,-20.125,0, 0, 2, -4, -5, -13, -6, 0,0.19013399382791094,1.0469749773437147
1503704077177,-0.103,-0.006,-0.501,-0.859,+0.788,-0.099,-0.469,+3.562,+5.250,-20.375,1, 1, 1, -1, -7, 0, 4, 0,0.18481279074712312,1.046956887864322
1503704077201,-0.100,-0.007,-0.503,-0.859,+0.859,-0.104,-0.477,+7.250,+15.375,-19.312,-9, -14, -19, -10, -7, -11, -2, -10,0.1805231830770525,1.0522760203974113
1503704077222,-0.096,-0.008,-0.506,-0.857,+0.938,-0.088,-0.494,+7.688,+17.562,-20.688,-2, -42, -12, -6, -8, 4, -3, 1,0.17412343842527345,1.0592039657045604
1503704077237,-0.090,-0.009,-0.507,-0.857,+0.875,-0.048,-0.480,+10.688,+11.688,-33.062,-19, -25, -13, -7, -2, 5, 4, 0,0.16460096390149917,1.0618886343928298
1503704077259,-0.082,-0.012,-0.505,-0.859,+0.857,-0.080,-0.441,+9.000,-12.250,-49.500,-3, 4, -4, 1, -2, 4, -4, 0,0.15390014435403568,1.057939068847489
1503704077282,-0.074,-0.016,-0.502,-0.861,+0.795,-0.014,-0.441,+0.438,-15.250,-53.688,15, 16, 14, 3, -2, 0, 0, -10,0.14414927371230493,1.051512069107662
1503704077297,-0.066,-0.021,-0.501,-0.863,+0.814,+0.053,-0.470,-1.375,-6.312,-47.562,-7, -4, -7, -2, 0, 1, -5, 4,0.13543120057120175,1.050431994454701
1503704077319,-0.062,-0.024,-0.499,-0.864,+0.925,+0.025,-0.433,-3.812,-10.062,-29.312,16, 3, 2, -3, -2, 1, 1, -1,0.1314940014025266,1.0460759115911173
1503704077342,-0.059,-0.027,-0.497,-0.865,+0.968,+0.000,-0.381,-6.562,-24.062,-22.625,-2, 7, 4, 6, 2, 0, -3, -7,0.12927758254850388,1.0417630390627948
1503704077357,-0.058,-0.030,-0.493,-0.868,+0.992,+0.006,-0.377,-12.688,-35.938,-18.062,-1, 12, 5, 2, -1, -1, -1, 4,0.13064016649071403,1.033372559337027
1503704077379,-0.059,-0.033,-0.486,-0.871,+0.912,-0.005,-0.441,-23.000,-47.375,-7.000,-6, -2, 2, -1, 4, 19, -8, -8,0.13526685400558308,1.0174020295922186
1503704077403,-0.062,-0.038,-0.482,-0.873,+0.907,+0.028,-0.350,-37.062,-34.500,+0.062,-7, -6, -3, -3, -7, -10, -5, -11,0.1453993056412579,1.0091976327907175
1503704077417,-0.065,-0.044,-0.480,-0.874,+0.927,+0.086,-0.408,-36.562,-22.375,+5.125,3, -1, 4, 5, 14, -10, 3, 10,0.15651380131495032,1.0059622490216382
1503704077440,-0.069,-0.049,-0.476,-0.875,+0.933,+0.078,-0.473,-37.500,-26.188,+4.750,-3, -1, 0, -2, -5, 5, 7, 4,0.16822556346025141,0.9976081819117654
1503704077462,-0.073,-0.055,-0.472,-0.877,+0.981,+0.056,-0.480,-42.500,-29.562,+6.750,0, -2, 4, -1, -2, 2, 1, 3,0.18101651303244198,0.9901981840460314
1503704077478,-0.078,-0.061,-0.467,-0.879,+0.940,+0.077,-0.476,-45.375,-33.375,+7.688,6, -4, -3, 2, 3, -12, -7, -4,0.19545288043520767,0.9805364020116042
1503704077500,-0.082,-0.066,-0.462,-0.881,+0.891,+0.083,-0.511,-40.875,-36.062,+4.562,0, -4, -2, -3, -7, 4, -1, -1,0.2071112945090281,0.9707323800498205
1503704077521,-0.084,-0.072,-0.456,-0.883,+0.846,+0.083,-0.576,-35.812,-35.000,-4.000,-1, -17, -12, -9, -9, -7, -1, -10,0.21595730782642597,0.9587696504379171
1503704077540,-0.083,-0.077,-0.451,-0.885,+0.775,+0.139,-0.627,-23.188,-17.438,-16.625,2, 26, 9, 0, 2, 3, 1, 4,0.21851115415944702,0.9489019337767736
1503704077567,-0.081,-0.080,-0.449,-0.886,+0.813,+0.117,-0.588,-9.938,-7.812,-20.500,-4, -7, -3, -4, -4, 3, 4, 23,0.21760256328444855,0.9452968373577391
1503704077582,-0.079,-0.081,-0.450,-0.886,+0.850,+0.024,-0.592,-4.250,+6.750,-13.250,-2, -3, -6, -2, 0, -4, -2, -4,0.21510193683577367,0.9479647956960766
1503704077597,-0.078,-0.081,-0.450,-0.886,+0.832,+0.039,-0.595,-0.688,+6.938,-4.500,-13, -21, -11, -1, -1, -2, -3, -11,0.2132989018009641,0.9478700455392972
1503704077619,-0.079,-0.079,-0.450,-0.886,+0.837,+0.003,-0.561,+0.125,-2.688,+3.500,7, -1, 1, -5, -4, -1, -4, 1,0.21320229742174832,0.9472589505454375
1503704077642,-0.081,-0.078,-0.450,-0.886,+0.843,-0.022,-0.507,-4.250,-1.938,+7.375,8, 16, -7, -3, -2, 0, 3, -1,0.215861082606477,0.9470936186033159
1503704077657,-0.083,-0.078,-0.451,-0.885,+0.843,+0.007,-0.497,-5.562,+5.938,+8.812,-12, -9, -8, -5, -5, -4, 0, -2,0.21946081460815048,0.9492513592748872
1503704077680,-0.083,-0.077,-0.453,-0.884,+0.915,+0.046,-0.517,-0.125,+5.812,+3.938,2, 3, 10, 7, -5, -7, 3, -8,0.2186500375328882,0.9533847645066059
1503704077701,-0.082,-0.076,-0.454,-0.884,+0.919,+0.079,-0.573,+10.250,+2.188,-3.438,4, 8, 10, 1, -25, -54, 0, 3,0.21604545043119167,0.9554574619731769
1503704077717,-0.080,-0.074,-0.452,-0.885,+0.900,+0.039,-0.522,+11.875,-12.938,-6.375,-2, 1, 3, -3, -3, 37, -11, -6,0.21040768109300728,0.9501182041824376
1503704077740,-0.079,-0.073,-0.450,-0.887,+0.850,+0.002,-0.504,+6.625,-22.125,-7.875,-4, -3, -2, -1, -2, 2, 3, -8,0.20768370330793487,0.9457481151001332
1503704077761,-0.078,-0.072,-0.448,-0.888,+0.759,+0.020,-0.501,+2.125,-11.750,-8.062,-3, 3, 5, 7, 26, 16, -1, 0,0.20480865219505828,0.9408643760443276
1503704077777,-0.077,-0.072,-0.448,-0.888,+0.743,+0.037,-0.531,+0.938,+6.375,-6.812,2, -3, 0, 2, 10, 7, 7, -3,0.20300360489162805,0.9407794123619407
1503704077799,-0.075,-0.073,-0.452,-0.886,+0.791,+0.020,-0.526,-0.312,+24.375,-10.562,5, 6, -13, 0, -5, 1, -2, 15,0.20061167529372873,0.9498867678294177
1503704077822,-0.072,-0.075,-0.457,-0.884,+0.841,+0.054,-0.494,-1.812,+31.938,-20.750,3, -15, 12, 1, 3, -3, 2, -4,0.19756223450804977,0.9617865517090757
1503704077840,-0.065,-0.078,-0.461,-0.882,+0.874,+0.062,-0.446,+0.562,+24.750,-39.750,-12, 4, 5, 2, 2, -2, -10, -41,0.18824815529829433,0.9712017792326507
1503704077859,-0.057,-0.082,-0.464,-0.880,+0.883,+0.052,-0.436,+0.062,+19.562,-56.688,-11, 15, 19, 6, 3, -2, -1, 0,0.17809914493695403,0.9783635255160265
1503704077882,-0.048,-0.086,-0.465,-0.880,+0.856,+0.152,-0.506,+3.562,+15.250,-55.188,3, -10, -12, -8, -2, 0, 0, 6,0.166167185476709,0.9814098105504003
1503704077897,-0.039,-0.090,-0.465,-0.880,+0.889,+0.224,-0.561,+5.125,+3.938,-47.062,6, -8, -8, -3, -1, -1, -10, 5,0.15409740664811886,0.9818968148886874
1503704077919,-0.034,-0.091,-0.463,-0.881,+0.906,+0.218,-0.580,+11.688,-8.188,-30.062,25, 41, 20, -2, 0, 1, 0, -7,0.14590327613311488,0.9771686493740391
1503704077942,-0.030,-0.090,-0.462,-0.882,+0.863,+0.156,-0.576,+15.438,-2.062,-14.750,9, -5, 1, 3, -4, -4, -2, -6,0.137697412528453,0.9744021428265557
1503704077957,-0.028,-0.087,-0.463,-0.882,+0.881,+0.144,-0.593,+19.000,+9.938,-0.688,1, -2, 2, 1, -4, -9, 0, 0,0.13140038123384584,0.975759011808245
1503704077979,-0.027,-0.083,-0.466,-0.880,+0.940,+0.129,-0.587,+20.438,+19.688,+8.625,3, 7, 2, 0, 4, -2, -9, 0,0.12613482789891073,0.9809920321755673
1503704085045,+0.041,+0.035,-0.457,-0.888,+1.128,-0.020,-0.406,+5.562,-31.688,+24.688,-24, -4, 3, 0, -4, 16, -4, -3,-0.10503076729049207,0.9521218140411741
1503704085067,+0.037,+0.038,-0.458,-0.888,+0.973,+0.069,-0.417,+7.188,-7.062,+34.812,10, 6, 5, 5, 10, 6, 12, -4,-0.10074648160030052,0.9549660617987117
1503704085083,+0.030,+0.041,-0.458,-0.887,+1.060,+0.008,-0.464,-1.250,-8.000,+49.625,10, -4, -6, -3, 2, -6, -7, -7,-0.09099503328307426,0.9546200579044881
1503704085105,+0.022,+0.043,-0.459,-0.887,+1.012,-0.014,-0.433,-12.625,-8.250,+48.625,-11, -10, -14, -6, -3, -4, -5, -42,-0.07870707873648866,0.957092074521049
1503704085128,+0.015,+0.043,-0.458,-0.888,+0.859,-0.035,-0.469,-19.125,-5.000,+40.438,29, 20, 6, 10, 7, 6, 9, 90,-0.06620612236855782,0.954747704072798
1503704085143,+0.008,+0.042,-0.459,-0.887,+0.818,-0.112,-0.477,-25.188,+5.312,+27.375,-40, -51, -35, -9, -5, -7, -2, -11,-0.05289217566165609,0.9562483336494334
1503704085166,+0.003,+0.039,-0.462,-0.886,+0.845,-0.116,-0.445,-33.812,+16.188,+15.125,9, -7, 2, -3, -5, 1, -3, -8,-0.04145516185726152,0.9626637370918155
1503704085190,-0.002,+0.036,-0.466,-0.884,+0.836,-0.144,-0.468,-35.062,+22.938,+11.562,8, 22, 15, 0, -1, -3, 0, -2,-0.03008516488344845,0.9711748206663608
1503704085210,-0.007,+0.032,-0.470,-0.882,+0.804,-0.136,-0.509,-37.625,+24.562,+10.250,-3, 2, 0, -3, -3, 1, 0, 1,-0.01776826459271539,0.9796832891673662
1503704085226,-0.011,+0.028,-0.473,-0.881,+0.827,-0.087,-0.545,-34.438,+27.062,+6.875,3, 2, 5, 0, -2, 1, -2, -12,-0.007118764927633155,0.9863205605270781
1503704085247,-0.013,+0.024,-0.475,-0.879,+0.835,-0.056,-0.574,-25.312,+19.938,-1.438,4, 4, -1, 0, -2, -4, -1, -4,5.408058001157097e-05,0.9900349995601756
1503704085263,-0.013,+0.021,-0.476,-0.879,+0.871,-0.044,-0.561,-15.188,+8.125,-10.188,-1, 0, 7, 2, -1, 0, -3, -4,0.0028654880621166645,0.9924098422290522
1503704085285,-0.012,+0.020,-0.476,-0.879,+0.865,-0.094,-0.570,-7.625,+3.500,-12.125,-1, 5, 7, 7, 23, 30, 14, -10,0.0020582364579622707,0.992377221371958
1503704085307,-0.012,+0.018,-0.476,-0.879,+0.848,-0.086,-0.547,-8.812,+4.125,-5.750,1, 0, -3, -4, -8, -19, 14, 7,0.00396368927484041,0.9922760808467428
1503704085325,-0.012,+0.018,-0.477,-0.879,+0.825,-0.077,-0.534,-5.625,+10.250,-0.375,-7, 1, 1, -3, -3, -17, 7, -5,0.003927656108257465,0.9948348066718622
1503704085345,-0.012,+0.019,-0.479,-0.877,+0.822,-0.110,-0.532,-0.312,+17.312,-1.875,0, 0, 1, 1, 0, -5, -14, -1,0.002848869658917336,0.9989682186401276
1503704085367,-0.012,+0.019,-0.482,-0.876,+0.871,-0.071,-0.549,-1.000,+18.625,-5.688,1, 1, 0, 0, -1, 10, -4, 4,0.0027107312056623327,1.0061494771335404
1503704085382,-0.010,+0.018,-0.483,-0.876,+0.870,-0.022,-0.548,+3.938,+10.812,-9.375,-10, 6, 1, -2, -3, -13, -11, -13,0.0001321120302336839,1.00870715348008
1503704085405,-0.007,+0.018,-0.483,-0.875,+0.855,+0.017,-0.534,+7.562,+6.875,-10.500,-1, -27, -16, 1, -2, 6, -6, 0,-0.005141790496132691,1.008249390154213
1503704085427,-0.005,+0.019,-0.484,-0.875,+0.779,-0.012,-0.554,+9.438,+11.438,-9.625,25, 10, 6, -1, 0, 5, 12, 57,-0.009649149898879113,1.010915976632461
1503704085442,-0.003,+0.018,-0.486,-0.874,+0.772,+0.028,-0.483,+2.500,+18.750,-10.375,-2, -25, -14, -1, 0, 1, -5, -22,-0.012259551043563804,1.0155288619960812
1503704085466,-0.000,+0.016,-0.490,-0.872,+0.804,+0.069,-0.503,+1.562,+27.250,-11.000,9, 19, 20, 8, 3, 1, -1, -1,-0.01568674544588582,1.024758314588065
1503704085487,+0.004,+0.014,-0.494,-0.870,+0.859,+0.122,-0.500,+5.688,+29.562,-16.750,-4, -1, -6, -7, -6, -5, -3, -9,-0.020797820334142465,1.034034639295485
1503704085503,+0.008,+0.014,-0.495,-0.869,+0.891,+0.099,-0.512,+10.875,+9.625,-16.688,-7, 10, 5, -1, -2, 0, -6, -3,-0.027771303092648286,1.0361750817947948
1503704085527,+0.012,+0.013,-0.495,-0.869,+0.923,+0.086,-0.498,+9.500,-0.875,-17.438,0, 2, -3, -1, -2, 0, -3, -10,-0.03373432326832551,1.0361734545043821
1503704085547,+0.017,+0.012,-0.492,-0.871,+0.831,+0.058,-0.460,+12.000,-21.000,-27.438,0, -3, 0, -8, -33, -13, -11, -14,-0.04143417497845115,1.0294334098797429
1503704085563,+0.025,+0.011,-0.486,-0.873,+0.780,+0.004,-0.478,+15.125,-31.312,-40.000,-4, 4, 3, 1, 9, 29, 14, -6,-0.05436956295427816,1.0150180971160911
1503704085585,+0.034,+0.009,-0.481,-0.876,+0.672,-0.030,-0.495,+13.188,-28.688,-52.062,-8, -4, 0, 1, -13, -14, 5, -10,-0.06828885932990043,1.003682953448204
1503704085607,+0.043,+0.006,-0.477,-0.878,+0.703,-0.043,-0.494,+9.188,-20.875,-60.562,7, -5, -4, 0, 10, -5, -7, 6,-0.08135941138674883,0.9943483053372764
1503704085622,+0.052,+0.003,-0.476,-0.878,+0.827,-0.030,-0.485,+6.250,-7.250,-56.625,11, 11, 6, 0, 9, 0, -5, 2,-0.09440032626378704,0.9916342897367401
1503704085645,+0.057,+0.001,-0.476,-0.877,+0.929,+0.058,-0.490,+3.125,-1.125,-36.688,-9, -5, -5, 5, 8, -2, -10, 1,-0.10124299457468446,0.9909902837723156
1503704085668,+0.061,+0.000,-0.475,-0.878,+0.986,+0.079,-0.440,+6.062,-15.750,-20.375,-8, 0, 2, -5, -2, -7, -4, 4,-0.10750307624363871,0.988891208655011
1503704085682,+0.063,+0.001,-0.472,-0.879,+1.034,+0.064,-0.420,+7.250,-33.375,-7.562,3, 3, -14, 0, -2, -4, 0, 3,-0.11211979224472471,0.9818250043438658
1503704085705,+0.063,+0.002,-0.466,-0.882,+0.917,+0.007,-0.443,+4.875,-45.562,+0.250,-7, 2, 5, 1, 6, -2, 1, 19,-0.11341229351426538,0.9682074155025135
1503704085727,+0.060,+0.001,-0.463,-0.884,+0.927,+0.031,-0.409,-11.125,-30.438,+9.875,-3, -10, -7, 5, -1, 1, 0, 0,-0.10736776371979591,0.9615743995585773
1503704085742,+0.056,-0.000,-0.465,-0.883,+0.976,+0.084,-0.428,-20.062,-0.188,+20.062,4, 18, 15, 4, 1, 1, -4, -7,-0.09919357118118063,0.9660474347875134
1503704085766,+0.051,-0.002,-0.468,-0.882,+1.036,+0.125,-0.458,-21.875,+7.875,+24.938,3, -15, -13, -1, 4, -5, -2, -7,-0.08832297644735289,0.9730338487928656
1503704085787,+0.047,-0.004,-0.469,-0.882,+1.064,+0.125,-0.478,-19.500,-4.875,+21.562,15, -5, -9, 1, 1, -3, -4, 2,-0.07934290267490607,0.9755018109202057
1503704085801,+0.045,-0.007,-0.467,-0.883,+0.958,+0.129,-0.478,-18.875,-21.188,+4.812,-3, -7, 0, 0, 0, 2, 0, -5,-0.07310526889140818,0.9708522642243753
1503704085824,+0.045,-0.010,-0.465,-0.884,+0.851,+0.099,-0.497,-15.688,-16.438,-9.750,-1, -5, -8, -2, -3, -10, -3, 11,-0.07044312930425262,0.9662293583683956
1503704085846,+0.047,-0.013,-0.465,-0.884,+0.778,+0.099,-0.536,-11.188,+2.625,-15.000,-2, -12, -12, -5, 0, 6, 1, 0,-0.07122463380537933,0.9661597176761543
1503704085862,+0.048,-0.016,-0.467,-0.883,+0.805,+0.077,-0.548,-9.750,+17.438,-11.938,-48, -12, -5, -3, -2, -5, 1, -11,-0.07006844401763317,0.9706820118452308
1503704085884,+0.048,-0.016,-0.471,-0.881,+0.884,+0.071,-0.560,-8.125,+22.250,-1.812,8, -1, -3, 2, -3, 0, -3, -3,-0.06974836657710952,0.9798226834476422
1503704085911,+0.047,-0.017,-0.473,-0.880,+0.914,+0.064,-0.532,-6.000,+15.188,+0.812,8, 18, 4, 0, -1, -2, -1, 0,-0.06687273233495675,0.9844263866604971
1503704085929,+0.047,-0.017,-0.474,-0.879,+0.882,+0.053,-0.505,-4.000,+1.938,+0.438,29, -12, -12, -8, -3, 0, 0, 6,-0.06674466296653725,0.986459127215054
1503704085944,+0.047,-0.017,-0.473,-0.880,+0.838,+0.042,-0.492,-1.250,-4.250,-4.250,-8, -1, -1, 5, 4, -17, 0, -2,-0.06687273233495675,0.9844263866604971
1503704085966,+0.048,-0.017,-0.472,-0.880,+0.805,+0.031,-0.498,-4.000,-6.500,-7.438,-13, -6, -5, -8, -16, -9, -10, -60,-0.06868054514684527,0.9818518524904117
1503704085981,+0.048,-0.019,-0.471,-0.880,+0.782,+0.026,-0.470,-11.500,-4.062,-9.438,7, -11, -7, -9, -5, 0, 3, 45,-0.06683907186916174,0.9793099094733022
1503704086004,+0.049,-0.021,-0.472,-0.880,+0.791,+0.069,-0.455,-11.625,+4.875,-10.312,3, 1, 11, 3, 0, 9, 0, 1,-0.06669659178160801,0.9818680568285376
1503704086026,+0.050,-0.024,-0.473,-0.879,+0.829,+0.114,-0.486,-10.250,+5.812,-12.375,34, -27, -11, 0, 4, 4, -1, 4,-0.06550571247947413,0.9839351690626779
1503704093369,+0.106,+0.044,-0.598,-0.794,+1.018,+0.039,-0.176,+13.062,-23.938,+12.312,-7, -13, -11, -5, -3, -3, -3, -2,-0.2231509213532807,1.2858246967796207
1503704093391,+0.107,+0.046,-0.595,-0.795,+0.912,-0.001,-0.163,+12.688,-21.312,+1.312,0, 2, 3, 0, 1, 2, 2, 16,-0.22715165003775895,1.2784281993957807
1503704093407,+0.108,+0.047,-0.593,-0.796,+0.869,-0.039,-0.186,+8.500,-13.125,-6.438,-8, 3, 6, 2, 0, -5, 2, 6,-0.23003040219999907,1.2735601175400748
1503704093429,+0.109,+0.048,-0.595,-0.795,+0.891,-0.070,-0.171,-0.438,+8.750,-13.250,-42, 21, 20, 8, 6, -1, -5, -19,-0.23285620471678647,1.278967619198815
1503704093451,+0.109,+0.047,-0.599,-0.792,+0.847,-0.093,-0.196,-7.188,+29.000,-16.000,-3, -5, -7, -1, -1, 0, 3, 20,-0.23138166114826847,1.2886812375887453
1503704093467,+0.110,+0.044,-0.604,-0.788,+0.920,-0.049,-0.140,-17.250,+34.125,-25.750,4, -13, -13, -3, -2, -2, -2, 8,-0.22896729132266833,1.3004391445774641
1503704093490,+0.110,+0.038,-0.610,-0.784,+0.991,+0.079,-0.139,-29.062,+34.625,-29.312,-4, -8, -14, -5, -3, 1, 1, -13,-0.22125065529488855,1.3144356396555807
1503704093511,+0.110,+0.032,-0.613,-0.782,+1.042,+0.225,-0.240,-26.438,+16.625,-11.625,19, 6, 1, 7, 4, 1, -3, 0,-0.21365544163814165,1.3209791589463407
1503704093527,+0.108,+0.030,-0.612,-0.783,+1.104,+0.184,-0.322,-18.125,-0.750,+9.562,-2, -22, -10, -3, -2, -1, 2, 3,-0.2080970753256775,1.3181324720337724
1503704093550,+0.103,+0.031,-0.610,-0.785,+1.051,+0.082,-0.276,-14.688,-14.688,+28.000,23, 18, 31, 8, -1, 3, 3, 5,-0.20148497356107303,1.3133065835404854
1503704093572,+0.098,+0.034,-0.607,-0.788,+0.979,+0.064,-0.267,-8.000,-20.250,+35.750,-3, -8, -14, -11, -3, -2, -1, 3,-0.19742307490257302,1.30640724207188
1503704093587,+0.090,+0.037,-0.603,-0.792,+0.967,-0.041,-0.257,-9.875,-23.750,+43.062,-13, 5, 4, -4, -1, -2, -4, -12,-0.1885294061316749,1.2970775575742082
1503704093609,+0.081,+0.042,-0.601,-0.794,+1.000,-0.073,-0.234,-15.125,-12.438,+53.250,11, 4, -1, -5, -6, -1, 2, 44,-0.1801695603288462,1.293031816307706
1503704093631,+0.072,+0.046,-0.601,-0.795,+1.040,-0.016,-0.212,-15.938,+0.625,+55.062,0, -8, -10, -4, -2, 4, -5, -29,-0.1706124606336015,1.2939887920341242
1503704093649,+0.063,+0.050,-0.601,-0.796,+1.018,-0.061,-0.169,-15.625,-8.188,+51.625,-5, 1, 0, 1, -2, 0, -4, -16,-0.1610903499437236,1.2949665948639097
1503704093669,+0.056,+0.052,-0.599,-0.797,+0.968,-0.087,-0.136,-16.875,-14.125,+35.438,1, -7, -2, -5, -2, -1, 6, 18,-0.1521657253160066,1.2900689378543082
1503704093691,+0.052,+0.051,-0.600,-0.797,+0.914,-0.033,-0.139,-19.625,-3.312,+15.125,9, -12, -11, -4, -4, -3, -2, 32,-0.1446164955580308,1.2924722223577625
1503704093707,+0.050,+0.049,-0.601,-0.796,+0.911,-0.002,-0.239,-15.625,+14.938,+3.125,-17, -17, -6, 0, 3, -4, -2, -40,-0.13896745339062927,1.294394586701878
1503704093729,+0.049,+0.048,-0.603,-0.795,+0.932,+0.022,-0.240,-12.562,+12.688,+0.750,-20, -15, -12, -2, 1, -4, -2, -27,-0.1362387829674662,1.2993269806544987
1503704093756,+0.048,+0.047,-0.604,-0.795,+0.941,-0.023,-0.221,-10.125,+5.562,+1.562,1, 13, 4, 1, 1, -1, -1, -6,-0.1335093133560398,1.3018422593573002
1503704093773,+0.048,+0.045,-0.606,-0.793,+0.921,+0.001,-0.243,-7.062,+21.125,-4.688,-3, -16, -13, -5, -1, -3, -2, 13,-0.13105372745398977,1.3063023954074642
1503704093790,+0.049,+0.044,-0.609,-0.790,+0.943,+0.063,-0.278,+0.875,+26.750,-7.125,5, -1, 16, -1, -2, 1, -1, 5,-0.1313968870723217,1.313457639277043
1503704093811,+0.051,+0.045,-0.610,-0.789,+1.052,+0.013,-0.271,+7.000,+11.562,-8.500,32, 22, 5, -1, 0, -3, -1, -12,-0.13580119558600864,1.316151497881914
1503704093833,+0.053,+0.044,-0.610,-0.790,+1.035,-0.009,-0.229,+6.500,-3.500,-10.750,44, -9, 8, -1, 0, 0, 1, -30,-0.13785662398120221,1.316305091959197
1503704093858,+0.056,+0.045,-0.608,-0.791,+0.927,+0.001,-0.209,+10.062,-8.875,-11.250,-27, -13, -12, -3, -1, 0, 1, 16,-0.14380709176912718,1.311369342402537
1503704093871,+0.059,+0.046,-0.608,-0.790,+0.903,-0.021,-0.220,+15.188,+2.938,-13.438,9, -10, -15, -9, -4, -2, 0, 24,-0.1497158147208508,1.3113328306405405
1503704093894,+0.063,+0.047,-0.610,-0.789,+0.935,+0.018,-0.233,+15.938,+14.500,-13.938,21, -10, 1, -3, -4, -2, 3, 12,-0.15740216802275456,1.3168427532089766
1503704093912,+0.067,+0.048,-0.612,-0.787,+0.985,+0.031,-0.241,+19.000,+15.875,-14.750,1, -23, -11, 3, 4, -3, -2, -11,-0.16495895884812414,1.322061242836022
1503704093931,+0.072,+0.049,-0.613,-0.785,+1.037,+0.036,-0.215,+19.438,+12.938,-18.188,10, -21, -4, 1, 1, -2, -1, 12,-0.17400296224441636,1.3245623034464136
1503704093961,+0.077,+0.049,-0.614,-0.784,+0.993,+0.029,-0.155,+20.688,+4.938,-23.875,-15, -12, -8, -5, 1, 1, 2, -42,-0.1819385603515512,1.3271455307935964
1503704093969,+0.085,+0.048,-0.614,-0.784,+0.966,+0.021,-0.152,+22.750,-4.938,-37.875,-7, -14, 7, 2, -2, 1, 4, 12,-0.19350657481118144,1.3271054055473366
1503704093993,+0.093,+0.046,-0.614,-0.782,+0.973,+0.072,-0.153,+17.750,+1.938,-43.312,4, -1, -1, 3, -1, 0, -2, 13,-0.20352587610261227,1.3262422256732702
1503704094013,+0.100,+0.045,-0.613,-0.782,+0.944,+0.108,-0.205,+20.812,-8.000,-35.688,1, -1, -1, -1, 0, -1, 0, -31,-0.2134803741589421,1.32340814688206
1503704094029,+0.106,+0.043,-0.612,-0.782,+1.034,+0.074,-0.122,+11.312,-13.875,-30.875,-7, -10, -9, -4, -1, -2, -4, -3,-0.22063431737416314,1.320328886368816
1503704094053,+0.110,+0.040,-0.611,-0.783,+0.973,+0.125,-0.143,+3.438,-12.500,-25.125,0, 8, 3, 2, -1, -3, -2, 4,-0.22356903367128803,1.3173061072501269
1503704094073,+0.112,+0.037,-0.611,-0.783,+0.968,+0.165,-0.129,-7.062,-11.000,-14.188,-2, 9, 8, 5, 5, 3, -1, 5,-0.22314144275237818,1.3167288092919027
1503704094089,+0.111,+0.034,-0.610,-0.784,+1.039,+0.156,-0.145,-13.375,-11.188,-0.250,-9, -6, -10, -3, -1, -5, 2, 2,-0.21797895080470234,1.3136701202735597
1503704094111,+0.108,+0.033,-0.610,-0.785,+1.065,+0.106,-0.157,-18.312,-12.312,+8.938,-3, 1, -2, -2, 2, 6, 2, 14,-0.2120741086389547,1.3137441446182663
1503704094141,+0.105,+0.030,-0.606,-0.788,+1.027,+0.093,-0.206,-23.188,-27.688,+5.125,-2, -1, 2, -4, 9, 20, -3, -8,-0.20389805841589045,1.3030538818655448
1503704104918,-0.068,-0.099,-0.485,-0.866,+0.958,+0.106,-0.438,-8.062,-22.312,-10.875,29, 4, 2, -4, -3, -2, -13, -5,0.2167005720201224,1.0322245926099842
1503704104940,-0.069,-0.099,-0.482,-0.868,+0.988,+0.070,-0.409,-4.875,-31.688,-2.750,-14, 0, 0, 0, 0, -4, 4, -2,0.2181484582069402,1.0256335473637148
1503704104957,-0.070,-0.101,-0.478,-0.870,+0.937,+0.049,-0.443,-12.625,-30.938,-6.875,15, 8, 1, 0, 0, 1, -9, -9,0.22146307893842482,1.0173419389388472
1503704104978,-0.071,-0.103,-0.473,-0.872,+0.845,+0.108,-0.510,-15.688,-27.375,-4.062,28, 9, 3, 4, 3, -1, -10, -8,0.22455895926396113,1.0065529415475905
1503704105001,-0.072,-0.104,-0.471,-0.873,+0.833,+0.119,-0.507,-13.312,-12.938,-0.438,-11, -3, -3, 0, -4, -2, -7, 3,0.22708854917078736,1.0025113996811577
1503704105016,-0.072,-0.106,-0.469,-0.874,+0.834,+0.118,-0.482,-10.312,-8.125,-6.750,1, -2, 14, 5, 4, 1, -7, 1,0.2288527465670181,0.9988054704706089
1503704105038,-0.069,-0.109,-0.466,-0.875,+0.842,+0.125,-0.480,-9.000,-16.938,-25.125,-13, 7, 4, -7, -5, 4, 2, -6,0.2260618251649259,0.9926678862426529
1503704105063,-0.065,-0.113,-0.460,-0.878,+0.868,+0.100,-0.507,-10.750,-36.562,-39.188,4, -3, -8, -4, 2, 2, 8, -7,0.2220506370832957,0.9803045649051274
1503704105077,-0.060,-0.115,-0.455,-0.881,+0.839,+0.116,-0.486,-2.875,-31.188,-36.562,-55, -7, -3, -1, 5, -1, -8, -26,0.21435108775878609,0.969478116924058
1503704105099,-0.056,-0.117,-0.452,-0.883,+0.825,+0.107,-0.488,-1.625,-22.625,-30.375,-5, -7, 0, -1, -6, -7, -6, -2,0.20870669717178716,0.9633213675375367
1503704105120,-0.053,-0.117,-0.447,-0.885,+0.839,+0.120,-0.545,+4.625,-24.938,-25.250,14, -3, -3, 3, 2, 0, -10, 12,0.20236946501716327,0.9513633148471634
1503704105137,-0.049,-0.119,-0.442,-0.888,+0.862,+0.197,-0.572,+3.625,-30.562,-28.812,-7, -6, 1, -3, -8, -7, -10, -8,0.19624647349771615,0.9407161499148553
1503704105158,-0.045,-0.119,-0.436,-0.891,+0.810,+0.163,-0.606,+6.938,-32.562,-25.438,9, 16, 4, 0, 14, 5, 2, 3,0.18787034683816234,0.926694621863309
1503704105180,-0.043,-0.118,-0.432,-0.893,+0.825,+0.167,-0.560,+7.562,-25.875,-11.125,5, -1, -5, -4, -5, -3, 0, 5,0.18251840570318276,0.9170354222517272
1503704105200,-0.043,-0.117,-0.428,-0.895,+0.878,+0.150,-0.505,+2.250,-32.125,-5.125,-78, -16, -5, -7, -4, 14, -6, -8,0.18080642460452537,0.9077039001923058
1503704105219,-0.043,-0.118,-0.424,-0.897,+0.899,+0.199,-0.527,-4.812,-38.625,-6.750,6, -1, -1, 0, 7, -1, 0, -10,0.18097619798383965,0.8992620127321984
1503704105240,-0.043,-0.121,-0.419,-0.899,+0.813,+0.275,-0.554,-11.812,-32.250,-6.062,19, 5, 3, -2, -4, -5, 2, -13,0.1827450814929001,0.8892416939710234
1503704105256,-0.043,-0.124,-0.413,-0.901,+0.685,+0.305,-0.576,-12.375,-30.625,-1.625,39, -3, 0, 6, 13, 8, -7, 26,0.1842165143802432,0.876812950459879
1503704105278,-0.044,-0.126,-0.412,-0.901,+0.729,+0.225,-0.589,-14.625,-6.062,+0.938,21, 5, -1, 7, 3, -3, 6, 4,0.18764240697119458,0.8754057240765263
1503704105300,-0.045,-0.129,-0.413,-0.901,+0.854,+0.227,-0.554,-14.438,+3.562,+0.062,-43, -15, -11, -5, 9, -11, -2, -14,0.192506960877426,0.879411852681129
1503704105316,-0.046,-0.131,-0.412,-0.901,+0.889,+0.208,-0.566,-14.062,-9.500,-1.438,16, 6, 2, -8, -15, 1, 6, 6,0.19594179855875507,0.8780481741244605
1503704105339,-0.048,-0.133,-0.409,-0.902,+0.854,+0.194,-0.598,-16.875,-25.375,-2.438,1, 1, 1, 4, -2, -3, -1, 3,0.20078182435557537,0.8724860418193456
1503704105361,-0.048,-0.135,-0.405,-0.903,+0.752,+0.212,-0.641,-14.062,-20.250,-3.750,-13, -4, 0, -8, -7, 2, -4, -15,0.20165301216366935,0.8641470615986296
1503704105377,-0.050,-0.136,-0.402,-0.904,+0.695,+0.256,-0.657,-12.000,-10.500,+4.812,3, 0, 2, 5, 11, -3, 4, 7,0.20555444941923343,0.8581681748395285
1503704105399,-0.052,-0.139,-0.403,-0.903,+0.710,+0.210,-0.542,-19.312,+6.875,+10.312,-6, 5, -3, 6, 32, 15, 3, 1,0.21219281483609378,0.861933120388312
1503704105421,-0.054,-0.141,-0.407,-0.901,+0.774,+0.219,-0.535,-17.938,+20.875,+7.000,42, 4, 2, -8, -12, -10, -12, -4,0.21866073625621968,0.8720732890276982
1503704105437,-0.055,-0.144,-0.410,-0.899,+0.889,+0.254,-0.571,-16.188,+11.250,+2.500,39, 9, 3, -1, -19, -37, -17, 47,0.22397343934818417,0.880138365998397
1503704105459,-0.056,-0.144,-0.408,-0.900,+0.848,+0.229,-0.597,-7.375,-10.500,+2.125,-12, -3, -1, -8, -8, -9, -8, -18,0.2253552666153359,0.8759322507213022
1503704105481,-0.056,-0.144,-0.406,-0.901,+0.755,+0.199,-0.649,-0.688,-12.812,-1.562,-37, -8, -2, 2, -16, -12, -12, -30,0.2248922832038557,0.8715452698600121
1503704105498,-0.057,-0.143,-0.404,-0.902,+0.719,+0.171,-0.616,-0.938,-11.750,+0.500,1, -3, -3, 1, 11, 14, 22, 2,0.22534351918099846,0.8668325506225464
1503704105519,-0.059,-0.142,-0.404,-0.902,+0.750,+0.142,-0.574,-3.375,+2.188,+9.688,10, 41, 50, 15, 23, 10, 9, 8,0.22810977787050588,0.8666887635078645
1503704105541,-0.060,-0.142,-0.408,-0.900,+0.766,+0.138,-0.546,-7.812,+17.688,+9.188,-16, -8, -4, 2, 13, 7, -3, -18,0.23085283269293533,0.8756309574225853
1503704105557,-0.062,-0.142,-0.411,-0.898,+0.862,+0.201,-0.580,-5.125,+15.562,+9.938,-14, -3, 19, 8, -1, 10, 5, -11,0.23514749275146538,0.8823166900744461
1503704105579,-0.063,-0.141,-0.412,-0.898,+0.827,+0.178,-0.595,+1.875,+2.188,+7.438,27, -6, -18, -4, -14, 2, 4, 36,0.23631929732885476,0.8844355688672274
1503704105602,-0.063,-0.139,-0.411,-0.899,+0.804,+0.151,-0.587,+6.312,-8.375,-0.812,-21, -13, -11, -5, -13, -2, -7, -13,0.2342664450979598,0.8814604439513021
1503704105617,-0.061,-0.137,-0.409,-0.900,+0.794,+0.175,-0.588,+12.000,-12.500,-12.500,1, -6, -11, -6, -11, -4, -7, -6,0.2282664877313482,0.8756884533950207
1503704105639,-0.057,-0.136,-0.406,-0.902,+0.781,+0.179,-0.574,+14.500,-15.250,-18.438,-16, -6, -12, -2, 21, 10, 7, 8,0.21936843918052343,0.868170306711801
1503704105662,-0.054,-0.135,-0.405,-0.903,+0.743,+0.158,-0.534,+12.500,-10.250,-18.438,15, -3, -3, -4, -16, -18, -2, -6,0.21273867612337702,0.8652203812859107
1503704105684,-0.051,-0.134,-0.405,-0.903,+0.742,+0.198,-0.562,+9.875,-1.312,-15.750,10, -2, -4, -8, -2, 3, 4, 11,0.20627286924956328,0.8641986363020207
1503704105701,-0.047,-0.134,-0.405,-0.903,+0.737,+0.229,-0.580,+7.875,+3.188,-15.062,12, 3, -3, -1, -1, 3, 4, 10,0.19888601143517218,0.863487591561055
1503704105721,-0.044,-0.133,-0.405,-0.904,+0.740,+0.222,-0.628,+15.000,+6.750,-16.250,5, 1, 2, 3, -12, 3, 7, -12,0.192518851576702,0.8630186161183174
1503704105737,-0.041,-0.132,-0.406,-0.903,+0.759,+0.222,-0.639,+10.938,+10.688,-9.875,-3, -1, -3, -6, -8, -4, -1, 1,0.18624612346762048,0.8639436331119702
1503704105759,-0.041,-0.130,-0.408,-0.903,+0.803,+0.209,-0.612,+7.688,+13.000,+4.750,9, 0, -2, -1, 0, 0, -1, 5,0.18494044423584624,0.8679431210281683
1503704105781,-0.042,-0.128,-0.409,-0.903,+0.838,+0.210,-0.610,+5.375,+1.438,+11.000,71, 13, 8, -1, -2, -3, 2, 15,0.1852091109864338,0.8696623977653685
1503704105796,-0.043,-0.127,-0.408,-0.903,+0.784,+0.208,-0.574,+0.688,-7.812,+8.000,31, -3, 0, 2, 6, -12, -5, -1,0.1858807464241635,0.8669163089219605
1503704105819,-0.044,-0.127,-0.407,-0.903,+0.726,+0.210,-0.571,+1.062,-6.688,+5.938,32, 7, 1, -7, -8, -3, -10, -4,0.1874682382616829,0.8646252071683854
1503704105842,-0.045,-0.126,-0.407,-0.904,+0.695,+0.201,-0.621,-0.062,-0.750,+5.500,-69, -3, 2, 3, -1, -7, -4, -11,0.18848894901964783,0.8648794829599791
1503704105857,-0.044,-0.127,-0.408,-0.903,+0.662,+0.200,-0.626,-4.250,+13.500,-3.312,42, -3, -1, -4, 3, -7, -2, 7,0.18772259371159808,0.8670838619372967
1503704105879,-0.042,-0.128,-0.411,-0.902,+0.753,+0.233,-0.601,-3.688,+25.750,-7.375,0, -6, -1, -2, -1, 2, 6, 3,0.18563813526007053,0.8740528643370742
1503704105902,-0.040,-0.130,-0.414,-0.900,+0.851,+0.257,-0.552,-2.062,+18.250,-8.188,9, -14, -14, -3, 5, 3, -4, 7,0.1844223796796004,0.880966358718602
1503704105918,-0.038,-0.131,-0.415,-0.900,+0.884,+0.258,-0.534,+1.625,+0.000,-10.812,-13, -9, -2, 2, 0, 2, 3, 1,0.1819412175803393,0.8835648304641118
1503704105940,-0.038,-0.132,-0.413,-0.901,+0.803,+0.289,-0.552,-0.125,-17.688,-3.250,28, 1, 0, 2, -5, -2, -1, 7,0.1824184123756126,0.8796164137250088
1503704105961,-0.038,-0.132,-0.409,-0.902,+0.676,+0.251,-0.598,-3.375,-16.625,+1.438,5, 6, 4, 0, -3, -3, 4, 8,0.18143331774976162,0.870272894466182
1503704105976,-0.040,-0.133,-0.409,-0.902,+0.678,+0.251,-0.626,-7.625,+0.500,+8.750,26, 2, -5, -1, -1, 3, -4, 10,0.18603853550477806,0.8710876394150758
1503704105999,-0.042,-0.133,-0.409,-0.902,+0.776,+0.251,-0.629,-8.812,+5.062,+12.938,-25, -8, -8, -3, -3, 1, 9, 23,0.18972361528496895,0.8714376763472839
1503704106021,-0.044,-0.134,-0.410,-0.901,+0.839,+0.238,-0.601,-7.250,-0.812,+13.125,21, 0, 3, 1, 7, 0, -9, -3,0.19451474907037022,0.8741912738944078
1503704106037,-0.046,-0.133,-0.409,-0.902,+0.815,+0.236,-0.583,-3.375,-9.250,+11.750,19, 0, -2, 28, 37, 5, 8, 10,0.19709518306626603,0.8721368772720541
1503704106059,-0.048,-0.133,-0.408,-0.902,+0.760,+0.227,-0.597,-1.188,-8.562,+11.500,9, -4, -6, -11, -10, 0, 4, -3,0.20051575135817287,0.8700246156469403
1503704106081,-0.050,-0.132,-0.408,-0.902,+0.756,+0.220,-0.639,+1.250,+1.375,+14.250,-14, 4, 3, -8, -51, -11, 10, -15,0.20327865454404162,0.8698955313333067
1503704106096,-0.052,-0.130,-0.410,-0.901,+0.788,+0.213,-0.611,+0.062,+13.938,+17.000,-3, -18, -9, 3, 10, 4, 3, 10,0.20553403951276208,0.8736702805420392
1503704106119,-0.054,-0.129,-0.414,-0.900,+0.850,+0.201,-0.595,+2.875,+20.625,+19.625,-17, 5, 7, -3, -24, -3, 17, -7,0.20920986195223132,0.8828472523712765
1503704106141,-0.056,-0.126,-0.418,-0.898,+0.870,+0.188,-0.582,+6.062,+17.562,+18.562,20, -10, -9, -7, 4, -6, -3, 18,0.21086898745003263,0.8905565035898623
1503704106157,-0.058,-0.124,-0.420,-0.897,+0.846,+0.181,-0.582,+9.625,+12.125,+17.250,24, 10, -2, 3, 9, 4, -8, -6,0.21303717214203702,0.894345028040889
1503704106179,-0.060,-0.120,-0.423,-0.896,+0.820,+0.169,-0.603,+11.375,+14.000,+17.938,6, -13, -2, 1, 10, 2, -9, -5,0.21354037969815656,0.8996899484099476
1503704106204,-0.061,-0.117,-0.426,-0.895,+0.823,+0.179,-0.586,+11.438,+17.125,+20.062,7, 9, 1, -2, 4, 2, -13, -8,0.21312287367152707,0.9053716307919881
1503704106217,-0.063,-0.114,-0.430,-0.893,+0.819,+0.144,-0.552,+9.938,+19.438,+21.562,-32, 0, -2, -8, -15, -1, -12, -12,0.21459711293090655,0.9131723205397324
1503704106240,-0.065,-0.111,-0.434,-0.892,+0.815,+0.150,-0.554,+10.562,+24.062,+22.250,-6, -4, -1, -8, 6, -3, -15, -5,0.216144076113438,0.9215332473663216
1503704106261,-0.067,-0.108,-0.438,-0.890,+0.840,+0.143,-0.550,+12.250,+24.188,+18.562,-68, -9, 18, -1, -4, -6, -3, -9,0.2175114525925947,0.929393935507901
1503704106278,-0.068,-0.105,-0.442,-0.888,+0.845,+0.141,-0.549,+14.188,+22.375,+15.938,37, 6, -1, 0, 5, 0, 21, 44,0.21701654893989075,0.9371618926249982
1503704106299,-0.068,-0.101,-0.446,-0.887,+0.829,+0.118,-0.547,+15.312,+21.938,+14.688,12, -5, -6, -2, 18, 2, -3, -7,0.21384255623620024,0.94496809584407
1503704106321,-0.068,-0.098,-0.450,-0.885,+0.819,+0.106,-0.540,+15.438,+22.438,+12.500,-19, 2, -1, -1, -19, -8, -14, -5,0.21145939011559398,0.9527223791243418
1503704106340,-0.068,-0.095,-0.454,-0.883,+0.808,+0.092,-0.528,+13.188,+24.812,+10.188,-44, 2, 2, -4, -13, -5, -3, -12,0.20903993561460843,0.960532501798143
1503704106359,-0.069,-0.093,-0.458,-0.882,+0.816,+0.079,-0.498,+10.000,+24.938,+9.438,-18, -14, -7, -6, -6, 1, -7, -8,0.20948690236117642,0.9694104206401152
1503704106381,-0.069,-0.091,-0.462,-0.880,+0.810,+0.101,-0.514,+10.750,+25.312,+7.688,23, 7, 2, -5, -11, -17, 3, 10,0.2079770170224286,0.9776981358221557
1503704106397,-0.069,-0.089,-0.464,-0.878,+0.821,+0.093,-0.499,+5.500,+18.188,+5.375,4, -3, 0, 0, 2, -1, -2, -16,0.20609034890671712,0.980963904732358
1503704106419,-0.069,-0.089,-0.466,-0.878,+0.768,+0.093,-0.483,+0.562,+12.875,+6.000,10, -1, 2, -7, -43, -8, -17, -21,0.20644029229559827,0.9860286387025723
1503704106442,-0.070,-0.089,-0.468,-0.877,+0.727,+0.086,-0.497,-4.438,+16.562,+3.375,-3, -3, -6, 1, 5, -2, 1, 11,0.20843555854617463,0.9906811700010031
1503704106459,-0.069,-0.091,-0.471,-0.875,+0.792,+0.126,-0.498,-6.500,+20.250,-0.125,-12, -2, -3, -10, -11, -8, -3, 7,0.20890872355844783,0.9979315553934736
1503704106478,-0.069,-0.092,-0.473,-0.874,+0.834,+0.156,-0.489,-2.562,+15.375,-1.750,-69, -11, -3, -4, 5, 0, 11, -2,0.21013673826952708,1.0028922609733966
1503704106500,-0.067,-0.092,-0.473,-0.874,+0.857,+0.150,-0.493,+1.375,+4.000,-4.438,-62, -8, 1, 6, -10, -6, -4, -14,0.20658732291637133,1.0026934319058793
1503704106523,-0.066,-0.092,-0.472,-0.874,+0.814,+0.133,-0.517,+4.625,-2.875,-3.875,-34, -9, 0, 3, 16, -7, -3, 4,0.20463230466565224,1.0000473118212199
1503704106543,-0.066,-0.091,-0.471,-0.875,+0.790,+0.117,-0.545,+4.750,+0.438,-0.062,76, -5, -10, -7, 4, 7, 7, 26,0.20357970077062953,0.9976342103643652
1503704106560,-0.065,-0.090,-0.473,-0.874,+0.832,+0.108,-0.527,+6.875,+10.812,+3.812,36, 11, 1, 6, 24, 27, 2, -8,0.2010306465179633,1.0017374675899187
1503704106575,-0.065,-0.087,-0.475,-0.873,+0.924,+0.089,-0.515,+10.875,+13.938,+6.938,-38, -2, -7, -9, -6, 10, -1, -5,0.19823995333199737,1.005213879386222
1503704106598,-0.065,-0.084,-0.477,-0.872,+0.953,+0.089,-0.509,+15.500,+8.812,+7.938,23, 3, 2, 3, -5, -21, -6, -10,0.19543559081246165,1.008727690565464
1503704106620,-0.064,-0.081,-0.478,-0.872,+0.916,+0.094,-0.507,+18.562,+1.688,+7.812,-45, -6, -1, -6, -14, 14, 1, 1,0.19081894667415294,1.0101462886478734
1503704106650,-0.065,-0.077,-0.478,-0.873,+0.902,+0.087,-0.504,+20.062,+0.062,+13.125,6, 4, 4, 6, 12, -4, 0, 24,0.18870804635973173,1.0093920713399633
1503704119828,-0.086,-0.161,-0.348,-0.919,+0.927,+0.194,-0.703,-7.438,-45.688,-19.312,6, 6, 2, -1, -12, -13, 2, -6,0.2817116684226245,0.7572726491918794
1503704119849,-0.083,-0.163,-0.340,-0.922,+0.887,+0.177,-0.625,-9.625,-61.375,-33.250,8, -7, -10, 1, 3, -1, 0, 30,0.2756189737160763,0.7404223811213235
1503704119867,-0.079,-0.165,-0.332,-0.925,+0.773,+0.212,-0.564,-7.062,-55.625,-37.250,2, 10, 9, 11, -6, -8, 5, 27,0.2674854952193156,0.7233468733058005
1503704119888,-0.075,-0.167,-0.327,-0.927,+0.675,+0.189,-0.629,-5.750,-28.938,-36.438,-40, -21, -15, -12, -17, 2, -7, -23,0.26007742631064534,0.7127802207099104
1503704119910,-0.071,-0.169,-0.324,-0.928,+0.727,+0.118,-0.697,-14.562,-17.000,-36.438,-25, -13, -16, 1, -2, -9, -15, -43,0.2531235372779917,0.706356428254984
1503704119926,-0.067,-0.172,-0.323,-0.928,+0.628,+0.162,-0.729,-15.375,-1.312,-34.250,38, 6, -5, -2, -4, 2, 2, 24,0.24750257976372766,0.7046431925894836
1503704119948,-0.066,-0.173,-0.325,-0.928,+0.720,+0.134,-0.667,-13.062,+9.062,-15.562,9, -2, 5, -2, 0, -2, 2, -5,0.2470879012225111,0.7096309610922812
1503704119970,-0.067,-0.172,-0.330,-0.926,+0.820,+0.062,-0.706,-8.375,+19.938,+1.500,-8, -2, -1, 1, -2, -12, -8, 3,0.24966006811371733,0.7200467782105218
1503704119986,-0.068,-0.168,-0.331,-0.926,+0.793,+0.051,-0.706,+8.750,-2.000,+4.062,7, 15, 1, -9, -9, 0, 2, 10,0.2485777103815144,0.7203788259782407
1503704120008,-0.068,-0.161,-0.330,-0.928,+0.724,-0.001,-0.716,+22.312,-13.688,-2.125,-8, 0, 2, -5, -8, -6, 3, -9,0.242712429482365,0.7151835904816811
1503704120030,-0.067,-0.157,-0.330,-0.928,+0.675,+0.107,-0.707,+14.688,-1.688,-6.375,-4, -7, -8, -2, -7, 8, 4, -6,0.23751021979640682,0.7127928857583371
1503704120046,-0.066,-0.155,-0.331,-0.928,+0.648,+0.281,-0.660,+13.562,+6.875,+3.938,6, 0, 1, 0, -5, -10, -6, -20,0.2342703733697346,0.7138400330858725
1503704120068,-0.068,-0.152,-0.336,-0.927,+0.706,+0.297,-0.665,+15.000,+19.250,+19.188,8, 0, -4, -2, 22, 1, 13, 6,0.2370714638947563,0.7239540133779963
1503704120090,-0.070,-0.149,-0.341,-0.926,+0.780,+0.344,-0.668,+18.250,+23.562,+24.250,-3, -11, -8, -11, -17, 3, 10, 12,0.2398058960518921,0.7340817887803146
1503704120106,-0.071,-0.146,-0.345,-0.925,+0.845,+0.397,-0.661,+23.750,+10.188,+24.875,10, 0, -1, 4, 0, -24, 5, 8,0.24027218241552867,0.7416504281813247
1503704120128,-0.074,-0.142,-0.345,-0.925,+0.849,+0.348,-0.665,+19.688,-12.875,+24.625,-1, 8, 7, 4, -6, -2, -1, -16,0.24269565272026197,0.7402723687620619
1503704120150,-0.076,-0.141,-0.342,-0.926,+0.737,+0.363,-0.669,+7.938,-23.250,+16.938,-10, -31, -7, -1, -3, -5, -6, 8,0.24500296904411012,0.7336793168562756
1503704120168,-0.077,-0.143,-0.339,-0.927,+0.624,+0.385,-0.682,-3.688,-19.562,+6.188,-44, -24, -25, -14, -13, -2, -7, -7,0.24785899734728437,0.7283990321036412
1503704120188,-0.077,-0.146,-0.336,-0.927,+0.582,+0.399,-0.654,-12.188,-9.000,+4.250,16, 15, 29, 5, 0, 6, 6, 6,0.2494455491573612,0.7229176847639777
1503704120210,-0.079,-0.149,-0.336,-0.927,+0.561,+0.364,-0.675,-14.312,+4.812,+14.750,20, 0, -27, -5, -5, 3, -1, -3,0.2557419637435029,0.7249324822799186
1503704120226,-0.083,-0.151,-0.339,-0.925,+0.674,+0.291,-0.700,-16.875,+19.875,+23.688,-27, -17, 7, 1, 1, 8, 4, 7,0.2656535573642843,0.7329032417464355
1503704120248,-0.088,-0.153,-0.343,-0.923,+0.719,+0.253,-0.692,-17.250,+18.312,+24.938,27, 16, -3, -3, -3, -3, -4, -4,0.2778001288529765,0.7434935220931856
1503704120270,-0.092,-0.153,-0.345,-0.922,+0.685,+0.180,-0.728,-13.062,+14.625,+22.500,17, 7, 3, 2, 7, 16, 9, 0,0.2859031685571423,0.7485888993769086
1503704120286,-0.094,-0.153,-0.346,-0.921,+0.622,+0.089,-0.681,-12.812,+8.688,+11.750,-8, 9, 12, 5, 5, -11, 12, -2,0.2898585104095647,0.7508761459900394
1503704120310,-0.094,-0.154,-0.347,-0.920,+0.564,+0.151,-0.672,-12.125,+14.000,-8.375,-1, 4, 4, 14, 16, 12, -4, 6,0.29083570019889327,0.7532756765076126
1503704120330,-0.093,-0.155,-0.348,-0.920,+0.598,+0.219,-0.726,-5.000,+13.938,-4.000,-8, -3, -1, -6, -14, -12, -2, 2,0.2900863458252459,0.7559685341217512
1503704120352,-0.093,-0.155,-0.350,-0.919,+0.739,+0.207,-0.761,-1.062,+12.438,+1.875,1, 9, -2, -1, -7, -4, 0, 2,0.2905126447281017,0.7601548101432831
1503704120368,-0.093,-0.153,-0.351,-0.919,+0.680,+0.218,-0.759,+8.938,+11.062,+6.125,3, -19, -7, -2, -3, -4, -11, 7,0.2890777197952079,0.7613629659408805
1503704120390,-0.094,-0.151,-0.354,-0.918,+0.689,+0.179,-0.677,+4.812,+16.625,+9.688,-16, -26, -4, -2, 3, 2, -10, -16,0.2899617539798525,0.7669977825961446
1503704120406,-0.095,-0.148,-0.356,-0.918,+0.659,+0.167,-0.663,+8.062,+13.438,+10.250,-11, 7, -12, -4, -4, 6, -3, 23,0.2898457686416818,0.7702424680667691
1503704120428,-0.096,-0.146,-0.359,-0.917,+0.674,+0.172,-0.672,+5.250,+18.375,+14.500,-11, -3, 63, 17, -2, -2, -6, -16,0.29068588256577316,0.7758980293114449
1503704120450,-0.099,-0.144,-0.361,-0.916,+0.739,+0.173,-0.702,+4.438,+9.688,+21.688,-17, -15, -5, -2, 4, 1, 2, -10,0.29502740332241306,0.7796176477067275
1503704132599,+0.091,-0.036,-0.544,-0.833,+0.908,+0.198,-0.361,+3.500,+23.000,-6.438,8, 1, -3, -3, 1, -4, 1, -3,-0.11413548669144129,1.1473440139752062
1503704132614,+0.092,-0.035,-0.546,-0.832,+1.003,+0.173,-0.346,+7.312,+11.312,-1.562,-6, -19, -13, -6, -2, -6, -3, -20,-0.11660650530105691,1.1522176238974755
1503704132636,+0.094,-0.034,-0.545,-0.833,+0.993,+0.169,-0.348,+8.750,-9.438,-4.938,-1, 2, 1, 0, 0, -1, -4, 1,-0.12138201647918612,1.1498553147937494
1503704132660,+0.096,-0.034,-0.542,-0.834,+0.901,+0.171,-0.374,+12.812,-18.312,-7.812,17, -3, -2, 1, 0, -2, -3, 2,-0.12522463385440913,1.1421459587881915
1503704132674,+0.099,-0.032,-0.539,-0.836,+0.855,+0.189,-0.400,+15.312,-15.000,-6.625,23, 2, 0, 3, -1, -17, -1, 5,-0.13313932197484818,1.134808889807293
1503704132696,+0.102,-0.030,-0.537,-0.837,+0.855,+0.195,-0.449,+20.875,+0.562,-4.562,3, 0, -2, -2, 0, 3, 2, 8,-0.14079451921849112,1.1297510233362817
1503704132723,+0.105,-0.028,-0.538,-0.836,+0.870,+0.241,-0.432,+20.875,+9.812,-4.375,-22, 1, 3, 3, -1, -9, -3, 0,-0.14786279580995013,1.1318702596852246
1503704132734,+0.108,-0.026,-0.539,-0.835,+0.906,+0.257,-0.414,+19.625,+15.875,-0.062,0, 7, 9, 3, -6, -20, -2, -8,-0.15493493765214345,1.134016666687573
1503704132758,+0.109,-0.022,-0.541,-0.834,+0.952,+0.274,-0.401,+21.250,+16.000,+8.188,-12, -11, -4, -3, 0, 3, -1, 4,-0.16061897710410256,1.1389427280728808
1503704132779,+0.111,-0.019,-0.541,-0.833,+1.001,+0.282,-0.427,+25.812,+7.250,+9.375,-1, -2, 0, 0, -2, 3, 0, -18,-0.16707343316225415,1.1385030741439948
1503704132794,+0.114,-0.015,-0.540,-0.834,+0.940,+0.261,-0.439,+27.125,-4.250,+6.062,11, 2, -1, -1, -2, 2, 1, 8,-0.17681074241031633,1.1363586168523625
1503704132817,+0.115,-0.010,-0.538,-0.835,+0.879,+0.177,-0.527,+30.500,+3.938,+15.938,-1, 2, -1, -2, -1, 1, 2, -2,-0.184143667275356,1.1316943087373879
1503704132839,+0.115,-0.005,-0.539,-0.835,+0.816,+0.170,-0.410,+22.125,+11.812,+14.625,-2, 4, 3, 1, -9, -3, -4, 4,-0.1894418836110034,1.134731996213608
1503704132860,+0.115,-0.002,-0.540,-0.834,+0.823,+0.121,-0.294,+13.188,+12.062,+14.375,-1, -1, 2, -4, -2, -18, 0, -1,-0.19240446954036308,1.1372103030740803
1503704132877,+0.114,+0.002,-0.545,-0.831,+0.962,+0.088,-0.268,+13.000,+23.875,+9.812,-13, -8, -2, -1, 2, 6, -2, 4,-0.1942819594826705,1.1496585031645865
1503704132899,+0.113,+0.004,-0.547,-0.830,+1.069,+0.066,-0.271,+0.875,+6.438,+7.438,-3, -7, -7, 2, 2, 8, -1, -3,-0.19450265849039994,1.1547940304918807
1503704132915,+0.111,+0.006,-0.545,-0.831,+0.993,+0.004,-0.360,-0.562,-10.938,+5.750,-8, 18, 20, 6, 5, 7, 1, 8,-0.1934140927556954,1.1500776242925344
1503704132937,+0.112,+0.007,-0.543,-0.832,+0.853,+0.013,-0.421,+3.250,-6.875,-2.438,-2, 5, -3, -1, 0, 7, 0, 0,-0.19641608880928657,1.145281152840439
1503704132960,+0.113,+0.007,-0.543,-0.832,+0.837,+0.096,-0.415,+3.375,+0.375,-7.375,5, 2, -1, 5, 3, 4, 0, 5,-0.19814662720724452,1.1452869682600368
1503704132974,+0.115,+0.008,-0.542,-0.833,+0.925,+0.059,-0.364,+6.500,-3.312,-8.312,9, 1, 1, 0, -8, -10, -1, -2,-0.20289894867722497,1.1431930254399674
1503704132997,+0.115,+0.007,-0.540,-0.834,+0.945,+0.048,-0.313,-0.375,-19.500,-8.062,17, -5, -3, -4, -3, 8, 0, 0,-0.20202344590492213,1.138167476806271
1503704133019,+0.116,+0.006,-0.537,-0.836,+0.907,+0.053,-0.312,-4.000,-25.562,-7.438,2, 4, -4, -2, 1, 1, -1, 1,-0.20311342019515644,1.1309439972192623
1503704133035,+0.116,+0.005,-0.533,-0.838,+0.888,+0.041,-0.382,-5.188,-28.812,-9.750,-8, -8, 1, -2, 4, 10, 1, -4,-0.20246803848486525,1.1210731064892596
1503704133057,+0.120,+0.003,-0.530,-0.840,+0.874,+0.096,-0.451,+1.000,-15.688,-28.312,0, 4, 6, 0, 2, -1, 0, -6,-0.2078123396147814,1.1137942035525803
1503704133079,+0.126,+0.000,-0.530,-0.839,+0.884,+0.110,-0.362,+4.875,-0.625,-39.875,11, 10, 4, 0, 1, 2, 2, 6,-0.21498682658698923,1.1129856837298473
1503704133095,+0.132,-0.002,-0.531,-0.837,+0.886,+0.079,-0.304,+3.938,+4.250,-39.625,-10, -11, -11, -2, 1, 0, -2, 2,-0.2229771249335365,1.1144813707774353
1503704133117,+0.137,-0.006,-0.532,-0.835,+1.030,+0.203,-0.310,-6.250,+1.812,-36.312,9, -5, -4, -4, -2, -1, -2, -7,-0.22711057290516692,1.1157719429849848
1503704133139,+0.141,-0.007,-0.529,-0.837,+1.046,+0.207,-0.468,+12.312,-20.000,-22.750,-8, -5, -5, -1, -2, -4, -2, -2,-0.23376608512908978,1.1085676038039103
1503704133159,+0.143,-0.008,-0.527,-0.838,+0.983,+0.144,-0.395,-1.000,-21.750,-10.750,5, -1, -3, 0, 0, -1, -1, -6,-0.23661178299859711,1.103584462253123
1503704133176,+0.140,-0.008,-0.528,-0.838,+0.963,+0.152,-0.330,-8.312,+2.688,+10.062,-19, -5, -5, -4, -2, 0, -1, -1,-0.23124012015980122,1.106279026753755
1503704133200,+0.136,-0.007,-0.532,-0.836,+0.972,+0.190,-0.367,-13.812,+19.625,+24.688,-3, -11, -4, -5, -5, 2, -2, -5,-0.22456340212040926,1.1161532339235964
1503704133222,+0.131,-0.007,-0.533,-0.836,+0.988,+0.202,-0.412,-17.562,+7.625,+23.250,1, -6, -2, -2, 1, -2, -2, 6,-0.21570297934355506,1.1188627613588167
1503704133236,+0.128,-0.009,-0.533,-0.836,+0.960,+0.176,-0.406,-18.438,-2.875,+14.250,-5, -1, -4, 2, -1, 0, -1, -1,-0.20831625466112172,1.1187133120842416
1503704133259,+0.125,-0.011,-0.534,-0.836,+0.885,+0.147,-0.386,-21.125,-1.000,+7.562,4, 15, 4, 1, 1, -5, -1, 5,-0.20091791287233826,1.1212704287216038
1503704133281,+0.123,-0.014,-0.535,-0.836,+0.864,+0.200,-0.372,-21.375,+4.438,+0.375,2, 3, 1, 1, 2, 8, -1, -9,-0.1942253005750906,1.123785861645093
1503704133297,+0.123,-0.018,-0.536,-0.835,+0.917,+0.239,-0.379,-21.438,+4.312,-9.000,15, -3, 4, 2, -1, -1, 2, -5,-0.18973927362777815,1.1258089780125393
1503704133319,+0.123,-0.022,-0.536,-0.835,+0.936,+0.242,-0.417,-17.375,-1.188,-7.000,5, 4, -2, -2, -1, -3, -1, 2,-0.1855283080200016,1.1256723101755512
1503704133342,+0.122,-0.025,-0.535,-0.836,+0.896,+0.225,-0.419,-16.312,-5.375,+1.188,-10, -7, -10, -4, -2, -3, -3, 4,-0.18090768221961084,1.1234058981145454
1503704133360,+0.120,-0.027,-0.535,-0.836,+0.870,+0.183,-0.368,-21.000,-3.000,+2.562,-6, -7, -1, 1, 1, 0, 2, 3,-0.1752912262915444,1.123429386127431
1503704142485,-0.029,+0.144,-0.510,-0.848,+0.822,-0.316,-0.407,+21.875,-20.875,-11.000,0, -6, -1, -2, -8, -3, 2, 6,-0.10174951803572548,1.0978310278877266
1503704142507,-0.025,+0.146,-0.508,-0.848,+0.771,-0.298,-0.376,+22.000,-13.062,-15.312,1, 1, 3, 1, 0, 4, -6, -4,-0.11034795696397258,1.0940262433507726
1503704142523,-0.020,+0.148,-0.508,-0.848,+0.757,-0.295,-0.354,+20.000,-3.500,-23.125,-15, -12, -3, -4, -1, -3, -1, -18,-0.12128679845637565,1.095770360131973
1503704142545,-0.015,+0.148,-0.510,-0.847,+0.851,-0.316,-0.297,+11.188,+2.875,-26.750,3, -1, -2, 0, -1, 1, 5, -4,-0.13061600617261368,1.1013557216482504
1503704142567,-0.011,+0.148,-0.512,-0.846,+0.951,-0.304,-0.294,+7.875,+5.312,-28.688,0, 3, -2, 0, 2, -2, -1, 6,-0.13817963229230606,1.106796539866111
1503704142582,-0.005,+0.146,-0.513,-0.846,+0.959,-0.292,-0.388,+3.625,-6.875,-34.188,3, -1, -4, -6, -3, -2, 0, 8,-0.1465786001964917,1.1092170092228109
1503704142605,+0.001,+0.142,-0.511,-0.848,+0.900,-0.231,-0.437,+2.062,-15.875,-39.875,-7, -2, -1, -5, -2, -3, -4, -13,-0.15181295085767066,1.1035011663731777
1503704142628,+0.007,+0.139,-0.511,-0.849,+0.825,-0.195,-0.378,-2.500,-7.562,-35.438,9, -1, -3, -2, -2, -1, 8, 25,-0.15879970005350055,1.1031971490041121
1503704142642,+0.009,+0.136,-0.513,-0.847,+0.945,-0.191,-0.315,-6.625,+10.062,-18.312,-3, 5, 2, 4, 3, 0, -2, -10,-0.15939101723630542,1.1062907663526966
1503704142666,+0.010,+0.135,-0.516,-0.846,+1.035,-0.232,-0.310,-6.875,+8.312,-9.875,-4, -3, -1, -2, -5, 1, -4, 0,-0.16078406294299874,1.1134237719426046
1503704142686,+0.009,+0.133,-0.516,-0.846,+0.974,-0.248,-0.358,-13.625,-5.875,-1.375,2, 2, 11, 4, -1, -5, -1, 11,-0.15680504815327662,1.1123001993132737
1503704142701,+0.008,+0.132,-0.515,-0.847,+0.939,-0.239,-0.384,-13.188,-10.875,+0.875,6, 2, -1, -2, -1, -1, -2, -6,-0.15370878331053603,1.1094923926671112
1503704142725,+0.005,+0.130,-0.513,-0.849,+0.901,-0.264,-0.367,-21.062,-14.500,+7.062,7, -2, 0, 1, 4, -1, -2, 3,-0.14579860064752848,1.1037842855762399
1503704142748,+0.001,+0.127,-0.513,-0.849,+0.873,-0.235,-0.332,-31.438,-1.125,+7.438,-9, 0, 1, -3, 6, -1, -1, -15,-0.1355636814266508,1.1018925003470696
1503704142769,-0.002,+0.122,-0.514,-0.849,+0.854,-0.156,-0.358,-34.000,+6.125,+6.188,-3, 10, 23, 4, 1, -1, 2, -22,-0.12510792965965753,1.1019365630621654
1503704142793,-0.005,+0.117,-0.514,-0.850,+0.838,-0.132,-0.417,-31.688,+6.312,+3.375,-5, -7, -8, 0, -1, -2, -7, 7,-0.1144262147705184,1.0999188495679628
1503704142807,-0.007,+0.114,-0.513,-0.851,+0.871,-0.148,-0.443,-21.688,-3.188,-1.250,9, -15, -2, -1, -1, -2, 0, 8,-0.10744875078960965,1.0962806224335064
1503704142821,-0.005,+0.111,-0.512,-0.852,+0.882,-0.167,-0.517,-9.312,-5.062,-12.562,-2, -3, -2, -4, -3, -1, 2, 5,-0.10739118816815744,1.0931088170540568
1503704142844,-0.003,+0.109,-0.510,-0.854,+0.842,-0.198,-0.469,-4.812,-13.625,-17.875,9, 5, 2, 7, 3, 0, -2, 0,-0.10821504068488307,1.0881923699568663
1503704142867,+0.000,+0.107,-0.507,-0.855,+0.866,-0.220,-0.386,-4.500,-20.125,-22.875,-4, 7, 1, 3, 3, 1, 0, -10,-0.11058757715827139,1.0802824004036098
1503704142889,+0.004,+0.104,-0.506,-0.856,+0.894,-0.202,-0.332,-7.312,-18.312,-29.188,0, 7, 5, -3, 1, -2, -1, -17,-0.11408073467743284,1.0773970443766538
1503704142904,+0.008,+0.101,-0.505,-0.857,+0.914,-0.189,-0.363,-8.375,-14.500,-26.562,16, 2, 1, 0, -5, -8, 0, 30,-0.11760239372450534,1.0745320630159763
1503704142926,+0.010,+0.096,-0.504,-0.858,+0.935,-0.154,-0.424,-17.250,-12.375,-25.062,-13, -13, -8, -4, -5, -5, -6, -34,-0.1155736604394242,1.0707876703448005
1503704142942,+0.012,+0.092,-0.503,-0.859,+0.907,-0.122,-0.412,-17.125,-8.625,-18.062,-1, 0, -2, -5, -13, -4, -1, -1,-0.11464549056372748,1.0674615065331223
1503704142964,+0.013,+0.088,-0.502,-0.860,+0.889,-0.113,-0.415,-19.000,-11.500,-15.375,-14, -8, -3, -1, -3, -2, 0, -4,-0.11202136180505493,1.0641004092960287
1503704142986,+0.013,+0.084,-0.501,-0.861,+0.913,-0.109,-0.451,-21.000,-10.938,-14.375,5, -3, -2, -3, -5, 0, 6, -6,-0.10769794855985439,1.0607141737492203
1503704143002,+0.014,+0.080,-0.499,-0.863,+0.912,-0.111,-0.474,-17.438,-13.875,-10.188,1, 1, -3, -1, -1, 0, 1, 2,-0.10500670363347951,1.0553583012696017
1503704143024,+0.013,+0.077,-0.496,-0.865,+0.957,-0.149,-0.462,-21.688,-20.188,-6.062,-20, -3, -2, -3, 0, 2, -4, -13,-0.09976246907585483,1.0475975247719798
1503704143046,+0.012,+0.074,-0.494,-0.867,+0.945,-0.115,-0.490,-20.125,-19.188,-1.312,4, -4, -14, -5, -1, 0, 2, -9,-0.09470351764807469,1.0424967799895708
1503704143062,+0.011,+0.071,-0.491,-0.869,+0.848,-0.064,-0.503,-21.312,-17.000,+1.188,5, 8, 0, -3, -3, -1, 0, 4,-0.08952679545181606,1.0348577540166473
1503704143084,+0.009,+0.068,-0.488,-0.870,+0.827,-0.071,-0.485,-17.125,-11.562,+7.188,0, 3, 4, 1, -1, -8, -4, 9,-0.08261872014981815,1.0267034023961554
1503704143107,+0.006,+0.067,-0.488,-0.870,+0.825,-0.080,-0.481,-14.688,+1.562,+9.938,-4, -6, -1, -1, -2, -10, -3, -20,-0.07637569373748782,1.0262521115309786
1503704143122,+0.003,+0.066,-0.489,-0.870,+0.858,-0.076,-0.471,-14.750,+8.500,+12.938,3, 4, 4, 1, 2, -1, -2, 9,-0.07026656535574764,1.0283990597687092
1503704143144,+0.000,+0.065,-0.491,-0.869,+0.917,-0.092,-0.436,-13.812,+8.938,+14.250,-1, 4, -2, 0, -4, -2, 4, 31,-0.06428525836453791,1.0326432772176377
1503704143167,-0.002,+0.065,-0.492,-0.868,+0.933,-0.110,-0.478,-7.438,+6.750,+12.562,13, 4, -10, -3, -3, -1, -4, -1,-0.06092846500552008,1.0345977960612573
1503704153156,-0.081,-0.073,-0.503,-0.858,+0.939,+0.002,-0.385,-17.062,-35.250,-7.688,-1, -4, 3, 2, -1, -3, -3, -12,0.21426829369265543,1.0661225639383807
1503704153171,-0.082,-0.075,-0.499,-0.859,+0.923,+0.038,-0.436,-15.625,-22.062,-5.562,-10, -17, 0, -3, -2, -2, 2, 20,0.21768405830347082,1.0570031610102044
1503704153193,-0.083,-0.077,-0.496,-0.861,+0.918,+0.040,-0.429,-18.375,-21.812,-3.750,1, -9, -5, -3, 0, -1, 0, -6,0.22139073357793707,1.0510052114220778
1503704153216,-0.084,-0.081,-0.492,-0.863,+0.918,+0.041,-0.468,-20.688,-25.750,-10.062,-11, 1, 2, 2, -2, -4, -1, -18,0.22699749637182373,1.0431976277280455
