Timestamp,Orientation X,Orientation Y,Orientation Z,Orientation W,Accelerometer X,Accelerometer Y,Accelerometer Z,Gyroscope X,Gyroscope Y,Gyroscope Z,EMG1,EMG2,EMG3,EMG4,EMG5,EMG6,EMG7,EMG8,Roll,Yaw
1503704008789,-0.199,-0.090,-0.143,-0.965,+0.339,+0.125,-0.927,-1.250,+0.250,+0.125,0, -2, -1, 1, 0, -2, -2, -1,0.42537078816390994,0.31937133203283946
1503704008811,-0.199,-0.090,-0.143,-0.965,+0.339,+0.128,-0.920,-1.000,+0.438,+0.500,-2, -1, -2, -2, -3, 0, 3, -2,0.42537078816390994,0.31937133203283946
1503704008836,-0.199,-0.090,-0.143,-0.965,+0.344,+0.125,-0.926,-1.062,+0.000,+0.500,1, 0, 2, 1, 1, 0, -1, 1,0.42537078816390994,0.31937133203283946
1503704008856,-0.199,-0.090,-0.143,-0.965,+0.340,+0.131,-0.924,-1.062,+0.188,+0.250,-1, -3, -2, -3, -2, 0, 1, 2,0.42537078816390994,0.31937133203283946
1503704008871,-0.199,-0.090,-0.143,-0.965,+0.341,+0.131,-0.921,-0.938,+0.125,+0.125,-4, -2, 0, 1, 0, -2, -2, -2,0.42537078816390994,0.31937133203283946
1503704008893,-0.199,-0.090,-0.143,-0.965,+0.338,+0.123,-0.925,-0.938,+0.062,+0.312,-2, -4, -2, -1, 0, 1, -1, 0,0.42537078816390994,0.31937133203283946
1503704008915,-0.199,-0.090,-0.143,-0.965,+0.340,+0.130,-0.927,-1.562,+0.438,+0.500,0, 0, -2, 0, 0, -1, 0, -3,0.42537078816390994,0.31937133203283946
1503704008931,-0.199,-0.090,-0.143,-0.965,+0.346,+0.135,-0.924,-1.438,+0.875,+0.312,0, -1, 0, -3, 0, -1, 0, 1,0.42537078816390994,0.31937133203283946
1503704008953,-0.199,-0.090,-0.143,-0.965,+0.344,+0.124,-0.914,-1.062,+0.062,+0.375,-2, -1, -2, 0, -4, 0, -2, -2,0.42537078816390994,0.31937133203283946
1503704008975,-0.199,-0.090,-0.143,-0.965,+0.337,+0.126,-0.928,-1.125,-0.125,+0.188,-1, 1, 0, 0, 0, 0, -3, -3,0.42537078816390994,0.31937133203283946
1503704008990,-0.199,-0.090,-0.143,-0.965,+0.338,+0.126,-0.925,-1.188,+0.938,-0.062,0, 0, 0, 0, -2, -1, 1, 0,0.42537078816390994,0.31937133203283946
1503704009013,-0.199,-0.091,-0.143,-0.965,+0.346,+0.131,-0.928,-1.312,+1.312,-0.062,1, -1, 2, 0, -1, -1, 1, 0,0.4257836210369742,0.3198663769833721
1503704009035,-0.199,-0.091,-0.143,-0.965,+0.352,+0.130,-0.925,-1.062,+0.688,-0.062,2, 0, 0, -2, -1, -1, 0, 1,0.4257836210369742,0.3198663769833721
1503704009050,-0.199,-0.091,-0.143,-0.965,+0.345,+0.126,-0.925,-1.062,+0.250,+0.250,-2, -2, 0, -1, -2, -4, -2, -3,0.4257836210369742,0.3198663769833721
1503704009072,-0.199,-0.091,-0.143,-0.965,+0.345,+0.127,-0.918,-0.938,+0.625,+0.062,-1, 0, -1, -2, -1, 0, 0, 0,0.4257836210369742,0.3198663769833721
1503704009095,-0.199,-0.091,-0.143,-0.965,+0.345,+0.129,-0.926,-1.000,-0.500,+0.125,1, -2, -1, -1, -2, -1, -1, -1,0.4257836210369742,0.3198663769833721
1503704009110,-0.199,-0.091,-0.143,-0.965,+0.343,+0.126,-0.924,-1.250,-0.125,+0.250,2, 1, 2, 0, -2, -2, -1, 1,0.4257836210369742,0.3198663769833721
1503704009134,-0.199,-0.091,-0.143,-0.965,+0.344,+0.126,-0.928,-1.312,-0.500,+0.125,0, 1, 0, -1, 0, -1, -1, 1,0.4257836210369742,0.3198663769833721
1503704009155,-0.199,-0.091,-0.143,-0.965,+0.345,+0.130,-0.922,-1.562,-0.375,+0.188,0, -1, 0, -1, 1, 0, -1, 0,0.4257836210369742,0.3198663769833721
1503704009170,-0.199,-0.091,-0.143,-0.965,+0.344,+0.128,-0.924,-1.562,+0.000,-0.312,-4, -4, -2, -1, -2, -1, 1, -1,0.4257836210369742,0.3198663769833721
1503704009194,-0.199,-0.091,-0.143,-0.965,+0.344,+0.128,-0.926,-1.562,-0.750,-0.125,0, 0, -3, 0, -2, 2, -1, 0,0.4257836210369742,0.3198663769833721
1503704009215,-0.199,-0.091,-0.143,-0.965,+0.344,+0.129,-0.925,-1.500,-0.750,+0.375,0, 0, 0, 0, -2, -3, 0, -3,0.4257836210369742,0.3198663769833721
1503704009230,-0.199,-0.091,-0.143,-0.965,+0.340,+0.131,-0.923,-1.438,-0.812,+0.375,-1, -1, -2, -1, 2, 2, 0, -2,0.4257836210369742,0.3198663769833721
1503704009252,-0.199,-0.091,-0.144,-0.965,+0.384,+0.124,-0.958,-0.500,+1.688,+0.000,1, -1, -1, 0, 0, -1, -2, 0,0.4259505462826853,0.3218932279191623
1503704009275,-0.199,-0.091,-0.143,-0.965,+0.347,+0.142,-0.939,-1.250,-4.062,+0.812,0, 0, -1, 0, 0, -2, -1, 1,0.4257836210369742,0.3198663769833721
1503704009290,-0.199,-0.091,-0.143,-0.965,+0.342,+0.137,-0.931,-1.562,-0.312,+0.188,-3, 0, 0, 0, -1, -1, -1, -4,0.4257836210369742,0.3198663769833721
1503704009313,-0.199,-0.091,-0.143,-0.965,+0.341,+0.134,-0.919,-0.625,-0.625,+0.000,-3, -2, -3, -1, 0, -1, -3, -4,0.4257836210369742,0.3198663769833721
1503704009335,-0.199,-0.091,-0.143,-0.965,+0.337,+0.131,-0.925,-0.875,-0.312,+0.375,0, -3, 0, -1, -1, -1, 1, 0,0.4257836210369742,0.3198663769833721
1503704009350,-0.199,-0.091,-0.143,-0.965,+0.344,+0.131,-0.923,-0.750,-0.250,+0.125,0, 1, -2, -1, 1, 0, 1, 1,0.4257836210369742,0.3198663769833721
1503704009372,-0.199,-0.091,-0.143,-0.965,+0.344,+0.133,-0.927,-1.062,+0.188,+0.312,1, -1, 2, 0, -2, 0, -2, 0,0.4257836210369742,0.3198663769833721
1503704009396,-0.199,-0.091,-0.143,-0.965,+0.350,+0.129,-0.919,-1.188,-0.438,+0.375,-1, -1, -2, -1, 1, -1, -3, -1,0.4257836210369742,0.3198663769833721
1503704009410,-0.199,-0.091,-0.143,-0.965,+0.348,+0.127,-0.928,-0.812,-1.750,+0.500,-2, -3, -2, -2, -1, 0, 0, 0,0.4257836210369742,0.3198663769833721
1503704009433,-0.199,-0.090,-0.143,-0.965,+0.339,+0.128,-0.919,-1.000,-1.375,+0.812,-3, -2, -1, -1, -2, -1, -2, -3,0.42537078816390994,0.31937133203283946
1503704009463,-0.199,-0.090,-0.143,-0.965,+0.337,+0.121,-0.929,-0.875,-1.188,+0.250,3, 0, 2, -1, -1, -2, -4, -2,0.42537078816390994,0.31937133203283946
1503704009471,-0.199,-0.090,-0.143,-0.965,+0.344,+0.128,-0.925,-1.562,-0.938,+0.688,1, -2, -1, -2, 1, -1, 1, 2,0.42537078816390994,0.31937133203283946
1503704009492,-0.199,-0.090,-0.143,-0.965,+0.342,+0.127,-0.919,-0.875,-0.438,+0.188,-3, 2, 0, 0, 0, -1, -1, -2,0.42537078816390994,0.31937133203283946
1503704009515,-0.199,-0.090,-0.143,-0.965,+0.339,+0.133,-0.925,-0.875,-1.000,+0.438,1, -2, 0, 1, 0, -1, 1, 1,0.42537078816390994,0.31937133203283946
1503704009530,-0.199,-0.090,-0.143,-0.965,+0.341,+0.128,-0.925,-1.312,-1.188,+0.625,-3, 0, 0, -1, 0, -2, -1, -2,0.42537078816390994,0.31937133203283946
1503704009552,-0.199,-0.090,-0.143,-0.965,+0.342,+0.128,-0.926,-1.188,-0.750,-0.250,-2, 0, -1, 0, -2, 0, -1, -2,0.42537078816390994,0.31937133203283946
1503704009575,-0.199,-0.090,-0.142,-0.965,+0.338,+0.127,-0.929,-1.688,-1.188,+0.000,-2, -3, -1, -2, -1, 0, -1, -4,0.4252056767056646,0.317345902558556
1503704009590,-0.199,-0.090,-0.142,-0.965,+0.333,+0.135,-0.922,-1.188,-0.688,+0.125,2, -3, -2, -3, -1, -1, -1, 3,0.4252056767056646,0.317345902558556
1503704009612,-0.199,-0.090,-0.142,-0.965,+0.335,+0.128,-0.930,-0.938,-0.562,+0.000,-2, -3, 1, 0, -2, 2, 0, 2,0.4252056767056646,0.317345902558556
1503704009635,-0.199,-0.090,-0.142,-0.965,+0.334,+0.125,-0.918,-1.062,+0.562,-0.250,1, 2, 0, -2, 2, -1, -1, -1,0.4252056767056646,0.317345902558556
1503704009650,-0.199,-0.090,-0.142,-0.965,+0.337,+0.135,-0.929,-1.438,+0.875,-0.125,-3, 0, -4, 2, -1, 0, -3, -5,0.4252056767056646,0.317345902558556
1503704009680,-0.199,-0.090,-0.143,-0.965,+0.342,+0.136,-0.926,-1.312,+1.062,+0.312,1, 2, 0, -2, -3, 0, 0, 1,0.42537078816390994,0.31937133203283946
1503704009695,-0.199,-0.090,-0.143,-0.965,+0.344,+0.132,-0.912,-0.562,+0.938,+0.125,1, -3, -1, -3, 1, -2, 1, 0,0.42537078816390994,0.31937133203283946
1503704009710,-0.199,-0.090,-0.143,-0.965,+0.336,+0.128,-0.932,-0.625,-0.500,+0.375,-2, 1, 2, 0, 0, -1, -5, -3,0.42537078816390994,0.31937133203283946
1503704009732,-0.199,-0.090,-0.143,-0.965,+0.330,+0.126,-0.928,-1.188,+0.812,+0.312,1, -2, -1, -1, -2, -1, -1, -1,0.42537078816390994,0.31937133203283946
1503704009755,-0.199,-0.090,-0.143,-0.965,+0.338,+0.125,-0.928,-1.125,+1.500,+0.375,-1, -1, 0, 0, -1, -1, 0, 1,0.42537078816390994,0.31937133203283946
1503704009770,-0.199,-0.090,-0.143,-0.965,+0.343,+0.131,-0.930,-0.688,+1.062,+0.500,1, 3, 1, 0, -1, 0, 0, -1,0.42537078816390994,0.31937133203283946
1503704009792,-0.199,-0.090,-0.143,-0.965,+0.346,+0.126,-0.926,-0.562,+0.000,+0.750,-3, -3, 0, -2, -2, -1, 0, -1,0.42537078816390994,0.31937133203283946
1503704009815,-0.199,-0.090,-0.143,-0.965,+0.341,+0.131,-0.922,-0.875,+0.500,+0.750,-4, -1, -2, 0, 1, -1, -1, -3,0.42537078816390994,0.31937133203283946
1503704009832,-0.199,-0.090,-0.143,-0.965,+0.341,+0.131,-0.923,-1.125,+0.812,+0.875,2, -1, -1, -2, 0, 0, -1, 1,0.42537078816390994,0.31937133203283946
1503704009852,-0.199,-0.090,-0.143,-0.965,+0.342,+0.133,-0.928,-0.750,+0.750,+0.938,0, 0, 0, 0, 1, 0, 0, 1,0.42537078816390994,0.31937133203283946
1503704009875,-0.199,-0.090,-0.143,-0.965,+0.342,+0.128,-0.928,-0.312,+0.500,+0.750,-3, -2, 1, 0, -3, -1, 0, -1,0.42537078816390994,0.31937133203283946
1503704009890,-0.199,-0.090,-0.143,-0.965,+0.337,+0.124,-0.921,-0.688,+0.750,+0.562,-6, -2, -3, -1, -1, -1, -2, -4,0.42537078816390994,0.31937133203283946
1503704009912,-0.199,-0.090,-0.143,-0.965,+0.342,+0.127,-0.931,-0.812,+1.312,+0.250,-1, 0, 0, -2, -2, 0, 0, 1,0.42537078816390994,0.31937133203283946
1503704009935,-0.199,-0.090,-0.144,-0.965,+0.346,+0.130,-0.919,-0.812,+1.750,-0.062,0, -2, -1, -1, -2, 0, -1, 1,0.42553587492503137,0.32139776951199966
1503704009950,-0.199,-0.090,-0.144,-0.965,+0.350,+0.125,-0.923,-1.000,+1.438,+0.250,-3, -2, -2, 0, -1, 0, 0, 0,0.42553587492503137,0.32139776951199966
1503704009972,-0.199,-0.090,-0.144,-0.965,+0.344,+0.127,-0.920,-1.000,+0.938,+0.188,2, -1, -1, -2, -2, -1, -3, -3,0.42553587492503137,0.32139776951199966
1503704009995,-0.199,-0.090,-0.144,-0.965,+0.342,+0.127,-0.921,-0.750,+1.500,+0.375,1, -1, -1, 0, -1, 1, 1, 0,0.42553587492503137,0.32139776951199966
1503704010010,-0.199,-0.091,-0.145,-0.965,+0.352,+0.127,-0.920,-1.188,+1.062,+0.312,-2, -1, -1, -2, 1, -4, -1, -4,0.42611744624678827,0.3239210912538176
1503704010034,-0.199,-0.091,-0.145,-0.965,+0.354,+0.130,-0.921,-1.062,-0.438,+0.375,-3, -3, -1, 0, 1, 1, -1, -3,0.42611744624678827,0.3239210912538176
1503704010055,-0.199,-0.091,-0.145,-0.965,+0.343,+0.124,-0.911,-1.000,+0.188,+0.375,2, 0, -2, 0, -4, -1, -2, -2,0.42611744624678827,0.3239210912538176
1503704010070,-0.199,-0.091,-0.145,-0.965,+0.343,+0.125,-0.919,-0.938,-0.562,+0.938,1, 1, 0, 0, 0, -1, 0, 0,0.42611744624678827,0.3239210912538176
1503704010092,-0.199,-0.091,-0.145,-0.965,+0.354,+0.126,-0.922,-1.438,-0.688,+1.375,-1, 0, -1, 0, 0, -3, -2, 0,0.42611744624678827,0.3239210912538176
1503704010115,-0.199,-0.091,-0.145,-0.965,+0.346,+0.130,-0.922,-1.562,-0.250,+0.438,-3, 1, 0, -2, -3, -1, -2, -2,0.42611744624678827,0.3239210912538176
1503704010130,-0.199,-0.091,-0.145,-0.965,+0.341,+0.128,-0.919,-1.188,-0.500,+0.375,0, -4, -1, 0, -1, -4, -5, -4,0.42611744624678827,0.3239210912538176
1503704010152,-0.199,-0.091,-0.145,-0.965,+0.343,+0.125,-0.914,-1.438,+0.125,+0.062,1, -1, 2, -3, -2, -1, 1, 1,0.42611744624678827,0.3239210912538176
1503704010175,-0.199,-0.091,-0.145,-0.965,+0.343,+0.120,-0.926,-1.375,+0.312,-0.188,3, 1, -4, -1, 0, 1, 3, 2,0.42611744624678827,0.3239210912538176
1503704010190,-0.199,-0.091,-0.145,-0.965,+0.343,+0.125,-0.919,-1.438,+1.375,-0.188,-3, -2, -1, -1, 1, -1, 1, 0,0.42611744624678827,0.3239210912538176
1503704010212,-0.199,-0.091,-0.145,-0.965,+0.354,+0.131,-0.916,-1.562,+0.938,-0.062,1, 1, 1, -1, -1, -1, -3, -3,0.42611744624678827,0.3239210912538176
1503704010238,-0.199,-0.091,-0.145,-0.965,+0.351,+0.135,-0.922,-1.062,+0.000,-0.125,-2, -3, 1, -2, 0, 0, -1, -4,0.42611744624678827,0.3239210912538176
1503704010250,-0.199,-0.091,-0.145,-0.965,+0.348,+0.131,-0.917,-0.812,-0.438,+0.062,3, 0, 2, 0, -1, 0, 0, 4,0.42611744624678827,0.3239210912538176
1503704010272,-0.199,-0.091,-0.145,-0.965,+0.337,+0.126,-0.929,-0.938,+0.000,+0.250,0, 1, 0, 0, -2, 0, 1, 1,0.42611744624678827,0.3239210912538176
1503704010295,-0.199,-0.091,-0.145,-0.965,+0.342,+0.125,-0.917,-0.812,+0.062,+0.375,-4, -2, -1, -2, 0, -1, -1, -1,0.42611744624678827,0.3239210912538176
1503704010310,-0.199,-0.091,-0.145,-0.965,+0.349,+0.122,-0.917,-1.062,-0.188,+0.500,-1, -4, -3, 0, -1, -1, -1, -5,0.42611744624678827,0.3239210912538176
1503704010332,-0.199,-0.091,-0.145,-0.965,+0.348,+0.122,-0.915,-1.000,+0.250,+0.000,2, 1, -1, -1, 0, -4, -2, 1,0.42611744624678827,0.3239210912538176
1503704010355,-0.199,-0.091,-0.145,-0.965,+0.345,+0.125,-0.930,-1.500,-0.750,+0.062,2, 0, 2, 2, -1, 0, 2, -1,0.42611744624678827,0.3239210912538176
1503704010371,-0.199,-0.091,-0.145,-0.965,+0.345,+0.130,-0.920,-1.562,+0.188,-0.375,-1, 0, 0, -1, 0, 1, -1, 2,0.42611744624678827,0.3239210912538176
1503704010392,-0.199,-0.091,-0.145,-0.965,+0.343,+0.134,-0.926,-1.375,+0.000,+0.125,0, -1, -2, 0, -3, -1, 0, -1,0.42611744624678827,0.3239210912538176
1503704010415,-0.199,-0.091,-0.145,-0.965,+0.346,+0.128,-0.916,-1.312,+0.688,+0.500,0, -2, 0, -2, -2, -1, -1, -1,0.42611744624678827,0.3239210912538176
1503704010430,-0.199,-0.091,-0.145,-0.965,+0.350,+0.134,-0.926,-0.875,+0.000,+0.688,-1, -2, -1, -1, -1, 2, 2, 1,0.42611744624678827,0.3239210912538176
1503704010452,-0.199,-0.091,-0.145,-0.965,+0.353,+0.136,-0.917,-1.062,-0.125,+1.125,0, -1, 1, -1, -1, -2, -2, -1,0.42611744624678827,0.3239210912538176
1503704010475,-0.199,-0.091,-0.145,-0.965,+0.352,+0.130,-0.920,-0.438,-0.812,+0.688,-2, 1, -2, 1, 2, -4, -3, -2,0.42611744624678827,0.3239210912538176
1503704010490,-0.199,-0.091,-0.145,-0.965,+0.348,+0.125,-0.925,-0.750,-0.562,+0.500,-2, 0, -1, -1, -2, -1, -1, 0,0.42611744624678827,0.3239210912538176
1503704010512,-0.199,-0.091,-0.145,-0.965,+0.342,+0.119,-0.917,-1.000,-0.188,+0.500,0, -1, 0, -1, -3, -1, -1, 0,0.42611744624678827,0.3239210912538176
1503704010537,-0.199,-0.091,-0.145,-0.965,+0.346,+0.125,-0.920,-0.938,+0.375,+0.062,0, 0, 0, -1, 1, -1, -1, 0,0.42611744624678827,0.3239210912538176
1503704010550,-0.199,-0.091,-0.145,-0.965,+0.344,+0.119,-0.929,-1.125,+0.125,+0.312,0, -1, -2, 0, 0, 0, 0, -1,0.42611744624678827,0.3239210912538176
1503704010572,-0.199,-0.091,-0.145,-0.965,+0.343,+0.118,-0.921,-1.312,+0.875,-0.312,2, 0, -1, -2, -1, 0, 3, 5,0.42611744624678827,0.3239210912538176
1503704010595,-0.199,-0.091,-0.146,-0.965,+0.349,+0.126,-0.926,-1.688,+1.250,-0.312,-1, 0, -2, 0, -1, -1, -1, -1,0.4262843209257301,0.325949973351304
1503704010610,-0.199,-0.091,-0.146,-0.965,+0.353,+0.128,-0.918,-1.500,+0.938,+0.125,-3, -3, -2, -1, -2, -1, 0, -5,0.4262843209257301,0.325949973351304
1503704010632,-0.199,-0.091,-0.146,-0.965,+0.351,+0.132,-0.919,-1.375,+0.312,+0.250,-4, 1, 0, 0, 0, 0, -4, -3,0.4262843209257301,0.325949973351304
1503704010655,-0.199,-0.091,-0.146,-0.965,+0.354,+0.131,-0.925,-1.812,-0.250,+0.688,-1, -2, 0, -1, -2, 1, -1, -2,0.4262843209257301,0.325949973351304
1503704010671,-0.199,-0.091,-0.146,-0.965,+0.349,+0.131,-0.912,-1.625,+0.438,+0.250,0, -4, -2, -2, 0, 0, -1, -1,0.4262843209257301,0.325949973351304
1503704010692,-0.199,-0.091,-0.146,-0.965,+0.350,+0.121,-0.919,-1.562,-0.250,+0.312,-1, 1, -2, -1, -2, -3, -1, -2,0.4262843209257301,0.325949973351304
1503704010715,-0.199,-0.091,-0.146,-0.965,+0.344,+0.131,-0.918,-1.938,-0.062,+0.375,-1, -2, 0, -2, -1, -1, 3, 0,0.4262843209257301,0.325949973351304
1503704010731,-0.199,-0.091,-0.146,-0.965,+0.348,+0.134,-0.919,-1.188,+0.438,+0.375,1, 1, 2, -1, -2, -1, -1, -2,0.4262843209257301,0.325949973351304
1503704010752,-0.199,-0.091,-0.146,-0.965,+0.349,+0.135,-0.915,-1.188,+0.312,+0.312,-1, -3, -2, -1, -1, 0, -1, 0,0.4262843209257301,0.325949973351304
1503704010778,-0.199,-0.091,-0.146,-0.965,+0.347,+0.134,-0.915,-0.875,+0.000,+0.500,-1, -2, 0, 0, -2, 0, 1, -1,0.4262843209257301,0.325949973351304
1503704010792,-0.199,-0.091,-0.146,-0.965,+0.354,+0.130,-0.924,-0.625,+0.312,+0.250,0, -1, 0, -1, -1, -2, -1, -2,0.4262843209257301,0.325949973351304
1503704010812,-0.199,-0.091,-0.146,-0.965,+0.350,+0.134,-0.914,-0.375,+0.188,+0.125,-4, 1, -2, -1, -2, -2, -2, -6,0.4262843209257301,0.325949973351304
1503704010835,-0.199,-0.091,-0.146,-0.965,+0.341,+0.127,-0.923,-0.188,+0.188,-0.062,-2, 0, 0, 0, 1, -1, -3, -4,0.4262843209257301,0.325949973351304
1503704010850,-0.199,-0.091,-0.146,-0.965,+0.346,+0.123,-0.924,-0.625,-0.188,+0.312,0, 1, 0, -1, -2, -2, -2, 0,0.4262843209257301,0.325949973351304
1503704010873,-0.199,-0.091,-0.147,-0.965,+0.395,+0.115,-0.963,-0.500,+1.625,+0.375,1, -2, 0, 1, 0, 1, -3, -1,0.4264511703159645,0.32797988054265
1503704010895,-0.199,-0.091,-0.146,-0.965,+0.362,+0.142,-0.927,-1.062,-3.000,+0.438,-1, 0, -3, -1, -1, -1, 2, -4,0.4262843209257301,0.325949973351304
1503704010914,-0.199,-0.091,-0.146,-0.965,+0.355,+0.127,-0.918,-1.562,-0.062,-0.188,1, -1, 0, 1, 1, 0, 1, 0,0.4262843209257301,0.325949973351304
1503704010933,-0.199,-0.091,-0.146,-0.965,+0.347,+0.132,-0.913,-1.125,-1.312,-0.438,-1, 1, 0, 0, -2, -1, -2, 1,0.4262843209257301,0.325949973351304
1503704010963,-0.199,-0.091,-0.146,-0.965,+0.349,+0.133,-0.921,-1.062,-0.688,+0.438,0, -1, -1, -1, 0, 0, 1, 1,0.4262843209257301,0.325949973351304
1503704010977,-0.199,-0.091,-0.146,-0.965,+0.342,+0.130,-0.917,-1.125,+0.000,+0.562,-1, -2, 0, -3, -1, 0, -1, -1,0.4262843209257301,0.325949973351304
1503704010992,-0.199,-0.091,-0.146,-0.965,+0.351,+0.130,-0.925,-1.000,+0.375,+0.500,-1, -1, 0, -2, 0, 1, 0, -3,0.4262843209257301,0.325949973351304
1503704011018,-0.199,-0.091,-0.146,-0.965,+0.354,+0.126,-0.925,-1.250,+0.000,+0.688,1, -1, 0, 0, -1, 0, -1, 4,0.4262843209257301,0.325949973351304
1503704011030,-0.199,-0.091,-0.146,-0.965,+0.354,+0.128,-0.919,-0.875,-0.125,+0.062,-3, -3, -3, 0, 0, 0, -1, -2,0.4262843209257301,0.325949973351304
1503704011052,-0.199,-0.091,-0.146,-0.965,+0.347,+0.129,-0.919,-1.188,-0.188,+0.562,-1, -4, -2, 0, -1, -3, 0, -1,0.4262843209257301,0.325949973351304
1503704011075,-0.199,-0.091,-0.146,-0.965,+0.350,+0.130,-0.917,-0.938,+0.062,+0.438,0, 0, -2, 0, -1, -2, -3, -1,0.4262843209257301,0.325949973351304
1503704011090,-0.199,-0.091,-0.146,-0.965,+0.348,+0.130,-0.924,-0.938,-0.812,+0.375,1, -1, 1, -1, -2, -2, 1, -2,0.4262843209257301,0.325949973351304
1503704011113,-0.199,-0.091,-0.146,-0.965,+0.346,+0.127,-0.922,-0.812,-0.188,+0.125,-6, -3, -3, -1, -1, 0, 0, -7,0.4262843209257301,0.325949973351304
1503704011135,-0.199,-0.091,-0.146,-0.965,+0.344,+0.124,-0.921,-1.188,+0.625,-0.500,1, -3, 2, 0, -2, 0, -1, -3,0.4262843209257301,0.325949973351304
1503704011150,-0.199,-0.091,-0.146,-0.965,+0.349,+0.139,-0.930,-1.562,+0.500,+0.062,-3, -1, -1, -1, -2, -1, -1, 1,0.4262843209257301,0.325949973351304
1503704011175,-0.199,-0.091,-0.146,-0.965,+0.352,+0.125,-0.914,-1.062,+0.625,+0.250,0, -3, 0, -2, -1, -2, -3, 0,0.4262843209257301,0.325949973351304
1503704011195,-0.199,-0.091,-0.146,-0.965,+0.355,+0.130,-0.920,-1.000,-1.125,+0.562,0, 1, 0, -1, -1, 0, -1, -1,0.4262843209257301,0.325949973351304
1503704011211,-0.199,-0.091,-0.146,-0.965,+0.357,+0.133,-0.922,-1.625,-0.875,+0.438,-1, -3, 0, -3, 1, -1, 0, 0,0.4262843209257301,0.325949973351304
1503704011233,-0.199,-0.091,-0.146,-0.965,+0.352,+0.125,-0.917,-1.750,+0.000,+0.125,2, 1, 0, 1, -2, -1, 0, 2,0.4262843209257301,0.325949973351304
1503704011255,-0.199,-0.091,-0.146,-0.965,+0.351,+0.128,-0.921,-1.750,-0.938,+0.250,-1, 0, 0, 0, 0, -2, -1, -4,0.4262843209257301,0.325949973351304
1503704011271,-0.199,-0.091,-0.146,-0.965,+0.349,+0.129,-0.921,-1.500,-0.812,+0.062,-2, -2, -1, -1, -1, 1, 1, 1,0.4262843209257301,0.325949973351304
1503704011293,-0.199,-0.091,-0.146,-0.965,+0.343,+0.131,-0.925,-1.625,-0.250,-0.312,0, -1, -2, 0, 0, -1, -2, -2,0.4262843209257301,0.325949973351304
1503704011315,-0.199,-0.091,-0.146,-0.965,+0.348,+0.133,-0.921,-1.312,+1.125,-0.312,-5, -3, -1, -3, -1, 0, -3, -3,0.4262843209257301,0.325949973351304
1503704011331,-0.199,-0.091,-0.146,-0.965,+0.349,+0.130,-0.927,-0.938,+0.000,+0.000,0, -1, 2, 1, 0, -1, -1, -3,0.4262843209257301,0.325949973351304
1503704011354,-0.199,-0.091,-0.146,-0.965,+0.352,+0.132,-0.917,-1.062,+0.125,+0.188,2, 0, -2, 0, -1, -2, -1, 4,0.4262843209257301,0.325949973351304
1503704011377,-0.199,-0.091,-0.146,-0.965,+0.356,+0.130,-0.924,-0.750,-0.750,+0.375,0, -1, 0, -2, -2, 0, 0, -1,0.4262843209257301,0.325949973351304
1503704011391,-0.199,-0.091,-0.146,-0.965,+0.352,+0.130,-0.915,-1.125,-1.188,+0.500,-1, 3, -2, 1, -1, 0, -1, -1,0.4262843209257301,0.325949973351304
1503704011414,-0.199,-0.091,-0.146,-0.965,+0.351,+0.133,-0.925,-1.000,-1.312,+0.125,1, 0, 1, -1, -2, -2, 0, 2,0.4262843209257301,0.325949973351304
1503704011435,-0.199,-0.091,-0.146,-0.965,+0.345,+0.130,-0.921,-1.375,-1.375,+0.562,-2, -2, -1, 0, 3, 0, 1, 1,0.4262843209257301,0.325949973351304
1503704011452,-0.199,-0.091,-0.146,-0.965,+0.338,+0.127,-0.917,-1.250,-0.562,+0.438,0, 0, 0, 0, -1, 0, -3, -1,0.4262843209257301,0.325949973351304
1503704011473,-0.199,-0.091,-0.146,-0.965,+0.345,+0.132,-0.924,-1.125,-0.375,+0.188,-3, -1, 2, -1, -1, -2, -2, -2,0.4262843209257301,0.325949973351304
1503704011495,-0.199,-0.091,-0.146,-0.965,+0.344,+0.131,-0.922,-1.188,-0.375,+0.250,-4, -2, -1, 0, 0, -1, -4, -2,0.4262843209257301,0.325949973351304
1503704011511,-0.199,-0.091,-0.146,-0.965,+0.343,+0.129,-0.926,-1.125,-0.125,+0.062,-2, -2, 0, -1, -2, 0, -1, -2,0.4262843209257301,0.325949973351304
1503704011535,-0.199,-0.091,-0.146,-0.965,+0.354,+0.133,-0.924,-1.375,-0.250,+0.500,-1, 1, -2, 1, 0, 0, -2, 0,0.4262843209257301,0.325949973351304
1503704011555,-0.199,-0.091,-0.146,-0.965,+0.351,+0.130,-0.914,-1.125,-0.188,+0.500,1, 0, -1, -2, 0, 1, 1, 1,0.4262843209257301,0.325949973351304
1503704011571,-0.199,-0.091,-0.146,-0.965,+0.351,+0.126,-0.925,-0.812,-1.125,+0.250,1, 0, 1, -2, -4, -2, 1, 1,0.4262843209257301,0.325949973351304
1503704011593,-0.199,-0.091,-0.146,-0.965,+0.340,+0.133,-0.928,-1.188,-0.875,+0.500,1, -1, -1, -3, -2, -1, -1, 0,0.4262843209257301,0.325949973351304
1503704011615,-0.199,-0.091,-0.146,-0.965,+0.338,+0.125,-0.920,-1.250,+0.312,+0.188,1, 1, 0, -1, 0, -2, 0, -2,0.4262843209257301,0.325949973351304
1503704011631,-0.199,-0.091,-0.146,-0.965,+0.351,+0.132,-0.924,-1.500,+0.312,+0.375,-2, -2, 0, 0, -3, 0, 0, 1,0.4262843209257301,0.325949973351304
1503704011653,-0.199,-0.091,-0.146,-0.965,+0.349,+0.126,-0.912,-0.875,+0.625,-0.125,-3, -2, -1, -2, 1, -1, 0, -1,0.4262843209257301,0.325949973351304
1503704011675,-0.199,-0.091,-0.146,-0.965,+0.348,+0.128,-0.925,-0.938,-0.062,-0.438,-3, -2, -2, -1, 1, 0, -2, -1,0.4262843209257301,0.325949973351304
1503704011691,-0.199,-0.091,-0.146,-0.965,+0.343,+0.130,-0.921,-1.188,+0.438,-0.062,-2, 0, -3, -1, -2, -2, 0, -4,0.4262843209257301,0.325949973351304
1503704011713,-0.199,-0.091,-0.146,-0.965,+0.347,+0.129,-0.918,-1.000,+0.875,-0.062,0, -2, -1, 1, 0, 1, 0, 3,0.4262843209257301,0.325949973351304
1503704011735,-0.199,-0.091,-0.146,-0.965,+0.352,+0.132,-0.921,-0.938,+0.188,+0.562,-2, 1, 0, -1, 1, -3, 1, 0,0.4262843209257301,0.325949973351304
1503704011751,-0.199,-0.091,-0.146,-0.965,+0.352,+0.130,-0.917,-1.312,-0.500,+0.812,1, -1, 0, 0, -3, -2, -2, -1,0.4262843209257301,0.325949973351304
1503704011773,-0.199,-0.091,-0.146,-0.965,+0.346,+0.130,-0.917,-1.438,+0.250,+0.375,-1, 0, 1, -2, 2, -1, -1, -1,0.4262843209257301,0.325949973351304
1503704011795,-0.199,-0.091,-0.146,-0.965,+0.345,+0.131,-0.923,-1.562,-0.375,+0.562,0, -3, -1, -3, -1, 1, -1, -1,0.4262843209257301,0.325949973351304
1503704011812,-0.199,-0.091,-0.146,-0.965,+0.343,+0.128,-0.917,-1.438,+0.438,-0.062,-1, 0, -3, 0, -1, -2, -1, -3,0.4262843209257301,0.325949973351304
1503704011833,-0.199,-0.091,-0.146,-0.965,+0.345,+0.132,-0.923,-1.062,+0.312,-0.062,0, 0, -2, -2, -3, -1, -1, 0,0.4262843209257301,0.325949973351304
1503704011855,-0.199,-0.091,-0.146,-0.965,+0.350,+0.132,-0.916,-1.125,+1.500,+0.125,-2, -1, -2, 0, -1, 0, -2, -4,0.4262843209257301,0.325949973351304
1503704011871,-0.199,-0.091,-0.146,-0.965,+0.352,+0.139,-0.924,-0.812,+0.938,+0.438,1, 0, 1, 0, 0, 3, -1, 2,0.4262843209257301,0.325949973351304
1503704011893,-0.199,-0.091,-0.146,-0.965,+0.357,+0.132,-0.920,-0.562,+0.500,+1.000,0, -1, -1, -1, -2, 1, -3, -2,0.4262843209257301,0.325949973351304
1503704011915,-0.199,-0.091,-0.146,-0.965,+0.357,+0.128,-0.913,-0.375,+0.062,+0.438,0, -2, 0, 0, -2, -1, -3, 0,0.4262843209257301,0.325949973351304
1503704011931,-0.199,-0.091,-0.146,-0.965,+0.349,+0.122,-0.924,-0.750,-0.375,+0.562,0, -3, -2, 0, -1, 1, 0, -1,0.4262843209257301,0.325949973351304
1503704011953,-0.199,-0.091,-0.146,-0.965,+0.342,+0.125,-0.920,-0.938,+0.188,+0.562,-3, 1, -3, 0, 1, 0, -3, -3,0.4262843209257301,0.325949973351304
1503704011975,-0.199,-0.091,-0.146,-0.965,+0.348,+0.125,-0.917,-0.812,+0.688,+0.625,0, -3, -2, 0, 1, -2, -1, -2,0.4262843209257301,0.325949973351304
1503704011997,-0.199,-0.091,-0.146,-0.965,+0.355,+0.123,-0.918,-1.062,+0.375,+0.438,2, 0, 0, -2, -1, -1, 1, 1,0.4262843209257301,0.325949973351304
1503704012013,-0.199,-0.091,-0.146,-0.965,+0.348,+0.131,-0.914,-1.062,+0.375,-0.625,-1, -1, -1, -1, 0, 0, 0, 2,0.4262843209257301,0.325949973351304
1503704012035,-0.199,-0.091,-0.146,-0.965,+0.349,+0.136,-0.921,-1.125,+0.750,+0.000,-1, 2, 0, 0, -1, -1, 0, -1,0.4262843209257301,0.325949973351304
1503704012051,-0.199,-0.091,-0.147,-0.965,+0.354,+0.136,-0.917,-1.000,+1.250,+0.312,1, 0, 1, 0, -1, 0, -3, -3,0.4264511703159645,0.32797988054265
1503704012073,-0.199,-0.091,-0.147,-0.965,+0.363,+0.129,-0.927,-0.875,+0.000,+0.812,-2, 0, -1, -2, -1, 0, -2, 0,0.4264511703159645,0.32797988054265
1503704012095,-0.199,-0.091,-0.147,-0.965,+0.358,+0.130,-0.914,-1.250,-0.250,+0.812,-3, -3, 0, -2, 1, -1, -3, -2,0.4264511703159645,0.32797988054265
1503704012111,-0.199,-0.091,-0.147,-0.965,+0.352,+0.139,-0.922,-0.812,-0.812,+0.375,-1, -1, -2, -1, -1, -2, 1, 0,0.4264511703159645,0.32797988054265
1503704012133,-0.199,-0.091,-0.147,-0.965,+0.345,+0.126,-0.923,-0.875,-0.938,+0.938,1, 2, 2, 1, -2, 0, -1, 1,0.4264511703159645,0.32797988054265
1503704012156,-0.199,-0.091,-0.147,-0.965,+0.344,+0.126,-0.926,-0.500,-0.438,+0.500,1, -1, 1, 0, 0, -2, 0, 1,0.4264511703159645,0.32797988054265
1503704012177,-0.199,-0.091,-0.147,-0.965,+0.345,+0.123,-0.919,-0.625,+0.375,+0.375,1, -1, -1, -1, 0, -1, -2, -2,0.4264511703159645,0.32797988054265
1503704012193,-0.199,-0.091,-0.147,-0.965,+0.350,+0.125,-0.917,-0.750,+1.000,+0.250,-2, -2, -4, 0, -1, 0, 1, 0,0.4264511703159645,0.32797988054265
1503704012215,-0.199,-0.091,-0.147,-0.965,+0.364,+0.126,-0.924,-0.812,-0.312,+0.312,-1, -1, 0, 0, -1, 1, -2, 1,0.4264511703159645,0.32797988054265
1503704012238,-0.199,-0.091,-0.147,-0.965,+0.359,+0.126,-0.926,-1.125,-0.562,+0.125,0, 1, -1, -1, 0, -2, -3, -4,0.4264511703159645,0.32797988054265
1503704012253,-0.199,-0.091,-0.147,-0.965,+0.347,+0.126,-0.918,-0.875,-0.188,-0.062,0, 0, -1, -3, -2, -1, 0, 0,0.4264511703159645,0.32797988054265
1503704012282,-0.199,-0.091,-0.147,-0.965,+0.339,+0.128,-0.929,-0.750,-1.125,+0.625,-2, -1, 0, 1, 0, 1, 1, -2,0.4264511703159645,0.32797988054265
1503704012291,-0.199,-0.091,-0.147,-0.965,+0.348,+0.124,-0.927,-1.188,-0.500,+0.625,0, -4, 2, -1, -1, 1, 0, -1,0.4264511703159645,0.32797988054265
1503704012316,-0.199,-0.091,-0.147,-0.965,+0.349,+0.127,-0.924,-1.625,+0.500,+0.000,-4, -2, 0, 0, -1, -1, -2, -1,0.4264511703159645,0.32797988054265
1503704012335,-0.199,-0.091,-0.147,-0.965,+0.350,+0.133,-0.915,-1.938,+0.812,-0.062,0, 0, -2, -1, -1, 0, 1, 2,0.4264511703159645,0.32797988054265
1503704012358,-0.199,-0.091,-0.147,-0.965,+0.351,+0.135,-0.924,-1.375,-0.312,+0.188,2, -2, -1, 0, -1, -1, 1, 1,0.4264511703159645,0.32797988054265
1503704012373,-0.199,-0.091,-0.147,-0.965,+0.353,+0.125,-0.924,-1.125,+0.000,-0.062,-2, -2, 0, -2, 0, -1, 0, -2,0.4264511703159645,0.32797988054265
1503704012395,-0.199,-0.091,-0.147,-0.965,+0.345,+0.129,-0.921,-1.438,+1.188,-0.562,2, 3, 0, 1, -1, -1, 1, 0,0.4264511703159645,0.32797988054265
1503704012417,-0.199,-0.092,-0.147,-0.965,+0.352,+0.140,-0.922,-1.625,+1.062,-0.188,-2, -4, -2, -1, -1, -2, -3, -3,0.426873197463264,0.3284780814010991
1503704012433,-0.199,-0.092,-0.148,-0.965,+0.355,+0.135,-0.917,-1.062,+1.125,+0.062,0, 1, -1, -2, -1, -2, 0, -1,0.42704185820448526,0.3305094321737747
1503704012455,-0.199,-0.092,-0.148,-0.965,+0.357,+0.133,-0.920,-0.750,+0.625,+0.125,-1, 0, -1, 0, 0, -1, -1, -1,0.42704185820448526,0.3305094321737747
1503704012477,-0.199,-0.092,-0.148,-0.965,+0.351,+0.128,-0.919,-0.875,+0.188,+0.562,0, 1, 1, -1, -1, 1, -2, -2,0.42704185820448526,0.3305094321737747
1503704012493,-0.199,-0.092,-0.148,-0.965,+0.347,+0.129,-0.917,-0.812,+0.500,+0.312,-2, 0, -3, -2, -2, -3, -1, 2,0.42704185820448526,0.3305094321737747
1503704012518,-0.199,-0.092,-0.148,-0.965,+0.357,+0.127,-0.923,-1.188,+0.188,+0.812,-1, -1, -1, -1, 1, -2, -1, -1,0.42704185820448526,0.3305094321737747
1503704012537,-0.199,-0.092,-0.148,-0.965,+0.357,+0.128,-0.922,-1.312,+0.938,+0.562,1, -1, -1, -1, -2, 1, -2, 0,0.42704185820448526,0.3305094321737747
1503704012556,-0.199,-0.092,-0.148,-0.964,+0.352,+0.118,-0.907,-1.062,+4.438,-0.250,0, 1, 0, 0, 0, 0, 3, 1,0.42667700513349727,0.3302274539970903
1503704012575,-0.199,-0.092,-0.148,-0.964,+0.362,+0.132,-0.929,-0.625,-1.625,+0.750,0, -1, 0, 0, -1, 0, 0, -2,0.42667700513349727,0.3302274539970903
1503704012597,-0.199,-0.092,-0.148,-0.964,+0.347,+0.128,-0.920,-1.125,+0.125,+0.500,-2, -1, 0, 0, -2, -2, -1, -2,0.42667700513349727,0.3302274539970903
1503704012613,-0.199,-0.092,-0.148,-0.964,+0.347,+0.127,-0.921,-1.375,+0.125,+0.625,-1, -3, 0, 1, -1, -2, 0, -2,0.42667700513349727,0.3302274539970903
1503704012635,-0.199,-0.092,-0.148,-0.964,+0.350,+0.129,-0.911,-1.500,+0.812,+0.625,-3, -2, 0, -1, 0, -1, -3, -3,0.42667700513349727,0.3302274539970903
1503704012657,-0.199,-0.092,-0.149,-0.964,+0.359,+0.134,-0.917,-1.250,+1.062,+0.250,-1, -1, 0, -1, -2, 0, 1, -1,0.426845695975386,0.3322581523205638
1503704012673,-0.199,-0.092,-0.149,-0.964,+0.360,+0.132,-0.917,-1.125,-0.125,+0.312,0, -2, -2, -1, -1, -2, -3, 1,0.426845695975386,0.3322581523205638
1503704012695,-0.199,-0.092,-0.149,-0.964,+0.358,+0.134,-0.914,-1.125,-0.062,+0.250,0, -2, -1, -1, 0, -2, -3, -2,0.426845695975386,0.3322581523205638
1503704012718,-0.199,-0.092,-0.149,-0.964,+0.355,+0.132,-0.926,-0.812,-0.562,+0.312,-1, 0, 1, 0, 0, -1, -1, -5,0.426845695975386,0.3322581523205638
1503704012733,-0.199,-0.092,-0.149,-0.964,+0.348,+0.122,-0.920,-0.688,-0.312,+0.500,-3, -1, -1, -2, 1, -3, -2, -2,0.426845695975386,0.3322581523205638
1503704012757,-0.199,-0.092,-0.149,-0.964,+0.352,+0.128,-0.922,-0.875,-0.250,+0.062,0, 1, -1, 0, -1, 2, 1, 0,0.426845695975386,0.3322581523205638
1503704012777,-0.199,-0.092,-0.149,-0.964,+0.351,+0.129,-0.925,-1.250,-0.062,+0.750,-2, -1, 1, 0, -3, 0, -2, -3,0.426845695975386,0.3322581523205638
1503704012794,-0.199,-0.092,-0.149,-0.964,+0.352,+0.121,-0.907,-1.062,+0.812,+0.125,-2, -1, 0, -1, -1, 0, -1, -1,0.426845695975386,0.3322581523205638
1503704012815,-0.199,-0.092,-0.149,-0.964,+0.356,+0.132,-0.925,-1.125,-0.812,+0.500,0, -1, -1, 2, 0, 0, 1, 3,0.426845695975386,0.3322581523205638
1503704012837,-0.199,-0.092,-0.149,-0.964,+0.359,+0.128,-0.923,-1.125,-0.250,+0.312,-2, -3, -1, -1, 1, -1, -2, -2,0.426845695975386,0.3322581523205638
1503704012855,-0.199,-0.092,-0.149,-0.964,+0.361,+0.128,-0.918,-1.625,+0.375,-0.188,1, -2, 0, -3, -3, 0, 1, 2,0.426845695975386,0.3322581523205638
1503704012875,-0.199,-0.092,-0.149,-0.964,+0.354,+0.132,-0.919,-1.625,-0.688,+0.375,0, 1, 1, 0, 0, -2, 0, 1,0.426845695975386,0.3322581523205638
1503704012897,-0.199,-0.092,-0.149,-0.964,+0.351,+0.128,-0.917,-1.062,-0.438,+0.188,1, -1, -1, -1, -2, 0, 0, 0,0.426845695975386,0.3322581523205638
1503704012913,-0.199,-0.092,-0.149,-0.964,+0.350,+0.131,-0.917,-1.062,-0.438,+0.312,0, 0, -1, -2, -1, -1, -1, -3,0.426845695975386,0.3322581523205638
1503704012935,-0.199,-0.092,-0.149,-0.964,+0.353,+0.132,-0.915,-0.938,+0.250,+0.375,-1, 0, 0, -2, 0, -1, -2, 2,0.426845695975386,0.3322581523205638
1503704012957,-0.199,-0.092,-0.149,-0.964,+0.354,+0.131,-0.918,-1.000,+0.125,+0.375,-1, -2, -3, -2, -1, -1, 0, -1,0.426845695975386,0.3322581523205638
1503704012973,-0.199,-0.092,-0.149,-0.964,+0.364,+0.126,-0.915,-1.000,-0.375,+0.688,0, 2, -1, -1, 0, 1, 0, 0,0.426845695975386,0.3322581523205638
1503704012995,-0.199,-0.092,-0.149,-0.964,+0.361,+0.129,-0.917,-0.625,-0.312,+0.188,-4, -3, -3, 0, -1, -2, 0, -6,0.426845695975386,0.3322581523205638
1503704013017,-0.199,-0.092,-0.149,-0.964,+0.353,+0.130,-0.920,-0.875,-0.688,+0.188,-1, 0, 0, -2, 0, -3, 1, 3,0.426845695975386,0.3322581523205638
1503704013033,-0.199,-0.092,-0.149,-0.964,+0.348,+0.130,-0.926,-1.000,-0.688,+0.500,-4, -2, -1, 2, -2, 0, -1, -4,0.426845695975386,0.3322581523205638
1503704013055,-0.199,-0.092,-0.149,-0.964,+0.347,+0.122,-0.918,-1.188,-0.312,+0.188,-1, -2, -3, -1, -2, -2, -1, -1,0.426845695975386,0.3322581523205638
1503704013078,-0.199,-0.092,-0.149,-0.964,+0.349,+0.127,-0.922,-1.250,+0.500,+0.125,1, 0, 1, -1, -1, -2, 0, 2,0.426845695975386,0.3322581523205638
1503704013093,-0.199,-0.092,-0.149,-0.964,+0.355,+0.127,-0.923,-1.250,+0.312,+0.312,3, -1, 2, 0, 0, 0, 0, 0,0.426845695975386,0.3322581523205638
1503704013123,-0.199,-0.092,-0.149,-0.964,+0.357,+0.131,-0.917,-1.312,-0.062,+0.562,-1, -2, 0, 0, -1, -1, -4, -4,0.426845695975386,0.3322581523205638
1503704013138,-0.199,-0.092,-0.149,-0.964,+0.356,+0.130,-0.913,-1.250,-0.375,+0.438,1, 2, -1, -1, 0, -1, -1, 0,0.426845695975386,0.3322581523205638
1503704013155,-0.199,-0.092,-0.149,-0.964,+0.354,+0.135,-0.918,-1.250,-0.688,+0.688,1, 1, -1, -1, 0, 1, 0, -1,0.426845695975386,0.3322581523205638
1503704013176,-0.199,-0.092,-0.149,-0.964,+0.355,+0.132,-0.918,-0.875,+0.000,+0.500,-2, -1, 0, 1, -1, -1, -1, -2,0.426845695975386,0.3322581523205638
1503704013198,-0.199,-0.092,-0.149,-0.964,+0.352,+0.129,-0.923,-1.062,-0.188,+0.438,-1, 1, -2, -2, -1, -3, -2, 1,0.426845695975386,0.3322581523205638
1503704013213,-0.199,-0.092,-0.149,-0.964,+0.347,+0.128,-0.920,-0.875,+0.312,+0.125,-2, -2, 0, -1, -1, 1, 0, -3,0.426845695975386,0.3322581523205638
1503704013236,-0.199,-0.092,-0.149,-0.964,+0.354,+0.127,-0.926,-0.812,+0.812,-0.312,0, -1, -2, 0, -2, 0, -2, -2,0.426845695975386,0.3322581523205638
1503704013258,-0.199,-0.092,-0.149,-0.964,+0.356,+0.128,-0.921,-0.938,+0.500,+0.188,-1, 0, 1, 1, 0, 0, -2, -2,0.426845695975386,0.3322581523205638
1503704013273,-0.199,-0.092,-0.149,-0.964,+0.362,+0.124,-0.920,-0.938,+0.562,-0.062,1, -2, -1, 1, -2, 0, -2, 1,0.426845695975386,0.3322581523205638
1503704013296,-0.199,-0.092,-0.149,-0.964,+0.361,+0.128,-0.916,-1.125,-0.438,+0.125,-4, 0, -2, -3, 1, 0, 0, -1,0.426845695975386,0.3322581523205638
1503704013318,-0.199,-0.092,-0.149,-0.964,+0.356,+0.137,-0.911,-1.375,+0.188,+0.125,0, 1, 0, 0, 0, 0, 1, 3,0.426845695975386,0.3322581523205638
1503704013333,-0.199,-0.092,-0.149,-0.964,+0.355,+0.130,-0.925,-0.688,-0.750,+0.625,0, -3, -1, -1, -2, -2, -1, -3,0.426845695975386,0.3322581523205638
1503704013357,-0.199,-0.092,-0.149,-0.964,+0.354,+0.126,-0.917,-1.250,-1.000,+0.625,-2, -2, 0, 0, -2, 0, 0, 0,0.426845695975386,0.3322581523205638
1503704013378,-0.199,-0.092,-0.149,-0.964,+0.351,+0.131,-0.924,-1.188,-0.062,+0.250,2, 0, 0, -2, -1, -1, 0, -2,0.426845695975386,0.3322581523205638
1503704013393,-0.199,-0.092,-0.149,-0.964,+0.353,+0.127,-0.929,-1.438,+0.438,+0.188,0, 0, 1, 0, -2, 0, -2, -1,0.426845695975386,0.3322581523205638
1503704013416,-0.199,-0.092,-0.149,-0.964,+0.362,+0.124,-0.902,-1.562,+0.750,+0.125,1, 0, -2, -1, -1, 0, -3, 1,0.426845695975386,0.3322581523205638
1503704013438,-0.199,-0.092,-0.149,-0.964,+0.357,+0.129,-0.919,-1.375,+0.000,+0.000,-1, -2, -1, -2, -3, -1, -2, -3,0.426845695975386,0.3322581523205638
1503704013454,-0.199,-0.092,-0.149,-0.964,+0.361,+0.130,-0.911,-1.062,+0.188,-0.188,-2, -2, 0, 0, -1, -2, -1, -3,0.426845695975386,0.3322581523205638
1503704013476,-0.199,-0.092,-0.149,-0.964,+0.352,+0.133,-0.917,-1.062,-0.438,+0.188,-2, 1, 1, 0, 2, -1, 0, -2,0.426845695975386,0.3322581523205638
1503704013498,-0.199,-0.092,-0.149,-0.964,+0.362,+0.122,-0.922,-1.188,-0.875,+0.625,-4, -4, -3, 0, -1, 0, -2, -1,0.426845695975386,0.3322581523205638
1503704013520,-0.199,-0.092,-0.149,-0.964,+0.356,+0.128,-0.912,-1.375,-0.125,-0.125,2, 1, -1, -2, -2, -2, 0, 1,0.426845695975386,0.3322581523205638
1503704013536,-0.199,-0.092,-0.149,-0.964,+0.357,+0.135,-0.916,-1.188,-1.438,+0.500,-1, -1, 1, -1, 0, 1, 0, -3,0.426845695975386,0.3322581523205638
1503704013560,-0.199,-0.092,-0.149,-0.964,+0.351,+0.131,-0.922,-0.812,-1.750,+0.625,-1, -1, -1, -1, 0, 0, -2, 1,0.426845695975386,0.3322581523205638
1503704013573,-0.199,-0.092,-0.149,-0.964,+0.350,+0.129,-0.916,-1.062,-0.688,+0.312,-2, -1, -2, -2, -2, -1, 1, -1,0.426845695975386,0.3322581523205638
1503704013596,-0.199,-0.092,-0.149,-0.964,+0.350,+0.129,-0.922,-1.000,-0.875,+0.312,1, -1, -2, 0, 1, 1, -2, -2,0.426845695975386,0.3322581523205638
1503704013618,-0.199,-0.092,-0.149,-0.964,+0.355,+0.125,-0.917,-1.125,-0.250,+0.062,0, -1, 0, -1, 0, -3, 2, 6,0.426845695975386,0.3322581523205638
1503704013634,-0.199,-0.092,-0.149,-0.964,+0.361,+0.130,-0.916,-1.000,-0.750,-0.250,1, 3, 2, -1, 1, -1, 0, -1,0.426845695975386,0.3322581523205638
1503704013659,-0.199,-0.092,-0.149,-0.964,+0.354,+0.129,-0.920,-1.312,-1.375,+0.375,-2, -2, 0, -1, -2, 0, -1, 0,0.426845695975386,0.3322581523205638
1503704013678,-0.199,-0.092,-0.149,-0.964,+0.353,+0.130,-0.910,-1.375,-0.875,+0.438,-1, -2, 0, -1, -1, -1, 0, -6,0.426845695975386,0.3322581523205638
1503704013693,-0.199,-0.092,-0.149,-0.964,+0.357,+0.131,-0.922,-1.562,-1.062,+0.875,2, -2, 1, -3, 0, -1, -1, 3,0.426845695975386,0.3322581523205638
1503704013716,-0.199,-0.092,-0.149,-0.964,+0.356,+0.131,-0.913,-1.375,-1.062,+0.500,-1, 1, -2, 1, -2, 0, 3, 0,0.426845695975386,0.3322581523205638
1503704013738,-0.199,-0.092,-0.149,-0.964,+0.351,+0.134,-0.925,-0.875,-1.500,+0.312,-5, -3, -1, 0, 0, -2, 0, -2,0.426845695975386,0.3322581523205638
1503704013753,-0.199,-0.092,-0.149,-0.964,+0.351,+0.127,-0.927,-1.125,-0.562,+0.625,-1, 1, 1, 0, 0, -1, 0, -2,0.426845695975386,0.3322581523205638
1503704013776,-0.199,-0.092,-0.149,-0.964,+0.348,+0.129,-0.915,-1.250,-0.188,-0.062,-1, -2, 1, -1, -1, -1, -1, 0,0.426845695975386,0.3322581523205638
1503704013798,-0.199,-0.092,-0.149,-0.964,+0.347,+0.129,-0.917,-1.125,-0.188,+0.125,-2, -1, 0, 1, -1, -2, -1, 0,0.426845695975386,0.3322581523205638
1503704013813,-0.199,-0.092,-0.149,-0.964,+0.355,+0.128,-0.922,-0.938,-0.375,-0.188,-1, -3, -2, -2, 0, -2, 0, 0,0.426845695975386,0.3322581523205638
1503704013836,-0.199,-0.092,-0.149,-0.964,+0.351,+0.130,-0.919,-1.000,-0.438,+0.000,2, 0, 1, -1, -2, -2, -1, -2,0.426845695975386,0.3322581523205638
1503704013860,-0.199,-0.092,-0.149,-0.964,+0.353,+0.133,-0.924,-1.500,-0.188,+0.250,1, 2, 0, -3, 1, -1, 1, 1,0.426845695975386,0.3322581523205638
1503704013873,-0.199,-0.092,-0.149,-0.964,+0.346,+0.133,-0.914,-1.062,+0.312,+0.125,-4, -3, -6, -2, -2, 0, -1, -1,0.426845695975386,0.3322581523205638
1503704013896,-0.199,-0.092,-0.149,-0.964,+0.355,+0.130,-0.917,-1.000,-0.938,+0.625,-2, -1, 1, -1, 2, 0, 0, -2,0.426845695975386,0.3322581523205638
1503704013918,-0.199,-0.092,-0.149,-0.964,+0.348,+0.132,-0.913,-1.375,+0.062,+0.500,-2, 1, 0, -1, 0, -1, -1, -1,0.426845695975386,0.3322581523205638
1503704013933,-0.199,-0.092,-0.149,-0.964,+0.352,+0.128,-0.921,-1.375,+0.062,-0.250,2, -2, 0, -1, -2, 0, 4, 6,0.426845695975386,0.3322581523205638
1503704013956,-0.199,-0.092,-0.149,-0.964,+0.346,+0.127,-0.915,-1.562,+0.125,+0.062,0, 0, -1, 1, 1, -2, 0, 0,0.426845695975386,0.3322581523205638
1503704013978,-0.199,-0.092,-0.149,-0.964,+0.350,+0.128,-0.913,-1.188,+0.000,-0.125,-5, -2, -2, -1, -1, 0, -1, -2,0.426845695975386,0.3322581523205638
1503704013994,-0.199,-0.092,-0.149,-0.964,+0.352,+0.139,-0.912,-1.062,+0.750,+0.062,0, -1, -1, -1, -2, 0, 0, -2,0.426845695975386,0.3322581523205638
1503704014016,-0.199,-0.092,-0.149,-0.964,+0.355,+0.134,-0.918,-0.938,+0.500,+0.562,2, 0, -1, -2, 0, 0, 0, -2,0.426845695975386,0.3322581523205638
1503704014038,-0.199,-0.092,-0.149,-0.964,+0.355,+0.133,-0.924,-0.938,+0.125,+0.625,-1, 0, 1, -2, -1, -1, -1, -1,0.426845695975386,0.3322581523205638
1503704014053,-0.199,-0.092,-0.149,-0.964,+0.353,+0.135,-0.931,-0.750,+0.000,+0.625,-1, -1, -1, 0, -2, -2, 0, 2,0.426845695975386,0.3322581523205638
1503704014074,-0.199,-0.092,-0.149,-0.964,+0.348,+0.126,-0.915,-0.625,+0.500,+0.312,-1, -1, -1, -2, 0, -2, -1, -1,0.426845695975386,0.3322581523205638
1503704014097,-0.199,-0.092,-0.149,-0.964,+0.348,+0.124,-0.922,-0.625,+0.000,+0.625,-1, -2, -1, -1, -1, 0, -3, -4,0.426845695975386,0.3322581523205638
1503704014119,-0.199,-0.092,-0.149,-0.964,+0.356,+0.129,-0.926,-0.875,+0.438,+0.312,-2, -2, -2, -3, -1, 1, -1, -1,0.426845695975386,0.3322581523205638
1503704014135,-0.199,-0.092,-0.149,-0.964,+0.354,+0.125,-0.918,-0.750,+0.438,+0.312,-1, -1, -1, 0, 1, 0, -5, -1,0.426845695975386,0.3322581523205638
1503704014157,-0.199,-0.092,-0.149,-0.964,+0.354,+0.125,-0.919,-1.250,+0.312,+0.312,0, -2, 1, 0, -2, 0, 2, 1,0.426845695975386,0.3322581523205638
1503704014172,-0.199,-0.092,-0.149,-0.964,+0.355,+0.133,-0.918,-0.875,-0.125,+0.250,1, 0, -1, 0, -2, 0, -2, 0,0.426845695975386,0.3322581523205638
1503704014196,-0.199,-0.092,-0.149,-0.964,+0.350,+0.129,-0.920,-1.188,+0.312,+0.812,-2, 0, -2, -2, -1, -1, 1, -1,0.426845695975386,0.3322581523205638
1503704014217,-0.199,-0.092,-0.149,-0.964,+0.353,+0.132,-0.917,-1.250,+0.312,+0.688,-2, 0, 0, -1, -2, -1, -1, -2,0.426845695975386,0.3322581523205638
1503704014235,-0.199,-0.092,-0.149,-0.964,+0.354,+0.132,-0.925,-1.062,-0.312,+1.188,-1, 1, 0, -3, -1, -1, -1, -3,0.426845695975386,0.3322581523205638
1503704014254,-0.199,-0.092,-0.149,-0.964,+0.354,+0.129,-0.909,-0.625,+0.000,+0.312,-2, -4, 1, 1, -1, 0, 1, -1,0.426845695975386,0.3322581523205638
1503704014277,-0.199,-0.092,-0.149,-0.964,+0.350,+0.129,-0.921,-0.938,-0.875,+0.500,-1, -1, 0, -1, -1, -1, -2, 0,0.426845695975386,0.3322581523205638
1503704014292,-0.199,-0.092,-0.149,-0.964,+0.348,+0.125,-0.918,-1.000,-0.062,+0.438,-2, -2, 0, 0, 0, -2, -5, -5,0.426845695975386,0.3322581523205638
1503704014314,-0.199,-0.092,-0.149,-0.964,+0.348,+0.128,-0.920,-1.125,+1.312,+0.188,-2, 0, -1, 0, -1, -1, 1, -2,0.426845695975386,0.3322581523205638
1503704014338,-0.199,-0.092,-0.149,-0.964,+0.361,+0.125,-0.915,-1.125,+0.938,+0.188,2, -2, -1, -2, 0, 0, 4, 5,0.426845695975386,0.3322581523205638
1503704014353,-0.199,-0.092,-0.149,-0.964,+0.354,+0.134,-0.918,-0.812,-0.125,+0.188,0, 0, -2, -2, 2, -2, 1, 3,0.426845695975386,0.3322581523205638
1503704014376,-0.199,-0.092,-0.149,-0.964,+0.355,+0.129,-0.926,-1.125,+0.125,+0.312,-3, -3, -2, 1, -1, 0, -2, -1,0.426845695975386,0.3322581523205638
1503704014398,-0.199,-0.092,-0.149,-0.964,+0.357,+0.130,-0.913,-1.062,+0.812,+0.250,1, 1, -1, 0, -2, 1, 0, -2,0.426845695975386,0.3322581523205638
1503704014413,-0.199,-0.092,-0.149,-0.964,+0.353,+0.132,-0.918,-0.812,-0.062,+0.438,1, 1, 1, 1, 0, -2, -2, -2,0.426845695975386,0.3322581523205638
1503704014435,-0.199,-0.092,-0.149,-0.964,+0.350,+0.129,-0.919,-1.125,-0.875,+0.688,-4, -4, -1, -1, -2, -1, -3, -2,0.426845695975386,0.3322581523205638
1503704014458,-0.199,-0.092,-0.149,-0.964,+0.355,+0.130,-0.921,-1.500,+0.188,+0.188,1, 1, 0, 0, -1, -1, 1, 2,0.426845695975386,0.3322581523205638
1503704014480,-0.199,-0.092,-0.149,-0.964,+0.352,+0.131,-0.913,-1.750,+0.312,+0.375,-1, 0, -1, -1, -1, 0, 0, -1,0.426845695975386,0.3322581523205638
1503704014495,-0.199,-0.092,-0.149,-0.964,+0.358,+0.126,-0.913,-1.250,-0.375,+0.250,0, 0, 0, -2, 0, -1, -1, -1,0.426845695975386,0.3322581523205638
1503704014517,-0.199,-0.092,-0.149,-0.964,+0.356,+0.132,-0.914,-1.250,-0.125,+0.000,-3, -1, 0, 1, -1, -2, 1, 0,0.426845695975386,0.3322581523205638
1503704014541,-0.199,-0.092,-0.149,-0.964,+0.345,+0.130,-0.919,-1.188,+0.125,+0.062,0, 0, 1, 0, -1, 0, -1, -4,0.426845695975386,0.3322581523205638
1503704014555,-0.199,-0.092,-0.149,-0.964,+0.352,+0.134,-0.922,-1.000,+1.188,+0.188,1, 2, -1, -2, -1, -1, 0, -2,0.426845695975386,0.3322581523205638
1503704014585,-0.199,-0.092,-0.150,-0.964,+0.360,+0.131,-0.914,-0.750,+0.438,+0.562,-1, -1, -1, -1, 0, -3, 1, 0,0.4270143609366238,0.3342898967393901
1503704014592,-0.199,-0.092,-0.150,-0.964,+0.362,+0.124,-0.919,-0.812,+0.500,+0.188,-3, -2, -2, -1, 0, -1, -2, -3,0.4270143609366238,0.3342898967393901
1503704014615,-0.199,-0.092,-0.150,-0.964,+0.357,+0.130,-0.911,-1.062,+0.125,+0.375,1, -1, 1, 0, 0, -1, 2, -2,0.4270143609366238,0.3342898967393901
1503704014637,-0.199,-0.092,-0.150,-0.964,+0.355,+0.125,-0.922,-0.750,-0.688,+1.125,-2, 2, 0, -1, -1, -2, -2, -1,0.4270143609366238,0.3342898967393901
1503704014652,-0.199,-0.092,-0.150,-0.964,+0.337,+0.108,-0.875,-0.062,+0.562,+1.688,-1, -2, 0, 0, -1, -2, 0, -2,0.4270143609366238,0.3342898967393901
1503704014674,-0.199,-0.092,-0.151,-0.964,+0.325,+0.131,-0.884,+0.375,+7.375,+1.625,1, -1, 0, 0, 0, 1, -2, 3,0.42718300001357196,0.3363226934730655
1503704014699,-0.199,-0.092,-0.154,-0.964,+0.357,+0.148,-0.931,+2.625,+19.500,-0.188,1, 0, -2, -2, 0, -1, 1, -1,0.427688761902398,0.3424274592432217
1503704014713,-0.197,-0.092,-0.156,-0.964,+0.423,+0.189,-0.937,+8.188,+9.062,-8.625,-1, -1, 1, -2, -5, -2, 1, -2,0.4238322713088585,0.34615422082376074
1503704014737,-0.195,-0.092,-0.159,-0.964,+0.363,+0.172,-0.825,+9.000,+15.250,-7.875,0, 1, 3, 3, -1, 0, 4, 1,0.42015154310826347,0.3519283795891163
1503704014757,-0.193,-0.093,-0.163,-0.963,+0.500,+0.346,-0.971,+12.750,+19.688,-1.125,-1, -1, 0, 24, 3, -22, -28, -3,0.4167428310076242,0.3599486070862682
1503704014780,-0.195,-0.091,-0.168,-0.962,+0.445,+0.276,-0.946,+24.562,+20.562,+18.688,-4, -2, -2, -30, -1, 8, 9, -2,0.4204973696025326,0.3692277903418289
1503704014803,-0.197,-0.085,-0.173,-0.961,+0.463,+0.262,-1.015,+44.562,+22.125,+24.938,-1, -4, -7, -2, 7, 18, 2, -1,0.42237259308083563,0.3765134514694078
1503704014817,-0.197,-0.079,-0.181,-0.960,+0.471,+0.423,-1.170,+61.500,+41.812,+21.688,-4, -3, -8, -10, -4, -4, -1, -7,0.42045955300390514,0.3896798676338606
1503704014840,-0.199,-0.068,-0.191,-0.959,+0.465,+0.223,-1.085,+79.375,+43.562,+33.875,-1, -7, -10, 6, 17, 6, 5, -3,0.4205347439486312,0.4049501709547808
1503704014854,-0.199,-0.057,-0.203,-0.957,+0.291,+0.409,-0.971,+97.562,+71.000,+28.312,0, 3, 6, -9, -11, -4, -1, 2,0.4160965115584073,0.42398535397760406
1503704014877,-0.204,-0.040,-0.219,-0.953,+0.581,+0.191,-1.076,+111.062,+73.312,+62.062,10, 0, -24, -5, -9, -5, -4, 1,0.4185111032135392,0.4487034523123438
1503704014901,-0.206,-0.022,-0.237,-0.949,+0.644,+0.195,-0.945,+121.938,+79.125,+46.312,-3, 1, 19, 12, 12, -3, 2, 1,0.41376025512077824,0.47757239381078076
1503704014916,-0.208,-0.001,-0.254,-0.945,+0.571,+0.082,-0.958,+133.750,+74.688,+48.875,-3, 10, -18, -1, -6, -3, -2, 1,0.4068700880970112,0.5041158182583795
1503704014937,-0.210,+0.020,-0.271,-0.939,+0.546,+0.094,-0.858,+139.875,+78.438,+53.312,-1, -1, 10, -4, -3, -1, -1, -1,0.3984861307830265,0.5310041825893509
1503704014959,-0.213,+0.042,-0.290,-0.932,+0.534,+0.078,-0.738,+145.188,+85.188,+58.688,-2, -8, -4, -7, -9, -3, -1, -4,0.3903452447281827,0.562926787735623
1503704014975,-0.216,+0.067,-0.308,-0.924,+0.526,-0.024,-0.658,+157.312,+86.188,+64.812,0, 6, 13, 10, 11, 3, 2, 2,0.37936502294680946,0.5932063786813117
1503704014997,-0.218,+0.093,-0.329,-0.914,+0.524,-0.179,-0.589,+168.500,+95.875,+63.938,-4, -2, -15, -8, -2, -1, 0, -1,0.36314846688028685,0.631873549512297
1503704015019,-0.219,+0.119,-0.351,-0.903,+0.565,-0.322,-0.531,+168.062,+107.750,+57.562,-1, -2, 2, -2, -9, -3, -2, 1,0.3422196260646196,0.6760537791269222
1503704015036,-0.219,+0.143,-0.372,-0.890,+0.589,-0.399,-0.466,+163.812,+106.312,+53.188,-2, -8, 0, -2, -2, -4, -4, -4,0.3172618467645994,0.7208879222985013
1503704015059,-0.219,+0.167,-0.391,-0.878,+0.591,-0.498,-0.405,+154.125,+94.625,+53.625,0, 6, 13, 4, -1, 0, 0, -2,0.2908943228635823,0.7654233460087165
1503704015080,-0.220,+0.190,-0.407,-0.866,+0.556,-0.542,-0.371,+143.125,+75.562,+53.125,-1, 0, 10, 0, -3, -1, 2, -1,0.2659648842100504,0.8057775636956273
1503704015095,-0.220,+0.209,-0.420,-0.855,+0.524,-0.626,-0.390,+125.750,+67.812,+45.438,3, -1, 4, 1, -5, 0, 0, 1,0.24114553217009743,0.8413242966970319
1503704015117,-0.219,+0.225,-0.430,-0.846,+0.500,-0.709,-0.392,+103.625,+54.625,+31.125,-2, -3, -2, 1, 3, 0, -4, 0,0.2170561861946292,0.871594636079928
1503704015140,-0.219,+0.241,-0.438,-0.838,+0.516,-0.781,-0.347,+90.812,+39.125,+24.500,-4, -1, 14, -1, -8, 1, 1, -1,0.19537481206103552,0.8986549023634196
1503704015155,-0.219,+0.255,-0.443,-0.831,+0.485,-0.817,-0.326,+68.188,+26.688,+25.438,-1, -10, -12, -7, -1, -1, -3, -2,0.17649439491637187,0.9181163557419783
1503704015178,-0.221,+0.267,-0.445,-0.826,+0.469,-0.841,-0.319,+51.500,+12.500,+25.625,-1, 0, -6, -1, -4, 0, -1, -2,0.1662225364210132,0.9288240465419478
1503704015199,-0.224,+0.277,-0.446,-0.821,+0.468,-0.922,-0.316,+35.062,+7.500,+26.438,4, 17, 26, 6, -3, 1, 0, 2,0.16039737646061497,0.9351985768971957
1503704015214,-0.230,+0.285,-0.446,-0.817,+0.404,-1.112,-0.376,+14.438,+16.250,+28.688,-2, -17, -18, -1, -4, -1, -1, -2,0.164672180919141,0.9364921952020934
1503704015241,-0.240,+0.290,-0.447,-0.811,+0.426,-0.962,-0.290,-7.562,+31.375,+40.438,-4, 6, 17, 7, 8, 4, 0, -1,0.17948752513721225,0.9352002546590853
1503704015259,-0.251,+0.296,-0.448,-0.805,+0.458,-0.992,-0.350,-0.562,+33.188,+58.125,-6, -38, -28, -12, -11, -2, -3, -1,0.19621297675318974,0.9342103455618246
1503704015275,-0.266,+0.300,-0.447,-0.800,+0.431,-1.218,-0.316,-31.750,+31.625,+62.188,-4, -2, 5, -15, -29, -8, -8, -11,0.22795418239754947,0.9230673673439976
1503704015297,-0.279,+0.299,-0.448,-0.795,+0.434,-0.990,-0.077,-51.125,+29.500,+49.938,-8, -13, -10, -23, -28, -33, -6, -21,0.25812484860294255,0.9148801340890993
1503704015320,-0.286,+0.300,-0.446,-0.794,+0.842,-1.048,-0.280,-35.062,-5.812,+45.125,29, -21, -44, 1, 82, 46, 12, 50,0.2769228460637861,0.9042328600262939
1503704015339,-0.294,+0.301,-0.434,-0.797,+0.441,-1.321,-0.459,-57.312,-48.312,+28.625,22, -29, -5, -42, -127, -31, -19, -13,0.31064593922887906,0.8612503231800563
1503704015358,-0.261,+0.294,-0.433,-0.811,+0.765,-0.215,-0.193,+26.250,-93.062,-187.812,-3, 46, -38, 49, 99, 127, 57, 22,0.23954472356435338,0.8817098767151986
1503704015383,-0.250,+0.294,-0.410,-0.826,+3.105,-0.682,-0.501,-33.562,-163.688,-35.625,2, 18, -109, 16, 117, 73, -26, -116,0.24013108169289138,0.8239514640722793
1503704015395,-0.278,+0.277,-0.403,-0.827,+0.048,-1.862,+0.986,-167.438,+37.000,+108.625,22, 32, 67, 40, 85, 15, 5, 109,0.3293941737611354,0.7765284060430713
1503704015417,-0.272,+0.254,-0.380,-0.847,+0.434,-0.390,-0.910,-159.062,-125.438,-78.750,11, 15, 6, -19, -47, -60, 4, -8,0.35464510677958194,0.7150692281423839
1503704015442,-0.277,+0.223,-0.379,-0.854,+0.618,-0.154,-0.309,-177.938,+32.750,-52.625,-16, 5, 22, -14, -58, -74, -73, -23,0.3865478582316391,0.706873884054383
1503704015454,-0.268,+0.197,-0.379,-0.864,+0.460,+0.298,-0.555,-115.500,+8.438,-111.312,-5, 5, 33, -8, -16, -9, 67, -43,0.38303267765581217,0.7131007579360166
1503704015479,-0.261,+0.169,-0.383,-0.870,+0.089,+0.474,-0.924,-72.188,+81.188,-88.875,-26, -8, -7, -4, -50, -82, -29, -6,0.38267570359620434,0.7273889658310686
1503704015499,-0.251,+0.146,-0.404,-0.868,+0.189,+0.586,-0.836,-48.875,+143.375,-112.938,-11, 1, 4, 7, 26, 29, -1, 2,0.3650889099907358,0.783107438660216
1503704015514,-0.243,+0.129,-0.431,-0.860,+0.650,+0.483,-0.573,-8.438,+174.188,-82.938,-1, 1, 2, -3, -18, -1, 1, 27,0.34686812279217505,0.8508005583415345
1503704015537,-0.232,+0.120,-0.453,-0.853,+0.878,+0.200,-0.573,+22.375,+134.062,-77.312,-10, 0, -3, -7, -35, -14, 5, 14,0.3209388030820965,0.9071450000124973
1503704015559,-0.215,+0.110,-0.467,-0.850,+0.921,+0.082,-0.506,+35.562,+72.625,-83.688,0, 1, 10, 8, 20, 0, -5, -22,0.2891235506019401,0.9449496926914183
1503704015577,-0.197,+0.104,-0.476,-0.851,+0.776,+0.087,-0.505,+49.000,+39.000,-89.562,-7, -2, -7, -5, -6, -17, -4, 5,0.2565412353322763,0.9716874365419758
1503704015597,-0.177,+0.103,-0.484,-0.851,+0.712,+0.068,-0.590,+58.812,+31.688,-102.125,-2, -1, 1, 1, 1, 6, -3, -2,0.21655313693769118,0.9957427537366786
1503704015619,-0.157,+0.100,-0.490,-0.852,+0.705,-0.026,-0.542,+62.250,+25.188,-97.625,-5, 0, 2, 9, 13, 4, 2, -1,0.18017533692307436,1.0143700736663266
1503704015634,-0.139,+0.099,-0.495,-0.852,+0.761,-0.191,-0.526,+55.438,+23.750,-92.875,6, 25, 16, -8, 1, 2, 11, 2,0.1463785847774098,1.0296803547193725
1503704015657,-0.122,+0.096,-0.501,-0.851,+0.863,-0.260,-0.498,+39.125,+28.938,-97.875,0, 20, -7, -4, 3, -5, -16, -8,0.11656520221628129,1.0464904866882414
1503704015680,-0.106,+0.091,-0.508,-0.850,+0.981,-0.330,-0.460,+29.812,+31.688,-97.562,-86, -8, -2, 6, -4, -3, 1, -6,0.09105563249573866,1.0652830741746337
1503704015694,-0.089,+0.085,-0.511,-0.851,+1.037,-0.351,-0.509,+17.250,+6.750,-107.250,-23, -20, 1, -7, -13, 7, 25, -3,0.06652791799734023,1.0740081445995462
1503704015717,-0.071,+0.075,-0.509,-0.855,+1.031,-0.350,-0.516,-1.438,-28.312,-116.375,40, 3, -3, -11, -13, 10, -9, 5,0.04600967827359463,1.0699816078486741
1503704015740,-0.055,+0.065,-0.502,-0.861,+1.012,-0.374,-0.511,-12.188,-51.750,-115.938,11, -20, -6, 13, 17, -3, 2, 0,0.029874417343523363,1.0537105208354443
1503704015754,-0.040,+0.054,-0.495,-0.866,+1.021,-0.346,-0.533,-17.562,-56.938,-107.312,16, -5, 29, 3, -7, 4, 12, 2,0.015962832572227123,1.037035370488548
1503704015777,-0.027,+0.043,-0.486,-0.872,+1.080,-0.387,-0.516,-27.625,-63.312,-102.750,-11, 1, -13, -9, -8, -9, -8, -3,0.005319376792912771,1.0159308804553828
1503704015799,-0.014,+0.030,-0.477,-0.878,+1.032,-0.421,-0.528,-32.375,-70.062,-106.000,5, 28, -3, 8, 8, -2, -12, 2,-0.004044844287972286,0.995059693163644
1503704015815,-0.001,+0.018,-0.468,-0.883,+0.895,-0.313,-0.507,-31.625,-58.312,-104.562,7, 30, 5, 22, 11, -28, -8, -1,-0.015090664048973858,0.9741852990522855
1503704015837,+0.014,+0.008,-0.461,-0.887,+0.884,-0.297,-0.545,-18.500,-53.188,-107.312,-7, 106, -25, -6, -4, -16, -1, 18,-0.03221760730930509,0.9582649188605511
1503704015860,+0.029,-0.001,-0.450,-0.893,+0.953,-0.312,-0.496,-8.812,-72.812,-106.375,28, -128, 8, -9, -9, 7, -9, -1,-0.05093575419803385,0.9334824810574999
1503704015875,+0.041,-0.005,-0.440,-0.897,+0.845,-0.279,-0.521,-0.562,-69.125,-91.000,66, 20, 7, 2, 13, 9, -4, -10,-0.0692797079693014,0.9104467608813239
1503704015897,+0.053,-0.007,-0.432,-0.900,+0.837,-0.214,-0.522,+7.062,-52.438,-85.188,127, 109, 5, 7, 10, 6, 6, -4,-0.08962492408783848,0.8920124743447266
1503704015920,+0.064,-0.008,-0.427,-0.902,+0.913,-0.173,-0.514,+8.812,-41.000,-74.625,-4, -62, 3, -7, -6, 4, -2, -24,-0.10910039283808884,0.8805673910700931
1503704015935,+0.072,-0.010,-0.424,-0.903,+0.906,-0.053,-0.520,+4.938,-32.375,-55.562,-110, 84, 8, -1, -2, 0, -5, 18,-0.12223779190431218,0.8734938035039915
1503704015957,+0.078,-0.012,-0.422,-0.903,+0.857,+0.033,-0.569,+3.938,-16.750,-39.812,-73, -102, -6, -6, -7, -4, -2, -13,-0.1316236165397926,0.8683500348900386
1503704015979,+0.082,-0.013,-0.422,-0.903,+0.941,+0.061,-0.581,+0.000,-8.188,-26.500,-31, -128, 6, -3, 0, 0, 5, 16,-0.1381510941447322,0.868219672378972
1503704015995,+0.083,-0.016,-0.422,-0.903,+1.023,+0.177,-0.597,-9.188,-9.000,-12.438,-12, 26, -16, -6, 5, 0, 1, 17,-0.13749822015472693,0.8680128965889551
1503704016017,+0.083,-0.019,-0.421,-0.903,+1.029,+0.257,-0.618,-11.062,-18.688,+3.750,-51, 106, 3, -4, -4, 1, 4, 0,-0.13504317182522985,0.8653830509464941
1503704016042,+0.080,-0.020,-0.418,-0.905,+0.963,+0.247,-0.632,-7.188,-28.625,+16.375,-23, 72, -25, -3, -3, 0, -2, -2,-0.12912346630005336,0.8591190964894145
1503704016055,+0.076,-0.021,-0.415,-0.906,+0.869,+0.239,-0.637,-7.625,-25.375,+26.188,-4, -70, -5, -4, -2, 0, -2, -1,-0.12119946337311767,0.8523609178925841
1503704016080,+0.071,-0.021,-0.414,-0.907,+0.900,+0.200,-0.617,-11.125,-12.062,+32.250,3, 33, -9, -4, -4, 0, 2, 10,-0.11216819394646561,0.850594664244097
1503704016100,+0.064,-0.020,-0.416,-0.907,+0.928,+0.167,-0.634,-9.375,+1.250,+39.750,11, -106, 37, 1, -2, -1, -1, -10,-0.10002351408024096,0.855719947580952
1503704016115,+0.057,-0.019,-0.418,-0.906,+0.952,+0.152,-0.630,-8.312,+7.812,+48.250,1, 29, -10, -6, -4, -2, 1, -23,-0.08780923567342093,0.86028561222117
1503704016137,+0.049,-0.015,-0.420,-0.906,+0.899,+0.115,-0.646,-2.562,+7.625,+52.375,-1, 18, 20, 13, 7, 0, 0, -24,-0.0764410157347241,0.865450285664057
1503704016159,+0.040,-0.011,-0.422,-0.906,+0.813,+0.074,-0.653,+0.188,+10.500,+56.375,-17, 10, -3, -4, -3, 0, -1, 4,-0.06332947235527726,0.8705944605045227
1503704016176,+0.031,-0.007,-0.425,-0.905,+0.776,+0.067,-0.632,-1.312,+25.188,+57.312,19, 30, 29, 1, -3, 2, 4, 11,-0.050219268410150175,0.8776168191066493
1503704016197,+0.022,-0.003,-0.430,-0.902,+0.781,+0.072,-0.618,-1.375,+35.812,+65.125,-18, -23, -12, -3, 0, 0, -5, -58,-0.037127555628580645,0.8884667633316655
1503704016220,+0.011,+0.002,-0.437,-0.900,+0.839,+0.043,-0.623,-3.438,+41.438,+71.562,20, -1, 23, 6, 0, -5, -1, 18,-0.021550051745282905,0.904845504370974
1503704016235,-0.001,+0.006,-0.442,-0.897,+0.819,+0.015,-0.603,-6.500,+35.938,+71.938,13, -2, -1, 1, 0, 1, 2, 8,-0.0035102453416112783,0.9156958163380152
1503704016257,-0.011,+0.010,-0.446,-0.895,+0.766,-0.030,-0.587,-10.312,+28.812,+65.312,-1, 6, -4, 3, 2, -2, -8, -4,0.010774345506877973,0.9245919508884184
1503704016281,-0.021,+0.011,-0.449,-0.893,+0.729,-0.075,-0.550,-18.312,+28.062,+50.125,6, -12, -16, -5, 0, 4, 2, 18,0.027652038751701993,0.9309248862000593
1503704017120,-0.004,-0.057,-0.437,-0.898,+0.859,+0.113,-0.661,+20.500,+29.938,-10.312,1, -11, -7, -3, -2, -6, -2, -23,0.05731383082388921,0.9091433976238948
1503704017135,+0.000,-0.053,-0.444,-0.894,+1.000,+0.125,-0.667,+31.375,+45.000,-6.188,-8, -6, 1, 1, 1, 0, -6, -55,0.047294605258843304,0.92351213948088
1503704017158,+0.005,-0.045,-0.451,-0.892,+1.099,+0.077,-0.663,+46.500,+36.562,-3.312,-1, -11, -18, -9, -3, 1, 0, 13,0.03178966853402831,0.938492627994738
1503704017179,+0.010,-0.036,-0.456,-0.889,+1.077,+0.038,-0.610,+55.938,+25.938,-5.875,11, -19, -4, 3, 1, -2, -6, -23,0.015092996688142235,0.9481556164421943
1503704017196,+0.016,-0.026,-0.460,-0.888,+1.001,+0.009,-0.587,+69.000,+26.000,-5.938,-1, -9, -8, -2, -3, 1, -3, -1,-0.004504365730767481,0.9566588914476193
1503704017218,+0.022,-0.013,-0.465,-0.885,+0.935,-0.020,-0.604,+78.250,+35.188,-1.438,-6, 11, 7, 4, 3, 0, -2, -30,-0.026878637161517123,0.9670586992392033
1503704017239,+0.028,+0.001,-0.471,-0.882,+0.906,-0.044,-0.593,+82.750,+46.375,+5.062,-2, 20, 12, -5, -2, -1, -3, -1,-0.050370505554212304,0.9808111067686559
1503704017256,+0.033,+0.017,-0.479,-0.877,+0.941,-0.102,-0.573,+88.812,+58.312,+10.875,9, 2, -9, -1, 0, -3, -2, 18,-0.07423629784685681,0.9997011125435445
1503704017278,+0.037,+0.033,-0.487,-0.872,+0.989,-0.100,-0.549,+90.125,+59.688,+15.938,8, -23, -11, -2, -2, -2, 3, -30,-0.09684368147902508,1.0197224377445542
1503704017299,+0.041,+0.049,-0.494,-0.867,+0.899,-0.101,-0.524,+90.625,+56.062,+17.062,2, -15, -2, -4, -4, -3, 0, -11,-0.11991162448733027,1.0383108024728203
1503704017334,+0.046,+0.066,-0.501,-0.862,+0.841,-0.121,-0.500,+96.562,+58.375,+17.000,-8, -11, -9, -1, 4, 0, -2, 17,-0.14629061325044884,1.0583843777817334
1503704017338,+0.051,+0.084,-0.509,-0.855,+0.851,-0.118,-0.502,+103.250,+61.438,+21.688,9, -6, -5, -7, -7, 0, -3, 1,-0.1743357209596102,1.0817709294995823
1503704017360,+0.055,+0.102,-0.516,-0.849,+0.866,-0.125,-0.480,+101.688,+58.438,+28.062,4, -12, -3, 11, 8, -3, -7, 24,-0.20136997677949456,1.1044603973352058
1503704017375,+0.059,+0.118,-0.520,-0.844,+0.791,-0.087,-0.392,+98.125,+47.250,+27.062,7, -16, -11, -1, -2, 0, -1, 13,-0.2263815762007299,1.1202331466009492
1503704017404,+0.064,+0.134,-0.526,-0.838,+0.705,-0.098,-0.419,+94.188,+56.188,+23.000,1, -18, -4, -4, -7, -3, -4, -71,-0.2540731259000714,1.1421205418032518
1503704017422,+0.068,+0.147,-0.532,-0.831,+0.782,-0.073,-0.424,+84.062,+65.625,+18.500,12, 2, 19, 7, 2, 2, 1, -25,-0.27703076323839526,1.162890459264586
1503704017436,+0.072,+0.160,-0.538,-0.824,+0.844,-0.036,-0.417,+80.562,+58.688,+18.750,12, 12, -3, -5, 2, 0, -2, 23,-0.30051047129507535,1.1845730723348356
1503704017458,+0.077,+0.172,-0.540,-0.820,+0.805,-0.080,-0.426,+81.875,+31.375,+16.500,15, 10, -1, -13, -10, 0, 11, -123,-0.3240564837156087,1.1971166102590491
1503704017479,+0.082,+0.184,-0.540,-0.817,+0.683,-0.098,-0.404,+80.062,+21.375,+14.500,-1, -6, -39, -9, -11, 1, 0, -18,-0.34740958617201106,1.2054254939899247
1503704017496,+0.088,+0.192,-0.542,-0.813,+0.737,-0.088,-0.363,+64.125,+30.688,+0.375,-3, -18, -121, -5, -4, 3, 1, 14,-0.3680481909192348,1.2162598169567345
1503704017519,+0.093,+0.198,-0.544,-0.810,+0.804,-0.085,-0.360,+51.562,+27.062,-2.938,-4, 36, 127, -5, -3, -2, -2, -32,-0.3846619497515834,1.226011265401228
1503704017539,+0.099,+0.203,-0.545,-0.808,+0.828,-0.118,-0.375,+46.750,+14.500,-6.875,-11, -55, 71, -22, -33, -3, -5, 54,-0.4015050858850635,1.2329494344878558
1503704017556,+0.105,+0.208,-0.543,-0.807,+0.769,-0.135,-0.366,+46.562,-1.562,-10.562,-27, -113, 23, -3, -120, -1, -7, 46,-0.4174469639292909,1.2324326227141085
1503704017578,+0.111,+0.211,-0.542,-0.806,+0.812,-0.105,-0.330,+34.875,+0.875,-11.438,5, -6, 11, -12, -36, 13, 6, 92,-0.43109277474347024,1.2329230516872964
1503704017599,+0.115,+0.211,-0.541,-0.806,+0.825,-0.125,-0.327,+17.750,-3.812,-11.562,-9, 127, 6, -10, 98, 50, -4, -69,-0.4374731453001216,1.2308561378537872
1503704017616,+0.118,+0.210,-0.541,-0.806,+0.852,-0.131,-0.319,+8.375,-3.688,-16.812,20, 117, -3, -17, 77, 91, 7, -39,-0.4411926360499443,1.2303955083829428
1503704017637,+0.122,+0.208,-0.540,-0.806,+0.884,-0.125,-0.315,+1.750,-4.438,-17.312,-88, -128, 0, -23, 29, 43, 5, 34,-0.4448734753808409,1.2265593499555953
1503704017661,+0.124,+0.206,-0.539,-0.807,+0.873,-0.145,-0.352,-1.438,-9.500,-10.000,-98, -110, 0, 11, 7, -16, -19, 5,-0.44540736713154727,1.2228267030524453
1503704017676,+0.124,+0.204,-0.538,-0.808,+0.889,-0.140,-0.299,-8.000,-4.750,-6.500,41, -38, 1, -2, 2, -85, 7, -52,-0.4425550771186228,1.218827850252174
1503704017698,+0.124,+0.201,-0.537,-0.809,+0.883,-0.150,-0.336,-15.875,-5.062,-4.000,29, 127, -1, 0, 2, -39, -9, -118,-0.4383798727934284,1.2139907750654138
1503704017722,+0.124,+0.198,-0.537,-0.811,+0.905,-0.147,-0.337,-14.812,-6.625,-4.125,10, -103, -1, 0, 1, -36, -11, -11,-0.4348324700423454,1.2122069439873229
1503704017736,+0.123,+0.196,-0.535,-0.813,+0.902,-0.172,-0.360,-14.875,-10.000,-0.500,9, -107, -1, 24, -2, -18, 9, -55,-0.4301949472024365,1.2059086661250988
1503704017758,+0.122,+0.194,-0.533,-0.814,+0.913,-0.140,-0.376,-13.062,-8.312,+3.000,19, 67, 0, -1, -1, -6, 21, 54,-0.42534881838999405,1.1992470507276318
1503704017780,+0.121,+0.191,-0.532,-0.816,+0.946,-0.134,-0.329,-18.875,-9.562,+4.500,30, 64, 0, -7, -1, -1, -1, 73,-0.4197982876382822,1.1948122177429024
1503704017796,+0.118,+0.188,-0.532,-0.817,+0.947,-0.183,-0.306,-24.625,-7.188,+7.188,6, 39, -1, -1, -1, -3, -10, -12,-0.41096960397327087,1.192365942656986
1503704017818,+0.115,+0.185,-0.532,-0.819,+0.971,-0.137,-0.346,-29.438,-4.375,+7.312,-16, 38, -1, 3, 0, 9, -6, 47,-0.40237821922237477,1.1903695597965456
1503704017840,+0.111,+0.181,-0.532,-0.820,+1.015,-0.157,-0.345,-33.375,-2.812,+9.062,-19, 2, 0, -8, 24, 13, -4, -59,-0.39059355526954276,1.1871153451933962
1503704017856,+0.107,+0.176,-0.532,-0.821,+0.984,-0.126,-0.326,-35.875,-3.250,+5.938,1, -1, -1, 8, 37, 2, -4, -8,-0.37758088996310674,1.1831988013072159
1503704017878,+0.104,+0.170,-0.534,-0.822,+0.976,-0.098,-0.303,-37.562,+3.125,+1.000,8, -11, 0, -12, 1, 2, 8, 42,-0.36572649998756795,1.184088964618081
1503704017900,+0.101,+0.163,-0.536,-0.822,+0.962,-0.135,-0.260,-46.500,+7.938,-5.625,-5, -10, 0, 1, -3, 5, 1, -5,-0.352470080892744,1.184056833978702
1503704017922,+0.096,+0.156,-0.540,-0.821,+0.979,-0.239,-0.271,-54.500,+15.500,-8.000,13, 35, 0, 18, 20, 3, -10, -3,-0.3362912601899535,1.188903332190555
1503704017938,+0.091,+0.147,-0.544,-0.821,+1.024,-0.099,-0.289,-60.750,+17.188,-7.062,0, 17, -1, -3, -13, 1, 6, -43,-0.31787008500798586,1.193189471185386
1503704017960,+0.087,+0.137,-0.548,-0.821,+1.015,-0.116,-0.184,-65.562,+2.562,-12.375,0, -3, 0, -2, -13, 0, 2, -18,-0.29996565062442837,1.1974104127662468
1503704017976,+0.082,+0.125,-0.551,-0.821,+0.891,-0.167,-0.189,-83.562,+6.000,-19.500,-5, -15, -1, -4, -15, -2, -3, 72,-0.2777678487514019,1.1982803488691727
1503704017998,+0.073,+0.109,-0.557,-0.820,+0.834,-0.132,-0.255,-108.125,+27.938,-13.312,4, -7, -1, -2, -44, -1, -5, -10,-0.24473594149094935,1.2052349500611033
1503704018027,+0.060,+0.093,-0.566,-0.817,+0.833,+0.065,-0.358,-122.250,+56.312,+2.375,-3, -12, 0, -4, -12, -2, 6, 31,-0.2054802895777473,1.2204929175285992
1503704018036,+0.049,+0.078,-0.575,-0.813,+0.903,+0.168,-0.487,-108.000,+66.250,-2.625,1, 0, -1, -1, 10, -2, 4, -40,-0.1706226572511252,1.2372683484142866
1503704018058,+0.043,+0.062,-0.580,-0.811,+0.993,+0.175,-0.472,-90.500,+38.500,-9.562,-1, -6, 0, -3, 5, -30, 8, -5,-0.14232866255497395,1.2451050596003277
1503704018080,+0.037,+0.050,-0.581,-0.811,+0.991,+0.121,-0.453,-77.062,+18.000,-1.188,-1, 1, -1, -9, -5, 13, 6, 56,-0.11847760868112843,1.2447546436082868
1503704018096,+0.030,+0.040,-0.581,-0.812,+0.854,+0.083,-0.476,-66.875,+13.750,+7.438,0, -7, 17, -1, 14, 11, 3, 77,-0.09538802718163919,1.2430037697773137
1503704018118,+0.020,+0.032,-0.580,-0.814,+0.774,+0.113,-0.539,-72.938,+10.438,+25.375,-11, -13, 1, 2, -3, 3, 15, 8,-0.0697656059902253,1.2395777672555257
1503704018140,+0.008,+0.025,-0.578,-0.815,+0.737,+0.149,-0.567,-69.562,+12.500,+51.688,-1, -6, -5, -7, -8, 0, -7, 14,-0.041973206919556624,1.233466648890289
1503704018158,-0.005,+0.021,-0.576,-0.817,+0.779,+0.079,-0.531,-60.000,+3.750,+53.875,-1, 2, -7, -9, 3, -1, -11, -16,-0.016035571832707433,1.2282400842764434
1503704018178,-0.015,+0.019,-0.572,-0.820,+0.812,+0.068,-0.467,-42.750,-12.562,+51.375,1, 0, -3, -8, 5, -1, -6, -50,0.002867352688352591,1.2182647302776912
1503704018200,-0.023,+0.019,-0.565,-0.825,+0.814,+0.009,-0.433,-26.125,-36.062,+38.062,-3, -8, -13, -1, 5, -2, -3, -12,0.016507887021600404,1.2011869075250703
1503704018216,-0.027,+0.019,-0.555,-0.831,+0.759,-0.056,-0.421,-16.312,-56.375,+21.688,6, -2, -7, 5, 6, 1, -2, -25,0.023831449777573455,1.1766360679516241
1503704018238,-0.029,+0.019,-0.546,-0.837,+0.782,-0.126,-0.394,-15.938,-60.688,+2.688,-22, -15, -18, -9, -9, 1, 1, 60,0.027857778794749682,1.1550336585616359
1503704018260,-0.029,+0.017,-0.537,-0.843,+0.850,-0.106,-0.388,-15.250,-58.438,-9.000,-2, -4, -5, -2, -3, -3, -2, 43,0.0306957497468781,1.1335949972305819
1503704018275,-0.028,+0.014,-0.527,-0.849,+0.892,-0.103,-0.442,-14.188,-63.562,-18.938,11, 2, 6, 2, -2, 0, 4, 10,0.03284057936202787,1.109729936409363
1503704018298,-0.026,+0.009,-0.515,-0.857,+0.953,-0.135,-0.493,-23.938,-84.062,-32.812,41, 0, 3, 4, -4, -2, -2, -115,0.03533280555113234,1.0818464914000439
1503704018320,-0.020,+0.001,-0.499,-0.866,+0.990,-0.129,-0.417,-27.812,-105.312,-53.188,17, -2, -2, -5, -2, 1, -1, 52,0.03365628877312787,1.0445688002369504
1503704018336,-0.013,-0.007,-0.483,-0.875,+1.001,-0.132,-0.328,-25.750,-110.500,-64.688,12, 3, 4, 0, -5, -3, 2, 16,0.029516298206732048,1.0080155212725985
1503704018358,-0.007,-0.013,-0.473,-0.881,+1.060,-0.146,-0.363,-20.750,-85.625,-57.812,11, -7, -7, -8, -3, -1, -2, -85,0.024637757829128883,0.9857349956595584
1503704018380,-0.003,-0.020,-0.464,-0.886,+1.051,-0.086,-0.448,-33.688,-74.062,-49.438,3, -4, -4, -2, 2, -2, -3, 60,0.02389100001832895,0.9658240411074164
1503704018396,-0.001,-0.029,-0.452,-0.891,+1.003,-0.011,-0.485,-44.625,-83.500,-38.875,0, 3, -5, -3, -8, 1, -4, 45,0.02803787878272225,0.9388602160392332
1503704018418,-0.000,-0.037,-0.443,-0.896,+1.055,-0.041,-0.553,-41.812,-73.000,-33.312,-17, -8, 3, 4, -4, -2, -1, 10,0.032860171064441716,0.9197823065102302
1503704018440,-0.001,-0.043,-0.434,-0.900,+1.011,-0.047,-0.556,-41.375,-64.812,-25.938,-10, 5, -5, -2, -5, 1, -1, 28,0.03924912961799428,0.9003145435355078
1503704018462,-0.001,-0.050,-0.427,-0.903,+1.077,-0.089,-0.515,-41.375,-66.875,-29.125,-2, -8, -7, 0, -2, 0, -1, -3,0.04469994290970422,0.8856033717078722
1503704018478,-0.000,-0.057,-0.418,-0.906,+0.973,-0.010,-0.491,-41.438,-67.125,-30.125,9, 16, -8, -10, -5, -2, 0, -6,0.04792693824483172,0.866110364853063
1503704018501,-0.000,-0.062,-0.411,-0.909,+0.904,+0.011,-0.522,-31.562,-55.062,-23.375,-22, -14, -3, 1, -2, -1, -2, -7,0.051313761203768876,0.851457371432728
1503704018522,+0.000,-0.064,-0.405,-0.912,+0.903,-0.043,-0.561,-20.062,-50.250,-19.938,12, 17, -1, 0, -2, -4, 1, -4,0.05222066056737659,0.8387970306841741
1503704018538,-0.000,-0.065,-0.399,-0.914,+0.908,-0.067,-0.611,-15.062,-44.938,-12.562,6, -22, 0, 4, 5, 2, 3, -24,0.05226439675341835,0.8254645517749604
1503704018560,-0.002,-0.065,-0.396,-0.916,+0.884,-0.031,-0.583,-9.312,-34.000,-2.250,12, 15, 4, 2, -3, 0, -2, 2,0.055557154961617394,0.8194490443565132
1503704018582,-0.005,-0.063,-0.394,-0.917,+0.800,-0.065,-0.576,-5.875,-18.750,+9.125,2, 20, 34, 11, 4, 2, 2, -4,0.05921826974745886,0.8150275349380122
1503704018600,-0.008,-0.061,-0.394,-0.917,+0.786,-0.022,-0.561,-2.875,-9.875,+13.250,13, -2, 7, 1, -1, 0, -1, 21,0.06313454641745238,0.8149031787082909
1503704018620,-0.010,-0.059,-0.393,-0.917,+0.766,+0.034,-0.614,-0.062,-4.438,+10.688,6, 9, -2, -7, -2, 1, 0, 10,0.0650887518814956,0.8122763229877729
1503704018642,-0.010,-0.056,-0.394,-0.917,+0.777,+0.083,-0.708,+12.500,+3.312,+7.938,10, 7, 4, 4, -1, 0, -3, -4,0.06279226892781191,0.8141470316695055
1503704018661,-0.010,-0.052,-0.394,-0.918,+0.793,+0.043,-0.685,+19.750,-0.125,+5.438,5, 6, 1, 0, 0, 1, -3, -5,0.05959996304811198,0.8140043025468383
1503704018681,-0.009,-0.048,-0.395,-0.918,+0.811,+0.025,-0.608,+16.875,-0.875,+2.438,-3, -2, 0, 1, 1, 1, 0, -8,0.05465046978854752,0.8157146926712454
1503704018703,-0.008,-0.045,-0.397,-0.917,+0.785,+0.068,-0.599,+20.375,+11.062,-0.312,4, -1, -4, -1, 0, -1, 1, -2,0.050570310138605835,0.8194993722509177
1503704018718,-0.005,-0.040,-0.401,-0.915,+0.777,+0.078,-0.604,+30.438,+25.375,+1.188,-10, -20, -3, 4, 4, 0, 0, -4,0.04134086685943632,0.8272573555706959
1503704018741,-0.003,-0.032,-0.405,-0.914,+0.855,-0.033,-0.625,+42.438,+15.000,+3.375,-11, 2, -5, -5, -5, -1, -1, -2,0.03145863324252687,0.835433152218578
1503704018763,-0.001,-0.023,-0.406,-0.914,+0.834,-0.081,-0.635,+47.312,+7.000,+4.625,0, 3, 0, -2, -2, 1, 1, -9,0.020522875484737402,0.8370311726002935
1503704018778,-0.001,-0.013,-0.409,-0.913,+0.801,-0.131,-0.618,+44.562,+13.875,+14.938,2, 2, 11, -3, -14, -4, 3, 6,0.012463592431225549,0.843238897026982
1503704018801,-0.003,-0.003,-0.414,-0.910,+0.798,-0.167,-0.571,+35.938,+31.562,+21.750,0, 8, 0, 0, 4, -1, -1, -7,0.007944118874879003,0.8535626279213694
1503704018823,-0.006,+0.004,-0.420,-0.907,+0.807,-0.084,-0.535,+26.438,+32.938,+29.312,0, 12, 19, 0, -3, 1, 1, -5,0.007524640558581509,0.8665989258893139
1503704018838,-0.008,+0.011,-0.426,-0.905,+0.836,-0.082,-0.529,+26.438,+29.875,+28.625,-33, -10, -6, 3, 2, -1, -4, 0,0.005109846185485503,0.8803585188539083
1503704018867,-0.012,+0.018,-0.431,-0.902,+0.914,-0.098,-0.567,+25.938,+30.438,+35.562,-2, -1, -4, 1, 1, -1, -3, -10,0.00613766785746522,0.8912433131223787
1503704018882,-0.017,+0.025,-0.436,-0.899,+0.929,-0.063,-0.576,+25.062,+27.438,+40.625,28, 8, -6, 1, 1, -6, 1, 97,0.008781827834020687,0.9022406481119112
1503704018898,-0.021,+0.031,-0.440,-0.897,+0.891,-0.045,-0.561,+21.875,+24.188,+42.125,13, 9, 6, 1, 4, 7, -2, -67,0.010422849279864371,0.9113807878178116
1503704018921,-0.026,+0.037,-0.445,-0.894,+0.863,-0.050,-0.527,+19.812,+28.750,+38.625,21, 15, 2, 0, -2, -2, 0, 9,0.013612839026384854,0.9225469117910046
1503704018942,-0.028,+0.041,-0.451,-0.891,+0.835,-0.068,-0.545,+16.500,+40.062,+23.375,-15, -21, 1, 1, -3, 2, 1, 37,0.012977252903667113,0.9363027194302586
1503704018958,-0.027,+0.042,-0.459,-0.887,+0.820,+0.073,-0.591,+15.812,+52.688,+4.750,-79, -16, -4, 0, -1, -4, -2, -18,0.009388536760319529,0.9545446997717739
1503704018981,-0.023,+0.041,-0.464,-0.885,+0.831,+0.140,-0.599,+14.812,+38.062,-8.875,14, -1, -7, -4, 0, 0, 4, -30,0.0026738119048306547,0.9662644570226212
1503704019003,-0.017,+0.038,-0.468,-0.883,+0.842,+0.177,-0.568,+15.000,+27.188,-22.625,8, 1, 1, -1, 2, -2, -1, 4,-0.00556523183688417,0.9753363996300696
1503704019018,-0.010,+0.035,-0.470,-0.882,+0.792,+0.173,-0.537,+11.312,+16.625,-32.625,8, 5, -1, 2, 1, -1, -2, 11,-0.01529935262884901,0.9798771204582434
1503704019041,-0.002,+0.030,-0.472,-0.881,+0.781,+0.208,-0.544,+7.250,+17.438,-37.750,7, 1, -1, -1, 1, -1, -2, -1,-0.02483580472555397,0.9842359861349239
1503704019063,+0.006,+0.026,-0.473,-0.881,+0.773,+0.215,-0.558,+9.750,+7.500,-37.000,21, 3, -5, -3, -8, -2, -1, 15,-0.03520360090246473,0.9866526293767257
1503704019078,+0.014,+0.024,-0.471,-0.882,+0.807,+0.123,-0.594,+15.062,-5.250,-40.812,-5, -21, -9, -6, -1, 1, -1, -70,-0.04734175048783986,0.982109650652585
1503704019101,+0.022,+0.022,-0.468,-0.883,+0.815,+0.037,-0.601,+13.312,-13.938,-44.438,-4, -7, -4, -3, -1, -3, -14, 32,-0.0594890312025061,0.975014361292248
1503704019122,+0.031,+0.019,-0.465,-0.885,+0.835,+0.014,-0.567,+7.250,-22.000,-49.250,15, 1, 13, 3, -2, -1, 0, -34,-0.07260445874094527,0.9683679090230431
1503704019138,+0.039,+0.015,-0.461,-0.887,+0.780,+0.037,-0.551,+4.250,-25.062,-50.312,-5, 4, -4, 1, -1, -2, 0, -11,-0.08311498846508236,0.9590719510898236
1503704019160,+0.047,+0.012,-0.460,-0.887,+0.760,+0.089,-0.549,+4.875,-1.188,-47.375,-10, -16, -10, -4, 0, 1, 3, 7,-0.09458138884916614,0.9563886367605076
1503704019182,+0.052,+0.010,-0.461,-0.886,+0.874,+0.074,-0.553,+6.375,+8.312,-29.062,1, 6, 1, 3, 2, 1, 2, 15,-0.10158477317461227,0.9582628845741799
1503704019197,+0.053,+0.010,-0.462,-0.885,+0.997,+0.026,-0.553,+2.562,+1.188,-7.938,4, 7, 6, 2, 0, 0, 2, 9,-0.10328421364295502,0.9602736680210737
1503704019219,+0.051,+0.009,-0.462,-0.885,+1.020,+0.042,-0.475,-14.750,-10.562,+6.125,1, 2, -3, -1, -2, -2, 1, -3,-0.0987949795249679,0.9601610387311299
1503704019242,+0.048,+0.006,-0.462,-0.886,+0.979,+0.112,-0.429,-24.438,-14.000,+14.438,-2, -4, -1, -3, 3, -2, -1, 9,-0.09077583847170365,0.9604210762743342
1503704019257,+0.043,+0.003,-0.462,-0.886,+0.885,+0.116,-0.474,-25.000,-6.750,+23.500,-26, -3, 12, 4, -1, 1, 1, -3,-0.07909717221410262,0.9601944518353364
1503704019279,+0.037,+0.000,-0.463,-0.886,+0.877,+0.095,-0.559,-28.250,+3.375,+25.062,10, -5, -28, -12, -6, -2, -1, 2,-0.06564953076777982,0.9625641305876622
1503704019302,+0.031,-0.003,-0.463,-0.886,+0.843,+0.055,-0.593,-32.875,+4.500,+22.688,10, 18, 7, 2, -2, -3, -4, -4,-0.052207889937798645,0.9624725789420167
1503704019317,+0.026,-0.008,-0.464,-0.885,+0.838,+0.079,-0.613,-39.500,+12.125,+17.250,0, -9, -3, -1, 2, 0, 2, 0,-0.03863397378036993,0.9644372156344561
1503704019340,+0.022,-0.013,-0.466,-0.885,+0.846,+0.069,-0.587,-40.562,+13.250,+7.938,-18, -18, -11, -8, -1, -2, -3, -5,-0.026852621946947316,0.9695976697821121
1503704019362,+0.019,-0.020,-0.467,-0.884,+0.816,+0.120,-0.578,-41.312,+8.875,-1.125,5, -5, 0, 0, -2, -1, 1, -9,-0.014933620430433182,0.9718869291102632
1503704019377,+0.019,-0.026,-0.464,-0.885,+0.742,+0.083,-0.582,-31.562,-7.438,-14.625,11, 46, 38, 14, 5, 2, 2, 10,-0.009521460362293578,0.9651185521317193
1503704019399,+0.023,-0.031,-0.460,-0.887,+0.660,-0.002,-0.581,-19.875,-15.812,-36.312,-19, -22, -11, -6, -4, 0, 2, -11,-0.012318086687892913,0.956251078784093
1503704019422,+0.029,-0.035,-0.456,-0.889,+0.643,-0.076,-0.514,-11.938,-20.125,-50.938,-5, 0, 1, 3, 2, -2, -3, -6,-0.01972094050074615,0.9472729372678267
1503704019437,+0.034,-0.038,-0.455,-0.889,+0.715,-0.220,-0.443,-14.312,-9.812,-52.438,10, -3, -3, -3, -2, 0, 3, 11,-0.02600137645347061,0.9447755120460958
1503704019459,+0.037,-0.041,-0.454,-0.889,+0.700,-0.150,-0.416,-21.062,-6.312,-40.750,16, -7, -4, -4, -4, -1, 1, 8,-0.02872536947373483,0.9423667236307793
1503704019482,+0.041,-0.044,-0.452,-0.890,+0.730,-0.111,-0.490,-13.188,-9.000,-37.812,2, 5, 1, -3, -1, -4, 4, -3,-0.03343348512186915,0.9379214973137568
1503704019500,+0.045,-0.044,-0.450,-0.891,+0.814,-0.048,-0.562,-1.000,-12.688,-34.875,0, -4, -5, -3, -3, -1, 2, 30,-0.04089131496672213,0.9331978986931735
1503704019519,+0.048,-0.044,-0.446,-0.893,+0.889,+0.018,-0.551,+7.188,-24.125,-19.500,-1, -5, 8, 7, 4, 3, -5, 51,-0.046843228768988485,0.9240342916799463
1503704019542,+0.048,-0.040,-0.443,-0.894,+0.910,-0.006,-0.569,+15.562,-26.188,-0.375,-5, 9, -4, -4, -1, -2, -6, -126,-0.05073691298760558,0.9167283042419667
1503704019557,+0.047,-0.036,-0.438,-0.897,+0.836,+0.051,-0.590,+15.625,-32.562,+14.938,-35, -4, -1, 3, 1, -2, -6, -13,-0.05310463729318508,0.9056284741240629
1503704019580,+0.045,-0.033,-0.434,-0.899,+0.831,+0.143,-0.552,+10.375,-26.500,+18.500,16, -13, -6, -1, -2, -1, 0, 29,-0.05254514027881624,0.8966671953641465
1503704019606,+0.043,-0.031,-0.432,-0.900,+0.852,+0.222,-0.560,+11.688,-16.562,+23.688,5, 5, 6, 1, -1, -3, -6, -67,-0.05085817507825901,0.8922251494109946
1503704019617,+0.039,-0.027,-0.432,-0.900,+0.967,+0.181,-0.593,+15.125,-7.375,+31.062,-7, -27, -26, -12, -5, 2, 1, 7,-0.04704913037230863,0.8922154035458781
1503704019640,+0.036,-0.023,-0.432,-0.901,+1.012,+0.185,-0.578,+13.500,-10.312,+34.250,-14, -22, -17, -3, -2, -4, -3, 21,-0.04513417919152191,0.8927301092353198
1503704019662,+0.033,-0.020,-0.431,-0.902,+0.965,+0.147,-0.578,+12.875,-19.250,+28.938,-2, 7, -4, -7, -4, -2, 1, 23,-0.04239290789938319,0.8908027095180276
1503704019677,+0.031,-0.016,-0.428,-0.903,+0.856,+0.047,-0.581,+12.875,-23.688,+18.312,5, -18, -12, -2, 2, -1, -3, -29,-0.04236781627046616,0.8839014736097126
1503704019702,+0.033,-0.014,-0.424,-0.905,+0.654,+0.093,-0.584,+17.188,-17.250,-3.250,21, 10, -8, -2, 3, 3, 5, 71,-0.0479445417904009,0.8750636123965546
1503704019722,+0.038,-0.011,-0.424,-0.905,+0.642,+0.045,-0.560,+30.438,+3.250,-17.250,8, -1, 4, 12, 3, -1, -2, 122,-0.05956811251859465,0.8750048059648677
1503704019739,+0.043,-0.006,-0.426,-0.904,+0.764,-0.033,-0.608,+33.188,+20.750,-20.562,-36, 10, 15, 0, 0, 3, -4, -82,-0.07277809265897708,0.8794674813061999
1503704019759,+0.049,-0.004,-0.431,-0.901,+0.852,+0.036,-0.549,+22.000,+25.125,-31.125,3, 5, 7, 0, 0, 0, 2, -20,-0.08505644552779533,0.8902463456795383
1503704019782,+0.056,-0.004,-0.436,-0.898,+0.842,+0.048,-0.496,+16.750,+27.875,-34.812,3, 7, 4, 1, 0, -1, 0, -9,-0.09739479844170183,0.9009914034958706
1503704019797,+0.064,-0.005,-0.441,-0.895,+0.761,+0.119,-0.566,+11.875,+41.062,-42.000,0, 7, 5, -4, -2, 0, -1, -7,-0.11061206831156688,0.9117185788005572
1503704019819,+0.071,-0.009,-0.447,-0.892,+0.810,+0.263,-0.566,+0.562,+38.750,-40.625,9, -2, -18, -2, 7, 0, -3, 7,-0.11927681297489777,0.9248139479951815
1503704019842,+0.076,-0.013,-0.452,-0.889,+0.894,+0.322,-0.595,+2.750,+30.000,-23.688,10, 1, 0, -4, -4, -1, 3, -19,-0.12421772936823712,0.9354928189747475
1503704019857,+0.077,-0.013,-0.455,-0.887,+0.960,+0.241,-0.624,+4.750,+20.688,-0.125,-12, -1, 4, 1, 0, -2, -1, 81,-0.12564311422499416,0.941971388235405
1503704019879,+0.074,-0.011,-0.457,-0.886,+1.015,+0.139,-0.573,+2.062,+6.375,+23.250,6, -2, 5, -6, -79, -66, 4, -46,-0.12183816681241075,0.94663208115171
1503704019906,+0.068,-0.009,-0.458,-0.887,+0.931,+0.133,-0.581,-6.812,+0.938,+41.125,-5, 0, 5, 10, 50, 20, -7, -13,-0.11297253595849795,0.9498673874722472
1503704019925,+0.058,-0.006,-0.457,-0.888,+0.822,+0.101,-0.635,-8.750,+2.312,+59.875,0, 4, 6, -1, -16, -1, 3, 54,-0.0978779413065762,0.9481096395026991
1503704019947,+0.047,-0.001,-0.458,-0.888,+0.806,+0.029,-0.576,-8.875,+6.125,+68.188,-6, -5, 4, -1, 10, 15, 0, -93,-0.08273323544638407,0.950928433683268
1503704019962,+0.036,+0.003,-0.458,-0.888,+0.799,-0.043,-0.514,-12.000,+0.250,+66.375,26, 21, 42, 10, 10, 9, 2, -34,-0.06675914653887102,0.951121649783529
1503704019978,+0.024,+0.006,-0.457,-0.889,+0.721,-0.073,-0.482,-22.062,-6.312,+65.250,-14, 12, -14, -11, 5, 6, -2, 6,-0.04817770558725944,0.9492167618427994
1503704019999,+0.013,+0.007,-0.456,-0.890,+0.643,-0.113,-0.480,-31.812,-1.875,+53.062,-53, -7, 0, 2, 3, 1, -8, -34,-0.029528292980700265,0.9471876320244156
1503704020022,+0.004,+0.004,-0.457,-0.890,+0.653,-0.092,-0.514,-41.875,+12.812,+35.000,12, -13, -8, -4, -2, -2, 0, -5,-0.010776272546257975,0.9495672685258189
1503704020037,-0.001,+0.000,-0.460,-0.888,+0.692,-0.054,-0.541,-38.062,+27.500,+10.375,12, -4, 5, 1, 2, 2, -1, 41,0.001776001684727242,0.956033422542637
1503704020059,+0.000,-0.006,-0.463,-0.886,+0.769,+0.068,-0.523,-30.250,+23.250,-20.312,6, -11, -19, -7, -1, 1, 1, 15,0.005556342879873309,0.962623236593733
1503704020082,+0.007,-0.013,-0.464,-0.886,+0.785,+0.166,-0.526,-11.812,+5.688,-43.375,-2, -8, -4, 2, 4, 15, -6, -11,-0.00034014829154234823,0.9652721591828306
1503704020097,+0.019,-0.017,-0.462,-0.887,+0.741,+0.158,-0.637,+14.562,+1.312,-69.125,7, -5, -4, -1, -5, -6, -1, 5,-0.018019477285399828,0.9606650910420432
1503704020119,+0.036,-0.020,-0.458,-0.888,+0.688,+0.167,-0.673,+33.625,-10.312,-90.438,-9, -4, -5, -3, -2, 0, 1, 25,-0.0457393325050604,0.9507957298946875
1503704020142,+0.053,-0.022,-0.455,-0.889,+0.746,+0.167,-0.654,+37.000,-5.000,-87.812,-1, 1, 1, -1, 3, 1, 1, 63,-0.07456749953856888,0.9433622377183702
1503704020157,+0.066,-0.022,-0.457,-0.887,+0.892,+0.226,-0.574,+34.812,+16.188,-58.688,4, 4, 2, -1, -21, -14, -3, -44,-0.09761269157296208,0.9470114392392577
1503704020179,+0.071,-0.019,-0.460,-0.885,+1.037,+0.150,-0.577,+31.812,+15.875,-20.812,29, -5, -5, -1, 3, 10, -5, -92,-0.10893864789585425,0.9534628797305478
1503704020204,+0.073,-0.014,-0.462,-0.884,+1.065,+0.106,-0.472,+25.125,+3.688,+5.188,7, 7, 5, -1, 0, -3, 0, 69,-0.11689025646345119,0.9581129354590039
1503704020217,+0.071,-0.010,-0.463,-0.883,+1.046,+0.095,-0.431,+16.875,-6.438,+20.312,-6, -15, -9, -5, -7, 1, 2, -16,-0.11679838180179,0.9603208596531204
1503704020240,+0.067,-0.007,-0.461,-0.885,+0.925,+0.063,-0.462,+5.438,-20.875,+28.062,4, 0, -15, 0, 5, 5, 0, 7,-0.1126836950369709,0.9565074738664323
1503704020262,+0.062,-0.005,-0.458,-0.887,+0.869,+0.047,-0.505,-6.750,-22.375,+28.188,2, -15, -24, -5, -1, 1, -3, -18,-0.10583309648377927,0.9501282141138877
1503704020277,+0.056,-0.005,-0.456,-0.888,+0.798,+0.012,-0.505,-13.562,-17.375,+28.562,-34, -9, 0, -5, -2, 3, -1, -21,-0.09521100216356457,0.9456472019363963
1503704020299,+0.051,-0.005,-0.453,-0.890,+0.788,-0.033,-0.522,-18.000,-16.812,+22.688,28, 9, 8, 9, 6, -5, -2, -9,-0.08648907294356924,0.9391862838959878
1503704020322,+0.050,-0.007,-0.452,-0.891,+0.790,+0.010,-0.515,-16.938,-12.250,+0.812,5, 5, -1, -8, -8, 0, 1, 16,-0.08300497710248243,0.9371319946248073
1503704020339,+0.055,-0.010,-0.453,-0.890,+0.738,+0.090,-0.551,-8.188,+14.750,-34.625,-3, 3, 7, 5, 2, 2, 1, 19,-0.08916171543920197,0.9389585022281176
1503704020359,+0.062,-0.014,-0.459,-0.886,+0.755,+0.016,-0.452,-5.188,+37.500,-56.125,-5, -7, 12, -1, -2, 4, 3, -25,-0.09749218442342415,0.9517527875143443
1503704020382,+0.071,-0.021,-0.468,-0.881,+0.826,+0.159,-0.417,-10.562,+50.188,-59.438,-9, -2, 0, 2, -1, 1, 0, -10,-0.10621370406506891,0.9716591033237763
1503704020397,+0.081,-0.025,-0.476,-0.875,+0.882,+0.342,-0.565,+4.812,+59.312,-51.125,-3, -16, -3, -5, -2, 0, 0, 28,-0.11910349508588097,0.9886924051560833
1503704020420,+0.085,-0.024,-0.481,-0.872,+1.221,+0.251,-0.674,+16.938,+30.938,-18.750,-4, -9, -5, -1, 0, 8, -2, 42,-0.12645715315943493,0.9999004622076533
1503704020442,+0.086,-0.018,-0.480,-0.873,+1.001,+0.026,-0.694,+25.062,+8.188,+7.375,10, 3, 0, -1, -13, -19, -4, -33,-0.13414922663699738,0.9979548035265227
1503704020457,+0.082,-0.016,-0.480,-0.873,+0.917,+0.040,-0.445,-2.438,-6.500,+24.562,-8, 9, 0, -2, 5, 27, 2, 16,-0.12890279249548836,0.9980971930828667
1503704020479,+0.077,-0.014,-0.481,-0.873,+0.742,+0.200,-0.511,-3.438,+6.500,+38.062,-9, 3, 2, 7, -15, -10, 20, -6,-0.12186739346115119,1.0008252037599472
1503704020502,+0.069,-0.010,-0.479,-0.875,+0.817,+0.079,-0.599,-2.062,-7.750,+52.375,6, 4, 4, 3, 0, -10, 2, 7,-0.11179334354059897,0.9969853289292221
1503704020517,+0.060,-0.006,-0.475,-0.878,+0.806,+0.025,-0.575,-1.188,-20.812,+53.375,-10, -16, -15, -6, 11, 26, -9, -32,-0.10005481215777384,0.9885548889841986
1503704020539,+0.053,-0.003,-0.470,-0.881,+0.743,-0.006,-0.515,-7.938,-27.375,+43.625,-18, -20, -5, 0, 4, -7, -7, 3,-0.09082872141790181,0.9775429679928902
1503704020562,+0.048,-0.002,-0.466,-0.883,+0.690,-0.009,-0.434,-11.438,-25.000,+24.312,38, 29, 4, -6, 0, -6, -6, -17,-0.08309666739333656,0.9684844277498605
1503704020577,+0.050,-0.004,-0.464,-0.884,+0.734,+0.040,-0.423,-7.750,-13.750,-13.188,15, 0, 0, -3, 0, -7, -6, -36,-0.08491164435959753,0.9638375524126365
1503704020599,+0.058,-0.007,-0.465,-0.883,+0.643,+0.076,-0.461,+4.688,+10.625,-51.000,-4, -3, 4, 0, 1, -4, 1, 9,-0.09627864160544493,0.9656654348787079
1503704020622,+0.068,-0.011,-0.470,-0.880,+0.699,-0.023,-0.414,+1.062,+36.500,-66.688,-7, -9, 15, -4, -5, -4, -2, 22,-0.10994245511281303,0.9765411398465547
1503704020637,+0.074,-0.018,-0.481,-0.874,+0.914,+0.068,-0.365,-23.125,+57.438,-55.750,14, 20, 5, 2, 1, 0, 3, 26,-0.11286911866923503,1.0012879373195078
1503704020659,+0.079,-0.028,-0.487,-0.869,+1.078,+0.503,-0.533,-31.188,+39.062,-35.438,4, -8, -6, -7, -8, -5, -2, -4,-0.11113809847080959,1.0140308488749241
1503704020682,+0.080,-0.027,-0.490,-0.868,+1.106,+0.315,-0.768,+11.812,+24.000,+6.312,11, 12, 8, 1, -2, -13, 1, -5,-0.11355544502409742,1.0212612315435512
1503704020697,+0.072,-0.020,-0.485,-0.872,+1.183,-0.171,-0.576,+2.250,-41.500,+43.062,3, -1, 5, 11, 34, 29, -1, 14,-0.10695734101419999,1.0105778263584586
1503704020719,+0.062,-0.021,-0.483,-0.873,+0.813,+0.165,-0.413,-29.750,-15.750,+51.188,4, -1, -3, -9, -18, 31, 23, 27,-0.08849464970461458,1.006152399345078
1503704020742,+0.053,-0.020,-0.481,-0.875,+0.742,+0.241,-0.604,-19.562,-5.812,+59.500,-3, -7, -1, -9, -15, -9, -22, 1,-0.07385028465126674,1.0022314179033809
1503704020757,+0.040,-0.019,-0.480,-0.876,+0.978,+0.115,-0.554,-27.625,-13.125,+72.250,1, 2, -2, 6, 6, -15, 9, 44,-0.05199720451645837,1.0004389374534557
1503704020779,+0.029,-0.017,-0.478,-0.878,+0.849,+0.114,-0.469,-20.188,-16.562,+66.500,8, 1, -6, 0, 1, -8, -2, -41,-0.03473655809194881,0.9965154339226581
1503704020802,+0.021,-0.015,-0.475,-0.880,+0.793,+0.007,-0.439,-14.125,-19.875,+48.438,-12, -18, -12, -5, -4, -2, 1, -23,-0.022736371456527904,0.9899659788321098
1503704020817,+0.016,-0.014,-0.473,-0.881,+0.721,-0.041,-0.418,-12.625,-12.375,+24.188,-12, 21, 24, 13, 7, -7, -7, -7,-0.014960409003351131,0.9854319027122482
1503704020847,+0.014,-0.015,-0.473,-0.881,+0.742,-0.068,-0.419,-15.250,-4.750,-3.312,-11, -30, -10, -10, -12, -11, -3, -56,-0.010486445511330697,0.9854957578004404
1503704020862,+0.015,-0.018,-0.474,-0.880,+0.722,-0.091,-0.459,-21.312,+12.875,-18.625,4, 7, 5, -3, -1, -4, 3, 106,-0.009345990069999392,0.9876255425775938
1503704020878,+0.016,-0.024,-0.477,-0.878,+0.688,+0.002,-0.474,-28.812,+24.250,-27.750,11, -6, -13, -2, 3, 1, -4, -17,-0.005208620118938721,0.9945543490834405
1503704020899,+0.019,-0.029,-0.480,-0.877,+0.745,+0.077,-0.488,-23.375,+21.188,-29.125,9, 15, 15, 15, 4, -2, -3, -33,-0.005499164691441304,1.001994196515274
1503704020922,+0.023,-0.034,-0.481,-0.876,+0.833,+0.094,-0.538,-13.875,+10.062,-30.625,9, 3, 0, -3, -5, -5, 1, 9,-0.007613510917029848,1.0043294696315672
1503704020937,+0.026,-0.036,-0.480,-0.876,+0.937,+0.078,-0.587,-6.000,-3.188,-25.125,10, 4, 1, -1, -5, -2, -2, -2,-0.011035076160828999,1.0018284330069467
1503704020959,+0.029,-0.037,-0.475,-0.879,+0.905,+0.067,-0.588,+1.438,-26.062,-20.938,1, -8, 1, 2, 3, 5, 0, -13,-0.015900947845272854,0.9905279165283112
1503704020982,+0.033,-0.038,-0.469,-0.882,+0.781,+0.068,-0.602,+9.062,-32.812,-25.750,0, 9, 4, 4, 3, -9, -4, -34,-0.022679022601997785,0.9766764412359904
1503704020997,+0.040,-0.038,-0.463,-0.885,+0.740,+0.069,-0.563,+15.062,-27.938,-34.688,-4, -2, -4, -1, -1, -2, 2, 11,-0.035814812764089855,0.9626684932468208
1503704021019,+0.046,-0.039,-0.460,-0.886,+0.788,+0.091,-0.562,+12.500,-15.875,-36.375,-5, -2, -10, -9, -7, 8, -2, -5,-0.04593402607622852,0.9553838031810017
1503704021044,+0.052,-0.039,-0.459,-0.886,+0.847,+0.140,-0.529,+13.000,-8.125,-35.062,-46, -35, -6, 1, 1, 2, 0, -17,-0.056761110386296554,0.952570477454237
1503704021057,+0.060,-0.038,-0.455,-0.888,+0.844,+0.127,-0.530,+25.312,-19.500,-33.750,61, 13, 7, 0, -3, 1, -7, -2,-0.07258578740658314,0.9430722289937972
1503704021079,+0.066,-0.037,-0.452,-0.889,+0.919,+0.120,-0.503,+24.250,-22.500,-32.688,0, -20, -2, 1, 3, 1, -4, 14,-0.0846688747799464,0.9357004987340843
1503704021102,+0.069,-0.035,-0.448,-0.891,+0.896,+0.071,-0.537,+15.375,-29.625,-17.250,0, 10, 1, 3, 1, -2, -2, -4,-0.09244365973172997,0.9264790890530465
1503704021118,+0.069,-0.036,-0.446,-0.892,+0.959,+0.102,-0.454,-4.688,-28.125,+0.812,1, 15, 12, 4, 1, 3, 1, 9,-0.09184060565134829,0.9220113940329318
1503704021139,+0.066,-0.037,-0.445,-0.892,+0.979,+0.198,-0.443,-12.062,-20.812,+13.875,8, 13, 0, -2, -5, -1, 6, 14,-0.08558677715472456,0.919661716921798
1503704021162,+0.062,-0.039,-0.443,-0.893,+0.949,+0.257,-0.509,-11.750,-22.500,+22.375,-10, 1, -1, -2, 1, 11, 4, -3,-0.07685259198681887,0.915447408224195
1503704021178,+0.057,-0.040,-0.441,-0.895,+0.905,+0.211,-0.489,-16.812,-26.125,+26.250,15, 4, -6, -4, 1, 0, -2, 4,-0.06730188085876944,0.9118089342722369
1503704021920,+0.047,-0.034,-0.472,-0.880,+0.853,+0.045,-0.540,+23.000,+19.500,-17.812,1, -10, 3, 1, 1, -3, 1, -6,-0.05092294537515767,0.9824279388288857
1503704021942,+0.050,-0.029,-0.477,-0.877,+0.921,+0.023,-0.502,+23.562,+34.188,-8.938,2, -12, -16, -3, -1, -2, 2, 97,-0.060364418768197876,0.9933112191142378
1503704021964,+0.053,-0.024,-0.484,-0.873,+0.998,+0.040,-0.472,+27.438,+39.062,-2.438,8, -24, -6, -3, -4, -2, -4, -91,-0.0696654785470249,1.0089933903220354
1503704021980,+0.056,-0.017,-0.489,-0.871,+1.031,+0.064,-0.536,+38.562,+32.438,+1.312,3, -1, 1, -2, -1, -2, -5, -44,-0.08130453895798366,1.020727036006488
1503704022002,+0.059,-0.009,-0.492,-0.869,+0.960,+0.073,-0.565,+47.000,+24.812,+6.688,-5, 5, -1, -1, -3, 0, -5, -2,-0.09407965587858826,1.0275494055266259
1503704022026,+0.062,-0.000,-0.495,-0.867,+0.913,+0.048,-0.517,+51.312,+31.812,+10.062,3, 4, -18, -4, 0, -5, -6, 1,-0.1079199924453947,1.0347124516808777
1503704022040,+0.064,+0.011,-0.501,-0.863,+0.902,+0.045,-0.522,+59.938,+45.312,+17.312,9, 48, 36, 10, 5, 5, 5, 9,-0.12191174564698645,1.0491972632575406
1503704022062,+0.065,+0.023,-0.507,-0.859,+0.956,-0.011,-0.501,+59.000,+48.562,+29.438,4, -24, -3, -4, 0, 1, 0, 6,-0.13545328549015703,1.0643279263660235
1503704022085,+0.064,+0.036,-0.513,-0.855,+0.987,-0.010,-0.488,+61.188,+46.875,+37.375,-7, -8, 4, 3, 1, 0, -3, -14,-0.14690571884017548,1.0801714369067066
1503704022100,+0.064,+0.050,-0.517,-0.852,+0.947,-0.024,-0.493,+63.688,+42.562,+40.750,7, -3, -7, -8, -5, -4, 1, 3,-0.16148650203577558,1.0921728201955234
1503704022122,+0.063,+0.063,-0.522,-0.848,+0.879,-0.053,-0.452,+60.375,+42.375,+39.312,-2, -1, -1, 0, 0, -1, -4, -10,-0.1736383384603392,1.1067287668339525
1503704022144,+0.062,+0.076,-0.528,-0.844,+0.864,-0.035,-0.433,+61.938,+51.875,+41.625,-4, 9, 4, -4, -2, -1, 3, 25,-0.18635195682376868,1.1245858103760824
1503704022160,+0.061,+0.089,-0.534,-0.839,+0.898,-0.080,-0.403,+60.688,+55.875,+40.250,-4, -1, -2, -1, -1, 3, 4, -5,-0.19942941265237302,1.1426947254610638
1503704022184,+0.061,+0.101,-0.539,-0.834,+0.889,-0.077,-0.410,+62.250,+50.938,+36.250,2, -5, -2, -4, -3, -2, 0, 14,-0.213360978500679,1.158542575239375
1503704022204,+0.062,+0.114,-0.544,-0.829,+0.864,-0.083,-0.408,+66.875,+45.875,+32.250,-20, -1, 1, 1, -3, -2, -2, -23,-0.23055971070254289,1.1756028430263252
1503704022220,+0.065,+0.126,-0.547,-0.825,+0.844,-0.083,-0.388,+69.125,+42.438,+26.500,1, -1, -4, 0, 2, 0, -3, 40,-0.2500169552248543,1.1881734654245637
1503704022242,+0.067,+0.138,-0.550,-0.821,+0.841,-0.097,-0.386,+68.312,+35.562,+26.188,8, 33, 14, 2, -1, -2, -6, -50,-0.2681292685584591,1.2013053589607463
1503704022264,+0.069,+0.150,-0.552,-0.817,+0.816,-0.083,-0.368,+68.188,+34.688,+26.938,2, -10, -13, -9, -3, -2, 4, 23,-0.28630864394680966,1.2124138666990225
1503704022280,+0.072,+0.161,-0.555,-0.813,+0.852,-0.085,-0.348,+64.812,+33.750,+22.938,6, 3, 5, 4, -3, -3, -3, 9,-0.3055276181822507,1.226305679680689
1503704022302,+0.075,+0.170,-0.557,-0.810,+0.864,-0.104,-0.348,+59.312,+26.688,+17.625,-3, -10, -2, -3, -1, 1, -3, 7,-0.3222950604693287,1.2370452741838627
1503704022324,+0.079,+0.179,-0.557,-0.807,+0.840,-0.099,-0.342,+56.312,+14.000,+14.062,-14, -11, 7, -1, -1, 2, 0, -39,-0.34024890583466827,1.2429178520996136
1503704022340,+0.083,+0.186,-0.556,-0.806,+0.832,-0.112,-0.327,+50.875,+6.562,+10.438,-10, -9, -3, 2, 2, -1, -2, -7,-0.3556520379680215,1.2456650265145344
1503704022362,+0.086,+0.191,-0.556,-0.805,+0.839,-0.124,-0.283,+36.562,+7.062,+1.312,-3, 14, 8, 4, 12, -1, 0, -11,-0.3671625214830291,1.249599962360796
1503704022386,+0.090,+0.191,-0.557,-0.804,+0.910,-0.082,-0.284,+18.000,+4.500,-8.688,-6, 5, 3, -11, -7, -3, -9, -41,-0.3740147536551631,1.2524093967810936
1503704022400,+0.094,+0.190,-0.556,-0.804,+0.869,-0.083,-0.304,+8.312,-5.938,-17.312,3, -17, -10, -6, -8, -3, 0, -4,-0.3789717382144843,1.2494278518212065
1503704022423,+0.099,+0.187,-0.555,-0.804,+0.882,-0.093,-0.320,+3.750,-4.312,-24.688,-12, -34, -14, -6, -6, 0, 0, -30,-0.3829449703097253,1.2449941057207772
1503704022444,+0.103,+0.183,-0.556,-0.804,+0.912,-0.079,-0.318,-1.062,-2.312,-27.188,-7, 11, 13, 13, 7, 0, -10, -39,-0.3846579335118491,1.2450251997709036
1503704022461,+0.107,+0.179,-0.557,-0.804,+0.953,-0.097,-0.309,-11.188,+1.000,-25.375,8, 6, 2, 6, 13, -2, -3, 1,-0.38639739008959517,1.2451007197790362
1503704022483,+0.108,+0.174,-0.557,-0.805,+0.950,-0.115,-0.340,-18.938,+3.250,-20.500,10, -11, -9, -2, -8, -1, 4, 9,-0.38169899540249647,1.2418402873856182
1503704022505,+0.109,+0.169,-0.558,-0.805,+0.958,-0.069,-0.343,-21.688,+3.812,-15.312,21, 19, 13, 16, 22, 0, -5, -27,-0.37717003073217253,1.2409750950939293
1503704022521,+0.109,+0.164,-0.560,-0.805,+0.948,-0.039,-0.338,-22.375,+5.750,-12.250,29, 3, 2, 10, 0, 3, 3, 13,-0.3713064948503716,1.2427630068077844
1503704022542,+0.107,+0.159,-0.562,-0.805,+0.973,-0.071,-0.283,-28.438,+9.438,-8.188,42, 5, -9, -15, -16, 2, 15, 77,-0.36210994571197214,1.2444501836717539
1503704022564,+0.104,+0.154,-0.563,-0.805,+0.975,-0.142,-0.287,-37.125,+7.125,-3.312,-5, -8, -8, -18, -19, 0, -4, -17,-0.35097202742852207,1.2434849136289494
1503704022580,+0.100,+0.148,-0.564,-0.806,+0.950,-0.096,-0.299,-42.875,+4.188,-0.312,-28, -5, 2, 8, 1, -1, 3, 49,-0.3371284642323514,1.2422761239018136
1503704022602,+0.096,+0.140,-0.566,-0.807,+0.931,-0.079,-0.266,-51.125,+1.875,-0.250,-38, 26, -15, -10, -6, -6, -5, -17,-0.3210831507980134,1.2427236333470373
1503704022625,+0.091,+0.133,-0.567,-0.808,+0.894,-0.010,-0.274,-53.500,+5.000,+3.688,-35, 7, -7, -2, -7, -6, -11, -14,-0.3044305184240887,1.2412656579383756
1503704022640,+0.084,+0.125,-0.568,-0.809,+0.865,-0.065,-0.281,-60.188,+6.750,+5.062,-7, -5, 8, -1, -10, 1, -33, 41,-0.283288088660527,1.2393494698122265
1503704022664,+0.076,+0.116,-0.570,-0.810,+0.800,-0.076,-0.321,-70.750,+13.750,+10.188,-17, -42, -8, 1, 4, 0, 14, -16,-0.2595829987637976,1.2398824938444033
1503704022684,+0.069,+0.105,-0.572,-0.811,+0.778,+0.016,-0.427,-75.938,+17.312,+3.188,-1, -3, -2, -2, 5, 1, 14, 0,-0.23516932057966516,1.2400084473877948
1503704022700,+0.063,+0.094,-0.573,-0.812,+0.763,+0.125,-0.424,-71.625,+15.062,+2.250,10, 13, 14, 8, 14, -1, -4, -27,-0.2123079153538927,1.2380676029321052
1503704022723,+0.060,+0.083,-0.573,-0.814,+0.800,+0.162,-0.386,-56.062,+3.250,-4.875,-1, 3, -1, 2, 7, 2, 1, -28,-0.19444111250864102,1.2345159688986052
1503704022744,+0.057,+0.074,-0.573,-0.815,+0.787,+0.093,-0.356,-50.312,+4.312,-8.375,7, 31, 13, 18, 24, 1, -8, -21,-0.17893568572745458,1.231721634800301
1503704022761,+0.054,+0.067,-0.575,-0.814,+0.772,+0.033,-0.346,-46.688,+21.125,-8.062,5, -3, 1, 4, 10, 0, 0, -3,-0.16590277916134738,1.234495153372736
1503704022782,+0.052,+0.060,-0.579,-0.812,+0.806,-0.015,-0.313,-38.125,+28.625,-13.250,6, -2, -6, -7, -4, -5, -1, 5,-0.15464872438979949,1.2425884055258372
1503704022804,+0.052,+0.055,-0.582,-0.810,+0.912,-0.040,-0.273,-28.125,+19.625,-19.938,1, -9, -8, -7, -3, 0, 17, 40,-0.14886887479550803,1.2487466118908015
1503704022824,+0.054,+0.051,-0.581,-0.810,+0.988,-0.166,-0.312,-16.250,-0.812,-31.812,-1, -6, -4, -6, -4, -2, -7, -22,-0.1473044533982219,1.2451532145391373
1503704022842,+0.055,+0.048,-0.581,-0.811,+1.057,-0.248,-0.312,-17.812,-5.938,-33.625,1, -1, -2, -1, -2, 1, -2, -4,-0.1455121203650672,1.2448893195899688
1503704022865,+0.057,+0.045,-0.580,-0.811,+1.110,-0.204,-0.289,-12.625,-7.000,-31.688,0, -6, 5, 0, -1, -3, -14, 7,-0.14516766877369472,1.2415921484352983
1503704022880,+0.059,+0.042,-0.576,-0.814,+1.080,-0.162,-0.203,-10.562,-40.312,-28.375,2, 1, 0, -6, -11, 2, -3, -2,-0.1449435706662806,1.2313075202020183
1503704022902,+0.060,+0.041,-0.570,-0.819,+1.090,-0.137,-0.231,-6.812,-55.812,-15.000,-2, -1, -6, -5, -17, 0, 2, 20,-0.1455318409454847,1.2168256267724848
1503704022925,+0.059,+0.041,-0.563,-0.823,+1.032,-0.140,-0.275,-8.125,-49.812,-1.438,0, -4, 1, 3, 13, 0, -1, -42,-0.1437757085184942,1.1994985437934367
1503704022940,+0.056,+0.041,-0.559,-0.827,+1.042,-0.148,-0.280,-8.062,-38.688,+5.750,4, 1, 4, -5, 12, -6, -2, 102,-0.1389085288845533,1.1902854963660914
1503704022963,+0.053,+0.043,-0.555,-0.829,+1.054,-0.166,-0.277,-8.812,-32.938,+10.188,1, 18, 10, 2, -2, 3, -3, 10,-0.13603379766681134,1.1806762684926697
1503704022984,+0.051,+0.043,-0.553,-0.831,+1.041,-0.169,-0.252,-11.812,-23.000,+5.500,-3, -15, -2, 1, 1, -3, 1, -117,-0.13272336336653465,1.1760937878376345
1503704023000,+0.049,+0.042,-0.551,-0.832,+1.036,-0.140,-0.246,-12.875,-20.750,-4.188,-8, 10, 3, 0, -3, -2, -2, -73,-0.12818692099017254,1.1709014324710172
1503704023024,+0.049,+0.041,-0.551,-0.832,+1.046,-0.091,-0.221,-9.000,-16.125,-8.312,-30, -16, -10, 0, -1, 1, 2, -55,-0.1270726279305534,1.1707103458525043
1503704023044,+0.050,+0.040,-0.549,-0.833,+1.050,-0.095,-0.289,-5.375,-15.375,-14.188,8, 1, -7, -2, -5, 0, 6, 60,-0.12757517985298894,1.165630777808493
1503704023060,+0.052,+0.038,-0.547,-0.835,+1.009,-0.110,-0.296,-10.000,-24.062,-20.062,-40, -15, -7, -3, 0, -4, -5, -11,-0.12876972718428487,1.1608466800160628
1503704023082,+0.053,+0.035,-0.545,-0.836,+0.956,-0.104,-0.289,-13.125,-21.750,-21.875,16, 16, 0, -1, -4, 0, 0, 45,-0.1271080747673436,1.1554455087588162
1503704023104,+0.054,+0.032,-0.544,-0.837,+0.905,-0.063,-0.313,-14.188,-10.562,-18.188,16, -3, -1, -3, -5, -3, -4, 7,-0.1255427632394591,1.1527474050370576
1503704023120,+0.054,+0.030,-0.545,-0.836,+0.929,-0.004,-0.346,-10.625,+5.125,-8.625,6, 0, 4, 5, 0, 0, -9, -31,-0.12330512251977856,1.1546609722534211
1503704023143,+0.055,+0.028,-0.547,-0.835,+1.048,+0.058,-0.342,-10.188,+12.250,-7.000,12, -5, -4, -3, -1, 0, 4, -2,-0.12280119799831633,1.15928859340977
1503704023164,+0.057,+0.026,-0.549,-0.834,+1.041,+0.041,-0.336,-3.562,+6.688,-15.125,7, -6, -2, -2, -3, 1, 0, -6,-0.1239632232044729,1.1639574175204572
1503704023180,+0.061,+0.024,-0.549,-0.833,+0.996,+0.062,-0.295,+2.312,-2.750,-28.750,1, 15, 15, 3, 0, 3, 3, 11,-0.1283774434962882,1.1633246205676122
1503704023202,+0.067,+0.020,-0.550,-0.833,+0.947,+0.090,-0.333,+2.000,-0.188,-34.812,-21, -13, -8, -1, -1, -2, -1, -2,-0.13413123291724513,1.1655815134156606
1503704023225,+0.072,+0.018,-0.551,-0.831,+1.003,+0.137,-0.332,+6.312,+8.062,-30.000,8, 1, 0, -2, -4, -1, 1, 22,-0.14012938239510028,1.1672210545143775
1503704023240,+0.077,+0.016,-0.554,-0.829,+1.118,+0.209,-0.338,+9.062,+13.188,-21.750,10, -2, -6, -3, -2, 0, -1, -18,-0.14616517382862584,1.174241604082002
1503704023263,+0.082,+0.019,-0.553,-0.829,+1.028,+0.169,-0.437,+31.125,+1.625,-5.375,4, 17, 21, 4, 1, -2, -5, -23,-0.15790072093605695,1.1720008149371177
1503704023284,+0.086,+0.023,-0.551,-0.830,+1.012,-0.016,-0.284,+30.000,-15.938,-14.062,1, -2, 6, 3, 0, 1, 4, 29,-0.1691805962560322,1.1677016515187346
1503704023301,+0.090,+0.024,-0.550,-0.830,+0.929,+0.041,-0.268,+17.125,-11.438,-13.438,1, 0, -4, 3, 0, 1, -4, -4,-0.17703146915163867,1.165250043513781
1503704023323,+0.091,+0.027,-0.552,-0.829,+0.898,+0.110,-0.272,+15.438,+9.375,+6.188,-5, -8, -7, -6, -1, -2, -1, 3,-0.18196634076277582,1.1706955797169962
1503704023345,+0.089,+0.031,-0.556,-0.826,+1.039,+0.096,-0.334,+11.938,+28.375,+20.625,-3, -6, -5, -2, 2, 4, -3, -7,-0.18272143235284802,1.1808158363317074
1503704023360,+0.086,+0.035,-0.558,-0.825,+1.053,+0.060,-0.309,+9.000,+9.062,+26.062,4, 2, -4, -2, -1, 0, 2, -2,-0.182095119888653,1.1864502763517297
1503704023383,+0.084,+0.038,-0.556,-0.826,+0.964,+0.026,-0.283,+7.500,-10.250,+20.562,15, 6, 0, 6, 4, -1, -13, -2,-0.18211424685671837,1.1820391744734007
1503704023405,+0.083,+0.038,-0.554,-0.827,+0.899,+0.010,-0.286,-2.438,-16.750,+9.125,9, 10, 1, 1, -1, 2, 3, -4,-0.18044211157945483,1.1770646553173392
1503704023422,+0.083,+0.038,-0.552,-0.829,+0.847,-0.005,-0.263,-1.875,-16.500,-4.312,-8, -7, -2, 0, -2, -2, 1, 10,-0.18061926096686015,1.1725560661804326
1503704023443,+0.083,+0.036,-0.555,-0.827,+0.899,+0.000,-0.254,-13.750,+9.438,-12.562,3, 20, 10, 3, 1, -10, -2, -3,-0.17827865341113872,1.1793477777889438
1503704023465,+0.086,+0.032,-0.558,-0.825,+0.924,+0.014,-0.236,-14.812,+14.688,-27.188,-21, -23, -21, -10, -3, -1, 0, -6,-0.17872655147536093,1.185883745548915
1503704023480,+0.090,+0.026,-0.560,-0.824,+0.854,+0.134,-0.302,-14.438,+10.562,-33.875,3, 4, -4, 0, -1, 1, 1, -10,-0.17868379735309062,1.1898959486294527
1503704023503,+0.097,+0.020,-0.563,-0.821,+0.710,+0.237,-0.360,-5.500,+29.062,-46.250,22, -3, 4, -3, -2, -1, 4, 14,-0.1833492456989728,1.195937903439808
1503704023527,+0.100,+0.017,-0.566,-0.818,+0.868,+0.184,-0.411,-3.125,+33.562,-21.188,-17, 15, 19, 1, 0, 2, -2, -2,-0.18456110901268535,1.202444152341034
1503704023540,+0.096,+0.018,-0.571,-0.815,+1.220,+0.137,-0.351,-13.375,+31.188,+23.250,-1, -13, -9, -2, -3, -10, -3, 5,-0.1785573993742555,1.2148908449459654
1503704023563,+0.089,+0.021,-0.572,-0.815,+1.152,+0.146,-0.341,-10.562,+3.938,+48.125,-6, -13, -8, -4, -1, -1, -3, -18,-0.1703042239096016,1.217926538328403
1503704023585,+0.080,+0.025,-0.567,-0.819,+1.121,+0.012,-0.320,-4.500,-39.625,+55.938,-6, -4, -3, -3, 13, 22, 1, -4,-0.1602747141428619,1.2064053142728752
1503704023600,+0.071,+0.029,-0.560,-0.825,+0.999,-0.028,-0.288,-15.125,-52.688,+57.812,0, -5, -3, -2, -7, -20, -1, 9,-0.15026980911358828,1.1904099609919998
1503704023623,+0.061,+0.031,-0.554,-0.830,+0.834,+0.048,-0.340,-19.062,-40.875,+56.688,-4, -2, -6, -4, 8, 27, -3, 2,-0.136044271529151,1.1764788157936907
1503704023645,+0.053,+0.033,-0.550,-0.833,+0.836,+0.018,-0.345,-17.125,-26.125,+51.062,-3, -12, -16, -1, -14, -9, 1, 15,-0.12492307552526492,1.1671701213215526
1503704023661,+0.045,+0.035,-0.549,-0.834,+0.834,-0.019,-0.332,-19.312,+1.125,+42.062,5, 12, 15, 3, 1, -6, -1, -32,-0.11373948980309821,1.1650393046002947
1503704023683,+0.042,+0.035,-0.550,-0.833,+0.826,-0.054,-0.320,-12.125,+8.750,+12.750,-36, 6, 5, 1, -3, -4, -3, -23,-0.10869425872789368,1.1672011204622215
1503704023705,+0.043,+0.033,-0.550,-0.834,+0.830,-0.045,-0.313,-9.188,-4.875,-16.062,71, 10, -7, -7, 1, 0, 2, 4,-0.10823782652576877,1.1673428348126393
1503704023720,+0.050,+0.029,-0.548,-0.834,+0.801,-0.037,-0.360,+3.250,-6.688,-45.250,-10, -12, -1, 2, -2, -7, -2, 1,-0.11544324535301327,1.1615589911214803
1503704023743,+0.059,+0.026,-0.547,-0.835,+0.782,+0.013,-0.402,+9.125,-2.688,-55.125,-9, -2, 7, 2, -3, 2, 1, 2,-0.12734563306507327,1.1590858520714988
1503704023765,+0.068,+0.022,-0.548,-0.833,+0.813,+0.030,-0.328,+10.812,+11.625,-57.875,-3, -9, -10, 2, -1, 0, -1, 6,-0.13793663891526955,1.160503246485522
1503704023787,+0.077,+0.019,-0.551,-0.831,+0.926,+0.065,-0.286,+13.188,+12.188,-52.250,-5, -5, 2, -1, -4, -1, -1, 3,-0.14968122708713238,1.1674205027108921
1503704023803,+0.085,+0.017,-0.552,-0.829,+0.987,+0.094,-0.321,+13.812,+8.500,-44.438,-5, -3, 1, -3, 0, 14, 1, -3,-0.1607358437777668,1.1690927209212338
1503704023825,+0.090,+0.017,-0.553,-0.828,+1.034,+0.125,-0.394,+15.625,+5.375,-27.000,-6, 2, -1, -3, -2, -7, -6, 13,-0.16907635073685348,1.1714153278765265
1503704023840,+0.092,+0.017,-0.551,-0.829,+1.074,+0.094,-0.382,+10.625,-14.062,-6.938,-2, -4, -1, -1, -1, -5, 0, -6,-0.17258742238373975,1.1664995259679436
1503704023864,+0.091,+0.018,-0.550,-0.830,+1.056,+0.049,-0.324,-2.875,-13.938,+7.625,3, 6, -13, -3, -3, -1, -2, -1,-0.17213155554366272,1.1643728820550765
1503704023885,+0.086,+0.017,-0.549,-0.831,+1.013,+0.085,-0.322,-20.188,-12.625,+24.562,-1, -3, -5, -2, 1, -6, -4, 4,-0.16267033956794716,1.1619224066250449
1503704023901,+0.077,+0.018,-0.548,-0.833,+1.052,+0.071,-0.292,-26.000,-13.312,+43.125,-4, -2, 5, 4, 1, -2, 2, 2,-0.14877694324381044,1.160121589278364
1503704023923,+0.068,+0.017,-0.547,-0.834,+1.066,+0.098,-0.347,-30.625,-11.688,+47.188,21, -4, 0, 0, 6, -6, -9, 10,-0.13255034155697726,1.1576343813563779
1503704023945,+0.059,+0.017,-0.544,-0.837,+1.031,+0.061,-0.391,-28.125,-27.312,+46.062,5, 11, 8, 0, -2, 2, 6, 2,-0.11760762377167963,1.1508144083813538
1503704023960,+0.052,+0.017,-0.539,-0.841,+0.942,-0.002,-0.406,-25.812,-33.500,+37.750,2, 6, 7, -2, -3, 2, 2, 1,-0.1060279580803959,1.1391746373903093
1503704023983,+0.047,+0.016,-0.534,-0.844,+0.815,+0.060,-0.417,-19.688,-28.688,+21.062,-13, 14, -8, -7, -4, -3, -3, -2,-0.0966001223091811,1.127076566165471
1503704024006,+0.046,+0.016,-0.533,-0.845,+0.765,-0.005,-0.417,-5.875,-1.688,+5.562,0, -16, -2, 1, -2, -2, 1, -14,-0.09496137918815814,1.1248685313900229
1503704024020,+0.048,+0.016,-0.537,-0.842,+0.833,-0.049,-0.396,+4.438,+35.188,-15.188,-4, -12, -4, 4, -1, 3, 1, -8,-0.09820351274269061,1.1341484984698356
1503704024043,+0.055,+0.015,-0.541,-0.839,+0.917,+0.023,-0.366,+14.312,+29.562,-43.875,-16, -1, 10, 7, 3, 0, 1, -8,-0.10879866388526532,1.1434377284975872
1503704024065,+0.066,+0.014,-0.542,-0.837,+0.858,+0.084,-0.407,+26.375,+13.062,-56.062,18, -4, -4, -4, -1, -2, 0, -16,-0.12614119744374533,1.1452383860279387
1503704024080,+0.077,+0.013,-0.542,-0.837,+0.852,+0.081,-0.383,+29.500,+4.250,-55.750,-13, -20, -2, -4, -3, -2, -1, 1,-0.14375688675515666,1.1452528018485038
1503704024105,+0.084,+0.013,-0.544,-0.835,+0.971,+0.035,-0.292,+20.188,+4.688,-33.688,-6, -4, -2, 1, -1, 2, 2, 12,-0.15542441505628452,1.149778311590808
1503704024125,+0.083,+0.015,-0.548,-0.832,+1.120,+0.050,-0.235,+6.125,+17.625,+3.000,3, 4, -1, -3, -4, 1, 2, 6,-0.15551670841900989,1.1593881586032782
1503704024140,+0.079,+0.018,-0.549,-0.832,+1.102,+0.046,-0.299,-4.125,+0.312,+31.188,-3, 5, 0, -1, 4, 1, 1, 12,-0.15204925612354417,1.1623920732174897
1503704024165,+0.070,+0.019,-0.545,-0.835,+1.031,+0.012,-0.285,-23.562,-34.312,+42.062,-6, -3, -7, -1, 11, 36, 1, 3,-0.13818696924248008,1.1529977712844524
1503704024185,+0.060,+0.016,-0.541,-0.839,+0.962,+0.023,-0.268,-45.438,-39.938,+46.125,-5, 0, 3, 2, -17, -5, -9, -8,-0.11835330103313921,1.143606135797833
1503704024201,+0.049,+0.013,-0.538,-0.842,+0.917,+0.124,-0.334,-47.375,-29.438,+46.500,11, -3, -5, -7, -7, -11, -3, -2,-0.09670005083181175,1.136540253065562
1503704024223,+0.040,+0.010,-0.534,-0.844,+0.954,+0.137,-0.442,-40.750,-22.125,+43.812,-5, 13, 34, 13, 12, -4, -2, 2,-0.07830633843128973,1.1264920865640167
1503704024245,+0.033,+0.007,-0.532,-0.846,+0.982,+0.059,-0.436,-36.375,-17.438,+30.750,-5, 13, 28, 8, 4, -7, -4, -24,-0.06334350693462194,1.1218666834054396
1503704024260,+0.030,+0.004,-0.531,-0.847,+0.875,+0.035,-0.421,-24.000,-0.688,+7.375,30, 5, -5, -1, -2, -8, 7, 8,-0.05511320038452952,1.1195217530127821
1503704024281,+0.033,+0.002,-0.531,-0.847,+0.755,+0.063,-0.482,-3.562,+10.188,-23.375,-33, -15, -19, -7, -8, -6, -3, 1,-0.058087701619878196,1.1194530389213226
1503704025302,+0.050,+0.040,-0.558,-0.827,+0.974,-0.018,-0.353,+51.875,+37.750,+40.500,-2, -24, -17, -1, -1, -2, -1, 27,-0.12769421163189842,1.1872253854964785
1503704025324,+0.049,+0.052,-0.562,-0.824,+0.999,-0.021,-0.330,+53.312,+29.188,+39.062,0, 16, 4, -1, -4, -3, -4, 5,-0.13971955550953447,1.1992125112901681
1503704025347,+0.049,+0.064,-0.564,-0.822,+0.956,-0.049,-0.335,+56.500,+20.062,+37.500,11, 14, 6, 0, 2, 0, 4, 10,-0.15354088481605008,1.206815944779679
1503704025361,+0.050,+0.076,-0.565,-0.820,+0.865,-0.050,-0.347,+58.000,+21.688,+36.188,-1, 14, 17, 7, 0, 1, -3, 1,-0.16907577808921018,1.2123325693028848
1503704025384,+0.050,+0.087,-0.567,-0.817,+0.838,-0.079,-0.351,+55.438,+31.188,+36.500,-21, -8, 1, 1, 3, -1, -2, -10,-0.18202726148169515,1.2203082190336747
1503704025407,+0.049,+0.099,-0.571,-0.813,+0.894,-0.081,-0.308,+52.000,+39.125,+38.750,1, 4, -14, -8, -5, -3, 0, -41,-0.19504165413511945,1.2341555036169143
1503704025421,+0.048,+0.109,-0.575,-0.810,+0.945,-0.103,-0.284,+50.125,+33.688,+38.500,-3, 2, -1, 5, -1, -3, 0, -2,-0.2060730230954665,1.248090626360298
1503704025444,+0.048,+0.120,-0.576,-0.807,+0.921,-0.103,-0.305,+49.375,+22.188,+39.688,-9, -16, -4, -5, -5, -3, -2, -17,-0.21956963814727307,1.254870949227843
1503704025466,+0.047,+0.130,-0.577,-0.805,+0.875,-0.123,-0.290,+47.750,+17.875,+36.688,-1, 11, 3, 1, 1, -1, -5, -1,-0.2304879913600082,1.2619020203224376
1503704025482,+0.046,+0.141,-0.578,-0.803,+0.877,-0.149,-0.268,+47.875,+19.625,+36.812,1, -4, -5, -10, -4, -1, 0, 11,-0.24288109955774675,1.2699138540211619
1503704025504,+0.046,+0.151,-0.579,-0.800,+0.866,-0.167,-0.269,+46.375,+22.000,+36.125,12, 43, 11, 2, 2, 0, 2, 28,-0.255762311381922,1.2775565413294419
1503704025527,+0.045,+0.160,-0.580,-0.797,+0.901,-0.171,-0.261,+42.750,+19.625,+37.438,2, -25, -7, -2, -2, 1, -4, -25,-0.2659277995940246,1.2848948132262725
1503704025542,+0.044,+0.169,-0.580,-0.796,+0.894,-0.151,-0.269,+41.938,+9.312,+34.312,-2, 27, 12, 4, 1, 0, 1, 19,-0.276132804180401,1.2905154610592449
1503704025564,+0.045,+0.177,-0.578,-0.795,+0.850,-0.162,-0.272,+44.125,+0.875,+30.000,25, -1, 9, 7, 5, -2, 0, -30,-0.28769197893412524,1.290475210139015
1503704025587,+0.046,+0.185,-0.576,-0.795,+0.849,-0.187,-0.256,+39.812,-2.438,+23.000,0, -16, -7, -5, -4, -1, -2, 42,-0.2994161919650382,1.291043799189325
1503704025601,+0.048,+0.190,-0.575,-0.794,+0.866,-0.167,-0.232,+33.062,-1.188,+15.125,1, -2, -15, -9, -8, -1, 0, 33,-0.30901750241140297,1.2920471805474942
1503704025624,+0.050,+0.194,-0.573,-0.794,+0.931,-0.172,-0.246,+27.500,-7.375,+8.000,-13, -10, -6, -7, 0, 3, 5, -11,-0.3169951385929636,1.2899628049863
1503704025646,+0.053,+0.197,-0.570,-0.796,+0.916,-0.163,-0.257,+22.562,-18.562,+3.625,1, 9, -1, -1, -2, -1, 0, -6,-0.3250533148335425,1.2851949449618547
1503704025661,+0.056,+0.199,-0.568,-0.797,+0.881,-0.179,-0.239,+17.500,-18.125,+0.188,-9, -15, -7, 3, 8, -1, 1, -6,-0.33203426074436115,1.2820653271487905
1503704025684,+0.059,+0.199,-0.566,-0.798,+0.956,-0.195,-0.228,+10.500,-10.625,-5.312,-7, -7, 6, -1, -4, 0, -4, -33,-0.3362744829148593,1.277320825541498
1503704025709,+0.061,+0.199,-0.565,-0.798,+0.979,-0.206,-0.242,+5.188,-11.438,-7.688,7, 8, 11, 13, 7, -1, -2, -6,-0.3391612314997174,1.2748451534312302
1503704025721,+0.063,+0.197,-0.564,-0.799,+0.974,-0.193,-0.264,-0.750,-10.375,-6.562,6, -4, 4, -5, -1, -2, -3, 24,-0.3394336666637051,1.2710766720610551
1503704025752,+0.063,+0.196,-0.562,-0.801,+0.980,-0.219,-0.306,-7.938,-8.188,+0.500,-4, -6, 1, -8, -13, -2, 2, 13,-0.3375501082299673,1.2655384363982454
1503704025761,+0.061,+0.194,-0.563,-0.801,+0.982,-0.169,-0.266,-15.250,+0.500,+7.938,-6, -10, -6, -3, -7, 1, -1, -3,-0.33192352673623443,1.2663945616353733
1503704025782,+0.058,+0.192,-0.563,-0.802,+0.993,-0.169,-0.284,-20.625,+3.562,+10.250,1, -3, -2, -2, 11, 2, -6, -66,-0.32439995547097455,1.2647932257489323
1503704025804,+0.055,+0.189,-0.564,-0.802,+1.021,-0.195,-0.248,-26.312,+8.250,+9.125,3, 16, 19, 13, 8, 1, -2, 11,-0.3157967697298172,1.2647996542284017
1503704025827,+0.050,+0.184,-0.566,-0.802,+0.988,-0.210,-0.228,-38.312,+6.312,+5.625,6, 15, 1, -5, -5, -3, -6, -25,-0.3016174730731699,1.2658291550380871
1503704025844,+0.045,+0.178,-0.568,-0.802,+0.986,-0.252,-0.233,-47.812,+12.000,+4.312,-13, -5, -10, -4, 9, 1, 3, 16,-0.28614931796497134,1.266273439142387
1503704025864,+0.040,+0.172,-0.570,-0.802,+1.002,-0.155,-0.242,-46.375,+15.500,+5.625,-7, -9, -3, 5, 3, -2, -2, -23,-0.2707356126736615,1.266910955803529
1503704025886,+0.034,+0.166,-0.573,-0.802,+1.008,-0.145,-0.217,-45.938,+17.188,+12.062,20, 67, 37, 11, 11, 3, -5, -9,-0.2540721382158375,1.2703748229126226
1503704025901,+0.027,+0.161,-0.575,-0.802,+0.979,-0.187,-0.210,-50.125,+12.562,+16.938,-8, -9, -15, -19, -24, -3, -15, 49,-0.23679307059415086,1.2718575645703765
1503704025924,+0.018,+0.154,-0.577,-0.802,+0.880,-0.128,-0.241,-60.188,+13.750,+19.938,-14, -28, -21, -10, -11, -2, 8, 12,-0.21370843667407172,1.272069328622661
1503704025947,+0.007,+0.146,-0.580,-0.802,+0.771,-0.130,-0.293,-73.062,+31.125,+26.250,-6, -28, -10, -2, -11, -6, 10, 43,-0.18645766746069112,1.274565434982782
1503704025969,-0.006,+0.138,-0.584,-0.800,+0.929,-0.170,-0.276,-78.875,+38.125,+34.000,13, 1, 0, 3, 0, -1, 4, 52,-0.15631228364238614,1.2793623516001067
1503704025984,-0.017,+0.128,-0.584,-0.801,+0.969,-0.073,-0.312,-84.125,+11.250,+31.188,12, 18, 14, 9, 5, 5, 1, 16,-0.12581969938317125,1.2736792154099652
1503704026006,-0.029,+0.118,-0.581,-0.805,+0.776,-0.042,-0.304,-85.688,-6.938,+30.438,-5, -12, -7, -9, -7, -3, 2, -12,-0.09290927117891587,1.2612019386280597
1503704026021,-0.042,+0.109,-0.579,-0.807,+0.631,-0.010,-0.291,-91.062,+5.000,+40.438,-4, 5, 8, 0, 5, 0, -1, -16,-0.060001294669163555,1.2516682546285571
1503704026045,-0.060,+0.099,-0.578,-0.808,+0.546,+0.095,-0.407,-98.188,+21.562,+61.688,0, 7, -6, -8, 0, 1, -4, -5,-0.017963579170109226,1.2443289334956622
1503704026066,-0.079,+0.089,-0.576,-0.809,+0.592,+0.070,-0.491,-100.000,+24.812,+73.688,-6, -6, 0, 2, 4, -3, -5, -13,0.026025433379633596,1.2347632783946587
1503704026082,-0.095,+0.079,-0.570,-0.812,+0.695,+0.041,-0.610,-101.188,-2.438,+57.812,-10, -12, 0, -1, 5, -3, -5, -34,0.06614587853106786,1.2156727993506136
1503704026104,-0.106,+0.066,-0.561,-0.819,+0.728,-0.047,-0.533,-99.750,-33.250,+16.562,0, -5, -4, -2, -5, 0, 4, 2,0.10242147826608837,1.1904084637518073
1503704026126,-0.111,+0.051,-0.548,-0.827,+0.761,-0.039,-0.401,-91.688,-70.500,-15.000,-3, -6, -4, -4, -6, 0, 3, 10,0.1308738972622301,1.1559532842975366
1503704026142,-0.113,+0.039,-0.534,-0.837,+0.818,-0.110,-0.400,-80.750,-89.812,-29.562,-2, -8, -4, 1, -4, -2, -5, 28,0.15069861790373906,1.1216275293327578
1503704026164,-0.116,+0.028,-0.518,-0.847,+0.799,-0.252,-0.484,-74.625,-90.125,-29.750,-4, 7, 4, 5, 1, -4, -7, -15,0.1707277661672747,1.0832978224090932
1503704026187,-0.119,+0.017,-0.504,-0.855,+0.835,-0.335,-0.572,-81.875,-78.125,-34.438,0, -2, 6, 10, 8, -2, -3, -14,0.1895950161861467,1.0505769540701937
1503704026202,-0.122,+0.004,-0.493,-0.862,+0.909,-0.318,-0.469,-92.438,-68.375,-40.188,0, -2, -2, 3, -5, -5, -2, -7,0.20959889188117914,1.0264915220644455
1503704026224,-0.124,-0.008,-0.481,-0.868,+1.044,-0.302,-0.453,-83.812,-76.188,-39.562,0, -2, -3, -1, -8, 0, 1, 5,0.22612954043508368,1.0002381923344807
1503704026246,-0.125,-0.018,-0.469,-0.874,+1.163,-0.377,-0.541,-75.500,-86.062,-38.062,0, -3, -3, -10, -17, 2, 1, 43,0.23851153196846903,0.9745345332907553
1503704026263,-0.128,-0.027,-0.457,-0.880,+1.208,-0.435,-0.520,-77.062,-88.500,-36.938,4, -1, -1, 1, -7, 1, -1, -28,0.25325893895692203,0.9494110872310283
1503704026284,-0.130,-0.033,-0.446,-0.885,+1.141,-0.418,-0.526,-64.750,-78.250,-29.875,-12, -4, -3, -6, 5, -2, 2, -54,0.262986621961324,0.9261013011375023
1503704026314,-0.134,-0.038,-0.440,-0.887,+1.108,-0.434,-0.550,-53.062,-54.750,-18.812,-7, -5, -2, -1, 9, 0, 0, 113,0.274956395039619,0.9137931567616553
1503704026329,-0.138,-0.040,-0.435,-0.889,+1.136,-0.391,-0.553,-45.375,-41.812,-1.625,-4, -2, -1, -1, -4, 0, -1, -116,0.2843128067023537,0.9032678616234041
1503704026344,-0.144,-0.040,-0.432,-0.889,+1.121,-0.413,-0.556,-33.062,-36.438,+11.500,11, 0, 0, 4, 0, -3, -1, -72,0.2952875465285724,0.8961655172808141
1503704026366,-0.150,-0.038,-0.431,-0.889,+1.085,-0.433,-0.551,-22.875,-20.812,+15.500,18, 6, 0, -2, 4, 2, -1, -55,0.30472192731681264,0.8933831747511567
1503704026382,-0.154,-0.034,-0.432,-0.888,+0.979,-0.373,-0.534,-7.188,-7.500,+14.500,-7, 16, 6, -2, -1, 0, 0, -10,0.30855517412394645,0.8942728150720048
1503704026404,-0.156,-0.029,-0.434,-0.887,+0.920,-0.371,-0.509,+9.000,-2.562,+8.562,-29, -6, 5, 2, -2, 0, -1, -16,0.3078193598437001,0.8972817905944294
1503704026427,-0.156,-0.023,-0.438,-0.885,+0.875,-0.349,-0.494,+18.562,+16.500,+4.812,2, 6, -2, -5, -4, -1, -2, -31,0.3022219039864284,0.9044456404495342
1503704026442,-0.156,-0.017,-0.445,-0.882,+0.857,-0.322,-0.514,+31.000,+31.688,+8.625,16, 8, -3, 2, 1, 0, -3, -8,0.2963601886622028,0.918718916767949
1503704026464,-0.155,-0.010,-0.453,-0.878,+0.866,-0.306,-0.521,+36.938,+38.125,+6.188,-7, -7, -5, 3, 2, -3, -1, 1,0.28732120468145306,0.9349880900870002
1503704026487,-0.152,-0.003,-0.459,-0.875,+0.867,-0.268,-0.501,+39.625,+34.312,+0.500,-20, -10, -4, -5, -6, -2, -2, -2,0.2746581073897174,0.9470818007984003
1503704026502,-0.149,+0.004,-0.466,-0.872,+0.858,-0.264,-0.504,+45.250,+34.125,-3.062,-39, -13, -2, -3, -1, -2, -4, -16,0.2618822450295363,0.9620599724518688
1503704026524,-0.144,+0.012,-0.472,-0.870,+0.819,-0.273,-0.540,+51.188,+33.500,-6.938,-15, -13, -3, -1, 0, -1, 0, -14,0.2446564779365285,0.975273987175397
1503704026549,-0.139,+0.018,-0.478,-0.867,+0.790,-0.251,-0.528,+49.938,+37.000,-14.812,16, 8, 3, 3, 0, -1, -2, 0,0.2288887059943008,0.9885704299815522
1503704026562,-0.132,+0.023,-0.486,-0.864,+0.757,-0.230,-0.496,+47.500,+45.688,-24.438,13, -2, -3, -3, -2, -1, 4, 4,0.21024867228846286,1.0074973038936872
1503704026586,-0.125,+0.027,-0.494,-0.860,+0.781,-0.204,-0.472,+42.625,+52.188,-27.000,5, -6, -3, -1, -1, 0, 2, -7,0.19228652896727672,1.026276648667857
1503704026607,-0.118,+0.030,-0.502,-0.856,+0.829,-0.165,-0.486,+40.812,+54.938,-27.125,24, 31, 8, 3, 1, -2, -2, -2,0.1753291596169415,1.0453596128067917
1503704026623,-0.110,+0.031,-0.510,-0.853,+0.867,-0.136,-0.505,+38.750,+50.562,-31.875,-21, -18, -8, 3, 2, -1, -3, 0,0.15887503615366363,1.0652037448457938
1503704026644,-0.102,+0.032,-0.517,-0.849,+0.880,-0.098,-0.491,+35.250,+48.625,-33.625,3, -2, 2, -1, 25, 24, 0, -6,0.14241452446821756,1.0820367066944696
1503704026666,-0.094,+0.033,-0.523,-0.847,+0.907,-0.069,-0.480,+34.375,+38.562,-32.375,-10, -8, 1, -3, -8, -1, 1, -2,0.12656365039674689,1.0972996054362019
1503704026683,-0.085,+0.034,-0.527,-0.845,+0.901,-0.042,-0.510,+35.688,+29.188,-30.250,-3, -3, -4, -3, -4, -10, -3, -1,0.10921566099922529,1.1073250344026444
1503704026704,-0.078,+0.035,-0.529,-0.844,+0.880,-0.034,-0.497,+30.438,+22.812,-27.500,9, -3, 0, 0, -5, 0, 0, -2,0.09574424377686415,1.1124612689283193
1503704026727,-0.072,+0.035,-0.532,-0.843,+0.872,-0.020,-0.457,+26.188,+20.688,-24.875,14, -3, -3, -6, -4, -4, 1, 7,0.08503908060081476,1.120197072465259
1503704026742,-0.065,+0.035,-0.535,-0.842,+0.859,-0.017,-0.451,+23.438,+21.562,-25.562,5, 6, 4, -5, 0, 16, 1, -2,0.07267533800153264,1.1279719019768977
1503704026764,-0.059,+0.034,-0.538,-0.840,+0.878,-0.007,-0.432,+21.375,+23.375,-28.250,-3, -6, 2, 1, -6, -10, -7, 3,0.06303775587143814,1.1351915039283202
1503704026788,-0.052,+0.032,-0.541,-0.839,+0.897,+0.022,-0.429,+17.062,+26.000,-29.500,-3, -2, -6, -3, -1, -7, 2, 7,0.05297775317894688,1.1428251915559633
1503704026802,-0.046,+0.030,-0.544,-0.837,+0.903,+0.033,-0.416,+11.688,+23.750,-29.688,6, -11, -6, -2, -3, 0, -3, -3,0.044603624681682615,1.1499824739779763
1503704026824,-0.040,+0.027,-0.547,-0.836,+0.917,+0.035,-0.374,+5.250,+20.125,-28.812,-4, 0, -4, 3, 1, -1, -1, -5,0.037499166190931466,1.1575228796458963
1503704026846,-0.035,+0.024,-0.551,-0.834,+0.888,+0.068,-0.379,+6.750,+26.812,-25.062,-3, 14, 8, 1, -1, -6, -1, -1,0.03203647030418307,1.1673054195071315
1503704026862,-0.031,+0.022,-0.554,-0.832,+0.944,+0.053,-0.348,+5.688,+20.750,-21.062,10, -1, -1, 2, -2, -2, 1, -3,0.027280089696596604,1.1744680399765146
1503704026884,-0.028,+0.020,-0.555,-0.831,+1.013,-0.029,-0.354,+3.938,+11.688,-15.562,3, -4, 1, 0, -2, 0, 1, 1,0.024388927611094836,1.1766720674250941
1503704026908,-0.027,+0.019,-0.557,-0.830,+1.024,-0.016,-0.326,-4.500,+9.000,-7.375,-8, -1, 1, 3, 2, -7, -1, 0,0.0237012393342541,1.1816004205969357
1503704026922,-0.027,+0.018,-0.558,-0.829,+0.999,+0.000,-0.347,-5.500,+5.938,+2.125,-5, 3, 5, -2, -2, 0, 1, 5,0.024725041951733306,1.183826575675144
1503704026944,-0.029,+0.017,-0.559,-0.829,+0.965,-0.010,-0.360,-8.125,+5.125,+6.000,-2, 2, -5, -2, -3, -2, -3, -5,0.02913361524997499,1.1864544131836334
1503704026966,-0.031,+0.016,-0.559,-0.829,+0.928,-0.024,-0.372,-8.562,+5.938,+11.000,-4, -2, 1, -3, -4, -4, -2, 0,0.03357913584285431,1.186390896851562
1503704026984,-0.033,+0.016,-0.559,-0.828,+0.924,-0.041,-0.346,-8.062,+5.188,+12.438,0, -4, -1, -1, 15, 15, 5, -3,0.03684247246583143,1.1859465794284776
