Timestamp,Orientation X,Orientation Y,Orientation Z,Orientation W,Accelerometer X,Accelerometer Y,Accelerometer Z,Gyroscope X,Gyroscope Y,Gyroscope Z,EMG1,EMG2,EMG3,EMG4,EMG5,EMG6,EMG7,EMG8
1503945524892,+0.836,+0.469,+0.239,+0.157,+0.862,-0.273,-0.413,-1.625,+15.688,+2.562,8, 0, 4, 0, -5, -6, 0, -5
1503945524908,+0.835,+0.470,+0.239,+0.157,+0.936,-0.223,-0.366,+0.062,+2.625,-2.812,-4, -8, -4, 2, -2, -5, -9, 9
1503945524933,+0.835,+0.471,+0.238,+0.159,+0.839,-0.209,-0.386,-0.500,+1.875,-7.312,51, 6, 16, 1, 0, 0, 25, 88
1503945524960,+0.834,+0.472,+0.238,+0.159,+0.762,-0.239,-0.385,+1.000,+12.938,-5.812,-29, -1, -8, -5, 1, -3, 8, -12
1503945524975,+0.831,+0.477,+0.238,+0.159,+0.920,-0.212,-0.371,-2.000,+28.125,-5.562,6, -12, -8, 1, -4, 0, -6, -26
1503945524990,+0.830,+0.479,+0.237,+0.160,+0.985,-0.175,-0.474,+0.938,+14.250,-5.438,-13, -17, -8, -1, -1, 4, -13, -18
1503945525012,+0.829,+0.478,+0.239,+0.162,+0.891,-0.201,-0.425,+17.188,-0.688,-4.062,1, 2, -4, -3, -3, -1, 3, 25
1503945525038,+0.828,+0.479,+0.241,+0.164,+0.796,-0.228,-0.359,+14.062,+3.500,-5.375,-14, 13, -9, -8, -4, -2, 0, 8
1503945525050,+0.825,+0.484,+0.243,+0.163,+0.896,-0.188,-0.373,+7.438,+37.125,-0.188,-22, -25, -3, 0, -2, -6, -1, -13
1503945525072,+0.822,+0.486,+0.245,+0.165,+1.035,-0.184,-0.521,+21.312,+25.812,+1.875,21, 16, 13, 13, 19, 28, 1, -19
1503945525095,+0.820,+0.486,+0.249,+0.170,+0.965,-0.255,-0.328,+34.062,+1.188,-14.562,16, -4, -8, -2, -4, 5, 2, 0
1503945525111,+0.818,+0.487,+0.251,+0.175,+0.790,-0.208,-0.330,+27.500,+5.312,-24.250,-2, 4, -6, -2, 1, 4, 1, -8
1503945525134,+0.813,+0.493,+0.254,+0.179,+0.815,-0.142,-0.398,+27.250,+46.625,-19.250,19, 3, 3, -3, 2, -5, 0, 4
1503945525155,+0.807,+0.499,+0.259,+0.182,+1.057,-0.242,-0.320,+30.500,+37.688,-12.688,6, 1, -14, -11, -5, -13, 2, 18
1503945525171,+0.804,+0.500,+0.262,+0.185,+1.148,-0.299,-0.257,+26.875,+4.312,-14.000,4, -16, -9, -3, -24, -7, -5, -4
1503945525192,+0.805,+0.495,+0.266,+0.190,+0.989,-0.333,-0.311,+28.625,-35.000,-4.062,6, 9, 5, 4, 18, -1, 7, -13
1503945525215,+0.808,+0.487,+0.269,+0.192,+0.892,-0.348,-0.331,+20.688,-44.062,+6.312,18, -20, -15, 4, -7, -8, -4, 16
1503945525239,+0.810,+0.483,+0.271,+0.192,+0.816,-0.365,-0.322,+7.688,-25.125,+6.562,44, -5, -12, -14, -17, -6, -12, 7
1503945525252,+0.811,+0.481,+0.273,+0.193,+0.759,-0.334,-0.320,+7.312,-3.875,-3.812,31, -3, -5, -15, -4, 0, 4, 9
1503945525275,+0.809,+0.482,+0.273,+0.194,+0.821,-0.304,-0.313,+4.562,+8.000,-14.188,-25, -4, -5, 6, 19, 2, 5, 1
1503945525291,+0.808,+0.485,+0.273,+0.196,+0.956,-0.265,-0.252,+0.750,+5.812,-13.562,-7, 15, -3, 3, -8, -3, -7, -6
1503945525312,+0.808,+0.485,+0.271,+0.196,+0.905,-0.283,-0.252,-11.312,-6.312,-6.250,-6, 2, 3, 2, 6, 0, -8, -11
1503945525329,+0.809,+0.485,+0.268,+0.195,+0.792,-0.190,-0.353,-19.000,-4.938,-4.875,-70, -27, -7, -6, -2, -7, 9, -17
1503945525351,+0.810,+0.485,+0.265,+0.195,+0.841,-0.174,-0.393,-14.812,+5.125,-1.812,19, -42, -6, -2, -14, -2, -9, -11
1503945525380,+0.811,+0.486,+0.263,+0.193,+0.978,-0.209,-0.314,-17.812,-3.188,+3.438,8, -4, 1, -6, 12, 6, 8, 10
1503945525395,+0.812,+0.485,+0.260,+0.192,+1.010,-0.204,-0.332,-20.375,-16.562,+2.938,-20, 4, -6, -10, -17, -2, -2, 3
1503945525411,+0.816,+0.480,+0.256,+0.192,+0.958,-0.240,-0.410,-18.625,-36.562,+2.625,28, 9, 5, 3, 6, 0, -1, -5
1503945528593,+0.807,+0.455,+0.306,+0.221,+0.950,-0.297,-0.377,-1.500,-7.750,+0.125,28, -3, -9, -4, -2, -2, -6, -18
1503945528612,+0.807,+0.455,+0.305,+0.222,+0.886,-0.247,-0.357,+0.750,-2.562,-0.125,13, 6, 7, 6, -9, -3, -5, -31
1503945528635,+0.807,+0.455,+0.306,+0.221,+0.847,-0.259,-0.396,+4.625,+4.375,+5.000,2, -12, -7, -5, -3, 2, -3, 10
1503945528650,+0.806,+0.456,+0.307,+0.221,+0.929,-0.299,-0.356,-0.875,+6.062,-0.312,3, -3, -6, -2, 8, -2, -3, 2
1503945528672,+0.806,+0.456,+0.306,+0.221,+0.966,-0.293,-0.289,-7.500,-2.625,-2.625,-5, -3, 7, 3, 0, 2, 10, 23
1503945528696,+0.807,+0.456,+0.303,+0.222,+0.890,-0.218,-0.336,-12.062,-11.000,-9.562,-9, -7, 0, -2, 1, -2, -10, -42
1503945528709,+0.808,+0.455,+0.300,+0.224,+0.836,-0.234,-0.418,-7.500,-9.750,-11.250,23, -2, -2, -5, -7, 9, 9, 26
1503945528732,+0.809,+0.454,+0.298,+0.225,+0.878,-0.283,-0.344,-6.125,-13.750,-4.875,6, 8, -1, 14, 29, 11, -6, -6
1503945528755,+0.809,+0.455,+0.297,+0.223,+0.843,-0.260,-0.345,-17.062,+4.500,+3.812,-15, -4, 0, -3, -5, -12, -2, 14
1503945528770,+0.810,+0.456,+0.294,+0.223,+0.840,-0.195,-0.440,-13.062,+8.312,-3.375,5, -10, -3, -7, -8, -1, 5, -2
1503945528800,+0.811,+0.456,+0.292,+0.224,+0.917,-0.247,-0.407,-10.062,-9.188,-8.250,35, 9, -3, -7, 2, 6, 2, 12
1503945528823,+0.812,+0.455,+0.289,+0.224,+0.875,-0.296,-0.362,-15.500,-13.125,-4.188,-4, 8, 3, -1, 5, -6, -1, 13
1503945528832,+0.813,+0.455,+0.286,+0.223,+0.858,-0.262,-0.391,-17.875,-3.500,-0.688,-8, -5, -6, -5, -20, 2, 12, 24
1503945528853,+0.815,+0.453,+0.284,+0.223,+1.004,-0.231,-0.375,-13.812,-18.875,-0.062,-25, 3, 9, 5, 0, -5, -1, -28
1503945528874,+0.817,+0.451,+0.283,+0.223,+0.942,-0.304,-0.401,-8.688,-19.750,+2.250,-13, -10, -7, -3, -7, -3, -1, -7
1503945528897,+0.819,+0.449,+0.280,+0.223,+0.703,-0.270,-0.409,-13.438,-12.938,-5.812,-8, -25, -23, -3, -3, -7, -16, -36
1503945528912,+0.818,+0.451,+0.278,+0.222,+0.800,-0.216,-0.363,-14.438,+12.312,-2.812,-18, 4, 13, 12, 11, 1, 0, 8
1503945528937,+0.816,+0.456,+0.278,+0.220,+0.972,-0.279,-0.388,-11.250,+30.125,+1.250,-4, 0, 1, -6, -5, -2, -1, -33
1503945528957,+0.817,+0.457,+0.277,+0.218,+1.022,-0.255,-0.435,-12.750,+0.438,+3.000,1, 5, 8, 2, 0, -3, -2, 35
1503945528972,+0.819,+0.454,+0.275,+0.218,+0.918,-0.288,-0.351,-13.438,-22.750,+3.875,0, 6, 3, -3, -6, -2, 3, 38
1503945528995,+0.821,+0.453,+0.273,+0.216,+0.889,-0.307,-0.381,-17.000,-11.375,+7.375,-47, -4, 1, 6, 7, 5, 7, -16
1503945529017,+0.822,+0.452,+0.272,+0.213,+0.897,-0.283,-0.414,-13.938,-7.500,+10.438,2, -6, -1, -2, 0, 0, -3, -1
1503945529032,+0.824,+0.451,+0.271,+0.211,+0.865,-0.275,-0.374,-17.125,-6.125,+9.500,22, 24, 21, 6, 0, -6, -6, 3
1503945529055,+0.825,+0.451,+0.270,+0.208,+0.840,-0.294,-0.391,-17.062,+3.750,+6.750,-9, 13, 19, 2, 1, -5, 3, 28
1503945529077,+0.824,+0.454,+0.269,+0.205,+0.933,-0.321,-0.388,-17.500,+14.875,+7.812,-24, 6, -2, -1, -11, 3, 12, -15
1503945529095,+0.825,+0.455,+0.268,+0.202,+0.995,-0.266,-0.430,-13.438,+3.000,+11.062,28, 8, -6, -1, 4, -7, -15, -26
1503945529115,+0.826,+0.453,+0.266,+0.202,+0.903,-0.252,-0.396,-13.812,-13.688,+3.062,0, -3, -8, -6, -1, -30, 10, 6
1503945531538,+0.727,+0.586,+0.294,+0.202,+1.021,-0.090,-0.204,+2.562,-8.062,-8.000,14, -4, -15, -5, -16, -6, -1, -8
1503945531553,+0.729,+0.584,+0.294,+0.204,+1.073,-0.201,-0.044,+4.188,-24.125,-6.688,-17, -2, 1, 5, 3, 1, -1, -13
1503945531576,+0.730,+0.582,+0.293,+0.205,+0.959,-0.264,-0.027,-2.562,-20.438,-8.562,-13, 13, 0, -5, 10, -1, -4, 13
1503945531598,+0.731,+0.582,+0.291,+0.206,+0.915,-0.217,-0.103,-9.312,-5.062,-8.938,-48, 0, 9, 3, 2, 1, 0, -23
1503945531614,+0.731,+0.583,+0.289,+0.205,+0.976,-0.119,-0.179,-10.000,+6.438,-1.250,-96, -19, -18, -8, -14, -10, -11, -31
1503945531636,+0.731,+0.582,+0.289,+0.206,+0.989,-0.139,-0.180,+1.562,-1.188,-4.938,32, 2, -3, 2, -1, 5, 7, 19
1503945531658,+0.731,+0.583,+0.289,+0.207,+1.029,-0.240,-0.044,-0.250,-1.062,-8.125,56, 13, 12, 5, -2, -4, -15, 1
1503945531673,+0.730,+0.584,+0.288,+0.206,+0.942,-0.203,-0.049,-6.438,+5.312,-4.125,20, -8, -10, -1, -1, 1, 11, 12
1503945531696,+0.728,+0.588,+0.287,+0.206,+0.926,-0.133,-0.124,-8.375,+23.250,-8.312,46, -5, -6, -4, 1, -4, 1, 60
1503945531718,+0.726,+0.591,+0.286,+0.206,+1.032,-0.101,-0.172,-1.625,+24.062,-3.500,1, -3, -6, -5, -1, 1, 2, -2
1503945531733,+0.725,+0.592,+0.287,+0.207,+1.085,-0.166,-0.097,+4.875,+4.875,-6.625,-11, -4, -9, -8, -10, -4, -3, -21
1503945531758,+0.724,+0.592,+0.287,+0.209,+1.031,-0.199,-0.054,+5.875,-3.562,-8.625,12, -5, -7, -1, -3, 2, 3, -18
1503945531780,+0.724,+0.591,+0.287,+0.211,+0.948,-0.198,-0.054,+6.625,-8.625,-12.312,16, 6, 4, 0, -6, 3, -2, -1
1503945531793,+0.724,+0.591,+0.285,+0.213,+0.994,-0.195,-0.112,+1.625,-3.812,-18.062,0, 5, 5, 2, 8, -1, -2, 0
1503945531818,+0.724,+0.590,+0.284,+0.215,+1.040,-0.136,-0.150,+1.500,-7.312,-6.625,-14, -7, -7, -6, -42, -1, -1, -6
1503945531838,+0.726,+0.588,+0.284,+0.217,+1.011,-0.126,-0.099,+2.188,-18.875,-2.312,-79, -16, -10, 4, 5, -1, 2, -7
1503945531857,+0.727,+0.586,+0.282,+0.218,+1.023,-0.160,-0.042,-1.188,-20.250,-6.250,-5, -11, -4, -3, 10, -4, -1, -15
1503945531876,+0.730,+0.583,+0.281,+0.220,+1.047,-0.162,-0.090,-4.250,-30.125,-1.938,9, 7, 7, 0, 1, -4, 0, -2
1503945531898,+0.734,+0.578,+0.278,+0.222,+0.965,-0.076,-0.143,-6.250,-40.938,-1.812,-4, -2, -5, -4, -10, -3, -3, -11
1503945531915,+0.738,+0.574,+0.274,+0.224,+0.896,-0.072,-0.135,-7.875,-43.500,-6.000,-4, -9, -7, -10, -34, -8, 3, 5
1503945531936,+0.741,+0.572,+0.272,+0.225,+0.889,-0.121,-0.093,-13.875,-23.562,-2.625,-8, 8, 4, 10, 0, 3, -1, 5
1503945531958,+0.741,+0.573,+0.270,+0.223,+0.913,-0.095,-0.122,-17.250,+5.375,+1.000,-7, -5, -5, -11, -10, -1, 2, -7
1503945531973,+0.741,+0.575,+0.268,+0.222,+1.007,-0.062,-0.182,-12.062,+8.062,+2.875,-24, 0, 4, 4, 12, 13, 3, 5
1503945531996,+0.742,+0.575,+0.266,+0.221,+1.077,-0.085,-0.152,-13.812,-4.625,+3.812,16, 2, 6, 5, 9, 0, -8, -18
1503945532018,+0.744,+0.573,+0.264,+0.220,+1.045,-0.095,-0.140,-14.562,-17.938,+0.375,2, -1, 4, 0, 7, 5, 3, 15
1503945532033,+0.747,+0.570,+0.261,+0.221,+1.025,-0.105,-0.197,-10.500,-26.188,+0.500,-7, -1, -2, -1, -7, -6, -4, -4
1503945532062,+0.751,+0.567,+0.258,+0.221,+0.928,-0.142,-0.204,-13.125,-30.188,+1.688,-10, -4, -6, -3, 1, -3, -2, -17
1503945532078,+0.754,+0.564,+0.256,+0.220,+0.894,-0.138,-0.201,-15.188,-24.688,+2.000,1, -2, 4, 3, 6, -4, -7, -8
1503945532093,+0.755,+0.563,+0.254,+0.219,+0.896,-0.100,-0.197,-13.938,-6.062,+3.812,-1, -6, -6, 0, 4, 0, 9, 19
1503945532116,+0.756,+0.563,+0.253,+0.218,+0.937,-0.046,-0.232,-12.000,+1.500,+6.250,-23, -7, 2, -1, 3, -2, -2, -2
1503945532138,+0.757,+0.562,+0.251,+0.216,+1.001,-0.079,-0.220,-10.312,-6.938,+8.500,18, -8, -7, -4, -2, -6, -7, -17
1503945532153,+0.759,+0.561,+0.251,+0.214,+1.010,-0.180,-0.149,-11.000,-10.062,+11.500,35, 16, 2, 1, -2, 2, 1, 16
1503945532176,+0.761,+0.559,+0.250,+0.212,+1.000,-0.175,-0.158,-15.250,-18.312,+9.875,-16, -1, -4, -1, -3, -2, 7, 13
1503945532198,+0.765,+0.556,+0.248,+0.211,+1.020,-0.078,-0.217,-12.562,-31.312,+9.375,0, -2, 1, -1, 0, -5, -7, -23
1503945532220,+0.769,+0.551,+0.245,+0.212,+0.966,-0.081,-0.265,-10.062,-38.312,+6.625,27, 3, 6, 3, -1, 11, 7, -17
1503945532236,+0.774,+0.545,+0.244,+0.210,+0.902,-0.155,-0.245,-12.438,-37.750,+14.062,-3, 4, 7, 6, 4, -1, 3, 20
1503945532258,+0.777,+0.542,+0.243,+0.208,+0.913,-0.186,-0.235,-15.375,-25.812,+16.000,8, -14, 7, 1, 2, -3, 0, 2
1503945532280,+0.779,+0.541,+0.243,+0.205,+1.004,-0.183,-0.204,-13.062,-6.250,+15.438,19, -10, -7, -5, -3, -3, 0, 14
1503945532296,+0.780,+0.539,+0.242,+0.203,+1.075,-0.126,-0.260,-10.062,-13.375,+12.250,14, -6, 1, 3, 4, 1, -4, -7
1503945532319,+0.784,+0.535,+0.240,+0.203,+1.027,-0.073,-0.295,-6.688,-33.062,+7.562,-27, 1, -6, -2, -5, -9, -5, -11
1503945535055,+0.808,+0.540,+0.204,+0.117,+0.935,-0.142,-0.289,+9.125,+35.312,+6.000,-24, -9, -8, -3, -2, -3, -3, -12
1503945535078,+0.805,+0.544,+0.206,+0.116,+1.034,-0.166,-0.242,+6.312,+27.438,+6.312,48, 6, -1, -1, -2, -3, 1, 12
1503945535099,+0.804,+0.545,+0.208,+0.115,+1.019,-0.146,-0.262,+7.625,+4.938,+12.375,3, -2, -2, 4, 2, -4, -2, -15
1503945535115,+0.804,+0.544,+0.210,+0.115,+0.962,-0.149,-0.293,+9.000,+0.562,+15.188,5, 1, -5, -2, -3, -2, -3, -38
1503945535140,+0.804,+0.544,+0.212,+0.115,+0.870,-0.146,-0.354,+13.125,+4.188,+7.375,-30, 2, 2, -1, -2, 1, -9, -8
1503945535159,+0.803,+0.544,+0.214,+0.117,+0.849,-0.163,-0.311,+19.312,+7.000,+1.562,3, -11, 7, 3, -1, -2, -2, 0
1503945535175,+0.800,+0.546,+0.218,+0.118,+0.928,-0.221,-0.240,+20.438,+18.250,-0.500,-13, -2, 4, -3, -2, -4, 1, 0
1503945535198,+0.798,+0.548,+0.222,+0.119,+0.988,-0.243,-0.242,+22.750,+19.938,+4.812,51, 2, -3, 0, -2, -3, -1, 30
1503945535220,+0.794,+0.551,+0.227,+0.119,+0.961,-0.238,-0.311,+23.812,+32.000,+7.688,-11, -6, 3, 1, -1, -5, -4, -6
1503945535237,+0.791,+0.553,+0.231,+0.121,+0.884,-0.224,-0.353,+33.562,+29.812,-0.125,-15, -2, -6, -5, -5, -20, -6, 10
1503945535257,+0.788,+0.554,+0.236,+0.125,+0.959,-0.318,-0.188,+36.125,+5.562,-10.812,0, 2, 8, 2, 1, 11, -4, -38
1503945535281,+0.786,+0.555,+0.240,+0.128,+1.061,-0.393,-0.108,+20.375,-1.000,-14.000,9, 2, 4, -3, -2, 1, -2, -27
1503945535306,+0.786,+0.555,+0.241,+0.128,+1.032,-0.402,-0.146,+1.500,+1.062,-4.000,-23, 6, -1, -2, 2, 4, 5, 6
1503945535318,+0.786,+0.554,+0.243,+0.126,+0.994,-0.311,-0.263,+0.438,-2.938,+10.938,-1, 8, 5, 5, 5, 3, 2, 2
1503945535340,+0.786,+0.553,+0.244,+0.126,+0.980,-0.305,-0.176,+3.188,-9.125,-0.812,1, 10, 19, 5, -1, 0, -2, 1
1503945535356,+0.788,+0.550,+0.243,+0.130,+1.008,-0.336,-0.177,+2.438,-27.000,-19.000,-1, 15, 5, -2, 1, 0, -1, 2
1503945535378,+0.790,+0.547,+0.240,+0.135,+0.966,-0.303,-0.134,-5.312,-39.438,-33.938,-11, -5, -8, -2, -5, -3, -2, 3
1503945535407,+0.793,+0.544,+0.234,+0.140,+0.901,-0.235,-0.207,-11.875,-39.688,-36.812,-6, -12, -3, -3, 21, -10, -7, -14
1503945535415,+0.796,+0.542,+0.229,+0.144,+0.885,-0.187,-0.193,-18.062,-29.812,-27.625,10, 1, 0, 3, 8, 1, 0, -1
1503945535439,+0.798,+0.540,+0.223,+0.145,+0.970,-0.141,-0.221,-28.000,-26.625,-17.562,1, -8, -5, -5, -12, 0, -3, -12
1503945535459,+0.801,+0.538,+0.217,+0.146,+0.956,-0.100,-0.298,-24.562,-25.188,-13.812,7, -2, -3, 3, 3, -1, 0, 8
1503945535476,+0.805,+0.535,+0.210,+0.149,+0.843,-0.073,-0.326,-21.750,-30.812,-21.438,-6, -1, -5, 1, 5, 4, 3, 2
1503945535498,+0.807,+0.534,+0.205,+0.150,+0.823,-0.140,-0.333,-19.500,-12.625,-14.625,-2, 4, 6, 29, 67, 4, 7, 7
1503945535519,+0.806,+0.536,+0.203,+0.148,+0.917,-0.183,-0.288,-18.812,+10.938,-5.125,9, 18, 19, -3, -19, -3, -3, 3
1503945535535,+0.805,+0.538,+0.201,+0.148,+1.046,-0.143,-0.273,-15.875,+8.000,-6.188,-10, 5, 14, 3, -4, 0, 3, 5
1503945535557,+0.807,+0.536,+0.197,+0.149,+1.123,-0.133,-0.316,-13.562,-26.250,-6.562,-5, -11, -12, -8, -10, -1, -7, -17
1503945535580,+0.811,+0.530,+0.194,+0.151,+0.960,-0.171,-0.366,-7.812,-41.438,-8.812,6, 17, 20, 1, -3, -2, 1, 7
1503945535596,+0.816,+0.523,+0.191,+0.154,+0.808,-0.152,-0.360,-7.688,-49.188,-16.312,24, 2, 4, 3, -10, 1, 1, 12
1503945535617,+0.817,+0.522,+0.189,+0.154,+0.830,-0.152,-0.315,-9.812,-12.125,-6.750,-2, -12, -21, -9, -8, -5, -3, 14
1503945535641,+0.816,+0.524,+0.188,+0.154,+0.924,-0.135,-0.312,-10.688,+12.562,-2.750,-12, -8, -9, 1, 12, -1, 0, -5
1503945535655,+0.816,+0.525,+0.187,+0.154,+1.055,-0.141,-0.387,-4.250,+2.500,-2.500,14, -3, -7, -5, -9, -3, -3, -19
1503945535678,+0.817,+0.522,+0.187,+0.155,+1.006,-0.172,-0.373,+5.438,-16.312,-2.625,13, 18, 25, 9, 10, 2, 2, 10
1503945535699,+0.819,+0.519,+0.188,+0.156,+0.951,-0.211,-0.301,+5.500,-25.375,-2.875,-7, -2, -3, 2, 4, -13, 4, -10
1503945535716,+0.820,+0.517,+0.189,+0.157,+0.928,-0.161,-0.299,+5.625,-17.062,+3.750,-15, -5, 0, 4, 19, 9, -4, 9
1503945538159,+0.810,+0.515,+0.248,+0.128,+0.893,-0.256,-0.324,+8.688,+3.938,+5.125,-20, -9, -13, -12, -7, -1, -3, -10
1503945538182,+0.809,+0.516,+0.251,+0.129,+0.922,-0.249,-0.330,+18.188,+9.438,+6.188,52, 9, -3, -3, 0, -4, 1, 7
1503945538197,+0.808,+0.516,+0.255,+0.129,+0.988,-0.277,-0.267,+17.312,+1.875,+9.438,19, 0, -3, 6, 32, -29, -11, 0
1503945538228,+0.807,+0.515,+0.258,+0.129,+0.978,-0.295,-0.217,+13.875,-6.250,+11.000,-35, -6, -3, 2, -9, 13, -4, -22
1503945538242,+0.808,+0.513,+0.260,+0.130,+0.935,-0.295,-0.298,+13.688,-12.125,+5.500,-7, -8, -8, -7, -4, -1, -1, -3
1503945538265,+0.808,+0.511,+0.261,+0.132,+0.892,-0.217,-0.266,+10.688,-12.438,-0.812,3, 13, 20, 3, -35, 4, 2, 9
1503945538279,+0.808,+0.511,+0.262,+0.132,+0.874,-0.258,-0.259,+3.750,+3.000,+4.750,-14, -8, -12, -14, -20, 0, -11, -6
1503945538302,+0.806,+0.514,+0.263,+0.129,+0.920,-0.282,-0.255,-3.688,+20.438,+11.500,-9, -2, -12, -7, -6, 1, 5, -10
1503945538317,+0.805,+0.517,+0.264,+0.126,+0.979,-0.269,-0.270,-6.250,+16.938,+11.438,-7, -9, -5, 2, 2, -2, -9, -18
1503945538339,+0.805,+0.516,+0.263,+0.127,+0.980,-0.260,-0.332,-4.688,-3.812,+0.500,-6, 3, -1, -1, 7, -5, 12, 23
1503945538362,+0.807,+0.513,+0.261,+0.128,+0.929,-0.264,-0.394,+0.125,-15.125,-3.750,20, -7, -4, 2, 11, 3, 0, 21
1503945538377,+0.808,+0.512,+0.262,+0.129,+0.850,-0.281,-0.325,+6.188,-6.000,-1.625,16, -7, -3, -6, -17, -7, -4, -4
1503945538399,+0.807,+0.512,+0.262,+0.129,+0.887,-0.267,-0.220,-2.812,-2.000,+1.438,-11, 11, 5, 1, 0, -2, 0, -19
1503945538422,+0.806,+0.515,+0.261,+0.128,+0.923,-0.267,-0.217,-11.062,+14.062,-0.375,5, 10, -6, -3, 3, 4, -2, -31
1503945538437,+0.806,+0.517,+0.259,+0.127,+0.945,-0.241,-0.361,-11.625,+13.438,-1.625,7, -5, -8, -2, -2, -1, 3, 17
1503945538460,+0.806,+0.517,+0.259,+0.127,+0.926,-0.274,-0.350,-2.500,+1.000,-0.375,-9, -7, -5, -6, 2, 0, -1, 15
1503945538482,+0.807,+0.516,+0.258,+0.126,+0.898,-0.271,-0.250,-7.062,-4.438,+2.188,19, -1, 2, 2, 2, 1, 0, 5
1503945538497,+0.806,+0.519,+0.256,+0.124,+0.874,-0.270,-0.227,-16.625,+10.688,+3.250,-6, 5, -2, -5, -3, 2, 3, -39
1503945538519,+0.806,+0.521,+0.254,+0.123,+0.916,-0.239,-0.314,-16.438,+14.750,-3.438,-10, -4, 2, 3, 5, 4, -2, 5
1503945538542,+0.806,+0.521,+0.250,+0.125,+0.958,-0.162,-0.336,-10.875,-2.375,-13.125,1, -5, -3, -2, -3, -6, -8, -27
1503945538557,+0.808,+0.520,+0.247,+0.128,+0.916,-0.178,-0.362,-3.250,-14.000,-18.750,-29, 1, 13, 5, 0, -2, 1, 8
1503945538579,+0.809,+0.518,+0.246,+0.131,+0.888,-0.256,-0.349,+2.875,-12.312,-13.000,-24, -6, -2, -4, 4, -3, -22, 14
1503945538602,+0.810,+0.517,+0.244,+0.133,+0.878,-0.221,-0.322,-1.625,-13.250,-8.750,-55, -9, -6, 1, 1, -1, 5, 4
1503945538617,+0.810,+0.516,+0.242,+0.135,+0.866,-0.189,-0.245,-3.500,-10.125,-14.812,1, 2, 0, -2, -1, -33, -4, 1
1503945538639,+0.811,+0.516,+0.240,+0.138,+0.905,-0.211,-0.291,-4.625,-9.188,-16.875,25, 2, 6, -1, -6, 7, 9, 32
1503945538662,+0.812,+0.515,+0.236,+0.139,+0.948,-0.217,-0.314,-12.188,-13.375,-12.938,20, -3, -9, -3, 5, 9, 0, -10
1503945538677,+0.814,+0.513,+0.234,+0.140,+0.938,-0.244,-0.344,-12.562,-21.188,-3.250,14, -5, 5, 3, 2, 7, 29, 15
1503945538699,+0.817,+0.509,+0.232,+0.140,+0.912,-0.241,-0.323,-12.062,-26.312,-3.188,42, 3, 15, 8, 3, 5, -1, 28
1503945538722,+0.819,+0.507,+0.230,+0.140,+0.924,-0.247,-0.308,-12.812,-18.188,-1.312,1, -5, -13, -5, -6, 3, 2, 13
1503945538737,+0.820,+0.506,+0.228,+0.138,+0.913,-0.249,-0.346,-15.750,-9.750,+6.125,-15, -2, -5, 7, 7, -26, -11, -16
1503945538759,+0.821,+0.505,+0.228,+0.135,+0.938,-0.290,-0.333,-13.438,-5.500,+15.688,-11, -4, -6, -8, -6, 4, 0, -18
1503945538782,+0.822,+0.505,+0.229,+0.131,+0.958,-0.334,-0.304,-14.562,-2.438,+17.625,-1, 7, 12, 3, -1, 6, -9, -3
1503945538806,+0.823,+0.504,+0.229,+0.127,+0.989,-0.327,-0.339,-13.875,-2.750,+13.688,27, 0, -10, -4, -11, 3, 2, 0
1503945538819,+0.824,+0.503,+0.229,+0.125,+0.989,-0.335,-0.340,-8.750,-10.000,+11.875,-15, -3, -2, 0, 4, 4, -14, 72
1503945538842,+0.825,+0.501,+0.231,+0.123,+0.940,-0.376,-0.337,-4.062,-11.562,+12.250,0, 6, -1, -7, -4, 3, 7, -4
1503945538857,+0.826,+0.499,+0.233,+0.121,+0.907,-0.359,-0.368,+0.312,-6.938,+10.125,-9, -9, -6, -2, -4, 15, 2, -31
1503945538879,+0.826,+0.498,+0.234,+0.120,+0.915,-0.332,-0.347,+1.875,-3.188,+10.062,3, -2, 5, -1, 1, 8, -4, 5
1503945538904,+0.827,+0.497,+0.237,+0.118,+0.923,-0.319,-0.351,+3.875,-3.688,+12.438,5, -5, -11, -5, -4, 7, 7, 2
1503945538917,+0.827,+0.495,+0.239,+0.116,+0.882,-0.327,-0.365,+4.500,-2.000,+13.500,-13, -5, -5, -5, -1, 0, -8, -25
1503945538939,+0.827,+0.495,+0.241,+0.115,+0.881,-0.287,-0.400,+6.688,+1.750,+12.438,-2, -5, -2, -6, -26, -9, 8, 19
1503945538965,+0.827,+0.494,+0.243,+0.115,+0.896,-0.256,-0.364,+11.125,+0.188,+13.188,-3, -8, 3, -2, -2, -3, -1, -7
1503945538977,+0.827,+0.492,+0.246,+0.114,+0.917,-0.272,-0.330,+13.750,-6.438,+12.625,-1, -7, -11, 0, -3, -38, 11, -1
1503945538999,+0.827,+0.491,+0.249,+0.115,+0.897,-0.264,-0.343,+15.312,-10.125,+8.125,23, 6, 2, 1, 6, 13, 3, 2
1503945539022,+0.828,+0.488,+0.251,+0.117,+0.855,-0.251,-0.370,+18.000,-14.250,+6.625,4, 0, 11, 3, 5, 4, -7, 9
1503945539044,+0.828,+0.486,+0.254,+0.118,+0.842,-0.267,-0.396,+19.062,-8.375,+5.125,-4, 13, 25, 4, 2, 1, 9, 2
1503945539067,+0.828,+0.484,+0.256,+0.120,+0.831,-0.234,-0.416,+17.000,-6.188,+1.938,-54, -7, -10, -4, -2, 4, -2, -3
1503945539082,+0.828,+0.483,+0.258,+0.121,+0.860,-0.243,-0.348,+17.312,-1.188,+5.375,2, -5, -8, 3, 2, 5, -3, -26
1503945539099,+0.827,+0.483,+0.260,+0.123,+0.911,-0.257,-0.349,+18.250,+1.250,+0.812,-6, 7, 18, 6, 7, 2, 5, 8
1503945539119,+0.827,+0.482,+0.262,+0.126,+0.942,-0.242,-0.416,+17.500,-8.062,-2.312,1, -13, -20, -6, -2, -4, -4, -2
1503945539142,+0.828,+0.479,+0.264,+0.128,+0.894,-0.267,-0.377,+17.312,-19.875,+3.938,14, 11, -1, 0, 6, 37, 2, 9
1503945539157,+0.828,+0.476,+0.267,+0.129,+0.845,-0.306,-0.367,+16.375,-12.438,+10.250,18, 11, 14, 6, 2, 3, -3, 0
1503945539179,+0.828,+0.475,+0.270,+0.128,+0.840,-0.281,-0.409,+16.312,+6.000,+15.812,0, 1, -7, -3, -3, -6, 3, 8
1503945539203,+0.826,+0.476,+0.273,+0.128,+0.905,-0.255,-0.375,+16.688,+9.625,+12.250,7, 14, 2, 1, 2, -11, 7, 26
1503945539217,+0.825,+0.476,+0.276,+0.128,+0.990,-0.292,-0.324,+19.062,-0.562,+11.812,-44, -12, -3, -3, 11, 0, -3, -3
1503945539239,+0.825,+0.474,+0.280,+0.129,+0.950,-0.347,-0.334,+19.062,-8.688,+11.438,9, 1, 1, -5, -12, -2, -4, -6
1503945539262,+0.826,+0.471,+0.283,+0.130,+0.875,-0.307,-0.399,+17.812,-15.188,+10.562,-13, -6, -6, -2, -3, 1, -7, -12
1503945539277,+0.826,+0.468,+0.286,+0.130,+0.851,-0.298,-0.383,+18.375,-9.875,+13.250,0, -4, 1, -2, 3, -1, 0, -6
1503945539300,+0.825,+0.467,+0.289,+0.130,+0.885,-0.354,-0.336,+19.562,-2.250,+10.875,22, 10, 6, 4, 2, -16, 1, -2
1503945539321,+0.824,+0.467,+0.292,+0.131,+0.876,-0.360,-0.340,+16.750,-1.562,+4.312,31, 3, 4, 0, 7, -1, 0, 9
1503945539338,+0.824,+0.466,+0.294,+0.132,+0.865,-0.343,-0.330,+12.750,-0.688,+2.250,14, -4, -6, 2, -4, 4, -5, -11
1503945539359,+0.823,+0.466,+0.296,+0.133,+0.888,-0.350,-0.343,+13.625,-0.125,+1.250,0, -3, -7, -5, -2, 1, 0, 0
1503945539382,+0.822,+0.465,+0.299,+0.135,+0.903,-0.335,-0.424,+20.188,-0.562,-0.250,6, 0, -1, 1, 17, 0, 2, 8
1503945539398,+0.822,+0.463,+0.301,+0.138,+0.872,-0.335,-0.374,+22.250,-9.375,-0.312,-15, -14, -4, 0, -1, -5, 0, -3
1503945539419,+0.822,+0.462,+0.303,+0.140,+0.844,-0.357,-0.285,+15.062,-13.562,-3.250,-1, 12, 17, 4, -2, 2, -1, -4
1503945539442,+0.821,+0.462,+0.305,+0.141,+0.821,-0.384,-0.301,+9.438,+1.125,+0.000,-5, -3, -4, -3, -8, 2, -3, -6
1503945539457,+0.820,+0.463,+0.307,+0.141,+0.843,-0.386,-0.342,+7.500,+10.938,+3.125,11, -4, 4, -1, -3, -8, -1, 6
1503945539479,+0.819,+0.463,+0.308,+0.140,+0.935,-0.357,-0.366,+5.562,+5.500,+4.875,-31, -7, -9, -4, -5, 1, -1, -2
1503945539502,+0.819,+0.461,+0.309,+0.141,+0.908,-0.352,-0.364,+9.750,-9.938,+3.750,13, -7, -12, -9, -2, -2, -4, -1
1503945539517,+0.820,+0.459,+0.311,+0.143,+0.836,-0.387,-0.349,+9.375,-12.938,+1.875,-7, -6, -10, -3, -1, 3, 9, 5
1503945539539,+0.820,+0.458,+0.312,+0.143,+0.836,-0.389,-0.314,+9.188,-2.312,+2.750,-5, -6, -5, 0, -3, -3, -2, 10
1503945539561,+0.819,+0.459,+0.314,+0.143,+0.857,-0.397,-0.333,+8.500,+6.125,+4.562,13, 8, 5, 2, -3, -45, -3, -2
1503945539577,+0.818,+0.459,+0.316,+0.143,+0.897,-0.380,-0.359,+8.000,+3.375,+5.375,5, 3, 2, 1, 0, 14, 0, -4
1503945539610,+0.818,+0.458,+0.318,+0.143,+0.908,-0.397,-0.364,+12.250,-4.500,+4.562,9, 6, 9, 4, -1, 6, 2, 7
1503945539622,+0.818,+0.456,+0.320,+0.144,+0.887,-0.418,-0.361,+13.000,-10.312,+4.875,-19, -1, -3, 7, 6, 9, -4, -13
1503945539638,+0.818,+0.454,+0.323,+0.145,+0.841,-0.406,-0.338,+13.875,-7.000,+5.875,-3, -10, -8, -7, -4, -6, -8, -45
1503945539659,+0.817,+0.453,+0.325,+0.145,+0.852,-0.401,-0.314,+13.125,+1.000,+6.688,8, 2, -5, -1, 1, 6, 3, 15
1503945539689,+0.816,+0.453,+0.328,+0.145,+0.891,-0.404,-0.337,+15.688,+4.438,+8.188,42, 5, -2, -2, 0, 11, 3, 11
1503945539697,+0.816,+0.451,+0.331,+0.146,+0.907,-0.408,-0.363,+18.688,-5.938,+8.562,-5, 1, 0, -1, -3, -5, -1, 10
1503945539719,+0.816,+0.448,+0.334,+0.147,+0.878,-0.405,-0.354,+19.625,-15.312,+8.875,8, 7, 11, 2, 1, 3, -3, -1
1503945543364,+0.808,+0.482,+0.298,+0.163,+0.866,-0.340,-0.285,+2.500,-20.375,+0.500,-7, 14, 2, -7, -1, 8, -2, -4
1503945543386,+0.809,+0.479,+0.298,+0.165,+0.890,-0.271,-0.318,+3.750,-21.625,-4.250,25, 0, -9, -11, -10, -12, -9, -11
1503945543401,+0.810,+0.477,+0.297,+0.168,+0.872,-0.308,-0.307,+4.875,-14.062,-9.375,5, -6, 0, -2, 10, 1, 1, 0
1503945543424,+0.809,+0.478,+0.298,+0.168,+0.863,-0.328,-0.306,-0.688,+1.188,-1.688,-2, 2, 7, 4, -13, -3, 1, 1
1503945543446,+0.808,+0.480,+0.298,+0.166,+0.905,-0.295,-0.302,-4.875,+13.062,+5.312,-3, -1, 7, -1, -15, -2, 5, 2
1503945543462,+0.808,+0.481,+0.298,+0.165,+0.963,-0.272,-0.347,-3.188,+10.812,+6.188,13, 1, -1, 9, 5, -6, -2, 1
1503945543484,+0.809,+0.479,+0.296,+0.165,+0.966,-0.268,-0.327,-5.625,-16.938,+6.188,1, -1, -4, -8, -15, 5, -3, -31
1503945543510,+0.811,+0.477,+0.295,+0.164,+0.865,-0.299,-0.285,-9.750,-19.188,+7.062,6, -1, -3, 7, 20, 4, -1, -7
1503945543521,+0.813,+0.476,+0.294,+0.163,+0.800,-0.271,-0.332,-10.562,-5.375,+4.562,-13, 14, 15, -1, -5, -6, -9, 7
1503945543545,+0.813,+0.477,+0.292,+0.162,+0.833,-0.258,-0.375,-14.312,+11.812,+3.938,8, 3, 13, 6, -1, -2, 0, -2
1503945543567,+0.813,+0.479,+0.291,+0.159,+0.918,-0.284,-0.333,-14.938,+10.562,+6.938,21, 2, 29, 4, -2, 6, 5, 6
1503945543581,+0.812,+0.481,+0.290,+0.157,+0.950,-0.328,-0.298,-11.688,+8.438,+5.375,26, 2, -12, -3, -3, -7, -2, 9
1503945543605,+0.813,+0.481,+0.289,+0.154,+0.928,-0.348,-0.339,-16.750,+7.000,+11.062,11, -5, -12, -7, 18, -4, 2, -10
1503945543626,+0.814,+0.481,+0.287,+0.151,+0.880,-0.289,-0.375,-16.000,+0.750,+11.688,14, 6, 2, 1, -2, 1, -1, 8
1503945543642,+0.815,+0.480,+0.286,+0.150,+0.873,-0.335,-0.348,-11.375,-6.188,+5.688,-5, -14, 13, 1, 4, -15, -4, -21
1503945543666,+0.816,+0.480,+0.286,+0.148,+0.849,-0.393,-0.338,-9.688,+1.750,+2.062,-9, -2, -4, -2, 1, -4, -6, -2
1503945543687,+0.816,+0.481,+0.286,+0.146,+0.854,-0.383,-0.339,-11.875,+13.938,+3.688,-7, -2, -6, -7, 1, -5, 0, 13
1503945543702,+0.815,+0.483,+0.285,+0.144,+0.911,-0.330,-0.359,-10.312,+13.312,+0.688,-57, -6, -1, 1, 5, -2, 0, -29
1503945543727,+0.816,+0.483,+0.283,+0.145,+0.936,-0.359,-0.317,-7.688,-7.875,-9.125,20, 10, 12, 3, 3, -2, -2, 8
1503945543747,+0.817,+0.482,+0.281,+0.147,+0.878,-0.366,-0.285,-8.500,-15.188,-14.188,-23, 4, 14, 7, 4, 9, -4, -32
1503945543767,+0.817,+0.482,+0.279,+0.148,+0.812,-0.309,-0.343,-9.062,-1.812,-14.688,46, 2, -8, -2, 9, -2, 0, 9
1503945543784,+0.817,+0.483,+0.277,+0.149,+0.885,-0.288,-0.338,-7.500,+3.562,-8.812,10, 1, -8, -3, -6, -2, 3, 15
1503945543806,+0.817,+0.483,+0.276,+0.149,+0.951,-0.279,-0.309,-9.625,-7.688,-2.375,30, -2, -8, -4, -1, -4, 0, -7
1503945543824,+0.819,+0.482,+0.274,+0.150,+0.886,-0.297,-0.322,-8.625,-15.375,-2.688,-24, -5, -2, 3, -3, 1, -1, 6
1503945543844,+0.820,+0.480,+0.273,+0.149,+0.830,-0.323,-0.364,-8.938,-5.812,+2.312,27, 1, -7, -5, -1, -2, 1, -12
1503945543860,+0.821,+0.480,+0.272,+0.146,+0.864,-0.309,-0.345,-12.625,+0.688,+9.188,-33, -5, -5, -3, -5, -5, -2, -9
1503945543882,+0.821,+0.481,+0.272,+0.143,+0.950,-0.310,-0.297,-15.875,-0.250,+13.438,-5, 2, -3, 1, 0, 1, 6, 22
1503945543904,+0.823,+0.480,+0.271,+0.141,+0.957,-0.326,-0.340,-16.062,-7.688,+14.188,-38, -14, -6, -5, 2, -1, -3, -17
1503945543927,+0.825,+0.477,+0.269,+0.138,+0.909,-0.328,-0.394,-14.500,-16.375,+15.750,21, 2, -5, -8, -3, -36, -7, 13
1503945543942,+0.828,+0.473,+0.269,+0.135,+0.871,-0.372,-0.414,-12.312,-19.375,+14.812,0, -3, 4, 1, -5, 10, 2, 17
1503945543965,+0.830,+0.470,+0.269,+0.133,+0.870,-0.381,-0.358,-11.688,-16.875,+13.500,-4, 8, 15, 6, 0, 5, -6, -11
1503945543987,+0.831,+0.470,+0.269,+0.130,+0.874,-0.359,-0.325,-11.312,-2.000,+11.812,-7, -6, -1, 1, -3, -2, -3, -10
1503945544002,+0.831,+0.471,+0.269,+0.128,+0.921,-0.366,-0.386,-7.938,+7.375,+10.500,6, 9, -1, 1, 0, 2, 4, 1
1503945544024,+0.831,+0.471,+0.269,+0.126,+0.938,-0.380,-0.413,-5.812,+3.812,+9.125,-12, -6, -7, -2, -6, -4, 1, -2
1503945544046,+0.831,+0.469,+0.270,+0.125,+0.935,-0.369,-0.369,-1.438,-7.812,+5.688,-3, -3, 12, 1, 1, 9, -2, -9
1503945544061,+0.832,+0.468,+0.270,+0.126,+0.908,-0.339,-0.360,+0.688,-13.500,+3.438,-4, 0, -6, -1, 11, 2, -7, 10
1503945544084,+0.832,+0.467,+0.271,+0.126,+0.853,-0.354,-0.390,+0.438,-3.938,+0.938,-17, -4, -9, -5, 4, 21, 1, 4
1503945544100,+0.832,+0.467,+0.272,+0.125,+0.876,-0.394,-0.401,+3.250,+5.062,+3.562,11, -1, -6, -6, -16, 6, -5, 0
1503945544122,+0.831,+0.468,+0.274,+0.125,+0.922,-0.340,-0.392,+7.312,+9.750,+3.625,50, 2, -5, -4, -1, -3, 10, 11
1503945544144,+0.830,+0.469,+0.274,+0.126,+0.929,-0.303,-0.379,+7.438,+1.750,-1.000,5, 3, 5, 6, 0, -7, 1, -3
1503945544169,+0.830,+0.469,+0.276,+0.127,+0.921,-0.332,-0.338,+10.000,-2.250,-2.000,-1, 1, -2, -2, 1, 0, -2, 17
1503945544189,+0.828,+0.469,+0.278,+0.128,+0.890,-0.354,-0.360,+12.125,+3.312,-1.125,-25, -13, -11, -7, -12, -10, 5, -12
1503945544206,+0.828,+0.469,+0.279,+0.130,+0.869,-0.310,-0.390,+10.875,+4.250,-3.500,-5, -1, -2, 2, 0, -6, 5, 73
1503945544227,+0.826,+0.470,+0.281,+0.131,+0.873,-0.324,-0.345,+13.562,+5.812,-1.062,21, 11, 8, 2, 3, 4, 0, 6
1503945544243,+0.825,+0.471,+0.283,+0.132,+0.922,-0.360,-0.317,+11.312,+5.250,-3.250,-5, -10, 0, 0, 0, -1, -7, -19
1503945550369,+0.713,+0.575,+0.304,+0.262,+1.053,-0.193,-0.046,-5.188,-0.188,-5.125,4, 0, -1, -2, -3, 12, -4, 22
1503945550391,+0.714,+0.575,+0.302,+0.262,+0.964,-0.201,-0.146,-9.312,-5.250,-8.375,17, 7, -9, 0, -2, -23, 6, 7
1503945550407,+0.714,+0.575,+0.302,+0.261,+0.937,-0.199,-0.211,-5.938,+7.875,-2.500,-32, -18, -8, 0, 5, 14, -3, -15
1503945550428,+0.713,+0.577,+0.303,+0.259,+1.024,-0.182,-0.088,-5.375,+13.750,+1.500,-69, -7, -9, -3, -5, -16, -4, -17
1503945550452,+0.713,+0.578,+0.303,+0.257,+1.084,-0.179,-0.055,-7.875,+6.312,+4.438,5, 12, 14, -4, -13, -21, -1, -15
1503945550467,+0.714,+0.577,+0.302,+0.256,+1.023,-0.187,-0.101,-8.875,-5.375,+0.312,-20, -20, -11, -4, -4, -15, -9, 11
1503945550489,+0.716,+0.576,+0.301,+0.256,+0.973,-0.162,-0.121,-8.125,-12.625,+0.500,52, 9, -7, -2, -1, -3, 3, -1
1503945550505,+0.717,+0.575,+0.300,+0.255,+0.955,-0.136,-0.072,-7.500,-8.625,+0.375,15, -18, -13, 6, -11, -44, -1, -11
1503945550527,+0.716,+0.576,+0.300,+0.254,+0.986,-0.140,-0.087,-8.375,+4.188,+1.375,-1, 13, 8, -3, 3, 19, 5, -2
1503945550556,+0.717,+0.576,+0.300,+0.253,+1.010,-0.147,-0.092,-8.188,-1.500,+6.562,-4, -5, -14, 1, 5, 4, -6, -1
1503945550565,+0.718,+0.576,+0.299,+0.251,+1.001,-0.139,-0.123,-10.562,-3.250,+4.875,22, 27, 22, 2, -21, 5, 1, 7
1503945550587,+0.719,+0.575,+0.298,+0.251,+0.990,-0.128,-0.101,-5.750,-10.188,+2.000,-1, -8, 8, -3, -1, 3, 2, 3
1503945550614,+0.721,+0.574,+0.297,+0.251,+1.009,-0.154,-0.094,-8.062,-13.375,+2.438,10, -6, -12, -7, 4, 5, -1, 3
1503945550625,+0.723,+0.572,+0.295,+0.251,+0.980,-0.134,-0.099,-7.125,-17.938,-3.062,-23, -21, -14, -6, -2, -5, -5, -1
1503945550647,+0.724,+0.571,+0.294,+0.253,+0.934,-0.130,-0.147,-4.625,-13.750,-9.250,20, 4, -3, -4, -3, -5, -4, -2
1503945550669,+0.725,+0.570,+0.292,+0.254,+0.966,-0.130,-0.106,-5.500,-9.812,-8.875,-25, -21, -14, 6, 16, 7, 0, -10
1503945550685,+0.725,+0.571,+0.291,+0.253,+0.995,-0.151,-0.122,-7.062,-0.938,-2.375,26, -1, -4, -2, -3, 8, -6, 4
1503945550707,+0.725,+0.572,+0.290,+0.252,+0.985,-0.103,-0.133,-11.188,+4.188,-0.938,-8, -9, 4, 0, -26, 4, 2, 12
1503945550728,+0.725,+0.572,+0.288,+0.252,+1.055,-0.096,-0.115,-9.125,-5.625,+0.562,-23, -10, -19, -7, 1, -3, 1, -3
1503945550751,+0.727,+0.570,+0.286,+0.253,+1.032,-0.088,-0.146,-5.750,-20.625,-1.812,48, 9, -3, 2, 9, -5, -4, -6
1503945550767,+0.730,+0.567,+0.284,+0.255,+0.956,-0.068,-0.168,-5.250,-24.562,-5.875,-8, -7, 1, -1, 3, -2, 4, 4
1503945550789,+0.731,+0.565,+0.282,+0.256,+0.910,-0.094,-0.168,-3.188,-15.000,-2.750,4, -5, 1, 5, 15, 2, 3, -4
1503945550816,+0.732,+0.565,+0.281,+0.257,+0.979,-0.105,-0.136,-2.438,-9.750,-3.062,23, 0, 13, -1, -7, -1, -1, -27
1503945550827,+0.733,+0.564,+0.280,+0.257,+1.006,-0.116,-0.152,-4.438,-8.062,-1.375,-11, 7, -3, -4, -5, -7, -3, 16
1503945550849,+0.734,+0.563,+0.279,+0.257,+0.967,-0.120,-0.141,-5.812,-14.125,+1.438,8, -1, 3, 1, 4, 0, 1, 2
1503945550865,+0.735,+0.562,+0.278,+0.257,+0.941,-0.105,-0.113,-6.375,-12.875,+0.562,-17, -3, -1, 1, -2, -1, -3, 1
1503945550887,+0.737,+0.561,+0.277,+0.257,+1.006,-0.107,-0.163,-7.500,-11.438,+0.438,-15, 1, -4, -1, 6, 20, -3, -1
1503945550909,+0.740,+0.558,+0.275,+0.256,+1.039,-0.107,-0.190,-12.750,-21.562,+6.062,7, -4, -7, -7, -5, -1, -2, -3
1503945550931,+0.743,+0.555,+0.273,+0.256,+0.942,-0.088,-0.170,-11.000,-27.562,+6.000,-9, -8, 3, 2, 0, -14, -1, 0
1503945550947,+0.745,+0.553,+0.272,+0.255,+0.924,-0.121,-0.147,-12.625,-17.625,+7.312,3, -2, -2, 1, 9, -2, 0, -2
1503945550968,+0.746,+0.554,+0.271,+0.252,+0.938,-0.104,-0.153,-16.875,+0.625,+12.188,4, 4, 3, -1, -6, -1, -1, 1
1503945550991,+0.747,+0.554,+0.270,+0.249,+0.984,-0.094,-0.209,-16.375,+1.625,+8.375,-13, 5, 12, 4, -1, -7, 1, -1
1503945551007,+0.748,+0.554,+0.268,+0.247,+1.037,-0.127,-0.162,-17.125,-7.812,+4.500,-10, -3, -4, -4, 24, 22, 3, 0
1503945551029,+0.750,+0.554,+0.266,+0.246,+1.025,-0.115,-0.134,-18.000,-11.062,+2.688,7, -2, -1, 0, -3, 2, -2, 8
1503945551052,+0.752,+0.553,+0.264,+0.244,+1.044,-0.076,-0.198,-15.688,-15.188,+8.875,-30, 1, -6, -5, -11, -14, -8, -12
1503945551074,+0.755,+0.550,+0.261,+0.243,+1.004,-0.073,-0.255,-16.875,-26.000,+12.688,-13, 6, -6, -5, -12, -3, -5, -11
1503945551090,+0.759,+0.546,+0.259,+0.241,+0.949,-0.106,-0.219,-16.750,-28.625,+15.250,8, -3, 2, 2, -1, -9, -2, -6
1503945551111,+0.762,+0.544,+0.259,+0.237,+0.967,-0.126,-0.180,-12.625,-13.625,+22.625,-53, -6, 0, 1, -2, 0, 3, -5
1503945551127,+0.764,+0.544,+0.260,+0.232,+0.957,-0.168,-0.221,-19.500,+2.438,+30.125,19, -8, -4, -2, -30, 0, 3, -6
1503945551154,+0.766,+0.543,+0.261,+0.226,+1.024,-0.161,-0.252,-17.750,-0.062,+30.250,9, 3, 2, 3, -2, -3, -1, -1
1503945551172,+0.768,+0.541,+0.261,+0.222,+1.031,-0.185,-0.210,-14.875,-13.438,+23.375,63, 3, 4, -3, 4, -5, 2, 10
1503945551187,+0.770,+0.539,+0.261,+0.220,+0.956,-0.213,-0.222,-9.938,-16.438,+13.125,-12, -5, -9, -5, 3, -32, -5, 11
1503945551209,+0.772,+0.538,+0.261,+0.218,+0.938,-0.224,-0.256,-8.750,-4.000,+6.812,-5, -4, 3, -1, 0, 8, -2, -1
1503945551231,+0.772,+0.538,+0.260,+0.217,+0.955,-0.152,-0.271,-9.562,+1.875,+3.812,20, 11, 3, 2, -19, 1, 2, 1
1503945551250,+0.772,+0.538,+0.260,+0.216,+1.002,-0.140,-0.261,-3.875,+0.250,+3.125,4, -19, -13, -1, 8, 11, -10, -8
1503945551269,+0.773,+0.537,+0.259,+0.216,+0.992,-0.191,-0.282,-1.812,-4.875,-0.438,0, -7, -4, -6, -6, -8, -5, 11
1503945551287,+0.775,+0.535,+0.259,+0.217,+0.947,-0.158,-0.298,-2.812,-12.812,+2.562,-12, 2, -2, -2, 7, -7, -2, -8
1503945556358,+0.784,+0.577,+0.197,+0.115,+1.010,-0.208,-0.167,+5.688,+1.875,-11.375,-10, -14, -10, -6, 3, -3, 2, -4
1503945556370,+0.784,+0.577,+0.197,+0.117,+1.010,-0.202,-0.172,+1.062,-3.688,-11.562,-8, -13, -14, -5, -4, -4, -6, -18
1503945556392,+0.785,+0.576,+0.196,+0.119,+0.935,-0.163,-0.225,+0.312,-13.188,-11.000,8, 10, 9, 1, 10, 1, 0, 3
1503945556414,+0.786,+0.574,+0.194,+0.120,+0.924,-0.180,-0.210,-3.688,-13.375,-10.250,3, -21, 27, 21, 8, 1, -2, -2
1503945556430,+0.786,+0.575,+0.193,+0.121,+0.958,-0.194,-0.163,-6.688,-2.812,-9.938,33, 30, 20, 2, 2, -3, -2, 5
1503945556453,+0.787,+0.573,+0.192,+0.121,+1.009,-0.167,-0.248,-6.438,-11.375,-2.250,-5, 4, -5, 3, -12, 5, 1, 9
1503945556473,+0.789,+0.572,+0.190,+0.122,+0.967,-0.136,-0.214,-8.125,-15.062,-5.812,-5, 5, -12, -4, 0, -1, -12, -32
1503945556490,+0.791,+0.570,+0.188,+0.122,+0.968,-0.152,-0.227,-9.562,-17.375,-3.875,23, -9, -8, -6, -9, -11, -2, 31
1503945556511,+0.792,+0.569,+0.187,+0.121,+0.962,-0.162,-0.256,-9.562,-10.000,+0.375,9, 8, 4, -2, -5, -1, 2, 0
1503945556533,+0.793,+0.568,+0.186,+0.121,+0.933,-0.112,-0.291,-5.375,-2.062,+2.562,-19, 17, 8, -3, 3, 0, -3, -8
1503945556549,+0.792,+0.568,+0.185,+0.120,+0.949,-0.110,-0.253,-3.062,+4.938,+3.750,-11, 7, -18, -7, 3, 3, 1, -4
1503945556572,+0.792,+0.570,+0.186,+0.120,+0.959,-0.157,-0.241,+0.500,+9.500,+3.125,-4, -7, -1, 0, 0, -2, 2, 2
1503945556594,+0.790,+0.571,+0.187,+0.119,+0.985,-0.173,-0.254,-0.375,+14.062,+4.438,-31, -18, -7, -4, -7, -15, -6, -19
1503945556610,+0.789,+0.572,+0.187,+0.119,+0.972,-0.124,-0.263,+0.812,+10.875,+0.750,-1, -7, -2, -2, 2, 3, 1, 3
1503945556632,+0.788,+0.574,+0.188,+0.119,+0.936,-0.132,-0.235,+5.938,+10.750,+0.875,13, -3, -7, -3, -3, 1, 0, 3
1503945556655,+0.787,+0.575,+0.190,+0.119,+0.914,-0.164,-0.217,+6.000,+16.312,+4.188,20, -6, -7, -4, -3, -3, -5, 0
1503945556670,+0.783,+0.580,+0.193,+0.116,+0.952,-0.185,-0.227,+4.125,+37.062,+9.875,28, 3, -2, -2, 0, 6, -2, -9
1503945556692,+0.780,+0.583,+0.195,+0.116,+1.018,-0.118,-0.299,+8.250,+35.188,+7.375,61, 4, 4, 2, 2, 28, 6, 65
1503945556713,+0.777,+0.586,+0.197,+0.117,+1.051,-0.167,-0.173,+14.375,+17.750,+0.812,-82, -2, 12, 2, 1, 0, -1, -27
1503945556730,+0.777,+0.585,+0.200,+0.117,+1.032,-0.256,-0.117,+10.062,-6.438,+3.000,-43, -14, -6, 2, 2, -4, 0, 6
1503945556756,+0.778,+0.583,+0.200,+0.117,+0.968,-0.241,-0.102,-2.562,-18.188,-1.562,13, -6, -13, -4, 1, -5, 10, 18
1503945556774,+0.780,+0.582,+0.198,+0.118,+0.973,-0.167,-0.160,-5.812,-19.125,-7.312,-15, 8, 10, -4, -7, -8, 1, -12
1503945556790,+0.783,+0.579,+0.195,+0.120,+1.013,-0.126,-0.192,-7.125,-28.812,-10.500,0, 3, 6, 6, 5, -2, -3, -14
1503945556823,+0.786,+0.575,+0.192,+0.123,+0.932,-0.148,-0.217,-7.625,-33.000,-16.750,1, 3, -7, -6, 1, 21, 0, -32
1503945556834,+0.788,+0.572,+0.189,+0.125,+0.855,-0.164,-0.178,-11.438,-28.188,-15.438,4, 5, 8, 0, -1, 9, 9, 15
1503945556850,+0.790,+0.570,+0.186,+0.125,+0.947,-0.149,-0.182,-14.750,-19.062,-7.312,0, -20, -14, -2, -8, -12, -3, 2
1503945556873,+0.792,+0.569,+0.183,+0.125,+1.031,-0.120,-0.257,-16.438,-14.750,-3.875,12, -4, -10, -3, -2, -9, -6, -19
1503945556894,+0.794,+0.567,+0.180,+0.125,+1.057,-0.059,-0.283,-12.562,-16.812,-3.562,6, 1, -6, 0, -1, -7, -2, 2
1503945556910,+0.796,+0.565,+0.178,+0.126,+0.971,-0.086,-0.304,-4.188,-15.562,-5.062,-14, -7, -7, -1, 2, -2, -3, -1
1503945556932,+0.796,+0.564,+0.178,+0.127,+0.956,-0.143,-0.263,-0.688,-6.250,-3.375,7, -3, -6, -2, -1, 0, -4, -1
1503945562278,+0.811,+0.536,+0.232,+0.042,+0.844,-0.303,-0.299,-14.500,+4.562,+4.312,-11, -1, -2, 1, 4, -1, -1, -1
1503945562297,+0.811,+0.536,+0.232,+0.040,+0.887,-0.316,-0.369,-5.438,+10.250,+8.812,-9, -3, -7, -6, -10, -5, -3, -5
1503945562316,+0.811,+0.536,+0.233,+0.038,+0.948,-0.380,-0.255,-3.188,+1.562,+10.688,8, -3, 0, 13, 32, 8, 2, 2
1503945562339,+0.811,+0.534,+0.234,+0.038,+0.928,-0.387,-0.233,+2.312,-14.062,+3.562,9, 1, 1, -2, -7, -5, -3, -3
1503945562356,+0.812,+0.533,+0.234,+0.039,+0.861,-0.311,-0.281,+2.188,-10.875,-3.000,-1, 4, -9, -8, -10, -1, 2, -5
1503945562377,+0.813,+0.532,+0.234,+0.041,+0.846,-0.282,-0.350,+6.688,-1.375,-5.625,-8, -5, -5, -5, 4, 4, 1, -5
1503945562399,+0.813,+0.531,+0.235,+0.044,+0.930,-0.320,-0.304,+11.562,-6.438,-8.250,-35, -6, 9, -3, -8, -6, -3, -5
1503945562414,+0.813,+0.531,+0.235,+0.046,+0.945,-0.356,-0.264,+10.875,-9.188,-9.688,12, 1, 3, 4, 4, 0, -1, 3
1503945562437,+0.813,+0.529,+0.235,+0.049,+0.920,-0.326,-0.256,+5.688,-12.750,-9.875,6, 2, 12, -3, -8, -1, 1, -3
1503945562461,+0.814,+0.528,+0.234,+0.053,+0.892,-0.235,-0.311,+7.625,-11.875,-13.438,-10, -11, -11, -4, -7, 1, 3, 0
1503945562474,+0.815,+0.527,+0.234,+0.057,+0.844,-0.240,-0.353,+11.812,-12.062,-19.250,7, -9, -9, 0, 2, 1, -5, 1
1503945562497,+0.815,+0.526,+0.233,+0.062,+0.908,-0.296,-0.315,+11.812,-8.688,-23.438,-4, -10, -6, 2, 0, -2, 0, 1
1503945562519,+0.815,+0.527,+0.233,+0.066,+0.937,-0.311,-0.254,+12.750,-4.562,-18.750,-16, -9, 1, 0, -1, -1, -2, -15
1503945562534,+0.815,+0.526,+0.233,+0.070,+0.937,-0.271,-0.268,+11.938,-15.375,-15.938,39, 4, -2, -4, -2, -2, -1, 7
1503945562564,+0.817,+0.523,+0.232,+0.076,+0.909,-0.250,-0.324,+9.125,-25.250,-22.125,10, 14, 20, 5, 2, 0, -4, 2
1503945562579,+0.818,+0.520,+0.230,+0.081,+0.864,-0.253,-0.335,+8.062,-22.688,-22.250,-4, -32, -14, -3, 0, -1, 0, -13
1503945562598,+0.819,+0.518,+0.229,+0.085,+0.867,-0.284,-0.335,+7.250,-15.625,-21.125,-14, 10, 4, 2, 5, -1, 0, 6
1503945562617,+0.820,+0.516,+0.229,+0.089,+0.885,-0.300,-0.327,+4.500,-17.000,-19.375,-6, 15, 6, 4, -8, -2, -3, -1
1503945562639,+0.821,+0.515,+0.227,+0.092,+0.905,-0.285,-0.260,-2.125,-15.375,-17.812,0, 4, -19, -8, -7, 3, -3, -3
1503945562654,+0.821,+0.516,+0.226,+0.093,+0.897,-0.279,-0.253,-4.000,-5.375,-9.812,11, -1, -3, -5, -2, -8, -1, 5
1503945562677,+0.822,+0.515,+0.225,+0.093,+0.917,-0.273,-0.317,-5.875,-6.562,-5.500,-2, 6, 1, 2, 7, 7, 2, -1
1503945562699,+0.823,+0.514,+0.222,+0.095,+0.936,-0.238,-0.310,-10.188,-11.125,-10.875,-16, -3, -2, 6, 19, 7, -2, -8
1503945562714,+0.824,+0.513,+0.220,+0.095,+0.978,-0.283,-0.321,-10.312,-15.812,-5.875,29, 4, 0, -4, -10, -4, -4, -5
1503945562737,+0.825,+0.511,+0.219,+0.095,+0.943,-0.307,-0.343,-8.062,-13.188,-3.125,-5, -2, 5, -2, 10, -1, -2, -5
1503945562759,+0.827,+0.509,+0.217,+0.096,+0.872,-0.267,-0.343,-9.562,-16.500,-2.562,-6, 1, -4, 3, -3, 3, 9, -2
1503945562774,+0.827,+0.509,+0.217,+0.094,+0.900,-0.303,-0.344,-9.562,+1.875,+0.750,-4, 0, -2, -2, 0, 1, -4, 5
1503945562797,+0.827,+0.511,+0.216,+0.093,+0.965,-0.295,-0.349,-7.625,+7.562,+3.938,-16, -3, -5, 0, 0, 1, -1, -3
1503945562819,+0.827,+0.510,+0.216,+0.093,+0.999,-0.282,-0.335,-4.812,-7.562,+1.188,-4, -8, -7, 1, -4, -3, -2, 0
1503945562834,+0.829,+0.508,+0.215,+0.093,+0.909,-0.291,-0.338,-7.188,-13.250,-1.625,-7, 1, -2, 0, 11, 2, -4, -2
1503945562857,+0.830,+0.507,+0.214,+0.093,+0.855,-0.291,-0.350,-6.688,-10.375,-4.500,-16, -3, 0, 4, 2, -3, -6, -4
1503945562879,+0.830,+0.507,+0.214,+0.093,+0.953,-0.281,-0.348,-0.875,-1.812,-0.062,4, 3, -2, -4, 3, 0, 0, -3
1503945562899,+0.830,+0.506,+0.215,+0.093,+0.959,-0.287,-0.378,+0.500,-2.562,+2.938,-18, 8, 4, -3, 6, -2, -8, -12
1503945562917,+0.831,+0.504,+0.215,+0.094,+0.880,-0.267,-0.368,-0.938,-16.562,-1.688,-8, 8, -2, -1, -2, -2, 0, 5
1503945562940,+0.832,+0.502,+0.214,+0.094,+0.850,-0.273,-0.350,-1.688,-11.500,-2.312,6, -7, -6, 2, -4, 1, 1, 2
1503945568960,+0.796,+0.509,+0.287,+0.154,+0.870,-0.265,-0.289,+1.750,-18.250,-3.750,-6, 13, -17, -5, -2, 0, 5, 19
1503945568983,+0.798,+0.507,+0.287,+0.156,+0.848,-0.270,-0.347,+3.938,-12.188,-6.250,33, 9, 3, -1, 6, 3, 1, 20
1503945568998,+0.798,+0.506,+0.287,+0.158,+0.928,-0.287,-0.323,+7.000,-7.875,-3.688,0, -14, 2, 6, 2, 1, 1, -13
1503945569020,+0.798,+0.505,+0.288,+0.160,+0.931,-0.300,-0.263,+7.188,-5.312,-5.562,-13, -8, -9, 2, 25, 3, 1, -2
1503945569043,+0.798,+0.505,+0.288,+0.161,+0.934,-0.304,-0.246,+5.125,-5.125,-4.062,-26, 18, 25, 9, -2, -4, -2, 1
1503945569058,+0.797,+0.504,+0.289,+0.162,+0.930,-0.302,-0.239,+4.938,-5.000,-1.750,-30, -9, 5, 2, -4, 0, -8, -21
1503945569081,+0.797,+0.504,+0.289,+0.163,+0.915,-0.288,-0.265,+2.625,-5.375,-1.438,1, -11, -1, -10, -4, -4, 4, 5
1503945569103,+0.798,+0.504,+0.289,+0.163,+0.917,-0.271,-0.264,-0.562,-3.938,-1.438,2, -3, -9, -5, -7, -16, -4, 2
1503945569118,+0.798,+0.504,+0.288,+0.164,+0.916,-0.255,-0.284,-2.625,-1.625,-0.438,-36, -1, -14, -9, -8, 5, 0, 4
1503945569141,+0.798,+0.504,+0.288,+0.163,+0.945,-0.288,-0.279,-2.125,+1.125,+1.125,-6, 9, -4, 0, -1, 0, -2, -17
1503945569163,+0.798,+0.504,+0.288,+0.163,+0.962,-0.286,-0.281,-3.938,+2.312,+3.938,5, -8, -22, -6, 7, -4, -5, -6
1503945569178,+0.797,+0.505,+0.289,+0.161,+0.941,-0.283,-0.270,-4.250,+5.188,+10.125,6, 9, 5, 2, -5, -3, -1, -3
1503945569200,+0.797,+0.505,+0.289,+0.158,+0.937,-0.306,-0.275,-7.938,+6.750,+13.625,2, -13, 0, -3, -7, -32, -5, 2
1503945569223,+0.798,+0.505,+0.289,+0.156,+0.937,-0.281,-0.300,-6.250,+1.875,+8.812,15, -3, -16, -6, -4, 11, -3, 1
1503945569238,+0.799,+0.504,+0.288,+0.156,+0.920,-0.289,-0.291,-3.500,-7.562,+3.312,17, -12, -6, -8, 10, 7, 3, -3
1503945569260,+0.799,+0.504,+0.288,+0.156,+0.896,-0.319,-0.251,-7.000,-6.812,+1.375,1, 4, 2, -2, -5, 3, 2, 3
1503945569283,+0.799,+0.505,+0.287,+0.155,+0.896,-0.301,-0.243,-8.312,+3.000,-0.938,15, 5, 7, 3, -5, -2, 0, 2
1503945569298,+0.799,+0.505,+0.286,+0.155,+0.917,-0.287,-0.312,-5.625,+3.812,-2.000,-5, 2, 4, 0, -17, -5, -3, -2
1503945569320,+0.799,+0.505,+0.285,+0.156,+0.923,-0.301,-0.326,-1.938,-1.375,-8.250,9, 25, 32, 10, 3, 6, 0, 1
1503945569343,+0.800,+0.504,+0.284,+0.158,+0.916,-0.322,-0.264,-3.312,-11.500,-13.500,-41, -16, -8, -1, -5, 8, 5, -2
1503945569358,+0.801,+0.504,+0.281,+0.160,+0.959,-0.311,-0.225,-10.562,-12.812,-15.500,-26, 0, -9, 0, 1, -10, -18, -47
1503945569380,+0.802,+0.503,+0.278,+0.161,+0.949,-0.291,-0.299,-13.188,-15.125,-15.188,3, -8, 1, 5, 18, 2, 8, 12
1503945569403,+0.804,+0.501,+0.275,+0.164,+0.906,-0.269,-0.326,-7.812,-21.938,-15.375,9, -6, -7, -1, 0, 0, 0, 14
1503945569418,+0.806,+0.499,+0.272,+0.166,+0.820,-0.259,-0.302,-12.188,-17.688,-15.000,-56, -13, -13, -1, 5, 1, -1, -3
1503945569443,+0.805,+0.502,+0.269,+0.166,+0.804,-0.248,-0.264,-17.438,+10.250,-12.562,30, 9, 8, -2, -21, -2, 0, -1
1503945569463,+0.803,+0.506,+0.267,+0.165,+0.966,-0.250,-0.318,-10.875,+22.938,-10.875,-34, -9, -5, 2, 24, 0, -1, 2
1503945569478,+0.804,+0.506,+0.265,+0.165,+1.063,-0.248,-0.356,-11.625,+0.688,-3.938,15, 1, -4, -10, -6, 3, -2, 2
1503945569500,+0.806,+0.505,+0.261,+0.166,+0.937,-0.220,-0.329,-13.688,-18.500,-7.938,-12, -2, 5, 2, 5, 1, -5, -1
1503945569524,+0.808,+0.502,+0.258,+0.168,+0.835,-0.241,-0.312,-10.688,-21.188,-12.500,20, -3, -8, -3, -2, 0, 1, 8
1503945569538,+0.808,+0.502,+0.256,+0.168,+0.897,-0.246,-0.294,-12.938,-5.438,-7.062,8, -3, -1, 5, 9, -1, 2, 3
1503945569560,+0.809,+0.503,+0.254,+0.167,+0.951,-0.229,-0.333,-14.625,-1.375,-1.562,54, 10, 6, 0, -5, 2, 0, 5
1503945569583,+0.811,+0.501,+0.252,+0.168,+0.943,-0.220,-0.357,-12.250,-12.562,-2.688,-22, -3, -3, -5, -12, 3, -4, -12
1503945569598,+0.813,+0.499,+0.249,+0.168,+0.877,-0.236,-0.354,-11.875,-16.562,-2.938,57, 13, 5, 6, 4, 5, 4, 10
1503945569620,+0.814,+0.499,+0.247,+0.167,+0.860,-0.218,-0.338,-12.250,-6.688,-2.438,-14, -3, 7, 1, -3, -3, 3, -2
1503945569645,+0.814,+0.499,+0.246,+0.167,+0.925,-0.209,-0.348,-5.062,+0.375,-0.500,-8, 3, -1, -2, 4, -1, 7, 8
1503945577435,+0.779,+0.558,+0.234,+0.162,+0.962,-0.153,-0.333,+12.562,-11.250,-13.375,-8, 3, 4, -1, -3, 6, 1, 9
1503945577444,+0.779,+0.556,+0.235,+0.167,+0.929,-0.172,-0.214,+20.250,-17.562,-17.938,-8, -4, -4, -1, 0, 16, 0, 7
1503945577466,+0.779,+0.555,+0.235,+0.171,+0.951,-0.201,-0.163,+14.438,-13.312,-20.438,-16, 4, -2, -7, -14, -11, -4, -4
1503945577489,+0.778,+0.555,+0.236,+0.175,+0.949,-0.158,-0.222,+12.938,-1.000,-12.500,-12, -27, 1, 2, 7, 4, 3, 11
1503945577504,+0.778,+0.555,+0.236,+0.176,+0.942,-0.154,-0.232,+8.625,-3.062,-4.812,-16, 3, 1, -1, 3, 22, -3, -7
1503945577527,+0.777,+0.555,+0.237,+0.178,+0.981,-0.133,-0.183,+5.750,-2.375,-5.312,11, 3, -7, -14, -50, -1, -3, -5
1503945577548,+0.776,+0.556,+0.237,+0.180,+0.983,-0.122,-0.213,+8.125,+3.375,-5.062,-3, 1, 0, 0, 8, -2, -3, 0
1503945577564,+0.776,+0.555,+0.237,+0.181,+1.005,-0.150,-0.225,+7.812,-6.438,-4.250,11, 6, 0, -3, -5, -12, 11, 4
1503945577588,+0.777,+0.553,+0.237,+0.183,+1.031,-0.158,-0.196,+3.438,-15.375,-3.875,-11, 2, 1, 5, 19, -9, -2, 4
1503945577608,+0.778,+0.552,+0.237,+0.184,+0.955,-0.151,-0.211,+0.250,-15.375,-2.625,-5, 1, 2, 4, 4, -5, -7, 0
1503945577624,+0.779,+0.550,+0.236,+0.186,+0.915,-0.131,-0.216,-1.938,-12.812,-6.000,1, 1, 0, -1, 9, -4, -1, 0
1503945577646,+0.779,+0.550,+0.234,+0.187,+0.987,-0.125,-0.227,-3.562,-5.625,-7.688,9, 1, 0, -4, 3, -33, 0, 0
1503945577668,+0.779,+0.550,+0.233,+0.188,+1.018,-0.130,-0.196,-0.250,-5.750,-5.750,-2, -4, -4, -2, 7, 6, 6, 6
1503945577684,+0.780,+0.550,+0.232,+0.188,+0.974,-0.144,-0.227,-8.500,-5.562,-1.500,20, 14, 0, -1, -5, 0, -4, 0
1503945577713,+0.781,+0.550,+0.230,+0.188,+0.980,-0.098,-0.230,-11.000,-9.375,-3.000,-5, 2, 7, 3, 2, 0, -7, -6
1503945577728,+0.783,+0.548,+0.227,+0.188,+0.986,-0.110,-0.281,-9.750,-16.812,-2.688,2, -4, -1, 3, 3, 3, -1, -3
1503945577745,+0.785,+0.546,+0.226,+0.188,+0.931,-0.134,-0.273,-9.938,-18.375,+2.438,-6, -2, -9, -1, -1, -3, -10, -9
1503945577766,+0.787,+0.544,+0.224,+0.187,+0.931,-0.136,-0.236,-11.812,-13.625,+4.062,-4, -2, -4, 1, -3, 4, 4, -17
1503945577789,+0.788,+0.543,+0.223,+0.185,+0.988,-0.128,-0.271,-12.438,-6.188,+7.312,-9, -5, -6, -4, -21, -1, -1, -7
1503945577804,+0.790,+0.541,+0.221,+0.185,+0.981,-0.123,-0.293,-11.000,-16.938,+6.250,6, 2, 0, 0, 7, 15, -7, 1
1503945577827,+0.792,+0.539,+0.220,+0.184,+0.963,-0.150,-0.272,-13.062,-21.938,+5.250,-6, 0, -1, 0, -31, -3, -3, -2
1503945577848,+0.795,+0.536,+0.219,+0.182,+0.901,-0.161,-0.317,-10.438,-17.625,+9.812,-16, -4, -9, -4, 10, -13, -6, -30
1503945577865,+0.797,+0.534,+0.218,+0.180,+0.942,-0.168,-0.271,-12.250,-13.938,+9.875,24, -3, 1, 2, 9, -4, 11, 43
1503945577886,+0.798,+0.533,+0.217,+0.178,+0.993,-0.164,-0.260,-12.562,-9.438,+9.750,7, 0, 2, 1, 9, 12, -2, -1
1503945577908,+0.800,+0.532,+0.216,+0.177,+0.920,-0.162,-0.298,-8.562,-10.438,+4.062,5, 16, 12, 1, 3, -5, -2, 7
1503945577927,+0.801,+0.530,+0.215,+0.176,+0.902,-0.167,-0.346,-9.312,-9.938,+2.000,10, -3, 4, 5, 5, 3, 0, 20
1503945577946,+0.802,+0.530,+0.215,+0.175,+0.893,-0.181,-0.334,-6.688,+2.750,+3.188,8, -1, 0, -1, 0, -12, -6, -12
1503945577968,+0.801,+0.531,+0.215,+0.174,+0.957,-0.179,-0.324,-4.500,+7.500,+0.938,-14, -8, -7, -4, -2, -10, -3, 4
1503945577984,+0.800,+0.532,+0.215,+0.174,+0.925,-0.164,-0.279,-1.875,+9.250,-2.375,8, -4, -7, -1, 0, -4, 1, -14
1503945578006,+0.798,+0.535,+0.215,+0.174,+0.902,-0.181,-0.293,+0.438,+19.688,-5.875,-15, -3, -7, -3, -3, -5, -3, -27
1503945578028,+0.796,+0.538,+0.216,+0.175,+0.960,-0.155,-0.321,+1.188,+24.438,-8.062,-5, 4, 1, 0, 3, 6, -3, 8
1503945578043,+0.795,+0.540,+0.216,+0.176,+0.993,-0.146,-0.339,+5.062,+13.812,-7.438,28, 2, 3, 0, 1, -10, -1, 1
1503945578066,+0.794,+0.540,+0.217,+0.178,+0.932,-0.148,-0.342,+11.375,+5.062,-8.938,-2, 13, 8, 2, -1, -5, -9, 1
1503945578088,+0.792,+0.541,+0.218,+0.180,+0.881,-0.175,-0.247,+11.250,+7.562,-10.562,-4, -1, 2, 0, -2, 2, -1, -6
1503945578104,+0.789,+0.544,+0.220,+0.182,+0.965,-0.162,-0.231,+13.312,+20.062,-9.750,0, 6, 8, -3, -4, 3, 3, -5
1503945578128,+0.788,+0.545,+0.222,+0.183,+1.073,-0.150,-0.266,+13.688,+8.812,-3.562,9, -1, -2, -3, -4, -4, 6, 4
1503945578148,+0.789,+0.542,+0.222,+0.186,+1.019,-0.134,-0.279,+9.625,-21.938,-2.688,3, -2, 0, 20, 18, 10, -4, -4
1503945578164,+0.791,+0.538,+0.222,+0.188,+0.873,-0.131,-0.236,+5.250,-26.125,-3.812,2, 0, -2, -10, -5, 2, -5, 0
1503945578186,+0.792,+0.537,+0.222,+0.188,+0.871,-0.116,-0.255,+4.250,-9.375,+1.625,-29, -11, -12, -5, -5, -6, -4, -2
1503945578209,+0.792,+0.537,+0.222,+0.188,+0.941,-0.080,-0.238,-1.500,-1.938,+7.188,8, -10, -12, -4, -7, 2, -3, -4
1503945578229,+0.792,+0.537,+0.222,+0.187,+0.969,-0.052,-0.239,-4.500,-3.812,+9.938,-10, -2, 4, -3, -3, -5, 2, 1
1503945578246,+0.793,+0.536,+0.221,+0.187,+0.984,-0.036,-0.250,-5.188,-14.562,+9.250,-30, -2, -1, -14, -33, -11, -10, -7
1503945578269,+0.796,+0.532,+0.219,+0.186,+0.976,-0.085,-0.285,-7.062,-26.250,+9.938,-1, 8, 6, 5, 11, 10, 0, 1
1503945578284,+0.799,+0.529,+0.218,+0.186,+0.910,-0.125,-0.286,-9.562,-26.562,+6.750,6, -4, -3, -1, 5, -7, -2, -12
1503945578306,+0.802,+0.526,+0.216,+0.184,+0.909,-0.120,-0.283,-14.562,-21.062,+9.375,0, -6, -6, -4, -3, -4, 6, 9
1503945578335,+0.804,+0.524,+0.215,+0.183,+0.945,-0.093,-0.300,-11.750,-18.062,+11.375,3, 5, 5, 1, 4, 2, -6, 1
1503945578351,+0.806,+0.522,+0.212,+0.182,+0.936,-0.112,-0.318,-13.188,-16.938,+2.062,-8, 7, 0, -1, -3, -4, -7, -1
1503945587493,+0.824,+0.544,+0.159,+0.002,+0.927,-0.204,-0.359,+5.188,-11.438,-8.000,13, 2, 1, 3, 5, 1, 9, 5
1503945587515,+0.825,+0.542,+0.159,+0.003,+0.872,-0.231,-0.324,+1.938,-12.938,-4.000,-2, 0, -5, -5, -10, -7, -3, -1
1503945587531,+0.825,+0.543,+0.159,+0.003,+0.883,-0.244,-0.262,-1.062,+2.250,-0.125,16, 1, 3, -1, -2, -3, -8, 26
1503945587553,+0.824,+0.544,+0.159,+0.003,+0.958,-0.239,-0.298,-2.812,+5.000,+2.688,8, 3, 2, 1, 3, 17, 7, -6
1503945587576,+0.825,+0.543,+0.159,+0.003,+0.973,-0.220,-0.326,-1.812,-8.625,+3.312,18, 16, 6, -3, 4, 3, 4, 3
1503945587591,+0.827,+0.540,+0.158,+0.002,+0.909,-0.244,-0.320,-5.000,-19.875,+3.812,-6, -3, -6, -4, -2, -9, -2, -17
1503945587613,+0.828,+0.538,+0.159,+0.001,+0.871,-0.285,-0.322,-6.375,-8.625,+6.062,-13, -6, -4, 3, -11, -13, -1, -5
1503945587635,+0.828,+0.538,+0.158,+0.000,+0.875,-0.256,-0.384,-4.312,+0.875,+1.062,-10, -2, 0, -1, -1, -4, -3, -3
1503945587651,+0.829,+0.537,+0.158,+0.000,+0.926,-0.250,-0.359,-1.625,-4.375,+1.188,-13, -9, -2, -1, 5, -8, -5, -2
1503945587674,+0.829,+0.536,+0.158,+0.001,+0.948,-0.276,-0.307,-3.938,-8.812,-2.312,6, -4, -10, -3, -3, 14, 1, 5
1503945587696,+0.829,+0.536,+0.157,+0.001,+0.890,-0.267,-0.329,-3.000,-2.688,-4.875,0, 4, 3, 0, 1, 5, 6, 15
1503945587711,+0.830,+0.535,+0.157,+0.002,+0.908,-0.271,-0.358,+0.688,-5.312,-7.375,8, -2, 0, -1, 16, -1, -1, 3
1503945587740,+0.831,+0.534,+0.156,+0.004,+0.940,-0.256,-0.343,-0.750,-8.500,-9.375,20, 6, 0, 3, 5, -4, -5, -5
1503945587755,+0.832,+0.533,+0.155,+0.006,+0.923,-0.256,-0.315,+0.312,-12.312,-10.188,-1, -1, 0, -3, -7, -41, 6, -5
1503945587773,+0.832,+0.532,+0.154,+0.007,+0.876,-0.255,-0.338,-0.938,-8.125,-9.562,-9, -3, 0, -3, -5, 1, 0, -3
1503945587793,+0.833,+0.532,+0.154,+0.008,+0.863,-0.250,-0.350,-2.125,-2.750,-7.125,-5, -1, 3, 2, -2, 2, -4, -26
1503945587815,+0.833,+0.532,+0.153,+0.009,+0.906,-0.244,-0.341,-4.250,+1.062,-6.438,-6, -6, -7, -3, -7, 0, -3, 2
1503945587831,+0.833,+0.533,+0.152,+0.009,+0.936,-0.229,-0.325,-6.000,+0.812,-2.375,-11, -5, -6, -9, -9, -6, -3, 0
1503945587853,+0.833,+0.532,+0.151,+0.009,+0.923,-0.220,-0.349,-7.062,-5.938,+0.375,-24, -1, 5, 0, 1, 21, -3, 5
1503945587877,+0.834,+0.530,+0.149,+0.008,+0.894,-0.198,-0.375,-7.312,-9.625,+1.688,3, -2, -3, 1, 1, 1, -5, -10
1503945587891,+0.836,+0.529,+0.149,+0.008,+0.893,-0.207,-0.358,-5.625,-11.312,+2.375,7, -3, 4, -1, -3, -2, -2, -3
1503945587915,+0.836,+0.528,+0.148,+0.008,+0.895,-0.229,-0.342,-5.500,-4.625,+1.250,0, -1, -4, 0, -2, 3, 1, -6
1503945587935,+0.836,+0.529,+0.148,+0.007,+0.899,-0.246,-0.347,-4.125,+5.062,+3.625,-12, 2, 0, 1, 1, 3, 3, -11
1503945587951,+0.836,+0.529,+0.148,+0.005,+0.924,-0.233,-0.386,-6.688,+4.875,+4.125,6, -1, 0, 0, 0, -1, -6, -6
1503945587980,+0.835,+0.530,+0.147,+0.005,+0.939,-0.208,-0.380,-2.750,+7.000,-0.562,-4, -2, -4, -4, -1, -4, 0, 10
1503945587995,+0.835,+0.531,+0.147,+0.006,+0.882,-0.234,-0.371,+4.125,+5.625,-3.062,-36, -11, -6, 1, -1, -9, -6, -7
1503945588011,+0.833,+0.532,+0.148,+0.006,+0.863,-0.263,-0.367,+0.375,+15.062,-2.188,22, 3, 2, -3, -4, -3, 2, 2
1503945588033,+0.831,+0.536,+0.148,+0.005,+0.913,-0.254,-0.336,-2.750,+27.062,-0.312,3, 1, 3, 2, 2, 0, -1, -11
1503945588055,+0.829,+0.539,+0.148,+0.005,+0.976,-0.231,-0.346,+1.500,+21.438,-0.125,15, -5, -2, 1, -1, -1, 1, 18
1503945588074,+0.828,+0.541,+0.148,+0.006,+0.979,-0.225,-0.338,+7.500,+8.750,-2.438,-7, 4, 2, 2, 0, 7, 3, 10
1503945588100,+0.828,+0.541,+0.150,+0.008,+0.931,-0.257,-0.324,+9.438,-3.500,-5.312,-4, -2, 0, 0, -3, -5, -3, -5
1503945588115,+0.828,+0.540,+0.151,+0.009,+0.927,-0.271,-0.315,+4.625,-6.625,-1.812,-1, 1, -3, 2, 7, 10, -3, -10
1503945588131,+0.828,+0.539,+0.152,+0.008,+0.907,-0.263,-0.324,+2.250,-5.312,+4.562,3, 2, -2, -4, -10, -3, -3, 4
1503945588153,+0.829,+0.538,+0.153,+0.008,+0.875,-0.272,-0.340,+2.875,-1.688,+2.125,0, -3, -6, -5, -4, -3, 1, -6
1503945594476,+0.817,+0.543,+0.192,+0.013,+0.925,-0.340,-0.254,+0.875,+4.125,-26.688,-2, 2, 8, 4, 1, 0, 1, 4
1503945594497,+0.817,+0.544,+0.189,+0.016,+0.954,-0.296,-0.253,-3.688,-2.375,-27.062,22, -5, -6, -3, 1, -3, -3, -1
1503945594519,+0.819,+0.542,+0.186,+0.020,+0.939,-0.258,-0.323,-1.188,-18.688,-24.438,11, 2, 1, -1, -2, 11, -3, 22
1503945594534,+0.820,+0.541,+0.185,+0.023,+0.906,-0.296,-0.335,-0.812,-13.438,-17.438,7, -4, -8, -1, -10, -1, 1, 8
1503945594557,+0.821,+0.541,+0.182,+0.026,+0.916,-0.294,-0.292,-7.562,-6.312,-21.500,1, -3, -7, -4, 0, 3, -1, -4
1503945594579,+0.822,+0.540,+0.178,+0.028,+0.945,-0.242,-0.296,-12.938,-9.500,-24.625,1, -5, -2, -2, -1, 1, 0, 7
1503945594594,+0.823,+0.540,+0.174,+0.032,+0.913,-0.185,-0.291,-12.062,-13.062,-24.875,5, -5, -10, -4, 0, -4, 0, -5
1503945594617,+0.824,+0.539,+0.171,+0.035,+0.890,-0.192,-0.307,-3.938,-13.875,-24.438,22, -4, -7, -1, 0, -2, 2, 47
1503945594641,+0.826,+0.537,+0.168,+0.040,+0.914,-0.206,-0.339,-0.938,-15.812,-27.562,8, -1, 1, -4, -3, -4, 5, 7
1503945594655,+0.827,+0.535,+0.164,+0.045,+0.950,-0.213,-0.324,-3.500,-20.688,-29.750,-9, 5, 4, 3, 2, -2, -4, -16
1503945594677,+0.828,+0.534,+0.161,+0.047,+0.949,-0.200,-0.321,-10.250,-13.562,-20.375,2, 4, 2, 0, -1, -25, -6, -1
1503945594699,+0.829,+0.534,+0.158,+0.048,+0.922,-0.175,-0.313,-13.938,-7.438,-10.188,-1, -3, -5, 1, 5, 0, -1, 8
1503945594715,+0.830,+0.533,+0.155,+0.048,+0.953,-0.192,-0.359,-13.875,-9.438,-6.312,-1, -2, -4, -3, -1, 0, -1, -12
1503945594736,+0.832,+0.532,+0.153,+0.047,+0.954,-0.211,-0.368,-14.562,-8.000,-1.312,-18, -1, -2, 3, -3, 2, -4, -9
1503945594759,+0.833,+0.530,+0.151,+0.045,+0.921,-0.204,-0.362,-15.500,-8.312,+5.000,-5, -2, 1, 0, -3, -2, 2, -14
1503945594775,+0.833,+0.530,+0.150,+0.043,+0.947,-0.219,-0.342,-14.875,-3.625,+6.312,-5, 8, 3, 2, 0, -1, -1, 13
1503945594797,+0.834,+0.529,+0.149,+0.040,+0.993,-0.215,-0.321,-16.188,-8.438,+12.125,-23, -7, -1, 1, -2, 0, -3, -19
1503945594819,+0.836,+0.526,+0.149,+0.037,+0.972,-0.212,-0.354,-14.562,-19.375,+21.375,-10, -1, 5, 2, -1, 2, -1, -17
1503945594843,+0.839,+0.523,+0.149,+0.035,+0.896,-0.182,-0.410,-9.938,-18.500,+14.438,6, 2, 3, 1, -3, -1, -1, 4
1503945594857,+0.840,+0.520,+0.148,+0.033,+0.848,-0.210,-0.412,-6.812,-14.188,+7.188,-6, 0, 5, 1, 1, 0, -1, 11
1503945594880,+0.841,+0.519,+0.149,+0.032,+0.929,-0.273,-0.364,-7.250,-7.938,+7.312,12, 1, -2, -1, -12, 10, 1, 2
1503945594895,+0.841,+0.519,+0.149,+0.028,+0.971,-0.271,-0.362,-10.688,-0.375,+14.188,0, 3, -6, 0, -2, 4, 0, -3
1503945594918,+0.842,+0.518,+0.149,+0.025,+0.931,-0.223,-0.366,-13.250,-5.562,+20.562,1, -4, 1, -2, 2, 2, 1, 5
1503945594941,+0.843,+0.516,+0.149,+0.022,+0.888,-0.226,-0.354,-8.438,-16.000,+13.750,-6, 0, 2, 1, 3, 1, 0, -2
1503945594962,+0.845,+0.513,+0.150,+0.022,+0.885,-0.248,-0.396,-2.438,-14.812,+5.062,-3, 0, 0, -2, -1, 6, -3, -1
1503945594977,+0.846,+0.510,+0.150,+0.022,+0.883,-0.228,-0.428,+1.688,-17.562,+5.000,1, -1, 0, -2, 1, -10, -4, -4
1503945594999,+0.849,+0.506,+0.152,+0.021,+0.909,-0.245,-0.392,+2.250,-26.000,+11.188,3, -1, -2, -3, 1, 7, 1, 7
1503945595015,+0.851,+0.503,+0.152,+0.021,+0.874,-0.219,-0.399,-0.750,-25.312,+9.562,-20, -7, -7, -5, -9, -6, -1, -4
1503945595036,+0.853,+0.499,+0.152,+0.020,+0.776,-0.180,-0.429,-1.812,-17.625,+6.688,-3, -2, -2, 3, 8, 3, -2, -2
1503945595059,+0.853,+0.498,+0.153,+0.018,+0.818,-0.265,-0.427,-0.500,-0.688,+10.000,5, 3, -1, 6, -4, -1, -3, -2
1503945595079,+0.853,+0.499,+0.155,+0.016,+0.913,-0.268,-0.447,-0.125,+6.438,+13.375,-3, -5, -1, -5, 0, -1, -1, 0
1503945602800,+0.855,+0.459,+0.218,+0.106,+0.802,-0.280,-0.452,-8.188,-11.438,-8.500,3, -1, -1, -1, 1, -1, -2, 3
1503945602823,+0.854,+0.461,+0.218,+0.105,+0.765,-0.321,-0.472,-5.312,+14.125,-2.438,0, -2, -2, -1, 7, -2, 0, -2
1503945602844,+0.852,+0.464,+0.218,+0.104,+0.817,-0.280,-0.487,-2.562,+30.312,+0.938,-13, 0, -1, -1, -6, 2, -6, -8
1503945602860,+0.849,+0.471,+0.218,+0.102,+0.896,-0.272,-0.333,-7.000,+35.688,-1.500,10, 0, 0, 1, -3, -31, -3, 0
1503945602883,+0.847,+0.475,+0.218,+0.101,+1.007,-0.261,-0.382,-5.500,+24.062,+1.875,-10, 0, -3, -1, 1, 9, 1, 5
1503945602905,+0.847,+0.475,+0.218,+0.101,+0.937,-0.281,-0.424,-2.750,-1.000,+2.375,-9, -3, 2, -1, -2, 1, -1, 3
1503945602920,+0.848,+0.472,+0.216,+0.102,+0.826,-0.288,-0.457,-7.500,-16.375,-6.688,15, 6, -3, 1, -3, 3, -1, -2
1503945602942,+0.849,+0.471,+0.216,+0.102,+0.785,-0.277,-0.464,+1.688,-2.625,-4.938,-1, -4, 0, -2, -4, -5, -4, -11
1503945602964,+0.848,+0.472,+0.217,+0.102,+0.842,-0.313,-0.381,+1.125,+2.375,-1.562,3, -2, -2, 1, 6, 4, 4, 1
1503945602982,+0.847,+0.474,+0.217,+0.102,+0.926,-0.318,-0.350,-6.562,+8.500,-1.812,-31, 7, 12, 0, -3, 6, -1, -5
1503945603002,+0.847,+0.475,+0.217,+0.101,+0.964,-0.298,-0.444,-4.188,+3.312,+4.562,-8, -8, -5, -2, 0, 1, 1, -10
1503945603024,+0.848,+0.473,+0.217,+0.101,+0.914,-0.275,-0.457,-0.375,-7.812,+1.750,5, -5, -5, -8, -34, -4, -10, 5
1503945603040,+0.848,+0.473,+0.216,+0.102,+0.872,-0.248,-0.384,+1.812,-6.000,-4.688,-2, -4, -3, -2, -10, -2, -1, 3
1503945603062,+0.847,+0.474,+0.216,+0.103,+0.782,-0.269,-0.396,+1.938,+9.375,-9.250,13, 0, -4, 3, 2, -3, -1, 1
1503945603085,+0.846,+0.476,+0.217,+0.104,+0.858,-0.272,-0.444,+4.375,+15.938,-10.438,11, -4, -4, -2, 19, 3, 8, 6
1503945603100,+0.844,+0.478,+0.217,+0.106,+0.934,-0.265,-0.425,+4.500,+10.125,-10.438,-8, 1, 3, 6, -7, -2, -3, -15
1503945603129,+0.844,+0.478,+0.216,+0.109,+0.902,-0.243,-0.397,+1.938,-9.062,-13.938,8, 0, -4, -9, -6, 1, 2, 13
1503945603144,+0.845,+0.477,+0.214,+0.111,+0.836,-0.235,-0.408,-0.812,-5.188,-13.938,15, 4, 1, 4, 22, -38, -10, -3
1503945603160,+0.844,+0.478,+0.213,+0.113,+0.837,-0.239,-0.422,-1.750,+3.125,-11.500,-13, 4, -2, -5, -12, 11, -4, -19
1503945603185,+0.844,+0.479,+0.213,+0.114,+0.972,-0.221,-0.433,+0.438,-1.188,-6.812,9, 2, -5, 5, 7, 6, -3, -2
1503945603205,+0.846,+0.476,+0.212,+0.116,+0.896,-0.222,-0.428,-0.312,-18.062,-5.062,6, -5, -6, 0, 1, 10, 3, 6
1503945603222,+0.847,+0.474,+0.211,+0.117,+0.815,-0.238,-0.414,-1.750,-14.438,-2.312,1, -1, 3, -5, -11, -30, -7, 1
1503945603242,+0.847,+0.474,+0.211,+0.116,+0.813,-0.239,-0.451,+0.312,+2.062,+3.062,-12, 1, 0, 0, 3, 17, 4, 9
1503945603265,+0.847,+0.474,+0.212,+0.115,+0.868,-0.251,-0.411,-0.250,+4.750,+3.812,-13, -12, -3, 0, -1, 3, 1, -7
1503945612992,+0.775,+0.594,+0.196,+0.087,+0.896,-0.251,-0.162,-12.750,+20.562,-4.875,-14, -1, -4, -9, -12, -47, -3, -5
1503945613014,+0.774,+0.597,+0.193,+0.086,+0.977,-0.169,-0.189,-16.500,+16.938,-9.562,31, 2, 1, 1, 2, 12, 3, 9
1503945613031,+0.773,+0.599,+0.190,+0.087,+1.015,-0.109,-0.186,-10.625,+7.438,-9.688,-9, -1, 4, 4, -3, 8, 3, -2
1503945613051,+0.774,+0.598,+0.189,+0.087,+0.953,-0.160,-0.288,-3.250,-0.375,-1.688,-10, 3, -7, -1, -1, 4, -1, -16
1503945613073,+0.774,+0.598,+0.189,+0.087,+0.888,-0.208,-0.213,-2.312,+4.688,+0.062,-4, 3, -8, -3, 3, -2, -1, 7
1503945613089,+0.773,+0.600,+0.189,+0.087,+0.941,-0.239,-0.101,-1.000,+12.500,-6.188,-13, 0, 1, -1, 8, 2, 4, 3
1503945613111,+0.771,+0.602,+0.188,+0.087,+1.034,-0.234,-0.147,-3.312,+15.750,-10.688,8, -1, -7, -1, -4, -7, -7, 3
1503945613127,+0.771,+0.603,+0.187,+0.089,+1.001,-0.156,-0.229,-1.875,+1.875,-11.500,-7, -5, 9, 0, -4, 1, -1, -15
1503945613149,+0.771,+0.602,+0.185,+0.091,+0.989,-0.145,-0.189,+4.188,-8.938,-13.438,9, -1, 4, 2, -1, 1, 1, 21
1503945613172,+0.772,+0.600,+0.185,+0.095,+0.990,-0.189,-0.177,+10.438,-11.312,-18.500,7, 3, 1, 0, 5, 5, 3, 4
1503945613193,+0.773,+0.599,+0.184,+0.101,+0.984,-0.209,-0.143,+11.938,-17.562,-30.125,5, -4, -2, -2, -4, -2, -7, -9
1503945613209,+0.773,+0.598,+0.182,+0.107,+0.977,-0.169,-0.150,+11.188,-18.750,-35.375,-3, -1, 0, -1, -5, 19, -2, -11
1503945613236,+0.774,+0.596,+0.180,+0.114,+0.948,-0.098,-0.241,+13.625,-14.438,-32.625,-31, -7, -1, -1, 0, 15, -2, -31
1503945613253,+0.775,+0.594,+0.179,+0.120,+0.985,-0.077,-0.228,+19.625,-13.250,-28.125,-5, 0, 0, 0, 0, -5, 2, 4
1503945613270,+0.775,+0.593,+0.178,+0.127,+1.033,-0.072,-0.217,+20.938,-12.000,-27.188,26, -1, -1, 0, 1, -2, -3, 30
1503945613307,+0.776,+0.590,+0.179,+0.134,+0.933,+0.006,-0.241,+30.875,-19.375,-20.250,-38, -7, 1, 1, -2, -5, 2, -15
1503945613314,+0.776,+0.588,+0.183,+0.140,+0.945,-0.116,-0.113,+37.750,-20.812,-7.438,-6, 2, -2, -3, 2, -3, 3, -4
1503945613330,+0.776,+0.586,+0.184,+0.143,+1.043,-0.165,-0.123,+18.062,-17.938,-10.938,-2, -2, -5, -3, -2, -30, -3, 1
1503945613352,+0.777,+0.584,+0.184,+0.145,+0.953,-0.007,-0.227,+7.062,-11.312,-2.062,-7, 8, 0, -2, 0, 3, 6, -15
1503945613375,+0.778,+0.582,+0.185,+0.147,+0.968,-0.023,-0.263,+11.500,-11.000,+6.938,-7, -2, -2, -2, -2, -1, 3, 0
1503945613389,+0.778,+0.581,+0.188,+0.147,+1.063,-0.124,-0.186,+14.500,-2.750,+11.125,9, 3, 3, 2, 1, 5, -2, 4
1503945613415,+0.779,+0.579,+0.191,+0.148,+1.076,-0.132,-0.176,+12.375,-17.500,+8.375,7, 1, -1, 0, -3, -1, -1, 12
1503945613434,+0.781,+0.576,+0.192,+0.149,+0.930,-0.121,-0.159,+8.375,-22.688,+4.438,-1, -7, -3, -4, 0, -3, 3, 12
1503945613449,+0.781,+0.575,+0.193,+0.149,+0.845,-0.142,-0.182,+4.375,-8.000,+2.375,-6, 10, 5, 3, -3, -43, -6, 0
1503945613471,+0.780,+0.576,+0.194,+0.149,+0.934,-0.167,-0.186,+4.375,+12.625,-0.562,21, 2, 1, 0, -3, 15, 3, -6
1503945613493,+0.778,+0.578,+0.196,+0.149,+1.081,-0.147,-0.205,+7.125,+10.375,+0.688,-17, -2, -2, -3, 0, 2, -4, -2
1503945613510,+0.779,+0.576,+0.196,+0.151,+1.051,-0.118,-0.171,+6.000,-14.750,-4.375,7, 3, -7, -2, 2, 6, -2, 16
1503945613534,+0.781,+0.574,+0.195,+0.153,+0.913,-0.138,-0.174,+1.375,-24.062,-9.562,18, -3, -1, 7, 11, -20, -5, -7
1503945622658,+0.863,+0.490,+0.118,-0.015,+0.850,-0.203,-0.447,-5.938,+13.500,-2.125,-5, 6, 7, 3, 3, 0, -2, -8
1503945622674,+0.862,+0.493,+0.117,-0.015,+0.951,-0.188,-0.435,-2.500,+9.812,-1.250,-11, -7, -5, -2, -10, -1, -4, -5
1503945622696,+0.863,+0.492,+0.117,-0.015,+0.923,-0.196,-0.417,-3.000,-8.000,+3.562,-6, 3, 3, 1, 11, -5, 4, 6
1503945622718,+0.864,+0.489,+0.117,-0.017,+0.839,-0.236,-0.439,-7.688,-15.188,+10.688,9, 2, 1, 3, -12, 2, -4, -1
1503945622734,+0.865,+0.488,+0.117,-0.020,+0.794,-0.243,-0.499,-12.000,-2.625,+14.000,-20, -4, 2, -2, -4, -3, 0, -5
1503945622756,+0.865,+0.488,+0.117,-0.024,+0.799,-0.246,-0.479,-13.312,+4.250,+17.812,2, 3, 3, -2, -15, -2, 0, -2
1503945622778,+0.865,+0.488,+0.117,-0.028,+0.839,-0.236,-0.438,-13.938,+5.312,+21.312,10, -5, -7, -3, -3, -4, 0, -1
1503945622794,+0.864,+0.489,+0.116,-0.033,+0.867,-0.226,-0.455,-16.875,+9.812,+24.062,11, 7, 12, 1, -4, 0, 1, -3
1503945622817,+0.863,+0.489,+0.117,-0.039,+0.904,-0.258,-0.484,-16.750,+8.062,+28.875,5, -4, -9, -21, -41, -7, -1, -2
1503945622838,+0.863,+0.489,+0.117,-0.045,+0.911,-0.303,-0.456,-16.438,-2.188,+27.750,-3, 1, 2, 0, 5, 2, 5, 5
1503945622856,+0.864,+0.487,+0.117,-0.048,+0.822,-0.246,-0.467,-12.188,-7.875,+19.750,0, 18, 2, 3, 7, -1, 0, -1
1503945622876,+0.865,+0.485,+0.117,-0.052,+0.783,-0.235,-0.467,-9.562,-3.875,+17.188,-18, -18, -2, 0, 7, -6, -7, -8
1503945622898,+0.864,+0.487,+0.117,-0.055,+0.869,-0.267,-0.469,-10.438,+15.125,+18.250,1, -2, -2, 4, 8, 6, -3, -4
1503945622921,+0.862,+0.489,+0.117,-0.058,+0.930,-0.250,-0.468,-7.812,+15.250,+15.125,2, -6, -8, 1, 13, -6, 4, 10
1503945622936,+0.862,+0.489,+0.117,-0.059,+0.967,-0.244,-0.410,-4.812,-9.312,+4.500,13, 5, -2, 1, 3, -2, 1, 2
1503945622959,+0.864,+0.487,+0.117,-0.057,+0.900,-0.250,-0.486,+4.000,-14.938,-4.062,-5, -5, -2, -1, 5, -1, -2, -3
1503945622974,+0.865,+0.484,+0.118,-0.054,+0.859,-0.274,-0.505,+10.875,-20.312,-15.875,6, -3, 4, 5, 4, 2, 1, 0
1503945622997,+0.866,+0.483,+0.119,-0.049,+0.788,-0.254,-0.435,+16.625,-13.750,-22.812,-9, -3, -1, 0, -4, 0, 4, 5
1503945623019,+0.867,+0.482,+0.120,-0.044,+0.815,-0.295,-0.451,+18.312,-6.625,-24.250,2, 2, -2, -6, -21, -3, -1, -2
1503945623034,+0.866,+0.484,+0.122,-0.040,+0.841,-0.295,-0.470,+13.688,+10.375,-17.938,13, 1, -2, -3, -4, -3, 2, 6
1503945623057,+0.865,+0.485,+0.123,-0.037,+0.925,-0.292,-0.430,+11.688,+2.625,-13.125,0, 0, 0, 4, 4, -3, -2, 3
1503945623079,+0.865,+0.486,+0.124,-0.035,+0.911,-0.290,-0.416,+9.812,-5.125,-12.500,14, 3, 5, 3, 7, 3, -1, 0
1503945623094,+0.866,+0.484,+0.123,-0.031,+0.808,-0.224,-0.489,+6.812,-11.812,-18.750,-14, -9, -6, 1, -1, 0, -3, -6
1503945623118,+0.865,+0.485,+0.123,-0.029,+0.797,-0.203,-0.464,+7.938,+5.812,-11.500,0, -9, -5, -4, -8, -1, -2, -2
1503945623139,+0.865,+0.486,+0.123,-0.026,+0.864,-0.204,-0.489,+8.750,+9.562,-13.312,-7, -5, -3, -5, 2, 3, 3, 5
1503945632701,+0.838,+0.519,+0.137,-0.098,+0.895,-0.359,-0.369,+2.250,+6.875,+4.000,-21, -4, 0, 1, 5, 0, 0, -10
1503945632723,+0.836,+0.521,+0.139,-0.100,+0.919,-0.363,-0.465,+4.938,+16.375,+15.188,-12, 4, 5, 5, -2, 2, 1, 1
1503945632753,+0.836,+0.521,+0.140,-0.101,+0.922,-0.362,-0.393,+1.562,+4.625,+10.812,0, 1, 5, -2, 4, 1, -1, 4
1503945632761,+0.835,+0.522,+0.141,-0.102,+0.847,-0.365,-0.340,+2.438,+2.188,+4.312,-1, -9, -12, -9, -1, -4, -1, -5
1503945632783,+0.834,+0.523,+0.141,-0.101,+0.843,-0.364,-0.326,-2.000,+9.500,-4.375,-21, -2, -2, -1, -3, -2, -1, -3
1503945632806,+0.834,+0.524,+0.139,-0.100,+0.813,-0.293,-0.380,-1.562,+4.000,-13.062,2, -7, -6, 6, 0, -3, -3, -3
1503945632821,+0.836,+0.523,+0.137,-0.096,+0.931,-0.352,-0.382,-2.688,-11.625,-22.312,0, -3, -2, 1, 6, 2, -1, 2
1503945632844,+0.838,+0.521,+0.136,-0.094,+0.878,-0.308,-0.458,+2.625,-15.000,-14.312,-8, -16, -4, 4, -3, 1, -2, -18
1503945632873,+0.839,+0.518,+0.136,-0.090,+0.777,-0.280,-0.396,+10.438,-16.500,-18.000,26, 10, -17, -1, -1, -3, -5, -2
1503945632881,+0.840,+0.518,+0.137,-0.086,+0.903,-0.345,-0.346,+9.000,-12.938,-19.500,-3, -3, 1, -2, -10, 4, 3, -3
1503945632903,+0.842,+0.516,+0.135,-0.081,+0.917,-0.315,-0.398,+4.688,-17.250,-25.312,6, 3, 7, 5, 7, 3, 1, 6
1503945632925,+0.844,+0.513,+0.136,-0.077,+0.806,-0.303,-0.410,+8.875,-21.750,-18.312,1, 4, 6, -2, 0, 5, 6, 1
1503945632941,+0.845,+0.512,+0.137,-0.076,+0.874,-0.348,-0.378,+4.438,-12.312,-3.375,-6, 1, 7, -3, -5, -1, -1, 2
1503945632965,+0.845,+0.512,+0.136,-0.074,+0.883,-0.295,-0.496,+2.812,+3.062,-8.938,-8, 4, 3, 1, 2, -1, -2, 9
1503945632985,+0.847,+0.509,+0.136,-0.069,+0.838,-0.214,-0.460,+13.188,-19.062,-19.875,4, 1, 1, -5, 0, -7, -3, -4
1503945633003,+0.849,+0.505,+0.137,-0.064,+0.878,-0.297,-0.364,+19.500,-31.938,-20.375,-8, -8, -9, 2, -5, -3, -3, -4
1503945633023,+0.850,+0.505,+0.140,-0.059,+0.832,-0.327,-0.353,+23.500,-10.000,-18.500,2, 4, 23, 3, 4, -2, -3, -11
1503945633045,+0.850,+0.504,+0.142,-0.054,+0.878,-0.280,-0.475,+27.062,-8.125,-15.062,-1, 4, -4, -5, -10, 2, 0, 2
1503945633061,+0.852,+0.500,+0.145,-0.049,+0.925,-0.261,-0.464,+26.875,-30.750,-10.875,11, -9, 7, 2, 3, -2, -2, -8
1503945633083,+0.854,+0.497,+0.148,-0.044,+0.898,-0.323,-0.372,+24.438,-31.812,-17.938,27, 4, -15, -7, -2, -2, -2, 18
1503945633105,+0.855,+0.495,+0.151,-0.039,+0.810,-0.329,-0.357,+22.062,-18.188,-18.375,7, -9, -4, -2, 0, -4, -1, 1
1503945633121,+0.855,+0.494,+0.153,-0.035,+0.841,-0.338,-0.403,+17.938,-8.812,-13.625,-15, 0, 2, 1, -1, -1, -1, -5
1503945633143,+0.855,+0.494,+0.154,-0.034,+0.915,-0.325,-0.361,+8.625,-11.938,-4.188,12, 15, -7, -3, -5, 0, -2, -5
1503945633166,+0.856,+0.491,+0.155,-0.032,+0.945,-0.292,-0.350,+6.125,-24.750,-3.125,-8, -12, 6, -4, -3, -3, -1, 1
1503945633187,+0.859,+0.488,+0.155,-0.029,+0.908,-0.302,-0.414,+5.000,-31.062,-11.312,-21, -4, -5, -3, -3, 10, 2, -6
1503945633208,+0.861,+0.483,+0.156,-0.025,+0.782,-0.308,-0.491,+8.938,-28.562,-13.875,1, 1, -3, -4, 7, -2, -3, -4
1503945633226,+0.862,+0.481,+0.157,-0.023,+0.780,-0.329,-0.464,+8.375,-14.062,-8.875,-27, -8, -5, -5, -20, -4, -7, -4
1503945633241,+0.861,+0.482,+0.159,-0.022,+0.879,-0.329,-0.398,+7.938,+5.688,-2.125,-6, -2, -5, -1, 7, -4, 1, 1
1503945633266,+0.861,+0.482,+0.159,-0.022,+0.947,-0.264,-0.475,+4.875,-0.688,+2.500,16, 12, -3, -5, -11, 0, -2, -2
1503945633286,+0.863,+0.479,+0.159,-0.021,+0.911,-0.221,-0.465,+2.750,-25.062,+3.125,0, 0, -2, 8, 3, -5, 4, 4
1503945633301,+0.865,+0.475,+0.161,-0.019,+0.812,-0.276,-0.466,+9.062,-26.375,+0.312,2, 1, -1, -4, -9, -3, -2, 1
1503945633324,+0.866,+0.473,+0.162,-0.018,+0.733,-0.281,-0.477,+9.812,-6.000,+1.625,6, -8, -8, -5, 6, 6, -1, -2
1503945633346,+0.864,+0.475,+0.162,-0.018,+0.784,-0.243,-0.380,+0.125,+10.562,-0.062,-11, -1, -3, -14, -19, 12, 3, -4
1503945641669,+0.860,+0.488,+0.146,+0.034,+0.844,-0.234,-0.442,+12.312,-37.688,-6.812,-6, -6, 0, -1, 1, 1, 0, -3
1503945641693,+0.862,+0.484,+0.147,+0.035,+0.817,-0.255,-0.417,+7.625,-24.750,-2.812,-1, 0, 0, 0, 1, 2, 0, 0
1503945641708,+0.862,+0.484,+0.149,+0.035,+0.825,-0.254,-0.453,+5.375,+0.000,+1.625,4, -3, -4, -3, -11, -4, 0, 0
1503945641729,+0.861,+0.485,+0.151,+0.035,+0.839,-0.206,-0.500,+10.438,+14.875,+5.062,0, 0, -2, 0, -3, -2, -1, 0
1503945641752,+0.859,+0.486,+0.153,+0.036,+0.904,-0.228,-0.433,+13.000,+7.000,+2.062,3, 2, 1, 0, -1, -1, -3, -2
1503945641768,+0.859,+0.487,+0.156,+0.035,+0.947,-0.292,-0.361,+12.375,-1.125,+11.375,2, 6, 0, 0, 1, -1, 0, 1
1503945641789,+0.859,+0.486,+0.160,+0.034,+0.886,-0.292,-0.423,+10.312,-5.688,+15.125,4, -1, 8, 3, 4, 0, 0, 1
1503945641812,+0.860,+0.484,+0.161,+0.034,+0.818,-0.192,-0.412,+6.125,-12.312,+7.500,1, -4, -7, -4, -1, 1, 0, 1
1503945641828,+0.860,+0.482,+0.162,+0.034,+0.846,-0.209,-0.400,+4.750,-14.250,+7.375,-4, -6, -1, -5, -1, -3, -2, -2
1503945641851,+0.860,+0.482,+0.163,+0.032,+0.865,-0.226,-0.426,-0.312,+2.875,+11.125,4, -1, -4, -1, -15, -1, 0, -1
1503945641872,+0.859,+0.484,+0.163,+0.029,+0.813,-0.207,-0.445,-8.188,+15.688,+18.375,1, 5, 0, -4, 1, -2, 0, -2
1503945641888,+0.859,+0.484,+0.164,+0.023,+0.887,-0.223,-0.437,-12.875,+8.750,+30.438,-14, -4, -3, -1, 2, 14, 2, 0
1503945641910,+0.859,+0.485,+0.164,+0.018,+0.949,-0.239,-0.429,-11.938,+5.062,+28.438,-8, -14, -3, 2, 2, 2, 1, -3
1503945641934,+0.859,+0.484,+0.164,+0.014,+0.895,-0.235,-0.469,-13.438,+1.500,+26.375,9, 7, 0, -1, 6, -3, -2, 2
1503945641948,+0.860,+0.483,+0.165,+0.009,+0.810,-0.229,-0.516,-8.312,+4.250,+26.188,10, 4, -2, 0, 6, -5, 0, -4
1503945641970,+0.859,+0.484,+0.166,+0.006,+0.847,-0.282,-0.448,-3.000,+6.750,+19.375,-10, -4, -2, -3, -3, -5, -8, -9
1503945641992,+0.859,+0.484,+0.168,+0.004,+0.882,-0.309,-0.452,+3.062,+5.312,+12.250,-9, -2, 4, 3, -6, -4, -1, 1
1503945642010,+0.859,+0.483,+0.169,+0.003,+0.833,-0.302,-0.456,+2.188,-3.125,+8.500,-3, -3, -2, -1, -1, -2, 1, -1
1503945642029,+0.859,+0.483,+0.170,+0.003,+0.773,-0.257,-0.445,+6.062,+3.000,+5.062,-1, 2, 2, 1, 12, -4, -3, 4
1503945642053,+0.858,+0.484,+0.173,+0.005,+0.811,-0.336,-0.457,+17.562,+10.188,-4.688,-8, -1, 14, 14, -4, 0, 3, -14
1503945642068,+0.857,+0.484,+0.176,+0.007,+0.903,-0.385,-0.469,+17.188,+2.812,-10.688,16, 3, -5, -8, -6, 0, -2, 2
1503945642089,+0.857,+0.483,+0.177,+0.011,+0.869,-0.329,-0.420,+15.000,-10.312,-13.062,-2, 2, -2, 0, 9, 1, 3, 2
1503945642112,+0.858,+0.481,+0.179,+0.016,+0.788,-0.320,-0.435,+21.312,-17.688,-20.250,6, -4, -4, -2, 16, 2, -4, 11
1503945642127,+0.859,+0.479,+0.181,+0.022,+0.746,-0.336,-0.464,+25.438,-12.688,-27.375,-11, -4, -9, -8, -18, -4, 0, -23
1503945642157,+0.859,+0.478,+0.183,+0.029,+0.810,-0.323,-0.419,+26.062,-12.562,-30.500,-16, -10, 4, -1, -5, 0, 1, 13
1503945642172,+0.858,+0.477,+0.185,+0.036,+0.862,-0.303,-0.369,+26.062,-14.625,-33.812,9, 1, 4, 6, -3, -3, 3, 17
1503945642188,+0.859,+0.475,+0.186,+0.043,+0.859,-0.314,-0.394,+24.562,-22.375,-31.750,4, -4, -6, 0, -8, -2, -2, -12
1503945642212,+0.860,+0.472,+0.188,+0.049,+0.800,-0.290,-0.452,+21.375,-20.062,-25.625,15, 1, -2, 1, 0, -2, -7, 0
1503945642232,+0.859,+0.473,+0.189,+0.054,+0.773,-0.263,-0.446,+21.500,+1.125,-22.375,8, 5, 0, -1, 8, -1, 1, 4
1503945642249,+0.857,+0.474,+0.191,+0.059,+0.938,-0.252,-0.436,+22.938,+5.250,-21.500,-4, -3, 1, -4, 5, 7, 0, -5
1503945642270,+0.858,+0.472,+0.192,+0.066,+0.999,-0.273,-0.465,+26.625,-23.000,-23.625,6, 3, -1, -6, -3, 0, -6, 2
1503945642292,+0.859,+0.467,+0.194,+0.072,+0.910,-0.305,-0.450,+25.500,-37.875,-20.688,10, 5, -8, -3, 31, -3, -2, 3
1503945642308,+0.860,+0.464,+0.197,+0.075,+0.780,-0.258,-0.473,+19.812,-13.750,-6.188,-1, 1, 3, 6, -1, 0, -3, -2
1503945642329,+0.859,+0.465,+0.200,+0.077,+0.842,-0.260,-0.460,+21.000,+5.438,-2.375,24, 1, 8, -3, -5, 0, 4, 24
1503945642352,+0.858,+0.465,+0.203,+0.080,+0.983,-0.276,-0.443,+21.938,-6.750,-4.562,-13, -5, -5, -2, -4, 0, -2, -8
1503945642368,+0.859,+0.461,+0.205,+0.084,+0.926,-0.273,-0.436,+22.562,-24.250,-8.312,-13, -16, 1, 1, -7, -3, -4, -9
1503945642390,+0.860,+0.459,+0.208,+0.087,+0.842,-0.269,-0.421,+20.312,-21.000,-4.875,7, 10, -2, -1, -3, 2, -1, -1
1503945642415,+0.859,+0.458,+0.210,+0.089,+0.840,-0.296,-0.415,+16.375,-6.875,-0.500,-6, 7, -14, -7, -3, 1, -2, -5
1503945642428,+0.859,+0.457,+0.212,+0.091,+0.859,-0.291,-0.460,+12.688,-6.312,-2.875,-30, -5, -7, -2, 0, -2, -5, -9
1503945642455,+0.859,+0.456,+0.213,+0.094,+0.851,-0.248,-0.455,+12.938,-8.625,-10.812,5, 7, -2, 4, -2, -2, 2, 6
1503945650722,+0.766,+0.609,+0.175,+0.109,+0.948,-0.075,-0.147,+4.312,+11.562,-12.250,-31, -10, -8, -4, -2, -3, -3, -3
1503945650736,+0.765,+0.610,+0.174,+0.110,+0.936,-0.080,-0.160,-0.500,+7.312,-6.750,8, 11, 24, 3, 2, 2, 0, 1
1503945650760,+0.765,+0.611,+0.173,+0.109,+0.945,-0.095,-0.161,-5.062,+7.625,-2.250,-8, -1, -7, -2, 0, 4, 1, 0
1503945650774,+0.763,+0.613,+0.173,+0.109,+0.994,-0.118,-0.143,-3.375,+14.188,-0.750,3, -1, -3, -1, 1, 4, 0, 2
1503945650797,+0.762,+0.614,+0.173,+0.109,+1.022,-0.113,-0.167,-3.188,+7.312,-0.500,9, -7, -6, -2, -2, -5, -1, 0
1503945650812,+0.764,+0.612,+0.172,+0.110,+0.986,-0.109,-0.164,-1.500,-13.062,-5.688,8, -5, -5, -1, 0, 0, 0, 0
1503945650834,+0.766,+0.610,+0.170,+0.111,+0.929,-0.105,-0.156,-2.062,-18.125,-6.812,-6, 4, 1, -1, -2, 0, -2, -1
1503945650857,+0.766,+0.610,+0.169,+0.112,+0.935,-0.115,-0.132,-3.938,-3.188,-6.438,-14, -1, 0, 1, -2, -4, -1, 0
1503945650873,+0.764,+0.612,+0.169,+0.112,+0.979,-0.094,-0.140,-1.188,+14.375,-5.688,-4, -2, -1, -1, -2, -1, -3, -2
1503945650895,+0.764,+0.613,+0.168,+0.113,+1.050,-0.072,-0.174,+1.500,+5.562,-3.125,-12, -4, -4, -1, 0, -2, -1, -3
1503945650917,+0.764,+0.612,+0.168,+0.115,+1.031,-0.081,-0.143,+4.125,-9.312,-7.938,31, 18, 22, 3, 1, 4, 1, 2
1503945650932,+0.765,+0.611,+0.167,+0.117,+0.986,-0.099,-0.137,+3.312,-13.188,-6.875,-1, 1, -7, 1, -1, -2, -1, -5
1503945650955,+0.765,+0.611,+0.167,+0.118,+0.969,-0.110,-0.134,+1.375,-1.500,-2.000,-6, 1, -4, -2, -5, -14, -5, -1
1503945650977,+0.764,+0.612,+0.168,+0.118,+1.013,-0.113,-0.151,+0.062,+9.625,-0.188,-23, 0, 3, 1, 0, 3, 0, -3
1503945650992,+0.764,+0.612,+0.168,+0.118,+1.050,-0.104,-0.163,-0.812,-0.062,+1.562,22, -3, -9, -4, -1, -1, -1, 0
1503945651014,+0.765,+0.610,+0.168,+0.118,+1.018,-0.120,-0.126,+0.562,-13.500,+3.250,-8, 0, -1, -1, -2, -2, 2, 4
1503945651036,+0.766,+0.609,+0.169,+0.117,+1.006,-0.151,-0.101,-2.625,-9.188,+6.312,1, 1, 3, 0, -2, 2, 2, 3
1503945651059,+0.765,+0.611,+0.169,+0.115,+1.001,-0.136,-0.142,-6.938,+11.688,+7.438,4, -4, -4, -2, 1, 0, 2, 0
1503945651074,+0.765,+0.611,+0.169,+0.113,+1.015,-0.103,-0.155,-4.938,+2.438,+5.062,14, -1, -2, -2, -1, 2, -1, -1
1503945651097,+0.767,+0.609,+0.169,+0.113,+1.038,-0.139,-0.166,-3.812,-16.000,+3.625,-10, -3, -4, -3, 0, 1, -2, -1
1503945651112,+0.768,+0.607,+0.169,+0.113,+0.996,-0.153,-0.143,-7.125,-17.062,+0.562,-19, 13, 8, 4, 3, -4, -4, -5
1503945651134,+0.769,+0.606,+0.167,+0.113,+0.942,-0.110,-0.174,-6.438,-9.125,-4.000,-13, -1, 2, -2, -3, 1, 2, 4
1503945651157,+0.771,+0.604,+0.166,+0.114,+0.944,-0.109,-0.212,-2.188,-10.250,-3.062,6, 2, 4, 1, 0, -2, -2, -1
1503945651172,+0.772,+0.603,+0.166,+0.114,+0.979,-0.151,-0.140,-2.625,-10.812,-1.625,9, -3, -8, -2, -3, -9, 2, -1
1503945651194,+0.773,+0.602,+0.166,+0.114,+0.990,-0.133,-0.185,-1.875,-6.812,-2.812,6, -1, -4, -1, -1, 2, -1, 0
1503945651217,+0.773,+0.601,+0.165,+0.115,+0.958,-0.110,-0.232,-1.125,-3.938,-4.875,3, -5, -6, -2, -1, 0, -2, -2
1503945651232,+0.775,+0.599,+0.166,+0.116,+0.990,-0.130,-0.220,+5.250,-12.562,-2.000,5, 7, 7, 2, 0, 0, -3, -3
1503945651256,+0.777,+0.596,+0.167,+0.116,+1.041,-0.173,-0.205,+4.312,-19.000,+6.250,-7, -5, 0, -1, 0, 4, 3, 3
1503945651276,+0.778,+0.595,+0.168,+0.115,+0.985,-0.159,-0.167,-0.312,-12.562,+7.812,23, -3, -3, -1, -2, 1, -1, 0
1503945651292,+0.779,+0.592,+0.169,+0.115,+0.958,-0.114,-0.232,+5.188,-12.000,+4.688,29, 3, 1, 2, -1, -2, -5, -6
1503945651314,+0.781,+0.590,+0.170,+0.117,+0.972,-0.141,-0.272,+9.125,-13.938,+1.500,11, 11, 4, -1, -1, 1, 1, 3
1503945651336,+0.782,+0.587,+0.171,+0.118,+0.962,-0.152,-0.229,+7.688,-13.875,-2.438,-11, -2, -2, -4, -1, -2, -1, 0
1503945651352,+0.782,+0.586,+0.172,+0.120,+0.982,-0.154,-0.162,+11.812,-11.375,-4.938,-8, -5, -7, -1, 0, -1, 2, 1
1503945651374,+0.784,+0.584,+0.174,+0.121,+1.060,-0.164,-0.187,+11.562,-17.438,+4.500,5, 0, 3, -1, -1, -2, 1, -6
1503945651397,+0.786,+0.580,+0.176,+0.122,+1.010,-0.108,-0.225,+8.000,-22.875,+6.688,-11, -2, 14, 7, 1, 2, 1, 4
1503945651419,+0.788,+0.577,+0.176,+0.124,+0.887,-0.069,-0.247,+7.125,-25.812,+0.562,18, 6, -10, -1, 1, 0, -2, -1
1503945651434,+0.789,+0.575,+0.177,+0.125,+0.909,-0.145,-0.191,+5.750,-12.688,-0.312,2, -13, -9, 1, -2, 1, 2, 1
1503945651460,+0.789,+0.574,+0.177,+0.125,+1.002,-0.146,-0.194,+1.875,-6.000,+1.438,5, 2, -3, -4, -2, 6, -2, -2
1503945651479,+0.790,+0.574,+0.177,+0.126,+0.985,-0.065,-0.243,+2.062,-5.875,-1.625,-1, -3, -4, 0, -2, 2, 1, 0
1503945651495,+0.790,+0.573,+0.176,+0.128,+0.897,-0.062,-0.239,+5.062,-8.188,-3.125,6, 4, -1, -3, -1, 0, -1, 0
1503945651516,+0.790,+0.572,+0.176,+0.129,+0.960,-0.100,-0.152,+2.500,-9.062,-4.188,-2, -4, -16, -3, -2, -1, -3, -8
1503945651533,+0.791,+0.572,+0.176,+0.130,+1.010,-0.072,-0.242,+0.875,-5.000,-3.938,-1, -9, -6, -3, -1, 0, 2, 1
1503945651554,+0.792,+0.569,+0.174,+0.133,+0.939,-0.022,-0.265,+2.375,-18.562,-4.062,-11, -2, 1, -2, -1, 1, -2, 2
1503945651576,+0.794,+0.568,+0.173,+0.134,+0.931,-0.083,-0.186,-4.500,-19.812,-4.750,9, 5, 3, 0, 3, 1, -4, -13
1503945651600,+0.794,+0.568,+0.172,+0.134,+0.952,-0.102,-0.227,-5.062,-2.625,-2.625,12, -4, -4, -2, 0, -2, -1, -2
1503945651614,+0.795,+0.566,+0.171,+0.134,+1.003,-0.103,-0.278,-5.250,-12.125,+0.250,3, 0, -1, 1, 0, 2, 1, -2
1503945651637,+0.797,+0.564,+0.168,+0.134,+0.989,-0.086,-0.224,-12.938,-22.438,-3.312,19, -4, -12, -5, -2, 1, -3, 1
1503945651660,+0.800,+0.561,+0.165,+0.134,+0.933,-0.078,-0.243,-12.688,-24.750,-5.062,-12, -8, 2, 0, -1, 0, -1, -2
1503945651681,+0.802,+0.558,+0.163,+0.134,+0.956,-0.068,-0.311,-12.188,-21.312,+0.438,0, -1, -3, -2, 0, 0, -2, -1
1503945651704,+0.804,+0.556,+0.161,+0.133,+0.945,-0.069,-0.311,-12.000,-16.625,+5.000,7, 3, 3, -3, -3, 0, -2, 0
1503945660726,+0.831,+0.543,+0.089,-0.076,+0.875,-0.173,-0.349,-11.438,-16.938,+6.312,9, -1, -4, 1, -1, 1, 2, 4
1503945660749,+0.832,+0.542,+0.087,-0.077,+0.886,-0.134,-0.334,-14.000,-8.062,+4.312,-7, -3, 0, -1, -1, 1, 0, -9
1503945660764,+0.834,+0.540,+0.085,-0.078,+0.916,-0.117,-0.396,-13.375,-9.312,+6.688,13, 5, -4, 0, -2, -2, -3, 6
1503945660788,+0.836,+0.536,+0.084,-0.080,+0.895,-0.173,-0.429,-13.938,-19.188,+11.438,3, 1, 0, 0, -1, -3, -2, -4
1503945660801,+0.839,+0.532,+0.083,-0.083,+0.877,-0.210,-0.390,-13.000,-28.875,+13.812,4, -4, 10, 2, 1, -1, 0, 1
1503945660831,+0.839,+0.530,+0.084,-0.086,+0.887,-0.250,-0.305,-11.000,-13.688,+14.000,-1, -5, -8, -1, 1, 1, -2, 0
1503945660846,+0.839,+0.530,+0.083,-0.089,+0.885,-0.250,-0.374,-13.438,+0.500,+10.812,11, 3, -3, -4, -2, -4, -1, 4
1503945660862,+0.839,+0.530,+0.082,-0.090,+0.866,-0.220,-0.432,-10.438,+5.250,+2.062,-2, -2, -4, 0, -1, -3, 1, 7
1503945660884,+0.839,+0.531,+0.081,-0.089,+0.887,-0.200,-0.392,-3.812,+5.938,-7.188,-6, 1, -3, 0, 2, -2, -2, 0
1503945660906,+0.837,+0.534,+0.080,-0.088,+0.918,-0.227,-0.379,+3.688,+19.250,-6.062,0, 4, -3, 1, -1, 1, -1, 3
1503945660921,+0.835,+0.537,+0.081,-0.086,+0.903,-0.251,-0.370,+10.375,+19.500,-12.375,-6, -4, -4, -2, -3, 0, 1, -2
1503945660944,+0.834,+0.540,+0.081,-0.081,+0.912,-0.268,-0.359,+15.000,+17.125,-22.188,-7, -2, -1, -1, -3, -3, -4, -20
1503945660967,+0.832,+0.543,+0.082,-0.076,+0.917,-0.264,-0.381,+21.938,+16.625,-27.125,2, 0, 5, 3, 0, -1, 1, 0
1503945660981,+0.831,+0.545,+0.084,-0.070,+0.890,-0.269,-0.411,+27.062,+15.500,-24.750,-2, -6, 1, -2, -2, 1, 1, 3
1503945661004,+0.830,+0.547,+0.087,-0.065,+0.950,-0.286,-0.338,+28.188,+7.125,-20.312,-16, -4, -4, -2, 1, 0, 0, -9
1503945661026,+0.829,+0.548,+0.090,-0.061,+0.980,-0.306,-0.294,+24.438,+2.438,-16.125,4, 6, 8, 1, -2, -3, 1, 6
1503945661041,+0.828,+0.549,+0.092,-0.057,+0.905,-0.289,-0.290,+21.688,+2.062,-19.438,34, 3, -4, 0, 0, -3, 2, 3
1503945661064,+0.829,+0.549,+0.094,-0.052,+0.913,-0.239,-0.281,+20.125,-9.688,-21.062,-5, 3, -2, -3, -2, 1, -2, 2
1503945661095,+0.831,+0.546,+0.095,-0.048,+0.936,-0.238,-0.293,+16.125,-26.062,-17.438,-6, -1, 2, -2, 0, 0, -1, 7
1503945661101,+0.832,+0.545,+0.095,-0.046,+0.889,-0.236,-0.303,+1.125,-13.875,-12.938,-8, 2, -1, 0, 1, 0, -2, 2
1503945661124,+0.832,+0.545,+0.094,-0.045,+0.882,-0.172,-0.335,-3.938,+0.062,-7.500,0, -3, -2, 0, -1, 0, 0, 3
1503945661146,+0.833,+0.544,+0.092,-0.043,+0.951,-0.146,-0.343,-0.062,-9.438,-8.688,-38, -10, -5, -1, 0, -2, -3, -4
1503945661170,+0.835,+0.541,+0.092,-0.041,+0.985,-0.196,-0.312,-2.062,-25.062,-7.875,-17, 3, 6, -3, -2, 0, -1, 6
1503945661184,+0.837,+0.539,+0.090,-0.040,+0.908,-0.170,-0.355,-5.688,-17.000,-6.875,9, 0, 0, -1, -2, 1, -1, 3
1503945661206,+0.839,+0.536,+0.089,-0.039,+0.863,-0.132,-0.388,-5.938,-17.875,-4.750,13, 0, -3, -1, -1, 11, 0, -12
1503945661232,+0.839,+0.535,+0.088,-0.040,+0.910,-0.168,-0.386,-6.688,-6.562,+0.438,11, -6, -2, -1, -1, -2, 0, 2
1503945661243,+0.839,+0.535,+0.087,-0.040,+0.966,-0.183,-0.393,-5.438,+0.812,-1.688,-6, -3, -2, -1, 0, 1, -1, -3
1503945661261,+0.840,+0.534,+0.086,-0.039,+0.981,-0.172,-0.382,-1.875,-7.312,-1.188,15, 5, -9, -3, -2, -6, -2, -15
1503945661281,+0.841,+0.533,+0.086,-0.039,+0.974,-0.183,-0.372,-3.188,-14.062,+0.125,2, 3, -3, 1, -2, -4, 0, 6
1503945661304,+0.842,+0.531,+0.086,-0.039,+0.933,-0.205,-0.370,-2.750,-14.562,-1.312,-3, -15, -4, 4, 0, -6, -5, -11
1503945661319,+0.843,+0.529,+0.086,-0.038,+0.898,-0.214,-0.400,+2.312,-10.938,-5.250,0, -2, -3, -3, -3, 1, 0, 3
1503945661348,+0.844,+0.528,+0.086,-0.037,+0.905,-0.178,-0.394,+3.000,-10.500,-7.312,-2, 1, 1, -3, 0, -2, -3, 1
1503945661368,+0.845,+0.526,+0.087,-0.036,+0.904,-0.184,-0.392,+2.438,-8.125,-1.375,4, 1, 25, 7, -1, -1, 0, 3
1503945669892,+0.853,+0.504,+0.083,-0.108,+0.832,-0.384,-0.426,+16.312,-26.938,-5.938,-22, -4, -5, 0, -3, 3, -1, -3
1503945669907,+0.853,+0.503,+0.087,-0.108,+0.807,-0.435,-0.385,+12.375,-9.688,+1.812,-4, -10, 1, -5, 0, -2, -1, -1
1503945669929,+0.852,+0.505,+0.090,-0.110,+0.795,-0.351,-0.400,+5.188,+13.000,+9.688,3, 0, 2, 1, 1, -2, 0, -1
1503945669953,+0.849,+0.508,+0.092,-0.111,+0.803,-0.303,-0.428,+7.125,+24.375,+6.000,9, 8, 3, 2, 1, 0, -6, -11
1503945669967,+0.847,+0.512,+0.093,-0.111,+0.862,-0.288,-0.385,+7.875,+22.625,+3.062,1, 11, 12, 1, 0, 1, 1, 3
1503945669989,+0.843,+0.517,+0.093,-0.112,+0.954,-0.273,-0.331,+2.250,+31.938,+3.875,13, -8, -3, -1, -2, -1, 0, 2
1503945670012,+0.840,+0.522,+0.092,-0.112,+0.955,-0.191,-0.346,-1.812,+27.812,+6.500,-4, -2, -1, -2, -2, 0, 0, 2
1503945670027,+0.839,+0.524,+0.091,-0.112,+0.920,-0.175,-0.365,-1.062,+10.062,+4.688,-3, -2, 0, 0, 1, -3, -2, -2
1503945670052,+0.839,+0.524,+0.090,-0.113,+0.925,-0.181,-0.358,-6.000,+1.125,+3.188,-1, 6, -2, 0, -1, 0, -3, -2
1503945670071,+0.838,+0.527,+0.088,-0.114,+0.900,-0.130,-0.353,-10.000,+14.625,+6.438,0, -5, -4, -2, 0, -1, 1, 3
1503945670087,+0.836,+0.529,+0.085,-0.116,+0.920,-0.162,-0.375,-14.312,+19.125,+10.250,1, -3, -4, 0, 0, -2, -1, -1
1503945670110,+0.834,+0.532,+0.083,-0.119,+1.026,-0.198,-0.347,-18.562,+12.375,+15.250,-10, -4, -7, -3, -2, 1, 0, -1
1503945670131,+0.834,+0.532,+0.081,-0.123,+0.986,-0.194,-0.336,-22.438,-0.062,+18.188,3, 9, 8, 2, 0, -2, -2, -1
1503945670147,+0.835,+0.530,+0.078,-0.127,+0.904,-0.243,-0.381,-24.312,-6.188,+11.875,1, -4, 0, -2, 1, -2, 0, -2
1503945670169,+0.835,+0.529,+0.075,-0.130,+0.883,-0.216,-0.409,-30.375,-5.500,+8.938,2, -1, -8, -2, -1, 0, 1, 1
1503945670192,+0.836,+0.527,+0.072,-0.134,+0.859,-0.210,-0.445,-27.625,-2.500,+10.938,4, 1, -4, -2, -2, -1, 0, -1
1503945670207,+0.836,+0.526,+0.069,-0.138,+0.897,-0.274,-0.450,-26.812,+0.812,+13.812,-8, 2, 1, 0, -2, -1, 1, -1
1503945670229,+0.836,+0.526,+0.067,-0.143,+0.876,-0.298,-0.391,-29.750,+6.812,+14.688,-2, -5, -3, -1, -2, -1, 0, -3
1503945670253,+0.835,+0.526,+0.064,-0.147,+0.858,-0.263,-0.380,-25.625,+3.375,+9.000,0, 1, 2, 0, 0, -3, 1, 2
1503945670267,+0.836,+0.524,+0.062,-0.149,+0.843,-0.266,-0.440,-18.875,-5.375,+4.250,11, -5, 5, 2, 1, 1, -4, -4
1503945670290,+0.837,+0.522,+0.059,-0.150,+0.806,-0.256,-0.456,-18.125,-5.500,-6.000,4, 3, 0, -1, -2, -2, 0, 1
1503945670311,+0.839,+0.521,+0.056,-0.149,+0.790,-0.238,-0.475,-13.125,-1.062,-14.188,5, 2, -2, -3, 0, 0, 0, -1
1503945670327,+0.839,+0.520,+0.055,-0.147,+0.848,-0.258,-0.462,-4.938,+1.250,-16.875,3, 1, -4, -1, 0, 1, -2, -3
1503945670349,+0.840,+0.520,+0.054,-0.144,+0.901,-0.233,-0.470,+5.250,-4.938,-16.062,5, 9, 10, 3, 0, 1, -2, 2
1503945670372,+0.841,+0.519,+0.055,-0.141,+0.887,-0.247,-0.454,+12.438,-7.500,-16.000,-1, -6, -6, 1, -3, -1, -2, -4
1503945670388,+0.844,+0.516,+0.057,-0.137,+0.877,-0.233,-0.456,+19.312,-19.750,-15.812,1, -1, 3, 2, 0, 0, -5, -2
1503945670410,+0.846,+0.513,+0.059,-0.131,+0.859,-0.199,-0.495,+24.000,-24.062,-20.062,-4, -6, -13, -3, -1, -2, 0, -2
1503945670433,+0.849,+0.509,+0.061,-0.124,+0.860,-0.181,-0.488,+30.938,-28.188,-24.250,2, -3, -8, -3, -2, -1, 1, 1
1503945670447,+0.852,+0.506,+0.066,-0.117,+0.849,-0.227,-0.478,+39.000,-28.375,-23.000,1, -4, 4, -1, -1, -4, 0, -2
1503945670469,+0.854,+0.503,+0.071,-0.112,+0.830,-0.285,-0.388,+36.000,-27.562,-16.688,-6, -3, -3, -2, -3, 1, 0, 0
1503945670493,+0.855,+0.502,+0.075,-0.108,+0.864,-0.293,-0.381,+25.750,-17.312,-9.125,-7, -3, 2, 1, -2, 0, -2, 1
1503945670507,+0.855,+0.501,+0.079,-0.105,+0.837,-0.253,-0.471,+25.375,-3.000,-6.250,20, 2, -4, 1, -1, -1, -4, -4
1503945670530,+0.856,+0.500,+0.083,-0.102,+0.822,-0.230,-0.499,+30.812,-5.375,-5.375,-7, -9, -8, -2, 1, -1, 1, 1
1503945679694,+0.825,+0.545,+0.132,-0.073,+0.870,-0.270,-0.333,+13.188,+16.500,-1.062,1, 1, -1, -4, -2, -2, -2, 0
1503945679716,+0.823,+0.547,+0.133,-0.072,+0.938,-0.294,-0.319,+9.562,+16.312,-2.938,-1, -2, 4, 1, 0, 1, 0, -4
1503945679738,+0.822,+0.549,+0.134,-0.070,+0.931,-0.277,-0.333,+9.812,+7.000,-4.438,12, 2, -4, -6, -1, 0, 0, -1
1503945679756,+0.823,+0.548,+0.134,-0.068,+0.836,-0.277,-0.320,+8.688,-5.812,-8.625,-6, -3, 2, 1, -2, -1, 1, -2
1503945679776,+0.823,+0.549,+0.134,-0.066,+0.840,-0.272,-0.329,+4.938,+5.375,-13.000,-3, 1, -1, -1, -3, -2, 0, -1
1503945679798,+0.822,+0.549,+0.133,-0.064,+0.893,-0.259,-0.358,+2.250,+6.000,-11.875,-15, -1, 1, 2, 1, 1, 0, -1
1503945679814,+0.823,+0.550,+0.131,-0.062,+0.906,-0.259,-0.310,-2.375,-1.812,-15.562,-23, -3, 1, -1, -3, -4, -1, -2
1503945679836,+0.824,+0.548,+0.128,-0.060,+0.924,-0.244,-0.308,-8.062,-13.062,-15.938,-4, -2, -2, -2, 1, 0, -2, -3
1503945679859,+0.826,+0.546,+0.126,-0.059,+0.872,-0.224,-0.355,-8.875,-14.375,-9.188,11, 0, -1, 0, 1, -1, -1, -2
1503945679874,+0.827,+0.545,+0.123,-0.057,+0.860,-0.197,-0.382,-9.312,-7.625,-10.188,1, -2, 2, 1, -2, -1, 0, -1
1503945679896,+0.829,+0.543,+0.120,-0.055,+0.912,-0.169,-0.345,-6.625,-14.750,-15.438,2, 2, -3, -2, -1, -1, -2, -1
1503945679920,+0.832,+0.540,+0.118,-0.053,+0.955,-0.218,-0.303,-6.938,-27.000,-14.438,2, -1, -4, -4, -1, -1, -1, 0
1503945679934,+0.834,+0.538,+0.116,-0.051,+0.966,-0.203,-0.366,-9.125,-20.062,-12.125,1, 3, 4, 0, 2, 1, -1, -1
1503945679958,+0.837,+0.533,+0.112,-0.048,+0.938,-0.104,-0.451,-6.500,-28.938,-12.312,27, 2, -3, 0, 0, -2, -2, 0
1503945679978,+0.842,+0.525,+0.112,-0.045,+0.922,-0.140,-0.377,+3.250,-58.125,-8.938,-7, 1, 0, -2, -1, -4, 0, 0
1503945679995,+0.846,+0.519,+0.111,-0.043,+0.848,-0.244,-0.396,-3.938,-43.938,-11.375,-2, -4, -3, -1, -1, -1, 1, -2
1503945680016,+0.848,+0.517,+0.109,-0.043,+0.809,-0.171,-0.396,-14.062,-11.812,-0.188,18, -3, -1, 0, -1, 1, -2, -2
1503945680038,+0.849,+0.516,+0.109,-0.046,+0.900,-0.169,-0.504,-7.875,+0.812,+19.812,-1, -2, -1, -1, 0, 0, 0, -3
1503945680059,+0.849,+0.515,+0.108,-0.048,+0.993,-0.213,-0.371,-7.625,-10.688,+11.438,5, 4, -1, -1, 0, -1, -2, 0
1503945680077,+0.851,+0.511,+0.108,-0.048,+0.905,-0.212,-0.382,-4.000,-28.188,+5.688,-23, -2, 5, -2, 0, 2, -3, -4
1503945680098,+0.853,+0.508,+0.109,-0.049,+0.820,-0.234,-0.404,-1.125,-22.688,+4.438,13, 3, -1, 1, 0, -1, 2, -2
1503945680114,+0.854,+0.507,+0.109,-0.050,+0.802,-0.269,-0.382,-8.812,-3.750,+4.062,9, 1, -1, 1, 0, 1, -2, -3
1503945680136,+0.852,+0.509,+0.108,-0.052,+0.878,-0.266,-0.405,-7.438,+13.688,+1.938,-16, -11, -2, 0, 0, -1, 0, -1
1503945680159,+0.852,+0.510,+0.109,-0.052,+0.935,-0.275,-0.459,-0.750,+7.938,+0.375,0, 0, -3, -1, -1, -3, -2, -3
1503945680174,+0.852,+0.509,+0.109,-0.052,+0.917,-0.299,-0.411,-0.312,-9.875,+0.125,5, 2, -1, -1, 0, -1, -1, 2
1503945680196,+0.853,+0.508,+0.110,-0.051,+0.879,-0.318,-0.363,+0.500,-12.062,-7.562,-5, 0, 3, 0, -3, 1, -1, -2
1503945680218,+0.853,+0.507,+0.110,-0.049,+0.845,-0.272,-0.379,+2.750,-3.750,-12.812,-23, 1, -7, -3, -2, -4, -3, -3
1503945680234,+0.853,+0.507,+0.111,-0.046,+0.868,-0.287,-0.453,+9.312,-1.688,-13.375,20, -1, 16, 5, 3, 1, 1, -1
1503945680260,+0.854,+0.505,+0.113,-0.043,+0.871,-0.289,-0.500,+15.562,-8.812,-11.188,-4, -1, -3, 0, -1, -2, -3, -2
1503945680278,+0.855,+0.504,+0.116,-0.039,+0.897,-0.301,-0.435,+22.375,-16.250,-16.625,-7, -2, 0, -2, 0, -1, 3, 1
1503945680295,+0.856,+0.502,+0.119,-0.035,+0.917,-0.302,-0.402,+23.688,-17.125,-13.875,-5, 1, -4, 0, 0, -2, 1, -3
1503945680316,+0.856,+0.501,+0.123,-0.033,+0.875,-0.294,-0.404,+22.812,-6.875,-3.250,-20, -1, -8, 1, 0, -4, -1, -6
1503945680338,+0.855,+0.501,+0.128,-0.031,+0.849,-0.315,-0.457,+28.688,+3.562,+2.625,10, 0, 2, -1, -3, -3, -1, 2
1503945680368,+0.854,+0.502,+0.133,-0.028,+0.903,-0.310,-0.445,+32.000,+2.438,-4.188,4, -1, -1, -1, -1, 0, -1, 0
1503945680376,+0.855,+0.500,+0.138,-0.023,+0.913,-0.293,-0.377,+35.625,-19.688,-8.938,-1, 0, -2, 0, 0, 0, 1, -1
1503945680398,+0.856,+0.497,+0.142,-0.018,+0.875,-0.277,-0.363,+32.625,-27.062,-10.750,2, -3, -4, -3, -2, -1, -2, -2
1503945680414,+0.856,+0.495,+0.146,-0.013,+0.792,-0.263,-0.426,+30.375,-13.188,-13.438,7, -2, -2, -2, -2, 0, 2, -1
1503945687762,+0.759,+0.629,+0.153,+0.070,+0.999,-0.151,-0.117,-14.375,+0.688,+12.812,10, -1, 0, 3, -1, -2, 2, 0
1503945687785,+0.760,+0.628,+0.153,+0.068,+1.027,-0.142,-0.169,-8.500,-2.312,+9.500,19, -7, 0, -1, -1, 0, -4, -6
1503945687800,+0.761,+0.626,+0.153,+0.067,+0.948,-0.122,-0.192,-3.812,-6.750,+3.562,-3, -8, 4, -2, -2, -3, 1, 2
1503945687822,+0.763,+0.624,+0.153,+0.068,+0.917,-0.156,-0.175,+2.000,-9.938,+1.062,3, 2, -5, -3, -2, -1, 0, 0
1503945687838,+0.763,+0.624,+0.154,+0.067,+0.951,-0.188,-0.163,+3.000,-1.875,+3.312,-3, 2, 15, 8, 4, 1, 2, 0
1503945687860,+0.763,+0.624,+0.155,+0.068,+0.949,-0.162,-0.128,+4.188,+5.000,+0.562,-13, -2, -3, -1, -3, -1, 0, -2
1503945687882,+0.763,+0.624,+0.156,+0.069,+0.973,-0.156,-0.133,+7.625,+0.438,-2.000,-3, -6, -5, -3, -1, 1, -2, 0
1503945687898,+0.763,+0.623,+0.157,+0.071,+0.998,-0.166,-0.140,+9.500,-4.312,-7.938,0, 0, -4, -3, -4, -1, 0, 1
1503945687920,+0.763,+0.623,+0.157,+0.073,+0.962,-0.175,-0.122,+9.000,-5.750,-12.812,17, 0, 3, -1, -1, -2, -2, 1
1503945687945,+0.763,+0.622,+0.157,+0.075,+0.958,-0.170,-0.103,+4.250,-8.562,-10.125,4, -1, -4, -1, -3, 1, -4, -12
1503945687958,+0.763,+0.622,+0.157,+0.076,+0.968,-0.162,-0.099,+2.812,-2.750,-6.000,2, -4, -5, -4, -1, 0, -1, 1
1503945687981,+0.762,+0.624,+0.156,+0.078,+0.925,-0.116,-0.138,+2.688,+14.312,-12.875,-5, 1, -4, 0, -1, 0, -3, 2
1503945688002,+0.759,+0.627,+0.154,+0.081,+0.929,-0.068,-0.142,+2.688,+17.375,-20.188,-6, -1, 1, 0, -2, -1, 1, 1
1503945688025,+0.757,+0.629,+0.153,+0.083,+1.002,-0.081,-0.106,+3.312,+16.812,-12.375,-3, -3, -3, -1, 0, -3, 1, -2
1503945688040,+0.756,+0.631,+0.153,+0.083,+1.057,-0.072,-0.104,-0.188,+11.125,+2.625,-8, 3, -1, -1, -3, 0, -3, 0
1503945688062,+0.756,+0.632,+0.152,+0.082,+0.979,-0.028,-0.123,-8.062,+5.750,+4.375,3, -1, -6, -1, -1, -2, 1, 3
1503945688085,+0.755,+0.633,+0.151,+0.081,+1.008,-0.046,-0.080,-11.812,+5.438,+3.125,-10, -7, -1, 2, 4, 1, 1, 0
1503945688100,+0.756,+0.632,+0.149,+0.080,+1.035,-0.056,-0.164,-14.812,-4.062,+6.250,-4, 1, 1, -1, -2, -2, -1, -2
1503945688122,+0.760,+0.628,+0.147,+0.078,+1.013,-0.061,-0.162,-13.812,-25.938,+12.750,-1, -4, 0, 0, -2, -1, -2, -3
1503945688145,+0.763,+0.624,+0.146,+0.075,+0.947,-0.119,-0.118,-17.750,-30.375,+15.750,5, 2, -1, 0, -3, 2, -1, 1
1503945688160,+0.766,+0.622,+0.146,+0.072,+0.938,-0.136,-0.150,-16.438,-16.438,+11.625,7, 1, -4, -3, 0, -2, -2, 1
1503945688182,+0.766,+0.622,+0.145,+0.070,+0.940,-0.134,-0.158,-11.312,+1.375,+8.188,2, 3, 3, -1, -2, -2, -1, -3
1503945688205,+0.766,+0.622,+0.145,+0.068,+0.975,-0.157,-0.145,-6.125,+2.125,+4.062,-8, 4, 0, 0, 1, 1, -3, -3
1503945688220,+0.766,+0.623,+0.145,+0.068,+0.997,-0.211,-0.120,-3.062,+5.188,-2.750,11, -6, -2, -2, -1, 0, -1, -2
1503945688244,+0.764,+0.625,+0.146,+0.068,+0.997,-0.238,-0.097,+0.062,+12.625,-7.875,-6, 0, 0, 1, -1, -1, -2, 0
1503945688265,+0.762,+0.627,+0.146,+0.069,+1.006,-0.215,-0.107,+2.750,+15.188,-13.188,-3, 0, 4, 1, -1, -1, 0, -1
1503945688281,+0.760,+0.629,+0.146,+0.071,+1.026,-0.196,-0.110,+5.000,+14.938,-18.375,-1, -1, -4, 0, -1, -2, -2, -2
1503945688302,+0.758,+0.631,+0.145,+0.074,+1.052,-0.175,-0.130,+6.750,+9.688,-20.562,12, 3, 14, 1, 0, -2, 1, 2
1503945688325,+0.758,+0.632,+0.144,+0.077,+1.021,-0.145,-0.145,+7.625,+5.125,-18.500,-15, -7, -5, -4, -2, 0, 1, 0
1503945688340,+0.757,+0.632,+0.144,+0.080,+1.045,-0.137,-0.124,+8.938,-0.562,-13.562,-5, 1, -4, -1, 1, -1, 1, 0
1503945688362,+0.757,+0.632,+0.144,+0.081,+1.057,-0.146,-0.135,+4.438,-1.188,-10.000,0, 2, 5, -2, -3, -3, -2, 0
1503945688385,+0.758,+0.631,+0.144,+0.084,+1.027,-0.118,-0.088,+4.688,-9.625,-10.812,-5, 0, 2, -1, 1, 1, 0, -1
1503945688400,+0.759,+0.629,+0.143,+0.087,+1.005,-0.101,-0.120,+8.938,-16.438,-12.625,12, 4, -4, -1, -2, -2, -4, -1
1503945688422,+0.760,+0.628,+0.142,+0.090,+0.974,-0.090,-0.095,+6.938,-12.625,-15.500,-11, 2, 0, 1, -1, -4, -2, -4
1503945695369,+0.828,+0.542,+0.070,-0.127,+0.876,-0.266,-0.385,+7.875,+14.812,-7.062,8, 0, 2, 1, 3, 3, -1, 1
1503945695390,+0.827,+0.543,+0.070,-0.126,+0.886,-0.271,-0.375,+2.938,+13.438,-3.938,-6, -2, 4, 0, 0, -5, -1, -3
1503945695406,+0.826,+0.545,+0.070,-0.126,+0.875,-0.232,-0.358,+1.375,+9.562,-3.375,-3, -1, -4, 0, 0, -3, -3, 0
1503945695430,+0.826,+0.545,+0.069,-0.124,+0.918,-0.216,-0.365,+2.688,-0.250,-5.188,-13, -5, -10, -1, -3, 0, -1, -1
1503945695443,+0.827,+0.544,+0.069,-0.123,+0.878,-0.215,-0.383,+2.562,-1.812,-7.625,2, -1, -6, -3, -1, -1, -2, -1
1503945695467,+0.827,+0.544,+0.068,-0.122,+0.854,-0.223,-0.360,+1.062,-1.250,-6.562,-4, 1, 2, -1, -1, 0, 1, 0
1503945695488,+0.827,+0.545,+0.068,-0.121,+0.888,-0.218,-0.352,+0.188,+5.688,-4.000,2, -2, 2, -1, 0, 4, 0, 2
1503945695503,+0.826,+0.546,+0.067,-0.120,+0.922,-0.197,-0.359,-0.812,+9.438,-3.062,-9, -4, -5, 0, -1, -2, -2, -3
1503945695529,+0.826,+0.547,+0.066,-0.119,+0.933,-0.178,-0.354,+1.688,+3.062,-4.500,-15, -6, -7, -3, 0, -2, 0, 0
1503945695548,+0.826,+0.547,+0.066,-0.117,+0.911,-0.198,-0.348,+4.125,-2.625,-9.562,0, -1, -1, 1, -4, -1, 0, -1
1503945695564,+0.827,+0.546,+0.066,-0.115,+0.938,-0.207,-0.334,+4.500,-9.062,-9.938,-5, 1, 2, 0, -1, -1, -1, 1
1503945695586,+0.828,+0.545,+0.066,-0.113,+0.946,-0.219,-0.352,+3.500,-8.188,-5.188,0, -1, 2, 0, 0, 1, -1, 0
1503945695608,+0.828,+0.546,+0.065,-0.113,+0.945,-0.219,-0.341,-1.562,+0.188,-1.000,0, -2, -2, -2, -1, -2, -3, -3
1503945695623,+0.828,+0.546,+0.066,-0.113,+0.968,-0.226,-0.280,-1.250,-6.188,+1.812,2, 0, 6, -1, -2, 0, -1, 1
1503945695646,+0.828,+0.545,+0.065,-0.113,+0.949,-0.224,-0.326,-2.062,-9.625,-1.438,15, 6, -5, -3, -2, -2, -1, -1
1503945695668,+0.829,+0.544,+0.064,-0.112,+0.920,-0.205,-0.319,-7.938,-10.625,-3.625,3, 6, 5, 3, 0, 1, -1, 3
1503945695689,+0.831,+0.542,+0.063,-0.113,+0.907,-0.204,-0.379,-10.312,-11.250,+3.375,-3, -1, -4, -2, 0, -1, -3, -3
1503945695706,+0.831,+0.540,+0.063,-0.115,+0.935,-0.239,-0.388,-7.750,-8.875,+9.125,-6, -6, -2, -1, 0, -1, 0, -2
1503945695735,+0.832,+0.538,+0.063,-0.118,+0.902,-0.259,-0.418,-13.188,-7.625,+11.125,-7, -7, -2, 1, 0, -1, 2, 4
1503945695750,+0.833,+0.536,+0.064,-0.122,+0.874,-0.264,-0.399,-11.875,-7.000,+22.938,6, 1, 1, -1, -1, -2, 1, 0
1503945695766,+0.832,+0.536,+0.065,-0.127,+0.874,-0.276,-0.363,-12.438,+2.000,+25.438,0, -3, -2, 0, 1, 0, -1, -2
1503945695788,+0.830,+0.538,+0.066,-0.132,+0.901,-0.275,-0.341,-10.562,+11.312,+22.000,4, -3, 3, 2, -1, 0, -1, 0
1503945695817,+0.829,+0.539,+0.066,-0.135,+0.929,-0.285,-0.365,-6.812,+10.000,+15.812,-7, -1, -4, -4, -3, 1, 2, 3
1503945695826,+0.829,+0.539,+0.067,-0.136,+0.932,-0.289,-0.389,-2.875,-0.312,+10.750,-5, 1, -3, -2, -2, 1, 0, 0
1503945695848,+0.829,+0.537,+0.068,-0.137,+0.888,-0.271,-0.379,+1.312,-10.250,+3.625,-7, -1, 0, 2, -1, 0, -1, -1
1503945695871,+0.830,+0.536,+0.069,-0.136,+0.843,-0.270,-0.345,+2.812,-9.938,-3.438,-4, -3, -2, -2, -4, -5, -1, -1
1503945695886,+0.830,+0.537,+0.069,-0.135,+0.837,-0.265,-0.334,+3.062,+3.562,-3.875,8, 0, -4, -1, 2, 0, -2, -1
1503945695908,+0.828,+0.540,+0.069,-0.135,+0.857,-0.247,-0.357,+1.062,+21.688,-3.500,-10, -5, 2, 3, 1, 0, 2, -4
1503945695932,+0.826,+0.543,+0.068,-0.134,+0.881,-0.208,-0.391,+1.062,+24.188,-7.188,10, 1, -3, -4, -1, -1, -2, 0
1503945695946,+0.826,+0.544,+0.066,-0.131,+0.926,-0.201,-0.370,+4.250,+8.000,-11.375,-8, 0, -1, -2, -2, -1, 0, 0
1503945695970,+0.826,+0.544,+0.066,-0.128,+0.934,-0.223,-0.336,+5.125,-4.438,-14.750,2, 4, -2, -2, 1, -1, -3, -3
1503945695990,+0.827,+0.544,+0.065,-0.125,+0.893,-0.208,-0.361,+3.250,-3.562,-15.125,5, 3, 0, 0, 0, -2, -2, -2
1503945696006,+0.827,+0.544,+0.064,-0.123,+0.844,-0.193,-0.397,+3.188,+2.062,-11.000,18, 1, 3, -2, -1, -1, -1, 1
1503945696028,+0.828,+0.544,+0.063,-0.121,+0.885,-0.240,-0.392,+2.688,+2.688,-13.625,-8, -1, -2, -2, -1, 0, -1, -2
1503945696050,+0.828,+0.545,+0.062,-0.119,+0.898,-0.248,-0.367,+1.438,+4.062,-12.812,-5, -2, 1, 2, 1, 1, 0, -2
1503945696066,+0.828,+0.545,+0.062,-0.118,+0.927,-0.241,-0.360,+1.688,+2.625,-11.500,-7, -3, -1, -3, 0, 3, -1, -1
1503945696088,+0.828,+0.545,+0.062,-0.116,+0.938,-0.243,-0.392,+4.750,-1.000,-6.562,8, 3, 3, 0, 0, -1, -2, 0
1503945696110,+0.828,+0.545,+0.064,-0.115,+0.923,-0.267,-0.354,+6.688,-4.438,-1.125,-4, -2, 1, -1, -2, -1, -2, 0
1503945696126,+0.828,+0.546,+0.064,-0.114,+0.959,-0.277,-0.312,+5.375,+1.312,-4.875,-6, -5, -4, -2, -2, -2, 1, -1
1503945696148,+0.828,+0.545,+0.065,-0.112,+0.958,-0.243,-0.373,+10.250,-5.125,-7.688,2, -2, -6, -1, -1, 0, -1, -2
1503945704374,+0.803,+0.563,+0.091,-0.172,+0.908,-0.338,-0.354,-15.188,+3.938,+7.750,-33, -8, -4, -5, -1, -2, -2, -4
1503945704397,+0.803,+0.563,+0.089,-0.175,+0.792,-0.279,-0.336,-16.125,+10.812,+7.750,2, 1, -3, 0, -1, -1, 1, -1
1503945704413,+0.802,+0.564,+0.086,-0.175,+0.920,-0.338,-0.303,-13.812,+10.000,-4.875,6, -3, 2, -2, 0, 2, -2, -3
1503945704434,+0.803,+0.563,+0.084,-0.177,+0.960,-0.384,-0.342,-16.688,-6.562,-2.312,15, 11, -2, -3, 1, -3, 0, 1
1503945704451,+0.805,+0.560,+0.084,-0.178,+0.860,-0.343,-0.317,-13.312,-18.188,+1.438,-3, 4, -1, -1, 2, -4, 0, -1
1503945704472,+0.807,+0.557,+0.082,-0.179,+0.814,-0.330,-0.358,-14.688,-10.438,-3.125,-5, -2, -1, -2, -4, -1, -1, -1
1503945704496,+0.807,+0.556,+0.080,-0.180,+0.828,-0.329,-0.342,-13.375,-4.188,-3.812,9, 5, 5, 4, 0, 1, -4, -10
1503945704510,+0.808,+0.556,+0.079,-0.180,+0.895,-0.332,-0.351,-8.312,-1.375,-3.875,-28, -9, -5, -3, -1, 1, -1, 2
1503945704533,+0.808,+0.555,+0.078,-0.180,+0.869,-0.309,-0.377,-3.312,-1.125,-1.250,3, -3, 4, 1, -1, 0, 1, 2
1503945704554,+0.810,+0.553,+0.079,-0.180,+0.855,-0.369,-0.329,-0.125,-16.000,-1.688,6, -2, -4, -6, -2, -3, 0, -2
1503945704570,+0.811,+0.551,+0.079,-0.179,+0.927,-0.350,-0.317,-5.688,-16.438,-6.375,3, -3, 1, 0, -1, -1, -1, -1
1503945704593,+0.814,+0.549,+0.078,-0.177,+0.833,-0.248,-0.387,-0.375,-12.438,-12.125,4, 0, -1, 1, 0, -3, 1, 2
1503945704614,+0.816,+0.546,+0.077,-0.173,+0.810,-0.257,-0.420,+9.750,-11.750,-18.125,20, -1, -3, -3, -1, 1, -1, 1
1503945704630,+0.817,+0.546,+0.077,-0.169,+0.888,-0.319,-0.368,+7.812,-5.312,-19.625,-9, -6, 0, -1, -3, -1, -1, 1
1503945704652,+0.818,+0.546,+0.076,-0.166,+0.928,-0.310,-0.340,+6.500,-5.938,-21.312,-5, 2, 7, 1, -1, 0, 0, -1
1503945704674,+0.820,+0.544,+0.076,-0.161,+0.866,-0.257,-0.330,+13.438,-21.125,-22.875,12, 1, -3, -2, -1, -1, -2, 1
1503945704694,+0.823,+0.540,+0.077,-0.155,+0.847,-0.322,-0.332,+14.875,-32.000,-28.812,16, 0, -10, -1, -1, -1, -2, -2
1503945704712,+0.825,+0.539,+0.076,-0.151,+0.857,-0.303,-0.281,-0.688,-15.875,-26.375,-11, -2, 1, -2, -1, 0, 0, 0
1503945704735,+0.825,+0.539,+0.074,-0.149,+0.863,-0.256,-0.363,+0.312,+1.438,-15.312,6, -1, -7, -3, -2, -3, -2, -7
1503945704758,+0.826,+0.539,+0.074,-0.146,+0.895,-0.278,-0.444,+7.312,-3.250,-12.625,-3, -1, -1, -1, -3, 0, -1, -2
1503945704772,+0.828,+0.537,+0.073,-0.144,+0.968,-0.313,-0.382,+0.375,-14.438,-14.312,-4, 3, -2, 0, 0, -1, -1, 2
1503945704799,+0.829,+0.535,+0.072,-0.143,+0.925,-0.335,-0.302,-10.125,-19.375,-9.500,0, -1, -4, -3, 1, 0, 1, 1
1503945704810,+0.831,+0.532,+0.071,-0.144,+0.887,-0.320,-0.279,-15.875,-24.875,-3.438,-2, 0, 3, -2, 0, -1, -3, -1
1503945704833,+0.833,+0.530,+0.069,-0.145,+0.864,-0.236,-0.378,-17.562,-13.250,-4.625,-1, 0, -7, -2, -3, -1, -1, -2
1503945704854,+0.834,+0.528,+0.067,-0.145,+0.884,-0.233,-0.415,-11.562,-11.375,-4.938,6, -4, -2, 0, -2, -1, -2, 1
1503945704877,+0.835,+0.527,+0.065,-0.146,+0.939,-0.288,-0.422,-14.750,-8.312,+4.562,-6, 0, -5, -3, -2, -2, 2, 4
1503945704897,+0.835,+0.526,+0.063,-0.148,+0.928,-0.272,-0.363,-20.000,-6.750,+3.062,-8, -7, -4, -3, 0, -1, 0, -1
1503945714058,+0.817,+0.541,+0.187,-0.070,+0.722,-0.438,-0.281,+6.812,+20.438,-28.125,-11, -11, -3, -2, 7, -1, 0, -2
1503945714079,+0.812,+0.549,+0.186,-0.067,+0.791,-0.378,-0.273,+9.688,+52.125,-33.188,2, 3, 1, 1, -5, -1, -1, 2
1503945714101,+0.808,+0.557,+0.183,-0.061,+0.959,-0.340,-0.293,+13.500,+48.750,-40.062,-7, -3, -6, -5, -1, 3, 2, 0
1503945714118,+0.806,+0.561,+0.181,-0.054,+0.938,-0.284,-0.333,+20.062,+20.812,-36.688,-12, -6, -7, -3, 1, -1, -4, -1
1503945714139,+0.805,+0.563,+0.181,-0.047,+0.840,-0.287,-0.286,+23.688,+11.250,-36.750,-2, -18, -5, -2, -9, -5, 0, 1
1503945714163,+0.801,+0.569,+0.180,-0.041,+0.893,-0.334,-0.224,+21.000,+31.500,-31.438,-7, 2, 2, 2, -15, -4, 0, -4
1503945714177,+0.797,+0.575,+0.180,-0.038,+1.000,-0.299,-0.226,+13.125,+39.500,-21.375,-9, -2, 6, 1, 4, 1, -1, -1
1503945714200,+0.794,+0.581,+0.178,-0.035,+0.981,-0.211,-0.230,+7.938,+32.625,-13.688,22, 4, -9, -5, 3, 1, -2, 0
1503945714233,+0.792,+0.583,+0.177,-0.033,+0.952,-0.231,-0.297,+9.625,+23.500,-10.125,-7, -2, 0, -1, -1, -4, 0, 0
1503945714237,+0.790,+0.586,+0.177,-0.032,+0.926,-0.229,-0.263,+7.500,+20.062,-0.250,-3, -6, -2, 2, 4, -3, 2, -2
1503945714260,+0.787,+0.590,+0.178,-0.034,+0.928,-0.259,-0.170,-0.625,+27.625,+7.500,3, -6, -1, -1, 4, -2, -3, -3
1503945714281,+0.783,+0.595,+0.177,-0.039,+0.995,-0.312,-0.156,-18.750,+37.875,+18.312,-5, -3, -1, 0, 23, 3, 0, 2
1503945714297,+0.780,+0.598,+0.175,-0.046,+0.999,-0.289,-0.174,-30.812,+34.125,+27.688,-3, 1, 1, -2, -2, -2, -2, 0
1503945714319,+0.781,+0.599,+0.172,-0.053,+0.973,-0.261,-0.261,-37.562,+12.562,+25.750,12, 2, -5, -2, -5, -1, 0, 0
1503945714341,+0.781,+0.599,+0.168,-0.061,+0.899,-0.258,-0.238,-44.312,+12.375,+26.875,4, 7, 6, 1, -3, -1, 2, 2
1503945714362,+0.782,+0.598,+0.163,-0.069,+0.868,-0.247,-0.225,-49.375,+5.875,+24.062,2, -1, -2, -3, -3, 0, -1, -2
1503945714386,+0.784,+0.596,+0.158,-0.077,+0.886,-0.260,-0.245,-56.062,-2.688,+25.188,10, -3, -1, 2, -1, -2, -4, -1
1503945714409,+0.787,+0.592,+0.152,-0.085,+0.838,-0.217,-0.291,-52.875,-10.125,+22.000,-4, 2, -3, -1, -2, 0, 1, 0
1503945714418,+0.790,+0.588,+0.146,-0.091,+0.776,-0.212,-0.297,-50.625,-15.500,+14.250,1, -4, -12, -4, -4, -2, -1, -1
1503945714439,+0.793,+0.584,+0.141,-0.097,+0.838,-0.267,-0.333,-43.750,-10.375,+14.312,-13, -3, -2, 1, -1, 0, 1, 0
1503945714461,+0.796,+0.580,+0.137,-0.102,+0.848,-0.314,-0.360,-39.812,-13.500,+11.688,-7, -2, 2, 0, -2, -3, 0, -3
1503945714477,+0.802,+0.573,+0.133,-0.105,+0.878,-0.346,-0.341,-36.062,-43.188,+1.688,-25, -4, -2, -1, -7, 2, -1, 1
1503945714500,+0.807,+0.565,+0.132,-0.107,+0.860,-0.427,-0.292,-25.688,-50.250,-1.875,5, 3, 0, 1, -6, -3, -2, -1
1503945714521,+0.812,+0.559,+0.131,-0.108,+0.812,-0.448,-0.342,-20.688,-40.000,-1.625,4, -1, -2, -2, 1, 0, 0, -3
1503945714538,+0.815,+0.554,+0.130,-0.111,+0.802,-0.422,-0.300,-22.625,-31.125,+2.500,21, 7, 3, 0, 2, -1, -2, 2
1503945714562,+0.816,+0.552,+0.129,-0.112,+0.854,-0.396,-0.284,-13.125,-13.562,-5.250,-4, -4, -1, 2, 1, -1, 0, -2
1503945714581,+0.816,+0.553,+0.127,-0.109,+0.891,-0.356,-0.273,-2.000,+0.438,-19.688,-3, 1, 0, -1, 1, 1, -1, -1
1503945714599,+0.818,+0.552,+0.126,-0.104,+0.966,-0.352,-0.309,+8.812,-13.438,-27.188,-18, -2, 1, 0, -2, -2, 0, 0
1503945724129,+0.790,+0.606,+0.091,-0.002,+1.030,-0.167,-0.244,+23.688,+58.062,+4.875,-14, -1, 1, -3, -4, -1, 0, 2
1503945724145,+0.786,+0.611,+0.096,-0.001,+1.033,-0.150,-0.212,+25.750,+36.500,+9.750,-13, -7, -8, -3, -2, -1, 0, -7
1503945724166,+0.782,+0.615,+0.100,-0.001,+1.027,-0.155,-0.172,+21.688,+30.438,+13.062,14, 4, 11, 1, -1, 0, -3, -1
1503945724188,+0.778,+0.619,+0.106,+0.000,+0.952,-0.166,-0.182,+29.500,+38.875,+13.062,11, -1, -3, 0, 0, 1, 0, -5
1503945724204,+0.773,+0.625,+0.111,+0.002,+0.938,-0.145,-0.179,+36.062,+46.000,+8.875,4, 0, -1, 0, 3, -1, -1, -5
1503945724226,+0.767,+0.631,+0.117,+0.004,+0.960,-0.133,-0.198,+36.500,+48.812,+11.625,15, 3, -5, 1, 0, 1, 0, 4
1503945724248,+0.763,+0.635,+0.123,+0.005,+1.000,-0.176,-0.113,+35.062,+32.125,+14.688,8, -9, -4, -1, 1, -2, -3, -7
1503945724264,+0.758,+0.639,+0.128,+0.006,+1.018,-0.213,+0.016,+23.562,+29.125,+12.312,-13, -1, -3, -2, 1, 1, -1, 1
1503945724286,+0.754,+0.643,+0.131,+0.006,+1.036,-0.154,-0.062,+13.938,+29.875,+9.562,-12, -1, -4, -3, 0, 1, 1, 0
1503945724308,+0.753,+0.645,+0.133,+0.007,+0.939,-0.095,-0.140,+16.625,+15.812,+4.938,-29, -2, -2, -1, -2, 1, 1, 0
1503945724324,+0.753,+0.644,+0.134,+0.010,+0.936,-0.121,-0.078,+16.000,-10.938,-3.562,10, 7, 5, 3, -1, -1, -2, 3
1503945724346,+0.753,+0.644,+0.135,+0.011,+0.979,-0.179,+0.016,+4.125,-2.812,-2.500,5, -3, -8, -2, -1, -3, 1, 7
1503945724369,+0.752,+0.646,+0.134,+0.010,+0.922,-0.189,-0.045,-8.000,+8.500,-1.812,11, -1, -1, -1, -2, -2, -1, -2
1503945724384,+0.752,+0.646,+0.131,+0.010,+0.928,-0.122,-0.120,-12.438,+6.750,-8.000,10, -2, -5, -2, 0, 0, 1, -2
1503945724406,+0.752,+0.646,+0.127,+0.013,+0.922,-0.081,-0.105,-7.375,-1.688,-19.062,5, -1, -6, 0, -1, -1, -2, 0
1503945724430,+0.753,+0.647,+0.124,+0.014,+0.982,-0.129,-0.065,-10.312,-4.625,-17.562,4, -3, -1, -1, 0, -4, 0, 1
1503945724444,+0.753,+0.646,+0.122,+0.013,+1.034,-0.177,-0.088,-15.750,-5.625,-4.062,3, 0, -1, 0, 0, -1, -1, -2
1503945724466,+0.755,+0.645,+0.119,+0.011,+1.025,-0.136,-0.106,-19.938,-11.312,+1.500,-6, -5, -9, -3, 0, 2, 1, 1
1503945724488,+0.758,+0.642,+0.117,+0.011,+0.978,-0.079,-0.141,-13.500,-17.500,-2.062,-41, -6, -3, -3, 2, -1, 0, -1
1503945724504,+0.760,+0.639,+0.114,+0.012,+0.931,-0.137,-0.123,-9.438,-23.250,-10.000,6, 6, 1, 2, -3, 1, 3, 3
1503945724526,+0.762,+0.638,+0.112,+0.011,+0.962,-0.193,-0.044,-16.938,-13.500,-5.375,2, -4, -1, -3, -1, -2, -1, -1
1503945724548,+0.762,+0.639,+0.110,+0.008,+0.998,-0.174,-0.080,-22.688,+1.438,+3.812,7, -1, 2, 1, 2, 0, -1, 1
1503945724571,+0.762,+0.639,+0.107,+0.005,+1.015,-0.099,-0.119,-24.438,+0.000,+4.625,2, 1, 0, 1, -3, 0, -2, -2
1503945724586,+0.764,+0.637,+0.104,+0.003,+0.994,-0.115,-0.139,-21.438,-14.000,+5.188,17, -5, -5, -2, 0, 0, 0, -2
1503945724608,+0.765,+0.636,+0.102,+0.001,+1.002,-0.172,-0.062,-22.250,-12.812,+1.875,-2, 1, -3, -2, -2, -3, -2, -2
1503945724633,+0.766,+0.635,+0.099,-0.002,+1.016,-0.165,-0.104,-23.375,-7.500,+1.125,18, -1, -2, -1, 0, -1, -2, 1
1503945724653,+0.767,+0.634,+0.097,-0.005,+0.999,-0.126,-0.133,-22.750,-6.375,+5.688,-6, -2, 3, 1, 0, -2, 1, 0
1503945724669,+0.768,+0.633,+0.095,-0.008,+0.991,-0.155,-0.147,-22.312,-3.250,+10.188,-46, -5, -1, -1, -1, -2, -2, 0
1503945724691,+0.768,+0.634,+0.095,-0.012,+1.003,-0.173,-0.177,-16.438,+7.312,+11.250,-6, -2, 2, 0, -1, -2, -2, 0
1503945724708,+0.768,+0.633,+0.095,-0.014,+1.013,-0.200,-0.167,-11.312,-5.188,+9.938,-2, 0, 0, 1, -2, -1, -1, -3
1503945724728,+0.769,+0.632,+0.094,-0.017,+0.993,-0.195,-0.099,-12.250,-7.938,+9.438,-6, -6, -4, -4, 0, -2, -4, -3
1503945724751,+0.769,+0.632,+0.094,-0.019,+0.931,-0.167,-0.098,-12.750,+1.875,+5.562,0, -2, -3, -1, 0, -1, 1, 1
1503945732132,+0.880,+0.457,+0.031,-0.126,+0.872,-0.161,-0.563,-2.438,+12.750,-6.312,8, 11, 6, -1, 0, 0, -1, -1
1503945732154,+0.879,+0.458,+0.031,-0.127,+0.915,-0.191,-0.496,-5.750,+3.500,+1.500,14, 0, -1, 2, -1, -1, 0, -5
1503945732169,+0.879,+0.458,+0.031,-0.128,+0.881,-0.172,-0.506,-4.625,-4.312,+9.438,24, 3, 0, 3, 3, -1, 1, 7
1503945732193,+0.878,+0.459,+0.031,-0.131,+0.843,-0.146,-0.572,-4.938,+5.000,+13.188,0, 1, 10, 3, -1, 1, 2, 2
1503945732214,+0.877,+0.461,+0.032,-0.133,+0.841,-0.200,-0.589,-0.062,+18.625,+14.750,-3, -3, -4, -1, -2, 2, -2, -2
1503945732236,+0.875,+0.463,+0.034,-0.135,+0.793,-0.245,-0.584,+5.250,+18.500,+14.000,-13, -9, -5, -5, -1, -4, -2, -2
1503945732252,+0.872,+0.468,+0.038,-0.137,+0.886,-0.268,-0.462,+12.250,+23.000,+16.188,-10, -4, -2, 4, -1, -1, 0, -3
1503945732274,+0.870,+0.471,+0.040,-0.139,+0.922,-0.212,-0.451,+3.375,+17.562,+20.812,7, 0, -4, -4, -1, 2, 2, 1
1503945732303,+0.867,+0.476,+0.043,-0.144,+0.851,-0.253,-0.416,+5.188,+24.438,+29.938,-19, -1, 0, -1, -2, 1, 0, 1
1503945732312,+0.864,+0.479,+0.047,-0.147,+0.842,-0.298,-0.474,+5.875,+15.625,+24.125,-2, 0, -1, -4, -1, 0, -1, 1
1503945732334,+0.864,+0.480,+0.047,-0.148,+0.759,-0.231,-0.486,+0.625,+9.375,+6.000,-12, 2, -3, 1, -1, -4, -2, 3
1503945732357,+0.862,+0.482,+0.047,-0.148,+0.771,-0.185,-0.433,-1.000,+17.938,-2.562,-2, -6, 0, -3, -2, -1, 1, 0
1503945732372,+0.859,+0.488,+0.045,-0.148,+0.800,-0.183,-0.510,+1.125,+44.875,-1.688,3, -4, 5, 1, 2, 3, -3, -1
1503945732401,+0.855,+0.495,+0.044,-0.149,+0.850,-0.162,-0.540,-3.062,+52.688,+7.562,-4, -2, -9, -1, -2, -2, 0, -1
1503945732416,+0.851,+0.501,+0.043,-0.151,+0.921,-0.171,-0.451,-4.312,+38.938,+12.000,12, 3, 0, 2, 0, -2, -3, 0
1503945732432,+0.849,+0.505,+0.043,-0.151,+0.925,-0.244,-0.435,+3.438,+23.812,+1.625,-13, -5, -3, -1, -1, -2, -2, -3
1503945732454,+0.847,+0.507,+0.043,-0.150,+0.861,-0.205,-0.450,+4.688,+15.188,-2.562,-11, -6, -3, 2, -2, -1, 1, -1
1503945732476,+0.847,+0.509,+0.043,-0.149,+0.811,-0.170,-0.482,+4.188,+15.000,-3.000,-8, 2, -5, -2, -1, -1, -2, -3
1503945732492,+0.845,+0.512,+0.042,-0.149,+0.830,-0.201,-0.462,+0.812,+24.750,+2.375,-4, -7, -1, -1, -2, -3, -2, 4
1503945732514,+0.842,+0.517,+0.042,-0.150,+0.849,-0.230,-0.406,-2.250,+35.312,+2.938,9, 2, -1, -2, -1, -3, 0, 0
1503945732536,+0.839,+0.521,+0.041,-0.150,+0.921,-0.218,-0.395,-1.188,+27.125,-1.438,6, 0, -3, -3, 0, 1, -4, -5
1503945732553,+0.838,+0.524,+0.039,-0.149,+0.892,-0.152,-0.400,-2.250,+15.562,-5.562,-9, -8, -4, -2, -2, -3, 0, -2
1503945732574,+0.838,+0.524,+0.038,-0.148,+0.828,-0.165,-0.458,+1.688,+10.125,-7.875,-29, -6, -15, -1, 0, 2, -4, 3
1503945732597,+0.837,+0.526,+0.037,-0.147,+0.834,-0.205,-0.436,+1.438,+15.750,-5.062,12, -2, -2, -2, -1, -5, -3, -5
1503945732612,+0.835,+0.528,+0.037,-0.148,+0.888,-0.204,-0.436,-2.688,+17.062,+4.875,6, -3, 7, 5, 3, 0, -1, -1
1503945732634,+0.833,+0.531,+0.036,-0.149,+0.919,-0.210,-0.387,-6.875,+19.500,+7.000,-6, 0, 5, -1, -3, -3, 0, 1
1503945732656,+0.831,+0.534,+0.035,-0.151,+0.906,-0.211,-0.357,-9.875,+21.875,+7.312,18, 1, -1, -1, -2, 1, -3, -3
1503945732672,+0.830,+0.536,+0.034,-0.154,+0.908,-0.207,-0.379,-10.062,+13.812,+10.625,0, 3, 14, 4, 4, -1, -1, -3
1503945732695,+0.829,+0.536,+0.034,-0.155,+0.919,-0.211,-0.362,-5.625,+3.188,+7.875,-3, 8, 23, 4, 1, 0, -1, 1
1503945732716,+0.829,+0.535,+0.034,-0.156,+0.953,-0.236,-0.371,-7.562,-8.875,+6.000,-5, -1, -6, -3, -2, -3, -2, -2
1503945732731,+0.830,+0.533,+0.033,-0.158,+0.935,-0.191,-0.353,-14.312,-14.562,+9.125,10, -1, -4, -3, -3, 0, -2, -2
1503945732755,+0.832,+0.531,+0.032,-0.160,+0.869,-0.176,-0.423,-11.500,-13.312,+9.688,16, 2, -9, -4, 0, -1, 0, -1
1503945739038,+0.772,+0.595,+0.042,-0.221,+0.878,-0.371,-0.265,-69.625,+4.875,+36.250,0, 6, 4, 0, 2, 3, 1, 3
1503945739060,+0.770,+0.593,+0.037,-0.233,+0.825,-0.435,-0.285,-69.688,+9.438,+31.125,-7, 1, 5, 3, 4, 2, -2, 3
1503945739075,+0.769,+0.590,+0.032,-0.245,+0.810,-0.497,-0.363,-68.625,+8.000,+24.938,2, 2, -1, -1, -1, 0, -1, -2
1503945739099,+0.769,+0.585,+0.029,-0.255,+0.814,-0.490,-0.394,-57.812,-6.188,+21.062,-3, 0, -1, -3, -2, -4, 4, -6
1503945739120,+0.771,+0.580,+0.028,-0.263,+0.750,-0.498,-0.408,-37.375,-12.812,+19.500,32, -5, -10, -1, -4, -2, -4, -4
1503945739136,+0.772,+0.576,+0.029,-0.267,+0.740,-0.527,-0.419,-20.875,-11.188,+8.938,2, -8, -5, -2, -4, 12, -3, -2
1503945739159,+0.774,+0.572,+0.031,-0.268,+0.757,-0.492,-0.440,-3.062,-17.625,-6.125,4, -1, -2, -1, 1, 1, 4, 7
1503945739180,+0.779,+0.568,+0.034,-0.265,+0.793,-0.449,-0.402,+18.438,-32.625,-15.812,-14, -3, -1, -1, -1, 1, -4, -18
1503945739195,+0.783,+0.563,+0.041,-0.260,+0.806,-0.474,-0.402,+39.125,-42.375,-15.312,0, 2, 1, 0, 0, -5, 0, 18
1503945739218,+0.788,+0.558,+0.050,-0.254,+0.810,-0.484,-0.410,+50.250,-44.188,-13.438,3, 1, -2, -3, -2, 2, 3, 2
1503945739240,+0.793,+0.554,+0.059,-0.246,+0.804,-0.403,-0.367,+57.812,-49.188,-21.375,-49, 0, 5, 5, -1, -5, -4, -9
1503945739255,+0.798,+0.552,+0.067,-0.235,+0.805,-0.360,-0.314,+67.062,-41.438,-31.125,22, 6, 5, 2, 1, -2, 0, -2
1503945739278,+0.801,+0.551,+0.076,-0.223,+0.828,-0.375,-0.297,+74.000,-33.062,-32.875,1, 3, 4, 4, 0, -3, 3, 1
1503945739301,+0.803,+0.551,+0.084,-0.212,+0.894,-0.363,-0.287,+70.625,-20.625,-28.688,-2, -8, -8, -3, -3, 3, 0, 7
1503945739315,+0.804,+0.553,+0.090,-0.202,+0.924,-0.315,-0.285,+63.250,-15.500,-24.750,8, 2, 4, 1, 0, -4, -3, -3
1503945739339,+0.805,+0.554,+0.095,-0.192,+0.964,-0.266,-0.240,+56.125,-15.625,-23.875,4, 2, 2, 1, 3, 7, 0, 3
1503945739360,+0.805,+0.555,+0.098,-0.182,+0.991,-0.228,-0.218,+47.375,-13.625,-26.250,-5, 0, 3, 3, 0, -5, -3, -4
1503945739377,+0.806,+0.557,+0.100,-0.173,+1.000,-0.212,-0.218,+40.250,-8.750,-27.000,0, 16, 12, 4, 2, -2, -3, -9
1503945739397,+0.806,+0.560,+0.101,-0.166,+1.002,-0.204,-0.212,+30.250,-1.750,-20.938,0, 1, -10, -5, -5, -2, -1, 2
1503945739420,+0.805,+0.562,+0.100,-0.162,+1.018,-0.186,-0.213,+15.375,+4.312,-8.500,8, -5, -3, -4, -3, 0, 9, 9
1503945739435,+0.803,+0.565,+0.099,-0.160,+1.074,-0.182,-0.220,+0.688,+10.562,+1.375,0, -3, -4, -4, -2, -10, -5, -3
1503945739458,+0.802,+0.568,+0.095,-0.161,+1.059,-0.175,-0.228,-14.375,+9.500,+7.688,-13, -2, -6, -6, -7, 1, 1, -3
1503945739480,+0.801,+0.569,+0.090,-0.164,+1.032,-0.168,-0.213,-28.938,+8.188,+8.938,7, -4, -9, -6, -5, -3, 2, 5
1503945739495,+0.799,+0.570,+0.085,-0.168,+1.056,-0.205,-0.200,-39.125,+9.188,+12.125,3, 20, 7, 4, 1, -5, -1, -1
1503945739518,+0.799,+0.570,+0.078,-0.174,+1.035,-0.239,-0.304,-50.750,+6.438,+19.750,4, -2, 1, 0, -2, 0, -3, -1
1503945739540,+0.798,+0.569,+0.072,-0.184,+0.953,-0.241,-0.339,-60.000,+7.562,+31.062,4, -1, -3, -1, 15, -2, -2, 1
1503945739563,+0.796,+0.569,+0.066,-0.195,+0.911,-0.251,-0.327,-61.562,+20.000,+40.125,0, -2, 4, -3, -10, 0, -1, -1
1503945739579,+0.792,+0.570,+0.062,-0.208,+0.902,-0.329,-0.315,-60.875,+28.875,+49.875,58, 2, 4, 1, 0, -1, -3, 5
1503945739603,+0.788,+0.571,+0.058,-0.222,+0.879,-0.367,-0.344,-63.500,+31.062,+52.625,-2, -10, -10, -4, -13, -9, -2, -8
1503945739616,+0.784,+0.572,+0.053,-0.235,+0.833,-0.383,-0.307,-65.188,+32.938,+48.750,-30, 0, 5, 0, -3, 4, 0, 0
1503945739638,+0.780,+0.572,+0.049,-0.247,+0.785,-0.390,-0.326,-61.938,+27.125,+39.125,16, 19, 10, 12, 9, 1, 0, -12
1503945739660,+0.779,+0.571,+0.043,-0.256,+0.816,-0.380,-0.367,-58.938,+18.938,+21.312,-46, -8, -7, -8, -8, 1, -2, 6
1503945739676,+0.778,+0.569,+0.036,-0.262,+0.743,-0.344,-0.388,-51.375,+11.312,+4.312,-39, -5, 0, -1, -8, 0, -2, 12
1503945739698,+0.779,+0.568,+0.032,-0.265,+0.721,-0.377,-0.411,-32.125,+10.500,-7.688,45, -12, -4, -4, -8, 0, 0, 9
1503945739720,+0.780,+0.566,+0.029,-0.265,+0.774,-0.409,-0.439,-16.312,+2.688,-19.125,-37, -6, 3, 0, -4, -2, -1, -3
1503945739737,+0.783,+0.563,+0.027,-0.262,+0.789,-0.399,-0.409,-2.688,-11.562,-28.812,7, -11, -11, -4, -4, -3, -3, -5
1503945739758,+0.785,+0.562,+0.027,-0.258,+0.773,-0.417,-0.385,+7.750,-10.750,-30.250,7, -2, -1, -2, -3, -3, -2, -25
1503945739780,+0.787,+0.561,+0.028,-0.254,+0.801,-0.408,-0.366,+13.562,-6.875,-28.062,-9, 7, -8, -6, 0, 0, 0, -9
1503945739796,+0.789,+0.561,+0.028,-0.248,+0.827,-0.362,-0.368,+18.688,-4.375,-31.188,-57, -7, -8, -9, 8, -3, -2, -6
1503945739817,+0.792,+0.560,+0.030,-0.242,+0.871,-0.369,-0.340,+26.938,-14.438,-30.188,22, -5, -3, 1, -4, 0, 2, -1
1503945739840,+0.794,+0.560,+0.032,-0.237,+0.865,-0.406,-0.283,+21.500,-14.000,-25.312,2, 5, 19, 4, 1, 1, 0, 1
1503945739856,+0.794,+0.560,+0.033,-0.233,+0.879,-0.349,-0.272,+12.500,-7.000,-18.812,-5, -2, -4, -2, -2, 0, -1, -1
1503945745705,+0.822,+0.553,+0.097,-0.095,+0.899,-0.174,-0.408,-3.062,+15.062,-11.562,60, -9, -1, 0, 1, 3, -16, -17
1503945745721,+0.822,+0.554,+0.094,-0.094,+0.925,-0.168,-0.373,-5.438,+8.250,-10.500,-13, -3, 1, -4, -4, -2, 0, -1
1503945745746,+0.822,+0.554,+0.091,-0.092,+0.962,-0.161,-0.399,-4.438,+3.375,-11.125,-1, 6, 5, 2, 4, 6, 10, 17
1503945745765,+0.824,+0.552,+0.089,-0.090,+1.002,-0.164,-0.379,-4.125,-15.938,-9.250,7, 2, -2, -1, 0, -3, -1, 51
