Timestamp,Orientation X,Orientation Y,Orientation Z,Orientation W,Accelerometer X,Accelerometer Y,Accelerometer Z,Gyroscope X,Gyroscope Y,Gyroscope Z,EMG1,EMG2,EMG3,EMG4,EMG5,EMG6,EMG7,EMG8,Roll,Yaw,Window
1503616371610,-0.917,-0.250,+0.001,-0.311,+0.479,+0.163,-0.847,-1.000,-0.500,+0.625,-21, -1, -1, -1, -1, -1, 0, 0,2.5266123867638055,0.48210580501956696,0
1503616371633,-0.917,-0.250,+0.001,-0.310,+0.487,+0.168,-0.839,-1.250,+1.312,+0.625,-14, -3, -1, -1, 1, -2, -7, -10,2.528130575484342,0.4821075993817485,0
1503616371656,-0.917,-0.250,+0.001,-0.310,+0.485,+0.163,-0.839,-0.938,+0.000,+0.750,15, -3, -3, -2, -3, -3, -6, -5,2.528130575484342,0.4821075993817485,0
1503616371677,-0.917,-0.250,+0.001,-0.310,+0.485,+0.166,-0.847,-0.938,-0.875,+0.312,23, 3, 1, -1, 1, -3, 3, 0,2.528130575484342,0.4821075993817485,0
1503616371692,-0.917,-0.250,+0.001,-0.310,+0.479,+0.164,-0.843,-1.000,+0.062,+0.375,-52, 0, 1, -1, 2, 0, -3, -3,2.528130575484342,0.4821075993817485,0
1503616371714,-0.917,-0.250,+0.001,-0.310,+0.488,+0.163,-0.838,-1.375,+0.312,+0.875,22, -2, 0, -1, 1, -1, 2, -3,2.528130575484342,0.4821075993817485,0
1503616371730,-0.917,-0.250,+0.001,-0.310,+0.476,+0.166,-0.839,-0.938,-0.688,+0.375,-13, -3, -3, -1, -1, 1, -6, -9,2.528130575484342,0.4821075993817485,0
1503616371759,-0.917,-0.250,+0.001,-0.310,+0.486,+0.160,-0.839,-0.938,-0.188,+0.500,-21, -4, 0, -2, -1, 0, 0, 0,2.528130575484342,0.4821075993817485,0
1503616371774,-0.917,-0.250,+0.001,-0.310,+0.480,+0.169,-0.846,-1.125,+0.312,+0.188,-8, 3, 0, 1, -2, -4, 1, 1,2.528130575484342,0.4821075993817485,0
1503616371790,-0.917,-0.250,+0.001,-0.310,+0.481,+0.166,-0.840,-1.062,+0.562,+0.562,-16, -7, 0, 1, 0, 2, 1, 6,2.528130575484342,0.4821075993817485,0
1503616371812,-0.917,-0.250,+0.001,-0.310,+0.480,+0.163,-0.843,-0.875,+0.000,+1.188,-41, -6, -3, -4, -3, 0, -2, -7,2.528130575484342,0.4821075993817485,0
1503616371834,-0.917,-0.250,+0.001,-0.310,+0.484,+0.167,-0.837,-1.062,-0.812,+0.750,-11, 0, -2, -4, -3, -2, -1, 4,2.528130575484342,0.4821075993817485,0
1503616371851,-0.917,-0.250,+0.001,-0.310,+0.484,+0.163,-0.847,-0.688,-0.562,+0.500,36, 3, -2, 0, -2, 3, 0, -2,2.528130575484342,0.4821075993817485,0
1503616371872,-0.917,-0.250,+0.001,-0.310,+0.485,+0.164,-0.837,-1.250,+0.125,+0.312,31, 0, 0, 1, 3, -1, -2, -6,2.528130575484342,0.4821075993817485,0
1503616371894,-0.917,-0.250,+0.001,-0.310,+0.484,+0.166,-0.847,-1.250,-0.750,+0.500,0, 4, 1, 1, 0, -2, -2, 4,2.528130575484342,0.4821075993817485,0
1503616371910,-0.917,-0.250,+0.001,-0.310,+0.484,+0.165,-0.839,-0.938,+0.625,+0.312,-4, -5, -3, 1, 1, -2, 2, 1,2.528130575484342,0.4821075993817485,0
1503616371933,-0.917,-0.250,+0.001,-0.310,+0.482,+0.162,-0.837,-1.375,-0.438,+0.625,38, 5, 2, 0, -1, -2, 1, 5,2.528130575484342,0.4821075993817485,0
1503616371955,-0.917,-0.250,+0.001,-0.310,+0.486,+0.169,-0.846,-1.062,-0.375,+0.500,10, 0, -2, -2, 2, -2, 0, 1,2.528130575484342,0.4821075993817485,0
1503616371970,-0.917,-0.250,+0.001,-0.310,+0.479,+0.164,-0.837,-1.062,+0.188,+0.375,29, 3, 0, -1, -4, 0, 2, 2,2.528130575484342,0.4821075993817485,0
1503616371994,-0.917,-0.250,+0.001,-0.310,+0.487,+0.164,-0.841,-1.125,-0.438,+0.562,-14, 0, -2, -2, -2, -3, -5, 0,2.528130575484342,0.4821075993817485,0
1503616372015,-0.917,-0.250,+0.001,-0.310,+0.487,+0.164,-0.852,-0.938,+0.250,+0.375,2, -1, -2, 0, 0, 2, 0, 4,2.528130575484342,0.4821075993817485,0
1503616372030,-0.917,-0.250,+0.001,-0.310,+0.479,+0.166,-0.834,-1.188,-0.625,+0.375,-20, 0, -1, -1, 0, -2, -1, -6,2.528130575484342,0.4821075993817485,0
1503616372053,-0.917,-0.250,+0.001,-0.310,+0.486,+0.167,-0.850,-0.875,-0.188,+0.500,-26, -6, -2, -1, 0, 1, 1, -2,2.528130575484342,0.4821075993817485,0
1503616372075,-0.917,-0.250,+0.001,-0.310,+0.484,+0.162,-0.841,-0.875,-0.500,+0.625,16, 0, -2, -1, 0, 0, -4, -4,2.528130575484342,0.4821075993817485,0
1503616372091,-0.917,-0.250,+0.001,-0.310,+0.473,+0.170,-0.842,-0.938,-0.250,+0.625,-22, -13, -6, 0, -3, 2, -1, 3,2.528130575484342,0.4821075993817485,0
1503616372113,-0.917,-0.250,+0.001,-0.310,+0.486,+0.163,-0.842,-1.125,+0.938,+0.500,6, 1, 2, 0, -1, -2, -2, -4,2.528130575484342,0.4821075993817485,0
1503616372135,-0.917,-0.250,+0.001,-0.310,+0.479,+0.163,-0.834,-1.125,-0.500,+0.500,21, 3, 2, -2, -2, 0, -3, 1,2.528130575484342,0.4821075993817485,0
1503616372152,-0.917,-0.250,+0.001,-0.310,+0.490,+0.165,-0.833,-1.250,-0.125,+0.750,6, -4, -4, -2, 1, -4, -1, -7,2.528130575484342,0.4821075993817485,0
1503616372173,-0.917,-0.250,+0.001,-0.310,+0.485,+0.167,-0.851,-1.000,-0.500,+1.000,-25, -5, -2, 1, 2, 0, 0, 1,2.528130575484342,0.4821075993817485,0
1503616372195,-0.917,-0.250,+0.001,-0.310,+0.479,+0.169,-0.833,-0.875,-0.312,+0.500,14, 5, 1, -1, 0, 0, -3, -2,2.528130575484342,0.4821075993817485,0
1503616372210,-0.917,-0.250,+0.001,-0.310,+0.489,+0.159,-0.837,-0.688,+0.625,+0.812,-18, -8, -4, -4, -2, 1, -1, 1,2.528130575484342,0.4821075993817485,0
1503616372233,-0.917,-0.250,+0.001,-0.310,+0.481,+0.167,-0.847,-0.812,-1.250,+0.500,16, -4, -2, -2, 1, 0, 2, 12,2.528130575484342,0.4821075993817485,0
1503616372256,-0.917,-0.250,+0.001,-0.310,+0.478,+0.166,-0.834,-0.750,+0.062,+0.375,26, 4, 0, 1, 1, 2, -1, 1,2.528130575484342,0.4821075993817485,0
1503616372277,-0.917,-0.250,+0.001,-0.310,+0.480,+0.157,-0.847,-0.938,+1.250,+0.625,-19, -2, -1, 0, -1, -2, -1, 2,2.528130575484342,0.4821075993817485,0
1503616372293,-0.917,-0.250,+0.001,-0.310,+0.489,+0.160,-0.833,-1.250,-0.062,+0.688,-1, 2, 1, 1, -1, -1, -5, -3,2.528130575484342,0.4821075993817485,0
1503616372315,-0.917,-0.250,+0.001,-0.310,+0.493,+0.162,-0.838,-0.938,-0.688,+0.688,82, 10, 2, -2, -3, 3, -1, -3,2.528130575484342,0.4821075993817485,0
1503616372337,-0.917,-0.250,+0.001,-0.310,+0.477,+0.164,-0.850,-1.062,-1.188,+0.375,-69, -13, -4, -3, 1, 0, 3, -1,2.528130575484342,0.4821075993817485,0
1503616372355,-0.917,-0.250,+0.000,-0.310,+0.479,+0.160,-0.841,-1.125,+1.125,+0.188,-6, 1, -1, 1, 0, -1, -2, -1,2.527716352166347,0.4826627495124716,0
1503616372375,-0.917,-0.250,+0.000,-0.310,+0.485,+0.168,-0.845,-1.375,-0.375,+0.688,-31, -2, 0, -1, 1, 0, -2, -3,2.527716352166347,0.4826627495124716,0
1503616372397,-0.917,-0.250,+0.000,-0.310,+0.478,+0.165,-0.846,-1.062,-0.688,+0.250,0, -3, -2, -2, -3, 2, 1, 1,2.527716352166347,0.4826627495124716,0
1503616372413,-0.917,-0.250,+0.000,-0.310,+0.478,+0.161,-0.847,-0.875,+0.500,+0.812,12, 0, 2, -1, 0, -3, 1, -1,2.527716352166347,0.4826627495124716,0
1503616372435,-0.917,-0.250,+0.000,-0.310,+0.490,+0.164,-0.836,-1.250,-0.375,+0.812,36, 3, -1, -3, -3, -2, 1, 0,2.527716352166347,0.4826627495124716,0
1503616372457,-0.917,-0.250,+0.000,-0.310,+0.490,+0.165,-0.840,-1.000,-0.438,+0.562,-44, -4, -2, 0, 1, 0, 1, 2,2.527716352166347,0.4826627495124716,0
1503616372473,-0.917,-0.250,+0.000,-0.310,+0.485,+0.160,-0.838,-1.062,-0.125,+0.500,-6, 1, 0, -2, -1, 0, -4, 3,2.527716352166347,0.4826627495124716,0
1503616372495,-0.917,-0.250,+0.000,-0.310,+0.482,+0.165,-0.841,-1.312,+0.188,+0.562,21, 0, -1, -1, -1, 0, 2, 0,2.527716352166347,0.4826627495124716,0
1503616372517,-0.917,-0.250,+0.000,-0.310,+0.490,+0.162,-0.853,-0.875,-0.375,+0.688,-26, -1, -2, 0, -1, -3, -3, -8,2.527716352166347,0.4826627495124716,0
1503616372533,-0.917,-0.250,+0.000,-0.310,+0.474,+0.164,-0.840,-0.938,-0.938,+0.375,32, 2, 0, -2, 0, 4, -2, 3,2.527716352166347,0.4826627495124716,0
1503616372556,-0.917,-0.250,+0.000,-0.310,+0.477,+0.163,-0.850,-1.250,+0.438,+0.375,-25, 6, 1, 0, -3, -2, -2, 1,2.527716352166347,0.4826627495124716,0
1503616372577,-0.917,-0.250,+0.000,-0.310,+0.488,+0.162,-0.847,-1.250,+0.688,+0.562,21, 6, 0, 1, -1, -4, -2, -2,2.527716352166347,0.4826627495124716,0
1503616372594,-0.917,-0.250,+0.000,-0.310,+0.491,+0.166,-0.838,-1.312,-0.750,+0.500,-8, -1, -1, -1, 0, -1, 1, -1,2.527716352166347,0.4826627495124716,0
1503616372615,-0.917,-0.250,+0.000,-0.310,+0.483,+0.164,-0.840,-1.125,-0.375,+0.438,4, -4, -4, -4, -2, -2, -2, -2,2.527716352166347,0.4826627495124716,0
1503616372637,-0.917,-0.250,+0.000,-0.310,+0.479,+0.165,-0.844,-1.000,-0.562,+0.562,28, 3, -1, -2, -2, 1, -1, 2,2.527716352166347,0.4826627495124716,0
1503616372653,-0.917,-0.250,+0.000,-0.310,+0.484,+0.163,-0.840,-1.250,-0.125,+0.250,-11, 2, 1, 1, -3, -1, 0, 2,2.527716352166347,0.4826627495124716,0
1503616372675,-0.917,-0.250,+0.000,-0.310,+0.479,+0.164,-0.843,-0.938,+0.250,+0.375,-37, -3, -2, 1, 1, 1, -1, 2,2.527716352166347,0.4826627495124716,0
1503616372697,-0.917,-0.250,+0.000,-0.310,+0.485,+0.162,-0.840,-1.500,+0.375,+0.375,-48, -5, -1, -1, -2, 0, -1, -7,2.527716352166347,0.4826627495124716,0
1503616372713,-0.917,-0.250,+0.000,-0.310,+0.490,+0.167,-0.837,-1.250,+0.750,+0.625,5, 1, 0, -1, 0, -2, 0, -2,2.527716352166347,0.4826627495124716,0
1503616372735,-0.917,-0.250,+0.000,-0.310,+0.484,+0.167,-0.848,-1.062,-0.938,+0.625,-3, -2, -1, 0, 0, 0, 0, -1,2.527716352166347,0.4826627495124716,0
1503616372757,-0.917,-0.250,+0.000,-0.310,+0.483,+0.163,-0.833,-0.812,-0.750,+0.250,4, -1, 0, -1, -3, 0, 1, 1,2.527716352166347,0.4826627495124716,0
1503616372773,-0.917,-0.250,+0.000,-0.310,+0.472,+0.162,-0.848,-0.750,-0.250,+0.312,47, 1, -1, -2, 1, -2, -2, 2,2.527716352166347,0.4826627495124716,0
1503616372795,-0.917,-0.250,+0.000,-0.310,+0.485,+0.160,-0.846,-1.125,+0.562,+0.750,6, -6, 0, 0, 0, -2, 0, 1,2.527716352166347,0.4826627495124716,0
1503616372816,-0.917,-0.251,+0.000,-0.310,+0.479,+0.171,-0.840,-1.438,+1.000,+0.562,-14, -3, 0, 0, -1, 1, -3, -5,2.5283006741218945,0.48477808034840664,0
1503616372833,-0.917,-0.251,+0.000,-0.310,+0.486,+0.167,-0.843,-1.312,+0.375,+0.562,3, 1, -2, -1, -4, -5, 0, 0,2.5283006741218945,0.48477808034840664,0
1503616372855,-0.917,-0.251,+0.000,-0.310,+0.480,+0.161,-0.837,-1.438,+0.438,+0.375,-7, 1, 1, 4, -1, 1, -1, -5,2.5283006741218945,0.48477808034840664,0
1503616372877,-0.917,-0.251,+0.000,-0.310,+0.492,+0.166,-0.838,-1.062,+0.562,+0.562,-46, -2, -1, -2, 2, 2, -5, -5,2.5283006741218945,0.48477808034840664,0
1503616372893,-0.917,-0.251,+0.000,-0.310,+0.490,+0.162,-0.832,-0.875,+0.062,+0.625,-6, -3, 1, -2, -1, -3, 0, 0,2.5283006741218945,0.48477808034840664,0
1503616372915,-0.917,-0.251,+0.000,-0.310,+0.480,+0.161,-0.838,-1.000,+0.125,+0.375,18, -2, -1, -1, 0, -1, 3, 1,2.5283006741218945,0.48477808034840664,0
1503616372937,-0.917,-0.251,+0.000,-0.310,+0.487,+0.161,-0.839,-1.125,+0.438,+0.812,2, 2, -1, -1, 2, -2, -3, -2,2.5283006741218945,0.48477808034840664,0
1503616372953,-0.917,-0.251,+0.000,-0.310,+0.491,+0.166,-0.836,-0.938,-0.500,+0.438,7, -3, -3, -1, -4, 1, -1, -3,2.5283006741218945,0.48477808034840664,0
1503616372975,-0.917,-0.250,+0.000,-0.310,+0.468,+0.165,-0.838,-0.812,-1.562,+0.312,0, -2, -1, -1, -4, 0, 4, 4,2.527716352166347,0.4826627495124716,0
1503616372998,-0.917,-0.250,+0.000,-0.310,+0.485,+0.163,-0.840,-0.812,+1.125,+0.625,17, 1, 0, -1, 1, 1, 2, -1,2.527716352166347,0.4826627495124716,0
1503616373013,-0.917,-0.250,+0.000,-0.310,+0.485,+0.161,-0.832,-1.375,+0.625,+0.562,22, 0, -3, -1, 0, -4, -3, -5,2.527716352166347,0.4826627495124716,0
1503616373035,-0.917,-0.250,+0.000,-0.310,+0.490,+0.162,-0.837,-1.125,+0.438,+0.500,-33, -2, -3, -2, -1, 1, -4, -8,2.527716352166347,0.4826627495124716,0
1503616373059,-0.917,-0.251,+0.000,-0.310,+0.492,+0.163,-0.838,-1.062,-0.562,+0.312,-6, -1, -2, 0, 0, -3, 1, 5,2.5283006741218945,0.48477808034840664,0
1503616373073,-0.917,-0.250,+0.000,-0.310,+0.477,+0.166,-0.845,-1.125,-0.438,+0.312,-24, -9, -1, -1, -1, -2, -2, -4,2.527716352166347,0.4826627495124716,0
1503616373102,-0.917,-0.250,+0.000,-0.310,+0.483,+0.164,-0.847,-1.062,+0.250,+0.875,14, -3, -2, 0, 2, 0, 1, 4,2.527716352166347,0.4826627495124716,0
1503616373117,-0.917,-0.251,+0.000,-0.310,+0.486,+0.165,-0.831,-1.125,+0.500,+0.438,26, 0, -3, 0, -3, -2, -5, -3,2.5283006741218945,0.48477808034840664,0
1503616373133,-0.917,-0.251,+0.000,-0.310,+0.489,+0.163,-0.845,-0.750,-0.562,+0.688,-16, 1, 1, -1, -1, -2, -2, -2,2.5283006741218945,0.48477808034840664,0
1503616373155,-0.917,-0.251,+0.000,-0.310,+0.488,+0.167,-0.837,-0.938,-1.000,+0.688,18, 5, 2, -2, 1, 0, 1, 1,2.5283006741218945,0.48477808034840664,0
1503616373177,-0.917,-0.251,+0.000,-0.310,+0.482,+0.161,-0.840,-1.188,-0.312,+0.438,13, -1, -4, -3, 0, 0, 0, 0,2.5283006741218945,0.48477808034840664,0
1503616373194,-0.917,-0.251,+0.000,-0.310,+0.486,+0.158,-0.841,-0.875,+0.125,+0.438,8, -5, -4, -1, -5, -2, -3, -5,2.5283006741218945,0.48477808034840664,0
1503616373216,-0.917,-0.251,+0.000,-0.310,+0.489,+0.163,-0.834,-1.125,-0.250,+0.312,-13, -4, 0, -1, -1, -3, 2, 5,2.5283006741218945,0.48477808034840664,0
1503616373237,-0.917,-0.251,+0.000,-0.310,+0.483,+0.163,-0.845,-1.188,+0.000,+0.062,-12, -1, 0, 1, 0, 1, -2, -6,2.5283006741218945,0.48477808034840664,0
1503616373253,-0.917,-0.251,+0.000,-0.310,+0.492,+0.160,-0.846,-1.000,+0.688,+0.188,36, 6, 1, 0, 1, 1, 0, -1,2.5283006741218945,0.48477808034840664,0
1503616373275,-0.917,-0.251,+0.000,-0.310,+0.482,+0.164,-0.841,-1.438,-0.500,+0.188,7, 1, -1, -1, -5, 1, 0, -4,2.5283006741218945,0.48477808034840664,0
1503616373297,-0.917,-0.251,+0.000,-0.310,+0.494,+0.161,-0.849,-1.062,-0.312,+0.500,30, 4, -1, 0, 1, -1, 0, 3,2.5283006741218945,0.48477808034840664,0
1503616373313,-0.917,-0.251,+0.000,-0.310,+0.484,+0.163,-0.838,-1.375,-0.375,+0.062,8, -3, -3, -2, -1, -2, -4, 2,2.5283006741218945,0.48477808034840664,0
1503616373336,-0.917,-0.251,+0.000,-0.310,+0.483,+0.166,-0.845,-1.250,+0.188,+0.188,-4, -1, -1, -1, -1, -3, -2, -1,2.5283006741218945,0.48477808034840664,0
1503616373357,-0.917,-0.251,+0.000,-0.310,+0.484,+0.166,-0.843,-1.125,-0.062,+0.500,28, 2, 0, -2, -2, 1, 1, -5,2.5283006741218945,0.48477808034840664,0
1503616373373,-0.917,-0.251,+0.000,-0.310,+0.483,+0.163,-0.841,-1.062,-0.625,+0.375,7, 2, 0, -1, 0, -3, -4, 2,2.5283006741218945,0.48477808034840664,0
1503616373395,-0.917,-0.251,+0.000,-0.310,+0.475,+0.163,-0.845,-0.812,-0.375,+0.188,8, 0, 0, 0, 1, 1, 1, 0,2.5283006741218945,0.48477808034840664,0
1503616373418,-0.917,-0.251,-0.000,-0.310,+0.487,+0.158,-0.844,-1.438,+0.812,+0.125,-9, 1, 1, 1, -2, 3, 0, -6,2.5283006741218945,0.48477808034840664,0
1503616373433,-0.917,-0.251,-0.000,-0.310,+0.486,+0.167,-0.838,-1.500,+0.250,+0.250,-7, -5, -4, -1, -4, 0, -1, 0,2.5283006741218945,0.48477808034840664,0
1503616373455,-0.917,-0.251,-0.000,-0.310,+0.486,+0.168,-0.838,-1.188,-0.688,+0.438,-4, -2, -1, -1, -2, -2, -1, -3,2.5283006741218945,0.48477808034840664,0
1503616373477,-0.917,-0.251,-0.000,-0.310,+0.488,+0.166,-0.847,-1.250,-0.125,+0.125,32, 8, 1, -2, 0, -3, 1, 2,2.5283006741218945,0.48477808034840664,0
1503616373493,-0.917,-0.251,-0.000,-0.310,+0.482,+0.163,-0.848,-1.062,-0.250,+0.312,-24, -4, -2, -1, -3, -4, -5, -7,2.5283006741218945,0.48477808034840664,0
1503616373515,-0.917,-0.251,-0.000,-0.310,+0.488,+0.164,-0.842,-1.250,-0.625,+0.312,-23, -2, -1, -1, 0, -4, -1, -4,2.5283006741218945,0.48477808034840664,0
1503616373545,-0.917,-0.251,-0.000,-0.310,+0.487,+0.163,-0.840,-1.375,+0.000,+0.438,25, 0, 0, 0, 3, 3, 2, -1,2.5283006741218945,0.48477808034840664,0
1503616373553,-0.917,-0.251,-0.000,-0.310,+0.483,+0.162,-0.846,-0.875,-0.438,+0.562,34, 8, 1, 0, 1, 2, -1, 2,2.5283006741218945,0.48477808034840664,0
1503616373575,-0.917,-0.251,-0.000,-0.310,+0.484,+0.157,-0.830,-1.438,+0.500,-0.188,6, -2, -3, -2, -2, -3, -2, 0,2.5283006741218945,0.48477808034840664,0
1503616373597,-0.917,-0.251,-0.000,-0.310,+0.487,+0.165,-0.837,-1.438,+0.438,+0.062,15, 0, -1, -1, -2, -3, 0, -4,2.5283006741218945,0.48477808034840664,0
1503616373613,-0.917,-0.251,-0.000,-0.310,+0.489,+0.161,-0.843,-1.000,-1.188,+0.438,-24, -2, -2, 2, 0, 0, 1, 3,2.5283006741218945,0.48477808034840664,0
1503616373635,-0.917,-0.251,-0.000,-0.310,+0.479,+0.159,-0.836,-1.375,+0.188,-0.125,-35, -4, 0, 0, -1, 2, -1, 3,2.5283006741218945,0.48477808034840664,0
1503616373658,-0.917,-0.251,-0.000,-0.310,+0.478,+0.164,-0.845,-1.562,-0.125,+0.188,31, -2, -1, -1, 0, -3, 2, 2,2.5283006741218945,0.48477808034840664,0
1503616373673,-0.917,-0.251,-0.000,-0.310,+0.493,+0.164,-0.838,-1.500,+0.188,+0.188,-28, -4, 0, -1, 0, 1, 0, -2,2.5283006741218945,0.48477808034840664,0
1503616373697,-0.917,-0.251,-0.000,-0.310,+0.484,+0.162,-0.840,-1.500,+0.062,+0.250,22, 4, 2, 0, -1, -2, -1, 5,2.5283006741218945,0.48477808034840664,0
1503616373717,-0.917,-0.251,-0.000,-0.310,+0.485,+0.165,-0.841,-1.312,-0.500,+0.562,-8, -4, -2, -2, -2, -2, -2, -1,2.5283006741218945,0.48477808034840664,0
1503616373733,-0.917,-0.251,-0.000,-0.310,+0.490,+0.163,-0.837,-1.188,+0.062,+0.250,-36, 1, 3, 0, -1, 1, -4, -9,2.5283006741218945,0.48477808034840664,0
1503616373756,-0.917,-0.251,-0.000,-0.310,+0.481,+0.165,-0.843,-0.875,-0.312,+0.125,51, 4, -1, -2, -1, 0, -1, 0,2.5283006741218945,0.48477808034840664,0
1503616373777,-0.917,-0.251,-0.000,-0.310,+0.485,+0.163,-0.835,-1.312,+0.125,+0.312,1, 0, -1, 0, 1, 0, 2, 2,2.5283006741218945,0.48477808034840664,0
1503616373793,-0.917,-0.251,-0.000,-0.310,+0.488,+0.167,-0.845,-1.188,+0.188,+0.312,23, -1, -1, -2, -1, -1, -2, 2,2.5283006741218945,0.48477808034840664,0
1503616373815,-0.917,-0.251,-0.000,-0.310,+0.487,+0.164,-0.841,-1.438,-0.750,+0.312,-48, -6, -2, 0, -1, -1, 0, -6,2.5283006741218945,0.48477808034840664,0
1503616373838,-0.917,-0.251,-0.000,-0.310,+0.491,+0.161,-0.841,-1.125,+0.500,+0.000,44, -2, -4, 0, -1, -1, 1, 1,2.5283006741218945,0.48477808034840664,0
1503616373851,-0.917,-0.251,-0.000,-0.310,+0.481,+0.164,-0.839,-0.875,-1.125,+0.312,13, 3, 2, 2, 1, 0, -3, 1,2.5283006741218945,0.48477808034840664,0
1503616373874,-0.917,-0.251,-0.000,-0.310,+0.483,+0.162,-0.840,-1.125,+0.062,+0.125,-4, -3, -3, -1, -1, -1, 1, 0,2.5283006741218945,0.48477808034840664,0
1503616373898,-0.917,-0.251,-0.000,-0.310,+0.490,+0.162,-0.844,-1.500,+0.188,+0.250,-25, -1, -1, -2, -1, 1, -3, -8,2.5283006741218945,0.48477808034840664,0
1503616373912,-0.917,-0.251,-0.000,-0.310,+0.479,+0.166,-0.839,-1.375,-0.312,+0.188,-20, 0, -1, -2, 1, -2, 1, 0,2.5283006741218945,0.48477808034840664,0
1503616373934,-0.917,-0.251,-0.000,-0.310,+0.486,+0.161,-0.835,-1.438,+1.000,+0.000,-78, -10, -4, 0, -2, -5, -3, -9,2.5283006741218945,0.48477808034840664,0
1503616373957,-0.917,-0.251,-0.000,-0.310,+0.492,+0.167,-0.838,-1.562,-0.125,-0.062,54, 4, -3, -1, -3, 1, -2, -2,2.5283006741218945,0.48477808034840664,0
1503616373972,-0.917,-0.251,-0.000,-0.310,+0.484,+0.168,-0.840,-1.125,-0.375,+0.188,18, -5, -1, 1, 1, 0, 1, 6,2.5283006741218945,0.48477808034840664,0
1503616373994,-0.917,-0.251,-0.000,-0.310,+0.483,+0.161,-0.840,-1.500,+0.375,+0.312,-12, -3, -1, -2, -2, -3, -2, 2,2.5283006741218945,0.48477808034840664,0
1503616374017,-0.917,-0.251,-0.000,-0.310,+0.483,+0.170,-0.841,-1.438,-0.438,+0.062,-24, 0, 0, 0, 0, 1, 0, -6,2.5283006741218945,0.48477808034840664,0
1503616374034,-0.917,-0.251,-0.000,-0.310,+0.491,+0.166,-0.843,-1.188,+0.000,+0.062,10, 9, 4, 0, 0, 2, 3, 4,2.5283006741218945,0.48477808034840664,0
1503616374054,-0.917,-0.251,-0.000,-0.310,+0.483,+0.164,-0.840,-1.375,-0.438,+0.125,19, 0, -2, -2, 1, -3, 0, 4,2.5283006741218945,0.48477808034840664,0
1503616374077,-0.917,-0.251,-0.000,-0.310,+0.480,+0.164,-0.838,-1.312,+0.312,+0.188,18, 3, -1, -1, 0, -2, -1, -7,2.5283006741218945,0.48477808034840664,0
1503616374092,-0.917,-0.251,-0.000,-0.310,+0.487,+0.165,-0.833,-1.125,-0.125,+0.250,23, -2, -4, -3, -4, -2, -4, 5,2.5283006741218945,0.48477808034840664,0
1503616374114,-0.917,-0.251,-0.000,-0.310,+0.482,+0.167,-0.839,-1.062,-0.250,+0.125,-5, 2, 0, -2, -1, -3, -3, -4,2.5283006741218945,0.48477808034840664,0
1503616374137,-0.917,-0.251,-0.000,-0.310,+0.485,+0.163,-0.843,-1.125,+0.500,+0.375,34, 4, 0, -1, -2, 3, 2, 5,2.5283006741218945,0.48477808034840664,0
1503616374151,-0.917,-0.251,-0.000,-0.310,+0.486,+0.167,-0.830,-1.688,-0.625,+0.125,-12, -8, -1, 0, -2, 0, 1, 3,2.5283006741218945,0.48477808034840664,0
1503616374174,-0.917,-0.251,-0.000,-0.310,+0.490,+0.167,-0.842,-1.312,+0.312,+0.000,-3, -3, -3, -1, -1, 0, -3, -7,2.5283006741218945,0.48477808034840664,0
1503616374197,-0.917,-0.251,-0.000,-0.310,+0.482,+0.165,-0.848,-1.688,+0.125,+0.312,-25, -1, -1, 1, 0, 2, -3, 0,2.5283006741218945,0.48477808034840664,0
1503616374212,-0.917,-0.251,-0.000,-0.310,+0.491,+0.167,-0.837,-1.625,+0.375,+0.125,4, -4, 1, -2, -3, -2, 0, 0,2.5283006741218945,0.48477808034840664,0
1503616374234,-0.917,-0.251,-0.000,-0.310,+0.490,+0.173,-0.842,-1.062,-0.875,+0.312,-3, -3, -2, -2, 0, -1, -2, 0,2.5283006741218945,0.48477808034840664,0
1503616374257,-0.917,-0.251,-0.000,-0.310,+0.476,+0.165,-0.834,-1.312,-0.438,-0.125,-16, -2, -1, 0, 1, 0, -4, -12,2.5283006741218945,0.48477808034840664,0
1503616374272,-0.917,-0.251,-0.000,-0.310,+0.486,+0.168,-0.840,-1.375,+0.250,+0.375,5, -2, 0, 3, 1, 1, 0, 4,2.5283006741218945,0.48477808034840664,0
1503616374294,-0.917,-0.251,-0.000,-0.310,+0.490,+0.166,-0.835,-1.438,+0.188,+0.250,15, 1, -1, -2, -3, -4, -1, -2,2.5283006741218945,0.48477808034840664,0
1503616374317,-0.917,-0.251,-0.000,-0.310,+0.483,+0.166,-0.838,-1.125,+0.250,+0.500,23, 1, -1, 0, -1, 0, 1, 3,2.5283006741218945,0.48477808034840664,0
1503616374332,-0.917,-0.251,-0.000,-0.310,+0.487,+0.164,-0.836,-1.250,+0.125,+0.625,-16, -1, -2, -2, -1, 0, -1, 4,2.5283006741218945,0.48477808034840664,0
1503616374354,-0.917,-0.251,-0.000,-0.310,+0.479,+0.163,-0.833,-1.250,-0.625,+0.250,-15, -2, -2, -1, 0, -1, 3, -2,2.5283006741218945,0.48477808034840664,0
1503616374377,-0.917,-0.251,-0.000,-0.310,+0.484,+0.164,-0.844,-1.250,+0.562,+0.500,15, 4, 1, 1, 1, -1, -1, -3,2.5283006741218945,0.48477808034840664,0
1503616374392,-0.917,-0.251,-0.000,-0.310,+0.482,+0.167,-0.831,-1.375,+0.375,+0.750,-93, -9, -1, -1, -4, -1, -1, -1,2.5283006741218945,0.48477808034840664,0
1503616374414,-0.917,-0.251,-0.000,-0.310,+0.485,+0.169,-0.834,-1.125,+0.062,+0.750,25, 2, -2, -3, -3, -1, -5, 2,2.5283006741218945,0.48477808034840664,0
1503616374438,-0.917,-0.251,-0.000,-0.310,+0.492,+0.167,-0.835,-1.375,+0.625,+0.625,-1, -1, -2, -1, 0, -4, -2, -2,2.5283006741218945,0.48477808034840664,0
1503616374459,-0.917,-0.251,-0.000,-0.310,+0.495,+0.167,-0.836,-1.500,-0.312,+0.562,5, 1, 0, 1, 0, 0, -2, -4,2.5283006741218945,0.48477808034840664,0
1503616374474,-0.917,-0.251,-0.000,-0.310,+0.485,+0.168,-0.841,-0.750,-1.000,+0.750,-9, -8, -2, 0, -1, 0, 2, 1,2.5283006741218945,0.48477808034840664,0
1503616374497,-0.917,-0.251,-0.000,-0.310,+0.477,+0.168,-0.840,-0.875,-0.750,+0.750,16, -1, -2, -1, -2, 1, 0, 1,2.5283006741218945,0.48477808034840664,0
1503616374512,-0.917,-0.251,-0.000,-0.310,+0.472,+0.167,-0.839,-0.938,+0.188,+0.812,0, -1, -1, -1, 1, 0, -1, -1,2.5283006741218945,0.48477808034840664,0
1503616374537,-0.917,-0.251,-0.000,-0.310,+0.492,+0.168,-0.842,-0.938,+0.562,+0.812,-9, -3, -2, -2, -1, -1, -1, 1,2.5283006741218945,0.48477808034840664,0
1503616374557,-0.917,-0.251,-0.000,-0.310,+0.489,+0.169,-0.835,-0.500,-0.312,+0.688,-4, 1, 2, 0, 0, -1, 0, -4,2.5283006741218945,0.48477808034840664,0
1503616374572,-0.917,-0.251,-0.000,-0.310,+0.486,+0.166,-0.838,-0.750,-0.062,+0.500,8, -2, -1, -4, 1, -2, 0, -3,2.5283006741218945,0.48477808034840664,0
1503616374594,-0.917,-0.251,-0.000,-0.310,+0.488,+0.169,-0.844,-1.062,+0.188,+0.500,-27, 1, 1, -1, -2, 1, -2, 7,2.5283006741218945,0.48477808034840664,0
1503616374617,-0.917,-0.251,-0.000,-0.310,+0.488,+0.165,-0.829,-0.688,-0.312,+0.875,20, 3, 0, 2, -1, -1, 1, 0,2.5283006741218945,0.48477808034840664,0
1503616374632,-0.917,-0.251,-0.000,-0.310,+0.488,+0.164,-0.845,-0.688,-1.750,+0.875,22, 3, 4, 2, 1, 1, 0, 2,2.5283006741218945,0.48477808034840664,0
1503616374654,-0.917,-0.251,-0.000,-0.310,+0.480,+0.165,-0.839,-0.938,-0.250,+0.188,-6, -2, -1, -1, 0, -3, 1, -2,2.5283006741218945,0.48477808034840664,0
1503616374677,-0.917,-0.251,-0.000,-0.310,+0.475,+0.163,-0.846,-1.062,+0.125,+0.625,-7, 0, -1, 0, -1, 2, 0, -1,2.5283006741218945,0.48477808034840664,0
1503616374693,-0.917,-0.251,-0.000,-0.310,+0.494,+0.167,-0.842,-1.375,+0.125,+0.562,43, 8, 0, -3, -3, -3, -2, -3,2.5283006741218945,0.48477808034840664,0
1503616374714,-0.917,-0.251,-0.000,-0.310,+0.490,+0.169,-0.838,-0.750,+0.312,+0.250,34, -1, 0, -1, -1, -3, -2, 2,2.5283006741218945,0.48477808034840664,0
1503616374738,-0.917,-0.251,-0.000,-0.310,+0.483,+0.166,-0.836,-0.688,-1.312,+0.625,-25, -2, -2, 1, 1, 0, 2, 1,2.5283006741218945,0.48477808034840664,0
1503616374752,-0.917,-0.251,-0.000,-0.310,+0.483,+0.163,-0.842,-0.812,+0.312,+0.562,-12, -6, -1, -5, -2, -3, -1, -3,2.5283006741218945,0.48477808034840664,0
1503616374776,-0.917,-0.251,-0.000,-0.310,+0.483,+0.166,-0.838,-1.250,+0.125,+1.000,8, -2, -3, 0, -2, -2, -2, -2,2.5283006741218945,0.48477808034840664,0
1503616374806,-0.917,-0.251,-0.000,-0.310,+0.494,+0.169,-0.839,-1.062,-0.250,+0.562,-22, -1, 0, -1, 1, -1, 1, -2,2.5283006741218945,0.48477808034840664,0
1503616374819,-0.917,-0.251,-0.000,-0.310,+0.490,+0.164,-0.837,-0.812,-0.062,+0.562,1, -1, 0, -1, -3, 1, 0, 0,2.5283006741218945,0.48477808034840664,0
1503616374834,-0.917,-0.251,-0.000,-0.310,+0.477,+0.166,-0.845,-1.062,-1.000,+0.688,-20, 1, -1, -3, -2, -3, -1, -2,2.5283006741218945,0.48477808034840664,0
1503616374857,-0.917,-0.251,-0.000,-0.310,+0.492,+0.164,-0.840,-0.938,+0.500,+0.562,20, -2, -2, 1, 1, 3, -3, 1,2.5283006741218945,0.48477808034840664,0
1503616374873,-0.917,-0.251,-0.000,-0.310,+0.488,+0.158,-0.838,-0.938,-0.938,+0.562,-1, -5, -3, -1, 1, -2, 2, -2,2.5283006741218945,0.48477808034840664,0
1503616374894,-0.917,-0.251,-0.000,-0.310,+0.480,+0.160,-0.844,-1.000,-0.875,+0.562,42, 6, 0, 1, -2, -1, -3, -1,2.5283006741218945,0.48477808034840664,0
1503616374916,-0.917,-0.251,-0.000,-0.310,+0.488,+0.166,-0.839,-1.250,+0.625,+0.625,4, 1, 2, 0, -2, 0, 3, 4,2.5283006741218945,0.48477808034840664,0
1503616374932,-0.917,-0.251,-0.000,-0.310,+0.482,+0.172,-0.838,-1.375,-0.125,+0.500,40, 2, -1, 1, 0, 0, -4, -4,2.5283006741218945,0.48477808034840664,0
1503616374954,-0.917,-0.251,-0.000,-0.310,+0.484,+0.165,-0.833,-0.812,+0.500,+0.312,10, -1, 1, 2, -1, -1, 1, 2,2.5283006741218945,0.48477808034840664,0
1503616374978,-0.917,-0.251,-0.000,-0.310,+0.494,+0.159,-0.846,-1.250,-0.625,+0.500,-2, -3, -1, -3, 0, -4, -1, -3,2.5283006741218945,0.48477808034840664,0
1503616374992,-0.917,-0.251,-0.000,-0.310,+0.481,+0.167,-0.836,-0.938,-1.562,+0.312,42, -1, -1, 0, -1, 2, -1, 3,2.5283006741218945,0.48477808034840664,0
1503616375015,-0.917,-0.250,-0.000,-0.310,+0.482,+0.159,-0.839,-1.125,+0.750,+0.875,0, 3, -1, -1, -3, -3, -2, 4,2.527716352166347,0.4826627495124716,0
1503616375036,-0.917,-0.251,-0.000,-0.310,+0.496,+0.165,-0.834,-1.250,-0.312,+0.562,-41, -2, 0, -2, 2, -2, -2, 0,2.5283006741218945,0.48477808034840664,0
1503616375052,-0.917,-0.251,-0.000,-0.310,+0.484,+0.165,-0.835,-1.250,-0.812,+0.188,-11, -2, -3, -2, 1, -1, 0, -1,2.5283006741218945,0.48477808034840664,0
1503616375074,-0.917,-0.251,-0.000,-0.310,+0.483,+0.164,-0.848,-0.750,-0.812,+0.438,11, 0, -1, 0, -1, 2, 0, -1,2.5283006741218945,0.48477808034840664,0
1503616375097,-0.917,-0.251,-0.000,-0.310,+0.476,+0.167,-0.847,-1.188,-0.250,+0.500,-29, 1, -2, -1, 0, -1, -2, 0,2.5283006741218945,0.48477808034840664,0
1503616375112,-0.917,-0.251,-0.000,-0.310,+0.489,+0.162,-0.838,-1.250,+1.250,+1.000,-41, -3, 2, 2, 2, -2, 2, 0,2.5283006741218945,0.48477808034840664,0
1503616375134,-0.917,-0.251,-0.000,-0.310,+0.492,+0.166,-0.835,-1.438,-0.312,+0.250,-1, -3, -3, -1, -2, -1, -1, 2,2.5283006741218945,0.48477808034840664,0
1503616375157,-0.917,-0.251,-0.000,-0.310,+0.488,+0.167,-0.839,-1.125,-0.562,+0.312,-4, -3, 1, -2, -2, 2, -1, 3,2.5283006741218945,0.48477808034840664,0
1503616375176,-0.917,-0.251,-0.000,-0.310,+0.487,+0.163,-0.842,-1.000,-0.188,+0.500,18, 3, 0, -1, 0, -2, 2, 0,2.5283006741218945,0.48477808034840664,0
1503616375194,-0.917,-0.251,-0.000,-0.310,+0.489,+0.165,-0.847,-1.250,-0.312,+0.875,15, -2, -3, 0, 0, -3, -1, 0,2.5283006741218945,0.48477808034840664,0
1503616375217,-0.917,-0.251,-0.000,-0.310,+0.485,+0.164,-0.844,-0.688,+0.000,+0.625,-38, -7, -2, -3, -2, -3, 0, -7,2.5283006741218945,0.48477808034840664,0
1503616375232,-0.917,-0.251,-0.000,-0.310,+0.481,+0.164,-0.844,-1.062,-0.312,+0.750,21, 2, -1, 2, 1, 1, 0, 3,2.5283006741218945,0.48477808034840664,0
1503616375254,-0.917,-0.251,-0.000,-0.310,+0.489,+0.163,-0.839,-0.875,-0.062,+0.500,-19, -1, -1, -2, -3, -4, -2, -1,2.5283006741218945,0.48477808034840664,0
1503616375277,-0.917,-0.251,-0.000,-0.310,+0.486,+0.159,-0.836,-0.938,+0.375,+0.250,-10, 4, 3, -1, 3, 2, -3, 2,2.5283006741218945,0.48477808034840664,0
1503616375292,-0.917,-0.251,-0.000,-0.310,+0.486,+0.163,-0.841,-1.125,-0.188,+0.375,71, 6, 1, -2, 0, 3, 1, 5,2.5283006741218945,0.48477808034840664,0
1503616375317,-0.917,-0.251,-0.000,-0.310,+0.489,+0.161,-0.839,-1.062,+0.438,+0.750,-28, -2, -2, 0, 1, -1, 2, 1,2.5283006741218945,0.48477808034840664,0
1503616375336,-0.917,-0.251,-0.000,-0.310,+0.490,+0.162,-0.840,-1.188,-0.875,+0.625,45, 3, 1, 1, 1, 0, 0, -1,2.5283006741218945,0.48477808034840664,0
1503616375352,-0.917,-0.251,-0.000,-0.310,+0.481,+0.161,-0.838,-0.938,-0.625,+0.375,-15, -5, -2, -1, -3, 1, -3, -2,2.5283006741218945,0.48477808034840664,0
1503616375375,-0.917,-0.251,-0.000,-0.310,+0.484,+0.162,-0.843,-1.000,+0.000,+0.562,-55, -5, 0, -1, 0, -5, -3, -7,2.5283006741218945,0.48477808034840664,0
1503616375396,-0.917,-0.251,-0.000,-0.310,+0.479,+0.164,-0.836,-1.500,+0.188,+0.688,-47, -3, -3, 0, -3, 0, 0, -3,2.5283006741218945,0.48477808034840664,0
1503616375419,-0.917,-0.251,-0.000,-0.310,+0.486,+0.168,-0.841,-0.938,+0.438,+0.812,-26, -1, 0, -2, -2, -1, 0, -2,2.5283006741218945,0.48477808034840664,0
1503616375434,-0.917,-0.251,-0.000,-0.310,+0.477,+0.162,-0.833,-1.188,-0.188,+0.938,6, 4, 2, -2, 0, -2, 0, 2,2.5283006741218945,0.48477808034840664,0
1503616375457,-0.917,-0.251,-0.001,-0.310,+0.503,+0.162,-0.836,-0.750,+1.750,+0.500,-46, -7, -1, -1, 0, -2, -1, -1,2.5278852106176397,0.4853341910334765,0
1503616375479,-0.917,-0.251,-0.001,-0.310,+0.488,+0.166,-0.831,-0.875,-1.062,+0.500,42, 1, -1, 2, 1, 3, 0, 0,2.5278852106176397,0.4853341910334765,0
1503616375494,-0.917,-0.251,-0.001,-0.310,+0.491,+0.161,-0.846,-1.312,-0.375,+0.125,3, -2, -4, -3, -3, -1, -2, -1,2.5278852106176397,0.4853341910334765,0
1503616375517,-0.917,-0.251,-0.001,-0.310,+0.497,+0.173,-0.846,-1.500,-0.938,+0.812,-23, -3, 1, -1, -4, -4, -3, -4,2.5278852106176397,0.4853341910334765,0
1503616375539,-0.917,-0.251,-0.001,-0.310,+0.474,+0.162,-0.837,-0.938,-1.812,+0.312,27, 4, 0, -1, -2, 0, -1, -1,2.5278852106176397,0.4853341910334765,0
1503616375554,-0.917,-0.251,-0.001,-0.310,+0.472,+0.159,-0.852,-1.000,+0.062,+0.438,-47, -5, -3, -2, 0, 1, -2, -2,2.5278852106176397,0.4853341910334765,0
1503616375578,-0.917,-0.251,-0.001,-0.310,+0.475,+0.164,-0.841,-1.375,+0.812,+0.312,1, 2, 2, 2, 0, -2, 3, -3,2.5278852106176397,0.4853341910334765,0
1503616375599,-0.917,-0.251,-0.001,-0.310,+0.490,+0.162,-0.845,-1.375,+1.188,+0.438,16, 2, 0, -1, -1, -2, -1, 6,2.5278852106176397,0.4853341910334765,0
1503616375619,-0.917,-0.252,-0.001,-0.310,+0.493,+0.167,-0.835,-1.375,+0.938,+0.438,-17, 1, 0, 1, 0, -1, 0, -4,2.528469411276445,0.487450954528853,0
1503616375636,-0.917,-0.252,-0.001,-0.310,+0.497,+0.164,-0.837,-1.250,-0.500,+0.312,-35, -4, 0, 0, -2, 0, -1, -1,2.528469411276445,0.487450954528853,0
1503616375659,-0.917,-0.252,-0.001,-0.310,+0.491,+0.168,-0.840,-1.062,-1.188,+0.375,22, -3, -2, -1, 2, -1, -2, 3,2.528469411276445,0.487450954528853,0
1503616375677,-0.917,-0.252,-0.001,-0.310,+0.478,+0.160,-0.840,-0.812,-0.938,+0.250,36, 5, -3, -4, -1, 3, 0, 6,2.528469411276445,0.487450954528853,0
1503616375696,-0.917,-0.252,-0.001,-0.310,+0.480,+0.162,-0.840,-0.938,+0.000,+0.750,26, 1, 0, 1, 0, -5, -3, -3,2.528469411276445,0.487450954528853,0
1503616375720,-0.917,-0.252,-0.001,-0.310,+0.482,+0.164,-0.837,-1.125,+0.000,+0.750,5, 0, -1, 0, 0, -2, -2, -5,2.528469411276445,0.487450954528853,0
1503616375735,-0.917,-0.252,-0.001,-0.310,+0.490,+0.163,-0.839,-1.062,+0.688,+0.375,-4, 1, 3, 1, -3, 0, -1, -4,2.528469411276445,0.487450954528853,0
1503616375756,-0.917,-0.252,-0.001,-0.310,+0.491,+0.164,-0.844,-1.125,+0.188,+0.688,-8, -1, -1, 0, 0, 0, 1, 1,2.528469411276445,0.487450954528853,0
1503616375779,-0.917,-0.252,-0.001,-0.310,+0.494,+0.165,-0.828,-1.062,-0.812,+0.500,-4, 1, 2, -2, -1, -1, -1, -3,2.528469411276445,0.487450954528853,0
1503616375795,-0.917,-0.252,-0.001,-0.310,+0.486,+0.162,-0.840,-0.688,-0.562,+0.562,25, -1, -3, -3, -2, -3, 1, 5,2.528469411276445,0.487450954528853,0
1503616375817,-0.917,-0.252,-0.001,-0.310,+0.490,+0.160,-0.831,-1.188,-0.750,+0.562,5, -3, -2, 0, -3, 0, -3, 0,2.528469411276445,0.487450954528853,0
1503616375839,-0.917,-0.252,-0.001,-0.310,+0.486,+0.162,-0.844,-0.812,+0.188,+0.125,-29, -2, 0, 3, 0, 0, -3, -5,2.528469411276445,0.487450954528853,0
1503616375854,-0.917,-0.252,-0.001,-0.310,+0.482,+0.157,-0.842,-0.938,-0.375,+0.375,-27, -5, -2, -1, 2, 0, 1, -2,2.528469411276445,0.487450954528853,0
1503616375878,-0.917,-0.252,-0.001,-0.310,+0.482,+0.161,-0.843,-1.500,-0.438,+0.250,2, 0, 0, -4, -1, -3, -1, -2,2.528469411276445,0.487450954528853,0
1503616375899,-0.917,-0.252,-0.001,-0.310,+0.485,+0.164,-0.840,-1.500,+0.812,+0.438,-2, -3, -3, 0, -3, 2, 0, -3,2.528469411276445,0.487450954528853,0
1503616375915,-0.917,-0.252,-0.001,-0.310,+0.490,+0.159,-0.838,-1.438,+0.812,+0.188,17, 4, -3, -3, -5, 2, -2, 2,2.528469411276445,0.487450954528853,0
1503616375936,-0.917,-0.252,-0.001,-0.310,+0.495,+0.164,-0.840,-1.375,-0.062,+0.500,9, -4, -3, -2, 0, -3, -2, -1,2.528469411276445,0.487450954528853,0
1503616375959,-0.917,-0.252,-0.001,-0.310,+0.488,+0.167,-0.842,-1.000,-0.812,+0.438,38, -1, -4, -2, -1, -1, 1, 1,2.528469411276445,0.487450954528853,0
1503616375975,-0.917,-0.252,-0.001,-0.310,+0.480,+0.165,-0.833,-1.250,-0.375,+0.812,-48, -6, 0, 0, 1, 1, 0, 0,2.528469411276445,0.487450954528853,0
1503616375996,-0.917,-0.252,-0.001,-0.310,+0.486,+0.160,-0.838,-1.000,-0.188,+0.875,-8, -4, -1, -1, -2, -2, -1, 3,2.528469411276445,0.487450954528853,0
1503616376019,-0.917,-0.252,-0.001,-0.310,+0.481,+0.161,-0.834,-1.000,+0.375,+0.562,-37, -4, 0, 1, 0, 0, -1, -5,2.528469411276445,0.487450954528853,0
1503616376035,-0.917,-0.252,-0.001,-0.310,+0.487,+0.162,-0.839,-1.000,+0.438,+0.562,44, 2, 0, 0, 0, 0, -2, 0,2.528469411276445,0.487450954528853,0
1503616376056,-0.917,-0.252,-0.001,-0.310,+0.496,+0.165,-0.845,-0.875,-0.062,+0.562,55, 7, 1, -1, 0, -2, 0, 3,2.528469411276445,0.487450954528853,0
1503616376087,-0.917,-0.252,-0.001,-0.310,+0.491,+0.158,-0.835,-1.375,-0.125,+0.438,-23, -5, 0, 0, 0, 1, 1, -3,2.528469411276445,0.487450954528853,0
1503616376101,-0.917,-0.252,-0.001,-0.310,+0.493,+0.166,-0.847,-0.750,-0.312,+0.250,-10, -4, -2, 0, -3, -1, -3, 0,2.528469411276445,0.487450954528853,0
1503616376117,-0.917,-0.252,-0.001,-0.310,+0.483,+0.163,-0.835,-1.062,-0.750,+0.562,10, -4, -2, -1, -2, 0, -3, -2,2.528469411276445,0.487450954528853,0
1503616376139,-0.917,-0.252,-0.001,-0.310,+0.480,+0.159,-0.842,-1.312,+0.188,+0.375,19, 3, 2, -1, 2, 0, 3, 6,2.528469411276445,0.487450954528853,0
1503616376156,-0.917,-0.252,-0.001,-0.310,+0.490,+0.162,-0.839,-1.375,+0.000,+0.562,6, -2, -3, -2, -1, 1, -1, 1,2.528469411276445,0.487450954528853,0
1503616376177,-0.917,-0.252,-0.001,-0.310,+0.488,+0.168,-0.835,-1.312,+0.062,+0.125,19, 0, -2, -1, -2, -2, -3, -4,2.528469411276445,0.487450954528853,0
1503616376199,-0.917,-0.252,-0.001,-0.310,+0.490,+0.166,-0.842,-1.000,-0.188,+0.188,-9, -3, -2, 1, 2, 0, 1, 2,2.528469411276445,0.487450954528853,0
1503616376215,-0.917,-0.252,-0.001,-0.310,+0.487,+0.163,-0.842,-1.000,-0.188,+0.500,-33, 0, 1, -1, -3, 0, 1, -2,2.528469411276445,0.487450954528853,0
1503616376237,-0.917,-0.252,-0.001,-0.310,+0.486,+0.160,-0.834,-1.375,+0.125,+0.500,10, 0, -2, -1, -1, -1, 2, -1,2.528469411276445,0.487450954528853,0
1503616376263,-0.917,-0.252,-0.001,-0.310,+0.497,+0.164,-0.850,-1.062,-0.562,+0.625,10, 1, 3, 0, 0, 0, 0, 4,2.528469411276445,0.487450954528853,0
1503616376275,-0.917,-0.252,-0.001,-0.310,+0.484,+0.164,-0.833,-1.188,-0.750,+0.312,3, 0, -1, -1, -3, 2, 2, 5,2.528469411276445,0.487450954528853,0
1503616376296,-0.917,-0.252,-0.001,-0.310,+0.481,+0.165,-0.841,-1.312,+0.875,+0.250,17, 6, 0, 0, -2, 0, 1, 3,2.528469411276445,0.487450954528853,0
1503616376319,-0.917,-0.252,-0.001,-0.310,+0.496,+0.164,-0.841,-1.438,+0.250,+0.688,6, -5, -3, 0, -2, -1, -3, -8,2.528469411276445,0.487450954528853,0
1503616376335,-0.917,-0.252,-0.001,-0.310,+0.487,+0.158,-0.840,-0.625,-1.250,+0.375,4, -1, 0, 0, 3, -3, 0, -1,2.528469411276445,0.487450954528853,0
1503616376358,-0.917,-0.252,-0.001,-0.310,+0.482,+0.161,-0.840,-1.000,-0.375,+0.375,-18, 0, 4, 1, -2, 0, -2, -4,2.528469411276445,0.487450954528853,0
1503616376379,-0.917,-0.252,-0.001,-0.310,+0.491,+0.163,-0.841,-1.375,+0.125,+0.312,-13, -4, 0, 1, -1, 1, 1, -1,2.528469411276445,0.487450954528853,0
1503616376395,-0.917,-0.252,-0.001,-0.310,+0.488,+0.164,-0.838,-1.312,-0.062,+0.562,13, -4, -3, -1, -2, -3, -3, -1,2.528469411276445,0.487450954528853,0
1503616376417,-0.917,-0.252,-0.001,-0.310,+0.497,+0.162,-0.843,-0.938,+0.312,+0.688,-13, 1, -1, 0, -1, 2, -4, -1,2.528469411276445,0.487450954528853,0
1503616376439,-0.917,-0.251,-0.001,-0.310,+0.481,+0.160,-0.837,-0.938,-1.438,+0.000,8, 8, 1, -2, 2, -3, 0, 2,2.5278852106176397,0.4853341910334765,0
1503616376455,-0.917,-0.251,-0.001,-0.310,+0.486,+0.158,-0.846,-0.688,-0.625,+0.312,28, 3, -1, -2, -1, 0, -1, -2,2.5278852106176397,0.4853341910334765,0
1503616376477,-0.917,-0.251,-0.001,-0.310,+0.478,+0.162,-0.837,-1.500,+0.438,+0.375,0, -1, -1, -1, -1, -2, 1, -5,2.5278852106176397,0.4853341910334765,0
1503616376499,-0.917,-0.252,-0.001,-0.310,+0.490,+0.165,-0.839,-1.562,+1.375,+0.625,-53, -6, -1, 1, -1, -2, -4, -2,2.528469411276445,0.487450954528853,0
1503616376516,-0.917,-0.252,-0.001,-0.310,+0.499,+0.163,-0.842,-1.000,-1.125,+0.500,-5, -3, -2, -1, -2, 1, -2, -1,2.528469411276445,0.487450954528853,0
1503616376536,-0.917,-0.252,-0.001,-0.310,+0.486,+0.166,-0.830,-0.938,-1.250,+0.125,14, -1, 0, -1, 0, 0, 1, 3,2.528469411276445,0.487450954528853,0
1503616376561,-0.917,-0.252,-0.001,-0.310,+0.479,+0.158,-0.848,-0.688,-0.188,+0.688,-18, -3, -1, -1, -3, -3, 0, -1,2.528469411276445,0.487450954528853,0
1503616376575,-0.917,-0.252,-0.001,-0.310,+0.490,+0.163,-0.828,-1.438,+1.125,+0.375,26, 5, -3, -1, 0, -1, -3, 0,2.528469411276445,0.487450954528853,0
1503616376597,-0.917,-0.252,-0.001,-0.310,+0.489,+0.162,-0.840,-1.188,-0.375,+0.562,-8, -3, 0, -1, -1, -2, 0, -5,2.528469411276445,0.487450954528853,0
1503616376619,-0.917,-0.252,-0.001,-0.310,+0.491,+0.157,-0.837,-1.188,-0.500,+0.625,17, 1, -3, -2, -1, -2, 0, 4,2.528469411276445,0.487450954528853,0
1503616376635,-0.917,-0.252,-0.001,-0.310,+0.485,+0.166,-0.838,-1.312,-0.062,+0.125,-37, -7, -4, -1, -3, 2, 0, -6,2.528469411276445,0.487450954528853,0
1503616376657,-0.917,-0.252,-0.001,-0.310,+0.485,+0.162,-0.842,-1.000,+0.375,+0.062,24, 3, -2, -1, 1, 0, -3, -1,2.528469411276445,0.487450954528853,0
1503616376679,-0.917,-0.252,-0.001,-0.310,+0.483,+0.158,-0.837,-0.812,-0.062,+0.438,16, 3, -1, -2, -2, -2, 1, 3,2.528469411276445,0.487450954528853,0
1503616376695,-0.917,-0.252,-0.001,-0.310,+0.483,+0.160,-0.841,-1.688,-0.500,+0.125,19, 0, 1, 0, 0, -1, 2, 4,2.528469411276445,0.487450954528853,0
1503616376718,-0.917,-0.252,-0.001,-0.310,+0.488,+0.168,-0.845,-1.688,+1.500,+0.188,-98, -9, -3, -3, -1, -2, -3, -7,2.528469411276445,0.487450954528853,0
1503616376739,-0.917,-0.252,-0.001,-0.310,+0.490,+0.163,-0.835,-1.688,-0.250,+0.625,21, -2, -3, 0, -2, 1, -2, -2,2.528469411276445,0.487450954528853,0
1503616376756,-0.917,-0.252,-0.001,-0.310,+0.501,+0.168,-0.838,-1.000,-0.438,+0.250,-9, 1, 2, 1, 1, -1, -3, -5,2.528469411276445,0.487450954528853,0
1503616376778,-0.917,-0.252,-0.001,-0.309,+0.480,+0.167,-0.833,-0.750,-1.625,+0.562,22, 0, 0, 0, -4, -1, 2, 5,2.5299877949199363,0.48744916613411643,0
1503616376799,-0.917,-0.252,-0.001,-0.309,+0.476,+0.157,-0.848,-1.250,+0.562,+0.625,5, -3, 1, -1, -2, 1, 1, 2,2.5299877949199363,0.48744916613411643,0
1503616376815,-0.917,-0.252,-0.001,-0.309,+0.496,+0.168,-0.839,-1.312,-0.062,+0.938,18, 1, 1, 1, 2, -1, -2, 0,2.5299877949199363,0.48744916613411643,0
1503616376837,-0.917,-0.252,-0.001,-0.309,+0.483,+0.162,-0.842,-0.812,+0.000,+0.375,-56, -10, -2, 0, 1, -3, 1, -2,2.5299877949199363,0.48744916613411643,0
1503616376860,-0.917,-0.252,-0.001,-0.309,+0.490,+0.159,-0.835,-0.938,+0.375,+0.562,35, 1, -4, -1, -3, -1, 1, 3,2.5299877949199363,0.48744916613411643,0
1503616376875,-0.917,-0.252,-0.001,-0.309,+0.487,+0.168,-0.847,-0.938,-0.500,+0.500,20, 0, -1, -4, 0, 3, 1, -1,2.5299877949199363,0.48744916613411643,0
1503616376897,-0.917,-0.252,-0.001,-0.309,+0.489,+0.159,-0.834,-1.062,-0.250,+0.438,43, 0, -1, 0, -4, -1, -4, 0,2.5299877949199363,0.48744916613411643,0
1503616376919,-0.917,-0.252,-0.001,-0.309,+0.492,+0.161,-0.848,-0.938,+0.312,+0.500,-10, 6, -1, -1, 1, -3, -3, 0,2.5299877949199363,0.48744916613411643,0
1503616376935,-0.917,-0.252,-0.001,-0.309,+0.487,+0.160,-0.838,-1.125,-0.375,+0.562,-11, 2, 2, 0, -1, -3, 1, 3,2.5299877949199363,0.48744916613411643,0
1503616376958,-0.917,-0.252,-0.001,-0.309,+0.485,+0.162,-0.832,-1.062,-0.188,+0.438,-38, -6, -1, -1, -3, 0, -2, -2,2.5299877949199363,0.48744916613411643,0
1503616376979,-0.917,-0.252,-0.001,-0.309,+0.490,+0.164,-0.834,-1.125,+0.000,+0.125,10, 3, 0, 1, -2, -2, 2, 3,2.5299877949199363,0.48744916613411643,0
1503616376995,-0.917,-0.252,-0.001,-0.309,+0.490,+0.171,-0.836,-1.000,-0.125,+0.438,-57, -5, -1, -2, -1, 0, -5, -10,2.5299877949199363,0.48744916613411643,0
1503616377017,-0.917,-0.252,-0.001,-0.309,+0.489,+0.156,-0.835,-0.875,-0.438,+0.688,15, -2, -1, -1, 2, 0, -1, -1,2.5299877949199363,0.48744916613411643,0
1503616377039,-0.917,-0.252,-0.001,-0.309,+0.490,+0.160,-0.843,-0.875,-0.125,+0.438,11, -1, -2, -2, -1, -1, -1, -6,2.5299877949199363,0.48744916613411643,0
1503616377055,-0.917,-0.252,-0.001,-0.309,+0.483,+0.165,-0.837,-1.125,+0.062,+0.438,-13, -6, -1, -1, -2, -1, 0, 0,2.5299877949199363,0.48744916613411643,0
1503616377077,-0.917,-0.252,-0.001,-0.309,+0.489,+0.162,-0.839,-1.312,-0.125,+0.875,23, 3, 1, -4, -2, -4, 3, 5,2.5299877949199363,0.48744916613411643,0
1503616377099,-0.917,-0.252,-0.001,-0.309,+0.494,+0.163,-0.834,-1.062,-0.562,+0.500,10, -3, -3, -3, -2, 0, -3, -1,2.5299877949199363,0.48744916613411643,0
1503616377115,-0.917,-0.252,-0.001,-0.309,+0.482,+0.160,-0.832,-0.750,-0.375,+0.062,34, 1, 0, 1, 1, -1, -3, -2,2.5299877949199363,0.48744916613411643,0
1503616377137,-0.917,-0.252,-0.001,-0.309,+0.483,+0.157,-0.845,-1.000,+0.500,+0.562,-9, -4, -3, -1, 1, 2, 2, 3,2.5299877949199363,0.48744916613411643,0
1503616377159,-0.917,-0.252,-0.001,-0.309,+0.492,+0.165,-0.825,-1.625,+0.500,+0.562,9, 0, -1, 0, 1, 1, 2, 2,2.5299877949199363,0.48744916613411643,0
1503616377175,-0.917,-0.252,-0.001,-0.309,+0.493,+0.162,-0.839,-1.125,-0.250,+0.312,-13, -3, -3, -3, -2, -3, 0, -1,2.5299877949199363,0.48744916613411643,0
1503616377197,-0.917,-0.252,-0.001,-0.309,+0.488,+0.165,-0.837,-1.062,-0.688,-0.062,-22, -2, -1, 2, 0, 1, 0, 3,2.5299877949199363,0.48744916613411643,0
1503616377221,-0.917,-0.252,-0.001,-0.309,+0.482,+0.163,-0.837,-1.188,-0.250,+0.312,2, 0, 0, -1, -2, 0, -2, -4,2.5299877949199363,0.48744916613411643,0
1503616377235,-0.917,-0.252,-0.001,-0.309,+0.488,+0.168,-0.850,-1.000,-0.312,+0.562,-3, 4, 2, 0, 0, 1, 1, 1,2.5299877949199363,0.48744916613411643,0
1503616377257,-0.917,-0.252,-0.001,-0.309,+0.483,+0.157,-0.833,-1.250,+0.938,+0.062,32, 0, -2, -1, -3, 1, -1, -7,2.5299877949199363,0.48744916613411643,0
1503616377279,-0.917,-0.252,-0.001,-0.309,+0.493,+0.165,-0.849,-1.062,-0.125,+0.562,30, 9, 0, 2, 0, -1, -2, 2,2.5299877949199363,0.48744916613411643,0
1503616377295,-0.917,-0.252,-0.001,-0.309,+0.488,+0.165,-0.835,-1.000,-0.562,+0.250,-30, -4, 0, -1, 0, 0, 2, 2,2.5299877949199363,0.48744916613411643,0
1503616377317,-0.917,-0.252,-0.001,-0.309,+0.484,+0.163,-0.840,-1.188,-0.188,+0.188,10, -4, -2, -1, 0, 0, 1, 5,2.5299877949199363,0.48744916613411643,0
1503616377339,-0.917,-0.252,-0.001,-0.309,+0.494,+0.165,-0.839,-1.438,+0.500,+0.438,-43, -2, -1, 1, -3, 2, -2, -3,2.5299877949199363,0.48744916613411643,0
1503616377356,-0.917,-0.252,-0.001,-0.309,+0.491,+0.163,-0.836,-1.062,-0.062,+0.375,-6, -4, -2, -3, -1, -1, -1, 2,2.5299877949199363,0.48744916613411643,0
1503616377384,-0.917,-0.252,-0.001,-0.309,+0.488,+0.159,-0.845,-0.688,-1.062,+0.438,7, 2, 1, 0, -1, -5, -4, 1,2.5299877949199363,0.48744916613411643,0
1503616377399,-0.917,-0.252,-0.001,-0.309,+0.487,+0.159,-0.843,-1.250,+0.062,+0.250,10, 3, 0, 0, -2, -2, 1, -5,2.5299877949199363,0.48744916613411643,0
1503616377415,-0.917,-0.252,-0.001,-0.309,+0.492,+0.160,-0.839,-1.312,+0.562,+0.438,-5, -5, -2, -3, 0, -3, 2, -1,2.5299877949199363,0.48744916613411643,0
1503616377437,-0.917,-0.252,-0.001,-0.309,+0.493,+0.162,-0.843,-1.062,-0.438,+0.125,-3, -3, -2, -1, -2, 1, -2, -3,2.5299877949199363,0.48744916613411643,0
1503616377459,-0.917,-0.252,-0.001,-0.309,+0.483,+0.161,-0.837,-0.938,-0.625,-0.062,-6, -3, -1, -2, 1, -3, -2, -4,2.5299877949199363,0.48744916613411643,0
1503616377475,-0.917,-0.252,-0.001,-0.309,+0.483,+0.156,-0.849,-1.000,+0.500,+0.375,-8, -2, -2, -1, -2, 3, -1, 2,2.5299877949199363,0.48744916613411643,0
1503616377498,-0.917,-0.252,-0.001,-0.309,+0.491,+0.161,-0.834,-1.812,+0.500,+0.125,-2, -5, -2, -2, -1, 0, -3, -3,2.5299877949199363,0.48744916613411643,0
1503616377519,-0.917,-0.252,-0.001,-0.309,+0.494,+0.163,-0.835,-1.375,+0.500,+0.062,-26, 1, 0, -3, 2, -2, -2, -9,2.5299877949199363,0.48744916613411643,0
1503616377535,-0.917,-0.252,-0.001,-0.309,+0.498,+0.160,-0.838,-1.500,-0.312,+0.000,5, -11, -5, -2, -2, -1, -4, 0,2.5299877949199363,0.48744916613411643,0
1503616377560,-0.917,-0.252,-0.001,-0.309,+0.485,+0.165,-0.842,-1.250,-0.875,+0.000,5, -2, -3, -2, -1, -2, 0, -6,2.5299877949199363,0.48744916613411643,0
1503616377580,-0.917,-0.252,-0.001,-0.309,+0.483,+0.167,-0.841,-1.188,+0.250,+0.375,-47, -7, -3, -2, -2, 1, 0, 0,2.5299877949199363,0.48744916613411643,0
1503616377596,-0.917,-0.252,-0.001,-0.309,+0.492,+0.159,-0.844,-1.375,-0.125,+0.750,-35, -2, -1, 0, -1, 2, -3, -2,2.5299877949199363,0.48744916613411643,0
1503616377618,-0.917,-0.252,-0.001,-0.309,+0.486,+0.160,-0.830,-1.250,+0.062,+0.000,36, 4, 1, 0, 2, 0, 3, 4,2.5299877949199363,0.48744916613411643,0
1503616377639,-0.917,-0.252,-0.001,-0.309,+0.487,+0.163,-0.848,-1.000,-0.250,+0.375,6, 0, -3, -1, 0, -3, -1, 3,2.5299877949199363,0.48744916613411643,0
1503616377655,-0.917,-0.252,-0.001,-0.309,+0.488,+0.167,-0.837,-1.188,+0.000,-0.062,42, 1, 1, -4, -1, -1, 1, 2,2.5299877949199363,0.48744916613411643,0
1503616377677,-0.917,-0.252,-0.001,-0.309,+0.494,+0.163,-0.835,-1.125,+0.188,+0.250,5, -1, 0, 1, -2, 1, -2, 2,2.5299877949199363,0.48744916613411643,0
1503616377700,-0.917,-0.252,-0.001,-0.309,+0.487,+0.163,-0.848,-1.312,-0.750,+0.188,23, 4, -1, -1, -3, -2, -2, -5,2.5299877949199363,0.48744916613411643,0
1503616377715,-0.917,-0.252,-0.001,-0.309,+0.486,+0.159,-0.840,-1.125,+0.000,+0.250,-34, -3, 0, -1, -1, 0, -1, 0,2.5299877949199363,0.48744916613411643,0
1503616377738,-0.917,-0.252,-0.001,-0.309,+0.482,+0.165,-0.839,-1.625,-0.188,+0.062,6, -1, 1, -1, -2, 1, -3, -7,2.5299877949199363,0.48744916613411643,0
1503616377760,-0.917,-0.252,-0.001,-0.309,+0.492,+0.162,-0.843,-1.438,+0.000,+0.000,-9, -2, -2, 0, 0, -2, -1, -6,2.5299877949199363,0.48744916613411643,0
1503616377775,-0.917,-0.252,-0.001,-0.309,+0.481,+0.162,-0.832,-1.375,+0.062,+0.188,11, 1, -2, -1, -3, -2, -1, 0,2.5299877949199363,0.48744916613411643,0
1503616377798,-0.917,-0.252,-0.001,-0.309,+0.495,+0.163,-0.836,-1.750,+0.938,+0.250,21, 8, 1, -3, -2, -1, -6, -10,2.5299877949199363,0.48744916613411643,0
1503616377819,-0.917,-0.253,-0.001,-0.309,+0.498,+0.165,-0.840,-1.250,+0.312,-0.250,-10, -3, 1, 1, -3, -1, 2, 0,2.530572699362476,0.48956796315002177,0
1503616377835,-0.917,-0.252,-0.001,-0.309,+0.482,+0.162,-0.843,-1.000,-0.938,-0.188,-13, -7, -1, 0, 0, 1, 1, 0,2.5299877949199363,0.48744916613411643,0
1503616377859,-0.917,-0.252,-0.001,-0.309,+0.487,+0.167,-0.835,-1.375,-0.188,+0.500,-5, -5, -4, -1, -1, 0, -1, -2,2.5299877949199363,0.48744916613411643,0
1503616377879,-0.917,-0.253,-0.001,-0.309,+0.498,+0.168,-0.840,-1.125,+0.062,+0.438,35, 7, -1, -2, -3, 1, -1, 5,2.530572699362476,0.48956796315002177,0
1503616377897,-0.917,-0.253,-0.001,-0.309,+0.485,+0.159,-0.838,-1.188,-0.688,+0.375,63, 9, 2, -3, 1, 1, -1, -2,2.530572699362476,0.48956796315002177,0
1503616377917,-0.917,-0.252,-0.001,-0.309,+0.491,+0.161,-0.848,-1.125,+0.188,+0.312,4, -3, -2, 0, 2, 0, -1, -1,2.5299877949199363,0.48744916613411643,0
1503616377940,-0.917,-0.252,-0.001,-0.309,+0.484,+0.162,-0.840,-1.562,-0.312,+0.312,-2, 2, 0, -1, -2, 0, 1, 6,2.5299877949199363,0.48744916613411643,0
1503616377955,-0.917,-0.252,-0.001,-0.309,+0.477,+0.163,-0.834,-1.562,+0.688,-0.062,15, 0, -1, 0, -1, -1, 3, -1,2.5299877949199363,0.48744916613411643,0
1503616377978,-0.917,-0.253,-0.001,-0.309,+0.491,+0.165,-0.841,-2.125,+1.688,+0.125,-18, 0, -3, -2, -3, 3, -3, -1,2.530572699362476,0.48956796315002177,0
1503616378000,-0.917,-0.253,-0.001,-0.309,+0.476,+0.165,-0.839,-3.000,+1.625,-0.312,17, 4, 1, 1, -1, -1, 2, 3,2.530572699362476,0.48956796315002177,0
1503616378015,-0.917,-0.254,-0.001,-0.309,+0.486,+0.170,-0.833,-3.625,+2.812,+0.125,5, -2, 1, -1, -1, -4, -5, -1,2.5311589416540152,0.4916887956332384,0
1503616378037,-0.916,-0.254,-0.000,-0.309,+0.508,+0.174,-0.827,-3.438,+2.312,+0.375,-12, -1, 1, 1, 0, 0, -2, -1,2.529963253397884,0.4906826430714549,0
1503616378060,-0.916,-0.255,-0.000,-0.309,+0.490,+0.178,-0.844,-2.500,+0.000,+0.875,7, -2, -2, -2, -1, 4, 0, 3,2.530555669067866,0.49280483975456235,0
1503616378075,-0.916,-0.255,-0.000,-0.309,+0.494,+0.164,-0.824,-1.938,+1.938,+0.875,-8, -1, -3, 1, 1, -2, 0, -5,2.530555669067866,0.49280483975456235,0
1503616378098,-0.916,-0.255,-0.000,-0.309,+0.512,+0.157,-0.838,-2.000,+1.625,+1.188,-44, -7, 1, 1, -1, -2, -2, -10,2.530555669067866,0.49280483975456235,0
1503616378119,-0.916,-0.255,-0.000,-0.308,+0.484,+0.152,-0.845,-1.875,-1.188,+1.375,24, 1, -3, -1, 0, 0, 0, 0,2.5320780177521938,0.49280483975456235,0
1503616378136,-0.917,-0.255,-0.000,-0.308,+0.459,+0.156,-0.851,-3.250,+0.875,+2.688,-27, -8, -1, -1, -2, -2, 1, -1,2.5336893222035224,0.4932597553149669,0
1503616378157,-0.917,-0.256,+0.000,-0.307,+0.475,+0.177,-0.842,-5.438,+4.750,+3.812,47, 6, -2, -5, -2, 1, -2, -2,2.535802121778209,0.4953852813164239,0
1503616378179,-0.916,-0.257,+0.001,-0.307,+0.509,+0.189,-0.827,-5.625,+6.188,+3.875,-6, -1, -2, 0, 1, -1, 1, 1,2.5352179666730694,0.49650960558114565,0
1503616378197,-0.916,-0.259,+0.001,-0.306,+0.539,+0.188,-0.813,-4.312,+3.375,+2.375,-3, -2, -3, -5, 0, -2, -2, 3,2.537939242139793,0.5007714280851661,0
1503616378218,-0.916,-0.259,+0.001,-0.306,+0.509,+0.188,-0.834,-2.188,-0.062,+2.938,-15, 5, 4, 3, 0, 1, -4, 4,2.537939242139793,0.5007714280851661,0
1503616378240,-0.917,-0.258,+0.001,-0.305,+0.500,+0.196,-0.841,-2.000,-3.250,+6.312,-14, -2, -3, -2, -2, 0, -1, -3,2.540467723686502,0.4991011462066594,0
1503616378255,-0.917,-0.259,+0.001,-0.304,+0.506,+0.172,-0.859,-1.875,+4.938,+5.500,-9, -3, 2, 1, 0, -1, -3, -7,2.542592294766871,0.501235231731612,0
1503616378277,-0.916,-0.263,-0.000,-0.303,+0.569,+0.159,-0.874,-3.438,+19.938,+3.062,-31, -4, -1, 0, -3, -3, -1, -2,2.5444913777301243,0.509856653162687,0
1503616378300,-0.915,-0.267,-0.002,-0.304,+0.583,+0.116,-0.881,-1.188,+28.062,-4.438,33, 6, -3, -7, -5, -5, -4, 1,2.5429035538451887,0.5190363318296858,0
1503616378321,-0.912,-0.273,-0.004,-0.304,+0.578,+0.164,-0.883,-1.750,+38.250,-4.812,-12, -3, -3, 0, -2, 0, 0, -3,2.5409328760054013,0.5315919619101807,0
1503616378338,-0.910,-0.282,-0.007,-0.305,+0.573,+0.212,-0.928,+1.062,+56.375,-1.125,-5, -6, -3, -1, -1, -3, 1, -2,2.5405015454433744,0.5517079312620472,0
1503616378359,-0.907,-0.292,-0.010,-0.305,+0.540,+0.178,-0.849,-3.812,+69.250,+0.375,-1, 0, -3, -9, 2, -1, 1, -3,2.540780355680932,0.5736247341657088,0
1503616378381,-0.901,-0.310,-0.014,-0.304,+0.228,+0.227,-0.852,-14.125,+119.688,-1.125,5, -1, -1, 3, 0, -2, 0, 3,2.5429567603880225,0.6123420368394794,0
1503616378398,-0.893,-0.334,-0.020,-0.301,+0.519,+0.219,-0.820,-12.938,+153.375,+16.125,3, -1, -1, -1, -7, -2, 0, -1,2.548860510248681,0.6649969968913808,0
1503616378420,-0.884,-0.358,-0.029,-0.299,+1.005,+0.388,-0.761,-0.062,+153.625,+8.500,0, 0, -1, 2, 1, 2, -2, 1,2.550860416095013,0.7196269161347982,0
1503616378442,-0.878,-0.374,-0.039,-0.296,+1.084,+0.319,-0.695,+22.062,+108.562,+22.875,-3, -2, 0, 5, 0, 2, -1, -3,2.552522247786079,0.7586522282071751,0
1503616378458,-0.875,-0.381,-0.049,-0.295,+0.996,+0.283,-0.783,+44.812,+56.562,+25.125,0, -1, 6, -1, 0, -2, -2, 0,2.5486571301555534,0.7788179205595221,0
1503616378480,-0.874,-0.383,-0.062,-0.294,+0.867,+0.217,-0.830,+64.438,+34.000,+35.875,-1, 0, -3, 8, -2, 1, 0, 2,2.5418924007540604,0.7903850461517025,0
1503616378503,-0.872,-0.385,-0.079,-0.292,+0.763,+0.132,-0.831,+76.500,+54.250,+45.375,1, -4, -24, 1, -1, 6, 9, 1,2.5324901725094935,0.8042140399804323,0
1503616378518,-0.868,-0.392,-0.099,-0.289,+0.779,+0.065,-0.778,+82.625,+85.250,+51.312,-2, -2, -14, -13, -7, -10, -9, -2,2.5231626520665484,0.8312009639379834,0
1503616378540,-0.862,-0.403,-0.122,-0.284,+0.896,+0.021,-0.733,+89.250,+110.500,+63.188,0, 2, 18, 6, 2, 0, -2, -1,2.5142511998733803,0.8693828445086792,0
1503616378564,-0.855,-0.413,-0.147,-0.277,+0.979,-0.010,-0.686,+98.062,+112.250,+74.750,-7, 7, 5, 1, 0, 1, -2, 0,2.503932982243464,0.9073739061794194,0
1503616378577,-0.849,-0.419,-0.172,-0.270,+0.988,-0.052,-0.642,+105.188,+94.250,+83.625,7, -2, -3, 2, 2, 0, -1, 5,2.491621652242726,0.9381613343337564,0
1503616378600,-0.845,-0.422,-0.198,-0.263,+0.958,-0.113,-0.589,+111.438,+73.500,+88.062,-1, 2, -7, -11, 2, -3, -2, -3,2.4792520206738593,0.9655978495261728,0
1503616378622,-0.840,-0.423,-0.225,-0.256,+0.894,-0.198,-0.582,+115.062,+68.000,+90.250,3, 5, 2, 0, -1, 1, 2, -3,2.462755328552118,0.9909423270317871,0
1503616378638,-0.834,-0.423,-0.251,-0.249,+0.814,-0.251,-0.559,+114.625,+65.312,+94.500,25, 6, -8, -5, -3, -3, -4, 1,2.444074324782181,1.0147649729261898,0
1503616378661,-0.829,-0.422,-0.277,-0.240,+0.751,-0.281,-0.486,+113.625,+58.500,+100.750,-6, -10, 9, 4, -1, 1, -2, -7,2.428692756353904,1.0385476656906165,0
1503616378682,-0.825,-0.419,-0.302,-0.231,+0.690,-0.354,-0.434,+109.875,+47.875,+103.562,-19, -4, -4, 3, 0, 2, 11, 4,2.4141616428959254,1.0592270026192139,0
1503616378698,-0.820,-0.416,-0.325,-0.222,+0.637,-0.426,-0.376,+103.375,+46.625,+99.688,-22, 9, 4, 3, -3, -9, -2, -3,2.3987463813320953,1.079129381073895,0
1503616378720,-0.816,-0.410,-0.348,-0.211,+0.606,-0.465,-0.348,+92.750,+35.562,+101.438,-5, -11, -5, -2, -1, 1, 7, 3,2.3856244103894837,1.0939002029809357,0
1503616378742,-0.814,-0.403,-0.368,-0.201,+0.550,-0.492,-0.334,+83.188,+18.750,+104.000,-35, 7, 3, -1, -1, 1, 1, -2,2.3767388240281067,1.1048390120760154,0
1503616378757,-0.813,-0.393,-0.386,-0.190,+0.530,-0.541,-0.335,+71.062,+3.938,+102.000,9, 0, 3, 0, 0, 4, 1, 2,2.371074679382838,1.1068830021446017,0
1503616378780,-0.815,-0.379,-0.400,-0.180,+0.473,-0.650,-0.338,+48.438,-19.562,+98.625,24, 0, -3, -1, 0, -5, 2, -7,2.371974335973128,1.0947992341185053,0
1503616378802,-0.819,-0.365,-0.410,-0.168,+0.440,-0.740,-0.292,+17.125,-39.188,+91.562,34, 6, -1, 1, 0, 5, 2, 1,2.3845076376963714,1.0755475085853157,0
1503616378817,-0.825,-0.350,-0.414,-0.158,+0.471,-0.778,-0.274,-13.500,-51.625,+77.000,-1, -5, -4, -2, 0, -6, 2, -1,2.4043526011069516,1.043755838853609,0
1503616378841,-0.832,-0.340,-0.413,-0.150,+0.514,-0.740,-0.270,-35.875,-44.500,+52.250,-15, -61, -11, -2, -4, -1, -1, 0,2.43040478146474,1.0157243539558325,0
1503616378862,-0.838,-0.333,-0.408,-0.146,+0.648,-0.737,-0.296,-54.000,-43.000,+21.062,-16, -2, 3, 0, -3, -1, -8, -8,2.4520258563238646,0.9891604964262706,0
1503616378877,-0.845,-0.328,-0.396,-0.147,+0.818,-0.722,-0.330,-76.938,-63.250,-10.000,-17, 3, -2, 0, 1, 0, -2, 4,2.4729180346858612,0.9583921440616436,0
1503616378900,-0.852,-0.325,-0.379,-0.154,+0.890,-0.592,-0.389,-90.625,-69.500,-49.812,24, 17, 6, 2, 2, 1, 13, 4,2.4871096551898493,0.9286624585800398,0
1503616378923,-0.859,-0.323,-0.359,-0.169,+0.951,-0.499,-0.422,-91.312,-82.500,-89.438,8, -20, 2, -2, -2, 0, 4, -4,2.4897831212616572,0.902786010325484,0
1503616378938,-0.866,-0.319,-0.337,-0.186,+0.973,-0.608,-0.523,-91.688,-95.938,-113.625,-21, 11, 0, -4, -1, 2, -1, 0,2.489430025577036,0.872199194657566,0
1503616378960,-0.873,-0.318,-0.309,-0.203,+0.867,-0.621,-0.567,-124.312,-83.062,-130.375,-2, -5, -7, -4, -2, -3, -12, -17,2.4927547934635492,0.8427283634847765,0
1503616378982,-0.880,-0.321,-0.276,-0.216,+0.585,-0.390,-0.587,-167.688,-59.188,-125.250,-6, 10, -8, -2, -5, -2, 10, -1,2.5056022996692233,0.8175392635992424,0
1503616378998,-0.884,-0.336,-0.237,-0.222,+0.425,-0.191,-0.685,-213.750,+14.125,-127.062,18, -2, -3, 3, 3, -5, -12, 8,2.531149938663619,0.8128725031715395,0
1503616379020,-0.880,-0.370,-0.197,-0.224,+0.277,+0.306,-0.552,-237.125,+132.312,-132.875,29, 4, 6, 1, 1, 6, 24, 11,2.560675933069923,0.8507742531973143,0
1503616379043,-0.870,-0.411,-0.166,-0.216,+0.350,+0.569,-0.263,-213.312,+203.562,-78.062,-13, -2, 10, -2, -9, -5, -8, -8,2.600045646802279,0.9136848329741449,0
1503616379058,-0.859,-0.446,-0.147,-0.204,+0.728,+0.491,+0.177,-155.312,+184.375,-26.688,-4, -12, 3, -3, 5, 6, -4, -4,2.637766282921515,0.9759977988301152,0
1503616379080,-0.850,-0.469,-0.140,-0.196,+1.085,+0.430,+0.238,-74.938,+127.188,-4.688,-34, -55, -21, -6, -2, -6, -1, -2,2.658202393946443,1.0221603512357302,0
1503616379102,-0.839,-0.486,-0.146,-0.195,+1.070,+0.276,-0.112,+18.375,+111.938,+3.625,6, -21, -12, -5, -6, -5, -14, 3,2.651932676671971,1.0634502772306211,0
1503616379117,-0.831,-0.497,-0.157,-0.196,+0.948,+0.081,-0.337,+53.062,+84.000,+18.250,9, 25, 4, 2, 2, 5, -3, 3,2.6383258088297206,1.0955845769788095,0
1503616379139,-0.821,-0.511,-0.168,-0.193,+0.878,-0.029,-0.276,+42.000,+110.250,+21.688,3, 23, 5, 1, -1, 1, 6, 1,2.630037354085201,1.1346368240939968,0
1503616379161,-0.808,-0.529,-0.178,-0.189,+0.967,-0.064,-0.265,+25.688,+142.875,+16.188,5, 22, 2, 0, -1, -2, -5, -12,2.6231192758081523,1.182749232462669,0
1503616379177,-0.795,-0.546,-0.188,-0.185,+1.016,+0.030,-0.191,+28.062,+132.438,+18.000,-34, 8, 1, 0, 1, -3, 0, 0,2.615589332675129,1.2294880378288024,0
1503616379199,-0.784,-0.559,-0.198,-0.186,+1.072,+0.102,-0.072,+49.625,+91.438,+18.062,64, 22, -7, -3, -4, -4, -3, 7,2.6007879823192264,1.2681967302696746,0
1503616379221,-0.773,-0.568,-0.210,-0.189,+1.094,+0.038,-0.017,+67.750,+64.438,+13.750,13, 2, -3, 0, 0, -3, -3, -4,2.578247110520002,1.2992895856409217,0
1503616379236,-0.763,-0.576,-0.222,-0.192,+1.069,-0.086,-0.059,+68.500,+72.625,+10.062,11, -2, -1, -2, -4, -2, 1, -2,2.5562629340565652,1.3289201433249656,0
1503616379260,-0.751,-0.586,-0.236,-0.192,+1.075,-0.068,-0.042,+62.188,+90.625,+23.062,-23, 5, -2, -2, -1, -4, -3, -5,2.5353117572952826,1.3658286124724155,0
1503616379281,-0.738,-0.596,-0.251,-0.191,+1.051,+0.012,+0.019,+68.250,+106.062,+33.750,8, 1, -3, 0, 2, 3, 0, 1,2.5132107721418233,1.404680728105295,0
1503616379296,-0.726,-0.603,-0.268,-0.193,+1.087,-0.008,-0.005,+94.062,+81.875,+36.812,-34, -1, 0, -1, -3, -2, -1, 0,2.483978086999581,1.4396499691808435,0
1503616379319,-0.718,-0.603,-0.286,-0.198,+1.043,-0.064,-0.090,+102.188,+43.125,+32.812,20, 5, -5, -1, -2, -2, 0, -2,2.4489160141995483,1.4597416462436519,0
1503616379341,-0.714,-0.599,-0.301,-0.203,+0.976,-0.070,-0.005,+95.062,-0.125,+42.562,16, -48, -23, -5, -3, 0, -3, -4,2.418600558778974,1.4676466634026264,0
1503616379356,-0.713,-0.591,-0.317,-0.207,+0.859,-0.004,-0.040,+93.250,-18.062,+66.750,3, 2, 9, 5, 5, 13, 11, 0,2.388975687565766,1.4680184927164857,0
1503616379379,-0.710,-0.583,-0.335,-0.209,+0.787,+0.008,-0.094,+96.250,+1.125,+79.438,23, 34, 17, 15, 4, -4, -11, 1,2.3566220121095163,1.4721681180475497,0
1503616379404,-0.707,-0.575,-0.354,-0.209,+0.805,-0.090,-0.204,+98.312,+11.188,+83.375,29, 1, 0, -4, -1, 0, 6, -2,2.3256387387263495,1.4793600329114747,0
1503616379416,-0.706,-0.565,-0.372,-0.209,+0.869,-0.222,-0.162,+92.250,-7.188,+82.625,-17, 42, 2, -1, -3, -1, -7, -2,2.296931280993002,1.4820921987076547,0
1503616379439,-0.705,-0.555,-0.389,-0.209,+0.882,-0.253,-0.043,+83.688,-17.312,+83.062,-2, -12, -9, -4, -1, -3, -14, 1,2.269340571080316,1.4849812286491186,0
1503616379461,-0.703,-0.545,-0.406,-0.208,+0.808,-0.246,+0.005,+79.188,-13.312,+79.688,-12, -21, -2, -3, -2, -3, -10, 4,2.240938989274017,1.4894102290675189,0
1503616379476,-0.702,-0.535,-0.421,-0.208,+0.753,-0.288,-0.072,+77.000,-16.000,+66.938,-5, -2, -4, -3, -1, 1, 16, -1,2.2153150525482124,1.4920757239714117,0
1503616379499,-0.702,-0.525,-0.433,-0.210,+0.742,-0.375,-0.156,+71.750,-22.188,+50.750,-2, -24, 4, -2, -1, -2, -4, 0,2.1923768386828346,1.4906904079599372,0
1503616379521,-0.702,-0.517,-0.442,-0.212,+0.787,-0.403,-0.080,+57.938,-23.500,+37.250,12, 2, 1, 1, 2, 7, 7, 3,2.1742939980693214,1.4891910725624342,0
1503616379538,-0.703,-0.509,-0.448,-0.215,+0.748,-0.346,-0.035,+38.500,-32.750,+29.875,1, -1, 0, -2, -1, 19, 3, -5,2.15972100894321,1.4824760685774663,0
1503616379559,-0.704,-0.502,-0.452,-0.217,+0.669,-0.254,-0.033,+28.188,-33.375,+22.625,12, 7, 0, 2, 6, 39, -8, -4,2.148712725356613,1.474324250447362,0
1503616379581,-0.705,-0.497,-0.455,-0.222,+0.655,-0.247,-0.069,+29.500,-30.875,+9.000,1, 4, 3, 2, 2, -17, -2, 3,2.138515686006443,1.4693151428998494,0
1503616379596,-0.704,-0.494,-0.458,-0.227,+0.729,-0.387,-0.069,+33.250,-12.125,-9.312,-16, -18, -4, -1, -1, -2, -16, -5,2.1263434487770008,1.4688799011052942,0
1503616379619,-0.700,-0.496,-0.459,-0.230,+0.843,-0.483,-0.051,+20.875,+10.688,-25.250,-4, -2, -2, -3, -5, -5, 2, -2,2.1165292605155255,1.4754461744855343,0
1503616379643,-0.698,-0.499,-0.458,-0.232,+0.914,-0.460,-0.110,+4.188,+17.250,-30.625,-2, -4, -6, -2, -4, -50, -2, 1,2.1148200887894113,1.4803294425693168,0
1503616379656,-0.697,-0.503,-0.454,-0.235,+0.975,-0.387,-0.123,-11.062,+13.688,-32.312,-23, -5, -1, -3, 1, -1, -2, 1,2.1177967657291394,1.4816462099580139,0
1503616379679,-0.699,-0.503,-0.447,-0.241,+1.043,-0.392,-0.137,-13.750,-28.750,-40.312,36, -5, 13, -2, -6, -19, -44, -2,2.121674958245062,1.4684348222753478,0
1503616379701,-0.698,-0.505,-0.444,-0.248,+1.008,-0.581,-0.052,+5.312,-12.562,-59.312,15, 4, -16, -4, -3, 30, 42, 2,2.1182819942525017,1.4677497504187862,0
1503616379716,-0.697,-0.508,-0.438,-0.256,+0.979,-0.609,-0.116,-4.125,-11.312,-74.812,-62, 1, 0, 0, -6, -5, 15, 0,2.1172666270463614,1.4637604418249899,0
1503616379739,-0.699,-0.509,-0.427,-0.264,+1.048,-0.510,-0.106,-30.000,-34.625,-76.500,33, 5, 6, -3, -1, 33, -15, -1,2.123122149978899,1.4463885311915325,0
1503616379762,-0.702,-0.509,-0.418,-0.270,+1.137,-0.536,-0.014,-32.938,-46.250,-60.062,4, 18, -1, 0, 4, 20, -28, -6,2.1301929011844165,1.4309284934484146,0
1503616379777,-0.704,-0.510,-0.411,-0.274,+1.125,-0.636,-0.070,-29.188,-27.375,-53.812,-19, 6, -7, -4, 2, 21, 10, -4,2.1367750914693886,1.4214276323982864,0
1503616379799,-0.708,-0.511,-0.401,-0.277,+1.096,-0.549,-0.140,-42.312,-26.750,-55.750,15, -14, -2, 2, 9, -69, 69, 6,2.150176294043386,1.4071559143719647,0
1503616379821,-0.713,-0.510,-0.389,-0.283,+1.065,-0.398,-0.150,-47.688,-54.625,-59.188,4, -1, 9, -3, -2, 3, -1, 0,2.1617164244892915,1.38594383838371,0
1503616379836,-0.716,-0.510,-0.378,-0.289,+1.003,-0.361,-0.117,-35.688,-45.562,-58.875,-7, -32, 7, 11, 0, 6, -19, -1,2.1696088615186273,1.369076011584848,0
1503616379859,-0.718,-0.511,-0.369,-0.295,+0.950,-0.318,-0.142,-29.750,-30.062,-55.125,-19, -21, 11, -4, 0, 12, -41, -8,2.1754395794988994,1.3581542115087364,0
1503616379883,-0.721,-0.511,-0.361,-0.299,+1.082,-0.332,-0.132,-30.750,-34.812,-43.062,11, 13, -7, 3, 13, -87, 51, 7,2.183075773508224,1.3467367591224937,0
1503616379896,-0.723,-0.510,-0.356,-0.301,+1.191,-0.422,-0.141,-22.938,-26.125,-29.125,16, 9, -1, -5, -14, 17, -10, 13,2.187217321726618,1.337335926440808,0
1503616379926,-0.725,-0.509,-0.353,-0.301,+1.104,-0.357,-0.197,-19.312,-24.938,-13.312,-7, 4, -5, 0, 0, 10, 19, -27,2.1918612384003673,1.3307932796590163,0
1503616379942,-0.730,-0.504,-0.349,-0.302,+1.035,-0.273,-0.249,-16.500,-38.062,-3.062,1, 8, -1, 0, -2, 13, -1, 1,2.1973730137874825,1.3142124735375773,0
1503616379956,-0.735,-0.499,-0.346,-0.302,+1.065,-0.257,-0.245,-16.125,-45.125,+8.250,-6, -2, -12, -3, -2, 1, -5, -2,2.203273318944332,1.299104431244388,0
1503616379979,-0.739,-0.494,-0.346,-0.300,+1.102,-0.268,-0.228,-8.125,-35.688,+26.500,0, -1, -3, -3, 0, -8, 4, 12,2.207233139696731,1.287994310011512,0
1503616380002,-0.744,-0.487,-0.348,-0.297,+1.029,-0.228,-0.253,-2.312,-30.875,+42.875,7, -5, -4, -6, 2, 6, 30, 5,2.2108001691547585,1.275361214766514,0
1503616380017,-0.750,-0.480,-0.350,-0.292,+0.965,-0.233,-0.290,-3.938,-33.250,+51.438,3, -4, 2, -3, -5, 9, 1, -2,2.2186654796746312,1.2626721050804102,0
1503616380042,-0.757,-0.472,-0.351,-0.286,+0.979,-0.238,-0.275,-9.000,-40.750,+64.000,-30, 2, -5, -2, -3, -6, -3, -4,2.229530954645412,1.2461939414957988,0
1503616380061,-0.765,-0.460,-0.354,-0.280,+0.930,-0.273,-0.274,-3.812,-57.625,+72.812,3, -2, -5, -1, -2, 6, -10, -4,2.237714808560514,1.2238345131289725,0
1503616380076,-0.771,-0.449,-0.357,-0.275,+0.859,-0.341,-0.273,+3.375,-50.000,+58.500,3, 1, -1, 1, 1, 1, -17, -2,2.242561992171037,1.2035350296662513,0
1503616380099,-0.776,-0.441,-0.359,-0.273,+0.795,-0.354,-0.313,+5.062,-40.625,+36.625,18, -4, -4, -2, -3, 2, 15, 9,2.246398843086169,1.189215721443979,0
1503616380121,-0.779,-0.434,-0.360,-0.274,+0.766,-0.323,-0.265,+6.562,-43.625,+13.875,6, -15, -5, 3, 6, 3, 2, -7,2.2446264731506407,1.1758592129606495,0
1503616380136,-0.781,-0.427,-0.359,-0.280,+0.814,-0.317,-0.283,+14.125,-50.812,-17.000,-1, -10, -13, -6, -3, -2, 3, 1,2.236807949068717,1.1604920705679604,0
1503616380159,-0.782,-0.422,-0.355,-0.292,+0.845,-0.314,-0.340,+20.250,-56.250,-49.562,-14, 47, 20, 4, -2, -1, -5, -7,2.2243624343175132,1.146520058317231,0
1503616380182,-0.781,-0.417,-0.349,-0.307,+0.808,-0.275,-0.376,+20.812,-56.562,-78.375,-6, -12, -4, -1, 2, 4, 1, -1,2.205730097405849,1.1297627414530327,0
1503616380197,-0.778,-0.415,-0.342,-0.325,+0.823,-0.194,-0.391,+21.500,-49.938,-100.250,31, 0, -2, -2, 1, 0, 0, 1,2.1834967000427143,1.118640067639369,0
1503616380219,-0.772,-0.415,-0.337,-0.343,+0.867,-0.139,-0.387,+28.812,-31.312,-104.688,-13, 1, 7, -1, -2, -1, 1, -5,2.156128074344697,1.114108062161447,0
1503616380243,-0.765,-0.418,-0.332,-0.360,+0.923,-0.112,-0.381,+32.625,-13.938,-105.750,13, 25, 23, 6, 0, -1, 3, 3,2.1312841530209203,1.1155480550285133,0
1503616380261,-0.756,-0.423,-0.329,-0.375,+1.005,-0.064,-0.391,+28.500,+7.438,-97.438,-17, -4, -7, -3, -1, 0, -2, 4,2.105743812761221,1.1230714082805886,0
1503616380279,-0.748,-0.430,-0.327,-0.386,+1.008,+0.014,-0.381,+27.625,+22.688,-71.375,-4, 32, 13, 6, 1, 1, 0, -3,2.0883044737682797,1.1356944020426512,0
1503616380301,-0.739,-0.437,-0.327,-0.395,+0.982,+0.079,-0.412,+27.000,+34.625,-56.250,-11, -14, 0, -2, 0, -5, 3, -8,2.0700086490575242,1.1504220757734183,0
1503616380318,-0.730,-0.445,-0.328,-0.401,+1.011,+0.137,-0.346,+23.688,+49.562,-41.812,-7, 9, 9, -2, 0, -1, -1, -7,2.0553376696960783,1.1681272478898483,0
1503616380339,-0.722,-0.454,-0.333,-0.402,+1.116,+0.111,-0.311,+23.688,+63.062,-8.625,-1, 37, 5, 3, 2, -3, 4, 9,2.0464892671101205,1.1934059417814626,0
1503616380361,-0.717,-0.460,-0.340,-0.398,+1.161,+0.055,-0.257,+18.125,+56.250,+21.938,5, -24, -13, -4, -4, 0, 4, 6,2.043109259854076,1.2150967492581208,0
1503616380377,-0.714,-0.464,-0.346,-0.393,+1.247,+0.060,-0.241,+6.750,+35.812,+35.562,-32, -12, 4, -3, -4, -3, -5, 1,2.042605331779616,1.2313747607648986,0
1503616380399,-0.716,-0.464,-0.347,-0.389,+1.218,+0.059,-0.275,-3.438,+0.062,+45.312,-2, 6, 4, 1, 1, 1, 9, 3,2.0492321651518686,1.2326491720730723,0
1503616380421,-0.721,-0.460,-0.348,-0.385,+1.078,+0.028,-0.280,-6.875,-22.000,+46.250,-7, -11, -12, -1, 0, -1, -3, 2,2.0572242921417385,1.2258766488933739,0
1503616380437,-0.725,-0.457,-0.348,-0.381,+0.954,+0.025,-0.285,-9.188,-17.188,+46.125,-5, 4, 1, -3, 0, -1, -3, -5,2.064920579664968,1.2194549663873355,0
1503616380459,-0.728,-0.456,-0.349,-0.376,+0.891,+0.001,-0.303,-10.438,-1.438,+43.688,-4, 9, 0, 3, -1, -2, 0, 4,2.073356422469061,1.2185411910834583,0
1503616380482,-0.730,-0.457,-0.350,-0.370,+0.884,-0.027,-0.299,-13.000,+18.438,+39.250,-2, 3, 4, 0, -2, 0, -3, -1,2.0829134977250576,1.2215536491722334,0
1503616380497,-0.730,-0.460,-0.352,-0.363,+0.896,-0.063,-0.292,-16.500,+35.875,+34.750,1, -1, 2, 0, -1, -4, 0, -4,2.090915622762091,1.2298149011583315,0
1503616380520,-0.729,-0.465,-0.354,-0.356,+0.919,-0.101,-0.278,-20.938,+41.688,+30.500,5, 16, 0, -5, -1, 3, 1, -2,2.0993183611728687,1.2423718493213902,0
1503616380542,-0.729,-0.470,-0.355,-0.349,+0.919,-0.126,-0.296,-23.438,+37.875,+24.875,0, -4, -4, 0, -2, -3, 2, 0,2.1104796337933496,1.253747376887921,0
1503616380557,-0.729,-0.474,-0.354,-0.344,+0.909,-0.148,-0.319,-23.375,+31.812,+14.000,12, 3, -3, 3, 3, 2, 1, 0,2.1199073824137034,1.26019111616633,0
1503616380579,-0.729,-0.478,-0.353,-0.340,+0.884,-0.169,-0.317,-21.750,+28.875,+2.562,-8, -5, -6, -2, -2, 0, 1, 1,2.128624979626916,1.266927041137814,0
1503616380601,-0.729,-0.481,-0.352,-0.337,+0.874,-0.191,-0.311,-20.250,+26.688,-0.125,1, 4, 4, 1, -1, -1, 1, -1,2.135328169126611,1.2716292304230816,0
1503616380617,-0.728,-0.485,-0.351,-0.334,+0.867,-0.229,-0.287,-19.562,+25.312,+1.188,-16, -4, -4, -3, -3, -2, -6, -2,2.1412093239484684,1.2784038599842305,0
1503616380639,-0.728,-0.488,-0.351,-0.330,+0.893,-0.269,-0.280,-20.188,+27.312,+3.562,8, 2, -2, 2, -3, -4, -1, -3,2.148255172539594,1.284553546962246,0
1503616380662,-0.727,-0.491,-0.352,-0.325,+0.907,-0.275,-0.259,-18.375,+30.812,+7.188,-3, -1, -2, 0, -4, -1, -3, -1,2.1534869043350757,1.2918268316174495,0
1503616380679,-0.727,-0.493,-0.353,-0.321,+0.927,-0.304,-0.260,-13.250,+22.188,+9.688,-2, 1, 10, 7, 0, -1, -6, 3,2.1587660755561,1.2972780122850534,0
1503616380699,-0.727,-0.495,-0.354,-0.317,+0.944,-0.335,-0.229,-13.438,+22.500,+6.562,-14, -2, -6, -3, -3, -1, -4, -1,2.1640613982367936,1.3027527716663032,0
1503616380721,-0.727,-0.496,-0.356,-0.314,+0.929,-0.331,-0.226,-8.375,+14.500,+7.188,0, 6, 11, 4, -1, 1, -2, -3,2.1666954487747208,1.307663732268341,0
1503616380737,-0.727,-0.496,-0.358,-0.311,+0.905,-0.323,-0.192,-2.312,+9.250,+7.438,-6, -6, -5, -2, -2, 0, 4, 3,2.1680624225076444,1.3102493277222134,0
1503616380759,-0.727,-0.496,-0.361,-0.309,+0.896,-0.351,-0.184,+1.938,+10.750,+6.875,-2, -3, -3, 2, 0, -2, -5, -10,2.1680232567757898,1.314631022709385,0
1503616380781,-0.726,-0.497,-0.364,-0.306,+0.875,-0.354,-0.174,+3.062,+16.625,+6.875,2, 2, -1, 1, 0, 1, 3, 4,2.1679754957376702,1.3209533674009348,0
1503616380797,-0.724,-0.498,-0.367,-0.304,+0.891,-0.339,-0.149,+5.312,+21.125,+3.875,2, 1, 7, 4, 4, -3, 0, 3,2.1649690364061187,1.3272594907393882,0
1503616380819,-0.722,-0.500,-0.370,-0.303,+0.918,-0.323,-0.142,+7.750,+17.562,-0.875,2, -7, -3, -2, -5, 0, -1, 0,2.162402382741442,1.3361436925250625,0
1503616380841,-0.720,-0.501,-0.372,-0.303,+0.947,-0.334,-0.136,+9.125,+9.438,-5.312,-7, -4, -2, 0, -1, -2, -1, 4,2.1583076036400155,1.3412707508110073,0
1503616380864,-0.719,-0.501,-0.374,-0.304,+0.942,-0.304,-0.125,+6.750,+3.375,-7.125,-12, 3, 1, 0, 2, -1, -10, -3,2.154229388189045,1.3444823541643063,0
1503616380881,-0.718,-0.501,-0.375,-0.304,+0.908,-0.292,-0.130,+5.625,+2.625,-7.562,-16, 5, -1, -2, -3, -2, -11, -6,2.1515372450510175,1.3458933789017256,0
1503616380901,-0.717,-0.502,-0.376,-0.305,+0.913,-0.268,-0.150,+6.125,+6.812,-10.000,4, -3, -3, -3, -3, -1, -2, 1,2.149340661026265,1.3498191263509935,0
1503616380917,-0.715,-0.504,-0.376,-0.307,+0.939,-0.233,-0.161,+6.625,+11.125,-12.125,24, -1, 3, -2, -3, -5, -2, -3,2.146114042706251,1.3543788190014434,0
1503616380939,-0.713,-0.505,-0.377,-0.309,+0.941,-0.193,-0.193,+9.250,+10.562,-12.000,-8, 0, 1, 0, -1, 2, -1, 5,2.1410498668305817,1.3582460476018083,0
1503616380961,-0.711,-0.506,-0.377,-0.311,+0.952,-0.183,-0.179,+11.875,+3.000,-12.750,5, -2, 1, 1, -1, -3, -4, 1,2.1365738990164824,1.360468921219539,0
1503616380977,-0.710,-0.505,-0.376,-0.315,+0.975,-0.202,-0.169,+9.375,-6.562,-13.812,-8, -9, -7, -3, -2, -1, 0, -4,2.130557708704657,1.3569247845333898,0
1503616380999,-0.710,-0.505,-0.376,-0.318,+0.970,-0.196,-0.147,+6.125,-10.812,-14.000,8, 2, -2, 4, 3, 5, 10, 3,2.1282486811695764,1.3574141665703086,0
1503616381029,-0.709,-0.504,-0.373,-0.321,+0.929,-0.154,-0.176,+1.750,-10.625,-17.875,-9, 1, -2, -2, -4, -7, -7, -4,2.124116112672764,1.3504507805294774,0
1503616381044,-0.709,-0.505,-0.370,-0.324,+0.917,-0.106,-0.153,-5.125,-11.375,-19.688,-6, 4, 2, -1, 1, 2, 3, 3,2.12481187546669,1.3484029724393336,0
1503616381059,-0.710,-0.505,-0.366,-0.328,+0.965,-0.107,-0.153,-6.188,-14.812,-19.500,0, 1, 3, 2, -2, 1, -3, 5,2.1260424139773106,1.3428604552558594,0
1503616381082,-0.711,-0.505,-0.362,-0.331,+1.009,-0.115,-0.166,-10.250,-22.688,-18.438,6, 0, 2, -1, -3, -1, -1, -8,2.1280214852586137,1.3372257402752326,0
1503616381104,-0.713,-0.504,-0.356,-0.334,+0.988,-0.110,-0.166,-18.875,-27.812,-18.062,8, 4, -1, 2, 2, -3, -5, -1,2.131813716662463,1.3264396275769048,0
1503616381119,-0.715,-0.504,-0.350,-0.336,+0.937,-0.084,-0.168,-26.312,-29.062,-20.438,-15, -1, 13, 3, 1, 0, -2, -2,2.13770738432297,1.3179684603446775,0
1503616381141,-0.717,-0.504,-0.343,-0.338,+0.963,-0.072,-0.175,-28.625,-23.500,-21.562,13, -3, 7, 1, 3, -1, 1, -10,2.144140612349371,1.3081325189678426,0
1503616381164,-0.719,-0.505,-0.335,-0.340,+0.978,-0.049,-0.213,-30.875,-22.688,-21.125,-7, -4, -3, -3, -4, -4, -5, -8,2.1524613235775223,1.2993602693246442,0
1503616381179,-0.722,-0.505,-0.328,-0.341,+1.012,-0.044,-0.229,-32.062,-25.125,-17.188,-27, 2, -5, -5, 1, 3, -3, 0,2.161731012420371,1.2900531742257457,0
1503616381209,-0.725,-0.505,-0.320,-0.342,+1.005,-0.065,-0.247,-35.688,-28.312,-14.188,22, 5, -3, -1, -1, -2, -11, -7,2.171563956673889,1.279521845962006,0
1503616381225,-0.728,-0.504,-0.313,-0.343,+1.020,-0.068,-0.233,-34.875,-28.938,-13.938,-24, 29, 16, 4, 2, 1, 1, -16,2.1795112622517374,1.2682854793291654,0
1503616381239,-0.732,-0.503,-0.306,-0.344,+1.014,-0.097,-0.272,-30.750,-34.750,-14.750,31, 19, 10, 1, 0, 2, -2, 3,2.189458837448737,1.2575571650640132,0
1503616381261,-0.735,-0.501,-0.299,-0.345,+0.968,-0.112,-0.283,-30.875,-33.938,-16.750,2, -2, -2, 3, 4, 4, 2, -1,2.196118965153357,1.2443411746588904,0
1503616381285,-0.738,-0.500,-0.293,-0.345,+0.911,-0.104,-0.284,-31.938,-22.625,-15.875,17, -2, 0, -2, -2, -4, -3, -7,2.204349894185352,1.2348394652474461,0
1503616381300,-0.740,-0.501,-0.287,-0.346,+0.938,-0.086,-0.298,-27.875,-13.688,-14.188,0, -3, -7, -2, -5, -1, -2, 3,2.212262659182159,1.2301180274133752,0
1503616381321,-0.742,-0.501,-0.282,-0.346,+0.965,-0.104,-0.321,-24.188,-14.438,-14.750,-12, -10, -6, -3, 0, -3, -1, -2,2.2191909561969854,1.2242565198775246,0
1503616381344,-0.743,-0.501,-0.277,-0.347,+0.968,-0.101,-0.296,-26.062,-16.938,-19.938,40, -5, -4, -2, 1, -2, -6, 3,2.2232756046456723,1.2183407359553888,0
1503616381360,-0.744,-0.501,-0.271,-0.349,+0.946,-0.055,-0.287,-22.938,-15.500,-25.875,-19, -9, -5, 0, -1, -1, -5, -12,2.227067453273963,1.211440697838256,0
1503616381381,-0.744,-0.502,-0.265,-0.353,+0.937,+0.020,-0.328,-15.438,-11.688,-30.250,-1, 1, -2, -3, 0, -4, 2, 2,2.2283702272918777,1.2070910156957608,0
1503616381404,-0.743,-0.502,-0.260,-0.357,+0.927,+0.039,-0.346,-9.938,-14.438,-32.312,-5, 4, 3, 0, -3, -2, -1, -4,2.2258785553380402,1.2013058464132793,0
1503616381420,-0.743,-0.502,-0.255,-0.362,+0.912,+0.014,-0.332,-9.125,-15.875,-34.625,0, 0, -3, -3, -3, -2, -3, -5,2.224410435956237,1.1961348063934378,0
1503616381441,-0.743,-0.502,-0.250,-0.366,+0.898,-0.007,-0.326,-8.562,-12.750,-33.625,11, -2, -2, 0, 0, 1, -1, 22,2.2238490436317044,1.1908438917856972,0
1503616381464,-0.742,-0.503,-0.246,-0.370,+0.899,+0.005,-0.339,-6.562,-7.062,-31.688,23, 9, 2, -2, -4, -1, -1, -8,2.2220685704233203,1.1888486958274092,0
1503616381479,-0.740,-0.504,-0.242,-0.374,+0.926,+0.038,-0.361,-6.000,-2.875,-32.500,-8, -13, -10, -3, 0, -2, -3, -7,2.2184098071956626,1.1865145885589818,0
1503616381501,-0.739,-0.504,-0.238,-0.378,+0.943,+0.076,-0.344,-6.000,-11.188,-31.312,-6, -1, -1, -1, -1, -2, 3, 2,2.2153648654664786,1.1821660900213755,0
1503616381524,-0.739,-0.504,-0.233,-0.382,+0.943,+0.063,-0.322,-8.625,-18.500,-27.625,-8, -6, -2, 1, 2, -3, 0, 5,2.2148407809339403,1.1770781715253895,0
1503616381539,-0.739,-0.503,-0.229,-0.384,+0.951,+0.073,-0.320,-10.062,-17.312,-21.125,-8, -3, 0, 0, -2, -1, 3, -12,2.214149435515462,1.1704054323201856,0
1503616381561,-0.740,-0.503,-0.225,-0.386,+0.970,+0.108,-0.348,-10.125,-14.750,-16.375,8, -16, -2, 0, 1, 0, -2, 5,2.216696626527475,1.166600908239362,0
1503616381586,-0.741,-0.502,-0.221,-0.389,+0.961,+0.129,-0.361,-10.250,-20.750,-14.125,-29, 1, -2, 0, 1, -2, -7, -26,2.21700420840614,1.160584750836133,0
1503616381599,-0.742,-0.500,-0.217,-0.391,+0.968,+0.143,-0.364,-7.812,-24.062,-10.250,-8, 8, -1, -2, -4, 0, 0, 6,2.2168573415412176,1.1519999892858135,0
1503616381622,-0.744,-0.498,-0.215,-0.391,+0.976,+0.114,-0.355,-3.750,-21.375,+1.375,-4, 3, 0, 0, 0, 2, 4, 10,2.2191994277946763,1.145728574471863,0
1503616381644,-0.747,-0.495,-0.215,-0.389,+1.008,+0.065,-0.373,-6.125,-19.438,+20.312,16, 4, -1, -2, -5, -2, 1, 4,2.2227517263887435,1.1393190503471353,0
1503616381659,-0.750,-0.492,-0.215,-0.385,+0.995,+0.075,-0.406,-8.625,-19.875,+30.188,-10, -3, 2, 0, 2, -2, -7, -9,2.2282085026384326,1.1325659914491075,0
1503616381682,-0.754,-0.489,-0.216,-0.381,+0.927,+0.079,-0.437,-7.375,-18.062,+31.188,-3, -1, 0, -1, -2, -1, 1, 10,2.235081749345905,1.127353327250247,0
1503616381704,-0.757,-0.487,-0.218,-0.377,+0.859,+0.038,-0.459,-2.250,+1.875,+33.062,-17, 9, 9, 2, 1, -1, -7, -7,2.240807179339419,1.1252586932220665,0
1503616381720,-0.758,-0.488,-0.222,-0.372,+0.866,+0.009,-0.392,-0.688,+17.688,+33.688,-7, -6, -5, 1, 9, 3, 0, -5,2.246252983899277,1.1316116896115764,0
1503616381741,-0.757,-0.490,-0.226,-0.367,+0.929,+0.004,-0.334,-2.062,+26.250,+28.688,25, 1, -1, -3, -1, 0, 1, 3,2.2491390035896344,1.1395796126634605,0
1503616381764,-0.756,-0.493,-0.230,-0.364,+0.989,+0.032,-0.321,+1.125,+26.750,+19.000,8, 6, 1, -1, -3, -2, 3, 5,2.251356565382658,1.1503894503608976,0
1503616381779,-0.755,-0.494,-0.232,-0.363,+1.022,+0.046,-0.360,+3.750,+5.250,+9.812,-2, -3, -4, -2, -2, -1, -3, -6,2.25041688902234,1.1544983708693588,0
1503616381801,-0.756,-0.492,-0.231,-0.365,+0.920,+0.040,-0.348,+2.875,-15.250,-4.875,24, 4, -1, -3, -2, -1, -2, -2,2.248545041709232,1.1493013547896738,0
1503616381824,-0.756,-0.490,-0.228,-0.369,+0.831,+0.053,-0.345,+4.875,-17.312,-19.875,-8, 1, 2, 8, 3, 1, 0, -3,2.2441135039631237,1.14181514575071,0
1503616381839,-0.755,-0.490,-0.227,-0.372,+0.826,+0.032,-0.343,+5.125,-7.562,-21.875,-6, 28, 11, -1, -1, -1, 4, 2,2.2399967830598158,1.1408393143955082,0
1503616381861,-0.753,-0.491,-0.226,-0.375,+0.879,+0.008,-0.354,+0.875,+8.062,-18.875,4, -10, -6, -3, -4, -1, 10, 9,2.2352490008235106,1.1418655854652242,0
1503616382822,-0.744,-0.451,-0.292,-0.397,+0.923,-0.056,-0.403,+54.875,+10.750,+32.562,0, -4, 6, -1, -1, -1, -5, -4,2.1124219056703626,1.1329876660462197,1
1503616382844,-0.743,-0.447,-0.302,-0.397,+0.894,-0.059,-0.400,+56.188,+11.438,+31.312,3, -1, -8, -4, -2, -3, 6, 0,2.1006823794802023,1.1377236253470846,1
1503616382861,-0.741,-0.443,-0.312,-0.397,+0.897,-0.079,-0.361,+56.188,+11.562,+30.438,-6, -10, -5, -2, -3, 0, 1, 3,2.0868831235430787,1.1425299855071043,1
1503616382882,-0.739,-0.439,-0.323,-0.397,+0.908,-0.096,-0.365,+59.312,+13.312,+32.250,2, -4, -1, -1, -4, 0, 2, 3,2.0727446369382334,1.1493089954274083,1
1503616382904,-0.736,-0.435,-0.333,-0.397,+0.910,-0.102,-0.370,+60.312,+12.875,+31.062,1, 7, 11, 3, 3, -3, -6, -1,2.056878780482842,1.154721541216883,1
1503616382920,-0.734,-0.430,-0.344,-0.398,+0.882,-0.121,-0.359,+59.625,+10.375,+29.062,9, 11, -4, 0, -4, 3, 2, 0,2.0410213577936878,1.1606486240584413,1
1503616382942,-0.732,-0.426,-0.353,-0.399,+0.884,-0.132,-0.366,+60.938,+9.812,+26.875,-4, -7, -5, -4, -2, -3, -4, -3,2.0273255140728352,1.1660730514632967,1
1503616382964,-0.729,-0.421,-0.363,-0.399,+0.875,-0.154,-0.365,+59.625,+13.000,+27.000,-6, -9, -7, -2, -2, -2, -3, -7,2.010426366624897,1.1708059895887526,1
1503616382980,-0.726,-0.417,-0.372,-0.400,+0.879,-0.144,-0.352,+57.375,+11.500,+24.750,-6, -7, 3, 1, 2, 1, 1, 1,1.9945443521833428,1.1767895220169295,1
1503616383002,-0.723,-0.413,-0.381,-0.401,+0.888,-0.166,-0.315,+55.688,+7.812,+21.188,6, 7, -2, -1, -2, 0, -3, 1,1.9787219296642857,1.1832093501145513,1
1503616383024,-0.720,-0.409,-0.390,-0.403,+0.887,-0.186,-0.313,+56.125,+6.188,+19.000,2, 1, -2, 0, 2, 0, -3, 3,1.9623969797366305,1.190368209250654,1
1503616383040,-0.718,-0.405,-0.397,-0.404,+0.850,-0.192,-0.300,+52.250,+6.875,+17.375,0, 6, 1, 3, 2, -4, -6, -2,1.9497839839383604,1.194318830648732,1
1503616383062,-0.715,-0.401,-0.405,-0.406,+0.854,-0.197,-0.303,+49.375,+7.000,+13.812,-2, 27, 6, 1, -1, 3, 4, -2,1.9339470042353837,1.200427461156788,1
1503616383084,-0.711,-0.398,-0.411,-0.408,+0.845,-0.204,-0.317,+48.125,+9.625,+8.688,7, -6, -1, 1, -1, -4, 0, -6,1.917532450599228,1.2048951727420274,1
1503616383100,-0.708,-0.396,-0.418,-0.409,+0.854,-0.244,-0.282,+44.188,+9.188,+5.875,-1, -2, -4, -6, -2, 1, 1, 0,1.9051103866593477,1.2135586896623474,1
1503616383123,-0.705,-0.393,-0.423,-0.412,+0.868,-0.247,-0.290,+38.688,+4.938,+1.688,-12, -2, 12, 1, -1, -1, 0, 0,1.8910504026833002,1.217145796357677,1
1503616383145,-0.702,-0.392,-0.427,-0.414,+0.846,-0.228,-0.302,+33.062,+8.625,-4.562,19, -3, -8, -4, -4, 3, 7, 1,1.8803094447156725,1.2226954121893627,1
1503616383160,-0.699,-0.392,-0.430,-0.417,+0.896,-0.207,-0.260,+27.750,+3.000,-8.750,-17, -17, -7, 1, 0, -3, -1, -6,1.870711064980523,1.228679058428713,1
1503616383182,-0.696,-0.390,-0.432,-0.421,+0.890,-0.217,-0.231,+27.000,-4.250,-12.000,2, -4, -7, -2, 3, -1, -2, -1,1.8584063954508847,1.2289881422928401,1
1503616383205,-0.693,-0.389,-0.433,-0.425,+0.868,-0.240,-0.284,+25.125,-6.375,-14.875,-14, 2, -1, -3, -4, 1, -6, -7,1.8476878310721865,1.2293583828773766,1
1503616383220,-0.691,-0.388,-0.434,-0.428,+0.871,-0.248,-0.307,+16.062,+0.438,-10.625,12, 10, 5, 2, 0, 2, -3, -3,1.8399365485981718,1.2297138494480317,1
1503616383249,-0.690,-0.389,-0.435,-0.429,+0.920,-0.220,-0.289,+9.812,+3.875,-8.188,-11, 2, -6, -1, -2, -4, -5, 5,1.8381313362016731,1.2337392892537127,1
1503616383268,-0.688,-0.389,-0.435,-0.432,+0.928,-0.196,-0.268,+10.688,+0.312,-8.438,-6, 4, 12, 5, 3, 0, 3, -2,1.8319658871410505,1.2341003872951566,1
1503616383280,-0.687,-0.388,-0.436,-0.434,+0.929,-0.225,-0.276,+11.438,-7.875,-5.188,4, -5, -5, -4, 0, 0, 0, 4,1.8271841775698303,1.2344401430892749,1
1503616383302,-0.687,-0.387,-0.435,-0.436,+0.894,-0.234,-0.275,+4.875,-8.562,-5.875,12, 21, 3, 1, -2, -4, -3, 1,1.8253445150716472,1.2310527379831648,1
1503616383324,-0.687,-0.387,-0.434,-0.437,+0.913,-0.241,-0.237,-4.375,-8.750,-8.312,7, 1, -9, -5, -2, -1, 2, 9,1.825188353551036,1.2293565496919205,1
1503616383340,-0.687,-0.387,-0.432,-0.437,+0.945,-0.270,-0.224,-11.812,-8.062,-6.812,-5, -13, 2, 6, 0, 2, -2, 0,1.8255916329226705,1.2253733132428783,1
1503616383364,-0.688,-0.389,-0.430,-0.437,+0.950,-0.255,-0.249,-17.062,-3.875,-6.500,-9, 1, 0, -2, -4, 1, 5, 5,1.831168723401598,1.2256608025054125,1
1503616383384,-0.689,-0.390,-0.427,-0.437,+0.970,-0.225,-0.288,-17.562,-7.188,-6.500,0, -6, -1, -3, -1, -1, 0, -7,1.8356295587129572,1.2220173876589584,1
1503616383400,-0.690,-0.391,-0.423,-0.438,+0.964,-0.227,-0.341,-16.812,-8.125,-10.062,-2, -5, -3, 1, 2, 0, -1, -9,1.8399326394468065,1.2167714859939542,1
1503616383422,-0.691,-0.392,-0.420,-0.439,+0.958,-0.239,-0.325,-19.375,-5.312,-8.188,-2, -3, 2, 4, 3, 0, -3, -5,1.8440191728231083,1.213535353283634,1
1503616383444,-0.692,-0.394,-0.418,-0.437,+0.941,-0.234,-0.294,-22.375,+4.000,-1.562,-5, -10, -4, -2, -1, 2, -3, -1,1.8503701974052462,1.2133794958640927,1
1503616383460,-0.693,-0.398,-0.416,-0.434,+0.957,-0.226,-0.297,-23.625,+16.250,+4.438,-2, 8, 2, 0, 0, -2, 11, 6,1.8598000124617544,1.2170187775192025,1
1503616383482,-0.694,-0.401,-0.415,-0.431,+0.981,-0.200,-0.302,-23.812,+16.125,+4.625,-10, -22, -4, -2, -2, -6, -3, -3,1.8677193625304742,1.2206072965329036,1
1503616383505,-0.694,-0.404,-0.414,-0.429,+0.952,-0.191,-0.298,-18.188,+10.688,+5.188,-1, 8, -9, -5, -5, -1, -3, -2,1.8727897175812653,1.224246623936961,1
1503616383520,-0.695,-0.405,-0.412,-0.427,+0.913,-0.207,-0.332,-15.562,+9.312,+0.312,1, -14, -8, -3, -3, -3, -11, -6,1.8779340748122613,1.2222105307281919,1
1503616383542,-0.696,-0.408,-0.411,-0.426,+0.907,-0.214,-0.287,-20.312,+10.875,-3.125,2, 12, 5, 1, 0, -1, 3, 12,1.8850675852182892,1.2264840811940163,1
1503616383567,-0.696,-0.412,-0.409,-0.423,+0.910,-0.199,-0.247,-23.562,+10.938,-2.250,0, 4, 4, -1, 0, 0, 0, 5,1.89226429792125,1.2301367200552773,1
1503616383580,-0.697,-0.415,-0.406,-0.422,+0.879,-0.187,-0.268,-26.062,+10.125,-4.188,-2, -7, -3, -1, -1, -1, -4, -4,1.8999715170297742,1.2307724133099127,1
1503616383603,-0.698,-0.419,-0.403,-0.420,+0.881,-0.167,-0.302,-30.438,+12.062,-5.500,1, 1, 1, 1, -1, 0, 1, -4,1.9095117620764033,1.2332972922919476,1
1503616383625,-0.698,-0.423,-0.399,-0.418,+0.896,-0.143,-0.267,-32.875,+11.562,-8.688,1, -5, -1, -1, -1, -1, 2, 0,1.9170019327064618,1.233818050924643,1
1503616383640,-0.699,-0.427,-0.395,-0.417,+0.921,-0.150,-0.262,-27.625,+8.875,-8.812,-5, 3, -4, 0, -2, 3, 5, -1,1.9264663678467575,1.2350253787453018,1
1503616383662,-0.700,-0.430,-0.391,-0.416,+0.913,-0.163,-0.288,-27.875,+2.625,-8.500,-5, 4, 1, -2, 0, -1, 6, 5,1.9346177478128257,1.234237948987548,1
1503616383684,-0.701,-0.432,-0.386,-0.415,+0.933,-0.142,-0.330,-30.625,-3.500,-7.500,-4, -12, -6, -2, -1, 1, 3, -3,1.9417699632555248,1.2296603369385575,1
1503616383700,-0.704,-0.433,-0.381,-0.415,+0.912,-0.120,-0.317,-31.312,-10.812,-5.688,1, 7, 3, 0, -1, 1, -4, -3,1.9517774622972341,1.223923680423773,1
1503616383722,-0.706,-0.434,-0.377,-0.413,+0.867,-0.126,-0.320,-26.750,-3.375,-1.000,-3, -12, 0, 0, -2, -1, 5, -4,1.9601975177135975,1.2192056129681712,1
1503616383745,-0.708,-0.436,-0.374,-0.411,+0.883,-0.138,-0.316,-26.875,+4.938,+3.625,-4, 10, 0, -3, -2, -4, -7, -16,1.9696558510559903,1.2184356606704148,1
1503616383762,-0.709,-0.438,-0.372,-0.408,+0.942,-0.143,-0.305,-26.000,+6.062,+6.000,2, 9, 1, 4, 0, 0, 4, 10,1.9770353937356657,1.2188646557617642,1
1503616383782,-0.711,-0.440,-0.369,-0.407,+0.997,-0.125,-0.304,-23.750,-4.125,+4.250,3, 1, 1, 0, 0, 0, 1, -4,1.9859645896975706,1.218468660574899,1
1503616383812,-0.713,-0.439,-0.365,-0.407,+0.956,-0.097,-0.333,-19.938,-16.062,-0.375,3, 7, 1, -2, 1, -1, -2, 0,1.9906891760910708,1.2101877870510216,1
1503616383820,-0.716,-0.438,-0.361,-0.407,+0.881,-0.107,-0.337,-16.062,-15.250,+1.125,-5, -9, -7, -3, -4, -1, -4, -2,1.9977338413116958,1.202287440476803,1
1503616383843,-0.718,-0.438,-0.359,-0.406,+0.846,-0.124,-0.342,-14.312,-4.312,+7.250,0, -14, -8, 0, 1, 0, -2, -2,2.0036680779590093,1.1993511137040718,1
1503616383864,-0.719,-0.438,-0.359,-0.403,+0.922,-0.137,-0.336,-10.250,+6.312,+12.438,-3, -6, -3, -1, 0, -2, -1, -3,2.0078008765021376,1.1988809724238323,1
1503616383880,-0.719,-0.439,-0.360,-0.401,+0.988,-0.152,-0.327,-6.875,+7.688,+14.875,4, 5, 2, -2, -5, -5, -1, 5,2.0099613467092174,1.202192468245362,1
1503616383907,-0.720,-0.438,-0.361,-0.399,+0.999,-0.179,-0.310,-3.375,-1.875,+13.812,0, 35, 14, 1, 0, 1, -7, -6,2.01182373011949,1.2014567455978664,1
1503616383925,-0.722,-0.436,-0.360,-0.398,+0.966,-0.188,-0.288,-4.312,-17.250,+10.250,0, -12, -8, -1, -2, -1, -1, -2,2.0148502937242907,1.1958063692165588,1
1503616383940,-0.725,-0.433,-0.359,-0.398,+0.928,-0.174,-0.315,-6.000,-21.250,+10.125,1, -12, -8, -4, 0, -4, 2, -3,2.0183079547634986,1.188579089301356,1
1503616383962,-0.726,-0.431,-0.359,-0.396,+0.908,-0.174,-0.316,-3.125,-7.250,+13.750,-2, -5, -2, -1, 0, -2, -3, 0,2.0193615143536228,1.183997672672186,1
1503616383984,-0.727,-0.431,-0.361,-0.394,+0.929,-0.195,-0.322,-2.375,+2.000,+14.375,3, -2, -6, -1, -1, 0, 0, 2,2.0221997946797328,1.1870968438783178,1
1503616384003,-0.729,-0.430,-0.361,-0.392,+0.948,-0.201,-0.308,-4.750,-0.812,+14.312,-6, 1, 1, 0, 0, -1, 2, 1,2.0268726338222973,1.1850220201280852,1
1503616384022,-0.730,-0.429,-0.362,-0.390,+0.963,-0.205,-0.310,-5.062,-6.750,+14.000,-1, -10, -6, -1, -1, 1, 4, 0,2.028868468265474,1.1842803611445425,1
1503616384045,-0.731,-0.428,-0.362,-0.389,+0.944,-0.203,-0.319,-2.812,-6.750,+11.438,0, -25, -9, -5, -1, 2, -1, -3,2.0306077483073146,1.1821506553240433,1
1503616384060,-0.733,-0.426,-0.362,-0.388,+0.900,-0.199,-0.308,-5.625,-7.625,+11.000,-8, 1, -4, -1, -3, -2, -2, -2,2.0334530574953296,1.1781731894717573,1
1503616384082,-0.735,-0.425,-0.361,-0.386,+0.880,-0.184,-0.310,-8.438,-8.062,+13.250,3, 10, 1, 0, -2, -1, 1, 1,2.0386124046021243,1.1744275893253815,1
1503616384105,-0.736,-0.424,-0.361,-0.384,+0.903,-0.187,-0.324,-9.812,-6.062,+13.500,0, 7, -4, 3, -3, 2, -4, -2,2.041083370904505,1.1720107466262986,1
1503616384120,-0.738,-0.423,-0.361,-0.382,+0.920,-0.193,-0.312,-10.000,-5.375,+15.688,3, 1, 1, -4, 0, -1, -1, 1,2.0459065321181202,1.1699278540380722,1
1503616384142,-0.741,-0.422,-0.360,-0.379,+0.913,-0.208,-0.315,-12.125,-8.500,+18.750,-1, 13, 5, 0, 1, -3, 0, -1,2.0541826875120206,1.1662308019664347,1
1503616384165,-0.743,-0.421,-0.359,-0.377,+0.898,-0.199,-0.337,-15.375,-10.688,+15.125,-1, -15, -7, -1, 1, 2, 0, -5,2.0594709956508788,1.1624871901201155,1
1503616384187,-0.746,-0.419,-0.356,-0.375,+0.899,-0.188,-0.340,-19.375,-13.750,+12.500,-1, -4, -5, -3, -2, -3, -3, -3,2.0667657687922727,1.1536060250957296,1
1503616384208,-0.749,-0.418,-0.354,-0.373,+0.888,-0.217,-0.325,-20.375,-12.562,+15.562,4, 2, 7, 1, 0, 1, 5, 3,2.074865843677501,1.1485886276746664,1
1503616384225,-0.751,-0.418,-0.353,-0.369,+0.856,-0.240,-0.333,-21.562,-2.438,+14.875,0, -5, 5, 1, 0, 0, 0, -1,2.082911056093446,1.146467590413993,1
1503616384247,-0.754,-0.419,-0.351,-0.366,+0.864,-0.237,-0.365,-25.688,-0.625,+11.375,-6, -2, 0, 0, 1, -3, -5, -1,2.094109232797964,1.145584049818728,1
1503616384263,-0.757,-0.418,-0.347,-0.363,+0.926,-0.226,-0.355,-29.562,-10.875,+10.875,-2, 6, 3, -5, -5, -1, 2, -3,2.1039526404713635,1.1371065030324146,1
1503616384285,-0.760,-0.418,-0.344,-0.360,+0.952,-0.238,-0.345,-28.000,-16.500,+11.000,-2, 4, 0, 1, 1, -3, 0, 2,2.1145365693637994,1.1325015478725058,1
1503616384307,-0.763,-0.417,-0.341,-0.358,+0.941,-0.278,-0.348,-24.250,-15.562,+10.000,5, -8, -4, -3, -1, -1, 0, 0,2.1232496413833037,1.126029782317269,1
1503616384322,-0.766,-0.414,-0.338,-0.356,+0.934,-0.292,-0.389,-25.750,-22.750,+8.375,5, 34, -1, 0, -2, 1, -1, 2,2.1298477539665748,1.1151649681787283,1
1503616384345,-0.771,-0.411,-0.334,-0.354,+0.922,-0.300,-0.411,-26.562,-30.812,+10.938,-2, -6, 1, 1, -1, 0, -4, 3,2.141541683027199,1.1035433424893386,1
1503616384367,-0.775,-0.407,-0.331,-0.352,+0.898,-0.292,-0.410,-22.812,-29.125,+15.188,1, -3, -5, -7, 0, -3, -2, 0,2.1495621072720623,1.0909440341903698,1
1503616384382,-0.779,-0.403,-0.329,-0.349,+0.897,-0.315,-0.425,-20.562,-27.188,+16.625,-4, -5, 2, 1, 0, 3, 3, -4,2.158133357460039,1.0796067497110522,1
1503616384405,-0.783,-0.399,-0.327,-0.347,+0.896,-0.329,-0.439,-20.438,-26.188,+18.750,-4, -13, -4, 0, -1, 1, -4, -1,2.165949733988389,1.0686154970063615,1
1503616384427,-0.787,-0.395,-0.325,-0.344,+0.879,-0.320,-0.467,-16.938,-24.250,+21.062,1, 11, -2, -1, 0, -1, 1, -2,2.1748012528570535,1.0573274745961716,1
1503616384442,-0.791,-0.391,-0.324,-0.341,+0.891,-0.320,-0.474,-12.250,-26.062,+20.000,3, -4, 19, 4, 1, -2, 2, -1,2.183334065970514,1.0475700463360862,1
1503616384463,-0.795,-0.386,-0.323,-0.339,+0.895,-0.324,-0.469,-10.375,-28.250,+21.312,-4, -16, -12, -6, -1, -2, -4, -3,2.1901409977649586,1.0359496888207935,1
1503616384486,-0.798,-0.382,-0.323,-0.337,+0.871,-0.290,-0.459,-6.438,-26.438,+23.062,-2, 1, -1, -2, -1, -1, 2, 0,2.1952613507725607,1.0276533121720777,1
1503616384501,-0.801,-0.377,-0.323,-0.334,+0.852,-0.282,-0.463,-1.812,-23.875,+26.125,1, 23, 4, -1, 0, -4, 0, -2,2.2005983826933675,1.0168068153739656,1
1503616384523,-0.804,-0.373,-0.324,-0.332,+0.856,-0.284,-0.474,+0.375,-20.875,+23.438,-2, -4, -3, 2, -4, -1, -1, -1,2.2055093922572198,1.0100248044013629,1
1503616384546,-0.805,-0.370,-0.325,-0.331,+0.848,-0.272,-0.483,+2.812,-11.750,+19.250,3, 11, -2, 3, 1, 0, -1, 3,2.2057970396885476,1.004985345998306,1
1503616384561,-0.806,-0.369,-0.326,-0.329,+0.855,-0.245,-0.474,+6.750,-2.375,+17.375,-2, -7, -7, -3, -3, 0, -5, -1,2.2087891331070586,1.0039844459984233,1
1503616384584,-0.806,-0.367,-0.328,-0.328,+0.878,-0.250,-0.478,+9.438,-3.062,+14.000,-2, 5, 0, -1, 0, -1, -1, 1,2.207218813494433,1.002257402266483,1
1503616384607,-0.806,-0.365,-0.330,-0.328,+0.857,-0.259,-0.471,+8.312,-8.562,+11.188,1, -3, 0, -2, -2, -2, -1, -3,2.204661470329787,1.0009195817334182,1
1503616384621,-0.807,-0.363,-0.331,-0.328,+0.817,-0.257,-0.474,+8.000,-11.312,+9.625,2, 7, 5, 4, -1, -1, 0, 0,2.2048878449829954,0.9984777368286192,1
1503616384644,-0.808,-0.361,-0.332,-0.329,+0.813,-0.247,-0.474,+9.750,-10.688,+7.812,0, 7, 1, -4, -1, -1, 3, 0,2.2041351421730955,0.9964233447249279,1
1503616384666,-0.808,-0.359,-0.333,-0.329,+0.820,-0.252,-0.468,+9.500,-8.000,+4.875,-2, -3, -8, -2, 0, 0, -2, -2,2.202081854778803,0.9935927522975141,1
1503616384682,-0.808,-0.358,-0.333,-0.330,+0.821,-0.253,-0.458,+7.875,-6.188,+4.500,-3, -25, -5, 0, -3, -1, -3, 0,2.2002820114301076,0.9917892906574531,1
1503616384703,-0.807,-0.357,-0.334,-0.330,+0.806,-0.249,-0.463,+6.750,-2.625,+3.625,-5, 2, 3, 2, 2, -2, -1, -4,2.1967017046086252,0.9907454609762468,1
1503616384726,-0.807,-0.357,-0.335,-0.331,+0.820,-0.244,-0.473,+6.500,-1.062,+1.500,1, -4, 1, 0, 0, 0, -2, -2,2.1952711527969386,0.9926850869732422,1
1503616384741,-0.807,-0.356,-0.336,-0.332,+0.845,-0.259,-0.468,+7.500,-3.062,+0.375,0, 0, 5, -1, -1, -2, 0, 1,2.1930432727708364,0.9924506227407349,1
1503616384764,-0.806,-0.356,-0.336,-0.333,+0.837,-0.275,-0.466,+7.188,-4.875,-1.438,1, 8, -2, 0, 1, 1, -1, -1,2.1897119785221073,0.9924276686777034,1
1503616384786,-0.806,-0.355,-0.336,-0.334,+0.820,-0.279,-0.472,+4.375,-6.875,-2.750,-2, -2, 1, -2, -3, 0, 0, -1,2.1879238223220487,0.9906382182341439,1
1503616384802,-0.806,-0.354,-0.336,-0.335,+0.820,-0.282,-0.462,+0.750,-4.375,-2.625,-2, -15, -3, -5, -3, -2, 0, 3,2.1861388834649906,0.9888522505390674,1
1503616384824,-0.805,-0.355,-0.336,-0.335,+0.835,-0.283,-0.455,-0.312,+1.562,-2.688,0, -6, -3, 0, 0, -1, -1, 0,2.1845896553136246,0.9906163504497574,1
1503616384846,-0.805,-0.356,-0.336,-0.336,+0.846,-0.287,-0.442,-0.188,+3.688,-1.688,1, -15, -4, 1, -1, -1, -2, 1,2.184430450114041,0.9931751405018716,1
1503616384861,-0.804,-0.357,-0.337,-0.336,+0.845,-0.286,-0.466,+1.250,+0.062,-3.500,-1, 2, -5, -1, -2, -1, -2, 0,2.182463443530467,0.9965086929511178,1
1503616384884,-0.804,-0.357,-0.336,-0.337,+0.827,-0.293,-0.472,-1.188,-3.750,-7.375,2, 3, -2, 2, 1, 1, -1, -2,2.181925651583647,0.9953243883968017,1
1503616384912,-0.804,-0.357,-0.336,-0.338,+0.831,-0.308,-0.456,-3.250,-1.438,-4.875,-3, 4, -2, -3, -2, -3, -1, -7,2.1809604217501914,0.9957074355589125,1
1503616384921,-0.803,-0.358,-0.335,-0.338,+0.825,-0.308,-0.455,-4.438,+5.250,-2.875,0, 12, -2, -2, 0, 1, -1, 1,2.1798606198219814,0.9959077997967721,1
1503616384946,-0.803,-0.359,-0.335,-0.338,+0.832,-0.297,-0.480,-5.062,+5.688,-2.812,-1, 1, 16, 1, 0, -3, -1, 2,2.1806902467718015,0.9980813102103527,1
1503616384966,-0.803,-0.360,-0.334,-0.338,+0.836,-0.292,-0.477,-5.438,+1.062,-3.938,-3, -5, -3, -3, 0, 0, -3, 0,2.181952619507324,0.9986962676904902,1
1503616384981,-0.803,-0.360,-0.334,-0.339,+0.829,-0.298,-0.479,-2.812,-1.750,-5.625,-1, -10, -8, -2, -1, 1, -1, -1,2.1809904230219286,0.9990742644444474,1
1503616385004,-0.803,-0.360,-0.333,-0.339,+0.815,-0.310,-0.463,-2.125,+0.312,-5.125,-1, 2, 0, 3, -2, 0, -1, -2,2.1814214666658414,0.9975185336638923,1
1503616385026,-0.802,-0.361,-0.333,-0.339,+0.807,-0.299,-0.477,-3.500,+3.188,-3.062,-2, 1, 5, 0, 0, -1, 0, 0,2.179913713483045,0.9992856674576088,1
1503616385049,-0.802,-0.362,-0.333,-0.339,+0.818,-0.282,-0.479,-3.062,+4.062,-2.562,-1, -4, -3, 0, -1, 1, 0, -1,2.18075432103541,1.0014620932072045,1
1503616385071,-0.802,-0.362,-0.333,-0.339,+0.835,-0.294,-0.463,-2.375,+1.875,-2.250,0, 1, 2, 0, -2, -1, 1, -2,2.18075432103541,1.0014620932072045,1
1503616385086,-0.802,-0.362,-0.333,-0.340,+0.832,-0.291,-0.465,-0.062,+0.438,-3.062,-3, 1, -4, -3, -3, -1, -4, -2,2.1797960442820936,1.0018368504085893,1
1503616385101,-0.801,-0.363,-0.333,-0.340,+0.812,-0.284,-0.475,-0.062,+0.938,-3.312,-1, -22, -3, 4, -1, -2, 2, -1,2.17830066210386,1.0036057955318087,1
1503616385123,-0.801,-0.363,-0.333,-0.340,+0.808,-0.292,-0.477,-0.438,+4.000,-3.500,0, -6, -5, -4, 0, 0, -2, 2,2.17830066210386,1.0036057955318087,1
1503616385148,-0.800,-0.364,-0.334,-0.340,+0.834,-0.300,-0.467,+0.188,+6.375,-2.500,-2, -4, -7, -5, -1, -1, 1, 0,2.1763758697332136,1.0069325741163762,1
1503616385161,-0.800,-0.365,-0.334,-0.341,+0.846,-0.295,-0.468,+0.875,+5.812,-3.688,-1, 0, 2, 4, 0, 1, -2, 0,2.176279727636044,1.0094817120623036,1
1503616385184,-0.799,-0.365,-0.334,-0.341,+0.840,-0.296,-0.465,+1.062,+1.938,-4.812,-1, -7, -2, 0, 0, -3, -1, -2,2.1739394674850696,1.009076229657753,1
1503616385206,-0.799,-0.366,-0.335,-0.342,+0.833,-0.306,-0.465,+0.562,+1.500,-4.250,1, 31, 1, -2, 2, 1, -1, -1,2.1734228007559437,1.0131843867334056,1
1503616385221,-0.798,-0.366,-0.335,-0.341,+0.833,-0.309,-0.458,+0.000,+6.125,-2.500,-2, 18, 3, -1, -1, -2, -1, 1,2.1720240658890306,1.012410087220111,1
1503616385244,-0.797,-0.367,-0.336,-0.342,+0.854,-0.288,-0.465,+0.375,+4.938,-1.938,-3, -4, -2, -4, -2, -2, -1, -2,2.169173364058492,1.0161194810792704,1
1503616385269,-0.797,-0.367,-0.336,-0.342,+0.851,-0.292,-0.457,-0.312,+1.062,-1.750,-2, -3, -4, -1, -1, -2, 0, 1,2.169173364058492,1.0161194810792704,1
1503616385281,-0.797,-0.367,-0.336,-0.342,+0.833,-0.283,-0.458,+0.312,-2.062,-2.438,1, 18, -3, -2, 0, -4, -2, -4,2.169173364058492,1.0161194810792704,1
1503616385303,-0.797,-0.367,-0.336,-0.343,+0.832,-0.283,-0.455,+0.562,-0.688,-2.812,-3, -13, -8, -4, 0, -3, -5, 0,2.1682376460155246,1.0164884928719415,1
1503616385327,-0.796,-0.367,-0.336,-0.343,+0.840,-0.273,-0.458,+1.125,+0.375,-2.812,-6, 3, -7, -4, -2, 0, -3, -2,2.165888975709444,1.0160854131837953,1
1503616385341,-0.796,-0.367,-0.336,-0.344,+0.839,-0.274,-0.454,+0.375,+0.375,-1.938,-3, 1, -3, -2, -1, 0, 1, -2,2.1649579318256422,1.0164544655516745,1
1503616385363,-0.796,-0.368,-0.336,-0.344,+0.834,-0.276,-0.456,-0.438,+0.250,-2.188,2, 0, 7, 2, 0, 0, -2, 3,2.1658349472259926,1.0186301549436156,1
1503616385388,-0.795,-0.368,-0.336,-0.344,+0.845,-0.283,-0.460,+1.250,+2.000,-3.062,3, -10, -1, 3, -2, 1, 3, -3,2.163485847517291,1.0182275974362303,1
1503616385401,-0.795,-0.368,-0.337,-0.345,+0.850,-0.282,-0.463,+1.500,+2.000,-2.750,0, -5, -2, -1, -1, 1, -2, -2,2.162131729108879,1.020166773999682,1
1503616385424,-0.795,-0.368,-0.337,-0.345,+0.848,-0.271,-0.464,+1.125,+0.562,-2.500,-3, -3, -2, 2, -2, -4, 1, -1,2.162131729108879,1.020166773999682,1
1503616385447,-0.794,-0.369,-0.337,-0.346,+0.839,-0.259,-0.462,+1.000,+1.312,-3.312,-3, -16, -3, -6, -1, 1, -1, -1,2.159744940433433,1.0223069704415273,1
1503616385461,-0.794,-0.370,-0.337,-0.346,+0.836,-0.252,-0.454,+0.812,+4.250,-3.125,1, -4, 3, 1, 0, 0, 2, 1,2.160633987610464,1.0244818823773896,1
1503616385483,-0.793,-0.371,-0.338,-0.346,+0.833,-0.261,-0.451,+0.688,+11.688,-2.938,-2, 0, 1, -1, -1, 0, -1, 0,2.158751594649309,1.027833351419153,1
1503616385506,-0.791,-0.374,-0.338,-0.346,+0.829,-0.243,-0.463,-0.250,+19.750,-3.188,-2, 10, -1, -2, 1, -1, -2, 0,2.156763017877179,1.033570047988691,1
1503616385521,-0.789,-0.378,-0.339,-0.345,+0.838,-0.238,-0.446,-0.500,+25.562,-3.438,-2, -14, 1, 2, -1, 0, -1, 0,2.156212685905832,1.0427277186774204,1
1503616385544,-0.787,-0.382,-0.341,-0.344,+0.839,-0.240,-0.425,-0.188,+30.500,-3.750,-3, -6, -1, 1, -1, 1, -3, -2,2.1552795892819683,1.053504084782064,1
1503616385566,-0.785,-0.387,-0.342,-0.343,+0.843,-0.238,-0.450,-2.562,+33.312,-4.312,2, 20, -10, 1, -1, -2, 0, -1,2.1557842257610167,1.0649289960326083,1
1503616385581,-0.782,-0.392,-0.343,-0.341,+0.864,-0.213,-0.436,-2.688,+37.500,-3.625,1, -14, -4, -7, -2, -4, -1, 0,2.1549505992509443,1.075675458253435,1
1503616385603,-0.779,-0.398,-0.345,-0.340,+0.883,-0.219,-0.414,-1.188,+38.625,-4.312,-3, 2, 3, -2, 1, 0, -1, -2,2.1538450272868106,1.0906267426675613,1
1503616385626,-0.777,-0.403,-0.346,-0.339,+0.896,-0.212,-0.387,-2.438,+35.938,-5.312,-6, 2, -12, -2, -3, 3, 0, -2,2.154623860291333,1.102212374659699,1
1503616385641,-0.774,-0.408,-0.347,-0.338,+0.909,-0.207,-0.379,-0.375,+32.062,-7.750,-13, -1, 4, 3, 0, -4, 0, 3,2.1531941669080705,1.113471349641739,1
1503616385663,-0.771,-0.412,-0.347,-0.339,+0.892,-0.206,-0.404,+2.625,+23.562,-13.062,9, 7, 27, 2, 2, -2, -2, -3,2.149547278145791,1.121578255564693,1
1503616385686,-0.769,-0.415,-0.347,-0.342,+0.872,-0.188,-0.381,+2.812,+15.188,-18.438,-5, 2, -3, 0, -1, 1, -1, 1,2.1455013200281887,1.1284542109124829,1
1503616385701,-0.766,-0.418,-0.346,-0.344,+0.880,-0.185,-0.376,+2.688,+12.500,-22.750,5, -1, 8, -1, -1, 1, -1, -3,2.1405882840767667,1.133058430061006,1
1503616385724,-0.763,-0.421,-0.346,-0.347,+0.875,-0.204,-0.382,+4.000,+18.000,-22.125,0, 7, -1, -3, -1, -3, -4, 0,2.134448578459569,1.139560519539384,1
1503616385748,-0.761,-0.424,-0.346,-0.349,+0.842,-0.205,-0.393,+8.750,+17.750,-17.625,49, 5, 4, 0, -1, -1, -1, 1,2.1315100220835115,1.1461249077142839,1
1503616385761,-0.758,-0.426,-0.347,-0.352,+0.853,-0.199,-0.375,+12.625,+16.875,-23.062,-24, -2, -5, -3, -3, -2, 1, 3,2.1239860026194473,1.1519827846070478,1
1503616385785,-0.755,-0.427,-0.347,-0.357,+0.915,-0.214,-0.352,+14.438,+3.625,-31.000,-5, -2, 5, -2, -1, 1, -2, -7,2.114258428994735,1.1545901306485944,1
1503616385806,-0.753,-0.427,-0.346,-0.362,+0.909,-0.241,-0.353,+11.875,-7.125,-30.562,6, -1, -5, 6, 0, -2, 3, 4,2.106199821571725,1.1537224544290425,1
1503616385821,-0.751,-0.427,-0.346,-0.366,+0.859,-0.225,-0.354,+9.375,-6.062,-24.188,-6, -1, -9, 5, 2, 1, 0, -5,2.0985329098546304,1.154161364275199,1
1503616385843,-0.750,-0.427,-0.345,-0.370,+0.863,-0.204,-0.358,+6.188,-0.750,-20.812,-13, 0, 8, -2, 2, -1, 0, 0,2.0936213828908676,1.1533565490477418,1
1503616385866,-0.748,-0.428,-0.344,-0.372,+0.895,-0.212,-0.342,+2.750,-2.938,-20.625,12, 5, 0, -1, -1, 2, -3, 2,2.0891483498959347,1.153841541055507,1
1503616385882,-0.747,-0.428,-0.343,-0.375,+0.934,-0.233,-0.324,+3.812,-1.750,-20.438,10, 4, -8, -3, -1, 1, 0, 0,2.085044009964797,1.1527501939989127,1
1503616385903,-0.745,-0.430,-0.343,-0.377,+0.936,-0.229,-0.311,+3.250,+3.938,-20.312,-5, -1, 3, -3, -3, 2, 0, -3,2.0813667509554383,1.1570346722185085,1
1503616385926,-0.743,-0.431,-0.343,-0.380,+0.924,-0.198,-0.340,+2.312,+0.000,-18.375,6, -2, 14, -8, 3, -4, 1, 0,2.0758051639581154,1.159384219460631,1
1503616385942,-0.742,-0.431,-0.341,-0.383,+0.937,-0.188,-0.325,-1.625,-7.000,-21.250,2, -2, 0, 3, -4, -2, -3, -5,2.072193631924409,1.1566991216364115,1
1503616385964,-0.742,-0.432,-0.339,-0.385,+0.945,-0.186,-0.308,-5.875,-10.688,-20.000,-2, -4, -13, -1, -1, -5, 1, 1,2.0727918233068388,1.1563098096087592,1
1503616385986,-0.741,-0.432,-0.337,-0.388,+0.918,-0.212,-0.334,-5.500,-6.188,-19.875,6, 2, 9, 8, 2, 3, -3, -2,2.0692047559479962,1.1536444606919634,1
1503616386002,-0.740,-0.435,-0.335,-0.390,+0.861,-0.187,-0.349,-8.000,+6.875,-24.500,-20, 4, 0, -1, -2, 0, -1, 3,2.070001885860665,1.1573488837211656,1
1503616386025,-0.737,-0.438,-0.332,-0.392,+0.909,-0.122,-0.346,-7.562,+9.250,-30.312,-15, -11, -12, 0, -3, 1, 4, 0,2.0667852152879407,1.1588188887044424,1
1503616386046,-0.736,-0.440,-0.329,-0.397,+0.981,-0.122,-0.318,-4.500,-8.125,-32.812,-3, -6, -7, -4, -4, 0, -5, -3,2.064762806776332,1.1596132531328167,1
1503616386062,-0.734,-0.440,-0.326,-0.401,+0.982,-0.183,-0.318,-3.938,-15.125,-33.438,4, 1, 6, 0, 2, -3, 0, 1,2.0587535270581054,1.1553625143116837,1
1503616386086,-0.734,-0.440,-0.323,-0.404,+0.913,-0.167,-0.333,-7.750,-10.438,-26.688,-4, -3, -3, -1, -4, -3, 0, -2,2.0579205187944707,1.1515839320430485,1
1503616386106,-0.732,-0.442,-0.320,-0.407,+0.888,-0.131,-0.345,-8.062,+0.062,-26.812,7, -6, 7, 2, 0, -1, 0, 0,2.055174066297671,1.151552582077277,1
1503616386122,-0.731,-0.444,-0.318,-0.410,+0.939,-0.101,-0.327,-6.188,+0.062,-28.750,-7, 3, 0, -4, 1, 1, -5, -3,2.0542850218520683,1.1534117474924206,1
1503616386143,-0.729,-0.446,-0.315,-0.413,+1.013,-0.104,-0.327,-3.625,-7.750,-25.312,-11, 1, -13, -4, 2, 2, -1, 2,2.0516377103119687,1.1534252955221556,1
1503616386166,-0.728,-0.446,-0.313,-0.415,+1.019,-0.117,-0.361,-4.000,-9.438,-19.750,5, 8, 4, 1, -2, -1, 2, -3,2.048900790200872,1.1505932926689433,1
1503616386185,-0.728,-0.446,-0.311,-0.418,+0.944,-0.086,-0.366,-4.500,-8.250,-16.625,9, -5, -9, -3, -2, -1, 0, 1,2.047708683525504,1.148391866088842,1
1503616386203,-0.728,-0.446,-0.309,-0.420,+0.906,-0.056,-0.376,-3.125,-9.312,-14.125,-5, 0, 4, 0, -1, -1, -3, -1,2.0471900090784203,1.1459452894793143,1
1503616386226,-0.728,-0.446,-0.308,-0.421,+0.950,-0.066,-0.369,-2.250,-5.562,-9.250,-3, -1, 5, 3, 0, -1, 0, -1,2.046931062243925,1.1447261384839542,1
1503616386242,-0.728,-0.446,-0.308,-0.422,+0.977,-0.081,-0.372,-1.438,-2.500,-2.375,17, 3, 0, -1, 1, 1, -1, -1,2.0462637754935287,1.144981113303524,1
1503616386264,-0.728,-0.445,-0.308,-0.421,+0.969,-0.081,-0.366,-2.188,-2.250,+3.562,10, -4, -2, -9, -2, -4, -2, -1,2.0456262730883044,1.1424957687775823,1
1503616386286,-0.729,-0.445,-0.308,-0.420,+0.956,-0.079,-0.364,-3.688,-3.812,+6.375,-17, -8, -4, 1, -2, -4, 0, 0,2.048504621409976,1.142609842601561,1
1503616386302,-0.730,-0.444,-0.308,-0.419,+0.956,-0.075,-0.366,-2.625,-5.875,+6.312,0, 1, 3, 1, 0, -3, 0, -2,2.050088954312146,1.1404940955411627,1
1503616386324,-0.731,-0.443,-0.307,-0.419,+0.930,-0.078,-0.360,-3.375,-8.375,+4.812,24, 8, 11, 2, 2, 3, -1, 2,2.0514169916436784,1.137165703479693,1
1503616386350,-0.732,-0.442,-0.307,-0.419,+0.911,-0.077,-0.361,-4.688,-6.875,+3.000,-4, -7, 1, 2, 0, 0, -1, 0,2.0523400027944296,1.1353119386257424,1
1503616386362,-0.731,-0.443,-0.307,-0.418,+0.915,-0.068,-0.367,-3.250,+5.250,+1.875,8, -2, -6, -5, 0, -1, 1, 3,2.052095425206383,1.1369068588333753,1
1503616386387,-0.731,-0.444,-0.307,-0.417,+0.916,-0.063,-0.376,-3.625,+9.125,+0.875,3, -2, -6, 0, -1, -2, -4, 2,2.0540676039829084,1.138879492731759,1
1503616386406,-0.731,-0.445,-0.307,-0.417,+0.917,-0.056,-0.379,-5.250,+6.312,+0.750,-1, 6, 4, -3, 0, -2, 3, -2,2.0553595866117202,1.141112288290453,1
1503616386422,-0.731,-0.446,-0.306,-0.417,+0.928,-0.055,-0.364,-6.000,-0.562,-1.125,-3, -4, 1, -2, -1, 1, -2, -2,2.057068791022201,1.1418811885085436,1
1503616386443,-0.731,-0.446,-0.305,-0.417,+0.916,-0.064,-0.353,-7.562,-2.000,-3.125,4, 7, -3, -8, -2, -3, 0, 0,2.0574866794087145,1.1404191931149503,1
1503616386466,-0.731,-0.447,-0.304,-0.417,+0.894,-0.060,-0.376,-8.625,+2.188,-3.125,0, -7, 2, 1, 0, 1, 0, 0,2.0592013360431416,1.1411991941930384,1
1503616386482,-0.731,-0.449,-0.303,-0.416,+0.885,-0.053,-0.393,-8.750,+6.688,-5.000,-5, 4, 2, -1, -3, 0, -1, 1,2.062907518088373,1.143977287792306,1
1503616386503,-0.730,-0.450,-0.301,-0.417,+0.911,-0.055,-0.378,-8.875,+4.688,-7.688,-14, -12, -1, 4, 1, 1, 2, 1,2.062182711985493,1.1432061028079665,1
1503616386528,-0.730,-0.451,-0.300,-0.417,+0.920,-0.059,-0.365,-9.188,-2.500,-8.875,16, 16, -4, -3, -5, -1, -2, -2,2.0639158881585367,1.1440131284148485,1
1503616386542,-0.730,-0.451,-0.298,-0.418,+0.923,-0.062,-0.372,-8.500,-2.812,-9.188,-11, -1, 7, 4, 2, -1, 0, -1,2.0640790457722167,1.1413872441839465,1
1503616386564,-0.730,-0.452,-0.296,-0.419,+0.898,-0.040,-0.387,-8.812,+1.375,-11.625,0, -5, -4, -3, 1, 1, -3, 2,2.065553581143513,1.1410267664187417,1
1503616386588,-0.729,-0.453,-0.294,-0.420,+0.905,-0.023,-0.384,-7.312,-0.312,-12.438,-5, -1, 2, -2, 0, 0, 0, -2,2.064862012784254,1.1403032294217075,1
1503616386602,-0.729,-0.454,-0.292,-0.422,+0.920,-0.025,-0.390,-5.562,-1.438,-13.062,3, 0, -3, -2, -3, -2, -4, 0,2.065658273494571,1.1402163374393837,1
1503616386625,-0.728,-0.455,-0.290,-0.423,+0.930,-0.028,-0.390,-3.250,-0.875,-12.938,-16, -15, -9, -5, -1, 1, -1, 0,2.064989671769386,1.1395186750918582,1
1503616386646,-0.727,-0.455,-0.289,-0.425,+0.943,-0.029,-0.382,-0.375,-3.562,-11.438,-6, -4, 3, 1, 0, -2, 0, -2,2.0618783090242903,1.1382149336594722,1
1503616386663,-0.727,-0.455,-0.288,-0.427,+0.937,-0.017,-0.382,+0.438,-5.688,-10.812,-1, 3, -3, -2, -4, -3, -1, 0,2.0609368078157657,1.137293857777129,1
1503616386684,-0.726,-0.454,-0.288,-0.428,+0.936,-0.026,-0.389,+2.250,-4.875,-10.125,-37, -7, -1, 2, 0, 1, 0, -3,2.0567526074476423,1.1348918136583095,1
1503616386706,-0.726,-0.454,-0.287,-0.430,+0.924,-0.019,-0.378,+4.438,-2.875,-8.000,-19, -6, -3, -3, 1, 1, -3, -3,2.0558206752679147,1.1339725700324097,1
1503616386722,-0.725,-0.453,-0.287,-0.432,+0.925,-0.015,-0.379,+4.688,-2.438,-7.812,-3, -3, 2, -1, -1, 2, -3, 0,2.0509623713661562,1.1318161203658157,1
1503616386744,-0.724,-0.453,-0.287,-0.433,+0.933,-0.010,-0.386,+4.312,-1.812,-6.000,4, 1, -1, -1, -4, -3, 1, -5,2.0481183996628705,1.1316749150873509,1
1503616386766,-0.724,-0.453,-0.287,-0.434,+0.931,-0.001,-0.376,+4.562,+0.562,-6.188,24, -2, -6, -4, -1, -3, -1, -1,2.0474531254700716,1.1319189936169396,1
1503616386782,-0.723,-0.453,-0.287,-0.436,+0.937,+0.002,-0.367,+5.688,-1.812,-7.312,-13, -10, -5, 0, -1, 1, 1, 0,2.0439544214243663,1.1320218217975513,1
1503616386803,-0.722,-0.452,-0.287,-0.438,+0.930,-0.002,-0.379,+6.312,-5.938,-9.125,6, -5, -4, -1, 0, -2, -2, -3,2.03911143000802,1.1298720176504335,1
1503616386826,-0.721,-0.452,-0.287,-0.440,+0.927,-0.003,-0.394,+6.500,-6.562,-10.875,10, 2, 7, 3, -2, 1, -2, 3,2.0356299043132484,1.1299761575660854,1
1503616386842,-0.720,-0.451,-0.286,-0.442,+0.912,+0.003,-0.384,+6.688,-3.500,-10.188,-2, 1, -3, -2, 2, 1, 0, -1,2.031197371381136,1.1264164395392673,1
1503616386865,-0.720,-0.451,-0.286,-0.444,+0.915,+0.009,-0.387,+5.375,-3.688,-8.438,21, 16, 0, -2, -1, 0, 2, -1,2.0299190353248755,1.1269080691180249,1
1503616386886,-0.719,-0.451,-0.286,-0.445,+0.917,+0.007,-0.386,+4.188,-1.188,-6.062,-3, 0, 4, 0, 1, 0, -2, -7,2.027095940087674,1.1267663571282374,1
1503616386902,-0.718,-0.450,-0.287,-0.446,+0.921,+0.001,-0.383,+4.562,-0.062,-2.875,7, -4, 1, 0, -1, -3, 0, 2,2.0225084005872924,1.1257980789100948,1
1503616386924,-0.718,-0.450,-0.287,-0.447,+0.928,-0.013,-0.382,+3.875,+1.562,-3.438,-41, -2, -5, -2, -3, -1, -3, -3,2.021881728650522,1.1260451443363333,1
1503616386946,-0.717,-0.450,-0.287,-0.447,+0.929,-0.012,-0.388,+2.562,+0.125,-2.125,2, -6, -2, -1, -3, 1, 0, 2,2.019684552478455,1.1256576454461884,1
1503616386962,-0.717,-0.450,-0.288,-0.448,+0.936,-0.001,-0.375,+2.688,-2.938,-2.375,-18, -2, -1, 0, -1, -1, 0, 2,2.0186719752765216,1.1273283909654193,1
1503616386984,-0.717,-0.449,-0.287,-0.449,+0.958,-0.005,-0.375,+1.562,-9.188,-3.188,39, 4, 0, 0, 3, -5, -3, -5,2.0170677981073983,1.1239113129511837,1
1503616387006,-0.718,-0.448,-0.286,-0.450,+0.941,-0.001,-0.386,+1.188,-11.312,-3.812,-13, 3, 12, 5, -1, 0, 1, -1,2.0176650792645314,1.120887448466401,1
1503616387024,-0.718,-0.447,-0.286,-0.451,+0.910,-0.007,-0.386,+0.000,-9.312,-4.062,0, -6, -9, -2, 1, 0, 0, 1,2.015678924870101,1.1189003737326115,1
1503616387045,-0.718,-0.446,-0.285,-0.452,+0.906,-0.011,-0.387,-0.625,-4.000,-5.000,3, 0, 1, 2, -3, 0, 1, -3,2.0140787207224133,1.1154941193538874,1
1503616387066,-0.718,-0.446,-0.285,-0.453,+0.917,-0.005,-0.376,-1.375,-1.625,-6.062,43, 2, -4, -2, -1, 1, -3, 2,2.013463569842542,1.1157446483109001,1
1503616387082,-0.717,-0.447,-0.284,-0.453,+0.951,+0.000,-0.373,-1.250,+0.250,-6.000,-4, 0, -1, -1, 0, 0, 1, 0,2.0130107715098298,1.1161667827872357,1
1503616387105,-0.717,-0.447,-0.284,-0.454,+0.969,+0.013,-0.406,-0.125,-4.875,-3.312,6, 5, 9, 2, -1, -2, 0, 1,2.012397688353279,1.1164161149059042,1
1503616387127,-0.718,-0.445,-0.282,-0.456,+0.939,+0.003,-0.410,-1.500,-19.500,-4.000,-58, -10, -6, -2, -3, 0, -1, -2,2.0113988222928216,1.1100092880964703,1
1503616388425,-0.735,-0.381,-0.349,-0.439,+0.903,-0.170,-0.434,+31.188,+5.062,+19.438,0, 6, 4, 1, 1, -1, 0, -2,1.9572151842479097,1.0772993738987835,2
1503616388448,-0.735,-0.378,-0.354,-0.438,+0.899,-0.185,-0.422,+32.062,+1.562,+19.000,4, -1, 0, -2, -1, -2, 2, 1,1.9528380942123413,1.0791685878574744,2
1503616388469,-0.734,-0.374,-0.360,-0.438,+0.880,-0.187,-0.432,+32.312,+1.312,+19.875,6, 0, -4, -1, -1, -2, 1, 0,1.9440607719845102,1.0808039344463976,2
1503616388485,-0.733,-0.371,-0.365,-0.438,+0.863,-0.190,-0.438,+31.562,+5.562,+19.000,-11, 0, 3, 2, 0, 4, -2, 3,1.9367577501717796,1.0829441042831613,2
1503616388507,-0.732,-0.368,-0.371,-0.437,+0.888,-0.194,-0.419,+31.688,+5.250,+17.250,21, 37, 6, 1, 0, -1, 3, -1,1.9297465871755177,1.0866303034610976,2
1503616388528,-0.731,-0.365,-0.376,-0.437,+0.891,-0.210,-0.411,+32.438,+3.625,+17.062,1, -17, -7, -3, -1, -1, -5, -4,1.922499933550421,1.0890649579299019,2
1503616388545,-0.730,-0.362,-0.381,-0.437,+0.861,-0.210,-0.419,+32.938,+4.062,+15.000,-5, -4, -3, -2, -1, 0, 12, 8,1.9152829708069865,1.091640092660669,2
1503616388567,-0.728,-0.359,-0.386,-0.438,+0.852,-0.217,-0.411,+32.125,+3.625,+14.875,2, 8, 3, 2, -4, -1, -3, -8,1.9050575024401586,1.094382585526982,2
1503616388588,-0.727,-0.356,-0.391,-0.438,+0.866,-0.234,-0.397,+30.250,+4.000,+14.062,-10, -3, 0, -2, -3, -2, 0, -1,1.8978951936541515,1.0972501310364215,2
1503616388607,-0.726,-0.354,-0.396,-0.437,+0.854,-0.235,-0.392,+29.750,+8.375,+14.562,-15, -13, -2, -2, 1, 0, 1, 0,1.8923698006610987,1.101879652101602,2
1503616388627,-0.724,-0.352,-0.401,-0.437,+0.855,-0.234,-0.390,+29.125,+8.312,+12.812,-29, -14, -1, -3, -1, -4, -19, -19,1.8838011319307417,1.1066791535006135,2
1503616388648,-0.722,-0.350,-0.405,-0.437,+0.863,-0.254,-0.387,+29.375,+5.688,+10.562,-21, -2, -2, -1, -3, 1, 1, 7,1.8754514167293266,1.1096980087682584,2
1503616388665,-0.721,-0.348,-0.410,-0.438,+0.833,-0.269,-0.375,+27.375,+4.875,+8.188,10, 3, -2, -2, -2, -3, -1, 2,1.8690458712776743,1.1154488000067266,2
1503616388687,-0.719,-0.346,-0.413,-0.439,+0.846,-0.269,-0.382,+24.750,+2.812,+5.062,6, -3, -1, 3, 3, 3, 2, 3,1.8604821012225168,1.1171037389329301,2
1503616388710,-0.718,-0.344,-0.416,-0.440,+0.853,-0.271,-0.377,+23.625,+2.500,+4.000,8, -8, -5, 0, -2, -3, -11, -12,1.8545462651947366,1.1191405971157395,2
1503616388725,-0.716,-0.342,-0.420,-0.440,+0.825,-0.288,-0.364,+21.688,+5.312,+4.062,9, 6, 0, 1, 0, 0, 2, -6,1.8462083857566989,1.1225324081537367,2
1503616388747,-0.715,-0.342,-0.423,-0.440,+0.823,-0.275,-0.362,+17.938,+9.000,+2.188,-5, -3, 1, 0, -2, 1, 2, 0,1.8429861414541004,1.1282042246117174,2
1503616388770,-0.713,-0.341,-0.426,-0.441,+0.872,-0.286,-0.371,+18.938,+9.312,+0.562,-14, 4, -1, -1, -2, -2, 0, 2,1.8355850132867775,1.1320561561067572,2
1503616388785,-0.711,-0.340,-0.428,-0.442,+0.896,-0.301,-0.378,+20.875,+2.938,-2.500,15, 7, -2, -1, -1, -4, 2, 8,1.8283757832861216,1.1339369589718626,2
1503616388807,-0.710,-0.338,-0.429,-0.445,+0.875,-0.296,-0.369,+17.125,-8.125,-5.438,-38, 6, 3, -5, 1, -2, 3, 0,1.822106728731857,1.132959051868222,2
1503616388829,-0.709,-0.336,-0.429,-0.448,+0.848,-0.287,-0.386,+12.812,-14.875,-7.500,11, -6, -4, -2, -1, 0, 3, -3,1.8160460477181988,1.1299759524563153,2
1503616388845,-0.708,-0.334,-0.429,-0.450,+0.815,-0.285,-0.364,+8.750,-8.188,-8.375,9, -13, -6, -3, -2, -2, -3, 0,1.810364822972703,1.1266263036197945,2
1503616388870,-0.707,-0.335,-0.430,-0.451,+0.854,-0.271,-0.345,+8.188,+2.125,-7.438,10, 24, 8, 1, 3, 1, 7, 2,1.8083345888937747,1.1306547335171162,2
1503616388890,-0.705,-0.335,-0.431,-0.453,+0.880,-0.279,-0.357,+9.875,+1.750,-5.750,-20, 10, -4, -4, -3, -3, 1, 2,1.8021574023007607,1.1328649800151538,2
1503616388913,-0.704,-0.334,-0.431,-0.455,+0.873,-0.290,-0.371,+8.625,-5.438,-13.125,-17, -8, -2, -2, -4, 4, -1, 1,1.7976602991086097,1.1314359523288602,2
1503616388927,-0.703,-0.334,-0.430,-0.458,+0.882,-0.297,-0.355,+4.250,-8.125,-15.000,14, -6, 1, 0, 0, -1, 3, 3,1.794167096955242,1.130249905566113,2
1503616388949,-0.702,-0.334,-0.429,-0.460,+0.872,-0.285,-0.349,-1.312,-5.812,-12.750,11, 1, 0, 3, 0, -1, -6, -1,1.7910154780985714,1.1286824587970814,2
1503616388965,-0.702,-0.336,-0.428,-0.461,+0.869,-0.282,-0.316,-7.188,-1.312,-9.375,1, -4, -3, -3, -2, -2, -8, -8,1.7931861688858994,1.13082034276022,2
1503616388987,-0.702,-0.338,-0.426,-0.461,+0.864,-0.269,-0.315,-12.812,+1.250,-8.625,16, -32, -7, 0, -1, 2, -4, -3,1.7958442593830288,1.1305691326277072,2
1503616389009,-0.702,-0.340,-0.424,-0.461,+0.871,-0.277,-0.347,-18.250,+1.938,-9.562,-16, -16, -6, -1, 0, -2, -5, -1,1.7985170683628482,1.1303486942827707,2
1503616389025,-0.703,-0.343,-0.421,-0.460,+0.907,-0.275,-0.396,-21.562,+6.688,-5.938,19, 9, 0, -1, -2, 0, 0, 4,1.8055125652211248,1.1300062550703018,2
1503616389047,-0.704,-0.346,-0.419,-0.458,+0.936,-0.273,-0.379,-25.688,+5.938,-2.188,3, 2, -1, -2, 0, -4, -10, 0,1.812712966882337,1.1313515961535896,2
1503616389071,-0.706,-0.348,-0.415,-0.457,+0.915,-0.257,-0.383,-27.250,-0.438,-1.250,0, 5, -1, -2, 1, -3, 1, 2,1.8213580222625412,1.1275671514406962,2
1503616389085,-0.708,-0.349,-0.412,-0.456,+0.876,-0.256,-0.383,-27.688,-1.875,-0.375,-2, 5, -1, -1, -2, -2, -2, -1,1.8286531903223908,1.123888886662453,2
1503616389108,-0.709,-0.352,-0.409,-0.454,+0.856,-0.256,-0.393,-25.000,+8.062,-1.562,3, -13, 2, 0, 1, 1, 13, 7,1.8361168970710346,1.1234760210190262,2
1503616389129,-0.710,-0.356,-0.407,-0.451,+0.891,-0.259,-0.371,-30.750,+10.625,+2.000,6, 14, 11, 3, -1, 1, 4, 4,1.8450157056281427,1.126666738373105,2
1503616389145,-0.712,-0.359,-0.403,-0.449,+0.922,-0.185,-0.374,-34.000,+4.688,+2.438,-4, 10, -2, -2, -3, 2, 1, 3,1.8553547674858486,1.1248346589520215,2
1503616389167,-0.714,-0.361,-0.398,-0.448,+0.897,-0.166,-0.389,-32.500,-5.312,-2.438,3, 0, -3, -1, -1, 2, -10, 4,1.8643338757921797,1.1196163311414555,2
1503616389189,-0.717,-0.363,-0.393,-0.448,+0.830,-0.166,-0.377,-31.188,-6.938,-3.000,-4, -13, -3, -1, -1, -2, 6, -10,1.8754420189371697,1.11522160961001,2
1503616389208,-0.718,-0.365,-0.389,-0.446,+0.831,-0.171,-0.407,-27.625,+1.125,-2.062,0, -3, 2, 2, 1, 0, 5, -4,1.8821485815066792,1.1114336880068678,2
1503616389227,-0.720,-0.368,-0.385,-0.445,+0.882,-0.181,-0.415,-30.812,-0.062,-1.125,8, 15, -4, -1, -2, 1, 3, 13,1.8921520924240507,1.1104391190897338,2
1503616389249,-0.723,-0.370,-0.380,-0.444,+0.893,-0.198,-0.395,-34.500,-8.375,-0.375,-3, -6, 0, 0, 1, -3, -7, -4,1.9037315177155025,1.106076464823301,2
1503616389265,-0.726,-0.371,-0.374,-0.443,+0.865,-0.167,-0.431,-34.688,-12.625,-0.875,0, 5, 5, -1, 0, 1, 4, 3,1.9143950530899387,1.0980527258723765,2
1503616389287,-0.728,-0.372,-0.369,-0.442,+0.858,-0.156,-0.438,-32.750,-9.438,-0.250,3, -8, -10, -2, -1, 0, -3, -2,1.9223407152005554,1.0916041323207837,2
1503616389309,-0.731,-0.373,-0.364,-0.441,+0.852,-0.144,-0.441,-29.062,-6.188,+3.000,-6, -17, -2, 0, 1, -3, -15, -15,1.9327901689301863,1.0856283854148212,2
1503616389325,-0.734,-0.374,-0.360,-0.439,+0.852,-0.145,-0.447,-27.938,-5.000,+7.188,-3, -1, -2, 1, -2, 1, -2, 0,1.9435151392295105,1.0811495903975026,2
1503616389347,-0.737,-0.374,-0.357,-0.436,+0.854,-0.165,-0.439,-29.375,-7.000,+10.312,-4, 4, 3, 1, 3, -2, -6, -6,1.9533952343904273,1.0760609556967902,2
1503616389369,-0.740,-0.374,-0.353,-0.434,+0.882,-0.169,-0.445,-27.625,-11.562,+10.562,2, -5, 0, 0, -3, 1, 0, 3,1.9630468139877466,1.0696762744564494,2
1503616389385,-0.743,-0.374,-0.349,-0.432,+0.877,-0.167,-0.443,-26.562,-14.500,+9.000,1, 3, -1, -3, -2, -2, -4, -5,1.972735726915767,1.0633696688376726,2
1503616389408,-0.746,-0.373,-0.344,-0.431,+0.852,-0.157,-0.451,-26.500,-18.125,+7.938,-2, -2, -1, 1, 1, 1, 1, -1,1.9810419338270622,1.0537592676785934,2
1503616389429,-0.749,-0.372,-0.340,-0.429,+0.828,-0.143,-0.464,-27.062,-14.750,+9.812,-3, 12, -2, -3, -2, -5, -10, -5,1.9896961263507225,1.0455423066665446,2
1503616389445,-0.752,-0.372,-0.336,-0.427,+0.846,-0.134,-0.479,-25.625,-10.812,+9.938,-5, -29, -8, -1, 1, 0, 6, -2,1.9994972174894727,1.0394771398924727,2
1503616389467,-0.754,-0.372,-0.333,-0.426,+0.900,-0.145,-0.458,-22.438,-11.500,+6.750,1, 15, 9, 0, 0, -1, 1, 4,2.0059390886587574,1.0350567562254012,2
1503616389489,-0.756,-0.372,-0.330,-0.425,+0.895,-0.166,-0.434,-20.000,-13.250,+5.500,0, -3, -2, -1, -1, 2, 1, 0,2.0123900277356173,1.03067903641629,2
1503616389508,-0.759,-0.371,-0.327,-0.424,+0.873,-0.171,-0.461,-16.938,-18.188,+4.812,2, 17, -2, 0, -2, -2, 0, -2,2.020182019975125,1.0246439709957047,2
