Timestamp,Orientation X,Orientation Y,Orientation Z,Orientation W,Accelerometer X,Accelerometer Y,Accelerometer Z,Gyroscope X,Gyroscope Y,Gyroscope Z,EMG1,EMG2,EMG3,EMG4,EMG5,EMG6,EMG7,EMG8
1503612771860,-0.453,-0.525,+0.450,+0.563,+0.955,-0.174,-0.002,+11.438,+8.062,-7.250,-5, -1, 1, -1, -2, -2, 1, -7
1503612771875,-0.455,-0.526,+0.450,+0.561,+0.949,-0.180,-0.009,+12.812,+5.750,-11.625,0, 32, 12, 3, 2, 1, -8, -3
1503612771897,-0.456,-0.526,+0.449,+0.560,+0.938,-0.205,-0.011,+9.250,+1.875,-5.562,-14, 30, 13, 2, -2, 2, -5, -10
1503612771920,-0.456,-0.527,+0.450,+0.559,+0.929,-0.212,+0.014,+2.562,+1.062,-6.000,4, 18, 8, 6, -2, -6, 12, 7
1503612771935,-0.456,-0.527,+0.451,+0.558,+0.921,-0.223,+0.035,-1.875,+6.438,-8.125,2, 7, 0, 0, 2, -1, 12, -1
1503612771957,-0.456,-0.526,+0.452,+0.558,+0.964,-0.210,+0.039,-8.062,+1.625,-10.438,10, 57, 15, 2, 1, 3, 4, 2
1503612771980,-0.456,-0.524,+0.454,+0.558,+1.012,-0.174,+0.029,-11.938,-2.312,-11.188,-4, -31, -16, -7, -8, -6, -1, -5
1503612772002,-0.457,-0.521,+0.455,+0.559,+1.002,-0.141,+0.000,-14.062,-13.375,-12.875,2, 4, 3, -4, -14, -9, -3, 4
1503612772025,-0.461,-0.516,+0.456,+0.560,+0.984,-0.118,-0.031,-11.312,-19.750,-19.312,0, 4, -3, -3, 20, 6, 1, 1
1503612772040,-0.464,-0.512,+0.457,+0.560,+0.957,-0.150,+0.009,-8.500,-18.062,-26.688,-1, -9, -5, -4, -3, -9, -11, -7
1503612772062,-0.467,-0.509,+0.459,+0.559,+0.969,-0.172,+0.023,-5.562,-10.562,-28.812,9, -6, -6, -1, -3, -3, 4, 1
1503612772077,-0.469,-0.507,+0.461,+0.557,+0.979,-0.149,-0.007,-1.062,-0.500,-27.812,1, 2, 1, 1, 3, -1, -1, -1
1503612772100,-0.472,-0.505,+0.463,+0.554,+1.005,-0.140,-0.007,+0.000,+2.438,-29.188,-1, 13, 6, 0, -8, -5, -4, -3
1503612772122,-0.475,-0.503,+0.466,+0.551,+1.017,-0.106,+0.017,-0.625,+0.875,-33.062,-8, 13, 10, 1, 1, 8, -1, -4
1503612772137,-0.478,-0.501,+0.469,+0.548,+1.026,-0.076,+0.009,+0.750,-2.250,-30.688,3, -4, -3, -1, -7, -3, -2, 2
1503612772160,-0.482,-0.498,+0.471,+0.546,+1.033,-0.091,-0.025,+2.688,-5.750,-29.875,-2, -3, -7, -9, 5, -4, 9, -2
1503612772185,-0.486,-0.495,+0.472,+0.545,+1.040,-0.082,-0.043,+1.812,-11.625,-30.062,-5, -3, 1, 5, 3, 1, -4, 4
1503612772197,-0.490,-0.491,+0.472,+0.543,+1.015,-0.058,-0.025,+2.062,-17.562,-28.562,-1, 0, 6, 5, -14, -7, -7, -2
1503612772220,-0.494,-0.488,+0.472,+0.543,+0.952,-0.081,-0.028,+0.875,-17.500,-21.250,-9, -19, -5, 0, -7, -3, 3, 0
1503612772242,-0.496,-0.486,+0.472,+0.543,+0.934,-0.084,-0.036,-1.938,-10.188,-16.438,-1, -3, -4, -3, -7, -3, 2, -1
1503612772257,-0.497,-0.484,+0.474,+0.542,+0.983,-0.066,-0.024,-4.688,-3.438,-17.938,-6, 1, -1, 0, -13, 0, -10, -9
1503612772280,-0.499,-0.482,+0.475,+0.541,+1.021,-0.028,-0.049,-3.938,-6.188,-16.125,6, 4, 0, 1, 7, -4, 4, 5
1503612772302,-0.502,-0.480,+0.475,+0.541,+1.014,-0.035,-0.046,-2.625,-9.750,-14.250,5, -12, -9, -2, -1, -1, -2, 0
1503612772320,-0.503,-0.478,+0.475,+0.541,+1.007,-0.056,-0.040,-3.188,-10.625,-13.375,0, -8, -2, 3, 11, 4, -6, 1
1503612772340,-0.505,-0.475,+0.475,+0.542,+1.018,-0.055,-0.069,-5.000,-17.875,-10.312,-2, -2, 0, -1, -3, -2, -7, -5
1503612772362,-0.507,-0.472,+0.474,+0.543,+0.997,-0.021,-0.079,-7.438,-16.062,-7.062,-1, 9, -3, -3, 8, 1, -2, 3
1503612772377,-0.509,-0.470,+0.473,+0.544,+0.987,-0.004,-0.096,-6.688,-16.062,-4.250,16, 1, -3, -2, 0, -2, -1, -5
1503612772400,-0.509,-0.468,+0.473,+0.546,+1.010,-0.036,-0.071,-9.000,-11.938,-2.000,-4, -14, -2, -3, 31, 7, 7, 0
1503612772422,-0.509,-0.466,+0.474,+0.547,+0.994,-0.038,-0.030,-12.812,-8.938,-1.312,3, 15, 6, 1, -32, -10, 6, -9
1503612772437,-0.508,-0.465,+0.474,+0.549,+1.013,-0.014,-0.055,-11.562,-8.625,+1.312,-1, -3, 2, 3, -7, -1, 1, 43
1503612772461,-0.509,-0.463,+0.474,+0.550,+1.049,+0.010,-0.087,-10.125,-10.000,+0.062,-7, -2, -3, 0, 13, -1, 4, 8
1503612772475,-0.509,-0.460,+0.474,+0.551,+1.047,+0.004,-0.069,-9.312,-12.625,-3.375,-7, -3, -3, -3, -1, 0, 15, -2
1503612772497,-0.510,-0.459,+0.473,+0.553,+1.022,-0.037,-0.059,-9.188,-14.688,-2.000,-3, -1, -1, -1, 17, 0, -9, -4
1503612772521,-0.510,-0.457,+0.474,+0.554,+0.997,-0.025,-0.056,-9.812,-9.000,-1.562,3, -11, -4, -5, -21, -3, 1, -16
1503612772535,-0.510,-0.456,+0.474,+0.555,+1.005,-0.002,-0.069,-9.688,-4.688,-1.562,1, -7, -2, -2, -2, 0, -14, 29
1503612772557,-0.510,-0.455,+0.475,+0.555,+1.051,+0.015,-0.089,-7.750,-3.125,-0.250,-16, 5, 1, -2, -8, -6, 4, 7
1503612772580,-0.510,-0.454,+0.475,+0.556,+1.048,+0.014,-0.098,-5.375,-3.375,+0.812,7, 2, -2, 0, -3, 3, 6, 7
1503612772596,-0.510,-0.453,+0.475,+0.557,+1.037,-0.019,-0.083,-5.062,-6.500,+2.000,9, 8, 5, 3, 0, 0, 1, 0
1503612772622,-0.509,-0.453,+0.474,+0.558,+1.023,-0.034,-0.072,-5.062,-6.250,+5.312,-2, -7, -2, 2, -12, -4, -11, -20
1503612772640,-0.508,-0.453,+0.474,+0.559,+1.017,-0.017,-0.075,-5.625,-3.688,+9.062,-3, 1, -3, 0, 9, 3, 6, -10
1503612772656,-0.507,-0.453,+0.473,+0.560,+1.035,-0.000,-0.089,-4.750,-2.938,+11.688,-7, 15, 2, -2, 0, -3, -13, -78
1503612772677,-0.506,-0.453,+0.472,+0.561,+1.044,-0.001,-0.104,-2.125,-2.125,+11.375,-24, 29, 1, -2, -13, -7, -15, -16
1503612772700,-0.505,-0.455,+0.471,+0.562,+1.037,-0.040,-0.086,+0.062,+0.000,+12.188,-1, 5, -3, -5, -2, -1, 5, -2
1503612772716,-0.504,-0.456,+0.470,+0.563,+1.006,-0.059,-0.064,-1.000,-0.688,+12.750,7, -1, -2, -3, 6, -3, -5, 18
1503612772737,-0.502,-0.457,+0.469,+0.564,+1.010,-0.046,-0.070,-0.812,-0.062,+13.938,-4, 6, 2, 5, 9, 5, 0, -5
1503612772760,-0.501,-0.459,+0.468,+0.566,+1.011,-0.041,-0.100,+0.438,-0.562,+14.625,-9, -5, -1, -2, -8, -2, -11, -12
1503612772775,-0.500,-0.460,+0.467,+0.566,+1.016,-0.043,-0.107,+1.562,+0.062,+12.750,4, -17, -6, -4, -4, 0, 9, 14
1503612772799,-0.500,-0.461,+0.465,+0.568,+1.008,-0.069,-0.091,+2.750,-5.000,+12.062,0, 4, -4, -3, 17, 1, -1, -4
1503612772823,-0.499,-0.462,+0.463,+0.569,+0.990,-0.074,-0.080,+2.812,-6.000,+12.625,-14, 13, 2, 1, -8, -4, -6, 9
1503612772836,-0.498,-0.463,+0.461,+0.570,+0.974,-0.073,-0.106,+2.625,-3.938,+14.562,7, 12, 2, -3, -7, -2, 1, 0
1503612772857,-0.497,-0.465,+0.459,+0.571,+0.986,-0.070,-0.108,+3.125,-0.188,+16.812,-9, 4, 4, -4, -1, -3, 3, -3
1503612772880,-0.495,-0.467,+0.458,+0.572,+1.010,-0.062,-0.125,+4.562,+4.562,+19.250,-1, 0, 1, 3, 5, -1, -3, 4
1503612772902,-0.494,-0.469,+0.456,+0.573,+1.025,-0.062,-0.120,+5.562,+2.438,+21.812,-3, -14, -3, -1, -2, -1, 4, -2
1503612772917,-0.492,-0.471,+0.453,+0.575,+1.014,-0.096,-0.093,+4.625,-0.938,+23.250,-28, 46, 9, 0, -7, -6, -12, -11
1503612772940,-0.490,-0.474,+0.450,+0.577,+1.010,-0.121,-0.077,+5.000,-0.875,+26.188,11, -21, -10, -6, -2, 0, 2, -10
1503612772968,-0.487,-0.477,+0.447,+0.578,+1.010,-0.120,-0.103,+6.125,+0.938,+30.500,16, 10, 7, 3, 3, 1, 6, 12
1503612772979,-0.484,-0.481,+0.444,+0.580,+1.009,-0.131,-0.095,+6.625,+2.312,+32.562,6, -12, -6, -1, -1, 2, 3, 3
1503612773000,-0.482,-0.484,+0.441,+0.582,+1.008,-0.138,-0.092,+8.375,+0.938,+32.438,6, 29, 9, 5, -2, -3, -5, 3
1503612773024,-0.479,-0.488,+0.438,+0.584,+0.977,-0.157,-0.089,+9.438,+2.500,+31.438,18, 12, -1, -2, -2, -3, -8, 0
1503612773038,-0.477,-0.491,+0.435,+0.585,+0.987,-0.190,-0.081,+8.188,+1.312,+28.500,2, 10, 1, -1, 5, 0, 1, 5
1503612773060,-0.475,-0.494,+0.432,+0.586,+0.972,-0.180,-0.070,+7.562,+1.125,+24.875,-9, -1, 3, 1, -1, -1, 2, 3
1503612773082,-0.473,-0.497,+0.429,+0.587,+0.961,-0.172,-0.088,+8.250,+2.375,+23.188,2, 9, 4, -2, -9, -4, 0, 5
1503612773099,-0.470,-0.500,+0.427,+0.588,+0.963,-0.174,-0.113,+7.500,+6.625,+25.938,7, -21, -7, -4, -3, -2, 2, 2
1503612773120,-0.468,-0.504,+0.425,+0.589,+0.967,-0.187,-0.093,+6.125,+9.438,+26.375,-13, 7, 5, 3, 1, 0, 1, 16
1503612773142,-0.465,-0.507,+0.423,+0.590,+0.966,-0.200,-0.055,+5.625,+7.000,+21.500,-4, -6, -6, -4, -5, 1, -7, 39
1503612773162,-0.464,-0.509,+0.422,+0.590,+0.968,-0.193,-0.070,+8.062,+2.562,+17.062,6, 6, -2, -3, -1, -3, -2, 5
1503612773180,-0.463,-0.511,+0.419,+0.590,+0.976,-0.188,-0.093,+9.438,+0.812,+15.938,10, -6, -5, -4, -6, -4, -6, 1
1503612773202,-0.463,-0.513,+0.417,+0.591,+0.971,-0.186,-0.101,+9.750,+0.750,+16.750,-7, -6, 0, 2, 8, 2, -2, -5
1503612773218,-0.462,-0.515,+0.415,+0.591,+0.975,-0.203,-0.079,+9.125,+2.125,+15.875,-7, -14, 0, -5, -4, -2, -3, 8
1503612773247,-0.461,-0.518,+0.413,+0.591,+0.966,-0.210,-0.070,+11.062,+2.250,+15.562,-13, 4, -2, 1, -1, 1, 1, -4
1503612776599,-0.516,-0.457,+0.390,+0.610,+0.907,-0.154,-0.212,-11.312,-11.938,+3.438,5, -5, -4, -3, -2, -4, -8, 21
1503612776623,-0.515,-0.456,+0.391,+0.612,+0.931,-0.129,-0.229,-11.625,-1.562,+3.750,4, 0, 0, 2, -1, -1, 0, -5
1503612776645,-0.515,-0.455,+0.392,+0.612,+0.978,-0.116,-0.248,-7.625,+4.812,+0.938,-16, -2, 2, -2, -2, 0, 0, -6
1503612776660,-0.515,-0.455,+0.393,+0.611,+0.983,-0.114,-0.242,-3.125,+7.062,-4.312,2, 2, 1, 0, 0, -3, 0, -4
1503612776684,-0.516,-0.455,+0.394,+0.609,+0.950,-0.100,-0.248,+4.312,+5.875,-9.000,8, 1, -3, 0, -1, 0, -15, 1
1503612776705,-0.518,-0.455,+0.395,+0.607,+0.925,-0.113,-0.222,+10.312,+5.438,-16.188,6, -2, 0, 0, 7, 9, 2, 17
1503612776721,-0.521,-0.456,+0.396,+0.603,+0.965,-0.130,-0.219,+12.875,+6.625,-19.625,17, 0, -2, -1, -5, -2, 1, 1
1503612776742,-0.523,-0.457,+0.397,+0.601,+0.982,-0.146,-0.232,+12.625,+5.750,-14.688,-3, -1, 3, -1, -1, -3, 1, -11
1503612776765,-0.525,-0.457,+0.396,+0.599,+0.972,-0.146,-0.236,+10.812,-2.125,-14.938,2, 4, 0, 1, 13, 10, 8, 0
1503612776785,-0.528,-0.456,+0.395,+0.597,+0.950,-0.114,-0.247,+8.688,-6.062,-9.750,-1, -7, -4, -1, -8, -2, 0, -9
1503612776802,-0.528,-0.457,+0.395,+0.597,+0.943,-0.121,-0.195,+2.500,-4.562,-1.188,-5, -3, -6, -3, -8, -8, -3, -5
1503612776825,-0.527,-0.457,+0.395,+0.598,+0.993,-0.133,-0.175,-4.875,-2.750,+6.625,-2, 0, -2, -1, -1, 0, 1, -21
1503612776839,-0.526,-0.456,+0.394,+0.600,+1.017,-0.114,-0.209,-7.188,-8.062,+10.750,18, 1, -1, -2, 1, -7, -6, -2
1503612776862,-0.526,-0.454,+0.393,+0.602,+0.977,-0.109,-0.244,-10.125,-15.500,+9.938,-8, -1, -2, -1, 1, 4, -1, 7
1503612776885,-0.526,-0.452,+0.391,+0.605,+0.943,-0.105,-0.232,-13.688,-19.188,+11.250,-9, 6, 12, 2, 0, -1, 1, 19
1503612776900,-0.525,-0.450,+0.390,+0.608,+0.941,-0.102,-0.212,-14.688,-13.438,+11.938,-6, -8, -6, -1, -4, -6, -11, 2
1503612776923,-0.523,-0.449,+0.390,+0.610,+0.938,-0.111,-0.221,-13.438,-7.625,+12.062,9, 1, 1, -2, -2, -2, 6, -4
1503612776944,-0.522,-0.448,+0.390,+0.612,+0.951,-0.107,-0.243,-13.562,-1.500,+9.562,-1, 7, 0, 0, -5, -5, -2, 5
1503612776959,-0.520,-0.447,+0.391,+0.613,+0.971,-0.112,-0.234,-13.562,+1.188,+6.312,-9, 0, 1, 0, 2, 3, 3, -9
1503612776995,-0.519,-0.447,+0.392,+0.614,+0.982,-0.122,-0.247,-9.812,+1.688,+5.188,9, 1, -2, 0, -1, 3, -1, 0
1503612777005,-0.519,-0.446,+0.392,+0.615,+0.976,-0.129,-0.274,-5.812,-1.250,+3.250,8, -1, -2, -2, 2, -2, -3, 2
1503612777020,-0.519,-0.445,+0.392,+0.615,+0.945,-0.134,-0.260,-4.125,-2.688,-1.438,10, 10, 0, 1, -1, 3, 0, -2
1503612777042,-0.520,-0.444,+0.392,+0.615,+0.941,-0.140,-0.243,-3.125,-2.812,-5.062,-8, 0, 0, -2, -8, -1, -8, -9
1503612777065,-0.520,-0.444,+0.393,+0.615,+0.966,-0.143,-0.264,-1.375,+1.062,-5.750,2, 14, 6, 0, 0, 0, 2, -1
1503612777080,-0.521,-0.444,+0.393,+0.614,+0.969,-0.160,-0.295,+2.188,+3.125,-2.875,16, 10, 1, 0, 3, 0, 1, 6
1503612777110,-0.520,-0.445,+0.392,+0.614,+0.954,-0.175,-0.251,+3.500,+5.312,-1.938,30, 66, 16, 2, -1, -4, 4, 17
1503612777125,-0.521,-0.446,+0.393,+0.613,+0.954,-0.161,-0.234,+2.688,+2.500,-7.062,-14, -28, -8, -3, -3, -4, -1, 2
1503612777139,-0.522,-0.447,+0.393,+0.612,+0.959,-0.146,-0.255,+5.250,+3.000,-4.250,-12, -11, -5, -1, 1, 2, 1, -11
1503612777162,-0.522,-0.447,+0.393,+0.611,+0.961,-0.158,-0.254,+3.938,+3.625,-3.250,-6, -15, -6, -4, -2, 0, 6, -6
1503612777194,-0.522,-0.448,+0.393,+0.610,+0.968,-0.159,-0.234,+1.688,+1.188,-2.562,-25, -21, -3, -1, -11, -4, 3, -30
1503612777199,-0.522,-0.448,+0.393,+0.610,+0.976,-0.138,-0.233,+1.000,-0.438,-1.062,-2, -10, -1, -1, -5, -3, -9, 10
1503612777222,-0.523,-0.448,+0.392,+0.610,+0.958,-0.131,-0.251,+1.312,-0.312,-0.250,6, 4, 0, 1, 4, 1, 3, 4
1503612777244,-0.523,-0.448,+0.392,+0.610,+0.955,-0.147,-0.230,+0.438,+0.375,-1.750,1, -2, -3, 0, 0, 3, -1, -2
1503612777260,-0.523,-0.448,+0.393,+0.609,+0.959,-0.125,-0.222,+0.250,+1.125,-3.750,11, 32, 7, 3, 5, 1, -1, 6
1503612777282,-0.524,-0.449,+0.394,+0.608,+0.961,-0.104,-0.235,+1.125,+4.625,-5.688,-6, -15, -4, -3, 6, -2, -9, -7
1503612777305,-0.524,-0.449,+0.395,+0.606,+0.964,-0.097,-0.227,+2.750,+7.688,-7.562,-3, -12, -3, -2, -2, -1, -4, -3
1503612777320,-0.526,-0.450,+0.395,+0.604,+0.987,-0.098,-0.236,+7.438,+4.750,-7.688,15, -19, -8, -3, -3, 0, 6, 9
1503612777342,-0.527,-0.450,+0.396,+0.603,+0.975,-0.105,-0.244,+6.750,-0.125,-10.312,-13, -9, -2, -2, 3, -2, -2, -5
1503612777365,-0.529,-0.449,+0.395,+0.602,+0.958,-0.104,-0.274,+5.438,-6.000,-4.062,-1, -1, -2, -1, -2, -2, -2, -6
1503612777379,-0.529,-0.449,+0.393,+0.603,+0.938,-0.123,-0.241,+0.000,-9.188,+2.500,-3, 2, 0, 2, 6, 2, 5, -4
1503612777402,-0.529,-0.448,+0.392,+0.605,+0.943,-0.134,-0.242,-4.812,-7.812,+7.562,-12, -2, -1, -1, -1, -3, 2, -20
1503612777425,-0.528,-0.448,+0.391,+0.606,+0.946,-0.130,-0.251,-5.875,-2.750,+11.125,-5, 5, 0, 0, 1, 1, -6, 3
1503612777439,-0.526,-0.448,+0.391,+0.608,+0.958,-0.134,-0.231,-5.875,+0.625,+9.688,10, -6, -6, -3, -2, -1, -4, 0
1503612777463,-0.526,-0.448,+0.391,+0.608,+0.979,-0.127,-0.205,-4.000,-1.312,+4.438,-1, 0, 4, 0, -2, 1, 4, 7
1503612777485,-0.526,-0.448,+0.391,+0.608,+0.991,-0.123,-0.216,-2.562,-6.562,-1.438,3, 16, 5, 1, 1, 2, 1, -1
1503612777499,-0.527,-0.447,+0.391,+0.608,+0.984,-0.117,-0.234,-1.000,-9.250,-5.688,-3, -4, 0, 0, -4, 1, -4, 10
1503612777530,-0.529,-0.446,+0.390,+0.608,+0.966,-0.113,-0.270,+2.250,-8.688,-5.000,-2, -3, -1, -2, -2, -2, 6, 9
1503612777544,-0.530,-0.445,+0.389,+0.608,+0.943,-0.112,-0.256,+2.125,-5.875,-5.062,3, -4, -1, 0, -1, -1, -1, 5
1503612777560,-0.531,-0.445,+0.389,+0.607,+0.952,-0.128,-0.243,+1.938,-2.188,-1.875,-3, -2, 1, 1, 5, 4, 4, 0
1503612777582,-0.531,-0.446,+0.389,+0.607,+0.962,-0.133,-0.237,+1.312,+2.125,+0.875,1, 2, 0, 0, 0, 0, -2, 5
1503612777604,-0.530,-0.446,+0.389,+0.607,+0.989,-0.118,-0.246,+1.000,+1.812,+1.188,-5, -7, -3, -3, 1, -11, -22, -9
1503612777621,-0.531,-0.446,+0.389,+0.607,+0.991,-0.116,-0.257,+1.250,-2.375,+2.000,0, 0, 1, -4, -5, 4, 7, -5
1503612777642,-0.531,-0.446,+0.388,+0.607,+0.977,-0.131,-0.240,+1.688,-6.312,+1.500,-5, -2, -4, 0, 1, -2, -8, 0
1503612777665,-0.532,-0.446,+0.386,+0.607,+0.979,-0.138,-0.258,+3.250,-8.062,+2.500,-7, -7, -7, 0, -3, -4, 6, -16
1503612777680,-0.532,-0.446,+0.385,+0.608,+0.969,-0.149,-0.252,+2.500,-7.125,+3.250,3, 9, 4, -1, 0, 1, -5, 1
1503612777702,-0.532,-0.447,+0.384,+0.608,+0.962,-0.138,-0.247,+3.188,-4.812,+2.875,-6, -13, -5, 0, -4, -1, -1, 0
1503612777727,-0.533,-0.447,+0.383,+0.608,+0.980,-0.136,-0.251,+5.125,-3.500,+2.062,-2, 3, 1, -1, -1, 4, 1, 1
1503612777740,-0.533,-0.448,+0.382,+0.607,+0.973,-0.134,-0.250,+5.625,-3.375,+0.000,13, 3, 2, -2, -3, 6, 6, 13
1503612777767,-0.534,-0.448,+0.381,+0.607,+0.956,-0.139,-0.258,+6.062,-3.125,-0.188,-8, 4, 0, 1, 3, -1, 5, 3
1503612777785,-0.534,-0.450,+0.380,+0.607,+0.952,-0.143,-0.261,+6.625,+2.188,+2.625,-1, -4, -2, -1, -4, -4, 2, 1
1503612777800,-0.534,-0.452,+0.380,+0.606,+0.936,-0.154,-0.241,+6.875,+8.312,+3.688,2, 15, 10, 2, 2, -2, 0, -6
1503612777824,-0.533,-0.454,+0.380,+0.605,+0.946,-0.143,-0.234,+7.375,+10.750,+2.812,1, -2, -2, -3, -3, -3, 0, -3
1503612777844,-0.533,-0.455,+0.380,+0.603,+0.969,-0.137,-0.252,+8.375,+8.375,+0.375,8, 6, 5, 2, 3, 0, -1, -3
1503612777860,-0.533,-0.457,+0.380,+0.603,+0.965,-0.144,-0.262,+8.125,+3.000,-0.250,-8, -11, -6, -5, -4, -1, -2, 8
1503612777882,-0.534,-0.457,+0.379,+0.602,+0.944,-0.117,-0.275,+7.062,-1.812,-1.812,-3, 5, -1, -4, -4, -1, 16, 4
1503612777904,-0.536,-0.457,+0.378,+0.601,+0.930,-0.095,-0.267,+8.500,-3.188,-2.688,7, 24, 9, 3, 2, 0, -2, -1
1503612777920,-0.538,-0.457,+0.377,+0.600,+0.938,-0.103,-0.248,+9.188,-4.812,-4.562,-9, 0, 0, -1, -2, -4, -2, 5
1503612777942,-0.539,-0.457,+0.376,+0.599,+0.938,-0.125,-0.257,+7.938,-4.688,-6.625,-7, -18, -8, -3, -1, -3, -3, -4
1503612777965,-0.540,-0.457,+0.376,+0.598,+0.937,-0.123,-0.263,+7.562,+0.500,-3.375,-2, 6, 1, 1, -3, -3, -11, -7
1503612777980,-0.541,-0.458,+0.376,+0.597,+0.931,-0.104,-0.255,+6.312,+4.250,-1.500,-4, -5, 6, 0, -2, 0, 5, -2
1503612778002,-0.542,-0.459,+0.376,+0.595,+0.923,-0.082,-0.266,+6.812,+9.000,-2.375,2, -1, -3, -1, 0, 0, 11, -36
1503612778025,-0.542,-0.460,+0.377,+0.593,+0.953,-0.085,-0.254,+8.000,+10.312,-4.812,-2, -12, -6, -3, 0, -2, -12, 12
1503612778040,-0.543,-0.461,+0.378,+0.591,+0.986,-0.099,-0.243,+8.188,+5.750,-6.438,9, 4, 1, -1, -1, -3, -3, 11
1503612778062,-0.544,-0.462,+0.378,+0.590,+0.982,-0.096,-0.245,+7.938,+1.188,-4.938,5, -1, -4, -2, -2, -3, 3, 6
1503612778092,-0.545,-0.462,+0.377,+0.589,+0.957,-0.102,-0.245,+8.250,-1.312,-2.250,0, -5, 0, 3, 1, 0, 0, 5
1503612778100,-0.546,-0.463,+0.376,+0.588,+0.945,-0.120,-0.259,+7.875,+0.125,-0.938,-1, -5, -4, -2, -2, 0, 0, 5
1503612778122,-0.547,-0.464,+0.375,+0.588,+0.966,-0.130,-0.252,+7.375,+1.250,-0.812,2, -10, -6, -5, -5, -4, 0, 2
1503612778144,-0.547,-0.464,+0.375,+0.587,+0.997,-0.130,-0.260,+6.625,+2.375,+0.688,-6, 6, 7, 2, 1, 2, -10, -6
1503612778161,-0.547,-0.466,+0.374,+0.586,+1.000,-0.146,-0.232,+4.750,+2.250,+2.250,7, -2, -3, -1, -2, 1, -2, 0
1503612778182,-0.547,-0.467,+0.374,+0.586,+0.987,-0.138,-0.236,+4.500,+2.000,+3.938,1, -2, -3, -2, -1, -2, 2, -3
1503612778204,-0.547,-0.468,+0.373,+0.586,+0.982,-0.126,-0.246,+6.875,+1.500,+3.938,-6, -4, -1, 1, 2, -2, 4, 1
1503612778220,-0.547,-0.469,+0.372,+0.585,+0.989,-0.134,-0.242,+8.562,+1.625,+3.250,17, 7, 3, 1, -1, 0, -7, 7
1503612778242,-0.547,-0.470,+0.371,+0.585,+1.004,-0.143,-0.246,+8.375,+1.750,+6.125,-9, -12, -9, -1, -1, 0, 5, 3
1503612778265,-0.547,-0.472,+0.370,+0.585,+0.995,-0.130,-0.249,+8.688,+2.625,+9.625,-7, 0, 0, -2, 1, 0, 1, -4
1503612778280,-0.546,-0.474,+0.368,+0.584,+0.992,-0.120,-0.244,+10.188,+3.188,+12.375,-1, -3, -3, -1, -2, -4, -5, -1
1503612778302,-0.546,-0.476,+0.366,+0.584,+1.014,-0.126,-0.247,+12.688,+2.000,+13.750,5, 8, 5, 0, -1, 0, -1, -1
1503612778327,-0.545,-0.479,+0.364,+0.584,+1.023,-0.143,-0.235,+14.188,+1.375,+16.375,-15, -4, -1, -1, 1, 0, -6, 7
1503612778347,-0.544,-0.481,+0.361,+0.585,+1.009,-0.153,-0.241,+14.375,-1.750,+19.062,-3, -3, -1, -2, 0, 0, 9, -2
1503612783125,-0.501,-0.513,+0.452,+0.531,+0.990,-0.085,-0.009,+8.188,+0.875,-20.500,-5, -7, -3, -1, -3, 1, 0, -6
1503612783147,-0.504,-0.512,+0.453,+0.529,+0.991,-0.078,+0.044,+4.188,-6.812,-18.750,1, 1, 0, -1, 3, -1, -3, 5
1503612783169,-0.506,-0.510,+0.453,+0.529,+1.072,-0.061,+0.043,-2.688,-16.562,-11.250,-5, -3, -2, -2, -1, -2, -12, -4
1503612783186,-0.507,-0.506,+0.451,+0.532,+1.117,-0.035,-0.028,-10.250,-28.688,+5.812,-7, -3, 2, 1, -1, 0, 6, 0
1503612783207,-0.508,-0.503,+0.449,+0.536,+1.009,-0.021,-0.007,-16.562,-35.062,+11.875,-6, 30, 13, 2, 2, 2, 6, -31
1503612783231,-0.508,-0.499,+0.447,+0.540,+0.941,-0.033,+0.021,-18.000,-31.438,+9.188,-6, -2, -4, -1, 2, 0, -1, -11
1503612783245,-0.508,-0.497,+0.446,+0.544,+0.999,-0.050,-0.045,-14.750,-18.625,+14.188,6, 4, 1, -1, 1, -1, 0, 18
1503612783267,-0.506,-0.496,+0.445,+0.547,+1.015,-0.065,-0.088,-14.938,-9.125,+17.438,18, 61, 19, 4, 6, 3, 4, 8
1503612783289,-0.505,-0.495,+0.444,+0.550,+1.027,-0.086,-0.079,-15.375,-8.312,+15.000,-8, -11, -2, 2, 1, 2, 6, -4
1503612783305,-0.503,-0.494,+0.443,+0.553,+1.021,-0.108,-0.060,-13.688,-10.125,+11.562,-6, -8, -3, -1, 1, -2, -4, -1
1503612783330,-0.503,-0.493,+0.443,+0.555,+1.002,-0.106,-0.068,-11.812,-12.625,+6.375,1, -9, -6, -5, -3, -1, -1, -4
1503612783349,-0.503,-0.491,+0.442,+0.558,+1.000,-0.097,-0.089,-10.938,-13.688,+3.938,-4, -7, -2, 0, 0, 0, 0, -6
1503612783366,-0.503,-0.489,+0.441,+0.560,+0.970,-0.087,-0.085,-11.688,-13.562,+0.938,-2, 4, 0, -2, 0, -2, 4, 3
1503612783388,-0.504,-0.487,+0.441,+0.561,+0.948,-0.091,-0.089,-10.250,-11.625,-3.250,2, 13, 5, 0, 1, 0, 3, 1
1503612783410,-0.505,-0.484,+0.441,+0.562,+0.958,-0.082,-0.113,-8.125,-9.625,-5.688,1, 0, 0, 1, -1, 1, 1, 0
1503612783425,-0.506,-0.482,+0.441,+0.563,+0.984,-0.076,-0.124,-6.875,-11.188,-7.000,-1, -1, 1, 0, -3, -1, 5, -1
1503612783447,-0.507,-0.481,+0.441,+0.563,+0.961,-0.089,-0.119,-4.000,-6.500,-6.188,0, -4, -1, 0, 3, 0, -5, -6
1503612783470,-0.508,-0.480,+0.442,+0.563,+0.920,-0.111,-0.104,-2.500,-0.625,-8.688,-2, -5, -3, -1, 0, 2, 0, 2
1503612783485,-0.508,-0.480,+0.443,+0.562,+0.953,-0.088,-0.111,-2.812,+7.250,-7.938,4, 0, 2, -2, -1, -2, -2, -2
1503612783507,-0.508,-0.480,+0.445,+0.560,+1.020,-0.063,-0.090,-0.250,+13.750,-8.000,0, -2, -2, -5, -10, -4, -5, -6
1503612783530,-0.509,-0.480,+0.446,+0.558,+1.078,-0.067,-0.093,+2.438,+6.375,-9.250,10, 1, -3, 0, 1, -1, -2, -4
1503612783545,-0.511,-0.479,+0.446,+0.557,+1.058,-0.070,-0.110,+3.125,-8.250,-9.062,-4, -1, -2, 1, 4, -3, -2, -4
1503612783567,-0.513,-0.477,+0.445,+0.558,+1.002,-0.102,-0.108,+2.438,-17.562,-10.812,-3, -1, 0, 4, 8, 1, -3, -2
1503612783589,-0.515,-0.476,+0.443,+0.558,+0.961,-0.111,-0.127,-0.312,-16.500,-7.750,-1, -4, -4, -3, -4, 0, 6, 65
1503612783605,-0.516,-0.474,+0.443,+0.559,+0.958,-0.094,-0.094,-7.062,-10.562,-4.812,14, -8, -5, -4, -2, -2, -3, -14
1503612783627,-0.516,-0.472,+0.443,+0.561,+1.020,-0.069,-0.066,-12.125,-13.750,-0.500,-2, -30, -12, -2, 0, -3, -4, 0
1503612783649,-0.516,-0.469,+0.442,+0.564,+1.051,-0.055,-0.093,-13.625,-21.312,+5.250,5, -2, 1, 1, -1, 0, -7, -41
1503612783665,-0.517,-0.466,+0.440,+0.568,+1.014,-0.068,-0.114,-16.062,-33.125,+4.125,-9, 7, 1, -3, -3, -2, 2, 3
1503612783687,-0.518,-0.462,+0.438,+0.571,+0.965,-0.079,-0.115,-16.125,-31.875,+1.812,-5, 15, 8, 1, 0, 2, 1, -15
1503612783709,-0.519,-0.458,+0.437,+0.574,+0.965,-0.083,-0.105,-16.750,-22.438,+0.125,-12, -12, -7, -3, -7, -3, -6, -9
1503612783725,-0.519,-0.456,+0.437,+0.576,+0.989,-0.076,-0.115,-17.625,-18.000,-0.688,-7, 5, 6, 1, 0, 0, -8, -17
1503612783747,-0.519,-0.452,+0.438,+0.579,+0.993,-0.042,-0.155,-17.688,-15.438,-1.438,-1, 7, 0, -1, -4, -1, -2, 33
1503612783770,-0.519,-0.449,+0.438,+0.580,+0.983,-0.026,-0.151,-17.375,-15.062,-4.438,2, 8, 4, 4, 10, 2, -3, 3
1503612783785,-0.520,-0.446,+0.439,+0.582,+0.982,-0.033,-0.178,-15.562,-13.688,-5.250,6, 2, 1, -1, -2, 0, 0, 17
1503612783807,-0.521,-0.443,+0.439,+0.583,+0.979,-0.037,-0.193,-11.812,-11.188,-5.750,1, -9, -7, 4, 5, 1, 0, -4
1503612783832,-0.522,-0.440,+0.439,+0.584,+0.984,-0.038,-0.189,-11.500,-9.750,-6.938,-4, 2, 0, -2, -4, -1, 3, 5
1503612783845,-0.522,-0.438,+0.440,+0.585,+0.994,-0.041,-0.182,-11.125,-9.438,-5.188,24, 0, -5, -3, -7, -3, 1, 1
1503612783867,-0.523,-0.436,+0.440,+0.586,+0.979,-0.050,-0.200,-9.000,-7.938,-3.250,-2, 0, -3, -2, 0, -1, -5, -9
1503612783889,-0.523,-0.434,+0.440,+0.587,+0.976,-0.058,-0.190,-10.188,-9.125,-3.375,-6, -6, 0, 0, -1, 3, 9, 17
1503612783905,-0.523,-0.432,+0.440,+0.588,+1.005,-0.039,-0.201,-9.938,-9.375,-1.375,7, -12, -7, -3, -1, -2, -1, 11
1503612783927,-0.524,-0.431,+0.439,+0.590,+1.016,-0.024,-0.218,-7.500,-12.125,+2.125,-13, -1, -1, -3, 0, -2, 4, -9
1503612783949,-0.524,-0.429,+0.438,+0.591,+1.000,-0.042,-0.229,-6.375,-13.875,+3.750,-4, -2, -4, -2, -3, 15, 9, -4
1503612783967,-0.524,-0.428,+0.437,+0.593,+0.978,-0.058,-0.211,-6.062,-11.750,+4.375,-1, -4, -2, -1, 6, -3, -9, -8
1503612783987,-0.524,-0.427,+0.436,+0.594,+0.969,-0.055,-0.210,-5.812,-5.688,+5.875,4, 3, -2, -2, -9, -4, -1, -5
1503612784009,-0.522,-0.428,+0.436,+0.595,+0.976,-0.053,-0.215,-3.688,+3.250,+7.438,-8, 3, 2, 1, -1, -2, -8, -59
1503612784025,-0.521,-0.429,+0.436,+0.595,+1.007,-0.057,-0.208,-2.688,+5.188,+7.000,-14, 1, -3, 1, 0, -1, 2, 12
1503612784054,-0.520,-0.429,+0.436,+0.596,+1.026,-0.051,-0.204,-2.062,+1.125,+7.250,-3, -17, -4, -1, -1, -4, 3, -2
1503612784070,-0.520,-0.429,+0.435,+0.597,+0.989,-0.049,-0.192,-1.125,-4.500,+4.625,-5, 0, 4, 0, 2, -1, -7, 14
1503612784085,-0.520,-0.429,+0.434,+0.597,+0.968,-0.049,-0.192,+1.312,-6.500,+5.000,5, -1, -3, -4, -3, -1, 1, -16
1503612784107,-0.520,-0.429,+0.433,+0.598,+0.960,-0.059,-0.215,+1.312,-5.812,+6.312,0, -4, -3, 0, -1, -1, 5, 28
1503612784129,-0.520,-0.430,+0.432,+0.599,+0.955,-0.055,-0.224,+0.562,-1.312,+6.375,-3, 4, -2, -2, -2, -3, -4, -24
1503612784145,-0.520,-0.430,+0.431,+0.599,+0.976,-0.053,-0.216,+1.062,+0.938,+6.000,12, 4, 3, 4, 1, -3, -6, 32
1503612784172,-0.519,-0.431,+0.431,+0.599,+0.991,-0.064,-0.206,+1.000,+0.625,+5.750,3, -4, -5, -4, -10, 3, -4, 8
1503612784189,-0.519,-0.431,+0.430,+0.600,+0.979,-0.064,-0.203,-0.062,-2.062,+4.375,1, -1, -3, -1, -1, 0, 1, -9
1503612784206,-0.519,-0.432,+0.430,+0.600,+0.949,-0.052,-0.204,+0.062,-0.312,+4.125,4, 3, 0, -1, -8, -1, 9, -6
1503612784227,-0.519,-0.432,+0.430,+0.599,+0.952,-0.056,-0.190,+1.750,+3.188,+1.062,6, -4, -8, -4, -4, -2, -8, -3
1503612784249,-0.518,-0.433,+0.430,+0.599,+0.980,-0.070,-0.196,+2.438,+5.250,+0.000,5, -7, -3, -1, 0, 1, -3, 0
1503612784267,-0.518,-0.434,+0.431,+0.598,+0.980,-0.058,-0.192,+2.000,+4.250,-0.438,8, -5, -6, -3, 2, -1, -5, -9
1503612784287,-0.519,-0.434,+0.431,+0.597,+0.958,-0.055,-0.188,+2.375,+4.625,-2.438,2, -7, -5, 0, 0, 2, 8, 17
1503612784311,-0.519,-0.435,+0.432,+0.596,+0.950,-0.079,-0.194,+3.188,+6.938,-2.688,2, 4, -1, -2, -4, -2, 2, -39
1503612784326,-0.518,-0.436,+0.432,+0.595,+0.948,-0.081,-0.205,+1.750,+8.875,-2.312,7, 11, 6, 4, 2, 2, -4, 9
1503612784347,-0.518,-0.437,+0.433,+0.594,+0.965,-0.061,-0.202,-0.562,+9.625,-1.312,-4, -10, -5, -3, 1, -4, -14, -3
1503612784370,-0.518,-0.437,+0.434,+0.594,+0.993,-0.057,-0.197,-0.188,+5.688,-0.938,10, -1, 0, 0, -2, -1, -2, 6
1503612784386,-0.518,-0.438,+0.434,+0.593,+0.975,-0.077,-0.194,+1.062,+2.438,-0.500,0, 8, 3, 3, 1, 2, -7, -3
1503612784408,-0.518,-0.438,+0.433,+0.593,+0.958,-0.092,-0.215,+0.062,+0.188,-0.750,-8, -1, 0, -2, -3, -10, -10, 4
1503612784429,-0.518,-0.438,+0.434,+0.593,+0.948,-0.092,-0.208,-3.125,+1.750,-1.625,-4, -7, -5, -2, -4, 2, 2, 4
1503612784446,-0.518,-0.438,+0.434,+0.593,+0.981,-0.079,-0.216,-3.875,+3.875,-1.750,-5, -4, -1, 1, 0, 0, -2, -8
1503612784469,-0.517,-0.437,+0.435,+0.593,+1.003,-0.052,-0.198,-3.875,+3.688,-1.750,-2, -4, -1, -1, -4, 2, -9, -2
1503612784489,-0.518,-0.437,+0.435,+0.593,+1.011,-0.051,-0.200,-2.312,-2.938,-1.688,-6, 1, 1, -1, -6, 0, -2, 4
1503612784507,-0.518,-0.436,+0.435,+0.593,+1.000,-0.053,-0.197,-2.188,-5.250,-0.500,-1, -4, -1, -1, -1, 2, 8, -1
1503612784527,-0.519,-0.436,+0.434,+0.594,+0.980,-0.051,-0.188,-2.000,-4.000,+0.625,-8, 6, 4, 1, 0, 1, 5, -23
1503612784549,-0.519,-0.436,+0.434,+0.594,+0.968,-0.047,-0.193,+0.688,+0.625,+0.938,2, -6, -4, -1, -2, -3, -3, 6
1503612784565,-0.519,-0.437,+0.434,+0.593,+0.997,-0.062,-0.191,+2.188,+2.938,+0.188,-4, 0, -2, -3, -5, -2, -5, 1
1503612784587,-0.519,-0.437,+0.434,+0.592,+1.011,-0.061,-0.183,+2.062,+0.812,-1.812,-3, -2, 2, 1, -7, -2, -7, 0
1503612784609,-0.519,-0.437,+0.434,+0.592,+0.993,-0.058,-0.178,+2.188,-0.500,-1.750,0, -13, -8, -3, 1, -1, -2, 8
1503612784625,-0.520,-0.438,+0.435,+0.591,+0.970,-0.061,-0.177,+2.188,+1.812,-1.938,-3, 21, 10, 2, -1, 0, 5, 3
1503612784647,-0.520,-0.438,+0.435,+0.590,+0.960,-0.065,-0.173,+2.688,+6.125,-2.938,-2, -14, -6, -2, -3, 1, -2, 3
1503612784672,-0.520,-0.439,+0.436,+0.589,+0.974,-0.054,-0.179,+3.000,+7.938,-3.625,-1, -2, 1, 0, 2, 0, 0, 2
1503612784685,-0.520,-0.440,+0.437,+0.588,+0.988,-0.047,-0.177,+2.188,+6.750,-3.750,3, -1, -2, -1, -2, -2, 2, 6
1503612784709,-0.520,-0.440,+0.437,+0.587,+0.996,-0.061,-0.168,+1.875,+2.375,-1.688,-1, 3, 2, 0, 1, -2, 0, -4
1503612784739,-0.520,-0.441,+0.437,+0.587,+0.998,-0.060,-0.172,+0.812,-0.188,+0.625,4, 4, 1, 0, -2, -1, 8, 0
1503612784747,-0.520,-0.441,+0.436,+0.587,+0.983,-0.059,-0.186,-0.312,-3.250,+2.562,-1, 6, 0, 0, 0, 0, 1, -4
1503612784767,-0.520,-0.440,+0.435,+0.588,+0.966,-0.042,-0.183,-1.000,-4.875,+5.062,-4, -3, 0, -1, -2, 0, -4, -6
1503612784790,-0.520,-0.440,+0.434,+0.589,+0.959,-0.058,-0.181,-0.688,-4.312,+5.375,0, -10, -7, -2, -2, -1, -1, 9
1503612784806,-0.520,-0.441,+0.434,+0.589,+0.981,-0.068,-0.181,-1.375,-2.875,+4.750,-6, 3, 3, 0, 10, 0, -7, -11
1503612784828,-0.520,-0.440,+0.434,+0.590,+0.980,-0.055,-0.179,-2.125,-2.875,+2.562,-1, -1, -2, -2, -9, -2, 9, -2
1503612784850,-0.520,-0.440,+0.434,+0.590,+0.962,-0.046,-0.184,-1.562,-2.062,-1.812,2, 0, -2, -4, -1, 1, -4, -4
1503612784866,-0.521,-0.440,+0.434,+0.589,+0.951,-0.059,-0.182,-0.438,+1.250,-5.062,-5, -5, -2, 2, 1, -1, -5, 3
1503612784887,-0.521,-0.440,+0.435,+0.588,+0.952,-0.078,-0.176,+0.750,+6.375,-7.000,-2, -2, -4, -1, -1, -3, -8, -10
1503612784910,-0.521,-0.441,+0.436,+0.587,+0.971,-0.065,-0.177,+0.500,+9.250,-7.125,1, -1, -2, -2, -6, -1, 0, 9
1503612784925,-0.521,-0.441,+0.438,+0.585,+0.989,-0.039,-0.171,+0.750,+7.312,-7.500,10, 12, 7, 0, 0, 3, 1, 15
1503612784948,-0.522,-0.441,+0.438,+0.584,+0.992,-0.039,-0.179,+1.000,+3.688,-6.312,-2, -6, -3, 0, -3, -4, -3, -4
1503612784969,-0.523,-0.441,+0.438,+0.583,+0.986,-0.061,-0.185,+0.875,+0.000,-4.188,-9, -15, -2, -2, 2, -1, 4, -7
1503612784985,-0.523,-0.441,+0.438,+0.583,+0.984,-0.063,-0.180,-0.562,-0.375,-2.625,-1, -1, -1, -2, 5, 3, 10, -6
1503612785009,-0.523,-0.440,+0.439,+0.583,+0.996,-0.052,-0.178,-2.250,-0.438,-1.250,-4, -6, -3, 0, -1, -2, -3, -5
1503612785030,-0.523,-0.440,+0.439,+0.583,+0.997,-0.042,-0.179,-3.125,-0.250,+0.250,0, 2, 1, 1, 2, -1, 0, 0
1503612785045,-0.523,-0.440,+0.439,+0.584,+1.008,-0.035,-0.171,-3.312,-1.750,+1.250,8, -5, -4, 0, -2, -1, 0, 4
1503612785068,-0.523,-0.439,+0.439,+0.584,+1.013,-0.025,-0.169,-1.625,-5.812,+2.562,-8, -7, -3, 1, 6, -2, -10, -4
1503612785090,-0.524,-0.439,+0.438,+0.585,+1.002,-0.028,-0.184,-0.125,-8.438,+2.188,-3, 3, 3, -1, 4, 7, -2, 3
1503612785109,-0.524,-0.439,+0.437,+0.585,+0.989,-0.032,-0.188,+0.188,-5.750,+4.938,0, -3, -1, 2, 4, -3, 1, -1
1503612785128,-0.523,-0.439,+0.436,+0.586,+1.000,-0.021,-0.180,+0.812,-2.500,+8.000,0, -1, -3, -2, -5, -1, -3, 2
1503612785157,-0.523,-0.440,+0.435,+0.586,+1.013,-0.021,-0.177,+2.938,+0.438,+10.000,5, 15, 2, -1, -1, -1, -2, -5
1503612785165,-0.522,-0.441,+0.434,+0.586,+1.017,-0.031,-0.176,+5.500,-0.750,+10.938,-6, -7, -2, 1, 4, 1, -3, 0
1503612785188,-0.522,-0.443,+0.432,+0.587,+1.025,-0.039,-0.189,+7.688,-4.312,+11.875,5, -2, 0, 5, 6, 3, 9, 6
1503612785210,-0.522,-0.444,+0.430,+0.587,+1.019,-0.035,-0.191,+8.125,-4.438,+11.812,-3, -5, -3, -1, 1, 0, -4, -1
1503612785225,-0.523,-0.445,+0.429,+0.588,+1.003,-0.019,-0.188,+9.562,-3.875,+12.750,4, -7, -3, -3, -6, 0, -1, 0
1503612785248,-0.522,-0.447,+0.427,+0.588,+1.013,-0.018,-0.183,+11.938,-1.312,+15.875,-7, 6, 3, 0, 5, 2, 1, 1
1503612785270,-0.522,-0.450,+0.424,+0.588,+1.018,-0.038,-0.180,+13.750,-0.188,+17.375,7, -11, -3, -1, -5, -4, 1, 3
1503612785292,-0.521,-0.452,+0.422,+0.588,+1.027,-0.044,-0.189,+15.688,+0.062,+18.750,-3, -16, -10, -8, -6, -1, 2, 0
1503612785309,-0.521,-0.455,+0.419,+0.588,+1.018,-0.052,-0.190,+16.812,-2.062,+18.562,-2, -1, 1, 0, 13, 2, -5, -2
1503612785330,-0.521,-0.458,+0.416,+0.588,+0.996,-0.069,-0.183,+18.312,-3.938,+18.188,1, 5, -1, -2, -7, -2, 8, -5
1503612785367,-0.521,-0.461,+0.412,+0.589,+1.003,-0.077,-0.204,+19.250,-4.062,+22.062,2, -2, 1, 0, -6, -2, -3, 2
1503612785382,-0.521,-0.464,+0.408,+0.589,+0.994,-0.089,-0.205,+19.438,-1.812,+24.188,0, 22, 6, 0, 1, 0, 6, -8
1503612785390,-0.519,-0.468,+0.404,+0.590,+0.985,-0.120,-0.186,+19.375,+0.938,+25.375,1, 5, 2, 2, 9, 3, -6, -3
1503612785413,-0.518,-0.472,+0.401,+0.590,+0.984,-0.125,-0.178,+20.312,+2.000,+24.312,-6, -8, -4, -3, -6, -6, -6, -1
1503612785429,-0.517,-0.476,+0.398,+0.590,+0.990,-0.141,-0.187,+20.375,+2.062,+23.125,2, 9, 5, 2, 8, 4, 3, -4
1503612785451,-0.516,-0.480,+0.394,+0.590,+1.003,-0.155,-0.189,+19.625,+1.438,+24.688,1, -11, -4, -3, -7, -5, -13, -3
1503612785472,-0.515,-0.484,+0.390,+0.591,+0.993,-0.154,-0.182,+19.250,+3.250,+25.000,4, -1, -2, -3, -3, 2, 3, 0
1503612785495,-0.514,-0.487,+0.387,+0.591,+1.000,-0.154,-0.178,+19.250,+2.125,+26.500,0, -5, -3, -3, -5, -2, 0, 0
1503612785510,-0.512,-0.491,+0.383,+0.591,+0.994,-0.158,-0.180,+20.375,-1.062,+29.625,-5, -2, -2, -2, 2, 3, -3, 2
1503612785532,-0.511,-0.495,+0.378,+0.592,+0.984,-0.176,-0.202,+22.812,-2.000,+31.312,-5, 0, -2, 2, -1, -3, -7, -9
1503612785548,-0.510,-0.499,+0.373,+0.593,+0.991,-0.204,-0.199,+23.875,-1.938,+32.688,-1, 0, 1, 0, 1, -1, 1, -1
1503612790332,-0.437,-0.398,+0.458,+0.664,+0.938,-0.149,-0.200,+16.562,+12.312,+10.125,-4, -2, -2, -1, -7, -6, -15, -8
1503612790354,-0.436,-0.402,+0.458,+0.663,+0.979,-0.154,-0.187,+12.875,+14.188,+10.688,-16, 0, 0, -2, -10, 1, 4, -2
1503612790371,-0.435,-0.405,+0.457,+0.662,+0.991,-0.141,-0.193,+9.438,+9.750,+10.062,1, -11, -9, -5, -8, -6, 3, 1
1503612790392,-0.435,-0.406,+0.456,+0.662,+0.961,-0.135,-0.218,+8.375,-0.062,+7.375,6, 2, 1, 4, 4, 2, 5, 7
1503612790419,-0.435,-0.407,+0.455,+0.661,+0.922,-0.153,-0.196,+6.938,-0.438,+1.000,1, -1, -1, -3, 1, -3, -7, -8
1503612790430,-0.436,-0.409,+0.455,+0.660,+0.878,-0.163,-0.179,+5.438,+4.500,-2.812,-4, 2, 0, 5, 25, 10, 2, -3
1503612790453,-0.435,-0.410,+0.457,+0.659,+0.887,-0.154,-0.161,+2.750,+12.938,-5.812,2, 5, -4, -8, -10, -6, 2, -11
1503612790474,-0.435,-0.411,+0.460,+0.656,+0.941,-0.128,-0.165,+1.000,+20.250,-11.000,-4, 3, -2, -2, -2, -2, 0, 7
1503612790497,-0.436,-0.411,+0.463,+0.653,+1.008,-0.097,-0.180,+1.625,+16.062,-13.500,-2, -1, 1, 2, 25, 5, -20, 4
1503612790513,-0.438,-0.410,+0.464,+0.652,+1.028,-0.090,-0.198,+2.250,+3.000,-12.500,6, 1, 2, 1, -1, 1, -1, 8
1503612790534,-0.440,-0.409,+0.464,+0.651,+0.983,-0.100,-0.205,+3.062,-4.875,-12.188,3, -11, -6, -1, 4, 4, 12, 10
1503612790557,-0.442,-0.408,+0.464,+0.651,+0.956,-0.109,-0.200,+2.125,-5.375,-7.750,-7, -4, -1, -1, -1, -3, 1, -5
1503612790572,-0.442,-0.408,+0.463,+0.651,+0.985,-0.109,-0.204,-0.812,-1.625,-0.500,2, -5, 2, 5, 7, 5, 9, 5
1503612790594,-0.442,-0.408,+0.464,+0.651,+0.999,-0.106,-0.175,-2.375,-0.625,+0.500,7, 5, 1, 1, 8, 5, 1, 2
1503612790615,-0.442,-0.408,+0.464,+0.651,+0.996,-0.117,-0.150,-2.062,-3.250,-2.375,-7, -18, -5, -1, 2, 2, 2, -3
1503612790632,-0.443,-0.407,+0.464,+0.650,+0.985,-0.118,-0.170,+0.438,-4.312,-6.062,-7, -2, -2, -1, -6, 2, 3, -3
1503612790655,-0.445,-0.407,+0.464,+0.649,+0.961,-0.121,-0.156,+0.500,-2.312,-11.500,13, 0, 1, 0, -2, 1, -1, 5
1503612790670,-0.446,-0.406,+0.465,+0.648,+0.973,-0.133,-0.127,-2.500,-1.812,-15.125,-14, 0, 0, -3, -10, -4, 15, -7
1503612790693,-0.447,-0.404,+0.466,+0.647,+1.021,-0.118,-0.118,-5.750,-9.312,-14.938,-3, 2, -4, -1, 7, -1, -12, -8
1503612790715,-0.450,-0.400,+0.466,+0.648,+1.045,-0.081,-0.181,-9.938,-20.375,-12.062,-6, -2, 0, 1, -15, -5, -1, -5
1503612790737,-0.452,-0.395,+0.464,+0.651,+0.947,-0.063,-0.223,-12.812,-30.562,-12.562,-6, 4, 0, 2, 3, 3, 18, -2
1503612790755,-0.454,-0.391,+0.463,+0.653,+0.918,-0.073,-0.190,-14.875,-28.750,-9.562,-1, 0, -3, -4, -2, -3, -10, -6
1503612790775,-0.455,-0.387,+0.463,+0.655,+0.973,-0.070,-0.177,-18.688,-22.500,-5.375,6, -16, 0, 3, 2, -1, -9, 7
1503612790796,-0.455,-0.383,+0.462,+0.658,+1.031,-0.056,-0.220,-18.688,-22.688,-3.250,-2, -10, -5, -5, -5, -1, -6, 2
1503612790815,-0.456,-0.378,+0.460,+0.661,+0.990,-0.062,-0.233,-20.375,-31.375,-3.812,-4, 5, 3, 3, 8, 4, 2, -2
1503612790835,-0.458,-0.373,+0.459,+0.664,+0.932,-0.061,-0.234,-20.688,-32.250,-6.000,2, 4, 0, -2, -1, -5, -6, 2
1503612790857,-0.458,-0.368,+0.458,+0.667,+0.938,-0.050,-0.251,-19.000,-24.188,-5.125,-1, 2, -4, -2, 10, 0, -15, 6
1503612790873,-0.459,-0.365,+0.458,+0.669,+0.947,-0.047,-0.276,-17.688,-14.812,-2.688,-4, 1, -1, -2, 2, 5, 2, 2
1503612790895,-0.460,-0.361,+0.456,+0.671,+1.027,-0.027,-0.305,-10.812,-24.562,-4.188,1, 4, 1, -3, -13, -8, -5, -6
1503612790917,-0.461,-0.359,+0.455,+0.673,+0.993,-0.057,-0.296,-10.312,-19.500,+0.000,1, 1, -1, 5, 23, 2, 2, 0
1503612790933,-0.462,-0.356,+0.453,+0.674,+0.962,-0.046,-0.292,-5.688,-18.500,-2.375,-2, -1, -1, -4, -5, -2, 4, -4
1503612790957,-0.463,-0.355,+0.451,+0.676,+0.951,-0.070,-0.310,-4.312,-15.062,-0.750,0, -1, -2, -1, -7, -1, 6, 0
1503612790976,-0.462,-0.354,+0.451,+0.676,+0.949,-0.069,-0.311,-4.750,-4.375,+1.312,-8, -17, -9, -2, -2, -2, -2, -8
1503612790993,-0.462,-0.354,+0.451,+0.677,+0.932,-0.072,-0.312,-3.750,+1.812,+3.625,16, 17, 5, 2, 3, 1, -16, 3
1503612791015,-0.461,-0.355,+0.452,+0.677,+0.936,-0.063,-0.321,-4.375,+8.750,+4.188,-2, 12, 2, -6, -10, -5, -3, -6
1503612791030,-0.459,-0.356,+0.453,+0.677,+0.934,-0.083,-0.300,-2.875,+15.562,+7.312,-7, -10, -6, -2, 12, 8, -6, -11
1503612791055,-0.458,-0.357,+0.454,+0.676,+0.984,-0.051,-0.288,-1.938,+10.250,+4.938,-11, 0, -1, -4, -7, -2, 0, -5
1503612791075,-0.457,-0.358,+0.454,+0.676,+1.004,-0.049,-0.286,-1.562,+2.125,+4.062,3, 4, 3, 2, 2, -1, 4, 10
1503612791092,-0.457,-0.357,+0.453,+0.677,+0.961,-0.046,-0.283,-0.500,-7.062,+3.750,2, 10, 0, -1, 1, 1, 1, -5
1503612791113,-0.457,-0.357,+0.452,+0.677,+0.910,-0.057,-0.294,+0.812,-6.250,+3.750,-3, -2, 1, 3, 18, 10, -5, -1
1503612791135,-0.457,-0.358,+0.452,+0.678,+0.914,-0.062,-0.304,+1.312,+1.562,+4.312,1, -5, -2, -3, -9, -3, -5, -4
1503612791151,-0.457,-0.359,+0.452,+0.677,+0.956,-0.059,-0.295,+1.625,+6.312,+3.062,-5, -5, 0, -1, 0, -4, -5, -6
1503612791173,-0.457,-0.359,+0.452,+0.677,+0.969,-0.063,-0.287,+2.000,+2.750,+2.438,-4, 1, 1, 0, -4, -5, 3, 0
1503612791195,-0.457,-0.360,+0.451,+0.677,+0.962,-0.068,-0.279,+2.125,-3.062,+1.188,9, 1, -2, -1, -3, 0, 9, 2
1503612791225,-0.457,-0.360,+0.450,+0.677,+0.937,-0.071,-0.301,+1.812,-4.000,+1.188,-5, -4, -3, -3, -12, -2, -5, -2
1503612791233,-0.457,-0.360,+0.450,+0.677,+0.934,-0.076,-0.292,+1.188,-0.125,+2.250,-2, 3, 1, 0, 6, 4, 12, -1
1503612791255,-0.457,-0.361,+0.450,+0.677,+0.947,-0.079,-0.280,+1.000,+2.750,+1.938,-4, -1, -1, -1, 0, 0, -11, 0
1503612791270,-0.457,-0.361,+0.450,+0.677,+0.966,-0.079,-0.284,+0.875,+1.500,+2.000,3, 2, 0, 1, 2, 0, 0, -2
1503612791293,-0.457,-0.361,+0.450,+0.677,+0.966,-0.084,-0.291,-0.375,-0.875,+1.188,-5, -3, -2, -2, -3, 1, -1, -2
1503612791318,-0.457,-0.361,+0.450,+0.677,+0.945,-0.085,-0.278,-0.625,-0.625,+1.250,5, -1, -2, 0, -1, -2, -3, -1
1503612791330,-0.457,-0.362,+0.450,+0.677,+0.954,-0.084,-0.283,+0.000,+0.188,+0.750,4, 6, 2, 1, 1, -1, 4, 7
1503612791353,-0.457,-0.362,+0.450,+0.677,+0.960,-0.081,-0.284,-0.688,-1.250,+0.312,-6, -3, -2, -5, -4, -1, 1, 0
1503612791375,-0.457,-0.362,+0.450,+0.677,+0.949,-0.073,-0.283,-0.812,+0.750,+0.188,-2, -1, 1, 2, -2, 0, -12, -9
1503612791391,-0.457,-0.362,+0.450,+0.677,+0.949,-0.071,-0.280,-0.250,+2.688,+0.188,2, 11, 5, 2, -1, 0, 3, 2
1503612791413,-0.457,-0.362,+0.450,+0.677,+0.954,-0.069,-0.288,+0.250,+2.938,+0.688,-4, 8, 4, 2, 3, 1, -5, -5
1503612791435,-0.457,-0.363,+0.450,+0.676,+0.964,-0.068,-0.279,+0.500,+2.500,-0.062,-4, -12, -4, 0, 8, 4, -7, -19
1503612791453,-0.457,-0.363,+0.450,+0.676,+0.956,-0.072,-0.273,+0.562,+1.812,+0.188,-1, 2, -4, -5, -6, -10, -11, 4
1503612791473,-0.457,-0.363,+0.450,+0.676,+0.947,-0.074,-0.287,+0.500,+1.625,+0.562,-6, 5, 0, -1, -2, 2, -1, -5
1503612791495,-0.457,-0.364,+0.450,+0.676,+0.944,-0.073,-0.285,-0.438,+1.062,+0.688,-4, -1, 2, 3, 0, 1, 4, 5
1503612791510,-0.456,-0.364,+0.451,+0.675,+0.953,-0.069,-0.277,-1.562,+1.875,+0.500,0, -2, -1, -1, -2, -1, 8, 12
1503612791533,-0.456,-0.364,+0.451,+0.675,+0.954,-0.069,-0.274,-1.750,+1.000,+0.500,4, 3, 0, -2, 1, -5, -5, -7
1503612791555,-0.456,-0.364,+0.451,+0.675,+0.960,-0.066,-0.278,-1.562,-0.312,-0.125,-7, 16, 11, 5, 4, -2, -2, 6
1503612791570,-0.456,-0.364,+0.451,+0.675,+0.957,-0.063,-0.286,-1.875,-0.938,-0.562,4, -8, -1, 4, 3, 3, 6, 10
1503612791593,-0.457,-0.363,+0.451,+0.675,+0.951,-0.059,-0.282,-3.438,-2.125,-1.688,-1, -2, 0, -1, -17, -3, -4, -5
1503612791615,-0.457,-0.363,+0.451,+0.675,+0.945,-0.065,-0.271,-2.812,-0.312,-0.688,-8, -4, -5, -6, -8, -3, -9, -10
1503612791637,-0.457,-0.363,+0.452,+0.675,+0.953,-0.073,-0.271,-1.938,+0.812,-0.875,6, 7, 3, -2, -13, -7, -14, 6
1503612791654,-0.457,-0.362,+0.452,+0.675,+0.966,-0.066,-0.285,-2.312,+0.875,-0.625,-2, -9, 3, 2, 3, 1, 6, 50
1503612791675,-0.457,-0.362,+0.452,+0.675,+0.963,-0.055,-0.281,-1.438,-0.188,-0.500,-4, -3, -3, -2, 5, 2, -7, 8
1503612791697,-0.457,-0.362,+0.452,+0.675,+0.960,-0.067,-0.276,-0.312,-2.312,-0.125,2, 4, 0, 2, 5, -3, -2, -6
1503612791713,-0.457,-0.362,+0.451,+0.675,+0.964,-0.063,-0.280,+0.062,-2.875,+0.562,-2, -7, -6, -8, -17, 0, 1, -3
1503612791735,-0.457,-0.362,+0.451,+0.675,+0.947,-0.069,-0.284,+0.375,-0.875,+0.938,0, -3, -6, -6, -6, -1, -14, 1
1503612791757,-0.457,-0.363,+0.451,+0.675,+0.948,-0.066,-0.285,+0.688,+2.188,+0.562,-12, 7, 4, 3, 2, -1, 4, -20
1503612791773,-0.457,-0.363,+0.451,+0.675,+0.969,-0.063,-0.285,+0.500,+3.250,+1.125,3, -5, 0, 1, -7, -1, 4, 5
1503612791795,-0.457,-0.363,+0.451,+0.675,+0.983,-0.078,-0.278,+0.500,+0.188,+0.438,2, 5, 3, 4, 8, -1, 4, -4
1503612791817,-0.457,-0.364,+0.451,+0.675,+0.969,-0.082,-0.277,+0.500,-2.250,+0.875,2, 6, 0, 2, 12, -1, -1, 0
1503612791833,-0.457,-0.364,+0.451,+0.675,+0.948,-0.084,-0.278,+0.250,-0.750,+1.938,-4, -10, -6, -5, -9, -6, -6, -11
1503612791858,-0.457,-0.364,+0.450,+0.675,+0.949,-0.072,-0.279,+0.188,+0.938,+2.375,0, -3, -1, -2, -4, -1, 1, 4
1503612791877,-0.457,-0.365,+0.450,+0.675,+0.969,-0.076,-0.283,-0.375,+1.062,+1.875,3, 0, 1, 0, 2, 5, -4, 5
1503612791895,-0.457,-0.365,+0.450,+0.675,+0.979,-0.075,-0.274,-0.062,-0.562,+1.438,-1, -4, 0, -5, -1, -1, 1, 2
1503612791915,-0.457,-0.365,+0.450,+0.675,+0.962,-0.063,-0.285,+0.438,-2.125,+2.562,-2, -2, -2, 0, 0, -4, -3, 0
1503612791944,-0.457,-0.365,+0.449,+0.675,+0.949,-0.068,-0.288,+0.062,-0.812,+3.312,-2, -1, -3, -3, 5, 0, -7, -5
1503612791956,-0.456,-0.366,+0.449,+0.675,+0.944,-0.070,-0.285,+0.625,+2.500,+3.250,-1, 5, 3, 4, 12, 3, -3, -4
1503612791975,-0.456,-0.367,+0.449,+0.675,+0.956,-0.083,-0.270,+1.438,+4.188,+4.000,0, -10, -10, -6, -2, -2, -3, 0
1503612791998,-0.456,-0.367,+0.450,+0.675,+0.957,-0.084,-0.264,+0.812,+2.562,+3.000,-5, -3, -1, -1, -5, -1, -3, -8
1503612792013,-0.455,-0.368,+0.449,+0.675,+0.945,-0.079,-0.272,+0.750,+0.188,+2.250,-1, -5, -3, -2, -3, -4, -6, -8
1503612792035,-0.455,-0.368,+0.449,+0.675,+0.927,-0.085,-0.269,+0.562,-0.250,+1.125,-1, -1, -4, -2, -3, -4, 3, 5
1503612792059,-0.455,-0.368,+0.449,+0.675,+0.916,-0.094,-0.278,-0.188,+2.812,-0.438,-8, 1, 0, 0, -5, 0, 1, -4
1503612792073,-0.455,-0.369,+0.450,+0.674,+0.926,-0.098,-0.281,-1.562,+6.312,-2.125,4, 5, 1, -2, -5, -1, 5, 0
1503612792096,-0.455,-0.369,+0.451,+0.674,+0.944,-0.091,-0.279,-2.750,+6.875,-3.625,2, 8, 3, 0, 2, 2, -5, 0
1503612792118,-0.455,-0.368,+0.452,+0.673,+0.947,-0.075,-0.262,-4.438,+5.125,-5.812,-1, 0, -2, 2, 3, 1, 6, -4
1503612792133,-0.456,-0.367,+0.453,+0.672,+0.945,-0.062,-0.271,-5.500,+1.562,-7.125,-5, 2, 0, 3, 14, 3, 0, -8
1503612792159,-0.456,-0.366,+0.454,+0.672,+0.939,-0.066,-0.275,-5.125,+1.438,-6.438,-2, -4, -3, 0, 2, -1, 13, 2
1503612792177,-0.456,-0.366,+0.455,+0.672,+0.935,-0.063,-0.264,-4.625,+1.125,-5.750,-3, 1, 0, -2, -5, -3, -5, -6
1503612792193,-0.458,-0.364,+0.453,+0.673,+0.967,-0.066,-0.327,-4.125,-13.062,-2.938,0, 7, 3, -4, -7, -1, -2, 2
1503612792215,-0.458,-0.363,+0.454,+0.673,+0.988,-0.045,-0.271,-6.062,-2.688,-0.750,5, -2, 1, 2, 12, 3, 4, 9
1503612792237,-0.458,-0.362,+0.454,+0.673,+0.978,-0.061,-0.278,-2.750,-3.250,-1.562,-6, -6, 1, -1, 5, 4, 1, -9
1503612792253,-0.458,-0.362,+0.454,+0.673,+1.000,-0.063,-0.281,-3.125,+0.500,-1.375,-1, -4, -1, 5, 3, -4, -6, -3
1503612792275,-0.458,-0.362,+0.455,+0.673,+1.000,-0.050,-0.260,-2.000,+0.188,-1.625,3, 1, 0, -2, 8, 0, -1, 3
1503612792298,-0.458,-0.361,+0.455,+0.673,+0.984,-0.059,-0.282,-0.562,-2.312,-0.312,-1, 1, 1, -2, -11, -3, -5, 3
1503612792313,-0.458,-0.361,+0.455,+0.673,+0.969,-0.050,-0.283,-1.125,+1.000,+0.188,-2, -3, -2, -1, -5, -4, -9, 0
1503612792334,-0.458,-0.362,+0.455,+0.672,+0.958,-0.050,-0.264,-1.500,+3.062,+0.375,0, 1, 2, 4, 21, 2, -7, -4
1503612792358,-0.458,-0.362,+0.456,+0.672,+0.957,-0.058,-0.251,+0.562,+1.375,-0.125,2, -1, -6, -4, -3, 2, 5, -3
1503612792372,-0.459,-0.362,+0.455,+0.672,+0.962,-0.076,-0.259,+2.438,-4.938,+1.250,1, 0, 1, -3, -2, -2, 0, 5
1503612792396,-0.459,-0.362,+0.454,+0.672,+0.938,-0.053,-0.284,+1.625,-4.375,-0.500,-3, 0, -1, 0, -10, 0, 6, -3
1503612792416,-0.460,-0.362,+0.454,+0.672,+0.917,-0.063,-0.283,+0.812,-2.000,-1.375,-2, -5, -2, -2, -1, -2, -8, -8
1503612792433,-0.460,-0.362,+0.453,+0.672,+0.940,-0.064,-0.280,-0.062,+0.375,-0.750,-1, -3, -3, -3, -12, -4, -2, -2
1503612792454,-0.460,-0.362,+0.454,+0.672,+0.966,-0.058,-0.285,-0.938,+2.188,-0.562,-1, -1, 0, 2, -1, -6, -1, 3
1503612792476,-0.460,-0.362,+0.454,+0.672,+0.977,-0.047,-0.273,-0.875,-0.312,+0.375,0, -5, -5, -1, -2, 1, -6, -3
1503612792501,-0.460,-0.362,+0.453,+0.672,+0.974,-0.054,-0.271,-0.188,-2.938,+2.562,-2, 1, 3, 1, -17, -3, 7, 4
1503612792514,-0.460,-0.362,+0.453,+0.672,+0.962,-0.064,-0.280,+0.938,-1.125,+2.625,-4, -10, -3, 2, 4, 4, 0, -3
1503612792537,-0.460,-0.363,+0.453,+0.672,+0.969,-0.071,-0.275,+1.062,+0.938,+1.438,-2, 1, 2, 0, 10, 6, 5, -4
1503612792551,-0.460,-0.363,+0.453,+0.672,+0.980,-0.069,-0.274,+1.625,+0.750,+1.875,-6, -4, 0, -3, -2, 1, 1, -5
1503612792574,-0.460,-0.364,+0.452,+0.672,+0.963,-0.072,-0.275,+2.625,-1.750,+1.875,1, 2, 0, -1, 4, 1, 2, 0
1503612792597,-0.460,-0.365,+0.451,+0.672,+0.948,-0.072,-0.282,+3.000,-0.500,+4.125,-7, 1, -2, -5, -5, -4, 7, -11
1503612792611,-0.460,-0.366,+0.451,+0.672,+0.938,-0.070,-0.284,+2.562,+2.000,+4.938,1, -2, -4, -3, -8, -1, -6, 7
1503612792635,-0.459,-0.367,+0.451,+0.672,+0.949,-0.071,-0.274,+1.625,+5.125,+4.062,-1, -2, -3, -5, -2, -2, 0, 0
1503612792656,-0.458,-0.368,+0.452,+0.672,+0.953,-0.077,-0.270,+0.312,+8.188,+5.438,1, -1, 0, -1, -8, 2, -2, -2
1503612792672,-0.458,-0.368,+0.452,+0.671,+0.981,-0.071,-0.263,-0.125,+1.812,+3.000,0, -3, -1, -4, 4, -3, -1, -8
1503612792694,-0.458,-0.369,+0.452,+0.671,+0.970,-0.083,-0.258,+0.062,-0.812,+2.375,-1, -1, -2, 2, 15, 8, -8, 5
1503612792717,-0.458,-0.369,+0.451,+0.672,+0.948,-0.083,-0.261,-0.062,-3.875,+1.625,-5, -7, -1, 0, -3, -4, 8, 1
1503612792732,-0.458,-0.369,+0.451,+0.672,+0.931,-0.083,-0.269,+0.125,-0.750,+1.250,-2, 0, -3, -3, -13, -7, 4, -1
1503612792754,-0.457,-0.369,+0.451,+0.672,+0.945,-0.089,-0.279,-0.812,+2.562,+0.688,-5, -5, -1, 1, 9, 0, -3, -6
1503612792777,-0.457,-0.370,+0.451,+0.671,+0.953,-0.083,-0.272,-1.875,+6.062,-0.875,6, -2, 2, 0, -11, -7, -1, 3
1503612792793,-0.457,-0.370,+0.452,+0.671,+0.952,-0.059,-0.262,-2.062,+4.750,-1.812,3, 1, -1, 1, 6, -3, 1, -1
1503612792814,-0.457,-0.369,+0.453,+0.670,+0.960,-0.054,-0.260,-1.500,+2.062,-2.562,-5, 3, -1, 1, 0, -1, 0, -2
1503612792837,-0.458,-0.369,+0.453,+0.670,+0.959,-0.055,-0.264,-0.875,-1.125,-2.312,-1, 3, 2, 0, -2, 1, -3, 1
1503612792851,-0.458,-0.369,+0.453,+0.670,+0.944,-0.063,-0.261,-1.000,-0.312,-1.500,0, 0, 0, -3, 9, 0, -3, -6
1503612792874,-0.458,-0.369,+0.454,+0.670,+0.952,-0.069,-0.266,-0.812,+2.125,-1.312,-2, -6, -3, -5, -8, -4, -1, -5
1503612792897,-0.458,-0.369,+0.454,+0.669,+0.971,-0.073,-0.263,-0.750,+4.250,-1.750,-1, -2, 0, -1, 0, 1, 4, 3
1503612792911,-0.458,-0.369,+0.455,+0.668,+0.972,-0.067,-0.257,-0.188,+4.375,-2.750,2, -8, -4, -1, 3, 3, 0, 2
1503612792934,-0.459,-0.369,+0.455,+0.668,+0.979,-0.064,-0.254,+0.062,+1.312,-2.750,7, 11, 2, 0, -2, -1, -5, 3
1503612792956,-0.459,-0.370,+0.455,+0.668,+0.977,-0.070,-0.260,+0.250,-0.688,-0.750,-1, -7, -2, 0, 0, 0, 3, -3
1503612792972,-0.459,-0.370,+0.455,+0.668,+0.966,-0.068,-0.264,-0.250,-1.188,+0.562,-1, 0, -1, 0, 0, 2, 16, 2
1503612792996,-0.459,-0.370,+0.455,+0.668,+0.964,-0.061,-0.266,-0.438,+0.125,+0.938,1, 3, 3, 0, -22, -5, -5, 2
1503612793016,-0.459,-0.370,+0.455,+0.667,+0.976,-0.046,-0.273,+0.938,+3.375,+1.938,-5, 8, 1, -3, 3, 1, -6, -3
1503612793032,-0.459,-0.371,+0.456,+0.667,+1.002,-0.058,-0.256,+2.312,+4.500,+2.750,-7, -14, -4, 0, 8, 0, -5, -2
1503612793054,-0.458,-0.372,+0.456,+0.666,+1.018,-0.048,-0.261,+4.062,+2.875,+5.375,0, -2, -1, 2, 3, 1, 4, 2
1503612793077,-0.458,-0.373,+0.455,+0.666,+1.003,-0.035,-0.266,+5.938,-0.125,+7.250,5, 14, 6, 2, 18, -1, -4, 3
1503612793091,-0.458,-0.374,+0.454,+0.666,+1.002,-0.029,-0.267,+8.250,-1.062,+10.875,-1, -5, -5, -1, -11, -4, -2, -5
1503612793114,-0.458,-0.377,+0.452,+0.666,+1.001,-0.045,-0.268,+11.312,+1.375,+14.812,-1, -3, 0, -2, -6, -2, -3, 3
1503612793137,-0.457,-0.380,+0.450,+0.666,+1.015,-0.054,-0.273,+14.250,+1.375,+16.375,-4, -2, -2, -3, 4, 5, 22, 3
1503612793159,-0.457,-0.383,+0.448,+0.666,+1.024,-0.065,-0.267,+16.312,+0.875,+17.812,-3, -3, -2, 1, 2, -1, -9, -7
1503612793174,-0.456,-0.386,+0.446,+0.666,+1.005,-0.066,-0.263,+20.062,-0.688,+18.312,6, 2, 3, 0, -11, -7, 3, 3
1503612793198,-0.456,-0.390,+0.443,+0.666,+0.999,-0.077,-0.267,+24.000,+0.188,+19.875,2, 0, -1, 0, 3, 1, 0, -4
1503612793219,-0.456,-0.395,+0.440,+0.665,+0.991,-0.079,-0.267,+27.000,+3.188,+19.938,0, 0, 0, 1, 5, 4, -3, -6
1503612793237,-0.456,-0.400,+0.437,+0.664,+0.993,-0.094,-0.273,+30.750,+5.625,+20.875,9, 9, 1, 0, 1, 2, 8, 3
1503612793257,-0.456,-0.406,+0.433,+0.663,+1.008,-0.117,-0.258,+34.062,+5.812,+21.688,-4, -3, 2, 0, 3, -1, 3, -7
1503612793280,-0.457,-0.412,+0.429,+0.662,+1.009,-0.128,-0.253,+35.750,+1.312,+21.125,4, 10, 3, 1, -12, -1, -1, 1
1503612793303,-0.457,-0.417,+0.425,+0.660,+0.988,-0.123,-0.268,+38.250,-0.875,+22.375,-3, 4, -2, -4, -7, -3, -1, 1
1503612793317,-0.458,-0.423,+0.420,+0.659,+0.977,-0.134,-0.280,+40.938,-1.500,+24.688,-5, -5, -3, -1, 2, -3, -13, -2
1503612798079,-0.410,-0.447,+0.481,+0.633,+0.987,-0.199,-0.071,+18.250,+15.000,-25.625,-5, 2, -2, -4, -10, -6, -8, -6
1503612798101,-0.413,-0.447,+0.483,+0.629,+1.000,-0.193,-0.074,+13.875,+3.500,-25.750,-5, -3, 0, 2, 9, 3, 10, 8
1503612798117,-0.417,-0.446,+0.483,+0.627,+0.969,-0.147,-0.083,+12.125,-4.062,-24.500,0, -2, 0, 2, 2, 4, -11, -2
1503612798141,-0.422,-0.445,+0.483,+0.625,+0.946,-0.146,-0.068,+11.125,-10.562,-26.812,-1, 2, 1, -2, -16, -1, 7, 2
1503612798165,-0.426,-0.443,+0.483,+0.624,+0.974,-0.182,-0.021,+3.562,-16.438,-24.312,-6, 2, 5, 7, -13, -8, 4, 4
1503612798176,-0.428,-0.440,+0.483,+0.624,+1.007,-0.177,-0.042,-6.500,-20.938,-17.875,3, 0, 1, 0, -3, 1, 2, -6
1503612798201,-0.430,-0.436,+0.482,+0.626,+0.979,-0.139,-0.075,-15.000,-25.562,-14.688,-8, -2, -4, -6, -5, -2, -1, 0
1503612798221,-0.433,-0.430,+0.482,+0.628,+0.962,-0.100,-0.104,-19.375,-26.750,-17.125,-1, -1, -2, -4, -8, -1, -6, -1
1503612798237,-0.436,-0.424,+0.483,+0.630,+0.949,-0.060,-0.110,-19.062,-25.312,-23.062,-2, -5, -7, -4, -2, -2, -16, 6
1503612798259,-0.439,-0.419,+0.483,+0.631,+0.967,-0.064,-0.123,-14.750,-23.312,-26.250,2, 0, -1, -2, 2, 2, 6, 2
1503612798282,-0.442,-0.414,+0.484,+0.632,+0.978,-0.089,-0.138,-14.312,-21.312,-21.062,-4, -2, 0, 0, -1, -9, -11, -7
1503612798297,-0.444,-0.409,+0.485,+0.633,+0.963,-0.066,-0.153,-18.750,-16.688,-20.250,-5, -2, -1, -7, -18, -3, 1, -1
1503612798319,-0.446,-0.404,+0.487,+0.633,+0.968,-0.002,-0.145,-18.375,-11.625,-22.438,1, -2, -2, 0, 2, 4, -18, 2
1503612798341,-0.448,-0.400,+0.488,+0.633,+1.029,+0.000,-0.173,-14.875,-11.250,-16.688,-3, -4, -3, -3, -7, 0, -4, -3
1503612798356,-0.450,-0.396,+0.489,+0.634,+1.055,-0.004,-0.178,-13.312,-12.125,-9.562,0, 3, 2, 1, -4, -5, 2, -1
1503612798379,-0.451,-0.393,+0.489,+0.635,+1.037,-0.028,-0.176,-10.750,-13.062,-6.312,-7, -6, -4, -2, -4, 1, 1, -6
1503612798402,-0.451,-0.391,+0.488,+0.636,+1.019,-0.046,-0.169,-7.125,-10.375,-6.062,0, 2, -1, -1, -6, 4, 8, 3
1503612798424,-0.452,-0.391,+0.488,+0.636,+0.984,-0.048,-0.172,-3.688,-3.250,-2.812,-1, 1, 0, -1, -8, -2, -7, -1
1503612798440,-0.452,-0.391,+0.489,+0.636,+0.987,-0.061,-0.173,-1.062,+3.500,-0.500,0, -2, -1, -2, -1, 1, -5, -2
1503612798464,-0.451,-0.392,+0.489,+0.635,+1.005,-0.060,-0.170,+0.312,+7.375,-1.250,-2, 0, 3, 7, 26, 2, 7, 3
1503612798476,-0.451,-0.392,+0.490,+0.635,+1.023,-0.076,-0.172,+0.438,+1.938,-0.938,-3, -4, -3, -2, -10, -4, -24, -9
1503612798499,-0.452,-0.392,+0.489,+0.635,+1.034,-0.076,-0.177,-1.062,-6.000,-1.812,-6, -1, -2, -1, 6, 1, 5, 2
1503612798521,-0.453,-0.391,+0.488,+0.636,+0.996,-0.055,-0.182,-1.312,-9.000,-0.375,1, 0, 2, -2, -10, -1, 3, -4
1503612798541,-0.453,-0.390,+0.487,+0.637,+0.967,-0.053,-0.184,-0.875,-9.438,-1.312,0, 0, -3, -1, 5, 4, 4, 0
1503612798559,-0.454,-0.390,+0.486,+0.637,+0.955,-0.064,-0.166,+0.250,-5.938,-1.750,0, -2, -5, -2, 4, 1, -5, -4
1503612798581,-0.454,-0.389,+0.486,+0.637,+0.975,-0.074,-0.155,-0.562,-2.938,-2.438,-1, 0, 0, 0, 1, 2, -6, -2
1503612798601,-0.455,-0.389,+0.486,+0.637,+0.986,-0.056,-0.169,-2.500,-4.062,-3.000,-8, -2, -3, -1, 15, -3, 0, -1
1503612798619,-0.455,-0.388,+0.486,+0.638,+0.979,-0.043,-0.171,-3.375,-5.312,-2.000,0, 2, -1, 2, -4, 1, 9, 1
1503612798641,-0.456,-0.387,+0.485,+0.638,+0.959,-0.040,-0.178,-3.562,-8.438,-3.375,0, 0, 3, 0, -4, -1, -2, -2
1503612798656,-0.457,-0.386,+0.484,+0.639,+0.974,-0.037,-0.198,-2.562,-7.688,-1.875,0, 0, -1, -4, -8, -3, 2, 2
1503612798679,-0.457,-0.385,+0.484,+0.639,+0.979,-0.042,-0.202,-4.125,-5.750,-3.188,-2, 10, 4, -5, -16, -7, -19, -28
1503612798702,-0.458,-0.383,+0.484,+0.640,+0.974,-0.040,-0.172,-5.688,-6.312,-2.875,1, 8, 4, 2, -9, -2, 11, 13
1503612798716,-0.457,-0.382,+0.484,+0.641,+0.984,-0.028,-0.176,-7.625,-5.625,+1.062,3, -2, -1, 1, 0, -2, -9, 2
1503612798739,-0.457,-0.381,+0.484,+0.641,+0.983,-0.004,-0.196,-7.062,-1.562,+2.750,-3, -9, -4, -3, -6, 2, 1, -5
1503612798761,-0.457,-0.381,+0.484,+0.642,+0.986,-0.007,-0.203,-5.250,-2.562,+2.750,5, -2, -5, -1, 0, 1, 3, -5
1503612798778,-0.457,-0.380,+0.484,+0.642,+0.994,-0.016,-0.182,-3.125,-3.688,-0.125,-14, 3, 10, 2, 3, 2, -10, -2
1503612798799,-0.457,-0.380,+0.484,+0.642,+0.998,-0.035,-0.202,-1.438,-5.438,+0.062,2, -1, -1, 0, -8, -8, 0, 0
1503612798822,-0.457,-0.379,+0.483,+0.643,+0.991,-0.039,-0.211,-2.375,-4.188,+2.375,3, 3, 0, -4, -8, -2, -2, -2
1503612798837,-0.457,-0.379,+0.483,+0.643,+0.970,-0.030,-0.197,-3.062,-0.875,+3.938,2, -8, -8, -3, -7, -1, 0, -1
1503612798871,-0.456,-0.379,+0.483,+0.644,+0.978,-0.032,-0.175,-1.875,+0.000,+3.125,-4, -5, -1, -2, 0, 0, -5, -1
1503612798881,-0.456,-0.380,+0.483,+0.643,+0.996,-0.035,-0.188,+0.312,+0.438,+1.188,5, 2, 0, 0, 4, 3, 17, -1
1503612798904,-0.457,-0.380,+0.483,+0.643,+1.002,-0.039,-0.207,+1.938,-1.438,+1.250,-1, 2, 1, 5, 6, -3, -16, -6
1503612798919,-0.457,-0.380,+0.482,+0.644,+0.993,-0.045,-0.206,+1.312,-3.562,+3.062,-3, 5, 3, 0, 7, 2, -5, -4
1503612798942,-0.457,-0.380,+0.481,+0.644,+0.978,-0.055,-0.201,+0.000,-2.375,+3.312,2, 1, 0, -6, -6, -10, -8, -1
1503612798956,-0.456,-0.381,+0.481,+0.644,+0.955,-0.068,-0.187,-1.438,+3.062,+3.500,-1, -9, -3, 0, -2, 1, -9, -11
1503612798979,-0.455,-0.382,+0.482,+0.644,+0.968,-0.063,-0.201,-2.562,+6.062,+5.062,-4, -2, 1, 0, -4, 2, -6, 7
1503612799002,-0.454,-0.382,+0.483,+0.644,+0.994,-0.053,-0.186,-5.375,+6.562,+4.188,-1, -4, -4, -2, 4, 3, 5, 2
1503612799016,-0.453,-0.383,+0.483,+0.644,+1.000,-0.047,-0.173,-5.312,+4.375,+3.875,-2, -1, -1, -3, -5, 0, 4, 2
1503612799046,-0.452,-0.382,+0.483,+0.645,+0.991,-0.038,-0.197,-4.250,-0.688,+4.562,2, 6, 4, 3, -10, 2, 15, -3
1503612799061,-0.452,-0.382,+0.483,+0.646,+0.965,-0.035,-0.212,-2.250,-3.000,+2.562,7, 4, 1, -1, -6, -1, -3, 5
1503612799077,-0.452,-0.382,+0.483,+0.645,+0.951,-0.051,-0.196,-0.312,+1.938,+1.875,2, 0, -4, -3, 13, 2, 4, 4
1503612799099,-0.451,-0.383,+0.483,+0.645,+0.967,-0.072,-0.176,-0.125,+2.500,+1.375,-3, -2, -2, 0, -4, -8, -16, -3
1503612799121,-0.451,-0.383,+0.483,+0.645,+0.984,-0.050,-0.184,-0.188,+4.062,+1.000,7, 13, 4, 3, 0, 0, 1, -4
1503612799137,-0.451,-0.384,+0.483,+0.645,+0.988,-0.043,-0.196,+0.500,+2.750,+3.125,1, -3, 0, -3, -3, -6, -9, -3
1503612799159,-0.451,-0.384,+0.483,+0.645,+0.981,-0.045,-0.208,+1.812,+0.938,+3.125,-6, -5, 0, 2, -1, 1, -7, -2
1503612799181,-0.451,-0.385,+0.482,+0.645,+0.975,-0.056,-0.197,+3.312,+0.000,+1.125,-7, -15, -9, -4, 0, 0, 3, -3
1503612799197,-0.451,-0.385,+0.482,+0.645,+0.982,-0.066,-0.189,+2.000,-1.188,+1.000,-11, 5, 2, 0, 8, 5, 4, 0
1503612799218,-0.452,-0.385,+0.482,+0.645,+0.976,-0.057,-0.183,+0.188,-1.812,+0.625,-4, -13, -4, 2, 5, 3, -8, -11
1503612799243,-0.452,-0.385,+0.481,+0.645,+0.974,-0.048,-0.185,+0.375,-2.250,+2.312,0, -1, 2, 0, -9, -5, 15, 3
1503612799257,-0.452,-0.386,+0.481,+0.645,+0.972,-0.053,-0.191,+0.500,+0.125,+0.750,4, -1, -3, -5, -8, 9, 4, 5
1503612799279,-0.452,-0.386,+0.481,+0.644,+0.967,-0.052,-0.187,+1.938,+1.438,-1.812,1, 5, 2, 1, -1, 1, -4, -1
1503612799303,-0.453,-0.386,+0.481,+0.644,+0.975,-0.057,-0.184,+1.750,+1.312,-3.875,0, 5, 0, -2, 2, -2, -3, 2
1503612799317,-0.453,-0.386,+0.482,+0.643,+0.978,-0.062,-0.174,+0.500,+2.062,-3.250,-2, 1, 3, -2, -3, -3, 14, 7
1503612799339,-0.453,-0.386,+0.482,+0.642,+0.980,-0.056,-0.171,-0.250,+2.125,-3.938,-7, 18, 7, 6, 9, 6, -1, -2
1503612799361,-0.454,-0.386,+0.483,+0.642,+0.986,-0.029,-0.187,-1.312,+2.125,-3.062,2, -8, -4, -2, -6, -8, -13, 4
1503612799377,-0.454,-0.386,+0.483,+0.641,+0.987,-0.022,-0.190,-0.062,+0.375,-2.000,7, -1, -5, -5, -26, -6, -7, -1
1503612799402,-0.455,-0.386,+0.483,+0.641,+0.984,-0.055,-0.185,-0.562,-2.250,-1.875,2, -2, -1, 0, 1, -1, 7, 3
1503612799421,-0.455,-0.385,+0.483,+0.642,+0.992,-0.062,-0.186,-1.500,-3.312,+0.062,1, 0, -5, -5, -2, -7, 0, 4
1503612799438,-0.454,-0.385,+0.482,+0.642,+0.993,-0.055,-0.180,-2.750,-3.938,+3.375,-4, -6, 0, 1, 6, 7, 15, -53
1503612799459,-0.454,-0.385,+0.482,+0.643,+0.991,-0.043,-0.184,-3.125,-4.312,+5.188,4, 0, 1, -2, 0, -3, -5, 17
1503612799481,-0.454,-0.385,+0.481,+0.644,+0.983,-0.041,-0.187,-2.688,-4.812,+4.188,-5, -6, -1, 1, -4, -2, -3, 7
1503612799497,-0.454,-0.385,+0.481,+0.644,+0.972,-0.050,-0.189,-1.062,-4.812,+2.250,-1, 2, 0, 2, 4, 1, -3, 4
1503612799519,-0.454,-0.384,+0.480,+0.645,+0.980,-0.050,-0.194,-0.562,-4.375,-0.812,-1, -19, -8, -4, -9, -4, -18, -3
1503612799541,-0.455,-0.384,+0.480,+0.644,+0.979,-0.057,-0.177,+0.875,-2.125,-2.125,-1, 4, -2, -2, 0, 1, -10, -10
1503612799557,-0.455,-0.384,+0.480,+0.644,+0.972,-0.072,-0.190,+0.812,+0.625,-3.312,-1, -8, -2, -2, 0, -4, 0, 3
1503612799579,-0.455,-0.385,+0.481,+0.643,+0.973,-0.057,-0.187,+0.062,+3.812,-3.750,-4, 8, 1, 1, 5, 4, 0, 2
1503612799604,-0.456,-0.385,+0.481,+0.642,+0.971,-0.046,-0.188,+0.562,+5.938,-3.625,-7, 0, 0, 3, 3, -1, 20, -12
1503612799618,-0.456,-0.385,+0.482,+0.641,+0.975,-0.035,-0.195,+1.125,+6.688,-5.375,1, 3, 1, 0, 5, 3, -5, -5
1503612799640,-0.457,-0.385,+0.483,+0.641,+0.993,-0.042,-0.196,+0.875,+1.938,-3.188,-5, -2, 2, 4, 3, 1, 1, -3
1503612799671,-0.457,-0.385,+0.482,+0.641,+1.010,-0.054,-0.205,-1.250,-2.312,+0.000,2, -2, 0, -3, -6, -3, 3, -1
1503612799679,-0.457,-0.384,+0.482,+0.642,+0.998,-0.051,-0.198,-3.000,-5.812,+3.938,-16, 25, 13, 5, 7, -2, -19, -2
1503612799699,-0.456,-0.384,+0.480,+0.643,+0.982,-0.045,-0.193,-2.938,-7.938,+6.250,-5, 2, -2, 0, 4, -2, -2, -4
1503612799721,-0.456,-0.384,+0.479,+0.644,+0.989,-0.044,-0.200,-0.875,-9.125,+6.688,1, -8, -5, -1, 4, -1, 4, 2
1503612799737,-0.456,-0.384,+0.478,+0.645,+0.988,-0.061,-0.208,+0.000,-7.812,+4.812,-1, -4, -3, -4, -6, 2, 7, -5
1503612799759,-0.456,-0.384,+0.477,+0.646,+0.981,-0.063,-0.205,-1.625,-5.875,+2.625,0, -3, -3, -3, -1, 0, 7, 0
1503612799781,-0.456,-0.384,+0.477,+0.646,+0.976,-0.052,-0.193,-0.250,-1.625,+1.500,-1, -15, -7, -2, 2, 1, 5, 5
1503612799797,-0.457,-0.384,+0.477,+0.646,+0.964,-0.043,-0.202,+1.688,+1.875,+1.125,4, 5, 0, 0, -5, -1, 1, 0
1503612799819,-0.457,-0.385,+0.477,+0.645,+0.965,-0.042,-0.195,+2.562,+4.000,-0.500,-1, -2, -3, 0, -5, -3, 0, -4
1503612799841,-0.457,-0.385,+0.477,+0.644,+0.985,-0.041,-0.195,+3.438,+2.812,-2.875,1, 2, 1, -1, -3, 3, -4, -1
1503612799857,-0.458,-0.385,+0.477,+0.644,+0.993,-0.049,-0.208,+3.438,-0.438,-2.375,4, 5, 1, 0, -2, -1, -5, -3
1503612799879,-0.459,-0.385,+0.477,+0.643,+0.982,-0.054,-0.208,+2.250,-0.062,-1.312,-7, -3, -3, -1, -1, -5, 0, -40
1503612799906,-0.459,-0.386,+0.477,+0.643,+0.965,-0.048,-0.199,+1.688,+1.438,-0.938,0, -2, 0, -2, 0, -13, -6, 4
1503612799917,-0.459,-0.386,+0.477,+0.643,+0.971,-0.054,-0.184,+2.312,+1.062,+0.688,0, 1, 0, -1, -3, 18, 7, 14
1503612799939,-0.459,-0.387,+0.476,+0.642,+0.993,-0.055,-0.194,+2.688,-0.062,+1.438,1, 0, 1, 0, 2, -4, -3, 7
1503612799961,-0.459,-0.387,+0.476,+0.643,+0.995,-0.066,-0.204,+2.375,-2.688,+2.688,6, -4, -4, -1, 0, -6, -5, -19
1503612799977,-0.459,-0.388,+0.475,+0.643,+0.979,-0.061,-0.209,+2.125,-3.438,+3.812,-1, 3, 2, 0, 0, 2, -5, 21
1503612799999,-0.459,-0.388,+0.474,+0.643,+0.975,-0.060,-0.208,+1.438,-1.938,+3.125,1, 0, -2, 0, -3, -4, 1, 0
1503612800021,-0.459,-0.389,+0.473,+0.643,+0.974,-0.063,-0.196,+1.625,-1.188,+2.750,-6, -6, -1, -1, -3, -1, -6, -3
1503612800040,-0.460,-0.389,+0.473,+0.643,+0.981,-0.050,-0.206,+2.125,+0.688,+0.938,3, 4, 1, -2, -8, -3, 4, 56
1503612800059,-0.460,-0.389,+0.473,+0.643,+0.975,-0.050,-0.193,+2.438,-0.438,-0.250,-3, -3, -3, -2, 1, -3, -6, -6
1503612800081,-0.460,-0.389,+0.473,+0.643,+0.961,-0.052,-0.196,+1.938,-0.562,-0.250,-12, -6, -2, 0, 0, 6, 6, -14
1503612800097,-0.461,-0.390,+0.473,+0.642,+0.957,-0.054,-0.198,+2.000,+0.500,-0.875,-3, -2, 1, -3, -1, -1, 19, -16
1503612800119,-0.461,-0.390,+0.473,+0.642,+0.964,-0.054,-0.206,+2.562,+2.875,-2.250,2, 1, 1, 0, -1, 4, -1, 5
1503612800149,-0.462,-0.390,+0.473,+0.641,+0.973,-0.056,-0.203,+2.500,+2.625,-3.250,-7, -11, -4, -2, -1, 0, 1, -12
1503612800159,-0.462,-0.391,+0.473,+0.640,+0.971,-0.060,-0.193,+2.250,+2.312,-3.125,-10, 4, 3, 1, 5, -4, -5, -7
1503612800182,-0.463,-0.391,+0.474,+0.639,+0.966,-0.050,-0.208,+1.938,+3.062,-3.688,-2, 1, -1, -1, -7, -3, 1, 4
1503612800201,-0.463,-0.391,+0.474,+0.639,+0.976,-0.051,-0.187,+1.000,+3.188,-2.625,3, -5, -4, -1, -1, -2, 3, 32
1503612800217,-0.463,-0.391,+0.474,+0.638,+0.991,-0.062,-0.186,+0.000,+3.438,-0.625,-1, 0, -2, -3, 4, 1, -3, -1
1503612800240,-0.463,-0.392,+0.475,+0.638,+0.989,-0.044,-0.194,+0.062,+4.250,-1.938,4, 3, 0, 4, 15, 4, -1, -5
1503612800262,-0.463,-0.392,+0.475,+0.637,+1.007,-0.030,-0.199,+0.938,+2.250,+1.312,-3, -7, -1, 1, -7, -2, -5, -14
1503612800278,-0.462,-0.393,+0.475,+0.638,+1.022,-0.041,-0.199,-0.625,-0.062,+8.000,-5, 3, -2, -4, -4, -2, -8, -6
1503612800299,-0.461,-0.394,+0.474,+0.639,+1.011,-0.045,-0.209,-0.875,+2.125,+15.312,3, 3, 1, 0, 0, -2, -2, -4
1503612800321,-0.458,-0.396,+0.474,+0.639,+0.979,-0.050,-0.210,+0.438,+11.688,+19.625,0, 3, 2, 0, -7, -6, -2, -1
1503612800344,-0.455,-0.400,+0.474,+0.639,+0.981,-0.078,-0.186,+3.375,+16.750,+22.125,2, 3, -2, -3, -3, -1, 4, -5
1503612800359,-0.452,-0.404,+0.474,+0.639,+1.005,-0.098,-0.170,+5.000,+23.125,+21.000,-13, 1, 0, -2, 2, -4, -7, -8
1503612800381,-0.449,-0.408,+0.475,+0.638,+1.009,-0.080,-0.158,+7.000,+20.000,+16.250,-6, -2, -2, -1, -1, -1, -1, -4
1503612800406,-0.448,-0.411,+0.475,+0.637,+1.031,-0.061,-0.180,+9.312,+15.000,+15.625,6, 8, 5, -2, 1, -1, -3, -5
1503612800419,-0.446,-0.415,+0.474,+0.636,+0.976,-0.083,-0.186,+10.562,+14.500,+18.562,-1, -4, -3, -4, -2, -2, -6, 0
1503612800442,-0.444,-0.418,+0.473,+0.636,+0.964,-0.131,-0.130,+10.250,+9.438,+17.312,-12, 0, 0, 1, 3, -1, -3, -7
1503612800464,-0.443,-0.421,+0.472,+0.636,+1.039,-0.138,-0.134,+8.250,+5.062,+12.875,3, -1, 0, 1, -2, -3, 2, -5
1503612800480,-0.442,-0.422,+0.470,+0.636,+0.992,-0.127,-0.152,+7.188,-4.688,+10.188,3, -2, -4, -3, -4, -2, 3, 10
1503612800501,-0.443,-0.423,+0.468,+0.637,+0.942,-0.150,-0.140,+4.188,-11.750,+5.312,2, 5, -1, 1, 1, 2, -1, 2
1503612800526,-0.443,-0.423,+0.467,+0.638,+0.938,-0.128,-0.138,+1.125,-8.375,+2.688,-2, 6, 2, 2, 2, -1, 0, 3
1503612800541,-0.443,-0.423,+0.466,+0.638,+0.914,-0.146,-0.146,-0.750,-2.375,+3.750,-3, -10, -8, -4, -2, -5, -6, -10
1503612800561,-0.441,-0.424,+0.467,+0.638,+0.934,-0.148,-0.138,-4.375,+8.312,+3.062,-1, -6, -1, -1, 7, 6, -3, -11
1503612800578,-0.440,-0.425,+0.469,+0.637,+0.961,-0.125,-0.131,-5.500,+16.062,-1.188,5, 5, 1, -2, -4, -3, -3, -28
1503612800599,-0.439,-0.425,+0.472,+0.635,+0.988,-0.113,-0.100,-4.500,+14.312,-6.000,0, -4, -2, 1, 0, 0, 1, 13
1503612800621,-0.440,-0.424,+0.473,+0.635,+1.007,-0.085,-0.138,-4.875,+2.750,-9.438,-6, -3, -1, 0, 1, 0, 7, 4
1503612800637,-0.441,-0.422,+0.473,+0.635,+0.993,-0.053,-0.171,-4.875,-5.625,-5.938,2, -2, -1, -2, -5, -2, -6, -3
1503612800659,-0.442,-0.420,+0.473,+0.636,+0.972,-0.071,-0.175,-6.188,-11.188,-1.250,3, -2, -1, 0, -10, -2, 3, 6
1503612800682,-0.442,-0.419,+0.472,+0.637,+0.989,-0.108,-0.168,-7.188,-11.938,+1.500,-1, 0, 0, 1, 5, -1, -3, -1
1503612800697,-0.443,-0.417,+0.471,+0.639,+0.997,-0.120,-0.144,-7.188,-14.625,+1.188,-1, -6, -1, -2, -2, -2, 0, 11
1503612800719,-0.444,-0.415,+0.469,+0.641,+0.985,-0.127,-0.127,-7.312,-19.500,-1.375,-1, -2, 0, -2, -4, -1, -2, -5
1503612800742,-0.445,-0.413,+0.468,+0.643,+1.003,-0.134,-0.130,-7.250,-25.250,-6.062,7, -1, 0, -2, 0, -4, 1, 4
1503612800764,-0.448,-0.409,+0.466,+0.644,+0.992,-0.123,-0.165,-6.312,-27.688,-10.312,-4, 1, 2, 1, 0, 0, -1, -8
1503612800779,-0.450,-0.406,+0.464,+0.646,+0.953,-0.103,-0.200,-6.188,-24.688,-12.250,3, -2, 0, 1, -1, 2, 3, 34
1503612800801,-0.452,-0.403,+0.463,+0.647,+0.924,-0.092,-0.201,-6.562,-16.812,-10.625,-6, 7, 1, 0, -2, 0, 6, -2
1503612800823,-0.454,-0.401,+0.464,+0.647,+0.956,-0.080,-0.197,-5.312,-6.500,-8.000,-2, 1, -3, -3, -11, -3, -3, -17
1503612800841,-0.454,-0.400,+0.464,+0.646,+1.008,-0.070,-0.200,-4.000,-1.625,-7.750,-2, -4, -3, -2, 2, -1, 12, -4
1503612800861,-0.456,-0.399,+0.465,+0.646,+1.039,-0.065,-0.201,-2.812,-6.250,-7.750,1, 11, 0, 0, -2, -3, -7, -9
1503612800884,-0.457,-0.397,+0.464,+0.647,+1.035,-0.042,-0.222,+0.062,-13.625,-4.062,1, -5, 0, 0, 2, 0, -3, -7
1503612800899,-0.459,-0.396,+0.462,+0.647,+1.002,-0.060,-0.230,+3.750,-13.750,+2.000,0, 3, -3, 0, 2, 1, 0, -2
1503612800922,-0.460,-0.397,+0.459,+0.648,+0.984,-0.074,-0.233,+7.500,-11.125,+4.875,-5, -6, 0, 3, 6, 3, 4, -12
1503612800937,-0.461,-0.398,+0.457,+0.648,+1.019,-0.061,-0.238,+12.062,-9.188,+7.062,-3, 5, 4, 0, -1, 0, -8, 8
1503612800960,-0.462,-0.399,+0.454,+0.649,+1.034,-0.066,-0.243,+14.875,-9.875,+8.438,-1, 3, 1, -1, 3, 0, -5, -5
1503612800982,-0.464,-0.401,+0.451,+0.649,+1.021,-0.069,-0.250,+17.938,-11.938,+11.750,0, -3, 0, -1, 1, 0, 14, -4
1503612801004,-0.464,-0.404,+0.447,+0.650,+1.002,-0.078,-0.272,+22.688,-8.500,+17.875,-1, -3, -6, -1, 8, 0, -6, 0
1503612801020,-0.464,-0.408,+0.443,+0.649,+1.007,-0.097,-0.251,+25.375,+0.125,+23.188,-2, 2, 0, -2, -7, -3, -3, -11
1503612801044,-0.464,-0.413,+0.439,+0.649,+1.017,-0.104,-0.232,+28.750,+0.688,+23.500,3, -1, 1, 2, 4, 0, -1, 4
1503612801063,-0.464,-0.418,+0.436,+0.648,+1.030,-0.128,-0.219,+30.750,-0.938,+21.500,-5, -2, -1, -3, -9, 0, 12, -7
1503612801080,-0.464,-0.423,+0.431,+0.648,+1.019,-0.138,-0.226,+32.312,-3.812,+21.188,5, 1, 0, 0, 1, 0, -11, 2
1503612801102,-0.464,-0.428,+0.426,+0.647,+1.004,-0.146,-0.243,+33.312,-2.812,+24.000,-5, 0, 0, 0, -4, -1, -6, 5
1503612801131,-0.464,-0.434,+0.422,+0.647,+0.976,-0.147,-0.256,+35.625,+2.438,+27.688,-1, -6, -2, -3, -9, -4, -4, 2
1503612804183,-0.541,-0.464,+0.403,+0.574,+0.928,-0.054,-0.192,-14.062,+1.875,+0.938,3, -5, -5, -2, -2, -1, -1, -11
1503612804206,-0.540,-0.464,+0.405,+0.573,+0.967,-0.082,-0.201,-11.312,+11.000,-3.312,-7, -6, -1, -2, 0, -1, -1, -6
1503612804221,-0.539,-0.463,+0.407,+0.573,+1.010,-0.099,-0.229,-8.188,+10.000,-4.375,0, 1, -1, -1, 1, 0, 3, 3
1503612804243,-0.540,-0.463,+0.408,+0.573,+1.000,-0.092,-0.217,-6.562,+2.375,-7.125,20, 0, -1, -2, -2, 0, 2, -4
1503612804266,-0.541,-0.461,+0.409,+0.572,+0.961,-0.065,-0.222,-3.688,-1.875,-9.875,-16, -7, -1, -1, -2, -1, 1, 3
1503612804281,-0.542,-0.460,+0.409,+0.572,+0.922,-0.075,-0.229,+0.125,-0.500,-8.812,-25, 10, 6, -1, 1, -2, 0, -3
1503612804304,-0.542,-0.460,+0.410,+0.571,+0.930,-0.089,-0.217,+0.438,+7.000,-6.438,-10, -1, -2, -2, -3, -4, -6, -9
1503612804328,-0.542,-0.462,+0.411,+0.570,+0.955,-0.084,-0.209,-0.500,+15.438,-1.875,6, -14, -5, -2, -1, 1, -3, 11
1503612804341,-0.540,-0.464,+0.413,+0.569,+0.983,-0.072,-0.183,-2.812,+20.125,+3.125,-7, -24, -9, -2, -2, -3, -4, -9
1503612804365,-0.537,-0.466,+0.415,+0.568,+1.006,-0.085,-0.161,-4.812,+18.938,+9.250,-2, -1, -1, 0, -1, -1, -3, 16
1503612804386,-0.534,-0.468,+0.416,+0.569,+1.049,-0.106,-0.145,-7.250,+16.000,+11.625,2, 8, 3, -1, 0, 4, 7, -14
1503612804402,-0.532,-0.469,+0.416,+0.569,+1.039,-0.119,-0.202,-3.438,+8.812,+12.188,-13, -2, -4, -5, -3, 0, -3, -67
1503612804423,-0.530,-0.471,+0.415,+0.570,+1.012,-0.135,-0.176,+0.000,+2.688,+11.750,-5, 7, 0, 0, -2, 0, 6, 25
1503612804446,-0.530,-0.471,+0.414,+0.571,+0.990,-0.130,-0.151,+1.875,-3.562,+2.125,4, 24, 11, 3, -3, 0, 7, -1
1503612804463,-0.532,-0.471,+0.413,+0.570,+0.962,-0.121,-0.170,+7.000,-7.688,-7.625,-12, -8, -6, -2, -2, 0, -10, -38
1503612804483,-0.535,-0.470,+0.411,+0.569,+0.925,-0.126,-0.190,+10.375,-6.500,-12.750,-6, 3, -2, -2, 2, -1, 1, -27
1503612804506,-0.537,-0.471,+0.411,+0.567,+0.929,-0.121,-0.181,+10.625,+1.500,-16.625,-1, -5, 2, 1, 1, 1, 3, 3
1503612804521,-0.539,-0.471,+0.412,+0.564,+0.967,-0.090,-0.146,+10.938,+3.812,-18.688,1, -8, -8, -2, -1, -2, -4, 6
1503612804543,-0.542,-0.471,+0.413,+0.561,+1.011,-0.076,-0.152,+10.812,-1.625,-18.375,2, 7, 3, -1, -1, -2, 1, -3
1503612804567,-0.545,-0.469,+0.412,+0.560,+1.008,-0.049,-0.174,+6.562,-11.875,-12.500,7, -3, -3, 0, -3, -2, 0, 20
1503612804581,-0.547,-0.468,+0.411,+0.560,+0.987,-0.042,-0.177,+1.562,-18.062,-3.062,-1, -5, -2, -3, -2, 0, -4, 5
1503612804603,-0.547,-0.466,+0.409,+0.562,+0.971,-0.059,-0.148,-2.375,-17.312,+5.125,7, -7, 2, 0, 1, 1, 5, 0
1503612804628,-0.547,-0.465,+0.407,+0.564,+1.011,-0.074,-0.174,-4.750,-14.875,+10.812,-7, 6, -1, 0, -1, 0, -2, -2
1503612804641,-0.547,-0.464,+0.405,+0.567,+1.007,-0.061,-0.183,-8.688,-15.688,+13.812,28, 0, -4, 0, -1, -2, 7, 12
1503612804664,-0.546,-0.462,+0.404,+0.570,+0.985,-0.057,-0.162,-12.688,-20.000,+12.312,-5, 14, 3, 0, -1, -1, -1, -2
1503612804686,-0.546,-0.460,+0.403,+0.573,+0.969,-0.062,-0.164,-15.188,-18.688,+10.812,6, -1, -1, -1, 2, -2, 1, 0
1503612804705,-0.545,-0.458,+0.402,+0.576,+0.968,-0.055,-0.187,-15.125,-14.375,+12.375,-14, -17, -7, -1, -1, -1, -2, -6
1503612804723,-0.544,-0.456,+0.403,+0.578,+0.972,-0.041,-0.201,-16.250,-7.938,+8.625,3, 4, -4, -2, -1, -1, -2, 6
1503612804746,-0.542,-0.455,+0.404,+0.579,+0.971,-0.050,-0.213,-14.312,-0.188,+4.625,-16, -7, -2, 0, 0, -1, -2, -4
1503612804776,-0.541,-0.454,+0.405,+0.580,+0.975,-0.071,-0.199,-11.625,+6.125,+0.000,-6, -1, -2, -2, -1, -2, -19, -20
1503612804791,-0.541,-0.454,+0.407,+0.579,+0.987,-0.066,-0.210,-7.562,+9.125,-4.750,-5, 3, 1, 0, 6, 1, 12, 2
1503612804806,-0.541,-0.454,+0.409,+0.578,+0.984,-0.059,-0.236,-3.375,+9.750,-5.750,4, 0, 1, 1, 0, -4, -2, 2
1503612804822,-0.541,-0.454,+0.410,+0.577,+0.974,-0.056,-0.233,-1.062,+6.875,-7.812,-19, -3, -1, -1, -2, -1, 3, 6
1503612804843,-0.542,-0.453,+0.411,+0.576,+0.977,-0.067,-0.214,+0.812,+0.875,-7.688,-6, -5, -1, -2, -5, -3, -5, -15
1503612804866,-0.543,-0.453,+0.410,+0.576,+0.993,-0.089,-0.220,-0.375,-5.375,-2.938,-1, 0, -1, -3, -4, 1, -3, 2
1503612804882,-0.543,-0.452,+0.409,+0.577,+0.980,-0.085,-0.221,-4.625,-10.375,+2.000,28, 5, 1, -2, 0, -1, 3, 6
1503612804906,-0.543,-0.450,+0.408,+0.579,+0.952,-0.079,-0.207,-7.875,-12.812,+5.062,-6, -1, 1, -1, 0, -1, -8, -6
1503612804926,-0.543,-0.449,+0.407,+0.581,+0.943,-0.084,-0.208,-8.562,-10.000,+6.750,-3, 0, 3, 2, -1, 1, 2, 3
1503612804942,-0.542,-0.449,+0.407,+0.583,+0.951,-0.096,-0.207,-6.938,-3.188,+7.188,-14, -6, -4, -2, -1, -3, -4, 5
1503612804964,-0.541,-0.449,+0.406,+0.584,+1.012,-0.099,-0.218,-4.062,-1.062,+8.500,-4, 37, 10, 1, -1, 1, 0, -3
1503612804986,-0.540,-0.449,+0.406,+0.585,+1.032,-0.089,-0.220,-4.688,-6.062,+6.312,1, -2, 3, 1, -2, 0, -1, -6
1503612805002,-0.541,-0.447,+0.404,+0.586,+0.988,-0.076,-0.228,-5.000,-14.875,+3.500,3, -10, 0, 0, -1, -2, 3, 4
1503612805023,-0.542,-0.446,+0.403,+0.588,+0.932,-0.069,-0.242,-3.438,-13.250,+1.812,6, -4, -6, -4, 1, -1, -2, -9
1503612805046,-0.542,-0.445,+0.403,+0.588,+0.909,-0.082,-0.235,-1.375,-4.188,-1.438,17, -13, -6, -2, 0, 1, -1, -1
1503612805065,-0.542,-0.446,+0.403,+0.587,+0.942,-0.075,-0.231,-0.438,+6.250,-1.250,-1, 4, 0, -2, -1, -1, -1, 6
1503612805083,-0.542,-0.446,+0.404,+0.587,+0.973,-0.066,-0.239,-0.062,+9.438,-0.938,-12, 4, 4, -1, -4, -3, -9, -53
1503612805106,-0.542,-0.447,+0.405,+0.586,+0.980,-0.054,-0.224,+0.000,+5.250,-2.688,-7, 15, 0, 1, -5, 3, 4, -14
1503612805122,-0.543,-0.446,+0.405,+0.585,+0.968,-0.054,-0.225,+0.875,-1.125,-3.938,-23, -14, -7, -5, 0, -3, -8, 5
1503612805143,-0.543,-0.446,+0.405,+0.585,+0.950,-0.075,-0.251,+3.188,-1.938,-2.000,2, -10, -2, -2, 1, 1, 0, -11
1503612805166,-0.543,-0.447,+0.404,+0.584,+0.926,-0.085,-0.232,+1.938,+4.062,-0.438,10, 3, -2, 1, 1, -1, 1, 2
1503612805182,-0.543,-0.448,+0.405,+0.583,+0.925,-0.083,-0.210,+0.500,+11.562,-0.812,1, -5, 1, 0, 2, -3, -6, -4
1503612805204,-0.541,-0.450,+0.407,+0.582,+0.971,-0.087,-0.196,+0.062,+16.875,+2.062,12, 4, -2, -2, 1, -2, -3, 6
1503612805226,-0.539,-0.452,+0.408,+0.582,+1.035,-0.090,-0.208,-0.688,+16.125,+6.062,3, 1, 3, 2, 0, 1, -1, 9
1503612805242,-0.538,-0.453,+0.408,+0.582,+1.077,-0.093,-0.193,-0.625,+6.312,+7.500,4, 3, -2, -3, 0, 4, 4, 16
1503612805266,-0.537,-0.453,+0.407,+0.583,+1.048,-0.085,-0.205,-2.750,-7.812,+8.375,-3, -1, 1, 0, -1, -2, -3, 3
1503612805286,-0.537,-0.452,+0.406,+0.585,+0.958,-0.084,-0.196,-5.062,-14.312,+9.062,-4, -8, -4, -2, -5, -2, -2, -8
1503612805302,-0.537,-0.452,+0.405,+0.587,+0.903,-0.091,-0.200,-6.875,-6.188,+8.812,-2, -2, 0, 1, 0, -1, -4, -5
1503612805323,-0.535,-0.452,+0.406,+0.587,+0.916,-0.091,-0.198,-7.938,+8.500,+8.875,6, 4, 0, 1, -1, 0, 5, 34
1503612805346,-0.532,-0.454,+0.407,+0.587,+0.968,-0.097,-0.198,-7.938,+18.875,+9.812,10, -1, -4, -2, 3, -1, -5, -12
1503612805362,-0.529,-0.456,+0.410,+0.587,+1.010,-0.082,-0.209,-6.562,+19.875,+6.750,-9, -9, -3, -3, -3, -2, -3, -4
1503612805383,-0.528,-0.457,+0.411,+0.586,+1.006,-0.079,-0.199,-3.188,+15.062,+1.938,-6, -4, -2, 1, -1, -4, -5, -9
1503612805406,-0.528,-0.457,+0.412,+0.585,+0.959,-0.070,-0.206,-0.250,+6.875,-3.000,-3, -4, -2, 0, 6, -1, 2, -4
1503612805422,-0.529,-0.457,+0.413,+0.584,+0.930,-0.076,-0.206,+2.562,+5.312,-6.250,2, 2, -1, -1, 1, -2, 2, 3
1503612805443,-0.529,-0.459,+0.414,+0.582,+0.926,-0.097,-0.217,+4.438,+13.625,-4.750,-1, 0, 1, 0, -2, -2, 2, -8
1503612805466,-0.528,-0.461,+0.415,+0.581,+0.950,-0.103,-0.215,+5.688,+21.750,-2.125,0, 1, -2, 2, 10, -1, -6, 0
1503612805481,-0.527,-0.463,+0.417,+0.578,+0.983,-0.098,-0.188,+5.625,+19.125,-5.125,-1, 1, -1, -4, -6, -4, 2, 2
1503612805504,-0.527,-0.464,+0.417,+0.576,+0.980,-0.093,-0.186,+8.750,+12.812,-5.625,19, -2, 0, 1, 3, 3, 4, 4
1503612805526,-0.528,-0.466,+0.417,+0.574,+0.960,-0.104,-0.187,+11.062,+10.688,-5.812,-1, 0, 1, -1, -3, -6, -20, -14
1503612805542,-0.529,-0.468,+0.418,+0.572,+0.963,-0.104,-0.177,+10.375,+11.812,-7.562,-1, -1, 0, -2, -3, -2, -1, 4
1503612805568,-0.529,-0.469,+0.419,+0.569,+0.991,-0.112,-0.154,+9.062,+11.938,-8.750,-5, -2, -2, 1, 2, 2, 3, 3
1503612805586,-0.530,-0.470,+0.419,+0.567,+1.038,-0.091,-0.150,+10.000,+4.938,-8.500,-5, -4, 0, -1, -1, -1, -6, -14
1503612805602,-0.533,-0.471,+0.418,+0.566,+1.027,-0.082,-0.159,+11.500,-5.938,-8.750,-5, 1, 0, 1, -1, 3, 2, -9
1503612805624,-0.535,-0.470,+0.416,+0.565,+0.970,-0.083,-0.168,+11.688,-11.125,-7.625,0, -3, -2, -1, -1, 0, 1, 5
1503612805646,-0.537,-0.470,+0.415,+0.564,+0.962,-0.087,-0.152,+11.250,-9.062,-5.812,-17, 14, 7, 2, 0, 3, 6, 1
1503612805662,-0.539,-0.471,+0.414,+0.563,+1.018,-0.089,-0.138,+9.625,-7.125,-3.438,9, -4, -1, -1, -3, 0, 1, 22
1503612805684,-0.540,-0.471,+0.412,+0.563,+1.037,-0.098,-0.146,+6.812,-7.812,-1.438,-3, -13, -8, -2, 6, 7, -1, 19
1503612805708,-0.541,-0.470,+0.411,+0.563,+0.999,-0.083,-0.146,+4.562,-10.625,-3.875,3, -3, -1, -2, -1, -5, -5, 19
1503612805722,-0.543,-0.470,+0.411,+0.562,+0.962,-0.056,-0.135,+2.562,-10.125,-5.938,7, -5, -3, 0, -2, -4, -7, -34
1503612805744,-0.544,-0.469,+0.411,+0.562,+0.974,-0.044,-0.131,+1.875,-6.938,-3.188,4, -4, -2, -1, -2, -4, 3, 6
1503612805777,-0.544,-0.469,+0.410,+0.562,+1.015,-0.045,-0.168,-1.750,-4.562,+4.750,-2, 8, 4, -1, -11, -3, -5, -15
1503612805782,-0.543,-0.468,+0.410,+0.564,+1.027,-0.052,-0.141,-8.875,-6.250,+9.938,6, -4, 2, 2, -3, -6, -1, -21
1503612805804,-0.542,-0.467,+0.410,+0.566,+0.984,-0.044,-0.128,-13.875,-9.938,+9.062,-9, 0, -1, -1, 3, 4, 3, -16
1503612805826,-0.541,-0.465,+0.410,+0.568,+0.984,-0.040,-0.158,-13.750,-10.750,+10.312,-5, 2, 1, -1, 0, -1, 4, 8
1503612805843,-0.539,-0.464,+0.409,+0.571,+1.011,-0.051,-0.185,-15.438,-9.812,+15.938,-2, -2, -3, -2, -3, -1, -2, 3
1503612805868,-0.537,-0.462,+0.409,+0.574,+1.005,-0.056,-0.149,-18.750,-11.000,+15.188,7, 4, 0, 0, -3, -1, 6, 11
1503612805886,-0.536,-0.460,+0.409,+0.577,+0.973,-0.059,-0.160,-18.312,-12.750,+10.125,0, -5, -1, 2, -2, -3, -11, 13
1503612805907,-0.535,-0.458,+0.409,+0.580,+0.972,-0.075,-0.193,-15.875,-10.250,+7.750,-5, -1, 2, 3, 1, 3, 9, -2
1503612805924,-0.534,-0.457,+0.410,+0.581,+0.977,-0.094,-0.203,-15.562,-4.625,+2.812,-4, 14, 7, 1, -2, -5, -3, -15
1503612805946,-0.534,-0.455,+0.411,+0.582,+0.986,-0.088,-0.191,-14.250,-3.250,-1.812,-8, -32, -14, -5, -3, -1, -4, 7
1503612805962,-0.534,-0.453,+0.411,+0.583,+0.982,-0.079,-0.220,-11.188,-6.000,-3.438,6, -13, -7, -4, 2, 1, 4, 1
1503612805984,-0.535,-0.451,+0.411,+0.584,+0.970,-0.081,-0.233,-9.875,-8.438,-5.125,-7, 1, -1, -2, -2, -1, 1, 5
1503612806006,-0.536,-0.449,+0.412,+0.585,+0.958,-0.090,-0.232,-9.875,-9.438,-6.938,15, 6, 0, -1, 2, 1, 0, -3
1503612806022,-0.537,-0.447,+0.411,+0.586,+0.953,-0.085,-0.249,-6.500,-9.750,-4.062,-4, 1, -1, 0, -5, 1, 1, 10
1503612806045,-0.538,-0.445,+0.410,+0.587,+0.957,-0.083,-0.261,-5.000,-9.625,-2.562,-3, 8, 3, 1, -2, -3, -2, 9
1503612806069,-0.538,-0.443,+0.409,+0.588,+0.956,-0.085,-0.249,-5.750,-11.438,-1.562,5, -9, -4, -1, -5, -3, -8, 5
1503612806082,-0.539,-0.442,+0.408,+0.590,+0.942,-0.090,-0.237,-5.375,-11.625,+1.000,16, -6, -4, 0, -1, -2, 0, 10
1503612806104,-0.539,-0.441,+0.408,+0.591,+0.950,-0.091,-0.235,-5.000,-7.375,+1.438,-5, 4, 1, -3, -4, 0, 0, -7
1503612806126,-0.539,-0.441,+0.407,+0.591,+0.958,-0.093,-0.252,-2.188,-3.375,+3.625,2, 3, -1, -2, 1, 0, -3, 1
1503612806148,-0.539,-0.441,+0.406,+0.592,+0.996,-0.093,-0.251,+0.062,-3.062,+4.688,-3, 2, -2, -1, 2, 3, 3, -3
1503612806164,-0.539,-0.441,+0.405,+0.593,+0.999,-0.090,-0.242,+1.125,-5.500,+4.188,-7, 2, 1, -1, -3, -5, -7, -7
1503612806186,-0.539,-0.440,+0.404,+0.593,+0.977,-0.091,-0.232,+0.750,-9.438,+3.000,-2, 2, -1, 0, -5, -3, -1, -1
1503612806203,-0.540,-0.440,+0.402,+0.594,+0.967,-0.088,-0.238,+2.125,-8.875,+3.688,-16, -1, -2, -3, 0, -2, -5, -5
1503612806225,-0.540,-0.441,+0.401,+0.595,+0.964,-0.084,-0.238,+2.938,-5.062,+5.625,1, 2, 2, -1, 1, 3, 5, 0
1503612806246,-0.540,-0.441,+0.400,+0.595,+0.973,-0.077,-0.251,+2.625,-3.688,+6.688,0, -3, 0, 2, 4, 3, 0, -10
1503612806262,-0.540,-0.442,+0.398,+0.596,+0.997,-0.090,-0.249,+3.562,-2.000,+9.000,8, 1, 2, -3, 0, -2, -1, -1
1503612806284,-0.539,-0.443,+0.397,+0.596,+0.995,-0.091,-0.234,+3.312,-4.125,+9.375,-8, 8, 2, 2, 0, 0, -1, -1
1503612806307,-0.539,-0.443,+0.396,+0.597,+0.986,-0.086,-0.230,+3.688,-5.938,+9.625,-5, 0, -1, 0, -1, -1, 2, -3
1503612806322,-0.539,-0.444,+0.394,+0.598,+0.967,-0.082,-0.237,+4.312,-5.750,+9.875,-1, 0, 1, 0, 0, -1, -3, -1
1503612806344,-0.539,-0.445,+0.392,+0.598,+0.956,-0.092,-0.250,+5.750,-2.438,+10.938,9, 1, 0, 0, -1, 0, -1, -8
1503612806366,-0.538,-0.447,+0.391,+0.599,+0.969,-0.102,-0.251,+6.062,+3.188,+11.312,-8, 7, 2, 0, -2, -3, 5, 9
1503612806382,-0.537,-0.448,+0.390,+0.599,+0.995,-0.104,-0.234,+4.812,+2.688,+10.000,16, -6, -4, -1, 0, 1, -2, 11
1503612806405,-0.536,-0.450,+0.389,+0.599,+0.983,-0.108,-0.224,+4.500,-0.750,+9.938,-19, -2, -2, -1, 4, 2, 5, 2
1503612806426,-0.536,-0.450,+0.388,+0.600,+0.958,-0.107,-0.232,+4.000,-2.688,+9.500,-4, -4, 0, 0, 0, 0, 2, 1
1503612806442,-0.535,-0.451,+0.387,+0.600,+0.961,-0.110,-0.258,+3.375,-1.562,+10.562,-3, 1, 1, 1, 2, 0, -3, 1
1503612806464,-0.534,-0.452,+0.385,+0.601,+0.966,-0.119,-0.261,+3.375,+0.875,+12.250,4, 1, 1, 1, 1, -1, 7, 2
1503612806486,-0.534,-0.454,+0.385,+0.601,+0.953,-0.121,-0.233,+2.812,+1.688,+10.562,-15, -1, -3, -3, -1, -3, 6, -22
1503612806504,-0.533,-0.455,+0.384,+0.602,+0.957,-0.125,-0.234,+2.375,+2.000,+10.875,2, -3, -2, -1, -1, 0, 2, -4
1503612806524,-0.531,-0.456,+0.383,+0.603,+0.947,-0.129,-0.238,+1.688,+1.500,+11.562,-3, -11, -5, -3, -2, 0, 0, 6
1503612806547,-0.530,-0.457,+0.382,+0.603,+0.944,-0.139,-0.231,+0.812,+0.625,+10.500,7, 2, 4, 1, 0, -2, 1, -6
1503612806572,-0.530,-0.457,+0.381,+0.604,+0.935,-0.141,-0.251,+0.750,-2.875,+7.500,-4, -2, -1, -3, -3, -5, -5, -4
1503612806585,-0.530,-0.458,+0.379,+0.605,+0.940,-0.144,-0.258,+1.875,-4.188,+6.750,-2, -6, -5, -1, 0, -2, -5, 6
1503612806607,-0.530,-0.458,+0.378,+0.605,+0.934,-0.157,-0.244,+0.500,-3.750,+5.750,12, 6, 3, 1, 2, 0, 0, -11
1503612806622,-0.530,-0.458,+0.378,+0.606,+0.908,-0.156,-0.240,-0.375,-2.688,+3.312,-5, 3, 0, -1, 2, -1, -2, -9
1503612806645,-0.529,-0.458,+0.377,+0.606,+0.896,-0.155,-0.246,-0.625,+1.438,+1.562,5, 14, 3, 2, 1, 2, 3, 4
1503612806667,-0.529,-0.459,+0.378,+0.606,+0.927,-0.166,-0.235,-1.562,+5.000,-0.812,-1, -4, -1, -1, -1, 1, 5, 3
1503612806683,-0.529,-0.459,+0.378,+0.605,+0.950,-0.166,-0.241,-2.000,+3.688,-3.000,1, -1, 0, 1, -1, -3, -8, -7
1503612806705,-0.529,-0.458,+0.379,+0.605,+0.938,-0.161,-0.249,-2.375,+0.688,-4.938,-9, 2, 0, -2, -2, -3, 1, -9
1503612806726,-0.530,-0.458,+0.380,+0.605,+0.915,-0.172,-0.242,-4.625,-0.250,-8.938,6, 3, 2, 0, 2, -2, -2, -3
1503612806746,-0.530,-0.457,+0.381,+0.604,+0.906,-0.186,-0.242,-7.562,+6.125,-12.812,-8, -8, -4, -2, -5, -2, -6, -4
1503612806784,-0.530,-0.457,+0.384,+0.602,+0.904,-0.181,-0.238,-8.812,+15.875,-16.062,-6, -3, -1, 0, 4, 1, -2, -20
1503612806787,-0.530,-0.457,+0.388,+0.600,+0.933,-0.153,-0.225,-9.250,+20.188,-18.188,4, 4, 0, -1, -1, -1, 1, 8
1503612806809,-0.530,-0.456,+0.392,+0.598,+0.979,-0.116,-0.218,-8.562,+15.625,-19.562,-6, -5, -2, -1, -4, -4, -3, 3
1503612806828,-0.531,-0.455,+0.396,+0.596,+1.003,-0.089,-0.228,-7.625,+7.125,-19.875,1, -2, -2, -2, -3, -1, -1, 6
1503612806848,-0.532,-0.453,+0.398,+0.594,+0.979,-0.070,-0.238,-7.125,+2.812,-16.562,0, 2, 2, 2, 0, 1, 0, -9
1503612806868,-0.533,-0.451,+0.400,+0.593,+0.958,-0.065,-0.243,-5.500,+4.625,-12.875,-11, -1, -1, -1, -4, -1, 1, -15
1503612806884,-0.534,-0.451,+0.402,+0.592,+0.980,-0.072,-0.232,-3.062,+6.062,-10.625,10, 2, 1, 1, -4, 0, -1, -5
1503612806908,-0.534,-0.451,+0.403,+0.591,+1.042,-0.094,-0.218,-1.000,+4.688,-7.250,-14, 8, 1, -1, -3, -3, -3, 0
1503612806922,-0.535,-0.450,+0.403,+0.590,+1.043,-0.090,-0.207,-2.188,-3.375,-5.938,-1, -4, -4, -1, -1, 2, 4, 13
1503612806944,-0.537,-0.449,+0.403,+0.590,+0.997,-0.074,-0.223,-0.812,-10.312,-4.875,4, 4, 1, 0, 1, 0, -3, -5
1503612806967,-0.538,-0.448,+0.402,+0.590,+0.963,-0.091,-0.228,+0.938,-7.188,-4.438,-8, -8, -4, -3, -1, -2, 1, 4
1503612806982,-0.538,-0.448,+0.402,+0.590,+0.972,-0.100,-0.217,+0.562,-1.188,-2.625,8, 0, 0, -2, -2, -3, -2, 11
1503612807007,-0.538,-0.448,+0.403,+0.590,+1.006,-0.089,-0.217,-0.500,+1.062,+0.062,-3, 3, 1, -1, -1, -5, -12, 0
1503612807026,-0.538,-0.448,+0.403,+0.589,+1.002,-0.073,-0.221,+0.250,-0.938,-0.250,-2, -1, 2, 2, 1, 2, 3, -6
1503612807043,-0.539,-0.448,+0.402,+0.589,+0.985,-0.085,-0.226,+0.250,-4.125,+0.812,2, 3, 0, 1, 7, 6, 8, 4
1503612807064,-0.539,-0.448,+0.402,+0.589,+0.979,-0.087,-0.219,+0.375,-2.625,+0.562,5, -7, -4, -3, -7, -2, 2, -2
1503612807087,-0.539,-0.448,+0.401,+0.589,+0.972,-0.091,-0.226,+0.812,+0.125,+1.250,-2, 3, 5, 0, -5, -1, 1, 0
1503612807102,-0.539,-0.449,+0.402,+0.589,+0.973,-0.079,-0.227,-0.188,+1.062,+1.062,-4, -3, -3, -3, 1, 1, -3, 2
1503612807124,-0.539,-0.448,+0.401,+0.589,+0.984,-0.074,-0.230,-0.125,-1.938,+1.750,0, -9, -6, -2, -1, 2, 0, 12
1503612807147,-0.539,-0.448,+0.401,+0.590,+0.961,-0.081,-0.230,-0.125,-3.750,+1.688,4, -8, -1, -1, -1, -1, 2, 2
1503612807168,-0.540,-0.448,+0.400,+0.590,+0.950,-0.085,-0.217,-0.562,-3.750,+0.000,-3, 3, -3, -1, -4, -2, 5, 1
1503612807185,-0.540,-0.448,+0.400,+0.590,+0.943,-0.087,-0.229,-0.688,+1.375,+0.438,0, 4, 0, -2, -3, -4, 1, 2
1503612807208,-0.539,-0.448,+0.401,+0.589,+0.947,-0.078,-0.230,-0.938,+5.562,-1.375,-4, -1, -1, -1, -1, -1, 1, -8
1503612807222,-0.539,-0.449,+0.402,+0.588,+0.974,-0.080,-0.224,-0.125,+5.312,-2.562,6, -1, -4, -1, -2, -1, -4, -9
1503612807245,-0.540,-0.449,+0.402,+0.587,+0.974,-0.075,-0.219,+1.062,+2.812,-5.062,1, 0, -5, -1, -2, 0, -5, -6
1503612807266,-0.541,-0.448,+0.403,+0.586,+0.956,-0.078,-0.238,+1.750,+0.938,-7.625,-5, -2, -1, -1, -1, -2, 4, 7
1503612807288,-0.542,-0.448,+0.403,+0.586,+0.961,-0.076,-0.227,+1.062,+1.875,-6.000,-5, -4, -3, -1, -3, -3, -7, -3
1503612807304,-0.542,-0.449,+0.404,+0.585,+0.979,-0.080,-0.217,+1.688,+3.000,-4.312,-1, -5, 4, 1, -6, -5, -10, -18
1503612807326,-0.542,-0.449,+0.404,+0.584,+1.008,-0.087,-0.225,+1.562,-0.250,-2.500,-5, -1, -3, -1, 1, -1, -6, -5
1503612807350,-0.543,-0.448,+0.403,+0.584,+1.000,-0.083,-0.235,+0.125,-6.000,-0.375,-1, -7, -4, 0, -2, 0, 3, 1
1503612807364,-0.544,-0.448,+0.402,+0.585,+0.987,-0.093,-0.229,-0.125,-7.375,+2.062,2, 4, -1, -2, 7, 3, 5, 0
1503612807387,-0.543,-0.448,+0.401,+0.586,+0.985,-0.101,-0.217,+0.188,-4.188,+4.312,-4, -4, -2, -2, 3, 1, -4, 3
1503612807409,-0.543,-0.449,+0.400,+0.586,+1.010,-0.091,-0.225,-0.312,-4.000,+7.438,6, 13, 6, 3, -1, 0, 8, 24
1503612807424,-0.542,-0.449,+0.399,+0.587,+1.024,-0.076,-0.222,-0.250,-5.750,+9.250,1, 4, 3, 1, 1, 0, 9, 8
1503612807448,-0.542,-0.449,+0.398,+0.588,+1.015,-0.071,-0.229,+0.812,-7.500,+10.188,4, 1, -3, -2, -13, -5, -5, -7
1503612807469,-0.542,-0.449,+0.396,+0.590,+0.999,-0.073,-0.239,+2.375,-6.312,+12.500,10, 5, -3, -2, -1, -1, -3, -2
1503612807485,-0.541,-0.450,+0.395,+0.591,+0.989,-0.075,-0.246,+3.188,-1.312,+14.562,-1, -2, -1, -1, 4, 2, 0, 0
1503612807508,-0.540,-0.452,+0.393,+0.591,+1.010,-0.070,-0.232,+4.625,+1.938,+17.375,0, -2, 1, -2, -2, -2, -3, -34
1503612807529,-0.538,-0.454,+0.392,+0.592,+1.040,-0.070,-0.237,+7.625,+1.062,+19.875,-6, 10, 2, 1, 2, 0, 6, 3
1503612807544,-0.537,-0.456,+0.389,+0.593,+1.031,-0.070,-0.241,+9.438,-3.562,+21.625,0, -10, -7, -2, 1, -3, -8, 1
1503612807567,-0.536,-0.458,+0.386,+0.594,+0.996,-0.098,-0.240,+11.000,-5.625,+23.625,-5, -9, -2, -3, -5, -3, 4, 3
1503612807590,-0.535,-0.461,+0.382,+0.596,+0.974,-0.115,-0.242,+13.938,-2.188,+25.625,-4, -5, -2, -1, 3, 1, -4, -3
1503612807611,-0.533,-0.465,+0.379,+0.597,+0.987,-0.136,-0.244,+15.500,+1.875,+28.000,-6, -3, 2, 0, -1, -1, -2, 20
1503612810387,-0.508,-0.625,+0.406,+0.432,+1.019,-0.108,+0.169,+5.250,+8.562,+8.125,7, 1, 0, -2, 1, -2, 0, 0
1503612810409,-0.508,-0.626,+0.407,+0.430,+0.996,-0.108,+0.185,+4.500,+4.312,-2.688,-8, 1, -1, -1, 0, 2, 0, -3
1503612810432,-0.509,-0.626,+0.407,+0.429,+0.931,-0.097,+0.156,+6.438,-0.188,-5.250,14, 0, 0, -2, 0, -2, -1, -1
1503612810446,-0.509,-0.627,+0.407,+0.428,+0.936,-0.102,+0.149,+4.812,+4.125,-3.750,-16, -5, 1, -1, -1, 0, -3, -6
1503612810468,-0.508,-0.628,+0.408,+0.426,+0.955,-0.097,+0.164,+2.000,+15.125,-1.688,5, 0, 0, -1, 1, 0, -1, -1
1503612810492,-0.506,-0.629,+0.409,+0.425,+0.986,-0.083,+0.187,+0.688,+14.688,+2.375,5, -1, -1, -1, 0, 0, 0, 0
1503612810506,-0.506,-0.630,+0.409,+0.424,+1.027,-0.085,+0.163,+2.625,+7.500,+0.562,16, 4, -1, 1, 0, -1, 0, 2
1503612810528,-0.507,-0.630,+0.409,+0.423,+1.008,-0.084,+0.158,+4.500,-1.750,-4.688,-12, -1, -3, -1, -2, 0, 0, 2
1503612810551,-0.509,-0.629,+0.409,+0.422,+0.946,-0.118,+0.165,+3.750,-6.625,-6.938,-7, 1, 0, -1, 0, -2, -5, -4
1503612810566,-0.510,-0.628,+0.410,+0.421,+0.911,-0.105,+0.167,-0.438,-1.688,-9.750,-9, -2, -5, 0, -1, 0, 1, 1
1503612810588,-0.509,-0.628,+0.412,+0.420,+0.925,-0.100,+0.158,-4.500,+6.875,-9.750,1, -1, -1, -2, -1, 0, 1, -1
1503612810611,-0.509,-0.627,+0.413,+0.420,+0.959,-0.099,+0.151,-9.062,+5.375,-7.000,-2, -3, -4, -4, -1, -2, -1, 0
1503612810627,-0.508,-0.626,+0.415,+0.421,+0.970,-0.099,+0.199,-14.438,-2.375,-4.688,-5, 11, 2, -1, -2, -2, -2, 2
1503612810648,-0.509,-0.623,+0.416,+0.424,+1.034,-0.058,+0.227,-23.000,-20.562,-0.938,-2, -3, -2, -1, 2, -1, -2, -3
1503612810671,-0.510,-0.618,+0.416,+0.429,+1.048,-0.043,+0.172,-29.562,-31.188,+4.312,-2, 0, 2, 1, -2, -4, 0, 0
1503612810687,-0.513,-0.612,+0.417,+0.435,+0.986,-0.053,+0.213,-32.000,-46.750,-3.500,4, -6, -1, -1, 0, 0, 1, 1
1503612810708,-0.518,-0.604,+0.416,+0.440,+0.945,-0.053,+0.178,-28.062,-59.562,-12.062,-9, -6, -2, 0, -2, -1, -1, -6
1503612810732,-0.523,-0.595,+0.417,+0.446,+0.935,-0.063,+0.167,-32.750,-60.625,-19.938,-8, 3, 0, 0, 0, -1, 0, 1
1503612810747,-0.526,-0.587,+0.419,+0.451,+0.937,-0.064,+0.130,-39.500,-49.812,-17.750,-6, 2, 1, 0, -1, 0, 0, 2
1503612810768,-0.528,-0.579,+0.421,+0.456,+0.979,-0.036,+0.099,-42.312,-38.250,-13.500,12, -1, -4, -4, -2, -1, -3, -3
1503612810793,-0.530,-0.572,+0.424,+0.461,+1.051,-0.037,+0.051,-37.688,-33.500,-13.312,7, -2, 1, 2, 0, -1, -4, -4
1503612810806,-0.533,-0.564,+0.424,+0.466,+1.091,-0.059,+0.022,-32.875,-41.062,-13.125,7, 1, 1, -1, -1, 1, 1, -2
1503612810829,-0.537,-0.556,+0.425,+0.471,+1.067,-0.075,+0.039,-34.875,-51.000,-15.938,-2, 0, 1, 1, 0, 1, -3, -1
1503612810850,-0.541,-0.547,+0.425,+0.477,+1.024,-0.069,+0.023,-31.938,-57.625,-14.500,-11, 0, 3, 0, -2, -3, -2, 27
1503612810868,-0.545,-0.539,+0.424,+0.482,+1.022,-0.057,-0.038,-27.938,-54.438,-11.000,2, -4, -1, 0, -1, 1, 1, 1
1503612810888,-0.549,-0.532,+0.422,+0.487,+1.011,-0.081,-0.079,-25.688,-48.812,-10.938,7, 14, 1, 0, 0, -3, -2, -15
1503612810910,-0.552,-0.525,+0.421,+0.493,+1.011,-0.106,-0.051,-27.875,-45.188,-7.188,-8, -4, -5, 0, -1, 0, -2, -9
1503612810927,-0.553,-0.519,+0.421,+0.498,+0.999,-0.076,-0.054,-27.875,-39.188,-2.875,10, -1, -3, -1, 0, -2, 1, -4
1503612810948,-0.555,-0.514,+0.420,+0.502,+1.003,-0.054,-0.088,-23.312,-32.000,-2.000,-8, -7, -2, -2, -1, -2, 0, -12
1503612810970,-0.556,-0.509,+0.419,+0.506,+1.025,-0.067,-0.096,-23.062,-31.875,-0.625,-10, 2, 4, 1, 0, -1, -4, -17
1503612810986,-0.557,-0.504,+0.418,+0.511,+1.040,-0.051,-0.112,-24.438,-36.062,+2.250,-12, 1, -2, -3, 1, 1, -1, -6
1503612811008,-0.559,-0.498,+0.416,+0.516,+1.010,-0.034,-0.109,-22.438,-38.875,+3.875,1, 15, 5, -2, -1, 0, 0, 16
1503612811031,-0.561,-0.493,+0.414,+0.521,+0.954,-0.038,-0.118,-19.500,-39.875,+3.375,-1, -4, 2, -1, -1, -1, -4, -14
1503612811046,-0.562,-0.488,+0.413,+0.525,+0.916,-0.052,-0.137,-18.875,-32.938,+3.375,24, -2, -6, 1, -1, -1, 1, 3
1503612811069,-0.562,-0.485,+0.412,+0.528,+0.958,-0.062,-0.167,-17.562,-21.062,+4.500,-5, -3, -1, -1, 0, 1, -1, 9
1503612811091,-0.562,-0.482,+0.411,+0.531,+1.014,-0.065,-0.170,-17.875,-15.250,+3.750,-10, -7, -7, -5, -2, -2, -2, -1
1503612811106,-0.562,-0.479,+0.411,+0.534,+1.022,-0.043,-0.161,-19.688,-19.625,+0.875,1, 1, 1, -1, -2, -3, -4, 2
1503612811129,-0.563,-0.475,+0.411,+0.537,+0.981,-0.028,-0.162,-17.938,-23.562,+0.812,3, -4, -1, 0, -1, 0, -2, -5
1503612811150,-0.564,-0.472,+0.410,+0.540,+0.938,-0.040,-0.173,-16.000,-20.000,+0.375,12, 8, 5, 2, 0, 2, 5, 28
1503612811166,-0.564,-0.469,+0.410,+0.542,+0.960,-0.052,-0.196,-14.812,-10.312,-0.688,-3, 8, 2, 0, 1, -2, 4, 8
1503612811189,-0.563,-0.468,+0.411,+0.544,+0.980,-0.050,-0.175,-15.875,-3.312,+0.688,-1, -2, -1, -1, -1, 0, -2, -5
1503612811211,-0.562,-0.466,+0.413,+0.545,+1.008,-0.021,-0.175,-16.125,-5.625,-0.125,1, -3, -4, 1, 0, -3, -6, -1
1503612811229,-0.562,-0.464,+0.413,+0.546,+1.004,-0.027,-0.183,-13.875,-8.000,+0.188,13, -11, -8, -5, -2, -1, 2, 4
1503612811249,-0.562,-0.462,+0.414,+0.548,+0.954,-0.040,-0.185,-13.938,-7.062,-1.875,-14, -8, -7, -4, -3, -5, -8, -3
1503612811271,-0.561,-0.460,+0.415,+0.549,+0.965,-0.039,-0.187,-13.250,-3.625,+0.375,-9, 0, 6, 0, -1, -1, -6, -38
1503612811287,-0.560,-0.459,+0.415,+0.550,+1.020,-0.032,-0.186,-13.000,-0.812,+2.500,7, 1, -5, -2, -1, 0, 0, 7
1503612811309,-0.560,-0.458,+0.416,+0.552,+1.036,-0.041,-0.191,-12.375,-7.562,+2.250,0, 9, 4, 1, 1, -1, -3, 2
1503612811331,-0.560,-0.455,+0.415,+0.554,+0.999,-0.033,-0.215,-11.562,-15.938,+0.562,-1, -1, -3, -2, -2, -2, 5, -17
1503612811347,-0.561,-0.453,+0.414,+0.556,+0.942,-0.045,-0.205,-11.000,-14.562,-0.250,11, -2, -4, 1, -1, 2, 3, -4
1503612811369,-0.561,-0.451,+0.415,+0.557,+0.936,-0.053,-0.207,-10.250,-5.250,-0.062,3, -9, -7, -2, -1, -3, 0, 12
1503612811390,-0.560,-0.451,+0.415,+0.558,+0.984,-0.043,-0.204,-8.500,+1.375,+3.000,12, -11, -8, -6, -5, 0, 1, 11
1503612811407,-0.559,-0.450,+0.415,+0.559,+1.012,-0.036,-0.216,-7.750,-1.062,+2.750,-17, 12, 5, 2, 2, 1, -4, -14
1503612811430,-0.559,-0.449,+0.415,+0.560,+0.983,-0.029,-0.208,-7.875,-7.750,+1.375,-2, -2, 2, 0, 0, -1, 1, 4
1503612811451,-0.560,-0.447,+0.415,+0.561,+0.933,-0.026,-0.224,-6.625,-6.688,-1.125,-9, 3, -1, -1, -5, -2, -11, -27
1503612811468,-0.559,-0.447,+0.416,+0.560,+0.900,-0.027,-0.216,-3.750,+6.562,-3.250,23, 8, 4, 0, 0, -5, -4, 10
1503612811489,-0.558,-0.449,+0.418,+0.559,+0.960,-0.027,-0.202,-2.375,+15.812,-1.812,5, 5, 4, 1, -2, -1, -1, 30
1503612811511,-0.557,-0.450,+0.420,+0.558,+1.021,-0.023,-0.189,-2.750,+14.688,-2.438,-6, -2, -1, -3, 1, 1, 4, 8
1503612811530,-0.557,-0.450,+0.421,+0.557,+1.019,-0.016,-0.191,-2.188,+4.812,-3.250,9, 0, 2, 1, 2, -2, -6, -3
1503612811549,-0.558,-0.449,+0.420,+0.557,+0.994,-0.014,-0.222,-0.625,-4.312,-1.625,-6, -2, -3, 1, 4, -2, -5, -9
1503612811571,-0.558,-0.449,+0.420,+0.557,+0.956,-0.031,-0.223,+0.062,-2.500,+0.938,3, -5, -7, -4, -2, -1, 3, 7
1503612811587,-0.558,-0.449,+0.419,+0.558,+0.962,-0.050,-0.203,-2.375,+2.500,+4.500,-3, 0, -2, -4, 2, -4, -9, -29
1503612811609,-0.556,-0.450,+0.420,+0.558,+0.997,-0.028,-0.185,-3.062,+6.938,+7.562,6, 4, 3, -3, -1, 0, 0, 2
1503612811633,-0.555,-0.451,+0.420,+0.559,+1.023,-0.013,-0.189,-1.625,+3.250,+7.750,-5, 1, 1, 3, 11, 2, 2, 0
1503612811647,-0.555,-0.451,+0.419,+0.559,+1.016,-0.017,-0.190,-0.625,-4.938,+6.000,17, 7, 5, 2, 5, 2, 2, 6
1503612811669,-0.555,-0.451,+0.418,+0.560,+0.971,-0.029,-0.197,+1.125,-8.375,+6.312,-11, -11, -5, -2, -11, -3, -5, -7
1503612811691,-0.555,-0.451,+0.417,+0.561,+0.933,-0.044,-0.188,+1.000,-3.938,+3.500,-6, 4, 1, -4, -17, -4, 0, 2
1503612811707,-0.555,-0.452,+0.417,+0.560,+0.947,-0.047,-0.189,+0.875,+5.500,+1.125,3, 0, -2, -1, 13, -2, 1, 6
1503612811730,-0.555,-0.453,+0.418,+0.559,+0.974,-0.048,-0.176,+1.312,+10.688,-2.125,-5, 0, 0, 3, 2, -1, -5, 7
1503612811751,-0.555,-0.454,+0.419,+0.558,+0.992,-0.044,-0.178,+1.062,+8.125,-7.875,-1, 3, 2, -1, -22, -2, 0, 2
1503612811769,-0.556,-0.453,+0.420,+0.556,+0.994,-0.030,-0.182,+1.938,+3.375,-10.500,8, -5, -4, -3, -3, 0, -1, -4
1503612811789,-0.557,-0.453,+0.421,+0.555,+0.976,-0.036,-0.186,+1.750,+1.500,-9.938,-6, -1, -1, 0, 3, -1, 2, 4
1503612811811,-0.558,-0.453,+0.421,+0.554,+0.974,-0.027,-0.196,+0.938,+1.375,-7.500,-5, 3, 4, 1, 10, 0, 1, 2
1503612811831,-0.558,-0.453,+0.421,+0.553,+0.980,-0.030,-0.193,-0.625,+1.688,-2.625,-2, -4, -2, 1, 7, -3, -2, -5
1503612811849,-0.557,-0.453,+0.421,+0.554,+0.995,-0.034,-0.188,-2.375,+0.938,+1.500,-2, 3, 0, 2, -2, -2, 4, -4
1503612811872,-0.557,-0.453,+0.421,+0.554,+1.004,-0.039,-0.179,-3.812,-1.938,+3.500,-2, -3, 2, 2, 3, -2, -11, -6
1503612811887,-0.556,-0.453,+0.421,+0.555,+0.989,-0.043,-0.186,-4.625,-2.250,+5.125,-2, 0, 0, -1, 3, 9, 8, -8
1503612811909,-0.556,-0.453,+0.421,+0.556,+0.980,-0.037,-0.194,-5.375,-0.062,+3.000,-14, 1, -3, -4, -6, -3, 2, -4
1503612811931,-0.555,-0.453,+0.422,+0.556,+0.980,-0.033,-0.177,-5.125,+2.062,-0.125,-8, -20, -4, 1, -4, -1, -5, -2
1503612811947,-0.555,-0.453,+0.422,+0.556,+0.984,-0.014,-0.170,-3.375,+5.438,-0.500,-4, 9, 4, -1, -3, -2, -2, -6
1503612811969,-0.555,-0.453,+0.423,+0.555,+0.982,-0.006,-0.176,-1.688,+5.000,-3.250,37, 27, 12, 2, 0, 1, -4, 4
1503612811998,-0.555,-0.453,+0.424,+0.554,+0.980,-0.018,-0.183,-0.688,+6.312,-4.875,-19, 4, 0, -2, 0, 1, -1, -11
1503612812007,-0.555,-0.453,+0.426,+0.552,+0.987,-0.008,-0.180,+0.125,+7.875,-5.250,15, -8, -9, -5, -2, 0, 1, 5
1503612812030,-0.555,-0.454,+0.426,+0.551,+1.018,+0.002,-0.176,+1.750,+5.062,-3.375,-3, 22, 6, 1, -1, -3, -2, -24
1503612812051,-0.556,-0.454,+0.426,+0.551,+1.015,-0.009,-0.171,+1.375,-1.188,-0.625,-26, 13, 11, 4, 0, -2, 3, 44
1503612812067,-0.556,-0.453,+0.425,+0.552,+0.992,-0.015,-0.178,+0.875,-7.938,+1.938,26, 11, 7, 0, -1, 1, -3, 42
1503612812089,-0.556,-0.453,+0.424,+0.553,+0.971,-0.040,-0.184,-0.750,-7.938,+5.188,32, 16, 11, 5, 3, 2, -1, 24
1503612812111,-0.556,-0.453,+0.423,+0.554,+0.976,-0.037,-0.184,-2.938,-5.562,+7.500,0, 7, 0, 0, -1, 1, 2, -21
1503612812127,-0.555,-0.453,+0.422,+0.555,+0.995,-0.028,-0.181,-3.938,-5.500,+8.812,2, -9, -9, -3, -2, -1, 4, 13
1503612812149,-0.555,-0.453,+0.421,+0.557,+0.991,-0.031,-0.178,-4.125,-7.625,+8.250,21, 25, 14, 1, 1, -4, -5, -5
1503612812171,-0.555,-0.452,+0.420,+0.558,+0.965,-0.028,-0.179,-5.375,-7.562,+6.938,10, -1, -6, -1, -1, 3, 5, 13
1503612812187,-0.554,-0.451,+0.420,+0.559,+0.953,-0.029,-0.179,-5.188,-3.562,+4.125,-11, -2, 5, 1, 2, 3, -2, -2
1503612812209,-0.554,-0.452,+0.421,+0.559,+0.964,-0.029,-0.170,-3.438,+2.625,-0.062,38, -7, -10, -1, -2, -4, -2, -14
1503612812236,-0.554,-0.452,+0.422,+0.558,+0.986,-0.020,-0.193,-1.438,+6.312,-3.500,-24, -23, -8, -3, -2, 1, 2, -12
1503612812247,-0.554,-0.452,+0.423,+0.557,+0.991,-0.011,-0.180,-0.500,+3.812,-7.312,3, 5, 0, -4, -1, -2, 0, 14
1503612812270,-0.555,-0.451,+0.423,+0.556,+0.979,-0.002,-0.199,+0.625,+1.188,-7.312,-31, -8, -5, -1, -1, 0, 0, 0
1503612812291,-0.556,-0.451,+0.424,+0.555,+0.976,-0.007,-0.187,+1.125,+0.688,-5.125,3, -9, -1, -3, -1, 0, 3, 7
1503612812307,-0.556,-0.451,+0.424,+0.555,+0.994,-0.024,-0.188,+0.750,+0.812,-1.312,0, -3, -3, 0, -2, -1, 0, -2
1503612812329,-0.556,-0.451,+0.423,+0.555,+1.009,-0.029,-0.186,-0.188,-1.750,+2.812,-1, -6, -5, -1, -7, -4, -6, -10
1503612812351,-0.556,-0.451,+0.422,+0.556,+1.001,-0.036,-0.186,-0.938,-5.812,+5.562,-5, -12, -6, -2, -10, -6, -4, -8
1503612812367,-0.556,-0.451,+0.421,+0.557,+0.984,-0.044,-0.184,-1.188,-7.812,+7.062,13, 8, 5, 2, 0, -1, -1, 16
1503612812389,-0.555,-0.451,+0.420,+0.559,+0.985,-0.049,-0.176,-1.562,-5.438,+8.625,-8, -10, -3, -2, 1, 2, -2, 0
1503612812411,-0.554,-0.452,+0.419,+0.560,+0.996,-0.052,-0.193,-2.000,-3.250,+8.688,6, -5, -4, -2, -6, -1, -4, -16
1503612812427,-0.554,-0.452,+0.418,+0.560,+0.991,-0.052,-0.187,-2.688,-2.250,+5.375,-9, -3, -1, -1, 3, 0, -2, -7
1503612812449,-0.554,-0.452,+0.418,+0.561,+0.973,-0.042,-0.194,-2.812,-2.375,+4.000,4, -1, -2, 0, 7, 0, 1, -3
1503612812472,-0.553,-0.452,+0.418,+0.561,+0.941,-0.033,-0.181,-2.875,+1.062,+0.875,5, -3, -1, 0, -5, -1, -1, -11
1503612812487,-0.553,-0.452,+0.419,+0.561,+0.944,-0.031,-0.178,-3.062,+5.188,-1.125,-4, -11, -4, -4, -2, -1, -3, -3
1503612812510,-0.553,-0.452,+0.420,+0.560,+0.981,-0.018,-0.181,-1.312,+6.125,-2.625,-3, -8, -1, -1, -2, 0, 8, 4
1503612812531,-0.553,-0.452,+0.421,+0.559,+0.999,-0.024,-0.190,+0.250,+4.375,-5.500,4, 27, 9, 1, -1, 1, 4, -1
1503612812547,-0.554,-0.452,+0.421,+0.558,+0.988,-0.019,-0.191,+0.875,+0.562,-6.438,-3, -10, -5, -2, 1, -1, 1, 6
1503612812569,-0.555,-0.452,+0.422,+0.557,+0.968,-0.022,-0.194,+0.812,+1.062,-5.938,-4, -6, -3, 0, 0, -4, -2, 3
1503612812591,-0.555,-0.452,+0.422,+0.557,+0.978,-0.031,-0.195,+0.688,+3.375,-2.188,9, 4, 1, -1, 0, -1, -4, 11
1503612812607,-0.555,-0.452,+0.422,+0.557,+0.998,-0.015,-0.189,+0.312,+1.062,+2.500,-16, -1, -3, -3, -4, -2, -4, -40
1503612812629,-0.555,-0.452,+0.421,+0.557,+1.007,-0.032,-0.190,-0.438,-3.188,+5.938,-3, -6, -3, 1, -3, 2, -4, 6
1503612812651,-0.554,-0.452,+0.420,+0.559,+0.993,-0.054,-0.193,-1.562,-7.000,+6.750,-2, 2, -1, -1, 1, 0, 2, 8
1503612812668,-0.554,-0.452,+0.419,+0.560,+0.979,-0.056,-0.183,-3.312,-7.188,+7.750,7, -5, 0, -2, 6, 0, -2, 3
1503612812689,-0.553,-0.452,+0.418,+0.561,+0.970,-0.042,-0.185,-3.625,-4.875,+7.812,4, 8, 6, 1, 0, -2, -1, -3
1503612812711,-0.553,-0.452,+0.417,+0.562,+0.977,-0.039,-0.183,-2.938,-5.062,+5.125,3, -5, -2, -3, -2, -1, 2, 16
1503612812727,-0.553,-0.452,+0.417,+0.563,+0.977,-0.042,-0.177,-2.688,-2.812,+2.875,4, 2, -1, 1, 1, 0, 3, -14
1503612812749,-0.553,-0.452,+0.417,+0.562,+0.958,-0.044,-0.181,-2.125,+1.500,-1.438,-8, -4, -2, 1, 1, 1, -2, 5
1503612812772,-0.553,-0.452,+0.418,+0.561,+0.958,-0.043,-0.181,-1.062,+5.500,-5.438,9, 6, 0, -1, 6, 0, -6, 40
1503612812787,-0.553,-0.452,+0.420,+0.560,+0.967,-0.034,-0.181,-0.250,+9.438,-7.875,-10, -6, -3, -1, -10, -4, -2, -2
1503612812809,-0.553,-0.453,+0.421,+0.558,+0.994,-0.018,-0.188,+0.250,+8.250,-8.750,2, 0, -2, 0, -2, -2, -1, -6
1503612812831,-0.554,-0.452,+0.422,+0.557,+1.008,-0.008,-0.194,+1.000,+2.188,-6.625,-8, -3, -2, -2, -1, 1, 8, 0
1503612812847,-0.555,-0.452,+0.422,+0.557,+0.988,-0.015,-0.199,+0.438,-2.625,-3.438,-3, -2, -3, -2, -1, -2, -1, 0
1503612812870,-0.555,-0.451,+0.421,+0.557,+0.985,-0.031,-0.202,-0.750,-4.250,+1.812,-2, 3, 0, -2, -4, -3, -1, 0
1503612812891,-0.555,-0.451,+0.421,+0.558,+0.989,-0.042,-0.197,-1.938,-3.062,+5.562,-4, -4, -2, -1, -3, 0, 0, -5
1503612812907,-0.554,-0.452,+0.420,+0.559,+1.005,-0.032,-0.190,-2.688,-4.188,+8.875,5, 0, 0, 0, 2, -6, -1, -1
1503612812929,-0.554,-0.451,+0.418,+0.561,+1.007,-0.038,-0.192,-2.625,-8.125,+9.250,-6, -4, -3, -1, -1, 1, 3, -2
1503612812959,-0.553,-0.451,+0.417,+0.562,+0.988,-0.051,-0.178,-2.062,-8.812,+8.125,0, -4, -4, 0, -1, 0, 1, -1
1503612812974,-0.553,-0.451,+0.416,+0.563,+0.969,-0.058,-0.188,-1.875,-4.500,+5.562,-12, 9, 5, 0, -2, -1, -1, -13
1503612812989,-0.552,-0.452,+0.416,+0.563,+0.961,-0.044,-0.178,-1.812,+2.250,+3.250,2, 6, -2, 1, -3, -1, -3, -1
1503612813012,-0.552,-0.452,+0.417,+0.563,+0.965,-0.034,-0.182,-0.812,+4.125,+0.062,-6, -2, -1, 0, -1, -3, 0, 6
1503612813027,-0.552,-0.452,+0.417,+0.562,+0.975,-0.034,-0.200,+0.938,+4.812,-2.625,1, -9, -3, 1, 3, 3, 5, 2
1503612813049,-0.553,-0.453,+0.418,+0.561,+0.982,-0.035,-0.192,+1.188,+4.875,-4.875,2, 5, 0, 0, -1, -3, -5, -2
1503612813072,-0.553,-0.452,+0.419,+0.560,+0.972,-0.019,-0.204,+0.125,+2.375,-5.750,15, 4, -1, 0, -3, -2, -3, -5
1503612813087,-0.554,-0.452,+0.419,+0.560,+0.968,-0.023,-0.189,-0.188,+0.375,-3.125,3, 0, 1, 0, -1, 2, 6, 4
1503612813109,-0.554,-0.452,+0.419,+0.560,+0.972,-0.034,-0.192,-0.125,-1.062,-0.812,10, 2, 1, -1, -3, -2, 2, 8
1503612813132,-0.554,-0.452,+0.419,+0.560,+0.979,-0.053,-0.199,-1.438,-0.062,+0.875,-3, -1, -1, 0, -3, -1, -1, -1
1503612813147,-0.554,-0.452,+0.419,+0.560,+0.984,-0.041,-0.192,-2.812,-0.500,+1.938,-13, -10, -1, 0, 1, 0, 4, 0
1503612813174,-0.554,-0.452,+0.419,+0.560,+0.979,-0.034,-0.195,-2.812,-3.125,+1.812,3, 4, 0, -1, 3, -1, 0, -2
1503612813192,-0.554,-0.451,+0.418,+0.561,+0.982,-0.038,-0.183,-3.062,-3.812,+2.250,-4, -2, 0, -1, -1, -2, -4, 4
1503612813214,-0.554,-0.451,+0.418,+0.561,+0.978,-0.039,-0.182,-2.875,-2.188,+2.062,-2, 3, 0, 0, 5, 1, 1, -3
1503612813231,-0.553,-0.451,+0.418,+0.562,+0.979,-0.031,-0.191,-1.688,-0.875,+1.625,5, 3, 0, -1, -2, -1, 0, 6
1503612813252,-0.553,-0.451,+0.418,+0.562,+0.988,-0.029,-0.187,-1.375,-0.688,+0.938,2, 0, -1, 1, -1, -4, -2, -11
1503612813274,-0.553,-0.451,+0.418,+0.562,+0.984,-0.038,-0.195,-1.375,-0.875,-0.625,-2, -4, -2, -1, -2, 1, -1, 0
1503612813289,-0.554,-0.451,+0.418,+0.561,+0.988,-0.037,-0.189,-0.500,-1.125,-0.938,2, 6, 1, 0, -2, 0, -5, -1
1503612813312,-0.554,-0.451,+0.418,+0.561,+0.991,-0.036,-0.197,-0.438,-1.812,-0.562,-3, -2, -1, 0, 0, -1, 1, -3
1503612813327,-0.554,-0.451,+0.418,+0.561,+0.979,-0.034,-0.185,-1.062,-1.562,+0.625,-11, -6, -5, -2, 0, -1, 0, -3
1503612813356,-0.554,-0.451,+0.418,+0.561,+0.971,-0.033,-0.192,-1.500,-0.562,+1.312,-4, -2, -1, 1, -3, 0, -2, 9
1503612813374,-0.554,-0.451,+0.418,+0.562,+0.982,-0.034,-0.194,-1.688,+1.125,+2.562,2, -3, -2, 1, 0, 1, 2, 7
1503612813387,-0.553,-0.451,+0.418,+0.562,+0.999,-0.034,-0.188,-1.438,-0.938,+3.312,-1, 6, 1, 1, -2, 2, 6, 7
1503612813410,-0.553,-0.451,+0.417,+0.562,+0.992,-0.034,-0.186,-1.688,-4.125,+3.750,-10, 5, 2, 0, -2, -3, -6, -8
1503612813432,-0.553,-0.451,+0.417,+0.563,+0.975,-0.038,-0.194,-2.688,-5.500,+4.125,-7, -1, -2, -2, -2, -1, -1, -3
1503612813448,-0.553,-0.451,+0.416,+0.564,+0.974,-0.051,-0.189,-2.312,-2.375,+4.312,-7, -3, -1, 2, 3, 3, 1, -36
1503612813472,-0.552,-0.451,+0.416,+0.564,+0.986,-0.060,-0.197,-2.188,+0.812,+3.438,-1, 0, 1, -2, -2, -2, -4, 9
1503612813492,-0.552,-0.451,+0.416,+0.565,+0.985,-0.048,-0.188,-3.125,+1.375,+2.562,8, -7, -6, -2, -2, -2, 2, 5
1503612813507,-0.551,-0.451,+0.416,+0.565,+0.981,-0.032,-0.195,-2.750,+0.688,+2.438,2, 0, -3, 3, -1, -1, 0, 4
1503612813529,-0.551,-0.451,+0.416,+0.565,+0.983,-0.040,-0.193,-2.062,+0.125,+2.438,-3, -3, -1, -3, -1, -1, -5, -3
1503612813558,-0.551,-0.451,+0.416,+0.565,+0.982,-0.048,-0.201,-1.812,-0.750,+2.938,1, -4, -2, -1, -2, -1, -3, 5
1503612813574,-0.551,-0.451,+0.416,+0.566,+0.980,-0.050,-0.203,-2.438,-1.688,+3.188,4, 2, 0, -2, -4, -4, 1, 1
1503612813588,-0.551,-0.451,+0.416,+0.566,+0.970,-0.049,-0.200,-2.688,-1.812,+2.438,6, 2, 0, 2, 2, 0, -2, -5
1503612813612,-0.550,-0.451,+0.415,+0.567,+0.960,-0.056,-0.199,-1.688,+0.375,+1.875,-13, -1, -6, -4, -1, -1, -3, -8
1503612813633,-0.550,-0.452,+0.415,+0.567,+0.972,-0.066,-0.200,-1.062,+1.062,+1.750,5, 4, 1, -3, -5, -1, 1, 1
1503612813651,-0.550,-0.452,+0.415,+0.567,+0.978,-0.057,-0.202,-1.812,+0.250,+1.812,-4, -6, -2, -1, 0, 1, -2, -4
1503612813678,-0.550,-0.452,+0.415,+0.567,+0.971,-0.051,-0.206,-2.438,+0.250,+1.125,4, -2, 1, -1, -1, -2, -1, 2
1503612813693,-0.550,-0.452,+0.415,+0.567,+0.977,-0.048,-0.203,-1.938,+0.812,-0.312,1, 5, -2, 0, -3, -1, 9, -4
1503612813708,-0.550,-0.452,+0.415,+0.567,+0.981,-0.058,-0.200,-1.438,+1.250,-1.812,-3, -3, -1, 0, 0, 1, -3, -2
1503612813731,-0.550,-0.451,+0.416,+0.567,+0.972,-0.049,-0.205,-0.812,+1.562,-2.875,-7, -4, 1, 0, 0, -3, -2, 4
1503612813753,-0.550,-0.451,+0.416,+0.566,+0.965,-0.047,-0.203,-0.562,+2.125,-2.562,-3, -5, -1, -2, -4, 1, 1, -11
1503612813769,-0.550,-0.452,+0.416,+0.566,+0.972,-0.051,-0.199,-0.062,+2.125,-1.562,1, -10, -6, -3, -6, -5, -4, -2
1503612813791,-0.550,-0.452,+0.417,+0.565,+0.987,-0.053,-0.191,-0.688,+1.938,-1.938,22, -1, -1, 1, 1, -2, 0, 4
1503612813813,-0.550,-0.452,+0.417,+0.565,+0.991,-0.041,-0.193,-0.062,+0.938,-0.812,-19, 0, 1, 1, 0, -1, 1, -31
1503612813828,-0.551,-0.452,+0.417,+0.565,+0.974,-0.044,-0.195,+0.312,-1.000,-1.625,3, -10, -2, -1, -2, -1, -2, 8
1503612813851,-0.551,-0.452,+0.416,+0.565,+0.970,-0.042,-0.199,-0.188,-1.688,-0.938,3, 0, -1, 0, 1, -2, 0, 7
1503612813874,-0.551,-0.452,+0.416,+0.565,+0.973,-0.040,-0.190,-0.375,+0.625,-0.125,-7, 0, -2, -3, 1, -2, -2, 0
1503612813888,-0.551,-0.452,+0.416,+0.565,+0.989,-0.042,-0.186,-0.562,+0.500,+0.125,-10, -5, -3, 1, -12, -3, -4, -5
1503612813911,-0.551,-0.452,+0.416,+0.565,+0.996,-0.042,-0.186,-1.000,-1.312,+1.062,-3, -6, 0, -1, -1, -1, -1, -3
1503612813933,-0.551,-0.451,+0.416,+0.565,+0.992,-0.041,-0.184,-1.125,-3.000,+0.375,-5, -3, -2, -1, 3, -1, -2, -2
1503612813950,-0.552,-0.451,+0.416,+0.565,+0.983,-0.042,-0.184,-0.750,-3.250,-0.188,-1, -2, -1, -1, 1, -1, 1, -3
1503612813979,-0.552,-0.451,+0.416,+0.565,+0.964,-0.036,-0.193,-0.312,-0.312,+0.062,-8, -2, -1, 0, 1, 0, -2, 38
1503612813993,-0.552,-0.451,+0.416,+0.565,+0.975,-0.038,-0.194,+0.062,+2.062,-0.438,7, 0, 0, -1, 1, 0, 0, 3
1503612814008,-0.551,-0.452,+0.416,+0.564,+0.992,-0.045,-0.192,-0.062,+1.562,+0.438,0, 0, 0, 1, 0, -1, -4, -13
1503612814030,-0.551,-0.452,+0.416,+0.564,+0.992,-0.036,-0.185,-0.125,+0.062,+0.750,-9, -1, -2, 1, 6, 3, 0, -9
1503612814053,-0.552,-0.452,+0.416,+0.564,+0.984,-0.039,-0.188,+0.125,-3.250,+1.188,2, 0, -1, -2, -5, -3, -5, -9
1503612814068,-0.552,-0.452,+0.415,+0.565,+0.977,-0.053,-0.208,-0.062,-3.188,+1.812,7, 2, 1, 0, -1, -1, 3, -3
1503612814091,-0.552,-0.452,+0.415,+0.565,+0.975,-0.052,-0.194,-0.812,-1.125,+1.438,6, -2, 0, -1, 1, 2, 3, -1
1503612814113,-0.552,-0.452,+0.415,+0.565,+0.973,-0.051,-0.205,-1.312,+0.312,+1.375,12, 6, 0, 1, -5, -1, -2, -1
1503612814128,-0.552,-0.452,+0.415,+0.565,+0.994,-0.044,-0.193,-1.562,+1.188,+1.188,-5, -3, -2, 0, 1, -1, -3, 0
1503612814151,-0.552,-0.452,+0.415,+0.565,+0.989,-0.042,-0.197,-1.125,+0.250,+1.312,-13, 1, 0, -1, 3, 4, 3, -6
1503612814174,-0.552,-0.452,+0.415,+0.565,+0.983,-0.037,-0.204,-0.938,-1.000,+0.625,0, -1, 1, -1, -5, -2, -4, 0
1503612814188,-0.552,-0.452,+0.415,+0.565,+0.966,-0.030,-0.198,-1.062,-1.438,-0.062,0, 3, 0, -2, 12, -1, -2, -6
1503612814211,-0.552,-0.452,+0.415,+0.565,+0.968,-0.029,-0.187,+0.125,+0.500,+0.562,-11, -7, 1, -1, -3, -5, 0, -5
1503612814233,-0.552,-0.452,+0.415,+0.565,+0.981,-0.038,-0.195,+0.938,+0.625,+1.188,1, -1, -1, 0, -1, 0, -1, 3
1503612814256,-0.552,-0.452,+0.415,+0.564,+0.988,-0.041,-0.193,+0.875,+0.312,+1.938,16, 6, 0, -1, 3, 2, -3, 1
1503612814270,-0.552,-0.453,+0.415,+0.564,+0.980,-0.042,-0.189,+0.500,-1.062,+1.062,3, -3, -1, 1, -2, -1, -4, -2
1503612814293,-0.552,-0.453,+0.414,+0.564,+0.976,-0.042,-0.192,+1.188,-1.438,+1.188,0, 3, -2, -1, -2, -2, 1, -3
1503612814310,-0.552,-0.453,+0.414,+0.564,+0.982,-0.043,-0.196,+0.688,-1.375,+1.000,-2, -2, 2, -2, -3, 2, 2, 5
1503612814330,-0.552,-0.453,+0.414,+0.564,+0.979,-0.047,-0.203,+0.000,-1.250,+1.500,-13, 13, 0, -1, -3, -2, -4, -6
1503612814353,-0.552,-0.453,+0.414,+0.565,+0.974,-0.063,-0.193,-1.125,+0.188,+0.875,4, -6, -7, -2, -4, -2, -1, 2
1503612814368,-0.552,-0.453,+0.414,+0.565,+0.979,-0.064,-0.193,-1.750,+0.938,+0.562,0, -3, 0, -1, 1, 0, 0, 2
1503612814390,-0.552,-0.453,+0.414,+0.565,+0.982,-0.064,-0.192,-2.312,+1.750,+0.812,-3, 0, -1, -2, -4, -3, 0, -7
1503612814414,-0.552,-0.453,+0.414,+0.565,+0.984,-0.048,-0.203,-2.438,-0.750,+0.875,11, -3, -2, -1, -4, -5, -1, 1
1503612814428,-0.552,-0.453,+0.414,+0.565,+0.980,-0.046,-0.207,-2.688,-1.562,+0.688,-9, 4, 4, 1, -1, -2, -1, -2
1503612814451,-0.552,-0.452,+0.414,+0.565,+0.971,-0.051,-0.196,-3.062,-1.688,+1.438,-2, -1, -3, -3, 1, -1, 0, -1
1503612814473,-0.552,-0.452,+0.414,+0.566,+0.963,-0.045,-0.202,-3.125,+0.125,+1.562,7, -6, -3, 1, 11, 9, 5, 3
1503612814488,-0.551,-0.452,+0.414,+0.566,+0.977,-0.047,-0.205,-3.000,+0.875,+1.812,-3, 2, -3, 1, 0, -2, 1, -12
1503612814511,-0.551,-0.452,+0.414,+0.566,+0.982,-0.040,-0.203,-2.375,+0.562,+1.375,2, 3, 1, 1, 0, -1, 1, -2
1503612814533,-0.551,-0.452,+0.414,+0.566,+0.986,-0.030,-0.206,-1.562,-0.875,+0.625,-2, -2, 0, -2, 2, 1, -1, 1
1503612814548,-0.552,-0.452,+0.414,+0.566,+0.983,-0.037,-0.210,+0.062,-2.750,+0.250,-7, 0, 0, 1, 6, 2, -6, -3
1503612814570,-0.552,-0.452,+0.414,+0.566,+0.969,-0.057,-0.188,+0.000,-1.000,-0.125,1, 2, 1, -1, -6, -4, -5, -4
1503612814593,-0.552,-0.452,+0.413,+0.566,+0.962,-0.053,-0.187,+0.312,+0.312,-0.125,-1, -11, -3, -1, -4, -5, -4, -12
1503612814611,-0.552,-0.453,+0.413,+0.566,+0.981,-0.054,-0.198,+0.750,+1.250,+0.312,-3, -3, -3, -1, -1, -2, 3, 5
1503612814630,-0.552,-0.453,+0.414,+0.565,+0.985,-0.050,-0.198,-0.125,+1.125,-0.375,5, -10, -6, -3, -6, 1, 0, 6
1503612814653,-0.552,-0.453,+0.414,+0.565,+0.980,-0.047,-0.191,-0.438,+0.312,-0.688,5, -2, -2, 0, 0, 0, 6, -1
1503612814668,-0.552,-0.453,+0.414,+0.565,+0.975,-0.044,-0.197,-0.625,+0.312,+0.688,-8, 4, 2, -1, -10, -3, -2, 2
1503612814691,-0.552,-0.453,+0.414,+0.565,+0.979,-0.040,-0.193,-0.875,+0.750,+1.938,-5, 3, -1, 1, 0, -1, 0, 11
1503612814714,-0.552,-0.453,+0.414,+0.565,+0.998,-0.035,-0.189,-0.812,-1.625,+1.750,20, 10, 1, -1, 2, 2, -1, 5
1503612814728,-0.552,-0.453,+0.413,+0.566,+0.986,-0.046,-0.195,-0.875,-3.625,+1.875,-3, -1, 0, 1, -2, -3, 4, -2
1503612814751,-0.552,-0.453,+0.413,+0.566,+0.971,-0.060,-0.206,-1.500,-3.000,+2.562,-2, 3, 2, -1, 0, 0, -2, -7
1503612814773,-0.552,-0.453,+0.412,+0.566,+0.966,-0.057,-0.210,-2.188,+0.062,+2.188,-16, -6, -4, -2, -3, -3, -3, -3
1503612814788,-0.551,-0.453,+0.413,+0.566,+0.979,-0.055,-0.193,-2.312,+2.125,+1.500,1, -2, -2, -2, -1, 1, -2, -8
1503612814820,-0.551,-0.453,+0.413,+0.567,+0.995,-0.049,-0.200,-1.688,+0.312,+1.438,-1, -5, -1, -2, 0, -1, -2, 2
1503612814833,-0.551,-0.453,+0.412,+0.567,+0.983,-0.042,-0.203,-1.312,-3.812,+1.312,2, -2, 0, 0, -2, -2, -2, 3
1503612814848,-0.552,-0.452,+0.412,+0.567,+0.966,-0.046,-0.202,-1.188,-5.188,+1.438,-7, -2, -4, -1, 0, 0, -5, -7
1503612814870,-0.551,-0.452,+0.411,+0.568,+0.955,-0.056,-0.198,-1.188,-2.125,+2.562,-4, -5, 3, -1, 0, -3, -3, 2
1503612814893,-0.551,-0.452,+0.411,+0.568,+0.965,-0.055,-0.197,-0.688,+0.250,+2.250,6, -3, -4, -2, -3, 1, 1, -6
1503612814909,-0.551,-0.453,+0.411,+0.568,+0.991,-0.056,-0.199,-0.688,+0.938,+2.125,11, -3, -2, 1, -1, -2, -2, 9
1503612814930,-0.551,-0.453,+0.411,+0.568,+0.991,-0.054,-0.195,-1.312,-1.438,+1.750,-14, 2, 1, 0, -4, -1, -3, -4
1503612814955,-0.551,-0.453,+0.411,+0.568,+0.976,-0.054,-0.208,-0.562,-2.188,+1.125,-4, -3, -3, -1, 2, 3, 1, -2
1503612814969,-0.551,-0.453,+0.410,+0.568,+0.977,-0.055,-0.199,-0.438,-2.250,+1.062,1, -1, -3, 0, -4, 2, 1, -3
1503612814990,-0.551,-0.452,+0.410,+0.568,+0.978,-0.050,-0.209,-0.500,-1.688,+1.312,3, 0, 0, 1, 2, -1, 0, 1
1503612815019,-0.551,-0.452,+0.410,+0.569,+0.986,-0.051,-0.206,-0.875,-1.125,+1.375,-1, -5, -3, -2, -2, -1, 4, -5
1503612815029,-0.551,-0.452,+0.410,+0.569,+0.983,-0.044,-0.201,-1.500,-1.062,+1.438,16, 0, -2, -1, -10, -6, -4, 3
1503612815052,-0.551,-0.452,+0.410,+0.569,+0.980,-0.040,-0.202,-1.438,-0.312,+1.875,-6, -1, 0, -1, 4, 2, 0, 1
1503612815073,-0.551,-0.452,+0.410,+0.569,+0.997,-0.031,-0.201,-1.312,-1.438,+2.938,-4, 3, 1, 1, 0, -1, 1, 0
1503612815090,-0.551,-0.452,+0.409,+0.569,+0.999,-0.032,-0.204,-1.000,-3.688,+3.625,22, 6, -2, -1, -4, 0, -2, 4
1503612815110,-0.551,-0.452,+0.409,+0.570,+0.989,-0.041,-0.200,-1.062,-4.562,+4.750,-7, 2, 0, -2, 1, -3, -3, -3
1503612815133,-0.551,-0.452,+0.408,+0.571,+0.983,-0.027,-0.206,-1.250,-4.375,+5.875,7, -8, -5, -3, -3, -1, -5, -3
1503612815149,-0.551,-0.452,+0.408,+0.571,+0.994,-0.041,-0.212,+0.188,-0.938,+6.875,7, -1, -3, 0, 0, 0, -2, 0
1503612815170,-0.550,-0.453,+0.407,+0.571,+0.992,-0.061,-0.208,+0.250,+0.188,+6.438,-6, 0, 0, 0, 0, -1, -2, -2
1503612815193,-0.550,-0.453,+0.407,+0.572,+0.987,-0.060,-0.199,-0.125,-1.125,+6.938,-3, -6, 3, 1, 7, 5, 7, 2
1503612815209,-0.549,-0.454,+0.406,+0.572,+0.993,-0.055,-0.205,-0.375,-1.062,+7.438,-3, 1, 0, 0, -7, -1, -4, -1
1503612815230,-0.549,-0.454,+0.405,+0.573,+0.998,-0.053,-0.206,-0.188,-1.750,+8.688,-9, -2, -6, -3, -3, -3, -1, -6
1503612815253,-0.548,-0.455,+0.404,+0.574,+1.000,-0.061,-0.214,+0.188,-3.500,+10.750,-4, -7, -1, -2, -7, -1, -3, 2
1503612815269,-0.547,-0.455,+0.403,+0.575,+0.998,-0.065,-0.209,-0.938,-4.000,+11.938,-5, -2, -2, -4, -4, -3, -6, -8
1503612815292,-0.546,-0.455,+0.402,+0.577,+0.986,-0.057,-0.207,-0.812,-4.188,+13.062,20, 14, 5, 0, -7, -5, 2, 6
1503612815316,-0.545,-0.456,+0.401,+0.578,+0.995,-0.049,-0.205,-0.375,-2.812,+15.688,-5, -2, -1, 1, 1, 0, 2, 2
1503612815329,-0.544,-0.457,+0.399,+0.579,+1.010,-0.057,-0.208,+0.438,-0.812,+18.688,-2, 4, 0, -1, -2, -2, -2, 2
1503612815352,-0.542,-0.459,+0.398,+0.581,+1.000,-0.083,-0.210,+1.875,-0.250,+19.750,0, -3, -1, -3, 5, -3, 1, -1
1503612815373,-0.541,-0.460,+0.396,+0.582,+1.016,-0.085,-0.216,+2.562,-1.688,+20.562,-6, -2, 4, 3, 6, 2, 0, -3
1503612815389,-0.539,-0.462,+0.394,+0.584,+1.011,-0.086,-0.208,+3.000,-3.938,+21.562,16, -2, -5, -2, -10, -4, -5, 6
1503612815411,-0.538,-0.464,+0.391,+0.586,+0.988,-0.091,-0.215,+4.500,-3.312,+22.875,-7, 1, 1, -2, 0, 0, 1, -3
1503612815440,-0.536,-0.466,+0.389,+0.587,+0.974,-0.100,-0.223,+6.625,+1.750,+24.500,-4, -3, 1, -1, 0, 0, 5, 1
1503612817799,-0.416,-0.584,+0.497,+0.488,+0.878,-0.111,+0.283,-22.000,-46.688,+3.812,-8, -3, -1, -1, -4, -3, -3, -35
1503612817812,-0.417,-0.579,+0.497,+0.493,+0.878,-0.188,+0.328,-27.562,-38.938,-7.750,-3, 4, 0, 1, -1, 2, 5, -1
1503612817835,-0.417,-0.574,+0.497,+0.499,+0.994,-0.157,+0.254,-40.625,-32.812,-2.062,5, 7, 4, 4, 2, 1, -4, -2
1503612817856,-0.417,-0.568,+0.498,+0.506,+0.983,-0.023,+0.159,-42.688,-29.312,+3.750,2, 0, -3, -1, -1, 0, 2, 7
1503612817872,-0.417,-0.561,+0.499,+0.512,+0.979,-0.029,+0.159,-41.938,-31.500,+1.500,-6, -10, -5, -4, 2, 1, -3, -6
1503612817895,-0.418,-0.555,+0.499,+0.517,+0.969,-0.115,+0.167,-35.188,-35.500,-4.125,1, -2, -3, -1, -1, -1, 1, 3
1503612817918,-0.420,-0.549,+0.498,+0.523,+0.977,-0.192,+0.177,-33.938,-42.062,-10.625,24, 3, 1, -3, 0, -1, 2, 7
1503612817932,-0.422,-0.541,+0.499,+0.529,+0.962,-0.188,+0.157,-36.625,-44.000,-17.562,-14, 4, 3, -1, 0, -1, -1, 1
1503612817954,-0.425,-0.534,+0.499,+0.534,+0.956,-0.131,+0.124,-34.812,-40.938,-20.625,4, 1, 1, -1, 3, 1, 3, 4
1503612817977,-0.428,-0.526,+0.500,+0.538,+1.008,-0.124,+0.117,-30.000,-38.875,-22.312,-4, -2, -2, 0, 0, 0, -4, -2
1503612817994,-0.432,-0.519,+0.499,+0.543,+1.080,-0.153,+0.089,-27.062,-50.688,-19.125,-7, -2, -3, -3, -4, -4, -5, 0
1503612818014,-0.437,-0.510,+0.497,+0.549,+1.079,-0.184,+0.079,-28.625,-60.438,-22.000,-3, -7, 0, 1, -1, 1, -1, 1
1503612818038,-0.441,-0.501,+0.496,+0.555,+0.993,-0.171,+0.084,-32.312,-61.062,-27.188,-3, 2, -2, -3, -2, -3, -2, -4
1503612818051,-0.445,-0.493,+0.495,+0.561,+0.970,-0.133,+0.071,-31.375,-54.125,-20.938,3, -3, 0, -1, 1, 1, 1, 2
1503612818074,-0.447,-0.486,+0.493,+0.566,+1.026,-0.139,-0.000,-28.688,-43.688,-9.125,-2, 3, 0, 4, -2, -1, 3, 1
1503612818100,-0.448,-0.480,+0.493,+0.571,+1.046,-0.142,-0.025,-30.938,-36.125,-8.188,3, 0, -1, -3, -1, 1, 0, -1
1503612818111,-0.450,-0.473,+0.491,+0.577,+1.044,-0.140,-0.059,-28.875,-40.125,-10.625,5, 2, -1, -2, -2, -1, 2, 0
1503612818134,-0.451,-0.467,+0.490,+0.581,+1.009,-0.126,-0.032,-26.562,-39.000,-8.062,1, 4, 5, 1, 3, 1, -1, 1
1503612818156,-0.453,-0.461,+0.489,+0.586,+0.987,-0.109,-0.024,-25.938,-39.062,-9.938,18, -12, -6, -3, -3, -5, -7, -6
1503612818171,-0.455,-0.455,+0.488,+0.590,+0.967,-0.097,-0.042,-27.625,-36.438,-12.375,0, -9, -5, -1, -1, -1, -5, -4
1503612818199,-0.457,-0.449,+0.488,+0.593,+0.967,-0.064,-0.078,-25.875,-30.500,-12.062,-7, -3, -5, -3, -2, -1, -2, -4
1503612818216,-0.458,-0.444,+0.487,+0.597,+1.009,-0.057,-0.123,-20.812,-26.125,-6.188,-5, 10, 1, 0, 3, 2, 1, -6
1503612818235,-0.459,-0.439,+0.486,+0.600,+1.021,-0.062,-0.130,-20.312,-25.688,-5.562,-26, -9, -3, -1, -3, -3, -1, -1
1503612818254,-0.461,-0.434,+0.485,+0.603,+0.993,-0.046,-0.124,-19.188,-29.875,-8.625,-1, 8, 3, 0, -3, -3, -3, -2
1503612818276,-0.463,-0.429,+0.484,+0.606,+0.946,-0.062,-0.127,-15.875,-27.500,-8.375,2, -5, -2, 0, 3, 1, 2, 6
1503612818292,-0.464,-0.426,+0.483,+0.608,+0.947,-0.062,-0.150,-14.625,-20.125,-6.188,13, 2, 0, -2, -2, -1, -7, -2
1503612818314,-0.465,-0.422,+0.483,+0.610,+0.974,-0.037,-0.154,-15.438,-15.938,-5.688,1, 0, -3, -3, -5, -1, 4, -23
1503612818338,-0.466,-0.419,+0.483,+0.612,+0.985,-0.022,-0.157,-14.562,-15.438,-4.375,10, 2, 1, 0, 0, 1, 2, 32
1503612818351,-0.467,-0.416,+0.482,+0.614,+0.988,-0.030,-0.172,-12.688,-16.938,-2.500,-9, 2, 5, -1, 3, 0, 3, 12
1503612818374,-0.467,-0.413,+0.482,+0.616,+0.989,-0.045,-0.156,-12.188,-17.750,-3.562,-16, -3, -5, -3, -2, -2, -5, -8
1503612818398,-0.468,-0.410,+0.481,+0.618,+0.978,-0.040,-0.142,-11.562,-18.062,-5.188,7, 4, -1, 3, 8, 4, 5, 1
1503612818411,-0.470,-0.407,+0.481,+0.619,+0.955,-0.015,-0.164,-9.438,-14.562,-7.250,-3, -2, 0, -3, -4, -3, 1, 3
1503612818434,-0.471,-0.404,+0.481,+0.619,+0.951,-0.015,-0.163,-7.625,-11.375,-9.125,-9, -3, -5, -3, -5, -11, -11, -20
1503612818456,-0.472,-0.402,+0.481,+0.619,+0.973,-0.021,-0.164,-7.000,-7.062,-8.938,-20, -11, -3, 1, 4, 1, 0, 3
1503612818473,-0.473,-0.400,+0.482,+0.620,+0.980,-0.027,-0.185,-6.688,-3.188,-6.625,-1, 1, -1, -1, -10, -4, 3, -2
1503612818498,-0.474,-0.399,+0.482,+0.620,+0.967,-0.012,-0.198,-6.250,-2.188,-6.438,-2, 2, -2, -3, -2, -4, -4, -8
1503612818517,-0.474,-0.398,+0.483,+0.620,+0.970,-0.013,-0.167,-5.000,-1.188,-5.812,10, 2, -2, -1, 0, -6, -3, 5
1503612818532,-0.475,-0.397,+0.483,+0.619,+1.001,-0.019,-0.150,-3.188,-3.438,-4.562,-9, -6, -3, 0, -6, -2, 8, -5
1503612818554,-0.475,-0.396,+0.483,+0.620,+1.030,-0.030,-0.151,-2.562,-8.438,-1.875,-11, -12, -5, -6, -12, -6, -13, -30
1503612818577,-0.476,-0.395,+0.482,+0.621,+1.020,-0.032,-0.172,-4.500,-13.812,+0.375,1, 1, -1, 0, -1, 2, 2, 14
1503612818593,-0.476,-0.393,+0.480,+0.623,+0.983,-0.026,-0.185,-5.750,-13.750,+1.562,-1, 1, 1, 0, 6, -2, 1, -1
1503612818618,-0.476,-0.393,+0.479,+0.624,+0.966,-0.029,-0.194,-3.625,-6.938,+5.375,4, 4, -1, 4, 6, 8, 5, 13
1503612818636,-0.475,-0.393,+0.479,+0.624,+0.991,-0.044,-0.171,-2.438,+0.062,+5.438,18, 10, 4, -1, -4, -3, -3, -29
1503612818651,-0.475,-0.393,+0.479,+0.625,+1.028,-0.047,-0.161,-3.188,-2.562,+2.438,-12, 1, -4, -4, -1, -6, -2, 1
1503612818674,-0.475,-0.393,+0.478,+0.626,+1.021,-0.033,-0.186,-2.812,-7.438,+1.438,-16, -5, -5, -1, -1, -4, -4, 11
1503612818701,-0.476,-0.392,+0.478,+0.626,+0.979,-0.019,-0.195,-2.250,-8.500,+0.000,-3, -3, 2, 0, 5, 2, -9, -45
1503612818711,-0.476,-0.391,+0.477,+0.627,+0.936,-0.016,-0.208,-1.125,-4.062,+0.312,-8, -12, -6, -4, -4, -1, -1, 5
1503612818735,-0.476,-0.392,+0.477,+0.626,+0.948,-0.021,-0.197,+0.438,+4.875,+1.938,-12, -10, -6, -2, 0, -3, -6, 9
1503612818757,-0.475,-0.393,+0.478,+0.626,+0.986,-0.033,-0.175,+1.625,+6.812,+2.312,5, -3, -3, -3, 1, 2, 0, -2
1503612818773,-0.475,-0.393,+0.478,+0.626,+1.015,-0.025,-0.186,+0.875,+0.688,+2.812,0, -1, -2, -4, -17, -3, -3, 5
1503612818794,-0.475,-0.393,+0.477,+0.626,+0.986,-0.008,-0.187,+0.125,-7.125,+4.062,-3, -5, -1, 1, -3, -5, 2, 3
1503612818816,-0.476,-0.392,+0.475,+0.628,+0.943,-0.015,-0.201,+0.500,-11.312,+5.250,17, 14, 7, -1, -3, -1, 0, 5
1503612818833,-0.476,-0.393,+0.473,+0.629,+0.922,-0.053,-0.196,+2.438,-6.750,+6.312,-2, -2, -1, 1, -1, -2, -1, -5
1503612818854,-0.475,-0.394,+0.473,+0.629,+0.975,-0.068,-0.173,-0.188,+0.812,+4.750,13, 4, 2, 5, 10, 4, 3, 8
1503612818876,-0.475,-0.394,+0.473,+0.629,+1.001,-0.061,-0.186,-1.750,-3.438,+1.875,12, 7, 6, 3, -6, -2, 4, 43
