Timestamp,Orientation X,Orientation Y,Orientation Z,Orientation W,Accelerometer X,Accelerometer Y,Accelerometer Z,Gyroscope X,Gyroscope Y,Gyroscope Z,EMG1,EMG2,EMG3,EMG4,EMG5,EMG6,EMG7,EMG8,Roll,Yaw
1503612761293,-0.447,-0.268,+0.487,+0.701,+0.995,+0.078,-0.331,-6.000,-4.062,+3.312,4, -2, -3, 0, 0, -1, 1, -1,-1.0956170358753305,1.1781365812219577
1503612761308,-0.448,-0.267,+0.486,+0.701,+0.938,+0.062,-0.383,-2.938,-5.250,+0.375,52, 9, 1, 0, 2, -2, 0, 11,-1.0962100140529634,1.1746685236482703
1503612761330,-0.448,-0.268,+0.487,+0.700,+0.817,+0.077,-0.388,+0.688,+17.625,-3.188,-5, -2, 1, 1, 7, -2, -4, -4,-1.0974439394110944,1.1779686359706207
1503612761353,-0.447,-0.270,+0.491,+0.697,+0.824,+0.071,-0.295,+3.062,+32.562,-5.938,-10, -9, -6, -2, 3, 2, -1, 0,-1.0977787178348357,1.1887039450859516
1503612761368,-0.447,-0.273,+0.495,+0.694,+0.982,+0.068,-0.263,+4.875,+26.938,-0.562,8, 1, -2, -4, -6, -5, -2, 0,-1.1018001740678416,1.2010352616377338
1503612761390,-0.446,-0.275,+0.496,+0.692,+1.079,+0.054,-0.278,+3.875,+11.125,+0.000,-10, -19, -2, -1, -2, 1, 3, -1,-1.1018723179555905,1.2051686340095822
1503612761413,-0.447,-0.275,+0.494,+0.694,+0.965,+0.042,-0.249,+3.312,-20.750,+1.438,-27, 30, 5, 2, 3, 0, 0, -9,-1.1044049309010568,1.2013797305993847
1503612761428,-0.449,-0.273,+0.490,+0.696,+0.911,+0.075,-0.324,+4.188,-30.438,-1.188,-3, -17, -9, -5, 2, -1, -4, -5,-1.1058355903119197,1.1904309033390852
1503612761450,-0.450,-0.272,+0.489,+0.696,+0.948,+0.103,-0.331,+0.250,-9.188,-1.000,5, -1, -2, -1, 7, 6, 4, 7,-1.1064103216819225,1.1869459745896307
1503612761473,-0.450,-0.271,+0.487,+0.697,+0.948,+0.095,-0.301,-3.812,-14.438,+3.312,3, -6, -3, -1, 2, 1, -3, 2,-1.1049152677598422,1.181290015824051
1503612761488,-0.451,-0.270,+0.485,+0.699,+0.920,+0.035,-0.378,+2.438,-11.625,+1.938,0, 13, 5, 4, -12, -6, -4, 0,-1.1060744388212462,1.176224816433555
1503612761510,-0.451,-0.270,+0.485,+0.699,+0.918,+0.042,-0.334,+0.000,-3.375,-0.750,6, 11, 2, 0, -1, -1, -1, 2,-1.1060744388212462,1.176224816433555
1503612761533,-0.451,-0.270,+0.484,+0.699,+0.921,+0.085,-0.346,-2.000,-4.438,+1.188,-4, -7, -5, -2, 7, 1, -4, -16,-1.1058318875909745,1.1738930332536563
1503612761548,-0.451,-0.270,+0.484,+0.700,+0.920,+0.054,-0.340,+0.250,-1.812,+1.250,-6, -10, -2, 2, 13, -1, 2, 3,-1.106236906686044,1.1742677422355619
1503612761570,-0.451,-0.270,+0.483,+0.700,+0.930,+0.051,-0.328,-2.125,-2.438,+2.500,2, -6, -1, 0, 5, 1, -4, -4,-1.1059945126698418,1.1719386367820153
1503612761593,-0.451,-0.270,+0.484,+0.700,+0.956,+0.084,-0.340,-2.500,+2.812,+0.938,3, -12, -4, 0, -5, 5, 3, 2,-1.106236906686044,1.1742677422355619
1503612761608,-0.451,-0.270,+0.484,+0.700,+0.956,+0.080,-0.338,-1.375,-0.750,+0.312,5, 2, 2, -4, 3, 1, -2, 5,-1.106236906686044,1.1742677422355619
1503612761631,-0.451,-0.270,+0.484,+0.700,+0.929,+0.074,-0.337,-0.125,-2.500,+0.188,-2, -20, -8, -3, -1, -3, 0, -2,-1.106236906686044,1.1742677422355619
1503612761653,-0.451,-0.270,+0.484,+0.700,+0.923,+0.060,-0.344,+0.000,+2.312,-0.750,4, 8, 0, 2, -1, -5, -10, -18,-1.106236906686044,1.1742677422355619
1503612761668,-0.451,-0.270,+0.484,+0.699,+0.945,+0.058,-0.342,-2.625,+5.812,-0.312,1, 2, -2, -2, -3, -6, -1, 3,-1.1058318875909745,1.1738930332536563
1503612761690,-0.451,-0.270,+0.485,+0.699,+0.937,+0.062,-0.329,-3.812,+1.750,+0.125,2, -4, -4, -2, 5, 0, -1, -1,-1.1060744388212462,1.176224816433555
1503612761717,-0.450,-0.270,+0.485,+0.699,+0.934,+0.070,-0.340,-2.688,-0.250,+0.438,-1, -3, -2, -1, -2, -4, 2, 3,-1.1038321290224717,1.176016771255796
1503612761728,-0.450,-0.270,+0.485,+0.699,+0.925,+0.072,-0.342,-3.062,+1.625,+0.625,-1, 1, 3, 1, -3, -5, -4, -8,-1.1038321290224717,1.176016771255796
1503612761759,-0.450,-0.270,+0.485,+0.699,+0.933,+0.067,-0.335,-2.062,+1.750,+1.125,0, 5, 1, -2, -6, -1, 1, -2,-1.1038321290224717,1.176016771255796
1503612761783,-0.450,-0.270,+0.486,+0.699,+0.935,+0.070,-0.341,-1.875,+4.062,+0.188,-4, -7, -1, 0, 4, 3, -7, 0,-1.1040756362787363,1.1783509869765876
1503612761789,-0.449,-0.270,+0.487,+0.699,+0.925,+0.066,-0.334,-2.438,+7.000,+0.125,-1, 0, 1, -1, 3, -1, -3, -2,-1.102080586760886,1.1804806494906048
1503612761812,-0.449,-0.271,+0.488,+0.698,+0.924,+0.063,-0.319,-2.250,+6.812,+0.812,0, -2, -3, -4, 1, 0, -2, -1,-1.1033270392651597,1.1837919912240467
1503612761833,-0.448,-0.271,+0.489,+0.698,+0.944,+0.065,-0.319,-1.250,+7.250,+1.562,18, 3, 2, 0, -1, 1, 4, 6,-1.1013376265378132,1.1859269918493223
1503612761849,-0.448,-0.272,+0.489,+0.697,+0.953,+0.065,-0.318,+0.438,+5.375,-0.250,13, -1, 0, -2, 6, -1, -2, 0,-1.102345198674186,1.1869046985788283
1503612761870,-0.448,-0.272,+0.490,+0.696,+0.954,+0.061,-0.313,-0.688,+2.938,-0.688,-9, 11, 4, 1, -1, 0, -2, -10,-1.102185908198356,1.1888798389101056
1503612761893,-0.448,-0.273,+0.490,+0.696,+0.949,+0.069,-0.295,-1.062,+1.562,+0.562,-4, -6, -2, -2, -3, 2, 1, 6,-1.1036036851816575,1.1902278092690914
1503612761908,-0.448,-0.273,+0.490,+0.696,+0.949,+0.069,-0.310,+0.062,-2.250,+0.688,-8, -5, -5, -2, -1, 0, -1, 0,-1.1036036851816575,1.1902278092690914
1503612761930,-0.449,-0.273,+0.490,+0.696,+0.953,+0.077,-0.325,+0.375,-2.688,+0.000,-6, -4, -2, -2, 1, 1, 1, -4,-1.1058355903119197,1.1904309033390852
1503612761954,-0.449,-0.273,+0.489,+0.696,+0.928,+0.062,-0.324,+0.562,-2.625,+0.438,-28, -15, 0, -1, -1, 0, -3, -3,-1.105590296584331,1.1880914681251438
1503612761968,-0.449,-0.272,+0.488,+0.697,+0.914,+0.072,-0.327,-0.125,-4.875,+0.938,2, -6, -2, -1, -2, -2, -3, -1,-1.1043336869566949,1.1847702265314841
1503612761990,-0.449,-0.273,+0.488,+0.697,+0.909,+0.072,-0.338,+0.750,+3.250,-0.062,1, 5, -1, -3, 0, 0, -1, -4,-1.1057484621299345,1.1861202986830883
1503612762013,-0.449,-0.273,+0.489,+0.696,+0.930,+0.067,-0.327,+0.438,+7.688,+1.250,21, 10, 3, 3, 2, 3, 4, 8,-1.105590296584331,1.1880914681251438
1503612762028,-0.449,-0.274,+0.490,+0.695,+0.931,+0.067,-0.339,+2.250,+9.562,+0.312,-2, -3, -5, -3, -3, -4, -3, 0,-1.1068521103291764,1.1914181234964036
1503612762051,-0.448,-0.276,+0.491,+0.694,+0.984,+0.051,-0.298,-0.625,+11.688,+1.438,14, 4, 0, 1, 5, 4, 4, 7,-1.1073171801967063,1.1959044106728542
1503612762073,-0.448,-0.276,+0.492,+0.694,+0.984,+0.059,-0.292,-2.188,+3.000,+0.562,9, 1, 0, -4, -5, -1, -1, 2,-1.107564291763833,1.1982451556073022
1503612762089,-0.448,-0.276,+0.491,+0.694,+0.937,+0.091,-0.302,+0.688,-6.250,-1.000,-12, -4, -4, -4, -1, 0, 1, -4,-1.1073171801967063,1.1959044106728542
1503612762110,-0.449,-0.275,+0.491,+0.694,+0.920,+0.073,-0.322,+1.500,-2.812,-0.188,-8, 4, 2, 0, 0, -3, -3, -8,-1.1081191162938306,1.194750184573679
1503612762133,-0.449,-0.276,+0.491,+0.694,+0.938,+0.056,-0.307,+0.250,+2.812,+0.125,-16, 1, -3, -4, -5, -3, -8, -8,-1.109545559685155,1.1961068127846297
1503612762149,-0.449,-0.276,+0.492,+0.693,+0.952,+0.061,-0.316,-0.625,+4.125,-0.750,-2, -7, 1, 1, 0, -2, -3, -4,-1.1093913024278186,1.198087642761521
1503612762170,-0.449,-0.276,+0.492,+0.693,+0.954,+0.061,-0.307,-0.938,+1.062,-0.438,-1, -1, -2, -3, -2, -1, 0, 0,-1.1093913024278186,1.198087642761521
1503612762193,-0.449,-0.276,+0.492,+0.693,+0.949,+0.057,-0.316,-0.938,-2.375,+1.188,2, -3, -5, -1, 0, 0, 0, 2,-1.1093913024278186,1.198087642761521
1503612762208,-0.449,-0.276,+0.491,+0.694,+0.951,+0.064,-0.305,-1.125,-4.688,+2.125,3, -8, -2, -1, -1, 0, -1, -1,-1.109545559685155,1.1961068127846297
1503612762230,-0.449,-0.276,+0.491,+0.694,+0.948,+0.066,-0.312,-3.625,-5.375,+1.188,-4, 6, 4, -3, -4, 0, -2, -3,-1.109545559685155,1.1961068127846297
1503612762253,-0.449,-0.275,+0.490,+0.695,+0.943,+0.077,-0.315,-2.812,-6.125,+0.438,1, -3, -1, 1, -1, -11, 0, 2,-1.1082746739783438,1.1927725800808915
1503612762268,-0.449,-0.274,+0.489,+0.695,+0.924,+0.069,-0.326,-1.250,-5.312,+0.438,-4, -6, -1, 2, 7, 3, 2, -2,-1.1066063139670776,1.1890788606700264
1503612762290,-0.449,-0.274,+0.489,+0.696,+0.925,+0.076,-0.331,-1.062,-2.875,+1.062,-4, -4, -2, -5, -13, 5, 1, -1,-1.1070089707908266,1.1894437392714339
1503612762315,-0.449,-0.274,+0.489,+0.696,+0.928,+0.062,-0.333,-1.438,+1.812,+0.688,-1, 9, 0, 0, 3, -5, 0, 1,-1.1070089707908266,1.1894437392714339
1503612762328,-0.449,-0.274,+0.489,+0.695,+0.932,+0.063,-0.316,-1.500,+1.438,+0.688,2, -4, -4, 1, -4, 1, -1, -2,-1.1066063139670776,1.1890788606700264
1503612762352,-0.449,-0.274,+0.489,+0.695,+0.933,+0.065,-0.323,-0.125,+0.125,+1.250,-1, 2, 0, 0, 4, 6, 6, -2,-1.1066063139670776,1.1890788606700264
1503612762373,-0.449,-0.274,+0.489,+0.695,+0.934,+0.068,-0.320,-0.500,+1.000,+0.625,5, -5, -6, -1, 6, -3, -5, -1,-1.1066063139670776,1.1890788606700264
1503612762388,-0.449,-0.275,+0.490,+0.695,+0.951,+0.071,-0.317,-1.875,+2.562,+1.062,-1, -2, -1, -1, 11, -4, 0, -1,-1.1082746739783438,1.1927725800808915
1503612762410,-0.449,-0.275,+0.490,+0.695,+0.947,+0.070,-0.308,-1.250,+2.688,+1.250,-6, -8, -2, -2, -4, -5, 3, -1,-1.1082746739783438,1.1927725800808915
1503612762433,-0.448,-0.275,+0.490,+0.695,+0.938,+0.054,-0.317,-1.188,+2.188,+0.500,9, 1, 2, -1, -12, -6, -7, -4,-1.1060446677574585,1.1925691851209692
1503612762450,-0.448,-0.275,+0.491,+0.695,+0.945,+0.063,-0.316,-2.812,+1.562,+0.250,-4, 7, 4, 0, -1, 7, -1, 0,-1.106291529849893,1.1949090554620196
1503612762470,-0.448,-0.275,+0.491,+0.695,+0.941,+0.066,-0.318,-2.312,+1.188,+0.188,-4, -3, -1, -2, 1, 0, 4, 3,-1.106291529849893,1.1949090554620196
1503612762493,-0.448,-0.275,+0.491,+0.695,+0.941,+0.061,-0.326,-2.500,+0.438,+0.250,-2, -1, -1, -2, -3, -1, -4, 0,-1.106291529849893,1.1949090554620196
1503612762508,-0.448,-0.275,+0.491,+0.695,+0.941,+0.062,-0.317,-3.000,+1.062,-0.250,-1, -4, 1, -2, 1, -1, -2, -2,-1.106291529849893,1.1949090554620196
1503612762530,-0.448,-0.275,+0.492,+0.695,+0.938,+0.069,-0.309,-2.875,+1.375,+0.062,1, -1, -2, 0, 1, 1, -3, -2,-1.1065381489396848,1.1972499706914959
1503612762553,-0.448,-0.274,+0.492,+0.695,+0.938,+0.070,-0.314,-2.062,+1.062,+0.312,-3, -2, -1, -2, -3, 0, -9, -2,-1.1051138920762147,1.1958990356527939
1503612762568,-0.447,-0.274,+0.492,+0.695,+0.946,+0.061,-0.312,-2.125,+0.500,+0.438,-1, 5, 3, -3, -7, -4, 0, -2,-1.1028864317783365,1.1956980173239617
1503612762590,-0.447,-0.274,+0.492,+0.695,+0.943,+0.066,-0.315,-2.062,+0.375,-0.188,-2, 0, -4, -2, -1, 0, -1, 0,-1.1028864317783365,1.1956980173239617
1503612762613,-0.447,-0.274,+0.492,+0.695,+0.935,+0.069,-0.314,-2.000,+0.750,+0.375,-1, -7, -3, -2, 0, -3, -1, -2,-1.1028864317783365,1.1956980173239617
1503612762628,-0.447,-0.275,+0.492,+0.694,+0.938,+0.069,-0.303,-0.562,+1.250,+1.000,2, -1, -2, 0, 1, -1, 2, 4,-1.1039092225638718,1.1966889255048685
1503612762652,-0.447,-0.275,+0.492,+0.694,+0.949,+0.065,-0.313,+0.000,+1.500,+1.000,-2, -1, -2, -1, 0, 0, 3, -2,-1.1039092225638718,1.1966889255048685
1503612762673,-0.447,-0.275,+0.493,+0.694,+0.955,+0.068,-0.319,-1.000,+2.312,+0.375,2, 4, -1, -1, 1, 1, -1, -1,-1.104157198682402,1.1990338167458219
1503612762689,-0.447,-0.275,+0.493,+0.694,+0.940,+0.066,-0.309,-1.562,+1.750,-0.062,-3, 4, 2, 0, 2, -1, 0, -1,-1.104157198682402,1.1990338167458219
1503612762711,-0.447,-0.275,+0.493,+0.694,+0.948,+0.068,-0.306,-1.438,+0.438,+0.125,0, -2, -1, -1, -2, -2, -1, 0,-1.104157198682402,1.1990338167458219
1503612762733,-0.447,-0.275,+0.493,+0.694,+0.949,+0.068,-0.312,-1.312,+0.500,+0.375,-2, -4, -3, -2, -3, -1, -3, -3,-1.104157198682402,1.1990338167458219
1503612762752,-0.447,-0.275,+0.493,+0.694,+0.945,+0.067,-0.303,-1.812,+0.188,+0.438,-2, -4, 1, 1, 0, -1, 0, 0,-1.104157198682402,1.1990338167458219
1503612762771,-0.447,-0.275,+0.493,+0.694,+0.947,+0.062,-0.304,-1.812,-0.438,+0.875,-3, -7, -2, -2, -1, -2, -1, -2,-1.104157198682402,1.1990338167458219
1503612762793,-0.447,-0.275,+0.493,+0.694,+0.939,+0.069,-0.308,-0.750,-1.125,+0.500,0, -2, 1, -1, 0, 1, -3, 0,-1.104157198682402,1.1990338167458219
1503612762809,-0.447,-0.275,+0.493,+0.694,+0.935,+0.067,-0.312,-0.500,-1.500,+0.938,1, 1, 0, -1, 0, 1, 3, -2,-1.104157198682402,1.1990338167458219
1503612762831,-0.447,-0.275,+0.492,+0.694,+0.943,+0.062,-0.321,-0.688,+0.062,+0.500,1, -4, -3, 0, 0, -2, -2, -1,-1.1039092225638718,1.1966889255048685
1503612762853,-0.447,-0.275,+0.493,+0.694,+0.943,+0.067,-0.317,-1.438,+1.188,+0.188,-2, 0, -1, -1, -1, 0, 1, 0,-1.104157198682402,1.1990338167458219
1503612762869,-0.447,-0.275,+0.493,+0.694,+0.949,+0.071,-0.314,-1.625,+0.375,+0.250,2, 4, -2, -3, -2, 0, -3, -3,-1.104157198682402,1.1990338167458219
1503612762891,-0.447,-0.275,+0.493,+0.694,+0.944,+0.070,-0.316,-1.500,+0.250,-0.062,0, -2, 2, 0, 0, -2, 1, 0,-1.104157198682402,1.1990338167458219
1503612762914,-0.447,-0.275,+0.493,+0.694,+0.944,+0.070,-0.310,-2.062,-0.500,+0.562,4, -3, 0, 0, -2, 1, -1, 2,-1.104157198682402,1.1990338167458219
1503612762929,-0.447,-0.275,+0.493,+0.694,+0.942,+0.067,-0.307,-1.375,+0.375,+0.750,-2, -2, -2, 0, -1, -3, -2, -2,-1.104157198682402,1.1990338167458219
1503612762953,-0.447,-0.275,+0.493,+0.694,+0.943,+0.063,-0.314,-0.750,+0.312,+0.750,-5, -1, -1, -2, -1, 0, 1, 0,-1.104157198682402,1.1990338167458219
1503612762973,-0.447,-0.275,+0.493,+0.694,+0.944,+0.064,-0.314,-0.875,+0.812,+0.562,-2, 2, 1, -1, 0, -2, -2, 0,-1.104157198682402,1.1990338167458219
1503612762989,-0.447,-0.275,+0.493,+0.694,+0.951,+0.070,-0.313,-0.875,+0.438,+0.062,-5, -5, -1, -1, 1, 3, 0, -1,-1.104157198682402,1.1990338167458219
1503612763011,-0.447,-0.275,+0.493,+0.694,+0.938,+0.067,-0.305,-1.500,+0.000,+0.438,0, 3, -1, -1, 0, -3, 1, 0,-1.104157198682402,1.1990338167458219
1503612763033,-0.447,-0.275,+0.493,+0.694,+0.945,+0.067,-0.304,-1.500,-0.875,+1.000,-1, -8, -3, -3, -3, -2, -1, 0,-1.104157198682402,1.1990338167458219
1503612763049,-0.447,-0.275,+0.493,+0.694,+0.940,+0.064,-0.319,-1.188,-0.750,+0.938,-3, -1, -3, 0, -2, 0, 0, 0,-1.104157198682402,1.1990338167458219
1503612763071,-0.447,-0.275,+0.493,+0.694,+0.944,+0.066,-0.316,-1.625,-0.500,+0.750,3, 4, 2, -1, 0, -1, -2, -1,-1.104157198682402,1.1990338167458219
1503612763093,-0.447,-0.275,+0.493,+0.694,+0.946,+0.062,-0.311,-1.188,-0.062,+0.562,3, 5, 0, -1, -1, -1, -1, 2,-1.104157198682402,1.1990338167458219
1503612763115,-0.447,-0.275,+0.493,+0.694,+0.937,+0.065,-0.313,-1.438,+0.188,+0.062,-2, -1, -1, -1, 0, 1, 0, 0,-1.104157198682402,1.1990338167458219
1503612763131,-0.447,-0.275,+0.493,+0.694,+0.946,+0.068,-0.312,-1.000,-0.125,+0.250,0, 1, -2, -1, -2, 0, -1, -1,-1.104157198682402,1.1990338167458219
1503612763154,-0.447,-0.275,+0.493,+0.694,+0.943,+0.068,-0.311,-1.188,+0.062,+0.750,-1, -3, -3, 1, 1, 0, -1, -1,-1.104157198682402,1.1990338167458219
1503612763169,-0.447,-0.275,+0.493,+0.694,+0.945,+0.067,-0.307,-1.000,-1.125,+0.750,-1, -1, -1, -1, -2, 0, -2, -2,-1.104157198682402,1.1990338167458219
1503612763191,-0.447,-0.275,+0.492,+0.694,+0.953,+0.066,-0.314,-0.812,-1.500,+0.812,-1, -4, -5, -3, 0, -1, -1, -1,-1.1039092225638718,1.1966889255048685
1503612763221,-0.447,-0.275,+0.492,+0.694,+0.937,+0.068,-0.315,-1.312,-0.938,+0.312,-1, 0, -2, -2, -1, 0, 0, 0,-1.1039092225638718,1.1966889255048685
1503612763230,-0.447,-0.275,+0.492,+0.694,+0.942,+0.064,-0.309,-1.000,-1.625,+0.688,0, 0, -1, -1, -1, 0, -1, 1,-1.1039092225638718,1.1966889255048685
1503612763251,-0.447,-0.275,+0.492,+0.694,+0.941,+0.063,-0.311,-0.750,-0.875,+0.188,2, 1, 3, 0, -1, -1, -2, 0,-1.1039092225638718,1.1966889255048685
1503612763273,-0.447,-0.275,+0.492,+0.694,+0.942,+0.064,-0.310,-1.188,-0.750,+1.000,1, 6, 3, 1, 0, -1, -1, -2,-1.1039092225638718,1.1966889255048685
1503612763293,-0.447,-0.275,+0.492,+0.694,+0.942,+0.064,-0.319,-0.750,-0.188,+0.250,-2, -7, -2, 0, 0, 0, -3, -2,-1.1039092225638718,1.1966889255048685
1503612763311,-0.447,-0.275,+0.492,+0.694,+0.940,+0.062,-0.317,-1.062,-0.250,+0.375,-2, -2, -3, -1, -1, -2, 1, 0,-1.1039092225638718,1.1966889255048685
1503612763333,-0.447,-0.275,+0.492,+0.694,+0.947,+0.069,-0.317,-0.875,-0.250,+0.250,-2, 4, 0, 0, -1, -2, -3, -4,-1.1039092225638718,1.1966889255048685
1503612763349,-0.447,-0.275,+0.492,+0.694,+0.942,+0.065,-0.311,-1.062,+0.062,+0.812,-1, 0, -1, -2, 0, 0, 1, 1,-1.1039092225638718,1.1966889255048685
1503612763371,-0.447,-0.275,+0.492,+0.694,+0.945,+0.063,-0.311,-0.875,-0.188,+0.812,-2, -2, -1, 0, -1, -2, 1, 0,-1.1039092225638718,1.1966889255048685
1503612763393,-0.447,-0.275,+0.492,+0.694,+0.943,+0.065,-0.306,-0.438,-0.562,+0.812,0, -6, -3, -1, -2, -2, 0, 0,-1.1039092225638718,1.1966889255048685
1503612763409,-0.447,-0.275,+0.492,+0.694,+0.937,+0.064,-0.306,-1.000,-0.500,+0.438,0, -5, -3, -1, -2, 0, -1, -1,-1.1039092225638718,1.1966889255048685
1503612763432,-0.447,-0.275,+0.492,+0.694,+0.949,+0.069,-0.315,-1.062,-0.812,+0.438,1, 2, -1, -1, 1, 1, -2, 0,-1.1039092225638718,1.1966889255048685
1503612763453,-0.447,-0.275,+0.492,+0.694,+0.943,+0.064,-0.318,-0.500,+0.188,+0.438,-3, 2, 2, 0, -1, -3, 0, -2,-1.1039092225638718,1.1966889255048685
1503612763469,-0.447,-0.275,+0.492,+0.694,+0.939,+0.063,-0.309,-1.688,+0.000,+0.312,0, 2, -2, -1, 0, -1, -1, 0,-1.1039092225638718,1.1966889255048685
1503612763492,-0.447,-0.275,+0.492,+0.694,+0.942,+0.066,-0.312,-1.250,+0.188,+0.312,1, 0, -1, -1, -1, 0, -1, 0,-1.1039092225638718,1.1966889255048685
1503612763513,-0.447,-0.275,+0.492,+0.694,+0.942,+0.063,-0.313,-1.125,+0.438,+0.688,-3, -3, -3, -2, -2, -2, 1, -1,-1.1039092225638718,1.1966889255048685
1503612763535,-0.447,-0.275,+0.492,+0.694,+0.947,+0.062,-0.316,-1.438,+0.750,+0.375,-1, 1, 0, 0, -2, -2, -1, -1,-1.1039092225638718,1.1966889255048685
1503612763551,-0.447,-0.275,+0.492,+0.694,+0.945,+0.069,-0.308,-1.312,+0.938,+0.188,6, 7, 3, -1, 0, 0, 0, -3,-1.1039092225638718,1.1966889255048685
1503612763573,-0.447,-0.275,+0.492,+0.694,+0.942,+0.071,-0.309,-1.000,-0.438,+0.562,-1, -5, -2, -1, 0, 1, 0, 0,-1.1039092225638718,1.1966889255048685
1503612763595,-0.447,-0.275,+0.492,+0.694,+0.952,+0.064,-0.321,-0.688,-0.500,+0.438,-3, -2, 2, 0, -1, 1, -2, -3,-1.1039092225638718,1.1966889255048685
1503612763612,-0.447,-0.275,+0.492,+0.694,+0.943,+0.064,-0.315,-1.500,+0.000,+0.250,0, 2, -2, -1, -1, -1, 0, -1,-1.1039092225638718,1.1966889255048685
1503612763634,-0.447,-0.275,+0.492,+0.694,+0.938,+0.065,-0.307,-1.062,-1.438,+0.125,-2, -2, -3, -3, -2, -2, -2, -2,-1.1039092225638718,1.1966889255048685
1503612763655,-0.447,-0.275,+0.492,+0.694,+0.936,+0.068,-0.319,-0.938,+0.000,+0.812,-1, 1, -1, 0, -2, 0, -2, -1,-1.1039092225638718,1.1966889255048685
1503612763672,-0.447,-0.275,+0.492,+0.694,+0.943,+0.064,-0.314,-1.188,+1.125,+0.562,-2, 0, 1, -2, 0, -4, 3, -1,-1.1039092225638718,1.1966889255048685
1503612763693,-0.447,-0.275,+0.492,+0.694,+0.949,+0.061,-0.313,-1.562,+0.625,+0.375,1, -3, -3, -1, 0, 0, -1, -1,-1.1039092225638718,1.1966889255048685
1503612763715,-0.447,-0.275,+0.492,+0.694,+0.937,+0.068,-0.310,-1.438,+0.250,+0.062,-1, 3, -1, -1, -2, -2, -3, -4,-1.1039092225638718,1.1966889255048685
1503612763738,-0.447,-0.275,+0.492,+0.694,+0.947,+0.073,-0.304,-1.125,-0.812,+0.625,0, 1, 0, -2, 0, 1, -2, -1,-1.1039092225638718,1.1966889255048685
1503612763753,-0.447,-0.275,+0.492,+0.694,+0.943,+0.068,-0.310,-0.625,-0.250,+0.875,-1, -2, -1, -1, -2, -2, 0, 0,-1.1039092225638718,1.1966889255048685
1503612763775,-0.447,-0.275,+0.492,+0.694,+0.939,+0.061,-0.315,-1.000,-0.188,+0.625,-1, -2, -2, 0, 0, 0, -2, -2,-1.1039092225638718,1.1966889255048685
1503612763793,-0.447,-0.275,+0.492,+0.694,+0.950,+0.066,-0.310,-0.812,-1.000,+0.562,-1, 1, 0, -1, -1, -2, -1, 0,-1.1039092225638718,1.1966889255048685
1503612763813,-0.447,-0.275,+0.492,+0.694,+0.938,+0.061,-0.314,-1.312,-0.062,+0.562,1, 4, 0, -1, 0, 0, 0, 2,-1.1039092225638718,1.1966889255048685
1503612763843,-0.447,-0.275,+0.492,+0.694,+0.943,+0.062,-0.306,-1.375,-0.500,+0.438,0, -3, -1, 0, -2, -1, 0, -2,-1.1039092225638718,1.1966889255048685
1503612763851,-0.447,-0.275,+0.492,+0.694,+0.938,+0.067,-0.311,-1.062,+0.000,+0.438,0, 0, -1, -1, -1, 0, -4, -3,-1.1039092225638718,1.1966889255048685
1503612763874,-0.447,-0.275,+0.492,+0.694,+0.940,+0.068,-0.310,-0.875,-0.375,+0.750,-3, -2, 0, -1, -1, -2, 1, 0,-1.1039092225638718,1.1966889255048685
1503612763895,-0.447,-0.275,+0.492,+0.694,+0.945,+0.060,-0.312,-1.000,+0.688,+0.625,-3, -3, -3, 0, 1, -1, -1, -1,-1.1039092225638718,1.1966889255048685
1503612763911,-0.447,-0.275,+0.493,+0.694,+0.945,+0.065,-0.306,-0.750,+1.125,+0.125,0, -7, 2, 1, -1, 0, 0, 0,-1.104157198682402,1.1990338167458219
1503612763933,-0.447,-0.275,+0.493,+0.694,+0.943,+0.070,-0.309,-0.688,-0.688,+0.625,-1, 0, -1, -1, 1, -1, 0, 0,-1.104157198682402,1.1990338167458219
1503612763955,-0.447,-0.275,+0.493,+0.694,+0.950,+0.062,-0.322,-0.750,-0.875,+0.875,0, 2, -2, 0, -1, -3, 0, -1,-1.104157198682402,1.1990338167458219
1503612763971,-0.447,-0.275,+0.493,+0.694,+0.930,+0.056,-0.304,-1.312,-0.062,+0.312,-1, -2, -2, -1, -2, -1, 0, -1,-1.104157198682402,1.1990338167458219
1503612763994,-0.447,-0.275,+0.493,+0.694,+0.939,+0.064,-0.306,-1.188,+0.125,+0.750,0, 5, 1, -2, -3, 0, -2, -3,-1.104157198682402,1.1990338167458219
1503612764015,-0.447,-0.276,+0.493,+0.694,+0.946,+0.070,-0.301,-0.500,+0.312,+0.875,0, -4, -3, 0, 0, -3, 0, 1,-1.1055868165881688,1.2003869618082126
1503612764032,-0.447,-0.276,+0.493,+0.694,+0.952,+0.059,-0.312,-0.625,-0.188,+0.812,0, 1, 1, -1, -2, -1, -2, -3,-1.1055868165881688,1.2003869618082126
1503612764053,-0.447,-0.275,+0.493,+0.694,+0.943,+0.065,-0.312,-0.938,-1.375,-0.312,-2, -1, 0, -1, -1, 0, -1, 0,-1.104157198682402,1.1990338167458219
1503612764075,-0.447,-0.275,+0.493,+0.694,+0.933,+0.067,-0.317,-1.125,-0.688,+0.062,0, -2, -1, -2, 0, 1, 1, -1,-1.104157198682402,1.1990338167458219
1503612764092,-0.447,-0.275,+0.493,+0.694,+0.936,+0.062,-0.316,-1.375,+1.125,+0.438,1, 4, 1, 0, 0, -1, 0, -2,-1.104157198682402,1.1990338167458219
1503612764113,-0.447,-0.276,+0.493,+0.694,+0.944,+0.065,-0.315,-1.375,+1.188,+0.938,0, -2, -1, -1, 0, -1, -1, 1,-1.1055868165881688,1.2003869618082126
1503612764136,-0.447,-0.276,+0.493,+0.694,+0.949,+0.060,-0.313,-1.625,+0.500,+0.500,-2, 0, 1, 1, 1, -1, -2, 0,-1.1055868165881688,1.2003869618082126
1503612764151,-0.447,-0.276,+0.493,+0.694,+0.944,+0.065,-0.302,-1.375,-0.125,+0.312,0, -3, -2, -3, -3, -1, 0, -1,-1.1055868165881688,1.2003869618082126
1503612764173,-0.447,-0.276,+0.493,+0.694,+0.946,+0.066,-0.308,-0.938,+0.438,+0.688,-1, -1, -3, -1, -1, 0, 0, 2,-1.1055868165881688,1.2003869618082126
1503612764196,-0.447,-0.276,+0.493,+0.694,+0.950,+0.062,-0.301,-1.062,-0.125,+0.375,-1, -1, 1, -2, 0, 0, -2, -2,-1.1055868165881688,1.2003869618082126
1503612764211,-0.447,-0.276,+0.493,+0.694,+0.944,+0.062,-0.304,-0.875,-0.500,+0.812,-1, -1, -4, -1, 0, -1, 0, 3,-1.1055868165881688,1.2003869618082126
1503612764233,-0.447,-0.276,+0.493,+0.694,+0.938,+0.061,-0.315,-0.750,-0.688,+0.625,-2, -2, -1, -2, -2, 0, -1, -4,-1.1055868165881688,1.2003869618082126
1503612764255,-0.447,-0.276,+0.493,+0.694,+0.944,+0.061,-0.309,-0.875,-0.625,+0.750,0, -1, 1, 1, -2, -2, 0, 1,-1.1055868165881688,1.2003869618082126
1503612764271,-0.447,-0.276,+0.493,+0.694,+0.943,+0.062,-0.313,-1.250,-0.125,+0.312,0, 0, 3, -1, -2, -1, 1, 1,-1.1055868165881688,1.2003869618082126
1503612764296,-0.447,-0.276,+0.493,+0.694,+0.939,+0.066,-0.312,-1.562,+0.438,+0.500,0, 1, 0, -1, 1, -2, -3, -4,-1.1055868165881688,1.2003869618082126
1503612764316,-0.447,-0.276,+0.493,+0.694,+0.946,+0.064,-0.306,-1.062,-0.125,+0.625,-2, -1, -2, -1, -2, -2, -2, -3,-1.1055868165881688,1.2003869618082126
1503612764332,-0.447,-0.276,+0.493,+0.694,+0.945,+0.061,-0.315,-1.125,+0.000,+0.375,0, 1, -1, 0, 0, 0, 0, -1,-1.1055868165881688,1.2003869618082126
1503612764353,-0.447,-0.276,+0.493,+0.694,+0.945,+0.068,-0.303,-1.125,-0.688,+0.125,0, -2, -1, -1, -1, 1, 0, 0,-1.1055868165881688,1.2003869618082126
1503612764375,-0.447,-0.276,+0.493,+0.694,+0.943,+0.062,-0.316,-0.812,-0.500,+0.438,-4, -3, -1, -2, -1, 0, -3, 1,-1.1055868165881688,1.2003869618082126
1503612764391,-0.447,-0.276,+0.493,+0.694,+0.940,+0.064,-0.312,-1.188,-0.250,+0.250,1, -1, -1, 0, 0, 0, -3, -1,-1.1055868165881688,1.2003869618082126
1503612764413,-0.447,-0.276,+0.493,+0.694,+0.947,+0.065,-0.317,-1.062,-1.250,+0.625,0, 7, 3, 1, -1, 2, 0, -1,-1.1055868165881688,1.2003869618082126
1503612764438,-0.447,-0.276,+0.493,+0.694,+0.937,+0.063,-0.315,-0.938,-0.438,+0.688,-2, -3, -1, -2, 0, -1, 0, -1,-1.1055868165881688,1.2003869618082126
1503612764451,-0.447,-0.276,+0.493,+0.694,+0.944,+0.063,-0.312,-1.062,+0.438,+0.750,0, -1, -3, 0, -2, 0, 1, -2,-1.1055868165881688,1.2003869618082126
1503612764473,-0.447,-0.276,+0.493,+0.694,+0.947,+0.058,-0.315,-1.250,+0.375,+0.250,-1, -3, 0, 0, 0, -2, -2, -1,-1.1055868165881688,1.2003869618082126
1503612764497,-0.447,-0.276,+0.493,+0.694,+0.941,+0.069,-0.305,-1.250,+0.125,+0.438,0, 1, -2, -1, -1, -2, -2, -2,-1.1055868165881688,1.2003869618082126
1503612764511,-0.447,-0.276,+0.493,+0.694,+0.943,+0.067,-0.311,-0.688,-0.375,+0.625,1, 1, -1, 1, -1, 1, -2, 0,-1.1055868165881688,1.2003869618082126
1503612764533,-0.447,-0.276,+0.493,+0.694,+0.942,+0.068,-0.312,-0.688,+0.312,+0.688,-1, -2, -1, -2, -2, -1, 1, 1,-1.1055868165881688,1.2003869618082126
1503612764556,-0.447,-0.276,+0.493,+0.694,+0.947,+0.062,-0.310,-1.062,+0.188,+0.688,0, -4, 1, 0, -1, -1, -1, -1,-1.1055868165881688,1.2003869618082126
1503612764572,-0.447,-0.276,+0.493,+0.694,+0.947,+0.060,-0.315,-1.188,+0.250,+0.250,1, -2, -3, -2, 0, -1, 0, -2,-1.1055868165881688,1.2003869618082126
1503612764594,-0.447,-0.276,+0.493,+0.694,+0.942,+0.070,-0.315,-1.188,-1.125,+0.250,-2, -3, -2, -1, 0, -1, -1, -1,-1.1055868165881688,1.2003869618082126
1503612764616,-0.447,-0.276,+0.493,+0.694,+0.940,+0.064,-0.316,-1.188,-0.500,+0.438,-1, 4, -1, -1, -1, -1, 0, 2,-1.1055868165881688,1.2003869618082126
1503612764632,-0.447,-0.276,+0.493,+0.694,+0.937,+0.063,-0.315,-0.812,-0.250,+0.812,-2, -1, -2, 0, -1, -2, -1, -1,-1.1055868165881688,1.2003869618082126
1503612764654,-0.447,-0.276,+0.493,+0.694,+0.940,+0.061,-0.308,-1.062,+0.375,+0.562,0, -3, 0, 0, 0, -1, -1, -2,-1.1055868165881688,1.2003869618082126
1503612764683,-0.447,-0.276,+0.493,+0.694,+0.945,+0.063,-0.310,-0.500,+0.062,+0.312,1, -1, 0, -2, -1, -4, 0, 1,-1.1055868165881688,1.2003869618082126
1503612764691,-0.447,-0.276,+0.493,+0.694,+0.943,+0.067,-0.316,-0.688,-0.375,+0.938,-2, 6, -1, -1, -1, 0, 0, -2,-1.1055868165881688,1.2003869618082126
1503612764714,-0.447,-0.276,+0.493,+0.694,+0.955,+0.062,-0.316,-0.812,-0.188,+0.312,0, -2, 2, -2, -1, 2, 0, -1,-1.1055868165881688,1.2003869618082126
1503612764736,-0.447,-0.276,+0.493,+0.694,+0.936,+0.064,-0.319,-1.438,-0.375,+0.188,-2, 1, -1, -2, 0, -1, -2, -2,-1.1055868165881688,1.2003869618082126
1503612764751,-0.447,-0.275,+0.492,+0.694,+0.938,+0.069,-0.311,-1.375,-1.125,+0.562,-1, -2, -3, -2, -1, -2, -2, 0,-1.1039092225638718,1.1966889255048685
1503612764774,-0.447,-0.275,+0.492,+0.694,+0.937,+0.070,-0.316,-1.188,+0.375,+0.875,1, 0, -2, 1, 0, 0, -2, -2,-1.1039092225638718,1.1966889255048685
1503612764796,-0.447,-0.276,+0.493,+0.694,+0.949,+0.060,-0.309,-1.312,+1.188,+1.125,-2, -6, -2, -1, -1, -1, 0, 0,-1.1055868165881688,1.2003869618082126
1503612764811,-0.447,-0.276,+0.493,+0.694,+0.946,+0.062,-0.305,-1.438,+0.875,+0.125,-1, 2, 1, 0, 0, 0, 1, 1,-1.1055868165881688,1.2003869618082126
1503612764834,-0.447,-0.276,+0.493,+0.694,+0.951,+0.072,-0.308,-1.188,-0.125,+0.500,-4, -11, -4, -2, -1, 0, 0, 1,-1.1055868165881688,1.2003869618082126
1503612764856,-0.447,-0.276,+0.493,+0.694,+0.944,+0.061,-0.303,-1.125,+0.125,+0.000,0, 2, 1, -2, -1, -2, -1, -3,-1.1055868165881688,1.2003869618082126
1503612764872,-0.447,-0.276,+0.493,+0.694,+0.946,+0.065,-0.305,-1.000,-0.062,+0.750,2, -2, 0, -1, -1, 0, -2, 0,-1.1055868165881688,1.2003869618082126
1503612764894,-0.447,-0.276,+0.493,+0.694,+0.945,+0.058,-0.314,-1.000,-0.062,+0.562,0, 1, -1, 0, 0, -1, -1, -1,-1.1055868165881688,1.2003869618082126
1503612764916,-0.447,-0.276,+0.493,+0.694,+0.943,+0.064,-0.312,-1.312,-0.562,+0.375,0, 1, -1, -1, -1, -1, 0, -2,-1.1055868165881688,1.2003869618082126
1503612764933,-0.447,-0.276,+0.493,+0.694,+0.940,+0.061,-0.312,-0.812,-0.125,+0.562,1, 1, -1, 1, 0, -1, -1, -2,-1.1055868165881688,1.2003869618082126
1503612764954,-0.447,-0.276,+0.493,+0.694,+0.942,+0.060,-0.315,-1.250,+0.688,+0.562,1, 2, -2, -1, -1, -1, -2, -1,-1.1055868165881688,1.2003869618082126
1503612764976,-0.447,-0.276,+0.493,+0.694,+0.949,+0.062,-0.309,-1.250,+1.125,+0.500,-2, 0, -1, -1, 1, -1, 1, 0,-1.1055868165881688,1.2003869618082126
1503612764992,-0.447,-0.276,+0.493,+0.694,+0.948,+0.062,-0.308,-1.188,-0.062,+0.188,-4, 0, -3, -3, -2, -2, -3, -3,-1.1055868165881688,1.2003869618082126
1503612765014,-0.447,-0.276,+0.493,+0.694,+0.947,+0.068,-0.302,-1.375,-0.250,+0.188,0, 1, -2, 0, 1, -1, -1, 1,-1.1055868165881688,1.2003869618082126
1503612765036,-0.447,-0.276,+0.493,+0.694,+0.943,+0.063,-0.310,-1.312,-0.625,+0.500,1, -3, 0, 0, -2, -1, 0, 0,-1.1055868165881688,1.2003869618082126
1503612765051,-0.447,-0.276,+0.493,+0.694,+0.945,+0.064,-0.311,-1.250,-0.750,+0.312,-1, 1, -2, 0, -1, 0, 0, 1,-1.1055868165881688,1.2003869618082126
1503612765074,-0.447,-0.276,+0.493,+0.694,+0.937,+0.065,-0.311,-1.125,-0.188,+0.625,0, -2, -2, -2, -2, -2, -1, 2,-1.1055868165881688,1.2003869618082126
1503612765096,-0.447,-0.276,+0.493,+0.694,+0.944,+0.062,-0.310,-0.750,-0.438,+0.812,0, 0, -2, 1, 0, -1, 1, -1,-1.1055868165881688,1.2003869618082126
1503612765111,-0.447,-0.276,+0.493,+0.694,+0.946,+0.058,-0.314,-0.938,+0.250,+0.625,-3, -4, 1, -3, -2, 0, -1, -1,-1.1055868165881688,1.2003869618082126
1503612765139,-0.447,-0.276,+0.493,+0.694,+0.945,+0.058,-0.310,-1.062,+0.375,+0.188,-4, -1, -1, 0, 0, -1, 1, -1,-1.1055868165881688,1.2003869618082126
1503612765156,-0.447,-0.276,+0.493,+0.694,+0.942,+0.067,-0.308,-1.375,+0.875,-0.062,-4, -3, 0, 0, 1, -1, -1, -1,-1.1055868165881688,1.2003869618082126
1503612765172,-0.447,-0.276,+0.493,+0.694,+0.950,+0.067,-0.305,-1.062,-0.062,+0.875,0, 2, 0, 1, 0, 0, 1, -1,-1.1055868165881688,1.2003869618082126
1503612765207,-0.447,-0.276,+0.493,+0.694,+0.951,+0.058,-0.313,-0.688,+0.062,+0.938,2, 0, 0, -2, 1, -2, 1, -1,-1.1055868165881688,1.2003869618082126
1503612765218,-0.447,-0.276,+0.493,+0.694,+0.943,+0.065,-0.312,-1.000,-0.250,+0.000,-2, -3, -1, 0, -1, 0, -2, -2,-1.1055868165881688,1.2003869618082126
1503612765231,-0.447,-0.276,+0.493,+0.694,+0.940,+0.065,-0.311,-1.125,+0.188,+0.000,1, -1, 1, 0, -3, 1, -3, -2,-1.1055868165881688,1.2003869618082126
1503612765254,-0.447,-0.276,+0.493,+0.694,+0.943,+0.061,-0.312,-1.062,+0.312,+0.438,-2, 7, -3, 0, -2, -1, -2, 0,-1.1055868165881688,1.2003869618082126
1503612765277,-0.447,-0.276,+0.493,+0.694,+0.950,+0.070,-0.311,-1.375,+0.188,+0.625,-3, -2, 2, -3, -1, -2, -2, -1,-1.1055868165881688,1.2003869618082126
1503612765292,-0.447,-0.276,+0.493,+0.694,+0.948,+0.062,-0.308,-1.500,+0.188,+0.312,2, 0, -1, -1, -2, -1, 1, -2,-1.1055868165881688,1.2003869618082126
1503612765314,-0.447,-0.276,+0.493,+0.694,+0.945,+0.060,-0.305,-1.500,-0.500,+0.375,-3, -2, -2, -1, 0, -2, -1, 0,-1.1055868165881688,1.2003869618082126
1503612765336,-0.447,-0.276,+0.493,+0.694,+0.944,+0.068,-0.305,-0.750,-1.125,+0.375,0, 0, -1, -2, -1, -1, -1, -1,-1.1055868165881688,1.2003869618082126
1503612765352,-0.447,-0.276,+0.493,+0.694,+0.941,+0.063,-0.310,-1.062,-0.500,+0.688,0, 2, 3, -1, -3, -2, -1, 1,-1.1055868165881688,1.2003869618082126
1503612765378,-0.447,-0.276,+0.493,+0.694,+0.954,+0.064,-0.317,-1.250,-0.062,+0.375,0, -6, -4, -1, 0, 0, 0, -1,-1.1055868165881688,1.2003869618082126
1503612765396,-0.447,-0.276,+0.493,+0.694,+0.947,+0.060,-0.311,-1.938,+0.250,-0.750,-1, -6, 0, -1, -1, 0, 0, -1,-1.1055868165881688,1.2003869618082126
1503612765412,-0.447,-0.276,+0.493,+0.694,+0.937,+0.062,-0.311,-2.250,-0.500,-0.125,-2, 10, 3, 1, 2, 0, 1, -1,-1.1055868165881688,1.2003869618082126
1503612765434,-0.447,-0.276,+0.493,+0.694,+0.945,+0.067,-0.308,-1.312,+0.625,+0.125,-1, 0, -2, -2, -1, -2, -1, -1,-1.1055868165881688,1.2003869618082126
1503612765456,-0.447,-0.276,+0.493,+0.694,+0.948,+0.064,-0.310,-1.625,+0.625,-0.188,-3, -3, 0, -1, -1, -3, -1, 0,-1.1055868165881688,1.2003869618082126
1503612765471,-0.447,-0.276,+0.493,+0.694,+0.951,+0.071,-0.304,-1.938,-0.625,+0.125,0, -3, -2, -1, -1, 0, -3, -1,-1.1055868165881688,1.2003869618082126
1503612765494,-0.447,-0.276,+0.493,+0.694,+0.947,+0.063,-0.303,-1.062,-1.062,+0.188,3, 1, -2, -1, -2, 3, 0, -2,-1.1055868165881688,1.2003869618082126
1503612765517,-0.447,-0.276,+0.493,+0.694,+0.949,+0.063,-0.313,-1.312,-1.938,+0.625,0, -5, -2, -1, -1, 0, 0, -3,-1.1055868165881688,1.2003869618082126
1503612765531,-0.447,-0.275,+0.493,+0.694,+0.950,+0.063,-0.313,-1.250,-2.438,+0.500,-2, -4, -2, 0, 0, 2, 1, 2,-1.104157198682402,1.1990338167458219
1503612765554,-0.447,-0.275,+0.492,+0.694,+0.934,+0.064,-0.315,-1.375,-2.125,+0.312,-2, 0, -1, -1, -1, -2, -1, -1,-1.1039092225638718,1.1966889255048685
1503612765576,-0.447,-0.275,+0.492,+0.695,+0.936,+0.070,-0.318,-1.375,-1.625,+0.875,-4, -2, -2, -2, -1, -3, -1, 0,-1.1043121724718388,1.1970489981969847
1503612765599,-0.447,-0.275,+0.492,+0.694,+0.943,+0.058,-0.313,-1.438,+1.188,+0.000,3, 4, 0, 0, -1, -1, 0, -1,-1.1039092225638718,1.1966889255048685
1503612765621,-0.447,-0.275,+0.492,+0.694,+0.946,+0.058,-0.319,-1.625,+0.500,-0.250,1, 0, 0, -1, 0, -1, -1, -2,-1.1039092225638718,1.1966889255048685
1503612765638,-0.447,-0.275,+0.493,+0.694,+0.945,+0.063,-0.306,-1.812,+0.375,-1.438,-2, -1, -1, 0, -2, -1, -1, 0,-1.104157198682402,1.1990338167458219
1503612765651,-0.447,-0.275,+0.493,+0.694,+0.941,+0.070,-0.308,-2.188,+0.750,-1.562,0, -1, -1, -1, -1, 1, -2, 0,-1.104157198682402,1.1990338167458219
1503612765678,-0.447,-0.275,+0.493,+0.694,+0.946,+0.073,-0.309,-1.562,-0.062,-0.375,2, 1, -1, 0, -1, -2, -1, -4,-1.104157198682402,1.1990338167458219
1503612765697,-0.447,-0.275,+0.493,+0.694,+0.946,+0.058,-0.301,-1.062,-0.312,-0.188,-3, -5, -2, 0, -2, -2, 0, 1,-1.104157198682402,1.1990338167458219
1503612765712,-0.447,-0.275,+0.493,+0.694,+0.946,+0.063,-0.301,-1.250,-2.000,-0.125,-1, -3, -2, -2, -1, 0, 0, 1,-1.104157198682402,1.1990338167458219
1503612765732,-0.447,-0.274,+0.492,+0.694,+0.951,+0.066,-0.314,-0.500,-4.688,+0.625,-1, 1, -3, -4, -1, -1, -1, -1,-1.1024821860325302,1.1953365488042942
1503612765757,-0.448,-0.274,+0.492,+0.695,+0.940,+0.068,-0.312,-0.312,-5.062,+0.625,-1, -1, 0, -1, 0, -3, -1, -2,-1.1051138920762147,1.1958990356527939
1503612765775,-0.448,-0.274,+0.491,+0.695,+0.942,+0.079,-0.319,-0.438,-4.750,+0.562,-1, -2, 1, -1, 1, 2, -1, -1,-1.1048673760984253,1.1935563348830012
1503612765792,-0.448,-0.274,+0.491,+0.695,+0.937,+0.073,-0.322,-0.375,-2.188,+0.000,-1, -1, -2, -2, 0, -1, 1, -1,-1.1048673760984253,1.1935563348830012
1503612765815,-0.448,-0.273,+0.491,+0.695,+0.936,+0.072,-0.321,-1.000,-1.812,+0.188,-4, -3, -1, 1, -1, 0, 0, -2,-1.1034457049763366,1.1922061774112775
1503612765831,-0.448,-0.273,+0.490,+0.695,+0.944,+0.057,-0.321,-0.562,-1.438,+0.188,2, -6, -1, 0, -2, -1, -1, 0,-1.1031990581899254,1.1898627635357923
1503612765855,-0.448,-0.273,+0.490,+0.695,+0.935,+0.057,-0.318,-0.938,-0.250,-0.438,-1, 0, -1, -1, 0, -1, -2, -1,-1.1031990581899254,1.1898627635357923
1503612765875,-0.449,-0.273,+0.490,+0.695,+0.947,+0.070,-0.317,-0.688,-1.688,-0.312,2, 2, -1, -2, -2, -2, -1, -2,-1.1054320312991615,1.1900662282949628
1503612765891,-0.449,-0.273,+0.490,+0.695,+0.942,+0.073,-0.317,-0.250,-1.062,+0.062,1, 1, -3, 0, -2, -1, -1, 0,-1.1054320312991615,1.1900662282949628
1503612765913,-0.449,-0.273,+0.490,+0.696,+0.944,+0.075,-0.311,-0.062,-1.875,+1.000,-2, 1, 0, -1, -1, -4, 0, 0,-1.1058355903119197,1.1904309033390852
1503612765935,-0.449,-0.273,+0.490,+0.696,+0.945,+0.069,-0.318,+0.625,-2.250,+1.562,-2, -3, -1, -2, -3, 1, -1, 0,-1.1058355903119197,1.1904309033390852
1503612765958,-0.449,-0.274,+0.489,+0.696,+0.941,+0.064,-0.320,+0.812,-2.438,+0.688,-2, -1, -3, 0, 2, 1, 0, 1,-1.1070089707908266,1.1894437392714339
1503612765977,-0.449,-0.274,+0.489,+0.696,+0.944,+0.063,-0.326,+0.062,-2.688,+0.750,0, -1, 1, 1, 2, 0, -3, -3,-1.1070089707908266,1.1894437392714339
1503612765995,-0.449,-0.273,+0.489,+0.696,+0.935,+0.067,-0.319,-0.250,-2.000,+0.000,-2, 0, 0, -2, -2, -2, -1, -1,-1.105590296584331,1.1880914681251438
1503612766018,-0.449,-0.273,+0.488,+0.696,+0.931,+0.067,-0.331,-1.125,-0.812,-0.188,-2, 1, 0, 0, 0, -1, 0, -2,-1.1053447628809259,1.1857531220435515
1503612766033,-0.449,-0.273,+0.488,+0.696,+0.947,+0.062,-0.326,-1.562,-0.625,-0.125,0, 0, 1, 0, -3, -1, 0, 0,-1.1053447628809259,1.1857531220435515
1503612766055,-0.450,-0.273,+0.489,+0.696,+0.938,+0.062,-0.332,-2.438,+0.250,-1.250,0, -5, 0, 0, 0, 0, 0, 0,-1.1078250197964747,1.188295657749563
1503612766079,-0.450,-0.273,+0.489,+0.696,+0.937,+0.064,-0.325,-2.500,+0.188,-1.250,2, 7, 1, -1, -1, -2, 1, 1,-1.1078250197964747,1.188295657749563
1503612766092,-0.450,-0.273,+0.489,+0.696,+0.935,+0.067,-0.317,-1.438,+0.500,-1.062,0, -1, 1, -1, 0, -1, 0, -1,-1.1078250197964747,1.188295657749563
1503612766117,-0.450,-0.273,+0.489,+0.696,+0.936,+0.075,-0.321,-0.938,+0.812,-0.125,-3, -1, -3, -1, 0, -1, 1, 2,-1.1078250197964747,1.188295657749563
1503612766138,-0.450,-0.273,+0.489,+0.696,+0.938,+0.071,-0.312,-0.312,+0.312,+0.750,-2, -5, -3, 0, -2, -1, -1, -2,-1.1078250197964747,1.188295657749563
1503612766152,-0.450,-0.273,+0.489,+0.696,+0.946,+0.070,-0.314,+0.688,-1.000,+1.750,-1, -4, 0, -3, -1, -2, -1, 0,-1.1078250197964747,1.188295657749563
1503612766176,-0.450,-0.273,+0.489,+0.696,+0.943,+0.064,-0.326,+0.375,-0.750,+1.312,0, 3, 0, 0, 1, 0, -2, -2,-1.1078250197964747,1.188295657749563
1503612766198,-0.450,-0.273,+0.488,+0.696,+0.940,+0.058,-0.321,-0.062,-0.750,+0.625,1, -1, 1, 1, -1, -2, -2, -1,-1.1075806874684015,1.185958612316359
1503612766213,-0.450,-0.274,+0.488,+0.696,+0.938,+0.064,-0.322,+0.000,-0.500,-0.125,2, -3, -5, -1, -1, 0, 0, -1,-1.1089977671520637,1.18731261220182
1503612766235,-0.450,-0.274,+0.488,+0.696,+0.933,+0.069,-0.318,+0.375,+1.438,-0.750,0, -3, -1, -1, -2, -2, 0, 1,-1.1089977671520637,1.18731261220182
1503612766258,-0.450,-0.274,+0.489,+0.695,+0.939,+0.072,-0.325,+0.500,+2.062,+0.062,-4, -1, -2, -2, -1, 1, -2, -2,-1.1088406301214855,1.189283393825185
1503612766272,-0.450,-0.274,+0.489,+0.695,+0.942,+0.065,-0.316,+0.375,+1.688,-0.625,-2, -3, 1, 2, -1, -1, -2, -2,-1.1088406301214855,1.189283393825185
1503612766295,-0.451,-0.274,+0.489,+0.695,+0.942,+0.074,-0.325,+0.188,+1.312,-0.438,-1, 1, 1, -3, 1, -1, 1, 0,-1.1110765540240053,1.189487718632773
1503612766318,-0.451,-0.275,+0.489,+0.694,+0.935,+0.074,-0.319,-0.062,+1.938,-0.500,0, 8, 0, 1, -1, -2, 0, -2,-1.112096200169956,1.1904804639310276
1503612766333,-0.451,-0.275,+0.489,+0.694,+0.934,+0.072,-0.322,-0.062,+2.438,+0.750,1, -2, -1, 0, -2, 0, -3, -1,-1.112096200169956,1.1904804639310276
1503612766355,-0.451,-0.275,+0.489,+0.694,+0.943,+0.059,-0.318,+0.438,+1.500,+1.125,1, -3, 0, 0, -4, -2, -1, -2,-1.112096200169956,1.1904804639310276
1503612766378,-0.451,-0.275,+0.489,+0.694,+0.936,+0.067,-0.324,-0.438,+1.250,+0.500,-1, 2, 3, -1, 2, 0, -2, -1,-1.112096200169956,1.1904804639310276
1503612766392,-0.451,-0.276,+0.490,+0.694,+0.936,+0.075,-0.312,-0.938,+1.375,+0.812,-3, -4, -3, -1, -2, -2, -1, 0,-1.1137634118400912,1.1941752471133973
1503612766415,-0.450,-0.276,+0.490,+0.694,+0.939,+0.072,-0.312,-0.625,+2.312,+1.250,0, -5, -2, -2, -2, -4, -3, -1,-1.111530616004306,1.1939719441504346
1503612766439,-0.450,-0.276,+0.490,+0.693,+0.938,+0.066,-0.317,-1.062,+3.500,+0.938,0, -1, -2, -1, 0, 0, -1, 0,-1.1111307532880252,1.193610492383301
1503612766453,-0.450,-0.276,+0.491,+0.693,+0.944,+0.070,-0.315,-1.062,+2.562,+1.125,-2, -1, -2, -2, -2, -3, -2, -2,-1.111376079051497,1.1959491624046292
1503612766480,-0.450,-0.277,+0.491,+0.693,+0.940,+0.055,-0.311,-0.438,+2.125,+1.688,-1, -1, -1, -2, -1, -1, 0, 1,-1.1128048015374503,1.1973096878883454
1503612766497,-0.450,-0.277,+0.491,+0.693,+0.949,+0.056,-0.322,-0.750,+2.500,+0.875,-2, 0, -2, -1, 1, 0, 0, 0,-1.1128048015374503,1.1973096878883454
1503612766515,-0.449,-0.277,+0.491,+0.693,+0.952,+0.062,-0.308,-1.750,+3.188,-0.625,-2, 3, -2, -1, -3, 0, 1, 0,-1.110575233821997,1.1971071802422397
1503612766535,-0.449,-0.277,+0.492,+0.692,+0.939,+0.069,-0.297,-1.562,+2.562,-0.812,0, -1, 0, 1, 2, -1, -2, -1,-1.110422122412411,1.1990885794689174
1503612766558,-0.449,-0.278,+0.492,+0.692,+0.939,+0.072,-0.311,-0.875,+2.375,+0.062,2, 1, 3, -1, 2, 1, 1, -1,-1.111856218212442,1.2004513198085136
1503612766573,-0.449,-0.278,+0.493,+0.692,+0.943,+0.070,-0.314,-0.875,+2.750,+0.562,-2, -2, 1, -1, -3, -1, 0, -2,-1.1121028298591507,1.2027914179412587
1503612766595,-0.449,-0.278,+0.493,+0.691,+0.944,+0.072,-0.296,-0.625,+2.062,+0.625,0, -1, -1, 0, -1, -1, -2, -1,-1.1117044030609249,1.2024359572524899
1503612766618,-0.449,-0.278,+0.493,+0.691,+0.950,+0.063,-0.305,+0.000,+2.438,+0.562,0, -1, -4, -1, -1, -1, 1, -1,-1.1117044030609249,1.2024359572524899
1503612766632,-0.449,-0.279,+0.494,+0.691,+0.955,+0.068,-0.316,-0.500,+3.750,-0.375,-4, 8, 3, 0, -4, -5, -3, -2,-1.1133891895419499,1.2061417711043922
1503612766655,-0.449,-0.279,+0.494,+0.690,+0.945,+0.068,-0.312,-1.688,+2.812,-0.500,0, -6, 0, -1, 0, 1, -2, 0,-1.112991835292129,1.2057887214067537
1503612766680,-0.449,-0.279,+0.494,+0.690,+0.939,+0.073,-0.308,-2.000,+2.062,-0.250,-3, -4, -2, -1, 0, -2, 0, 0,-1.112991835292129,1.2057887214067537
1503612766692,-0.449,-0.279,+0.495,+0.690,+0.936,+0.081,-0.315,-2.062,+1.938,+0.438,0, -1, -1, 0, -1, -1, 0, -1,-1.1132388190339821,1.208132306107141
1503612766718,-0.449,-0.279,+0.495,+0.690,+0.947,+0.071,-0.304,-2.250,+2.312,+1.750,-3, -1, -2, -1, -2, -1, -1, -1,-1.1132388190339821,1.208132306107141
1503612766739,-0.448,-0.279,+0.495,+0.690,+0.947,+0.065,-0.299,-2.688,+2.062,+1.375,-1, -2, -2, -1, 0, -2, 1, 1,-1.1110155151413947,1.2079339645301377
1503612766753,-0.448,-0.279,+0.495,+0.690,+0.958,+0.064,-0.313,-2.562,+1.625,+1.312,0, -4, -3, 0, 0, 1, -2, -1,-1.1110155151413947,1.2079339645301377
1503612766775,-0.448,-0.279,+0.496,+0.690,+0.954,+0.062,-0.301,-3.062,+1.438,+0.688,0, 2, 0, -3, 0, -2, 1, -1,-1.1112634749088537,1.2102798771323096
1503612766798,-0.447,-0.279,+0.496,+0.690,+0.941,+0.063,-0.295,-2.812,+0.625,+0.188,-1, -3, -2, -1, 0, 1, -3, -1,-1.1090430181041255,1.2100826718629747
1503612766815,-0.447,-0.279,+0.496,+0.690,+0.938,+0.068,-0.294,-2.438,+1.062,+0.875,-1, -1, 0, -1, -3, -1, 0, -3,-1.1090430181041255,1.2100826718629747
1503612766835,-0.447,-0.279,+0.497,+0.690,+0.953,+0.068,-0.291,-1.875,+2.750,+1.375,1, -2, -2, 1, 0, 2, -2, -1,-1.1092919503776886,1.212430897778907
1503612766858,-0.447,-0.279,+0.497,+0.690,+0.961,+0.065,-0.291,-1.250,+0.750,+1.500,1, 4, 1, -3, 0, -1, -2, -1,-1.1092919503776886,1.212430897778907
1503612766875,-0.447,-0.279,+0.497,+0.690,+0.951,+0.061,-0.295,-1.000,-1.062,+0.625,-2, 1, -2, 1, 1, -2, 0, -1,-1.1092919503776886,1.212430897778907
1503612766895,-0.447,-0.279,+0.497,+0.690,+0.938,+0.065,-0.307,-1.438,-0.750,+0.812,1, -4, -1, -1, 0, -3, 0, 0,-1.1092919503776886,1.212430897778907
1503612766930,-0.447,-0.279,+0.497,+0.690,+0.942,+0.065,-0.302,-0.875,+1.312,+0.688,-1, -3, -1, -1, 0, 1, 0, -2,-1.1092919503776886,1.212430897778907
1503612766934,-0.446,-0.279,+0.497,+0.690,+0.945,+0.062,-0.304,-0.812,+1.562,+1.000,-2, 1, 0, -1, -2, -2, -1, -3,-1.1070743482996983,1.2122348320087206
1503612766958,-0.446,-0.279,+0.497,+0.690,+0.956,+0.065,-0.301,-1.312,-0.438,+0.812,-1, 0, 0, 0, 3, 0, -2, -1,-1.1070743482996983,1.2122348320087206
1503612766978,-0.446,-0.279,+0.497,+0.690,+0.948,+0.066,-0.298,-1.625,+0.312,+0.438,-2, -5, -2, -2, 0, 0, -1, -1,-1.1070743482996983,1.2122348320087206
1503612766993,-0.446,-0.279,+0.497,+0.690,+0.938,+0.073,-0.299,-1.625,+0.188,+0.438,-1, -1, -1, 1, -2, -3, -1, -2,-1.1070743482996983,1.2122348320087206
1503612767016,-0.446,-0.280,+0.497,+0.690,+0.954,+0.073,-0.295,-0.938,-0.500,+1.750,-1, 1, 0, -2, 0, -1, -2, -1,-1.1085208816929906,1.213596588788977
1503612767038,-0.446,-0.280,+0.497,+0.690,+0.956,+0.061,-0.296,-1.000,-0.375,+1.438,-1, -2, 2, -1, 0, 0, -1, -1,-1.1085208816929906,1.213596588788977
1503612767053,-0.446,-0.280,+0.497,+0.690,+0.949,+0.063,-0.293,-1.438,-0.812,+0.875,-2, 0, 0, -1, -1, -1, -4, -4,-1.1085208816929906,1.213596588788977
1503612767075,-0.446,-0.280,+0.497,+0.690,+0.949,+0.069,-0.294,-1.188,-0.500,+0.438,1, 3, -1, -2, -3, -3, -2, -1,-1.1085208816929906,1.213596588788977
1503612767098,-0.446,-0.280,+0.497,+0.690,+0.945,+0.066,-0.297,-1.000,+0.062,+0.938,-3, -2, 0, -1, 0, -1, -1, -1,-1.1085208816929906,1.213596588788977
1503612767115,-0.446,-0.280,+0.497,+0.690,+0.949,+0.058,-0.291,-0.750,-0.938,+1.000,0, -3, -3, -1, 0, 0, -1, -2,-1.1085208816929906,1.213596588788977
1503612767135,-0.446,-0.280,+0.497,+0.690,+0.945,+0.062,-0.296,-0.312,-1.125,+0.562,-2, 3, -1, -1, 1, -2, 2, 0,-1.1085208816929906,1.213596588788977
1503612767158,-0.446,-0.280,+0.497,+0.690,+0.946,+0.066,-0.295,-0.312,-1.562,+0.938,-3, -4, 2, 0, 4, 1, -3, -2,-1.1085208816929906,1.213596588788977
1503612767172,-0.446,-0.280,+0.496,+0.690,+0.943,+0.061,-0.306,+0.312,-1.375,+0.500,-1, -1, -2, -3, -3, -2, -1, -1,-1.1082706575271566,1.2112488687549237
1503612767195,-0.447,-0.280,+0.496,+0.690,+0.946,+0.065,-0.309,+0.000,-0.938,+0.375,0, -2, -2, -1, -2, -1, 0, 0,-1.110487977388848,1.2114461845276139
1503612767218,-0.447,-0.280,+0.496,+0.690,+0.953,+0.065,-0.309,-0.312,-1.188,+1.000,-1, 0, -2, -1, -2, 0, -1, 2,-1.110487977388848,1.2114461845276139
1503612767233,-0.447,-0.280,+0.496,+0.690,+0.944,+0.063,-0.309,-0.500,-0.500,+0.625,-4, -3, -1, -1, -1, -1, -1, -2,-1.110487977388848,1.2114461845276139
1503612767258,-0.447,-0.280,+0.496,+0.690,+0.937,+0.059,-0.301,-0.938,-1.312,+0.812,-3, 0, 2, 0, 0, 0, -3, -1,-1.110487977388848,1.2114461845276139
1503612767278,-0.447,-0.280,+0.496,+0.690,+0.948,+0.064,-0.297,-1.062,-0.562,+1.125,1, 1, 0, 0, -2, -1, 0, 0,-1.110487977388848,1.2114461845276139
1503612767293,-0.447,-0.280,+0.496,+0.690,+0.942,+0.066,-0.299,-0.750,-0.562,+1.375,0, -6, -5, -1, -4, 0, -2, -2,-1.110487977388848,1.2114461845276139
1503612767318,-0.447,-0.280,+0.496,+0.690,+0.944,+0.067,-0.297,-0.875,+0.000,+1.125,-1, 0, 1, -1, -1, -2, 1, 2,-1.110487977388848,1.2114461845276139
1503612767337,-0.447,-0.280,+0.496,+0.690,+0.956,+0.064,-0.304,-0.562,+0.125,+1.312,0, 0, -2, -1, 1, 2, 2, 0,-1.110487977388848,1.2114461845276139
1503612767353,-0.447,-0.280,+0.495,+0.690,+0.948,+0.057,-0.304,-0.625,-1.125,+0.938,-4, -4, 2, 1, -2, 0, 0, 0,-1.1102387262504019,1.2091007726721164
1503612767375,-0.447,-0.280,+0.495,+0.691,+0.949,+0.060,-0.310,-0.438,-2.250,+1.125,2, 0, -1, 0, -3, -3, -2, -3,-1.1106365186851446,1.2094514741573914
1503612767397,-0.447,-0.280,+0.495,+0.691,+0.933,+0.059,-0.316,+0.000,-1.875,+1.500,1, 2, -2, 0, -1, 0, 0, -2,-1.1106365186851446,1.2094514741573914
1503612767413,-0.447,-0.280,+0.494,+0.691,+0.933,+0.061,-0.315,-0.438,+1.062,+1.312,5, 3, -1, 0, -1, 1, 1, 1,-1.1103874168991126,1.2071087058258485
1503612767435,-0.447,-0.281,+0.495,+0.691,+0.955,+0.051,-0.301,-1.375,+2.938,+0.812,0, 3, -1, 1, 1, -1, -1, -1,-1.1120825555616827,1.2108179531029704
1503612767458,-0.446,-0.281,+0.495,+0.691,+0.952,+0.062,-0.297,-0.938,+1.312,+0.688,-1, -2, 0, -2, -1, -3, 0, -1,-1.1098665769280982,1.210619754956824
1503612767474,-0.447,-0.281,+0.495,+0.690,+0.934,+0.061,-0.294,+0.625,+0.125,+0.562,3, -1, -2, -1, -4, 0, -2, -2,-1.1116860787081502,1.2104686739562505
1503612767502,-0.447,-0.282,+0.495,+0.690,+0.948,+0.059,-0.299,+4.875,+4.312,+0.750,0, -4, -1, -1, -1, -1, -3, -1,-1.113135892684583,1.2118391166881637
1503612767519,-0.448,-0.284,+0.495,+0.688,+1.011,+0.105,-0.235,+10.188,+4.000,-0.875,-7, -8, -5, -2, 1, 2, -3, -3,-1.117472221717964,1.2140944446266728
1503612767533,-0.450,-0.285,+0.495,+0.687,+1.111,+0.077,-0.205,+16.188,-6.375,-5.000,-5, -5, -3, 0, 1, -2, 0, 0,-1.122974927734734,1.2155274710343007
1503612767556,-0.452,-0.287,+0.493,+0.686,+1.020,+0.047,-0.157,+18.125,-17.125,-5.500,-1, 0, -3, -2, 0, -2, -2, -3,-1.129455853178479,1.2136918834145185
1503612767577,-0.455,-0.287,+0.489,+0.686,+0.927,+0.112,-0.229,+18.312,-25.688,+1.875,11, 5, 3, 2, 0, 0, 0, 0,-1.1351642840291603,1.2049985418226092
1503612767594,-0.456,-0.289,+0.486,+0.688,+0.964,+0.266,-0.439,+20.500,-4.438,+25.188,19, 3, 1, -1, -3, -2, -1, 7,-1.1403496634921177,1.2017666878410471
1503612767615,-0.453,-0.297,+0.484,+0.688,+0.986,+0.312,-0.527,+35.688,+27.000,+55.438,-32, -8, -7, -6, -4, -4, -4, -7,-1.1449397138977881,1.207887711016276
1503612767637,-0.449,-0.309,+0.478,+0.689,+1.151,+0.336,-0.675,+58.250,+34.250,+84.625,11, 2, -2, 6, 3, 1, 7, 11,-1.1529760385001029,1.211082240485664
1503612767653,-0.445,-0.327,+0.464,+0.693,+1.286,+0.154,-0.710,+93.062,-7.688,+107.438,-9, 1, 2, -8, -4, 0, -3, -7,-1.169850205831033,1.2071077374852046
1503612767675,-0.442,-0.345,+0.438,+0.703,+1.312,-0.108,-0.597,+115.812,-79.750,+139.312,-14, -23, -34, -18, -7, -4, -3, -7,-1.1886547486591565,1.1810199220262052
1503612767698,-0.443,-0.365,+0.405,+0.712,+1.091,-0.244,-0.509,+147.625,-106.688,+137.875,0, 12, 26, 27, 5, 2, -3, -1,-1.2180753666432451,1.147526267079839
1503612767714,-0.443,-0.387,+0.369,+0.719,+0.931,-0.439,-0.566,+167.125,-107.812,+144.000,-4, -6, -9, -5, -2, 14, 9, -3,-1.2486387349641848,1.1150670939289502
1503612767735,-0.440,-0.411,+0.336,+0.724,+0.814,-0.581,-0.567,+170.312,-79.688,+149.000,14, 5, -1, 6, 26, 14, 4, 11,-1.278371064472515,1.0956506278580807
1503612767758,-0.435,-0.438,+0.306,+0.725,+0.768,-0.568,-0.455,+171.375,-43.062,+147.875,0, 17, 18, 24, 6, -6, -4, -4,-1.3120849452396703,1.0911197620055306
1503612767773,-0.427,-0.464,+0.278,+0.724,+0.781,-0.591,-0.406,+171.562,-30.938,+147.938,4, 1, 6, -13, -11, -4, 1, 4,-1.3412563310566177,1.091805365087347
1503612767795,-0.419,-0.490,+0.250,+0.722,+0.729,-0.632,-0.372,+170.812,-26.938,+148.438,12, -39, 0, -8, -3, -9, -15, -1,-1.374904774312718,1.0978715696557937
1503612767817,-0.410,-0.515,+0.221,+0.720,+0.692,-0.671,-0.296,+168.375,-36.688,+146.125,25, -12, 2, 3, -19, -7, -16, 2,-1.409204094428748,1.1054239004594226
1503612767833,-0.403,-0.536,+0.190,+0.717,+0.649,-0.721,-0.235,+158.188,-53.812,+145.750,-1, -36, -26, -12, 28, 3, -3, -7,-1.4427994305016338,1.1060477966426503
1503612767855,-0.394,-0.555,+0.161,+0.714,+0.540,-0.756,-0.213,+148.938,-45.375,+137.875,-8, 29, 5, -7, -44, -3, 4, 1,-1.4720041385376155,1.1089679841914863
1503612767878,-0.387,-0.572,+0.132,+0.711,+0.463,-0.793,-0.210,+141.125,-53.688,+129.438,-1, 8, -3, -4, -2, -5, 2, -1,-1.5051662728419632,1.1127885977271526
1503612767893,-0.381,-0.586,+0.103,+0.708,+0.514,-0.885,-0.275,+123.562,-68.125,+125.812,24, 31, 1, 8, 27, 1, 1, -1,-1.536145578667959,1.1128368230299728
1503612767915,-0.376,-0.597,+0.077,+0.705,+0.479,-0.854,-0.243,+112.188,-63.812,+108.188,-47, 29, 23, 8, 3, -1, 8, -4,-1.5636753826331065,1.1120869954296408
1503612767938,-0.372,-0.606,+0.050,+0.702,+0.375,-0.846,-0.161,+100.938,-78.875,+96.938,-25, 3, 13, -3, -34, -10, 6, -3,-1.590077230038821,1.107154859093098
1503612767955,-0.370,-0.612,+0.024,+0.698,+0.389,-0.872,-0.174,+92.375,-79.625,+90.438,-24, -49, -15, -11, -12, -5, -13, -22,-1.6126991846113763,1.0964041831079123
1503612767975,-0.368,-0.616,-0.001,+0.697,+0.358,-0.922,-0.244,+75.125,-82.438,+83.688,10, 2, -3, 3, 10, 1, -6, -5,-1.6288831674713242,1.0807891637051734
1503612767998,-0.369,-0.617,-0.025,+0.695,+0.383,-0.922,-0.203,+58.312,-99.250,+74.938,-12, 30, 36, 35, 47, 11, -3, 6,-1.6405910851053152,1.056987042861237
1503612768013,-0.372,-0.614,-0.047,+0.694,+0.364,-0.941,-0.148,+39.312,-106.312,+64.750,26, 12, -24, -10, -35, -21, -2, 8,-1.637766802540517,1.0179980010751577
1503612768035,-0.377,-0.609,-0.067,+0.695,+0.279,-0.944,-0.153,+13.625,-112.750,+52.688,70, -56, -32, -11, 15, 4, 4, 10,-1.6295410195964313,0.9729812256700037
1503612768058,-0.385,-0.598,-0.082,+0.698,+0.284,-0.974,-0.069,-24.875,-113.750,+29.750,-63, -63, -6, -2, -11, -8, -14, -12,-1.5973224621076394,0.9057278869632183
1503612768073,-0.397,-0.583,-0.093,+0.703,+0.248,-0.946,-0.037,-68.000,-119.125,+6.875,-23, 39, 29, -12, -48, 16, 1, -12,-1.5596704562442643,0.8313765572290083
1503612768095,-0.412,-0.562,-0.097,+0.710,+0.278,-0.913,-0.008,-114.812,-110.688,-20.438,-19, -45, -20, 31, -39, -9, 17, 27,-1.5103170786528552,0.749633193513764
1503612768117,-0.429,-0.539,-0.093,+0.719,+0.380,-0.743,-0.087,-152.375,-93.125,-49.250,-65, 115, 70, -32, 90, 13, 6, -51,-1.4726395500488347,0.6858742888933814
1503612768133,-0.448,-0.515,-0.079,+0.727,+0.471,-0.491,-0.160,-169.875,-61.375,-84.250,10, 23, -39, -12, 76, 10, -19, -18,-1.4518181797718777,0.6487632748573042
1503612768156,-0.467,-0.493,-0.059,+0.732,+0.580,-0.259,-0.176,-169.875,-28.000,-113.750,-32, 14, 24, 24, 45, -4, -16, 28,-1.4471737445759776,0.6357311508308282
1503612768178,-0.486,-0.475,-0.034,+0.733,+0.724,-0.042,-0.280,-158.938,-1.688,-134.000,67, -122, -57, -4, -124, -80, -29, 14,-1.4590022771439626,0.6458715344799159
1503612768198,-0.504,-0.459,-0.006,+0.732,+0.790,+0.119,-0.742,-134.625,+24.000,-148.000,-84, -57, 23, -6, -62, -39, 7, 51,-1.4746829330931215,0.66522118662124
1503612768215,-0.536,-0.453,+0.011,+0.712,-0.146,+0.202,+0.043,-23.500,-33.250,-243.500,-13, 13, 23, -1, 74, 47, 47, -22,-1.5514125437676134,0.7048298832142978
1503612768237,-0.552,-0.447,+0.032,+0.703,+2.001,-0.683,+0.147,-69.250,+29.500,-145.438,-32, 29, 36, 6, 68, 69, -76, 32,-1.5820121801606626,0.7327960799520286
1503612768253,-0.563,-0.423,+0.034,+0.709,+0.441,+0.125,-0.100,-114.938,-103.500,-37.062,-26, 84, 67, 42, -106, -37, 52, 78,-1.5608776340155002,0.6866768926508267
1503612768276,-0.578,-0.407,+0.055,+0.705,+0.025,+0.118,-0.953,-113.250,+4.875,-127.188,38, 27, 9, 21, -82, -83, -42, 9,-1.570175216086747,0.6910147160198505
1503612768299,-0.568,-0.413,+0.089,+0.706,+0.759,-0.075,-0.381,-97.188,+182.812,-26.312,92, 5, -32, -26, -7, 41, 59, -26,-1.5552481411945986,0.7464924375127429
1503612768314,-0.555,-0.425,+0.117,+0.706,+1.406,-0.048,-0.468,-47.375,+175.562,+3.062,32, -15, -22, -12, 21, 10, -14, -36,-1.5450973736866216,0.8058883396188258
1503612768336,-0.554,-0.431,+0.134,+0.699,+1.446,-0.377,-0.489,-14.750,+65.875,-26.438,-14, -103, -17, 23, -17, -16, 41, -17,-1.5543416322548962,0.8428435231452905
1503612768361,-0.563,-0.428,+0.138,+0.694,+0.984,-0.548,-0.502,-12.188,-31.250,-61.188,48, -5, -17, 17, 6, 6, -20, -33,-1.571136488547594,0.8467293573038299
1503612768374,-0.572,-0.421,+0.141,+0.690,+0.613,-0.480,-0.569,-25.500,-23.625,-67.875,-11, 1, -15, -27, 19, 17, -6, -97,-1.5805418341634272,0.8402962987463779
1503612768396,-0.573,-0.419,+0.152,+0.688,+0.500,-0.408,-0.553,-37.812,+48.250,-48.312,11, 2, -13, -18, 17, 12, 4, 127,-1.5792912044750231,0.8523692738196947
1503612768417,-0.567,-0.425,+0.171,+0.685,+0.746,-0.460,-0.527,-40.000,+111.875,-26.500,4, -8, -18, -15, 12, 10, -1, -94,-1.575381281761841,0.8898780762451728
1503612768434,-0.560,-0.433,+0.191,+0.680,+0.994,-0.509,-0.512,-34.312,+125.688,-28.625,16, 2, -11, -14, 10, 4, -3, -35,-1.5731458218277081,0.9328873203288184
1503612768456,-0.556,-0.439,+0.209,+0.674,+1.048,-0.482,-0.441,-30.375,+95.062,-41.750,3, -43, -18, -8, 5, 2, -4, 28,-1.5747770558299123,0.9703725852715194
1503612768477,-0.553,-0.442,+0.223,+0.670,+0.997,-0.419,-0.423,-31.500,+65.500,-36.562,-3, 5, -4, -7, 8, 7, -2, 22,-1.5732969824561691,0.9963627487878018
1503612768495,-0.550,-0.444,+0.235,+0.667,+0.921,-0.354,-0.417,-30.312,+60.875,-24.562,1, 5, -2, -2, 1, -2, -1, 14,-1.5700238147984806,1.0175083203198296
1503612768518,-0.546,-0.446,+0.246,+0.665,+0.877,-0.300,-0.412,-27.688,+62.188,-14.000,0, 8, 3, 1, -23, -10, -7, -19,-1.5645189931415613,1.037078369947648
1503612768537,-0.542,-0.448,+0.255,+0.663,+0.867,-0.320,-0.456,-25.250,+59.125,-11.375,-6, 12, 7, -1, 12, 11, 3, -13,-1.5591157694921065,1.053646675573081
1503612768554,-0.539,-0.449,+0.265,+0.662,+0.842,-0.314,-0.415,-26.938,+51.875,-14.562,1, 2, -2, -2, -2, -2, -1, -20,-1.554240566914982,1.070565845439666
1503612768576,-0.533,-0.451,+0.275,+0.660,+0.805,-0.261,-0.361,-30.062,+62.062,-7.500,1, 13, 2, 3, -12, -9, -3, -6,-1.5445100991595593,1.0883059719056651
1503612768598,-0.526,-0.455,+0.288,+0.658,+0.788,-0.257,-0.315,-34.250,+87.812,-5.375,0, -12, -4, -3, -2, 0, -1, -8,-1.536650391091964,1.115364331595266
1503612768620,-0.517,-0.460,+0.303,+0.656,+0.833,-0.343,-0.346,-37.500,+99.625,-7.875,-2, 2, -1, -2, -2, 2, 1, -9,-1.5267087416309943,1.1477016635004544
1503612768637,-0.507,-0.465,+0.319,+0.652,+0.885,-0.362,-0.367,-39.125,+110.000,-8.812,-6, -9, -10, -8, -2, 4, 3, -3,-1.5150469804445321,1.1815459807979654
1503612768662,-0.497,-0.470,+0.336,+0.647,+0.898,-0.277,-0.382,-37.688,+119.875,-12.938,-24, -4, 3, 4, -1, -4, -3, -8,-1.5039670988020974,1.217702980568681
1503612768680,-0.487,-0.476,+0.354,+0.641,+0.869,-0.223,-0.358,-31.625,+128.250,-20.250,2, -4, -3, -6, 0, 6, -1, -26,-1.4955130633435443,1.2584938493735582
1503612768697,-0.478,-0.483,+0.373,+0.632,+0.819,-0.287,-0.375,-22.875,+134.250,-29.750,6, -1, -1, -1, -3, -6, -1, -4,-1.49169453056249,1.3038966431599688
1503612768717,-0.470,-0.490,+0.392,+0.621,+0.826,-0.346,-0.308,-16.000,+142.188,-44.438,0, 0, -1, 1, -4, -4, -1, -22,-1.4903832627411167,1.3501926460883944
1503612768740,-0.463,-0.497,+0.412,+0.608,+0.932,-0.277,-0.297,-9.500,+144.000,-51.500,2, -1, -3, 0, -2, 1, 2, 15,-1.4915373751858618,1.3992858524407539
1503612768756,-0.457,-0.504,+0.430,+0.593,+1.060,-0.262,-0.256,+7.000,+138.250,-52.812,3, 6, 6, 3, 6, 11, -4, -35,-1.4948031094203638,1.4455908465554375
1503612768778,-0.455,-0.510,+0.443,+0.580,+1.067,-0.342,-0.234,+15.188,+105.750,-55.625,-2, -4, -2, 1, 2, -14, 12, 51,-1.5037817057450265,1.4817646416119845
1503612768800,-0.454,-0.514,+0.452,+0.570,+1.004,-0.363,-0.221,+21.562,+87.875,-54.875,5, 4, 3, 2, 2, 12, 1, -14,-1.510418740139927,1.5067288202874867
1503612768816,-0.454,-0.520,+0.462,+0.557,+0.985,-0.350,-0.153,+29.625,+89.688,-58.000,2, -2, -5, -3, -2, -2, -7, 15,-1.52320879147548,1.538064726212705
1503612768837,-0.456,-0.523,+0.470,+0.546,+1.078,-0.301,-0.027,+29.000,+68.062,-62.562,0, -4, -3, -4, 1, -1, -15, -8,-1.5333531953390231,1.5595447111798308
1503612768862,-0.456,-0.527,+0.477,+0.535,+1.079,-0.260,-0.033,+25.875,+67.125,-52.000,5, -6, -2, 0, 10, 9, 11, 22,-1.541864625263962,1.5814072821630714
1503612768875,-0.455,-0.532,+0.483,+0.526,+1.092,-0.214,+0.026,+25.562,+69.938,-31.500,-3, -1, -1, 1, -4, 5, 4, 2,-1.5507480748706304,1.603665774624802
1503612768897,-0.453,-0.537,+0.487,+0.518,+1.171,-0.175,+0.107,+22.188,+50.500,-18.188,-14, -3, -2, -3, -8, -11, -4, 3,-1.557853983246946,1.6222878211967706
1503612768920,-0.454,-0.540,+0.490,+0.512,+1.158,-0.128,+0.135,+21.438,+30.062,-20.188,43, 18, 6, 6, -8, -2, -2, 6,-1.566201229491446,1.634615678522652
1503612768937,-0.457,-0.541,+0.491,+0.508,+1.094,-0.156,+0.111,+22.938,+7.438,-22.438,-14, -8, 1, -1, -3, -5, -8, -27,-1.5738699208864195,1.6386693192222497
1503612768965,-0.459,-0.542,+0.491,+0.504,+1.020,-0.112,+0.139,+16.375,+7.688,-15.125,-5, -4, -9, -5, 4, 2, 5, 49,-1.5797315167137074,1.6408990199934947
1503612768980,-0.460,-0.543,+0.493,+0.501,+0.983,-0.034,+0.178,+12.250,+9.562,-8.938,6, -2, 0, -2, -2, -13, 19, 60,-1.5837412696204036,1.6469372093055261
1503612768996,-0.461,-0.544,+0.495,+0.497,+0.996,+0.006,+0.204,+8.812,+12.000,-7.562,5, 2, -2, -5, 0, 18, 1, -7,-1.5877630992173704,1.653060098349695
1503612769017,-0.461,-0.545,+0.496,+0.494,+1.000,-0.006,+0.201,+6.562,+7.375,-8.000,-15, -8, 2, 5, 13, -3, 2, -44,-1.5899605767017329,1.6573090185789736
1503612769040,-0.462,-0.544,+0.498,+0.493,+1.003,-0.029,+0.176,-0.188,+1.938,-10.812,20, 7, 7, 6, -2, 6, 14, 9,-1.5896038418671146,1.6590054102373102
1503612769056,-0.464,-0.542,+0.500,+0.491,+1.005,+0.072,+0.170,-3.125,-3.375,-8.125,-8, -21, -7, -1, 2, -1, 11, 45,-1.5889570487056344,1.6586282337465932
1503612769077,-0.466,-0.541,+0.500,+0.490,+0.965,+0.115,+0.170,+0.312,-8.812,-3.938,-16, 3, -6, -9, -3, -19, -29, -48,-1.590513521080651,1.6564452295022634
1503612769095,-0.467,-0.539,+0.501,+0.490,+0.950,+0.091,+0.183,+0.188,-9.562,-1.062,-5, -6, -3, -2, -7, -12, 7, 34,-1.5880536533737362,1.6541141577855571
1503612769116,-0.469,-0.539,+0.501,+0.489,+0.966,+0.068,+0.163,-0.062,-8.312,+1.812,3, 5, 8, 13, -23, -4, 33, 56,-1.5917832726395145,1.6540180257646466
1503612769138,-0.469,-0.538,+0.500,+0.490,+1.030,+0.037,+0.140,-0.500,-8.812,+7.938,-36, -26, -19, -15, -6, -7, -20, 1,-1.589648967530709,1.6499434447793724
1503612769154,-0.470,-0.538,+0.499,+0.491,+1.059,+0.036,+0.131,-1.312,-9.938,+8.938,11, 5, 1, -5, 33, 27, -9, -40,-1.591513188126398,1.6478625009505101
1503612769176,-0.471,-0.537,+0.497,+0.492,+1.023,+0.016,+0.153,+0.625,-15.750,+6.625,17, -2, -9, -3, -19, -9, 22, 43,-1.5912699397973258,1.6417953494470856
1503612769200,-0.473,-0.536,+0.495,+0.494,+1.012,-0.019,+0.160,-0.250,-22.062,+6.375,-6, 13, 4, 0, -2, -6, -17, -68,-1.5928877177329177,1.6355995100112948
1503612769220,-0.474,-0.535,+0.493,+0.496,+0.991,-0.028,+0.121,-0.312,-19.375,+9.250,-8, -1, -3, -1, -4, -2, -36, -55,-1.592644715631028,1.629498014540423
1503612769236,-0.475,-0.535,+0.491,+0.498,+1.001,-0.014,+0.119,-1.688,-16.500,+13.500,-9, 4, 4, 2, -1, 11, 11, -23,-1.5945281870846515,1.6255023080364968
1503612769258,-0.475,-0.534,+0.489,+0.500,+1.007,-0.003,+0.147,-4.750,-18.062,+17.250,-2, 1, 5, 2, 2, -14, -38, 12,-1.5924143741562335,1.6194921167736365
1503612769280,-0.475,-0.533,+0.487,+0.503,+1.026,+0.005,+0.137,-5.312,-20.750,+17.062,-3, -1, -3, -1, 0, 9, -21, -26,-1.5902804765577316,1.6134455417037663
1503612769298,-0.474,-0.533,+0.484,+0.506,+1.055,-0.012,+0.167,-7.875,-21.938,+23.562,-4, 2, 1, 1, 9, -5, -2, -15,-1.5884014147038674,1.6076505947985635
1503612769318,-0.473,-0.533,+0.480,+0.512,+1.031,-0.017,+0.143,-12.688,-29.688,+34.188,12, 4, -7, 0, 4, -7, 17, -15,-1.5864933282604199,1.5998901480527747
1503612769340,-0.473,-0.532,+0.476,+0.517,+0.993,-0.001,+0.109,-9.125,-31.438,+32.500,2, -8, -7, -6, -12, 7, 16, -6,-1.58436191945251,1.5900815786261928
1503612769356,-0.473,-0.531,+0.473,+0.520,+0.942,+0.022,+0.092,-3.438,-23.125,+28.562,2, 7, 6, -2, -9, -6, -14, -17,-1.5822416864776987,1.5822416864776987
1503612769378,-0.473,-0.532,+0.470,+0.523,+0.977,-0.008,+0.120,-0.500,-19.188,+24.000,6, 1, 5, 0, -4, -3, 32, 9,-1.5843715725418377,1.5786844565868994
1503612769401,-0.471,-0.534,+0.467,+0.525,+1.029,-0.047,+0.062,+1.312,-6.750,+30.250,-1, -4, 0, 3, 1, -6, -8, -4,-1.584883701949528,1.577329497112403
1503612769416,-0.469,-0.536,+0.464,+0.527,+1.028,-0.117,+0.097,+1.375,-4.562,+29.375,0, 2, 3, 2, 4, -3, 42, -26,-1.5854302547620418,1.5760230129750867
1503612769439,-0.467,-0.537,+0.459,+0.532,+1.096,-0.202,+0.128,-6.562,-22.438,+31.375,0, -1, -1, 0, -17, -2, -11, 27,-1.5838439752833253,1.568877009277831
1503612769461,-0.465,-0.538,+0.453,+0.538,+1.090,-0.188,-0.013,-4.750,-25.000,+44.688,-1, -1, -4, -2, 3, -3, -11, 19,-1.5822742265628615,1.5599703208813291
1503612769483,-0.462,-0.539,+0.448,+0.544,+1.037,-0.210,+0.087,-11.375,-20.062,+43.125,-3, -3, -4, -4, 2, 4, 6, 19,-1.578842013572661,1.552989267171719
1503612769499,-0.458,-0.539,+0.444,+0.549,+0.997,-0.257,+0.105,-20.000,-22.750,+33.000,1, -8, -2, -1, 7, 0, 24, 23,-1.5713770610222777,1.5456435665811654
1503612769520,-0.456,-0.538,+0.440,+0.556,+1.046,-0.233,-0.000,-19.375,-30.688,+32.688,-10, -4, -7, -3, -9, 12, -25, -34,-1.5654522309386278,1.5362037900766425
1503612769536,-0.455,-0.535,+0.434,+0.564,+0.992,-0.169,-0.072,-18.625,-35.062,+37.375,14, 10, 9, 7, -2, 0, 7, -6,-1.5569881579826517,1.5187766309902746
1503612769558,-0.454,-0.534,+0.430,+0.570,+0.896,-0.138,-0.031,-16.625,-28.688,+35.438,2, -4, 0, -1, -5, -10, -6, 33,-1.5529276309342548,1.509454328650638
1503612769587,-0.451,-0.534,+0.426,+0.575,+0.907,-0.192,-0.008,-13.250,-17.375,+35.250,-2, 0, 0, -1, 5, 14, 23, -15,-1.5472945157516522,1.5022150861856869
1503612769596,-0.447,-0.534,+0.422,+0.580,+0.991,-0.247,-0.008,-16.625,-14.188,+42.188,-3, -3, 0, -2, -7, 1, 22, -32,-1.539781199562963,1.4949067909357578
1503612769618,-0.444,-0.534,+0.417,+0.586,+0.997,-0.219,-0.050,-17.000,-18.000,+44.188,-2, -2, 5, 2, 23, 14, 1, 78,-1.5341397502801877,1.4859360823809544
1503612769642,-0.441,-0.534,+0.412,+0.593,+0.977,-0.222,-0.058,-14.562,-26.312,+44.562,-8, -5, -9, -7, -18, -12, -16, 20,-1.5285325952657616,1.4770761505573067
1503612769657,-0.439,-0.533,+0.407,+0.599,+0.919,-0.232,-0.063,-15.938,-26.812,+41.125,7, 1, -2, -3, 8, 6, -11, 35,-1.5225105155045584,1.4659827981960787
1503612769678,-0.436,-0.532,+0.402,+0.604,+0.905,-0.257,-0.013,-17.562,-26.938,+34.812,6, 3, -1, 0, 10, -13, 0, 5,-1.5145281467101244,1.4546893341037412
1503612769701,-0.435,-0.530,+0.399,+0.609,+0.943,-0.244,-0.051,-17.312,-27.688,+26.688,9, 0, -1, -1, -8, -6, -15, 20,-1.5081664618343422,1.4449728648375415
1503612769716,-0.435,-0.527,+0.394,+0.615,+0.920,-0.231,-0.136,-15.938,-31.500,+25.812,1, -1, -1, 2, 7, 5, 3, 4,-1.5013614680158833,1.4295851553583152
1503612769739,-0.435,-0.523,+0.388,+0.621,+0.869,-0.275,-0.125,-16.875,-45.188,+24.812,-4, 1, 0, -3, 7, 7, -4, -25,-1.4922240533431563,1.4101133576009721
1503612769760,-0.436,-0.520,+0.383,+0.627,+0.824,-0.306,-0.127,-13.812,-37.188,+21.062,-4, 0, 2, 3, -13, -9, -5, -32,-1.48738959058056,1.3950363337727056
1503612769776,-0.435,-0.518,+0.380,+0.631,+0.807,-0.288,-0.149,-15.125,-25.938,+14.625,-5, -2, 0, 1, 4, 7, -7, -9,-1.4809713309809618,1.3853074035289794
1503612769801,-0.436,-0.514,+0.377,+0.635,+0.899,-0.252,-0.193,-16.625,-23.125,+9.250,-2, 0, 1, 0, 6, 0, 2, 1,-1.4739807282061421,1.3713785149456992
1503612769820,-0.437,-0.510,+0.374,+0.640,+0.959,-0.325,-0.220,-19.625,-32.062,+12.125,27, 1, 0, -2, 1, 3, 3, 30,-1.4671534727619315,1.3576877235872735
1503612769838,-0.437,-0.507,+0.370,+0.644,+0.882,-0.380,-0.187,-17.188,-32.688,+8.688,-51, -5, -2, -1, 0, -2, -3, -13,-1.460415248893965,1.3441331191248003
1503612769858,-0.438,-0.503,+0.367,+0.648,+0.835,-0.341,-0.226,-14.875,-25.812,+2.250,7, 2, 3, 1, 6, 5, 7, 17,-1.4536071959678893,1.3304051978540323
1503612769880,-0.441,-0.500,+0.365,+0.650,+0.868,-0.263,-0.254,-5.938,-23.000,+1.062,-15, 1, -1, -4, 0, 5, -2, -9,-1.453004599597875,1.3210173514232675
1503612769896,-0.442,-0.498,+0.363,+0.652,+0.917,-0.319,-0.236,-2.250,-17.062,-2.062,18, -5, -2, -1, -9, -3, -4, 2,-1.4506169287825312,1.3134345737808266
1503612769918,-0.444,-0.497,+0.361,+0.653,+0.914,-0.396,-0.249,-0.375,-13.625,-2.438,-57, -1, 1, -1, -5, -3, -2, -8,-1.4523481344833922,1.3082249311117151
1503612769940,-0.445,-0.496,+0.358,+0.654,+0.924,-0.394,-0.228,+0.500,-15.500,+1.438,-7, -1, 2, 5, 4, -19, -11, 4,-1.451941254056715,1.3009270089563725
1503612769956,-0.446,-0.496,+0.356,+0.654,+0.895,-0.390,-0.191,+5.562,-11.688,-2.438,14, 1, -1, 1, 11, 11, 9, 8,-1.453732684448964,1.2975490954516853
1503612769978,-0.447,-0.498,+0.354,+0.653,+0.843,-0.412,-0.247,+11.812,-2.062,-6.562,-21, -5, 0, -1, -2, 36, 8, 3,-1.4597874745124821,1.2985542027962884
1503612770002,-0.449,-0.498,+0.355,+0.651,+0.896,-0.395,-0.222,+8.812,+5.125,-15.500,-41, 6, 5, 1, 3, -1, 8, 23,-1.4637751587286327,1.300536633230764
1503612770016,-0.450,-0.499,+0.356,+0.650,+0.981,-0.399,-0.203,+3.438,+4.000,-14.000,-5, -9, -5, -1, 4, -9, -4, 5,-1.4680021706588318,1.3047218866902546
1503612770038,-0.448,-0.502,+0.357,+0.648,+0.939,-0.422,-0.139,+5.688,+17.375,-3.562,57, 0, 0, -1, -7, -14, -11, 1,-1.4704103270180873,1.3124767263167452
1503612770062,-0.445,-0.506,+0.360,+0.644,+0.861,-0.402,-0.145,+10.312,+38.500,-4.375,34, 5, -7, -7, -8, -7, -15, 4,-1.4731030214822853,1.325588051294828
1503612770077,-0.443,-0.512,+0.364,+0.640,+0.933,-0.429,-0.107,+14.062,+42.500,-8.750,-1, 2, -1, 0, 1, -10, 0, -7,-1.4824800286149138,1.345530568663483
1503612770098,-0.440,-0.516,+0.369,+0.635,+1.005,-0.452,-0.032,+8.750,+39.938,-13.938,25, 4, 1, 3, 22, 16, 6, -8,-1.485554985837667,1.362354608374388
1503612770120,-0.439,-0.520,+0.373,+0.631,+1.042,-0.450,-0.065,+9.312,+29.000,-15.000,-25, 11, 7, 8, -7, -4, 8, 7,-1.4926512676316335,1.3780871052079
1503612770137,-0.439,-0.522,+0.375,+0.628,+0.959,-0.433,-0.083,+5.188,+17.500,-16.938,20, -6, 2, 4, 4, -4, 0, 21,-1.4971244293102035,1.3859315350312855
1503612770158,-0.438,-0.523,+0.377,+0.626,+0.962,-0.435,-0.087,-0.125,+15.062,-14.000,-12, 2, 0, -3, -2, -2, -2, -1,-1.4974659974285733,1.3913950913210409
1503612770180,-0.436,-0.524,+0.379,+0.625,+0.968,-0.431,-0.077,-3.188,+16.000,-6.000,59, 1, -1, -2, 2, -4, 3, 5,-1.4959453446018252,1.3968237257162943
1503612770196,-0.435,-0.525,+0.382,+0.624,+0.914,-0.433,-0.023,-10.250,+13.125,-13.000,-11, -1, 1, 1, -6, -4, 8, -8,-1.496461629088132,1.404271087114215
1503612770219,-0.434,-0.525,+0.385,+0.622,+0.920,-0.381,-0.058,-7.750,+13.625,-17.000,-19, -4, 3, 3, 6, -9, -7, -2,-1.494644234544015,1.4092656012132119
1503612770241,-0.434,-0.525,+0.388,+0.621,+0.919,-0.396,-0.083,-5.188,+13.125,-16.875,-18, -9, -6, -1, -7, 4, 6, 3,-1.494827143778533,1.4145893601049884
1503612770256,-0.434,-0.524,+0.391,+0.620,+0.953,-0.394,-0.131,-8.812,+10.312,-19.750,-16, -15, -7, -1, 11, 6, -4, -2,-1.492746728350901,1.4176053344646735
1503612770280,-0.434,-0.523,+0.395,+0.618,+0.868,-0.342,-0.125,-7.625,+23.688,-24.812,2, -13, -8, -1, -6, 1, -2, -5,-1.4906916920497695,1.4223585663766987
1503612770301,-0.434,-0.524,+0.401,+0.613,+0.819,-0.291,-0.088,-2.812,+35.938,-31.688,4, 5, 1, -2, -3, -3, -10, -4,-1.493106209915035,1.435078229246805
1503612770317,-0.436,-0.523,+0.409,+0.607,+0.930,-0.222,-0.048,+0.062,+36.062,-45.000,-27, 0, -2, -3, -1, -7, -7, -6,-1.494932764642825,1.4471574419874702
1503612770340,-0.438,-0.523,+0.416,+0.601,+1.036,-0.230,-0.068,+5.500,+33.312,-39.812,-7, 10, 6, 1, 0, 0, 7, 4,-1.4989018014432323,1.4597622636662033
1503612770361,-0.440,-0.523,+0.420,+0.596,+1.024,-0.216,-0.117,+10.438,+20.625,-30.812,-2, -2, 1, -1, -1, 2, 0, 2,-1.502690575805676,1.4669521663651186
1503612770376,-0.444,-0.522,+0.424,+0.592,+0.952,-0.182,-0.074,+9.625,+15.938,-37.125,12, 2, -6, -5, -12, 0, -6, -5,-1.5081326984914207,1.4722303299946786
1503612770399,-0.447,-0.522,+0.430,+0.586,+0.908,-0.149,-0.052,+10.188,+25.000,-37.812,-1, -7, -4, 0, 6, -10, 0, -2,-1.513894648158236,1.4832097963670525
1503612770420,-0.450,-0.523,+0.434,+0.580,+0.958,-0.132,-0.107,+16.500,+26.312,-28.438,4, 3, 1, -1, -4, -1, 2, 0,-1.521713067851616,1.492701835521592
1503612770439,-0.450,-0.525,+0.437,+0.575,+1.032,-0.206,-0.017,+11.938,+28.062,-18.438,7, -14, -8, -2, -4, 2, -3, -4,-1.5260165314842948,1.502381652576181
1503612770458,-0.449,-0.526,+0.441,+0.571,+1.027,-0.167,+0.051,+4.750,+25.688,-14.250,-15, -1, -4, -4, -5, -1, -6, -12,-1.526342735549417,1.5117586883379153
1503612770481,-0.451,-0.527,+0.443,+0.568,+1.028,-0.098,+0.002,+8.562,+10.562,-11.625,-11, 4, 3, 7, 21, 25, 12, 7,-1.5322760065527945,1.5176643923271258
1503612770496,-0.453,-0.527,+0.444,+0.566,+1.035,-0.135,-0.056,+11.688,+3.750,-11.500,-15, 31, 20, 5, 3, 1, 7, 5,-1.5360173563943336,1.51954898280686
1503612770518,-0.455,-0.528,+0.444,+0.563,+1.027,-0.173,-0.003,+9.812,+6.625,-8.938,66, 38, 5, 4, 5, -6, 5, 23,-1.5418784083056334,1.5217141741944533
1503612770541,-0.455,-0.529,+0.444,+0.562,+1.029,-0.222,+0.042,+5.938,+3.125,-3.250,-17, -24, -10, -8, -8, -5, -5, -9,-1.5440306558503547,1.5238664694081605
1503612770557,-0.455,-0.529,+0.444,+0.562,+1.031,-0.218,+0.037,+0.500,-1.375,-2.000,-23, -5, -1, -1, -5, -9, -6, -11,-1.5440306558503547,1.5238664694081605
1503612770579,-0.455,-0.529,+0.444,+0.562,+1.006,-0.192,+0.024,-3.938,-3.500,+0.562,-2, -8, 2, 2, 5, 13, 0, 3,-1.5440306558503547,1.5238664694081605
1503612770600,-0.455,-0.528,+0.444,+0.563,+0.952,-0.181,-0.001,-3.500,-4.750,-2.375,-10, -13, -9, -9, -8, -9, 1, -5,-1.5418784083056334,1.5217141741944533
1503612770616,-0.456,-0.527,+0.445,+0.562,+0.954,-0.191,-0.012,-0.938,-3.438,-8.875,-6, -11, -3, 1, 7, 5, 13, 5,-1.541596438449401,1.5213954819245006
1503612770640,-0.458,-0.526,+0.445,+0.562,+0.972,-0.205,-0.011,-0.125,-2.812,-13.250,30, -16, -11, -2, -2, -7, -12, -7,-1.543212403023461,1.5193161845718888
1503612770660,-0.460,-0.524,+0.446,+0.560,+0.980,-0.171,+0.003,+1.000,-3.125,-18.500,-14, -4, 1, -1, -9, -3, -5, -7,-1.5426663837732855,1.5168389716421888
1503612770677,-0.463,-0.523,+0.447,+0.559,+0.990,-0.130,-0.029,+5.188,-6.125,-19.750,-6, 3, -3, -3, -1, 3, 6, -6,-1.5462335675625292,1.516660639680648
1503612770698,-0.467,-0.521,+0.448,+0.556,+1.004,-0.105,-0.053,+7.500,-4.500,-22.375,-3, 2, 4, 4, 9, -3, -8, 1,-1.5495647794469147,1.5142861206898142
1503612770721,-0.471,-0.519,+0.449,+0.554,+0.990,-0.124,-0.003,+9.750,-4.312,-26.125,2, 18, 5, -2, -9, 2, 10, 13,-1.5529872313237818,1.5119868988162581
1503612770744,-0.475,-0.518,+0.450,+0.551,+1.015,-0.146,-0.005,+11.188,-6.875,-22.125,-11, 8, 5, -1, -11, -8, -11, -10,-1.5585683706300297,1.5118041259659247
1503612770758,-0.477,-0.518,+0.450,+0.549,+0.966,-0.156,-0.007,+5.438,-1.875,-17.188,9, 10, 3, -7, -8, -2, 8, -3,-1.5624182880504602,1.5118203246364832
1503612770781,-0.478,-0.517,+0.453,+0.547,+0.925,-0.073,+0.021,+3.562,+6.938,-17.500,2, -7, -3, -1, -6, -1, -1, 5,-1.5622686307110982,1.5152845046407803
1503612770796,-0.480,-0.517,+0.456,+0.542,+0.955,-0.001,+0.021,+6.750,+14.562,-22.625,-12, -3, 1, 4, 11, 3, -9, 2,-1.5661362595425568,1.5208190004802624
1503612770819,-0.481,-0.517,+0.459,+0.539,+1.046,-0.055,-0.012,+6.688,+17.125,-14.625,2, -3, -3, -4, -2, -2, -12, -4,-1.5680776397549465,1.5264171458601463
1503612770841,-0.481,-0.518,+0.461,+0.536,+1.075,-0.109,+0.042,+3.062,+14.438,-15.000,-17, 6, 1, -2, 4, -2, -3, -11,-1.570162031431183,1.5322162941864559
1503612770856,-0.482,-0.517,+0.463,+0.534,+1.089,-0.116,+0.043,-1.625,+1.500,-15.750,2, -6, -7, 0, 7, -4, -3, -4,-1.5700172771516943,1.5338657646229235
1503612770880,-0.484,-0.516,+0.463,+0.534,+1.037,-0.061,+0.007,-3.438,-7.438,-6.438,6, 6, 5, 2, 9, 5, 7, 4,-1.5718257535711433,1.5318310574108644
1503612770901,-0.486,-0.513,+0.465,+0.533,+0.965,-0.007,-0.022,-3.375,-3.875,-11.875,-11, -3, -2, -6, -10, -1, -8, -6,-1.569520158486738,1.5293728647022884
1503612770917,-0.487,-0.513,+0.466,+0.532,+0.998,-0.055,-0.004,-1.250,+4.062,-9.688,-12, 5, -2, -2, -5, 2, 14, -3,-1.5714748480762366,1.5312884638600328
1503612770939,-0.485,-0.513,+0.468,+0.531,+1.016,-0.111,+0.043,-6.875,+10.062,-4.438,10, -6, 1, 0, -3, -1, 0, 8,-1.567568969270261,1.5350051937847184
1503612770960,-0.484,-0.512,+0.470,+0.531,+1.035,-0.073,+0.056,-11.312,+6.125,-4.562,6, -6, -3, 0, -2, 1, -4, 1,-1.5635623659643554,1.5367187521312555
1503612770977,-0.484,-0.510,+0.472,+0.532,+1.051,-0.029,+0.032,-12.500,-4.625,-5.375,-1, -5, -4, -1, -11, -29, -31, -10,-1.55946820967613,1.5364365116932268
1503612770999,-0.485,-0.507,+0.473,+0.533,+0.999,-0.034,+0.033,-16.875,-11.500,-9.688,3, 2, 3, 5, 8, 1, 4, 3,-1.5552933507141973,1.532217394092955
1503612771021,-0.486,-0.504,+0.474,+0.535,+0.988,-0.034,+0.010,-18.125,-13.812,-4.500,-3, -21, -10, -5, 6, 13, 7, 3,-1.5511799171262493,1.528081007662266
1503612771036,-0.487,-0.501,+0.474,+0.537,+1.034,+0.006,-0.054,-13.312,-16.000,+0.938,-7, -8, 2, 4, -25, -15, -25, -2,-1.5470930195983938,1.522045055415209
1503612771057,-0.487,-0.498,+0.473,+0.539,+1.024,-0.021,-0.078,-10.375,-9.562,+1.562,-10, 4, 0, 1, 13, 3, -2, -13,-1.541034834230289,1.5140361862062945
1503612771080,-0.487,-0.497,+0.474,+0.540,+0.930,-0.083,-0.007,-13.500,-5.562,+0.938,4, 2, -3, -9, -6, 17, 13, 3,-1.5390714491832405,1.513999933651718
1503612771102,-0.487,-0.495,+0.474,+0.541,+0.958,-0.039,+0.010,-8.062,-5.438,-5.375,0, -5, -1, -3, -3, 1, 11, -5,-1.5350634857860372,1.509968823298027
1503612771118,-0.489,-0.493,+0.475,+0.540,+1.038,-0.003,-0.059,+0.000,-6.000,-9.750,-4, -14, -4, 3, 10, 0, 2, -5,-1.5350252660557528,1.5079222182889316
1503612771140,-0.492,-0.492,+0.474,+0.539,+1.016,-0.002,-0.093,+5.750,-8.688,-11.312,4, 6, 0, -3, -22, -7, 8, 4,-1.5389609236524069,1.504048079222025
1503612771155,-0.494,-0.491,+0.474,+0.538,+0.954,-0.074,-0.008,+5.562,-5.562,-11.062,6, 7, 1, 5, -8, -15, -5, 5,-1.5409499850090387,1.5020836514245333
1503612771177,-0.495,-0.492,+0.474,+0.538,+0.982,-0.120,+0.023,+4.000,-0.875,-6.250,-38, 45, 16, 4, 5, 6, 16, -6,-1.5449551638516972,1.5041818343035562
1503612771204,-0.496,-0.492,+0.474,+0.537,+1.012,-0.077,-0.036,+3.812,-0.750,-4.188,7, -19, -11, -6, 3, 1, -4, -4,-1.5469398559681171,1.5041842321955046
1503612771215,-0.497,-0.491,+0.473,+0.537,+1.063,-0.039,-0.072,+5.438,-4.750,-2.562,4, 5, 3, 0, -1, -4, -6, 4,-1.5469394304572652,1.5002548892854943
1503612771237,-0.498,-0.491,+0.471,+0.538,+1.060,-0.083,-0.037,+3.438,-10.875,+0.875,3, -5, -4, -8, -14, 3, -1, 2,-1.5489341695007,1.4964671394528928
1503612771260,-0.499,-0.491,+0.470,+0.538,+0.994,-0.085,-0.005,+1.312,-9.875,+2.062,4, -2, -1, 0, 16, -2, -22, -4,-1.550932424837382,1.49458078327019
1503612771275,-0.498,-0.491,+0.468,+0.540,+0.938,-0.095,-0.015,-0.688,-7.500,+7.125,1, 17, 15, 7, 37, 17, 13, 6,-1.5489132656415974,1.4907346201814087
1503612771297,-0.497,-0.492,+0.468,+0.541,+0.974,-0.103,+0.005,-6.125,+0.438,+10.625,5, -18, -10, -9, -5, -1, -5, -2,-1.5489078624284591,1.4927732778118024
1503612771320,-0.494,-0.492,+0.468,+0.542,+1.016,-0.063,+0.010,-11.062,+3.250,+11.562,2, -3, 0, 3, -5, -1, 1, 1,-1.5428921491185446,1.4926155833424988
1503612771345,-0.493,-0.492,+0.467,+0.545,+1.026,-0.016,-0.020,-11.562,-10.938,+19.375,4, 0, 1, 3, -1, 6, -9, 2,-1.540938556222455,1.4908037852100071
1503612771357,-0.492,-0.490,+0.465,+0.549,+1.021,-0.031,-0.038,-14.562,-16.500,+20.062,-7, -28, -5, -6, -6, -5, 2, 1,-1.5349933508315454,1.483032670201422
1503612771383,-0.489,-0.490,+0.463,+0.553,+0.986,-0.089,-0.038,-14.438,-13.188,+24.250,4, -6, -9, -1, 24, 5, 2, 20,-1.5290358956355679,1.4791920397927023
1503612771402,-0.487,-0.490,+0.461,+0.557,+0.990,-0.104,-0.051,-11.938,-6.250,+23.375,6, -5, -5, 2, -9, -4, -1, -4,-1.5251054381104088,1.4754497948317553
1503612771418,-0.484,-0.491,+0.461,+0.558,+1.004,-0.098,-0.050,-9.750,+5.750,+17.812,-12, -5, 0, -1, -3, -2, 4, -5,-1.5211557207650457,1.4773139119809
1503612771440,-0.481,-0.493,+0.461,+0.559,+1.012,-0.108,-0.011,-6.625,+8.750,+15.688,-6, -7, -5, -2, -3, -6, -3, -6,-1.519265052486064,1.481248404296461
1503612771462,-0.480,-0.494,+0.461,+0.559,+1.054,-0.090,-0.056,+1.125,+6.000,+10.812,-2, 4, 1, -6, -22, 7, 6, 3,-1.5193071647051974,1.483225128989716
1503612771482,-0.481,-0.495,+0.459,+0.559,+1.042,-0.085,-0.095,+10.812,+0.188,+3.438,6, 13, 2, 5, 26, 13, 15, -4,-1.5232314203497852,1.4814930494591292
1503612771500,-0.482,-0.497,+0.457,+0.558,+0.997,-0.101,-0.083,+16.375,-0.562,+3.062,4, 16, 10, 2, -1, -4, 6, 0,-1.5291602037952128,1.4817771209290391
1503612771515,-0.482,-0.499,+0.455,+0.558,+0.992,-0.132,-0.060,+12.500,-0.062,+14.312,-7, 63, 16, 5, -3, -10, -22, -17,-1.5331629694240576,1.482087020635529
1503612771537,-0.479,-0.503,+0.453,+0.560,+0.993,-0.190,+0.012,-0.688,+4.312,+28.062,2, -26, -12, -4, 10, -3, -11, 3,-1.535435069381018,1.486522957290388
1503612771560,-0.473,-0.506,+0.452,+0.562,+1.035,-0.192,+0.061,-8.250,+9.562,+32.062,0, -6, -3, 0, -9, 4, 11, 6,-1.5299021612148453,1.4905815946548693
1503612771583,-0.469,-0.509,+0.450,+0.564,+0.985,-0.123,-0.021,-3.625,+10.750,+30.938,4, 3, 2, 4, -16, -1, 1, 8,-1.5283594136757062,1.4929491691255572
1503612771597,-0.466,-0.511,+0.450,+0.565,+0.997,-0.154,-0.013,-7.875,+13.375,+21.125,-3, 1, -3, -5, -15, 4, 0, 4,-1.5267833284000154,1.4970457395694183
1503612771622,-0.462,-0.513,+0.451,+0.566,+1.018,-0.182,+0.087,-10.375,+7.750,+15.438,-5, 7, 4, -3, -1, -3, -9, -5,-1.5233798043540618,1.5029908212000371
1503612771643,-0.462,-0.512,+0.451,+0.567,+1.014,-0.104,+0.006,-4.375,-7.312,+6.750,15, 21, 5, 1, 2, 2, -8, 1,-1.5213060675961938,1.500916935589753
1503612771657,-0.464,-0.511,+0.450,+0.567,+0.978,-0.051,-0.068,-1.625,-8.438,+0.875,-6, -16, -8, -2, 2, -4, -6, -2,-1.5230007421638205,1.4970275274899607
1503612771680,-0.464,-0.510,+0.449,+0.568,+0.962,-0.106,-0.068,-1.375,-2.500,+5.938,-3, 12, -4, -3, -4, -1, 3, -1,-1.520884713779601,1.493057878101313
1503612771695,-0.462,-0.512,+0.450,+0.568,+0.988,-0.150,-0.009,+0.188,+9.438,+8.750,2, -5, -1, -1, 3, -2, 5, 10,-1.521301054622185,1.4990787757585287
1503612771718,-0.459,-0.515,+0.450,+0.568,+0.992,-0.174,+0.018,-0.750,+15.250,+15.875,-6, -19, -8, -6, -6, -4, -4, 1,-1.5219097064173455,1.505288597993709
1503612771740,-0.457,-0.516,+0.450,+0.568,+1.036,-0.138,+0.003,-1.375,+8.812,+15.438,3, 5, 3, 4, 7, -14, -6, 1,-1.5202168619584588,1.5073017411273788
1503612771762,-0.456,-0.517,+0.450,+0.567,+1.053,-0.095,-0.007,-0.562,+7.188,+9.938,-7, -1, 0, -4, -10, -7, -17, -7,-1.5204015334223575,1.5093320302390993
1503612771777,-0.455,-0.518,+0.450,+0.568,+1.018,-0.126,-0.010,+1.375,+2.875,+12.625,1, -4, -2, 1, -4, 6, 16, 0,-1.5206877603715954,1.5114794803304366
1503612771800,-0.454,-0.520,+0.449,+0.568,+0.964,-0.145,-0.016,+1.250,+5.375,+12.062,1, -9, -6, -5, -4, -3, -4, 6,-1.5230380135287915,1.5138465395019216
1503612771816,-0.453,-0.521,+0.449,+0.567,+0.936,-0.146,-0.007,+4.188,+9.812,+8.375,-4, -1, -3, -3, 6, 7, 16, 9,-1.523254850936999,1.515902042487774
1503612771837,-0.452,-0.523,+0.449,+0.566,+0.939,-0.171,+0.021,+7.188,+11.250,+3.000,1, 6, 4, 0, 0, -2, 7, -3,-1.5256490104288665,1.5201394388928418
1503612773270,-0.461,-0.520,+0.411,+0.590,+0.988,-0.204,-0.089,+15.125,-1.375,+16.312,-19, -11, -2, 3, 7, 1, -1, -2,-1.535647850953225,1.4456190494318297
1503612773285,-0.461,-0.522,+0.408,+0.590,+0.991,-0.208,-0.136,+17.188,-0.312,+17.500,2, -11, -4, 0, 8, 6, -7, 7,-1.5398864811657618,1.4446381404995134
1503612773300,-0.461,-0.525,+0.404,+0.590,+0.987,-0.226,-0.125,+18.688,-1.875,+19.000,2, -25, -9, -3, -1, -5, -7, 8,-1.5463140372510085,1.444165092332661
1503612773322,-0.461,-0.528,+0.400,+0.591,+0.985,-0.247,-0.081,+17.375,-6.125,+17.688,9, 11, 5, 1, -10, 1, -3, -8,-1.552820423855735,1.4438975392694964
1503612773338,-0.461,-0.530,+0.396,+0.591,+1.007,-0.240,-0.083,+19.062,-9.312,+18.688,5, 1, -3, -4, -8, -2, 2, 5,-1.557157161909938,1.4413231164811304
1503612773360,-0.462,-0.533,+0.392,+0.591,+1.019,-0.250,-0.085,+21.250,-9.188,+20.438,4, -2, 1, 2, 2, -2, -4, 43,-1.5656778806084117,1.4412792290221985
1503612773382,-0.463,-0.536,+0.387,+0.590,+1.022,-0.245,-0.092,+26.125,-7.375,+21.250,3, -5, -6, -3, 3, -1, -2, 2,-1.574260717993604,1.4394782024580899
1503612773398,-0.463,-0.540,+0.382,+0.590,+1.017,-0.244,-0.100,+31.188,-5.250,+24.438,1, 0, -2, -2, -11, -5, -10, -18,-1.583245365570841,1.4401273846617628
1503612773420,-0.463,-0.544,+0.378,+0.588,+0.966,-0.271,-0.081,+30.375,-1.375,+22.562,-12, 7, 3, -1, 8, 2, 12, -61,-1.5923571566423405,1.4424706899439954
1503612773442,-0.463,-0.549,+0.374,+0.587,+0.953,-0.275,-0.047,+28.062,+0.688,+18.188,5, -5, -1, -1, 0, 1, -1, 18,-1.6038376796074443,1.447465361108673
1503612773462,-0.463,-0.553,+0.370,+0.585,+0.979,-0.246,-0.090,+31.938,+3.500,+20.500,-8, 1, 2, 1, 1, 1, 6, 6,-1.613209331740181,1.4501317639798863
1503612773480,-0.464,-0.557,+0.366,+0.583,+0.976,-0.239,-0.125,+33.688,+3.312,+21.875,3, -20, -5, 1, 4, 0, 0, 6,-1.6245942814908214,1.4530896209013182
1503612773503,-0.465,-0.561,+0.361,+0.582,+0.976,-0.239,-0.127,+34.250,-1.250,+19.562,27, 1, -4, -3, 1, -2, -2, 52,-1.63610737356345,1.4546298768586146
1503612773518,-0.466,-0.565,+0.357,+0.580,+0.944,-0.273,-0.085,+32.125,-2.375,+16.562,-14, -8, -5, 1, -1, -4, -5, 1,-1.647725050666943,1.4579032400686092
1503612773540,-0.467,-0.568,+0.353,+0.578,+0.948,-0.300,-0.074,+31.000,-2.938,+11.562,-4, 7, 4, 2, -1, -2, -12, -27,-1.6571254488450184,1.4588265467010038
1503612773567,-0.469,-0.572,+0.350,+0.576,+0.987,-0.304,-0.072,+31.188,-2.250,+10.312,-23, -4, -2, -2, -6, -1, -1, -60,-1.670697792714303,1.4641174652739477
1503612773578,-0.470,-0.575,+0.347,+0.573,+0.966,-0.307,-0.040,+28.812,-0.938,+6.375,4, 10, 4, 2, 3, 0, 3, 13,-1.680257118630323,1.46678593522359
1503612773600,-0.472,-0.578,+0.344,+0.570,+0.965,-0.282,-0.075,+30.188,-1.562,+5.875,-2, 1, -3, -4, 0, 2, 11, 11,-1.691749089534603,1.469670071262153
1503612773622,-0.474,-0.580,+0.340,+0.568,+0.999,-0.306,-0.102,+29.812,-2.062,+8.312,6, 3, -3, -4, -2, -3, -2, 5,-1.7009985356216095,1.4685982828618074
1503612773638,-0.475,-0.583,+0.338,+0.565,+0.961,-0.322,-0.044,+27.000,+2.938,+5.062,3, -3, -2, -2, -2, -2, 1, -1,-1.7106380314848297,1.4730801283940962
1503612773665,-0.475,-0.587,+0.336,+0.563,+0.936,-0.328,-0.024,+28.062,+6.812,+8.562,5, -8, 2, 2, 0, -2, -12, -3,-1.7207289181611545,1.4801572470065194
1503612773682,-0.474,-0.592,+0.333,+0.561,+0.936,-0.332,-0.035,+25.000,+13.562,+15.062,-6, -2, 2, 1, 1, 5, 0, 1,-1.7316659846828553,1.4883026151600833
1503612773698,-0.471,-0.597,+0.332,+0.558,+0.938,-0.312,-0.003,+25.562,+20.562,+19.062,-2, 4, 4, 5, -1, -4, -8, -2,-1.738925607691689,1.499382974496669
1503612773720,-0.470,-0.602,+0.329,+0.556,+0.952,-0.329,-0.012,+26.438,+12.688,+16.812,0, 2, -4, -5, -3, 1, 2, 11,-1.750187736940382,1.5078675731414073
1503612773742,-0.470,-0.605,+0.326,+0.554,+0.962,-0.368,-0.040,+25.438,+6.500,+16.312,0, 3, -4, -3, 7, 2, -3, -7,-1.758514192176034,1.5112930178289077
1503612773758,-0.469,-0.609,+0.323,+0.552,+0.911,-0.375,+0.029,+21.875,+5.688,+13.250,-12, -3, -1, -1, -1, -2, -2, -43,-1.7676072066791322,1.517410818351012
1503612773780,-0.467,-0.613,+0.321,+0.551,+0.856,-0.385,+0.072,+18.188,+11.125,+13.438,-17, -15, -2, 1, -1, 0, 0, 4,-1.774620740496843,1.5250755051125873
1503612773802,-0.464,-0.617,+0.320,+0.550,+0.913,-0.428,+0.079,+10.312,+12.625,+15.312,1, 0, -10, -11, -2, 3, 15, 32,-1.779756805698171,1.5342315387171348
1503612773818,-0.461,-0.619,+0.319,+0.550,+0.961,-0.401,+0.081,-0.312,+6.875,+16.250,5, 1, -1, 1, -2, -2, 0, -30,-1.7798468524611266,1.5380872816344746
1503612773840,-0.458,-0.621,+0.318,+0.551,+0.893,-0.363,+0.055,-4.000,+12.125,+18.125,2, 2, -7, -9, -6, -2, 11, 35,-1.779787875408272,1.5420097565586883
1503612773864,-0.454,-0.623,+0.318,+0.552,+0.890,-0.389,+0.018,-8.250,+19.875,+21.375,7, -1, -2, -2, -3, -5, -19, -21,-1.7778170794264267,1.5473549063187344
1503612773878,-0.449,-0.625,+0.320,+0.554,+0.937,-0.376,+0.004,-11.562,+27.375,+21.750,6, 20, 7, 2, 1, 2, 10, 19,-1.7734933066981162,1.5555650875347926
1503612773901,-0.444,-0.627,+0.321,+0.555,+0.959,-0.351,+0.028,-10.000,+26.375,+22.688,-8, 0, 4, 6, 1, -3, 1, 8,-1.7697541304032516,1.5624073904732008
1503612773922,-0.439,-0.629,+0.321,+0.556,+0.962,-0.384,+0.047,-8.250,+22.125,+25.625,5, -3, 0, -4, 0, 1, -4, 31,-1.7663875702301102,1.567897127470547
1503612773940,-0.433,-0.631,+0.320,+0.558,+0.949,-0.439,+0.039,-9.000,+20.812,+31.250,12, 3, 3, 3, 2, 0, -7, -5,-1.7615563450443625,1.572038072747397
1503612773963,-0.427,-0.634,+0.319,+0.561,+0.942,-0.463,+0.049,-11.438,+21.938,+36.312,-6, -1, 0, 3, -3, 1, 6, -18,-1.7593104020925667,1.5790620716472905
1503612773983,-0.420,-0.636,+0.318,+0.564,+0.923,-0.444,+0.059,-13.188,+21.000,+40.000,14, 34, 20, 10, 3, -3, -24, -28,-1.7529734472602316,1.5833832375173225
1503612774001,-0.414,-0.639,+0.316,+0.567,+0.896,-0.442,+0.039,-12.875,+18.250,+41.250,-5, -9, -5, -5, 4, 1, 4, 2,-1.7513677801006948,1.5892226122710538
1503612774020,-0.407,-0.641,+0.314,+0.570,+0.901,-0.466,+0.053,-13.812,+17.812,+39.375,4, -7, -4, -1, -1, -1, -1, -4,-1.7456288928184005,1.592338142892035
1503612774042,-0.401,-0.642,+0.313,+0.573,+0.878,-0.480,+0.080,-15.938,+18.375,+37.688,3, 0, -2, 0, 3, 0, 3, -3,-1.7386059906209737,1.5939909044973215
1503612774058,-0.394,-0.644,+0.312,+0.576,+0.827,-0.483,+0.090,-18.750,+22.875,+35.750,12, 7, 4, 2, -7, -3, -30, -34,-1.7328963302764648,1.5986586629863244
1503612774080,-0.387,-0.645,+0.313,+0.579,+0.820,-0.480,+0.092,-22.688,+22.875,+27.562,4, 6, 3, -2, 1, 3, 5, 3,-1.7240464620972513,1.6032654963364699
1503612774106,-0.382,-0.645,+0.314,+0.583,+0.837,-0.465,+0.095,-27.625,+14.750,+20.438,-28, 6, -3, -3, -4, -3, 9, 9,-1.7154601081093965,1.6048288957586005
1503612774118,-0.379,-0.643,+0.316,+0.586,+0.793,-0.417,+0.089,-32.125,+6.562,+11.562,4, -2, 3, -1, -3, -3, 2, -4,-1.7042389160968532,1.6018095499511869
1503612774140,-0.377,-0.640,+0.319,+0.589,+0.724,-0.396,+0.098,-33.375,+0.188,-3.312,8, 2, 4, 3, 5, 4, -1, 4,-1.6915744942875481,1.5972621115713999
1503612774165,-0.378,-0.635,+0.322,+0.592,+0.717,-0.386,+0.064,-32.188,-6.875,-13.062,-8, -6, -2, 3, 0, -2, 3, -1,-1.6780525607029158,1.5868379921393851
1503612774178,-0.381,-0.629,+0.325,+0.595,+0.729,-0.333,-0.022,-33.125,-14.000,-22.188,15, 3, -2, -5, 0, -1, 2, 2,-1.6651571271607086,1.5737199439453022
1503612774201,-0.384,-0.622,+0.328,+0.599,+0.754,-0.352,+0.005,-40.375,-23.938,-25.562,1, 16, 15, 4, 2, 2, -1, -1,-1.6497504468473814,1.5580891177526184
1503612774222,-0.386,-0.615,+0.332,+0.602,+0.700,-0.384,+0.036,-44.438,-18.625,-26.438,-11, -1, -3, -6, -3, -2, 6, 5,-1.6330702434204116,1.5443853297299555
1503612774238,-0.390,-0.607,+0.336,+0.605,+0.680,-0.367,+0.021,-41.938,-18.562,-36.812,-4, -12, -2, -1, 7, 3, 3, 2,-1.6174750712819497,1.528424938247409
1503612774260,-0.396,-0.597,+0.341,+0.609,+0.741,-0.341,-0.042,-46.938,-33.188,-48.438,12, 6, 0, -1, -4, -1, -7, 1,-1.6005239749778242,1.5093758892919737
1503612774282,-0.402,-0.585,+0.345,+0.614,+0.759,-0.332,-0.072,-54.625,-42.000,-49.062,10, 5, 1, -4, 8, 3, 6, -1,-1.579330554896124,1.4843234705666974
1503612774299,-0.410,-0.572,+0.347,+0.620,+0.740,-0.278,-0.100,-56.812,-57.625,-43.375,6, 3, 1, 1, -1, 1, -6, -2,-1.560378840426916,1.454771716935485
1503612774320,-0.418,-0.559,+0.350,+0.625,+0.764,-0.301,-0.110,-55.688,-53.688,-48.438,-4, 2, 0, -1, -4, -3, -1, -3,-1.5427997041818293,1.4280573535573167
1503612774342,-0.423,-0.547,+0.354,+0.629,+0.821,-0.384,-0.090,-56.438,-39.562,-52.188,6, -4, -1, -1, -3, -2, -2, -15,-1.5232755448027633,1.4060751864583332
1503612774358,-0.428,-0.535,+0.357,+0.634,+0.871,-0.427,-0.085,-61.062,-45.875,-44.188,1, 7, 4, 1, 0, -1, -5, 16,-1.5047280340618054,1.383425332570927
1503612774381,-0.434,-0.522,+0.360,+0.640,+0.903,-0.391,-0.128,-63.125,-54.000,-45.750,-2, 2, 0, 0, 2, 4, 4, -7,-1.486901628034546,1.3597059826530375
1503612774405,-0.440,-0.509,+0.363,+0.645,+0.917,-0.336,-0.213,-58.625,-47.938,-47.125,0, -4, -3, 2, -3, -4, -4, -30,-1.4701509134175819,1.3368883768918673
1503612774419,-0.445,-0.497,+0.366,+0.649,+0.923,-0.297,-0.278,-52.375,-36.625,-41.562,1, 2, -1, -1, -6, -1, -3, 7,-1.4545495201599137,1.3168913354602991
1503612774441,-0.449,-0.487,+0.369,+0.652,+0.960,-0.312,-0.232,-51.562,-35.875,-39.500,0, -2, 0, 2, 4, 2, -2, -1,-1.4419139657744333,1.301669164357992
1503612774462,-0.452,-0.477,+0.372,+0.655,+0.961,-0.382,-0.192,-49.812,-28.125,-37.000,-3, -1, 0, 0, 4, 2, -1, -4,-1.4278158169676294,1.2867313359864316
1503612774478,-0.454,-0.470,+0.376,+0.657,+0.971,-0.423,-0.164,-45.438,-20.500,-39.750,-17, 11, 6, 1, -3, -1, -4, -15,-1.4183374763355845,1.2801359777212593
1503612774500,-0.457,-0.462,+0.379,+0.659,+1.038,-0.360,-0.224,-40.562,-27.312,-38.750,-1, -3, -4, 0, -3, -2, 1, 11,-1.409060947254383,1.2701163295548121
1503612774522,-0.461,-0.454,+0.381,+0.660,+1.015,-0.276,-0.289,-33.250,-25.625,-37.125,2, 1, 1, -1, 1, 0, 0, 8,-1.401931243425242,1.2585720308547546
1503612774538,-0.466,-0.446,+0.382,+0.661,+1.019,-0.274,-0.296,-26.500,-32.688,-38.000,4, -1, 2, 4, 4, 0, -6, -5,-1.3971281169299703,1.245698507833159
1503612774561,-0.471,-0.439,+0.383,+0.662,+1.042,-0.347,-0.264,-22.688,-33.000,-36.250,0, 3, 3, 4, -2, -2, -2, 0,-1.3946234058830131,1.2351287255473384
1503612774583,-0.474,-0.435,+0.383,+0.663,+1.048,-0.385,-0.227,-21.312,-28.500,-30.875,-2, -4, -2, -1, -2, -1, 0, 4,-1.3936242029574744,1.2282393314205746
1503612774599,-0.476,-0.430,+0.383,+0.664,+1.038,-0.361,-0.242,-21.375,-25.875,-25.812,-12, 0, 2, 2, 2, -1, 0, -3,-1.3887003361471688,1.2191327427218628
1503612774620,-0.479,-0.425,+0.383,+0.665,+1.032,-0.308,-0.280,-18.125,-27.125,-25.125,0, 3, 1, 0, -3, 0, -3, -1,-1.3860739128959598,1.210429660730146
1503612774642,-0.483,-0.421,+0.383,+0.665,+1.011,-0.293,-0.310,-12.875,-20.438,-30.938,-6, 21, 5, 1, -2, 0, -2, -11,-1.3874257341148517,1.2038097686460323
1503612774658,-0.486,-0.417,+0.384,+0.665,+0.999,-0.291,-0.357,-10.812,-14.438,-28.500,-7, -13, -5, -1, 0, -1, 3, 7,-1.3868621252133313,1.1988901863788572
1503612774680,-0.488,-0.414,+0.384,+0.665,+1.018,-0.261,-0.376,-13.562,-10.625,-20.938,7, 1, 0, 1, 0, -2, -2, 5,-1.3858390195365295,1.193703725047186
1503612774710,-0.489,-0.411,+0.385,+0.666,+1.021,-0.216,-0.297,-15.625,-10.500,-12.938,4, -7, -5, -3, -3, -2, -3, -2,-1.3830038845118477,1.1904814560702084
1503612774718,-0.490,-0.408,+0.385,+0.667,+1.000,-0.161,-0.291,-13.625,-21.125,-8.500,0, -7, -4, -2, -1, -1, -3, 5,-1.3800580872969321,1.1853449915578511
1503612774740,-0.493,-0.404,+0.385,+0.667,+0.980,-0.136,-0.354,-11.562,-17.875,-16.688,-8, 8, 6, 2, 3, 0, 2, 0,-1.379640176513546,1.1786752872224624
1503612774765,-0.496,-0.400,+0.387,+0.667,+0.996,-0.106,-0.341,-11.125,-13.375,-19.062,7, 1, -3, -4, -6, -2, -1, -7,-1.3796303068735059,1.175985454401967
1503612774780,-0.498,-0.398,+0.387,+0.666,+1.026,-0.083,-0.323,-5.500,-10.938,-12.938,3, 0, 3, 1, -2, 0, -1, 6,-1.3804321990575426,1.172553849231274
1503612774803,-0.500,-0.397,+0.388,+0.665,+1.009,-0.112,-0.311,-0.375,-3.438,-12.562,-5, -3, -3, -1, 0, 0, 2, 1,-1.3831352352289905,1.1729661366879862
1503612774823,-0.500,-0.397,+0.390,+0.664,+0.984,-0.133,-0.294,-1.188,+1.125,-9.562,8, 11, 1, 2, 3, 0, -6, -1,-1.3832459253284504,1.17659642186562
1503612774845,-0.501,-0.397,+0.391,+0.662,+0.976,-0.059,-0.308,+3.438,+3.875,-6.250,-6, -20, -9, -2, -1, -1, 2, 2,-1.3852533218477634,1.1782682551020487
1503612774861,-0.503,-0.398,+0.391,+0.660,+0.981,-0.049,-0.333,+11.500,+3.062,-5.125,4, 7, 0, 0, 1, 1, 1, 4,-1.3910762023990466,1.1801479060107225
1503612774883,-0.504,-0.399,+0.391,+0.659,+0.946,-0.116,-0.332,+9.375,+3.562,-2.312,-1, -1, 1, -1, 0, -3, -3, -3,-1.3948533916606098,1.182026916312798
1503612774898,-0.503,-0.401,+0.391,+0.659,+0.942,-0.163,-0.321,+4.562,+5.562,+7.875,0, 2, 0, -2, -3, -4, 1, -1,-1.3960743563497546,1.1854778425116475
1503612774921,-0.501,-0.403,+0.391,+0.659,+0.975,-0.151,-0.345,+2.062,+10.250,+11.000,1, -2, 0, -1, 0, 0, 1, -1,-1.3950910584637097,1.1886380811151176
1503612774943,-0.500,-0.405,+0.391,+0.659,+0.961,-0.098,-0.356,+4.438,+10.875,+12.125,-38, -25, -6, -2, -1, -1, -2, -7,-1.3963568365830588,1.1921151969119588
1503612774959,-0.500,-0.406,+0.390,+0.658,+0.936,-0.078,-0.364,+6.375,+6.062,+8.000,-1, 24, 4, 0, 0, -1, -1, -1,-1.397790583705807,1.1917612941662832
1503612774993,-0.499,-0.407,+0.390,+0.658,+0.938,-0.117,-0.329,+6.625,+6.312,+4.000,8, -9, -3, -1, -2, -3, -2, 0,-1.397326759643446,1.1933582068307131
1503612775007,-0.498,-0.409,+0.390,+0.657,+0.933,-0.146,-0.281,+4.875,+7.312,+6.500,3, -3, -3, -1, 0, 0, 0, -1,-1.3984614891210367,1.196577078422926
1503612775018,-0.497,-0.411,+0.391,+0.657,+0.921,-0.114,-0.268,+4.125,+8.062,+7.750,6, 5, 1, -1, -1, 0, 1, -1,-1.3999319058759472,1.2020535119010982
1503612775041,-0.497,-0.412,+0.391,+0.656,+0.917,-0.065,-0.319,+6.125,+9.500,+2.750,12, 6, 3, 3, 3, 1, 2, 2,-1.40153654912133,1.2036842370206595
1503612775063,-0.498,-0.413,+0.393,+0.654,+0.913,-0.043,-0.340,+7.000,+17.188,-2.688,4, -3, -2, 0, -3, -1, -4, -4,-1.4054612355297198,1.2092413360205372
1503612775085,-0.497,-0.415,+0.394,+0.651,+0.942,-0.057,-0.321,+8.750,+19.125,+2.812,-3, -7, -5, -4, -2, -1, 0, 0,-1.4064671335443764,1.2139061602976595
1503612775101,-0.496,-0.419,+0.395,+0.650,+0.981,-0.109,-0.284,+11.188,+21.438,+12.312,0, 1, 3, 1, 12, 3, -2, -1,-1.4114253127439407,1.2230180666231578
1503612775123,-0.494,-0.423,+0.396,+0.648,+0.975,-0.112,-0.259,+11.188,+19.562,+11.062,-3, -1, 0, 0, -2, 4, 1, -2,-1.414109676250641,1.2316256194391737
1503612775145,-0.494,-0.425,+0.397,+0.647,+0.944,-0.083,-0.262,+12.875,+12.688,+6.250,1, -3, -1, 0, -4, -2, 1, -1,-1.4177283274528556,1.2372110395601195
1503612775161,-0.494,-0.428,+0.396,+0.645,+0.942,-0.104,-0.274,+16.688,+10.375,+5.125,5, 5, 3, -1, 1, 2, -2, 1,-1.4227834717495689,1.240620769441686
1503612775183,-0.494,-0.432,+0.395,+0.643,+0.959,-0.173,-0.273,+19.188,+12.938,+7.125,2, 4, -1, -1, 0, 0, -1, 3,-1.4297314310758038,1.2460577015493766
1503612775205,-0.492,-0.436,+0.394,+0.642,+0.963,-0.224,-0.243,+17.312,+14.688,+9.250,-2, 1, -2, -2, -13, -6, -1, 0,-1.4325667711205854,1.251265353505981
1503612775227,-0.491,-0.440,+0.394,+0.641,+0.973,-0.215,-0.231,+13.125,+9.938,+9.125,-1, -5, -2, 1, 1, 0, 1, 0,-1.4377613003666116,1.2587452265869494
1503612775244,-0.490,-0.442,+0.393,+0.640,+0.970,-0.176,-0.251,+9.875,+9.250,+7.500,-1, -5, -3, -3, -2, -2, -1, -3,-1.4391282864877843,1.2603281155806056
1503612775265,-0.489,-0.445,+0.392,+0.639,+0.952,-0.178,-0.284,+12.500,+10.875,+13.125,14, 1, -2, 0, 1, -2, 2, 2,-1.4424190121450058,1.263961675757614
1503612775281,-0.487,-0.449,+0.391,+0.639,+0.968,-0.226,-0.241,+10.500,+12.250,+19.875,-6, 10, 7, 0, 2, 0, 1, -4,-1.4456605971503504,1.269646911241009
1503612775303,-0.483,-0.453,+0.390,+0.639,+0.982,-0.269,-0.172,+3.438,+12.625,+18.688,-3, -3, -2, 0, 0, 1, 2, -1,-1.4447402508652274,1.274859869680475
1503612775332,-0.480,-0.456,+0.390,+0.640,+0.965,-0.267,-0.154,-2.500,+8.500,+17.750,-3, -5, -2, -2, -2, -2, -3, 0,-1.4443428996166732,1.2804757414172303
1503612775343,-0.477,-0.457,+0.390,+0.641,+0.950,-0.238,-0.202,-3.375,+8.562,+14.188,-4, 10, 5, -1, -1, 0, 0, 0,-1.440091808709807,1.281973850366203
1503612775363,-0.476,-0.458,+0.390,+0.642,+0.939,-0.233,-0.236,-2.188,+3.250,+8.625,-2, -18, -8, -2, -2, -2, -3, -5,-1.4400747092407382,1.2840085166954436
1503612775385,-0.475,-0.459,+0.389,+0.642,+0.951,-0.257,-0.250,-1.562,+3.875,+6.000,1, -1, 3, 2, 0, -1, -1, -2,-1.4398155455591117,1.2839174110392357
1503612775401,-0.474,-0.459,+0.389,+0.643,+0.945,-0.249,-0.219,-5.188,+3.312,+4.375,-7, -4, -3, -1, -5, -3, -2, -2,-1.4378410966531114,1.283876791464661
1503612775423,-0.473,-0.459,+0.390,+0.643,+0.917,-0.230,-0.204,-8.000,-1.688,+1.562,-3, 1, -2, -1, -1, -1, 3, -2,-1.4358659683015187,1.2855159493826094
1503612775440,-0.473,-0.458,+0.390,+0.644,+0.921,-0.231,-0.222,-5.312,-0.938,-0.938,8, 3, -2, 0, 1, -3, -3, 2,-1.4340260258789541,1.283664033062024
1503612775461,-0.473,-0.458,+0.390,+0.644,+0.918,-0.235,-0.238,-2.000,+1.625,-4.500,-1, -1, 2, -1, 1, -1, -2, -2,-1.4340260258789541,1.283664033062024
1503612775483,-0.474,-0.457,+0.391,+0.643,+0.914,-0.197,-0.261,-1.688,+0.188,-10.438,-6, -15, -9, -3, -2, -1, 1, 12,-1.4341571989412991,1.2835382311282335
1503612775498,-0.476,-0.456,+0.391,+0.642,+0.917,-0.175,-0.269,+0.125,+0.125,-9.625,6, -10, -9, -5, 4, 2, 2, 4,-1.4362765445839134,1.281772481529585
1503612775521,-0.477,-0.456,+0.391,+0.642,+0.929,-0.191,-0.241,+0.500,-0.125,-4.875,5, -9, -2, -2, 0, -1, -1, -4,-1.4383847157088243,1.2820383890945057
1503612775543,-0.477,-0.455,+0.392,+0.641,+0.933,-0.201,-0.234,-1.125,+0.250,-3.125,-4, -38, -17, -7, -3, -2, -2, -4,-1.4364246095036248,1.2816549551648528
1503612775558,-0.478,-0.455,+0.392,+0.641,+0.937,-0.183,-0.234,-0.938,-1.688,-2.875,-11, 0, -1, 0, -1, -1, -5, -41,-1.4385354563396358,1.281920246051448
1503612775582,-0.479,-0.454,+0.392,+0.641,+0.954,-0.167,-0.265,+0.688,-4.438,-4.188,13, -1, -2, -1, 6, 1, 1, 10,-1.4386998193311114,1.2801253521566878
1503612775603,-0.481,-0.453,+0.391,+0.641,+0.937,-0.166,-0.282,+2.062,-6.625,-3.562,0, 7, 3, 2, -2, -2, 3, 5,-1.4408685243925223,1.2766926828132286
1503612775618,-0.481,-0.453,+0.390,+0.641,+0.947,-0.186,-0.252,+1.625,-5.062,+1.562,8, -7, -2, -2, 1, -2, -2, 6,-1.4407485299485654,1.2747847484995618
1503612775642,-0.481,-0.453,+0.390,+0.641,+0.962,-0.203,-0.210,-0.188,-0.875,+2.625,-2, -3, -2, -1, 1, -2, -1, -6,-1.4407485299485654,1.2747847484995618
1503612775663,-0.481,-0.453,+0.390,+0.641,+0.973,-0.206,-0.209,-0.750,-0.500,+1.125,-7, -15, -8, -3, -3, 0, -3, 0,-1.4407485299485654,1.2747847484995618
1503612775679,-0.482,-0.453,+0.389,+0.641,+0.996,-0.193,-0.241,+1.125,-3.062,-0.750,-4, 6, 0, -1, 0, -2, 0, -4,-1.4427503315672747,1.2731495249139546
1503612775701,-0.482,-0.453,+0.389,+0.641,+0.993,-0.199,-0.256,+2.625,-1.562,-3.875,-9, 23, 12, 3, 3, 0, 3, 1,-1.4427503315672747,1.2731495249139546
1503612775723,-0.483,-0.453,+0.389,+0.640,+0.952,-0.200,-0.244,+3.562,-4.312,-2.250,1, -10, -4, -2, -6, -1, 1, -2,-1.4447479604610265,1.2731878871287872
1503612775739,-0.483,-0.454,+0.388,+0.640,+0.936,-0.210,-0.224,+3.438,-1.125,+2.438,-4, -5, -4, -3, 5, -4, -8, -9,-1.4465711901569822,1.2733478765737236
1503612775761,-0.483,-0.455,+0.388,+0.640,+0.952,-0.219,-0.214,+2.375,+7.000,+3.125,1, -1, 0, -1, -3, -1, -1, 5,-1.4485128300280987,1.2754134681959897
1503612775792,-0.482,-0.457,+0.389,+0.639,+0.980,-0.221,-0.209,+2.125,+7.875,+2.688,-5, -8, -2, 2, 1, 2, 0, -2,-1.4502828898292295,1.280951726834834
1503612775805,-0.481,-0.458,+0.389,+0.638,+1.010,-0.214,-0.228,+2.438,+4.125,+2.375,11, 0, 3, 1, 1, -1, 1, 4,-1.4500054971469634,1.2825326717747672
1503612775821,-0.481,-0.458,+0.389,+0.638,+0.997,-0.199,-0.254,+3.500,+1.062,+1.875,-3, 0, -2, 0, 0, 1, 0, -1,-1.4500054971469634,1.2825326717747672
1503612775854,-0.481,-0.459,+0.388,+0.638,+0.949,-0.207,-0.230,+4.312,-0.438,+3.875,-5, -4, 1, 0, 3, -1, -3, -6,-1.4518520274995774,1.282716088616795
1503612775866,-0.481,-0.461,+0.387,+0.638,+0.930,-0.215,-0.208,+3.812,+4.688,+6.250,3, -3, -1, -1, -4, -1, 1, 4,-1.4556684262710045,1.2849950136315096
1503612775882,-0.479,-0.463,+0.388,+0.637,+0.952,-0.216,-0.208,+3.062,+15.625,+7.000,2, 1, 0, 0, -2, -3, -3, -10,-1.455399933304822,1.290317205171837
1503612775903,-0.477,-0.465,+0.390,+0.636,+0.970,-0.218,-0.202,+1.812,+21.688,+5.938,-16, -9, 0, 0, -2, -2, -4, -4,-1.455275318416968,1.297553961330898
1503612775925,-0.475,-0.467,+0.391,+0.634,+1.002,-0.210,-0.211,+2.938,+17.000,+4.125,10, -2, 0, 0, -1, -1, -1, 13,-1.454962971935884,1.302712626499746
1503612775942,-0.475,-0.469,+0.392,+0.633,+0.993,-0.203,-0.239,+7.000,+12.625,+1.125,0, 4, -3, -1, 0, -2, -1, 6,-1.4589606560175912,1.3086110669248525
1503612775963,-0.475,-0.470,+0.392,+0.632,+0.943,-0.199,-0.218,+7.938,+7.688,-2.250,-7, -4, -4, -1, -2, 0, -3, -6,-1.4608562339932194,1.310515873901353
1503612775986,-0.476,-0.471,+0.392,+0.630,+0.910,-0.211,-0.182,+6.000,+5.625,-1.625,2, 2, 1, -1, -2, -2, -3, -3,-1.4647320295228474,1.3124673313308524
1503612776003,-0.475,-0.474,+0.393,+0.629,+0.924,-0.233,-0.171,+5.125,+14.375,+0.000,-3, 1, -2, -1, -3, 1, -1, 4,-1.4686925066808423,1.3202696903083506
1503612776024,-0.473,-0.476,+0.395,+0.627,+0.956,-0.246,-0.172,+4.125,+20.875,+0.625,6, 1, -2, 1, 0, -2, 4, -32,-1.4686031704385616,1.3274192346972618
1503612776045,-0.472,-0.478,+0.396,+0.626,+0.991,-0.240,-0.201,+4.750,+15.938,+0.375,-8, -6, -4, -2, -2, -1, 1, 22,-1.470604833988427,1.3331414976958125
1503612776067,-0.472,-0.479,+0.397,+0.624,+0.973,-0.224,-0.204,+6.250,+11.500,-5.875,13, 3, 0, -2, -1, -3, -4, 1,-1.4725457421359667,1.3367801995594129
1503612776083,-0.474,-0.479,+0.397,+0.623,+0.912,-0.197,-0.199,+6.812,+0.750,-10.000,-6, 2, -1, 0, 2, 0, -1, 3,-1.4765627438632467,1.3370469711320172
1503612776105,-0.476,-0.479,+0.397,+0.622,+0.900,-0.210,-0.189,+7.688,+1.125,-8.000,0, 0, -2, -3, -1, -1, 0, 1,-1.4805855762275961,1.3373131462541514
1503612776121,-0.476,-0.481,+0.398,+0.620,+0.929,-0.233,-0.173,+5.312,+10.875,-6.312,0, 3, 0, -1, -1, 0, -2, 4,-1.4845606062676935,1.34309080389917
1503612776145,-0.475,-0.482,+0.399,+0.618,+0.965,-0.231,-0.173,+3.188,+12.562,-5.000,-5, 17, 15, 3, -2, 2, 0, -6,-1.4844632615003963,1.346520931122668
1503612776165,-0.476,-0.483,+0.400,+0.617,+0.989,-0.212,-0.181,+4.500,+11.500,-6.312,2, -7, -3, 2, 2, -1, 4, 0,-1.4885512606163553,1.3505769116045532
1503612776185,-0.477,-0.483,+0.401,+0.615,+0.956,-0.200,-0.172,+6.812,+1.250,-11.000,1, 0, -1, 0, -2, -2, -4, -9,-1.490519641280785,1.35230984995136
1503612776203,-0.480,-0.483,+0.401,+0.614,+0.918,-0.181,-0.151,+7.062,-4.125,-12.812,-4, -1, -3, -2, -1, -2, -1, 5,-1.496586464513122,1.3527737703313316
1503612776225,-0.481,-0.483,+0.401,+0.612,+0.932,-0.219,-0.151,+8.125,+4.562,-10.688,2, 6, 4, 0, 1, 0, -1, 1,-1.4984922286174014,1.3526327633116768
1503612776241,-0.481,-0.485,+0.402,+0.610,+0.979,-0.231,-0.158,+6.125,+12.438,-8.000,12, 14, 4, 0, 8, -1, -5, -6,-1.5024847483904786,1.3584361190484666
1503612776263,-0.481,-0.486,+0.403,+0.608,+1.011,-0.200,-0.155,+4.375,+6.312,-5.250,-8, 2, 5, 1, -2, 0, 1, 5,-1.50445393337674,1.3621062158913793
1503612776285,-0.483,-0.486,+0.403,+0.607,+1.016,-0.211,-0.153,+6.125,-4.375,-4.938,12, 4, 3, 2, 0, 2, 4, 14,-1.508479233649175,1.3623468138060384
1503612776301,-0.484,-0.485,+0.402,+0.607,+0.993,-0.214,-0.144,+5.750,-9.312,-7.500,-8, -6, -5, 0, -2, 0, -3, 1,-1.5084353464274391,1.3585432793202903
1503612776323,-0.487,-0.484,+0.401,+0.606,+0.978,-0.206,-0.146,+3.875,-12.312,-9.625,0, -4, -3, -3, -1, -1, -1, -4,-1.512451644660223,1.3549914957971094
1503612776347,-0.489,-0.483,+0.400,+0.606,+0.970,-0.211,-0.143,+1.750,-10.812,-9.312,-6, -4, 0, -2, 1, 2, -2, -3,-1.51449616564381,1.3514139967357637
1503612776361,-0.490,-0.483,+0.400,+0.606,+0.982,-0.203,-0.139,-0.438,-5.750,-8.875,-15, -5, -6, -2, 2, -3, -6, -2,-1.5165569275689705,1.3516281601799915
1503612776385,-0.491,-0.482,+0.401,+0.605,+0.988,-0.180,-0.151,-1.375,-6.562,-9.250,0, -8, -6, -1, -5, -3, 3, -3,-1.5166112111971628,1.3513893896506215
1503612776404,-0.493,-0.480,+0.401,+0.605,+1.008,-0.164,-0.158,-1.938,-11.938,-11.188,1, -14, -4, -4, -1, 0, 0, 16,-1.516745569574065,1.3475584654427448
1503612776420,-0.496,-0.477,+0.400,+0.605,+1.024,-0.138,-0.160,-0.875,-17.250,-11.688,0, 1, -1, 0, -1, 0, 0, -1,-1.516955404212137,1.3399806437871742
1503612776442,-0.500,-0.475,+0.399,+0.605,+0.999,-0.132,-0.176,+0.625,-23.562,-12.938,3, 3, 1, -1, -1, -1, 0, -4,-1.5212966291996548,1.334779119769629
1503612776465,-0.504,-0.471,+0.398,+0.605,+0.935,-0.128,-0.181,+1.500,-25.688,-16.312,1, 6, 2, 2, 1, 1, -1, -3,-1.5218021007861853,1.3254014174947468
1503612776482,-0.507,-0.469,+0.397,+0.604,+0.931,-0.132,-0.177,+1.250,-20.750,-15.875,-10, -2, -3, -2, -12, -4, 1, -5,-1.524142512815242,1.3198409963437923
1503612776502,-0.510,-0.467,+0.396,+0.604,+0.971,-0.136,-0.206,+2.375,-14.812,-10.000,-4, 3, 0, 0, -3, 1, -6, -7,-1.5265812702506059,1.3145004395594984
1503612776525,-0.512,-0.466,+0.395,+0.604,+0.990,-0.138,-0.216,+1.188,-11.250,-4.812,-11, -3, 0, -1, 2, -1, 1, 4,-1.528860164017541,1.311029306059166
1503612776539,-0.513,-0.463,+0.394,+0.605,+0.986,-0.128,-0.220,-3.812,-16.375,-4.312,6, -1, -2, -2, 3, 0, 4, -2,-1.5252462958651307,1.3033572816262835
1503612776562,-0.515,-0.461,+0.393,+0.607,+0.968,-0.122,-0.248,-5.625,-21.875,-2.438,1, 3, 2, 1, 2, 0, 12, -1,-1.525757967664781,1.2982561997699642
1503612776585,-0.516,-0.458,+0.391,+0.609,+0.930,-0.149,-0.227,-5.688,-19.250,+2.500,-6, -1, -2, -1, -1, -2, -10, -1,-1.5222253333466262,1.2889951348953306
1503612778362,-0.543,-0.484,+0.357,+0.585,+0.988,-0.165,-0.253,+15.938,+0.250,+22.562,10, 9, -2, -1, -2, -1, 2, -5,-1.6300711155096417,1.2855795917902266
1503612778395,-0.542,-0.488,+0.354,+0.586,+0.989,-0.168,-0.250,+18.562,+3.250,+24.312,-3, -4, -2, 0, -7, -1, 4, 0,-1.6357747511524903,1.289169553641333
1503612778407,-0.541,-0.491,+0.351,+0.586,+1.021,-0.164,-0.240,+19.812,+2.375,+24.812,1, 7, 3, 0, 1, -3, 5, -2,-1.639678343533829,1.2904264623401107
1503612778422,-0.540,-0.495,+0.346,+0.586,+1.022,-0.189,-0.236,+21.000,-2.438,+26.500,-9, -9, -3, 0, -1, -1, -10, 1,-1.6457514937931308,1.2906148476679533
1503612778444,-0.539,-0.498,+0.341,+0.587,+1.003,-0.203,-0.244,+22.812,-4.000,+27.125,-11, 23, 13, 2, -2, 0, -1, -5,-1.6498662772554666,1.2888850240304832
1503612778468,-0.538,-0.502,+0.336,+0.588,+0.970,-0.213,-0.247,+23.688,-3.625,+28.188,6, 1, -1, 1, 2, 1, -4, -1,-1.6560461804481166,1.2895585109104573
1503612778482,-0.536,-0.506,+0.332,+0.588,+0.972,-0.221,-0.229,+24.750,+0.188,+32.188,-1, -6, -4, -5, -3, -3, 8, 1,-1.6602416031230351,1.2915579571680833
1503612778505,-0.534,-0.511,+0.327,+0.589,+0.985,-0.235,-0.226,+26.188,+2.750,+34.188,-6, -9, -1, 1, 5, -1, -9, -1,-1.6665877806456042,1.29457034579136
1503612778529,-0.533,-0.515,+0.321,+0.589,+0.990,-0.245,-0.239,+27.250,+2.000,+34.438,-7, -16, 1, 1, 0, 0, -4, 7,-1.673333306021976,1.2939189611082549
1503612778543,-0.531,-0.520,+0.316,+0.590,+0.992,-0.254,-0.247,+28.250,-1.188,+34.938,0, -13, -9, -6, -10, -7, -9, -6,-1.679991536176655,1.297332211193632
1503612778566,-0.530,-0.524,+0.309,+0.591,+0.968,-0.260,-0.233,+29.500,-4.375,+36.562,3, 9, 2, 2, -1, 2, 2, -3,-1.6870257825814592,1.2956776381423158
1503612778587,-0.528,-0.529,+0.303,+0.591,+0.949,-0.282,-0.227,+31.250,+0.125,+38.875,6, 14, 5, -1, -1, -2, -5, -5,-1.6942822220231728,1.2977831731768534
1503612778603,-0.525,-0.535,+0.297,+0.591,+0.941,-0.294,-0.225,+32.562,+4.875,+39.812,-2, 15, 3, -2, 0, 2, 6, 4,-1.701869068059207,1.3023171676062382
1503612778624,-0.523,-0.541,+0.291,+0.591,+0.941,-0.312,-0.210,+33.625,+5.250,+39.688,14, 18, 2, 1, 1, -3, -3, 2,-1.7117767814681144,1.3074768402089436
1503612778647,-0.521,-0.546,+0.285,+0.591,+0.932,-0.326,-0.206,+34.750,+4.062,+38.562,-2, -15, -3, -1, 0, 3, 6, -2,-1.7197471452198856,1.3104301863249164
1503612778663,-0.519,-0.552,+0.278,+0.591,+0.931,-0.352,-0.207,+36.125,+1.438,+36.875,0, -9, -8, -4, -7, -2, -2, 0,-1.7303739771676938,1.3147508205945644
1503612778684,-0.517,-0.557,+0.272,+0.591,+0.913,-0.367,-0.207,+36.750,+0.562,+36.312,-4, -8, -4, -2, 0, 2, -6, -5,-1.7388448018863911,1.3183088458044796
1503612778707,-0.515,-0.562,+0.265,+0.590,+0.899,-0.374,-0.195,+37.812,-0.688,+35.125,6, -3, -3, 1, 1, 1, 3, 6,-1.7479662326454415,1.320575891609467
1503612778723,-0.514,-0.568,+0.258,+0.589,+0.877,-0.385,-0.177,+38.438,+1.625,+33.688,4, 5, 1, -1, -2, -2, 15, 1,-1.761681801909948,1.3261707043622453
1503612778746,-0.512,-0.573,+0.252,+0.588,+0.862,-0.405,-0.169,+38.500,+3.312,+32.250,0, 13, 4, 0, -1, 0, 2, 7,-1.7711745336969682,1.3305573414138911
1503612778767,-0.510,-0.579,+0.246,+0.587,+0.847,-0.413,-0.141,+37.000,+4.250,+31.562,6, -14, -1, 3, -2, -1, -7, -5,-1.7833363591120006,1.3380123709197513
1503612778783,-0.508,-0.585,+0.240,+0.586,+0.859,-0.420,-0.148,+36.312,+5.562,+31.500,0, -7, -4, -6, -8, -5, 5, -2,-1.7958428449672124,1.345864074483601
1503612778805,-0.505,-0.590,+0.234,+0.584,+0.854,-0.437,-0.159,+36.062,+7.438,+30.750,-1, 9, 5, 5, 6, -1, 15, -9,-1.804614964005396,1.350889115730018
1503612778827,-0.503,-0.595,+0.229,+0.583,+0.837,-0.453,-0.125,+34.562,+6.500,+27.188,5, 3, 1, 0, 2, 1, -4, 9,-1.8150254215571706,1.3579521211071799
1503612778843,-0.502,-0.600,+0.224,+0.581,+0.854,-0.459,-0.123,+34.250,+2.750,+22.688,6, 5, 3, 2, 0, -1, -2, -5,-1.827861930980953,1.3654883338773816
1503612778865,-0.502,-0.604,+0.219,+0.579,+0.855,-0.474,-0.120,+32.625,-2.250,+17.438,-3, -5, -5, -6, -5, -4, -7, -8,-1.8402901919580863,1.3706715521886335
1503612778887,-0.502,-0.607,+0.214,+0.577,+0.828,-0.488,-0.121,+31.062,-4.750,+13.312,0, 9, 4, 1, 2, 0, 0, 8,-1.8503758134085113,1.373138946286926
1503612778903,-0.502,-0.611,+0.210,+0.575,+0.798,-0.491,-0.113,+28.812,+0.688,+10.938,-10, -6, 3, 1, -1, -1, -13, -15,-1.8627745074087845,1.3799670692160115
1503612778925,-0.501,-0.615,+0.208,+0.573,+0.810,-0.477,-0.092,+26.500,+9.812,+11.438,-2, 0, -2, 0, 0, -1, 3, 0,-1.8726725512840305,1.3890852169746897
1503612778947,-0.499,-0.619,+0.206,+0.570,+0.857,-0.482,-0.079,+25.125,+14.188,+9.812,12, -1, -4, -3, -3, -1, -9, 4,-1.8812476049266793,1.3980051679750691
1503612778965,-0.498,-0.622,+0.204,+0.568,+0.881,-0.479,-0.087,+23.125,+6.250,+8.500,-5, 3, 1, 2, 0, 0, 2, 2,-1.8888170869716447,1.404363209793286
1503612778992,-0.498,-0.625,+0.201,+0.567,+0.837,-0.494,-0.038,+17.562,-1.062,+6.375,-1, 0, 2, 1, -1, -2, 5, -2,-1.8983416118760144,1.4099880045880655
1503612779008,-0.498,-0.627,+0.200,+0.565,+0.816,-0.491,-0.016,+12.625,+1.062,+5.125,0, -5, -4, -5, -2, -2, 2, 38,-1.904760520048238,1.414821118830602
1503612779023,-0.496,-0.629,+0.200,+0.564,+0.814,-0.505,-0.028,+5.750,+12.062,+7.000,2, -22, -7, -1, -3, -2, -5, -6,-1.9068484587502734,1.420429989561488
1503612779044,-0.493,-0.631,+0.201,+0.564,+0.868,-0.508,-0.042,-1.000,+16.875,+6.750,0, -8, 0, 2, 4, -1, 4, -1,-1.9063726591485968,1.42704638862059
1503612779061,-0.490,-0.632,+0.202,+0.565,+0.899,-0.486,-0.048,-7.125,+15.750,+9.312,-4, 6, 1, -1, -2, 0, 16, -7,-1.902936244456021,1.4306855262310716
1503612779083,-0.487,-0.633,+0.204,+0.566,+0.861,-0.478,-0.047,-13.312,+16.000,+11.438,7, -7, -5, -3, -2, -3, -10, 14,-1.8990547986021016,1.4354702924877232
1503612779105,-0.483,-0.633,+0.206,+0.568,+0.811,-0.502,-0.049,-19.125,+20.812,+13.562,4, 0, -2, -3, -4, -3, 1, 12,-1.8904641133465363,1.437062602454277
1503612779127,-0.478,-0.634,+0.209,+0.571,+0.813,-0.496,-0.020,-24.438,+28.000,+13.438,0, -1, -4, -4, -2, -1, 3, -2,-1.8820599671242895,1.4427969526348488
1503612779143,-0.473,-0.634,+0.213,+0.574,+0.843,-0.481,-0.024,-29.875,+22.875,+11.625,-13, -6, -3, -4, -2, -1, -10, -7,-1.870630649960087,1.4466582528066154
1503612779166,-0.470,-0.632,+0.216,+0.578,+0.816,-0.476,-0.034,-38.875,+12.938,+7.250,-6, 26, 6, 4, 0, -3, -5, -18,-1.857464169585046,1.4436790372310486
1503612779187,-0.467,-0.628,+0.220,+0.582,+0.787,-0.456,-0.058,-42.312,+7.125,+4.250,-2, -10, -4, -1, 0, 0, -2, 0,-1.8385629470525786,1.4358190015002978
1503612779210,-0.466,-0.624,+0.224,+0.586,+0.791,-0.447,-0.074,-43.562,+2.188,-5.125,-15, 0, 0, 0, 0, 0, -4, -11,-1.8233268674707666,1.4285383839968302
1503612779224,-0.466,-0.618,+0.229,+0.590,+0.795,-0.452,-0.077,-49.688,-5.688,-11.188,17, -2, -1, 1, 1, 2, -3, 23,-1.8043631217757194,1.4168935239878235
1503612779247,-0.466,-0.612,+0.234,+0.595,+0.771,-0.433,-0.084,-52.812,-3.812,-15.125,2, -7, -2, -2, -2, -1, 5, 1,-1.7855194322939643,1.4057324718184288
1503612779263,-0.465,-0.606,+0.241,+0.599,+0.744,-0.420,-0.104,-55.000,+6.938,-19.438,-12, 11, 2, 0, -1, -3, 0, -1,-1.7648941683040256,1.3973072166082592
1503612779284,-0.463,-0.600,+0.250,+0.603,+0.762,-0.494,-0.019,-65.562,+8.438,-23.188,2, -11, -3, 1, 4, 2, 11, -11,-1.7423706492021016,1.3918875695356518
1503612779307,-0.463,-0.592,+0.258,+0.607,+0.860,-0.435,-0.020,-72.188,-2.625,-29.000,3, -1, 0, -3, -2, 0, 5, 1,-1.7191596702295726,1.3804840947113088
1503612779323,-0.467,-0.581,+0.265,+0.612,+0.868,-0.331,-0.142,-67.438,-24.625,-34.812,5, -9, -3, 0, 17, 4, 0, 9,-1.6966709902598653,1.361203999419642
1503612779344,-0.473,-0.568,+0.271,+0.617,+0.818,-0.359,-0.242,-65.375,-37.500,-40.375,-5, -5, -1, -4, -14, -7, -7, 0,-1.674408304858174,1.3367140565635094
1503612779368,-0.476,-0.557,+0.276,+0.622,+0.768,-0.387,-0.247,-67.062,-27.875,-33.188,1, -17, -5, 1, -3, 0, -6, -10,-1.6524831408535305,1.3164154876886582
1503612779382,-0.477,-0.547,+0.282,+0.627,+0.751,-0.403,-0.178,-68.375,-16.188,-30.375,-1, -7, 0, 1, 1, -5, -15, -13,-1.629709001625718,1.3005399459686198
1503612779405,-0.479,-0.537,+0.289,+0.632,+0.788,-0.394,-0.178,-72.000,-15.500,-33.250,-2, -21, -6, -2, -2, -3, 5, 13,-1.6096699051457526,1.2873913503465055
1503612779427,-0.480,-0.526,+0.296,+0.637,+0.864,-0.375,-0.230,-73.562,-15.688,-34.625,2, -4, 1, 2, 3, 4, -2, 3,-1.586129198132543,1.2722852860632539
1503612779443,-0.482,-0.515,+0.303,+0.641,+0.834,-0.369,-0.265,-71.625,-12.188,-33.750,-3, -3, -1, -3, -3, 1, 1, 2,-1.5655254872112596,1.2582645614431422
1503612779465,-0.483,-0.505,+0.310,+0.645,+0.806,-0.334,-0.308,-67.000,-10.562,-34.875,-2, 2, -4, -3, 1, -1, -4, -21,-1.5458359605599632,1.247181501725742
1503612779487,-0.485,-0.495,+0.317,+0.648,+0.858,-0.329,-0.344,-62.938,-3.562,-37.125,5, 3, 0, 0, -1, -3, -7, -2,-1.5289061405748734,1.2369957224863486
1503612779510,-0.484,-0.487,+0.325,+0.650,+0.933,-0.362,-0.275,-62.000,+6.000,-35.312,1, -2, 0, -1, -3, 0, 2, -6,-1.5104414871648426,1.2325861887880998
1503612779525,-0.484,-0.480,+0.333,+0.652,+0.973,-0.378,-0.216,-59.625,+2.375,-34.875,-8, 20, 7, 2, -1, -9, -12, -9,-1.4965882816571032,1.2313325200785992
1503612779547,-0.485,-0.471,+0.340,+0.653,+0.949,-0.338,-0.233,-57.438,-5.125,-37.250,-2, 1, -1, 0, -5, -1, 5, 0,-1.481000811931584,1.2244642857627337
1503612779563,-0.487,-0.462,+0.347,+0.655,+0.976,-0.291,-0.281,-54.312,-12.062,-41.125,-3, -7, -2, -1, -1, -2, 0, -13,-1.4681186239917017,1.2187448163233559
1503612779585,-0.490,-0.454,+0.353,+0.656,+1.017,-0.265,-0.339,-48.438,-9.812,-40.562,4, 3, 1, 2, 3, 1, 0, 3,-1.459602777284523,1.2139299795093175
1503612779607,-0.491,-0.446,+0.358,+0.657,+1.010,-0.279,-0.321,-47.125,-6.750,-33.250,1, 0, 2, 2, -3, -1, 1, 3,-1.4470107491123392,1.2070202748206442
1503612779623,-0.491,-0.440,+0.363,+0.659,+1.015,-0.276,-0.297,-47.125,-7.250,-21.938,2, -5, 0, 2, 2, -1, -5, 0,-1.4364552234657486,1.2045180244434008
1503612779645,-0.491,-0.433,+0.367,+0.661,+1.062,-0.238,-0.335,-48.062,-8.188,-20.625,-7, -4, -2, -3, -2, 1, 3, 3,-1.4241106487849606,1.1983723274524063
1503612779670,-0.491,-0.426,+0.372,+0.663,+1.060,-0.206,-0.315,-45.812,-10.125,-18.062,18, -1, -6, -2, 0, -1, 0, -3,-1.4121366326619609,1.1944213403072932
1503612779683,-0.491,-0.419,+0.375,+0.665,+0.997,-0.201,-0.297,-42.625,-17.812,-16.188,16, -19, -8, -5, -2, 0, 1, 2,-1.4001177543014363,1.1869371420481811
1503612779712,-0.492,-0.412,+0.377,+0.668,+0.955,-0.202,-0.324,-41.250,-18.062,-17.125,-5, -5, -3, -2, -1, 0, 4, 6,-1.3905515659618044,1.1783782639537872
1503612779727,-0.492,-0.406,+0.380,+0.670,+0.970,-0.174,-0.379,-39.312,-9.250,-16.562,-10, 3, 0, -1, -2, -2, -3, -3,-1.3807313953713316,1.1732877800604924
1503612779743,-0.491,-0.400,+0.383,+0.672,+0.969,-0.166,-0.347,-35.812,-6.312,-12.312,-6, 3, 1, -1, 0, 0, 0, 5,-1.3688503169599342,1.1680744540317778
1503612779765,-0.496,-0.391,+0.378,+0.677,+1.108,-0.185,-0.508,-25.062,-70.375,-12.125,-5, 3, 2, 1, 1, 1, -1, -3,-1.3646973191053227,1.144608573601753
1503612779787,-0.498,-0.384,+0.374,+0.682,+1.081,-0.187,-0.364,-26.500,-53.812,-2.875,-2, 41, 12, 3, 1, -1, -3, -11,-1.3577530438742023,1.1261137891960358
1503612779804,-0.502,-0.376,+0.372,+0.685,+0.968,-0.115,-0.386,-20.812,-51.375,-14.250,-19, -5, -2, 2, -2, -2, -1, -2,-1.353858086860555,1.1099408765798082
1503612779826,-0.505,-0.370,+0.368,+0.688,+0.891,-0.149,-0.467,-16.688,-43.812,-11.188,-1, -1, 0, -1, -2, 1, 0, -1,-1.3509289706203214,1.0933214943916996
1503612779847,-0.506,-0.367,+0.369,+0.688,+1.001,-0.142,-0.420,-13.312,-10.312,-13.375,-5, 0, 2, 1, 1, -1, 0, -3,-1.3485450818898328,1.0902541476208374
1503612779863,-0.508,-0.365,+0.369,+0.688,+0.966,-0.197,-0.418,-9.812,-10.250,-11.438,-6, -10, -4, -2, -3, -2, 0, -2,-1.349937060797378,1.0873748443386062
1503612779885,-0.509,-0.362,+0.368,+0.689,+0.882,-0.171,-0.446,-9.938,-13.500,-11.625,-6, -2, -1, 0, 1, -2, 0, -1,-1.3475282906800736,1.0807797265714965
1503612779907,-0.511,-0.359,+0.368,+0.689,+0.804,-0.082,-0.437,-6.688,-9.375,-12.375,-2, -7, -3, 0, -2, 1, -4, -3,-1.3474089046289992,1.0761690919788172
1503612779923,-0.513,-0.358,+0.368,+0.688,+0.795,-0.061,-0.463,-0.500,-2.062,-10.500,-19, -3, -5, -4, -1, -1, 0, -2,-1.3502435637322487,1.0747428163616737
1503612779946,-0.513,-0.358,+0.369,+0.687,+0.841,-0.114,-0.431,-0.125,+9.438,-7.875,3, -3, 1, 1, -1, 0, 1, 0,-1.3501752767439685,1.0763536464067567
1503612779967,-0.514,-0.358,+0.370,+0.686,+0.874,-0.123,-0.429,-1.562,+4.688,-4.938,-4, 3, 2, 0, -1, 0, -1, 0,-1.3524260150538183,1.0783074466962497
1503612779983,-0.514,-0.358,+0.371,+0.686,+0.882,-0.094,-0.436,-2.688,+4.438,-2.625,1, -4, -2, 0, -2, -1, -1, 0,-1.3525819979358547,1.080273290825658
1503612780022,-0.513,-0.359,+0.373,+0.685,+0.891,-0.054,-0.410,-0.125,+14.188,-1.062,0, -1, -2, -1, -2, 0, -3, -4,-1.351925361074271,1.0852793926090032
1503612780034,-0.512,-0.361,+0.375,+0.683,+0.960,-0.063,-0.384,+6.125,+18.375,+3.125,-8, -4, -1, -1, -1, -1, -4, -4,-1.352635380839707,1.0917120556477904
1503612780047,-0.511,-0.365,+0.376,+0.681,+1.009,-0.107,-0.398,+9.062,+18.562,+4.875,5, 4, 1, 0, -1, -1, 1, 2,-1.3564030965180376,1.0997407522117242
1503612780065,-0.509,-0.368,+0.378,+0.680,+0.975,-0.149,-0.386,+3.625,+16.812,+6.688,-2, 1, 0, -1, 0, 0, 1, 0,-1.3567129696806655,1.1080204786386758
1503612780087,-0.508,-0.369,+0.378,+0.680,+0.881,-0.130,-0.372,-0.875,+10.062,+7.500,-1, -3, -2, -1, -2, -2, -1, -2,-1.3560324295959474,1.1094749675632707
1503612780105,-0.506,-0.371,+0.379,+0.680,+0.839,-0.102,-0.381,-2.188,+12.812,+7.000,-2, 0, -1, 0, -1, -1, 2, 1,-1.3548533669723608,1.1143673449420197
1503612780125,-0.504,-0.373,+0.381,+0.680,+0.902,-0.107,-0.375,-0.812,+17.812,+8.438,-2, -2, 0, -1, 0, 0, 1, 0,-1.353868834157005,1.1212505388086238
1503612780148,-0.502,-0.375,+0.383,+0.679,+0.964,-0.135,-0.365,-1.812,+17.688,+8.688,-1, 2, 0, 0, 0, -2, 0, -1,-1.3527015773379625,1.1278209731589564
1503612780163,-0.500,-0.376,+0.384,+0.679,+0.967,-0.143,-0.355,-2.500,+8.875,+6.500,-1, -5, -2, -3, -1, -1, -3, -5,-1.3499734996044097,1.1309571782455838
1503612780185,-0.499,-0.377,+0.384,+0.679,+0.931,-0.128,-0.361,-3.750,+7.062,+4.062,0, 0, -2, -2, -1, -1, 0, 2,-1.3493589226780596,1.1324372209055094
1503612780207,-0.498,-0.378,+0.386,+0.679,+0.918,-0.124,-0.358,-4.625,+9.062,+3.125,-5, -3, -3, -1, 1, 0, -2, -2,-1.3490871736515244,1.1378913045648094
