Timestamp,Orientation X,Orientation Y,Orientation Z,Orientation W,Accelerometer X,Accelerometer Y,Accelerometer Z,Gyroscope X,Gyroscope Y,Gyroscope Z,EMG1,EMG2,EMG3,EMG4,EMG5,EMG6,EMG7,EMG8,Roll,Yaw
1503601801236,-0.684,-0.584,+0.236,+0.367,+0.986,-0.096,-0.159,-9.438,+4.438,+1.750,0, -4, -4, -8, -14, -5, -1, -4,-2.242125862802272,1.361492527012354
1503601801253,-0.683,-0.585,+0.238,+0.367,+0.928,-0.060,-0.136,-9.250,+11.812,-1.125,-3, -2, -6, -6, 2, -2, -2, -1,-2.240514560651386,1.3660047297999824
1503601801275,-0.683,-0.585,+0.240,+0.367,+0.992,-0.065,-0.126,-7.625,+0.188,-6.750,1, 6, 0, -1, -3, -1, 1, -6,-2.2390568090704197,1.3681848274841346
1503601801296,-0.684,-0.583,+0.241,+0.367,+1.017,-0.080,-0.163,-6.625,-10.375,-4.375,5, -3, 0, -2, -3, 2, 5, 9,-2.2369447754597145,1.3643663907338808
1503601801313,-0.686,-0.580,+0.241,+0.368,+0.974,-0.083,-0.153,-9.250,-17.875,-4.250,-5, -15, -7, 0, -1, 0, -1, -4,-2.2348977580957,1.3572393697667413
1503601801335,-0.687,-0.577,+0.243,+0.369,+0.941,-0.060,-0.159,-12.375,-12.562,-4.438,1, -14, -6, -5, 2, 4, 5, 12,-2.2297407659980317,1.352113003834372
1503601801357,-0.687,-0.575,+0.244,+0.370,+0.965,-0.034,-0.173,-10.250,-6.875,-2.938,8, -16, -4, 1, 0, 0, -2, 10,-2.225121145083532,1.3482164905299163
1503601801373,-0.688,-0.574,+0.245,+0.371,+0.978,-0.060,-0.173,-7.188,-9.062,-0.125,8, -5, -7, -5, -6, -4, 0, 0,-2.223786021476613,1.3471468647166946
1503601801395,-0.689,-0.572,+0.246,+0.372,+0.994,-0.067,-0.162,-7.562,-12.938,-4.938,-2, 10, 4, 2, 0, 0, -4, -6,-2.220937819660062,1.3435403331659648
1503601801417,-0.690,-0.570,+0.247,+0.371,+0.990,-0.051,-0.158,-7.625,-8.000,-9.312,6, 12, 3, -1, 1, -1, -1, -10,-2.2197830599679205,1.3397287622692158
1503601801433,-0.691,-0.568,+0.249,+0.371,+0.985,-0.041,-0.143,-7.375,-7.875,-6.875,-5, 4, 4, 1, -1, -2, -4, -19,-2.2171234512390723,1.3371888452348246
1503601801455,-0.691,-0.567,+0.250,+0.372,+1.003,-0.048,-0.169,-7.562,-8.688,-2.562,1, 29, 9, 0, -3, -3, -1, 8,-2.2140863701441735,1.33591512609312
1503601801476,-0.692,-0.565,+0.251,+0.373,+1.008,-0.060,-0.182,-9.438,-10.062,-2.562,-8, 4, 3, -1, 2, 2, -2, -6,-2.2113154769698347,1.3323865274400293
1503601801493,-0.693,-0.563,+0.252,+0.374,+0.995,-0.068,-0.173,-11.500,-12.375,-2.375,-2, 11, 6, 0, -1, -2, -3, -11,-2.208567268639387,1.328879649913122
1503601801517,-0.693,-0.561,+0.253,+0.376,+1.006,-0.082,-0.186,-12.562,-14.125,-1.812,31, -9, -9, -2, -1, -2, 3, 22,-2.2032261636409816,1.3252444638167649
1503601801536,-0.694,-0.558,+0.254,+0.378,+0.998,-0.079,-0.176,-13.812,-12.875,-2.938,2, 11, 3, -1, 0, 1, 3, -4,-2.1981914630386212,1.3193934111068053
1503601801553,-0.694,-0.556,+0.255,+0.379,+1.000,-0.070,-0.189,-14.375,-13.625,-1.688,-9, 10, 12, 3, 0, -1, -2, -15,-2.193698633305532,1.3156778032575631
1503601801575,-0.695,-0.553,+0.255,+0.382,+0.995,-0.111,-0.256,-15.188,-13.562,+1.250,9, -5, -3, 0, -1, -2, -2, 14,-2.188554504426689,1.3088365526268244
1503601801597,-0.696,-0.550,+0.256,+0.384,+0.986,-0.058,-0.194,-17.375,-16.688,+1.000,-4, -4, -5, -4, -3, -2, -4, -6,-2.1836099694519207,1.3030864819960475
1503601801613,-0.696,-0.547,+0.258,+0.386,+0.998,-0.047,-0.206,-15.438,-15.812,-3.188,-2, -27, -12, -3, -3, 1, 2, 7,-2.1762251243831265,1.2982838742145806
1503601801642,-0.697,-0.545,+0.258,+0.388,+0.983,-0.063,-0.238,-12.625,-12.312,-2.625,-7, -19, -11, 1, 0, -1, -1, 1,-2.173479836787619,1.2938898819502722
1503601801664,-0.698,-0.543,+0.259,+0.389,+0.963,-0.063,-0.254,-11.562,-9.312,-0.188,-10, -6, -8, -2, -5, -2, -3, -3,-2.170928295606893,1.2905816860681987
1503601801673,-0.698,-0.541,+0.260,+0.390,+0.960,-0.050,-0.234,-10.750,-6.062,-0.938,-4, -7, -6, -5, -1, -1, -2, -8,-2.1665250459231498,1.286991796297961
1503601801695,-0.698,-0.540,+0.261,+0.391,+0.975,-0.059,-0.241,-9.688,-4.125,-1.500,-16, 10, 4, 7, 0, -1, -1, -3,-2.163632200287137,1.2858882712880337
1503601801719,-0.698,-0.539,+0.262,+0.392,+0.964,-0.066,-0.233,-9.625,-2.875,-1.438,-2, -6, -9, -7, -3, 1, 3, 1,-2.160747313167254,1.2847940603071957
1503601801733,-0.698,-0.538,+0.264,+0.393,+0.957,-0.057,-0.250,-10.438,-0.438,-2.062,4, 1, 1, -1, -1, 0, 1, -4,-2.1572742418715163,1.2849437103789128
1503601801755,-0.697,-0.537,+0.265,+0.394,+0.965,-0.052,-0.256,-9.000,-1.625,+0.312,-4, 1, 0, 0, 2, 0, -4, -3,-2.152511512325914,1.2835682770999202
1503601801776,-0.697,-0.536,+0.265,+0.395,+0.979,-0.047,-0.237,-6.938,-0.125,+0.312,1, 0, -3, 2, -2, -1, -3, -4,-2.150238157426995,1.2812609876114842
1503601801793,-0.697,-0.536,+0.266,+0.396,+0.969,-0.030,-0.233,-6.438,-4.250,+1.375,-4, -2, -3, -1, 2, 1, 0, -4,-2.1488873472058314,1.2826575620509704
1503601801822,-0.697,-0.534,+0.266,+0.397,+0.965,-0.038,-0.254,-5.500,-7.062,+1.125,1, -12, 6, 1, 1, 1, 1, 6,-2.145113236876,1.2779039054733268
1503601801836,-0.698,-0.533,+0.266,+0.398,+0.955,-0.052,-0.250,-4.375,-6.000,+1.188,-3, -8, -7, -1, -2, -1, -2, -1,-2.1447630171744754,1.2759175394742739
1503601801853,-0.698,-0.532,+0.266,+0.399,+0.965,-0.056,-0.239,-3.500,-6.438,+2.625,5, 7, -4, -1, -1, -1, 1, -2,-2.142502659899137,1.2736254293632463
1503601801875,-0.698,-0.532,+0.266,+0.400,+0.979,-0.052,-0.243,-5.375,-5.062,+4.688,-1, 12, 16, 3, -1, -1, -3, -4,-2.1417473620105207,1.27378132865919
1503601801896,-0.697,-0.531,+0.266,+0.402,+0.975,-0.049,-0.237,-5.812,-5.625,+6.500,7, 5, -2, -4, -2, -2, 0, 4,-2.1368174281336487,1.2713368084371803
1503601801913,-0.697,-0.530,+0.266,+0.403,+0.976,-0.050,-0.251,-5.188,-4.500,+4.188,-2, 13, 4, -1, 0, -2, -4, -6,-2.1345600717175386,1.2690511124544066
1503601801935,-0.697,-0.529,+0.265,+0.404,+0.966,-0.045,-0.245,-1.562,-6.125,+3.562,-4, -18, -6, -3, -4, -2, -2, 5,-2.132869361130929,1.2655102541429766
1503601801957,-0.698,-0.528,+0.265,+0.404,+0.968,-0.042,-0.263,+1.062,-9.125,+2.312,-5, -2, 4, -2, -1, 0, 0, -2,-2.133294257863969,1.263388151147444
1503601801973,-0.699,-0.527,+0.264,+0.405,+0.965,-0.032,-0.271,+2.625,-9.688,+0.875,9, 4, -1, 1, 1, -2, 1, 1,-2.133541551844582,1.2601751905800478
1503601801995,-0.700,-0.527,+0.262,+0.405,+0.959,-0.067,-0.256,+5.438,-7.312,+2.562,-24, -7, -7, -2, -1, 0, -6, -6,-2.1366042397386655,1.2579955460102528
1503601802017,-0.700,-0.527,+0.261,+0.405,+0.978,-0.088,-0.262,+4.500,-6.312,+4.188,7, -3, -5, -1, -3, -1, 3, 2,-2.137170466723505,1.2567485792416038
1503601802033,-0.700,-0.527,+0.259,+0.406,+0.978,-0.090,-0.241,+4.375,-3.875,+6.625,1, -2, -6, 1, -3, -1, -2, -7,-2.137551383610917,1.2544243551040808
1503601802055,-0.700,-0.527,+0.258,+0.407,+0.971,-0.059,-0.266,+5.062,-5.000,+5.812,4, -4, -3, -4, -5, -3, -3, -1,-2.1373651723182383,1.2533470597220189
1503601802077,-0.700,-0.528,+0.256,+0.407,+0.975,-0.072,-0.250,+7.562,-5.438,+7.562,0, 0, -1, -2, 1, -1, 2, 7,-2.1400089925971653,1.2533271414459974
1503601802100,-0.700,-0.528,+0.254,+0.408,+0.995,-0.088,-0.242,+8.188,-4.688,+8.250,-11, -1, 3, 2, 0, -2, -3, -11,-2.140393970138845,1.251032580204737
1503601802117,-0.700,-0.529,+0.252,+0.408,+1.001,-0.104,-0.247,+8.750,-5.500,+10.062,-2, -20, -18, -9, -1, 0, 0, 4,-2.1430504520274716,1.2510451314104887
1503601802137,-0.699,-0.530,+0.250,+0.409,+0.977,-0.103,-0.253,+9.812,-0.625,+11.000,-7, -11, -6, -4, -2, -1, -2, -3,-2.143038673625643,1.2509000210796075
1503601802153,-0.699,-0.532,+0.247,+0.409,+0.963,-0.100,-0.285,+14.688,+3.188,+9.812,0, 3, 3, 0, -1, -1, 1, -1,-2.1478169109292113,1.2522147400963968
1503601802175,-0.699,-0.533,+0.243,+0.409,+0.996,-0.120,-0.263,+19.062,-6.250,+12.000,6, 1, 2, 3, 2, 2, 1, 6,-2.1516825463264913,1.2499156005785264
1503601802198,-0.700,-0.535,+0.239,+0.409,+1.009,-0.141,-0.219,+20.438,-7.625,+12.938,6, 4, 0, -2, -2, 1, 8, 18,-2.1589911367865344,1.2505005761363497
1503601802213,-0.699,-0.537,+0.235,+0.409,+1.022,-0.132,-0.238,+19.312,-1.375,+15.062,-3, 3, 10, 8, 3, 1, -1, -7,-2.1625627420451408,1.2504844920900529
1503601802235,-0.699,-0.540,+0.231,+0.409,+1.003,-0.108,-0.288,+22.000,+0.250,+18.500,-6, -14, -5, -5, -2, -2, -2, -4,-2.169589703792364,1.253388600201667
1503601802257,-0.698,-0.542,+0.226,+0.409,+1.002,-0.134,-0.295,+29.062,-1.375,+21.375,-13, 2, 4, 1, -4, 0, -5, -2,-2.173891929406429,1.2524079942430073
1503601802273,-0.698,-0.545,+0.220,+0.409,+1.013,-0.175,-0.263,+32.500,-3.250,+20.750,-6, 2, -1, -1, 1, 1, 0, -9,-2.1822860965808717,1.2533025062494456
1503601802295,-0.698,-0.548,+0.214,+0.409,+1.031,-0.190,-0.239,+31.812,-2.750,+20.688,-10, -2, -5, -3, -4, 0, 2, 4,-2.190760623237764,1.2543718430470876
1503601802317,-0.697,-0.552,+0.208,+0.408,+1.020,-0.183,-0.255,+33.000,+1.500,+22.750,-9, -13, -7, 0, 3, -1, 0, -8,-2.199906378237524,1.2577023444878563
1503601802333,-0.696,-0.556,+0.201,+0.408,+1.014,-0.170,-0.274,+36.375,+5.062,+26.000,18, -12, -11, -2, 2, 2, 2, 3,-2.2090351637402335,1.2603428585814203
1503601802356,-0.695,-0.560,+0.195,+0.407,+1.010,-0.171,-0.284,+40.625,+7.562,+28.875,-1, 11, 9, 9, 3, -3, -4, 0,-2.2184896136548913,1.2641276044516976
1503601802377,-0.693,-0.565,+0.187,+0.406,+1.018,-0.203,-0.260,+45.375,+6.500,+31.875,4, 3, 3, -1, 3, 0, -1, 2,-2.2293616512570122,1.2684522391332975
1503601802393,-0.692,-0.570,+0.178,+0.406,+1.019,-0.244,-0.246,+47.125,+3.500,+33.938,3, -10, -2, 4, 3, -3, -1, 8,-2.2420746674630645,1.2726624077179776
1503601802415,-0.691,-0.575,+0.169,+0.405,+0.978,-0.239,-0.244,+47.750,+2.938,+34.625,-3, -2, -4, -5, -3, -2, 0, 4,-2.2559327985254956,1.2772077053732789
1503601802437,-0.689,-0.580,+0.161,+0.404,+0.947,-0.241,-0.247,+50.250,+5.125,+34.312,-6, 10, 9, 0, -2, -1, 1, 3,-2.2676597861025765,1.282739340985126
1503601802453,-0.688,-0.584,+0.151,+0.403,+0.943,-0.278,-0.234,+50.938,+3.438,+34.312,-3, 9, 9, 2, 1, 0, -4, -14,-2.281247759297554,1.2846037611422105
1503601818405,-0.618,-0.369,+0.234,+0.654,+0.799,-0.195,-0.567,-0.500,+2.562,-1.875,-13, 4, 6, 1, -1, -1, 0, -2,-1.6076488217912743,0.8893384686152823
1503601818427,-0.618,-0.369,+0.235,+0.654,+0.802,-0.185,-0.577,-1.188,+5.000,+0.000,3, -9, -9, -7, -3, 0, -1, -9,-1.6076211447991071,0.8909197618050492
1503601818449,-0.617,-0.370,+0.235,+0.654,+0.805,-0.181,-0.570,-1.000,+3.125,+1.688,2, 8, 3, 3, 1, -1, 2, 0,-1.6066426320546514,0.8924089373729002
1503601818465,-0.617,-0.370,+0.236,+0.654,+0.813,-0.192,-0.548,-0.688,-0.562,+2.250,-7, 8, 11, 4, -1, -1, 1, 3,-1.606615633764006,0.8939922498875861
1503601818487,-0.616,-0.370,+0.236,+0.654,+0.809,-0.200,-0.547,-1.625,-1.875,+3.438,-6, -3, -3, -3, -1, 0, -3, -4,-1.6041510140314879,0.8935198400925075
1503601818509,-0.616,-0.370,+0.235,+0.655,+0.796,-0.202,-0.569,-2.438,-3.188,+3.625,7, -1, 0, 1, -1, -1, 1, 3,-1.6041342956960838,0.8922362212634389
1503601818525,-0.616,-0.369,+0.235,+0.656,+0.769,-0.202,-0.571,-3.625,-5.500,+2.750,-4, 0, 0, 0, 1, -1, -2, -1,-1.6026043604498788,0.890576372780764
1503601818547,-0.616,-0.367,+0.234,+0.656,+0.765,-0.185,-0.571,-4.625,-7.250,+1.875,-15, -9, -5, 3, 0, -1, -4, 2,-1.5996571896681278,0.885078149640192
1503601818576,-0.615,-0.367,+0.235,+0.657,+0.769,-0.194,-0.582,-5.188,-1.125,+3.625,0, 0, 2, -1, 2, 1, 1, 1,-1.5971292146509273,0.8864945515643399
1503601818585,-0.614,-0.367,+0.235,+0.658,+0.787,-0.203,-0.566,-7.062,+4.188,+7.188,-8, -1, -3, -3, -2, -1, -7, -17,-1.5946262528961317,0.8863244148372387
1503601818607,-0.612,-0.367,+0.236,+0.660,+0.799,-0.196,-0.580,-6.312,+2.062,+9.062,5, -7, -2, -3, -2, -1, -2, 3,-1.5896165258136352,0.887578954930311
1503601818629,-0.611,-0.366,+0.235,+0.661,+0.809,-0.202,-0.585,-4.938,-7.000,+8.875,0, -2, 0, 1, 1, -2, 0, -3,-1.585649862292936,0.8838666916288378
1503601818644,-0.611,-0.365,+0.234,+0.663,+0.790,-0.218,-0.575,-5.250,-13.125,+9.688,6, -2, -3, -3, -2, 0, 1, 0,-1.584141018719463,0.8809341727203714
1503601818670,-0.610,-0.363,+0.232,+0.665,+0.778,-0.220,-0.577,-5.812,-14.562,+10.188,14, 3, 2, 4, -1, -3, 0, 11,-1.5786942408245872,0.8739954838570867
1503601818689,-0.609,-0.362,+0.231,+0.667,+0.766,-0.216,-0.573,-5.750,-8.375,+10.375,1, -1, -5, -6, 0, 0, 3, 4,-1.5747262815537195,0.8705956240287093
1503601818714,-0.608,-0.362,+0.231,+0.668,+0.773,-0.219,-0.581,-5.938,-3.125,+9.688,9, 6, 1, 6, 1, 1, -1, 0,-1.572241914089289,0.870423237933332
1503601818727,-0.607,-0.361,+0.230,+0.670,+0.788,-0.222,-0.585,-6.312,-2.062,+8.438,-4, -5, -7, -3, -2, 0, -2, -2,-1.5682846927722025,0.8670243757889228
1503601818749,-0.605,-0.361,+0.230,+0.671,+0.787,-0.222,-0.596,-6.500,-3.250,+7.250,-4, 1, 0, -2, 1, 2, 4, -2,-1.563323844021265,0.8663735245511512
1503601818765,-0.605,-0.360,+0.230,+0.672,+0.777,-0.216,-0.590,-6.562,-5.625,+5.938,-5, 0, 9, 1, -2, -2, 2, 6,-1.561856316487842,0.8647545437171859
1503601818787,-0.604,-0.359,+0.230,+0.673,+0.767,-0.210,-0.596,-6.250,-6.812,+5.625,-13, -5, -5, -6, -2, -1, -4, -10,-1.557909103782333,0.8626628832285007
1503601818811,-0.604,-0.357,+0.229,+0.675,+0.752,-0.208,-0.604,-5.250,-5.938,+5.438,12, 12, 2, 0, -2, -3, -5, -8,-1.5549942862151451,0.8578368262467402
1503601818824,-0.603,-0.357,+0.229,+0.676,+0.754,-0.216,-0.597,-5.125,-3.500,+4.812,0, 0, 1, 1, 2, 0, 0, -3,-1.5525262978208805,0.8576657254109942
1503601818848,-0.602,-0.356,+0.229,+0.677,+0.759,-0.212,-0.599,-5.625,-2.562,+5.188,1, 0, 0, 3, 1, -1, 0, -3,-1.5485949281718552,0.8555872947070313
1503601818872,-0.602,-0.355,+0.229,+0.678,+0.763,-0.210,-0.604,-5.062,-2.562,+5.562,1, -1, -6, -5, -1, -1, 2, 6,-1.5471599564561247,0.8539907303007896
1503601818884,-0.601,-0.355,+0.228,+0.679,+0.756,-0.212,-0.611,-4.188,-3.625,+6.188,-8, -3, 3, 6, 1, 0, 0, 1,-1.5446805812410762,0.852205014385202
1503601818907,-0.600,-0.354,+0.227,+0.680,+0.752,-0.216,-0.615,-3.875,-6.312,+6.875,-24, -11, -5, -1, 0, -2, -1, -3,-1.5407372775422445,0.8485176435851661
1503601818928,-0.600,-0.353,+0.227,+0.681,+0.756,-0.215,-0.605,-3.500,-8.000,+7.312,7, -2, 0, 0, 0, 0, 0, 3,-1.5393149697404118,0.8469285965915637
1503601818944,-0.599,-0.352,+0.225,+0.683,+0.750,-0.218,-0.596,-2.875,-9.312,+7.062,0, 3, 3, 3, 2, 1, 1, 3,-1.5353935581043539,0.8419354400948222
1503601818966,-0.599,-0.351,+0.224,+0.684,+0.756,-0.221,-0.604,-2.875,-9.250,+6.500,-5, -4, -3, 1, 0, -2, -5, -5,-1.5339575309011837,0.8387349222036404
1503601818988,-0.599,-0.350,+0.223,+0.685,+0.745,-0.225,-0.605,-3.125,-9.875,+6.812,-13, -4, 0, 2, -1, -1, -3, -9,-1.5325260368219635,0.8355375081081557
1503601819006,-0.598,-0.349,+0.222,+0.687,+0.746,-0.224,-0.622,-3.562,-10.000,+7.938,1, 6, 2, 2, -3, -1, 0, 1,-1.5286447140533346,0.8321681888694443
1503601819026,-0.597,-0.348,+0.220,+0.688,+0.739,-0.229,-0.630,-3.750,-10.875,+7.875,3, 0, -3, 0, 1, -2, -1, 1,-1.5246825512817654,0.8268759587803791
1503601819048,-0.597,-0.346,+0.219,+0.690,+0.734,-0.219,-0.629,-4.188,-11.375,+7.312,-3, 14, 4, -5, -1, -1, 0, 2,-1.521881502688471,0.8221195960274175
1503601819063,-0.597,-0.345,+0.218,+0.691,+0.729,-0.218,-0.624,-3.500,-11.062,+6.562,3, -3, -7, -3, -1, -3, -4, -3,-1.5204715451719835,0.8189365802407608
1503601819086,-0.596,-0.344,+0.216,+0.692,+0.731,-0.218,-0.625,-2.750,-8.688,+5.750,31, 0, 0, 0, 0, 0, -1, 16,-1.5165122462122025,0.8136544363231198
1503601819108,-0.596,-0.343,+0.216,+0.693,+0.739,-0.234,-0.630,-2.500,-6.375,+5.750,5, 7, -4, -2, -1, -1, 0, -7,-1.515148422268431,0.8120962343795967
1503601819123,-0.595,-0.343,+0.215,+0.694,+0.737,-0.231,-0.630,-2.438,-6.188,+6.062,-1, -1, 3, -1, -1, 0, 0, 1,-1.5126588035717652,0.8102965230407272
1503601819149,-0.595,-0.342,+0.214,+0.695,+0.738,-0.221,-0.633,-2.188,-8.250,+6.312,-10, -3, -2, -1, -2, -1, -2, 1,-1.5112607984586848,0.8071218942441781
1503601819168,-0.595,-0.341,+0.213,+0.696,+0.730,-0.229,-0.647,-0.875,-8.375,+4.625,-12, 0, 6, 6, 1, -2, 0, -4,-1.5098675878934482,0.8039502477098205
1503601819184,-0.595,-0.341,+0.211,+0.697,+0.716,-0.241,-0.655,+0.812,-6.688,+2.562,-2, -6, -5, -3, -2, -2, 1, 10,-1.5098567227668467,0.8010159079307011
1503601819210,-0.595,-0.340,+0.210,+0.697,+0.717,-0.241,-0.646,+1.438,-5.125,+1.812,0, -2, -3, 0, 0, 0, -1, -10,-1.5083922448769944,0.7975461353942773
1503601819228,-0.595,-0.341,+0.210,+0.697,+0.723,-0.238,-0.640,+1.938,-2.062,+1.938,-5, -3, 3, 4, -2, -1, 0, -5,-1.5098140991262397,0.7993996058123717
1503601819244,-0.595,-0.341,+0.210,+0.697,+0.737,-0.243,-0.625,+2.438,+1.125,+1.938,-17, 4, 5, -2, 1, 1, -1, -14,-1.5098140991262397,0.7993996058123717
1503601819266,-0.594,-0.342,+0.210,+0.697,+0.738,-0.251,-0.638,+2.000,+1.688,+2.938,4, -9, -9, -3, -1, -1, 1, 4,-1.5087155655450466,0.8007676241879319
1503601819288,-0.593,-0.343,+0.209,+0.698,+0.738,-0.249,-0.641,+1.125,+0.125,+4.625,2, -5, -5, -3, -1, 0, 1, 3,-1.507655623278465,0.8008210040672629
1503601819303,-0.593,-0.343,+0.209,+0.698,+0.735,-0.237,-0.653,+1.938,+0.750,+4.625,0, 0, -1, -2, -2, -3, -3, -2,-1.507655623278465,0.8008210040672629
1503601819326,-0.592,-0.344,+0.208,+0.698,+0.730,-0.229,-0.644,+4.375,-0.250,+4.812,13, 2, 0, -2, -1, 3, 0, 1,-1.5065242897406117,0.800576733150335
1503601819349,-0.592,-0.344,+0.207,+0.699,+0.734,-0.223,-0.648,+7.125,-2.875,+5.812,17, 6, 2, -2, -2, -1, 1, 12,-1.5065570631724075,0.7992602119447842
1503601819363,-0.592,-0.345,+0.205,+0.699,+0.728,-0.234,-0.639,+8.875,-4.812,+7.250,9, 2, -3, -1, 0, -2, 0, 0,-1.5079094477408304,0.7979032472610955
1503601819387,-0.591,-0.346,+0.203,+0.699,+0.723,-0.241,-0.644,+9.125,-4.688,+8.812,-6, -4, -2, -1, 1, -1, 2, 2,-1.50674175162349,0.7960592442010066
1503601819408,-0.591,-0.347,+0.201,+0.700,+0.718,-0.245,-0.652,+10.250,-3.188,+11.188,-9, 2, 8, 3, 0, -1, -2, -7,-1.508182679713798,0.7950143886484832
1503601819423,-0.590,-0.349,+0.199,+0.701,+0.729,-0.236,-0.660,+12.625,-0.812,+12.625,-7, -4, -1, -1, -1, 0, -2, -2,-1.5085653046570264,0.7953553347505492
1503601819446,-0.589,-0.350,+0.197,+0.701,+0.729,-0.235,-0.659,+15.625,-3.688,+13.688,-9, -6, -7, -4, -1, -1, -1, 5,-1.5074182151394493,0.7935334222783215
1503601819468,-0.588,-0.352,+0.193,+0.702,+0.729,-0.244,-0.648,+18.375,-8.250,+15.438,1, 0, -2, -1, 1, 1, 1, 0,-1.5077403551248147,0.7907040760977373
1503601819491,-0.588,-0.354,+0.189,+0.703,+0.732,-0.273,-0.650,+20.812,-11.000,+17.375,-4, -5, -5, -2, -4, -2, -8, -7,-1.5106113286166716,0.7884217636318226
1503601819506,-0.586,-0.356,+0.185,+0.703,+0.728,-0.302,-0.645,+22.500,-8.750,+17.812,1, 0, -1, 0, -1, -1, 0, -1,-1.5083683962254795,0.7848551583306332
1503601819528,-0.585,-0.359,+0.181,+0.704,+0.711,-0.309,-0.657,+23.562,-7.000,+18.812,8, 4, 1, -1, -1, -1, 0, 2,-1.510272918523783,0.7840382884150053
1503601819551,-0.584,-0.362,+0.176,+0.705,+0.712,-0.304,-0.653,+25.375,-8.938,+19.875,-11, -1, -1, -2, -1, -1, -1, -2,-1.5121800806434116,0.7816979302360662
1503601819573,-0.583,-0.365,+0.171,+0.705,+0.709,-0.308,-0.645,+28.625,-8.375,+20.188,5, 0, -1, 0, -2, -1, -2, -4,-1.5140674490083106,0.7791616966515325
1503601819588,-0.582,-0.368,+0.166,+0.706,+0.697,-0.331,-0.646,+30.750,-8.812,+20.812,4, 0, 3, 2, 1, -1, 0, 0,-1.516077497063012,0.7769482334544172
1503601819611,-0.581,-0.372,+0.160,+0.706,+0.686,-0.353,-0.645,+32.250,-6.000,+22.688,-6, -1, -3, -1, 0, -2, -1, -3,-1.5196281431425642,0.7749882000736263
1503601819626,-0.579,-0.377,+0.155,+0.706,+0.692,-0.372,-0.647,+33.875,-3.188,+23.438,-1, -4, 1, -3, -3, -2, -3, -3,-1.5223975856570038,0.7761279028256396
1503601819648,-0.577,-0.381,+0.150,+0.707,+0.698,-0.374,-0.643,+35.750,-3.562,+24.438,-1, -4, -6, -5, -1, 0, 1, -2,-1.5237218670954844,0.7755963728678025
1503601819671,-0.575,-0.386,+0.144,+0.707,+0.687,-0.371,-0.635,+38.688,-6.375,+25.688,2, 1, 0, 1, -1, 0, -2, 1,-1.5267248970909657,0.7754447593796657
1503601819686,-0.574,-0.390,+0.137,+0.707,+0.687,-0.398,-0.630,+42.000,-8.438,+25.812,-2, -5, -4, -4, -1, -1, -2, 0,-1.5307000706107596,0.7724543606631209
1503601819711,-0.572,-0.395,+0.130,+0.706,+0.685,-0.423,-0.639,+44.500,-9.125,+25.688,-2, 0, -2, 2, 0, 0, 1, 2,-1.5339245040657703,0.7708906940691036
1503601819731,-0.571,-0.401,+0.123,+0.706,+0.670,-0.444,-0.629,+45.938,-8.875,+26.938,-2, -3, -4, -5, -4, -1, 0, -1,-1.5417227904745745,0.7724886272515691
1503601819746,-0.569,-0.406,+0.115,+0.706,+0.663,-0.444,-0.627,+48.500,-8.188,+26.188,1, -3, -3, -2, -1, 0, 0, -4,-1.545371614109827,0.7700479421209664
1503601819768,-0.568,-0.412,+0.108,+0.705,+0.661,-0.463,-0.615,+51.500,-6.625,+25.125,4, 2, 9, -3, 0, -3, -3, -1,-1.5536449800390444,0.7719818283324952
1503601819791,-0.566,-0.418,+0.100,+0.703,+0.657,-0.480,-0.608,+53.688,-5.812,+25.688,-2, -1, -8, -5, -2, 1, 0, -1,-1.559607295506522,0.7719170043394009
1503601819806,-0.564,-0.425,+0.092,+0.702,+0.649,-0.495,-0.593,+55.562,-7.188,+26.562,-4, -1, 0, -3, -1, -2, -2, -3,-1.5678562946248695,0.7746263858551803
1503601819828,-0.563,-0.431,+0.084,+0.700,+0.646,-0.519,-0.583,+58.250,-9.562,+25.562,-3, 0, 9, 7, 1, -1, -2, -3,-1.5771405935752554,0.7759839474776726
1503601824891,-0.552,-0.386,+0.352,+0.650,+0.900,-0.128,-0.377,-16.250,-17.938,-9.375,2, -1, -1, -1, -2, -1, 0, -11,-1.4774708444124132,1.0960513054473329
1503601824913,-0.553,-0.382,+0.354,+0.651,+0.893,-0.102,-0.382,-17.250,-7.688,-9.500,-7, 2, 2, 3, 1, 0, -4, -9,-1.4736395791461994,1.0929251050662168
1503601824928,-0.553,-0.380,+0.356,+0.651,+0.897,-0.079,-0.401,-15.625,-1.938,-6.625,5, 13, 5, 2, -1, -1, 0, -7,-1.4706025496223867,1.0929206619933436
1503601824950,-0.553,-0.378,+0.357,+0.652,+0.919,-0.072,-0.422,-12.438,-6.250,-3.938,17, 1, -6, -3, -1, 0, -1, 7,-1.4676185291982362,1.0913981270897835
1503601824973,-0.553,-0.375,+0.356,+0.653,+0.916,-0.083,-0.408,-9.875,-14.875,-3.500,-6, 10, 5, -1, 0, -1, -1, 1,-1.4629170939097622,1.0842861836793545
1503601824989,-0.554,-0.372,+0.356,+0.654,+0.905,-0.089,-0.398,-9.375,-18.812,-4.438,-11, -5, 3, -4, -1, -2, -2, -7,-1.4606822086027682,1.0794323615233605
1503601825010,-0.555,-0.369,+0.355,+0.655,+0.898,-0.087,-0.402,-10.312,-16.000,-5.062,1, 1, -1, 0, -1, -2, 0, -2,-1.458406940396113,1.0727267383049475
1503601825033,-0.555,-0.367,+0.356,+0.656,+0.885,-0.072,-0.424,-10.875,-7.062,-2.312,3, 4, -1, 0, -2, 0, -2, 0,-1.455517723377421,1.071289531562416
1503601825048,-0.555,-0.365,+0.356,+0.657,+0.896,-0.055,-0.448,-8.812,-7.188,+2.500,7, -3, -1, -2, 0, -2, 1, -3,-1.4525615193218688,1.0679845149218348
1503601825071,-0.555,-0.363,+0.355,+0.659,+0.897,-0.076,-0.447,-6.312,-12.375,+2.688,-4, -9, -8, -2, 0, 0, -3, -1,-1.4496680381276663,1.0631512039281148
1503601825093,-0.555,-0.361,+0.354,+0.660,+0.895,-0.098,-0.433,-6.375,-16.938,+0.562,5, -7, -8, 0, -1, -1, 3, 6,-1.446656058906762,1.0579854598376666
1503601825109,-0.556,-0.359,+0.353,+0.661,+0.887,-0.103,-0.429,-8.312,-13.750,-1.312,15, 0, 0, 1, 0, 0, 0, 11,-1.446037689474757,1.0531883285335708
1503601825131,-0.555,-0.358,+0.354,+0.662,+0.871,-0.095,-0.438,-10.188,-5.438,-0.812,-20, -4, -2, -2, 0, -1, 0, -4,-1.4423720951441568,1.0532711817893807
1503601825154,-0.555,-0.356,+0.354,+0.663,+0.895,-0.086,-0.439,-10.500,-2.688,+0.250,-13, -6, -5, -3, -1, 0, -1, -13,-1.4394904981104446,1.0500304083317575
1503601825168,-0.554,-0.355,+0.355,+0.664,+0.910,-0.078,-0.441,-10.188,-4.750,-0.125,14, 2, 0, 0, -1, -1, -2, 8,-1.4358419616981282,1.0501347341675356
1503601825192,-0.554,-0.353,+0.355,+0.665,+0.906,-0.080,-0.437,-9.750,-9.125,-0.938,-15, -4, 5, 0, -1, 0, -2, -13,-1.4329848774105467,1.0469191295852491
1503601825215,-0.554,-0.351,+0.355,+0.666,+0.876,-0.075,-0.447,-8.875,-10.000,-1.188,-3, -1, 0, -1, 0, 0, 1, 8,-1.4301441415654284,1.0437181203285375
1503601825228,-0.554,-0.349,+0.355,+0.667,+0.868,-0.082,-0.455,-8.375,-8.750,-1.125,-22, -8, -2, -1, -2, -1, -5, -11,-1.4273197770027957,1.0405316898769066
1503601825251,-0.554,-0.348,+0.355,+0.668,+0.860,-0.078,-0.457,-8.812,-3.375,-1.500,13, 1, -5, -1, -3, 0, 0, 12,-1.425993912352305,1.0391244066449694
1503601825273,-0.553,-0.347,+0.356,+0.668,+0.875,-0.076,-0.450,-10.000,-0.312,-0.875,8, 7, 6, 2, 1, 1, -1, 9,-1.4222206628315277,1.0389151424857905
1503601825289,-0.553,-0.346,+0.357,+0.669,+0.891,-0.065,-0.460,-10.250,-0.938,+0.688,-3, 2, 2, 1, 0, -2, 0, -6,-1.4210084307979634,1.0394294293417905
1503601825311,-0.552,-0.344,+0.358,+0.670,+0.893,-0.067,-0.459,-9.375,-4.875,+0.750,24, 3, -8, -2, -1, -1, 1, 0,-1.4159381940654021,1.037850804306386
1503601825333,-0.552,-0.342,+0.357,+0.671,+0.888,-0.065,-0.471,-8.250,-8.250,+0.750,-3, -2, -1, -1, -1, -2, -2, 2,-1.4130633264585946,1.03280357226664
1503601825351,-0.552,-0.341,+0.357,+0.672,+0.872,-0.064,-0.473,-6.562,-9.938,+0.938,15, 13, 2, -4, 0, 0, 2, 4,-1.4117729043539047,1.0314278694472823
1503601825370,-0.552,-0.339,+0.356,+0.673,+0.860,-0.066,-0.479,-5.188,-7.375,+1.375,11, 3, -2, 1, -1, -2, -3, 1,-1.4089211327617703,1.0264000324543678
1503601825393,-0.552,-0.339,+0.356,+0.674,+0.876,-0.072,-0.484,-4.750,-2.750,+2.312,-29, -4, 2, 0, -1, 1, -3, -13,-1.4090993328225743,1.0267694206217073
1503601825409,-0.551,-0.338,+0.356,+0.675,+0.884,-0.068,-0.479,-3.688,-2.938,+4.375,-12, -13, -4, -3, -3, -2, 1, -1,-1.40542463458626,1.025054770062498
1503601825431,-0.551,-0.338,+0.355,+0.676,+0.896,-0.068,-0.474,-2.500,-6.688,+5.125,-11, -6, -3, -1, 2, -1, -3, -3,-1.4054948645653718,1.0235044072043988
1503601825455,-0.550,-0.337,+0.354,+0.677,+0.882,-0.074,-0.472,-1.688,-10.062,+3.750,0, -2, 3, 4, 1, 0, 3, -11,-1.4017126953225354,1.019872757643419
1503601825469,-0.551,-0.336,+0.353,+0.678,+0.857,-0.074,-0.480,-1.438,-9.250,+2.188,-30, -6, -5, -2, -1, -1, -2, -6,-1.4027391596765006,1.0169524731521244
1503601825491,-0.550,-0.336,+0.352,+0.678,+0.846,-0.075,-0.494,-1.812,-4.562,+2.188,-7, -7, 1, 2, 1, 0, 2, 7,-1.400220929780753,1.0146801853608407
1503601825513,-0.550,-0.336,+0.352,+0.679,+0.852,-0.065,-0.481,-1.438,-0.250,+3.938,0, -8, -1, 0, -1, -1, -4, 3,-1.4004080481240002,1.0150526507310638
1503601825529,-0.549,-0.336,+0.352,+0.680,+0.879,-0.069,-0.479,-0.625,-0.875,+5.375,2, 7, 2, -2, -2, -1, 0, 1,-1.3981933890562779,1.0150695703671682
1503601825552,-0.549,-0.336,+0.351,+0.680,+0.882,-0.081,-0.481,-0.875,-5.250,+5.000,22, -6, -7, -5, -1, -1, 0, 5,-1.3980776684493805,1.0131526579681498
1503601825573,-0.548,-0.335,+0.350,+0.681,+0.874,-0.083,-0.484,-1.750,-8.188,+4.000,-23, -8, -3, 1, 1, 2, 4, -2,-1.3942993324520587,1.0095278357828248
1503601825590,-0.548,-0.334,+0.349,+0.682,+0.860,-0.081,-0.489,-1.375,-6.812,+4.125,1, 2, 0, -1, -1, -2, -2, -5,-1.3929293218087893,1.0062642260725305
1503601825610,-0.548,-0.334,+0.349,+0.683,+0.857,-0.095,-0.494,-0.688,-4.750,+3.625,-5, 2, 2, 1, -3, -3, -3, -4,-1.3931237430102492,1.006638663564701
1503601825633,-0.547,-0.334,+0.348,+0.684,+0.871,-0.095,-0.485,-1.812,-3.062,+3.250,-5, 6, 5, 3, 2, -2, -4, -9,-1.3907947825363256,1.0047394778927683
1503601825648,-0.547,-0.334,+0.348,+0.684,+0.866,-0.090,-0.491,-2.500,-2.812,+3.250,7, 5, -10, -6, -4, 0, 1, 4,-1.3907947825363256,1.0047394778927683
1503601825670,-0.547,-0.333,+0.347,+0.685,+0.856,-0.092,-0.496,-2.250,-3.625,+2.438,0, -12, -7, -4, -2, 0, 1, 7,-1.3894300448684633,1.0014821894530361
1503601825693,-0.546,-0.333,+0.347,+0.686,+0.851,-0.094,-0.495,-2.812,-2.250,+2.000,-6, -1, 1, -3, 0, -2, -1, -1,-1.3872230561102608,1.0014973289764586
1503601825708,-0.546,-0.333,+0.347,+0.686,+0.850,-0.096,-0.500,-3.500,+0.250,+1.688,-14, 1, 3, 4, 1, 0, -2, 2,-1.3872230561102608,1.0014973289764586
1503601825730,-0.545,-0.333,+0.347,+0.687,+0.856,-0.100,-0.490,-3.812,+0.875,+2.312,28, 0, 1, -2, -2, 0, 0, 4,-1.3850198254989614,1.0015124677836267
1503601825753,-0.544,-0.332,+0.347,+0.687,+0.870,-0.098,-0.490,-4.438,-2.438,+2.812,7, -3, 1, 5, 0, -1, -1, -2,-1.3811737047450465,0.9994389440896981
1503601825768,-0.544,-0.332,+0.346,+0.688,+0.868,-0.088,-0.495,-3.625,-8.625,+3.312,4, 6, 8, -1, -1, -2, 0, -2,-1.3812539344233454,0.9978987384114851
1503601825791,-0.544,-0.330,+0.345,+0.690,+0.857,-0.089,-0.512,-1.938,-11.875,+3.250,5, -6, -8, -1, 1, 1, -1, 0,-1.378669853327759,0.9933200310180765
1503601825813,-0.545,-0.329,+0.343,+0.691,+0.820,-0.093,-0.531,-1.188,-10.750,+1.688,10, -7, -4, -4, -1, -1, 2, 2,-1.3796053873482452,0.988528219200824
1503601825829,-0.545,-0.329,+0.343,+0.691,+0.804,-0.090,-0.512,-1.375,-3.688,+0.938,-6, -1, 0, -3, -1, -2, -3, -5,-1.3796053873482452,0.988528219200824
1503601825854,-0.544,-0.329,+0.344,+0.691,+0.811,-0.086,-0.510,-1.500,+8.875,+0.438,0, 9, 1, 0, -1, 1, -2, -15,-1.377322087082408,0.9900789758443135
1503601825873,-0.543,-0.331,+0.346,+0.690,+0.845,-0.099,-0.496,-1.188,+17.500,-0.938,12, -1, -2, -3, -2, -1, 0, 11,-1.377825562093473,0.9965818652824748
1503601825889,-0.542,-0.332,+0.348,+0.689,+0.878,-0.098,-0.497,-0.312,+15.000,-1.562,1, 1, -1, -1, -1, -2, -2, 5,-1.3769089831589307,1.0013922736325596
1503601825910,-0.542,-0.333,+0.348,+0.689,+0.884,-0.085,-0.478,+1.000,+5.812,-1.312,-26, 6, 6, 3, 0, -1, -3, -5,-1.3783524231401068,1.0031021751136346
1503601825933,-0.542,-0.333,+0.348,+0.689,+0.857,-0.084,-0.495,+1.562,-0.625,-1.938,19, 11, 9, 5, 1, 1, -1, 8,-1.3783524231401068,1.0031021751136346
1503601825948,-0.542,-0.333,+0.349,+0.688,+0.842,-0.080,-0.496,+1.312,+2.875,-2.938,-12, -5, -8, -6, -4, 0, -2, -12,-1.3782722076269482,1.0046482336201557
1503601825971,-0.542,-0.334,+0.350,+0.688,+0.848,-0.090,-0.496,+1.000,+9.000,-2.188,-3, -4, -4, 0, -2, 1, 2, 7,-1.3798465076996886,1.008283202004402
1503601825993,-0.542,-0.335,+0.351,+0.687,+0.868,-0.091,-0.486,+1.688,+11.438,-1.188,-11, -4, -6, -4, -2, 0, 4, 2,-1.381217548842676,1.0115472117542472
1503601826009,-0.541,-0.336,+0.351,+0.686,+0.885,-0.090,-0.482,+3.062,+5.625,-1.688,4, -13, -6, -4, -1, 0, 1, 0,-1.3800734165824964,1.0125344574572692
1503601826031,-0.542,-0.336,+0.351,+0.686,+0.871,-0.077,-0.482,+3.625,-2.250,-2.438,1, 4, 4, 1, 1, -2, -2, -8,-1.3824671096613441,1.0128915061393657
1503601826055,-0.543,-0.336,+0.350,+0.685,+0.838,-0.062,-0.483,+4.938,-4.812,-3.062,-8, -1, 0, 3, -2, 0, 1, 6,-1.3845340337011218,1.010954193083279
1503601826069,-0.544,-0.336,+0.350,+0.685,+0.826,-0.069,-0.483,+6.188,+3.375,-2.812,7, 1, 1, 1, 1, -1, -3, -1,-1.3869306339498435,1.0113120995824512
1503601826091,-0.543,-0.338,+0.351,+0.683,+0.850,-0.082,-0.479,+6.312,+13.750,-1.875,-9, -3, -3, -9, -1, -4, -1, -4,-1.3871768499273727,1.0155796972211735
1503601826113,-0.542,-0.341,+0.353,+0.682,+0.878,-0.086,-0.472,+6.688,+22.562,-0.562,-15, -3, -4, -2, -2, -3, -1, -5,-1.3892424991853716,1.0238898616829366
1503601826135,-0.541,-0.345,+0.355,+0.680,+0.910,-0.096,-0.484,+8.438,+25.438,+1.562,8, -2, -3, 2, -1, 0, -3, 4,-1.392643931529358,1.033607368713905
1503601826151,-0.540,-0.348,+0.356,+0.679,+0.917,-0.111,-0.492,+10.375,+20.812,+4.250,2, 0, -1, 1, 1, 1, 3, 7,-1.3946838653031381,1.0400615170135608
1503601826173,-0.539,-0.351,+0.357,+0.678,+0.906,-0.123,-0.478,+10.188,+13.875,+4.500,-14, -3, 2, 2, 0, -3, 2, 4,-1.396765987489873,1.0465432424592422
1503601826196,-0.538,-0.353,+0.357,+0.677,+0.903,-0.130,-0.458,+9.062,+12.000,+3.000,13, -5, -3, 1, 2, 1, 3, 1,-1.39724632879509,1.049362146476762
1503601826211,-0.538,-0.356,+0.358,+0.676,+0.903,-0.127,-0.450,+8.750,+15.625,+0.438,-2, 3, 0, 1, -2, 0, -2, -4,-1.4017593762211666,1.056243779683998
1503601826233,-0.537,-0.359,+0.359,+0.674,+0.911,-0.118,-0.446,+9.562,+21.938,-1.062,-5, -6, -4, -3, -2, -3, -4, -6,-1.403771287494373,1.0624493675196856
1503601826263,-0.536,-0.363,+0.362,+0.671,+0.899,-0.115,-0.474,+12.938,+31.250,-3.438,5, -1, 1, 6, -1, -1, -3, 5,-1.4074485880051586,1.073977628889763
1503601826270,-0.536,-0.367,+0.364,+0.667,+0.893,-0.132,-0.454,+15.812,+32.000,-8.688,4, 3, 0, -7, 0, -1, 1, 4,-1.4132550824294643,1.083650932072651
1503601826293,-0.536,-0.371,+0.366,+0.664,+0.917,-0.135,-0.429,+17.000,+27.188,-12.250,-2, 3, 1, -3, -3, 0, -2, -3,-1.4193027436888281,1.093728828834965
1503601826315,-0.537,-0.375,+0.368,+0.660,+0.920,-0.138,-0.403,+15.938,+22.562,-13.625,-16, -1, 1, 1, 1, 0, -3, -29,-1.427585438112392,1.1038704123659697
1503601826331,-0.538,-0.378,+0.369,+0.657,+0.900,-0.135,-0.378,+13.750,+19.938,-13.188,13, 1, -2, -1, 0, 0, -1, 11,-1.4343688922733628,1.1106424822795866
1503601826353,-0.539,-0.380,+0.370,+0.654,+0.889,-0.140,-0.390,+11.625,+14.750,-12.125,-3, -1, -1, 0, -1, 0, 1, -1,-1.4395769759487422,1.1155994740927968
1503601826375,-0.540,-0.381,+0.371,+0.652,+0.887,-0.127,-0.383,+9.625,+11.000,-14.188,-13, -5, 1, 3, 1, 0, -2, -7,-1.4433294066077231,1.1190460909057962
1503601826392,-0.541,-0.382,+0.373,+0.650,+0.893,-0.110,-0.371,+7.500,+10.062,-15.062,-2, -1, 0, 0, -1, -1, -1, -3,-1.4471826479928644,1.1244111968002406
1503601826413,-0.542,-0.383,+0.375,+0.648,+0.913,-0.090,-0.350,+3.375,+12.312,-10.500,14, 1, 0, -1, -1, -2, -1, 5,-1.4510365553302724,1.1297814902179106
1503601826435,-0.541,-0.384,+0.377,+0.646,+0.953,-0.060,-0.336,-0.688,+15.125,-4.125,-7, -3, -3, -2, 1, -1, -4, -2,-1.4502655292366773,1.134506091780504
1503601826451,-0.540,-0.385,+0.379,+0.645,+0.965,-0.048,-0.342,-2.375,+8.688,+1.812,1, -2, 6, 3, -1, -1, -3, 5,-1.4496339808995944,1.1395650841409533
1503601826473,-0.540,-0.384,+0.379,+0.646,+0.976,-0.053,-0.343,-1.438,-5.000,+2.750,-13, -5, -4, -1, -1, -3, -2, -7,-1.4481405541094097,1.138027499408428
1503601826491,-0.541,-0.383,+0.378,+0.647,+0.962,-0.066,-0.339,-2.750,-18.562,+1.688,6, 7, 1, -4, 0, 0, 3, 13,-1.448870018119777,1.1348938147251066
1503601826511,-0.541,-0.381,+0.377,+0.648,+0.932,-0.073,-0.345,-6.000,-18.312,+0.688,-11, 2, -2, -3, -1, -2, -1, -5,-1.4456795908935307,1.129593095784769
1503601826535,-0.541,-0.378,+0.377,+0.650,+0.904,-0.069,-0.350,-10.250,-11.500,+1.125,-7, -16, -4, -5, -3, 0, 1, -2,-1.4411338453778648,1.1247165168419098
1503601826549,-0.540,-0.377,+0.377,+0.651,+0.905,-0.052,-0.350,-12.500,-4.875,+4.312,0, 6, -3, -2, -2, 0, 0, -5,-1.4373523328737499,1.1228806683848123
1503601826571,-0.539,-0.375,+0.378,+0.652,+0.927,-0.037,-0.368,-10.562,-4.500,+3.812,-3, -8, -4, -2, -4, -2, -3, -2,-1.432080085637581,1.1211548579094168
1503601826593,-0.539,-0.374,+0.378,+0.653,+0.915,-0.060,-0.377,-8.562,-5.438,+1.062,5, -1, 0, -5, -2, 0, 1, -2,-1.4306358704104856,1.1196606312708004
1503601826609,-0.539,-0.372,+0.379,+0.654,+0.896,-0.072,-0.383,-10.375,-3.938,-1.000,16, 1, -6, -3, -1, -1, 2, 4,-1.4277161959317763,1.118293626085162
1503601826631,-0.538,-0.371,+0.380,+0.655,+0.897,-0.063,-0.379,-12.625,-0.750,-1.250,13, 7, 8, 6, 1, 1, 1, 6,-1.4240687480593983,1.1184312056138397
1503601826653,-0.537,-0.369,+0.382,+0.655,+0.906,-0.050,-0.382,-12.500,+3.562,-1.188,-9, 7, 5, -2, 2, -3, -3, 4,-1.418799230348607,1.1183922229853862
1503601826669,-0.537,-0.368,+0.384,+0.655,+0.912,-0.045,-0.387,-10.125,+4.438,-1.562,2, -5, -2, 2, 1, -1, 0, 0,-1.4174464525699546,1.1205028699708988
1503601826693,-0.536,-0.367,+0.385,+0.655,+0.907,-0.042,-0.403,-7.562,+1.938,-2.438,5, 2, -1, 1, 0, 1, -3, -1,-1.4136563428128013,1.120346918084629
1503601826713,-0.536,-0.366,+0.386,+0.655,+0.912,-0.054,-0.392,-5.062,+1.000,-2.312,-2, 3, 2, 2, 2, -3, 1, -1,-1.4121984161763959,1.1205193987234763
1503601826729,-0.536,-0.366,+0.387,+0.655,+0.903,-0.068,-0.378,-3.750,+2.625,-1.938,-3, -5, -4, -2, 0, -2, 0, -1,-1.4123142612129334,1.1224854911824902
1503601826751,-0.536,-0.366,+0.387,+0.655,+0.911,-0.073,-0.391,-3.625,+2.500,-2.000,-9, -1, -1, 3, 0, -1, 2, -3,-1.4123142612129334,1.1224854911824902
1503601826773,-0.535,-0.366,+0.388,+0.655,+0.908,-0.067,-0.386,-3.750,+5.562,-2.000,5, 0, -2, -2, -3, 1, 2, 12,-1.4101028414500676,1.1241365043015055
1503601826789,-0.535,-0.366,+0.390,+0.655,+0.904,-0.054,-0.396,-2.750,+9.125,-1.188,-6, -2, -2, -4, -2, 1, 0, 2,-1.410337281248361,1.1280796092442151
1503601826811,-0.534,-0.367,+0.390,+0.654,+0.922,-0.059,-0.387,-0.750,+7.250,+1.875,28, -2, -5, -1, -4, -2, 3, -2,-1.4094164769991135,1.1292165836879784
1503601826833,-0.534,-0.367,+0.390,+0.655,+0.950,-0.080,-0.373,-0.875,-3.375,+3.312,-3, 0, -2, 0, -4, -2, -1, 0,-1.4095882983694619,1.1295504346104395
1503601826850,-0.533,-0.366,+0.389,+0.656,+0.937,-0.100,-0.360,-4.062,-7.250,+2.375,-6, -8, -3, -2, -2, 0, -3, -17,-1.4057438892043417,1.1258114743106498
1503601826871,-0.533,-0.365,+0.389,+0.657,+0.887,-0.094,-0.369,-7.562,-8.500,+0.125,-3, 9, 6, 0, 2, 1, -1, 2,-1.404346459805486,1.1243650610423472
1503601826895,-0.533,-0.363,+0.389,+0.658,+0.896,-0.066,-0.364,-9.812,-10.500,+0.000,22, -3, 1, -1, 0, -1, 1, 1,-1.401387986666796,1.1211477243826826
1503601826909,-0.532,-0.361,+0.389,+0.660,+0.909,-0.042,-0.368,-10.562,-7.438,+2.312,-7, -3, -3, -5, 0, -1, -1, -2,-1.3962996091806943,1.1179696463548918
1503601826931,-0.532,-0.359,+0.389,+0.661,+0.902,-0.035,-0.376,-10.312,-8.562,+2.750,-15, -8, -4, 0, -2, -1, 3, 6,-1.3933728811938775,1.114783655170333
1503601826953,-0.531,-0.357,+0.389,+0.662,+0.903,-0.041,-0.383,-9.062,-11.812,+2.562,0, 1, 0, -2, -1, -2, 3, -3,-1.3881269561195502,1.1112951885613092
1503601826969,-0.531,-0.355,+0.388,+0.664,+0.908,-0.039,-0.386,-9.062,-12.125,+2.938,-9, -1, -3, 0, 1, -1, 1, 2,-1.385294212884778,1.1064989045388354
1503601826991,-0.531,-0.353,+0.388,+0.665,+0.905,-0.052,-0.389,-10.000,-10.688,+2.812,15, 5, 3, 3, -2, -1, 4, 4,-1.3824141145911732,1.1033567460214027
1503601827013,-0.530,-0.351,+0.388,+0.667,+0.910,-0.045,-0.401,-10.125,-8.375,+3.312,6, 7, -1, -1, -2, 0, -2, -6,-1.3774107454947213,1.100262948140339
1503601827036,-0.530,-0.350,+0.388,+0.669,+0.923,-0.042,-0.414,-8.812,-8.625,+6.312,12, 1, -9, -4, -1, 0, -7, -1,-1.3762927128156524,1.0992355359092658
1503601827051,-0.529,-0.349,+0.386,+0.670,+0.929,-0.049,-0.422,-6.438,-12.250,+7.688,-32, 2, 0, -4, -3, -5, -9, -29,-1.3723607048691224,1.09355700852553
1503601827073,-0.529,-0.347,+0.385,+0.672,+0.914,-0.068,-0.410,-4.875,-12.188,+5.562,10, 0, -2, -1, -3, 0, 2, 10,-1.3696026031660782,1.0888261752022725
1503601827097,-0.528,-0.347,+0.385,+0.673,+0.901,-0.077,-0.400,-6.000,-6.750,+4.688,4, -4, 3, 3, 3, 2, 2, 0,-1.3674703756012054,1.0888614612139154
1503601827111,-0.527,-0.346,+0.385,+0.675,+0.915,-0.057,-0.418,-7.125,-5.000,+6.312,-5, 1, 4, 0, -1, 1, 0, -8,-1.3640418539480181,1.0875353466362307
1503601827133,-0.526,-0.345,+0.384,+0.676,+0.912,-0.056,-0.429,-5.812,-7.188,+5.812,29, 2, 0, -2, 1, 1, 4, 28,-1.3602602532074197,1.0838619893140138
1503601827156,-0.526,-0.343,+0.383,+0.677,+0.905,-0.062,-0.428,-4.750,-11.438,+4.125,4, -2, -1, 1, 1, -1, -4, -25,-1.3573174045788698,1.0788040852495702
1503601827171,-0.526,-0.342,+0.381,+0.679,+0.894,-0.071,-0.435,-4.688,-14.062,+3.750,-23, -8, -2, 2, 1, -1, 3, 3,-1.355969248143267,1.0738362919275686
1503601827193,-0.526,-0.340,+0.380,+0.680,+0.870,-0.072,-0.429,-4.688,-13.125,+2.750,-7, 1, 4, 1, 0, -1, -2, -6,-1.3530505175492273,1.0687998586904606
1503601827215,-0.526,-0.339,+0.379,+0.682,+0.864,-0.066,-0.431,-5.188,-10.625,+2.688,-11, -3, -2, -1, -1, -1, 0, 0,-1.3518663917278348,1.0658421005716678
1503601827232,-0.526,-0.338,+0.379,+0.683,+0.868,-0.054,-0.430,-6.312,-7.312,+3.812,16, 4, -1, -2, 2, 1, -3, -3,-1.350607097147379,1.0645129370579038
1503601827253,-0.525,-0.337,+0.378,+0.684,+0.876,-0.049,-0.459,-5.000,-4.000,+4.812,5, 2, 0, -2, -2, -2, 1, 10,-1.3468487182323943,1.0608677889303006
1503601827275,-0.525,-0.336,+0.377,+0.685,+0.890,-0.047,-0.465,-2.500,-7.625,+6.500,-9, -5, -3, 0, -4, -4, -1, -3,-1.345449335795756,1.0575558000722491
1503601827292,-0.524,-0.335,+0.375,+0.687,+0.891,-0.046,-0.449,+0.312,-15.500,+8.375,1, 9, 3, 1, 0, -1, -3, 0,-1.3417805934309044,1.0522993442744815
1503601827314,-0.525,-0.334,+0.372,+0.689,+0.904,-0.052,-0.432,+2.062,-20.875,+9.562,-10, -5, 1, 4, 0, -1, -3, -10,-1.3426862022983643,1.045735584636493
1503601827335,-0.525,-0.333,+0.370,+0.691,+0.893,-0.050,-0.435,+4.250,-20.188,+9.188,6, -5, -3, -5, -2, 0, -3, 0,-1.3413897474690064,1.040836696086135
1503601827352,-0.525,-0.333,+0.366,+0.692,+0.870,-0.037,-0.452,+7.438,-19.938,+10.125,10, 5, 2, -3, -1, -2, 2, -9,-1.3410214528495117,1.0333073572015397
1503601827374,-0.526,-0.333,+0.363,+0.694,+0.874,-0.024,-0.468,+10.000,-19.312,+15.062,-6, 21, 11, 1, 1, -1, -2, 0,-1.343413495869437,1.0284954395015313
1503601827398,-0.525,-0.333,+0.359,+0.696,+0.887,-0.020,-0.496,+13.438,-19.312,+20.375,-30, 10, 12, 3, 1, -2, -4, -9,-1.340915816281558,1.021051428454998
1503601827412,-0.525,-0.334,+0.354,+0.698,+0.874,-0.042,-0.490,+18.312,-19.562,+23.188,21, 4, -4, -1, -1, -3, -2, 0,-1.3421013688039758,1.013727517312894
1503601827434,-0.525,-0.336,+0.348,+0.700,+0.880,-0.048,-0.500,+22.312,-22.312,+26.875,-30, 9, 13, 5, -2, 1, -3, -10,-1.3446092095736715,1.0062269331267966
1503601827455,-0.524,-0.339,+0.342,+0.703,+0.880,-0.044,-0.517,+26.062,-22.062,+31.000,0, -2, -5, -3, -2, -2, 0, 5,-1.3464706390772003,1.0005413658953501
1503601827471,-0.524,-0.342,+0.335,+0.705,+0.875,-0.059,-0.522,+32.438,-22.375,+33.438,5, 0, -4, -2, -1, 2, 6, 17,-1.3503429298613712,0.9930480328980343
1503601827494,-0.523,-0.346,+0.327,+0.707,+0.867,-0.086,-0.532,+38.938,-23.500,+36.375,-7, 2, -1, -1, -1, 1, 1, 3,-1.3532263714727473,0.9851653631539208
1503601827515,-0.522,-0.351,+0.318,+0.709,+0.870,-0.118,-0.537,+43.625,-24.188,+40.812,11, -5, 1, 2, 1, -1, 2, 19,-1.3575403120858687,0.977360565763818
1503601827533,-0.521,-0.356,+0.309,+0.711,+0.860,-0.143,-0.531,+47.188,-23.375,+42.125,4, -29, -9, 3, 2, -1, 0, 8,-1.3619475844934639,0.9698086720257467
1503601827553,-0.520,-0.362,+0.299,+0.713,+0.842,-0.173,-0.539,+51.312,-22.125,+43.625,0, 1, -2, -8, -3, -1, -4, -2,-1.3678737545446762,0.9624884828291075
1503601827575,-0.519,-0.369,+0.289,+0.715,+0.839,-0.199,-0.547,+57.125,-22.000,+46.750,2, 0, -6, -4, -4, -2, -1, 34,-1.3755496834586736,0.9573518540262261
1503601827591,-0.517,-0.376,+0.277,+0.717,+0.822,-0.208,-0.554,+61.125,-24.062,+50.188,-6, 1, -3, -1, -1, 0, 2, 9,-1.3807685935817087,0.9485614965304557
1503601833665,-0.406,-0.194,+0.302,+0.841,+0.679,-0.085,-0.705,-5.500,-6.438,+0.812,3, -1, 5, -1, 0, -2, -1, 1,-0.9313028668815433,0.7308796147526715
1503601833682,-0.406,-0.193,+0.302,+0.841,+0.680,-0.089,-0.691,-5.000,-2.938,+0.500,-6, -9, -3, -1, -2, -1, 1, -5,-0.930318469362775,0.7297549595165672
1503601833696,-0.405,-0.192,+0.302,+0.841,+0.684,-0.083,-0.704,-4.625,+0.500,+1.125,12, 9, 5, 1, 1, 2, 1, 1,-0.9270235147580129,0.7283456298416948
1503601833718,-0.405,-0.192,+0.302,+0.841,+0.678,-0.086,-0.724,-4.000,+2.188,+0.938,0, 3, -3, -3, -1, -1, 0, -1,-0.9270235147580129,0.7283456298416948
1503601833742,-0.404,-0.192,+0.303,+0.842,+0.672,-0.093,-0.719,-3.875,+1.062,-0.562,5, -4, -4, -1, 0, -1, -2, -2,-0.9254309014881859,0.7305783609453457
1503601833756,-0.404,-0.191,+0.303,+0.842,+0.678,-0.096,-0.695,-4.062,+0.188,-2.500,2, -8, -4, -1, 0, -3, 0, 4,-0.9244517469542901,0.7294622562213869
1503601833779,-0.405,-0.191,+0.304,+0.841,+0.691,-0.090,-0.677,-4.125,+3.812,-4.062,14, 15, -2, 0, -2, -1, -3, -1,-0.926505456746758,0.7313635959115629
1503601833801,-0.404,-0.191,+0.306,+0.840,+0.713,-0.074,-0.682,-3.812,+9.750,-2.750,-2, -7, -1, 0, -1, -1, -2, 0,-0.9241677867652388,0.7347673360809484
1503601833817,-0.404,-0.191,+0.308,+0.840,+0.751,-0.073,-0.699,-3.000,+8.000,-0.938,-3, 1, 0, 0, -4, -2, 0, 0,-0.9246292645098594,0.738917561749217
1503601833839,-0.404,-0.190,+0.307,+0.841,+0.717,-0.056,-0.712,-0.938,-7.375,+3.125,-8, -1, 3, -1, 0, 0, 0, -2,-0.9239060772320042,0.7361843169941865
1503601833861,-0.404,-0.189,+0.304,+0.842,+0.650,-0.062,-0.704,+1.062,-18.438,+3.438,-18, -7, -2, -2, -2, -3, -4, -4,-0.9227317222105038,0.7293086195930527
1503601833876,-0.404,-0.189,+0.302,+0.843,+0.623,-0.097,-0.697,+0.812,-10.188,+1.125,7, -2, 1, -1, 1, 1, -1, 3,-0.922763189581576,0.7256228930920923
1503601833899,-0.403,-0.189,+0.303,+0.842,+0.666,-0.121,-0.701,-1.000,+6.125,+0.938,-3, -6, -6, -4, -3, -2, 1, 12,-0.9201921561389653,0.7269550398569165
1503601833921,-0.402,-0.190,+0.305,+0.842,+0.725,-0.104,-0.698,-3.875,+10.938,+2.438,11, 7, 7, 1, -1, -1, 0, 8,-0.9193190537776478,0.7319243028224327
1503601833936,-0.401,-0.190,+0.305,+0.842,+0.741,-0.067,-0.707,-3.812,+0.000,+4.812,-29, -4, -3, -1, 0, -2, 0, -8,-0.9170132992191253,0.7316407370428497
1503601833959,-0.401,-0.189,+0.303,+0.844,+0.708,-0.062,-0.708,-1.812,-15.875,+5.938,5, -2, -3, 0, -1, 1, -1, -3,-0.9165551519727559,0.7272966942804092
1503601833981,-0.401,-0.188,+0.300,+0.845,+0.672,-0.080,-0.708,-0.062,-19.125,+5.188,4, -1, 4, 1, 0, 0, -1, -14,-0.9153862668504862,0.7204361984145656
1503601833996,-0.400,-0.187,+0.298,+0.846,+0.667,-0.104,-0.705,-0.062,-12.750,+6.062,-6, -4, -3, 0, 3, 0, -1, -1,-0.9121470568805568,0.7153712733048407
1503601834019,-0.399,-0.187,+0.297,+0.847,+0.676,-0.103,-0.713,-1.125,-5.688,+6.125,4, 1, 1, -1, -6, -2, -1, 3,-0.9101005562616665,0.7134734675292832
1503601834041,-0.398,-0.187,+0.296,+0.848,+0.681,-0.088,-0.717,-1.312,-5.438,+6.750,-4, -7, -2, 0, 0, -2, 1, 4,-0.9080546657302752,0.7115750008674228
1503601834056,-0.398,-0.187,+0.295,+0.849,+0.684,-0.084,-0.722,-0.750,-9.625,+6.250,27, 18, 9, 3, -1, 1, 0, 4,-0.9083150851310808,0.7099604524869823
1503601834079,-0.397,-0.186,+0.293,+0.850,+0.673,-0.094,-0.728,-0.375,-11.562,+5.438,-8, 5, 3, 0, 0, 0, -3, -3,-0.9050860768547403,0.704907282178214
1503601834101,-0.397,-0.186,+0.291,+0.850,+0.670,-0.100,-0.717,+0.062,-10.250,+4.938,-15, -4, -1, -3, -3, -1, -2, -3,-0.9046247846553296,0.7007883815660815
1503601834116,-0.396,-0.186,+0.290,+0.851,+0.668,-0.102,-0.731,+0.375,-6.562,+4.500,3, 0, -5, 0, -1, 0, -3, -6,-0.9025789017030553,0.6988914080326494
1503601834139,-0.396,-0.186,+0.289,+0.852,+0.658,-0.097,-0.732,+0.188,-6.062,+4.375,-6, -6, -3, -2, -1, 0, 0, -3,-0.9028400590389071,0.6972799609718898
1503601834161,-0.395,-0.186,+0.288,+0.852,+0.662,-0.101,-0.728,-0.125,-6.688,+4.000,-10, -7, -2, -2, 1, -1, -1, -11,-0.9003015203493936,0.6949378138632184
1503601834178,-0.395,-0.185,+0.287,+0.853,+0.667,-0.110,-0.734,-0.562,-6.875,+3.000,-2, -8, -5, -1, 0, -1, 1, -8,-0.8996205827673023,0.6922410231275897
1503601834199,-0.394,-0.185,+0.286,+0.853,+0.669,-0.110,-0.735,-1.500,-4.812,+2.938,-13, -7, 7, 1, -1, -1, -1, -5,-0.8970823314566815,0.6899012643894454
1503601834221,-0.394,-0.185,+0.286,+0.854,+0.669,-0.109,-0.733,-1.250,-3.062,+1.562,4, 1, -4, -3, -2, -1, 3, 10,-0.897575881749275,0.6903442161208878
1503601834236,-0.394,-0.185,+0.285,+0.854,+0.672,-0.100,-0.734,-1.875,-3.062,+1.750,-18, -5, -3, -1, 0, -2, 0, 6,-0.8973442146288191,0.688291480947339
1503601834259,-0.393,-0.184,+0.285,+0.854,+0.663,-0.094,-0.737,-1.875,-5.562,+2.125,19, 7, 0, -1, 1, 0, -4, -4,-0.8941015671151873,0.6869239258838121
1503601834281,-0.393,-0.184,+0.284,+0.855,+0.661,-0.092,-0.733,-1.750,-8.375,+2.125,19, 0, -4, -3, -3, -1, -1, 4,-0.8943644289305756,0.6853140545980414
1503601834296,-0.393,-0.183,+0.282,+0.856,+0.657,-0.102,-0.739,-1.500,-9.562,+1.812,3, 1, -3, -1, -2, -1, 1, 4,-0.8934665645224701,0.680577122921629
1503601834321,-0.393,-0.182,+0.281,+0.856,+0.652,-0.109,-0.739,-1.562,-7.000,+2.125,-10, 1, 2, 2, -1, -1, -2, -9,-0.8923110390071914,0.6774543860912479
1503601834341,-0.392,-0.182,+0.280,+0.857,+0.658,-0.100,-0.737,-1.875,-7.000,+3.438,9, 0, -5, -2, -5, -2, 0, 8,-0.8902688565832092,0.6755616232046723
1503601834356,-0.392,-0.182,+0.279,+0.858,+0.654,-0.100,-0.739,-1.500,-9.312,+4.438,-12, -1, 4, 0, -2, 1, 3, 0,-0.8905342072592564,0.6739536344180093
1503601834381,-0.392,-0.181,+0.278,+0.858,+0.655,-0.099,-0.736,-1.062,-11.188,+4.062,4, 2, -2, -2, 2, -1, -2, -2,-0.8893861397211065,0.6708384360903908
1503601834401,-0.391,-0.180,+0.276,+0.859,+0.643,-0.105,-0.741,-0.875,-13.188,+4.000,5, 2, -2, -1, 0, 0, -5, -3,-0.8862023195562281,0.6658374392837236
1503601834416,-0.391,-0.179,+0.274,+0.860,+0.634,-0.109,-0.746,-1.125,-12.688,+2.875,10, 8, 2, 0, -1, 0, 0, 4,-0.8853348370547344,0.6611277451321244
1503601834439,-0.391,-0.179,+0.272,+0.861,+0.623,-0.110,-0.753,-1.000,-11.750,+2.938,1, -3, -3, -3, -9, -3, 1, -1,-0.885376805473604,0.6574844436919397
1503601834461,-0.391,-0.178,+0.270,+0.862,+0.617,-0.111,-0.769,-1.125,-11.625,+3.312,-7, -6, -2, -1, 5, -1, 1, 14,-0.8845202463632599,0.6527844858661265
1503601834476,-0.390,-0.177,+0.268,+0.863,+0.610,-0.110,-0.766,-1.188,-11.500,+3.312,-15, -14, -5, -2, -1, -1, 0, -2,-0.8813588956735998,0.6478071830571845
1503601834499,-0.390,-0.177,+0.267,+0.863,+0.603,-0.111,-0.762,-1.000,-8.312,+2.875,11, 12, 10, 3, 1, 1, -1, 0,-0.8811325998740508,0.6457753294032954
1503601834522,-0.390,-0.177,+0.266,+0.864,+0.607,-0.113,-0.761,-0.812,-3.812,+2.125,0, -13, -13, -3, 1, -1, 0, -6,-0.881404906739773,0.6441726725640389
1503601834536,-0.390,-0.176,+0.266,+0.864,+0.605,-0.104,-0.767,-0.438,-0.375,+1.438,-1, 1, 0, -2, -1, -1, 5, 28,-0.8805176992238719,0.6431201509196165
1503601834559,-0.389,-0.177,+0.266,+0.864,+0.604,-0.106,-0.766,-0.062,+2.875,+0.000,-1, 3, 7, 1, 2, 0, -1, -4,-0.8790921514802493,0.6438882147288276
1503601834582,-0.389,-0.177,+0.266,+0.864,+0.623,-0.111,-0.762,+0.062,+4.625,-0.625,7, -6, 2, -3, 0, -1, -4, -8,-0.8790921514802493,0.6438882147288276
1503601834596,-0.389,-0.177,+0.267,+0.864,+0.635,-0.116,-0.764,+0.250,+3.562,-0.188,4, -5, -9, 0, -1, 0, 1, -4,-0.8793190092776344,0.6459197675744739
1503601834621,-0.389,-0.178,+0.267,+0.864,+0.639,-0.112,-0.753,+0.250,+1.750,+0.625,13, -2, 0, -2, -1, -1, 1, 5,-0.8802106422978192,0.6469735040756905
1503601834641,-0.389,-0.178,+0.267,+0.864,+0.635,-0.107,-0.758,+0.062,-0.250,+0.750,1, 2, -9, -1, -2, 0, -1, -4,-0.8802106422978192,0.6469735040756905
1503601834655,-0.389,-0.178,+0.267,+0.864,+0.623,-0.109,-0.756,+0.250,-1.250,+0.625,5, -4, -2, 0, -1, -1, -2, -1,-0.8802106422978192,0.6469735040756905
1503601834678,-0.389,-0.178,+0.267,+0.864,+0.617,-0.114,-0.756,-0.062,+0.000,+0.125,-1, 4, 1, -1, 0, -1, -2, -7,-0.8802106422978192,0.6469735040756905
1503601834700,-0.389,-0.178,+0.268,+0.863,+0.625,-0.108,-0.758,+0.000,+2.688,-0.312,-13, -3, 0, -4, -2, 0, -3, -6,-0.8799404732644548,0.6485775542234548
1503601834717,-0.389,-0.178,+0.268,+0.863,+0.642,-0.115,-0.750,+0.250,+1.875,+0.000,7, 9, 4, -1, 2, -1, 0, -4,-0.8799404732644548,0.6485775542234548
1503601834738,-0.389,-0.179,+0.268,+0.863,+0.636,-0.109,-0.761,+0.125,-1.062,+1.188,4, -6, -4, -3, -2, -1, -3, 4,-0.8808368400608019,0.6496342253145693
1503601834760,-0.388,-0.178,+0.268,+0.864,+0.627,-0.114,-0.762,-0.125,-3.250,+1.312,3, -9, -1, 2, 1, 0, -1, -20,-0.8781288181769749,0.6487217046916323
1503601834775,-0.388,-0.179,+0.268,+0.864,+0.613,-0.119,-0.756,+0.000,-1.250,+0.812,-6, 0, -3, -2, -1, 0, 1, 7,-0.8790248748623025,0.6497766741140953
1503601834797,-0.388,-0.179,+0.268,+0.863,+0.621,-0.115,-0.752,-0.375,+1.750,-0.062,-1, 6, -3, 1, 1, -1, 1, 3,-0.8785271680327426,0.6493476337901725
1503601834820,-0.388,-0.179,+0.268,+0.863,+0.636,-0.118,-0.754,-0.250,+4.562,-0.250,14, 3, -2, 0, -1, -3, -2, -2,-0.8785271680327426,0.6493476337901725
1503601834835,-0.388,-0.179,+0.269,+0.863,+0.647,-0.113,-0.755,-0.188,+1.438,+0.438,-16, -4, 0, 1, 2, 3, 1, -5,-0.8787568544843793,0.6513821319757366
1503601834858,-0.388,-0.179,+0.269,+0.863,+0.651,-0.104,-0.749,-0.125,-2.750,+0.875,-7, -3, 2, 0, -1, 0, 1, 6,-0.8787568544843793,0.6513821319757366
1503601834880,-0.388,-0.179,+0.268,+0.864,+0.630,-0.116,-0.755,+0.875,-6.750,+0.125,-12, -17, -6, -2, -2, -1, -1, 0,-0.8790248748623025,0.6497766741140953
1503601834895,-0.388,-0.179,+0.267,+0.864,+0.623,-0.110,-0.754,+0.562,-6.000,-0.438,8, 0, 0, 0, -3, 0, -2, -2,-0.8787953369685415,0.6477429714940753
1503601834926,-0.388,-0.179,+0.266,+0.864,+0.617,-0.116,-0.751,+1.250,-3.062,-0.625,4, 2, -2, -3, -2, -1, -1, 4,-0.8785656718478354,0.6457109144167472
1503601834940,-0.388,-0.179,+0.266,+0.864,+0.621,-0.113,-0.760,+2.000,-1.688,-0.625,-4, 1, 1, -1, -1, -2, -2, -5,-0.8785656718478354,0.6457109144167472
1503601834957,-0.389,-0.180,+0.266,+0.864,+0.627,-0.112,-0.766,+2.375,-0.375,-0.812,-4, 2, 2, 1, 1, 1, 1, 1,-0.8817734492191216,0.6470573170316839
1503601834977,-0.389,-0.180,+0.265,+0.864,+0.612,-0.120,-0.772,+2.875,-0.938,-0.688,-10, -3, 0, 2, -2, -1, -3, -13,-0.8815433359556278,0.6450273861428901
1503601835000,-0.389,-0.180,+0.265,+0.864,+0.616,-0.128,-0.766,+2.000,-1.188,-0.812,-4, 1, 0, -2, -1, -1, -2, -3,-0.8815433359556278,0.6450273861428901
1503601835017,-0.389,-0.180,+0.265,+0.864,+0.614,-0.125,-0.762,+0.812,+0.000,+0.625,2, -15, -5, -2, -2, -1, 0, 6,-0.8815433359556278,0.6450273861428901
1503601835037,-0.389,-0.180,+0.265,+0.864,+0.622,-0.116,-0.764,+0.875,+0.688,+1.062,5, 5, 1, -1, 1, -3, 1, 0,-0.8815433359556278,0.6450273861428901
1503601835060,-0.389,-0.181,+0.265,+0.864,+0.623,-0.113,-0.762,+1.125,+1.938,+0.938,-1, 1, -1, 0, -3, -1, -3, -3,-0.8824424337085163,0.6460890266556599
1503601835077,-0.389,-0.181,+0.265,+0.864,+0.633,-0.112,-0.759,+1.688,+1.312,+0.688,3, 4, 0, 0, 0, -1, -1, -4,-0.8824424337085163,0.6460890266556599
1503601835097,-0.388,-0.182,+0.265,+0.864,+0.638,-0.111,-0.750,+2.688,-0.250,+0.812,-8, 0, 0, -1, 1, -2, -2, -2,-0.8810337566960642,0.6468612106113065
1503601835120,-0.389,-0.182,+0.264,+0.864,+0.633,-0.113,-0.759,+3.438,-2.375,+0.562,-4, -3, -3, -2, 0, 0, 7, 25,-0.8831124137910649,0.6451249895386811
1503601835135,-0.389,-0.182,+0.264,+0.864,+0.627,-0.105,-0.756,+4.812,-3.125,-0.188,4, -3, -2, -2, 2, 0, -2, -16,-0.8831124137910649,0.6451249895386811
1503601835157,-0.389,-0.183,+0.263,+0.863,+0.627,-0.115,-0.758,+6.250,-1.750,-0.500,3, 1, -2, -1, -2, -2, 0, -3,-0.8832866552339381,0.6437418654247391
1503601835180,-0.390,-0.184,+0.262,+0.863,+0.617,-0.128,-0.763,+7.625,-2.312,-0.438,2, 1, -2, 1, -1, 0, 0, 5,-0.8862735096658496,0.6430839720666842
1503601835195,-0.390,-0.185,+0.262,+0.863,+0.613,-0.139,-0.766,+6.562,-0.688,+0.312,-1, 4, 2, 0, -3, -2, -1, -4,-0.8871826968794749,0.6441578981541317
1503601835219,-0.390,-0.186,+0.261,+0.863,+0.596,-0.127,-0.767,+5.250,+2.375,+1.688,-1, -1, 0, -2, -7, -3, -3, -2,-0.88785875399945,0.6432122848385139
1503601835240,-0.389,-0.188,+0.262,+0.863,+0.612,-0.114,-0.765,+3.688,+10.125,+4.562,-2, -1, -1, -1, 1, 2, -2, 4,-0.8876157826144127,0.6470937021367132
1503601835262,-0.387,-0.189,+0.265,+0.863,+0.633,-0.086,-0.748,+1.250,+19.688,+8.750,-4, -1, 1, -1, -1, 0, -1, -6,-0.8846393368336273,0.6536509377342347
1503601835277,-0.385,-0.191,+0.269,+0.862,+0.650,-0.076,-0.750,-0.188,+29.875,+10.312,7, 3, 0, -3, -3, 0, -1, 3,-0.8823740727454603,0.6629184605783381
1503601835300,-0.382,-0.194,+0.275,+0.861,+0.665,-0.086,-0.747,-0.438,+36.500,+13.125,-6, 2, 6, 2, 2, 0, -1, -5,-0.8793142149876881,0.6770885825705533
1503601835323,-0.379,-0.197,+0.279,+0.860,+0.661,-0.111,-0.773,+8.625,+37.812,+12.625,7, 1, -2, 0, -3, -1, 1, 2,-0.8758553741356048,0.6872168236594864
1503601835337,-0.377,-0.202,+0.282,+0.858,+0.673,-0.120,-0.785,+18.125,+32.562,+11.188,-1, -1, 0, 2, -1, -1, 0, 1,-0.8759928992182785,0.6974007441661029
1503601835361,-0.376,-0.208,+0.284,+0.857,+0.696,-0.120,-0.739,+23.250,+25.562,+11.562,-4, -4, -4, -3, 0, 1, -5, -11,-0.8797737895450594,0.7074627825682097
1503601835383,-0.375,-0.213,+0.286,+0.856,+0.713,-0.126,-0.717,+26.625,+21.188,+13.188,2, 1, 1, -2, -1, -2, -1, 3,-0.8826755245133808,0.7164863714972673
1503601835397,-0.374,-0.219,+0.286,+0.855,+0.722,-0.136,-0.729,+32.062,+16.875,+14.312,3, 5, 0, -1, -1, -1, 3, 10,-0.8861847030358306,0.7226010919193946
1503601835420,-0.373,-0.226,+0.284,+0.854,+0.714,-0.160,-0.740,+39.250,+8.625,+13.062,-3, -4, -3, -1, -1, 1, -2, -2,-0.8903237349916889,0.7258600952195277
1503601835442,-0.374,-0.233,+0.281,+0.852,+0.709,-0.193,-0.731,+46.125,+1.938,+10.250,-1, 0, 2, 0, -2, -1, 1, 2,-0.8983801665991976,0.7274855413169063
1503601835458,-0.375,-0.241,+0.277,+0.851,+0.712,-0.236,-0.726,+50.500,-3.438,+10.500,-5, -7, -4, 0, 4, 0, 2, 0,-0.9078771287040158,0.7289149075290378
1503601835480,-0.375,-0.249,+0.273,+0.850,+0.696,-0.257,-0.711,+51.562,-1.750,+13.188,-4, -3, -4, -2, -4, -2, -3, -2,-0.9152766743534442,0.7302280830550333
1503601835503,-0.376,-0.258,+0.269,+0.848,+0.681,-0.267,-0.696,+53.562,+2.688,+13.125,1, -1, -3, -2, 1, -2, -2, -5,-0.9258585201863978,0.7330483952899837
1503601835518,-0.376,-0.267,+0.265,+0.847,+0.683,-0.278,-0.708,+57.312,+3.625,+12.938,-2, 0, -3, 2, 2, 1, 0, 0,-0.9348774041020348,0.736210042682853
1503601835540,-0.376,-0.277,+0.261,+0.845,+0.686,-0.291,-0.702,+60.375,+2.750,+14.625,-4, -5, -3, -3, -8, -4, -8, -11,-0.9449473163822928,0.740634184783848
1503601835563,-0.377,-0.287,+0.257,+0.843,+0.680,-0.297,-0.692,+63.000,+2.375,+15.375,0, 5, 7, -6, 0, 1, 1, 2,-0.9576697020178987,0.7458995934113631
1503601835578,-0.378,-0.297,+0.252,+0.840,+0.682,-0.316,-0.679,+67.312,+1.188,+13.812,0, 4, 1, -3, 0, -1, 0, 5,-0.9699698166396705,0.7492048041024929
1503601835600,-0.379,-0.307,+0.246,+0.838,+0.687,-0.338,-0.669,+70.562,-2.500,+13.562,-5, -5, -2, 0, 2, 0, 0, -1,-0.9827455896566942,0.7513649196975762
1503601835623,-0.380,-0.318,+0.240,+0.835,+0.684,-0.359,-0.662,+72.688,-5.688,+15.500,-2, -1, 1, 3, 0, 0, -2, -3,-0.9968842990431226,0.7551650896786664
1503601835637,-0.381,-0.328,+0.233,+0.832,+0.673,-0.384,-0.653,+74.000,-8.062,+16.750,1, -3, 1, 5, -1, 0, -1, -2,-1.0096967902491367,0.7560239059027815
1503601835660,-0.382,-0.339,+0.226,+0.829,+0.667,-0.403,-0.660,+76.188,-7.688,+17.000,-3, -3, -3, 2, 0, -1, -1, 1,-1.024453108822821,0.7590527688593637
1503601835682,-0.383,-0.350,+0.218,+0.826,+0.668,-0.412,-0.668,+80.438,-11.312,+16.938,-4, -4, -4, -3, 3, 0, 1, -1,-1.0393831699090772,0.7607825064876788
1503601842103,-0.314,-0.201,+0.337,+0.865,+0.729,-0.162,-0.654,-3.562,+0.062,-0.312,1, -2, 2, 0, 0, -1, 0, 1,-0.7544863309910412,0.7976561838955625
1503601842125,-0.314,-0.201,+0.338,+0.865,+0.735,-0.149,-0.646,-4.875,+3.625,+1.500,4, 3, 1, -1, -2, -1, -3, -4,-0.7547818401031732,0.7998498346661074
1503601842141,-0.313,-0.200,+0.338,+0.865,+0.750,-0.141,-0.648,-4.625,+1.875,+3.000,-3, -5, -1, -3, 0, 2, -2, 3,-0.7515920705050391,0.7985466251578047
1503601842163,-0.312,-0.200,+0.338,+0.865,+0.756,-0.151,-0.646,-3.562,-1.438,+2.562,-2, 2, 1, -2, -2, -2, 0, 2,-0.7494549219387234,0.7982649271736624
1503601842185,-0.312,-0.199,+0.338,+0.865,+0.739,-0.160,-0.658,-3.688,-4.938,+1.625,-5, -1, -6, -4, -1, 0, 1, 2,-0.7484068887526495,0.797248659065064
1503601842201,-0.311,-0.199,+0.337,+0.866,+0.727,-0.152,-0.652,-4.000,-6.750,+2.188,13, 4, 4, 4, 1, -3, -2, -3,-0.746437334137199,0.7952485216078429
1503601842223,-0.310,-0.198,+0.336,+0.867,+0.725,-0.145,-0.652,-4.062,-6.188,+3.875,-13, 3, 3, -2, -1, 1, 1, -11,-0.7434253260593723,0.7922379863920533
1503601842245,-0.310,-0.197,+0.335,+0.868,+0.723,-0.136,-0.656,-4.188,-6.000,+4.438,4, -5, -3, 3, 1, -2, 0, 6,-0.7425545631346188,0.7895133430167591
1503601842261,-0.309,-0.197,+0.334,+0.868,+0.717,-0.135,-0.659,-3.375,-5.812,+3.250,2, -1, -6, -2, -1, -1, -2, -5,-0.740125283895907,0.7870400339417407
1503601842283,-0.309,-0.196,+0.334,+0.869,+0.709,-0.138,-0.660,-2.500,-4.000,+3.000,10, 3, -1, -1, -1, 0, 1, 1,-0.7395532190254772,0.7865139700110504
1503601842305,-0.308,-0.196,+0.333,+0.869,+0.714,-0.135,-0.665,-1.875,-3.750,+2.312,7, -3, 3, 0, -1, -1, -2, 8,-0.7371251353068017,0.7840418738972985
1503601842321,-0.308,-0.195,+0.333,+0.870,+0.717,-0.133,-0.670,-1.875,-3.125,+2.000,-4, -5, -4, 0, 0, 0, 1, 3,-0.7365574545734268,0.7835204617677772
1503601842344,-0.308,-0.195,+0.332,+0.870,+0.721,-0.138,-0.653,-1.438,-2.375,+2.062,-5, -3, 0, 6, -1, 0, 0, -3,-0.7362658885650893,0.7813291129498637
1503601842365,-0.307,-0.195,+0.332,+0.870,+0.722,-0.146,-0.657,-1.125,-1.750,+2.000,-9, -8, -8, -7, -4, 0, -2, -1,-0.734130580496407,0.7810495950363022
1503601842381,-0.307,-0.195,+0.332,+0.870,+0.723,-0.155,-0.660,-1.188,-1.625,+2.312,-18, -4, -4, -2, 1, -1, 0, -6,-0.734130580496407,0.7810495950363022
1503601842403,-0.306,-0.195,+0.331,+0.871,+0.726,-0.153,-0.676,-1.500,-2.500,+2.125,7, -5, -2, -2, 0, -2, 2, 9,-0.7321635963847131,0.7790545946415217
1503601842425,-0.306,-0.195,+0.331,+0.871,+0.727,-0.146,-0.667,-1.438,-3.688,+2.562,-12, -4, -1, -1, -2, -2, -1, 3,-0.7321635963847131,0.7790545946415217
1503601842441,-0.306,-0.195,+0.330,+0.872,+0.728,-0.154,-0.672,-0.938,-5.125,+2.875,2, -2, 1, -1, -2, -1, -3, -6,-0.7323302599240733,0.7773398657246827
1503601842463,-0.305,-0.195,+0.329,+0.872,+0.730,-0.163,-0.662,-0.750,-7.000,+2.500,0, -1, -2, 1, 0, -1, 1, 1,-0.7299024310867762,0.7748700113567606
1503601842484,-0.305,-0.195,+0.328,+0.873,+0.719,-0.158,-0.661,-1.188,-5.625,+2.500,-4, -4, 0, -2, -2, -1, -6, -8,-0.7300679899816909,0.7731567332309875
1503601842503,-0.304,-0.194,+0.328,+0.873,+0.716,-0.151,-0.674,-1.938,-4.188,+2.625,-2, 3, -1, 1, -1, -1, -4, -9,-0.7269160869939055,0.7718866303083941
1503601842523,-0.304,-0.194,+0.327,+0.873,+0.716,-0.155,-0.670,-1.812,-2.250,+2.562,7, 7, 2, 2, 0, 0, 0, 3,-0.7266232137169356,0.7696996637260692
1503601842546,-0.303,-0.194,+0.327,+0.874,+0.718,-0.154,-0.667,-1.875,-2.188,+2.875,11, 4, 1, 2, -1, -1, 0, 1,-0.7249480170345314,0.7698925955784333
1503601842561,-0.303,-0.194,+0.327,+0.874,+0.720,-0.151,-0.679,-1.938,-2.375,+2.688,-18, -1, 5, -5, -1, 1, 1, -7,-0.7249480170345314,0.7698925955784333
1503601842583,-0.302,-0.194,+0.326,+0.875,+0.717,-0.155,-0.675,-2.062,-5.000,+2.375,1, -2, -2, 0, -1, 0, 1, -1,-0.7229791751822047,0.7678980998985084
1503601842605,-0.302,-0.193,+0.325,+0.875,+0.712,-0.147,-0.671,-2.375,-6.438,+2.250,1, 3, -1, -1, 2, 1, 0, 4,-0.7216755399445948,0.7647305311586365
1503601842621,-0.302,-0.193,+0.325,+0.875,+0.706,-0.144,-0.669,-2.125,-4.312,+2.125,10, 7, 8, 1, -2, -1, 0, 15,-0.7216755399445948,0.7647305311586365
1503601842643,-0.301,-0.192,+0.324,+0.876,+0.703,-0.146,-0.673,-1.812,-3.188,+1.500,5, 0, -5, -2, 0, -2, -3, -7,-0.7187020885526357,0.7617607155836237
1503601842665,-0.301,-0.192,+0.324,+0.876,+0.708,-0.154,-0.678,-1.000,-2.000,+1.750,3, -4, -7, -2, -2, -2, 4, 5,-0.7187020885526357,0.7617607155836237
1503601842682,-0.301,-0.192,+0.323,+0.876,+0.711,-0.154,-0.681,-1.188,-3.438,+2.500,-8, -5, -1, 0, -2, -2, -3, 4,-0.7184100475691366,0.7595771898312349
1503601842705,-0.300,-0.192,+0.323,+0.877,+0.711,-0.148,-0.669,-2.250,-5.250,+3.688,4, -1, -1, 0, -2, -1, 2, 9,-0.7167345437367433,0.7597691272468107
1503601842725,-0.299,-0.192,+0.322,+0.877,+0.706,-0.154,-0.677,-1.938,-5.688,+3.438,-31, -11, -2, 2, 2, 2, -4, -11,-0.714309669960687,0.7573041803853608
1503601842741,-0.299,-0.191,+0.321,+0.878,+0.702,-0.152,-0.683,-1.250,-4.562,+2.062,6, -1, -7, -3, -1, -1, 0, 2,-0.7134758293593044,0.754624023768899
1503601842763,-0.299,-0.191,+0.321,+0.878,+0.699,-0.160,-0.688,-1.938,-2.812,+2.000,-3, -7, -1, -1, 0, -1, -1, 4,-0.7134758293593044,0.754624023768899
1503601842785,-0.298,-0.191,+0.320,+0.879,+0.703,-0.163,-0.687,-1.562,-2.562,+2.000,0, -3, -1, -2, -1, -1, -3, -9,-0.711507850129141,0.7526336268544904
1503601842801,-0.298,-0.191,+0.320,+0.879,+0.705,-0.155,-0.687,-1.312,-4.375,+1.812,-5, -3, -1, 2, 0, -2, -1, -2,-0.711507850129141,0.7526336268544904
1503601842823,-0.298,-0.190,+0.319,+0.879,+0.695,-0.162,-0.694,-1.312,-3.812,+2.562,4, -7, -3, -1, 1, -1, -1, 2,-0.7102241715715676,0.749487639386341
1503601842846,-0.297,-0.190,+0.319,+0.880,+0.681,-0.165,-0.699,-1.000,-0.812,+1.250,11, 9, 8, 0, -1, -1, 0, -4,-0.7085482303110064,0.7496784948224388
1503601842861,-0.297,-0.190,+0.319,+0.880,+0.684,-0.162,-0.692,-0.750,+0.812,-0.375,-35, -10, -6, -2, -2, -3, -6, -14,-0.7085482303110064,0.7496784948224388
1503601842883,-0.297,-0.191,+0.319,+0.879,+0.698,-0.164,-0.682,-0.500,+3.875,-0.625,21, 6, 3, 2, -1, 2, 5, 11,-0.7090833776525614,0.7501709433647181
1503601842908,-0.297,-0.191,+0.320,+0.879,+0.715,-0.165,-0.688,-1.500,+4.688,+0.062,4, -3, -6, -3, -1, -1, -1, -11,-0.7093764471959476,0.7523517795834562
1503601842921,-0.296,-0.191,+0.321,+0.879,+0.718,-0.164,-0.680,-1.438,+3.688,+0.250,2, 3, -1, 0, -3, -1, 0, 13,-0.7075401576555003,0.7542528586494326
1503601842944,-0.296,-0.191,+0.321,+0.879,+0.719,-0.151,-0.685,-1.000,-0.375,+0.500,-6, 6, -1, -6, -1, -1, -3, -5,-0.7075401576555003,0.7542528586494326
1503601842965,-0.296,-0.191,+0.320,+0.879,+0.711,-0.148,-0.674,-0.125,-5.750,+0.562,-2, -3, -2, 0, -1, -2, -1, -1,-0.7072466283547328,0.7520697835263733
1503601842981,-0.296,-0.191,+0.320,+0.880,+0.700,-0.160,-0.674,+0.188,-5.125,+0.250,-22, -11, -5, -2, -1, -1, -2, -8,-0.7077014591792598,0.7525421534696832
1503601843003,-0.296,-0.191,+0.319,+0.880,+0.688,-0.161,-0.686,-0.562,-1.812,+0.750,9, -6, -1, -1, 0, -1, -1, -1,-0.7074080108643779,0.7503602778550111
1503601843025,-0.296,-0.191,+0.319,+0.880,+0.699,-0.158,-0.681,-1.188,+1.750,+0.500,-32, -5, -1, 0, -2, -2, 0, -6,-0.7074080108643779,0.7503602778550111
1503601843041,-0.295,-0.191,+0.320,+0.880,+0.712,-0.153,-0.685,-1.812,+1.562,+1.000,13, 0, 0, -2, 0, 0, 0, 3,-0.7055726241823916,0.752260257909606
1503601843063,-0.295,-0.190,+0.320,+0.880,+0.709,-0.151,-0.682,-1.438,-1.125,+1.250,14, 2, -2, -1, -2, -1, 0, 5,-0.7045807073417445,0.751298535069707
1503601843086,-0.295,-0.190,+0.319,+0.880,+0.697,-0.154,-0.687,+0.062,-3.312,+0.500,-13, -2, -1, -2, 0, 1, 2, -1,-0.7042879949457624,0.749116090623414
1503601843101,-0.295,-0.190,+0.319,+0.880,+0.695,-0.158,-0.689,+0.188,-4.125,+0.188,5, 8, 7, 1, -1, 0, 0, 3,-0.7042879949457624,0.749116090623414
1503601843123,-0.295,-0.190,+0.318,+0.881,+0.694,-0.164,-0.681,-0.125,-2.625,+0.750,9, -9, -4, 0, -1, -2, -2, -1,-0.7044497750624014,0.7474069981468833
1503601843145,-0.295,-0.190,+0.318,+0.881,+0.692,-0.167,-0.682,-0.750,+0.250,+1.000,11, -2, -3, 0, -1, 0, 0, 4,-0.7044497750624014,0.7474069981468833
1503601843161,-0.294,-0.190,+0.319,+0.881,+0.694,-0.152,-0.686,-0.938,+1.938,+1.062,12, 3, 0, 0, 0, 1, -2, -2,-0.7026140533198573,0.7493070780450516
1503601843183,-0.294,-0.190,+0.319,+0.881,+0.698,-0.154,-0.688,+0.250,+1.938,-0.062,0, 2, 0, 2, -1, -2, -1, -4,-0.7026140533198573,0.7493070780450516
1503601843207,-0.294,-0.191,+0.319,+0.881,+0.700,-0.156,-0.683,+0.688,+0.438,-0.688,2, -5, -7, -5, -1, 0, -2, 1,-0.703604204299391,0.7502670981368333
1503601843221,-0.294,-0.191,+0.319,+0.881,+0.711,-0.165,-0.681,+0.062,-0.562,+0.562,6, 4, 3, 1, 0, 0, 0, 0,-0.703604204299391,0.7502670981368333
1503601843244,-0.294,-0.191,+0.319,+0.881,+0.699,-0.167,-0.688,-0.562,-0.812,+1.312,-8, 2, 6, 2, -1, -1, 1, 0,-0.703604204299391,0.7502670981368333
1503601843265,-0.293,-0.191,+0.319,+0.881,+0.699,-0.167,-0.684,-1.062,-0.312,+0.938,1, 5, 4, -1, 0, -1, -3, -1,-0.7014773029241772,0.7499845019469079
1503601843287,-0.293,-0.191,+0.319,+0.881,+0.699,-0.160,-0.677,-0.812,+0.000,+0.875,-7, -9, -6, -4, 2, -2, -3, -1,-0.7014773029241772,0.7499845019469079
1503601843303,-0.293,-0.191,+0.319,+0.881,+0.701,-0.155,-0.690,-0.750,-0.250,+0.875,-7, -1, -1, 0, -1, -1, 2, 1,-0.7014773029241772,0.7499845019469079
1503601843325,-0.293,-0.191,+0.318,+0.881,+0.702,-0.154,-0.696,-0.062,-1.875,+0.250,0, -8, -3, -1, -2, -2, -1, 0,-0.7011821205613702,0.7478018598659362
1503601843347,-0.293,-0.190,+0.318,+0.881,+0.699,-0.159,-0.691,-0.250,-2.875,+0.375,-3, -2, -2, 1, 0, -1, -1, -1,-0.7001934442220107,0.7468432079705895
1503601843363,-0.293,-0.190,+0.318,+0.882,+0.699,-0.159,-0.678,-0.562,-2.375,+0.938,1, 4, 4, 2, 1, 1, -1, -1,-0.700646501896305,0.7473150515228897
1503601843392,-0.293,-0.190,+0.318,+0.882,+0.699,-0.168,-0.685,-0.688,-1.625,+0.500,6, 0, -3, -2, -7, -2, 0, -5,-0.700646501896305,0.7473150515228897
1503601843409,-0.292,-0.190,+0.317,+0.882,+0.700,-0.168,-0.688,-0.375,-0.438,-0.250,-11, -4, 2, 2, -2, -1, 0, 1,-0.6982257251670551,0.7448511665902933
1503601843423,-0.292,-0.191,+0.317,+0.882,+0.704,-0.160,-0.685,+0.188,-1.062,-0.312,-3, 0, -4, -3, -1, 0, 0, -1,-0.6992126160571779,0.7458080952755172
1503601843446,-0.293,-0.191,+0.317,+0.882,+0.702,-0.163,-0.686,+0.750,-2.188,-0.688,-6, 2, 1, 1, 5, 0, 0, -1,-0.7013397755278149,0.7460918921619782
1503601843467,-0.293,-0.191,+0.317,+0.882,+0.697,-0.157,-0.685,+1.062,-2.562,-0.750,-4, -3, 0, -3, -4, 0, -2, -5,-0.7013397755278149,0.7460918921619782
1503601843483,-0.293,-0.191,+0.316,+0.882,+0.692,-0.153,-0.692,+1.000,-2.875,-0.438,-9, -8, -6, -1, 0, -1, -1, -3,-0.7010445245782426,0.7439119953023434
1503601843505,-0.293,-0.191,+0.316,+0.882,+0.694,-0.160,-0.690,+1.750,-2.000,-0.750,-2, -7, -4, 0, -2, -2, -1, 0,-0.7010445245782426,0.7439119953023434
1503601843527,-0.293,-0.191,+0.316,+0.882,+0.693,-0.165,-0.689,+1.438,-2.625,-0.688,0, 0, 1, 6, 5, 1, 0, 0,-0.7010445245782426,0.7439119953023434
1503601843547,-0.293,-0.191,+0.315,+0.882,+0.690,-0.162,-0.689,+1.188,-1.812,+0.062,-10, -1, 2, -1, -3, -2, -3, 1,-0.7007491263938909,0.7417336727850455
1503601843565,-0.293,-0.191,+0.315,+0.882,+0.689,-0.169,-0.686,+1.500,-1.438,+0.688,12, 4, 2, 0, -1, 1, 0, 4,-0.7007491263938909,0.7417336727850455
1503601843587,-0.293,-0.192,+0.315,+0.882,+0.700,-0.177,-0.693,+1.438,-0.375,+1.688,7, 10, 3, -1, -3, 0, -1, 1,-0.7017364088270999,0.7426947300888479
1503601843603,-0.293,-0.192,+0.314,+0.882,+0.712,-0.168,-0.703,+2.062,-1.375,+1.812,5, 4, 2, -1, -1, -1, 0, 2,-0.701439509359566,0.7405178666765652
1503601843625,-0.293,-0.193,+0.314,+0.882,+0.708,-0.161,-0.701,+2.188,-2.938,+1.812,-4, -6, -5, -3, 0, 0, 0, -4,-0.7024284137489248,0.7414818726904608
1503601843647,-0.293,-0.193,+0.313,+0.883,+0.703,-0.154,-0.703,+3.188,-2.875,+2.250,1, -2, 0, 2, 1, 1, 1, 0,-0.7025829667306626,0.7397747731179057
1503601843663,-0.293,-0.194,+0.313,+0.883,+0.702,-0.166,-0.698,+5.250,-1.312,+2.125,-12, -2, -1, 2, 1, 0, -1, -3,-0.703573210638347,0.7407413972547572
1503601843686,-0.292,-0.195,+0.313,+0.882,+0.706,-0.174,-0.703,+6.625,+1.125,+1.938,10, -2, -3, -4, -6, -3, 0, -3,-0.7019838886759183,0.7409518925859057
1503601843707,-0.292,-0.196,+0.313,+0.882,+0.707,-0.165,-0.702,+7.938,+2.312,+2.750,-4, -7, -7, -1, 2, -1, 1, 0,-0.7029802671273063,0.7419237302662073
1503601843723,-0.292,-0.198,+0.312,+0.882,+0.702,-0.160,-0.707,+10.125,+0.938,+3.625,-4, 12, 2, 0, -3, -1, 0, -2,-0.704676148283275,0.7417015182847784
1503601843751,-0.292,-0.200,+0.312,+0.882,+0.703,-0.161,-0.709,+12.312,+0.688,+4.625,8, -1, -1, 2, 15, 1, -1, 0,-0.7066873890730214,0.743666689207728
1503601843767,-0.292,-0.202,+0.311,+0.882,+0.714,-0.179,-0.714,+14.188,+0.000,+5.938,5, -1, -2, -5, -7, -2, -1, 0,-0.7083993858918834,0.7434701254265318
1503601843783,-0.292,-0.205,+0.309,+0.881,+0.706,-0.188,-0.713,+16.312,-1.000,+7.375,1, -2, 1, 1, -6, -3, -2, -2,-0.7103720832601383,0.7416516254436502
1503601843805,-0.292,-0.208,+0.308,+0.881,+0.713,-0.186,-0.704,+19.125,-2.625,+8.000,-5, -7, -5, -2, -3, 0, 1, 2,-0.7131269263379112,0.7424995863613192
1503601843827,-0.292,-0.211,+0.306,+0.881,+0.708,-0.183,-0.715,+22.188,-3.312,+8.125,2, 5, 5, 5, 13, 3, 0, -2,-0.7155773165591355,0.7412087856246787
1503601843847,-0.292,-0.215,+0.304,+0.881,+0.704,-0.198,-0.704,+25.062,-2.125,+9.000,-10, -4, -2, -4, -7, -2, 0, -2,-0.7190833430192497,0.7409813776299147
1503601843865,-0.292,-0.220,+0.302,+0.880,+0.695,-0.198,-0.710,+27.625,-1.688,+9.750,-7, -2, -1, 1, -9, -2, -3, -4,-0.7232284798290848,0.7413996708508334
1503601843887,-0.292,-0.225,+0.300,+0.880,+0.696,-0.209,-0.704,+31.812,-2.125,+10.062,2, -2, -3, -4, -8, -2, 1, -1,-0.7278772108855622,0.7423597780591014
1503601843903,-0.293,-0.230,+0.298,+0.879,+0.689,-0.225,-0.704,+35.375,-2.375,+10.250,-21, -4, 1, 1, 2, -1, -1, -2,-0.7342830356481258,0.7433014357908465
1503601843925,-0.293,-0.236,+0.294,+0.878,+0.691,-0.236,-0.703,+38.500,-4.625,+10.500,6, 14, 2, 1, -1, 0, 1, 3,-0.738989639658906,0.7407834196929299
1503601843947,-0.294,-0.242,+0.291,+0.878,+0.686,-0.253,-0.695,+42.000,-5.438,+11.188,8, -5, -5, -3, 2, 0, -3, 2,-0.7467284800567191,0.7413690481039511
1503601848906,-0.299,-0.267,+0.293,+0.868,+0.700,-0.288,-0.636,-5.312,-3.375,+4.062,-18, 0, 8, 1, -2, 0, -1, -3,-0.7831133325033115,0.7725410348197953
1503601848935,-0.298,-0.266,+0.293,+0.869,+0.695,-0.281,-0.637,-6.750,-4.562,+4.688,-28, -9, -9, -3, -9, -2, -2, -4,-0.7801718844689465,0.7713576261477267
1503601848952,-0.297,-0.265,+0.293,+0.870,+0.685,-0.288,-0.641,-8.125,-3.875,+4.750,-7, -5, -2, 1, -5, 1, 1, 1,-0.7772357239022423,0.7701810708284144
1503601848966,-0.296,-0.263,+0.292,+0.870,+0.682,-0.282,-0.648,-9.000,-4.312,+4.812,-18, -4, 4, 1, 0, 2, 4, 2,-0.772264464246774,0.7652091597762369
1503601848988,-0.295,-0.262,+0.292,+0.871,+0.692,-0.291,-0.654,-8.250,-3.938,+4.812,2, 6, 1, -3, -1, 0, -3, 1,-0.7693441855424318,0.7640502175494964
1503601849011,-0.294,-0.261,+0.292,+0.872,+0.702,-0.305,-0.663,-7.312,-3.875,+4.688,6, 4, 6, -2, -1, -1, -1, 2,-0.766429106075279,0.7628981150425942
1503601849033,-0.293,-0.261,+0.291,+0.873,+0.698,-0.319,-0.666,-5.500,-3.062,+4.688,1, -5, -4, 0, -9, -3, 1, -2,-0.7643174381863037,0.7607880299222195
1503601849049,-0.292,-0.260,+0.291,+0.873,+0.699,-0.317,-0.662,-3.375,-2.625,+4.188,3, -1, -5, -1, 3, 2, -2, 1,-0.7609678665819827,0.7592030770170906
1503601849070,-0.291,-0.260,+0.290,+0.873,+0.694,-0.314,-0.651,-2.562,-2.000,+3.438,-4, -4, -3, 0, 4, 1, -2, 0,-0.7584156031652158,0.7566523732466353
1503601849086,-0.291,-0.260,+0.290,+0.874,+0.690,-0.311,-0.654,-2.188,-1.875,+2.000,-4, -13, -10, -5, 0, -3, -2, 12,-0.758856430550347,0.7570924191165258
1503601849108,-0.291,-0.260,+0.290,+0.874,+0.676,-0.312,-0.651,-1.938,-2.312,-0.062,-8, 1, 2, -1, 1, -1, 0, -1,-0.758856430550347,0.7570924191165258
1503601849130,-0.291,-0.260,+0.290,+0.874,+0.671,-0.310,-0.657,-2.375,-0.500,-1.000,8, 5, -2, 1, 4, -2, -3, -15,-0.758856430550347,0.7570924191165258
1503601849146,-0.290,-0.260,+0.290,+0.874,+0.678,-0.306,-0.655,-3.062,+2.375,-0.812,3, 0, -1, -2, -2, 2, 2, 1,-0.7566979121979751,0.7566979121979751
1503601849168,-0.290,-0.259,+0.291,+0.874,+0.697,-0.296,-0.650,-3.438,+2.562,+1.438,4, 5, 2, 2, -2, -1, 0, -3,-0.7559076246264275,0.7576724985197367
1503601849192,-0.289,-0.259,+0.291,+0.874,+0.710,-0.299,-0.646,-3.938,+1.438,+3.500,-2, 4, 0, 0, -5, -2, 3, 4,-0.7537516790177603,0.7572798704094232
1503601849206,-0.288,-0.259,+0.291,+0.875,+0.699,-0.301,-0.647,-4.375,-1.625,+4.812,3, -1, 5, 0, -2, 0, 1, 2,-0.7520360721527072,0.7573283962336631
1503601849228,-0.287,-0.258,+0.290,+0.875,+0.691,-0.297,-0.656,-4.500,-6.750,+6.188,4, 4, -2, -3, -5, -4, -5, -4,-0.7483080098945234,0.7535982501650316
1503601849250,-0.286,-0.258,+0.289,+0.876,+0.679,-0.289,-0.656,-4.688,-8.688,+5.812,-5, -2, -1, -4, -6, -3, -4, -7,-0.7461977591637127,0.7514857456801245
1503601849266,-0.286,-0.257,+0.288,+0.877,+0.680,-0.298,-0.661,-5.250,-8.438,+5.312,-1, -2, 2, 0, 4, 4, 1, 7,-0.7450695500077383,0.748596661691915
1503601849288,-0.285,-0.256,+0.287,+0.878,+0.678,-0.300,-0.665,-5.875,-5.562,+5.812,0, -3, -3, -2, 0, -1, 5, 17,-0.7417927727067525,0.7453201438426936
1503601849310,-0.284,-0.255,+0.287,+0.879,+0.673,-0.287,-0.663,-5.812,-3.375,+5.875,-4, -1, 2, 6, 9, 2, 2, -3,-0.7389154398625343,0.7442092451179606
1503601849326,-0.283,-0.254,+0.286,+0.879,+0.674,-0.278,-0.667,-5.562,-3.562,+5.875,-5, -2, -3, -2, -5, -4, -11, -2,-0.7352125002111057,0.7405042461053062
1503601849351,-0.282,-0.254,+0.286,+0.880,+0.675,-0.281,-0.663,-5.000,-5.062,+6.250,4, 6, 8, 26, 34, 5, 4, 2,-0.7334976070211374,0.7405535378266607
1503601849370,-0.281,-0.253,+0.285,+0.881,+0.671,-0.285,-0.663,-4.250,-6.125,+5.375,-2, -2, -5, -10, -5, 0, 0, -1,-0.730238832850697,0.7372954233122658
1503601849386,-0.280,-0.252,+0.284,+0.882,+0.665,-0.291,-0.665,-4.500,-7.438,+5.562,-12, -5, 0, 0, -7, -1, 1, -4,-0.7269861233310008,0.7340434210133183
1503601849408,-0.279,-0.251,+0.283,+0.883,+0.655,-0.291,-0.676,-6.062,-7.688,+6.562,-6, -5, 0, 22, 29, 3, 2, 4,-0.7237394850947116,0.730797537892402
1503601849430,-0.278,-0.250,+0.282,+0.884,+0.649,-0.282,-0.673,-7.875,-6.938,+6.625,-2, 2, 1, -11, -11, 0, -1, -9,-0.7204989242523717,0.7275577803846459
1503601849446,-0.277,-0.249,+0.281,+0.885,+0.644,-0.279,-0.666,-7.500,-6.375,+6.000,3, 1, 0, -4, -15, -4, -1, 4,-0.7172644463964827,0.7243241544018334
1503601849468,-0.276,-0.248,+0.280,+0.886,+0.646,-0.288,-0.672,-6.062,-7.312,+6.062,2, -3, -7, -7, -5, -5, -1, 2,-0.7140360566056234,0.7210966653365478
1503601849491,-0.275,-0.247,+0.278,+0.887,+0.646,-0.285,-0.684,-5.812,-9.250,+7.062,-1, 1, -1, -5, 4, 0, -2, 0,-0.7104232391745485,0.7157171000215129
1503601849505,-0.274,-0.245,+0.277,+0.888,+0.639,-0.280,-0.685,-6.500,-11.500,+7.250,6, 1, 0, 1, -6, -1, 0, -1,-0.7061032952730035,0.7114005257691148
1503601849528,-0.273,-0.244,+0.275,+0.889,+0.629,-0.289,-0.690,-7.500,-11.125,+7.125,7, 14, 9, 12, 9, 1, 1, -8,-0.7025111899030572,0.7060416672315858
1503601849553,-0.272,-0.243,+0.273,+0.890,+0.627,-0.291,-0.696,-7.125,-11.062,+5.500,-6, -8, -8, -6, -4, 0, -1, 1,-0.6989261340196237,0.7006908825629502
1503601849566,-0.272,-0.242,+0.272,+0.891,+0.636,-0.296,-0.700,-5.938,-10.125,+3.062,-10, -4, -1, 1, 2, 2, 0, -3,-0.6978875676844716,0.6978875676844716
1503601849588,-0.271,-0.240,+0.270,+0.892,+0.630,-0.302,-0.706,-5.625,-9.938,+2.250,32, 8, -3, -4, -11, 0, -1, 8,-0.6932427138209016,0.6914764897716673
1503601849610,-0.271,-0.239,+0.269,+0.893,+0.634,-0.301,-0.720,-5.625,-11.250,+4.438,-2, -3, -1, -1, 2, -1, 3, -2,-0.6922234059536665,0.688688784861731
1503601849626,-0.270,-0.238,+0.266,+0.894,+0.621,-0.297,-0.727,-4.562,-13.625,+7.125,-12, 2, 1, -3, 0, -2, -2, -3,-0.6882912578556543,0.68122679709169
1503601849648,-0.269,-0.238,+0.264,+0.895,+0.619,-0.296,-0.715,-2.875,-11.625,+6.750,1, -4, -4, -4, -5, -2, -3, -6,-0.6858031911059057,0.6769790821889043
1503601849670,-0.268,-0.237,+0.262,+0.896,+0.620,-0.304,-0.729,-2.188,-10.625,+6.375,-7, -5, -1, 2, 3, -1, -2, -6,-0.682262005729058,0.6716754651716853
1503601849688,-0.268,-0.237,+0.261,+0.897,+0.602,-0.317,-0.737,-2.312,-7.750,+6.188,-10, -4, 0, -3, -4, -1, 0, -1,-0.6823122032650929,0.6699594185751754
1503601849708,-0.267,-0.237,+0.259,+0.898,+0.606,-0.318,-0.718,-1.375,-9.500,+6.812,25, 13, -3, -5, -4, -2, 1, 10,-0.6798192963529259,0.6657117620105721
1503601849731,-0.266,-0.237,+0.257,+0.898,+0.630,-0.315,-0.706,+1.000,-10.875,+8.938,3, 6, 14, 7, 5, 0, -1, -7,-0.676889751619736,0.6610391372088961
1503601849754,-0.265,-0.238,+0.255,+0.899,+0.646,-0.323,-0.708,+1.375,-10.625,+9.938,-26, -10, -8, -4, 0, -1, -3, -5,-0.6754272395233236,0.6578361701387073
1503601849768,-0.264,-0.238,+0.253,+0.900,+0.644,-0.336,-0.703,+1.375,-11.250,+9.125,1, 4, 4, -2, -5, -3, -3, 0,-0.6729204186422105,0.6535832959668356
1503601849792,-0.263,-0.239,+0.251,+0.900,+0.641,-0.343,-0.708,+1.250,-11.500,+7.500,34, 13, 0, -1, -5, -3, -4, 1,-0.6710113821838759,0.649953408256762
1503601849812,-0.262,-0.239,+0.250,+0.901,+0.639,-0.349,-0.709,+0.312,-8.875,+5.625,-3, -1, -2, -3, -4, -1, -2, -5,-0.6688872029829154,0.6478341969891795
1503601849828,-0.261,-0.239,+0.249,+0.901,+0.623,-0.341,-0.723,-1.062,-5.688,+4.812,-1, -5, -2, 1, 0, -1, -3, -8,-0.6663309242805451,0.6452957988070186
1503601849850,-0.261,-0.240,+0.249,+0.902,+0.610,-0.342,-0.722,-1.688,-4.125,+3.750,-1, 8, 2, 2, -1, 0, 2, 9,-0.6677931033661608,0.6467549753196331
1503601849872,-0.260,-0.239,+0.248,+0.902,+0.608,-0.338,-0.720,-2.812,-4.500,+3.000,19, 1, -2, -2, -3, 0, 0, -2,-0.6642037814705875,0.6431733717600737
1503601849888,-0.259,-0.239,+0.248,+0.902,+0.597,-0.332,-0.712,-4.250,-0.125,+3.062,4, 4, -1, -3, 1, 1, 0, -3,-0.6620416200354639,0.6427719788540007
1503601849911,-0.258,-0.239,+0.248,+0.902,+0.598,-0.325,-0.718,-4.500,+2.188,+3.062,-10, 3, 0, 4, -6, -1, 2, -1,-0.6598807150470755,0.6423703444952956
1503601849933,-0.258,-0.239,+0.249,+0.903,+0.598,-0.327,-0.727,-4.062,+1.812,+2.688,-14, -6, -4, -4, -4, -2, -4, -20,-0.6607045744353449,0.644928696713121
1503601849948,-0.257,-0.238,+0.249,+0.903,+0.602,-0.312,-0.729,-4.125,-1.312,+2.625,5, -5, -3, -1, 1, 1, 2, 6,-0.6575194173330636,0.643495654535418
1503601849971,-0.257,-0.237,+0.248,+0.903,+0.592,-0.306,-0.721,-3.938,-2.000,+2.438,-30, -6, 3, 2, 1, -1, -1, -5,-0.6561037014796767,0.6403260262214618
1503601849993,-0.256,-0.237,+0.248,+0.904,+0.586,-0.301,-0.729,-3.438,-1.312,+1.875,-27, -1, 7, 3, 0, -1, -1, -8,-0.6543720696759204,0.6403445271384622
1503601850008,-0.256,-0.237,+0.248,+0.904,+0.583,-0.309,-0.733,-2.438,-0.750,+1.312,19, -4, 3, 4, 0, -1, -2, 0,-0.6543720696759204,0.6403445271384622
1503601850031,-0.256,-0.236,+0.248,+0.904,+0.590,-0.314,-0.735,-1.688,-2.125,+0.875,21, 3, -5, -7, -11, -4, -9, -10,-0.6533560138884786,0.6393217202580096
1503601850052,-0.256,-0.236,+0.247,+0.904,+0.594,-0.321,-0.718,-1.562,-2.875,+0.250,-11, -6, 0, 1, 1, 2, 2, -6,-0.6529630404708501,0.6371810777875091
1503601850068,-0.256,-0.236,+0.247,+0.904,+0.591,-0.312,-0.724,-1.812,-2.812,-0.188,-18, 3, 3, 2, 0, -2, -1, -4,-0.6529630404708501,0.6371810777875091
1503601850091,-0.256,-0.235,+0.247,+0.905,+0.587,-0.311,-0.737,-1.375,-1.625,-0.188,-18, 0, -4, 1, -1, -5, -2, 1,-0.6523784267370378,0.6365787681690209
1503601850112,-0.255,-0.235,+0.247,+0.905,+0.585,-0.315,-0.735,-1.188,-1.312,-0.250,17, 8, 2, 1, 1, 2, 3, 6,-0.6502208855738297,0.6361826857578344
1503601850128,-0.256,-0.235,+0.246,+0.905,+0.585,-0.310,-0.731,-0.500,-1.688,-1.750,5, -2, -1, 1, -3, -1, -2, 1,-0.6519870203635867,0.634439167859015
1503601850151,-0.256,-0.235,+0.246,+0.905,+0.588,-0.304,-0.727,-0.250,-1.125,-2.938,-1, 0, 0, -6, -3, -2, -3, -5,-0.6519870203635867,0.634439167859015
1503601850172,-0.257,-0.235,+0.247,+0.904,+0.589,-0.303,-0.729,+0.500,-0.312,-3.812,1, 1, -4, -4, -3, -1, 0, 3,-0.6541099965989037,0.6365585483011956
1503601850190,-0.258,-0.235,+0.247,+0.904,+0.592,-0.312,-0.728,+0.938,-1.188,-5.062,8, 0, 2, 1, 4, 1, 1, 1,-0.6562692250729659,0.6369544107376358
1503601850210,-0.259,-0.235,+0.247,+0.904,+0.603,-0.314,-0.731,+1.125,-0.062,-7.250,-12, -4, 0, -1, 0, -1, -3, -9,-0.6584297179130735,0.6373500414395817
1503601850233,-0.260,-0.235,+0.248,+0.903,+0.604,-0.314,-0.721,+1.312,+3.312,-7.188,4, -3, -3, 4, 2, -2, 0, -1,-0.660550146036224,0.6394659010508373
1503601850248,-0.261,-0.235,+0.249,+0.903,+0.610,-0.322,-0.721,+2.062,+3.750,-7.500,14, -3, -2, -4, -1, 2, 2, 13,-0.6630992204135855,0.6419971189529062
1503601850270,-0.262,-0.236,+0.250,+0.902,+0.624,-0.322,-0.726,+2.625,+4.375,-7.375,-6, -5, -4, -3, -2, 0, -5, -7,-0.6662367564646112,0.6451401414506271
1503601850294,-0.262,-0.237,+0.250,+0.901,+0.625,-0.325,-0.726,+3.000,+2.062,-6.500,-28, -5, 1, -4, -2, -2, -1, 3,-0.6668292485774381,0.6457559006540087
1503601850314,-0.263,-0.237,+0.251,+0.901,+0.628,-0.325,-0.728,+2.438,+0.125,-4.562,17, 1, -3, -2, -2, -1, -2, 16,-0.6693806109689411,0.648289318516229
1503601850330,-0.264,-0.237,+0.251,+0.901,+0.622,-0.320,-0.726,+1.812,+0.375,-4.188,5, -2, 3, 2, 0, -3, -1, -5,-0.671543323256789,0.6486846234566949
1503601850352,-0.264,-0.238,+0.251,+0.900,+0.617,-0.317,-0.728,+2.375,+2.625,-4.000,-14, 6, 2, -6, -2, 0, 2, 1,-0.6721409138077616,0.6493072535919673
1503601850367,-0.265,-0.238,+0.252,+0.900,+0.614,-0.312,-0.733,+2.438,+4.375,-3.500,-4, 3, 3, 3, 1, -1, -2, 2,-0.6746938766170736,0.6518407437798638
1503601850392,-0.265,-0.239,+0.253,+0.899,+0.604,-0.318,-0.728,+2.500,+5.438,-3.625,11, 5, -3, -4, -1, 0, 1, 0,-0.6756872879793094,0.6546061515840865
1503601850412,-0.265,-0.240,+0.254,+0.899,+0.609,-0.316,-0.726,+3.000,+5.812,-4.000,-3, -8, -5, 6, 2, 0, -1, -10,-0.6771202120470783,0.6577970149853288
1503601850427,-0.266,-0.240,+0.255,+0.898,+0.616,-0.321,-0.716,+4.250,+7.062,-5.500,-19, -12, -6, 0, -2, -1, 0, -4,-0.6792411688331097,0.6599130204294456
1503601850449,-0.267,-0.242,+0.256,+0.897,+0.624,-0.316,-0.715,+5.062,+8.250,-6.312,9, 9, 0, 2, 1, -2, 3, 4,-0.6834652946418699,0.6641507379672001
1503601850472,-0.268,-0.243,+0.257,+0.896,+0.621,-0.319,-0.730,+6.625,+7.125,-7.125,-14, -6, -2, -5, -2, -2, 5, -5,-0.686647311323384,0.6673368550110276
1503601850487,-0.269,-0.244,+0.258,+0.895,+0.630,-0.317,-0.735,+8.812,+5.938,-7.188,-38, -2, 5, 0, -1, -1, 0, -4,-0.6898356457981658,0.6705291441781531
1503601850509,-0.270,-0.246,+0.259,+0.894,+0.634,-0.323,-0.733,+10.938,+5.812,-6.938,1, 0, -3, -4, -2, 0, 0, -4,-0.6941057886448881,0.6748123268460704
1503601850532,-0.272,-0.248,+0.260,+0.893,+0.632,-0.337,-0.723,+13.312,+8.438,-9.500,-5, -1, -1, -3, -3, 0, -1, -5,-0.7005642789294652,0.6795217394913312
1503601850547,-0.274,-0.250,+0.261,+0.891,+0.642,-0.348,-0.699,+14.188,+9.312,-11.812,4, 7, 1, 5, 0, -1, 1, 8,-0.7066104652291647,0.6838321699360731
1503601850569,-0.275,-0.253,+0.262,+0.890,+0.658,-0.350,-0.700,+14.750,+10.562,-11.438,-2, 0, -1, -5, -2, -4, -9, -2,-0.7120568263586566,0.6893037473572616
1503601850593,-0.277,-0.256,+0.264,+0.888,+0.655,-0.338,-0.711,+16.000,+11.250,-10.500,4, 2, 2, 2, 2, -1, 1, 0,-0.7196872609208799,0.6969518052763038
1503601850607,-0.279,-0.258,+0.265,+0.886,+0.639,-0.342,-0.705,+16.688,+12.812,-10.375,-3, 0, -7, -7, -3, -1, -3, -5,-0.7258241559178172,0.7013571307949813
1503601850630,-0.280,-0.262,+0.267,+0.884,+0.637,-0.348,-0.680,+18.250,+14.688,-10.812,-7, -7, 4, -1, 0, 0, 3, 3,-0.7325232510382513,0.7098404014073375
1503601850652,-0.282,-0.265,+0.269,+0.882,+0.657,-0.355,-0.653,+15.125,+13.062,-11.812,-3, -6, -3, 3, -2, 0, -1, 1,-0.7403089400472386,0.7176414756886105
1503601850668,-0.283,-0.267,+0.270,+0.881,+0.673,-0.331,-0.640,+11.000,+9.938,-8.062,-10, 0, -2, 2, -2, -3, -10, -17,-0.7448121364404144,0.7221572333238544
1503601850689,-0.283,-0.268,+0.271,+0.880,+0.674,-0.323,-0.661,+7.625,+7.500,-1.312,-5, -2, -7, -4, -4, -15, -37, 0,-0.745972835628073,0.7250716962966823
1503601850712,-0.283,-0.269,+0.272,+0.879,+0.670,-0.330,-0.660,+5.312,+6.312,+1.250,3, 1, 6, 2, 2, 4, 17, -3,-0.7471405782287344,0.7279912477215265
1503601850727,-0.283,-0.270,+0.273,+0.879,+0.660,-0.334,-0.650,+2.812,+4.875,+1.188,14, 7, 0, 0, -1, 1, 5, 0,-0.7487531763010625,0.7313450183356756
1503601850749,-0.283,-0.270,+0.274,+0.879,+0.659,-0.319,-0.635,-1.250,+1.312,-1.812,7, 9, 1, 1, -3, -6, -18, -5,-0.7491705379706028,0.733496455303599
1503601850772,-0.283,-0.269,+0.273,+0.879,+0.662,-0.286,-0.628,-3.938,-4.375,+1.250,4, -2, -3, -5, -2, -1, 2, -3,-0.7475569942812286,0.7301409951740387
1503601850787,-0.282,-0.268,+0.273,+0.880,+0.646,-0.281,-0.647,-5.312,-3.750,+4.500,1, 3, 2, 1, 0, -2, -1, 1,-0.7446312416874586,0.7289487283344145
1503601850811,-0.281,-0.267,+0.273,+0.880,+0.624,-0.282,-0.662,-6.688,-0.250,+5.562,-4, 0, 0, 2, 0, -2, -3, -17,-0.7412738544354454,0.727333611364471
1503601850832,-0.280,-0.266,+0.273,+0.881,+0.631,-0.276,-0.678,-7.500,-0.062,+4.188,-4, 4, -3, -1, -2, -1, -3, -4,-0.7383592824611331,0.7261551531579608
1503601850847,-0.279,-0.264,+0.274,+0.882,+0.659,-0.269,-0.670,-8.750,+0.000,+5.062,8, 4, 4, 0, -3, -2, 0, -1,-0.734688704131986,0.7259590814803035
1503601850871,-0.278,-0.262,+0.274,+0.883,+0.663,-0.274,-0.671,-9.875,-0.812,+7.000,-16, -4, -3, -1, 0, -3, -5, -20,-0.730621886271073,0.7236312107689222
1503601850894,-0.276,-0.261,+0.274,+0.883,+0.664,-0.289,-0.685,-8.875,-0.875,+8.688,3, 1, 4, 3, -1, -2, -4, 3,-0.7251351175078562,0.7216412038100714
1503601850907,-0.274,-0.260,+0.274,+0.884,+0.666,-0.311,-0.696,-7.438,-2.438,+9.125,7, -2, -5, -3, -2, 1, -3, -11,-0.720092669193366,0.720092669193366
1503601850930,-0.273,-0.259,+0.273,+0.885,+0.669,-0.318,-0.682,-7.750,-5.438,+11.062,3, -2, -2, 1, 0, 0, 1, 10,-0.716804792745383,0.716804792745383
1503601850952,-0.271,-0.258,+0.272,+0.886,+0.669,-0.322,-0.672,-7.625,-7.500,+12.750,3, -6, -5, -3, 0, 0, 4, 12,-0.7113658681226176,0.7131127064057239
1503601850967,-0.269,-0.258,+0.271,+0.888,+0.649,-0.334,-0.682,-7.625,-8.188,+11.750,-8, 3, 6, 2, 0, -2, -2, 0,-0.707503052886154,0.710995987332159
1503601850989,-0.267,-0.257,+0.270,+0.889,+0.638,-0.333,-0.679,-8.312,-6.812,+10.375,-11, -1, -3, -2, -1, -1, -1, -9,-0.7020723573378144,0.7073102944243559
1503601851012,-0.265,-0.256,+0.269,+0.890,+0.637,-0.329,-0.677,-9.000,-5.125,+9.188,6, 8, 2, 3, 2, -1, -2, 5,-0.6966495686536182,0.7036315909195123
1503601851028,-0.264,-0.255,+0.268,+0.891,+0.632,-0.324,-0.680,-8.188,-3.562,+8.000,-1, -3, -4, -4, -1, 0, -2, 4,-0.6933874189229216,0.7003705940872866
1503601851049,-0.263,-0.254,+0.268,+0.892,+0.630,-0.330,-0.685,-6.688,-3.625,+6.062,6, -5, -5, -2, -1, -1, -5, -6,-0.6905437345747354,0.6992779553510194
1503601851072,-0.262,-0.253,+0.267,+0.892,+0.626,-0.344,-0.692,-6.312,-3.875,+5.062,8, 0, -2, -2, -1, 1, 4, 13,-0.6868672285101219,0.6955980071989478
1503601851087,-0.260,-0.253,+0.266,+0.893,+0.629,-0.340,-0.701,-6.688,-5.188,+5.875,4, -1, -3, -4, -1, 0, 1, 4,-0.6825786246375446,0.6930481483561685
1503601851109,-0.259,-0.252,+0.265,+0.894,+0.625,-0.334,-0.692,-6.312,-6.562,+6.812,-1, -4, -3, -2, -1, -2, -5, -14,-0.679335731783634,0.6898072332181916
1503601851132,-0.258,-0.251,+0.264,+0.895,+0.629,-0.332,-0.693,-5.312,-6.875,+6.438,-1, 1, -2, -4, -2, -1, 2, 10,-0.6760991048883261,0.6865726624137907
1503601851147,-0.257,-0.250,+0.263,+0.896,+0.622,-0.337,-0.702,-4.812,-6.500,+6.312,-7, -2, 1, 2, 1, -3, -4, -9,-0.6728687451884674,0.6833444375638595
1503601851169,-0.256,-0.250,+0.262,+0.896,+0.625,-0.347,-0.697,-4.125,-6.875,+5.250,-10, 1, 2, 0, -1, 0, -4, -3,-0.6703070905869799,0.680773860968484
1503601851192,-0.256,-0.250,+0.261,+0.897,+0.624,-0.343,-0.702,-4.000,-6.375,+4.938,-2, -2, -2, 2, 0, 0, 2, 11,-0.6703169959425358,0.6790408298827452
1503601851207,-0.255,-0.249,+0.260,+0.897,+0.623,-0.338,-0.707,-3.812,-6.125,+4.312,1, 3, 2, 1, 3, 3, 2, -2,-0.6666717340265133,0.6753921742567472
1503601851231,-0.254,-0.249,+0.259,+0.898,+0.621,-0.336,-0.712,-3.312,-4.625,+3.250,-1, -3, -1, -2, -2, -2, 1, 1,-0.6645307692972852,0.6732491243051407
1503601851252,-0.254,-0.248,+0.258,+0.898,+0.622,-0.329,-0.710,-3.250,-4.438,+2.625,6, 7, 1, 0, -4, -2, -1, -1,-0.6630437753840956,0.6700186991518254
1503601851267,-0.254,-0.248,+0.258,+0.899,+0.623,-0.329,-0.708,-3.125,-3.188,+1.562,-1, -1, 0, -3, -2, 0, -7, -6,-0.6634655006051311,0.6704447203227349
1503601851289,-0.253,-0.247,+0.258,+0.899,+0.628,-0.333,-0.707,-2.812,-3.438,+0.938,-1, -1, -1, -1, 1, -1, 3, -1,-0.6602456517610119,0.6689700301237039
1503601851312,-0.253,-0.247,+0.257,+0.899,+0.625,-0.333,-0.702,-2.938,-3.625,+1.188,-3, -2, -1, 0, 2, 0, 1, -1,-0.6598345918647085,0.6668111244941702
1503601851327,-0.253,-0.247,+0.257,+0.900,+0.622,-0.331,-0.701,-2.812,-3.688,+1.688,-7, -3, -2, -4, -7, -3, -1, -4,-0.6602556337586887,0.6672364957408026
1503601851349,-0.253,-0.246,+0.257,+0.900,+0.625,-0.333,-0.697,-2.812,-4.125,+1.500,2, -3, -3, -3, -1, 2, 2, 1,-0.6591917120028944,0.6661758116161391
1503601851372,-0.252,-0.246,+0.256,+0.900,+0.617,-0.330,-0.705,-3.188,-3.688,+0.812,-8, 0, -1, -3, -3, -2, 0, -5,-0.6566317251268,0.6636099207111166
1503601851387,-0.252,-0.245,+0.256,+0.900,+0.626,-0.326,-0.710,-2.875,-2.000,+1.250,-1, -1, -2, -4, -6, -1, 2, 3,-0.6555736644233795,0.6625550983215691
1503601851409,-0.252,-0.245,+0.256,+0.901,+0.635,-0.320,-0.720,-2.312,-2.000,+2.438,22, 0, -3, -1, -3, -3, -1, 13,-0.6559941435410902,0.6629799462864863
1503601851432,-0.251,-0.245,+0.256,+0.901,+0.643,-0.317,-0.712,-0.250,-1.875,+3.625,4, -2, -2, -2, -4, -3, 1, 1,-0.6538447731127565,0.662573359301527
1503601851447,-0.251,-0.246,+0.256,+0.901,+0.651,-0.321,-0.733,+4.000,-0.875,+3.750,0, -1, -2, -4, 0, 0, -1, 2,-0.6549019765319708,0.6636265160528383
1503601851469,-0.251,-0.247,+0.255,+0.900,+0.650,-0.325,-0.737,+8.250,-0.562,+4.125,1, 0, 0, 1, 4, 1, 1, 1,-0.6551304780129655,0.6620995534457795
1503601851492,-0.250,-0.249,+0.255,+0.900,+0.644,-0.318,-0.755,+13.375,+1.000,+6.438,-2, 0, 1, 1, 1, -2, 1, 4,-0.6551091282788637,0.6638088509543092
1503601851508,-0.250,-0.252,+0.254,+0.900,+0.654,-0.326,-0.756,+19.375,+3.312,+9.438,3, 1, -1, -1, -3, 0, 0, -4,-0.6579071729554936,0.6648546040537692
1503601862321,-0.254,-0.276,+0.535,+0.757,+0.997,-0.148,-0.193,-0.250,+19.375,-17.188,21, 0, 1, 4, 2, 0, 1, -30,-0.7577039789601904,1.2888878544193325
1503601862336,-0.254,-0.275,+0.537,+0.756,+1.049,-0.106,-0.226,-7.188,+6.438,-2.062,2, -1, -6, 1, 3, 1, -11, -66,-0.7565879405183814,1.2923861971129829
1503601862359,-0.252,-0.274,+0.536,+0.758,+1.087,-0.065,-0.217,-8.500,-10.000,+17.438,-7, -15, -10, 0, -2, -1, 5, 20,-0.75174863583914,1.2889647966861064
1503601862382,-0.250,-0.275,+0.534,+0.760,+1.003,-0.127,-0.130,-6.125,-19.562,+16.812,-4, -1, 2, -4, -5, -1, -2, 11,-0.7495982305013323,1.285455395134447
1503601862396,-0.249,-0.272,+0.530,+0.763,+0.993,-0.142,-0.171,-12.312,-33.562,+6.312,5, 2, 3, 1, -2, -2, 0, -6,-0.7426433322024345,1.2725897442007903
1503601862419,-0.248,-0.269,+0.526,+0.768,+0.940,-0.086,-0.180,-19.438,-40.812,+11.000,-26, -7, -4, -4, -3, 0, 1, 12,-0.7364795616368416,1.2604278565706897
1503601862443,-0.246,-0.265,+0.522,+0.773,+0.903,-0.074,-0.194,-24.062,-43.062,+16.500,46, 26, 12, 1, -1, 0, 3, 56,-0.7270321757130217,1.2470136383944168
1503601862456,-0.244,-0.260,+0.517,+0.778,+0.934,-0.087,-0.208,-28.125,-44.125,+14.375,8, -5, -3, 0, 1, 4, 5, -2,-0.7157778505423118,1.2300564227521267
1503601862480,-0.241,-0.255,+0.513,+0.783,+0.952,-0.108,-0.198,-34.250,-42.562,+15.062,-15, 7, 1, -3, -3, -4, -4, -11,-0.7031958068642052,1.2155688321797518
1503601862501,-0.237,-0.249,+0.508,+0.789,+0.934,-0.097,-0.240,-38.312,-50.938,+16.312,11, -5, -13, -3, -3, -2, 1, 6,-0.6874193203708903,1.1978020451390214
1503601862517,-0.234,-0.242,+0.502,+0.797,+0.915,-0.083,-0.284,-40.125,-59.625,+16.688,-23, -13, -1, 0, -1, 1, 2, -7,-0.6725895097360081,1.1776272164806898
1503601862539,-0.231,-0.235,+0.495,+0.804,+0.880,-0.084,-0.313,-42.750,-59.000,+16.688,19, 7, 5, -3, -1, -1, -3, -9,-0.6572367764910333,1.1548946682843124
1503601862561,-0.227,-0.228,+0.489,+0.811,+0.886,-0.083,-0.347,-44.438,-54.125,+17.688,-22, -17, -2, 5, 3, 1, 1, -11,-0.6406277568515237,1.1347700983527573
1503601862577,-0.223,-0.221,+0.484,+0.817,+0.914,-0.105,-0.373,-44.250,-45.062,+21.062,11, 3, 10, 2, -2, -3, -1, -3,-0.6242287543466416,1.117005357430096
1503601862599,-0.217,-0.215,+0.479,+0.823,+0.914,-0.133,-0.393,-44.188,-42.875,+24.500,1, 11, 1, 2, 0, 3, -2, -1,-0.6055848113999779,1.1001005069944068
1503601862621,-0.212,-0.209,+0.472,+0.829,+0.896,-0.143,-0.444,-42.875,-51.875,+23.750,4, -3, -8, -7, -3, -3, 1, -1,-0.5882482683716669,1.0786661258405272
1503601862636,-0.208,-0.203,+0.465,+0.836,+0.871,-0.157,-0.448,-39.750,-54.875,+17.750,31, 1, 6, 0, 1, -1, -2, 13,-0.5733077333300028,1.0581447091644867
1503601862659,-0.205,-0.197,+0.459,+0.842,+0.833,-0.149,-0.466,-37.438,-49.250,+15.312,0, -6, -2, -4, -3, -1, -3, -13,-0.5604058920749818,1.0400925658456528
1503601862681,-0.201,-0.192,+0.454,+0.847,+0.834,-0.144,-0.493,-35.438,-38.125,+14.500,-11, 2, -3, -1, -1, -2, 2, -1,-0.5469580498787454,1.0249346986671266
1503601862697,-0.198,-0.187,+0.450,+0.851,+0.832,-0.148,-0.501,-32.750,-27.438,+12.625,-25, -10, -5, -1, -1, -5, 1, 1,-0.5354868730368123,1.0121182521333387
1503601862720,-0.194,-0.183,+0.446,+0.854,+0.856,-0.151,-0.516,-30.062,-28.188,+13.750,-24, 4, 5, -2, -2, -5, -14, -30,-0.523044071630209,0.9995977196804942
1503601862744,-0.191,-0.179,+0.442,+0.858,+0.867,-0.151,-0.529,-27.062,-30.438,+14.562,8, 16, -1, 5, 1, -3, 1, -3,-0.5128992169254315,0.9878707883881199
1503601862757,-0.188,-0.175,+0.437,+0.862,+0.833,-0.152,-0.540,-23.500,-33.250,+11.750,-23, -12, -1, -5, -2, 2, -5, -8,-0.5025140488505523,0.9738165596920587
1503601862779,-0.186,-0.172,+0.433,+0.865,+0.809,-0.154,-0.559,-20.000,-31.500,+9.812,0, -2, 3, 4, -1, -3, -1, 19,-0.4951744773127364,0.9627976769389757
1503601862801,-0.184,-0.169,+0.429,+0.868,+0.797,-0.163,-0.568,-18.188,-24.812,+9.250,0, -4, -2, 2, 0, -1, 5, 18,-0.48788298311584205,0.9518502086034814
1503601862817,-0.181,-0.167,+0.425,+0.871,+0.817,-0.160,-0.565,-17.125,-23.312,+12.000,6, -3, 5, 1, -1, 0, 3, 8,-0.4798130747946683,0.9415353943381222
1503601862839,-0.179,-0.165,+0.422,+0.873,+0.827,-0.150,-0.555,-14.125,-22.875,+12.938,-8, -1, -6, -6, -1, 0, 0, -4,-0.4736349503594918,0.9333775304879984
1503601862861,-0.177,-0.164,+0.418,+0.876,+0.796,-0.156,-0.572,-11.938,-22.000,+8.875,-3, 15, 4, 1, -1, -2, -2, -2,-0.46855474603057895,0.9240915765070565
1503601862878,-0.176,-0.162,+0.416,+0.878,+0.778,-0.171,-0.580,-11.375,-17.750,+5.562,-2, -9, -6, -3, -2, 1, -2, -3,-0.46460473660249074,0.918607998610811
1503601862899,-0.174,-0.161,+0.414,+0.879,+0.784,-0.161,-0.571,-11.000,-12.312,+6.375,5, -3, -6, -1, 2, 2, 0, -9,-0.45949032166491005,0.9131702171842172
1503601862921,-0.173,-0.159,+0.412,+0.880,+0.805,-0.170,-0.568,-11.188,-12.250,+7.312,-14, -4, 2, -4, 0, 2, 0, -27,-0.4552546289900887,0.9072190773788944
1503601862937,-0.171,-0.158,+0.410,+0.882,+0.812,-0.163,-0.578,-12.312,-16.062,+6.625,25, 10, -3, 2, -1, -1, -1, 20,-0.45046998902512037,0.9023222257774327
1503601862959,-0.170,-0.156,+0.406,+0.884,+0.790,-0.146,-0.595,-11.188,-21.688,+4.750,-8, -1, 4, 3, 0, -2, 1, -7,-0.44600765065212084,0.8921303875685698
1503601862982,-0.169,-0.154,+0.403,+0.886,+0.775,-0.136,-0.598,-8.438,-21.938,+4.312,-10, -17, -12, -2, -2, -12, -5, -11,-0.4418572681415383,0.8843750786727311
1503601862997,-0.168,-0.153,+0.401,+0.888,+0.763,-0.139,-0.595,-7.438,-16.125,+4.375,-23, -4, -1, -1, 1, 0, 2, -1,-0.43900371011298284,0.8797327356241342
1503601863020,-0.167,-0.152,+0.399,+0.889,+0.775,-0.148,-0.597,-8.500,-10.062,+5.375,20, 28, 9, 2, 0, 0, -5, -24,-0.4358485172242436,0.8745861122033013
1503601863041,-0.166,-0.151,+0.398,+0.890,+0.794,-0.149,-0.608,-8.438,-10.375,+6.625,7, -15, -7, 3, -3, 0, 5, 30,-0.43297683639087103,0.871835516321702
1503601863057,-0.164,-0.150,+0.396,+0.891,+0.805,-0.149,-0.605,-7.312,-13.188,+6.812,-5, -12, -3, -1, 0, 1, 0, 21,-0.4279215529606873,0.8665124107702331
1503601863080,-0.163,-0.149,+0.393,+0.893,+0.798,-0.155,-0.620,-6.062,-18.312,+6.312,19, 8, -2, -3, -3, -3, -5, 4,-0.4248103493859845,0.8595349275252862
1503601863101,-0.162,-0.148,+0.390,+0.894,+0.771,-0.148,-0.622,-5.688,-18.500,+6.188,17, 1, 3, 0, 2, 7, -2, 23,-0.42140751457260434,0.8520582888835008
1503601863117,-0.162,-0.147,+0.388,+0.895,+0.748,-0.148,-0.612,-5.438,-13.938,+4.750,-28, -8, -4, -2, -1, 2, 0, -25,-0.4202020090860947,0.8471676750681145
1503601863139,-0.161,-0.146,+0.387,+0.896,+0.762,-0.167,-0.606,-6.438,-5.188,+2.375,0, 4, 1, 2, 2, -2, -5, -34,-0.41735715316994154,0.8444606778868649
1503601863161,-0.160,-0.145,+0.388,+0.896,+0.770,-0.161,-0.612,-8.125,+0.312,+1.438,6, 13, 13, 0, -2, -3, 1, 13,-0.41475631666082413,0.8459821238500511
1503601863177,-0.159,-0.144,+0.387,+0.897,+0.772,-0.142,-0.619,-9.312,-3.000,+1.562,-5, 6, -5, -1, -4, 1, 1, -1,-0.41191750257047666,0.8432866109582856
1503601863198,-0.159,-0.143,+0.387,+0.897,+0.751,-0.130,-0.615,-8.438,-5.250,-0.062,-2, -17, -8, -5, -7, -4, -2, -2,-0.4109699639656212,0.8426406994956307
1503601863222,-0.158,-0.141,+0.387,+0.897,+0.741,-0.132,-0.614,-8.125,-1.688,-0.875,2, -4, 1, -4, -8, -5, 0, 1,-0.4071662411393428,0.8411688518234058
1503601863237,-0.157,-0.140,+0.387,+0.898,+0.760,-0.131,-0.611,-8.938,-2.375,+1.625,-15, -9, -12, -7, -2, -4, 0, 0,-0.404602837460375,0.8408660548024437
1503601863259,-0.156,-0.139,+0.386,+0.899,+0.790,-0.122,-0.622,-8.375,-7.938,+4.375,8, 8, 7, 1, -1, 1, 0, 4,-0.4017819698888799,0.8381988467618546
1503601863281,-0.155,-0.137,+0.384,+0.900,+0.779,-0.118,-0.638,-6.688,-16.312,+4.625,1, 6, 9, -2, -7, -1, -3, -4,-0.39777947192400226,0.8325506376503401
1503601863297,-0.155,-0.136,+0.380,+0.902,+0.758,-0.114,-0.666,-3.188,-20.625,+4.938,5, -10, -8, -2, 1, -2, 0, 21,-0.3964174061510844,0.823522529173326
1503601863320,-0.155,-0.136,+0.377,+0.903,+0.728,-0.111,-0.652,+1.188,-19.625,+5.375,3, -3, -4, 0, 2, -1, -2, -7,-0.3959467315691535,0.8169705508338821
1503601863341,-0.154,-0.136,+0.375,+0.904,+0.725,-0.123,-0.647,+2.812,-11.625,+5.438,24, 11, -1, 6, 1, 1, 1, -3,-0.393806099529664,0.8125951862037503
1503601863358,-0.154,-0.137,+0.374,+0.904,+0.742,-0.136,-0.643,+5.188,-3.312,+5.625,-5, -9, -14, -2, 7, -1, -6, -20,-0.3944609658106793,0.810856976001176
1503601863379,-0.153,-0.139,+0.374,+0.904,+0.761,-0.117,-0.639,+7.625,-0.938,+7.188,4, -4, 1, -1, 3, 4, 3, 2,-0.3943602894229261,0.8118999567176438
1503601863401,-0.153,-0.140,+0.373,+0.904,+0.771,-0.098,-0.665,+11.500,-3.938,+9.062,0, 1, 1, -3, -6, -2, -6, -19,-0.39501313297278745,0.8101700935084483
1503601863417,-0.153,-0.143,+0.371,+0.905,+0.773,-0.108,-0.671,+16.625,-7.625,+10.438,8, 20, 18, 6, -1, 0, 4, 12,-0.39751311573422404,0.8078718786773352
1503601863439,-0.153,-0.146,+0.370,+0.905,+0.764,-0.128,-0.657,+20.812,-7.125,+10.312,-33, -7, -4, 1, 4, 0, 2, 4,-0.3999959328516181,0.8074326754199339
1503601863461,-0.153,-0.150,+0.368,+0.905,+0.775,-0.144,-0.648,+24.375,-5.750,+9.938,22, -5, -12, -1, 0, -1, 4, 3,-0.4031315094376305,0.8053277370963576
1503601863477,-0.153,-0.155,+0.367,+0.904,+0.789,-0.151,-0.652,+27.500,-1.688,+12.875,-3, -7, -3, -6, -16, -7, -6, -13,-0.4072045242489472,0.8057708203521151
1503601863499,-0.152,-0.161,+0.366,+0.904,+0.782,-0.149,-0.665,+32.000,-0.875,+15.750,-5, 9, 8, 6, 7, -4, 4, 3,-0.4106082186664191,0.8072694371842833
1503601863521,-0.152,-0.167,+0.365,+0.903,+0.780,-0.141,-0.669,+37.812,-2.375,+17.750,-20, -5, 1, -1, -8, -4, -1, 7,-0.415715184379284,0.8085872784363941
1503601863537,-0.152,-0.174,+0.363,+0.903,+0.767,-0.157,-0.674,+43.188,-3.062,+19.562,-28, -10, -3, -3, 11, 2, -5, -14,-0.4218088603156298,0.8089162018049796
1503601863559,-0.152,-0.182,+0.360,+0.902,+0.758,-0.192,-0.653,+47.500,-2.938,+21.562,3, -4, -2, -3, -5, 0, -4, -15,-0.42832463458337805,0.8073011068151822
1503601863583,-0.152,-0.191,+0.358,+0.901,+0.764,-0.224,-0.645,+50.812,-3.125,+23.188,-12, 4, 1, 3, -3, -14, 0, 5,-0.4362597840431792,0.8090273889336072
1503601863597,-0.152,-0.200,+0.356,+0.900,+0.772,-0.225,-0.650,+54.188,-2.438,+23.125,-7, -8, -4, 1, 1, 6, 9, 9,-0.4443339130825928,0.811027578519058
1503601863620,-0.152,-0.210,+0.354,+0.899,+0.751,-0.217,-0.648,+59.062,-2.438,+22.625,-2, -9, -7, -9, -6, 10, 6, 35,-0.4535976027636988,0.8141555657841945
1503601863641,-0.153,-0.220,+0.351,+0.897,+0.726,-0.237,-0.647,+64.500,+0.812,+22.375,-53, -18, -3, 4, 6, -2, -7, -13,-0.464330248646816,0.8150951796523971
1503601863657,-0.154,-0.232,+0.348,+0.895,+0.713,-0.276,-0.666,+68.625,+0.125,+22.812,0, 5, 4, 11, 28, 8, -4, -32,-0.47744287217202797,0.8182842887469358
1503601863679,-0.155,-0.243,+0.344,+0.893,+0.722,-0.309,-0.646,+72.062,-6.000,+24.188,4, -9, -6, 7, 9, -3, -6, -35,-0.489296923403066,0.8187085838118295
1503601863701,-0.156,-0.256,+0.340,+0.891,+0.724,-0.350,-0.608,+76.500,-7.625,+23.500,1, -4, -3, 0, 10, 10, 11, 15,-0.5037143902688749,0.8216684048381809
1503601863717,-0.158,-0.269,+0.336,+0.888,+0.704,-0.380,-0.598,+80.562,-3.812,+20.188,12, -3, -7, -8, -19, -8, -3, -13,-0.5202462141107153,0.8252283409656849
1503601869080,-0.053,-0.070,+0.453,+0.887,+0.862,-0.068,-0.512,-1.250,-9.625,+3.938,14, 4, 0, -2, 3, 1, -1, 3,-0.158565024058605,0.9501662528686906
1503601869102,-0.053,-0.070,+0.451,+0.888,+0.880,-0.072,-0.517,-0.938,-16.875,+4.375,4, 6, 4, -2, -8, 0, -4, -2,-0.1583927008214875,0.9456719773496656
1503601869124,-0.051,-0.070,+0.449,+0.889,+0.872,-0.081,-0.532,-2.312,-16.250,+7.000,-3, 3, -1, -1, -3, -4, 1, 9,-0.15463208211655502,0.9410202579152978
1503601869140,-0.050,-0.070,+0.447,+0.890,+0.825,-0.100,-0.539,-2.312,-13.000,+6.312,7, -5, 0, -2, 3, 0, 0, 2,-0.15266000664732646,0.9364576398810295
1503601869163,-0.050,-0.071,+0.445,+0.891,+0.815,-0.097,-0.542,-0.688,-11.062,+2.500,-9, 13, 2, 0, 3, -2, -2, 0,-0.1534071563304751,0.9322727319306933
1503601869192,-0.049,-0.071,+0.444,+0.892,+0.812,-0.089,-0.559,+0.000,-10.688,+2.562,28, 20, -3, -3, 0, 0, -3, -17,-0.15156597430185634,0.9302206661038791
1503601869200,-0.049,-0.071,+0.442,+0.893,+0.807,-0.092,-0.587,+0.500,-10.250,+3.062,2, -3, -3, -1, -4, -3, 0, 4,-0.15138146313607223,0.9257600148649721
1503601869224,-0.049,-0.071,+0.440,+0.894,+0.763,-0.103,-0.598,-0.375,-6.125,+2.000,2, 1, 2, 1, 4, 3, 1, -1,-0.15119694158286598,0.9213071694833177
1503601869244,-0.048,-0.071,+0.439,+0.894,+0.757,-0.114,-0.583,-1.688,-6.938,-0.312,-4, 2, 1, 0, -3, -1, -1, 6,-0.14925271439963705,0.9187298848077141
1503601869260,-0.048,-0.071,+0.438,+0.895,+0.790,-0.111,-0.567,-3.562,-2.375,-0.938,-7, -7, 2, 0, 3, 0, 0, -1,-0.14920706056274327,0.9167754048954059
1503601869282,-0.047,-0.070,+0.439,+0.894,+0.792,-0.090,-0.593,-4.688,+9.875,+2.312,-13, -5, 4, 1, -1, -2, 1, -2,-0.1465365528491925,0.9183610936368525
1503601869304,-0.047,-0.070,+0.441,+0.893,+0.789,-0.077,-0.588,-1.750,+16.375,+2.062,9, -9, -9, -4, -2, 0, 1, 3,-0.14672120784561452,0.9228109935462544
1503601869326,-0.046,-0.070,+0.445,+0.892,+0.816,-0.090,-0.579,-1.250,+23.500,-2.125,-15, -14, -2, 0, -6, -4, -4, -4,-0.14538547525640777,0.9321830843191787
1503601869342,-0.046,-0.070,+0.449,+0.889,+0.846,-0.097,-0.545,-1.375,+28.688,-3.188,23, 15, -2, -1, 2, -1, 0, 3,-0.14566745986268598,0.9406063676830652
1503601869365,-0.046,-0.070,+0.454,+0.887,+0.860,-0.096,-0.546,-0.625,+33.188,-2.875,6, 9, -1, -3, -3, 1, -2, -3,-0.14617973836271586,0.9521104090677496
1503601869386,-0.046,-0.070,+0.459,+0.885,+0.866,-0.088,-0.510,-1.500,+25.562,-1.312,-8, -18, -4, 0, -1, -1, -1, -2,-0.14669193959952348,0.9636617986683845
1503601869402,-0.045,-0.070,+0.461,+0.883,+0.896,-0.107,-0.459,-4.000,+10.625,-1.000,6, 1, 1, 2, 2, -1, -4, -25,-0.1450075615824075,0.9675866064705687
1503601869424,-0.044,-0.069,+0.462,+0.883,+0.931,-0.081,-0.461,-6.562,-1.312,+2.062,-10, -5, 0, -1, -2, -3, -1, 11,-0.1424098458208225,0.969757706556819
1503601869446,-0.043,-0.068,+0.462,+0.883,+0.915,-0.068,-0.511,-6.812,-6.312,+7.625,-19, -8, 3, 1, 4, 1, -2, 1,-0.13967463047076836,0.9694038482332352
1503601869463,-0.041,-0.068,+0.459,+0.885,+0.862,-0.060,-0.526,-5.375,-19.000,+10.562,-22, -5, -1, 1, 0, -1, 0, 0,-0.1358756058901507,0.9627123548463693
1503601869484,-0.040,-0.067,+0.454,+0.887,+0.815,-0.075,-0.529,-3.688,-28.250,+7.875,-12, 3, 1, -5, -3, -2, -2, -2,-0.13263746868682377,0.9508094077868782
1503601869507,-0.039,-0.067,+0.450,+0.890,+0.795,-0.089,-0.532,-3.500,-29.250,+4.812,6, -7, 4, 0, -9, -2, 2, 4,-0.13055142089893013,0.9422630844767313
1503601869525,-0.038,-0.067,+0.446,+0.891,+0.755,-0.109,-0.545,-4.000,-19.938,+3.562,4, 2, -2, 0, 4, 1, 1, 3,-0.12830216293590363,0.9326841716359962
1503601869544,-0.038,-0.066,+0.444,+0.893,+0.788,-0.111,-0.572,-5.062,-11.812,+2.062,5, 4, -2, 0, 1, -1, 0, 1,-0.12726872093513852,0.928486456214083
1503601869567,-0.037,-0.066,+0.443,+0.893,+0.816,-0.087,-0.580,-5.875,-8.438,+2.250,4, 8, -6, -4, 0, -1, 0, 0,-0.12534018548633238,0.9259070600448466
1503601869582,-0.036,-0.065,+0.441,+0.894,+0.795,-0.080,-0.567,-5.125,-10.500,+2.812,22, 2, 2, -1, -1, 0, -2, 0,-0.12244122777876477,0.921113607935733
1503601869604,-0.035,-0.064,+0.440,+0.895,+0.796,-0.084,-0.558,-4.438,-8.188,+3.062,-4, 1, 2, 2, -1, 1, 0, 1,-0.11967507142249244,0.9188267772253917
1503601869626,-0.035,-0.064,+0.439,+0.895,+0.791,-0.100,-0.580,-3.812,-3.062,+2.625,-7, 1, 4, 1, 2, 0, -1, -3,-0.11954753676075897,0.9163335743771422
1503601869642,-0.034,-0.064,+0.439,+0.896,+0.808,-0.105,-0.568,-3.438,-1.062,+1.625,-2, 4, -2, -4, -1, 0, -1, 1,-0.11781513702070924,0.9167916327908993
1503601869664,-0.033,-0.064,+0.439,+0.896,+0.819,-0.099,-0.562,-3.188,-1.688,+0.875,-17, -16, -13, 1, 2, 1, -2, -3,-0.1160131897672955,0.9167134962058916
1503601869686,-0.033,-0.063,+0.438,+0.896,+0.816,-0.086,-0.563,-3.875,-5.000,+1.250,10, -4, -7, -5, -2, -1, 1, 1,-0.1149828939393783,0.913979502538977
1503601869702,-0.032,-0.063,+0.437,+0.897,+0.804,-0.088,-0.563,-3.438,-6.125,+2.250,-13, -3, -1, -2, -3, -4, -3, 1,-0.11311947872189812,0.9119492375111874
1503601869725,-0.032,-0.062,+0.436,+0.897,+0.794,-0.086,-0.571,-3.500,-6.875,+2.875,17, 7, 3, 0, -4, -2, 0, 0,-0.11209607420419368,0.9092235902252366
1503601869746,-0.031,-0.062,+0.435,+0.898,+0.790,-0.084,-0.571,-2.812,-6.062,+1.688,10, 9, 0, -1, 1, -1, 8, 19,-0.11023098310882955,0.9071983736896426
1503601869763,-0.031,-0.061,+0.434,+0.898,+0.811,-0.083,-0.556,-2.750,-4.562,+0.875,6, -3, -1, 1, 2, 0, 0, -5,-0.10921445866451408,0.9044810868083624
1503601869784,-0.030,-0.061,+0.434,+0.898,+0.809,-0.085,-0.568,-1.875,-2.688,+1.750,-11, -9, -1, 1, -3, -2, -4, -6,-0.10740954457231419,0.9044053968999711
1503601869806,-0.030,-0.061,+0.434,+0.898,+0.809,-0.086,-0.566,-1.250,-3.688,+1.500,0, -1, 7, 0, 0, 1, 2, 6,-0.10740954457231419,0.9044053968999711
1503601869822,-0.030,-0.061,+0.433,+0.899,+0.800,-0.086,-0.583,-1.000,-4.688,+2.125,1, 5, -6, -3, -9, -2, -1, 0,-0.10734768499314798,0.9024608983378049
1503601869844,-0.029,-0.061,+0.432,+0.899,+0.781,-0.086,-0.578,-0.562,-5.562,+1.562,-4, 7, 0, -4, -7, -2, 0, 1,-0.10541916487020181,0.899903539394794
1503601869866,-0.029,-0.061,+0.431,+0.900,+0.795,-0.089,-0.573,-0.312,-3.125,+0.562,3, -1, -2, -3, -8, -4, -2, -4,-0.10535529026460747,0.897962969886342
1503601869882,-0.029,-0.061,+0.432,+0.899,+0.810,-0.098,-0.575,-0.750,+1.062,+1.000,-27, -11, -1, -4, 1, -1, 1, -3,-0.10541916487020181,0.899903539394794
1503601869905,-0.028,-0.061,+0.432,+0.899,+0.829,-0.098,-0.566,-1.375,+1.312,+1.750,-1, -3, -15, -4, 2, 1, 0, 0,-0.1036125254899566,0.8998273955309366
1503601869929,-0.028,-0.061,+0.432,+0.899,+0.826,-0.091,-0.581,-1.250,-2.812,+2.250,-16, -1, 10, 3, 2, 1, 2, 2,-0.1036125254899566,0.8998273955309366
1503601869942,-0.027,-0.061,+0.430,+0.900,+0.817,-0.092,-0.581,-1.125,-10.312,+2.688,11, 14, 2, -2, -2, -1, 2, 11,-0.10161630116119737,0.8953319039366106
1503601869964,-0.027,-0.061,+0.428,+0.901,+0.792,-0.088,-0.580,-0.812,-14.312,+2.750,-2, -6, -7, -3, -5, -2, 2, 5,-0.10142656403720807,0.8909201966805675
1503601869986,-0.027,-0.061,+0.426,+0.902,+0.761,-0.092,-0.599,-0.250,-11.438,+2.125,-24, -22, -5, -1, 2, 0, -2, -9,-0.10123681958504202,0.8865160705798643
1503601870003,-0.026,-0.061,+0.425,+0.903,+0.756,-0.093,-0.596,-0.938,-2.125,+0.688,0, 1, -3, -2, 2, -2, -2, -3,-0.09935439397482235,0.8845096013019728
1503601870024,-0.026,-0.061,+0.426,+0.902,+0.792,-0.099,-0.596,-0.125,+3.938,+0.188,11, 22, 12, 3, 2, -1, -3, -3,-0.09942431969837164,0.8864386377691843
1503601870046,-0.026,-0.061,+0.426,+0.902,+0.820,-0.098,-0.589,-0.062,+2.312,+0.688,17, 7, -4, -3, -2, 0, -3, -7,-0.09942431969837164,0.8864386377691843
1503601870062,-0.026,-0.061,+0.426,+0.902,+0.811,-0.091,-0.577,-0.188,-2.688,+1.312,7, -16, -13, -4, -3, 1, 0, 4,-0.09942431969837164,0.8864386377691843
1503601870084,-0.025,-0.062,+0.425,+0.903,+0.794,-0.096,-0.590,+0.125,-5.438,+1.688,4, 8, 8, 2, 1, -2, -2, -5,-0.09841351625121599,0.8846548557302117
1503601870106,-0.025,-0.062,+0.425,+0.903,+0.790,-0.100,-0.584,+0.375,-3.938,+1.375,-11, -1, -5, -1, 0, 0, 0, -1,-0.09841351625121599,0.8846548557302117
1503601870122,-0.025,-0.062,+0.425,+0.903,+0.790,-0.101,-0.585,+0.062,-0.438,+0.938,2, -5, 1, 1, 0, 0, 3, -2,-0.09841351625121599,0.8846548557302117
1503601870144,-0.025,-0.062,+0.425,+0.903,+0.806,-0.108,-0.590,+0.562,+1.438,+0.875,-5, -11, -11, -7, -2, -2, -1, 1,-0.09841351625121599,0.8846548557302117
1503601870166,-0.025,-0.062,+0.425,+0.903,+0.799,-0.099,-0.603,-0.750,+0.875,+1.000,2, -10, -8, -3, 0, 0, 2, 6,-0.09841351625121599,0.8846548557302117
1503601870182,-0.024,-0.062,+0.425,+0.903,+0.777,-0.094,-0.600,-0.875,-1.000,+0.500,-4, -1, -7, -1, 1, -2, -1, -1,-0.09659900857583585,0.8845759765672895
1503601870204,-0.024,-0.062,+0.425,+0.903,+0.778,-0.091,-0.588,-0.938,-0.250,+0.062,6, 10, 12, 2, -1, -1, -2, 2,-0.09659900857583585,0.8845759765672895
1503601870226,-0.024,-0.062,+0.426,+0.902,+0.792,-0.094,-0.572,-0.812,+4.188,+0.875,9, 16, 4, 1, -2, -3, -7, -11,-0.09667497256224251,0.8865056312784554
1503601870250,-0.024,-0.062,+0.427,+0.902,+0.805,-0.102,-0.581,-0.312,+5.500,+0.875,-8, -7, -1, -2, -3, -3, -1, 2,-0.09679891140011443,0.888977919993359
1503601870265,-0.023,-0.062,+0.427,+0.902,+0.812,-0.099,-0.581,-0.438,+3.500,-0.062,7, -4, -5, -3, -3, -1, -3, -5,-0.09498655483321701,0.8888994491473364
1503601870286,-0.023,-0.062,+0.427,+0.902,+0.810,-0.102,-0.583,-0.438,+0.500,-0.938,0, -9, -2, -1, -4, -2, -2, -3,-0.09498655483321701,0.8888994491473364
1503601870302,-0.023,-0.062,+0.427,+0.902,+0.809,-0.099,-0.577,-0.375,-2.000,-1.062,23, 10, -3, -2, 1, 2, 0, 1,-0.09498655483321701,0.8888994491473364
1503601870324,-0.023,-0.062,+0.427,+0.902,+0.815,-0.104,-0.584,-1.000,-0.938,+0.000,-9, -14, -3, 0, 2, 3, -1, -9,-0.09498655483321701,0.8888994491473364
1503601870346,-0.023,-0.062,+0.427,+0.902,+0.805,-0.101,-0.582,-2.062,-2.438,+1.688,-1, -1, -6, -3, -6, -2, -1, 1,-0.09498655483321701,0.8888994491473364
1503601870364,-0.022,-0.061,+0.427,+0.902,+0.798,-0.100,-0.581,-2.750,-3.500,+1.812,-13, 0, 1, -1, -1, 0, -2, -10,-0.09229744865932397,0.888601346710549
1503601870384,-0.022,-0.061,+0.426,+0.902,+0.795,-0.089,-0.582,-2.438,-3.312,+1.750,-13, -7, -4, -3, -4, 0, -1, -3,-0.09217545769815542,0.8861287594900694
1503601870407,-0.021,-0.061,+0.426,+0.903,+0.793,-0.096,-0.585,-2.250,-3.750,+1.938,6, -6, -5, -1, 1, 0, 5, 26,-0.0904054850395053,0.8865922196624925
1503601870422,-0.021,-0.061,+0.425,+0.903,+0.801,-0.104,-0.578,-2.250,-3.188,+1.500,14, 4, 0, -2, -3, -2, 4, 22,-0.09028346239601685,0.884121433833049
1503601870444,-0.021,-0.060,+0.425,+0.903,+0.804,-0.096,-0.574,-2.000,-5.750,+1.062,-10, -6, -1, 2, 8, 4, 1, -1,-0.08941152693656136,0.8839067793329866
1503601870467,-0.020,-0.060,+0.424,+0.904,+0.809,-0.084,-0.594,-1.188,-6.750,+2.062,-7, -2, -2, -3, -4, -6, -8, -23,-0.08751780514025118,0.8819025698913521
1503601870482,-0.020,-0.060,+0.422,+0.904,+0.778,-0.092,-0.605,-0.125,-8.688,+2.250,-4, 5, -2, 0, -1, 0, -1, 10,-0.08727771294946145,0.8769696414425454
1503601870505,-0.020,-0.060,+0.421,+0.905,+0.775,-0.092,-0.601,-0.500,-9.188,+1.625,12, -6, -9, -4, -2, -1, -1, -3,-0.0871976799760472,0.8750477720159595
1503601870526,-0.019,-0.060,+0.420,+0.905,+0.767,-0.105,-0.599,-0.625,-5.562,+1.125,9, -1, 2, -1, -2, -1, -2, -10,-0.08525987596696893,0.8725081714920464
1503601870542,-0.019,-0.060,+0.420,+0.905,+0.785,-0.113,-0.588,-0.625,-1.000,+1.375,7, 25, 6, -2, -2, -1, -4, -9,-0.08525987596696893,0.8725081714920464
1503601870565,-0.018,-0.061,+0.420,+0.905,+0.799,-0.109,-0.604,-0.750,-0.812,+2.688,3, -4, 0, -1, -2, -1, -3, -5,-0.08430334883842966,0.8726401515665982
1503601870586,-0.018,-0.061,+0.419,+0.906,+0.796,-0.096,-0.598,-1.500,-2.500,+2.812,3, 5, -4, 1, 2, 1, 0, -1,-0.08421726153124734,0.8707214920886956
1503601870602,-0.017,-0.061,+0.418,+0.906,+0.787,-0.103,-0.604,-0.312,-6.625,+2.188,-1, 8, 4, 0, -3, -1, -2, -10,-0.08227518996758806,0.86818300223483
1503601870624,-0.017,-0.061,+0.417,+0.907,+0.795,-0.107,-0.604,+0.375,-9.938,+2.125,-3, -10, -7, 0, -1, -1, 2, 3,-0.0821870770141475,0.8662679744329901
1503601870646,-0.017,-0.061,+0.416,+0.907,+0.790,-0.105,-0.605,-0.750,-9.750,+1.812,0, 0, 2, 0, -1, -2, -2, -1,-0.0820649183040519,0.8638120234600236
1503601870662,-0.016,-0.061,+0.414,+0.908,+0.771,-0.105,-0.602,-1.938,-8.062,+2.812,-21, -3, 1, -1, -1, -1, 0, -2,-0.0800306245005072,0.8593683266791835
1503601870684,-0.016,-0.061,+0.413,+0.908,+0.774,-0.112,-0.603,-1.250,-5.375,+2.250,-4, -2, -7, -3, -3, -2, -5, -7,-0.07990843111804019,0.8569172966844179
1503601870707,-0.015,-0.061,+0.413,+0.909,+0.781,-0.110,-0.616,-2.250,-5.500,+2.875,-5, -14, -8, 0, 1, -2, 1, 0,-0.07811446614291463,0.8573803783893189
1503601870722,-0.014,-0.061,+0.412,+0.909,+0.773,-0.102,-0.611,-2.125,-6.438,+3.125,-18, -6, -1, -1, -2, -2, 1, 2,-0.07616621257742245,0.8548506140250498
1503601870744,-0.014,-0.061,+0.411,+0.910,+0.772,-0.101,-0.615,-2.625,-6.562,+2.688,-1, -4, 1, 2, 0, 0, 1, 2,-0.07607201825532339,0.8529462116249015
1503601870781,-0.013,-0.061,+0.410,+0.910,+0.771,-0.110,-0.618,-1.188,-6.000,+1.750,-11, -2, 0, -1, -2, -1, -1, -4,-0.07412168402358538,0.8504193568013488
1503601870788,-0.013,-0.060,+0.409,+0.910,+0.771,-0.110,-0.624,-1.625,-4.625,+2.125,7, 4, 1, -1, 2, -2, -2, 3,-0.07316166286986449,0.8477750306368688
1503601870806,-0.012,-0.060,+0.408,+0.911,+0.770,-0.110,-0.614,-2.312,-4.750,+2.438,2, 1, 1, 3, 7, 1, 0, -3,-0.0712375807413634,0.8457964044682263
1503601870834,-0.012,-0.060,+0.407,+0.911,+0.766,-0.105,-0.622,-1.812,-6.438,+2.500,4, 2, -1, -3, -5, -3, -2, -4,-0.07111728690252156,0.8433554195957581
1503601870842,-0.011,-0.060,+0.406,+0.912,+0.755,-0.111,-0.625,-1.812,-6.438,+1.875,16, 13, 2, -2, -5, -2, -2, -2,-0.06918911093165904,0.8413797856820011
1503601870867,-0.011,-0.060,+0.405,+0.912,+0.749,-0.097,-0.624,-1.812,-4.125,+1.688,-2, -3, 0, 0, 0, -2, -2, -4,-0.06906878803329458,0.8389421345133958
1503601870887,-0.011,-0.060,+0.405,+0.912,+0.762,-0.111,-0.629,-0.875,-1.875,+1.438,-5, 3, -4, -2, -2, -3, -3, -2,-0.06906878803329458,0.8389421345133958
1503601870902,-0.010,-0.060,+0.405,+0.912,+0.758,-0.109,-0.624,-1.062,+0.750,+1.500,3, -3, 0, -1, -4, -1, 0, 3,-0.06723679880466588,0.8388615150227142
1503601870929,-0.010,-0.060,+0.406,+0.912,+0.760,-0.107,-0.614,-1.125,+2.312,+1.062,16, 12, 1, 0, 2, 2, -3, -4,-0.0673571467332216,0.8412994074980551
1503601870947,-0.010,-0.060,+0.406,+0.912,+0.775,-0.104,-0.627,-0.750,+1.750,+0.812,-11, -3, -2, -1, -4, 1, 1, -9,-0.0673571467332216,0.8412994074980551
1503601870962,-0.010,-0.060,+0.406,+0.912,+0.773,-0.110,-0.622,-0.375,+0.438,+0.625,-11, -9, -1, 0, 0, 0, 4, 8,-0.0673571467332216,0.8412994074980551
1503601870985,-0.009,-0.060,+0.406,+0.912,+0.769,-0.112,-0.617,-0.812,-0.938,+0.438,-9, -4, 1, 1, 6, 3, 1, 2,-0.06552514799579183,0.8412190148583418
1503601871007,-0.009,-0.060,+0.406,+0.912,+0.764,-0.110,-0.629,-0.938,-1.375,+0.500,-11, -12, -1, -1, -2, 0, 1, -4,-0.06552514799579183,0.8412190148583418
1503601871022,-0.009,-0.060,+0.405,+0.912,+0.760,-0.107,-0.632,-1.000,-0.125,-0.062,25, 1, -2, 0, -1, -2, -3, -3,-0.06540477535766497,0.838780881060502
1503601871044,-0.009,-0.060,+0.406,+0.912,+0.754,-0.105,-0.622,-1.250,+1.438,+0.188,9, -1, -2, -3, -2, -1, 0, 1,-0.06552514799579183,0.8412190148583418
1503601871069,-0.009,-0.059,+0.406,+0.912,+0.768,-0.113,-0.617,-1.125,+1.688,+0.500,3, 8, -3, 1, 1, 2, 1, 5,-0.06469512117734222,0.8410286473101051
1503601871082,-0.008,-0.060,+0.406,+0.912,+0.771,-0.110,-0.619,-0.250,+1.250,+0.750,-8, -2, 1, -3, -3, -1, -1, 1,-0.06369310495685009,0.8411386077600006
1503601871105,-0.008,-0.060,+0.407,+0.912,+0.753,-0.111,-0.614,+0.625,+1.750,+0.750,-2, 0, -2, -2, -2, -1, 1, 1,-0.06381350013498209,0.843578621595484
1503601871127,-0.008,-0.060,+0.407,+0.911,+0.761,-0.115,-0.626,+0.688,+2.625,-0.250,-17, -5, 2, 1, 0, -1, -3, -9,-0.06379744755151912,0.8430344541556236
1503601871143,-0.008,-0.060,+0.408,+0.911,+0.777,-0.110,-0.620,-0.188,+3.312,-0.688,7, -6, -3, -1, -2, -2, -1, 11,-0.0639178411244024,0.8454764097870991
1503601871164,-0.008,-0.060,+0.408,+0.911,+0.771,-0.111,-0.612,-0.188,+3.062,+0.250,2, -5, -4, -2, 0, 0, 1, -9,-0.0639178411244024,0.8454764097870991
1503601871187,-0.008,-0.060,+0.408,+0.911,+0.758,-0.109,-0.623,+0.312,+2.188,-0.188,12, 19, 6, 1, 0, 0, -3, 2,-0.0639178411244024,0.8454764097870991
1503601871203,-0.008,-0.060,+0.409,+0.911,+0.746,-0.112,-0.618,+0.250,+3.188,-1.750,-6, -7, -5, -1, 0, -1, -7, -29,-0.06403823284185811,0.8479199955415618
1503601871223,-0.008,-0.060,+0.410,+0.910,+0.750,-0.113,-0.624,-0.312,+9.812,-2.938,-11, -5, 0, -2, -2, -2, 1, 20,-0.06414257082682068,0.8498213413013833
1503601871246,-0.008,-0.060,+0.412,+0.909,+0.785,-0.110,-0.601,-0.062,+10.625,-2.500,-3, -3, 0, -3, -3, -2, -2, -6,-0.06436729404168565,0.8541734566316913
1503601871261,-0.009,-0.060,+0.414,+0.908,+0.791,-0.107,-0.594,+0.000,+8.562,-2.250,6, -3, -3, -1, -1, -2, -1, 3,-0.0664158461893486,0.858611655069562
1503601871283,-0.009,-0.059,+0.414,+0.908,+0.755,-0.102,-0.613,+0.500,+2.438,-3.500,-2, 0, 1, -1, 0, 0, 0, -1,-0.06556965732188443,0.8584187412642993
1503601871306,-0.010,-0.059,+0.414,+0.908,+0.742,-0.108,-0.613,+1.062,+2.125,-5.438,5, -6, -5, -2, -2, 0, 4, 19,-0.067393186640751,0.8584962652204616
1503601871321,-0.011,-0.059,+0.416,+0.907,+0.763,-0.101,-0.607,+0.500,+16.562,-6.375,8, -2, -2, 0, 0, -1, 0, -1,-0.06943120331181388,0.8629386135821185
1503601871343,-0.011,-0.059,+0.420,+0.906,+0.791,-0.113,-0.601,+0.375,+21.938,-4.688,-10, -5, 4, 1, 0, 1, -1, -6,-0.06988227291106999,0.872233353336418
1503601871366,-0.011,-0.059,+0.423,+0.904,+0.829,-0.111,-0.569,+0.250,+17.938,-2.750,-22, 2, -2, 1, -1, 0, 0, 0,-0.07019299318846377,0.8785450533313018
1503601871388,-0.011,-0.059,+0.425,+0.903,+0.813,-0.106,-0.589,-0.500,+9.062,-3.000,9, 15, 8, 0, 0, -2, -5, -5,-0.0704074824953249,0.882943146023321
1503601871404,-0.012,-0.058,+0.426,+0.903,+0.828,-0.102,-0.579,-0.312,+2.875,-3.125,4, 11, 6, -1, -1, -1, -1, -3,-0.07146834805021043,0.8852937945778295
1503601871426,-0.012,-0.058,+0.427,+0.902,+0.818,-0.103,-0.600,-0.625,+5.750,-1.875,-7, -4, -5, -2, -4, -3, -2, -3,-0.071560525048596,0.887226116363918
1503601871441,-0.012,-0.058,+0.428,+0.902,+0.812,-0.115,-0.589,-1.000,+5.000,+0.000,-4, -6, -5, -3, -1, -1, 0, 1,-0.07167674648407821,0.8897020369695255
1503601871463,-0.011,-0.058,+0.428,+0.902,+0.812,-0.108,-0.572,-2.312,-0.625,+0.438,-14, -7, -5, -3, 2, 1, 2, 3,-0.0698658592235902,0.889628672503906
1503601871486,-0.011,-0.058,+0.427,+0.902,+0.799,-0.092,-0.577,-2.562,-6.000,+0.750,15, 9, 0, 0, 0, -1, -2, 1,-0.06974961335430602,0.8871525042241043
1503601871501,-0.011,-0.057,+0.426,+0.903,+0.780,-0.098,-0.591,-2.188,-7.688,-0.438,-4, -1, -2, -1, 2, -1, 0, -1,-0.06878565651491222,0.8850272445591898
1503601871524,-0.011,-0.057,+0.425,+0.903,+0.761,-0.098,-0.592,-2.125,-4.375,-0.625,3, 4, 0, -2, -3, -1, -1, -2,-0.06867142423391967,0.8825549304054795
