Timestamp,Orientation X,Orientation Y,Orientation Z,Orientation W,Accelerometer X,Accelerometer Y,Accelerometer Z,Gyroscope X,Gyroscope Y,Gyroscope Z,EMG1,EMG2,EMG3,EMG4,EMG5,EMG6,EMG7,EMG8,Roll,Yaw
1503601791870,-0.762,-0.093,+0.130,+0.628,+0.324,+0.069,-0.926,-0.312,-0.250,+0.125,-2, -4, -1, 0, -1, -1, 0, -2,-1.7508239822445433,0.3110057172328543
1503601791886,-0.762,-0.094,+0.130,+0.628,+0.323,+0.069,-0.930,-0.562,+0.500,-0.062,0, -1, -1, -2, -2, -1, 0, -1,-1.7511461261738996,0.3125760342073426
1503601791913,-0.762,-0.094,+0.130,+0.628,+0.325,+0.060,-0.917,-0.438,+1.125,-0.625,-1, -1, 0, -2, 6, -1, 0, -1,-1.7511461261738996,0.3125760342073426
1503601791931,-0.762,-0.094,+0.130,+0.628,+0.330,+0.067,-0.929,-0.250,+2.000,-0.125,0, 1, -1, -3, -9, -1, 0, 2,-1.7511461261738996,0.3125760342073426
1503601791946,-0.762,-0.094,+0.131,+0.628,+0.339,+0.063,-0.926,-1.000,+0.312,-0.438,-5, -1, -2, -1, -2, 0, 0, -1,-1.7511123322236761,0.3139361561125507
1503601791968,-0.761,-0.094,+0.131,+0.628,+0.330,+0.063,-0.924,-1.062,+0.188,+0.500,-4, -2, -1, -3, -10, -3, -2, 0,-1.7483301155575943,0.3137567456983577
1503601791991,-0.761,-0.094,+0.131,+0.628,+0.331,+0.074,-0.917,-1.000,-0.438,+0.375,0, -2, -2, -1, -3, -4, -2, -3,-1.7483301155575943,0.3137567456983577
1503601792006,-0.761,-0.094,+0.131,+0.628,+0.321,+0.070,-0.924,-0.375,+0.000,+0.125,1, -1, -1, -1, -1, -1, -1, -1,-1.7483301155575943,0.3137567456983577
1503601792028,-0.761,-0.094,+0.130,+0.628,+0.335,+0.065,-0.932,+0.312,+0.125,+0.625,5, 1, 0, 0, 1, 4, 2, 2,-1.748363453027575,0.312396564503072
1503601792051,-0.761,-0.094,+0.130,+0.628,+0.340,+0.060,-0.927,-0.188,-1.438,+1.125,-2, -1, -1, -1, -3, -1, -1, 1,-1.748363453027575,0.312396564503072
1503601792066,-0.761,-0.094,+0.130,+0.629,+0.324,+0.060,-0.929,-0.250,-2.750,+1.500,-1, -2, -1, -1, -3, -2, 1, 3,-1.7480939166820768,0.31264476177344536
1503601792088,-0.761,-0.094,+0.129,+0.629,+0.323,+0.070,-0.927,-0.500,-2.750,+1.500,-1, 0, -1, -1, -3, 0, -3, -2,-1.748127166426718,0.3112842829418298
1503601792112,-0.761,-0.094,+0.129,+0.629,+0.317,+0.062,-0.931,-0.938,-1.875,+1.062,0, 0, 0, 1, -4, 0, 1, 1,-1.748127166426718,0.3112842829418298
1503601792126,-0.761,-0.093,+0.129,+0.629,+0.325,+0.056,-0.927,-2.062,-0.500,+0.875,3, 0, -2, -1, 1, -1, 0, 1,-1.747803542975757,0.3097159384425073
1503601792152,-0.761,-0.093,+0.129,+0.629,+0.331,+0.064,-0.924,-2.312,+0.000,+0.562,1, 3, 2, 3, 9, 2, 2, 2,-1.747803542975757,0.3097159384425073
1503601792170,-0.760,-0.093,+0.129,+0.629,+0.324,+0.074,-0.927,-1.438,-0.250,+0.312,-1, 0, 0, 0, -4, 0, 1, 0,-1.7450170378561072,0.30953821838456064
1503601792188,-0.760,-0.093,+0.129,+0.630,+0.321,+0.064,-0.920,-0.750,-0.562,-0.125,0, -1, -2, -1, 0, -2, 1, 0,-1.7447526705305307,0.30978472787758177
1503601792208,-0.760,-0.093,+0.129,+0.630,+0.320,+0.062,-0.925,-0.750,+0.562,-0.062,3, 0, 1, 1, -2, -2, 0, 0,-1.7447526705305307,0.30978472787758177
1503601792230,-0.760,-0.093,+0.129,+0.630,+0.331,+0.066,-0.922,-1.000,+1.188,-0.250,0, 2, -1, -2, -5, -1, -1, 0,-1.7447526705305307,0.30978472787758177
1503601792246,-0.760,-0.094,+0.130,+0.630,+0.331,+0.066,-0.927,-0.875,+0.812,-0.250,2, 0, 0, -2, -5, -2, 0, 4,-1.7450446674344033,0.31271348628599166
1503601792268,-0.760,-0.094,+0.130,+0.630,+0.329,+0.072,-0.917,-0.500,-0.250,+0.312,3, -1, -1, -2, 2, 0, -2, -2,-1.7450446674344033,0.31271348628599166
1503601792292,-0.760,-0.094,+0.129,+0.630,+0.328,+0.071,-0.924,+0.125,-0.500,+0.688,-1, -1, 0, 0, -5, -4, -2, 1,-1.74507736017036,0.31135112064297127
1503601792307,-0.760,-0.094,+0.129,+0.630,+0.326,+0.066,-0.926,+0.312,-0.688,+0.438,-2, 1, 0, -1, -4, -1, -1, 0,-1.74507736017036,0.31135112064297127
1503601792328,-0.760,-0.094,+0.129,+0.630,+0.325,+0.067,-0.938,+0.000,+0.625,+0.188,-1, -1, -2, -3, 7, 0, 0, -2,-1.74507736017036,0.31135112064297127
1503601792350,-0.760,-0.094,+0.129,+0.630,+0.326,+0.067,-0.924,+0.000,+0.500,-0.250,-4, -2, -3, 0, 0, -1, 0, -2,-1.74507736017036,0.31135112064297127
1503601792366,-0.760,-0.094,+0.129,+0.630,+0.330,+0.065,-0.922,+0.812,+0.125,+0.438,-1, -1, -2, -2, -1, -2, -2, -3,-1.74507736017036,0.31135112064297127
1503601792388,-0.760,-0.094,+0.129,+0.630,+0.335,+0.070,-0.916,+1.500,-0.250,+0.688,-2, -3, -1, -2, 1, 1, -2, 1,-1.74507736017036,0.31135112064297127
1503601792410,-0.760,-0.094,+0.129,+0.630,+0.335,+0.068,-0.922,+2.375,-0.875,+0.812,-2, -1, -2, 1, -1, 2, 1, -2,-1.74507736017036,0.31135112064297127
1503601792426,-0.760,-0.094,+0.128,+0.630,+0.338,+0.060,-0.930,+2.375,-1.750,+1.188,2, 0, -2, 0, -5, -2, 0, 3,-1.7451100650518112,0.30999027143155633
1503601792448,-0.760,-0.094,+0.127,+0.630,+0.326,+0.056,-0.936,+1.750,-2.938,+1.062,-2, -4, -3, -3, -4, -1, 0, -1,-1.745142782085457,0.3086309276235716
1503601792470,-0.760,-0.094,+0.127,+0.630,+0.316,+0.051,-0.936,+0.375,-1.812,+0.875,0, 0, 2, -1, -8, -5, -2, 0,-1.745142782085457,0.3086309276235716
1503601792489,-0.760,-0.094,+0.127,+0.630,+0.322,+0.053,-0.938,-0.625,-0.562,+0.500,-5, -1, 1, 3, -3, -1, 2, -2,-1.745142782085457,0.3086309276235716
1503601792508,-0.760,-0.094,+0.127,+0.630,+0.322,+0.052,-0.933,-1.250,-0.125,-0.062,-2, -2, -2, -1, 3, -1, -3, 0,-1.745142782085457,0.3086309276235716
1503601792530,-0.760,-0.094,+0.127,+0.631,+0.325,+0.054,-0.930,-1.812,+1.688,+0.438,-2, -1, -2, 0, 12, 0, -3, -5,-1.744878609061213,0.3088735901492564
1503601792545,-0.760,-0.095,+0.127,+0.631,+0.329,+0.057,-0.932,-2.500,+1.562,+0.375,0, 0, -1, -4, -11, -2, -1, -1,-1.7452074292033253,0.310440691819849
1503601792568,-0.760,-0.095,+0.127,+0.631,+0.321,+0.049,-0.935,-2.938,+1.688,-0.250,-2, -2, -1, -3, -2, 1, -3, -1,-1.7452074292033253,0.310440691819849
1503601792590,-0.760,-0.095,+0.128,+0.631,+0.329,+0.051,-0.945,-4.188,+3.812,-0.375,1, -1, -1, 0, 1, 0, 1, 2,-1.7451744120888042,0.31180188023235905
1503601792606,-0.760,-0.095,+0.129,+0.630,+0.320,+0.053,-0.927,-5.625,+6.188,-2.312,2, 1, -2, 2, 4, 0, 1, -4,-1.7454057920765216,0.31291840390987524
1503601792628,-0.760,-0.096,+0.131,+0.630,+0.314,+0.064,-0.920,-5.375,+9.750,-4.562,4, 0, -1, 1, -1, 0, 3, 5,-1.7456709906708574,0.3172129136015755
1503601792650,-0.760,-0.096,+0.133,+0.629,+0.326,+0.062,-0.923,-5.625,+11.312,-5.188,-2, 0, -2, 0, 3, 1, -1, -3,-1.7458692610518747,0.3196920536663116
1503601792665,-0.760,-0.097,+0.134,+0.628,+0.337,+0.065,-0.924,-5.812,+10.438,-4.062,-4, -3, 0, 0, -1, -1, -1, 3,-1.7464363290197584,0.3223731043343968
1503601792689,-0.760,-0.098,+0.136,+0.628,+0.342,+0.077,-0.913,-5.688,+9.750,-2.688,-5, -2, -2, -1, 1, 0, -2, -2,-1.746705919306039,0.32667819865320924
1503601792709,-0.760,-0.099,+0.138,+0.627,+0.358,+0.067,-0.915,-5.500,+9.000,-2.125,2, 1, 0, -1, -5, -3, 2, 3,-1.7472451931983548,0.3307286788691897
1503601792725,-0.760,-0.099,+0.139,+0.627,+0.357,+0.069,-0.911,-5.250,+7.250,-2.938,-5, -3, -1, -4, -4, -2, -3, -7,-1.7472102984788234,0.3320998487308061
1503601792747,-0.760,-0.100,+0.141,+0.626,+0.353,+0.084,-0.896,-4.750,+7.125,-3.188,3, 3, 1, 0, 0, 0, -7, -8,-1.7477524613831175,0.3361523712189914
1503601792770,-0.760,-0.100,+0.142,+0.626,+0.356,+0.096,-0.901,-2.812,+5.688,-2.812,0, -1, 0, 4, 17, 5, 1, 2,-1.7477170939608169,0.33752668446994427
1503601792784,-0.760,-0.101,+0.142,+0.626,+0.355,+0.089,-0.909,-0.875,+4.188,-1.250,1, 0, -1, -3, -12, -2, 0, 1,-1.7480642901160877,0.33910036046550013
1503601792807,-0.760,-0.101,+0.143,+0.626,+0.361,+0.079,-0.912,+0.500,+3.125,-0.875,2, 1, 0, -3, -10, -6, 2, -4,-1.7480285264641624,0.34047635592959746
1503601792830,-0.760,-0.102,+0.143,+0.625,+0.358,+0.078,-0.904,+1.250,+2.312,-1.062,-2, -3, 0, 0, -3, -1, -2, -1,-1.7486489136697971,0.3417804477870987
1503601792850,-0.760,-0.102,+0.143,+0.625,+0.356,+0.071,-0.919,+1.750,+2.000,-1.125,0, -2, -1, 0, -3, -1, 0, 2,-1.7486489136697971,0.3417804477870987
1503601792867,-0.761,-0.103,+0.142,+0.625,+0.355,+0.073,-0.914,+1.812,+1.438,-0.750,1, -1, 0, 2, 4, -3, -1, 1,-1.7518213517321066,0.34217679234485987
1503601792891,-0.761,-0.103,+0.142,+0.625,+0.354,+0.064,-0.922,+1.375,+2.562,-1.000,-3, -1, -1, -3, -4, -2, -4, -5,-1.7518213517321066,0.34217679234485987
1503601792904,-0.761,-0.104,+0.142,+0.625,+0.360,+0.067,-0.913,+0.312,+2.438,-0.750,1, 1, -1, 3, 4, 1, 0, 1,-1.7521784760704835,0.3437552639239875
1503601792927,-0.761,-0.104,+0.142,+0.625,+0.358,+0.068,-0.922,-0.312,+2.625,-0.938,-3, -3, -1, -2, 13, 2, -1, -2,-1.7521784760704835,0.3437552639239875
1503601792950,-0.761,-0.105,+0.143,+0.624,+0.362,+0.069,-0.911,-1.062,+3.812,-0.938,-3, -4, -3, -3, -7, -1, 0, 3,-1.7527773297471647,0.3464388944200341
1503601792964,-0.761,-0.105,+0.143,+0.624,+0.365,+0.070,-0.904,-1.500,+4.125,-1.500,0, -2, 0, -1, -1, 0, 0, -1,-1.7527773297471647,0.3464388944200341
1503601792987,-0.761,-0.106,+0.144,+0.624,+0.363,+0.074,-0.910,-0.688,+4.062,-1.750,0, -2, -2, -2, 1, -2, 0, 5,-1.7531032855334112,0.34939360272313663
1503601793011,-0.761,-0.106,+0.144,+0.624,+0.359,+0.073,-0.914,-0.562,+5.125,-1.812,8, 5, -1, -1, -4, -1, -2, 0,-1.7531032855334112,0.34939360272313663
1503601793025,-0.761,-0.107,+0.145,+0.623,+0.365,+0.075,-0.903,+0.250,+4.438,-1.625,3, 2, 2, 1, 0, -1, -1, 0,-1.753709667893127,0.35207777522325695
1503601793049,-0.761,-0.108,+0.145,+0.623,+0.365,+0.075,-0.912,+0.062,+4.438,-1.000,-8, -4, -2, -3, -5, 0, 0, 5,-1.7540811521328163,0.35366058582165794
1503601793070,-0.761,-0.108,+0.145,+0.623,+0.369,+0.079,-0.906,+0.500,+3.875,-0.938,0, 0, -1, -2, 0, 0, -1, -14,-1.7540811521328163,0.35366058582165794
1503601793085,-0.761,-0.109,+0.146,+0.623,+0.369,+0.080,-0.910,+0.688,+3.938,-1.125,-1, -4, -2, -2, -15, -5, -2, -1,-1.7544163702591002,0.3566201359514319
1503601793107,-0.761,-0.110,+0.146,+0.622,+0.385,+0.073,-0.909,+0.125,+2.688,-0.875,6, 2, 1, -2, -4, 0, 1, 5,-1.7550744476866267,0.357930491888027
1503601793130,-0.761,-0.110,+0.146,+0.622,+0.377,+0.062,-0.904,-0.375,+0.625,-0.312,-1, -4, -2, -2, -1, 13, 5, -1,-1.7550744476866267,0.357930491888027
1503601793144,-0.761,-0.110,+0.146,+0.623,+0.376,+0.068,-0.917,-0.812,-0.625,+0.500,-1, 0, -4, 0, -1, -1, 0, 0,-1.7547947662393941,0.35820497070989765
1503601793167,-0.761,-0.109,+0.146,+0.623,+0.373,+0.064,-0.917,-2.000,-2.625,+1.312,0, 0, 2, 0, 3, 3, -2, -5,-1.7544163702591002,0.3566201359514319
1503601793190,-0.761,-0.109,+0.146,+0.623,+0.352,+0.066,-0.901,-2.938,-0.125,+0.500,-3, -1, 1, 3, 11, 13, 2, 0,-1.7544163702591002,0.3566201359514319
1503601793205,-0.760,-0.109,+0.146,+0.623,+0.370,+0.079,-0.919,-2.312,+2.312,+0.625,2, 3, -1, 0, -1, -1, -5, -4,-1.7516391659185735,0.356415075774363
1503601793227,-0.760,-0.109,+0.146,+0.623,+0.369,+0.070,-0.905,-0.750,+3.062,+0.312,0, 1, 1, 0, 2, -4, -1, 0,-1.7516391659185735,0.356415075774363
1503601793250,-0.760,-0.110,+0.146,+0.623,+0.369,+0.072,-0.912,-0.312,+1.875,-0.188,-4, -4, -4, -1, -2, -4, -3, 1,-1.7520192603812503,0.3579981768346612
1503601793264,-0.760,-0.110,+0.147,+0.623,+0.372,+0.062,-0.910,-1.000,+3.125,-1.312,-3, -5, -3, -3, -4, -7, -2, -4,-1.7519794338390013,0.3593757167312803
1503601793287,-0.760,-0.111,+0.147,+0.623,+0.381,+0.068,-0.908,-1.375,+3.438,-1.000,7, 3, -2, -1, -1, -7, 1, 3,-1.7523627684754048,0.3609598494667285
1503601793310,-0.760,-0.111,+0.148,+0.623,+0.403,+0.075,-0.903,-2.438,+1.312,+0.625,1, 1, 0, 0, -1, -3, -3, 1,-1.7523225282702102,0.36233911973711064
1503601793326,-0.760,-0.110,+0.148,+0.623,+0.384,+0.070,-0.915,-4.000,-3.875,+1.750,-8, -7, -2, -3, -2, -3, 0, 3,-1.751939624606061,0.36075497929051803
1503601793347,-0.760,-0.109,+0.147,+0.624,+0.365,+0.073,-0.913,-4.125,-5.875,+2.250,-2, -2, -3, -3, -6, -2, 0, 2,-1.7513255439969224,0.3580690370321353
1503601793370,-0.759,-0.108,+0.147,+0.624,+0.357,+0.071,-0.904,-5.625,-4.125,+2.125,-1, -2, -3, -4, -1, -3, -4, -5,-1.7481697519873194,0.35628390479999317
1503601793384,-0.759,-0.108,+0.148,+0.625,+0.349,+0.078,-0.909,-5.250,+1.312,+0.562,0, 2, 3, 2, 2, 0, 12, 8,-1.7478626590101398,0.35794338352799415
1503601793407,-0.759,-0.108,+0.149,+0.625,+0.379,+0.083,-0.906,-4.188,+3.500,+0.062,1, 0, 1, 3, -5, 1, -2, -6,-1.7478244788983892,0.3593279793897176
1503601793430,-0.759,-0.108,+0.149,+0.625,+0.387,+0.076,-0.910,-3.062,+0.875,+0.938,-4, -4, -2, -4, -7, -2, -2, -3,-1.7478244788983892,0.3593279793897176
1503601793444,-0.758,-0.107,+0.149,+0.625,+0.369,+0.066,-0.905,-4.688,-2.062,+2.250,1, 1, 1, 1, 5, 0, -2, -2,-1.7446694878947941,0.3575476760382013
1503601793467,-0.758,-0.107,+0.150,+0.626,+0.341,+0.080,-0.910,-6.562,+0.125,+2.125,-2, -2, -3, -3, -2, -5, -5, -5,-1.7443690237731055,0.3592161934499152
1503601793490,-0.758,-0.107,+0.151,+0.626,+0.339,+0.089,-0.925,-6.625,+8.500,+0.625,-4, -1, -1, -1, 2, 0, -8, -7,-1.7443319279660063,0.36060612339102266
1503601793505,-0.757,-0.108,+0.153,+0.626,+0.383,+0.082,-0.924,-7.250,+11.125,+1.562,-6, 0, -1, 1, 0, -2, 4, 11,-1.7418488405766708,0.3647656342195839
1503601793528,-0.757,-0.108,+0.155,+0.626,+0.380,+0.090,-0.906,-6.062,+10.688,+1.625,1, 0, 1, 4, 4, 5, 5, 3,-1.7417749928552873,0.36755810658074256
1503601793550,-0.756,-0.109,+0.157,+0.626,+0.383,+0.067,-0.909,-8.500,+9.938,-0.062,-13, -2, 0, -1, -1, -2, -5, -5,-1.7392940451586043,0.3717300291437201
1503601793565,-0.756,-0.109,+0.159,+0.626,+0.372,+0.067,-0.902,-11.562,+12.562,-3.000,3, -2, -4, -5, -6, -6, -14, 7,-1.7392205788211508,0.374537214987765
1503601793587,-0.755,-0.110,+0.163,+0.625,+0.455,+0.084,-0.875,-16.312,+9.562,-0.562,2, 20, -9, 4, 13, 15, 19, 4,-1.7369198611892127,0.3812397961226159
1503601793610,-0.754,-0.108,+0.165,+0.626,+0.480,+0.117,-0.895,-17.000,-3.000,+3.625,1, -21, -9, 1, 2, -2, -2, -33,-1.733048807977802,0.38102525576444435
1503601793632,-0.753,-0.105,+0.165,+0.628,+0.449,+0.119,-0.893,-17.125,-20.125,+4.562,-5, 10, 5, -1, 3, -2, -8, -16,-1.7286569911418368,0.37673880036575647
1503601793647,-0.753,-0.100,+0.165,+0.629,+0.347,+0.104,-0.892,-15.500,-22.375,+2.062,3, -3, -1, -3, -2, 0, -8, 13,-1.7266395827269434,0.36923271827065063
1503601793670,-0.753,-0.097,+0.164,+0.629,+0.314,+0.120,-0.903,-10.250,-9.000,+0.062,1, -1, -3, -1, -3, -8, -33, -39,-1.7256466910530397,0.36313363012544186
1503601793692,-0.753,-0.096,+0.166,+0.629,+0.342,+0.128,-0.887,-8.500,+2.062,-1.750,0, -8, -8, -2, -2, -2, -9, 38,-1.725253107963807,0.36442037302057745
1503601793707,-0.753,-0.096,+0.166,+0.629,+0.360,+0.147,-0.925,-5.062,+1.438,-1.938,-4, 15, 8, 2, 1, -4, -28, -28,-1.725253107963807,0.36442037302057745
1503601793730,-0.753,-0.096,+0.167,+0.629,+0.364,+0.117,-0.904,-2.375,+5.000,-1.562,0, -3, 10, 2, -3, -4, 14, 8,-1.7252233057701292,0.36584538518635534
1503601793745,-0.753,-0.097,+0.168,+0.629,+0.394,+0.105,-0.901,-3.750,+6.375,-1.188,-4, -38, -17, -2, 2, 8, 14, -1,-1.7255260068060494,0.36882989307537206
1503601793767,-0.753,-0.097,+0.169,+0.629,+0.399,+0.122,-0.901,-3.250,+2.812,+0.250,-1, -7, -9, -4, 1, 1, 16, 1,-1.7254958648964354,0.37025881483271716
1503601793789,-0.753,-0.097,+0.169,+0.629,+0.399,+0.123,-0.896,-2.812,+0.188,+1.125,-6, -11, -7, -2, -3, -1, -1, -11,-1.7254958648964354,0.37025881483271716
1503601793805,-0.753,-0.097,+0.169,+0.629,+0.392,+0.122,-0.890,-1.812,-2.750,+1.375,-1, 11, 6, 1, 0, 3, 6, 8,-1.7254958648964354,0.37025881483271716
1503601793827,-0.752,-0.096,+0.169,+0.629,+0.383,+0.126,-0.898,-0.688,-3.562,+1.562,5, 19, 3, 0, -1, -3, 6, 2,-1.7223543201877156,0.36852052331055024
1503601793850,-0.752,-0.096,+0.168,+0.630,+0.366,+0.124,-0.904,+0.250,-3.125,+1.875,0, 5, 3, 2, 3, 4, 10, -4,-1.72215445912049,0.3674079200086523
1503601793865,-0.752,-0.096,+0.168,+0.630,+0.359,+0.119,-0.910,+1.188,-0.438,+1.312,-3, 2, 0, -4, -4, -8, -24, -21,-1.72215445912049,0.3674079200086523
1503601793887,-0.752,-0.097,+0.167,+0.630,+0.378,+0.121,-0.892,+3.188,+2.125,+1.688,-3, 1, -1, -3, 0, 2, -1, 5,-1.7225177941070526,0.3675346848782173
1503601793910,-0.752,-0.098,+0.167,+0.630,+0.384,+0.125,-0.898,+4.312,+1.562,+2.312,-1, 1, 5, 4, 4, 4, 0, 4,-1.7228556389841136,0.3690911281254754
1503601793926,-0.752,-0.099,+0.166,+0.630,+0.375,+0.112,-0.905,+5.688,+1.500,+1.938,-3, -1, 0, -2, 0, -1, -6, -1,-1.723227508450616,0.3692215915822681
1503601793947,-0.752,-0.100,+0.166,+0.630,+0.371,+0.105,-0.897,+5.625,+3.688,+0.125,3, 4, -2, -1, -1, 1, -1, -7,-1.7235731513247443,0.3707798350849967
1503601793977,-0.752,-0.101,+0.166,+0.630,+0.375,+0.102,-0.901,+4.438,+5.938,-1.000,-2, -3, -5, -3, -3, 2, 8, 0,-1.723922505910914,0.3723389983735029
1503601793992,-0.752,-0.102,+0.166,+0.630,+0.400,+0.104,-0.890,+1.875,+7.438,-0.250,-2, 2, 3, 1, -2, -3, -4, 5,-1.7242755671146899,0.37389909095450313
1503601794007,-0.752,-0.103,+0.166,+0.630,+0.412,+0.118,-0.896,+2.750,+2.875,+0.875,0, 0, 0, 2, 2, 2, 0, 0,-1.7246323298303556,0.375460122316757
1503601794032,-0.752,-0.104,+0.166,+0.630,+0.399,+0.112,-0.898,+4.375,-1.062,+1.000,0, -1, 0, -2, -2, -2, 2, 3,-1.7249927889408219,0.37702210193105024
1503601794045,-0.752,-0.104,+0.165,+0.630,+0.378,+0.105,-0.892,+4.312,-1.438,-0.562,-3, 0, 0, -1, 1, 1, -5, -3,-1.7250249395258765,0.3755971214626297
1503601794067,-0.752,-0.105,+0.164,+0.630,+0.381,+0.097,-0.894,+3.125,-0.625,-0.562,-2, -3, -4, 0, 1, 1, 1, -5,-1.725421998887189,0.37573698724819676
1503601794090,-0.752,-0.105,+0.164,+0.630,+0.386,+0.092,-0.898,+1.375,+1.875,-0.125,-5, -3, -1, -3, 1, -3, 2, 1,-1.725421998887189,0.37573698724819676
1503601794105,-0.752,-0.106,+0.164,+0.630,+0.403,+0.098,-0.887,-0.312,+1.188,+0.062,-2, -1, -1, -2, -1, -3, -21, -26,-1.7257905842943162,0.3773008909028898
1503601794127,-0.752,-0.105,+0.164,+0.630,+0.408,+0.110,-0.889,-0.188,-2.500,+1.062,4, 2, 0, -2, -17, -2, 6, 14,-1.725421998887189,0.37573698724819676
1503601794149,-0.752,-0.105,+0.163,+0.630,+0.390,+0.115,-0.895,+1.625,-6.625,+1.562,4, 1, -2, 0, 2, 2, 8, 12,-1.7254545490515443,0.3743158180296235
1503601794167,-0.752,-0.104,+0.162,+0.630,+0.371,+0.117,-0.890,+4.562,-6.312,+1.000,2, 2, 0, -1, 2, 1, -2, -2,-1.7251214711336889,0.3713336118931344
1503601794187,-0.752,-0.105,+0.161,+0.630,+0.360,+0.103,-0.900,+7.000,-0.688,-0.500,1, 0, -2, 2, 5, 1, 3, 3,-1.7255196901815426,0.3714791377946483
1503601794212,-0.753,-0.106,+0.160,+0.630,+0.365,+0.067,-0.920,+6.750,+3.062,-1.750,-4, 0, -1, -1, 2, 1, 0, 2,-1.728715286915295,0.37182616408499763
1503601794225,-0.753,-0.107,+0.159,+0.630,+0.376,+0.070,-0.918,+3.062,+5.000,-2.812,-1, 0, 0, -2, 1, 2, 1, 2,-1.7291212428767826,0.37197916310965057
1503601794247,-0.753,-0.108,+0.160,+0.629,+0.394,+0.083,-0.891,+1.000,+4.625,-2.562,-1, -1, -2, 0, -1, 0, 2, 0,-1.7297023910142648,0.37466092784305993
1503601794270,-0.753,-0.109,+0.160,+0.629,+0.409,+0.083,-0.909,+0.250,+0.938,+0.062,-2, -2, -2, 0, 0, 0, 1, -1,-1.7300822825216882,0.3762297504677076
1503601794285,-0.753,-0.109,+0.160,+0.629,+0.411,+0.087,-0.896,-1.188,-1.250,+0.938,-1, 0, 1, 0, -2, -4, -1, 0,-1.7300822825216882,0.3762297504677076
1503601794309,-0.753,-0.109,+0.159,+0.630,+0.409,+0.090,-0.880,-0.312,-2.812,+2.188,1, -1, 0, 0, -1, -1, -2, -1,-1.729877172000807,0.37511534924223877
1503601794329,-0.753,-0.108,+0.159,+0.630,+0.388,+0.115,-0.896,+2.812,-5.625,+1.875,-7, -5, -3, -2, 0, -1, -5, -4,-1.72949736903611,0.3735467547571736
1503601794345,-0.753,-0.108,+0.157,+0.630,+0.354,+0.086,-0.899,+4.125,-3.562,-1.500,0, 1, -1, -1, -2, -1, -3, -3,-1.729565969111137,0.37072507322976994
1503601794368,-0.753,-0.108,+0.157,+0.630,+0.359,+0.078,-0.916,+3.250,+0.625,-1.750,-2, -2, -1, -1, 0, 1, 0, -4,-1.729565969111137,0.37072507322976994
1503601794412,-0.753,-0.109,+0.156,+0.629,+0.370,+0.076,-0.927,+1.875,+3.312,-1.125,0, -2, -1, 0, -1, 0, -4, -1,-1.7302214441375796,0.37059335451666836
1503601794414,-0.753,-0.110,+0.157,+0.629,+0.384,+0.082,-0.902,+0.062,+3.750,-0.250,-2, -1, 0, -1, -3, -1, 0, -1,-1.7305713657556805,0.3735695419283712
1503601794427,-0.753,-0.110,+0.157,+0.629,+0.402,+0.089,-0.899,-0.875,+3.062,+1.062,1, 2, 2, 0, 0, -2, -1, 1,-1.7305713657556805,0.3735695419283712
1503601794449,-0.753,-0.111,+0.157,+0.630,+0.404,+0.083,-0.899,-0.750,+0.688,+1.000,0, -1, -1, 0, -2, -1, 0, 4,-1.7307187192884859,0.3754339168339755
1503601794470,-0.753,-0.111,+0.157,+0.630,+0.401,+0.082,-0.894,-0.625,-1.812,+0.625,0, 0, 0, -1, -2, -3, -1, -3,-1.7307187192884859,0.3754339168339755
1503601794487,-0.753,-0.110,+0.157,+0.630,+0.389,+0.085,-0.899,-0.625,-4.500,+0.688,2, 2, 0, 1, 0, 1, -1, -2,-1.730330796897942,0.3738632806392162
1503601794510,-0.753,-0.109,+0.156,+0.630,+0.369,+0.083,-0.906,-1.000,-4.812,+0.250,2, 1, 1, 2, 1, -1, 0, 4,-1.729981254236308,0.3708855659608051
1503601794525,-0.753,-0.108,+0.156,+0.630,+0.366,+0.082,-0.905,-3.125,-3.188,-1.312,-3, -3, -2, -2, -1, -1, -1, -3,-1.72960029120594,0.3693169700950866
1503601794547,-0.753,-0.108,+0.156,+0.630,+0.364,+0.085,-0.905,-1.750,+0.000,-0.812,-2, 3, 3, 1, -1, -3, -3, -2,-1.72960029120594,0.3693169700950866
1503601794570,-0.753,-0.109,+0.156,+0.630,+0.382,+0.084,-0.898,-0.125,+3.000,-0.312,0, -4, 7, 1, 1, -1, 0, -3,-1.729981254236308,0.3708855659608051
1503601794585,-0.753,-0.109,+0.156,+0.630,+0.402,+0.082,-0.905,-0.188,+2.000,+0.500,-2, -2, -4, -1, -2, -1, -2, -4,-1.729981254236308,0.3708855659608051
1503601794608,-0.753,-0.109,+0.156,+0.630,+0.397,+0.078,-0.901,-0.438,-1.625,+0.812,0, 2, 1, -1, 0, 0, 0, -1,-1.729981254236308,0.3708855659608051
1503601794630,-0.752,-0.109,+0.156,+0.631,+0.382,+0.089,-0.896,-0.250,-3.312,+1.188,-2, 1, -1, 0, -4, -2, -3, -1,-1.7269559283765057,0.370973591009914
1503601794652,-0.752,-0.109,+0.155,+0.631,+0.383,+0.092,-0.903,-0.250,-2.500,+0.875,-1, 1, 2, 1, 3, 1, 0, 7,-1.7269900058982188,0.3695654611001646
1503601794669,-0.752,-0.109,+0.155,+0.631,+0.377,+0.083,-0.911,+0.000,-1.312,+0.500,2, 0, -4, 0, 1, 0, 2, 3,-1.7269900058982188,0.3695654611001646
1503601794689,-0.752,-0.109,+0.155,+0.631,+0.378,+0.092,-0.901,+0.062,-0.438,+0.562,4, 0, 0, -2, -2, -3, 0, -4,-1.7269900058982188,0.3695654611001646
1503601794712,-0.752,-0.109,+0.155,+0.631,+0.380,+0.085,-0.906,+0.500,+0.625,+0.312,-3, -1, 0, -1, 1, 0, 0, -2,-1.7269900058982188,0.3695654611001646
1503601794727,-0.752,-0.109,+0.155,+0.631,+0.379,+0.081,-0.900,+0.750,+0.688,+0.188,0, -2, -2, -2, 0, -1, 0, 4,-1.7269900058982188,0.3695654611001646
1503601794749,-0.752,-0.109,+0.155,+0.631,+0.388,+0.081,-0.909,+0.188,+0.750,+0.312,-3, -2, -3, -2, -1, -3, -3, 0,-1.7269900058982188,0.3695654611001646
1503601794772,-0.752,-0.109,+0.155,+0.631,+0.385,+0.077,-0.909,+0.250,-0.562,+0.250,-1, 0, 1, 2, 0, 0, -1, 0,-1.7269900058982188,0.3695654611001646
1503601794788,-0.752,-0.109,+0.154,+0.631,+0.387,+0.076,-0.903,-0.562,-1.688,+0.562,-2, -2, -2, -4, -1, -3, -1, -3,-1.7270240981749094,0.3681591285015459
1503601794809,-0.752,-0.109,+0.154,+0.631,+0.380,+0.081,-0.906,-0.812,-1.062,+0.438,-1, -1, 0, -1, -1, -2, -1, -2,-1.7270240981749094,0.3681591285015459
1503601794840,-0.752,-0.109,+0.154,+0.631,+0.375,+0.086,-0.904,+0.250,-1.188,+0.438,-2, -3, -1, -2, -4, -1, -2, -3,-1.7270240981749094,0.3681591285015459
1503601794848,-0.752,-0.109,+0.154,+0.631,+0.377,+0.075,-0.908,+0.375,+0.625,+0.062,-2, -4, -3, -2, 0, -1, 0, -1,-1.7270240981749094,0.3681591285015459
1503601794873,-0.752,-0.109,+0.154,+0.631,+0.381,+0.077,-0.909,-0.375,+0.500,+0.062,-2, -1, 1, 1, 0, -2, -1, -2,-1.7270240981749094,0.3681591285015459
1503601794892,-0.752,-0.109,+0.154,+0.631,+0.386,+0.077,-0.905,-1.188,+0.250,+0.375,2, -1, 0, 0, 0, -1, 0, 1,-1.7270240981749094,0.3681591285015459
1503601794908,-0.752,-0.109,+0.154,+0.632,+0.391,+0.083,-0.896,-1.625,-0.875,+0.625,1, 0, -2, -1, -2, 0, -1, -2,-1.7267891926786505,0.36844775265192614
1503601794929,-0.752,-0.109,+0.154,+0.632,+0.378,+0.086,-0.906,-1.125,-1.312,+0.688,1, 0, 2, -1, -4, -2, -2, 0,-1.7267891926786505,0.36844775265192614
1503601794952,-0.752,-0.108,+0.154,+0.632,+0.381,+0.083,-0.894,-0.750,-1.188,+0.250,-2, 0, -2, 0, 3, 0, 1, -1,-1.726406716527976,0.36688131048094974
1503601794968,-0.752,-0.108,+0.154,+0.632,+0.378,+0.076,-0.910,-0.688,-0.688,+0.562,2, 1, -1, 1, -1, 0, -1, 3,-1.726406716527976,0.36688131048094974
1503601794990,-0.752,-0.108,+0.154,+0.632,+0.383,+0.076,-0.911,-1.000,-1.750,+0.500,-2, -2, -2, 1, 4, 1, -1, 0,-1.726406716527976,0.36688131048094974
1503601795012,-0.752,-0.108,+0.153,+0.632,+0.380,+0.081,-0.902,-1.125,-1.938,+0.750,-5, -3, 1, -1, -1, 0, -1, -4,-1.7264403404607813,0.3654750092564461
1503601795028,-0.751,-0.108,+0.153,+0.633,+0.375,+0.087,-0.903,-0.750,-1.188,+1.000,-2, -1, -3, 0, -3, -1, 0, -1,-1.7234198383743768,0.3655594330341421
1503601795050,-0.751,-0.108,+0.153,+0.633,+0.374,+0.077,-0.905,-0.438,-0.188,+0.688,0, -1, 1, -1, 3, -1, -1, -1,-1.7234198383743768,0.3655594330341421
1503601795082,-0.751,-0.108,+0.153,+0.633,+0.378,+0.081,-0.911,-0.375,-0.125,+0.062,-1, -3, -2, -3, -3, -1, 1, 0,-1.7234198383743768,0.3655594330341421
1503601795088,-0.751,-0.108,+0.153,+0.633,+0.373,+0.079,-0.900,-0.062,+0.125,-0.062,0, -1, -2, -2, -2, -3, -3, -5,-1.7234198383743768,0.3655594330341421
1503601795111,-0.751,-0.108,+0.153,+0.633,+0.382,+0.081,-0.908,-1.062,-0.875,+0.250,0, 0, -1, -1, 0, 2, 0, 2,-1.7234198383743768,0.3655594330341421
1503601795132,-0.751,-0.108,+0.153,+0.633,+0.375,+0.075,-0.898,-0.875,+0.250,+0.188,-1, 0, -1, -1, -2, -3, -1, 2,-1.7234198383743768,0.3655594330341421
1503601795148,-0.751,-0.108,+0.153,+0.633,+0.387,+0.080,-0.908,-1.312,+0.562,+0.750,0, 0, -1, 1, -1, 1, 0, -4,-1.7234198383743768,0.3655594330341421
1503601795169,-0.751,-0.108,+0.153,+0.633,+0.389,+0.077,-0.908,-1.750,-1.000,+0.875,-1, -2, -1, -3, -2, -4, -11, -2,-1.7234198383743768,0.3655594330341421
1503601795192,-0.751,-0.108,+0.153,+0.634,+0.375,+0.077,-0.901,-1.688,-1.812,+1.000,-2, -3, -4, -2, -3, -3, -2, -6,-1.723190769660794,0.36584643306457554
1503601795208,-0.751,-0.107,+0.153,+0.634,+0.376,+0.083,-0.901,-1.750,-1.750,+0.625,1, -1, 0, -2, -2, -2, 4, 7,-1.7228108765743835,0.36428315283642493
1503601795230,-0.750,-0.107,+0.153,+0.634,+0.371,+0.081,-0.906,-1.375,-1.312,+1.125,-5, -3, -4, -3, -3, -2, -3, -2,-1.7200209906291706,0.3640822999927991
1503601795259,-0.750,-0.107,+0.153,+0.634,+0.380,+0.083,-0.907,-1.500,-1.438,+1.188,-1, -1, -2, 1, -1, 2, 0, 1,-1.7200209906291706,0.3640822999927991
1503601795280,-0.750,-0.107,+0.153,+0.634,+0.375,+0.082,-0.909,-1.250,-1.125,+0.688,-2, -2, -2, -1, -1, -2, -1, 0,-1.7200209906291706,0.3640822999927991
1503601795289,-0.750,-0.107,+0.153,+0.634,+0.372,+0.076,-0.907,-1.375,-0.250,+0.188,2, -1, 0, -1, 0, -1, 1, -3,-1.7200209906291706,0.3640822999927991
1503601795313,-0.750,-0.107,+0.153,+0.635,+0.375,+0.084,-0.900,-1.438,+0.312,+0.375,-1, -2, -2, -2, -1, 1, 1, -13,-1.7197971509570427,0.36436949133391805
1503601795328,-0.750,-0.107,+0.153,+0.635,+0.384,+0.082,-0.905,-1.062,+0.312,+0.375,1, 0, 1, 0, -3, -1, -4, 2,-1.7197971509570427,0.36436949133391805
1503601795349,-0.750,-0.107,+0.153,+0.635,+0.388,+0.084,-0.900,-0.875,-0.938,+0.812,-3, 2, 0, 0, 1, -3, -5, -3,-1.7197971509570427,0.36436949133391805
1503601795374,-0.750,-0.107,+0.153,+0.635,+0.379,+0.076,-0.910,-1.000,-2.312,+0.188,1, -2, -2, -1, -2, -2, 4, 6,-1.7197971509570427,0.36436949133391805
1503601795387,-0.750,-0.106,+0.152,+0.635,+0.372,+0.075,-0.908,-0.375,-1.875,+0.188,-4, -2, -2, 1, -1, -4, 1, -6,-1.7194512828787438,0.36139918674282223
1503601795409,-0.750,-0.106,+0.152,+0.635,+0.377,+0.078,-0.910,-1.000,-1.375,+0.375,1, -2, 0, 0, -2, 0, 2, -1,-1.7194512828787438,0.36139918674282223
1503601795432,-0.750,-0.106,+0.152,+0.635,+0.368,+0.065,-0.915,-1.125,-1.938,+0.750,-2, -4, -1, 0, -2, -3, 2, 13,-1.7194512828787438,0.36139918674282223
1503601795448,-0.750,-0.106,+0.152,+0.636,+0.374,+0.077,-0.909,-1.875,-1.688,+0.750,-3, -3, -2, -1, -2, -1, 2, -1,-1.7192284945182326,0.3616847650958173
1503601795469,-0.749,-0.106,+0.152,+0.636,+0.375,+0.080,-0.909,-2.250,-1.062,+0.688,1, 1, 2, 0, -1, 0, 0, 0,-1.7164389929637656,0.3614856182794183
1503601795492,-0.749,-0.105,+0.152,+0.636,+0.371,+0.078,-0.912,-1.875,-1.125,+0.500,1, -1, 0, -1, 0, 0, 2, 11,-1.7160637521242041,0.35992822765672505
1503601795509,-0.749,-0.105,+0.152,+0.636,+0.369,+0.079,-0.905,-1.938,-0.125,+0.125,1, -2, -2, 0, -1, -1, -2, 9,-1.7160637521242041,0.35992822765672505
1503601795530,-0.749,-0.105,+0.152,+0.636,+0.373,+0.080,-0.907,-2.312,+0.000,+0.250,1, 0, -4, -1, -2, -2, 0, 1,-1.7160637521242041,0.35992822765672505
1503601795552,-0.749,-0.105,+0.152,+0.636,+0.374,+0.081,-0.912,-2.312,-0.312,+0.812,0, -1, 2, -2, 1, 0, -2, -7,-1.7160637521242041,0.35992822765672505
1503601795568,-0.749,-0.105,+0.152,+0.637,+0.379,+0.092,-0.905,-1.875,-1.000,+1.000,-5, 1, -2, -2, -2, -3, -4, -12,-1.7158461688373365,0.3602139936871799
1503601795590,-0.749,-0.105,+0.152,+0.637,+0.373,+0.083,-0.899,-0.938,-1.250,+0.500,-4, -3, 0, -3, -4, -2, 1, -8,-1.7158461688373365,0.3602139936871799
1503601795612,-0.749,-0.105,+0.152,+0.637,+0.376,+0.082,-0.907,-0.562,-0.312,+0.188,5, 2, 1, 0, -1, -1, 0, 14,-1.7158461688373365,0.3602139936871799
1503601795628,-0.749,-0.105,+0.152,+0.637,+0.370,+0.083,-0.908,-0.812,+0.438,-0.500,-2, -1, -1, -2, -1, -5, -6, -3,-1.7158461688373365,0.3602139936871799
1503601795651,-0.749,-0.105,+0.152,+0.637,+0.368,+0.075,-0.910,-0.750,+1.438,-0.875,0, 1, -1, 1, -2, -3, -6, -8,-1.7158461688373365,0.3602139936871799
1503601795672,-0.749,-0.105,+0.152,+0.637,+0.375,+0.077,-0.901,-1.000,+1.875,-0.688,-1, -1, 0, -2, -1, -1, -6, -5,-1.7158461688373365,0.3602139936871799
1503601795688,-0.749,-0.105,+0.152,+0.637,+0.382,+0.076,-0.910,-1.500,+0.938,-0.375,2, -1, -3, 0, 4, 1, 0, 19,-1.7158461688373365,0.3602139936871799
1503601795710,-0.749,-0.105,+0.153,+0.637,+0.373,+0.078,-0.913,-1.562,+0.500,+0.000,-3, 0, 1, 1, 0, 1, -1, 5,-1.7158157182222942,0.36162757290572917
1503601795732,-0.749,-0.105,+0.153,+0.637,+0.375,+0.078,-0.906,-2.000,+0.938,+0.062,4, 1, -2, -2, -1, 0, 2, 2,-1.7158157182222942,0.36162757290572917
1503601795748,-0.748,-0.105,+0.153,+0.637,+0.371,+0.086,-0.900,-1.625,+0.875,-0.438,-2, -2, -2, -3, -5, -4, 1, -4,-1.7130236530283711,0.361430256604751
1503601795770,-0.748,-0.105,+0.153,+0.637,+0.375,+0.075,-0.911,-1.375,+1.125,-0.312,0, 1, 2, 0, 1, 5, 8, 7,-1.7130236530283711,0.361430256604751
1503601795795,-0.748,-0.106,+0.153,+0.637,+0.380,+0.081,-0.902,-2.062,+1.125,-0.500,2, -1, -1, -1, 0, 3, 1, -4,-1.7133997119477697,0.36298570133701186
1503601795808,-0.748,-0.106,+0.154,+0.637,+0.374,+0.085,-0.900,-1.688,+1.562,-0.312,0, 0, -1, 2, -1, -2, 0, -3,-1.7133694523573741,0.36440112541364555
1503601795830,-0.748,-0.106,+0.154,+0.637,+0.379,+0.088,-0.900,-1.750,+0.500,-0.125,-3, -1, 1, 0, 2, -1, -4, -2,-1.7133694523573741,0.36440112541364555
1503601795852,-0.748,-0.106,+0.154,+0.637,+0.373,+0.084,-0.915,-1.438,+0.688,+0.250,0, 1, 1, -2, -1, -2, -7, -7,-1.7133694523573741,0.36440112541364555
1503601795868,-0.748,-0.106,+0.154,+0.637,+0.375,+0.083,-0.908,-1.812,+0.562,-0.125,-2, -1, -2, 0, -3, -1, -2, 11,-1.7133694523573741,0.36440112541364555
1503601795890,-0.748,-0.106,+0.154,+0.637,+0.376,+0.086,-0.905,-1.750,+1.812,-0.188,0, -2, -2, 0, 1, -1, -2, -10,-1.7133694523573741,0.36440112541364555
1503601795912,-0.748,-0.106,+0.155,+0.637,+0.375,+0.079,-0.911,-2.312,+1.812,-0.500,-1, -2, 0, -2, -2, -3, -9, -4,-1.7133392055189893,0.3658183273156114
1503601795928,-0.748,-0.106,+0.155,+0.637,+0.375,+0.080,-0.906,-2.188,+2.188,-0.875,-3, -2, -1, 0, 0, 0, -2, 7,-1.7133392055189893,0.3658183273156114
1503601795950,-0.748,-0.106,+0.156,+0.636,+0.383,+0.084,-0.902,-2.562,+3.438,-1.312,2, 0, 0, 1, 0, -3, -1, -12,-1.7135225940710197,0.3669446879706067
1503601795972,-0.748,-0.106,+0.156,+0.636,+0.382,+0.087,-0.908,-2.375,+3.312,-2.188,-1, 1, -4, -4, -6, -3, 0, -11,-1.7135225940710197,0.3669446879706067
1503601795988,-0.748,-0.107,+0.157,+0.636,+0.379,+0.087,-0.905,-2.250,+4.188,-2.688,1, -1, 1, -1, 0, 2, 0, 5,-1.713871107943573,0.36992037006846606
1503601796012,-0.748,-0.107,+0.158,+0.635,+0.377,+0.080,-0.900,-1.875,+5.938,-3.625,-4, 0, 0, -1, -1, -1, 1, -7,-1.7140550165696178,0.37104523700491254
1503601796032,-0.749,-0.108,+0.159,+0.634,+0.380,+0.092,-0.903,-1.438,+9.312,-4.812,1, 0, -1, -1, -3, -3, -2, 4,-1.7174182043618782,0.3739285831706819
1503601796048,-0.749,-0.109,+0.160,+0.633,+0.380,+0.089,-0.901,-0.625,+12.062,-6.875,-2, -1, 0, 0, 0, 1, 2, 15,-1.71799161307565,0.3766112146591216
1503601796080,-0.750,-0.111,+0.162,+0.632,+0.381,+0.088,-0.910,+0.062,+16.750,-9.062,-1, -3, -3, -1, 0, -1, 7, 12,-1.7217206307454795,0.38248513607144596
1503601796092,-0.751,-0.114,+0.164,+0.630,+0.384,+0.084,-0.888,-0.188,+20.250,-12.000,1, 1, 1, 0, 2, 2, -3, -19,-1.726089159793111,0.38963617382616067
1503601796108,-0.752,-0.116,+0.166,+0.628,+0.399,+0.095,-0.886,+0.312,+19.938,-9.812,-4, -3, -2, -2, -4, -2, 1, 6,-1.7300825177403587,0.39522729729600276
1503601796130,-0.752,-0.118,+0.168,+0.626,+0.418,+0.107,-0.893,+1.000,+17.000,-6.500,-3, 0, -1, -1, -1, -1, 0, -2,-1.73131105208537,0.40060625970359637
1503601796152,-0.752,-0.120,+0.170,+0.625,+0.429,+0.084,-0.881,+0.750,+13.688,-4.812,-1, -2, 0, -1, -2, 1, -2, -7,-1.7323133537381534,0.4062994660626603
1503601796168,-0.752,-0.122,+0.171,+0.625,+0.437,+0.088,-0.884,+0.500,+11.375,-3.688,0, 0, -1, -2, 1, 1, -4, -3,-1.7331243768321143,0.4108880460621232
1503601796190,-0.752,-0.123,+0.172,+0.624,+0.438,+0.100,-0.883,+0.438,+8.625,-4.000,-1, -4, -2, -2, -1, -1, -7, 1,-1.7337598024468006,0.4135822224913042
1503601796214,-0.753,-0.124,+0.173,+0.623,+0.424,+0.093,-0.876,+0.000,+7.750,-5.062,1, 3, 2, 4, 1, 0, 2, -2,-1.7371807053477972,0.4165046574998541
1503601796228,-0.753,-0.125,+0.173,+0.622,+0.429,+0.104,-0.879,+0.438,+6.812,-4.875,-2, 1, -1, 2, 1, 0, 1, -2,-1.7378681932841666,0.41777404822974573
1503601796250,-0.753,-0.125,+0.174,+0.622,+0.424,+0.102,-0.881,+0.562,+5.562,-3.500,0, -1, -1, -2, 0, -3, -4, -6,-1.7378263712085038,0.4192007802769308
1503601796272,-0.753,-0.126,+0.174,+0.621,+0.424,+0.096,-0.878,+1.250,+4.438,-1.875,-1, -1, 1, -3, -2, -3, 0, 19,-1.7385187483969964,0.42047007570785133
1503601796290,-0.754,-0.127,+0.174,+0.621,+0.425,+0.088,-0.871,+1.062,+4.562,-1.562,1, -2, -2, -3, -2, -2, -6, -13,-1.741739489545529,0.4222932363533947
1503601796310,-0.754,-0.128,+0.175,+0.621,+0.432,+0.088,-0.873,+1.312,+5.812,-1.938,-5, -3, -3, -1, -1, 0, 0, -7,-1.7421409744518592,0.4253130962201039
1503601796332,-0.754,-0.129,+0.175,+0.620,+0.441,+0.095,-0.880,+0.188,+6.500,-1.688,-1, -2, 0, -2, -2, -1, 0, -6,-1.742848576486959,0.4265868867201394
1503601796348,-0.754,-0.130,+0.176,+0.620,+0.454,+0.090,-0.876,-0.250,+3.625,-0.312,1, 2, 0, 1, -2, 0, 3, 5,-1.7432563336585598,0.429609645901037
1503601796371,-0.753,-0.130,+0.176,+0.620,+0.442,+0.101,-0.884,-0.875,+2.250,+1.875,-1, -2, -1, 1, 0, -2, -8, -5,-1.7404825033140792,0.4293719708872662
1503601796392,-0.753,-0.130,+0.176,+0.620,+0.438,+0.093,-0.900,-0.438,+0.312,+1.500,-5, -1, -3, -1, -3, -2, -1, -2,-1.7404825033140792,0.4293719708872662
1503601796408,-0.753,-0.130,+0.176,+0.621,+0.395,+0.097,-0.887,-0.375,+2.875,+1.188,-1, -1, -1, -3, 4, 0, 0, 6,-1.7402269633394885,0.42969373389557686
1503601796430,-0.753,-0.131,+0.177,+0.620,+0.427,+0.088,-0.842,-0.188,+9.188,+0.500,0, 0, -1, 1, 0, -1, -2, 0,-1.7408956126760342,0.43239639905100047
1503601796453,-0.752,-0.133,+0.178,+0.620,+0.456,+0.090,-0.866,-2.562,+11.438,+1.000,2, 0, 1, 0, 4, -1, 0, -4,-1.7390032109518965,0.4367791270593603
1503601796468,-0.752,-0.133,+0.179,+0.621,+0.494,+0.119,-0.871,+0.062,-0.062,+4.125,-1, 0, -1, -6, -15, 0, -7, -2,-1.7387055770805444,0.4385385367826188
1503601796491,-0.751,-0.132,+0.178,+0.622,+0.458,+0.138,-0.849,+2.688,-9.625,+7.688,-6, -4, -1, 2, 2, 1, 0, 5,-1.735261398008453,0.43559172859907436
1503601796512,-0.750,-0.132,+0.176,+0.623,+0.444,+0.135,-0.839,+7.000,-13.125,+11.062,31, 23, 1, 1, -3, -6, -2, 2,-1.732326539750608,0.43280425508108583
1503601796528,-0.750,-0.131,+0.172,+0.625,+0.469,+0.153,-0.828,+14.250,-19.625,+15.375,3, -1, -1, 0, 2, 0, 3, 3,-1.7315464705318955,0.42612454656724913
1503601796551,-0.749,-0.130,+0.167,+0.628,+0.494,+0.171,-0.794,+25.688,-32.000,+19.062,-14, -9, 0, 15, 40, 1, -4, -3,-1.7278023459357388,0.41809591233068555
1503601796572,-0.749,-0.130,+0.158,+0.631,+0.490,+0.186,-0.785,+44.375,-47.125,+23.750,2, 0, -4, -11, -21, -3, -1, -14,-1.7274650528449447,0.40622611720573143
1503601796588,-0.748,-0.130,+0.144,+0.634,+0.496,+0.182,-0.770,+65.625,-63.750,+29.875,-22, -16, 0, -5, -7, 4, 4, 2,-1.724565574541303,0.38718263382998064
1503601796611,-0.748,-0.129,+0.125,+0.639,+0.399,+0.156,-0.792,+87.375,-82.312,+37.812,-43, -18, -4, -1, -4, -3, -4, -8,-1.7237028199452862,0.3605814968776466
1503601796632,-0.747,-0.129,+0.103,+0.643,+0.251,+0.114,-0.911,+98.375,-79.375,+41.500,16, 10, 4, 3, 5, 2, -2, -16,-1.7208922828667468,0.33125532939033747
1503601796650,-0.740,-0.131,+0.090,+0.653,+0.025,+0.179,-0.966,+65.938,-18.500,+83.812,-3, -7, -10, -10, -24, -12, -9, -1,-1.7008851496069946,0.3169345463327494
1503601796671,-0.737,-0.143,+0.082,+0.656,+0.283,+0.049,-1.100,+88.125,+31.188,+42.750,-5, -7, -6, -16, -16, 0, 0, 2,-1.6985662919604152,0.3247435781962587
1503601796693,-0.732,-0.159,+0.072,+0.658,+0.399,-0.120,-0.978,+102.938,+31.562,+43.875,0, -3, -2, -7, 0, -5, -2, -5,-1.6940869016092348,0.3355867541643251
1503601796715,-0.726,-0.176,+0.061,+0.662,+0.448,-0.120,-1.034,+104.625,+34.625,+56.000,-1, 7, 37, 15, 0, 5, 2, 12,-1.688399579540821,0.3467896438303648
1503601796730,-0.721,-0.193,+0.048,+0.664,+0.538,-0.135,-1.024,+122.250,+25.438,+51.250,-6, -9, -17, -29, -23, -4, -1, 12,-1.6872527772955301,0.35563937413688473
1503601796752,-0.716,-0.210,+0.031,+0.665,+0.561,-0.231,-1.002,+137.750,+6.812,+51.688,-3, -5, -37, -20, -32, -2, 0, 15,-1.6878512158997752,0.3594890434781282
1503601796774,-0.709,-0.227,+0.011,+0.667,+0.514,-0.304,-0.953,+143.062,-1.812,+58.625,0, -5, 2, 7, -42, -6, -3, 28,-1.684336195812594,0.3590615071883968
1503601796791,-0.703,-0.244,-0.010,+0.668,+0.434,-0.366,-0.948,+153.875,-4.438,+55.625,-3, -5, 10, -10, -5, 1, 2, -40,-1.685338014464016,0.3582041443501406
1503601796812,-0.697,-0.262,-0.032,+0.667,+0.385,-0.432,-0.918,+167.250,-4.312,+51.625,-2, 0, 16, 14, 13, 4, 3, 20,-1.68951517744516,0.3585577561673131
1503601796834,-0.690,-0.282,-0.055,+0.664,+0.377,-0.495,-0.869,+175.188,+0.375,+49.312,-3, -3, 19, -11, -6, -8, -3, -27,-1.6958024512465464,0.36195043776899055
1503601796852,-0.682,-0.303,-0.077,+0.662,+0.373,-0.564,-0.800,+180.062,+13.438,+52.562,7, 3, 9, -5, -2, -3, -4, -56,-1.702994287644402,0.36924215376955166
1503601796872,-0.671,-0.325,-0.099,+0.659,+0.337,-0.639,-0.753,+180.188,+20.188,+56.750,-11, -7, -12, -3, 6, 2, -1, -16,-1.7062162904403126,0.37827262937257344
1503601796894,-0.660,-0.347,-0.119,+0.656,+0.262,-0.680,-0.702,+179.250,+28.188,+58.000,3, 0, -15, -6, 4, 3, 1, 46,-1.7128349273515808,0.39174089900106285
1503601796911,-0.647,-0.369,-0.139,+0.652,+0.269,-0.714,-0.626,+177.938,+34.000,+56.938,2, 7, 17, 10, 26, 4, 0, 20,-1.7175399798954967,0.40603010267408857
1503601796933,-0.634,-0.391,-0.158,+0.648,+0.274,-0.773,-0.579,+174.250,+33.562,+57.875,3, -1, -9, 0, -2, -3, -2, 7,-1.7266244275213827,0.42424763502676127
1503601796980,-0.621,-0.411,-0.177,+0.644,+0.255,-0.818,-0.512,+168.188,+29.375,+61.125,-7, -3, -6, -6, -14, 0, 1, 3,-1.7360416525440956,0.4403454985928417
1503601796981,-0.606,-0.430,-0.196,+0.640,+0.205,-0.841,-0.465,+165.312,+30.750,+63.375,-2, 3, 28, 3, -3, -3, -2, 0,-1.74088546028348,0.45434660548048633
1503601796992,-0.591,-0.449,-0.213,+0.635,+0.176,-0.858,-0.396,+162.875,+33.125,+60.312,1, 2, 12, 4, 5, -1, -1, 1,-1.750777584232314,0.4749303842105263
1503601797015,-0.576,-0.467,-0.231,+0.630,+0.180,-0.922,-0.313,+161.062,+33.312,+62.438,7, 7, -3, 5, 6, 0, -1, -2,-1.7639062417276399,0.49528569243295445
1503601797031,-0.560,-0.485,-0.248,+0.625,+0.183,-0.959,-0.277,+156.500,+34.312,+63.312,-1, -3, -11, 8, 8, 2, 0, 0,-1.7802212873680017,0.5207954034660925
1503601797054,-0.543,-0.502,-0.264,+0.619,+0.139,-0.986,-0.207,+153.875,+34.312,+64.438,-2, -2, 8, 2, -4, 1, 1, -1,-1.7969931404900275,0.5494019577564421
1503601797077,-0.526,-0.518,-0.281,+0.613,+0.123,-0.999,-0.166,+153.812,+32.125,+62.188,3, 7, -15, -4, 1, -3, -1, 2,-1.8199210353726445,0.5807370441165548
1503601797091,-0.510,-0.533,-0.296,+0.606,+0.113,-1.079,-0.121,+147.562,+29.688,+56.812,3, 1, 1, 5, 2, -2, -2, -12,-1.854969084377865,0.6244418111003586
1503601797113,-0.495,-0.548,-0.310,+0.599,+0.110,-0.989,-0.112,+143.875,+29.188,+52.125,-11, -4, -6, -4, -8, -1, -2, 0,-1.91456099114916,0.6903930710072615
1503601797134,-0.479,-0.562,-0.324,+0.591,+0.075,-0.947,-0.071,+146.500,+26.062,+48.875,7, 13, 23, 10, 1, 0, -2, 12,-1.9922871707080048,0.7760545470857692
1503601797152,-0.464,-0.575,-0.339,+0.582,+0.058,-1.004,+0.029,+141.750,+17.062,+48.188,-6, -10, -8, -7, -6, -2, 2, -47,-2.1194668699052905,0.9062049318564893
1503601797173,-0.451,-0.587,-0.352,+0.573,+0.040,-1.062,+0.073,+130.000,+14.625,+41.375,2, 7, 1, -4, -4, -3, 0, 35,-2.317834661775588,1.1070662351949327
1503601797194,-0.439,-0.596,-0.362,+0.566,+0.050,-1.038,+0.109,+104.875,+19.250,+33.125,5, 13, 7, 7, 3, 0, -5, 24,-2.5426373447377535,1.3332609940621334
1503601797211,-0.429,-0.604,-0.370,+0.560,+0.027,-1.042,+0.125,+86.438,+13.188,+21.562,0, -2, -2, -2, -1, -2, 2, -5,-2.8111299502613014,1.6038376913832755
1503601797232,-0.422,-0.611,-0.376,+0.554,+0.023,-0.989,+0.120,+71.500,+6.812,+11.125,0, -7, -2, 0, 1, -1, -6, 2,-3.062930287312155,1.8592057009093954
1503601797254,-0.417,-0.616,-0.382,+0.548,+0.003,-0.975,+0.140,+63.938,-2.062,+3.625,3, 7, 4, 3, 1, 0, -8, -5,3.0148781066403756,2.0612033953988798
1503601797271,-0.414,-0.619,-0.388,+0.543,+0.057,-1.042,+0.209,+43.125,-12.875,+7.000,-10, -6, 3, 2, 2, -2, -3, 7,2.8669862787160825,2.2075025231781624
1503601797292,-0.413,-0.620,-0.390,+0.542,+0.078,-1.045,+0.216,+6.062,-4.938,+2.188,2, -5, -6, -2, -2, -4, -5, -7,2.8258958037944537,2.2557697218424466
1503601797314,-0.412,-0.620,-0.387,+0.544,+0.026,-0.941,+0.157,-15.062,+14.438,-6.312,-14, -24, -11, -8, -10, -4, -1, 13,2.8574581526604574,2.2211729806961977
1503601797337,-0.412,-0.619,-0.385,+0.546,-0.015,-0.899,+0.152,-17.312,+10.125,-6.625,6, -36, -27, -3, -1, -8, -5, -1,2.89418270044459,2.181722925425186
1503601797354,-0.412,-0.619,-0.383,+0.549,+0.017,-0.927,+0.155,-21.062,+15.562,-7.750,-30, -12, 1, 4, 15, 4, -15, -70,2.9386055698866276,2.1589432728869418
1503601797375,-0.414,-0.619,-0.377,+0.551,+0.006,-0.808,-0.115,-9.688,+17.125,-26.188,22, 25, 8, 8, 9, 12, 14, 1,3.0456765773489263,2.0511215865363632
1503601797391,-0.424,-0.628,-0.374,+0.535,+0.182,-0.845,+0.153,+59.938,-40.688,-103.688,13, 71, 9, 0, -7, -26, -13, 12,3.033706820730006,2.048474607119346
1503601797413,-0.437,-0.631,-0.370,+0.523,+0.693,-1.201,+0.478,-7.875,-58.125,-57.562,3, -106, -10, 7, -9, -28, -1, -12,3.0864595338872567,1.9738022152097396
1503601797435,-0.441,-0.611,-0.379,+0.537,+0.196,-0.918,+0.271,-106.562,-63.062,+100.812,-4, -28, -45, -11, 26, -15, -9, 21,-3.064344826442638,1.8226155595938163
1503601797451,-0.440,-0.598,-0.373,+0.557,-0.465,-0.831,+0.158,-121.750,+34.875,+50.562,8, 17, 29, -3, -6, 22, 39, -18,-2.7353581309065405,1.511849900822166
1503601797474,-0.439,-0.599,-0.354,+0.569,-0.004,-0.950,-0.017,-86.125,+87.875,-42.750,-27, -5, -9, -9, -7, -6, 0, -16,-2.509321081235239,1.3181963428873582
1503601797495,-0.441,-0.600,-0.336,+0.577,+0.294,-0.894,-0.059,-74.000,+75.938,-40.438,0, 56, 16, -6, -34, -20, -13, -21,-2.3713231128639207,1.204843363966254
1503601797511,-0.450,-0.597,-0.325,+0.580,+0.343,-0.900,-0.046,-60.875,+3.438,-43.250,-4, 8, -5, -41, -61, -37, -14, -17,-2.2922071005738496,1.1284199585215
1503601797533,-0.464,-0.591,-0.321,+0.577,+0.261,-0.947,-0.058,-46.875,-58.875,-51.438,-3, 15, 22, 4, 4, 4, 2, -19,-2.2622185050211128,1.0790248764664256
1503601797557,-0.476,-0.582,-0.321,+0.576,+0.096,-0.997,-0.028,-48.188,-69.000,-35.062,3, 7, 10, -3, -9, 11, 3, 98,-2.2127167020648018,1.0071399825857095
1503601797571,-0.484,-0.574,-0.320,+0.578,+0.033,-1.029,-0.040,-58.062,-41.500,-23.125,1, 2, 0, 5, 6, 11, 0, -5,-2.156518333834464,0.9378402286218652
1503601797593,-0.490,-0.569,-0.314,+0.582,+0.082,-0.988,-0.137,-57.688,-3.250,-28.438,6, 9, 2, -8, -15, 8, 18, 3,-2.110888548173398,0.8910395077005432
1503601797615,-0.495,-0.566,-0.305,+0.585,+0.192,-0.956,-0.122,-54.125,+10.562,-35.125,-2, -18, -9, -8, -8, -6, -12, -1,-2.0805800307273863,0.8655281901189471
1503601797637,-0.501,-0.563,-0.296,+0.587,+0.305,-0.970,-0.127,-55.188,+6.812,-30.062,-5, 3, 4, 0, -5, -6, 0, 15,-2.060769129488797,0.8486145256855286
1503601797653,-0.506,-0.559,-0.288,+0.591,+0.315,-0.957,-0.135,-60.750,+1.812,-23.938,-3, -9, -11, -4, -4, -2, -1, -1,-2.031484205591576,0.8225367869324465
1503601797675,-0.513,-0.553,-0.281,+0.594,+0.272,-0.931,-0.128,-64.062,-14.000,-24.500,2, 2, -2, 4, 8, 0, -7, -5,-2.003518308062174,0.7920574041983199
1503601797694,-0.521,-0.546,-0.275,+0.596,+0.255,-0.913,-0.188,-60.562,-20.625,-30.875,1, -13, -5, -1, 1, -1, -6, 4,-1.9800456998303118,0.7623373276595151
1503601797713,-0.529,-0.540,-0.268,+0.597,+0.198,-0.884,-0.211,-58.062,-17.562,-41.625,3, -3, -12, -6, -5, -3, 2, 12,-1.9663454366752608,0.7438114159106607
1503601797735,-0.537,-0.535,-0.260,+0.598,+0.220,-0.893,-0.217,-59.688,-13.062,-48.312,-1, 15, 10, 1, -4, 3, 0, -3,-1.9597211290888097,0.7337875022904149
1503601797751,-0.545,-0.530,-0.250,+0.599,+0.241,-0.894,-0.218,-68.625,+0.938,-48.750,5, 7, 3, -6, -4, 27, 17, 5,-1.9528263007294386,0.7262855093591498
1503601797780,-0.552,-0.526,-0.237,+0.602,+0.255,-0.890,-0.229,-80.312,+13.938,-53.312,-5, 1, 3, 2, 9, -6, -2, -1,-1.9443217936374257,0.7236123617086049
1503601797802,-0.560,-0.522,-0.221,+0.604,+0.298,-0.830,-0.271,-82.688,+20.438,-66.438,1, 2, -5, -4, -4, -5, -4, -5,-1.939383090726523,0.7266854147381602
1503601797817,-0.569,-0.519,-0.204,+0.605,+0.333,-0.799,-0.297,-78.500,+24.875,-77.625,0, -6, -1, -2, -7, -5, -5, -1,-1.9432279292424544,0.7379653959527339
1503601797833,-0.578,-0.517,-0.187,+0.604,+0.368,-0.805,-0.299,-75.875,+23.875,-84.000,0, -6, -1, 0, 3, -2, 0, -2,-1.9526672910796028,0.7544815799300417
1503601797855,-0.587,-0.514,-0.169,+0.602,+0.398,-0.806,-0.313,-76.562,+20.875,-89.938,-1, 1, 0, 3, 3, -3, 0, 0,-1.9582758243506528,0.7675646176004812
1503601797871,-0.597,-0.511,-0.151,+0.600,+0.406,-0.789,-0.340,-78.125,+23.688,-96.000,-1, -1, -2, -6, -11, -5, -5, -2,-1.966891699820269,0.7816564117068839
1503601797895,-0.606,-0.508,-0.131,+0.598,+0.415,-0.740,-0.370,-81.688,+27.938,-98.125,-1, 2, 3, 6, 5, -3, -1, -3,-1.9714294805066717,0.7958207583403636
1503601797915,-0.614,-0.505,-0.111,+0.596,+0.430,-0.678,-0.395,-83.312,+40.438,-97.125,-5, -3, 0, -1, 10, -1, -3, -4,-1.9735363095460574,0.8090210365476204
1503601797930,-0.620,-0.505,-0.087,+0.594,+0.486,-0.627,-0.428,-79.875,+59.875,-98.000,0, -1, 0, -2, -10, -2, -1, -1,-1.9767815819545023,0.8335058678322422
1503601797953,-0.626,-0.505,-0.064,+0.591,+0.546,-0.595,-0.469,-69.062,+67.688,-98.000,0, 1, -1, 0, 6, -2, -1, -1,-1.9811687168546592,0.8573616626968104
1503601797975,-0.631,-0.507,-0.044,+0.586,+0.608,-0.596,-0.483,-54.938,+59.312,-96.250,-1, 0, -2, -3, -9, -9, -8, -1,-1.9909038109143278,0.8843326263546178
1503601797989,-0.637,-0.507,-0.026,+0.580,+0.677,-0.629,-0.467,-46.438,+44.812,-95.375,-1, -2, -2, -2, 4, -13, 2, 1,-1.9994537557705907,0.9040843291012977
1503601798013,-0.643,-0.507,-0.009,+0.574,+0.713,-0.605,-0.466,-44.938,+35.562,-91.938,-1, 0, 3, 3, -4, -3, -2, 0,-2.0082997455845493,0.9228344011477719
1503601798035,-0.649,-0.506,+0.006,+0.569,+0.725,-0.542,-0.474,-44.438,+27.438,-75.375,-2, 0, -2, 0, 4, 5, 15, -1,-2.0150911496002397,0.9368684305547854
1503601798051,-0.654,-0.502,+0.017,+0.565,+0.738,-0.544,-0.505,-39.688,+10.500,-64.875,1, 1, 1, 0, -7, 2, -6, -2,-2.014566407831951,0.9382320051884991
1503601798075,-0.661,-0.498,+0.026,+0.561,+0.685,-0.517,-0.551,-29.875,-0.438,-63.625,-1, -2, -3, -3, -3, -1, -1, -1,-2.0198312849316897,0.9395124609882864
1503601798099,-0.667,-0.496,+0.034,+0.556,+0.706,-0.501,-0.530,-19.625,+2.375,-64.188,-2, -1, 0, -2, -4, -3, -3, -1,-2.02833227240567,0.9448587720207202
1503601798109,-0.670,-0.496,+0.043,+0.550,+0.712,-0.493,-0.554,-14.125,+28.500,-59.875,-1, 0, 1, 3, 1, -4, 0, 0,-2.0344480401615166,0.9545188756249839
1503601798132,-0.669,-0.501,+0.054,+0.546,+0.743,-0.479,-0.524,-10.125,+63.688,-47.938,-1, -1, -1, -5, -1, -1, -3, -2,-2.0393217573598266,0.9771555136260351
1503601798154,-0.666,-0.509,+0.066,+0.541,+0.812,-0.511,-0.423,-10.812,+75.562,-41.625,0, -1, -4, -4, -1, 1, 2, 1,-2.0459272507825825,1.0076510826162874
1503601798169,-0.665,-0.514,+0.074,+0.536,+0.887,-0.466,-0.451,-1.688,+53.188,-37.875,4, -1, -6, -2, 4, -2, -2, 0,-2.0528932167898932,1.0275989211913705
1503601798195,-0.667,-0.518,+0.080,+0.530,+0.888,-0.395,-0.432,+9.625,+27.000,-39.875,-3, -1, -1, 3, 4, 2, -2, -2,-2.0658119628142075,1.0446522961186269
1503601798215,-0.669,-0.521,+0.084,+0.523,+0.873,-0.377,-0.396,+19.188,+18.375,-40.125,1, -2, -5, -5, -10, 2, 18, 1,-2.0784905788621084,1.0569903698948508
1503601798230,-0.671,-0.525,+0.087,+0.517,+0.914,-0.394,-0.381,+22.562,+19.375,-31.875,-7, -3, 1, 1, -3, -10, -6, 1,-2.092882015840347,1.071212947111168
1503601798252,-0.672,-0.528,+0.088,+0.512,+0.908,-0.458,-0.388,+21.562,+9.250,-20.125,-10, -5, 6, 15, 16, 1, 4, -1,-2.10374776928634,1.0804361900250987
1503601798274,-0.675,-0.528,+0.086,+0.508,+0.875,-0.483,-0.343,+17.688,-14.062,-20.500,-2, -12, -15, -11, -6, 4, -2, -4,-2.1139083072696785,1.0799836969846326
1503601798289,-0.678,-0.529,+0.086,+0.503,+0.831,-0.447,-0.316,+19.000,-9.812,-30.000,10, 13, 8, -8, -22, -13, 1, 7,-2.125563358177311,1.0839324193337392
1503601798312,-0.681,-0.531,+0.086,+0.498,+0.821,-0.453,-0.356,+21.250,+0.875,-33.938,0, 8, 6, 19, 23, -4, 9, 6,-2.139090159132854,1.0906257949157037
1503601798334,-0.683,-0.533,+0.087,+0.492,+0.870,-0.492,-0.367,+18.875,+6.438,-30.500,-9, -1, 1, -7, -8, -7, -6, -17,-2.1508640189229555,1.097520120653111
1503601798349,-0.684,-0.535,+0.087,+0.488,+0.890,-0.523,-0.342,+14.500,+7.250,-25.500,12, -3, -2, 0, 33, 19, -5, 9,-2.159750315992493,1.103223021585823
1503601798372,-0.685,-0.537,+0.087,+0.485,+0.884,-0.507,-0.342,+11.000,-0.688,-20.750,17, 8, -1, 1, -6, 11, 11, -4,-2.1678143154369334,1.1090195499293394
1503601798396,-0.687,-0.537,+0.087,+0.482,+0.865,-0.475,-0.334,+10.375,-6.625,-21.500,-16, -20, -10, -19, -20, -9, -12, -8,-2.174096651509153,1.1098091571540951
1503601798409,-0.689,-0.538,+0.086,+0.479,+0.854,-0.473,-0.302,+10.312,-6.875,-21.750,12, 6, 1, -2, -14, 0, -13, 12,-2.182868834338746,1.112559060441276
1503601798432,-0.690,-0.538,+0.086,+0.476,+0.871,-0.490,-0.302,+6.625,-4.188,-16.312,-4, 4, 3, 2, 15, 8, -6, 9,-2.187316847983784,1.1128286168482484
1503601798454,-0.690,-0.539,+0.086,+0.475,+0.875,-0.509,-0.314,+2.062,-2.250,-11.312,-1, 0, 0, 6, 2, 8, 4, 3,-2.1899898474955446,1.1155116747405025
1503601798469,-0.691,-0.539,+0.086,+0.475,+0.871,-0.494,-0.330,-0.500,-3.375,-9.000,-8, -9, -11, 1, -1, -3, -4, 4,-2.1918330287699193,1.1160268442890344
1503601798492,-0.691,-0.539,+0.086,+0.474,+0.865,-0.485,-0.331,+0.938,-0.875,-10.000,13, 26, 26, 7, 3, 6, 12, -1,-2.1927070759839054,1.1159447192658778
1503601798514,-0.691,-0.540,+0.087,+0.472,+0.860,-0.475,-0.320,+3.562,+1.625,-13.375,10, -9, -17, -8, 7, 0, 3, 9,-2.1955708036949044,1.1193338169425981
1503601798529,-0.692,-0.541,+0.087,+0.470,+0.866,-0.460,-0.312,+3.875,+2.625,-14.062,-11, -9, 0, 1, 4, 5, 6, -4,-2.2009549860598976,1.1224463672056433
1503601798552,-0.692,-0.542,+0.088,+0.469,+0.862,-0.446,-0.317,+1.562,+1.375,-13.125,13, -2, -6, -2, -2, -4, -2, 15,-2.2029318256324344,1.1259136557857554
1503601798574,-0.693,-0.542,+0.089,+0.467,+0.838,-0.428,-0.344,+0.750,+2.938,-13.125,2, -5, -8, -1, 5, 10, 0, 3,-2.205830492223829,1.127035642321334
1503601798589,-0.693,-0.543,+0.090,+0.465,+0.829,-0.412,-0.361,+3.438,+5.188,-16.125,-10, 6, 13, 7, 3, 9, -3, -12,-2.208689537857296,1.130415455975999
1503601798612,-0.694,-0.544,+0.091,+0.463,+0.838,-0.398,-0.356,+6.688,+8.250,-18.438,-11, -7, -2, 6, 4, -8, -12, 4,-2.2133518481807832,1.1342915331724008
1503601798634,-0.695,-0.545,+0.092,+0.460,+0.858,-0.386,-0.347,+8.562,+7.312,-17.688,0, -4, -4, 0, 0, 0, -2, -19,-2.2189018238109095,1.1380764135976082
1503601798649,-0.696,-0.546,+0.093,+0.457,+0.864,-0.377,-0.343,+7.750,+5.125,-15.562,3, 2, -3, -2, -12, -6, 0, -15,-2.224446910830494,1.1418531414114614
1503601798672,-0.696,-0.547,+0.094,+0.455,+0.859,-0.367,-0.341,+5.625,+2.375,-11.875,10, -8, -4, -2, 4, 1, -1, 0,-2.2272982220540785,1.1452199046706935
1503601798694,-0.697,-0.547,+0.094,+0.453,+0.859,-0.358,-0.344,+6.562,+2.562,-10.562,-8, 5, 4, 6, 6, -3, -3, 2,-2.230905266886535,1.1455384458301399
1503601798709,-0.698,-0.548,+0.095,+0.452,+0.863,-0.350,-0.353,+8.312,+2.812,-10.375,7, 2, 0, -1, -3, -1, 4, -2,-2.2345985967080284,1.1494657367345145
1503601798732,-0.699,-0.549,+0.095,+0.449,+0.880,-0.336,-0.341,+9.438,+2.812,-9.062,-9, -1, -6, -2, -1, -2, -1, -6,-2.240850406381199,1.1524540672996573
1503601798754,-0.699,-0.549,+0.095,+0.448,+0.880,-0.342,-0.323,+9.188,+2.688,-4.312,-2, -8, 2, 3, -5, -2, -2, 5,-2.2417811043683686,1.1523713484831328
1503601798770,-0.699,-0.550,+0.094,+0.447,+0.883,-0.354,-0.329,+8.125,-0.562,-0.500,5, 0, -10, -6, -2, -3, 4, 7,-2.245166435759342,1.1542911827487294
1503601798792,-0.699,-0.551,+0.093,+0.447,+0.885,-0.370,-0.325,+6.875,+0.125,+1.125,16, -2, 0, 1, -3, 4, -2, -3,-2.2476214306343736,1.1563028030828253
1503601798814,-0.698,-0.552,+0.092,+0.447,+0.887,-0.380,-0.330,+5.875,+2.812,+2.875,4, 1, -1, -1, -2, 2, 1, -1,-2.2483478500906537,1.1578481598523647
1503601798833,-0.697,-0.553,+0.092,+0.447,+0.873,-0.379,-0.314,+4.938,+6.688,+5.688,-2, -8, -2, -2, -3, -6, -4, 8,-2.2483405478653617,1.160148686152905
1503601798852,-0.696,-0.554,+0.091,+0.447,+0.881,-0.386,-0.327,+4.875,+3.188,+6.688,8, 0, 5, 3, 4, -3, -1, 2,-2.24908792652506,1.1617109499696274
1503601798874,-0.696,-0.554,+0.089,+0.448,+0.866,-0.404,-0.310,+2.750,-1.562,+5.062,-2, 6, 1, -8, -23, -4, 1, 0,-2.2496450947854547,1.1603090174175594
1503601798889,-0.696,-0.554,+0.089,+0.448,+0.839,-0.391,-0.295,-0.688,-2.438,-1.438,3, 3, -2, -4, -4, -1, -1, -14,-2.2496450947854547,1.1603090174175594
1503601798912,-0.697,-0.554,+0.091,+0.447,+0.869,-0.354,-0.286,-2.000,+0.062,-8.875,1, -1, -2, 2, 2, 0, -1, 0,-2.2508153952376775,1.1621847451479537
1503601798935,-0.696,-0.555,+0.093,+0.446,+0.926,-0.384,-0.293,-4.438,+6.312,-8.812,-1, -4, -4, 5, 4, -1, 1, 12,-2.250262530073942,1.1659022833543484
1503601798949,-0.695,-0.556,+0.094,+0.446,+0.938,-0.376,-0.296,-6.062,+6.625,-1.438,13, 5, 0, -1, 2, 3, -5, -5,-2.24952038247182,1.1689616686517614
1503601798972,-0.695,-0.555,+0.094,+0.447,+0.942,-0.366,-0.307,-4.250,-3.375,+4.625,56, 14, 2, -1, -10, -6, 6, 62,-2.2468500646717144,1.1662589805051524
1503601798994,-0.695,-0.555,+0.094,+0.448,+0.901,-0.391,-0.299,-2.500,-5.938,+2.750,37, -9, -5, -4, -4, 2, 4, 24,-2.245916228371169,1.166338479600184
1503601799009,-0.695,-0.555,+0.094,+0.448,+0.887,-0.405,-0.286,-1.688,-3.938,+0.562,22, 2, 1, 5, 1, 2, -4, 0,-2.245916228371169,1.166338479600184
1503601799033,-0.694,-0.555,+0.095,+0.449,+0.903,-0.371,-0.300,-6.000,+4.062,+3.812,1, -1, -1, 6, 2, -4, 0, -5,-2.242511071825357,1.1667017465915899
1503601799054,-0.693,-0.555,+0.095,+0.450,+0.892,-0.334,-0.314,-5.938,+4.562,+9.062,-35, 2, 0, -3, -2, -2, 6, -7,-2.2398484308660986,1.1663126858829451
1503601799069,-0.692,-0.555,+0.095,+0.452,+0.875,-0.355,-0.317,-1.938,+3.125,+12.812,-15, 1, -3, -7, -5, -1, 6, 9,-2.2362635640118937,1.1660034706506779
1503601799103,-0.691,-0.556,+0.094,+0.453,+0.869,-0.394,-0.308,-0.562,+0.250,+11.312,9, 16, 25, 1, 3, 1, 3, 30,-2.2360979544771458,1.16764161188783
1503601799114,-0.689,-0.556,+0.093,+0.455,+0.890,-0.431,-0.303,-3.438,+3.125,+10.250,-16, -4, -8, 1, 2, -3, 0, -11,-2.231515632108887,1.166100883867565
1503601799131,-0.687,-0.557,+0.092,+0.458,+0.899,-0.439,-0.295,-9.250,+2.875,+16.750,39, -5, -3, -2, -4, -3, 7, 51,-2.2278027225315005,1.1674329296824455
1503601799152,-0.685,-0.556,+0.092,+0.462,+0.888,-0.403,-0.324,-14.438,-1.688,+22.938,-48, -3, -6, 4, 4, 1, -5, -9,-2.218885420854727,1.1639938389052402
1503601799175,-0.684,-0.554,+0.091,+0.466,+0.856,-0.348,-0.316,-16.562,-9.375,+20.875,-4, -52, -42, -15, -8, -4, -4, -32,-2.2106528669712944,1.1574582048505964
1503601799197,-0.684,-0.552,+0.091,+0.469,+0.820,-0.329,-0.330,-9.438,-4.812,+13.562,7, -3, -6, -3, 0, 1, -2, -12,-2.204373319924716,1.1520980754233072
1503601799212,-0.682,-0.553,+0.091,+0.469,+0.817,-0.399,-0.347,+0.938,+7.500,+6.125,5, 0, -2, -2, -2, -2, -3, -16,-2.2026080918011686,1.153923149019509
1503601799235,-0.681,-0.555,+0.090,+0.469,+0.860,-0.447,-0.327,+5.562,+10.750,+4.625,-25, 5, 9, 2, -1, -1, -2, 6,-2.2051936296401253,1.1582803889692348
1503601799257,-0.679,-0.557,+0.090,+0.470,+0.924,-0.442,-0.286,+1.375,+11.188,+9.750,37, 15, 12, 1, -3, -1, 1, 17,-2.2044239508362544,1.1630242059529785
1503601799272,-0.675,-0.559,+0.091,+0.472,+0.915,-0.412,-0.271,-6.062,+15.312,+17.188,-9, -9, -7, -10, -2, 0, -2, -7,-2.1985318964918616,1.167676267043845
1503601799294,-0.672,-0.561,+0.092,+0.474,+0.856,-0.383,-0.287,-6.312,+23.062,+17.000,-16, 15, 34, 2, -3, -4, -5, -12,-2.1944709065541272,1.1728389507265913
1503601799310,-0.669,-0.564,+0.093,+0.475,+0.841,-0.402,-0.319,+1.188,+22.312,+10.250,12, 52, 32, 10, 3, -1, -3, -1,-2.1932050625000117,1.180798249316568
1503601799332,-0.667,-0.566,+0.093,+0.476,+0.859,-0.427,-0.300,+4.375,+14.438,+7.000,-7, -28, -17, -3, -2, -1, 1, 0,-2.192594137038547,1.1856407465610492
1503601799354,-0.665,-0.568,+0.092,+0.476,+0.869,-0.438,-0.238,+1.250,+5.438,+9.438,-9, -3, -12, -4, -1, -1, -8, -30,-2.193596617997611,1.1896618275561102
1503601799370,-0.663,-0.569,+0.093,+0.477,+0.843,-0.431,-0.237,-3.688,+11.000,+7.875,-4, -10, -5, -4, -3, -1, 3, 3,-2.190397232285985,1.1924452987078118
1503601799392,-0.661,-0.571,+0.094,+0.478,+0.821,-0.430,-0.240,-5.000,+14.188,+4.688,-21, -29, -20, -5, -4, -4, -4, -9,-2.1891428025954207,1.1981155567735866
1503601799414,-0.659,-0.572,+0.094,+0.480,+0.839,-0.468,-0.257,-6.438,+11.500,+5.438,7, -5, -12, -2, 1, 3, 7, 6,-2.1858674841219408,1.2002293344556105
1503601799431,-0.656,-0.573,+0.096,+0.482,+0.845,-0.475,-0.237,-13.562,+10.312,+8.500,16, 22, 1, -2, -1, 0, 2, 15,-2.1793946945352927,1.203445518823894
1503601799452,-0.654,-0.573,+0.098,+0.485,+0.866,-0.466,-0.211,-21.562,+11.875,+7.625,-16, 7, 0, -1, 1, 0, -2, -17,-2.171938735871002,1.2043350471290182
1503601799475,-0.651,-0.573,+0.102,+0.487,+0.831,-0.433,-0.264,-24.500,+20.000,+5.750,4, 8, 4, 1, 0, 1, 2, -1,-2.162125078660531,1.2063225230422436
1503601799492,-0.649,-0.573,+0.105,+0.490,+0.814,-0.412,-0.280,-19.938,+15.062,+2.938,20, 13, 4, 4, 1, 1, 2, 6,-2.1540486775964887,1.208099920452847
1503601799512,-0.648,-0.572,+0.107,+0.491,+0.853,-0.437,-0.258,-17.375,+3.312,-0.688,-7, -17, 0, -1, 0, -1, 2, 1,-2.1480904714119182,1.206506601635554
1503601799534,-0.648,-0.570,+0.109,+0.493,+0.873,-0.454,-0.241,-21.812,-5.438,-1.562,1, -4, -8, -4, -5, -8, -8, 15,-2.141194180486736,1.202615266998823
1503601799550,-0.647,-0.568,+0.112,+0.496,+0.841,-0.438,-0.241,-28.562,+0.125,-1.500,-8, -5, 6, 4, 1, 0, 0, -9,-2.131082549410932,1.1992618403656423
1503601799572,-0.646,-0.566,+0.116,+0.499,+0.826,-0.406,-0.289,-29.438,+6.812,-0.438,3, 0, -2, 3, 0, -2, 1, 6,-2.12038609195742,1.196861348034631
1503601799594,-0.645,-0.564,+0.120,+0.502,+0.818,-0.384,-0.329,-27.000,+9.000,-1.250,5, 0, 7, -2, -1, 0, -2, -9,-2.1097852225588323,1.1945748673381704
1503601799610,-0.644,-0.562,+0.124,+0.503,+0.848,-0.377,-0.298,-24.500,+4.938,-4.625,8, 13, -3, -5, -3, -3, -2, -4,-2.1007043037385773,1.192201246794793
1503601799632,-0.644,-0.560,+0.126,+0.505,+0.896,-0.396,-0.282,-21.938,-1.938,-3.750,-2, 13, 16, 2, 2, 1, 0, -8,-2.0940772737289186,1.1886330297750767
1503601799654,-0.644,-0.558,+0.129,+0.507,+0.896,-0.423,-0.273,-23.938,-5.750,-0.438,-10, -8, -7, 1, 0, -1, -3, -6,-2.086894123949644,1.1860492957836726
1503601799671,-0.644,-0.555,+0.130,+0.510,+0.866,-0.421,-0.293,-24.125,-12.062,+2.062,-10, -2, -1, 2, -2, 0, 0, -1,-2.078297237125105,1.1789749895477437
1503601799692,-0.645,-0.551,+0.131,+0.512,+0.803,-0.402,-0.358,-19.938,-9.000,-3.688,9, 7, -1, -3, -5, 1, 1, 0,-2.0703798013216907,1.1695483189312164
1503601799714,-0.647,-0.549,+0.134,+0.512,+0.764,-0.386,-0.349,-14.438,-0.250,-19.125,-5, -9, -11, -1, 6, 1, -1, 2,-2.0686066374058236,1.1678802513706124
1503601799730,-0.648,-0.548,+0.138,+0.510,+0.836,-0.374,-0.323,-8.938,+7.000,-27.312,-13, -1, -4, -2, -5, -4, 0, -1,-2.067666372623078,1.1692814703811785
1503601799751,-0.649,-0.548,+0.142,+0.508,+0.934,-0.381,-0.314,-6.875,+9.375,-22.062,-14, 8, -3, -1, -3, -2, 1, -1,-2.068681666471941,1.1734444925867065
1503601799774,-0.649,-0.548,+0.145,+0.507,+0.937,-0.388,-0.306,-6.500,+6.062,-15.688,1, -3, -5, -4, -10, -3, -1, 0,-2.067659095917653,1.176300241685711
1503601799790,-0.651,-0.548,+0.147,+0.505,+0.894,-0.377,-0.325,-2.625,-0.500,-17.500,11, 1, -1, -1, -14, -3, 1, 4,-2.0717317112360187,1.178953123172961
1503601799812,-0.653,-0.547,+0.148,+0.502,+0.857,-0.380,-0.330,+3.500,+2.938,-23.125,1, -13, -4, 1, 3, 0, 4, 2,-2.0751388274905,1.177782297482532
1503601799834,-0.654,-0.549,+0.151,+0.499,+0.874,-0.398,-0.310,+7.625,+10.875,-25.375,16, 5, 4, -1, 2, 0, 4, 3,-2.0811726592381095,1.186248080262123
1503601799850,-0.655,-0.551,+0.153,+0.495,+0.913,-0.402,-0.302,+10.188,+12.500,-26.312,-8, -10, -8, 1, 4, 1, -2, -5,-2.0884306486202644,1.193583495369373
1503601799874,-0.656,-0.552,+0.155,+0.491,+0.931,-0.387,-0.277,+9.562,+11.000,-26.625,-4, 7, 21, 10, 3, -3, -2, 0,-2.0938056158326632,1.198214786155122
1503601799894,-0.657,-0.554,+0.157,+0.487,+0.912,-0.376,-0.273,+10.312,+13.312,-27.750,4, -3, -8, 5, 8, -1, -1, -2,-2.1010408569899552,1.2055302669593277
1503601799910,-0.658,-0.557,+0.160,+0.482,+0.890,-0.364,-0.286,+11.250,+18.125,-28.375,-1, -4, -5, -5, 0, -1, -3, 0,-2.1102151099108077,1.2163978099134665
1503601799932,-0.658,-0.560,+0.163,+0.477,+0.922,-0.357,-0.276,+13.500,+23.062,-28.625,11, 2, -6, -8, -4, 1, -2, 2,-2.117501222603844,1.226852908585764
1503601799954,-0.658,-0.563,+0.165,+0.472,+0.951,-0.344,-0.268,+14.188,+24.188,-26.750,-10, 20, 25, 2, -4, -4, -5, -6,-2.125399847051913,1.2363306406005552
1503601799970,-0.659,-0.565,+0.167,+0.468,+0.960,-0.339,-0.257,+14.750,+16.688,-24.812,-10, -17, -20, -6, -4, -4, -2, -5,-2.132561345894727,1.2436169354208462
1503601799992,-0.659,-0.567,+0.169,+0.463,+0.949,-0.339,-0.217,+13.250,+11.812,-25.312,-2, -8, -5, -3, 2, 2, -6, -5,-2.138636703353608,1.250407309763012
1503601800015,-0.660,-0.569,+0.171,+0.459,+0.919,-0.321,-0.221,+11.938,+9.812,-24.750,3, 0, 20, 10, -1, 1, -1, 2,-2.145775069789495,1.2576832420145008
1503601800030,-0.661,-0.572,+0.174,+0.455,+0.902,-0.277,-0.252,+12.500,+21.625,-25.750,-10, 0, -6, -6, -7, -2, -1, 2,-2.1540270067867238,1.268617657862815
1503601800052,-0.660,-0.575,+0.177,+0.449,+0.906,-0.250,-0.275,+16.500,+34.188,-25.125,-7, -13, -10, -1, 5, 1, 2, -1,-2.1602148473251233,1.2786318798751741
1503601800076,-0.660,-0.579,+0.180,+0.444,+0.947,-0.236,-0.256,+21.625,+32.875,-21.688,11, -16, -11, 2, -1, -3, -2, 3,-2.1691841321945895,1.2918127851801438
1503601800098,-0.659,-0.583,+0.181,+0.439,+1.024,-0.249,-0.236,+20.750,+25.688,-16.625,5, -12, -8, -5, -6, -3, -2, -3,-2.177761207380165,1.3027417402812589
1503601800112,-0.659,-0.586,+0.182,+0.435,+0.970,-0.249,-0.197,+21.000,+18.125,-10.375,3, 6, -2, 2, 8, 0, 1, 0,-2.185529648441475,1.3114216440618778
1503601800134,-0.659,-0.589,+0.181,+0.431,+0.932,-0.259,-0.169,+21.688,+10.375,-8.438,-1, -5, -2, -4, 6, 1, -1, 1,-2.1947226681426986,1.3182055896295273
1503601800157,-0.659,-0.591,+0.181,+0.427,+0.924,-0.258,-0.185,+20.500,+11.750,-14.562,-12, -1, -5, -2, 4, 1, 0, 1,-2.2014686143731965,1.3232604672120554
1503601800172,-0.660,-0.594,+0.182,+0.423,+0.933,-0.232,-0.180,+19.188,+17.000,-18.875,-10, -9, 8, -2, -6, -2, -1, -4,-2.2109343774355743,1.3322824324296125
1503601800194,-0.660,-0.597,+0.184,+0.418,+0.921,-0.209,-0.207,+20.562,+20.500,-20.062,3, -8, -7, -4, -4, -3, -1, 0,-2.2187836699233054,1.3418647404787658
1503601800217,-0.661,-0.599,+0.185,+0.412,+0.926,-0.192,-0.179,+21.750,+17.750,-22.562,3, 8, 2, 2, -2, 1, 1, -1,-2.228119034852301,1.3479942129891378
1503601800232,-0.662,-0.601,+0.186,+0.407,+0.960,-0.189,-0.137,+22.500,+12.375,-22.812,0, 8, 5, 1, -11, -3, -3, -4,-2.23662768867414,1.3542079142012218
1503601800254,-0.662,-0.604,+0.188,+0.402,+0.956,-0.198,-0.126,+21.000,+16.500,-20.375,15, 12, 4, 0, 10, 3, 1, 0,-2.244442953852596,1.3638021986134194
1503601800277,-0.662,-0.607,+0.189,+0.397,+0.941,-0.195,-0.132,+16.438,+18.438,-18.875,-7, 4, 1, -2, -2, 0, 3, -1,-2.2530238274683816,1.3724802639320368
1503601800292,-0.662,-0.609,+0.191,+0.393,+0.937,-0.184,-0.147,+15.312,+18.625,-18.375,0, -5, -6, 5, 5, 2, 1, 3,-2.2582605177532824,1.379452446409032
1503601800314,-0.662,-0.611,+0.193,+0.388,+0.945,-0.186,-0.141,+16.500,+15.188,-19.750,2, 16, 15, 3, -2, -1, -1, 3,-2.264351101328615,1.3863576568767846
1503601800336,-0.663,-0.613,+0.194,+0.384,+0.972,-0.203,-0.131,+15.188,+11.500,-19.812,12, 0, -8, -3, 2, 2, 2, 4,-2.271940866277991,1.3926423616315624
1503601800352,-0.663,-0.614,+0.195,+0.381,+0.980,-0.199,-0.107,+10.875,+11.812,-11.812,-4, 12, -1, -6, 1, 1, -1, 4,-2.275418155780911,1.3960634523889697
1503601800376,-0.662,-0.616,+0.195,+0.380,+0.992,-0.208,-0.076,+5.250,+9.938,-2.812,-14, -14, -8, -8, -10, -1, -4, -4,-2.2780516914326023,1.401201621667766
1503601800397,-0.661,-0.617,+0.195,+0.380,+0.980,-0.202,-0.119,-0.250,+4.562,+4.938,-3, 13, 12, 2, -8, -6, -11, -8,-2.2781576546611806,1.4037037638913883
1503601800413,-0.661,-0.616,+0.195,+0.382,+0.964,-0.218,-0.134,-3.375,-0.250,+6.875,-3, -6, -5, -3, -1, 0, 4, -1,-2.2747421810710127,1.4011235651446579
1503601800434,-0.660,-0.616,+0.195,+0.383,+0.962,-0.239,-0.103,-7.000,-4.000,+1.438,0, -19, -14, -2, 0, -2, 3, 3,-2.2723108350800043,1.4009779690578472
1503601800457,-0.662,-0.613,+0.195,+0.385,+0.958,-0.234,-0.091,-10.312,-18.125,-0.312,16, -16, -6, -1, -2, -3, 0, 1,-2.268692725805546,1.3934136651641014
1503601800472,-0.664,-0.610,+0.195,+0.386,+0.950,-0.213,-0.123,-11.562,-21.812,-4.438,1, 7, 8, 3, 5, 0, -7, -6,-2.2659816089128233,1.3858167178085052
1503601800494,-0.665,-0.607,+0.197,+0.387,+0.908,-0.184,-0.131,-13.500,-15.188,-8.188,-4, 1, 2, -1, -2, -2, 1, -1,-2.2601280657441167,1.3798945052440126
1503601800517,-0.666,-0.605,+0.199,+0.388,+0.908,-0.171,-0.154,-12.812,-3.875,-9.688,-4, 9, 3, 1, -2, -1, 1, 1,-2.255974138376366,1.3767160740422546
1503601800532,-0.667,-0.604,+0.201,+0.388,+0.960,-0.165,-0.171,-8.750,-0.500,-9.688,-9, -8, 0, -3, -4, 0, -3, -8,-2.2543671635509015,1.3761782007880383
1503601800554,-0.668,-0.603,+0.203,+0.387,+0.992,-0.176,-0.149,-5.562,-4.125,-8.500,-6, 1, -1, 4, 3, 1, -3, -6,-2.2536367573856144,1.3755810131859725
1503601800577,-0.669,-0.601,+0.204,+0.387,+0.990,-0.186,-0.128,-4.375,-7.875,-9.312,-2, -1, 2, -1, 0, 0, -8, -10,-2.251195611288209,1.37144334522023
1503601800592,-0.670,-0.599,+0.205,+0.387,+0.973,-0.176,-0.138,-5.250,-11.938,-10.562,5, 6, -3, -6, -4, 0, 3, 8,-2.2487732522972057,1.367324915207582
1503601800616,-0.672,-0.597,+0.206,+0.386,+0.958,-0.159,-0.162,-4.062,-11.250,-11.438,-1, -10, -15, -1, 1, -2, 1, 4,-2.248867258662855,1.3633897425455908
1503601800630,-0.674,-0.596,+0.207,+0.385,+0.958,-0.162,-0.142,-2.500,-5.125,-13.625,-2, 0, 4, -2, -3, -2, 1, -2,-2.250616726570042,1.362131101022923
1503601800653,-0.675,-0.595,+0.209,+0.383,+0.975,-0.162,-0.154,-1.312,-2.750,-15.125,8, 2, 0, -4, 3, 1, 1, -4,-2.2508432769460716,1.3615327034995846
1503601800674,-0.676,-0.594,+0.210,+0.382,+0.992,-0.172,-0.156,-0.875,-4.938,-14.250,-9, 1, 0, 2, 0, -3, -1, -3,-2.2509815437039005,1.3600426643902652
1503601800690,-0.677,-0.593,+0.211,+0.381,+0.983,-0.173,-0.150,-0.562,-6.062,-12.000,-2, 6, 4, -2, -4, 2, 2, 7,-2.2511311295586003,1.358560366553238
1503601800712,-0.679,-0.592,+0.212,+0.380,+0.990,-0.171,-0.146,-2.438,-7.750,-12.250,2, 0, 1, 3, 3, -1, 2, 0,-2.252942843513818,1.357340060775627
1503601800734,-0.680,-0.590,+0.214,+0.379,+1.009,-0.144,-0.148,-5.250,-4.938,-13.375,-4, -2, 1, -3, -2, -1, -7, -9,-2.2507809035546886,1.3542525876397382
1503601800752,-0.681,-0.589,+0.216,+0.379,+1.009,-0.124,-0.170,-5.625,-4.562,-10.312,11, 25, 17, 4, -1, 1, 3, 8,-2.2493607557627757,1.3539124028528107
1503601800772,-0.682,-0.587,+0.217,+0.378,+0.983,-0.114,-0.165,-3.875,-7.750,-7.062,8, -12, -9, 3, -3, 2, 6, 6,-2.2479909342825377,1.349854859007646
1503601800794,-0.683,-0.586,+0.218,+0.378,+0.982,-0.127,-0.169,-1.875,-8.812,-7.625,-7, -2, -3, -1, -1, -2, -1, -2,-2.247347531622992,1.3485245417582172
1503601800817,-0.684,-0.585,+0.219,+0.377,+0.982,-0.123,-0.165,-1.438,-4.188,-8.125,-12, -21, -8, 0, -1, -3, -1, -5,-2.2475790680767562,1.347105463018285
1503601800832,-0.684,-0.585,+0.219,+0.376,+0.969,-0.125,-0.173,+0.438,-0.250,-8.750,3, -22, -16, -4, -3, -2, -6, -3,-2.2484452261963694,1.347007284952474
1503601800854,-0.685,-0.584,+0.220,+0.375,+0.986,-0.132,-0.172,+0.562,-2.188,-9.438,1, 14, 7, 1, -1, -1, 1, -2,-2.248689189876501,1.3455945335187862
1503601800870,-0.686,-0.584,+0.221,+0.374,+1.004,-0.136,-0.157,+0.250,-3.562,-8.312,16, 23, 1, -3, -1, -3, 1, 11,-2.250497622041557,1.3467942679637432
1503601800892,-0.686,-0.583,+0.222,+0.374,+1.010,-0.143,-0.152,-1.938,-2.938,-5.938,7, 9, -3, -6, -6, -3, 2, 3,-2.24820601853481,1.3452298108866647
1503601800914,-0.686,-0.583,+0.223,+0.374,+0.997,-0.131,-0.153,-3.812,-1.500,-3.375,-2, 10, 16, 2, 2, 1, 3, 0,-2.2474690388030782,1.346273361090443
1503601800930,-0.686,-0.582,+0.223,+0.375,+0.994,-0.122,-0.175,-4.250,-3.062,-0.062,-8, -8, -6, -4, 3, 3, -2, -3,-2.2450505804934267,1.3437736447158664
1503601800952,-0.686,-0.582,+0.223,+0.375,+0.994,-0.120,-0.174,-4.875,-3.812,+2.000,0, -17, -4, -1, -1, -1, -1, 0,-2.2450505804934267,1.3437736447158664
1503601800974,-0.686,-0.581,+0.224,+0.376,+0.991,-0.127,-0.164,-5.375,-4.875,+1.500,-2, -3, -1, 0, -2, -2, 1, -1,-2.2419019562552585,1.3423266952626174
1503601800991,-0.686,-0.580,+0.224,+0.377,+0.992,-0.131,-0.163,-4.938,-5.062,+1.500,15, 14, 17, 7, 3, 2, 0, 7,-2.2394856709247377,1.3398332413962677
1503601801013,-0.686,-0.580,+0.224,+0.378,+0.986,-0.117,-0.180,-5.750,-1.750,+3.625,8, 5, -4, -1, 0, 1, 1, 3,-2.2386277560386003,1.3399366843746072
1503601801034,-0.686,-0.579,+0.224,+0.379,+0.962,-0.113,-0.224,-4.812,+0.062,+4.562,-5, 3, 1, 6, 1, -2, -4, -4,-2.23621317494813,1.3374464409129643
1503601801057,-0.686,-0.578,+0.224,+0.381,+0.972,-0.116,-0.222,-4.562,-2.500,+4.312,-7, 2, 7, 1, 0, 1, -1, -2,-2.2329463386861983,1.3350639158327728
1503601801072,-0.686,-0.578,+0.224,+0.381,+0.988,-0.124,-0.179,-1.125,-0.562,+2.688,-3, -3, 4, 1, -1, 0, 1, 2,-2.2329463386861983,1.3350639158327728
1503601801094,-0.685,-0.579,+0.225,+0.381,+0.967,-0.146,-0.165,+1.500,+7.125,-0.688,-4, 10, -7, -5, -2, -3, -3, -5,-2.2320825695384454,1.338444384685919
1503601801117,-0.684,-0.581,+0.226,+0.379,+0.956,-0.149,-0.155,+1.062,+13.812,-5.688,1, -16, -17, -5, -6, -3, -3, -9,-2.2344857900519313,1.3442174718639994
1503601801133,-0.683,-0.583,+0.228,+0.377,+0.952,-0.130,-0.175,+2.562,+18.438,-11.250,-25, -16, -3, 4, 11, 3, 0, -6,-2.236168798842348,1.3510662820746033
1503601801155,-0.682,-0.584,+0.230,+0.374,+0.947,-0.119,-0.166,+6.625,+18.000,-19.375,3, 7, 0, -2, -2, -1, 0, -3,-2.2371342962224263,1.3552383828165875
1503601801176,-0.684,-0.585,+0.232,+0.370,+0.936,-0.115,-0.184,+10.312,+8.750,-22.688,2, 6, 9, -2, -2, -1, -4, -5,-2.2440314560497243,1.360072043244015
1503601801193,-0.685,-0.585,+0.233,+0.367,+0.965,-0.162,-0.139,+6.562,+2.188,-24.562,3, -2, -7, -4, -1, -2, 0, 5,-2.247562829166292,1.361094441278353
1503601801216,-0.685,-0.585,+0.234,+0.366,+1.017,-0.153,-0.137,-2.188,-1.625,-13.312,1, -2, 0, 7, 7, -2, 0, 2,-2.2476887827537406,1.3620688886245693
1503601802475,-0.686,-0.589,+0.142,+0.402,+0.936,-0.283,-0.245,+52.062,+7.688,+34.062,-5, 5, -3, 7, 2, -1, -3, 2,-2.294386290616029,1.2901699763254775
1503601802497,-0.685,-0.594,+0.133,+0.401,+0.903,-0.304,-0.208,+53.750,+3.562,+34.188,9, -5, -4, -3, -6, -2, 0, 4,-2.3094271459480513,1.2965538083995576
1503601802513,-0.683,-0.598,+0.124,+0.400,+0.854,-0.321,-0.179,+45.500,-0.062,+34.062,0, -2, -2, -1, 1, -2, -3, -2,-2.3215681194219995,1.3002785443999176
1503601802535,-0.681,-0.602,+0.116,+0.400,+0.834,-0.305,-0.168,+37.500,+2.750,+29.188,23, 3, -10, -8, -4, -2, 0, 4,-2.3321610094856444,1.3052018694720418
1503601802558,-0.680,-0.606,+0.108,+0.399,+0.838,-0.379,-0.189,+46.438,+7.750,+24.625,-12, -17, -9, -1, -1, -1, 0, -4,-2.345492682092404,1.310766693663148
1503601802573,-0.677,-0.612,+0.103,+0.396,+0.825,-0.372,-0.170,+42.812,+19.812,+15.312,-3, 10, 1, 0, 2, 2, 6, 8,-2.358822492232671,1.3236081849881354
1503601802595,-0.675,-0.616,+0.099,+0.394,+0.836,-0.302,-0.167,+29.750,+18.562,+12.500,-6, 7, 7, 2, -1, 0, 1, -3,-2.3685002366764163,1.331949297883664
1503601802617,-0.674,-0.618,+0.096,+0.393,+0.846,-0.292,-0.190,+23.125,+4.938,+8.938,1, -2, -2, -3, -4, 0, 1, 18,-2.3743478841244534,1.3355894072552268
1503601802633,-0.675,-0.619,+0.094,+0.390,+0.839,-0.279,-0.183,+19.938,+0.625,-1.250,3, -17, 1, 3, -1, -1, 0, 0,-2.3824674828432335,1.3374857037618124
1503601802655,-0.676,-0.620,+0.093,+0.388,+0.845,-0.284,-0.161,+17.312,+2.000,-4.000,36, 64, 15, -1, 0, -3, -3, 4,-2.3885848251307773,1.340030042610867
1503601802677,-0.676,-0.620,+0.093,+0.387,+0.850,-0.291,-0.199,+10.875,+1.750,-2.062,-5, -25, -5, -7, -3, -1, -3, -2,-2.389640073148453,1.339984543385412
1503601802693,-0.677,-0.620,+0.092,+0.387,+0.846,-0.296,-0.207,+4.938,-2.750,+2.875,-7, -5, -1, 4, -1, -2, -4, -10,-2.3919772542363007,1.3397134937193353
1503601802715,-0.678,-0.619,+0.091,+0.387,+0.858,-0.282,-0.204,+2.250,-6.812,+6.312,-7, -8, -7, -2, 0, -2, -1, -8,-2.392652721996537,1.336535795413214
1503601802737,-0.679,-0.617,+0.090,+0.388,+0.867,-0.293,-0.200,+1.812,-9.188,+5.562,9, 4, -2, -4, -2, 0, 0, 8,-2.390610420210081,1.3304987802528037
1503601802753,-0.680,-0.616,+0.088,+0.389,+0.887,-0.319,-0.197,-1.188,-12.625,+9.375,-27, -17, 1, 10, 4, -2, -9, -20,-2.391191639432915,1.3268107821501232
1503601802775,-0.681,-0.613,+0.086,+0.392,+0.883,-0.335,-0.224,-3.500,-16.562,+14.375,11, -3, -2, -5, -2, 0, 5, -2,-2.3863128071654054,1.317399937910275
1503601802797,-0.682,-0.611,+0.084,+0.394,+0.888,-0.332,-0.206,-3.750,-19.625,+15.062,0, 6, -9, -4, -2, 2, 1, -14,-2.3841502168533024,1.3108647571033558
1503601802813,-0.683,-0.609,+0.081,+0.396,+0.906,-0.341,-0.197,+1.062,-20.062,+15.688,-26, -32, 0, -2, 0, -1, -4, -23,-2.3829286585754614,1.3037759514945884
1503601802836,-0.683,-0.607,+0.078,+0.398,+0.905,-0.376,-0.203,+4.750,-16.188,+16.938,6, -18, -11, -8, -3, 3, 4, 8,-2.3802802861434067,1.296348224371424
1503601802859,-0.684,-0.606,+0.075,+0.400,+0.917,-0.397,-0.210,+5.062,-12.562,+16.438,10, -14, -1, 0, 0, 0, 4, 23,-2.3807133029319756,1.2922099608394861
1503601802873,-0.684,-0.606,+0.072,+0.401,+0.935,-0.398,-0.193,+5.812,-11.500,+13.688,-8, 5, 2, -3, -2, -3, -2, 0,-2.3824913205774694,1.2906186138395226
1503601802895,-0.684,-0.605,+0.069,+0.401,+0.937,-0.390,-0.187,+7.250,-12.500,+12.625,-6, 21, 4, -1, 3, 4, -1, -23,-2.383656003586567,1.2860706715935772
1503601802924,-0.685,-0.604,+0.067,+0.402,+0.938,-0.402,-0.201,+5.812,-12.188,+9.688,2, 0, -1, -3, -2, -3, 1, 6,-2.3841969981182602,1.2824802908238313
1503601802933,-0.685,-0.603,+0.065,+0.402,+0.951,-0.403,-0.218,+3.625,-13.000,+6.000,1, 24, 6, 3, -1, -1, -2, 5,-2.3844060768891784,1.2784822431236895
1503601802955,-0.686,-0.603,+0.064,+0.402,+0.946,-0.394,-0.198,+4.625,-11.562,+3.250,2, 16, 3, 3, 1, -2, -3, 1,-2.3867769169691218,1.278339270687193
1503601802977,-0.687,-0.602,+0.063,+0.402,+0.936,-0.400,-0.198,+0.750,-9.375,+1.312,-1, -30, -9, -2, -5, -4, -6, 1,-2.387446985257651,1.2752538585586133
1503601802994,-0.687,-0.601,+0.064,+0.402,+0.928,-0.394,-0.194,-4.312,-4.688,-1.438,-1, 5, 6, 3, 4, 2, -3, 0,-2.3847939318636016,1.2728295378765684
1503601803015,-0.687,-0.601,+0.066,+0.403,+0.934,-0.391,-0.181,-10.688,-1.812,-5.250,-15, -15, -10, -10, -6, -5, -5, -3,-2.3818054457755613,1.2739260731146185
1503601803038,-0.688,-0.600,+0.069,+0.403,+0.936,-0.346,-0.210,-14.312,-0.438,-7.688,-3, 8, 5, 5, 4, -1, 1, -3,-2.378705748009166,1.272986676557534
1503601803053,-0.689,-0.599,+0.072,+0.403,+0.907,-0.336,-0.209,-13.625,-2.312,-9.562,13, -9, -1, -5, -5, 0, 3, 7,-2.375642854431947,1.2720926711603509
1503601803075,-0.689,-0.597,+0.074,+0.403,+0.902,-0.363,-0.222,-15.062,-1.688,-9.125,-5, 8, 4, 3, 0, 2, 2, 1,-2.3704130656078766,1.267386878374084
1503601803098,-0.689,-0.596,+0.077,+0.405,+0.881,-0.391,-0.225,-18.938,+0.938,-8.625,-6, -6, -5, -2, -1, -3, -2, -25,-2.36382939835267,1.2662968611199825
1503601803113,-0.689,-0.595,+0.081,+0.406,+0.888,-0.385,-0.201,-24.375,+3.875,-10.750,0, -6, -1, 6, 0, 0, -3, -13,-2.357438636198292,1.2658017352220787
1503601803137,-0.689,-0.593,+0.086,+0.407,+0.890,-0.374,-0.197,-28.750,+2.375,-13.125,11, -24, -12, -3, -1, -1, -2, 2,-2.348515910324831,1.2631197989729919
1503601803158,-0.688,-0.592,+0.092,+0.409,+0.872,-0.357,-0.153,-32.000,+5.000,-12.750,-11, 5, 1, -3, -2, 0, 4, 5,-2.3379326771192432,1.2637535834460578
1503601803180,-0.687,-0.591,+0.098,+0.411,+0.831,-0.352,-0.153,-37.812,+10.812,-13.688,-1, 0, -4, -9, -4, 0, 2, 24,-2.3274431090297645,1.2645512864186177
1503601803196,-0.686,-0.590,+0.106,+0.413,+0.854,-0.339,-0.183,-45.000,+12.250,-16.000,14, 11, 5, 1, 2, -3, 3, 10,-2.315344702421246,1.2668918649051173
1503601803216,-0.686,-0.586,+0.114,+0.416,+0.877,-0.278,-0.250,-51.000,+7.438,-17.812,-9, 1, -1, 3, 2, -1, -4, 1,-2.298932623302315,1.2615100366483711
1503601803239,-0.686,-0.582,+0.123,+0.419,+0.858,-0.217,-0.279,-52.312,+3.562,-16.500,-1, -20, -1, -2, -1, -1, -7, 0,-2.2819677633260578,1.2572857491577574
1503601803254,-0.686,-0.578,+0.132,+0.423,+0.827,-0.195,-0.283,-52.812,+7.438,-12.688,4, -10, -9, -6, -4, -1, -5, -32,-2.264382072931643,1.253607607585291
1503601803276,-0.685,-0.575,+0.141,+0.426,+0.828,-0.174,-0.276,-54.375,+15.938,-13.438,-17, 8, 9, 3, 1, 0, -6, -34,-2.2480537259718734,1.2526578380725997
1503601803299,-0.683,-0.572,+0.151,+0.428,+0.866,-0.147,-0.282,-52.125,+18.250,-13.938,-9, 12, 11, 10, 3, -1, -1, 1,-2.2304092192129543,1.2525149228933765
1503601803314,-0.683,-0.568,+0.160,+0.432,+0.919,-0.160,-0.313,-54.188,+8.688,-11.625,16, 6, -4, -6, -4, 0, 7, 34,-2.2137350327770653,1.2501856514030163
1503601803337,-0.683,-0.561,+0.167,+0.437,+0.918,-0.181,-0.332,-55.625,-9.188,-5.875,11, 0, 1, -2, -1, 2, 0, 17,-2.1928958977269692,1.2385416156059572
1503601803359,-0.684,-0.554,+0.172,+0.442,+0.882,-0.204,-0.332,-54.375,-21.875,-2.750,-1, -6, -4, -2, -2, -1, 0, 12,-2.17548937617614,1.2257965828302637
1503601803374,-0.686,-0.547,+0.176,+0.447,+0.842,-0.229,-0.337,-47.500,-22.312,-3.812,-15, -16, -9, -7, -1, -2, 2, -8,-2.1608505738142307,1.2128037749576754
1503601803397,-0.686,-0.541,+0.180,+0.452,+0.853,-0.264,-0.330,-45.062,-16.812,-6.875,3, 6, -3, -10, -5, -5, -6, -1,-2.1444635543363506,1.2019180180416293
1503601803419,-0.687,-0.535,+0.185,+0.456,+0.896,-0.261,-0.331,-46.812,-12.125,-7.312,5, 12, 11, 5, 11, 9, 12, -1,-2.130336380758286,1.192604137159532
1503601803434,-0.687,-0.529,+0.190,+0.461,+0.924,-0.251,-0.343,-50.500,-16.625,-5.062,1, -2, -10, 1, -2, 0, 6, 8,-2.113819713822262,1.1833256225124762
1503601803456,-0.688,-0.522,+0.194,+0.465,+0.941,-0.259,-0.349,-48.188,-25.125,-6.688,-3, -2, 0, -3, -2, -2, -1, -5,-2.099109887772588,1.1709859732065049
1503601803479,-0.688,-0.518,+0.198,+0.469,+0.738,-0.371,-0.091,-48.938,-24.938,-12.750,-12, 1, -4, -4, -4, -3, -5, -4,-2.087592143948197,1.166021140162495
1503601803494,-0.689,-0.509,+0.191,+0.479,+0.818,-0.507,-0.420,-32.625,-65.688,+27.250,-2, -9, 3, 9, 1, 0, 0, 10,-2.0715067371751723,1.1377356572646005
1503601803517,-0.672,-0.525,+0.200,+0.483,+1.700,-0.509,+0.048,-32.375,+96.625,+48.375,3, 10, -6, -4, -4, -3, 0, -2,-2.0573071197061976,1.1814686168094264
1503601803539,-0.681,-0.510,+0.214,+0.480,+1.448,+0.343,-0.467,-64.250,-50.312,-52.250,-3, -9, -3, -1, -5, -3, -2, -10,-2.045121501816712,1.1635902917045786
1503601803554,-0.684,-0.507,+0.207,+0.482,+1.063,-0.403,-0.338,+14.000,-54.562,+2.812,2, 6, 4, 1, 1, 1, 2, 6,-2.0483100651513886,1.1495281009224616
1503601803576,-0.686,-0.505,+0.206,+0.482,+1.260,-0.363,-0.237,-7.125,-31.875,-12.938,-1, -5, -2, -7, -4, -5, -4, 16,-2.049566277780571,1.1442839522929449
1503601803599,-0.693,-0.496,+0.204,+0.482,+0.909,-0.142,-0.727,+2.500,-38.562,-19.000,3, 21, 8, -1, -1, 0, -2, -2,-2.0502356720083426,1.1229434059689996
1503601803614,-0.688,-0.504,+0.207,+0.480,+0.928,-0.282,-0.308,+3.750,+49.188,+4.438,-1, -5, -5, -1, -2, -2, -4, -18,-2.052820410985874,1.1435061524161538
1503601803637,-0.682,-0.511,+0.209,+0.480,+0.937,-0.253,-0.317,+3.750,+50.125,+13.188,-6, -10, -8, -5, -1, -1, -1, -11,-2.0511896932403593,1.1605603090734509
1503601803659,-0.674,-0.519,+0.210,+0.481,+0.863,-0.255,-0.346,+6.125,+58.250,+32.188,6, 16, 9, 2, 2, 2, 1, 2,-2.047369762086731,1.178466697117787
1503601803674,-0.672,-0.520,+0.213,+0.482,+0.904,-0.166,-0.440,-11.250,+27.750,+6.938,-2, -7, 1, 0, -2, -1, 3, 3,-2.0429692471558867,1.1838453635306692
1503601803700,-0.672,-0.519,+0.214,+0.483,+0.939,-0.158,-0.372,-9.625,-0.125,-3.000,-2, -8, -4, 0, 1, -3, -4, -2,-2.0401642855117403,1.1827036119757317
1503601803719,-0.675,-0.514,+0.209,+0.486,+0.859,-0.234,-0.446,+5.688,-37.625,+11.500,-3, -4, -4, -2, -2, 0, -4, -7,-2.038263227017176,1.1660958733709563
1503601803736,-0.676,-0.511,+0.204,+0.490,+0.801,-0.250,-0.345,+0.250,-30.125,+21.812,3, -2, -6, -1, -1, 0, 0, -3,-2.035095871079099,1.1538678484301195
1503601803756,-0.677,-0.509,+0.202,+0.492,+0.821,-0.220,-0.335,-3.312,-19.000,+7.750,-2, 2, 4, -1, -2, 1, 0, 9,-2.033450559247022,1.1473331638750852
1503601803779,-0.677,-0.507,+0.201,+0.494,+0.835,-0.236,-0.328,-6.938,-11.500,+6.688,-1, -3, 2, 2, 2, 0, 1, -6,-2.0293073534813333,1.1415526157841684
1503601803794,-0.677,-0.505,+0.200,+0.497,+0.828,-0.248,-0.349,-11.812,-12.625,+8.500,-4, -4, -3, -3, -3, -2, -4, -6,-2.024556286789281,1.1359533495407914
1503601803817,-0.677,-0.502,+0.200,+0.500,+0.844,-0.238,-0.364,-17.500,-19.562,+6.688,0, -3, 0, 1, -1, -3, 0, 1,-2.0176883612713095,1.1290831531304661
1503601803839,-0.678,-0.498,+0.201,+0.503,+0.833,-0.207,-0.396,-21.188,-16.812,+2.250,0, -2, 5, 4, 2, 0, 2, 4,-2.0108179342909844,1.1214321620512593
1503601803854,-0.679,-0.493,+0.202,+0.505,+0.837,-0.199,-0.401,-21.938,-17.000,-2.188,-4, -4, -8, -6, -2, 1, -2, -3,-2.0029581440912825,1.1112444641263521
1503601803876,-0.681,-0.488,+0.203,+0.507,+0.847,-0.220,-0.397,-19.938,-23.375,-7.375,1, 0, 0, 0, -1, -3, -7, 2,-1.9973051188377755,1.1016087225080335
1503601803901,-0.683,-0.483,+0.203,+0.508,+0.882,-0.245,-0.377,-20.438,-28.000,-12.312,2, 2, 2, 3, 1, 1, 1, -2,-1.9927569304930572,1.090667811153435
1503601803914,-0.686,-0.478,+0.205,+0.510,+0.884,-0.250,-0.384,-25.688,-29.000,-13.375,-3, 0, -4, -3, -2, -2, 0, 0,-1.9890869505502924,1.0829175052806062
1503601803937,-0.687,-0.472,+0.207,+0.512,+0.867,-0.217,-0.406,-32.562,-22.562,-12.438,3, -3, 0, -3, -3, -1, 1, 3,-1.979689544652844,1.0720117551370798
1503601803959,-0.688,-0.466,+0.211,+0.514,+0.827,-0.165,-0.443,-36.312,-16.000,-10.125,-1, 0, 0, 2, 0, 0, 1, -4,-1.969698153648238,1.063777574273146
1503601803974,-0.689,-0.461,+0.215,+0.517,+0.851,-0.131,-0.437,-36.750,-13.250,-8.562,-2, -1, -2, -1, 0, -1, 0, -1,-1.960941335915953,1.058295261195329
1503601803996,-0.690,-0.456,+0.219,+0.518,+0.901,-0.125,-0.431,-34.250,-14.562,-9.688,0, -1, 1, -1, 0, 1, -1, -1,-1.9534168529191314,1.0525580936758125
1503601804019,-0.690,-0.451,+0.223,+0.520,+0.931,-0.125,-0.420,-31.188,-17.438,-8.125,4, 13, 14, 2, 0, 0, -1, 0,-1.9433051094760605,1.046750225869296
1503601804035,-0.691,-0.446,+0.226,+0.523,+0.930,-0.123,-0.434,-32.062,-20.625,-2.188,4, -8, -8, -2, -1, -3, -1, 1,-1.935389199839997,1.0404779977679672
1503601804056,-0.691,-0.440,+0.228,+0.526,+0.905,-0.122,-0.455,-33.875,-19.750,+0.438,-5, -2, -3, -4, -1, -3, -3, -7,-1.9241900314086386,1.0303157808677867
1503601804079,-0.691,-0.435,+0.230,+0.529,+0.874,-0.125,-0.480,-33.250,-22.750,+0.312,-2, -1, -3, -2, -1, -1, 1, -5,-1.9146280990521636,1.0225396269391465
1503601804094,-0.692,-0.428,+0.232,+0.533,+0.882,-0.134,-0.488,-32.125,-26.625,-0.250,-7, -5, -4, 1, -2, 0, -2, -2,-1.9040450300047853,1.01117510500085
1503601804116,-0.693,-0.423,+0.233,+0.536,+0.901,-0.106,-0.485,-29.562,-28.562,+2.438,0, 0, 3, 2, 0, 0, -1, 5,-1.8973435591607062,1.0027659504069295
1503601804139,-0.693,-0.418,+0.234,+0.539,+0.872,-0.074,-0.492,-24.125,-21.438,+5.062,-6, 1, 2, -5, -2, -2, 1, -5,-1.8884550997457457,0.9939985505444745
1503601804154,-0.693,-0.414,+0.234,+0.542,+0.863,-0.083,-0.511,-20.062,-21.000,+7.562,-8, -7, -8, -7, -2, 1, 2, -1,-1.881364439514167,0.9861007972770525
1503601804177,-0.693,-0.409,+0.234,+0.545,+0.854,-0.128,-0.524,-19.438,-25.000,+7.562,10, 0, 0, 2, -1, -1, -1, 2,-1.8729021922925224,0.9761106722777626
1503601804199,-0.694,-0.405,+0.233,+0.548,+0.833,-0.176,-0.501,-19.375,-27.375,+3.375,-9, 5, 0, 2, 4, 0, -2, -1,-1.8685378672981632,0.9674007300276608
1503601804214,-0.694,-0.401,+0.234,+0.551,+0.844,-0.189,-0.514,-21.375,-17.125,-0.562,12, 2, 0, 1, -2, -3, -2, 4,-1.8614218420821094,0.9610872864410586
1503601804237,-0.693,-0.398,+0.235,+0.553,+0.847,-0.145,-0.543,-23.438,-6.688,+0.375,-16, -3, -6, -3, 0, 0, -3, -1,-1.853813737098996,0.9562224936273486
1503601804259,-0.693,-0.395,+0.237,+0.555,+0.841,-0.104,-0.542,-20.125,-8.750,+1.188,-12, 6, 0, -2, -1, 0, -3, -2,-1.8483938066182657,0.9532849581623939
1503601804274,-0.694,-0.392,+0.237,+0.556,+0.857,-0.128,-0.505,-13.750,-19.812,-6.938,-6, 10, -1, 1, 2, -1, 0, -4,-1.846214693621199,0.9477253898791171
1503601804296,-0.695,-0.388,+0.237,+0.556,+0.864,-0.174,-0.462,-14.125,-24.438,-12.688,-2, -10, 2, 2, -1, 0, -1, -4,-1.8430754875428152,0.939825998308368
1503601804319,-0.696,-0.385,+0.239,+0.557,+0.860,-0.178,-0.477,-21.375,-19.562,-10.750,9, -2, -3, 3, 0, 0, 0, 1,-1.84057115112669,0.9371944483014741
1503601804338,-0.696,-0.381,+0.241,+0.558,+0.823,-0.121,-0.514,-25.438,-9.625,-9.500,-4, 6, 4, 0, 2, 0, 0, -2,-1.8343644624564306,0.9320884827237998
1503601804356,-0.696,-0.379,+0.245,+0.558,+0.786,-0.093,-0.518,-23.750,+1.375,-11.438,-6, -4, 4, 1, 0, -1, -1, -2,-1.8308765063293746,0.9337769187185162
1503601804379,-0.696,-0.377,+0.249,+0.558,+0.822,-0.098,-0.485,-22.562,+1.312,-16.688,-7, -4, -2, -4, -2, -1, -3, -4,-1.8274207271879632,0.935527059546651
1503601804394,-0.696,-0.375,+0.253,+0.557,+0.855,-0.138,-0.461,-25.312,+3.375,-18.562,25, 7, -1, -3, -6, 1, 0, 5,-1.8243465741809741,0.9370387445178338
1503601804416,-0.695,-0.373,+0.258,+0.557,+0.869,-0.134,-0.507,-31.812,+5.500,-14.562,-7, -6, -8, -3, -3, -2, -1, -2,-1.8183373155636293,0.9399594665458697
1503601804439,-0.693,-0.372,+0.263,+0.558,+0.912,-0.073,-0.592,-29.562,+10.688,-2.812,-6, 13, 4, -1, -1, -2, 1, 1,-1.8109139680827173,0.9448695572755053
1503601804454,-0.690,-0.373,+0.267,+0.560,+0.954,+0.005,-0.707,-17.250,+27.500,+18.812,1, 2, -3, -2, -1, -2, -3, -3,-1.803598491302277,0.9522637291705953
1503601804480,-0.686,-0.374,+0.267,+0.564,+0.839,-0.078,-0.595,-14.375,+11.562,+24.625,-6, -9, -3, -2, 0, -1, 0, -4,-1.7939686954366871,0.9537872173484719
1503601804499,-0.684,-0.374,+0.267,+0.566,+0.903,-0.151,-0.480,-11.125,-7.125,+6.625,-3, -21, 2, 4, 5, 0, -1, 0,-1.7885049560594641,0.9535390925374351
1503601804514,-0.684,-0.373,+0.268,+0.566,+0.873,-0.114,-0.543,-10.062,+0.500,-4.000,-7, -11, -7, -2, -1, 0, -1, 0,-1.7869965645075878,0.9530558182458962
1503601804538,-0.683,-0.373,+0.270,+0.567,+0.817,-0.081,-0.531,-11.312,+5.875,+0.500,-1, -6, -4, 1, 1, 0, -1, 0,-1.783951503247651,0.9560064147031963
1503601804559,-0.681,-0.374,+0.273,+0.567,+0.795,-0.040,-0.500,-11.250,+17.625,+4.125,-7, -1, -4, -1, 2, 0, 1, 3,-1.7799628817461743,0.9617843374733354
1503601804574,-0.679,-0.377,+0.276,+0.567,+0.817,-0.053,-0.486,-4.250,+25.125,+1.500,-4, 18, 4, -2, -1, -3, -2, -5,-1.7787098838662276,0.9716131405676888
1503601804596,-0.677,-0.380,+0.278,+0.566,+0.842,-0.101,-0.494,-0.875,+24.250,-0.500,2, -21, -8, -3, -2, -2, -1, 0,-1.777938169788631,0.9796100960804006
1503601804619,-0.675,-0.382,+0.280,+0.566,+0.838,-0.072,-0.543,-2.938,+22.375,+3.062,-7, -6, -1, 1, 1, -2, -2, -3,-1.7755486247921703,0.9859220075555876
1503601804634,-0.674,-0.383,+0.282,+0.565,+0.837,-0.023,-0.554,-5.562,+20.125,+3.875,-7, -8, 2, -1, 0, -1, -3, -6,-1.7744820657418836,0.9903397330492896
1503601804656,-0.672,-0.385,+0.285,+0.565,+0.847,-0.012,-0.490,-5.188,+20.562,+3.000,6, 5, 1, -3, -1, -1, 1, 0,-1.771976960176555,0.9982562794957167
1503601804679,-0.669,-0.388,+0.288,+0.565,+0.867,-0.055,-0.440,-3.562,+22.562,+4.562,-5, 7, 11, 2, -1, 1, -1, -3,-1.7685044418520337,1.0078165564361272
1503601804694,-0.667,-0.391,+0.289,+0.565,+0.886,-0.078,-0.453,-3.188,+19.312,+7.125,-13, -13, -3, -3, 0, -1, 2, 3,-1.7677977036134942,1.0146650331186018
1503601804716,-0.665,-0.392,+0.291,+0.565,+0.911,-0.057,-0.498,-3.250,+13.312,+7.750,-5, 19, 8, 2, 0, -2, 1, 5,-1.7641241241925616,1.0190422560749024
1503601804739,-0.664,-0.393,+0.292,+0.566,+0.891,-0.033,-0.510,-3.188,+8.812,+5.625,-1, -10, -2, -2, -3, 0, -1, -1,-1.7627548648999176,1.0225599704503536
1503601804754,-0.663,-0.393,+0.292,+0.566,+0.867,-0.025,-0.468,-2.750,+5.125,+4.250,-16, -6, 3, 3, 2, -2, -4, -6,-1.760360556640801,1.0221495659856537
1503601804777,-0.662,-0.394,+0.293,+0.566,+0.877,-0.041,-0.448,-1.562,+4.312,+4.438,1, 5, -1, -2, -4, -2, 0, -3,-1.7592563305896236,1.0253677191707677
1503601804799,-0.661,-0.395,+0.294,+0.566,+0.881,-0.059,-0.458,-0.812,+6.625,+5.062,4, -10, -8, -3, -6, -1, -2, -2,-1.7581593095172747,1.0285906428750202
1503601804815,-0.660,-0.396,+0.294,+0.567,+0.889,-0.059,-0.476,-2.938,+7.875,+4.375,-2, -9, -1, -1, 1, -2, -2, 1,-1.7569715859811006,1.0305259400535767
1503601804836,-0.659,-0.396,+0.296,+0.567,+0.895,-0.048,-0.483,-2.688,+8.312,+1.625,13, 12, -1, -3, -2, 0, 1, 1,-1.7542918562716083,1.033313584834651
1503601804859,-0.658,-0.397,+0.296,+0.567,+0.882,-0.070,-0.462,-1.125,+7.000,+0.500,-3, 1, 6, 0, -3, -4, -3, 0,-1.7533582723727794,1.0349475025036838
1503601804875,-0.658,-0.398,+0.297,+0.567,+0.893,-0.093,-0.454,-1.938,+6.375,+1.062,-5, 5, 2, -1, -7, -1, 1, -1,-1.754670604826932,1.0385900630234888
1503601804897,-0.657,-0.398,+0.297,+0.567,+0.896,-0.086,-0.441,-3.875,+2.562,+2.875,-3, -5, -3, 0, 1, -3, -1, 0,-1.7522871265546753,1.0381853388797784
1503601804919,-0.656,-0.398,+0.298,+0.568,+0.892,-0.074,-0.454,-5.375,-0.062,+2.938,14, 4, 6, 0, -2, -1, 1, 3,-1.7495238260440455,1.0396874625323804
1503601804935,-0.656,-0.397,+0.298,+0.568,+0.879,-0.052,-0.473,-4.875,-1.062,+1.688,4, 7, 3, -2, -1, 0, 0, -2,-1.7480613917382608,1.0376476670104446
1503601804956,-0.656,-0.397,+0.299,+0.569,+0.863,-0.045,-0.470,-4.375,-1.688,+0.750,-9, -11, -2, 2, 2, 2, 0, -2,-1.7476898495352695,1.0395595953148355
1503601804979,-0.655,-0.396,+0.299,+0.570,+0.874,-0.051,-0.447,-3.438,-3.688,+1.500,-8, -4, -5, -1, 0, -1, 0, 0,-1.7436158682682628,1.0374255714687735
1503601804995,-0.655,-0.396,+0.299,+0.570,+0.899,-0.060,-0.469,-4.125,-2.125,+3.125,4, 0, -5, -1, 0, 0, -1, 0,-1.7436158682682628,1.0374255714687735
1503601805017,-0.654,-0.395,+0.299,+0.571,+0.878,-0.053,-0.487,-7.000,-1.062,+4.312,-9, -9, -4, 0, 2, -4, -2, -1,-1.7395411278119721,1.035294943072913
1503601805039,-0.654,-0.394,+0.299,+0.573,+0.868,-0.053,-0.477,-7.375,-4.188,+2.938,2, -1, 1, 1, -3, 0, -2, -3,-1.737644670801793,1.0338785764902467
1503601805055,-0.654,-0.393,+0.300,+0.573,+0.879,-0.058,-0.454,-6.500,-3.750,+2.562,-1, 5, 0, -1, 2, -1, 0, 3,-1.7360595526134588,1.0334720368244035
1503601805076,-0.653,-0.392,+0.300,+0.575,+0.891,-0.075,-0.448,-6.188,-6.625,+3.062,8, -8, -6, -5, -4, -2, -1, -1,-1.7317860996557826,1.0316641842827055
1503601805099,-0.653,-0.391,+0.299,+0.576,+0.896,-0.081,-0.464,-6.500,-8.250,+1.062,-2, -15, -7, 1, -1, -2, 0, -2,-1.7302506026595434,1.0283331238212687
1503601805115,-0.653,-0.389,+0.300,+0.576,+0.868,-0.062,-0.494,-7.000,-5.688,-0.938,-1, -4, -3, -1, 1, 1, 0, 1,-1.7272300248561308,1.0259289323674534
1503601805136,-0.653,-0.388,+0.300,+0.577,+0.872,-0.048,-0.467,-6.750,-4.188,-1.375,-6, 3, 0, 0, -1, -1, -1, -3,-1.7255822013121616,1.0242312778420704
1503601805159,-0.653,-0.387,+0.301,+0.577,+0.879,-0.041,-0.446,-5.688,-3.188,-0.562,-9, -10, -1, -1, 1, -1, 2, 2,-1.7240211451614214,1.0238543807740592
1503601805176,-0.653,-0.387,+0.301,+0.578,+0.880,-0.065,-0.439,-4.062,-5.062,+0.875,-5, 1, 1, -1, 1, 0, -1, -2,-1.7238217203290689,1.0241677991903435
1503601805196,-0.653,-0.386,+0.301,+0.578,+0.882,-0.074,-0.464,-2.875,-6.000,+0.375,5, 1, 1, -3, -4, -2, -1, 2,-1.722383667456266,1.0221654666969715
1503601805219,-0.653,-0.385,+0.300,+0.579,+0.860,-0.062,-0.480,-2.875,-5.500,-0.812,-6, -3, 3, 0, -2, 0, 0, 0,-1.720866882280772,1.0188480589343674
1503601805235,-0.654,-0.384,+0.300,+0.579,+0.851,-0.046,-0.479,-1.688,-5.938,-1.375,3, 18, 3, -1, -5, -2, 2, 4,-1.721848238230147,1.017254479800973
1503601805256,-0.654,-0.383,+0.300,+0.580,+0.855,-0.040,-0.477,-0.312,-5.688,+0.438,2, 0, 1, 0, -2, -1, -2, -3,-1.7202244824262405,1.0155757361450424
1503601805280,-0.654,-0.383,+0.299,+0.580,+0.857,-0.043,-0.479,+0.500,-5.000,+2.375,-4, -1, -2, -2, -2, -2, -3, 0,-1.720338653456107,1.0139440716166541
1503601805295,-0.654,-0.382,+0.298,+0.581,+0.859,-0.059,-0.486,+1.438,-4.875,+2.250,-5, -5, -4, -1, 1, -1, -1, -3,-1.718831575450775,1.0106373815582725
1503601805317,-0.654,-0.382,+0.297,+0.581,+0.852,-0.060,-0.490,+1.062,-5.062,+1.688,-18, -7, 7, 4, 2, 1, 0, -5,-1.718944511833141,1.0090089005599956
1503601805339,-0.654,-0.382,+0.297,+0.581,+0.854,-0.051,-0.500,+1.500,-3.125,+0.562,-20, -9, -8, -2, 1, -1, -5, -10,-1.718944511833141,1.0090089005599956
1503601805355,-0.655,-0.381,+0.297,+0.581,+0.856,-0.045,-0.489,+1.125,-3.750,-0.500,11, 1, 3, 0, -2, 0, 0, 1,-1.7199421971180688,1.0074242705250924
1503601805378,-0.655,-0.381,+0.297,+0.581,+0.867,-0.047,-0.475,+1.438,-1.000,+1.125,18, 6, -1, -2, -3, -1, -2, 2,-1.7199421971180688,1.0074242705250924
1503601805399,-0.654,-0.382,+0.297,+0.581,+0.871,-0.062,-0.489,+1.938,+4.125,+2.312,2, 3, 1, -1, 2, -2, -5, -6,-1.718944511833141,1.0090089005599956
1503601805416,-0.654,-0.383,+0.297,+0.581,+0.866,-0.069,-0.496,+1.875,+3.938,+0.062,-3, -10, -5, -2, 0, 1, 2, 2,-1.7203720730147078,1.0110035486556626
1503601805436,-0.654,-0.383,+0.297,+0.581,+0.879,-0.063,-0.485,+1.562,+2.000,-1.750,-25, -28, -13, -5, -1, -2, -1, -1,-1.7203720730147078,1.0110035486556626
1503601805459,-0.654,-0.383,+0.297,+0.581,+0.875,-0.057,-0.474,+1.062,+1.000,-1.250,2, -1, 2, -1, -1, 0, -1, -2,-1.7203720730147078,1.0110035486556626
1503601805481,-0.654,-0.384,+0.297,+0.580,+0.891,-0.068,-0.478,+1.062,+1.312,-0.625,-2, -3, -1, -1, 0, 1, 0, -1,-1.7219983961837515,1.01268545411487
1503601805504,-0.654,-0.384,+0.297,+0.580,+0.879,-0.066,-0.489,+0.875,+1.188,+0.375,10, 29, 1, 0, -1, -1, 0, 2,-1.7219983961837515,1.01268545411487
1503601805519,-0.654,-0.384,+0.297,+0.581,+0.864,-0.060,-0.491,+0.062,-1.750,+0.938,-1, -6, -6, -1, -1, 0, -1, 1,-1.7218012616584586,1.0130004126911518
1503601805536,-0.654,-0.384,+0.297,+0.581,+0.854,-0.057,-0.490,-0.438,-2.625,+0.938,17, 14, -1, 2, -1, -1, 2, 1,-1.7218012616584586,1.0130004126911518
1503601805556,-0.654,-0.383,+0.296,+0.581,+0.856,-0.056,-0.484,-0.438,-3.312,+1.062,24, 3, -2, -1, -1, -2, 0, 4,-1.7204864680878489,1.0093784955024891
1503601805579,-0.654,-0.383,+0.296,+0.582,+0.865,-0.060,-0.493,-0.500,-2.750,+1.125,-4, 3, 4, 0, -1, -1, -1, 0,-1.7202912350680277,1.0096941013866059
1503601805594,-0.654,-0.383,+0.296,+0.582,+0.853,-0.072,-0.489,-0.875,-1.000,+1.188,-4, 0, 5, 0, -1, -2, -2, -3,-1.7202912350680277,1.0096941013866059
1503601805616,-0.654,-0.382,+0.296,+0.582,+0.859,-0.060,-0.487,-0.938,-2.000,+0.750,-7, -8, -3, 1, 1, -1, -4, -6,-1.7188640788714211,1.0076993670639898
1503601805639,-0.654,-0.382,+0.296,+0.583,+0.859,-0.054,-0.489,-0.562,-2.438,+0.125,-9, -20, 1, 0, 0, 0, 0, -1,-1.7186710392961322,1.0080157487970802
1503601805655,-0.654,-0.382,+0.295,+0.583,+0.856,-0.058,-0.486,+0.750,-3.688,+0.000,-11, 3, -1, -2, -2, 1, 0, -2,-1.71878373256185,1.006391471760839
1503601805676,-0.654,-0.382,+0.295,+0.583,+0.869,-0.070,-0.486,+1.250,-3.750,-0.625,8, -5, -5, -2, 1, 1, 3, 2,-1.71878373256185,1.006391471760839
1503601805699,-0.654,-0.381,+0.294,+0.583,+0.857,-0.068,-0.481,+0.188,-3.250,-0.562,6, 5, -3, -3, 0, -2, -1, -2,-1.7174702150660144,1.0027756730570787
1503601805716,-0.654,-0.381,+0.294,+0.583,+0.855,-0.058,-0.484,-0.438,-3.312,+0.938,0, -4, 3, -1, -3, -2, -1, -1,-1.7174702150660144,1.0027756730570787
1503601805736,-0.655,-0.381,+0.294,+0.583,+0.852,-0.054,-0.498,+1.250,-2.938,+0.750,-21, 4, 1, -2, -3, -3, -1, -2,-1.7198925092073707,1.0031862225041013
1503601805759,-0.655,-0.381,+0.293,+0.584,+0.854,-0.071,-0.507,+2.062,-1.812,+0.938,-23, -8, -5, -1, -1, -2, -2, -5,-1.7198110564804092,1.0018827169290854
1503601805775,-0.655,-0.381,+0.292,+0.584,+0.869,-0.081,-0.500,+1.625,-3.562,+1.188,11, -9, 5, -1, 0, 0, -1, 1,-1.719924341390997,1.0002650016350527
1503601805798,-0.655,-0.380,+0.292,+0.584,+0.882,-0.066,-0.498,+0.375,-4.188,+0.938,-21, -7, -2, 0, 0, -1, -2, -2,-1.7185029104453158,0.9982725764738161
1503601805819,-0.655,-0.380,+0.291,+0.585,+0.858,-0.055,-0.481,+0.250,-5.688,+1.500,24, 12, -3, 1, -1, -1, -1, 3,-1.7184218346785718,0.9969726252940054
1503601805835,-0.655,-0.379,+0.291,+0.585,+0.863,-0.052,-0.488,+0.750,-7.312,+2.188,10, 5, -3, -2, 1, 1, -1, -2,-1.7170025043126498,0.9949823839895732
1503601805857,-0.656,-0.378,+0.289,+0.586,+0.872,-0.047,-0.515,+1.562,-10.688,+4.188,21, 9, -2, -1, -2, -1, -1, -3,-1.7180441183863773,0.9904966272157695
1503601805880,-0.656,-0.377,+0.288,+0.587,+0.861,-0.048,-0.518,+0.562,-13.000,+5.562,-3, 2, 4, -1, 0, 0, 2, -1,-1.7165502205924013,0.9872156987184599
1503601805895,-0.656,-0.376,+0.286,+0.588,+0.837,-0.056,-0.490,+1.688,-12.812,+4.062,-13, -14, -3, -1, 0, 0, 2, 4,-1.7151674440361917,0.9823287953112956
1503601805917,-0.657,-0.375,+0.285,+0.589,+0.846,-0.073,-0.495,+3.250,-8.875,+2.125,2, 5, 4, 0, -1, 0, -2, 1,-1.7161133969099032,0.9794752620374836
1503601805939,-0.657,-0.376,+0.284,+0.589,+0.847,-0.099,-0.518,+1.250,-1.750,+2.000,3, 5, 10, 4, 0, -1, -1, 0,-1.71762856405406,0.9798540921654055
1503601805956,-0.657,-0.376,+0.284,+0.589,+0.854,-0.090,-0.520,-0.312,-0.500,+1.188,18, 17, -3, -1, -1, 0, 0, -1,-1.71762856405406,0.9798540921654055
1503601805977,-0.656,-0.376,+0.284,+0.589,+0.874,-0.081,-0.524,-0.312,-1.625,+0.812,15, -21, 2, -1, -1, -2, 0, 0,-1.7151951583020744,0.9794339469996558
1503601805999,-0.656,-0.375,+0.284,+0.590,+0.860,-0.075,-0.520,-1.750,-4.875,+0.938,-4, -13, -4, -1, 0, 1, -2, -1,-1.7135973046117956,0.9777679552424928
1503601806016,-0.657,-0.374,+0.283,+0.591,+0.836,-0.065,-0.506,-1.625,-7.438,+2.000,-22, -7, -2, -1, -3, 0, -1, -2,-1.7145475453980001,0.974921104439895
1503601806037,-0.657,-0.374,+0.283,+0.591,+0.836,-0.070,-0.523,-0.750,-4.000,+2.125,-24, 0, 5, 1, 0, 0, -3, -8,-1.7145475453980001,0.974921104439895
1503601806059,-0.656,-0.373,+0.282,+0.592,+0.833,-0.073,-0.530,-0.375,-0.938,+1.875,11, 9, 4, 0, 1, -2, -1, 3,-1.7106268342197295,0.9712359849131718
1503601806076,-0.657,-0.373,+0.282,+0.592,+0.854,-0.072,-0.531,+0.000,-2.062,+0.750,5, -3, 0, -1, -1, -2, -1, -1,-1.7130662188677042,0.9716578630298842
1503601806112,-0.657,-0.373,+0.282,+0.592,+0.848,-0.077,-0.522,+0.188,-2.000,+0.688,-7, -16, -15, -6, -3, -2, -2, 1,-1.7130662188677042,0.9716578630298842
1503601806120,-0.657,-0.372,+0.281,+0.592,+0.835,-0.063,-0.515,+0.562,-4.562,+0.625,11, 22, 4, 1, -2, 2, 0, 1,-1.7117726484207743,0.9680788732039995
1503601806135,-0.657,-0.372,+0.281,+0.592,+0.823,-0.066,-0.523,+0.938,-1.688,+0.188,14, 10, 6, 2, 2, 1, -1, 3,-1.7117726484207743,0.9680788732039995
1503601806157,-0.657,-0.372,+0.281,+0.592,+0.821,-0.078,-0.529,+0.688,+1.438,-0.062,12, 3, -10, -1, -1, -2, 0, 1,-1.7117726484207743,0.9680788732039995
1503601806179,-0.657,-0.373,+0.281,+0.592,+0.832,-0.083,-0.527,-0.500,+5.062,-1.250,8, 15, 9, 0, -3, -1, -1, 2,-1.713172248140812,0.9700562317022221
1503601806195,-0.656,-0.373,+0.282,+0.592,+0.852,-0.079,-0.529,-0.188,+5.250,-1.250,0, 17, 3, 0, 0, -1, 0, -1,-1.7106268342197295,0.9712359849131718
1503601806217,-0.656,-0.374,+0.283,+0.592,+0.846,-0.074,-0.523,-0.125,+3.938,-1.000,10, -8, -4, -2, -1, -1, 0, -1,-1.711925582639588,0.9748187323469526
1503601806239,-0.656,-0.374,+0.283,+0.591,+0.849,-0.079,-0.513,-0.562,+1.562,-1.812,3, 8, 23, 6, 4, 3, 5, 8,-1.712110682792848,0.9745001687824578
1503601806255,-0.656,-0.374,+0.283,+0.591,+0.844,-0.076,-0.503,-0.188,+1.000,-0.875,7, 25, 4, 0, -2, -3, -1, 0,-1.712110682792848,0.9745001687824578
1503601806277,-0.656,-0.374,+0.283,+0.591,+0.844,-0.076,-0.512,+0.438,+0.562,-0.188,-5, 3, 9, 1, 1, -1, 1, 3,-1.712110682792848,0.9745001687824578
1503601806299,-0.656,-0.374,+0.283,+0.591,+0.846,-0.078,-0.520,+0.062,+4.000,-0.312,-11, -19, -14, -3, -3, -4, 0, -2,-1.712110682792848,0.9745001687824578
1503601806318,-0.655,-0.375,+0.284,+0.591,+0.840,-0.082,-0.510,-1.312,+4.750,+0.375,-16, 7, 0, 1, 1, 2, 1, -2,-1.71097559655095,0.9776659624010895
1503601806337,-0.655,-0.375,+0.285,+0.591,+0.861,-0.082,-0.510,-2.125,+3.500,-0.375,9, 3, 3, 1, -2, 0, 0, 3,-1.7108705678908198,0.9792740989747125
1503601806359,-0.654,-0.375,+0.285,+0.591,+0.856,-0.064,-0.522,-1.750,+4.375,-0.875,-26, -13, -10, -1, -1, 0, -2, -1,-1.7084339729172748,0.9788546219674051
1503601806375,-0.654,-0.375,+0.286,+0.591,+0.861,-0.065,-0.509,-1.062,+2.062,-0.688,15, -14, -5, -3, -3, 0, -5, -1,-1.7083307546692799,0.9804661231201452
1503601806397,-0.654,-0.375,+0.286,+0.591,+0.851,-0.065,-0.511,-0.500,+1.688,-1.188,20, 5, 0, -3, -1, -1, -2, 0,-1.7083307546692799,0.9804661231201452
1503601806420,-0.654,-0.376,+0.287,+0.591,+0.838,-0.069,-0.497,-0.875,+2.312,-1.125,-15, -6, -2, -1, 0, -1, 1, -3,-1.7096390639903958,0.984059374382207
1503601806435,-0.654,-0.376,+0.287,+0.591,+0.860,-0.078,-0.515,-1.062,+2.062,-1.062,-10, 0, 6, 0, 1, -1, -1, -5,-1.7096390639903958,0.984059374382207
1503601806457,-0.654,-0.376,+0.288,+0.591,+0.850,-0.073,-0.517,-1.938,+3.375,-0.750,3, -1, -3, -1, -2, 0, -1, 0,-1.709534906593616,0.9856742017628704
1503601806479,-0.654,-0.376,+0.288,+0.590,+0.850,-0.060,-0.511,-2.250,+2.750,-0.750,-12, -2, -1, 3, 0, 0, 5, 3,-1.709716173949391,0.9853553798782059
1503601806503,-0.653,-0.376,+0.289,+0.590,+0.855,-0.064,-0.508,-0.812,+2.188,-0.500,-3, -20, -17, -3, -2, -1, 1, 2,-1.7071793326191163,0.9865566620237359
1503601806520,-0.653,-0.376,+0.289,+0.591,+0.849,-0.083,-0.507,-1.062,+0.688,-0.250,-11, -6, -6, -4, -1, 0, -2, -5,-1.7070014872454091,0.9868761000077887
1503601806539,-0.653,-0.376,+0.289,+0.591,+0.859,-0.082,-0.507,-1.750,-0.125,+0.438,10, 11, 6, 0, 0, -2, -3, -1,-1.7070014872454091,0.9868761000077887
1503601806562,-0.653,-0.376,+0.289,+0.591,+0.852,-0.080,-0.505,-1.812,+0.500,+0.812,-23, -3, 0, -1, -1, 1, 2, 1,-1.7070014872454091,0.9868761000077887
1503601806577,-0.652,-0.376,+0.289,+0.591,+0.856,-0.065,-0.499,-1.312,+0.062,+0.250,6, -11, -13, -6, -3, -1, -1, -2,-1.704568609124845,0.986460438551322
1503601806599,-0.652,-0.376,+0.289,+0.591,+0.856,-0.063,-0.506,-1.000,+0.312,+0.312,-7, 10, 15, 1, -2, 0, -1, -3,-1.704568609124845,0.986460438551322
1503601806615,-0.652,-0.376,+0.289,+0.591,+0.852,-0.073,-0.506,-0.750,-0.062,+0.188,10, 7, -4, -2, -1, 0, -2, -2,-1.704568609124845,0.986460438551322
1503601806637,-0.652,-0.376,+0.290,+0.591,+0.852,-0.076,-0.502,-0.750,+0.562,+0.188,3, -1, -1, -1, -2, -2, 0, 2,-1.7044680752476618,0.9880820141376769
1503601806659,-0.652,-0.376,+0.290,+0.592,+0.850,-0.076,-0.507,-0.875,+1.312,-0.125,0, -5, 5, 3, 2, -2, -6, -8,-1.704294100831194,0.9884017518379219
1503601806675,-0.652,-0.376,+0.290,+0.592,+0.854,-0.074,-0.509,-1.062,+1.500,-0.688,-11, -23, -7, -2, -3, 0, -2, 1,-1.704294100831194,0.9884017518379219
1503601806697,-0.651,-0.376,+0.290,+0.592,+0.854,-0.069,-0.510,-1.312,+1.438,-1.000,-2, 3, -3, -2, 0, -2, 0, 0,-1.7018626015971452,0.9879871356883199
1503601806721,-0.651,-0.376,+0.291,+0.592,+0.852,-0.060,-0.505,-1.312,+0.500,-0.250,-15, -11, 11, 2, -1, -2, -1, -4,-1.7017641409615973,0.9896122920816568
1503601806735,-0.651,-0.376,+0.291,+0.592,+0.847,-0.062,-0.501,-0.312,-0.500,-0.062,10, 11, 5, 1, 1, -1, 0, 2,-1.7017641409615973,0.9896122920816568
1503601806758,-0.651,-0.376,+0.291,+0.592,+0.853,-0.076,-0.498,-0.125,+0.312,-0.125,-9, 1, -9, -2, -2, -1, -2, -1,-1.7017641409615973,0.9896122920816568
1503601806780,-0.651,-0.376,+0.291,+0.592,+0.855,-0.080,-0.497,-1.438,+1.000,-0.250,-6, -14, -6, -3, -1, 1, 0, -1,-1.7017641409615973,0.9896122920816568
1503601806802,-0.651,-0.376,+0.291,+0.592,+0.855,-0.076,-0.501,-1.688,+0.625,+0.250,-4, -12, -4, 0, -2, 0, 0, 0,-1.7017641409615973,0.9896122920816568
1503601806818,-0.651,-0.376,+0.291,+0.592,+0.856,-0.062,-0.514,-1.250,-1.250,+0.500,16, 1, -16, -3, -2, -2, -1, 2,-1.7017641409615973,0.9896122920816568
1503601806839,-0.651,-0.375,+0.291,+0.592,+0.851,-0.066,-0.512,-1.062,-1.562,+0.375,24, -5, -7, -5, -1, 1, -1, -1,-1.7003473143377117,0.9876375092948038
1503601806855,-0.651,-0.375,+0.291,+0.593,+0.850,-0.065,-0.501,-1.000,-1.688,+0.938,-7, 3, 7, 1, 1, -1, 0, -1,-1.7001788886065659,0.9879585830814872
1503601806877,-0.651,-0.375,+0.291,+0.593,+0.847,-0.065,-0.494,-0.938,-0.062,+0.688,-10, -2, 2, 1, 1, 0, 0, -2,-1.7001788886065659,0.9879585830814872
1503601806900,-0.650,-0.375,+0.291,+0.593,+0.850,-0.076,-0.498,-1.125,+1.562,-0.188,-7, 2, 9, 2, -1, -1, -6, -9,-1.6977447765225737,0.9875447700333576
1503601806915,-0.650,-0.375,+0.292,+0.593,+0.858,-0.079,-0.505,-1.500,+1.625,-0.562,-5, -3, 0, -1, -1, 1, 1, 3,-1.69764962264014,0.989174616555253
1503601806937,-0.650,-0.375,+0.292,+0.593,+0.857,-0.073,-0.510,-2.188,+0.812,-0.688,2, 3, 2, -1, 0, -2, 0, 1,-1.69764962264014,0.989174616555253
1503601806960,-0.650,-0.375,+0.292,+0.593,+0.855,-0.065,-0.513,-2.188,+0.438,-1.062,-12, -11, -9, -1, 0, 0, 0, 1,-1.69764962264014,0.989174616555253
1503601806975,-0.650,-0.375,+0.293,+0.593,+0.853,-0.067,-0.505,-1.750,+1.500,-1.438,6, -6, -10, -2, -2, -2, -2, -3,-1.6975546105313175,0.9908066705888405
1503601806997,-0.650,-0.375,+0.293,+0.593,+0.854,-0.073,-0.492,-1.750,+2.438,-2.125,-10, 3, -5, -3, -3, -2, -2, -3,-1.6975546105313175,0.9908066705888405
1503601807020,-0.650,-0.375,+0.294,+0.593,+0.855,-0.066,-0.494,-1.562,+1.688,-2.188,3, 3, -5, -1, 0, 0, 2, 0,-1.6974597398812026,0.9924409318874408
1503601807035,-0.650,-0.374,+0.294,+0.593,+0.854,-0.059,-0.508,-1.688,+0.062,-1.625,-3, 10, 17, 6, 2, 0, 1, 3,-1.6960460892183238,0.9904726214008208
1503601807058,-0.650,-0.374,+0.294,+0.593,+0.849,-0.056,-0.505,-1.375,-0.750,-0.938,7, 4, -3, 0, -1, 0, 0, 1,-1.6960460892183238,0.9904726214008208
1503601807080,-0.650,-0.374,+0.294,+0.593,+0.850,-0.068,-0.505,-0.375,+0.000,-0.688,21, 29, 0, 0, -1, 0, -4, 0,-1.6960460892183238,0.9904726214008208
1503601807095,-0.650,-0.374,+0.295,+0.593,+0.860,-0.071,-0.500,-0.625,+1.500,-1.062,-6, -6, 0, -3, -4, -2, 0, 0,-1.6959525889008338,0.9921102187009697
1503601807118,-0.649,-0.375,+0.295,+0.592,+0.864,-0.068,-0.498,-0.812,+2.625,-0.875,-18, -18, -16, -4, -2, -3, -3, -5,-1.6950953580138635,0.9933451330540244
1503601807139,-0.649,-0.375,+0.295,+0.593,+0.863,-0.077,-0.492,-1.188,+0.438,-0.875,8, 5, -3, 2, 1, 2, 3, 3,-1.6949342152745948,0.9936677521563828
1503601807157,-0.649,-0.374,+0.296,+0.593,+0.860,-0.068,-0.493,-1.625,-1.125,-1.000,-11, -5, -1, -2, -2, -2, -1, -4,-1.6934260993890493,0.9933412996684874
1503601807177,-0.649,-0.374,+0.296,+0.593,+0.848,-0.053,-0.500,-0.812,-0.375,-1.000,7, -8, -2, -2, 0, -2, 1, 6,-1.6934260993890493,0.9933412996684874
1503601807199,-0.649,-0.374,+0.296,+0.592,+0.852,-0.061,-0.503,+0.562,+1.375,-1.125,-6, -13, -1, 0, 2, 1, -2, -2,-1.6935852987728137,0.9930174496509259
1503601807215,-0.649,-0.375,+0.296,+0.592,+0.854,-0.060,-0.500,+0.500,+3.250,-1.250,-4, 5, 12, 1, 1, 1, -2, -8,-1.6950021970750258,0.9949848185382915
1503601807237,-0.649,-0.375,+0.296,+0.592,+0.858,-0.057,-0.493,+0.562,+1.875,+0.250,5, -4, -5, -3, -4, -3, -2, 0,-1.6950021970750258,0.9949848185382915
1503601807260,-0.649,-0.375,+0.296,+0.592,+0.862,-0.053,-0.492,+1.062,+0.500,+0.000,0, 0, -10, -3, -1, -3, -2, -4,-1.6950021970750258,0.9949848185382915
1503601807275,-0.649,-0.375,+0.296,+0.592,+0.866,-0.063,-0.507,+1.312,+1.188,+0.625,10, -5, 0, 0, -2, -1, -2, -1,-1.6950021970750258,0.9949848185382915
1503601807298,-0.649,-0.376,+0.296,+0.592,+0.869,-0.074,-0.501,+0.938,+2.062,+0.125,4, -10, -2, -1, 0, 0, 1, 3,-1.696420875264959,0.9969544760379501
1503601807321,-0.648,-0.376,+0.297,+0.592,+0.878,-0.076,-0.489,+0.312,+2.438,-0.562,-9, 0, 5, -2, -2, -1, 1, 0,-1.6938967191383891,0.9981872892724556
1503601807335,-0.648,-0.377,+0.297,+0.592,+0.878,-0.063,-0.496,+1.312,+1.625,-0.188,-7, -15, -6, 0, 0, -3, -3, -4,-1.695319945227583,1.000158359811875
1503601807380,-0.648,-0.377,+0.297,+0.591,+0.849,-0.052,-0.500,+2.000,+2.375,-2.000,-1, 0, 3, -1, 0, -2, -8, -8,-1.695481295327134,0.9998368356915099
1503601807388,-0.649,-0.377,+0.297,+0.591,+0.843,-0.051,-0.497,+3.438,+2.375,-2.125,7, 4, -5, -1, 0, -1, 2, 1,-1.697910309006402,1.0002449106053175
1503601807401,-0.649,-0.378,+0.297,+0.590,+0.849,-0.066,-0.478,+3.250,+2.938,-1.312,-17, -1, 9, 0, 0, -1, 0, -2,-1.699499581214845,1.0018986911742753
1503601807419,-0.648,-0.378,+0.297,+0.590,+0.870,-0.078,-0.496,+1.562,+3.688,-0.625,-5, -4, 0, 0, 0, -1, -2, -2,-1.6970714697676352,1.0014904971459724
1503601807439,-0.648,-0.379,+0.297,+0.590,+0.860,-0.071,-0.503,-0.062,+3.812,+0.750,22, 10, 12, 2, 0, 0, -2, 1,-1.6985016219986946,1.0034682859632797
1503601807461,-0.648,-0.379,+0.298,+0.590,+0.856,-0.068,-0.493,-0.625,+4.438,-0.500,8, -6, -10, -5, -4, -1, 1, 1,-1.6984049531933225,1.0051086832130325
1503601807477,-0.647,-0.380,+0.298,+0.590,+0.879,-0.062,-0.494,-0.250,+2.875,-0.312,-6, -14, -9, -3, -1, -2, -2, 0,-1.6974139380784456,1.0066806698890398
1503601807500,-0.647,-0.380,+0.298,+0.590,+0.874,-0.070,-0.489,-0.562,-0.312,+0.562,-10, -2, -3, -3, -1, 0, 2, 4,-1.6974139380784456,1.0066806698890398
1503601807515,-0.647,-0.379,+0.298,+0.590,+0.869,-0.070,-0.480,-3.688,-5.250,+0.062,9, 11, 7, 1, 2, -1, 1, 2,-1.695979258876039,1.0047014638419045
1503601807537,-0.647,-0.378,+0.298,+0.591,+0.864,-0.059,-0.470,-3.688,-7.688,+0.375,2, -34, -16, -4, -3, -4, -2, -3,-1.6943862147353115,1.0030458526010664
1503601807568,-0.647,-0.377,+0.298,+0.592,+0.839,-0.065,-0.489,-3.875,-5.000,+0.188,1, -4, -6, 0, -1, -2, -5, -6,-1.6927987634367878,1.0013943649984915
1503601807581,-0.648,-0.376,+0.298,+0.592,+0.850,-0.062,-0.508,-3.688,-3.312,-1.188,-9, 8, 3, 0, 0, 0, -1, 0,-1.6938042773105435,0.9998314425829257
1503601807597,-0.647,-0.376,+0.299,+0.592,+0.849,-0.071,-0.517,-3.062,+2.312,-1.938,0, 3, -3, -2, -1, 1, 1, 1,-1.691282138953427,1.0010717163632015
1503601807619,-0.647,-0.375,+0.299,+0.592,+0.858,-0.053,-0.497,-3.500,+2.312,-1.500,-2, 6, 6, 1, 0, 1, 4, 4,-1.68985914549667,0.9991049479212042
1503601807642,-0.647,-0.375,+0.300,+0.592,+0.854,-0.059,-0.490,-2.312,+2.688,-0.062,7, -3, 4, 0, 0, -2, -2, -3,-1.6897698899478562,1.0007558630951863
1503601807659,-0.647,-0.375,+0.300,+0.592,+0.851,-0.062,-0.488,-2.438,+1.250,-0.125,12, 12, 6, 2, -2, 0, 1, -1,-1.6897698899478562,1.0007558630951863
1503601807680,-0.646,-0.375,+0.301,+0.592,+0.868,-0.067,-0.482,-3.438,+1.562,-0.688,-5, -3, -14, -3, -2, -2, -1, 2,-1.6872470426916133,1.0020044896225824
1503601807702,-0.646,-0.375,+0.302,+0.593,+0.868,-0.063,-0.488,-4.938,+3.250,+0.125,-5, -10, -4, 0, -2, -1, -2, 0,-1.6870096442779978,1.0039858732930294
1503601807717,-0.645,-0.375,+0.302,+0.593,+0.874,-0.052,-0.489,-3.500,+0.375,-0.312,-8, -10, -4, -2, -2, -3, -3, -2,-1.6845775245577694,1.0035824577360166
1503601807740,-0.645,-0.375,+0.303,+0.593,+0.877,-0.052,-0.500,-2.250,-1.125,-0.938,4, 2, -2, -1, -1, 0, -1, -1,-1.6844922590800993,1.005242521046038
1503601807762,-0.645,-0.374,+0.303,+0.593,+0.855,-0.054,-0.491,-2.438,-0.125,-0.875,-13, -2, 7, -3, -1, -2, -1, -2,-1.6830696897561641,1.0032831757999052
1503601807777,-0.645,-0.374,+0.304,+0.593,+0.842,-0.058,-0.485,-3.438,+2.062,-2.438,4, 10, 0, 0, 1, 0, 4, 8,-1.6829857714812662,1.0049466143589723
1503601807800,-0.645,-0.374,+0.305,+0.593,+0.855,-0.061,-0.491,-5.625,+7.250,-2.562,-9, 4, 7, 1, 0, 1, 0, -1,-1.6829019780358432,1.006612269879378
1503601807822,-0.644,-0.374,+0.306,+0.593,+0.854,-0.055,-0.479,-5.812,+7.688,-0.750,-9, 2, -10, -3, -2, -3, -1, -5,-1.680385793252314,1.0078807132333123
1503601807837,-0.643,-0.375,+0.308,+0.593,+0.878,-0.057,-0.489,-4.688,+6.500,-2.125,11, -5, -1, -1, 1, 1, -2, 1,-1.6792143458305118,1.0127820254752233
1503601807861,-0.643,-0.375,+0.309,+0.592,+0.873,-0.049,-0.481,-4.250,+5.562,-2.000,14, -2, -4, -1, -2, -2, -4, 0,-1.6792724060311384,1.0141310508498391
1503601807882,-0.642,-0.375,+0.310,+0.592,+0.862,-0.049,-0.481,-3.625,+5.125,-0.625,-22, -27, -6, -4, -3, -2, -5, -17,-1.6767600410588759,1.015413195550077
1503601807898,-0.642,-0.375,+0.311,+0.592,+0.855,-0.049,-0.501,-3.562,+10.125,-1.000,32, -2, -3, -1, -1, 1, 1, 8,-1.6766806353446497,1.0170945077380695
1503601807920,-0.640,-0.377,+0.313,+0.591,+0.855,-0.048,-0.479,-5.000,+16.500,-1.250,11, -3, -15, -1, 1, 2, 2, 4,-1.6746628837229343,1.0232588256410506
1503601807942,-0.639,-0.378,+0.315,+0.591,+0.869,-0.048,-0.438,-3.375,+15.688,+0.562,4, -5, -7, -4, -3, -1, -2, -1,-1.673519930581567,1.028201847947141
1503601807957,-0.638,-0.379,+0.316,+0.590,+0.934,-0.075,-0.464,-0.500,+6.562,-1.188,-21, -8, 2, 0, -3, -2, -3, -7,-1.6725928457609591,1.0311364325098953
1503601807980,-0.638,-0.380,+0.317,+0.590,+0.952,-0.056,-0.484,-1.875,+2.750,-1.250,0, 13, 6, 0, -1, -1, 1, 0,-1.6739628029746585,1.0347902544652103
1503601808002,-0.638,-0.379,+0.317,+0.591,+0.900,-0.033,-0.480,-1.750,-0.875,+1.812,-2, 5, 4, 2, 0, 0, 3, 2,-1.672386057139679,1.0331560893165568
1503601808017,-0.638,-0.379,+0.317,+0.591,+0.854,-0.017,-0.466,-0.812,-2.062,+1.562,-11, 1, 3, -1, -1, 2, 2, -2,-1.672386057139679,1.0331560893165568
1503601808040,-0.637,-0.379,+0.318,+0.591,+0.855,-0.015,-0.440,-1.938,+0.938,+2.312,-11, -1, 1, 1, 2, 0, -1, -3,-1.6698894010817338,1.034465373395463
1503601808069,-0.636,-0.379,+0.318,+0.592,+0.895,-0.050,-0.406,-4.000,-0.312,+4.688,-8, -8, -4, 0, -1, -2, -2, -2,-1.6673437237472757,1.03440296364265
1503601808077,-0.635,-0.379,+0.319,+0.592,+0.923,-0.058,-0.477,-5.625,+4.500,+4.750,3, 14, 10, 2, 0, 0, 0, 7,-1.664849769462357,1.0357175805026522
1503601808100,-0.634,-0.379,+0.319,+0.594,+0.903,-0.049,-0.484,-5.875,-1.688,+5.812,0, 3, -4, -3, -2, -1, -2, -2,-1.66219379138908,1.0359819650080409
1503601808122,-0.634,-0.378,+0.318,+0.595,+0.870,-0.040,-0.468,-6.250,-8.500,+6.125,-1, 1, -5, -2, -1, -4, -7, -12,-1.6606959651923021,1.032652011230385
1503601808138,-0.634,-0.376,+0.318,+0.596,+0.851,-0.025,-0.473,-5.312,-4.625,+3.562,-13, -12, -10, -2, -1, 0, 0, 2,-1.657688383502913,1.0290842714588846
1503601808160,-0.633,-0.376,+0.319,+0.597,+0.830,-0.038,-0.434,-3.125,-0.250,+3.625,10, 2, -4, -3, -2, 1, 0, -3,-1.65509027820143,1.0307331792696235
1503601808189,-0.633,-0.376,+0.318,+0.597,+0.901,-0.083,-0.475,-1.000,-5.812,+1.500,5, 13, 7, 0, -1, -1, -1, -3,-1.6551536880491835,1.029024385363436
1503601808198,-0.633,-0.375,+0.317,+0.598,+0.892,-0.079,-0.542,-2.125,-3.062,+0.000,-11, 2, 3, 1, -2, 0, -3, -7,-1.653664523850478,1.0257031046544454
1503601808220,-0.633,-0.374,+0.316,+0.599,+0.833,-0.069,-0.487,-3.250,-10.125,+2.188,-1, -12, 0, 1, 2, -1, 1, 6,-1.6521783006688884,1.022385747081084
1503601808242,-0.633,-0.372,+0.315,+0.601,+0.836,-0.046,-0.458,-6.312,-9.875,+4.375,0, -5, 0, -1, -2, -1, -5, -1,-1.649156405619349,1.017467771211212
1503601808257,-0.632,-0.372,+0.316,+0.602,+0.837,-0.032,-0.475,-5.000,+1.875,+4.438,-3, 2, 4, 1, 0, 0, 3, 0,-1.6465682208550019,1.0191161588122142
1503601808280,-0.631,-0.373,+0.317,+0.602,+0.835,-0.048,-0.479,-2.562,+11.438,+4.875,9, -4, -1, -3, -2, -2, 1, 4,-1.6455209678109362,1.022369459544863
1503601808302,-0.630,-0.374,+0.318,+0.602,+0.899,-0.058,-0.465,-2.688,+7.062,+6.250,-10, 4, -3, -3, -2, -3, -8, -7,-1.644481607194556,1.0256273189243414
1503601808317,-0.629,-0.374,+0.318,+0.603,+0.922,-0.057,-0.487,-2.625,+0.812,+6.625,-6, -7, -4, -1, 1, 0, 4, -1,-1.6419638602800943,1.0255691712576214
1503601808340,-0.628,-0.374,+0.317,+0.604,+0.900,-0.062,-0.462,-2.688,-8.938,+6.188,9, 2, 1, 1, -1, 0, 2, 3,-1.6395011625565106,1.0237958155431826
1503601808362,-0.628,-0.372,+0.316,+0.606,+0.873,-0.064,-0.453,-4.500,-14.312,+6.062,0, -4, -5, -5, -2, -2, -4, 0,-1.6364850264498818,1.0188809951314366
1503601808377,-0.627,-0.371,+0.315,+0.608,+0.865,-0.046,-0.459,-6.000,-10.125,+7.688,-3, 5, 5, 4, 0, 0, 1, -1,-1.6324950178563138,1.0155127300034075
1503601808400,-0.627,-0.370,+0.315,+0.609,+0.857,-0.059,-0.491,-6.000,-3.625,+7.000,-15, -15, -1, 0, -1, -1, 0, -4,-1.6309752242517226,1.0139220719751052
1503601808422,-0.626,-0.370,+0.315,+0.610,+0.857,-0.067,-0.515,-5.375,+3.188,+4.562,-4, -6, -3, 2, 0, 1, -1, 6,-1.6284679020645305,1.0138638411341072
1503601808436,-0.625,-0.370,+0.316,+0.611,+0.876,-0.065,-0.465,-5.562,+3.312,+4.250,-3, -1, 0, -5, -1, -1, -1, -5,-1.6259234061987924,1.015525076521146
1503601808459,-0.624,-0.370,+0.316,+0.612,+0.920,-0.079,-0.453,-5.562,-5.562,+5.312,1, -1, 0, 0, 0, -1, 0, 0,-1.6234252656223807,1.0154680623451278
1503601808481,-0.623,-0.369,+0.315,+0.613,+0.915,-0.056,-0.449,-6.188,-13.500,+5.000,7, 4, 0, 0, 1, -1, 1, 2,-1.6195197139277275,1.0117716808046924
1503601808496,-0.624,-0.366,+0.314,+0.615,+0.871,-0.049,-0.486,-4.375,-20.500,+3.312,-8, -20, -7, -1, 1, -1, 1, 2,-1.6175493757334949,1.005377688264355
1503601808519,-0.625,-0.364,+0.312,+0.617,+0.826,-0.051,-0.506,-3.375,-20.250,+2.812,2, -3, -1, -3, -4, -1, -1, 3,-1.6170800043897842,0.9991936720820014
1503601808541,-0.625,-0.362,+0.310,+0.618,+0.804,-0.062,-0.495,-3.312,-12.938,+3.188,-1, 7, 1, 0, 0, -1, -3, 0,-1.614239996299365,0.9922932046111305
1503601808557,-0.625,-0.361,+0.310,+0.619,+0.831,-0.077,-0.531,-2.500,-2.312,+1.375,1, -2, 0, 0, 0, 0, -3, -1,-1.6127657129145978,0.9907354222440278
1503601808579,-0.625,-0.361,+0.310,+0.619,+0.819,-0.057,-0.538,-1.875,+2.312,-0.625,5, 2, 1, -1, 0, 0, 1, 1,-1.6127657129145978,0.9907354222440278
1503601808601,-0.625,-0.360,+0.310,+0.619,+0.835,-0.060,-0.516,-0.250,-2.062,-1.438,0, 5, 0, -2, -1, -1, 0, -6,-1.6113478341341738,0.9888405463444654
1503601808616,-0.625,-0.360,+0.310,+0.619,+0.858,-0.077,-0.505,-1.125,-1.500,+0.875,6, 15, 7, 0, -1, 0, 0, -5,-1.6113478341341738,0.9888405463444654
1503601808639,-0.625,-0.360,+0.309,+0.620,+0.871,-0.077,-0.492,-2.938,-2.500,+3.125,-5, -6, -8, -2, -2, -2, -1, -6,-1.6113263111324725,0.9874631173658568
1503601808661,-0.624,-0.360,+0.309,+0.621,+0.865,-0.059,-0.502,-2.875,-1.500,+3.438,1, -1, 0, 2, 1, -1, 1, 3,-1.6088255587828415,0.9874068308322793
1503601808676,-0.624,-0.360,+0.309,+0.621,+0.853,-0.055,-0.515,-1.125,-2.688,+2.688,-1, -5, -3, 0, 0, -1, -3, -3,-1.6088255587828415,0.9874068308322793
1503601808700,-0.624,-0.359,+0.309,+0.622,+0.854,-0.069,-0.496,-0.688,-4.438,+2.062,-2, -3, -2, 0, 1, 1, -1, 1,-1.6073628691406014,0.9858571865554981
1503601808721,-0.624,-0.359,+0.309,+0.622,+0.868,-0.075,-0.490,-2.500,-3.875,+2.188,-6, -1, 2, -1, -2, -1, -2, -14,-1.6073628691406014,0.9858571865554981
1503601808737,-0.623,-0.359,+0.309,+0.623,+0.866,-0.069,-0.499,-3.188,-3.062,+2.062,1, 3, -3, -2, -2, -1, -3, -2,-1.6048672152859065,0.9858018796705749
1503601808759,-0.623,-0.358,+0.309,+0.623,+0.867,-0.061,-0.507,-2.812,-1.625,+1.125,5, 3, 3, 5, 0, 0, -8, -4,-1.6034523172497108,0.9839146937153651
1503601808781,-0.623,-0.358,+0.308,+0.624,+0.855,-0.058,-0.520,-2.125,-3.625,+1.688,-5, -2, -5, 0, -3, -3, 0, 0,-1.6034349877626872,0.9825358913305609
1503601808796,-0.623,-0.357,+0.308,+0.624,+0.845,-0.066,-0.510,-1.125,-6.250,+1.438,-2, -9, -6, -4, -1, 0, 2, 4,-1.6020228888532801,0.9806510873394162
1503601808819,-0.623,-0.356,+0.307,+0.625,+0.848,-0.073,-0.508,-2.062,-6.062,+0.500,-5, -3, -1, -1, 0, -1, 1, 2,-1.6005969739404542,0.9773913870577842
1503601808841,-0.623,-0.356,+0.307,+0.625,+0.844,-0.070,-0.509,-3.500,-3.688,+1.625,-2, 0, 1, -4, -4, -4, -1, -3,-1.6005969739404542,0.9773913870577842
1503601808856,-0.622,-0.355,+0.307,+0.626,+0.852,-0.069,-0.503,-3.250,-3.000,+2.375,11, 7, 3, 0, 0, -2, -7, -7,-1.5966936533527583,0.9754574477363473
1503601808879,-0.622,-0.355,+0.307,+0.627,+0.850,-0.065,-0.512,-3.188,-3.438,+2.250,-2, 19, 5, -2, -3, 0, 7, 21,-1.5966613855632164,0.9758024197057582
