Timestamp,Orientation X,Orientation Y,Orientation Z,Orientation W,Accelerometer X,Accelerometer Y,Accelerometer Z,Gyroscope X,Gyroscope Y,Gyroscope Z,EMG1,EMG2,EMG3,EMG4,EMG5,EMG6,EMG7,EMG8,Roll,Yaw,Window
1503513662637,-0.659,-0.156,-0.126,-0.725,+0.407,+0.058,-0.880,-1.312,+0.688,+0.438,0, 0, 2, 0, 0, -2, -1, -3,1.4877940171847857,0.39955478949268625,0
1503513662658,-0.659,-0.156,-0.126,-0.725,+0.411,+0.062,-0.888,-1.812,-0.250,+0.438,1, -2, -1, -1, 0, -1, -2, 2,1.4877940171847857,0.39955478949268625,0
1503513662681,-0.659,-0.156,-0.126,-0.725,+0.415,+0.059,-0.876,-1.438,-0.188,+0.375,-3, 1, 0, -2, 0, 0, -2, -1,1.4877940171847857,0.39955478949268625,0
1503513662696,-0.659,-0.156,-0.126,-0.725,+0.405,+0.059,-0.881,-1.188,-0.125,+0.750,-1, 0, 0, 0, -2, -2, -1, 3,1.4877940171847857,0.39955478949268625,0
1503513662718,-0.659,-0.155,-0.126,-0.725,+0.405,+0.060,-0.886,-1.750,-1.500,+0.438,1, 0, 0, -1, -1, -1, 1, -1,1.4871520458690712,0.3980961028556621,0
1503513662748,-0.659,-0.155,-0.126,-0.725,+0.402,+0.068,-0.878,-1.562,+0.375,+0.438,2, 0, 0, -2, -1, 0, 0, 1,1.4871520458690712,0.3980961028556621,0
1503513662763,-0.659,-0.155,-0.126,-0.725,+0.410,+0.065,-0.891,-1.000,-0.188,+0.875,0, -2, -1, -1, -2, -1, 0, -1,1.4871520458690712,0.3980961028556621,0
1503513662778,-0.659,-0.155,-0.126,-0.725,+0.403,+0.059,-0.889,-0.812,+0.688,+0.562,-2, 0, -1, 1, 0, 1, 0, -3,1.4871520458690712,0.3980961028556621,0
1503513662801,-0.659,-0.155,-0.126,-0.725,+0.406,+0.068,-0.874,-1.188,+0.438,+0.812,-3, -1, -1, -1, -1, -1, -2, -5,1.4871520458690712,0.3980961028556621,0
1503513662816,-0.659,-0.155,-0.126,-0.725,+0.410,+0.061,-0.883,-0.812,-0.875,+0.625,1, -1, -1, -3, 0, -1, 1, 4,1.4871520458690712,0.3980961028556621,0
1503513662838,-0.659,-0.155,-0.126,-0.725,+0.406,+0.060,-0.888,-0.750,+0.312,+0.750,-1, -1, -1, 0, 0, -1, -1, -3,1.4871520458690712,0.3980961028556621,0
1503513662861,-0.659,-0.155,-0.126,-0.725,+0.412,+0.057,-0.887,-1.062,-0.688,+0.875,-2, 1, 0, -1, 0, -1, -4, 0,1.4871520458690712,0.3980961028556621,0
1503513662876,-0.659,-0.155,-0.126,-0.725,+0.405,+0.057,-0.882,-1.125,+0.188,+0.562,-1, -1, -2, -1, 0, -1, -1, -1,1.4871520458690712,0.3980961028556621,0
1503513662898,-0.659,-0.155,-0.126,-0.725,+0.408,+0.062,-0.887,-1.500,-0.500,+0.562,-2, -3, -2, -2, -1, 0, 0, 0,1.4871520458690712,0.3980961028556621,0
1503513662921,-0.659,-0.155,-0.126,-0.725,+0.411,+0.066,-0.887,-0.938,+0.000,+0.875,-1, 1, 0, 0, -1, 0, 0, 1,1.4871520458690712,0.3980961028556621,0
1503513662936,-0.659,-0.155,-0.126,-0.725,+0.410,+0.061,-0.886,-0.625,+0.875,+0.812,1, -1, -3, -1, 0, 0, 1, 0,1.4871520458690712,0.3980961028556621,0
1503513662958,-0.659,-0.155,-0.126,-0.725,+0.409,+0.056,-0.884,-1.000,-2.000,+0.500,1, -3, 0, 1, 0, -1, 0, -1,1.4871520458690712,0.3980961028556621,0
1503513662981,-0.659,-0.155,-0.126,-0.725,+0.397,+0.057,-0.881,-1.250,+0.812,+0.625,-2, -1, -1, -1, 0, -1, -2, -2,1.4871520458690712,0.3980961028556621,0
1503513662996,-0.659,-0.155,-0.126,-0.725,+0.413,+0.066,-0.889,-1.438,+0.000,+0.438,0, 1, -1, 1, 2, -4, -1, -1,1.4871520458690712,0.3980961028556621,0
1503513663019,-0.659,-0.155,-0.126,-0.725,+0.411,+0.063,-0.876,-0.875,+0.250,+0.812,-3, -1, -1, -2, -1, 0, -3, -5,1.4871520458690712,0.3980961028556621,0
1503513663041,-0.659,-0.155,-0.126,-0.725,+0.411,+0.062,-0.886,-0.938,-0.188,+0.625,0, -1, 1, -2, -2, -1, 0, 0,1.4871520458690712,0.3980961028556621,0
1503513663058,-0.659,-0.155,-0.126,-0.725,+0.406,+0.059,-0.886,-1.000,-0.562,+0.500,1, 0, -2, -1, -1, -1, 0, 0,1.4871520458690712,0.3980961028556621,0
1503513663078,-0.659,-0.155,-0.126,-0.725,+0.410,+0.057,-0.882,-1.250,-0.188,+0.750,-1, -2, -1, 0, -1, 1, 0, 1,1.4871520458690712,0.3980961028556621,0
1503513663100,-0.659,-0.155,-0.126,-0.725,+0.407,+0.063,-0.884,-1.125,-0.062,+0.750,1, -2, 0, 0, 0, -1, -2, -2,1.4871520458690712,0.3980961028556621,0
1503513663116,-0.659,-0.155,-0.126,-0.725,+0.411,+0.060,-0.888,-0.938,+0.312,+0.875,-4, 0, -1, -1, -2, 1, -1, -5,1.4871520458690712,0.3980961028556621,0
1503513663139,-0.659,-0.155,-0.126,-0.725,+0.410,+0.056,-0.888,-0.875,-0.812,+0.500,2, 1, -1, -1, 0, -3, 0, 1,1.4871520458690712,0.3980961028556621,0
1503513663161,-0.659,-0.155,-0.126,-0.725,+0.409,+0.061,-0.879,-1.250,+0.125,+0.312,-1, -1, -1, 2, -2, 0, -1, -2,1.4871520458690712,0.3980961028556621,0
1503513663177,-0.659,-0.155,-0.126,-0.725,+0.410,+0.059,-0.883,-1.562,-0.812,+0.500,0, -2, -1, -2, 0, -2, 1, 0,1.4871520458690712,0.3980961028556621,0
1503513663199,-0.659,-0.155,-0.126,-0.725,+0.406,+0.062,-0.889,-1.438,+0.000,+0.375,-2, -1, -1, -2, -2, -2, -2, -4,1.4871520458690712,0.3980961028556621,0
1503513663221,-0.659,-0.155,-0.126,-0.725,+0.409,+0.061,-0.885,-1.188,+0.062,+0.750,-2, -1, -1, 1, -1, 0, 1, -5,1.4871520458690712,0.3980961028556621,0
1503513663237,-0.659,-0.155,-0.126,-0.725,+0.408,+0.053,-0.880,-0.875,-0.062,+0.562,-2, 0, -2, 1, 0, 0, 0, 2,1.4871520458690712,0.3980961028556621,0
1503513663259,-0.659,-0.155,-0.126,-0.725,+0.400,+0.055,-0.886,-1.875,+0.062,+0.062,-2, 0, 2, 0, 0, -1, -2, -5,1.4871520458690712,0.3980961028556621,0
1503513663282,-0.659,-0.155,-0.126,-0.725,+0.404,+0.076,-0.883,-1.938,+0.750,+0.562,-1, -1, -1, -1, 1, 0, 0, 0,1.4871520458690712,0.3980961028556621,0
1503513663297,-0.659,-0.155,-0.126,-0.725,+0.409,+0.070,-0.882,-0.688,+0.000,+1.250,0, 0, -1, -1, -2, 1, -2, 0,1.4871520458690712,0.3980961028556621,0
1503513663320,-0.659,-0.155,-0.126,-0.725,+0.408,+0.053,-0.879,-0.562,+0.312,+0.812,-2, -1, 0, 1, 0, -1, 1, 0,1.4871520458690712,0.3980961028556621,0
1503513663341,-0.659,-0.155,-0.127,-0.725,+0.410,+0.058,-0.883,-1.500,-0.125,+0.500,-2, 0, 1, 1, 1, -1, 1, -1,1.4871779866580412,0.399631393232961,0
1503513663358,-0.659,-0.155,-0.127,-0.725,+0.408,+0.064,-0.888,-1.188,+0.312,+0.688,0, -1, 0, -1, -1, 0, 1, 0,1.4871779866580412,0.399631393232961,0
1503513663379,-0.659,-0.155,-0.127,-0.725,+0.407,+0.059,-0.888,-0.812,-0.375,+0.750,-2, -1, 0, -1, -2, -1, 1, -1,1.4871779866580412,0.399631393232961,0
1503513663400,-0.659,-0.155,-0.127,-0.725,+0.405,+0.054,-0.881,-0.875,-0.062,+0.625,-3, -2, -1, 1, -1, -1, -2, -7,1.4871779866580412,0.399631393232961,0
1503513663420,-0.659,-0.155,-0.127,-0.725,+0.413,+0.063,-0.886,-1.375,+0.000,+0.688,3, 0, -1, 0, -2, 0, 0, 3,1.4871779866580412,0.399631393232961,0
1503513663439,-0.659,-0.155,-0.127,-0.725,+0.406,+0.065,-0.883,-0.750,-0.188,+0.562,9, 10, 1, 0, -1, -1, -3, 3,1.4871779866580412,0.399631393232961,0
1503513663460,-0.659,-0.155,-0.127,-0.725,+0.409,+0.057,-0.882,-0.625,+1.250,+0.875,-4, -4, -1, -1, 1, 1, -1, 1,1.4871779866580412,0.399631393232961,0
1503513663477,-0.659,-0.155,-0.127,-0.725,+0.417,+0.055,-0.879,-1.062,-0.250,+0.500,-1, -2, 0, -1, 1, -1, 0, 0,1.4871779866580412,0.399631393232961,0
1503513663499,-0.659,-0.155,-0.127,-0.725,+0.402,+0.061,-0.883,-1.375,-0.562,+0.562,-2, -2, -1, -1, 0, -2, -2, -1,1.4871779866580412,0.399631393232961,0
1503513663521,-0.659,-0.155,-0.127,-0.725,+0.404,+0.062,-0.888,-1.312,-0.188,+0.625,-2, 0, -1, -2, 0, 0, 0, -1,1.4871779866580412,0.399631393232961,0
1503513663537,-0.659,-0.155,-0.127,-0.725,+0.403,+0.068,-0.879,-1.000,+0.000,+0.688,-3, -1, 0, -1, -1, -1, -2, 0,1.4871779866580412,0.399631393232961,0
1503513663560,-0.659,-0.155,-0.127,-0.725,+0.412,+0.063,-0.876,-0.625,-0.312,+0.750,-3, -4, -2, -1, 1, -1, 0, -3,1.4871779866580412,0.399631393232961,0
1503513663580,-0.659,-0.155,-0.127,-0.725,+0.405,+0.062,-0.885,-0.188,+0.250,+0.938,1, 2, 1, -1, -1, 0, -1, -1,1.4871779866580412,0.399631393232961,0
1503513663597,-0.659,-0.155,-0.127,-0.725,+0.412,+0.052,-0.889,-0.688,-0.562,+0.750,0, -2, -3, 1, 0, -2, 0, -2,1.4871779866580412,0.399631393232961,0
1503513663619,-0.659,-0.155,-0.127,-0.725,+0.408,+0.050,-0.877,-1.062,+0.250,+0.625,-1, 0, -2, 0, -2, 0, 1, 0,1.4871779866580412,0.399631393232961,0
1503513663641,-0.659,-0.155,-0.127,-0.725,+0.415,+0.066,-0.882,-1.500,+0.500,+0.625,-1, -2, -1, -2, 0, -2, -2, 1,1.4871779866580412,0.399631393232961,0
1503513663657,-0.659,-0.155,-0.127,-0.725,+0.411,+0.063,-0.886,-1.062,-0.188,+0.625,0, -1, -1, 0, -2, -1, -1, -2,1.4871779866580412,0.399631393232961,0
1503513663679,-0.659,-0.155,-0.127,-0.725,+0.411,+0.061,-0.880,-0.875,+0.938,+0.562,-2, 0, -1, -1, 0, -2, 1, -1,1.4871779866580412,0.399631393232961,0
1503513663700,-0.659,-0.155,-0.127,-0.725,+0.415,+0.055,-0.884,-1.250,-1.188,+0.375,2, -1, -2, -3, 1, 1, -1, 1,1.4871779866580412,0.399631393232961,0
1503513663719,-0.659,-0.155,-0.127,-0.725,+0.406,+0.061,-0.881,-1.438,+1.375,+0.625,0, 2, 1, 1, -2, -1, -1, 0,1.4871779866580412,0.399631393232961,0
1503513663739,-0.659,-0.155,-0.127,-0.725,+0.415,+0.060,-0.879,-1.562,-0.250,+0.625,-4, -4, -1, -3, -1, -1, 0, -3,1.4871779866580412,0.399631393232961,0
1503513663762,-0.659,-0.155,-0.128,-0.725,+0.410,+0.055,-0.884,-1.188,+0.938,+0.500,-1, -2, -2, 0, -1, 1, 0, 0,1.487203911399333,0.40116794651008614,0
1503513663777,-0.659,-0.155,-0.128,-0.725,+0.419,+0.053,-0.880,-1.562,-0.625,+0.188,2, 2, 1, 1, -1, -1, -1, 4,1.487203911399333,0.40116794651008614,0
1503513663799,-0.659,-0.155,-0.128,-0.725,+0.409,+0.059,-0.880,-1.938,-0.625,+0.250,-1, -3, -1, 0, 0, -1, 1, -1,1.487203911399333,0.40116794651008614,0
1503513663821,-0.659,-0.155,-0.128,-0.725,+0.407,+0.063,-0.879,-2.062,+0.062,+0.500,-3, -1, 2, -1, -1, -1, 1, 1,1.487203911399333,0.40116794651008614,0
1503513663837,-0.659,-0.155,-0.128,-0.725,+0.409,+0.066,-0.886,-1.750,-0.938,+0.938,2, -1, -1, 0, -2, 0, -2, 2,1.487203911399333,0.40116794651008614,0
1503513663859,-0.659,-0.155,-0.128,-0.725,+0.409,+0.060,-0.878,-1.562,+1.000,+0.625,-1, -2, -1, 0, 0, 0, -1, -3,1.487203911399333,0.40116794651008614,0
1503513663880,-0.659,-0.155,-0.128,-0.725,+0.417,+0.061,-0.885,-1.812,-0.500,+0.375,-1, 0, -1, -2, 0, -2, -1, 0,1.487203911399333,0.40116794651008614,0
1503513663897,-0.659,-0.155,-0.128,-0.725,+0.409,+0.068,-0.879,-1.250,+0.625,+0.250,1, -1, -3, 1, -2, -1, -1, 1,1.487203911399333,0.40116794651008614,0
1503513663920,-0.659,-0.155,-0.128,-0.725,+0.396,+0.060,-0.885,-1.062,+5.125,+0.312,2, 3, -3, -6, -6, -3, -2, 0,1.487203911399333,0.40116794651008614,0
1503513663940,-0.659,-0.156,-0.129,-0.725,+0.415,+0.047,-0.880,-1.625,+4.438,+0.125,-1, -3, -3, -1, 0, 0, -1, -1,1.4878716778426164,0.4041643028962074,0
1503513663958,-0.659,-0.157,-0.129,-0.725,+0.424,+0.065,-0.883,-3.000,+3.188,+0.750,1, 4, 1, -1, 3, -1, -1, -3,1.4885172602173113,0.4056245710996884,0
1503513663979,-0.659,-0.157,-0.129,-0.725,+0.415,+0.083,-0.882,-1.938,-0.250,+0.875,-1, -2, 0, -1, 0, -2, 1, -1,1.4885172602173113,0.4056245710996884,0
1503513664000,-0.659,-0.157,-0.129,-0.725,+0.399,+0.083,-0.877,+0.188,+0.875,+1.312,0, 3, -1, -3, -3, -2, -1, -2,1.4885172602173113,0.4056245710996884,0
1503513664016,-0.659,-0.156,-0.130,-0.724,+0.416,+0.066,-0.875,+1.250,+0.875,+1.438,-2, -1, -2, 0, -1, 0, -1, 0,1.4877882033965768,0.40546409851153165,0
1503513664039,-0.659,-0.156,-0.130,-0.724,+0.410,+0.056,-0.880,+0.750,+1.875,+1.125,-1, 0, 0, -1, -2, -2, 0, 0,1.4877882033965768,0.40546409851153165,0
1503513664062,-0.659,-0.157,-0.131,-0.724,+0.420,+0.051,-0.876,+1.000,+7.438,+1.500,3, 3, 0, 0, -2, -1, 0, 0,1.4884604806906314,0.408463076626141,0
1503513664077,-0.658,-0.158,-0.133,-0.724,+0.425,+0.026,-0.881,+1.312,+11.125,+0.812,5, 7, -1, -1, -6, 0, -2, 1,1.486414358647228,0.41271631322222824,0
1503513664099,-0.658,-0.158,-0.134,-0.724,+0.448,+0.038,-0.866,-1.562,+5.062,-0.125,1, -1, -1, 2, 2, -2, -1, 2,1.4864410269430037,0.41425903366560446,0
1503513664121,-0.658,-0.159,-0.134,-0.724,+0.451,+0.083,-0.870,-2.125,-2.250,-1.500,0, 2, 2, 7, 9, 1, 0, -2,1.4870960782089822,0.4157209890492532,0
1503513664137,-0.658,-0.158,-0.134,-0.724,+0.438,+0.096,-0.885,+1.562,-3.750,-0.812,-8, -8, -4, -3, -3, -2, -4, -6,1.4864410269430037,0.41425903366560446,0
1503513664159,-0.657,-0.158,-0.134,-0.725,+0.422,+0.050,-0.895,+3.812,+1.562,+0.562,0, -2, -2, -8, -3, 0, -2, -2,1.4838058458473158,0.41421503258899983,0
1503513664181,-0.657,-0.157,-0.135,-0.725,+0.384,+0.032,-0.869,+2.000,+2.688,+0.750,19, 21, 2, 7, 9, -1, -1, 3,1.4831815199161555,0.41430261361277837,0
1503513664203,-0.657,-0.158,-0.135,-0.725,+0.400,+0.061,-0.863,-2.438,+2.250,+0.625,-11, -10, -4, -8, -2, -1, 0, -4,1.4838333253141671,0.41576094632657956,0
1503513664219,-0.657,-0.158,-0.135,-0.724,+0.433,+0.099,-0.894,-0.812,+1.750,+2.062,-4, -4, -1, -1, -5, -1, -1, 2,1.4837189455707307,0.41551359985222786,0
1503513664241,-0.657,-0.158,-0.137,-0.724,+0.435,+0.068,-0.862,+5.812,+7.938,+1.375,-8, -4, 1, 3, 1, 2, 0, -4,1.4837739967047705,0.4186061626808936,0
1503513664263,-0.656,-0.158,-0.140,-0.724,+0.483,+0.020,-0.888,+7.562,+8.750,+0.312,2, 6, -1, -7, -4, -3, -2, 0,1.481109517457635,0.42296676376896253,0
1503513664279,-0.657,-0.158,-0.140,-0.724,+0.460,+0.047,-0.875,+1.875,+1.625,+3.125,0, -3, 0, 2, 0, 0, 3, -1,1.4838564433437653,0.4232551962280804,0
1503513664301,-0.657,-0.159,-0.142,-0.723,+0.446,+0.113,-0.874,+5.062,+10.125,+7.438,2, 1, -9, -12, -5, 0, -2, 0,1.4844541483616647,0.4275625879129355,0
1503513664328,-0.657,-0.160,-0.148,-0.722,+0.531,+0.120,-0.935,+17.875,+25.250,+12.562,4, 1, 1, 6, -1, -2, 2, 2,1.485166712545205,0.4380982746822204,0
1503513664339,-0.658,-0.160,-0.155,-0.720,+0.529,+0.138,-1.034,+33.062,+32.750,+22.062,-3, 0, 8, 9, 12, 3, -1, -2,1.4878755407213526,0.4487824244979697,0
1503513664362,-0.658,-0.158,-0.166,-0.717,+0.390,+0.085,-1.145,+48.625,+53.250,+25.562,-7, -5, 16, 33, 32, 7, 3, -4,1.4865168888791265,0.4622987074569211,0
1503513664383,-0.658,-0.161,-0.186,-0.712,+0.326,+0.104,-1.004,+63.500,+103.562,+41.250,-8, -9, 9, -29, -25, -3, -4, -1,1.4884956207496303,0.49697974998273015,0
1503513664399,-0.657,-0.168,-0.213,-0.704,+0.545,+0.351,-0.879,+71.562,+152.688,+45.500,10, 8, -6, 7, 17, 7, 6, 9,1.4904438517550598,0.5481154876245129,0
1503513664426,-0.656,-0.170,-0.247,-0.693,+0.783,+0.162,-0.913,+117.500,+163.438,+74.938,4, -3, 0, 9, 1, -2, -5, -2,1.4888934399902454,0.6035338483276866,0
1503513664443,-0.660,-0.161,-0.274,-0.680,+0.974,-0.178,-0.928,+118.375,+80.750,+105.438,7, 17, 18, 30, 38, 11, 0, 4,1.492889997527798,0.6327126528200223,0
1503513664461,-0.668,-0.144,-0.291,-0.670,+1.007,-0.016,-0.847,+114.688,+5.250,+117.812,-16, -26, -39, -35, -24, -9, -7, -8,1.5033961632110495,0.6357107207692632,0
1503513664481,-0.676,-0.113,-0.301,-0.663,+0.867,-0.038,-0.724,+144.250,-77.375,+121.750,-1, -3, 4, -7, -20, -4, -2, -8,1.5081349234223533,0.6078605732465331,0
1503513664504,-0.682,-0.074,-0.308,-0.659,+0.646,-0.083,-0.693,+167.562,-129.312,+119.625,-13, -15, -3, 0, 15, 10, 1, -3,1.5086187799055242,0.5651442170518727,0
1503513664519,-0.686,-0.029,-0.313,-0.656,+0.322,-0.148,-0.747,+187.625,-152.812,+108.938,5, -4, -14, -23, -10, -3, -2, -3,1.5086602650392806,0.5115419625506934,0
1503513664541,-0.686,+0.013,-0.322,-0.652,+0.169,-0.312,-0.729,+199.875,-125.000,+95.750,39, 34, 9, 14, 14, 9, 3, 8,1.5049114050547598,0.4695922496416791,0
1503513664563,-0.685,+0.047,-0.337,-0.644,+0.144,-0.403,-0.671,+193.688,-64.375,+92.062,-13, -21, -9, -6, 4, -1, -1, 1,1.5037305101746818,0.44837936179959914,0
1503513664579,-0.685,+0.076,-0.357,-0.631,+0.146,-0.421,-0.603,+191.938,-14.250,+104.500,-11, -10, -12, -38, -76, -32, -8, -6,1.5091642505719356,0.44119663379699114,0
1503513664601,-0.684,+0.100,-0.380,-0.615,+0.225,-0.584,-0.559,+193.188,+26.688,+102.062,-17, -26, -12, 5, -6, 0, 3, -4,1.5129921896485075,0.4461362643041459,0
1503513664626,-0.683,+0.122,-0.404,-0.596,+0.328,-0.820,-0.501,+177.375,+38.562,+104.000,-19, 16, 31, 8, -5, -6, -7, -15,1.5187805694680134,0.45493153609905085,0
1503513664639,-0.684,+0.142,-0.423,-0.577,+0.274,-0.886,-0.388,+154.562,+30.375,+117.938,-2, 4, 27, 17, 33, 9, 8, 10,1.5350078830583227,0.4542710098701712,0
1503513664661,-0.683,+0.163,-0.438,-0.561,+0.309,-0.878,-0.359,+144.938,+6.562,+100.938,4, -2, -13, -9, -10, 1, -2, 1,1.548533519818177,0.4452871732565,0
1503513664683,-0.679,+0.183,-0.451,-0.549,+0.388,-0.883,-0.317,+135.750,-11.375,+74.188,3, 58, 59, 26, 23, 12, 1, -1,1.5519519559674992,0.43836518790272266,0
1503513664699,-0.676,+0.205,-0.458,-0.539,+0.297,-0.881,-0.290,+112.500,-43.875,+79.562,-16, -73, -3, 14, 36, 18, 5, -4,1.5671028277627108,0.4113606148398066,0
1503513664721,-0.673,+0.229,-0.462,-0.531,+0.083,-0.906,-0.246,+97.750,-62.875,+77.125,10, 6, -29, -27, -29, -13, 7, 2,1.5921394571109089,0.37148582702747607,0
1503513664743,-0.669,+0.249,-0.466,-0.523,-0.032,-1.000,-0.231,+86.562,-48.750,+52.688,1, -3, -14, 1, 0, -2, -7, 4,1.611662496657449,0.3360371121047981,0
1503513664759,-0.666,+0.262,-0.472,-0.515,+0.002,-1.038,-0.207,+62.500,-12.875,+41.438,-10, 35, -19, -10, 10, 3, -7, -11,1.6263640227715717,0.31770623852015606,0
1503513664781,-0.666,+0.268,-0.477,-0.507,+0.067,-0.963,-0.195,+36.625,+13.938,+33.500,6, -36, -28, -12, -5, 1, -1, 4,1.6439643055827609,0.3058280651719967,0
1503513664803,-0.667,+0.271,-0.481,-0.501,+0.072,-0.877,-0.196,+22.188,+21.750,+22.375,9, 14, 3, 45, 38, 3, -1, 3,1.6604890886071084,0.2992619412960519,0
1503513664819,-0.667,+0.271,-0.485,-0.497,+0.070,-0.940,-0.159,+9.188,+19.625,+10.562,-4, -1, -9, -23, -16, -3, -3, -1,1.66216192636419,0.3052454081111217,0
1503513664843,-0.667,+0.272,-0.485,-0.496,+0.107,-1.046,-0.125,-16.812,+3.750,+4.188,-8, -19, 6, 12, 20, 11, 6, 3,1.6653942879372217,0.3005616290093789,0
1503513664864,-0.670,+0.270,-0.481,-0.497,+0.089,-1.000,-0.165,-46.688,-2.750,+1.625,4, 9, -16, -15, 0, 1, -3, 1,1.6777127822315414,0.28880794129618825,0
1503513664879,-0.674,+0.266,-0.474,-0.500,-0.043,-0.958,-0.260,-65.500,-4.625,-11.688,2, 2, 12, 34, 35, 11, 4, 2,1.6889260753099404,0.2749883272348824,0
1503513664902,-0.679,+0.258,-0.466,-0.505,-0.039,-1.015,-0.194,-88.438,+2.188,-28.000,10, -24, -56, -22, 16, 25, 6, 3,1.6941413384960156,0.27124824906742534,0
1503513664923,-0.685,+0.247,-0.454,-0.514,+0.037,-1.174,-0.132,-123.625,-2.812,-30.875,22, 50, 3, 1, 19, 1, -4, -3,1.6961360121534879,0.26884671281832795,0
1503513664939,-0.692,+0.230,-0.438,-0.526,+0.002,-1.234,-0.292,-160.500,-2.000,-50.312,-9, -14, -17, 3, 0, 5, -2, -3,1.690875884061487,0.2721232376870421,0
1503513664961,-0.697,+0.208,-0.420,-0.543,+0.045,-1.081,-0.399,-179.625,-1.062,-90.875,9, 11, 45, 11, -53, -10, 4, 9,1.6703353955159774,0.28812588888110313,0
1503513664984,-0.702,+0.182,-0.400,-0.560,+0.065,-1.131,-0.425,-205.562,+7.375,-94.062,-7, -12, 5, 13, 12, -7, 22, -6,1.6515642942505893,0.30388575912317056,0
1503513664999,-0.711,+0.147,-0.377,-0.575,+0.256,-1.038,-0.481,-252.000,+38.812,-92.750,28, 68, 108, 8, -5, 2, 22, 7,1.6474132869280447,0.32220727149641754,0
1503513665021,-0.721,+0.100,-0.351,-0.589,-0.535,-0.945,-1.194,-302.875,+96.625,-116.375,-32, -53, -45, -38, -24, 13, -12, -23,1.6472470709286837,0.35179569509855274,0
1503513665044,-0.710,+0.042,-0.346,-0.612,+0.728,-0.776,-0.984,-216.625,+172.500,-251.500,44, 41, 21, 81, 104, 60, 39, 89,1.5847577232878083,0.4480403172239853,0
1503513665063,-0.704,+0.008,-0.317,-0.635,+1.170,-0.652,-0.605,-238.938,-19.562,-171.062,-5, -6, -7, 6, 5, 2, 0, 0,1.5610779350700406,0.4554823459546544,0
1503513665082,-0.721,-0.045,-0.289,-0.629,+0.598,-0.008,-0.618,-343.688,+120.312,-5.125,-59, -59, -30, -5, 11, -7, -32, -103,1.6176330961893137,0.4770659808149807,0
1503513665104,-0.723,-0.086,-0.261,-0.634,-0.215,+1.205,-0.697,-248.000,+73.250,-83.125,3, -44, -71, -79, -81, -59, -26, 24,1.6333668839602582,0.4922674021461198,0
1503513665120,-0.712,-0.117,-0.274,-0.636,+0.350,+1.747,-0.811,-49.750,+180.500,-88.312,0, 2, -4, -6, -20, -26, 3, 6,1.613322591217227,0.5595537203035518,0
1503513665142,-0.699,-0.141,-0.297,-0.635,+0.705,+0.489,-0.940,+39.875,+194.438,-55.688,-8, 0, -2, 4, 5, -3, -29, -34,1.5882564971087176,0.6323394227021456,0
1503513665165,-0.688,-0.155,-0.310,-0.637,+1.105,-0.212,-0.596,+20.000,+85.000,-53.688,4, 12, 15, 14, 10, 3, -6, 5,1.5653862057380363,0.6750779326932221,0
1503513665180,-0.686,-0.162,-0.318,-0.634,+0.863,-0.245,-0.609,-0.688,+45.438,+1.062,5, 4, 10, 25, 40, 11, 0, 12,1.5643002418715024,0.6982397641849207,0
1503513665202,-0.686,-0.162,-0.327,-0.629,+0.740,-0.355,-0.639,+27.562,+35.062,+25.062,-6, 1, 6, 10, 7, 6, -2, -24,1.5642738006682024,0.7123729994388155,0
1503513665224,-0.684,-0.157,-0.334,-0.629,+0.795,-0.374,-0.674,+45.062,+0.688,+6.875,1, 1, 5, 24, 23, 16, 3, 4,1.555269495670967,0.7175104163419557,0
1503513665239,-0.680,-0.149,-0.333,-0.636,+0.690,-0.181,-0.743,+40.688,-48.375,-23.375,2, -2, -4, -10, -5, -2, 0, 2,1.5388654785530058,0.7064441391573363,0
1503513665264,-0.675,-0.142,-0.332,-0.644,+0.489,-0.174,-0.616,+40.312,-34.875,-36.562,1, -7, -5, 1, 6, 2, 2, 11,1.520591996120877,0.6973638941072918,0
1503513665284,-0.670,-0.140,-0.335,-0.648,+0.445,-0.185,-0.664,+34.625,+5.875,-23.875,-1, -5, 4, -1, -6, -2, 5, 5,1.505409275696657,0.7012229266946934,0
1503513665306,-0.667,-0.143,-0.343,-0.646,+0.573,-0.163,-0.648,+29.125,+52.812,-1.188,-1, 3, -2, -6, -2, -1, -3, 0,1.4986986282044323,0.7192910932020967,0
1503513665322,-0.661,-0.149,-0.357,-0.643,+0.645,-0.251,-0.626,+38.938,+86.188,-11.250,-4, -2, -2, -13, -11, -1, 0, -2,1.4855234147802407,0.752523324137209,0
1503513665344,-0.652,-0.158,-0.373,-0.642,+0.625,-0.349,-0.685,+44.625,+108.062,-36.375,-1, 1, -4, 1, 1, -1, -1, -3,1.4666092607146874,0.7950899392580868,0
1503513665360,-0.643,-0.167,-0.386,-0.639,+0.721,-0.259,-0.640,+33.125,+101.938,-28.375,0, -6, -9, 0, 3, -2, -5, -4,1.448006317941449,0.8310284333346977,0
1503513665382,-0.639,-0.172,-0.396,-0.637,+0.921,-0.178,-0.605,+30.562,+56.312,-2.750,-5, 3, -9, -11, -11, -5, -6, -13,1.4408490719913596,0.857134686331651,0
1503513665404,-0.633,-0.172,-0.404,-0.637,+0.955,-0.247,-0.548,+45.375,+26.875,-3.938,3, -1, -2, 2, 6, 4, 4, 6,1.4243472435138276,0.8728223568496608,0
1503513665419,-0.625,-0.169,-0.411,-0.641,+0.815,-0.260,-0.486,+56.312,+6.312,-28.188,0, -1, 1, 6, 3, 2, 0, 2,1.4005465637257013,0.8841801221625113,0
1503513665442,-0.617,-0.169,-0.418,-0.645,+0.710,-0.206,-0.554,+54.062,+28.062,-30.688,3, 1, 3, 0, 2, 3, 1, -1,1.3795051744653295,0.8999676434473425,0
1503513665464,-0.610,-0.169,-0.425,-0.647,+0.684,-0.235,-0.629,+49.125,+37.750,-26.062,-2, -5, -4, 7, 6, 0, 0, 2,1.3609826923645973,0.9151093928875523,0
1503513665479,-0.603,-0.168,-0.434,-0.648,+0.728,-0.341,-0.522,+52.375,+37.438,-22.250,-3, 2, 11, -5, -4, -2, -2, -12,1.3416040748427511,0.9331462588583045,0
1503513665502,-0.595,-0.168,-0.445,-0.648,+0.764,-0.249,-0.438,+54.312,+45.938,-15.688,-3, 1, -3, -4, -2, -1, -1, 2,1.3203640010781794,0.9567476497648918,0
1503513665524,-0.587,-0.172,-0.458,-0.645,+0.763,-0.160,-0.483,+58.938,+79.688,-11.375,2, -4, -5, 6, 7, 3, 0, 17,1.30229906885544,0.9891031787821215,0
1503513665540,-0.578,-0.174,-0.472,-0.643,+0.752,-0.280,-0.545,+62.688,+83.062,-17.750,-3, -6, -10, -15, -9, -3, -2, -5,1.2803397867996702,1.022229706375698,0
1503513665562,-0.570,-0.173,-0.484,-0.641,+0.848,-0.470,-0.500,+58.625,+63.438,-12.062,1, 1, 4, -2, -5, -3, 1, -1,1.2581505187392954,1.0476323514503967,0
1503513665584,-0.564,-0.173,-0.495,-0.638,+0.903,-0.374,-0.432,+49.812,+54.375,-4.938,-4, -4, -2, -1, -1, -1, 0, 0,1.2420194377235627,1.072261138273404,0
1503513665599,-0.555,-0.176,-0.506,-0.636,+0.891,-0.127,-0.388,+56.625,+63.938,-10.188,1, -1, -3, -2, -3, -1, -1, -1,1.221508650996799,1.1009889827759836,0
1503513665622,-0.543,-0.177,-0.518,-0.637,+0.895,-0.115,-0.436,+76.250,+63.375,-21.875,4, 6, 6, 4, 7, -1, 0, -3,1.1926736686431219,1.1312608854902995,0
1503513665644,-0.532,-0.175,-0.528,-0.639,+0.937,-0.295,-0.484,+76.750,+41.750,-28.375,-2, 1, 8, -1, 4, 2, 6, 5,1.163837043039428,1.154005961784847,0
1503513665659,-0.522,-0.171,-0.533,-0.643,+0.875,-0.278,-0.407,+71.500,+5.312,-26.188,3, 3, -4, -5, -7, -2, 1, 1,1.1358891155790751,1.162905841674183,0
1503513665682,-0.511,-0.164,-0.538,-0.651,+0.875,-0.136,-0.325,+87.688,-13.688,-26.688,-19, -2, 23, 13, 2, -2, -1, -4,1.1042325271594329,1.1705032096682202,0
1503513665704,-0.497,-0.156,-0.545,-0.657,+0.835,-0.208,-0.277,+101.562,+0.250,-40.188,-4, 1, -13, -18, -8, -4, -1, -3,1.0636668768041064,1.1816121723694406,0
1503513665719,-0.483,-0.149,-0.552,-0.664,+0.819,-0.454,-0.319,+94.000,-5.250,-51.500,-5, -9, -7, 0, -3, -2, -9, -7,1.0254029379192868,1.194825767142261,0
1503513665742,-0.472,-0.142,-0.557,-0.669,+0.826,-0.521,-0.301,+76.062,+1.375,-45.750,6, 1, 1, 0, -3, -2, 1, 3,0.9937240640039814,1.202655627550107,0
1503513665763,-0.461,-0.137,-0.562,-0.673,+0.814,-0.389,-0.276,+67.312,+0.188,-36.812,-2, -14, -10, 4, 2, 1, 3, -1,0.964177273601763,1.2122871268856783,0
1503513665779,-0.449,-0.134,-0.566,-0.678,+0.827,-0.323,-0.279,+67.812,+0.000,-48.750,9, 15, -4, 2, 0, -2, -1, 2,0.9353487419753406,1.2214987225073073,0
1503513665802,-0.437,-0.130,-0.568,-0.685,+0.889,-0.371,-0.289,+62.875,-14.750,-55.000,-12, -11, -3, -10, -12, -3, -2, -3,0.9066285740934116,1.2253289006824593,0
1503513665823,-0.428,-0.125,-0.569,-0.691,+0.875,-0.420,-0.309,+52.500,-19.375,-42.375,1, 11, 5, 4, 5, -1, -5, 1,0.8834001314954453,1.2256182288214208,0
1503513665839,-0.422,-0.120,-0.565,-0.699,+0.886,-0.377,-0.291,+38.438,-45.312,-34.188,6, 2, 1, 0, -3, -2, -4, -2,0.8676565475836546,1.2134344615523391,0
1503513665862,-0.414,-0.115,-0.560,-0.708,+0.975,-0.316,-0.192,+33.812,-68.438,-43.938,0, 6, 9, 7, 0, 1, -2, -10,0.8479314215312918,1.1989795392835918,0
1503513665883,-0.406,-0.112,-0.557,-0.716,+0.983,-0.373,-0.264,+31.562,-47.438,-49.438,-2, -8, -6, -5, 0, 0, 1, 1,0.8304468421085598,1.191273320188362,0
1503513665901,-0.401,-0.110,-0.552,-0.722,+0.856,-0.425,-0.397,+13.500,-34.625,-40.500,1, 4, 1, 3, 2, 0, 2, -3,0.8195523050907177,1.1784005801638457,0
1503513665922,-0.398,-0.109,-0.545,-0.731,+0.875,-0.405,-0.284,+2.062,-63.312,-42.625,-3, 2, -4, -5, -4, 14, 7, -1,0.8157215726764697,1.1625417768039408,0
1503513665944,-0.391,-0.107,-0.537,-0.740,+1.041,-0.350,-0.191,+9.250,-76.250,-53.000,38, 15, 1, -1, -1, 2, -1, -19,0.8017036859826404,1.1431543109216715,0
1503513665959,-0.386,-0.107,-0.533,-0.746,+0.943,-0.345,-0.259,+4.375,-41.562,-41.312,34, 18, 7, 7, 7, -5, 0, 10,0.7933332294567986,1.1348566249674343,0
1503513665982,-0.382,-0.109,-0.529,-0.750,+0.743,-0.290,-0.395,-7.938,-19.812,-41.688,-21, -8, 6, 8, 3, -4, -9, -4,0.7882625582933122,1.1272666608213782,0
1503513666004,-0.375,-0.114,-0.526,-0.755,+0.871,-0.282,-0.301,-4.938,-14.500,-66.125,4, 1, 4, 3, -3, -1, 5, 9,0.7806264045497422,1.1247821634107757,0
1503513666019,-0.366,-0.118,-0.528,-0.757,+1.056,-0.372,-0.194,+3.625,-0.500,-61.812,1, 5, 9, 8, 6, -2, -3, 7,0.7669559186968056,1.133033554080158,0
1503513666042,-0.361,-0.122,-0.529,-0.758,+0.957,-0.387,-0.303,-5.438,+10.125,-45.625,-38, -16, 0, -4, -6, -2, 1, 2,0.7614205150246591,1.1386121522605126,0
1503513666064,-0.355,-0.126,-0.526,-0.762,+0.893,-0.320,-0.379,-8.625,-13.062,-57.438,-4, -4, -1, 7, 8, 3, 1, -5,0.7547365135757417,1.135038714236121,0
1503513666086,-0.347,-0.131,-0.524,-0.767,+0.925,-0.261,-0.309,-2.062,-13.438,-69.688,16, 10, 4, -9, -12, -6, -5, 3,0.7457802233957304,1.1351008152915154,0
1503513666102,-0.341,-0.135,-0.523,-0.770,+0.974,-0.222,-0.317,-5.125,-2.625,-53.812,-31, -23, -7, -2, -6, -3, -4, -1,0.7391731591371804,1.1363092565740385,0
1503513666123,-0.337,-0.140,-0.522,-0.771,+0.945,-0.131,-0.410,-13.250,+8.750,-30.688,-2, -3, -13, -8, -2, -3, -6, 3,0.7369550904049293,1.1376757200145795,0
1503513666145,-0.332,-0.145,-0.521,-0.773,+0.891,-0.067,-0.339,-6.125,+1.938,-42.375,-9, 5, 1, 0, -6, -2, -4, -9,0.7332720339827158,1.1394152089354332,0
1503513666160,-0.325,-0.149,-0.520,-0.776,+1.045,-0.089,-0.381,+3.438,-3.250,-49.500,19, 3, -1, 26, 18, 1, -1, -7,0.7249266266969966,1.1405632244915906,0
1503513666183,-0.322,-0.152,-0.520,-0.777,+1.077,-0.073,-0.384,-4.562,+0.500,-21.688,-6, 7, 2, -11, -17, -7, 1, -14,0.7228728225275273,1.1430822722194502,0
1503513666206,-0.324,-0.153,-0.519,-0.776,+1.084,-0.088,-0.344,-13.625,-11.562,+11.250,-28, -8, -3, -8, 0, -1, -1, 11,0.7274032920864885,1.1411829615169646,0
1503513666220,-0.324,-0.155,-0.517,-0.777,+0.921,-0.026,-0.334,-10.250,-5.688,-3.375,3, 4, -12, 1, 0, 0, -5, -8,0.729804630119536,1.1381999776885967,0
1503513666243,-0.320,-0.157,-0.514,-0.780,+0.952,+0.032,-0.421,+1.312,-15.562,-25.938,-4, 0, 1, -5, -11, -4, 2, -12,0.7248210218395985,1.133052798911314,0
1503513666265,-0.318,-0.159,-0.512,-0.782,+0.960,+0.072,-0.408,-0.188,-8.875,-11.750,-6, 4, 13, 6, -1, -1, -4, -7,0.723643196080383,1.130291076121808,0
1503513666280,-0.317,-0.160,-0.511,-0.783,+0.929,+0.053,-0.401,+0.375,-4.688,+0.250,12, -5, -5, -4, 3, -3, -7, 3,0.7230538267895882,1.1289176528957947,0
1503513666303,-0.316,-0.160,-0.510,-0.784,+0.962,-0.011,-0.325,+0.688,-11.375,-1.562,-37, -13, -10, 10, 9, 3, -2, -6,0.721271448174875,1.1266960439090332,0
1503513666326,-0.318,-0.161,-0.510,-0.783,+0.998,+0.004,-0.278,-11.438,-5.875,+9.125,3, -3, -11, -11, -7, -3, 4, -15,0.7260255653000054,1.127387471111097,0
1503513666342,-0.320,-0.165,-0.510,-0.781,+1.016,+0.105,-0.341,-21.500,+3.812,+16.875,-2, -5, 1, 2, 5, 2, -5, -8,0.7339066937813825,1.1302499223271671,0
1503513666364,-0.323,-0.168,-0.509,-0.780,+1.066,+0.152,-0.417,-20.688,+2.812,+21.250,0, 0, -7, -1, -1, -2, -4, 4,0.7428716230457687,1.130362389033236,0
1503513666386,-0.328,-0.169,-0.507,-0.779,+1.010,+0.143,-0.465,-19.688,-10.062,+35.125,-4, 15, 8, 5, 2, 2, 4, 26,0.7532696581791004,1.1265201958573263,0
1503513666400,-0.336,-0.166,-0.505,-0.778,+0.973,+0.020,-0.438,-14.875,-18.062,+50.312,-12, -20, -15, 1, 3, -1, 0, 1,0.7650969172952948,1.1195526454986449,0
1503513666423,-0.345,-0.164,-0.504,-0.775,+0.977,-0.103,-0.444,-19.188,-7.312,+54.125,15, 8, -3, -4, -1, 0, 1, 9,0.7796491250334295,1.1152351338113502,0
1503513666447,-0.356,-0.161,-0.503,-0.771,+0.960,-0.119,-0.465,-27.875,-5.312,+66.438,5, 25, 17, 4, 1, 1, 2, 23,0.7969457105755033,1.1098382863037848,0
1503513666461,-0.369,-0.158,-0.501,-0.767,+0.944,-0.088,-0.417,-31.500,-19.938,+75.750,2, 8, 16, 9, 4, -2, 1, 26,0.8186300592404339,1.1021892075123763,0
1503513666483,-0.381,-0.154,-0.498,-0.764,+0.863,-0.149,-0.354,-30.812,-25.500,+68.188,15, 9, -4, -7, -5, -1, 0, -4,0.8377940779858596,1.0914131283431836,0
1503513666505,-0.392,-0.152,-0.495,-0.761,+0.791,-0.219,-0.373,-33.438,-20.562,+52.875,-14, -8, -8, -6, 0, -2, -2, -14,0.8574905099873934,1.0822875979758677,0
1503513666520,-0.401,-0.152,-0.491,-0.759,+0.793,-0.182,-0.470,-38.312,-11.875,+40.625,-6, 0, -3, 6, 4, 1, -3, 0,0.8756390512451155,1.072704471086292,0
1503513666543,-0.409,-0.152,-0.487,-0.757,+0.799,-0.103,-0.433,-34.125,-19.375,+38.125,10, 6, 2, -4, -13, -9, -1, -7,0.8917701649154601,1.0630264380211651,0
1503513666565,-0.416,-0.151,-0.483,-0.755,+0.833,-0.129,-0.432,-24.000,-17.438,+39.188,-4, -1, -4, -13, -6, 0, 2, 3,0.9047290720707959,1.05229386051757,0
1503513666588,-0.423,-0.149,-0.482,-0.753,+0.809,-0.241,-0.506,-22.312,-1.375,+39.438,0, 6, 4, 3, 0, 0, -3, 8,0.9173405354004234,1.048008943996837,0
1503513666603,-0.431,-0.148,-0.480,-0.750,+0.767,-0.243,-0.475,-28.688,-4.062,+36.562,54, 16, -1, 5, 4, 0, 2, 46,0.9328082388969029,1.0418660757769558,0
1503513666625,-0.437,-0.148,-0.477,-0.748,+0.777,-0.192,-0.390,-27.812,-14.688,+29.062,-15, -8, -3, -6, -2, 3, -2, -18,0.9452056574137332,1.034427434979951,0
1503513666640,-0.442,-0.148,-0.476,-0.746,+0.818,-0.175,-0.421,-20.250,-3.688,+27.062,-14, -7, 0, 1, 1, 1, 3, 1,0.9557132036982904,1.0317544366737192,0
1503513666663,-0.447,-0.150,-0.477,-0.742,+0.828,-0.163,-0.507,-19.625,+17.688,+32.625,-22, -10, -5, -7, -6, -7, -6, -17,0.9677103428903241,1.0349644532326554,0
1503513666685,-0.452,-0.152,-0.478,-0.738,+0.876,-0.120,-0.573,-20.750,+22.375,+32.688,16, -7, -5, -1, -1, 0, 2, -1,0.9797821896162309,1.038209586474434,0
1503513666700,-0.456,-0.152,-0.476,-0.736,+0.865,-0.111,-0.488,-15.625,-4.062,+28.438,-6, 22, 15, 2, 2, -1, -5, -24,0.9879338054833195,1.0329543864484783,0
1503513666723,-0.461,-0.150,-0.474,-0.735,+0.916,-0.117,-0.389,-12.875,-21.250,+30.688,-23, -12, -4, -12, -11, -2, -8, -47,0.996961160467396,1.026336333743646,0
1503513666745,-0.467,-0.149,-0.473,-0.732,+0.928,-0.135,-0.431,-13.375,-10.312,+44.875,7, 6, -2, 1, 0, -1, 1, 5,1.0087002696921457,1.0223197877253027,0
1503513666760,-0.475,-0.146,-0.473,-0.728,+0.876,-0.240,-0.514,-16.438,-3.688,+54.688,-13, -5, -17, -9, -8, -5, 3, -2,1.0230640077652282,1.018485746949664,0
1503513666783,-0.483,-0.143,-0.471,-0.724,+0.849,-0.342,-0.437,-22.562,-14.312,+47.875,-11, -14, -7, 0, 0, 1, 1, -7,1.0373968679950336,1.0097206172658848,0
1503513666808,-0.491,-0.141,-0.471,-0.719,+0.874,-0.414,-0.324,-28.375,-9.750,+44.500,-33, -1, -3, -5, -1, 0, -1, -5,1.0528048194687705,1.0063074292534175,0
1503513666820,-0.502,-0.142,-0.472,-0.711,+0.884,-0.371,-0.364,-44.750,+15.500,+64.562,23, 4, -3, -2, 2, -2, 1, 12,1.0776719996750557,1.007343591570531,0
1503513666845,-0.514,-0.147,-0.474,-0.700,+0.817,-0.316,-0.432,-59.000,+40.750,+67.938,-2, 4, 6, 8, 3, 5, 3, 10,1.108162554269319,1.0137585994159943,0
1503513666866,-0.523,-0.152,-0.476,-0.691,+0.767,-0.358,-0.393,-53.812,+39.938,+46.250,-6, 5, 5, -1, -3, -4, -12, -31,1.1323670931021463,1.02093786187787,0
1503513666880,-0.530,-0.158,-0.479,-0.682,+0.844,-0.461,-0.351,-52.125,+42.500,+34.875,5, 24, 38, 7, 4, 0, 2, 22,1.152857297735096,1.031552568889628,0
1503513666903,-0.538,-0.167,-0.484,-0.670,+0.854,-0.449,-0.392,-59.000,+68.688,+34.312,3, 6, 2, 0, -4, 0, -6, -11,1.1783302932489768,1.0494475317498417,0
1503513666925,-0.545,-0.176,-0.487,-0.660,+0.747,-0.375,-0.400,-61.625,+67.750,+31.688,9, -2, -7, -6, -3, -2, 1, -7,1.2022801586189482,1.063698839627225,0
1503513666942,-0.549,-0.185,-0.489,-0.652,+0.785,-0.400,-0.360,-51.938,+52.750,+8.500,-15, -9, -8, -4, -10, -20, -10, -13,1.2194382271755335,1.0763230284737098,0
1503513666963,-0.548,-0.196,-0.492,-0.647,+0.855,-0.360,-0.352,-38.812,+59.250,-18.438,0, -18, -8, 0, 1, 6, 3, 5,1.2273538607101415,1.094723401332208,0
1503513666985,-0.548,-0.205,-0.494,-0.644,+0.896,-0.267,-0.473,-34.562,+52.375,-12.938,8, 3, -9, -3, -4, 0, -1, -22,1.2366593585162782,1.10956570234507,0
1503513667000,-0.550,-0.212,-0.495,-0.639,+0.848,-0.231,-0.412,-35.562,+40.625,+4.625,-33, -10, -12, -14, -12, -21, -6, -12,1.2482059367776948,1.1190857884010568,0
1503513667023,-0.549,-0.219,-0.496,-0.636,+0.805,-0.216,-0.408,-18.625,+41.250,-8.375,-13, -2, 5, 17, 18, 4, -8, -4,1.2529000789625184,1.1290878979256072,0
1503513667046,-0.545,-0.224,-0.498,-0.636,+0.945,-0.220,-0.531,-2.250,+36.688,-25.062,6, 5, -1, -1, 1, -11, -7, 4,1.2488984550482827,1.1397171746889008,0
1503513667060,-0.544,-0.228,-0.499,-0.635,+0.897,-0.239,-0.400,-7.188,+28.250,-9.938,8, 10, -1, 2, 2, 0, 7, 11,1.2509886142464108,1.1467898973017254,0
1503513667083,-0.543,-0.232,-0.501,-0.633,+0.810,-0.212,-0.339,-11.938,+26.500,-2.938,-34, -32, -13, -13, -15, -9, 1, 8,1.2529447063894337,1.155898061909747,0
1503513667105,-0.540,-0.236,-0.501,-0.633,+0.837,-0.085,-0.466,+2.750,+28.875,-15.438,13, 7, 7, -2, -13, -16, -4, 5,1.250313979370389,1.1606493287528667,0
1503513667120,-0.535,-0.239,-0.504,-0.635,+0.956,-0.157,-0.419,+19.312,+22.188,-21.312,-3, 6, -4, -12, -12, -11, -5, -3,1.2426829782966762,1.1717592669584376,0
1503513667143,-0.532,-0.239,-0.508,-0.635,+0.955,-0.299,-0.311,+19.438,+19.062,-9.375,-14, 3, 16, 11, 12, -2, -6, -27,1.2358222664229304,1.1808874531871731,0
1503513667165,-0.529,-0.239,-0.510,-0.635,+0.866,-0.280,-0.352,+9.500,+14.875,-11.938,-4, -8, -4, 1, 5, 5, -4, -34,1.2286711384264917,1.1851951567341343,0
1503513667181,-0.525,-0.242,-0.510,-0.637,+0.865,-0.151,-0.377,+9.062,+13.938,-26.562,19, 9, 4, 6, 27, 14, 2, 11,1.223334024799251,1.1892069198177413,0
1503513667203,-0.520,-0.244,-0.512,-0.639,+0.938,-0.123,-0.365,+14.125,+16.250,-21.062,16, 9, -2, -8, -9, 0, -1, -4,1.214691769190255,1.1965695601587298,0
1503513667225,-0.517,-0.246,-0.514,-0.639,+0.941,-0.117,-0.400,+14.375,+28.000,-5.500,-11, -9, 19, 16, 8, 2, 2, -1,1.2103140950630724,1.2035336642745338,0
1503513667240,-0.513,-0.247,-0.517,-0.639,+0.857,-0.136,-0.323,+18.562,+19.250,-10.562,11, 0, -5, -3, -5, -7, -2, -9,1.2024232031269222,1.2114517895432533,0
1503513667263,-0.508,-0.247,-0.520,-0.641,+0.959,-0.195,-0.254,+21.438,+11.750,-16.500,13, -8, -15, -11, -19, -10, -8, 26,1.1916200180344394,1.2186488992601185,0
1503513667286,-0.506,-0.248,-0.523,-0.639,+0.999,-0.196,-0.323,+11.938,+24.625,-3.562,-24, -19, -4, -2, -6, 2, -3, -7,1.1879235131525703,1.2262417609188745,0
1503513667300,-0.505,-0.249,-0.525,-0.639,+0.929,-0.125,-0.310,+7.938,+13.688,+4.500,-15, 7, 0, -5, -4, -5, 0, 3,1.1872402616003603,1.2322935037406362,0
1503513667323,-0.501,-0.248,-0.526,-0.641,+0.875,-0.138,-0.254,+17.250,+1.125,-12.938,26, 3, -8, 0, 10, 2, -4, 10,1.1772645387425804,1.2334939630982003,0
1503513667346,-0.497,-0.248,-0.526,-0.644,+0.940,-0.163,-0.292,+17.125,-2.438,-21.562,-7, -7, -9, -12, -12, -4, 3, 4,1.168892402296009,1.2338901317102178,0
1503513667360,-0.495,-0.249,-0.527,-0.644,+0.942,-0.144,-0.299,+5.812,+7.062,-5.625,-7, -4, 0, 8, 6, 2, 3, -5,1.1656875889534855,1.2373120312938868,0
1503513667383,-0.494,-0.251,-0.528,-0.644,+0.879,-0.115,-0.274,+2.812,+15.812,-2.000,13, 10, 8, 3, 1, 10, 3, -16,1.1662396115036677,1.242196206586807,0
1503513667405,-0.491,-0.253,-0.529,-0.645,+0.909,-0.132,-0.237,+4.125,+10.562,-16.250,12, 0, -8, -6, -8, -8, -3, 8,1.1624876333372955,1.2470991542599705,0
1503513667420,-0.488,-0.256,-0.529,-0.646,+0.966,-0.128,-0.264,-0.938,+6.812,-18.875,-27, -7, -3, 2, 31, -2, 2, -10,1.1599681800515336,1.2508423636922539,0
1503513667445,-0.487,-0.258,-0.528,-0.647,+0.972,-0.114,-0.273,-5.062,+0.688,-6.750,16, 0, 14, 6, 4, -2, -3, 8,1.160587076610053,1.2511698499574628,0
1503513667465,-0.487,-0.259,-0.527,-0.647,+0.943,-0.109,-0.271,-5.750,-0.938,-1.500,17, 18, 4, 8, -5, -1, -1, 4,1.1617683154705938,1.2500300341665345,0
1503513667481,-0.486,-0.259,-0.526,-0.648,+0.943,-0.143,-0.268,-2.625,-5.000,-8.438,-13, -6, -8, -32, -49, -12, -2, 6,1.159615110560408,1.2477562663059811,0
1503513667503,-0.485,-0.260,-0.525,-0.649,+0.940,-0.175,-0.242,-1.625,-4.562,-11.750,-3, -8, -2, -8, -1, 1, -10, -7,1.1588573712973338,1.2467982244087767,0
1503513667525,-0.485,-0.261,-0.524,-0.650,+0.932,-0.168,-0.289,-4.625,+0.188,-4.875,13, -5, 5, -1, -6, -4, 1, 57,1.1604342509674581,1.2460153581211488,0
1503513667540,-0.485,-0.262,-0.523,-0.650,+0.914,-0.152,-0.288,-5.812,+1.875,-4.812,-18, -4, -6, 14, 19, 5, 2, -39,1.161619109304787,1.2449011724337293,0
1503513667563,-0.483,-0.263,-0.522,-0.651,+0.972,-0.163,-0.254,-2.500,-3.625,-14.938,-7, -6, -9, -1, 1, 2, 4, -12,1.1585439517346565,1.243792116198758,0
1503513667585,-0.482,-0.264,-0.521,-0.653,+0.960,-0.208,-0.206,-5.312,-11.500,-14.688,0, 3, 4, -3, -25, -14, -3, -18,1.158194525385406,1.2431992267577603,0
1503513667600,-0.483,-0.264,-0.518,-0.654,+0.910,-0.176,-0.283,-11.688,-12.562,-7.000,-2, -2, 0, 8, 8, -7, -5, -12,1.1602647290796493,1.236453154479095,0
1503513667623,-0.483,-0.266,-0.516,-0.656,+0.892,-0.110,-0.292,-10.438,-8.375,-12.312,4, -7, -13, -9, -3, -2, 0, 23,1.1634160898986343,1.2349857875121482,0
1503513667647,-0.481,-0.268,-0.514,-0.658,+0.986,-0.116,-0.275,-4.188,-6.875,-20.000,20, 7, -3, -6, 1, 3, -5, -10,1.161937922983225,1.2331911208225317,0
1503513667660,-0.480,-0.270,-0.512,-0.659,+1.006,-0.159,-0.237,-11.375,-8.812,-19.750,7, -11, 0, -1, -13, 19, 18, 20,1.162399801438439,1.2312568726554767,0
1503513667683,-0.482,-0.272,-0.508,-0.660,+0.936,-0.121,-0.287,-23.250,-12.625,-7.312,-39, -19, -13, -20, -7, -1, -12, 7,1.1693597555348436,1.225138705149299,0
1503513667705,-0.482,-0.275,-0.504,-0.662,+0.907,-0.022,-0.296,-20.500,-14.938,-8.375,0, -4, 3, -1, 0, -14, -4, 10,1.173495783017562,1.220449144067769,0
1503513667720,-0.482,-0.275,-0.498,-0.666,+1.022,-0.049,-0.346,-8.250,-32.812,-20.938,11, 14, 12, 7, 8, 0, -7, -8,1.1737123887992316,1.2077092522095665,0
1503513667743,-0.481,-0.276,-0.494,-0.669,+1.000,-0.120,-0.229,-10.938,-26.938,-20.625,-4, -4, -2, -9, -11, -12, 4, -6,1.1730808717366945,1.2005833839059339,0
1503513667765,-0.483,-0.276,-0.488,-0.672,+0.954,-0.101,-0.316,-16.750,-37.188,-7.250,12, 18, 25, 17, 13, 8, 1, -5,1.1775368025034565,1.1880819893628318,0
1503513667781,-0.484,-0.275,-0.483,-0.676,+0.949,-0.067,-0.383,-7.938,-33.062,-8.000,-6, -8, -5, -3, -6, 0, 1, -7,1.1788823208539967,1.1767791540989303,0
1503513667803,-0.483,-0.274,-0.481,-0.678,+1.015,-0.119,-0.334,+2.750,-17.938,-11.750,-35, -7, -7, -15, -17, -2, 10, -28,1.1754982042383042,1.1712974937049174,0
1503513667825,-0.483,-0.274,-0.481,-0.679,+1.030,-0.127,-0.309,-3.750,-7.000,-9.875,3, -8, -8, -8, 3, 4, -7, 10,1.1758716202203692,1.171673105012334,0
1503513667841,-0.483,-0.274,-0.478,-0.680,+0.916,-0.094,-0.304,-7.750,-17.875,-6.500,31, 11, 0, 2, 9, 17, 22, 17,1.1756096032024466,1.1651306011645661,0
1503513667871,-0.483,-0.274,-0.475,-0.683,+0.877,-0.061,-0.412,-1.875,-17.438,-10.438,3, -3, 0, 3, 2, -11, -4, -8,1.176093960248919,1.159372284965374,0
1503513667893,-0.482,-0.274,-0.474,-0.684,+0.894,-0.065,-0.404,-0.938,-1.938,-6.625,22, 10, 10, 16, 25, 14, 4, 17,1.173939683758716,1.1572390598109739,0
1503513668965,-0.494,-0.252,-0.458,-0.695,+0.932,-0.099,-0.458,+37.375,-2.688,+35.500,1, 2, -2, -3, -2, -2, -6, -11,1.1735636803655474,1.0975601134292736,1
1503513668982,-0.495,-0.243,-0.463,-0.694,+0.928,-0.109,-0.438,+44.188,-4.688,+37.312,-8, -8, 1, -4, -5, -1, -5, 3,1.1650143411153793,1.096735468632718,1
1503513669004,-0.495,-0.234,-0.468,-0.693,+0.896,-0.132,-0.424,+49.562,-1.500,+37.312,-3, -8, -5, -1, -6, -2, -1, 10,1.1542579494296528,1.0960459755584795,1
1503513669026,-0.496,-0.224,-0.475,-0.692,+0.893,-0.146,-0.429,+53.312,+2.250,+39.562,18, 15, -1, 4, 4, 0, -1, 3,1.1452203015809013,1.0993630937177539,1
1503513669042,-0.496,-0.214,-0.481,-0.690,+0.918,-0.183,-0.428,+55.125,+0.188,+46.375,-5, -2, 3, 8, 3, 0, 1, -6,1.1333576047679352,1.1001855730721373,1
1503513669064,-0.497,-0.203,-0.488,-0.688,+0.907,-0.222,-0.401,+56.375,+1.312,+49.625,7, 5, 2, -8, -8, -1, -1, 17,1.1230883870356656,1.1028897366920296,1
1503513669085,-0.498,-0.192,-0.495,-0.686,+0.873,-0.239,-0.382,+59.812,+3.812,+47.750,-11, -12, -12, -6, -6, -2, -6, -17,1.1130321485507693,1.106196934727965,1
1503513669102,-0.498,-0.182,-0.502,-0.683,+0.867,-0.247,-0.388,+60.438,+5.188,+47.062,-1, -18, -9, -9, -4, 0, 1, 1,1.1013754343573712,1.110622299688502,1
1503513669124,-0.498,-0.171,-0.509,-0.681,+0.872,-0.239,-0.410,+61.125,+5.062,+50.000,-3, -8, -6, 2, 17, 4, -2, -8,1.0891682929906592,1.1149895097438545,1
1503513669146,-0.498,-0.160,-0.516,-0.678,+0.852,-0.281,-0.380,+60.188,+3.688,+49.125,-7, -1, 0, 1, 12, 3, 4, -4,1.0766108970715595,1.1195543781944108,1
1503513669162,-0.498,-0.149,-0.523,-0.675,+0.833,-0.321,-0.328,+59.375,+4.938,+45.688,0, -10, -10, -7, -13, -7, -3, -25,1.0641551955962436,1.1247973776721307,1
1503513669183,-0.498,-0.139,-0.530,-0.672,+0.815,-0.319,-0.323,+57.062,+8.812,+43.188,14, 17, 3, -12, -19, -6, 1, -9,1.052858715985661,1.1317253419481044,1
1503513669205,-0.496,-0.130,-0.537,-0.670,+0.830,-0.333,-0.298,+55.625,+7.625,+38.562,-1, -4, -2, 6, 2, -1, 1, 13,1.0380808456728712,1.140500639594436,1
1503513669223,-0.495,-0.121,-0.544,-0.667,+0.832,-0.368,-0.303,+56.625,+10.125,+34.312,-1, 27, 26, 11, 3, 3, -3, -8,1.0253034643174246,1.149539597322185,1
1503513669243,-0.493,-0.113,-0.551,-0.664,+0.811,-0.385,-0.296,+53.250,+13.250,+31.812,-5, -5, -8, -10, -2, -1, -4, -7,1.0109565300954682,1.15999610414117,1
1503513669267,-0.491,-0.106,-0.557,-0.661,+0.829,-0.392,-0.290,+48.562,+11.312,+28.500,-2, -1, 4, -1, -6, -1, 0, 2,0.9974554149189909,1.169086486260041,1
1503513669282,-0.489,-0.099,-0.563,-0.659,+0.829,-0.366,-0.283,+46.750,+12.750,+23.062,-16, -3, -7, -10, -13, -6, -1, -35,0.9844696378702522,1.1791208282953656,1
1503513669304,-0.486,-0.094,-0.568,-0.658,+0.818,-0.381,-0.269,+44.812,+9.312,+17.812,-1, -11, -9, -8, -10, -4, -4, -3,0.9714138689237802,1.1887108003843079,1
1503513669326,-0.483,-0.088,-0.572,-0.657,+0.822,-0.435,-0.276,+40.750,+3.000,+12.562,-7, 3, 0, -4, -6, 0, -1, 3,0.957155500853731,1.194937921483567,1
1503513669342,-0.480,-0.083,-0.575,-0.657,+0.812,-0.414,-0.304,+37.875,+4.500,+8.938,8, -10, -6, -4, -2, -3, -1, 10,0.9444376863048562,1.1997383033753595,1
1503513669365,-0.478,-0.079,-0.578,-0.657,+0.789,-0.402,-0.254,+32.500,+0.875,+5.000,0, -1, 6, 5, 5, 2, -1, 8,0.9353607104529712,1.2055121533813213,1
1503513669385,-0.475,-0.076,-0.580,-0.658,+0.818,-0.432,-0.260,+27.250,-3.000,+0.312,-5, -4, -4, -8, -12, -4, -3, -8,0.9252766902207603,1.209569295251176,1
1503513669402,-0.473,-0.072,-0.581,-0.659,+0.839,-0.447,-0.299,+22.562,-7.250,+0.125,2, 1, 4, 0, -3, -1, 1, -1,0.9166415765102508,1.210125334561611,1
1503513669425,-0.471,-0.070,-0.581,-0.659,+0.822,-0.408,-0.297,+16.312,-4.125,+4.375,-1, -2, 4, 1, -1, -4, -1, -3,0.9093750290340673,1.2086659361123575,1
1503513669445,-0.471,-0.069,-0.581,-0.660,+0.787,-0.394,-0.246,+6.812,-7.000,+0.875,-20, 3, 6, -7, -8, -1, 2, -11,0.9089765914475726,1.2084613338350312,1
1503513669468,-0.469,-0.068,-0.580,-0.662,+0.843,-0.393,-0.295,+4.562,-8.312,-5.500,-4, 22, 2, 3, 2, 4, 4, 1,0.9039805145703252,1.2056499195177517,1
1503513669484,-0.468,-0.067,-0.579,-0.664,+0.870,-0.389,-0.332,+10.500,-12.625,+0.250,-3, -4, -3, -8, -4, -5, -8, 0,0.9015727792524377,1.202905549746418,1
1503513669505,-0.469,-0.063,-0.578,-0.665,+0.824,-0.417,-0.301,+9.688,-18.125,+10.250,-5, 24, 21, 1, 0, -2, 0, 1,0.900569414228595,1.1978516015876934,1
1503513669528,-0.469,-0.061,-0.577,-0.666,+0.792,-0.433,-0.281,+5.938,-12.500,+8.812,14, 16, 16, 3, -3, 1, 2, -11,0.8990852445202633,1.1940671858070129,1
1503513669543,-0.468,-0.060,-0.577,-0.666,+0.810,-0.408,-0.330,+5.625,+3.938,+1.062,-11, -11, -1, -1, -2, 0, 4, -8,0.8954753161826952,1.193374814341801,1
1503513669565,-0.468,-0.060,-0.577,-0.667,+0.877,-0.417,-0.347,+8.125,+1.188,+1.062,15, 7, -8, -7, -3, -3, 0, 15,0.896134163941115,1.1938536024945368,1
1503513669588,-0.468,-0.057,-0.576,-0.668,+0.914,-0.448,-0.295,+4.875,-18.875,+8.375,-6, -11, -7, 0, -1, -4, -4, -6,0.8936556186201718,1.1894575835162706,1
1503513669604,-0.469,-0.055,-0.573,-0.670,+0.851,-0.438,-0.260,-4.562,-24.188,+5.000,-11, -14, -7, -2, -1, -3, -11, -7,0.8953186341412442,1.1803062801111035,1
1503513669627,-0.469,-0.056,-0.571,-0.671,+0.782,-0.405,-0.318,-8.938,-6.250,-2.500,0, -25, -6, 3, 2, 2, -6, -20,0.8968244833279315,1.1755108405047232,1
1503513669648,-0.469,-0.058,-0.571,-0.672,+0.809,-0.418,-0.349,-8.062,+4.625,-4.688,4, -13, 0, 10, 5, 1, 1, 4,0.8994853409604512,1.1772897971944971,1
1503513669664,-0.470,-0.059,-0.570,-0.672,+0.934,-0.447,-0.321,-8.938,-2.188,+0.688,-2, -1, -5, -3, 2, 0, -1, 4,0.9029978021570828,1.1750413786192055,1
1503513669686,-0.471,-0.060,-0.568,-0.672,+0.959,-0.424,-0.317,-11.438,-11.188,+9.688,-5, -14, -10, -8, -7, -1, 0, -7,0.9064271512153288,1.1698667494289268,1
1503513669708,-0.473,-0.060,-0.565,-0.673,+0.895,-0.395,-0.289,-15.188,-13.625,+10.562,0, 5, -3, 0, 1, 1, 5, 12,0.9120300886457332,1.1616738985727826,1
1503513669724,-0.476,-0.062,-0.563,-0.673,+0.800,-0.416,-0.279,-25.000,-9.375,+5.875,5, 10, 5, 9, 10, 3, -2, -13,0.9216632711766154,1.1573440162953816,1
1503513669746,-0.479,-0.066,-0.560,-0.673,+0.775,-0.397,-0.320,-34.375,+3.938,-5.500,-4, -1, -17, -20, -16, -6, -2, 5,0.9331849034099525,1.1515685062199905,1
1503513669768,-0.479,-0.073,-0.559,-0.673,+0.823,-0.365,-0.366,-31.625,+16.938,-16.438,-2, -22, -13, -4, -2, -1, 3, 20,0.9400156571481368,1.1536976759067354,1
1503513669784,-0.481,-0.080,-0.558,-0.672,+0.879,-0.385,-0.333,-34.062,+18.125,-9.250,-9, -1, -1, -4, -4, -4, -8, -1,0.951495558060496,1.1556506059672753,1
1503513669806,-0.484,-0.086,-0.555,-0.671,+0.901,-0.406,-0.302,-41.500,+3.000,-3.625,5, -2, -3, -5, -2, 3, 11, 7,0.9644036753626793,1.1514307921724627,1
1503513669829,-0.487,-0.092,-0.550,-0.672,+0.854,-0.379,-0.323,-48.750,-6.625,-11.125,-1, 5, 0, -2, -4, 3, -1, -25,0.9783043889325717,1.1428286266364622,1
1503513669844,-0.489,-0.099,-0.545,-0.674,+0.835,-0.339,-0.348,-47.312,-8.188,-18.625,0, 7, -4, -14, -12, -5, -3, 16,0.9911721428454169,1.1358265782314425,1
1503513669870,-0.492,-0.105,-0.540,-0.675,+0.835,-0.336,-0.339,-46.875,-7.500,-12.500,-4, 19, 4, 7, 2, 0, 0, -5,1.0049961407378938,1.127938286938007,1
1503513669891,-0.496,-0.111,-0.534,-0.675,+0.798,-0.346,-0.331,-53.562,-7.375,-5.938,5, -3, -6, -2, 0, 0, 4, 36,1.0206964147745856,1.1172689777701343,1
1503513669907,-0.499,-0.118,-0.529,-0.676,+0.772,-0.346,-0.374,-52.250,-2.562,-13.625,1, -8, -2, -1, 2, -1, -10, -8,1.0354923650015453,1.111013183687991,1
1503513669935,-0.501,-0.125,-0.524,-0.677,+0.783,-0.354,-0.413,-47.125,-0.062,-20.938,2, -14, 0, 9, 6, 0, 2, -3,1.047691372457934,1.1050186069469934,1
1503513669948,-0.503,-0.131,-0.520,-0.677,+0.856,-0.356,-0.412,-44.688,+3.000,-14.000,2, 1, 4, 3, 2, -1, -1, -9,1.0584741382011453,1.1005238343904225,1
1503513669964,-0.507,-0.137,-0.516,-0.677,+0.852,-0.380,-0.365,-47.375,-1.188,-5.750,-6, -1, 4, 13, 9, -1, -18, -36,1.0744307775762092,1.0965473138374384,1
1503513669986,-0.510,-0.142,-0.512,-0.676,+0.847,-0.364,-0.375,-46.125,-3.312,-9.812,2, -6, -7, -9, -9, -4, 5, 4,1.0862844364563946,1.091172922173273,1
1503513670008,-0.511,-0.147,-0.508,-0.677,+0.882,-0.323,-0.448,-34.375,-4.750,-14.062,-3, 4, 3, -1, 1, 0, 2, 0,1.0940018232907227,1.0867234190556672,1
1503513670024,-0.514,-0.149,-0.504,-0.678,+0.897,-0.343,-0.456,-27.875,-12.062,-4.312,1, 6, 8, 7, 4, 1, 4, 23,1.1037380300157287,1.079554271956242,1
1503513670046,-0.517,-0.150,-0.499,-0.679,+0.847,-0.383,-0.395,-33.125,-22.062,+1.750,2, -8, 2, 4, 5, 3, 3, 3,1.1123002875275505,1.0688848640328883,1
1503513670068,-0.519,-0.152,-0.495,-0.679,+0.824,-0.362,-0.382,-30.125,-12.312,-6.438,-9, -1, -4, -11, -7, -3, -2, -6,1.1189761667480351,1.0612717357073622,1
1503513670084,-0.520,-0.155,-0.494,-0.679,+0.810,-0.330,-0.474,-18.125,+5.000,-6.875,2, -6, -4, -2, -4, -2, 2, 2,1.1245199013803762,1.0622049389286705,1
1503513670106,-0.522,-0.156,-0.493,-0.679,+0.849,-0.357,-0.488,-14.812,+6.500,-1.375,0, -10, -5, 3, 3, 0, 0, -1,1.1305862644610303,1.06112280088713,1
1503513670129,-0.523,-0.158,-0.492,-0.678,+0.921,-0.375,-0.404,-18.125,-3.438,-2.125,-4, 5, 5, 24, 15, 3, 1, -5,1.1346384216450633,1.060501172903073,1
1503513670144,-0.524,-0.160,-0.491,-0.678,+0.918,-0.354,-0.379,-18.438,-2.875,-1.438,0, 13, 4, -13, -8, -4, -8, 7,1.1391606208613807,1.0604071651503177,1
1503513670166,-0.525,-0.161,-0.490,-0.678,+0.838,-0.306,-0.426,-12.125,-2.812,-0.500,-2, 1, 1, 0, 1, 1, -1, 0,1.1426461987485164,1.0592093755294538,1
1503513670181,-0.526,-0.160,-0.488,-0.678,+0.833,-0.292,-0.469,-7.250,-8.062,-1.125,-2, -1, 0, -5, -4, -1, -4, -11,1.1439220573618922,1.0532875320292496,1
1503513670204,-0.527,-0.159,-0.486,-0.679,+0.836,-0.312,-0.430,-5.875,-14.750,+1.000,0, 3, -1, -1, 0, -1, 0, -22,1.1456668068600433,1.047881208364616,1
1503513670226,-0.527,-0.159,-0.484,-0.681,+0.793,-0.339,-0.403,-4.938,-11.812,-6.688,-1, -6, -5, -2, -2, -1, 2, 6,1.1463014700647693,1.0439595348425093,1
1503513670241,-0.525,-0.159,-0.484,-0.682,+0.768,-0.329,-0.421,+2.312,+0.938,-13.312,6, 2, -4, -8, -6, -2, 5, 6,1.141573232446045,1.0441340056628736,1
1503513670264,-0.523,-0.159,-0.485,-0.682,+0.824,-0.327,-0.452,+5.625,+5.312,-9.812,-1, -15, -4, 3, 1, 0, 0, -5,1.1365388634241826,1.0462682937245702,1
1503513670286,-0.522,-0.159,-0.486,-0.683,+0.894,-0.340,-0.419,+7.250,+1.438,-9.062,-1, 3, 7, 1, -4, -2, -5, -2,1.134557294916608,1.0490801443676256,1
1503513670301,-0.519,-0.158,-0.487,-0.684,+0.922,-0.325,-0.420,+9.312,-5.438,-11.062,0, 7, 6, -5, -3, -3, -3, -1,1.1263991343546291,1.05045013161539,1
1503513670324,-0.518,-0.157,-0.487,-0.686,+0.852,-0.303,-0.417,+9.938,-8.562,-8.562,2, -15, -12, -3, -2, 1, 5, 4,1.1237288536176486,1.0501887766663203,1
1503513670346,-0.516,-0.155,-0.487,-0.688,+0.803,-0.297,-0.390,+10.188,-8.750,-10.875,0, 5, 1, 2, 1, 0, -5, 14,1.117473323717727,1.0486718321617703,1
1503513670368,-0.512,-0.155,-0.488,-0.690,+0.823,-0.306,-0.383,+12.812,+0.500,-18.375,2, -6, -6, -7, -5, -1, 9, 10,1.1083225849811036,1.0515215854992026,1
1503513670384,-0.509,-0.156,-0.491,-0.690,+0.861,-0.292,-0.423,+14.625,+17.562,-17.062,-3, 2, -1, -9, -1, 0, -4, -15,1.1021496687869152,1.059590413372433,1
1503513670407,-0.506,-0.157,-0.494,-0.689,+0.880,-0.274,-0.426,+11.562,+19.188,-7.875,-6, -14, -4, 0, -2, -4, -6, -13,1.0955433681627655,1.067184238554967,1
1503513670434,-0.503,-0.158,-0.497,-0.690,+0.914,-0.283,-0.398,+10.500,+11.438,-11.250,-3, 8, 7, -1, -3, -2, -5, 1,1.0899516868175958,1.0757935032297463,1
1503513670444,-0.499,-0.159,-0.499,-0.691,+0.920,-0.295,-0.369,+13.500,+9.625,-20.812,-3, -6, -3, 4, 4, 1, 1, -2,1.0817486483629786,1.0817486483629786,1
1503513670466,-0.494,-0.160,-0.501,-0.692,+0.862,-0.304,-0.398,+14.500,+11.250,-26.125,18, 18, 0, -3, -2, -2, 0, 0,1.071124918591438,1.0875524498170261,1
1503513670488,-0.490,-0.161,-0.503,-0.694,+0.834,-0.312,-0.404,+16.625,+8.875,-27.375,-12, -7, 1, 0, -2, -2, -1, 0,1.0635776437159814,1.0939945871865782,1
1503513670504,-0.484,-0.161,-0.506,-0.696,+0.867,-0.331,-0.388,+20.688,+15.375,-29.688,-1, -2, -6, -2, -2, 1, -1, -8,1.0502506360363326,1.1015971505649016,1
1503513670526,-0.478,-0.163,-0.510,-0.696,+0.886,-0.338,-0.377,+23.000,+25.688,-32.375,1, 4, 2, -2, -1, -1, -3, -11,1.0384504098385117,1.112905415291543,1
1503513670548,-0.471,-0.164,-0.515,-0.697,+0.876,-0.318,-0.410,+24.312,+29.438,-32.625,5, -4, 0, 7, 2, 0, 1, -2,1.0239620623238628,1.1260684586983851,1
1503513670567,-0.464,-0.165,-0.521,-0.697,+0.857,-0.304,-0.376,+27.938,+34.812,-31.062,-5, -4, -2, 0, -2, -1, 1, 0,1.0093548615367902,1.141398334793912,1
1503513670586,-0.457,-0.166,-0.527,-0.697,+0.874,-0.289,-0.328,+33.438,+33.875,-28.562,6, 2, 2, 15, 15, 3, 1, -1,0.9949617681697197,1.1568276709082115,1
1503513670609,-0.450,-0.167,-0.533,-0.697,+0.877,-0.295,-0.326,+33.375,+37.438,-26.312,-8, 3, 5, -7, -9, -5, -5, -5,0.9807842307870153,1.1723529558935022,1
1503513670624,-0.443,-0.167,-0.540,-0.696,+0.888,-0.277,-0.321,+34.938,+39.938,-25.562,-3, -5, -5, -1, 1, -1, -1, 6,0.9652994229068396,1.1891739124971452,1
1503513670646,-0.435,-0.168,-0.547,-0.695,+0.907,-0.270,-0.316,+36.938,+41.812,-23.875,10, 1, 1, 2, -6, -2, 1, 11,0.9489285509313778,1.2070057417015476,1
1503513670669,-0.427,-0.169,-0.554,-0.694,+0.893,-0.247,-0.235,+34.750,+39.938,-29.250,-6, 1, 3, 3, 0, -2, -4, -5,0.932837381754642,1.2249830055069786,1
1503513670684,-0.418,-0.172,-0.561,-0.693,+0.904,-0.224,-0.190,+35.062,+43.938,-33.312,13, 4, -3, -8, -4, -3, 0, -1,0.9173150415851673,1.2448733366678995,1
1503513670707,-0.409,-0.174,-0.570,-0.691,+0.909,-0.187,-0.244,+38.688,+58.688,-30.625,0, -5, 1, -1, -6, -7, -1, 14,0.900858848497833,1.2688907964679883,1
1503513670728,-0.400,-0.176,-0.579,-0.688,+0.919,-0.192,-0.233,+42.250,+61.438,-27.062,-15, -1, 1, -4, -4, -2, -2, -16,0.8842979138615819,1.29278493180121,1
1503513670744,-0.391,-0.178,-0.587,-0.686,+0.980,-0.182,-0.180,+34.750,+54.375,-23.875,2, 3, 3, 9, 11, 4, 1, -5,0.8684404180232023,1.3145367212505614,1
1503513670769,-0.384,-0.182,-0.593,-0.683,+0.999,-0.165,-0.138,+18.750,+45.438,-25.500,-12, -7, -7, -6, -2, 1, 3, 7,0.8588975934978432,1.3327654463856493,1
1503513670788,-0.377,-0.187,-0.599,-0.682,+0.954,-0.121,-0.174,+17.000,+45.562,-30.188,21, 5, -1, 0, -3, -1, -6, -14,0.852095419326706,1.3525615471231904,1
1503513670805,-0.369,-0.190,-0.603,-0.682,+0.937,-0.130,-0.203,+26.938,+33.062,-35.250,3, 3, -1, -2, 4, 3, 3, 5,0.8408036910087442,1.365384013761019,1
1503513670826,-0.361,-0.191,-0.605,-0.683,+1.012,-0.185,-0.161,+25.750,+17.438,-37.250,-11, -5, -3, -8, -6, -2, -2, -9,0.8269668035912425,1.3712862107335158,1
1503513670848,-0.355,-0.193,-0.607,-0.684,+1.022,-0.189,-0.100,+17.125,+15.000,-31.312,-20, -13, -2, 3, 7, 1, -1, 3,0.8187503672264964,1.378253051972721,1
1503513670864,-0.348,-0.195,-0.610,-0.684,+0.961,-0.158,-0.140,+21.750,+22.938,-33.250,-2, 0, -1, -3, -4, 0, 4, 16,0.8084805870511251,1.3876024657759252,1
1503513670886,-0.341,-0.198,-0.613,-0.685,+0.924,-0.115,-0.180,+24.000,+26.188,-35.688,-7, -3, -4, 0, -2, -1, 3, 0,0.8003282736956773,1.3980922161810085,1
1503513670908,-0.334,-0.201,-0.615,-0.685,+0.988,-0.070,-0.125,+16.250,+24.875,-30.188,0, 2, 4, -6, -10, -1, -3, -7,0.7916255259049729,1.405702433385145,1
1503513670924,-0.328,-0.205,-0.619,-0.684,+1.018,-0.027,-0.082,+11.125,+33.625,-23.938,-3, 4, 2, -1, -1, 1, -1, -10,0.7866181651295503,1.4194782075467693,1
1503513670946,-0.321,-0.208,-0.623,-0.682,+1.029,-0.021,-0.122,+18.750,+36.312,-21.875,5, 0, 0, 4, 7, 3, 3, 16,0.7780086758404283,1.432148377256984,1
1503513670970,-0.315,-0.209,-0.625,-0.683,+1.032,-0.056,-0.118,+22.188,+18.312,-24.750,5, 4, -1, -1, -3, -4, -8, -8,0.7692883322545533,1.4382461239251678,1
1503513670984,-0.310,-0.209,-0.625,-0.685,+1.067,-0.072,-0.059,+16.125,-6.250,-21.125,-8, -8, -6, -6, -5, -1, 1, -5,0.7608806835845515,1.4383006076135292,1
1503513671006,-0.306,-0.210,-0.625,-0.687,+1.031,-0.044,-0.062,+12.812,-4.312,-19.562,-17, -11, -6, 0, -2, -4, -1, -2,0.7558615853777415,1.4393257388587875,1
1503513671028,-0.302,-0.211,-0.624,-0.689,+0.949,-0.015,-0.141,+12.375,-1.562,-18.375,-62, -19, -7, -10, -13, -4, -2, -7,0.7505650885117245,1.4376837016345974,1
1503513671044,-0.300,-0.211,-0.622,-0.692,+0.938,-0.028,-0.125,+11.125,-6.625,-13.000,20, -4, -6, 5, 8, 2, 0, 14,0.7475967756931209,1.4327461458112556,1
1503513671066,-0.298,-0.211,-0.622,-0.693,+0.988,-0.045,-0.078,+7.250,-4.000,-6.500,27, 10, 4, -3, -8, -8, 1, 0,0.7443682112596604,1.4328013380834508,1
1503513671088,-0.297,-0.211,-0.623,-0.692,+1.005,-0.023,-0.079,+2.500,+8.250,+0.312,13, 6, -1, 1, 5, -1, -10, 0,0.7424099258499772,1.43523689195581,1
1503513671105,-0.296,-0.211,-0.624,-0.692,+0.989,-0.003,-0.115,+0.688,+5.875,+4.438,15, 7, 4, 1, 0, -2, -3, -2,0.7408948783193551,1.4378449888433709,1
1503513671126,-0.296,-0.211,-0.623,-0.693,+1.022,-0.034,-0.118,+1.625,-5.438,+3.125,4, -4, -6, -2, 0, 2, 3, -5,0.7410206655323514,1.4353485272781692,1
1503513671148,-0.297,-0.210,-0.622,-0.694,+1.022,-0.066,-0.087,-0.438,-12.438,+3.750,-1, -6, -5, -7, -8, 0, 5, -9,0.741485857143944,1.4319968314602916,1
1503513671164,-0.299,-0.208,-0.620,-0.694,+0.993,-0.057,-0.097,-4.812,-12.188,+11.562,5, 4, 4, 4, 4, 1, 2, 5,0.7415658468488673,1.424955707494519,1
1503513671193,-0.301,-0.207,-0.619,-0.695,+0.965,-0.046,-0.114,-4.312,-11.312,+14.000,9, -7, -12, -2, 2, 2, 2, -7,0.7439062730873124,1.4216816023030796,1
1503513671209,-0.302,-0.206,-0.619,-0.696,+0.989,-0.074,-0.107,-1.000,-7.562,+7.500,-5, -5, 0, 2, 3, 0, -2, 1,0.7447227215266409,1.4210186302089522,1
1503513671224,-0.303,-0.206,-0.618,-0.696,+0.993,-0.093,-0.103,-3.562,-3.812,+3.500,-20, -3, 3, 0, -1, 1, -3, -1,0.746269113890032,1.4184173520406371,1
1503513671246,-0.305,-0.206,-0.617,-0.696,+0.992,-0.063,-0.095,-9.062,-7.875,+7.938,-8, -4, -1, 2, 1, -3, -6, -22,0.7496749817379519,1.4158807659803172,1
1503513671268,-0.306,-0.205,-0.616,-0.696,+1.006,-0.041,-0.099,-6.250,-11.125,+9.062,-1, -7, -7, -6, -7, 3, 5, 19,0.749763484285886,1.4123703371083003,1
1503513671284,-0.307,-0.205,-0.615,-0.697,+1.015,-0.058,-0.111,-0.375,-6.062,+3.250,-8, -5, -7, -2, 0, 5, 5, 7,0.7517753281818395,1.4099687670439751,1
1503513671306,-0.307,-0.205,-0.614,-0.697,+0.984,-0.066,-0.135,-4.125,-2.625,+0.750,-8, -7, -2, 2, 9, 1, -5, -12,0.7514745021498531,1.407306088410208,1
1503513671328,-0.309,-0.205,-0.613,-0.698,+1.005,-0.052,-0.118,-9.312,-9.438,+6.062,-8, -8, -8, -5, -9, -12, -3, -15,0.7553620611538802,1.4049818674405639,1
1503513671343,-0.310,-0.205,-0.612,-0.698,+1.021,-0.062,-0.099,-6.750,-7.562,+8.812,-7, 2, -3, 0, 9, 9, 8, -2,0.7569355195112519,1.4023911570491638,1
1503513671365,-0.311,-0.205,-0.612,-0.697,+1.001,-0.086,-0.118,-4.312,+1.688,+7.188,-17, -5, 1, -4, -5, -2, -6, -15,0.7583578277121814,1.402253999867422,1
1503513671388,-0.312,-0.205,-0.612,-0.697,+0.984,-0.090,-0.133,-5.375,+1.812,+5.250,-2, 0, 3, 8, 8, 1, -7, -28,0.7602355780327792,1.4023231116008605,1
1503513671406,-0.313,-0.205,-0.612,-0.697,+1.020,-0.083,-0.112,-3.000,-7.875,+5.000,4, 1, 4, 1, -2, 0, 1, 21,0.7621158855462525,1.402392167214826,1
1503513671425,-0.313,-0.204,-0.611,-0.698,+1.025,-0.111,-0.101,+0.375,-10.062,+1.625,6, -3, -6, -4, -2, 2, -2, -4,0.7608172039996751,1.399024781161531,1
1503513671448,-0.314,-0.203,-0.610,-0.699,+0.962,-0.117,-0.112,-1.312,-8.938,+0.500,-4, -5, -3, -2, -6, -4, -9, -30,0.7614102479695668,1.3957341282289002,1
1503513671463,-0.315,-0.202,-0.609,-0.700,+0.926,-0.108,-0.126,-4.938,-10.938,+2.688,0, -11, -4, -1, -1, 0, 2, 13,0.7620147115808741,1.392451128259343,1
1503513671485,-0.315,-0.203,-0.608,-0.700,+0.946,-0.108,-0.142,-4.312,-0.500,+0.688,-2, 5, 0, -3, 5, 2, -2, 5,0.7631669688947824,1.3907078923489535,1
1503513671508,-0.315,-0.203,-0.609,-0.699,+0.970,-0.121,-0.130,-2.625,+8.750,-1.188,-3, 0, 3, 0, -2, 0, -6, -4,0.7630042778320438,1.3931474990255825,1
1503513671523,-0.316,-0.203,-0.610,-0.698,+1.005,-0.113,-0.146,-4.438,+6.438,+3.625,-1, -4, -1, 2, -1, -1, 6, 37,0.7647323756709523,1.3956627155859351,1
1503513671545,-0.318,-0.203,-0.609,-0.697,+0.992,-0.095,-0.151,-7.875,+0.062,+7.062,14, 11, 3, -1, -2, 0, 4, 6,0.767768328832234,1.3929309013219597,1
1503513671568,-0.319,-0.204,-0.608,-0.698,+0.981,-0.087,-0.129,-6.688,-9.375,+2.312,-2, -4, 1, 8, 14, -13, -2, 3,0.7712817116978131,1.3914822497676835,1
1503513671583,-0.319,-0.203,-0.607,-0.699,+0.982,-0.101,-0.122,-4.375,-12.125,+0.812,-8, -6, -5, -4, -7, 2, 2, -7,0.770001900979878,1.388126046525573,1
1503513671607,-0.321,-0.203,-0.605,-0.700,+0.971,-0.112,-0.151,-6.188,-8.562,+5.500,6, -1, -6, -8, -4, 4, 10, 36,0.7736890300741345,1.3831923336873488,1
1503513671628,-0.323,-0.202,-0.604,-0.700,+0.963,-0.122,-0.160,-6.875,-10.938,+6.500,10, 7, 1, 0, -3, 2, -2, -8,0.7757836084955683,1.3797708915819373,1
1503513671643,-0.324,-0.201,-0.603,-0.701,+0.979,-0.134,-0.132,-4.125,-11.062,+0.938,-10, 0, 3, 0, 3, 0, -7, -18,0.7764418625881835,1.3765079015640378,1
1503513671665,-0.325,-0.201,-0.602,-0.702,+0.970,-0.127,-0.120,-5.312,-8.812,+2.688,3, 1, 3, 8, 5, 1, -1, 2,0.7785403251053598,1.374171016394557,1
1503513671688,-0.327,-0.201,-0.601,-0.702,+0.962,-0.118,-0.153,-10.625,-8.125,+9.312,-5, -4, -1, -6, -11, -2, -3, -7,0.7821052625295405,1.3716814995392852,1
1503513671711,-0.329,-0.200,-0.599,-0.702,+0.988,-0.097,-0.166,-9.875,-10.438,+9.750,-2, -9, -9, -5, -8, -1, 1, -7,0.7839732878107133,1.3656238141093762,1
1503513671733,-0.331,-0.200,-0.599,-0.702,+1.019,-0.105,-0.131,-6.875,-5.625,+7.125,-5, 6, 4, 5, 5, 3, 3, -6,0.7878504749456164,1.3657877512285588,1
1503513671748,-0.332,-0.200,-0.598,-0.701,+1.013,-0.098,-0.128,-7.562,-3.625,+7.812,1, 2, -1, -6, -15, -3, -3, -6,0.7890386128846251,1.3629750674164098,1
1503513671763,-0.334,-0.200,-0.597,-0.701,+1.004,-0.095,-0.173,-9.688,-7.125,+10.000,9, 3, -1, -7, -4, -2, -5, 4,0.792648975814159,1.3604935711062272,1
1503513671785,-0.337,-0.200,-0.595,-0.702,+0.988,-0.098,-0.182,-11.250,-10.500,+7.812,1, 0, -2, -1, 2, -1, 0, -11,0.7984215508143728,1.355710996002125,1
1503513671809,-0.338,-0.200,-0.594,-0.703,+1.011,-0.103,-0.149,-8.562,-12.500,+0.188,-8, -4, -1, -1, -1, -3, -7, -18,0.8005756583176221,1.3534126986372599,1
1503513671823,-0.338,-0.201,-0.592,-0.703,+1.015,-0.104,-0.148,-8.625,-10.250,-0.750,-1, 1, 3, -2, 0, -1, -1, 4,0.8014247470754539,1.3490703204755574,1
1503513671846,-0.340,-0.201,-0.590,-0.704,+0.985,-0.086,-0.183,-11.938,-9.812,+6.062,-2, -1, -4, -1, -3, -1, 3, -1,0.8052702104309811,1.3442410387776709,1
1503513671868,-0.343,-0.201,-0.588,-0.704,+0.959,-0.103,-0.171,-13.250,-13.375,+8.188,18, 8, 1, 3, 5, 6, -2, -1,0.8106347479597014,1.3392492064737003,1
1503513671883,-0.344,-0.202,-0.587,-0.705,+0.980,-0.136,-0.152,-9.000,-10.500,+1.000,18, 11, 4, -3, -7, -3, -3, -14,0.8142154344463782,1.3379342491438913,1
1503513671905,-0.345,-0.202,-0.587,-0.704,+0.981,-0.156,-0.166,-7.750,-0.875,-0.812,-8, -9, -5, -3, -1, 0, -3, 13,0.8157227325000084,1.3377552566134712,1
1503513671928,-0.347,-0.203,-0.586,-0.704,+0.977,-0.127,-0.197,-12.250,-2.562,+6.000,-15, -3, 0, 0, 0, -2, 3, -7,0.8208209224389895,1.336272337738138,1
1503513671944,-0.349,-0.203,-0.585,-0.704,+0.978,-0.096,-0.195,-11.375,-6.688,+8.562,-3, -4, 3, 25, 34, 7, 1, -23,0.8245275887959322,1.333839221548441,1
1503513671965,-0.350,-0.203,-0.584,-0.704,+0.975,-0.116,-0.178,-5.312,-4.500,+2.812,21, 4, -3, -12, -14, -4, -3, 6,0.8262471367335729,1.3313129005108881,1
1503513671988,-0.350,-0.203,-0.584,-0.704,+0.971,-0.136,-0.175,-3.250,+2.000,+0.312,6, 3, -2, -6, -8, -4, 0, 9,0.8262471367335729,1.3313129005108881,1
1503513672003,-0.350,-0.203,-0.585,-0.703,+0.958,-0.131,-0.205,-4.125,+5.000,+2.562,-7, -4, 1, 0, -3, 0, -4, -12,0.8260463683962382,1.3336584990594398,1
1503513672025,-0.351,-0.203,-0.585,-0.703,+0.976,-0.134,-0.200,-3.250,+1.500,+2.562,-11, 0, 0, -3, -4, -1, -2, -14,0.8280453534985395,1.3337545711136318,1
1503513672048,-0.351,-0.204,-0.585,-0.702,+0.992,-0.145,-0.165,-2.250,+1.562,-0.688,9, 9, 0, -2, -1, -3, 1, 0,0.8289686736878683,1.3344413134170763,1
1503513672063,-0.350,-0.204,-0.586,-0.702,+0.969,-0.147,-0.162,-0.750,+4.375,-3.375,2, 10, 6, -2, -8, -4, -7, -3,0.8272490902619922,1.3369702571554478,1
1503513672087,-0.350,-0.204,-0.586,-0.702,+0.975,-0.136,-0.182,+0.750,+1.062,-3.625,0, 5, 0, -3, -7, -1, 2, 22,0.8272490902619922,1.3369702571554478,1
1503513672108,-0.349,-0.204,-0.586,-0.702,+0.977,-0.142,-0.187,+0.438,+3.188,-4.875,-2, -10, -3, 3, 5, 0, 6, 8,0.8252543858532616,1.3368749758355793,1
1503513672123,-0.348,-0.205,-0.587,-0.701,+0.958,-0.151,-0.185,+0.688,+10.500,-6.875,-11, -10, -8, -1, 2, 1, -4, -27,0.8244738111556126,1.3400988856988747,1
1503513672145,-0.347,-0.206,-0.589,-0.701,+0.959,-0.138,-0.177,+0.750,+9.875,-4.125,3, -2, -8, -2, -1, 2, -1, 8,0.8244613559670989,1.3462232333983428,1
1503513672168,-0.346,-0.206,-0.589,-0.700,+0.996,-0.124,-0.169,+0.312,+6.000,-0.250,-5, 1, 3, 2, 3, 0, 0, -11,0.8220037879171687,1.345866352461062,1
1503513672183,-0.346,-0.206,-0.590,-0.700,+0.979,-0.113,-0.168,-0.562,+5.750,+0.250,0, 7, 1, -1, -4, -2, -6, -33,0.822286272807624,1.3484956503900989,1
1503513672205,-0.346,-0.206,-0.591,-0.700,+0.979,-0.125,-0.194,+2.125,+4.062,-2.188,6, 20, 5, -4, -4, -3, 0, -13,0.8225685859760336,1.3511244017861594,1
1503513672228,-0.345,-0.206,-0.591,-0.700,+0.973,-0.138,-0.172,+1.812,+1.312,-1.750,6, -9, -6, -5, -2, -1, 2, 24,0.8205895679164482,1.351034029599139,1
1503513672245,-0.345,-0.205,-0.591,-0.700,+0.997,-0.120,-0.148,+0.125,-3.062,+3.938,-2, 12, 5, 0, 1, 0, -5, -21,0.8191721331285987,1.3500746062735627,1
1503513672265,-0.345,-0.205,-0.591,-0.699,+0.982,-0.118,-0.160,+1.812,-1.125,+3.250,-6, -6, 3, 7, 2, 1, -1, 12,0.8186973181235495,1.3498136831133023,1
1503513672288,-0.344,-0.205,-0.591,-0.700,+0.938,-0.132,-0.187,+1.938,+3.188,-5.688,-2, 2, 0, -2, -6, 2, 0, 3,0.8171950127237788,1.3499841686185046,1
1503513672303,-0.344,-0.206,-0.591,-0.700,+0.969,-0.112,-0.153,-2.125,-1.250,-4.750,3, 0, 0, -5, -13, -12, 1, 3,0.8186131646388326,1.350943584226357,1
1503513672325,-0.345,-0.206,-0.591,-0.700,+1.015,-0.081,-0.133,-7.000,-2.750,+5.312,-4, 0, 1, -4, -1, -1, -5, -3,0.8205895679164482,1.351034029599139,1
1503513672359,-0.346,-0.207,-0.592,-0.698,+0.998,-0.086,-0.126,-9.688,+6.188,+9.125,4, 8, 6, 2, 4, 3, 1, 11,0.8233236521382147,1.354201481994115,1
1503513672363,-0.347,-0.208,-0.593,-0.697,+0.940,-0.089,-0.167,-6.250,+12.125,+4.688,8, 4, 2, -2, -1, 1, -2, 1,0.8265364022237565,1.3576323347591932,1
1503513672394,-0.346,-0.209,-0.593,-0.696,+0.944,-0.118,-0.190,-1.562,+6.375,-2.438,6, -1, 0, -8, -19, -7, 1, 33,0.825513167179965,1.3582597039053717,1
1503513672408,-0.346,-0.210,-0.594,-0.695,+1.003,-0.115,-0.137,-7.188,+7.562,-0.188,-5, -1, 3, -2, -5, -1, -1, -23,0.8267578659970272,1.3616131939886535,1
1503513672430,-0.348,-0.212,-0.595,-0.693,+1.019,-0.072,-0.147,-13.312,+14.938,+7.688,6, 2, 0, -1, -1, 0, 4, 6,0.8329227290103898,1.3658783518320832,1
1503513672446,-0.349,-0.214,-0.596,-0.691,+0.998,-0.072,-0.138,-10.875,+12.500,+8.625,4, 5, -4, -3, -5, -4, -7, 8,0.8371273110233104,1.3700756067201683,1
1503513672468,-0.348,-0.215,-0.597,-0.690,+0.972,-0.116,-0.150,-3.062,+8.562,-1.625,-9, -1, 3, -4, -10, -5, 2, 22,0.8364188172861252,1.3733691603335554,1
1503513672491,-0.347,-0.215,-0.598,-0.690,+0.952,-0.143,-0.177,-0.438,+9.812,-7.938,20, 18, 5, -6, -4, 1, -1, 5,0.8347388641037983,1.3759162653559873,1
1503513672505,-0.347,-0.217,-0.599,-0.688,+0.955,-0.119,-0.195,-4.875,+15.188,-1.562,5, -3, -6, 1, 13, 3, -2, 0,0.8370007932437681,1.3800620279104592,1
1503513672528,-0.347,-0.218,-0.601,-0.686,+0.981,-0.074,-0.159,-4.625,+21.500,+4.375,0, -2, 4, 2, 2, 0, 0, -9,0.8381114800695223,1.3858686354711607,1
1503513672552,-0.345,-0.219,-0.604,-0.684,+1.006,-0.087,-0.140,+3.875,+23.938,-0.688,10, 1, -4, 2, -1, -1, 1, 9,0.8356104593270264,1.3941732388590327,1
1503513672565,-0.343,-0.220,-0.606,-0.684,+0.987,-0.137,-0.150,+8.938,+16.500,-9.812,-3, -5, -1, 3, 7, 3, 0, -4,0.833774442191839,1.4002842066953447,1
1503513672588,-0.341,-0.220,-0.606,-0.684,+0.994,-0.130,-0.121,+6.438,+2.938,-11.000,-6, -6, -3, -14, -14, -5, -1, -2,0.8298847593103152,1.4001339022147794,1
1503513672610,-0.339,-0.220,-0.606,-0.685,+0.997,-0.094,-0.121,+6.188,-4.375,-7.562,3, -1, -2, 1, 4, -9, -4, -2,0.826467942855898,1.4001906388105803,1
1503513672625,-0.337,-0.220,-0.606,-0.686,+0.978,-0.096,-0.104,+8.562,-2.750,-5.625,-8, 8, 10, 2, 0, 3, -9, -5,0.8230597157992668,1.4002473380611922,1
1503513672648,-0.336,-0.219,-0.606,-0.687,+0.947,-0.121,-0.128,+7.125,+0.938,-8.125,-20, -8, -1, 1, -2, 0, 3, -9,0.8201122357640291,1.39939425687989,1
1503513672663,-0.334,-0.220,-0.606,-0.687,+0.944,-0.108,-0.120,+2.250,+2.688,-11.062,-3, -2, -2, -2, -5, -1, 1, -1,0.8177336281738834,1.4002288978226862,1
1503513672686,-0.332,-0.221,-0.607,-0.688,+0.980,-0.082,-0.124,+1.188,+5.562,-8.750,-3, -4, -1, 4, 10, 4, -1, -3,0.8161319961335126,1.4039069346843818,1
1503513672708,-0.331,-0.222,-0.608,-0.687,+1.006,-0.079,-0.116,+2.375,+9.625,-4.500,-8, -7, -2, 3, -2, 0, 2, -15,0.8155484492073993,1.4072545856349754,1
1503513672723,-0.330,-0.222,-0.609,-0.686,+1.009,-0.131,-0.098,+1.000,+5.000,-2.688,-2, 3, 7, 0, -5, -2, -1, -1,0.8134859816205061,1.4096211397150349,1
1503513672745,-0.330,-0.223,-0.609,-0.687,+0.998,-0.119,-0.084,-2.875,-1.875,-6.375,-12, -13, -6, 2, 1, -1, 4, -1,0.8154308418772181,1.4108049194373302,1
1503513672768,-0.329,-0.224,-0.607,-0.688,+1.011,-0.049,-0.139,-3.125,-3.625,-6.312,-5, 7, 5, 13, 8, -1, 0, 1,0.8148496701474044,1.4066584612939708,1
1503513672786,-0.329,-0.224,-0.606,-0.689,+1.018,-0.022,-0.160,+0.250,-4.250,-1.500,-13, -9, -12, -6, -3, 2, -8, -18,0.8149942961962877,1.4042291535026608,1
1503513672805,-0.328,-0.224,-0.606,-0.690,+1.001,-0.039,-0.114,+3.125,-6.500,-0.312,7, 2, -4, -13, -15, -4, 0, 6,0.8135376703417422,1.4043562041140576,1
1503513672828,-0.327,-0.223,-0.605,-0.691,+0.981,-0.078,-0.110,+4.750,-8.750,-2.375,12, 17, 5, 1, -3, -2, -3, -2,0.8102860248385279,1.4008623684485557,1
1503513672843,-0.326,-0.223,-0.605,-0.692,+0.973,-0.088,-0.130,+3.938,-2.625,-7.188,-6, -9, -4, -3, -7, -3, -2, -1,0.8088317057760754,1.4009919555637602,1
1503513672865,-0.325,-0.223,-0.605,-0.693,+1.021,-0.071,-0.137,+5.375,+0.062,-6.250,16, 8, 4, -3, -6, -2, 3, 2,0.8073786009550282,1.4011213470890806,1
1503513672888,-0.324,-0.223,-0.605,-0.693,+1.034,-0.064,-0.123,+4.125,+0.125,-1.625,-9, -8, -8, 0, -1, -1, 2, 2,0.8054765725050007,1.4010458359830802,1
1503513672903,-0.323,-0.222,-0.605,-0.693,+0.991,-0.074,-0.077,+1.875,-5.625,-0.875,-22, -5, 3, 0, 6, 2, -1, -7,0.8020912882982157,1.3999803602269325,1
1503513672925,-0.323,-0.222,-0.604,-0.694,+0.997,-0.081,-0.094,+0.750,-7.812,-3.562,-11, -17, -7, -4, -8, -4, 2, 2,0.8022321919568127,1.3975592586333492,1
1503513672952,-0.321,-0.223,-0.604,-0.694,+1.019,-0.042,-0.114,+1.375,+4.062,-5.500,10, 0, -3, -3, 3, 6, 0, -2,0.7999225543424966,1.3983966428844044,1
1503513672963,-0.320,-0.224,-0.605,-0.694,+1.014,-0.045,-0.152,+1.812,+4.438,-4.750,-11, -11, -4, -8, -10, -1, -5, -12,0.799830712419572,1.4019405667914036,1
1503513672989,-0.321,-0.223,-0.604,-0.694,+1.019,-0.061,-0.091,-3.875,-5.125,+4.188,4, 5, 1, 2, 0, -5, -4, -16,0.7999225543424966,1.3983966428844044,1
1503513673008,-0.322,-0.223,-0.604,-0.694,+0.996,-0.071,-0.082,-6.188,-3.250,+7.375,0, -5, -3, -6, -13, -3, 4, 12,0.8018181834735353,1.398473404110092,1
1503513673024,-0.322,-0.224,-0.604,-0.694,+0.987,-0.072,-0.136,-3.000,+2.750,+0.312,-14, -9, -20, -13, -4, 0, -3, -5,0.8033050707849798,1.3994673659516497,1
1503513673045,-0.323,-0.224,-0.604,-0.694,+0.986,-0.071,-0.163,-3.062,+0.375,+1.438,-6, -10, -5, 7, 6, 3, 3, 4,0.8052025680251491,1.399543926323595,1
1503513673068,-0.324,-0.223,-0.603,-0.694,+0.993,-0.071,-0.149,-6.625,-3.188,+8.812,0, -1, 5, 2, 2, -2, -2, -3,0.8053069742514002,1.3960018372435339,1
1503513673085,-0.326,-0.223,-0.603,-0.693,+0.981,-0.071,-0.113,-7.000,-2.062,+11.188,-15, -6, 2, -1, -5, -4, -2, -4,0.8086654272851803,1.3959470305437485,1
1503513673105,-0.327,-0.222,-0.604,-0.692,+0.965,-0.084,-0.119,-2.125,+3.062,+7.312,-13, -5, -9, 0, 0, -2, -1, -28,0.8089467287537385,1.3974485033771762,1
1503513673128,-0.328,-0.222,-0.604,-0.691,+0.992,-0.104,-0.149,-1.125,+4.875,+7.062,-4, -6, -2, -11, -16, 2, -1, 6,0.8104033217984854,1.3973161055802743,1
1503513673143,-0.329,-0.221,-0.605,-0.691,+0.997,-0.079,-0.167,-0.875,+0.812,+8.875,-3, 0, 2, 3, 8, 4, -4, -3,0.8111410242629423,1.3990332688508118,1
1503513673165,-0.330,-0.220,-0.603,-0.693,+0.987,-0.079,-0.147,-1.188,-15.875,+5.688,7, -3, 0, 3, 7, 6, 0, 14,0.8118815660091891,1.393286461510048,1
1503513673189,-0.331,-0.218,-0.601,-0.694,+0.917,-0.116,-0.106,-0.375,-16.688,+4.062,-12, -2, -1, -2, -6, -6, -5, -9,0.810713689045628,1.3863563165442112,1
1503513673203,-0.333,-0.216,-0.600,-0.695,+0.918,-0.124,-0.123,-1.625,-12.625,+8.812,-1, -3, 2, 1, 1, -3, -2, -9,0.8118032034767214,1.3821507957973265,1
1503513673225,-0.335,-0.215,-0.600,-0.694,+0.973,-0.116,-0.147,-4.938,-1.938,+17.438,-3, 3, -4, -6, -3, -1, -1, -5,0.8137531016325091,1.3811099087515986,1
1503513673248,-0.338,-0.213,-0.601,-0.692,+0.973,-0.140,-0.121,-5.562,+3.188,+15.875,6, -2, 3, 7, 4, 3, 5, 8,0.8160337735793832,1.3815873768451563,1
1503513673263,-0.339,-0.213,-0.602,-0.691,+0.953,-0.163,-0.115,-3.312,+4.812,+4.188,-3, -3, -4, -6, -9, -7, -1, -4,0.8178070430319001,1.38408025158985,1
1503513673285,-0.339,-0.213,-0.602,-0.691,+0.973,-0.149,-0.114,-4.625,+0.375,-0.312,5, -1, -3, -1, 3, 0, 2, 6,0.8178070430319001,1.38408025158985,1
1503513673308,-0.341,-0.213,-0.602,-0.690,+1.029,-0.106,-0.135,-7.812,+0.062,+8.375,21, 7, 1, 4, 8, -1, 0, 12,0.8212386564421731,1.38401446817602,1
1503513673324,-0.341,-0.214,-0.603,-0.689,+1.008,-0.080,-0.133,-5.000,+6.188,+9.812,-1, 0, 4, 3, 6, 3, 1, -2,0.822519555787221,1.3874025366354272,1
1503513673345,-0.340,-0.214,-0.604,-0.688,+0.965,-0.122,-0.109,+3.250,+4.875,-3.062,5, 5, 4, 9, 14, 3, 1, 6,0.8203976873035718,1.3897457553203434,1
1503513673367,-0.339,-0.214,-0.604,-0.689,+0.988,-0.167,-0.124,+3.438,-1.375,-9.750,-2, -7, -8, -6, -6, -4, 1, 4,0.8189188098229306,1.3898871064275915,1
1503513673387,-0.339,-0.214,-0.604,-0.689,+0.995,-0.131,-0.137,-3.125,-0.625,-4.875,0, -1, -3, -4, -8, -2, -3, -14,0.8189188098229306,1.3898871064275915,1
1503513673406,-0.339,-0.215,-0.603,-0.689,+0.993,-0.087,-0.131,-3.688,+0.875,-1.375,-12, -1, 1, -8, -5, -1, -1, -10,0.8200844894155074,1.388219230641688,1
1503513673428,-0.337,-0.216,-0.603,-0.690,+0.981,-0.074,-0.124,+1.375,+2.125,-8.625,11, 3, 2, 2, 2, 1, 1, 13,0.8181284844436945,1.3892582720259943,1
1503513673444,-0.335,-0.217,-0.603,-0.691,+0.974,-0.089,-0.132,+3.500,-1.875,-14.312,18, 3, -1, -3, -4, 0, 3, -3,0.8161840560424408,1.3902980546392674,1
1503513673466,-0.334,-0.217,-0.602,-0.692,+0.989,-0.079,-0.124,-1.375,-6.188,-5.375,-3, 4, 1, 4, 4, -2, -2, 0,0.8144136370805882,1.387804201425638,1
1503513673488,-0.334,-0.217,-0.602,-0.692,+0.984,-0.054,-0.151,-0.375,-0.938,+1.062,-11, -7, 2, 3, -4, 2, 7, 2,0.8144136370805882,1.387804201425638,1
1503513673504,-0.333,-0.217,-0.602,-0.692,+0.974,-0.072,-0.139,+4.188,+2.188,-2.875,3, 1, 3, -6, -5, -5, -1, 7,0.8124832985893833,1.3877247730484548,1
1503513673529,-0.332,-0.218,-0.603,-0.692,+0.966,-0.103,-0.124,+3.875,+2.938,-5.812,-4, 6, 16, 10, 6, 2, 1, 9,0.8123246271751497,1.3912604096396148,1
1503513673548,-0.332,-0.218,-0.603,-0.692,+1.009,-0.087,-0.140,-0.562,-0.312,+1.500,-9, -7, -7, -5, -4, 1, -7, -20,0.8123246271751497,1.3912604096396148,1
1503513673564,-0.332,-0.217,-0.603,-0.692,+1.023,-0.066,-0.125,-0.500,+1.375,+5.688,-2, 3, 2, 12, 17, 10, 2, 9,0.8108561319778504,1.3902807307315974,1
1503513673588,-0.332,-0.217,-0.603,-0.693,+1.001,-0.075,-0.126,+1.562,-3.688,+0.750,-2, -6, -10, -8, -6, -3, -3, -4,0.8113156633035732,1.3904981237158378,1
1503513673607,-0.332,-0.217,-0.601,-0.694,+0.971,-0.088,-0.142,+1.062,-10.938,-2.875,-2, 5, 0, -4, -8, -5, -2, -5,0.8111745293051352,1.3854550423648158,1
1503513673625,-0.332,-0.216,-0.600,-0.696,+0.958,-0.099,-0.137,-0.750,-13.688,-2.688,0, -4, -5, 3, 5, 3, 0, 7,0.8103321814866028,1.3822953567475222,1
1503513673645,-0.332,-0.216,-0.599,-0.696,+0.988,-0.095,-0.137,-0.562,-4.938,-0.500,6, -1, 0, 6, 1, -2, -1, -3,0.8100330186560897,1.3796667851410016,1
1503513673667,-0.331,-0.216,-0.600,-0.696,+0.984,-0.077,-0.152,-0.875,+6.625,+0.438,-6, -2, -2, -3, 8, 7, 0, -5,0.8084034013167534,1.3822140681626067,1
1503513673684,-0.331,-0.217,-0.600,-0.695,+0.981,-0.064,-0.139,-0.875,+2.562,+0.000,-4, -5, 3, -3, -7, -1, 1, -2,0.8094059433445087,1.382967506971536,1
1503513673706,-0.330,-0.217,-0.600,-0.696,+0.993,-0.084,-0.133,+1.000,-0.562,-3.188,22, 16, 4, -2, -4, -6, -2, -3,0.8079390287856718,1.3831111268440162,1
1503513673728,-0.330,-0.217,-0.600,-0.696,+1.020,-0.093,-0.130,+1.938,-2.375,-4.000,0, -4, -6, -7, -4, -5, -4, -3,0.8079390287856718,1.3831111268440162,1
1503513673744,-0.329,-0.216,-0.599,-0.697,+1.017,-0.093,-0.158,+0.812,-4.375,+0.188,-2, 0, 0, -3, -6, -2, 1, 0,0.8047109082847492,1.3796480796318413,1
1503513673766,-0.330,-0.216,-0.599,-0.697,+0.970,-0.087,-0.142,-0.938,-6.438,+1.438,-23, -6, 0, -2, -2, -2, -8, -17,0.8066356531248383,1.379730509413814,1
1503513673789,-0.330,-0.215,-0.598,-0.698,+0.974,-0.092,-0.109,-0.625,-7.562,-0.312,3, 7, 12, 5, 1, 0, 6, 13,0.8053376902654455,1.376355515765633,1
1503513673804,-0.330,-0.216,-0.598,-0.698,+0.985,-0.086,-0.146,-2.688,-0.250,-1.812,-9, -7, -11, -5, -4, 4, -3, -5,0.8067940841940656,1.377332755692194,1
1503513673827,-0.330,-0.216,-0.598,-0.698,+0.983,-0.059,-0.171,-4.500,+2.125,+2.500,0, -5, -2, 16, 13, 3, 2, 8,0.8067940841940656,1.377332755692194,1
1503513673847,-0.331,-0.216,-0.597,-0.698,+1.003,-0.061,-0.163,-2.938,-3.312,+6.125,4, 11, 10, -5, -11, -8, -3, -9,0.8084228260831411,1.3747904730771243,1
1503513673864,-0.331,-0.215,-0.597,-0.698,+1.005,-0.098,-0.112,-0.500,-7.250,+2.688,10, 4, -3, -2, -3, -5, -1, -10,0.8069679401199813,1.373811139209669,1
1503513673886,-0.331,-0.215,-0.596,-0.699,+0.970,-0.119,-0.127,-0.688,-7.125,-3.938,0, -5, -9, -8, -5, -4, -2, -9,0.807129146056337,1.3714200049429992,1
1503513673907,-0.331,-0.216,-0.595,-0.700,+0.969,-0.080,-0.169,-5.312,-6.875,-2.188,-5, -5, -2, 3, 3, 0, 0, -1,0.8087418341441563,1.3700144122342908,1
1503513673931,-0.332,-0.216,-0.594,-0.700,+0.979,-0.045,-0.173,-5.812,-3.562,+2.750,3, 0, -3, -12, -12, -2, 1, 15,0.8103764859109487,1.3674797969855992,1
1503513673946,-0.332,-0.216,-0.594,-0.700,+0.980,-0.077,-0.148,-2.125,-0.688,+1.625,-3, -2, 0, 7, 9, -1, -5, -4,0.8103764859109487,1.3674797969855992,1
1503513673967,-0.332,-0.216,-0.594,-0.700,+0.984,-0.114,-0.137,-1.000,+0.250,-2.375,-3, -10, -5, -1, 1, 1, 4, 16,0.8103764859109487,1.3674797969855992,1
1503513673993,-0.332,-0.217,-0.594,-0.700,+0.993,-0.097,-0.167,-4.375,+0.062,-1.312,-2, 2, 5, 2, 1, 0, 0, 2,0.8118286499829346,1.368465972728227,1
1503513674006,-0.333,-0.217,-0.593,-0.700,+0.997,-0.072,-0.167,-6.000,-3.812,+3.875,4, 4, 2, 8, 13, -10, -1, -7,0.813465408365284,1.36593498769656,1
1503513674032,-0.334,-0.216,-0.592,-0.701,+0.999,-0.079,-0.164,-3.250,-5.250,+4.188,-10, -8, -5, -6, -7, 0, -3, -6,0.8141174209086313,1.3626612327981416,1
1503513674051,-0.334,-0.216,-0.592,-0.701,+0.981,-0.105,-0.153,-0.125,-5.938,+1.438,-3, -6, -7, -1, -1, 1, -2, -8,0.8141174209086313,1.3626612327981416,1
1503513674067,-0.335,-0.215,-0.591,-0.702,+0.989,-0.135,-0.136,-0.750,-9.625,+1.062,2, -2, -5, -5, -5, 3, 2, -3,0.8147807830036328,1.359395147216145,1
1503513674093,-0.336,-0.215,-0.590,-0.702,+0.983,-0.129,-0.148,-7.688,-8.875,+1.875,11, 11, 11, 0, -7, 1, -1, -8,0.816432779427718,1.3568700743752728,1
1503513674110,-0.337,-0.215,-0.589,-0.702,+0.975,-0.088,-0.145,-10.062,-6.250,+1.875,-3, -2, -3, -7, -10, 0, 4, 8,0.8180884036543665,1.3543466419336025,1
1503513674127,-0.338,-0.216,-0.589,-0.702,+0.971,-0.067,-0.163,-6.062,-1.750,+2.188,-14, -5, -1, -6, -7, -4, -6, -26,0.8214825504643363,1.3554304125443182,1
1503513674148,-0.338,-0.216,-0.589,-0.702,+0.979,-0.092,-0.154,-4.250,+2.438,+1.250,-3, 1, -1, 1, 3, 1, -7, -29,0.8214825504643363,1.3554304125443182,1
1503513674170,-0.339,-0.217,-0.589,-0.701,+0.986,-0.117,-0.154,-6.125,-0.125,+0.875,11, 0, 6, 3, 2, 0, -1, 19,0.8244178143659276,1.3562654403889733,1
1503513674186,-0.340,-0.217,-0.588,-0.701,+0.975,-0.107,-0.173,-8.875,-3.375,-2.312,5, 1, 0, 15, 19, 4, 5, 23,0.8260797544697583,1.3537474591627556,1
1503513674207,-0.340,-0.219,-0.586,-0.702,+0.974,-0.067,-0.179,-7.375,-6.375,-6.500,-9, -1, -4, -6, -6, -2, -2, 1,0.8288349933920405,1.3507933290988727,1
1503513674231,-0.339,-0.220,-0.585,-0.704,+0.973,-0.055,-0.194,-4.812,-5.625,-6.500,20, 9, 3, 4, 6, 3, 3, 29,0.8289437363677757,1.349617884456051,1
1503513674246,-0.339,-0.220,-0.584,-0.704,+0.966,-0.079,-0.175,-5.500,-4.000,-1.750,8, 13, 8, -1, -4, -2, 0, 6,0.8286453370722136,1.3470182611938488,1
1503513674268,-0.341,-0.220,-0.583,-0.704,+0.967,-0.092,-0.177,-8.000,-4.250,+1.312,-7, 0, -2, -4, -3, -2, -2, -11,0.8322696969030776,1.3446163463162593,1
1503513674293,-0.341,-0.221,-0.582,-0.704,+0.989,-0.072,-0.170,-7.625,-6.125,+1.562,-10, -7, -8, 0, 1, -2, -1, -16,0.8334137165423054,1.3430359321812082,1
1503513674306,-0.342,-0.221,-0.581,-0.705,+0.987,-0.066,-0.184,-3.438,-7.250,+0.750,8, -1, -3, 2, 0, 0, -3, 25,0.8355418252044488,1.3408067130839814,1
1503513674333,-0.342,-0.221,-0.580,-0.705,+0.997,-0.085,-0.187,-3.625,-6.250,+1.125,-3, 3, 4, 4, 4, 5, 2, -10,0.8352441859871812,1.3382134632603475,1
1503513674350,-0.344,-0.221,-0.579,-0.705,+0.994,-0.092,-0.181,-8.125,-5.000,+6.375,-4, -1, 2, 1, -3, -1, -2, -5,0.8388888100137769,1.3358266143317654,1
1503513674366,-0.346,-0.220,-0.578,-0.705,+0.988,-0.075,-0.178,-7.375,-8.250,+8.625,-3, -8, -9, -5, -4, -3, 2, -1,0.8411120673977692,1.3324190738480992,1
1503513674388,-0.346,-0.220,-0.578,-0.706,+0.986,-0.061,-0.186,-1.812,-7.875,+3.688,-4, -4, -3, -7, -3, -2, 0, -13,0.8415751304903887,1.3326929970963635,1
1503513674411,-0.347,-0.219,-0.576,-0.707,+0.987,-0.073,-0.205,+0.312,-9.812,+1.562,-5, 2, 3, -1, -1, -4, -1, 1,0.8420049964678161,1.3268760302899933,1
1503513674436,-0.348,-0.218,-0.575,-0.708,+0.976,-0.093,-0.213,-3.625,-14.688,+5.875,0, -2, -4, -2, -3, 3, 6, 8,0.8427405151800185,1.3236557228057306,1
1503513674448,-0.350,-0.217,-0.573,-0.709,+0.960,-0.099,-0.195,-5.250,-13.188,+7.438,1, 3, 4, 0, -1, -2, -2, -6,0.8451928957461707,1.3179669817280741,1
1503513674471,-0.351,-0.216,-0.572,-0.709,+0.955,-0.084,-0.197,-1.438,-7.812,+4.312,3, 4, 1, 0, 1, 0, -1, 5,0.8454890778628049,1.3144729473902506,1
1503513674486,-0.351,-0.215,-0.572,-0.710,+0.961,-0.067,-0.214,-1.562,-5.562,+5.000,9, -1, -2, 4, 3, -2, -2, 0,0.8445466923663744,1.3137481899329038,1
1503513674508,-0.353,-0.214,-0.570,-0.710,+0.978,-0.071,-0.215,-4.312,-12.375,+10.125,-2, -3, -4, -5, -2, -2, -4, -6,0.8465787549514315,1.3077859134312293,1
1503513674531,-0.355,-0.213,-0.569,-0.711,+0.962,-0.100,-0.213,-5.750,-9.750,+9.250,-4, -2, -1, 0, -1, -2, -1, 0,0.8493885581639017,1.3047120450181278,1
1503513674546,-0.356,-0.213,-0.568,-0.711,+0.950,-0.108,-0.212,-3.750,-6.500,+6.500,2, -6, -3, 2, 0, 0, 1, -14,0.851122918678392,1.3022438676131767,1
1503513674568,-0.357,-0.212,-0.567,-0.711,+0.974,-0.100,-0.227,-1.938,-8.875,+6.875,-1, -1, 1, 2, 2, -1, -5, -5,0.8514670364195913,1.2987617821575348,1
1503513674590,-0.358,-0.211,-0.566,-0.712,+0.986,-0.092,-0.229,-2.438,-11.250,+4.000,2, 3, 1, -1, -3, -1, -1, 3,0.8522943770750363,1.2955903419317103,1
1503513674606,-0.359,-0.211,-0.565,-0.713,+0.979,-0.093,-0.228,-3.812,-10.000,+1.188,3, 2, 1, 0, -3, -2, -2, 1,0.8545175533592139,1.2934379632315594,1
1503513674634,-0.360,-0.210,-0.563,-0.714,+0.946,-0.086,-0.226,-3.062,-11.375,+2.188,2, 0, -3, -2, -1, -2, -2, -5,0.8550857247272846,1.2877042972115482,1
1503513674651,-0.360,-0.209,-0.562,-0.715,+0.945,-0.092,-0.238,-0.188,-12.812,+0.938,2, -4, -1, 2, 1, 1, 3, 5,0.8539062036289902,1.2844356675100317,1
1503513674666,-0.360,-0.208,-0.561,-0.716,+0.944,-0.105,-0.241,+1.250,-7.938,-2.438,-13, -5, -2, -1, -2, -3, -3, -5,0.8527321906937463,1.2811728746718907,1
1503513674688,-0.360,-0.209,-0.560,-0.716,+0.948,-0.099,-0.238,-2.688,-2.875,+0.000,-6, 0, -2, -5, -1, 0, -6, -17,0.8538295593065298,1.279611200392834,1
1503513674710,-0.361,-0.209,-0.560,-0.716,+0.944,-0.089,-0.241,-5.625,+1.312,+5.625,-1, -2, 1, -5, -7, 0, -2, -22,0.8558686068618356,1.279731847993748,1
1503513674731,-0.362,-0.209,-0.560,-0.716,+0.955,-0.083,-0.248,-2.250,+1.875,+5.312,17, 0, -5, -1, -2, -2, 1, 18,0.8579101387177115,1.2798523984954135,1
1503513674748,-0.362,-0.208,-0.560,-0.716,+0.974,-0.106,-0.265,+1.000,+0.375,+2.625,-6, 6, 3, 2, 1, 0, -2, -14,0.8565390472399237,1.2788402996975947,1
1503513674772,-0.362,-0.207,-0.560,-0.716,+0.973,-0.125,-0.235,-0.312,-3.938,+2.375,-3, -3, 3, 5, 4, 0, 0, 5,0.8551701650693405,1.2778311300082086,1
1503513674786,-0.363,-0.207,-0.559,-0.716,+0.975,-0.106,-0.237,-3.062,-9.312,+6.562,4, -1, -4, -1, -1, -2, 0, 1,0.8569431518254591,1.2753793459209137,1
1503513674808,-0.364,-0.206,-0.558,-0.717,+0.955,-0.103,-0.242,-2.500,-13.562,+4.875,-3, 1, 3, -2, 1, 1, 2, 11,0.857835692160373,1.2722500629019389,1
1503513674833,-0.364,-0.205,-0.556,-0.719,+0.928,-0.098,-0.254,+1.375,-12.312,-1.250,-1, -5, -6, -1, 0, -2, -9, -43,0.8568944457416834,1.266771116530737,1
1503513674846,-0.364,-0.204,-0.555,-0.720,+0.925,-0.097,-0.243,+2.375,-7.688,-3.500,-3, -3, -4, 0, 1, -2, 1, 11,0.8557508384881556,1.2635358891307478,1
1503513674868,-0.364,-0.204,-0.555,-0.720,+0.950,-0.110,-0.250,+1.250,-3.375,+0.750,-10, 0, 4, -2, -3, -2, -4, 1,0.8557508384881556,1.2635358891307478,1
1503513674891,-0.364,-0.203,-0.555,-0.720,+0.977,-0.120,-0.249,-0.688,+1.188,+2.688,-1, -2, 0, -4, -3, -2, -3, 7,0.8544000480700771,1.2625336468063864,1
1503513674906,-0.363,-0.203,-0.556,-0.720,+0.980,-0.117,-0.244,+1.062,+2.438,-1.375,-1, 1, 3, 1, 1, 0, -3, -2,0.8526136892335061,1.2649789450698483,1
1503513674932,-0.363,-0.203,-0.556,-0.720,+0.959,-0.109,-0.269,+3.375,-0.312,-3.750,4, 12, 4, -1, -1, -1, -1, 1,0.8526136892335061,1.2649789450698483,1
1503513674950,-0.363,-0.202,-0.555,-0.721,+0.973,-0.101,-0.241,+1.125,-7.062,+0.750,1, 1, 2, 3, 0, -1, 0, -6,0.8514769897525342,1.2617504986497508,1
1503513674967,-0.363,-0.202,-0.555,-0.721,+0.991,-0.104,-0.236,-1.188,-6.625,+3.750,6, -7, -7, -1, -2, -1, 6, 12,0.8514769897525342,1.2617504986497508,1
1503513674988,-0.363,-0.202,-0.555,-0.721,+0.987,-0.109,-0.235,-0.188,-1.625,+1.500,-14, -9, -6, -7, -3, 0, -2, -8,0.8514769897525342,1.2617504986497508,1
1503513675010,-0.363,-0.201,-0.555,-0.721,+0.970,-0.104,-0.250,+1.438,-0.875,+1.500,4, 8, 2, 1, 1, -2, -1, -4,0.8501307038631442,1.2607555128730588,1
1503513675026,-0.363,-0.201,-0.555,-0.721,+0.960,-0.104,-0.251,+1.500,-3.812,+0.562,0, -1, -5, -2, 1, -1, 0, 7,0.8501307038631442,1.2607555128730588,1
1503513675048,-0.362,-0.201,-0.554,-0.722,+0.968,-0.110,-0.248,-0.375,-3.750,-2.125,-3, -7, -1, 1, -1, -1, -3, -2,0.8482905838438636,1.258403632267232,1
1503513675070,-0.362,-0.201,-0.554,-0.722,+0.957,-0.105,-0.245,-1.312,-2.312,-2.812,-5, -7, -5, -1, -1, 0, -1, 2,0.8482905838438636,1.258403632267232,1
1503513675086,-0.362,-0.201,-0.554,-0.722,+0.949,-0.097,-0.251,-1.500,-2.062,+0.062,-4, -20, -8, -2, 0, 0, -1, 5,0.8482905838438636,1.258403632267232,1
1503513675108,-0.362,-0.201,-0.554,-0.722,+0.932,-0.101,-0.256,-1.125,+0.188,+2.125,-16, -1, 4, 3, 4, 0, -1, -20,0.8482905838438636,1.258403632267232,1
1503513675136,-0.362,-0.201,-0.555,-0.722,+0.954,-0.115,-0.254,-0.125,+4.000,+0.500,12, 4, -4, -4, -1, -1, -1, 8,0.8485580132412609,1.2609727636065782,1
1503513675146,-0.362,-0.201,-0.555,-0.721,+0.973,-0.129,-0.253,-2.000,+4.062,+1.000,-1, 2, 7, 3, -2, 1, 1, 5,0.8480762571216078,1.2606320273577087,1
1503513675169,-0.363,-0.201,-0.555,-0.721,+0.971,-0.124,-0.256,-4.438,-0.500,+3.438,-1, 1, 1, -1, -1, 1, -1, -1,0.8501307038631442,1.2607555128730588,1
1503513675190,-0.364,-0.201,-0.555,-0.721,+0.948,-0.108,-0.274,-4.500,-2.625,+6.562,-8, 5, 4, 2, -2, 0, -1, -29,0.8521876568784098,1.260878903268346,1
1503513675207,-0.365,-0.200,-0.554,-0.721,+0.926,-0.108,-0.275,-4.250,-2.750,+8.125,14, 8, 1, -2, 0, -1, -3, -3,0.8526397315716422,1.2574396898215852,1
1503513675228,-0.367,-0.199,-0.553,-0.721,+0.960,-0.120,-0.267,-4.500,-6.000,+9.000,6, -2, -2, 1, 0, -2, 2, 19,0.8551683918747938,1.254126540080146,1
1503513675251,-0.368,-0.199,-0.553,-0.721,+0.982,-0.127,-0.255,-4.562,-5.938,+8.000,0, 3, 7, 3, 0, 2, 1, 9,0.8572383364212893,1.2542513225891203,1
1503513675267,-0.370,-0.198,-0.552,-0.720,+0.954,-0.110,-0.269,-5.750,-5.500,+10.250,-14, -8, -6, -6, -1, -1, -3, -21,0.8593064522115338,1.250591500261594,1
1503513675289,-0.372,-0.197,-0.551,-0.720,+0.923,-0.090,-0.280,-5.438,-9.188,+13.375,9, 1, -3, 2, 2, 0, -1, -4,0.8618797811992656,1.2472812957457209,1
1503513675311,-0.374,-0.196,-0.550,-0.721,+0.946,-0.102,-0.273,-2.188,-10.000,+9.438,-2, -12, -11, -5, -5, -4, -3, -6,0.8649624381446681,1.2443296381325641,1
1503513675326,-0.374,-0.195,-0.550,-0.721,+0.949,-0.114,-0.267,-0.500,-2.188,+4.438,-1, -1, -1, -1, -2, 0, 2, 17,0.8636426230319246,1.2433408056388697,1
1503513675349,-0.375,-0.195,-0.550,-0.721,+0.935,-0.117,-0.287,-2.125,-0.938,+8.312,-7, -6, -2, -1, -2, 0, -1, 2,0.8657356283440505,1.243467252007138,1
1503513675371,-0.377,-0.194,-0.549,-0.720,+0.928,-0.125,-0.291,-3.875,-5.312,+11.500,2, 2, 3, 1, 0, -2, -6, -15,0.8678697559421918,1.2398065748693656,1
1503513675386,-0.378,-0.193,-0.548,-0.721,+0.954,-0.115,-0.283,-2.125,-6.250,+7.688,-6, -4, -2, 3, 1, -2, 2, 5,0.8689010397175655,1.23674038441125,1
1503513675409,-0.379,-0.192,-0.548,-0.721,+0.947,-0.123,-0.288,-0.688,-3.625,+6.000,2, 3, 0, 2, 1, 1, 5, 14,0.8697000872439883,1.2358830940411263,1
1503513675431,-0.380,-0.191,-0.547,-0.721,+0.935,-0.126,-0.285,-2.688,-5.250,+7.500,9, 3, -9, -4, -1, -1, 2, 5,0.8702570176292647,1.2324597535268926,1
1503513675446,-0.381,-0.190,-0.546,-0.721,+0.967,-0.132,-0.268,-3.500,-9.625,+7.750,-11, -7, -5, -3, -3, -1, -3, -18,0.8708233119390844,1.2290375984408612,1
1503513675469,-0.382,-0.190,-0.546,-0.721,+0.973,-0.128,-0.254,-1.750,-6.125,+2.625,7, 2, 4, 2, 1, 1, 1, 12,0.8729412531132408,1.2291662806076797,1
1503513675491,-0.382,-0.190,-0.546,-0.721,+0.951,-0.131,-0.277,-0.750,-1.375,-0.438,4, 4, 5, 3, 0, -2, -2, 11,0.8729412531132408,1.2291662806076797,1
1503513675506,-0.382,-0.190,-0.546,-0.722,+0.953,-0.120,-0.295,-1.562,-1.750,+1.500,0, 0, 5, -1, -3, -1, 0, 1,0.8734370008547958,1.2295355548206794,1
1503513675529,-0.382,-0.190,-0.545,-0.722,+0.972,-0.124,-0.270,-1.688,-3.000,+1.812,-13, -3, -2, -1, 0, -2, -2, -19,0.8731904980520026,1.2269706858534308,1
1503513675551,-0.381,-0.190,-0.546,-0.722,+0.972,-0.140,-0.257,+0.000,+0.625,-2.438,-9, -3, -2, -2, -1, -3, -2, -22,0.8713190719413881,1.2294071398568482,1
1503513675573,-0.380,-0.191,-0.546,-0.722,+0.949,-0.147,-0.289,+0.000,+1.938,-3.875,6, -9, -6, -1, -2, 0, -1, 18,0.8705030563874022,1.2302605289876059,1
1503513675589,-0.380,-0.191,-0.546,-0.722,+0.936,-0.141,-0.307,-1.000,-1.188,-2.938,6, 5, 0, 1, 0, 0, 0, 16,0.8705030563874022,1.2302605289876059,1
1503513675611,-0.380,-0.191,-0.545,-0.722,+0.938,-0.142,-0.281,-2.625,-2.312,-2.062,-7, -3, 1, -3, -2, -2, -1, -15,0.8702544132765095,1.227695457547102,1
1503513675626,-0.380,-0.191,-0.545,-0.722,+0.945,-0.132,-0.267,-2.500,-0.750,-1.000,-1, -2, -3, -1, -2, 0, 0, -1,0.8702544132765095,1.227695457547102,1
1503513675649,-0.380,-0.192,-0.545,-0.723,+0.946,-0.125,-0.281,-1.188,+0.438,-1.125,-2, 0, 6, 1, -1, -1, -1, 3,0.8720487283153422,1.2290509388672102,1
1503513675673,-0.380,-0.192,-0.545,-0.723,+0.921,-0.126,-0.307,-0.562,+0.312,-1.125,-5, -2, -6, -6, -4, -1, -1, -5,0.8720487283153422,1.2290509388672102,1
1503513675688,-0.380,-0.191,-0.545,-0.723,+0.920,-0.139,-0.288,-0.438,-1.625,+0.688,-1, -6, -7, -5, -1, 0, 0, -3,0.8707489515753568,1.2280655264267328,1
1503513675709,-0.380,-0.191,-0.545,-0.723,+0.949,-0.150,-0.275,-1.250,-0.875,+3.562,0, 4, 3, 1, 0, -1, -2, 5,0.8707489515753568,1.2280655264267328,1
1503513675731,-0.381,-0.191,-0.545,-0.723,+0.941,-0.139,-0.286,-2.250,-1.125,+3.000,2, 2, 2, -1, -6, -1, 0, 7,0.8728640683787688,1.228195038896872,1
1503513675746,-0.381,-0.190,-0.544,-0.723,+0.922,-0.136,-0.286,-0.875,-3.438,+0.688,3, 2, -3, -1, 0, 0, -2, -9,0.8713203723806046,1.2246491493307732,1
1503513675770,-0.381,-0.190,-0.544,-0.723,+0.919,-0.149,-0.281,-0.625,-5.000,-0.125,-1, 1, -4, -3, -2, -3, -2, -5,0.8713203723806046,1.2246491493307732,1
1503513675791,-0.381,-0.190,-0.544,-0.723,+0.933,-0.151,-0.283,-2.312,-1.562,+1.125,-1, 5, 2, 2, 1, 0, -1, -4,0.8713203723806046,1.2246491493307732,1
1503513675807,-0.382,-0.190,-0.543,-0.723,+0.944,-0.130,-0.296,-4.000,-0.500,+1.688,5, -1, 1, 0, 0, 2, 0, 8,0.8731930935736685,1.2222177947905724,1
1503513675829,-0.382,-0.190,-0.543,-0.723,+0.936,-0.122,-0.290,-4.562,-2.125,+1.312,-4, -2, -3, -3, 0, -1, 1, 13,0.8731930935736685,1.2222177947905724,1
1503513675851,-0.382,-0.190,-0.542,-0.724,+0.931,-0.130,-0.288,-2.938,-3.312,+1.812,5, -1, -1, 0, 1, 1, 1, 13,0.8734421888289879,1.2200334053400697,1
1503513675866,-0.383,-0.190,-0.542,-0.724,+0.948,-0.149,-0.301,-2.000,-5.250,+0.812,-4, -2, -2, -3, -1, -2, 0, -7,0.87556524964359,1.2201652138807253,1
1503513675889,-0.383,-0.190,-0.541,-0.724,+0.961,-0.143,-0.286,-2.062,-4.312,-0.438,-3, 7, 12, 0, -4, -3, -7, -17,0.8753194071831271,1.2176080971524341,1
1503513675911,-0.383,-0.190,-0.541,-0.725,+0.959,-0.136,-0.283,-2.688,-4.750,+0.938,-4, -1, 1, 6, 4, 2, 1, -5,0.8758148255577888,1.2179857377548586,1
1503513675926,-0.384,-0.190,-0.540,-0.725,+0.940,-0.129,-0.285,-3.438,-5.875,+1.375,0, -16, -5, 1, 1, 2, 0, 1,0.8776960118138633,1.2155648542367958,1
1503513675949,-0.384,-0.189,-0.539,-0.725,+0.953,-0.132,-0.288,-3.125,-6.625,-0.250,-2, -5, -4, 1, -2, -1, -1, -6,0.8761659212492232,1.2120230548718494,1
1503513675971,-0.384,-0.190,-0.539,-0.726,+0.944,-0.146,-0.299,-2.438,-0.312,-2.812,0, 9, 3, -3, -2, -2, -4, -22,0.8779462041951827,1.2133930506005406,1
1503513675993,-0.383,-0.190,-0.539,-0.726,+0.945,-0.139,-0.300,-2.188,+2.688,-3.250,7, -6, -5, -3, -1, -1, 3, 12,0.8758187037972553,1.2132588795102281,1
1503513676008,-0.383,-0.191,-0.539,-0.726,+0.947,-0.126,-0.296,-2.875,+0.562,-1.438,0, 1, -2, -1, -2, -2, -1, 4,0.8771058018508867,1.214249407383866,1
1503513676031,-0.383,-0.191,-0.539,-0.726,+0.963,-0.128,-0.291,-1.250,-2.188,-0.812,10, 8, -2, -5, -5, -2, 1, 2,0.8771058018508867,1.214249407383866,1
1503513676046,-0.382,-0.191,-0.539,-0.726,+0.958,-0.154,-0.304,+0.500,-0.500,-3.062,-1, -3, -3, -2, -1, -2, 1, 17,0.8749817293411993,1.2141148521574994,1
1503513676069,-0.382,-0.191,-0.539,-0.726,+0.934,-0.150,-0.320,-1.188,-1.938,-2.062,-3, 3, 3, 0, -2, -1, 0, -9,0.8749817293411993,1.2141148521574994,1
1503513676091,-0.383,-0.190,-0.538,-0.727,+0.941,-0.129,-0.294,-3.375,-7.625,+1.438,-6, 3, 2, 2, 0, -1, 0, -7,0.876068128062889,1.2110904894019738,1
1503513676106,-0.383,-0.190,-0.536,-0.728,+0.942,-0.107,-0.278,-4.062,-11.688,+1.688,-2, -2, -1, -3, -4, -2, -1, -2,0.8760720039459494,1.2063809232079294,1
1503513676129,-0.384,-0.190,-0.535,-0.728,+0.914,-0.111,-0.293,-2.688,-7.625,+0.812,5, 6, 1, -1, -3, 0, 0, 2,0.877956518170324,1.2039739373988427,1
1503513676151,-0.384,-0.190,-0.535,-0.728,+0.892,-0.126,-0.312,-3.312,-0.062,+2.500,-1, -4, -2, -4, -3, -1, 1, -2,0.877956518170324,1.2039739373988427,1
1503513676166,-0.386,-0.190,-0.535,-0.728,+0.922,-0.138,-0.321,-7.875,+0.812,+7.750,0, 4, 4, 0, 1, 1, 0, -7,0.8822241518373873,1.20424884743171,1
1503513676188,-0.388,-0.191,-0.534,-0.727,+0.964,-0.112,-0.294,-10.812,-2.375,+9.250,5, -4, -3, 0, -1, -2, 1, 15,0.8870415219972809,1.2025954076287004,1
1503513676211,-0.389,-0.191,-0.533,-0.726,+0.971,-0.112,-0.288,-9.438,-5.062,+7.375,7, 5, 1, -4, -1, -2, -2, 6,0.8884457724653287,1.1998065929742896,1
1503513676226,-0.391,-0.191,-0.532,-0.727,+0.933,-0.108,-0.335,-7.812,-9.125,+6.000,-3, -5, -4, -2, -3, -1, -3, -8,0.892992873515385,1.1979409829183276,1
1503513676248,-0.392,-0.190,-0.529,-0.728,+0.914,-0.113,-0.351,-7.688,-13.562,+5.438,8, -2, -7, -2, 0, -1, 0, 2,0.893646840584325,1.1898732327163775,1
1503513676273,-0.394,-0.190,-0.527,-0.729,+0.930,-0.115,-0.338,-7.625,-16.000,+7.188,-12, 2, 5, 0, 1, 1, 0, -5,0.8979800623711829,1.1855032094273146,1
1503513676286,-0.396,-0.189,-0.526,-0.729,+0.937,-0.125,-0.312,-7.250,-9.500,+7.438,-8, -8, -7, 0, 4, 1, -4, -16,0.9008109870711948,1.1822580857534832,1
1503513676309,-0.397,-0.190,-0.525,-0.729,+0.917,-0.131,-0.323,-5.625,-1.312,+4.562,7, 5, 2, -1, -3, 0, 4, 15,0.9040013437528651,1.1808931711670596,1
1503513676331,-0.397,-0.190,-0.526,-0.728,+0.915,-0.145,-0.354,-1.188,+3.875,+1.125,-1, 2, 3, 2, 0, 0, -4, 3,0.9037427506461304,1.1830124082790126,1
1503513676346,-0.397,-0.190,-0.526,-0.728,+0.939,-0.148,-0.335,-1.875,+2.188,+0.375,-10, -2, -2, -2, 0, -2, -5, -29,0.9037427506461304,1.1830124082790126,1
1503513676369,-0.397,-0.190,-0.526,-0.728,+0.962,-0.125,-0.299,-3.688,-3.062,+3.125,3, 0, 2, 0, -3, -3, -1, -13,0.9037427506461304,1.1830124082790126,1
1503513676391,-0.397,-0.190,-0.526,-0.728,+0.955,-0.116,-0.288,-0.812,-1.562,+4.250,2, -8, -10, -2, -1, -2, 0, 6,0.9037427506461304,1.1830124082790126,1
1503513676408,-0.397,-0.189,-0.527,-0.727,+0.923,-0.143,-0.321,+3.000,+1.875,+1.062,-10, -7, 1, 0, -4, 0, -1, -2,0.9022230131893579,1.1841239035974094,1
1503513676429,-0.397,-0.188,-0.527,-0.727,+0.905,-0.163,-0.349,+3.688,+1.938,+1.250,-5, -6, -6, -1, -2, 0, 1, 1,0.900964298192697,1.183114968336752,1
1503513676451,-0.397,-0.188,-0.527,-0.727,+0.942,-0.148,-0.316,+0.812,-2.312,+4.500,1, 3, 4, 4, 0, -1, -3, -3,0.900964298192697,1.183114968336752,1
1503513676466,-0.397,-0.188,-0.528,-0.727,+0.991,-0.137,-0.301,+1.062,-1.000,+1.062,-2, 1, -5, -6, 1, 0, 1, 12,0.9012002389639097,1.1856446931699878,1
1503513676489,-0.396,-0.188,-0.529,-0.727,+0.950,-0.140,-0.310,+1.500,+5.125,-5.500,0, -5, -5, -2, -2, 0, 1, 9,0.899267413624988,1.1880334862925477,1
1503513676514,-0.396,-0.188,-0.528,-0.728,+0.916,-0.146,-0.332,-0.875,-2.625,+0.000,0, 4, 4, 1, 0, -1, 1, -13,0.8995288900645331,1.1859027230759795,1
1503513676526,-0.397,-0.187,-0.527,-0.728,+0.918,-0.170,-0.344,-1.375,-12.125,+2.125,4, 0, -6, 0, -1, -1, 0, 8,0.900206882750969,1.1825125593614332,1
1503513676549,-0.396,-0.186,-0.526,-0.729,+0.942,-0.182,-0.319,+1.688,-10.000,-3.375,-5, -1, 1, -3, -6, -2, 0, -4,0.8970468738553853,1.1792427334257967,1
1503513676571,-0.396,-0.185,-0.526,-0.730,+0.942,-0.184,-0.320,+0.375,-2.500,-2.500,3, 1, 6, 2, 1, 0, 0, 7,0.8962968781523903,1.1786499472316556,1
1503513676592,-0.397,-0.185,-0.526,-0.730,+0.923,-0.177,-0.329,-4.000,-1.875,+1.750,-9, -2, -3, -5, -5, -2, -4, -32,0.8984699513918979,1.1787927879047304,1
1503513676610,-0.398,-0.184,-0.525,-0.729,+0.940,-0.182,-0.328,-2.500,-3.250,+3.875,1, 8, -1, -3, -1, -2, -1, 5,0.8986679733052666,1.175002262106497,1
1503513676630,-0.398,-0.183,-0.526,-0.729,+0.937,-0.196,-0.332,+2.875,+3.688,+5.500,-1, -6, -3, 2, -1, -2, -2, 8,0.897655988432327,1.1765375333372114,1
1503513676652,-0.399,-0.181,-0.527,-0.728,+0.929,-0.216,-0.361,+5.938,-0.062,+11.625,3, 0, 5, 5, 3, 1, 3, 4,0.8970821292421706,1.1768239914339402,1
1503513676667,-0.400,-0.178,-0.528,-0.728,+0.925,-0.202,-0.368,+5.312,-2.312,+12.562,8, -6, -3, -4, -3, 1, 2, 17,0.8957882269825741,1.17655644367384,1
1503513676690,-0.402,-0.176,-0.528,-0.727,+0.926,-0.161,-0.356,+3.688,-1.000,+12.312,-3, -7, -5, -1, 2, -1, 1, 10,0.8972050898250291,1.174469267283089,1
1503513676713,-0.402,-0.174,-0.529,-0.727,+0.931,-0.158,-0.358,+6.875,+2.125,+13.250,1, -6, -7, -1, -2, -1, 0, -12,0.8949773819578319,1.1750774750678903,1
1503513676727,-0.403,-0.173,-0.530,-0.726,+0.908,-0.153,-0.347,+6.812,+0.000,+12.062,-7, -1, 3, 1, 2, 1, -2, -3,0.8956626165987694,1.1763869351908616,1
1503513676751,-0.404,-0.171,-0.529,-0.727,+0.906,-0.126,-0.331,+3.938,-7.625,+8.875,1, 4, 1, 0, 2, 1, -5, -18,0.8957231098536211,1.1724605369681191,1
1503513676773,-0.404,-0.170,-0.527,-0.728,+0.907,-0.069,-0.325,+0.938,-14.312,+9.125,2, 2, 1, 0, -2, 1, 4, 7,0.8945912800139603,1.1668149985168952,1
1503513676787,-0.405,-0.169,-0.526,-0.728,+0.905,-0.039,-0.329,+1.125,-10.125,+9.875,-3, 2, 4, 0, 1, -1, -3, -7,0.8953775641444935,1.1634413386751175,1
1503513676810,-0.404,-0.170,-0.527,-0.729,+0.881,-0.087,-0.333,+4.438,+3.500,+2.062,5, 0, 1, 0, 1, -3, 0, 24,0.895104897145707,1.1672356850578722,1
1503513676832,-0.403,-0.170,-0.528,-0.728,+0.921,-0.149,-0.321,+2.625,+11.250,-1.625,1, 2, 0, -2, -3, -2, -3, -12,0.8926022780773043,1.1692323410011594,1
1503513676855,-0.403,-0.171,-0.529,-0.727,+0.945,-0.160,-0.342,-1.438,+4.562,+4.250,2, 1, -1, -2, -1, -3, 0, 2,0.8935193651239229,1.1723257356266796,1
1503513676870,-0.403,-0.170,-0.529,-0.727,+0.937,-0.159,-0.346,-0.938,-1.938,+3.125,-5, -14, -12, 0, 1, 2, 1, -3,0.8923050675578803,1.1713687481547832,1
1503513676892,-0.403,-0.170,-0.528,-0.728,+0.925,-0.158,-0.326,-0.188,-7.812,-1.500,-3, 5, -1, -2, -2, 0, -6, 1,0.8926022780773043,1.1692323410011594,1
1503513676907,-0.403,-0.170,-0.527,-0.729,+0.928,-0.181,-0.334,-0.250,-6.812,-2.562,-2, 2, 4, -1, -3, -2, -2, 2,0.8928992694797158,1.1671000702253929,1
1503513676930,-0.403,-0.169,-0.526,-0.729,+0.891,-0.183,-0.361,-1.062,-4.625,-0.438,-1, -6, -6, 0, -2, 0, 0, -1,0.8914750433718571,1.1635927954524565,1
1503513676953,-0.403,-0.168,-0.525,-0.730,+0.894,-0.190,-0.347,-0.625,-9.250,-0.375,3, 3, 1, 2, 1, 0, -2, -37,0.8905702991512752,1.1605122580329388,1
1503513676967,-0.403,-0.168,-0.525,-0.731,+0.921,-0.182,-0.319,-0.938,-5.375,-1.688,-5, -1, 2, -1, -1, -2, 0, -5,0.8910853055525967,1.1609376665552011,1
1503513676990,-0.403,-0.168,-0.526,-0.730,+0.940,-0.183,-0.316,-0.125,+2.500,-0.688,-2, 8, 10, 2, 1, 0, 0, 0,0.8907850713852622,1.1630628748379925,1
1503513677013,-0.402,-0.168,-0.526,-0.730,+0.919,-0.180,-0.348,+1.812,+3.875,+1.188,-3, 1, 0, 0, 0, -2, 2, 7,0.8885795600770535,1.162927437189522,1
1503513677027,-0.402,-0.168,-0.526,-0.730,+0.917,-0.193,-0.364,+1.875,-0.125,+0.750,-1, -1, -3, -1, -1, -1, -2, 2,0.8885795600770535,1.162927437189522,1
1503513677050,-0.403,-0.167,-0.525,-0.731,+0.930,-0.179,-0.343,-0.750,-7.438,+0.938,-1, -2, -2, -2, -1, -1, 0, 5,0.8898849591487082,1.1599867928892307,1
1503513677072,-0.402,-0.167,-0.525,-0.731,+0.928,-0.168,-0.337,+0.188,-5.625,+0.688,-20, -6, -1, -2, -2, -2, -3, -37,0.887677991865725,1.1598512018585525,1
1503513677087,-0.402,-0.166,-0.525,-0.732,+0.907,-0.188,-0.357,+1.438,-2.312,-0.750,2, -8, -5, -4, -4, -1, -3, 3,0.8869952819885387,1.1593307032221072,1
1503513677112,-0.403,-0.165,-0.524,-0.732,+0.904,-0.199,-0.375,-0.375,-4.812,+0.562,5, 5, -2, -2, 0, 0, 0, 9,0.88779640616558,1.1559706556726688,1
1503513677132,-0.403,-0.165,-0.523,-0.732,+0.904,-0.173,-0.356,-3.375,-4.000,+4.188,7, -2, -2, -3, -2, -1, 3, 24,0.8875845941231222,1.1534210016415416,1
1503513677148,-0.404,-0.165,-0.523,-0.732,+0.908,-0.155,-0.345,-3.812,+0.875,+4.812,3, -2, 0, 1, -2, -2, 0, 12,0.8897972695189865,1.1535570358690967,1
1503513677170,-0.404,-0.165,-0.524,-0.731,+0.920,-0.162,-0.333,-2.188,+3.688,+3.188,11, 2, -3, -3, -2, 0, 1, 1,0.8894911394968156,1.1556762414259507,1
1503513677193,-0.404,-0.165,-0.524,-0.731,+0.943,-0.166,-0.350,-0.688,-0.188,+3.250,-4, -8, -9, -1, 0, 1, 1, 5,0.8894911394968156,1.1556762414259507,1
1503513677207,-0.405,-0.165,-0.524,-0.731,+0.929,-0.163,-0.349,-1.250,-1.812,+3.188,9, 3, 2, 1, -2, -1, -1, 13,0.8917060319186147,1.1558116060340153,1
1503513677230,-0.405,-0.165,-0.523,-0.732,+0.897,-0.158,-0.350,-0.438,-3.875,+1.562,-1, -10, -7, -2, -1, -1, -5, -15,0.8920125645396767,1.1536929866524583,1
1503513677253,-0.405,-0.164,-0.523,-0.732,+0.897,-0.167,-0.342,+0.000,-4.125,+0.688,-12, -2, -1, -4, -3, -2, -2, -3,0.8908236211652386,1.152747352323458,1
1503513677267,-0.404,-0.164,-0.523,-0.732,+0.911,-0.181,-0.343,+0.000,-1.625,-0.125,1, 0, -3, 0, 0, 0, 1, -1,0.8886072818518101,1.1526118721941594,1
1503513677290,-0.404,-0.164,-0.523,-0.732,+0.905,-0.185,-0.354,-1.750,+2.250,+0.062,-1, -4, -1, -5, -3, -1, -1, 3,0.8886072818518101,1.1526118721941594,1
1503513677314,-0.405,-0.165,-0.523,-0.732,+0.901,-0.189,-0.356,-3.438,+2.062,+1.875,-1, 5, 6, 4, 0, 0, 4, 12,0.8920125645396767,1.1536929866524583,1
1503513677327,-0.406,-0.165,-0.523,-0.731,+0.918,-0.187,-0.354,-5.500,+1.375,+2.438,-5, -5, -1, -1, -1, 1, -2, 1,0.8937132779799711,1.15339790875861,1
1503513677350,-0.406,-0.166,-0.523,-0.731,+0.938,-0.173,-0.356,-5.188,+0.625,+0.312,-2, 0, -2, -4, -4, -1, 0, -4,0.8949043432343551,1.1543479456244259,1
1503513677372,-0.406,-0.166,-0.523,-0.731,+0.936,-0.170,-0.362,-3.812,-3.000,+0.375,3, -2, -2, 1, 1, 0, 0, 10,0.8949043432343551,1.1543479456244259,1
1503513677387,-0.407,-0.166,-0.522,-0.731,+0.907,-0.175,-0.357,-4.250,-4.125,+2.500,2, -4, 2, 1, -2, -1, -1, -2,0.8969133826295581,1.1519392187081972,1
1503513677410,-0.407,-0.165,-0.521,-0.732,+0.900,-0.176,-0.355,-2.875,-5.625,+3.188,11, 2, 0, -1, 0, -2, -2, -6,0.8960318772019468,1.1488756679142744,1
1503513677432,-0.407,-0.165,-0.521,-0.732,+0.903,-0.181,-0.353,-0.812,-3.188,+1.250,-7, 2, 4, 0, -1, -1, -3, -11,0.8960318772019468,1.1488756679142744,1
1503513677448,-0.408,-0.165,-0.521,-0.732,+0.912,-0.180,-0.365,-0.250,-0.562,+1.938,-9, 7, -6, -2, -1, -1, -1, -47,0.8982562170752206,1.149013062674694,1
1503513677470,-0.408,-0.164,-0.521,-0.732,+0.896,-0.184,-0.380,-0.500,+2.062,+3.562,3, -5, 0, -3, -1, 0, -1, 7,0.8970722062706903,1.14806261608073,1
1503513677492,-0.408,-0.164,-0.521,-0.731,+0.897,-0.192,-0.356,-1.875,+0.188,+2.812,1, 1, 4, 0, -1, 0, -1, 14,0.8965539505168965,1.147627365529665,1
1503513677507,-0.409,-0.164,-0.521,-0.731,+0.906,-0.184,-0.350,-3.188,-1.375,+2.125,-1, -4, -3, 0, 0, -2, -3, 0,0.8987822109380623,1.1477644641757432,1
1503513677530,-0.409,-0.164,-0.521,-0.731,+0.903,-0.176,-0.341,-2.562,-0.562,+0.938,-8, 3, 3, 3, 0, -1, -1, -3,0.8987822109380623,1.1477644641757432,1
1503513677552,-0.409,-0.164,-0.520,-0.732,+0.900,-0.167,-0.347,-2.375,-2.375,-0.125,10, -1, -1, -2, -3, 1, 0, 15,0.8990925908965228,1.1456567764524204,1
1503513677567,-0.409,-0.165,-0.520,-0.732,+0.905,-0.165,-0.337,-1.125,-2.500,-2.375,-5, -14, 1, 2, -1, 1, 1, -2,0.9002746589049972,1.1466093926768266,1
1503513677590,-0.408,-0.165,-0.520,-0.732,+0.923,-0.185,-0.346,+1.875,-1.625,-5.375,-4, 1, -1, -2, 0, -1, -5, -9,0.8980471062263286,1.146471237151851,1
1503513677612,-0.407,-0.165,-0.520,-0.733,+0.913,-0.204,-0.375,-0.375,+0.312,-5.438,6, 3, -4, 2, 1, -1, 0, -7,0.8963392698804006,1.146768376214507,1
1503513677627,-0.407,-0.166,-0.519,-0.733,+0.873,-0.175,-0.380,-6.250,-1.000,-3.062,-4, 3, -1, 0, -1, -1, -1, 7,0.8973142719256076,1.145183758712763,1
1503513677652,-0.407,-0.167,-0.518,-0.734,+0.882,-0.139,-0.349,-5.312,-4.000,-4.438,4, -1, 0, 0, -1, -1, 0, 5,0.8988046838141202,1.1440424242966492,1
1503513677672,-0.405,-0.167,-0.519,-0.734,+0.933,-0.155,-0.344,+2.125,+4.750,-6.438,7, -5, -6, -3, 0, 0, 4, 38,0.8945776214300732,1.1462963859412094,1
1503513677687,-0.405,-0.168,-0.521,-0.733,+0.931,-0.203,-0.386,-0.500,+17.000,-2.875,-2, -5, -5, -1, 0, -2, 2, -11,0.8956801826760867,1.1518951929488674,1
1503513677710,-0.406,-0.170,-0.521,-0.732,+0.905,-0.182,-0.401,-12.562,+7.688,+4.125,0, 6, -1, -1, 0, 2, -2, -10,0.8997739781773912,1.1535276529990204,1
1503513677732,-0.407,-0.171,-0.519,-0.732,+0.942,-0.134,-0.329,-12.438,-8.625,+4.062,-4, -11, -6, -3, -5, -2, -4, -2,0.9027589326058969,1.1495702357187945,1
1503513677747,-0.407,-0.171,-0.518,-0.732,+0.963,-0.140,-0.303,-3.062,-8.812,-3.000,-4, -3, -2, -2, -1, 1, 2, 8,0.9025438201338019,1.1470400519563084,1
1503513677770,-0.406,-0.172,-0.519,-0.732,+0.895,-0.181,-0.348,-0.500,+3.500,-5.625,2, 1, -1, 0, 0, -2, 0, 12,0.9017422205787752,1.1504006773471247,1
1503513677793,-0.407,-0.172,-0.518,-0.733,+0.866,-0.188,-0.406,-5.812,-1.438,-0.938,3, 16, 16, 3, -1, -2, -1, -5,0.9042527091653499,1.1484456935722125,1
1503513677807,-0.408,-0.172,-0.517,-0.733,+0.894,-0.167,-0.360,-8.562,-4.375,+0.188,-6, 3, 5, -1, 0, 0, -1, -2,0.90625609876568,1.1460640179140542,1
1503513677830,-0.407,-0.174,-0.517,-0.733,+0.923,-0.144,-0.310,-4.375,+2.438,-3.875,5, -2, -2, -1, -1, -2, -5, -14,0.906436153915909,1.1478787075427015,1
1503513677853,-0.406,-0.175,-0.519,-0.732,+0.909,-0.150,-0.345,-0.875,+14.812,-4.875,-5, 2, -3, 3, 6, -1, 1, 9,0.9053555466368773,1.153334755991055,1
1503513677867,-0.405,-0.176,-0.520,-0.731,+0.909,-0.167,-0.379,-1.312,+12.812,-2.875,6, -1, -1, -2, -2, 0, -1, 24,0.9040685232913942,1.1562746042502512,1
1503513677890,-0.405,-0.177,-0.520,-0.731,+0.942,-0.177,-0.370,-3.250,+1.125,-2.188,-1, -6, -6, -5, -3, -2, -2, -7,0.9052825540265295,1.1572600586963275,1
1503513677912,-0.405,-0.177,-0.520,-0.731,+0.927,-0.163,-0.353,-4.000,+1.750,-3.000,-4, -5, 0, -6, -4, -1, 2, 2,0.9052825540265295,1.1572600586963275,1
1503513677928,-0.404,-0.178,-0.520,-0.731,+0.902,-0.141,-0.345,-3.250,+5.750,-1.375,1, -4, -2, 1, -1, -1, -2, -30,0.9042949079634549,1.1581036826699123,1
1503513677954,-0.404,-0.179,-0.520,-0.731,+0.935,-0.159,-0.356,-1.688,+2.438,-1.438,3, -2, -2, -2, -2, 2, -1, 1,0.9055144746935195,1.159094314519458,1
1503513677972,-0.404,-0.179,-0.520,-0.731,+0.933,-0.168,-0.364,-1.688,-0.688,-2.875,2, -2, 0, 2, 1, -1, 2, 16,0.9055144746935195,1.159094314519458,1
1503513677988,-0.404,-0.179,-0.520,-0.731,+0.907,-0.174,-0.364,-2.062,-0.938,-2.000,-5, 0, 1, 0, -2, -2, -6, -12,0.9055144746935195,1.159094314519458,1
1503513678010,-0.404,-0.179,-0.520,-0.731,+0.924,-0.165,-0.330,-5.125,-0.812,+0.938,1, 2, -2, -1, -1, -1, -2, -30,0.9055144746935195,1.159094314519458,1
1503513678033,-0.405,-0.180,-0.520,-0.731,+1.000,-0.161,-0.301,-4.938,-3.750,+1.125,-3, 3, 0, -3, -2, -1, -3, -13,0.908938160752534,1.1602332022813664,1
1503513678047,-0.404,-0.181,-0.521,-0.730,+1.021,-0.171,-0.280,-3.938,-0.375,+0.188,7, -2, -4, -6, -5, -1, 0, 12,0.9076825358979126,1.1631865346273798,1
1503513678070,-0.404,-0.182,-0.522,-0.729,+0.964,-0.207,-0.322,-5.625,+9.250,-5.250,-2, 0, -4, -2, -1, -3, -9, -40,0.9086344114075925,1.1662910742293222,1
1503513678093,-0.403,-0.184,-0.523,-0.728,+0.917,-0.224,-0.365,-7.438,+12.750,-11.312,-9, 5, 9, 2, -1, -2, 0, 7,0.9086341546814353,1.170259241982576,1
1503513678115,-0.402,-0.186,-0.524,-0.727,+0.965,-0.207,-0.339,-8.188,+13.562,-10.562,0, 1, 1, 0, -2, -1, 1, 7,0.9086573237967253,1.1742402411101482,1
1503513678138,-0.401,-0.189,-0.526,-0.726,+0.999,-0.168,-0.315,-8.625,+18.312,-9.250,0, -2, -1, 4, 5, -1, 2, 3,0.9101925814801659,1.1817732658068263,1
1503513678154,-0.400,-0.192,-0.526,-0.726,+0.974,-0.126,-0.345,-8.188,+10.750,-11.250,-4, -1, 1, 4, 1, 1, -4, -31,0.9117940871360735,1.184683737554722,1
1503513678168,-0.399,-0.194,-0.524,-0.727,+0.935,-0.103,-0.363,-7.500,-5.875,-13.312,5, 2, -1, -3, -2, 0, 3, 18,0.9121675865920253,1.1819552659927561,1
1503513678193,-0.398,-0.195,-0.522,-0.729,+0.881,-0.100,-0.325,-6.625,-9.188,-14.562,-5, 1, -1, -4, -7, -1, 1, 2,0.9117673492287397,1.178619226922399,1
1503513678212,-0.397,-0.197,-0.521,-0.730,+0.867,-0.094,-0.313,-5.938,-1.250,-11.625,1, -6, -6, -12, -9, -1, 2, 26,0.9123854206767907,1.1784380762114053,1
1503513678228,-0.395,-0.199,-0.521,-0.730,+0.891,-0.097,-0.342,-3.688,+5.375,-8.375,0, 1, -1, 2, 5, -1, -4, -9,0.9106079206670031,1.1802176679000007,1
1503513678259,-0.394,-0.200,-0.521,-0.731,+0.899,-0.107,-0.348,-2.375,+4.938,-9.625,1, -7, -6, -5, -3, -1, 1, 12,0.9102161409841714,1.1815089699152628,1
1503513678272,-0.393,-0.202,-0.521,-0.730,+0.902,-0.124,-0.315,-4.875,+7.688,-11.625,3, 11, 9, 5, 3, -1, -3, 10,0.9101418611939263,1.1830565870630958,1
1503513678289,-0.392,-0.205,-0.522,-0.730,+0.890,-0.101,-0.296,-9.812,+11.938,-11.062,-26, -8, -4, 1, -1, -2, -6, -39,0.9121154206421157,1.1885667031830602,1
1503513678312,-0.391,-0.208,-0.523,-0.729,+0.922,-0.059,-0.310,-8.875,+14.500,-8.312,-3, -6, -5, 0, 5, 13, -4, -24,0.9136438938792555,1.1937067601467846,1
1503513678333,-0.389,-0.210,-0.523,-0.728,+0.948,-0.056,-0.353,-4.562,+13.812,-5.375,-2, -4, 0, 0, -1, 0, 1, 12,0.911507003347279,1.1951511096672356,1
1503513678348,-0.389,-0.211,-0.523,-0.728,+0.933,-0.077,-0.359,-3.062,+5.750,-3.812,5, -1, -6, -4, 0, -5, 2, 7,0.9128201499610763,1.1962256196903518,1
1503513680675,-0.462,-0.108,-0.537,-0.698,+0.919,-0.331,-0.385,+29.312,+3.875,+30.125,1, -3, 3, 2, -2, 1, 0, 1,0.9451270625075322,1.1307651954423343,2
1503513680695,-0.463,-0.101,-0.539,-0.696,+0.911,-0.340,-0.377,+30.812,-3.750,+30.688,-5, 3, 3, 7, 7, 1, 0, 3,0.9394423009321513,1.1295313076383957,2
1503513680712,-0.463,-0.094,-0.541,-0.695,+0.894,-0.366,-0.358,+33.250,-7.688,+29.625,1, -7, -10, -7, 0, -1, 3, 16,0.9319213258631059,1.128880843359025,2
1503513680733,-0.463,-0.086,-0.544,-0.694,+0.864,-0.390,-0.355,+37.312,-3.688,+30.250,2, -3, -2, -5, -12, -4, 3, 11,0.9235581231698842,1.1304318461178051,2
1503513680755,-0.463,-0.079,-0.548,-0.692,+0.846,-0.398,-0.361,+39.250,+0.562,+30.688,-2, 2, 0, -5, -7, 0, -5, -25,0.9157401713193536,1.135318673528064,2
1503513680772,-0.463,-0.071,-0.552,-0.690,+0.854,-0.399,-0.360,+39.375,+1.250,+31.250,4, -3, 1, 3, 2, 1, -3, 9,0.9069265569862716,1.1397999842982265,2
1503513680793,-0.462,-0.064,-0.556,-0.688,+0.848,-0.406,-0.322,+42.312,+2.312,+32.000,-1, -7, -11, -4, 1, -1, 0, -8,0.8965593471940199,1.1452722015667647,2
1503513680815,-0.461,-0.056,-0.560,-0.686,+0.819,-0.415,-0.307,+45.125,+3.750,+32.500,1, 4, -1, -4, -4, -1, 0, -6,0.885173509661253,1.1504303901218216,2
1503513680833,-0.461,-0.047,-0.564,-0.683,+0.792,-0.442,-0.316,+45.125,+5.000,+32.500,-12, -3, -2, 1, 3, -1, -1, -15,0.8746866611069846,1.1549143174647918,2
1503513680853,-0.460,-0.039,-0.569,-0.680,+0.783,-0.473,-0.313,+45.500,+7.625,+32.000,4, 0, -1, -3, -4, -1, -4, -3,0.862611005686195,1.1633894885227394,2
1503513680876,-0.460,-0.031,-0.574,-0.677,+0.797,-0.490,-0.306,+46.000,+12.188,+35.062,6, 4, -2, 10, 8, 2, -2, -11,0.8530395576576076,1.1724033922946777,2
1503513680891,-0.459,-0.023,-0.579,-0.673,+0.793,-0.493,-0.315,+45.625,+11.312,+37.250,5, -3, -1, -4, -6, -4, 1, 11,0.8400625261679562,1.1814036031861144,2
1503513680913,-0.459,-0.015,-0.583,-0.670,+0.803,-0.510,-0.268,+42.500,+2.188,+35.188,6, 8, 4, 1, -4, -2, 2, 5,0.8302679146256476,1.1883655807184506,2
1503513680935,-0.459,-0.007,-0.586,-0.668,+0.792,-0.518,-0.241,+39.625,-2.938,+32.938,1, 10, 9, 3, 3, 1, 5, 26,0.8211239094580474,1.1931533765348634,2
1503513680951,-0.459,+0.001,-0.589,-0.666,+0.750,-0.512,-0.259,+38.625,-0.562,+34.312,-4, -6, -4, -3, -3, -1, -7, -10,0.8119504498243918,1.1983419345815438,2
1503513680973,-0.458,+0.009,-0.592,-0.663,+0.729,-0.535,-0.267,+39.812,-0.875,+31.750,-3, 0, -1, 8, 3, 2, 1, 1,0.7992821714857197,1.2034422004838192,2
1503513680995,-0.457,+0.017,-0.594,-0.661,+0.750,-0.580,-0.249,+39.750,-2.125,+27.188,6, 4, 5, -2, -3, -3, -2, -2,0.7873146356985893,1.2062280970716286,2
1503513681011,-0.457,+0.024,-0.597,-0.659,+0.762,-0.587,-0.205,+34.125,-0.875,+27.250,2, -2, -5, -7, 0, 1, 0, 13,0.7789210540669634,1.2129558061549632,2
1503513681033,-0.457,+0.030,-0.599,-0.657,+0.749,-0.540,-0.201,+29.688,-3.688,+26.938,-9, 0, -3, 1, 2, 1, -2, -13,0.7714749019960871,1.2169704632704323,2
1503513681055,-0.455,+0.037,-0.601,-0.656,+0.725,-0.544,-0.233,+32.562,-6.500,+21.625,-2, -5, -1, 2, 9, 2, 0, -1,0.7583500339000798,1.2215901291846696,2
1503513681075,-0.454,+0.043,-0.603,-0.655,+0.710,-0.600,-0.246,+34.188,-3.000,+19.188,-3, -6, -2, -7, -4, -1, -2, -9,0.7488662831580135,1.2266974846813503,2
1503513681095,-0.453,+0.049,-0.605,-0.653,+0.736,-0.625,-0.194,+29.688,-4.875,+17.562,3, -2, 0, -3, -3, -4, 2, 29,0.7384792394192892,1.2315668418825878,2
1503513681115,-0.451,+0.054,-0.606,-0.653,+0.764,-0.577,-0.195,+27.000,-6.938,+13.250,0, 1, -2, -2, -8, -1, 2, -14,0.7280243276057162,1.2344319600064293,2
1503513681134,-0.449,+0.059,-0.607,-0.653,+0.749,-0.582,-0.208,+28.125,-10.125,+12.938,5, 3, 1, 1, 2, 1, 3, 16,0.7175433003015246,1.2374684564216787,2
1503513681153,-0.448,+0.064,-0.608,-0.652,+0.722,-0.614,-0.228,+25.938,-10.000,+15.938,-3, -9, -4, -3, 1, -1, 0, -15,0.7089297162087831,1.2401186000647775,2
1503513681176,-0.447,+0.069,-0.608,-0.652,+0.729,-0.637,-0.215,+24.500,-11.062,+12.188,-6, -2, 0, -1, 0, -1, -6, -14,0.7012950490302234,1.2399221977354575,2
1503513681191,-0.446,+0.073,-0.608,-0.653,+0.755,-0.626,-0.203,+20.312,-11.625,+10.750,1, -2, -1, -2, -4, -1, 4, 5,0.6955189859556621,1.2403830239922218,2
1503513681213,-0.445,+0.078,-0.608,-0.653,+0.762,-0.621,-0.188,+14.938,-15.812,+13.938,7, 21, 14, 4, 1, -1, -5, 2,0.6878885118230526,1.2404247411613218,2
1503513681235,-0.445,+0.081,-0.607,-0.654,+0.746,-0.612,-0.196,+11.688,-16.500,+12.688,-4, -3, -9, -3, -3, -2, -2, -8,0.6860551458876196,1.2374242325037172,2
1503513681251,-0.444,+0.084,-0.607,-0.654,+0.730,-0.645,-0.168,+10.188,-9.562,+5.312,2, 1, 2, 2, 3, -1, 0, 2,0.6803667734584906,1.2375776172812292,2
1503513681280,-0.444,+0.085,-0.607,-0.654,+0.729,-0.623,-0.149,+2.250,-2.188,+4.500,-3, -23, -9, 4, 4, 0, -2, -26,0.679404908481107,1.2376157021561724,2
1503513681295,-0.444,+0.084,-0.607,-0.653,+0.773,-0.584,-0.160,-6.562,+1.375,+7.688,-4, -6, 3, 3, 3, -2, -8, -6,0.679459128219544,1.2370552010506122,2
1503513681312,-0.446,+0.083,-0.607,-0.653,+0.770,-0.590,-0.188,-11.750,+1.250,+9.000,-3, 0, 3, 1, 0, -1, -5, -11,0.6860389194708053,1.236879793717934,2
1503513681333,-0.448,+0.081,-0.606,-0.652,+0.746,-0.620,-0.180,-17.812,+1.125,+4.625,-6, -3, -7, -11, -7, -2, -2, -10,0.6928486349709234,1.2325964278234272,2
1503513681355,-0.450,+0.078,-0.606,-0.652,+0.724,-0.645,-0.201,-21.562,+9.375,+0.188,-2, 3, 4, -1, 0, 1, 1, -10,0.701354818715572,1.2324501846166322,2
1503513681371,-0.453,+0.073,-0.605,-0.651,+0.731,-0.623,-0.218,-28.688,+14.500,-4.500,0, -10, -16, -4, 0, -1, 5, 19,0.7138360128467588,1.2282792148172965,2
1503513681393,-0.456,+0.068,-0.604,-0.651,+0.798,-0.556,-0.242,-35.000,+12.062,-2.438,9, 5, 4, 2, 0, -1, 4, 22,0.7271896907273837,1.2248266675619024,2
1503513681415,-0.459,+0.062,-0.602,-0.651,+0.802,-0.536,-0.210,-38.500,+7.750,+4.188,-1, -3, -2, 3, 1, -1, -4, 4,0.741565645262907,1.2181655548520973,2
1503513681431,-0.463,+0.057,-0.599,-0.651,+0.787,-0.597,-0.220,-40.062,+4.625,+1.500,-4, 16, 9, 2, -1, 1, -5, -9,0.7579113281427374,1.2081350144058391,2
1503513681453,-0.467,+0.051,-0.596,-0.651,+0.740,-0.602,-0.272,-43.750,+7.750,-5.188,-5, -5, -4, 3, 4, 2, 4, 16,0.7751097200513866,1.19857519358897,2
1503513681476,-0.471,+0.044,-0.594,-0.651,+0.722,-0.562,-0.272,-46.500,+15.812,-7.938,-4, -3, -4, -10, -10, -3, -7, -7,0.7930537328119487,1.1930253970818658,2
1503513681491,-0.474,+0.035,-0.593,-0.650,+0.733,-0.532,-0.233,-50.250,+21.688,-10.688,-3, -1, 1, 0, 0, -3, -2, -6,0.8089865233586212,1.1912672461591232,2
1503513681515,-0.478,+0.025,-0.591,-0.649,+0.767,-0.532,-0.266,-51.750,+25.875,-10.688,4, -14, -13, -5, -6, 0, 5, 2,0.8287302878465806,1.1869298061267055,2
1503513681535,-0.482,+0.016,-0.589,-0.648,+0.749,-0.557,-0.296,-53.562,+23.062,-12.188,5, 5, 4, 4, 2, 0, 3, 21,0.8475484380180316,1.1828456367300781,2
1503513681551,-0.486,+0.008,-0.586,-0.648,+0.745,-0.577,-0.303,-54.438,+15.938,-15.812,3, 7, 0, -5, -7, -2, 3, 12,0.8662348996783321,1.1761412414656471,2
1503513681575,-0.490,-0.001,-0.583,-0.648,+0.795,-0.566,-0.326,-53.562,+13.312,-15.375,-1, 4, 3, 4, 0, -1, -3, -10,0.8857584644714849,1.1703964815222594,2
1503513681595,-0.494,-0.009,-0.579,-0.648,+0.815,-0.515,-0.334,-54.875,+12.250,-5.625,-2, -11, -5, -2, -2, -2, -3, -8,0.9043102108441589,1.1615155475910695,2
1503513681611,-0.499,-0.016,-0.574,-0.649,+0.788,-0.487,-0.351,-57.500,+0.625,-3.312,4, -8, -5, 3, 7, 4, 3, 6,0.925439982405904,1.150045735205962,2
