Timestamp,Orientation X,Orientation Y,Orientation Z,Orientation W,Accelerometer X,Accelerometer Y,Accelerometer Z,Gyroscope X,Gyroscope Y,Gyroscope Z,EMG1,EMG2,EMG3,EMG4,EMG5,EMG6,EMG7,EMG8
1503697313336,+0.910,+0.242,-0.127,-0.312,+0.536,+0.087,-0.812,-1.000,-0.062,+0.625,-2, 0, 0, -1, -1, 0, 0, -3
1503697313364,+0.910,+0.242,-0.127,-0.312,+0.544,+0.086,-0.809,-0.812,+0.438,+0.688,0, 0, -2, 0, -1, 0, -1, -2
1503697313380,+0.910,+0.242,-0.127,-0.312,+0.549,+0.085,-0.812,-0.750,+0.375,+0.750,-1, -1, 0, -1, -2, 0, -1, -1
1503697313396,+0.910,+0.242,-0.127,-0.312,+0.543,+0.081,-0.815,-1.125,-0.312,+0.688,-1, 0, -1, 0, -1, -2, -1, 0
1503697313419,+0.910,+0.242,-0.127,-0.312,+0.544,+0.086,-0.817,-1.250,+0.188,+0.562,-1, -1, -1, 0, 0, -2, -2, -1
1503697313441,+0.910,+0.242,-0.127,-0.312,+0.539,+0.083,-0.812,-1.062,-0.438,+0.875,-2, -1, -1, -1, -1, 1, 0, 0
1503697313456,+0.910,+0.242,-0.127,-0.312,+0.548,+0.079,-0.809,-1.062,-0.062,+0.750,1, -1, 1, 1, 0, 0, 0, 0
1503697313479,+0.910,+0.242,-0.127,-0.312,+0.541,+0.082,-0.813,-0.875,-0.562,+0.375,-1, -2, -1, -2, 0, -1, 0, -2
1503697313502,+0.910,+0.242,-0.127,-0.312,+0.534,+0.080,-0.817,-1.062,-0.562,+0.562,0, 0, -1, 0, 0, -2, 0, 0
1503697313516,+0.910,+0.242,-0.127,-0.312,+0.546,+0.086,-0.809,-1.375,+0.000,+0.312,-3, -2, -1, -1, -2, -1, -1, -2
1503697313539,+0.910,+0.242,-0.127,-0.312,+0.542,+0.090,-0.815,-0.875,+0.250,+0.688,2, 1, -2, -1, -1, 0, -1, -1
1503697313568,+0.910,+0.242,-0.127,-0.312,+0.540,+0.083,-0.819,-0.875,-0.438,+1.125,1, -1, -1, -2, 0, -2, -1, -1
1503697313577,+0.910,+0.242,-0.127,-0.312,+0.544,+0.079,-0.805,-1.312,+0.250,+0.750,-1, 0, -1, -1, -1, -1, 1, 0
1503697313599,+0.910,+0.242,-0.127,-0.312,+0.539,+0.086,-0.814,-1.625,+0.000,+0.625,1, 0, 1, -2, 0, 0, 0, 0
1503697313621,+0.910,+0.242,-0.127,-0.312,+0.546,+0.089,-0.806,-1.312,+0.688,+0.812,0, 0, -1, 0, 0, 0, -1, 0
1503697313641,+0.910,+0.242,-0.127,-0.312,+0.547,+0.080,-0.813,-1.312,-0.312,+0.875,-2, -1, -2, 0, -1, -1, 0, -1
1503697313660,+0.910,+0.242,-0.127,-0.312,+0.543,+0.088,-0.817,-1.000,-0.812,+0.562,-1, -1, -2, -1, -2, -1, 1, 0
1503697313680,+0.910,+0.242,-0.127,-0.312,+0.537,+0.082,-0.811,-1.000,+0.125,+0.688,-2, -1, 0, 0, -1, 0, -1, -2
1503697313696,+0.910,+0.242,-0.127,-0.312,+0.543,+0.086,-0.810,-1.125,+0.375,+0.750,-2, -1, 0, -1, 0, 0, 0, -1
1503697313718,+0.910,+0.242,-0.127,-0.312,+0.554,+0.088,-0.810,-1.125,+0.500,+0.625,1, -2, -1, 0, -1, -1, -1, -1
1503697313741,+0.910,+0.242,-0.127,-0.312,+0.550,+0.086,-0.809,-1.000,-0.562,+0.750,0, 1, -1, -1, 1, -1, 0, 0
1503697313756,+0.910,+0.243,-0.127,-0.312,+0.549,+0.080,-0.810,-0.875,-0.500,+0.562,0, -2, -1, 0, -1, -1, 0, 0
1503697313781,+0.910,+0.242,-0.127,-0.312,+0.539,+0.085,-0.824,-0.812,-0.438,+0.688,-2, 1, 0, 0, -1, -2, 0, 0
1503697313803,+0.910,+0.242,-0.127,-0.312,+0.537,+0.084,-0.811,-1.125,-0.750,+0.500,-1, -2, -1, -1, -1, 0, -2, 0
1503697313816,+0.910,+0.243,-0.127,-0.312,+0.543,+0.085,-0.809,-0.812,+1.312,+0.562,-2, -1, -1, 0, -1, -1, 0, -1
1503697313848,+0.910,+0.243,-0.127,-0.312,+0.546,+0.085,-0.819,-0.812,+0.062,+0.750,-1, -1, -1, 0, -1, -2, -1, 0
1503697313861,+0.910,+0.243,-0.127,-0.312,+0.556,+0.072,-0.806,-1.000,+0.500,+0.500,-1, -2, -1, -2, -2, -2, -1, 0
1503697313876,+0.910,+0.243,-0.127,-0.312,+0.542,+0.081,-0.810,-1.438,+0.125,+0.688,-1, -1, -2, 0, -2, -2, -1, 0
1503697313898,+0.910,+0.243,-0.127,-0.312,+0.543,+0.088,-0.813,-1.562,-1.062,+0.312,1, 0, 0, 1, -1, 0, -1, -1
1503697313921,+0.910,+0.243,-0.127,-0.312,+0.542,+0.089,-0.805,-0.938,+0.625,+0.750,0, 1, -1, 0, 0, -2, -2, -1
1503697313939,+0.910,+0.243,-0.127,-0.312,+0.542,+0.084,-0.824,-0.875,-0.625,+0.812,0, -1, -1, -1, -1, -1, -2, 0
1503697313958,+0.910,+0.243,-0.127,-0.312,+0.545,+0.080,-0.804,-1.000,+0.188,+0.625,-1, 1, -3, -1, -2, 0, -1, -1
1503697313981,+0.910,+0.243,-0.127,-0.312,+0.543,+0.082,-0.808,-1.250,+0.062,+0.625,0, 0, 2, -1, 0, 0, -1, -1
1503697313996,+0.910,+0.243,-0.127,-0.312,+0.551,+0.085,-0.805,-1.562,-0.375,+0.562,0, 0, -1, 0, -1, 0, 0, -3
1503697314018,+0.910,+0.243,-0.127,-0.312,+0.551,+0.086,-0.802,-1.250,+0.125,+0.750,-3, 0, -1, -1, 0, -2, 0, -2
1503697314041,+0.910,+0.243,-0.127,-0.312,+0.534,+0.088,-0.821,-1.062,-1.188,+0.625,-3, -2, -1, -1, 0, -1, -1, 0
1503697314056,+0.910,+0.243,-0.127,-0.312,+0.540,+0.081,-0.813,-1.000,+0.312,+0.500,-1, -2, -1, -2, -1, -1, -1, 1
1503697314079,+0.910,+0.243,-0.127,-0.312,+0.542,+0.084,-0.810,-0.938,+0.938,+0.375,-1, -1, 0, 0, 0, 0, 0, -1
1503697314106,+0.910,+0.243,-0.127,-0.312,+0.557,+0.086,-0.805,-1.312,-0.062,+0.062,-1, 0, -2, -3, 1, -1, 0, -1
1503697314128,+0.910,+0.243,-0.127,-0.312,+0.556,+0.077,-0.810,-0.938,+0.312,+0.625,0, -1, 0, -1, -1, -1, -3, -1
1503697314140,+0.910,+0.243,-0.126,-0.312,+0.540,+0.085,-0.812,-1.375,-1.875,+0.625,1, -2, -1, -1, -1, -1, 0, 0
1503697314161,+0.910,+0.243,-0.126,-0.312,+0.542,+0.085,-0.810,-1.188,+0.062,+0.625,-1, 0, 0, -1, -1, 0, 0, -1
1503697314179,+0.910,+0.243,-0.126,-0.312,+0.538,+0.083,-0.816,-0.938,+0.375,+0.750,-1, 0, -1, -1, -1, -1, -1, -2
1503697314198,+0.910,+0.243,-0.126,-0.312,+0.549,+0.082,-0.811,-1.062,+0.125,+0.438,-1, 0, 0, -1, 0, -1, -1, -2
1503697314221,+0.910,+0.243,-0.126,-0.312,+0.546,+0.082,-0.806,-1.062,-0.250,+0.500,0, 0, 0, 0, -2, 0, 0, 1
1503697314237,+0.910,+0.243,-0.126,-0.312,+0.547,+0.084,-0.814,-0.938,-0.375,+0.625,1, -2, -1, 0, -1, -3, 0, -2
1503697314259,+0.910,+0.243,-0.126,-0.312,+0.544,+0.081,-0.805,-1.312,-0.875,+0.562,-1, -2, -1, -2, 0, 0, -1, 0
1503697314281,+0.910,+0.243,-0.126,-0.312,+0.539,+0.085,-0.815,-1.188,-0.438,+0.750,-1, -2, -1, -2, -2, -1, 0, -1
1503697314299,+0.910,+0.243,-0.126,-0.312,+0.541,+0.087,-0.810,-1.000,-0.500,+0.750,-2, 0, -1, 1, -1, -2, -1, -1
1503697314319,+0.910,+0.243,-0.126,-0.312,+0.542,+0.084,-0.818,-0.938,+0.125,+1.125,-1, 0, -1, -2, -1, -2, -1, 0
1503697314341,+0.910,+0.243,-0.126,-0.312,+0.546,+0.084,-0.809,-1.062,+0.125,+0.938,0, 1, -1, -2, 0, -1, 0, -2
1503697314355,+0.910,+0.243,-0.126,-0.312,+0.545,+0.074,-0.809,-1.250,+0.125,+0.750,-1, 0, -1, 1, -1, 1, -1, -1
1503697314377,+0.910,+0.243,-0.126,-0.312,+0.548,+0.079,-0.812,-1.500,-0.500,+0.500,1, -1, -2, 0, 0, 1, -1, 0
1503697314412,+0.910,+0.243,-0.126,-0.312,+0.543,+0.087,-0.811,-1.438,-0.312,+0.375,0, 0, -2, -1, 0, -1, -1, -1
1503697314417,+0.910,+0.243,-0.126,-0.312,+0.532,+0.082,-0.807,-1.000,-0.188,+0.500,1, 0, 0, 1, -1, -2, -1, -1
1503697314437,+0.910,+0.243,-0.126,-0.312,+0.551,+0.084,-0.809,-0.625,+0.625,+0.625,1, 0, -2, -1, 0, -1, -1, 0
1503697314460,+0.910,+0.243,-0.126,-0.312,+0.546,+0.075,-0.815,-1.062,-0.250,+0.625,-1, -1, 0, -2, -2, 0, -1, 1
1503697314478,+0.910,+0.243,-0.126,-0.312,+0.540,+0.084,-0.814,-1.312,-0.438,+0.625,-2, -2, -2, 0, -2, 0, 0, -1
1503697314498,+0.910,+0.243,-0.126,-0.312,+0.548,+0.079,-0.803,-1.438,+0.188,+0.688,1, -1, -1, -1, 0, -1, 0, 1
1503697314520,+0.910,+0.243,-0.126,-0.312,+0.548,+0.089,-0.819,-1.125,-0.750,+0.562,1, -1, -2, -1, -1, -1, 0, 0
1503697314536,+0.910,+0.243,-0.126,-0.312,+0.538,+0.089,-0.816,-0.562,-0.562,+0.688,0, -2, -1, -4, 0, -1, -1, -1
1503697314557,+0.910,+0.243,-0.126,-0.312,+0.534,+0.076,-0.812,-0.812,-0.438,+0.500,-2, 0, 0, 0, -3, -1, -3, 0
1503697314580,+0.910,+0.243,-0.126,-0.312,+0.548,+0.075,-0.814,-1.125,+0.812,+0.562,0, -2, 1, -1, 0, 0, 0, -1
1503697314596,+0.910,+0.243,-0.126,-0.312,+0.548,+0.084,-0.810,-1.688,+0.188,+0.750,-1, 1, 0, -1, -1, -1, -1, -1
1503697314618,+0.910,+0.243,-0.126,-0.312,+0.552,+0.084,-0.802,-1.562,+0.062,+0.750,-1, 1, -2, 0, 0, -1, 0, -3
1503697314642,+0.910,+0.243,-0.126,-0.312,+0.542,+0.090,-0.811,-1.062,-1.062,+0.750,0, -2, -1, 0, -1, -1, -2, -1
1503697314656,+0.910,+0.243,-0.126,-0.312,+0.535,+0.077,-0.819,-0.750,-0.812,+0.625,0, -1, 0, 1, -1, -1, -1, -1
1503697314677,+0.910,+0.243,-0.126,-0.312,+0.535,+0.083,-0.816,-0.875,-0.062,+0.688,-1, -3, -2, -1, -2, 0, 0, -1
1503697314700,+0.910,+0.243,-0.126,-0.312,+0.548,+0.077,-0.804,-1.188,+0.750,+0.625,1, -1, -2, -2, 1, -3, -1, -1
1503697314722,+0.910,+0.243,-0.126,-0.312,+0.551,+0.082,-0.809,-1.000,+0.375,+0.812,-2, -3, 0, -1, -1, -1, -1, -2
1503697314737,+0.910,+0.243,-0.126,-0.312,+0.548,+0.083,-0.809,-1.000,-0.625,+0.875,2, 1, 0, -1, 1, 1, 0, -2
1503697314760,+0.910,+0.243,-0.126,-0.312,+0.538,+0.082,-0.814,-0.938,+0.375,+0.750,-1, -1, 0, 0, -2, -1, -1, 1
1503697314784,+0.910,+0.243,-0.126,-0.312,+0.532,+0.080,-0.814,-1.000,-0.125,+0.750,1, 1, -1, -1, -1, 0, 2, 1
1503697314797,+0.910,+0.243,-0.126,-0.312,+0.546,+0.080,-0.805,-1.250,+1.375,+0.438,0, 0, 0, -2, 2, -1, -2, 0
1503697314820,+0.910,+0.244,-0.126,-0.312,+0.556,+0.084,-0.814,-1.250,-0.062,+0.500,-1, -1, -1, 1, -2, -3, -1, -2
1503697314845,+0.910,+0.243,-0.126,-0.312,+0.547,+0.082,-0.811,-1.500,-1.375,+0.562,-2, -1, -1, 0, -1, -1, 1, -1
1503697314857,+0.910,+0.243,-0.126,-0.312,+0.539,+0.082,-0.813,-1.312,-0.062,+0.500,-2, -1, -3, -2, 1, -2, -1, -3
1503697314880,+0.910,+0.243,-0.126,-0.312,+0.541,+0.086,-0.807,-1.312,-0.625,+0.500,0, 0, -2, -1, -1, -1, -2, -2
1503697314902,+0.910,+0.243,-0.126,-0.312,+0.544,+0.079,-0.812,-0.938,+0.375,+0.500,0, -1, 0, 0, -1, -1, -1, 2
1503697314917,+0.910,+0.243,-0.126,-0.312,+0.544,+0.080,-0.817,-1.000,+0.062,+0.625,-1, 0, -1, -1, -1, -1, -1, -2
1503697314940,+0.910,+0.243,-0.126,-0.312,+0.542,+0.083,-0.809,-1.125,+0.312,+0.750,-3, -1, 0, 0, -1, 0, -1, 0
1503697314962,+0.910,+0.243,-0.126,-0.312,+0.546,+0.078,-0.807,-0.938,+0.625,+0.938,1, 0, -2, -2, -2, -1, 0, 2
1503697314979,+0.910,+0.243,-0.126,-0.312,+0.557,+0.078,-0.808,-1.500,-0.688,+0.500,1, -1, -1, -1, 1, 2, -2, -1
1503697315000,+0.910,+0.243,-0.126,-0.312,+0.549,+0.089,-0.814,-1.188,-0.812,+0.438,0, -2, -1, -2, 0, 0, -1, -1
1503697315022,+0.910,+0.243,-0.126,-0.312,+0.532,+0.083,-0.814,-0.875,-0.812,+0.625,-1, -2, -2, -2, -2, -3, 0, -2
1503697315037,+0.910,+0.243,-0.126,-0.312,+0.535,+0.088,-0.818,-1.062,+0.125,+0.562,0, 1, 0, 1, -1, -2, 0, -1
1503697315060,+0.910,+0.244,-0.126,-0.312,+0.548,+0.087,-0.813,-0.500,+1.062,+0.750,-3, -2, -2, -2, -1, 0, 0, -1
1503697315083,+0.910,+0.244,-0.126,-0.312,+0.551,+0.073,-0.806,-0.938,+0.000,+0.750,-1, 0, 0, 0, -1, -2, -1, 0
1503697315097,+0.910,+0.244,-0.126,-0.312,+0.552,+0.079,-0.814,-1.250,+0.000,+0.562,-1, 0, -2, -1, 0, 0, 0, -1
1503697315123,+0.910,+0.244,-0.126,-0.312,+0.541,+0.082,-0.813,-1.250,-0.250,+0.688,0, -2, 1, -1, 0, -2, 0, -1
1503697315142,+0.910,+0.244,-0.126,-0.312,+0.542,+0.078,-0.807,-1.250,-0.562,+0.500,0, 0, 0, 0, -2, 0, -1, -2
1503697315157,+0.910,+0.244,-0.126,-0.312,+0.541,+0.081,-0.822,-0.688,+0.875,+0.312,-2, 0, -1, -1, 0, -1, 0, 1
1503697315180,+0.910,+0.244,-0.126,-0.312,+0.541,+0.077,-0.811,-1.062,-0.438,+0.438,-1, 0, -2, 1, -1, -1, -3, -1
1503697315202,+0.909,+0.244,-0.126,-0.312,+0.555,+0.079,-0.803,-1.625,+0.875,+0.062,-1, -3, 0, -1, 1, -2, -1, -2
1503697315218,+0.909,+0.244,-0.126,-0.312,+0.551,+0.087,-0.809,-1.250,+0.000,+0.625,0, 0, 0, 0, 0, -1, 0, 0
1503697315240,+0.909,+0.244,-0.126,-0.312,+0.554,+0.086,-0.810,-1.312,-1.188,+0.812,-2, -1, 0, 0, -1, 0, -2, -2
1503697315256,+0.909,+0.244,-0.126,-0.312,+0.544,+0.085,-0.814,-0.750,-1.125,+0.562,0, 0, -1, -2, 0, 0, -1, 2
1503697315278,+0.909,+0.244,-0.126,-0.312,+0.534,+0.082,-0.812,-0.688,-0.938,+0.500,0, -1, 0, -1, -2, 0, 0, -1
1503697315300,+0.909,+0.244,-0.126,-0.312,+0.540,+0.071,-0.815,-1.500,-0.562,+0.125,0, 0, -1, -2, -1, 0, 0, 0
1503697315316,+0.909,+0.244,-0.126,-0.312,+0.545,+0.084,-0.815,-1.562,+1.062,+0.188,1, -1, -2, 0, -1, -2, 0, -1
1503697315347,+0.909,+0.244,-0.126,-0.312,+0.543,+0.079,-0.811,-1.625,-0.125,+0.438,0, 1, -1, -1, 0, -1, 0, 0
1503697315362,+0.909,+0.244,-0.126,-0.312,+0.556,+0.081,-0.817,-1.562,+0.188,-0.062,-1, -1, -2, -1, -1, -1, 0, -1
1503697315382,+0.909,+0.244,-0.126,-0.312,+0.544,+0.093,-0.812,-1.750,-1.062,+0.250,-3, -1, -2, -2, 0, -1, 0, -1
1503697315398,+0.909,+0.244,-0.126,-0.312,+0.535,+0.072,-0.804,-1.625,-1.000,+0.375,1, -1, 1, 0, -3, -2, -1, -1
1503697315420,+0.909,+0.244,-0.126,-0.312,+0.549,+0.093,-0.813,-2.062,+1.062,+0.312,-2, -1, -1, -2, -1, -2, -1, 0
1503697315442,+0.909,+0.244,-0.127,-0.312,+0.541,+0.093,-0.819,-1.562,-0.250,+0.938,0, -1, -1, -1, 0, -4, -2, 0
1503697315457,+0.909,+0.244,-0.126,-0.312,+0.542,+0.082,-0.806,-1.250,+0.000,+0.875,-2, -2, -1, 0, -1, -1, -1, 0
1503697315482,+0.909,+0.244,-0.126,-0.312,+0.560,+0.082,-0.811,-1.125,+0.562,+0.625,0, 0, 1, 0, 0, -1, -2, -2
1503697315502,+0.909,+0.244,-0.126,-0.312,+0.542,+0.083,-0.809,-0.875,-0.812,+0.562,-1, -1, -3, -1, -2, 1, -1, -1
1503697315518,+0.909,+0.244,-0.126,-0.312,+0.546,+0.081,-0.805,-0.188,+0.188,+0.375,-3, 0, -1, -2, -7, -1, 0, 0
1503697315541,+0.909,+0.244,-0.126,-0.312,+0.545,+0.072,-0.817,-0.688,-0.438,+0.438,-3, -2, -1, -1, 7, 0, 0, -2
1503697315562,+0.909,+0.244,-0.126,-0.312,+0.541,+0.072,-0.817,-1.438,-0.438,+0.000,1, -3, -1, 0, 2, -2, 0, 1
1503697315577,+0.909,+0.244,-0.127,-0.312,+0.544,+0.083,-0.811,-1.750,+0.812,+0.000,-1, 0, -1, -1, -2, -1, 0, 1
1503697315600,+0.909,+0.244,-0.127,-0.312,+0.551,+0.088,-0.811,-1.688,+0.125,+0.562,1, 1, -1, -1, -1, 0, -1, -3
1503697315622,+0.909,+0.244,-0.127,-0.312,+0.547,+0.084,-0.822,-1.250,-0.562,+0.375,0, 0, -1, -1, -2, 1, -1, -1
1503697315638,+0.909,+0.244,-0.127,-0.312,+0.538,+0.085,-0.816,-1.062,-0.688,+0.375,0, 0, -2, -1, -2, -1, -2, 0
1503697315660,+0.909,+0.244,-0.127,-0.312,+0.536,+0.083,-0.817,-1.125,-0.188,+0.250,0, 0, 1, -1, -2, -2, -1, -1
1503697315686,+0.909,+0.244,-0.127,-0.312,+0.542,+0.078,-0.814,-1.312,+0.938,+0.000,0, 0, -2, -2, -1, 0, -1, 0
1503697315697,+0.909,+0.245,-0.127,-0.312,+0.552,+0.088,-0.810,-1.500,+0.062,+0.062,-3, 0, 0, -1, -1, 1, -2, -2
1503697315720,+0.909,+0.245,-0.127,-0.312,+0.547,+0.078,-0.807,-1.375,-0.625,+0.188,-1, -1, 0, -1, -3, -3, -1, -1
1503697315742,+0.909,+0.245,-0.127,-0.312,+0.547,+0.085,-0.822,-1.375,-0.812,+0.125,1, 1, 0, -1, 0, 0, -3, 0
1503697315759,+0.909,+0.244,-0.127,-0.312,+0.542,+0.084,-0.806,-1.812,-1.812,-0.125,-1, -1, 0, 0, -1, -2, 1, -1
1503697315780,+0.909,+0.244,-0.127,-0.312,+0.537,+0.087,-0.820,-1.438,+0.188,+0.000,1, -3, -2, -1, -2, -1, -1, -1
1503697315802,+0.909,+0.244,-0.127,-0.312,+0.542,+0.090,-0.814,-1.188,-0.250,+0.438,-3, -3, -2, -1, -1, -1, -3, 0
1503697315818,+0.909,+0.244,-0.127,-0.312,+0.544,+0.087,-0.804,-1.312,-0.250,+0.250,0, -1, -1, 0, 0, 1, -1, -1
1503697315841,+0.909,+0.244,-0.127,-0.312,+0.547,+0.095,-0.817,-0.750,+0.375,+0.500,0, -1, -1, -1, 0, 0, 1, 0
1503697315862,+0.909,+0.244,-0.127,-0.312,+0.546,+0.069,-0.807,-0.750,-1.062,+0.750,-1, -1, -1, 0, 0, 0, 0, -2
1503697315877,+0.909,+0.244,-0.127,-0.312,+0.546,+0.080,-0.813,-1.625,-0.188,+0.000,-1, -1, 0, -1, 0, -2, -1, -1
1503697315900,+0.909,+0.244,-0.127,-0.312,+0.542,+0.087,-0.812,-1.812,-0.812,+0.000,1, 0, -1, -1, -2, -1, -2, 1
1503697315923,+0.909,+0.244,-0.127,-0.312,+0.536,+0.085,-0.807,-1.938,-0.188,+0.438,-3, 0, -1, -1, -2, -1, -1, 0
1503697315937,+0.909,+0.244,-0.127,-0.312,+0.540,+0.091,-0.817,-1.750,-0.125,+0.625,0, 0, -1, -2, 0, 0, -1, -1
1503697315960,+0.909,+0.244,-0.127,-0.312,+0.544,+0.086,-0.811,-1.562,+0.562,+0.625,1, -1, 0, 0, 1, -1, 0, 0
1503697315986,+0.909,+0.244,-0.127,-0.312,+0.546,+0.090,-0.814,-1.438,+0.500,+0.625,2, -1, 0, -1, -1, -1, -1, 0
1503697315998,+0.909,+0.244,-0.127,-0.312,+0.548,+0.079,-0.801,-1.312,-0.312,+0.250,-1, -1, 0, -1, -2, 0, 0, 1
1503697316021,+0.909,+0.244,-0.127,-0.312,+0.548,+0.087,-0.813,-1.250,-0.688,+0.312,0, -1, 0, 0, -1, 0, 0, -2
1503697316043,+0.909,+0.244,-0.127,-0.312,+0.543,+0.088,-0.808,-1.188,-0.812,+0.562,-1, -1, -1, 1, -1, -2, -3, -1
1503697316058,+0.909,+0.244,-0.127,-0.312,+0.539,+0.083,-0.812,-1.000,-0.312,+0.562,-1, 0, -1, -1, 1, 0, 0, -2
1503697316080,+0.909,+0.244,-0.126,-0.312,+0.536,+0.083,-0.817,-1.125,+0.500,+0.562,-1, 0, 0, -1, 0, -2, -1, -2
1503697316102,+0.909,+0.244,-0.126,-0.312,+0.542,+0.088,-0.808,-1.000,+0.500,+0.625,0, -1, -2, -1, -1, -1, 0, 0
1503697316129,+0.909,+0.244,-0.127,-0.312,+0.547,+0.082,-0.808,-1.000,+1.000,+0.750,-1, -1, -1, -1, -1, 0, -2, -2
1503697316147,+0.909,+0.245,-0.127,-0.312,+0.555,+0.090,-0.807,-0.688,+0.812,+0.875,-1, -3, -1, -1, -1, -2, 0, -1
1503697316162,+0.909,+0.245,-0.127,-0.312,+0.543,+0.087,-0.808,-0.750,-0.438,+1.125,-1, -2, -2, -1, -1, 1, 0, 1
1503697316178,+0.909,+0.245,-0.127,-0.312,+0.544,+0.089,-0.812,-0.625,+0.312,+0.938,1, 0, -2, 1, 0, -1, -1, -2
1503697316200,+0.909,+0.245,-0.127,-0.312,+0.541,+0.085,-0.817,-0.312,+0.312,+1.000,-2, -2, -2, 0, -1, -3, 0, -2
1503697316223,+0.909,+0.245,-0.127,-0.312,+0.546,+0.090,-0.813,-0.250,+0.500,+1.000,0, 0, -2, 0, -1, 1, 0, -3
1503697316239,+0.909,+0.245,-0.127,-0.312,+0.552,+0.084,-0.809,-0.125,+0.812,+1.188,-2, 0, -2, -1, -1, -1, -1, 1
1503697316260,+0.909,+0.245,-0.126,-0.312,+0.548,+0.079,-0.814,-0.375,-0.375,+1.000,-2, -1, 2, -1, -1, -2, -3, 0
1503697316283,+0.909,+0.245,-0.126,-0.312,+0.546,+0.082,-0.812,-0.875,-0.250,+1.000,-1, -1, 0, -3, 1, -2, -1, -1
1503697316298,+0.909,+0.245,-0.126,-0.312,+0.543,+0.078,-0.803,-1.062,+0.250,+0.688,-1, -1, -2, -1, -1, 0, -1, -1
1503697316338,+0.909,+0.245,-0.126,-0.312,+0.540,+0.091,-0.812,-0.812,-0.062,+0.688,-1, -1, -1, 0, -1, -1, 0, 0
1503697316343,+0.909,+0.245,-0.126,-0.312,+0.544,+0.083,-0.803,-0.500,-0.375,+0.500,-1, -1, -2, -1, 0, 0, -2, 0
1503697316358,+0.909,+0.245,-0.126,-0.312,+0.544,+0.083,-0.813,-0.312,+0.375,+0.500,-1, 2, 0, -1, 0, -1, -1, -1
1503697316380,+0.909,+0.245,-0.126,-0.312,+0.542,+0.082,-0.812,-0.750,-0.438,+0.688,-2, 0, -1, -1, -1, -1, -2, 0
1503697316402,+0.909,+0.245,-0.126,-0.312,+0.543,+0.081,-0.806,-1.062,+0.938,+0.625,0, -1, 0, -1, 0, -1, -1, -1
1503697316424,+0.909,+0.245,-0.126,-0.312,+0.546,+0.080,-0.813,-1.125,-0.062,+0.812,-2, -4, -2, -1, -1, -1, -1, 0
1503697316440,+0.909,+0.245,-0.126,-0.312,+0.552,+0.085,-0.808,-1.312,-0.438,+0.312,1, 0, -1, 0, -1, -2, -1, 0
1503697316463,+0.909,+0.245,-0.126,-0.312,+0.547,+0.084,-0.813,-0.875,-0.062,+0.562,-1, -2, -1, -1, -1, -3, 1, 0
1503697316478,+0.909,+0.245,-0.126,-0.312,+0.535,+0.087,-0.818,-1.000,-0.812,+0.875,1, 0, 0, -1, -1, -1, -1, -2
1503697316500,+0.909,+0.245,-0.126,-0.312,+0.546,+0.086,-0.804,-0.625,+0.500,+0.688,0, -1, 0, 0, -1, -2, 0, 1
1503697316523,+0.909,+0.245,-0.126,-0.312,+0.549,+0.087,-0.816,-0.312,+0.625,+1.125,-2, -2, -2, -2, -1, 0, 0, -3
1503697316538,+0.909,+0.245,-0.126,-0.312,+0.546,+0.081,-0.812,-0.438,+0.062,+0.812,0, 0, 0, -1, -2, 1, 0, -2
1503697316561,+0.909,+0.245,-0.126,-0.312,+0.548,+0.077,-0.808,-0.688,+0.375,+0.750,-1, 0, 0, 1, -2, 0, -1, -2
1503697316600,+0.909,+0.245,-0.126,-0.312,+0.550,+0.081,-0.810,-1.250,-0.062,+1.000,-1, 0, -2, -1, -2, 0, -2, -2
1503697316609,+0.909,+0.245,-0.126,-0.312,+0.548,+0.080,-0.808,-1.375,+0.000,+0.938,-1, 0, -1, -2, 0, 0, -1, 0
1503697316625,+0.909,+0.245,-0.126,-0.312,+0.547,+0.082,-0.808,-1.125,-0.062,+1.000,-1, 0, -1, 0, 1, -1, -2, -2
1503697316642,+0.909,+0.245,-0.126,-0.312,+0.543,+0.081,-0.814,-0.938,+0.188,+0.500,-1, -2, -2, 0, 1, -1, -2, 0
1503697316658,+0.909,+0.245,-0.126,-0.312,+0.552,+0.084,-0.811,-0.750,+0.312,+0.625,-2, 0, -1, -1, -1, 0, 1, -2
1503697316680,+0.909,+0.245,-0.126,-0.312,+0.547,+0.079,-0.807,-1.000,+0.125,+0.500,-1, -3, 1, -2, -1, 0, -1, -2
1503697316703,+0.909,+0.245,-0.126,-0.312,+0.554,+0.080,-0.806,-1.438,-0.188,+0.312,0, 1, -1, -3, 0, 0, -2, 0
1503697316718,+0.909,+0.245,-0.126,-0.312,+0.553,+0.082,-0.819,-1.312,-0.875,+0.750,-2, 0, 0, 0, -1, -1, 1, -1
1503697316740,+0.909,+0.245,-0.126,-0.312,+0.537,+0.082,-0.811,-1.312,-1.562,+1.000,1, -2, -1, -2, -1, -2, -1, 0
1503697316762,+0.909,+0.245,-0.126,-0.312,+0.535,+0.084,-0.805,-1.125,+0.250,+0.688,-1, 0, -1, 0, 0, -2, 0, -1
1503697316778,+0.909,+0.245,-0.126,-0.312,+0.537,+0.078,-0.822,-0.875,+1.250,+0.688,0, -1, 0, -2, 0, -1, -1, -1
1503697316800,+0.909,+0.245,-0.126,-0.312,+0.557,+0.078,-0.802,-1.125,+0.438,+0.312,-2, -1, -1, -2, -2, 0, -3, -2
1503697316824,+0.909,+0.245,-0.126,-0.312,+0.557,+0.079,-0.806,-1.000,-0.312,+0.562,-1, -1, -1, -2, 0, 0, -1, -1
1503697316838,+0.909,+0.245,-0.126,-0.312,+0.541,+0.077,-0.810,-1.438,-1.312,+0.812,-1, -1, 0, 0, -1, -1, 2, 1
1503697316860,+0.909,+0.245,-0.126,-0.312,+0.540,+0.085,-0.810,-1.500,-0.625,+0.688,-1, -2, 1, -1, 0, 0, -1, -1
1503697316885,+0.909,+0.245,-0.126,-0.312,+0.541,+0.090,-0.814,-0.875,+0.312,+1.062,1, -1, -2, 1, -1, -1, 0, -1
1503697316902,+0.909,+0.245,-0.126,-0.312,+0.544,+0.078,-0.813,-0.625,+0.062,+0.750,0, -1, -1, -1, -1, -1, -2, 0
1503697316920,+0.909,+0.245,-0.126,-0.312,+0.546,+0.073,-0.807,-0.875,+0.500,+0.688,-1, 0, -2, -2, -2, -1, -1, -2
1503697316944,+0.909,+0.245,-0.126,-0.312,+0.554,+0.077,-0.804,-1.188,+0.375,+0.500,0, -1, -2, 0, -2, -1, -2, -1
1503697316959,+0.909,+0.245,-0.126,-0.312,+0.554,+0.082,-0.805,-1.688,-0.250,+0.688,-2, -2, 0, 0, -1, 0, 0, 0
1503697316980,+0.909,+0.245,-0.126,-0.312,+0.548,+0.083,-0.808,-1.250,-0.438,+0.562,-1, -1, -1, -1, 0, 0, -2, -1
1503697317002,+0.909,+0.245,-0.126,-0.312,+0.542,+0.088,-0.814,-1.062,-1.062,+0.375,0, -2, -2, 0, 0, 0, 0, 1
1503697317019,+0.909,+0.245,-0.126,-0.312,+0.541,+0.078,-0.812,-0.750,+0.000,+0.688,-1, -1, -2, -1, 1, 0, -2, 0
1503697317041,+0.909,+0.245,-0.126,-0.312,+0.546,+0.081,-0.806,-1.312,+0.188,+0.500,0, 0, 0, -1, 1, -1, -1, -2
1503697317062,+0.909,+0.245,-0.126,-0.312,+0.553,+0.085,-0.805,-1.125,+0.688,+0.688,0, -3, -3, -1, 0, -3, 0, 0
1503697317078,+0.909,+0.245,-0.126,-0.312,+0.554,+0.078,-0.815,-1.125,-0.250,+0.938,-1, -1, 1, -1, 0, -1, 0, -1
1503697317102,+0.909,+0.245,-0.126,-0.312,+0.550,+0.083,-0.812,-1.062,-1.000,+0.562,-1, 1, 0, -1, 0, -2, 0, 0
1503697317122,+0.909,+0.245,-0.126,-0.312,+0.541,+0.078,-0.812,-0.812,-0.688,+0.500,-1, 1, -2, 0, -2, 0, 0, -1
1503697317138,+0.909,+0.245,-0.126,-0.312,+0.540,+0.079,-0.812,-0.875,+0.125,+0.312,1, -1, -2, -1, 0, -1, 0, -1
1503697317161,+0.909,+0.245,-0.126,-0.312,+0.542,+0.084,-0.808,-0.938,-0.125,+0.375,0, 0, 0, -2, -1, -1, -1, 0
1503697317183,+0.909,+0.245,-0.126,-0.312,+0.553,+0.085,-0.814,-1.000,+0.500,+0.688,-2, 0, -1, -1, -1, 0, 0, -1
1503697317198,+0.909,+0.245,-0.126,-0.312,+0.553,+0.083,-0.806,-0.938,+0.000,+1.062,-2, -1, -1, -1, -1, -2, -1, 0
1503697317220,+0.909,+0.245,-0.126,-0.312,+0.546,+0.083,-0.811,-1.000,+0.000,+0.750,1, -1, -2, 0, 0, -3, -2, 0
1503697317242,+0.909,+0.245,-0.126,-0.312,+0.549,+0.080,-0.804,-0.688,+0.000,+0.562,0, 0, -2, 1, 0, 1, -2, 0
1503697317260,+0.909,+0.245,-0.126,-0.312,+0.542,+0.074,-0.810,-1.188,-0.188,+0.250,-3, -2, -1, 0, -2, -1, -1, -1
1503697317280,+0.909,+0.245,-0.126,-0.312,+0.547,+0.084,-0.812,-1.000,+0.438,+0.250,-2, -3, -2, -2, -2, -1, 0, -1
1503697317302,+0.909,+0.245,-0.126,-0.312,+0.555,+0.083,-0.809,-1.000,-0.188,+0.750,-1, -1, -1, -1, -1, 0, 0, -1
1503697317318,+0.909,+0.245,-0.126,-0.312,+0.544,+0.077,-0.809,-1.188,-0.812,+0.750,-2, -1, 0, 0, 0, -1, 0, 0
1503697317340,+0.909,+0.245,-0.126,-0.312,+0.543,+0.087,-0.809,-1.062,+0.625,+0.875,-1, -1, 0, -2, 0, 0, -1, 0
1503697317362,+0.909,+0.245,-0.126,-0.312,+0.551,+0.078,-0.811,-1.250,-0.312,+0.625,0, 0, -1, -1, 0, 1, 0, -1
1503697317378,+0.909,+0.245,-0.126,-0.312,+0.551,+0.077,-0.803,-0.750,+0.438,+0.438,0, 0, -1, -1, 0, 1, -1, -2
1503697317407,+0.909,+0.245,-0.126,-0.312,+0.543,+0.077,-0.816,-0.750,-0.875,+0.625,0, -1, -1, -1, -1, -2, -1, -1
1503697317430,+0.909,+0.245,-0.126,-0.312,+0.545,+0.073,-0.801,-1.125,-0.938,+0.500,0, -2, 0, 1, -2, -1, -2, -3
1503697317438,+0.909,+0.245,-0.126,-0.312,+0.542,+0.074,-0.819,-1.438,-0.062,+0.750,-2, -1, -1, -2, -1, -2, -1, -1
1503697317462,+0.909,+0.245,-0.126,-0.312,+0.542,+0.085,-0.814,-1.688,-0.688,+0.562,-4, -1, 0, 0, 0, 1, -1, -2
1503697317482,+0.909,+0.245,-0.126,-0.312,+0.547,+0.083,-0.810,-1.188,+0.875,+0.562,0, -1, 0, -1, -2, -3, -2, -1
1503697317498,+0.909,+0.245,-0.126,-0.312,+0.545,+0.088,-0.816,-0.938,-0.188,+0.438,0, 0, -1, -1, 0, -1, 0, 0
1503697317520,+0.909,+0.245,-0.126,-0.312,+0.551,+0.076,-0.803,-0.688,+0.250,+0.438,0, 0, -3, -1, -2, 0, 0, 0
1503697317542,+0.909,+0.245,-0.126,-0.312,+0.552,+0.072,-0.814,-1.062,+0.062,+0.750,-1, -1, -1, 0, 0, 0, 0, -1
1503697317558,+0.909,+0.245,-0.126,-0.312,+0.544,+0.083,-0.808,-1.312,-0.562,+0.750,0, -1, 0, -1, 1, -1, -1, -1
1503697317580,+0.909,+0.245,-0.126,-0.312,+0.542,+0.080,-0.808,-1.562,+0.062,+1.000,0, 1, 0, 0, 0, -1, -2, 0
1503697317605,+0.909,+0.245,-0.126,-0.312,+0.543,+0.084,-0.816,-1.250,-0.250,+0.875,-1, -2, -2, -1, 1, -1, 0, -2
1503697317618,+0.909,+0.245,-0.126,-0.312,+0.548,+0.079,-0.812,-0.875,+0.688,+0.625,-2, -1, 0, -1, 0, -2, -1, -1
1503697317641,+0.909,+0.245,-0.126,-0.312,+0.542,+0.078,-0.806,-0.812,+0.062,+0.375,-2, 0, -2, -1, -2, 0, -3, 1
1503697317663,+0.909,+0.245,-0.126,-0.312,+0.546,+0.076,-0.814,-1.312,+0.250,+0.375,0, 1, 0, 0, -1, -1, -1, -2
1503697317678,+0.909,+0.245,-0.126,-0.312,+0.549,+0.084,-0.808,-1.062,+0.375,+0.375,-1, -1, -3, 0, -2, -2, -2, -1
1503697317701,+0.909,+0.245,-0.126,-0.312,+0.551,+0.078,-0.814,-1.188,-0.438,+0.938,0, -1, -3, -1, -1, 0, -2, -1
1503697317722,+0.909,+0.245,-0.126,-0.312,+0.543,+0.081,-0.813,-1.062,-0.125,+0.750,-1, -2, -1, -2, -1, 0, 0, 0
1503697317741,+0.909,+0.245,-0.126,-0.312,+0.542,+0.076,-0.808,-1.062,-0.188,+0.500,-2, 1, -1, -1, -1, -1, 0, -1
1503697317760,+0.909,+0.245,-0.126,-0.312,+0.549,+0.080,-0.818,-1.125,+1.062,+0.312,0, -1, 0, -1, -1, -1, 0, -2
1503697317782,+0.909,+0.245,-0.126,-0.312,+0.551,+0.079,-0.808,-1.062,+0.000,+0.500,-3, 2, -1, -1, 0, 0, 0, -1
1503697317799,+0.909,+0.245,-0.126,-0.312,+0.550,+0.077,-0.812,-1.250,-0.188,+0.438,0, -2, -1, 0, -2, 0, 0, -2
1503697317820,+0.909,+0.245,-0.126,-0.312,+0.547,+0.083,-0.811,-0.938,-0.500,+0.562,-3, -1, -2, -1, -2, -2, -1, -2
1503697317843,+0.909,+0.245,-0.126,-0.312,+0.542,+0.079,-0.806,-1.125,-1.125,+0.625,-1, -1, -2, -2, -2, -1, -1, 1
1503697317859,+0.909,+0.245,-0.126,-0.312,+0.546,+0.085,-0.807,-1.000,+0.688,+0.812,0, 0, -2, 0, -1, -2, -1, 0
1503697317881,+0.909,+0.245,-0.126,-0.312,+0.548,+0.080,-0.809,-1.000,-0.188,+0.938,0, 0, -1, 0, -2, 0, -1, -1
1503697317905,+0.909,+0.245,-0.126,-0.312,+0.548,+0.079,-0.810,-1.250,+0.062,+0.875,-2, -1, -1, -1, 0, -2, -2, -1
1503697317918,+0.909,+0.245,-0.126,-0.312,+0.549,+0.078,-0.812,-1.062,+0.312,+0.812,0, -4, -1, 0, 0, 0, -2, 0
1503697317941,+0.909,+0.245,-0.125,-0.312,+0.544,+0.076,-0.811,-1.438,-0.938,+0.688,-1, -2, -1, 0, -1, 0, 0, 0
1503697317963,+0.909,+0.245,-0.125,-0.312,+0.545,+0.080,-0.808,-1.312,+0.500,+0.438,0, 1, 0, -1, -1, -3, -1, -2
1503697317978,+0.909,+0.245,-0.125,-0.312,+0.542,+0.083,-0.807,-1.188,-0.312,+0.625,1, -1, 0, -1, -1, -1, 0, -1
1503697318001,+0.909,+0.245,-0.125,-0.312,+0.551,+0.085,-0.814,-1.000,-0.312,+0.688,-1, 0, -2, -1, 0, -1, 0, -1
1503697318023,+0.909,+0.245,-0.125,-0.312,+0.552,+0.081,-0.804,-0.875,-0.250,+0.875,1, -2, -1, -1, -1, -1, -2, -2
1503697318038,+0.909,+0.245,-0.125,-0.312,+0.544,+0.079,-0.808,-1.000,-1.062,+0.562,-2, -3, 0, -1, -1, 0, -2, -1
1503697318061,+0.909,+0.245,-0.125,-0.312,+0.548,+0.077,-0.809,-0.938,-0.062,+0.500,-2, 2, -1, 0, 0, -1, -2, -1
1503697318083,+0.909,+0.245,-0.125,-0.312,+0.543,+0.076,-0.811,-0.938,-1.062,+0.312,-1, 0, -1, 1, 0, 1, -1, -2
1503697318100,+0.909,+0.245,-0.125,-0.312,+0.545,+0.078,-0.815,-1.375,-0.188,+0.188,0, -2, -2, -2, -1, 0, -1, -2
1503697318123,+0.909,+0.245,-0.125,-0.312,+0.546,+0.082,-0.812,-0.938,+0.188,+0.438,-1, -1, 0, 1, -3, -2, -1, -1
1503697318143,+0.909,+0.245,-0.125,-0.312,+0.547,+0.075,-0.810,-1.375,-0.062,+0.188,-2, 0, -2, 0, -2, 1, -1, 0
1503697318158,+0.909,+0.245,-0.125,-0.312,+0.549,+0.082,-0.808,-1.000,+0.375,+0.188,-1, 0, 0, -1, -1, -2, -1, -2
1503697318181,+0.909,+0.245,-0.125,-0.312,+0.546,+0.079,-0.806,-1.438,-0.625,+0.188,-1, 0, -2, -3, -1, 0, -1, -1
1503697318206,+0.909,+0.245,-0.125,-0.312,+0.551,+0.083,-0.808,-1.188,-0.312,+0.250,-1, -1, -1, -1, 1, -2, 0, -2
1503697318218,+0.909,+0.245,-0.125,-0.312,+0.539,+0.081,-0.813,-1.188,-0.312,+0.938,-1, 0, -1, -3, 0, -1, 0, 0
1503697318241,+0.909,+0.245,-0.125,-0.312,+0.539,+0.085,-0.809,-1.312,-0.312,+0.750,0, 0, -2, -1, 1, -1, 0, -1
1503697318263,+0.909,+0.245,-0.125,-0.312,+0.548,+0.079,-0.812,-0.750,+1.562,+0.875,0, -1, -1, -1, -2, -2, 2, -1
1503697318279,+0.909,+0.245,-0.125,-0.312,+0.553,+0.071,-0.812,-1.250,+0.062,+0.625,-1, 0, -1, 0, -1, -2, 0, 0
1503697318301,+0.909,+0.245,-0.125,-0.312,+0.557,+0.080,-0.798,-1.750,-0.188,+0.438,1, -1, -2, 0, -1, -1, -1, 0
1503697318323,+0.909,+0.245,-0.125,-0.312,+0.545,+0.085,-0.807,-1.375,+0.000,+0.812,-1, -1, -1, -2, -2, -5, -3, 0
1503697318338,+0.909,+0.245,-0.125,-0.312,+0.544,+0.081,-0.807,-1.625,-1.062,+0.812,-1, -2, -2, -1, -2, 1, -1, -2
1503697318361,+0.909,+0.245,-0.125,-0.312,+0.543,+0.083,-0.810,-0.812,+0.750,+0.938,1, -2, 0, 0, -2, -1, 0, -1
1503697318383,+0.909,+0.245,-0.125,-0.312,+0.537,+0.080,-0.807,-0.812,-0.125,+0.875,-1, -1, -1, 0, -1, 1, -1, -1
1503697318405,+0.909,+0.245,-0.125,-0.312,+0.549,+0.078,-0.802,-1.062,+0.875,+0.688,-2, -1, -1, -1, 0, 0, -1, 0
1503697318421,+0.909,+0.245,-0.125,-0.312,+0.554,+0.077,-0.810,-1.375,+0.625,+0.500,0, -1, 0, -1, 0, 0, 0, 0
1503697318443,+0.909,+0.245,-0.125,-0.312,+0.554,+0.080,-0.809,-1.438,-0.688,+0.688,-1, -2, 0, -2, -1, -1, -1, -1
1503697318465,+0.909,+0.245,-0.125,-0.312,+0.546,+0.075,-0.815,-1.375,-0.250,+0.625,-4, -2, 0, 0, -2, 0, -1, -1
1503697318481,+0.909,+0.245,-0.125,-0.312,+0.542,+0.085,-0.821,-1.125,-0.812,+0.312,-1, -1, -1, 0, -2, -1, -1, 1
1503697318503,+0.909,+0.245,-0.125,-0.312,+0.542,+0.077,-0.809,-1.000,+0.250,+0.125,-4, -3, -1, -1, -1, 0, 0, -1
1503697318525,+0.909,+0.245,-0.125,-0.312,+0.542,+0.081,-0.810,-0.875,+0.812,+0.312,2, 0, -1, -3, -2, -1, -2, -1
1503697318541,+0.909,+0.245,-0.125,-0.312,+0.550,+0.079,-0.808,-1.188,-0.312,+0.375,-2, 1, -2, -1, -1, -1, -1, 0
1503697318563,+0.909,+0.245,-0.125,-0.312,+0.556,+0.075,-0.810,-1.438,+0.625,+0.875,-1, 0, 0, -1, 0, -2, -1, 0
1503697318585,+0.909,+0.245,-0.125,-0.312,+0.545,+0.084,-0.818,-1.750,-1.188,+0.625,0, -1, 0, -1, 0, -3, -2, 0
1503697318601,+0.909,+0.245,-0.125,-0.312,+0.551,+0.080,-0.809,-1.125,-0.062,+0.688,1, 1, -1, -1, -1, -1, 0, -1
1503697318623,+0.909,+0.245,-0.125,-0.312,+0.542,+0.082,-0.812,-0.938,-1.062,+0.625,-1, -2, -3, -2, -1, -2, -1, 1
1503697318645,+0.909,+0.245,-0.125,-0.312,+0.541,+0.074,-0.808,-0.625,-0.125,+0.312,1, 0, -1, -1, -1, -1, 0, -2
1503697318661,+0.909,+0.245,-0.125,-0.312,+0.549,+0.075,-0.812,-1.000,+0.625,+0.375,-1, -2, -1, -1, -1, -1, 1, -2
1503697318690,+0.909,+0.245,-0.125,-0.312,+0.554,+0.083,-0.809,-1.312,+0.500,+0.375,1, -1, -1, -1, -1, 0, -2, 1
1503697318712,+0.909,+0.245,-0.125,-0.312,+0.553,+0.081,-0.807,-1.188,-0.250,+0.688,0, 2, 0, 0, 0, -1, -1, -2
1503697318721,+0.909,+0.245,-0.125,-0.312,+0.556,+0.083,-0.807,-1.312,-0.750,+0.438,-1, -1, 0, -1, -1, -2, -1, -1
1503697318743,+0.909,+0.245,-0.125,-0.312,+0.546,+0.078,-0.817,-1.000,-0.812,+0.500,0, 0, -1, 1, 1, -1, 0, 0
1503697318765,+0.909,+0.245,-0.125,-0.312,+0.543,+0.076,-0.806,-1.312,-0.562,+0.188,0, -1, 1, -1, -1, 0, -1, 2
1503697318781,+0.909,+0.245,-0.125,-0.312,+0.541,+0.081,-0.814,-1.375,-0.188,+0.062,1, -1, -1, -2, 1, 0, -1, -2
1503697318807,+0.909,+0.245,-0.125,-0.312,+0.546,+0.081,-0.816,-1.062,+0.812,+0.562,-1, -1, -1, 0, 0, 0, 1, -2
1503697318825,+0.909,+0.245,-0.125,-0.312,+0.551,+0.078,-0.816,-1.188,+0.062,+0.250,0, -1, 0, 1, -1, 0, -1, -1
1503697318841,+0.909,+0.245,-0.125,-0.312,+0.551,+0.083,-0.818,-1.062,+0.438,+0.250,0, -1, -2, -1, -1, -3, -2, 0
1503697318863,+0.909,+0.245,-0.125,-0.312,+0.549,+0.076,-0.806,-1.250,-0.500,+0.250,0, 0, -1, -2, -1, -1, 0, -2
1503697318885,+0.909,+0.245,-0.125,-0.312,+0.545,+0.078,-0.808,-1.625,-0.625,+0.062,0, 1, 0, 1, -1, -1, -2, -2
1503697318901,+0.909,+0.245,-0.125,-0.312,+0.545,+0.082,-0.812,-1.812,+0.188,+0.188,0, -1, 0, -1, -1, -1, -2, 0
1503697318923,+0.909,+0.245,-0.125,-0.312,+0.544,+0.085,-0.813,-1.688,-0.750,+0.250,0, 1, 0, 1, -1, -3, -1, -1
1503697318947,+0.909,+0.245,-0.125,-0.312,+0.549,+0.082,-0.806,-1.375,+0.125,+0.312,2, -2, -2, -2, 0, -1, 0, -2
1503697318961,+0.909,+0.245,-0.125,-0.312,+0.549,+0.076,-0.816,-1.375,-0.375,+0.125,-1, 0, 0, -1, -2, -1, 0, 1
1503697318983,+0.909,+0.245,-0.125,-0.312,+0.549,+0.077,-0.805,-2.062,-1.000,-0.375,-2, -2, -1, -2, -2, -1, -1, -1
1503697319007,+0.909,+0.245,-0.125,-0.312,+0.550,+0.086,-0.808,-1.875,+0.312,-0.312,-1, -1, -2, -1, 1, -1, -1, -1
1503697319021,+0.909,+0.245,-0.125,-0.312,+0.539,+0.088,-0.807,-1.562,-0.750,+0.188,-2, -3, 0, 1, -2, -1, -1, -2
1503697319044,+0.909,+0.245,-0.125,-0.312,+0.541,+0.081,-0.810,-1.500,-0.625,-0.125,0, -1, 0, -1, -1, 0, -1, 0
1503697319065,+0.909,+0.245,-0.125,-0.312,+0.546,+0.082,-0.812,-1.375,+0.375,-0.250,-1, 0, -1, 0, 0, -1, 0, -1
1503697319082,+0.909,+0.245,-0.125,-0.312,+0.544,+0.082,-0.809,-1.812,-0.625,+0.062,1, 0, -2, -2, -1, 0, 0, -1
1503697319103,+0.909,+0.245,-0.125,-0.312,+0.551,+0.086,-0.807,-2.062,+0.438,+0.250,-1, 1, 0, -1, -1, 0, -2, 0
1503697319125,+0.909,+0.245,-0.125,-0.312,+0.544,+0.087,-0.808,-1.875,-0.625,+0.500,-1, -1, 0, -1, 0, -1, 0, 0
1503697319141,+0.909,+0.245,-0.125,-0.312,+0.542,+0.083,-0.809,-1.500,-0.125,+0.312,-2, -1, 0, -1, -2, -2, 0, -1
1503697319163,+0.909,+0.245,-0.125,-0.312,+0.547,+0.081,-0.821,-1.562,-0.562,+0.125,2, -1, 0, -2, -2, -1, -1, -1
1503697319185,+0.909,+0.245,-0.125,-0.312,+0.539,+0.089,-0.808,-1.875,-0.500,+0.062,0, 0, -1, 0, 0, -1, -2, -1
1503697319201,+0.909,+0.245,-0.125,-0.312,+0.541,+0.092,-0.810,-1.500,+1.688,+0.625,0, 0, 0, -1, -1, 1, 0, -2
1503697319223,+0.909,+0.245,-0.125,-0.312,+0.552,+0.089,-0.807,-1.562,+0.625,+0.750,-2, 0, 0, -1, -1, -2, -1, -1
1503697319245,+0.909,+0.246,-0.125,-0.312,+0.553,+0.079,-0.808,-1.250,+1.375,+0.500,-1, -1, -1, 0, 0, 0, -2, -1
1503697319261,+0.909,+0.246,-0.126,-0.312,+0.538,+0.084,-0.807,-1.312,+1.188,-0.312,-3, -2, -1, 1, 0, 0, 1, 1
1503697319283,+0.909,+0.246,-0.126,-0.312,+0.550,+0.095,-0.806,-1.250,+2.750,-1.000,0, -1, -1, 0, 0, 0, -1, -1
1503697319308,+0.909,+0.247,-0.126,-0.311,+0.563,+0.091,-0.804,+0.688,+6.250,-1.188,0, -3, -2, -1, -2, -1, -1, -1
1503697319321,+0.908,+0.249,-0.126,-0.311,+0.580,+0.094,-0.779,+3.062,+9.938,-1.000,0, 1, -2, -1, -1, -1, -1, -1
1503697319343,+0.908,+0.252,-0.126,-0.310,+0.620,+0.070,-0.787,+6.438,+6.562,-1.875,1, 0, 0, -1, -1, 0, -1, 1
1503697319365,+0.908,+0.253,-0.125,-0.309,+0.646,+0.099,-0.821,+7.500,+2.625,-0.938,-1, 1, -1, -1, 0, 0, 0, 0
1503697319381,+0.908,+0.255,-0.124,-0.308,+0.665,+0.114,-0.827,+12.750,+4.688,+0.625,0, -1, 0, -1, 0, -1, -2, -2
1503697319404,+0.908,+0.258,-0.121,-0.307,+0.593,+0.113,-0.867,+25.000,+8.438,+3.250,0, -1, 0, 1, 0, -2, -2, 0
1503697319425,+0.908,+0.263,-0.117,-0.306,+0.569,+0.153,-0.892,+35.812,+26.562,+7.000,-3, -4, -2, -1, -2, 0, 0, -2
1503697319446,+0.906,+0.272,-0.112,-0.305,+0.569,+0.175,-0.914,+48.875,+51.875,+17.312,1, 2, 0, -8, -2, -3, -4, -1
1503697319463,+0.903,+0.285,-0.104,-0.303,+0.402,+0.168,-1.047,+71.750,+77.500,+25.125,0, 2, -1, -3, -4, -1, -1, -1
1503697319485,+0.899,+0.307,-0.093,-0.300,+0.401,+0.277,-0.932,+104.750,+113.438,+24.812,-4, -6, 2, -2, -6, -2, -2, -3
1503697319501,+0.889,+0.338,-0.080,-0.296,+0.853,+0.082,-0.767,+122.438,+161.562,+41.562,-3, -2, -3, -3, -1, -2, -3, -4
1503697319523,+0.880,+0.366,-0.067,-0.294,+0.672,+0.098,-0.843,+121.938,+141.312,+45.312,1, 0, -1, 0, -3, -1, -1, 2
1503697319545,+0.874,+0.382,-0.048,-0.296,+1.063,+0.021,-0.923,+118.625,+61.062,+71.875,0, 0, -4, 8, -1, 0, 1, -2
1503697319561,+0.871,+0.390,-0.025,-0.298,+0.967,-0.031,-0.842,+129.625,+10.062,+74.000,-1, -5, -6, -10, -7, -3, -4, -1
1503697319583,+0.869,+0.395,+0.002,-0.298,+0.769,-0.149,-0.781,+145.750,-21.562,+65.625,-3, -5, -3, -17, -2, -4, -1, 0
1503697319605,+0.867,+0.398,+0.031,-0.297,+0.625,-0.254,-0.766,+158.062,-24.688,+65.812,-2, 2, 5, 20, 12, 4, 1, 2
1503697319621,+0.863,+0.405,+0.061,-0.295,+0.605,-0.320,-0.757,+165.000,-8.625,+67.000,-2, 2, 9, -11, -5, 0, 2, 0
1503697319645,+0.858,+0.411,+0.091,-0.293,+0.612,-0.362,-0.647,+171.875,-6.188,+68.125,2, 0, -4, -10, -4, -3, -3, 2
1503697319666,+0.852,+0.418,+0.122,-0.291,+0.595,-0.476,-0.574,+176.938,-8.375,+70.000,-2, 1, 8, 23, 6, -2, -6, -5
1503697319689,+0.846,+0.423,+0.154,-0.287,+0.571,-0.532,-0.518,+177.688,-11.438,+65.188,1, 4, 4, 25, 5, 2, 1, 2
1503697319703,+0.839,+0.427,+0.185,-0.283,+0.545,-0.523,-0.459,+175.688,-17.062,+63.062,-2, -5, -9, -21, -5, -4, -2, -1
1503697319726,+0.831,+0.431,+0.215,-0.278,+0.498,-0.596,-0.375,+170.688,-19.750,+63.438,0, -1, 22, -6, 4, -1, 1, 0
1503697319740,+0.823,+0.435,+0.243,-0.274,+0.461,-0.644,-0.301,+162.438,-12.688,+57.750,-3, -3, 5, 5, -1, -2, -2, -3
1503697319762,+0.814,+0.439,+0.269,-0.270,+0.456,-0.623,-0.281,+152.750,-0.938,+52.875,3, 0, -9, -13, -4, 3, 3, 1
1503697319785,+0.804,+0.445,+0.293,-0.267,+0.423,-0.616,-0.262,+144.250,+7.500,+52.875,1, -2, -13, -11, -5, -1, -2, -1
1503697319801,+0.793,+0.450,+0.314,-0.264,+0.413,-0.635,-0.230,+134.375,+13.250,+49.375,-5, -2, -6, -5, -2, -3, -5, -4
1503697319822,+0.784,+0.455,+0.334,-0.260,+0.468,-0.641,-0.190,+122.875,+10.188,+42.250,6, 10, 28, 13, 4, 4, 4, 5
1503697319846,+0.776,+0.457,+0.351,-0.256,+0.489,-0.698,-0.149,+108.250,-4.000,+33.312,1, 1, -13, -2, -3, -1, -2, 1
1503697319860,+0.770,+0.459,+0.367,-0.250,+0.475,-0.728,-0.118,+90.438,-15.750,+21.750,0, 2, 2, -1, -2, -2, 1, 1
1503697319882,+0.765,+0.459,+0.379,-0.245,+0.449,-0.729,-0.108,+72.750,-20.250,+11.125,-3, -1, -4, -3, -3, -2, 0, -3
1503697319905,+0.762,+0.459,+0.389,-0.239,+0.466,-0.755,-0.083,+58.625,-24.312,+3.000,2, 3, 6, -3, -3, 0, -1, 0
1503697319920,+0.761,+0.459,+0.396,-0.233,+0.486,-0.811,-0.078,+40.500,-22.938,-4.688,-3, -8, -9, -2, 4, -1, -2, -3
1503697319942,+0.760,+0.459,+0.400,-0.229,+0.501,-0.848,-0.055,+23.125,-17.312,-12.438,1, -2, -7, -2, -3, -3, -1, 0
1503697319965,+0.759,+0.461,+0.401,-0.225,+0.548,-0.880,-0.052,+6.250,-7.688,-17.875,-4, -5, -4, -4, -4, -2, -6, -5
1503697319989,+0.760,+0.463,+0.399,-0.222,+0.589,-0.888,-0.065,-9.000,-2.688,-23.375,1, -1, 5, 1, 6, 2, 3, 4
1503697320002,+0.761,+0.465,+0.395,-0.219,+0.645,-0.904,-0.084,-20.688,-5.688,-30.000,-3, -6, -11, 0, 12, 4, -2, -3
1503697320025,+0.764,+0.467,+0.390,-0.215,+0.702,-0.921,-0.055,-28.188,-4.438,-36.188,-2, -5, -11, -2, 0, 0, 1, 0
1503697320048,+0.766,+0.471,+0.383,-0.213,+0.774,-0.936,-0.108,-32.812,+3.438,-33.500,0, 2, -3, -2, -8, -4, -2, 0
1503697320062,+0.768,+0.473,+0.376,-0.212,+0.654,-0.871,-0.204,-37.000,+11.562,-31.750,1, -6, -11, -8, -5, 0, -1, 1
1503697320087,+0.769,+0.477,+0.368,-0.213,+0.529,-0.787,-0.261,-36.250,+24.312,-31.625,7, 14, 25, 5, -7, 4, 3, 3
1503697320107,+0.771,+0.482,+0.358,-0.212,+0.668,-0.656,-0.369,-29.125,+37.250,-39.562,-2, -5, -6, 1, -5, -5, -1, 0
1503697320124,+0.775,+0.482,+0.351,-0.210,+0.353,-0.754,-0.707,-15.812,+18.688,-48.688,3, 8, 5, 6, 12, 1, 2, -2
1503697320144,+0.771,+0.505,+0.334,-0.198,+1.651,-0.671,+0.209,-29.500,+74.250,-86.625,-6, -7, -5, -7, -8, -5, -3, -1
1503697320167,+0.781,+0.489,+0.336,-0.193,+1.607,-0.050,-0.627,-5.250,-120.688,+21.250,0, -11, -9, -4, 1, 3, 2, 3
1503697320182,+0.786,+0.478,+0.338,-0.198,+0.426,-0.915,-0.226,-33.938,-49.000,+27.312,2, 9, 1, 1, 12, 1, -10, -7
1503697320205,+0.788,+0.476,+0.338,-0.196,+0.110,-0.183,-0.548,+21.312,+2.688,-13.250,8, -22, 7, 1, -12, -11, -8, 12
1503697320227,+0.779,+0.481,+0.342,-0.210,+0.637,-0.674,-0.498,+14.938,+84.188,+81.312,10, -26, 5, -2, 1, -9, -1, 5
1503697320242,+0.769,+0.492,+0.343,-0.220,+0.801,-0.462,-0.260,+17.062,+91.125,+57.188,24, 67, 63, 29, -45, 16, 19, 17
1503697320264,+0.764,+0.496,+0.346,-0.224,+0.906,-0.643,-0.321,+25.750,+37.875,+52.062,16, -2, -3, 22, 86, 49, 39, 23
1503697320287,+0.763,+0.493,+0.351,-0.228,+0.668,-0.696,-0.239,+10.250,-10.250,+45.125,-15, 36, 13, -1, -44, 6, -1, -10
1503697320302,+0.763,+0.488,+0.356,-0.231,+0.453,-0.654,-0.156,+2.062,-20.750,+30.938,-47, -92, -41, -36, 5, -17, -19, -25
1503697320325,+0.762,+0.485,+0.358,-0.236,+0.415,-0.631,-0.152,-8.375,-2.250,+33.625,-6, 7, 10, 7, -7, -5, -2, -7
1503697320349,+0.759,+0.487,+0.358,-0.243,+0.462,-0.616,-0.146,-16.125,+28.188,+30.312,-6, -8, -42, -19, 1, -21, -13, -8
1503697320362,+0.755,+0.492,+0.354,-0.250,+0.527,-0.593,-0.131,-23.312,+48.750,+21.562,7, 29, -6, -12, 20, 6, 7, 7
1503697320385,+0.752,+0.497,+0.349,-0.256,+0.550,-0.627,-0.174,-28.688,+56.188,+10.312,-5, 3, 5, 3, 24, 4, -4, 0
1503697320407,+0.749,+0.504,+0.341,-0.262,+0.560,-0.642,-0.230,-32.312,+58.562,-4.750,-5, -8, -10, 3, 4, 2, 10, 1
1503697320422,+0.747,+0.511,+0.332,-0.265,+0.573,-0.645,-0.239,-32.875,+58.938,-20.312,0, 0, -2, 7, -8, -3, 1, -1
1503697320445,+0.746,+0.519,+0.321,-0.267,+0.569,-0.672,-0.216,-39.500,+61.000,-35.562,1, 0, -4, -10, -1, -4, 0, 0
1503697320467,+0.745,+0.527,+0.308,-0.268,+0.554,-0.684,-0.215,-43.938,+62.688,-49.812,-1, 3, 0, 0, 18, 19, 8, 3
1503697320483,+0.744,+0.536,+0.294,-0.268,+0.588,-0.711,-0.209,-43.125,+67.625,-61.438,-2, -2, -3, -5, -10, -24, -11, -3
1503697320504,+0.743,+0.547,+0.279,-0.267,+0.637,-0.713,-0.222,-45.125,+72.562,-67.000,-2, -2, -4, -2, -9, -2, 4, -3
1503697320527,+0.741,+0.556,+0.265,-0.266,+0.692,-0.741,-0.255,-42.438,+70.250,-69.438,2, -2, -1, 6, -9, -21, -4, -3
1503697320543,+0.742,+0.564,+0.249,-0.263,+0.725,-0.755,-0.263,-45.375,+54.562,-78.062,-8, 0, 2, 3, -6, -18, -34, -14
1503697320565,+0.744,+0.569,+0.234,-0.260,+0.728,-0.724,-0.241,-49.438,+34.312,-83.250,-1, 3, 4, 3, 6, -2, 9, -1
1503697320588,+0.748,+0.572,+0.218,-0.255,+0.697,-0.657,-0.263,-57.125,+26.438,-89.125,9, 2, 1, 4, 15, 10, 66, 5
1503697320602,+0.752,+0.576,+0.201,-0.252,+0.739,-0.612,-0.283,-60.000,+27.438,-84.250,5, 0, 1, 4, 2, 17, -12, 3
1503697320625,+0.753,+0.579,+0.186,-0.250,+0.813,-0.673,-0.291,-56.500,+32.562,-69.438,-6, -5, -6, -17, -1, 0, -1, 3
1503697320647,+0.754,+0.582,+0.173,-0.249,+0.901,-0.677,-0.293,-54.312,+33.750,-56.500,-4, 5, 4, -6, -4, 33, 0, 2
1503697320662,+0.756,+0.584,+0.161,-0.249,+0.913,-0.650,-0.312,-52.250,+21.500,-48.188,-1, -3, -2, -5, -4, -6, -10, -2
1503697320685,+0.760,+0.581,+0.151,-0.250,+0.880,-0.639,-0.335,-50.875,-2.750,-41.000,-7, 9, 7, -7, 1, -4, -6, -7
1503697320707,+0.763,+0.579,+0.141,-0.249,+0.989,-0.626,-0.330,-47.500,-5.688,-38.500,-7, -3, -8, 12, 20, -5, -19, -3
1503697320722,+0.770,+0.571,+0.136,-0.250,+0.715,-0.650,-0.360,-42.312,-45.000,-31.000,-2, 5, -6, -15, -23, -12, -7, 1
1503697320745,+0.776,+0.565,+0.129,-0.249,+0.786,-0.581,-0.285,-47.562,-35.500,-37.188,1, -8, -4, -7, -8, -10, 6, 12
1503697320767,+0.781,+0.560,+0.122,-0.248,+0.742,-0.543,-0.321,-41.250,-24.312,-38.000,-7, -9, -5, -7, 1, 6, -1, -11
1503697320782,+0.785,+0.557,+0.117,-0.246,+0.765,-0.539,-0.321,-32.062,-19.500,-36.938,-14, -10, -4, 9, 6, 6, 5, 0
1503697320804,+0.788,+0.554,+0.111,-0.245,+0.804,-0.536,-0.318,-30.188,-14.562,-33.625,-5, 2, 1, 1, -4, 8, 13, -4
1503697320828,+0.791,+0.552,+0.106,-0.243,+0.864,-0.544,-0.302,-25.500,-17.938,-33.312,18, 17, 20, 23, 5, -2, -1, 15
1503697320842,+0.795,+0.548,+0.102,-0.240,+0.874,-0.533,-0.308,-22.000,-30.562,-34.875,0, -8, -6, -7, -6, -3, -4, 16
1503697320865,+0.799,+0.543,+0.099,-0.237,+0.806,-0.517,-0.326,-20.750,-32.562,-32.500,13, -7, -9, -12, 10, 6, 0, 15
1503697320887,+0.802,+0.540,+0.096,-0.235,+0.847,-0.500,-0.335,-17.125,-20.000,-29.000,-3, 18, 14, -1, -4, -14, 7, 5
1503697320902,+0.804,+0.539,+0.094,-0.233,+0.860,-0.496,-0.349,-13.062,-14.062,-22.250,-2, -6, -6, 3, 1, 5, -9, -21
1503697320925,+0.805,+0.538,+0.092,-0.232,+0.897,-0.480,-0.339,-10.438,-8.938,-18.750,-8, 9, 11, 4, 5, -1, -14, 1
1503697320948,+0.807,+0.537,+0.090,-0.230,+0.944,-0.458,-0.343,-10.562,-11.938,-15.000,-6, -11, -5, -1, -3, -30, -13, 0
1503697320963,+0.808,+0.535,+0.088,-0.229,+0.923,-0.441,-0.331,-9.812,-14.875,-11.438,-14, -7, -2, -2, -7, -13, -3, -17
1503697320989,+0.810,+0.533,+0.087,-0.229,+0.895,-0.427,-0.334,-10.562,-15.625,-6.875,8, 0, 1, -1, -1, 24, 0, -5
1503697321007,+0.810,+0.532,+0.086,-0.229,+0.921,-0.422,-0.341,-11.188,-10.188,-2.062,-2, -3, -2, -2, 1, -1, -6, -15
1503697321022,+0.811,+0.531,+0.086,-0.230,+0.947,-0.400,-0.382,-7.750,-7.625,+4.375,12, 5, 7, -1, -1, 8, 12, -1
1503697321044,+0.811,+0.530,+0.086,-0.231,+0.889,-0.380,-0.341,-6.688,-12.438,+7.625,9, 2, 1, 1, -2, 3, 4, 5
1503697321060,+0.812,+0.528,+0.086,-0.231,+0.864,-0.374,-0.368,-4.000,-13.125,+4.500,8, -8, -14, -5, -5, -14, -4, 20
1503697321082,+0.813,+0.526,+0.087,-0.232,+0.856,-0.366,-0.371,-3.875,-12.438,+4.438,4, 3, 0, 0, 3, 1, 0, -2
1503697321104,+0.814,+0.524,+0.087,-0.233,+0.852,-0.384,-0.388,-5.875,-13.688,+6.250,4, -1, -2, 0, -2, -4, 4, -5
1503697321121,+0.815,+0.522,+0.087,-0.234,+0.856,-0.390,-0.404,-7.500,-13.938,+10.062,4, -1, -2, 0, -3, -1, 0, 2
1503697321142,+0.816,+0.519,+0.089,-0.236,+0.900,-0.392,-0.398,-5.000,-19.625,+12.625,-8, 1, 3, -3, -3, -4, -4, -13
1503697321165,+0.819,+0.515,+0.090,-0.237,+0.815,-0.364,-0.438,-4.438,-27.938,+7.750,7, 5, 1, 0, -5, -1, 0, 9
1503697321188,+0.822,+0.509,+0.091,-0.237,+0.776,-0.367,-0.440,-0.562,-37.688,+4.125,2, 3, 0, -3, -3, 2, -4, 10
1503697321202,+0.826,+0.503,+0.094,-0.236,+0.736,-0.393,-0.458,+2.188,-38.500,-0.812,-4, -5, 0, 1, 0, -3, 0, 5
1503697321225,+0.829,+0.498,+0.095,-0.235,+0.667,-0.351,-0.484,+3.500,-30.375,-4.312,15, 0, -18, -2, 1, 2, 5, 11
1503697321247,+0.831,+0.495,+0.097,-0.233,+0.700,-0.351,-0.474,+7.812,-18.688,-4.688,-12, -10, 3, -1, -2, -2, -7, -14
1503697321269,+0.833,+0.493,+0.099,-0.231,+0.760,-0.413,-0.486,+11.250,-13.812,-6.125,-2, -4, -4, -1, -1, -2, 1, 2
1503697321284,+0.834,+0.492,+0.101,-0.230,+0.779,-0.418,-0.487,+8.812,-13.625,-4.188,12, 3, 6, 1, 3, 0, 1, 1
1503697321307,+0.835,+0.490,+0.102,-0.227,+0.746,-0.359,-0.481,+12.438,-10.312,-9.312,-4, -7, -8, -5, -2, 0, -1, 0
1503697321322,+0.836,+0.490,+0.104,-0.223,+0.696,-0.366,-0.451,+17.125,-7.750,-17.562,-8, 4, 3, 2, -1, -1, -2, -6
1503697321344,+0.837,+0.492,+0.104,-0.218,+0.715,-0.386,-0.413,+18.938,+4.562,-25.438,-2, -5, 5, 2, -1, -4, -2, -1
1503697321367,+0.835,+0.496,+0.104,-0.213,+0.782,-0.390,-0.426,+18.312,+21.500,-26.312,-8, 6, 9, -2, 0, 2, 1, 0
1503697321382,+0.833,+0.502,+0.103,-0.209,+0.845,-0.362,-0.426,+15.875,+34.875,-21.875,-6, -18, -9, -4, -5, -3, -2, 0
1503697321404,+0.830,+0.508,+0.103,-0.205,+0.876,-0.332,-0.424,+20.312,+34.125,-15.750,-2, 6, 5, 1, 1, -1, -1, -2
1503697321427,+0.828,+0.514,+0.103,-0.201,+0.890,-0.325,-0.380,+19.562,+30.625,-16.438,-1, 2, 7, 7, 7, 1, 3, -2
1503697321442,+0.825,+0.519,+0.102,-0.197,+0.948,-0.338,-0.392,+15.188,+28.875,-14.562,0, 5, 0, 0, 0, -3, -2, -2
1503697321467,+0.822,+0.526,+0.103,-0.194,+0.967,-0.326,-0.401,+19.688,+37.062,-6.312,-2, 2, 17, 5, 0, 2, -1, -1
1503697321487,+0.818,+0.532,+0.105,-0.192,+0.918,-0.303,-0.389,+29.000,+39.500,+2.312,-19, -15, -9, -5, -3, 0, -2, -2
1503697321502,+0.814,+0.538,+0.107,-0.191,+0.994,-0.375,-0.330,+20.812,+31.500,+7.938,4, -21, -8, -2, -3, -3, -1, 0
1503697321525,+0.810,+0.543,+0.109,-0.191,+1.035,-0.368,-0.289,+15.812,+22.500,+10.688,9, 19, 0, 1, 1, 1, 3, 2
1503697321547,+0.808,+0.546,+0.111,-0.190,+0.955,-0.362,-0.279,+13.938,+14.500,+8.250,12, 8, -11, -6, -13, -4, -2, 0
1503697321562,+0.806,+0.549,+0.112,-0.190,+0.912,-0.347,-0.294,+11.438,+16.188,+9.062,20, 16, 2, -2, 1, -1, 1, 0
1503697321584,+0.803,+0.553,+0.114,-0.191,+0.875,-0.361,-0.322,+11.812,+23.062,+15.750,-11, -4, -9, 0, 0, -2, -5, -8
1503697321607,+0.800,+0.556,+0.116,-0.193,+0.889,-0.384,-0.290,+8.750,+23.812,+17.188,-43, -75, -7, -3, 2, 2, 1, -1
1503697321624,+0.797,+0.560,+0.118,-0.195,+0.935,-0.391,-0.271,+3.750,+23.375,+18.875,8, 12, 8, -2, -3, -4, -3, -3
1503697321644,+0.794,+0.562,+0.119,-0.198,+0.879,-0.380,-0.281,+0.562,+21.188,+19.125,-20, -11, -5, -1, -1, -2, -3, -4
1503697321667,+0.791,+0.565,+0.120,-0.200,+0.841,-0.375,-0.293,-0.562,+23.188,+19.188,23, 28, -1, -1, 9, 6, 3, 0
1503697321682,+0.788,+0.568,+0.120,-0.204,+0.836,-0.397,-0.285,-3.688,+24.562,+21.125,27, 75, 7, 2, -2, -1, 2, 10
1503697321704,+0.785,+0.571,+0.120,-0.208,+0.850,-0.401,-0.267,-7.562,+30.625,+21.438,5, 3, 0, 4, 1, 1, 1, 0
1503697321727,+0.781,+0.575,+0.120,-0.211,+0.833,-0.394,-0.263,-6.562,+31.062,+16.750,6, -21, -1, -2, 1, -3, 0, 2
1503697321742,+0.779,+0.578,+0.119,-0.214,+0.822,-0.408,-0.264,-6.938,+28.125,+12.438,-33, -56, -9, 0, 3, 4, 4, -8
1503697321764,+0.776,+0.581,+0.118,-0.216,+0.807,-0.406,-0.272,-5.500,+31.375,+6.062,7, 8, -5, -3, -3, -1, -2, 2
1503697321787,+0.773,+0.585,+0.117,-0.217,+0.804,-0.413,-0.263,-4.500,+29.000,-0.625,-4, 12, -5, -5, 0, 1, 0, -1
1503697321809,+0.771,+0.587,+0.114,-0.217,+0.833,-0.417,-0.236,-5.750,+21.875,-8.625,16, 35, 5, -1, -1, -3, -3, 0
1503697321826,+0.770,+0.590,+0.112,-0.215,+0.810,-0.391,-0.255,-3.000,+19.500,-18.125,-8, 1, 2, -1, -3, -1, -4, -2
1503697321847,+0.770,+0.592,+0.109,-0.212,+0.809,-0.360,-0.281,+1.312,+19.375,-23.000,4, -10, -3, 2, -1, -1, 3, 3
1503697321863,+0.769,+0.594,+0.106,-0.209,+0.852,-0.386,-0.267,+1.750,+15.562,-22.125,17, 34, 6, 2, -3, -1, -1, -1
1503697321884,+0.769,+0.596,+0.104,-0.206,+0.860,-0.393,-0.273,+2.188,+12.000,-23.062,-10, -39, -2, -4, -4, -2, -4, -5
1503697321907,+0.770,+0.597,+0.101,-0.203,+0.868,-0.369,-0.271,+1.750,+9.500,-24.688,8, 21, -4, 2, 1, 2, -1, -2
1503697321923,+0.770,+0.597,+0.099,-0.200,+0.880,-0.385,-0.277,+0.812,+3.438,-21.562,-7, -23, -5, -6, -4, -1, 1, 3
1503697321945,+0.771,+0.597,+0.097,-0.198,+0.896,-0.416,-0.229,-3.188,-2.125,-16.500,11, 19, -3, 5, -1, -1, -2, 5
1503697321969,+0.771,+0.597,+0.096,-0.197,+0.903,-0.382,-0.224,-5.188,+0.625,-10.312,-13, -34, 0, -4, 1, 0, -1, -3
1503697321983,+0.772,+0.597,+0.094,-0.197,+0.868,-0.381,-0.232,-5.875,-0.625,-6.938,1, 9, 4, 3, 0, -3, -7, -7
1503697322004,+0.772,+0.597,+0.093,-0.197,+0.908,-0.386,-0.207,-8.750,+0.688,-6.375,5, 14, 2, -3, -4, -3, -3, -4
1503697322027,+0.772,+0.597,+0.091,-0.197,+0.928,-0.374,-0.214,-9.938,-1.000,-4.125,15, 19, -3, -2, 2, 1, 5, 7
1503697322043,+0.773,+0.597,+0.090,-0.197,+0.895,-0.353,-0.226,-7.750,+0.625,-3.438,-16, -31, -2, -1, 0, 1, -1, -7
1503697322065,+0.773,+0.597,+0.089,-0.197,+0.899,-0.374,-0.209,-8.188,-1.750,-4.188,-2, -2, -3, -3, -3, -10, -6, -3
1503697322087,+0.773,+0.596,+0.087,-0.197,+0.938,-0.384,-0.215,-9.438,-3.000,-7.625,-26, -18, 2, 1, -3, 2, -6, -10
1503697322103,+0.775,+0.595,+0.085,-0.196,+0.925,-0.346,-0.233,-8.188,-8.250,-12.250,-13, 2, 8, 3, -2, 0, -3, -4
1503697322124,+0.777,+0.593,+0.083,-0.195,+0.896,-0.361,-0.235,-6.875,-13.000,-11.000,16, 18, 7, 5, 4, 5, 10, 10
1503697322147,+0.778,+0.593,+0.081,-0.193,+0.881,-0.360,-0.237,-7.375,-5.438,-13.062,-4, -13, -6, -2, 0, -1, -5, 0
1503697322163,+0.779,+0.591,+0.079,-0.192,+0.918,-0.372,-0.203,-9.125,-14.875,-18.250,-16, -4, 6, 4, 0, 0, -2, 15
1503697322184,+0.782,+0.589,+0.076,-0.189,+0.922,-0.373,-0.202,-14.688,-19.938,-24.812,23, 12, -2, 0, -3, 0, -3, -8
1503697323169,+0.826,+0.530,+0.093,-0.169,+0.922,-0.354,-0.423,+55.938,+5.625,+26.188,-28, -4, 0, 1, 2, 1, -4, -6
1503697323183,+0.823,+0.532,+0.104,-0.167,+0.904,-0.341,-0.415,+60.750,+7.938,+28.562,8, 4, 0, -3, -9, -1, -1, -1
1503697323205,+0.821,+0.535,+0.115,-0.166,+0.895,-0.375,-0.401,+63.875,+10.875,+31.625,2, 6, 2, 0, -9, -2, 0, -3
1503697323227,+0.817,+0.537,+0.127,-0.164,+0.895,-0.396,-0.410,+66.500,+14.312,+32.500,2, -2, 1, 2, -6, -1, -1, 4
1503697323244,+0.814,+0.540,+0.139,-0.162,+0.896,-0.402,-0.382,+67.812,+10.062,+31.000,-13, -8, -10, -3, 13, 2, -4, -4
1503697323265,+0.811,+0.542,+0.151,-0.160,+0.900,-0.405,-0.360,+71.125,+6.750,+29.188,53, 7, 2, 0, -7, -1, 1, 2
1503697323287,+0.808,+0.544,+0.163,-0.157,+0.858,-0.421,-0.356,+73.312,+6.438,+28.000,-10, -1, 2, -1, -7, -3, -1, 4
1503697323303,+0.805,+0.545,+0.176,-0.153,+0.855,-0.436,-0.340,+74.000,+4.438,+26.875,-20, -2, -2, 2, 3, -3, -4, -6
1503697323325,+0.802,+0.547,+0.188,-0.150,+0.831,-0.446,-0.327,+76.688,+6.625,+25.625,-27, -3, -1, -4, -7, -4, 2, -1
1503697323347,+0.798,+0.548,+0.201,-0.146,+0.840,-0.465,-0.334,+79.000,+5.125,+22.500,-24, -3, -2, 2, 4, 0, -1, -6
1503697323363,+0.795,+0.549,+0.213,-0.141,+0.824,-0.464,-0.286,+77.250,+0.250,+20.688,-56, -6, 4, 1, -1, 2, -1, -6
1503697323385,+0.792,+0.550,+0.225,-0.136,+0.793,-0.467,-0.272,+79.562,+0.000,+17.312,16, 4, 2, -2, 0, 0, 1, 11
1503697323407,+0.789,+0.552,+0.238,-0.130,+0.766,-0.479,-0.250,+80.562,+1.625,+15.875,-11, -5, -8, -5, -4, -2, 5, 1
1503697323423,+0.785,+0.552,+0.250,-0.124,+0.748,-0.480,-0.258,+80.875,+0.875,+13.250,-34, -3, 1, -1, -4, -1, 4, 1
1503697323446,+0.782,+0.553,+0.261,-0.119,+0.734,-0.489,-0.234,+75.500,+2.125,+12.438,28, 5, -5, -4, 0, -1, -8, -2
1503697323468,+0.778,+0.554,+0.271,-0.114,+0.719,-0.491,-0.202,+70.250,+4.812,+12.500,4, -7, 0, -1, 2, 2, 1, 3
1503697323483,+0.775,+0.556,+0.281,-0.109,+0.711,-0.490,-0.171,+65.688,+5.875,+10.688,7, 7, -8, -2, 0, -1, -2, -4
1503697323506,+0.771,+0.557,+0.290,-0.105,+0.722,-0.494,-0.166,+59.125,+3.938,+9.250,6, -2, -1, 1, -1, -5, -1, 0
1503697323528,+0.769,+0.556,+0.297,-0.101,+0.708,-0.493,-0.177,+50.438,-3.375,+6.188,-11, 2, -4, -3, -4, -4, 2, -2
1503697323543,+0.768,+0.556,+0.303,-0.097,+0.717,-0.480,-0.145,+41.875,-8.062,+4.812,-14, -6, -3, -1, 2, 1, -1, -1
1503697323566,+0.767,+0.555,+0.308,-0.093,+0.674,-0.462,-0.150,+35.562,-7.625,+3.688,9, 23, 11, 1, -7, -4, -1, 8
1503697323588,+0.767,+0.554,+0.312,-0.090,+0.671,-0.465,-0.143,+26.312,-8.500,+0.938,-29, -11, -7, -2, 6, -2, 1, 1
1503697323605,+0.766,+0.554,+0.314,-0.089,+0.662,-0.478,-0.119,+15.938,-0.688,+1.188,4, -4, -2, 0, 0, 2, 0, -7
1503697323625,+0.765,+0.555,+0.315,-0.088,+0.733,-0.475,-0.089,+7.562,+3.625,-0.625,22, 0, 2, 0, -2, 0, -1, 4
1503697323648,+0.765,+0.555,+0.314,-0.087,+0.761,-0.479,-0.099,-2.250,-5.438,-4.438,43, 20, 17, 3, 4, -1, -1, -8
1503697323672,+0.768,+0.553,+0.312,-0.085,+0.756,-0.463,-0.143,-9.188,-16.250,-9.875,14, 14, 3, -5, -4, -3, -2, -5
1503697323686,+0.771,+0.551,+0.308,-0.083,+0.740,-0.471,-0.163,-17.125,-19.062,-13.125,4, -8, 3, 1, 4, 0, 3, -4
1503697323708,+0.773,+0.550,+0.304,-0.083,+0.749,-0.467,-0.172,-21.062,-12.875,-13.812,-16, -21, -11, -5, -4, -4, -5, -3
1503697323729,+0.776,+0.549,+0.299,-0.082,+0.797,-0.450,-0.197,-20.812,-9.062,-13.250,-15, 0, 10, 1, -2, 0, 2, 4
1503697323746,+0.779,+0.548,+0.295,-0.081,+0.839,-0.497,-0.202,-22.500,-14.938,-12.062,-13, -16, -6, -2, -4, 0, 10, 6
1503697323768,+0.782,+0.545,+0.290,-0.080,+0.844,-0.476,-0.209,-24.562,-23.125,-12.688,-4, 0, 1, 0, 4, -2, -10, -17
1503697323790,+0.787,+0.541,+0.286,-0.079,+0.792,-0.463,-0.245,-25.750,-28.250,-10.875,22, 4, -2, -1, -1, -3, -6, -7
1503697323808,+0.790,+0.538,+0.282,-0.079,+0.748,-0.475,-0.252,-24.250,-19.000,-7.562,-8, 1, -3, -1, 1, 0, -4, -3
1503697323835,+0.792,+0.537,+0.278,-0.080,+0.778,-0.493,-0.241,-24.812,-7.375,-3.812,33, 5, 1, -1, -2, -1, 4, 22
1503697323850,+0.793,+0.537,+0.275,-0.082,+0.850,-0.507,-0.195,-26.750,+0.562,-2.000,-27, -3, -2, 1, 7, 6, 4, -1
1503697323866,+0.795,+0.537,+0.271,-0.084,+0.879,-0.489,-0.193,-27.500,-4.812,+0.312,13, 7, 4, -1, -11, -4, 0, 3
1503697323888,+0.797,+0.535,+0.267,-0.086,+0.845,-0.504,-0.233,-30.500,-12.188,+0.688,-35, -10, -12, -5, -3, -3, -3, 4
1503697323909,+0.800,+0.532,+0.263,-0.089,+0.695,-0.484,-0.292,-33.562,-9.000,-0.125,7, -1, -4, -3, -1, 1, 0, 11
1503697323926,+0.800,+0.533,+0.258,-0.093,+0.654,-0.481,-0.283,-33.125,+18.688,-1.812,36, 10, 4, 2, -2, 0, 4, 12
1503697323948,+0.798,+0.538,+0.253,-0.097,+0.749,-0.484,-0.263,-30.875,+40.562,+0.000,15, 18, 9, 1, -4, 1, -1, -2
1503697323970,+0.796,+0.543,+0.248,-0.101,+0.892,-0.458,-0.271,-28.312,+40.750,+1.188,-31, 4, 3, -1, -2, -3, -8, -16
1503697323986,+0.796,+0.545,+0.243,-0.104,+0.875,-0.456,-0.293,-29.312,+18.500,-3.250,-17, -13, -4, -1, 1, 0, 3, -5
1503697324009,+0.798,+0.544,+0.238,-0.104,+0.796,-0.446,-0.292,-29.312,-3.188,-13.562,-6, -4, -5, -1, 0, -3, -5, -12
1503697324029,+0.800,+0.543,+0.233,-0.104,+0.763,-0.438,-0.291,-22.250,-5.000,-18.875,-40, -8, -5, 1, 2, 2, 0, -1
1503697324046,+0.801,+0.544,+0.229,-0.103,+0.731,-0.437,-0.292,-18.375,+5.250,-14.938,-31, -9, -1, -1, -2, -4, -11, -37
1503697324068,+0.801,+0.545,+0.226,-0.104,+0.742,-0.463,-0.325,-17.562,+14.938,-11.062,26, -4, -4, 0, 3, 2, 2, 4
1503697324089,+0.800,+0.548,+0.222,-0.105,+0.798,-0.456,-0.291,-15.312,+23.250,-11.125,5, 4, -2, -2, -3, -3, 1, 9
1503697324105,+0.798,+0.551,+0.219,-0.105,+0.860,-0.463,-0.274,-12.188,+20.562,-12.625,6, 2, 4, -1, -3, 0, 3, 3
1503697324127,+0.797,+0.554,+0.217,-0.105,+0.887,-0.501,-0.246,-6.438,+19.500,-14.375,-4, 6, 3, 0, 5, 0, -2, 6
1503697324150,+0.796,+0.556,+0.215,-0.103,+0.858,-0.511,-0.241,-5.062,+15.188,-18.000,10, -5, 1, 0, -1, -2, 1, 3
1503697324165,+0.795,+0.559,+0.213,-0.102,+0.866,-0.510,-0.246,-3.688,+12.562,-21.000,-8, -9, -7, 0, -1, -1, -4, -9
1503697324188,+0.794,+0.562,+0.211,-0.099,+0.889,-0.505,-0.212,-2.500,+13.500,-21.750,2, -4, -2, -1, -1, -2, 2, 4
1503697324210,+0.793,+0.564,+0.209,-0.097,+0.924,-0.475,-0.218,+1.750,+13.000,-22.688,9, 2, 0, 0, -2, 0, -1, -1
1503697324226,+0.792,+0.567,+0.207,-0.092,+0.939,-0.471,-0.189,+5.062,+3.188,-31.438,-1, 4, -3, 0, 1, 3, 1, -2
1503697324248,+0.793,+0.567,+0.205,-0.086,+0.930,-0.473,-0.154,+6.875,-12.125,-34.000,22, 3, -3, -2, -5, 1, 0, 2
1503697324269,+0.793,+0.568,+0.205,-0.080,+0.928,-0.474,-0.146,+10.812,-8.312,-33.250,3, 13, -4, -2, 0, -2, -2, -2
1503697324285,+0.792,+0.571,+0.204,-0.075,+0.927,-0.465,-0.160,+13.438,+9.688,-30.938,2, 11, -2, 0, -1, 1, 1, 0
1503697324309,+0.789,+0.575,+0.203,-0.070,+0.976,-0.440,-0.164,+15.812,+15.562,-29.688,-5, -3, 1, 0, -2, -2, -2, -2
1503697324329,+0.788,+0.577,+0.203,-0.064,+1.024,-0.434,-0.165,+17.875,+2.000,-31.438,-4, -9, -5, 1, 1, 1, 1, 3
1503697324346,+0.789,+0.578,+0.202,-0.056,+1.021,-0.416,-0.143,+20.500,-14.812,-38.938,8, 0, 6, 1, 1, 0, 6, 2
1503697324367,+0.790,+0.577,+0.202,-0.047,+0.946,-0.407,-0.143,+21.312,-24.750,-42.688,17, 14, -2, -2, -2, -5, -3, -1
1503697324390,+0.791,+0.576,+0.201,-0.039,+0.892,-0.401,-0.162,+20.500,-16.562,-41.000,-4, -2, 3, 2, 0, -1, -1, -3
1503697324405,+0.791,+0.578,+0.200,-0.032,+0.927,-0.355,-0.154,+17.875,-5.062,-37.125,-1, -6, 1, -1, 2, 2, 0, 1
1503697324428,+0.790,+0.579,+0.200,-0.026,+0.966,-0.363,-0.161,+19.125,-0.250,-33.750,-7, -8, -17, -10, -1, 1, 0, -1
1503697324450,+0.789,+0.580,+0.199,-0.019,+0.987,-0.358,-0.155,+16.312,-6.250,-36.688,11, 8, 11, 1, -6, -2, 0, 3
1503697324465,+0.790,+0.580,+0.198,-0.012,+0.968,-0.321,-0.156,+14.750,-13.125,-34.062,8, -13, -10, -6, -1, -2, -2, -5
1503697324488,+0.791,+0.579,+0.197,-0.006,+0.917,-0.323,-0.163,+12.688,-17.375,-32.188,10, 25, -1, 0, -6, -6, -3, 0
1503697324511,+0.790,+0.580,+0.196,-0.001,+0.933,-0.313,-0.135,+10.125,-2.312,-24.750,-29, -13, -15, -4, 0, 1, 1, -7
1503697324525,+0.789,+0.583,+0.195,+0.002,+0.950,-0.311,-0.176,+7.812,+8.938,-18.500,12, 16, 3, 0, 7, 1, -1, 1
1503697324550,+0.787,+0.585,+0.194,+0.004,+1.006,-0.292,-0.163,+2.688,+10.438,-15.875,3, 2, 5, 2, -1, -1, -1, 0
1503697324570,+0.787,+0.585,+0.193,+0.007,+1.019,-0.288,-0.176,+3.562,-2.438,-13.750,-37, -14, -3, -1, -2, -2, -1, -1
1503697324586,+0.788,+0.585,+0.192,+0.010,+0.983,-0.266,-0.191,+2.500,-7.938,-14.062,-32, 6, -1, 0, -3, -4, -8, -12
1503697324608,+0.788,+0.585,+0.191,+0.012,+0.953,-0.256,-0.206,+2.625,-2.188,-11.062,34, 16, 7, -2, -2, 0, 2, 1
1503697324630,+0.788,+0.586,+0.191,+0.013,+0.951,-0.271,-0.201,+1.750,+1.062,-7.188,-33, -27, -12, -5, -6, -4, 0, 1
1503697324646,+0.787,+0.587,+0.190,+0.014,+0.984,-0.257,-0.208,+1.438,+7.438,-4.188,4, 16, -4, 0, 1, -5, -3, 2
1503697324668,+0.787,+0.587,+0.190,+0.015,+0.994,-0.264,-0.216,+2.750,+2.875,-3.375,0, -8, -8, -4, -6, 0, 0, -5
1503697324690,+0.787,+0.587,+0.190,+0.017,+0.992,-0.268,-0.198,+3.938,-2.938,-4.500,40, -1, -5, -1, 3, 1, 3, 0
1503697324706,+0.787,+0.586,+0.190,+0.019,+0.940,-0.261,-0.193,+4.688,-8.812,-7.562,-2, -6, -8, 1, 3, 2, -3, -13
1503697324728,+0.788,+0.586,+0.190,+0.021,+0.905,-0.233,-0.194,+3.438,-4.750,-9.438,-11, -26, -7, -2, 0, 2, 1, 8
1503697324750,+0.788,+0.586,+0.189,+0.022,+0.920,-0.242,-0.206,+4.375,+1.188,-5.688,-19, -15, -1, -3, 2, -1, -1, -5
1503697324765,+0.786,+0.588,+0.189,+0.024,+0.980,-0.235,-0.192,+4.438,+11.312,-5.438,-6, 1, 1, -1, -3, 0, 4, 6
1503697324789,+0.785,+0.589,+0.190,+0.025,+1.007,-0.245,-0.210,+6.125,+6.375,-3.375,-7, 10, 14, 4, 1, -1, -1, -3
1503697324810,+0.786,+0.588,+0.190,+0.027,+1.003,-0.248,-0.197,+5.375,-5.375,-4.625,41, 16, 2, 1, 0, 3, 2, 9
1503697324825,+0.786,+0.587,+0.190,+0.028,+0.990,-0.235,-0.209,+5.812,-7.000,-2.688,-16, -7, -2, -4, -3, 0, -2, 3
1503697324849,+0.787,+0.587,+0.191,+0.029,+0.974,-0.228,-0.210,+5.062,-5.500,+1.812,-6, -1, 4, 3, -8, -6, -1, -3
1503697324870,+0.787,+0.586,+0.192,+0.029,+0.975,-0.239,-0.205,+3.875,-5.000,+6.938,11, 6, 1, 0, -1, -3, -2, -1
1503697324885,+0.787,+0.585,+0.193,+0.029,+0.944,-0.258,-0.207,+3.438,-4.875,+9.688,17, 13, -17, -3, 2, 4, -4, -1
1503697324908,+0.788,+0.584,+0.194,+0.027,+0.960,-0.261,-0.204,+1.125,-1.438,+10.688,-24, -15, -5, -7, 0, -3, -7, -4
1503697324930,+0.788,+0.584,+0.195,+0.026,+0.938,-0.264,-0.208,+0.875,+0.188,+11.375,-1, -3, 7, 6, 4, 1, 5, -4
1503697324948,+0.788,+0.583,+0.197,+0.025,+0.936,-0.290,-0.200,+1.750,-2.438,+11.938,-2, 9, 10, -1, -3, -3, 0, 0
1503697324968,+0.788,+0.582,+0.198,+0.024,+0.918,-0.293,-0.192,+1.188,-2.875,+8.188,-7, -4, 7, 2, -1, 1, 1, 0
1503697324991,+0.788,+0.582,+0.200,+0.023,+0.887,-0.315,-0.207,+1.562,+3.125,+7.938,-10, -6, -8, -5, -7, -2, 3, 7
1503697325006,+0.787,+0.582,+0.201,+0.022,+0.896,-0.328,-0.191,+0.875,+4.875,+5.562,18, 14, -6, -1, -1, -2, -2, -1
1503697325028,+0.787,+0.583,+0.201,+0.022,+0.874,-0.314,-0.184,-0.812,+3.750,-1.375,2, -3, -5, -4, -7, -1, -5, -5
1503697325050,+0.786,+0.583,+0.201,+0.022,+0.885,-0.293,-0.159,-0.125,+3.875,-6.250,4, 3, -16, -6, 0, -2, -3, -6
1503697326009,+0.873,+0.467,+0.125,-0.055,+0.917,-0.278,-0.590,+36.875,-34.438,+8.562,13, 2, -4, 0, 1, -1, 2, 20
1503697326025,+0.875,+0.463,+0.133,-0.052,+0.825,-0.285,-0.562,+43.750,-27.562,+10.438,10, 22, 5, -2, 2, 2, -5, 0
1503697326047,+0.875,+0.461,+0.142,-0.049,+0.816,-0.287,-0.562,+52.125,-12.688,+12.562,-28, -7, -6, -2, -3, 1, 4, 7
1503697326069,+0.874,+0.460,+0.152,-0.047,+0.812,-0.318,-0.557,+58.938,-2.938,+18.000,-22, 14, 6, 1, 0, 0, 0, -8
1503697326092,+0.872,+0.458,+0.163,-0.045,+0.844,-0.314,-0.567,+64.062,-4.062,+19.750,5, 3, -1, 2, -2, -2, 2, 11
1503697326107,+0.871,+0.457,+0.175,-0.042,+0.811,-0.345,-0.534,+67.500,-7.125,+20.000,-12, -4, -1, -3, -1, 0, 0, 4
1503697326132,+0.870,+0.455,+0.187,-0.039,+0.753,-0.347,-0.494,+69.625,-6.312,+19.062,-35, -11, -4, -4, -4, -4, 4, -2
1503697326152,+0.867,+0.455,+0.199,-0.036,+0.706,-0.356,-0.481,+71.062,+0.250,+18.938,11, -9, -2, -1, -8, -1, -6, -16
1503697326168,+0.864,+0.455,+0.211,-0.034,+0.707,-0.375,-0.463,+70.188,+9.625,+20.000,22, -3, -2, -2, 2, 0, -2, -3
1503697326190,+0.861,+0.456,+0.222,-0.032,+0.739,-0.375,-0.449,+69.062,+11.438,+21.000,-12, -4, 1, -1, -1, -2, 0, 0
1503697326212,+0.858,+0.456,+0.233,-0.030,+0.713,-0.378,-0.434,+66.500,+5.000,+17.438,-13, 0, -6, -1, 16, 2, -4, -1
1503697326229,+0.856,+0.456,+0.243,-0.027,+0.668,-0.378,-0.409,+61.125,+2.250,+14.000,-17, 1, -4, -1, -9, -5, 0, -3
1503697326249,+0.853,+0.456,+0.253,-0.025,+0.663,-0.377,-0.415,+58.500,+7.562,+14.062,-11, -17, -2, 2, -1, -1, -1, -4
1503697326272,+0.850,+0.456,+0.261,-0.022,+0.697,-0.389,-0.396,+51.188,+6.062,+11.562,-4, -20, -4, -2, -1, -3, -3, -13
1503697326287,+0.848,+0.457,+0.268,-0.020,+0.711,-0.394,-0.373,+46.625,+3.438,+8.125,-21, 1, 7, 2, 1, 0, -1, -2
1503697326309,+0.847,+0.456,+0.274,-0.017,+0.706,-0.417,-0.373,+42.438,-4.062,+5.000,10, 3, 0, -4, 1, 11, 2, 1
1503697326333,+0.846,+0.454,+0.279,-0.014,+0.703,-0.426,-0.371,+34.625,-7.062,+2.750,4, 22, 9, -1, 2, -2, -1, 0
1503697326349,+0.845,+0.453,+0.284,-0.012,+0.710,-0.435,-0.355,+27.875,-8.125,+2.188,31, 8, -1, 0, 8, 1, 5, 6
1503697326377,+0.845,+0.452,+0.287,-0.009,+0.710,-0.438,-0.346,+21.062,-9.875,-0.062,-28, -14, -3, 0, -3, -4, -1, 5
1503697326392,+0.845,+0.450,+0.289,-0.007,+0.720,-0.449,-0.369,+16.750,-12.312,-0.500,27, 4, 5, 0, -3, -3, -5, -12
1503697326407,+0.845,+0.448,+0.290,-0.005,+0.706,-0.469,-0.340,+8.125,-13.188,-2.562,62, 15, 15, 2, 0, -3, 0, 8
1503697326429,+0.846,+0.447,+0.291,-0.004,+0.733,-0.465,-0.350,+2.875,-9.500,-1.938,-43, -17, -4, 3, 3, 1, -1, -3
1503697326445,+0.846,+0.446,+0.291,-0.004,+0.763,-0.485,-0.361,-2.750,-10.000,-2.188,-10, 9, -5, -3, -7, -2, 1, -6
1503697326467,+0.848,+0.444,+0.289,-0.003,+0.759,-0.468,-0.367,-7.000,-14.500,-3.375,-16, -5, -5, -1, 0, 0, -2, 3
1503697326493,+0.849,+0.443,+0.288,-0.002,+0.746,-0.446,-0.386,-9.250,-12.500,-4.125,-50, -8, -5, -5, -5, -5, -1, 3
1503697326505,+0.850,+0.442,+0.286,-0.002,+0.757,-0.469,-0.383,-10.812,-7.250,-3.500,19, -17, -9, -3, -4, -4, -5, -7
1503697326527,+0.851,+0.442,+0.284,-0.002,+0.796,-0.467,-0.388,-13.500,-4.938,-3.562,5, 0, -3, -2, 0, 1, 0, -1
1503697326549,+0.852,+0.441,+0.282,-0.001,+0.802,-0.476,-0.409,-13.438,-8.938,-3.062,1, 13, 8, -2, 1, 2, -7, -9
1503697326565,+0.854,+0.439,+0.279,-0.001,+0.747,-0.447,-0.431,-14.562,-13.938,-4.500,15, 7, 2, 0, -1, -5, -3, -8
1503697326587,+0.855,+0.438,+0.277,-0.001,+0.736,-0.464,-0.417,-14.938,-8.000,-3.688,27, 7, 6, 4, 0, -1, -1, 5
1503697326609,+0.856,+0.438,+0.275,-0.002,+0.758,-0.464,-0.407,-15.750,-0.062,-1.000,-44, -11, -10, -6, 1, -3, 3, -6
1503697326626,+0.857,+0.438,+0.272,-0.003,+0.818,-0.472,-0.419,-17.250,-0.250,-0.125,-2, -15, -7, -2, -4, 4, 1, 7
1503697326647,+0.858,+0.437,+0.270,-0.003,+0.786,-0.494,-0.436,-18.125,-10.000,-3.125,-11, -2, -1, 1, 1, -6, -7, -10
1503697326669,+0.860,+0.435,+0.267,-0.003,+0.761,-0.476,-0.443,-18.562,-14.188,-5.250,-1, -2, -2, -4, -2, 3, 8, -3
1503697326694,+0.861,+0.434,+0.264,-0.003,+0.774,-0.468,-0.467,-15.312,-9.250,-6.312,-19, 1, 1, 1, 0, -2, -6, 1
1503697326707,+0.862,+0.433,+0.262,-0.003,+0.793,-0.502,-0.439,-14.312,-3.812,-5.500,-11, -8, -8, -3, 1, -3, 5, 5
1503697326729,+0.862,+0.435,+0.260,-0.004,+0.850,-0.458,-0.387,-18.062,+1.812,-3.812,15, -5, -1, -1, 0, 4, 4, 3
1503697326752,+0.862,+0.436,+0.257,-0.005,+0.860,-0.478,-0.468,-16.562,+3.438,+0.438,25, -2, -5, -4, -4, -4, -7, 0
1503697326767,+0.863,+0.437,+0.255,-0.006,+0.801,-0.466,-0.439,-17.562,+6.312,+0.625,-72, 0, 2, 0, 5, -1, -6, -15
1503697326789,+0.862,+0.439,+0.253,-0.008,+0.806,-0.452,-0.450,-15.062,+14.625,+1.875,57, 15, 0, 0, 1, 3, 3, 6
1503697326812,+0.860,+0.443,+0.252,-0.011,+0.843,-0.478,-0.435,-12.375,+23.625,+7.188,20, 0, 6, 4, 4, 2, -1, -2
1503697326830,+0.860,+0.445,+0.250,-0.014,+0.813,-0.431,-0.423,-16.375,+14.625,+8.125,-52, -2, -1, 0, -1, 0, 0, 9
1503697326850,+0.859,+0.446,+0.249,-0.017,+0.764,-0.423,-0.418,-17.125,+12.438,+9.562,-22, 0, -1, 0, -1, 0, 3, 6
1503697326872,+0.859,+0.448,+0.247,-0.020,+0.649,-0.372,-0.430,-17.375,+17.562,+10.562,10, 7, 8, 0, 2, -1, 3, 3
1503697326887,+0.858,+0.450,+0.244,-0.024,+0.587,-0.338,-0.431,-20.875,+28.562,+8.312,23, 6, 1, 3, -4, 0, 1, 7
1503697326909,+0.857,+0.455,+0.240,-0.028,+0.666,-0.345,-0.429,-24.875,+34.312,+4.688,-11, -6, 1, -1, -14, -3, -4, -16
1503697326932,+0.857,+0.458,+0.234,-0.031,+0.625,-0.316,-0.431,-33.625,+27.375,-5.312,-9, -3, 0, 0, 9, -2, -9, -21
1503697326948,+0.857,+0.461,+0.226,-0.032,+0.522,-0.293,-0.405,-40.938,+26.062,-20.000,-40, 3, 3, -1, 4, 0, 4, 4
1503697326971,+0.856,+0.467,+0.217,-0.033,+0.542,-0.285,-0.407,-43.812,+45.062,-26.250,3, -1, 0, 2, 7, -1, -10, -10
1503697327001,+0.853,+0.477,+0.208,-0.035,+0.635,-0.277,-0.400,-43.500,+69.812,-27.750,22, 12, -7, -9, -22, -2, 6, 9
1503697327007,+0.848,+0.489,+0.199,-0.037,+0.764,-0.322,-0.424,-41.000,+79.562,-28.375,36, 0, -5, 0, -1, 0, 0, -1
1503697327029,+0.844,+0.500,+0.191,-0.038,+0.925,-0.370,-0.416,-36.375,+69.500,-27.000,-43, -11, -5, 0, -7, -2, -3, -10
1503697327052,+0.841,+0.508,+0.184,-0.038,+0.970,-0.410,-0.409,-32.750,+50.188,-29.000,3, -12, -6, 0, 4, -1, 3, 5
1503697327069,+0.838,+0.514,+0.178,-0.038,+0.919,-0.446,-0.389,-28.500,+37.375,-31.375,-20, -11, 3, 5, 1, 0, 1, 7
1503697327089,+0.835,+0.521,+0.173,-0.039,+0.873,-0.449,-0.341,-25.312,+45.812,-25.688,10, 13, 5, 0, 10, 2, 1, 9
1503697327112,+0.830,+0.530,+0.170,-0.041,+0.895,-0.434,-0.321,-20.875,+64.500,-11.562,19, -5, -5, -5, -6, -2, -3, -4
1503697327127,+0.822,+0.542,+0.168,-0.045,+0.978,-0.447,-0.292,-17.500,+84.312,-2.125,23, 3, -2, -1, 0, -3, -4, -5
1503697327149,+0.814,+0.555,+0.166,-0.049,+1.039,-0.414,-0.299,-15.312,+87.625,+0.750,-2, 1, 1, 2, 12, -1, 0, 0
1503697327172,+0.806,+0.566,+0.164,-0.052,+1.068,-0.380,-0.284,-8.312,+79.500,-3.500,25, 20, 8, 1, -6, -1, -1, 8
1503697327187,+0.801,+0.574,+0.162,-0.052,+1.030,-0.364,-0.194,-5.562,+52.625,-9.875,-4, -8, -5, -5, 0, 0, 1, 6
1503697327209,+0.797,+0.580,+0.160,-0.052,+0.945,-0.372,-0.167,-7.375,+38.375,-13.188,-17, -9, -2, -1, -7, 0, -2, -6
1503697327232,+0.791,+0.588,+0.158,-0.053,+0.866,-0.357,-0.150,-6.938,+52.938,-16.812,14, 12, 10, 1, -3, 0, 2, 1
1503697327247,+0.785,+0.598,+0.155,-0.052,+0.874,-0.256,-0.168,-4.312,+67.688,-19.250,-13, -6, -2, -2, -1, -2, -4, -5
1503697327271,+0.779,+0.607,+0.151,-0.050,+0.961,-0.198,-0.162,+0.062,+60.062,-21.938,-6, -19, -1, -2, -1, 0, -2, 2
1503697327293,+0.775,+0.613,+0.148,-0.046,+1.029,-0.237,-0.158,+2.750,+38.438,-30.312,4, -15, -13, 0, 2, 1, -5, -5
1503697327307,+0.772,+0.617,+0.144,-0.041,+1.068,-0.237,-0.123,+1.688,+23.750,-35.375,-3, -5, 1, 1, 1, -1, -2, -3
1503697327332,+0.771,+0.620,+0.140,-0.035,+1.039,-0.195,-0.161,+5.875,+7.875,-32.812,25, 19, 9, -2, -5, 3, 2, 7
1503697327352,+0.773,+0.619,+0.138,-0.030,+0.991,-0.234,-0.161,+7.250,-10.000,-31.188,-24, -5, -8, -4, -2, -2, -2, -4
1503697327367,+0.774,+0.618,+0.136,-0.026,+0.975,-0.279,-0.095,+3.625,-13.562,-26.562,3, -8, -9, 0, -1, 3, 0, 1
1503697327389,+0.773,+0.619,+0.135,-0.023,+0.965,-0.265,-0.091,+1.750,-1.562,-16.938,-14, -8, -6, -4, 0, -3, 0, -1
1503697327415,+0.772,+0.621,+0.135,-0.023,+0.945,-0.265,-0.111,+0.500,+12.500,-8.875,-1, -12, 15, 6, -1, 0, 1, 0
1503697327427,+0.769,+0.625,+0.135,-0.023,+0.982,-0.267,-0.134,-1.938,+26.125,-2.062,3, 3, 11, -1, 11, -3, -3, -4
1503697327449,+0.766,+0.628,+0.135,-0.024,+1.057,-0.247,-0.118,-1.000,+24.688,+2.125,19, 14, -4, -2, -2, -2, -1, 0
1503697327474,+0.764,+0.630,+0.135,-0.024,+1.084,-0.260,-0.112,-0.688,+12.250,+0.562,-3, -12, -11, -4, -5, -1, -2, -4
1503697327488,+0.764,+0.630,+0.135,-0.023,+1.040,-0.238,-0.110,+0.062,+2.188,-4.250,12, 2, 11, 4, 16, -1, 0, 3
1503697327509,+0.764,+0.631,+0.133,-0.022,+0.985,-0.210,-0.109,-0.312,-3.188,-11.438,-15, -23, -7, -3, -15, -3, -2, -3
1503697327533,+0.764,+0.631,+0.132,-0.019,+0.945,-0.176,-0.117,+0.312,-1.000,-13.062,0, 0, 2, -2, -4, -2, 0, 2
1503697327548,+0.764,+0.631,+0.130,-0.017,+0.913,-0.158,-0.142,+2.688,+3.062,-14.125,32, 8, -3, 1, 4, -1, 0, 1
1503697327569,+0.763,+0.633,+0.128,-0.014,+0.906,-0.143,-0.111,+2.812,+8.688,-17.500,-3, -4, -12, -2, 7, 0, 6, 3
1503697327592,+0.762,+0.635,+0.127,-0.010,+0.944,-0.145,-0.081,+5.188,+13.938,-20.000,-21, -6, -8, -3, -14, 2, 0, -3
1503697327609,+0.760,+0.638,+0.125,-0.007,+0.968,-0.147,-0.083,+7.500,+14.312,-18.938,-45, -10, 2, 1, 4, 1, -1, -3
1503697327629,+0.757,+0.641,+0.125,-0.004,+0.982,-0.172,-0.086,+8.562,+18.875,-15.938,27, 34, 0, 2, 4, 0, 3, 1
1503697327659,+0.755,+0.644,+0.124,-0.002,+0.990,-0.190,-0.094,+6.250,+20.000,-14.062,-7, -1, 4, -2, -7, -2, -4, -4
1503697327675,+0.753,+0.647,+0.123,+0.000,+0.986,-0.195,-0.070,+5.000,+18.000,-13.062,-12, -25, -15, -4, -16, -1, -5, -1
1503697327689,+0.751,+0.649,+0.123,+0.002,+1.027,-0.197,-0.068,+4.188,+12.562,-11.250,2, 8, -2, -2, 2, -2, -2, -1
1503697327712,+0.750,+0.650,+0.122,+0.003,+1.025,-0.206,-0.060,+0.375,+4.562,-8.625,0, -37, -9, -3, -3, -1, -2, -1
1503697327727,+0.750,+0.650,+0.121,+0.003,+1.014,-0.200,-0.060,-5.438,-2.125,-7.500,1, -4, -1, 1, 6, -1, -1, -2
1503697327749,+0.751,+0.649,+0.120,+0.003,+0.995,-0.188,-0.060,-9.438,-5.938,-5.188,-20, -9, 3, 0, -2, 0, 0, 3
1503697327772,+0.751,+0.649,+0.118,+0.003,+0.953,-0.158,-0.066,-8.312,-2.062,-3.438,-20, -27, -4, -5, -11, -2, -4, -5
1503697327788,+0.751,+0.650,+0.117,+0.003,+1.003,-0.166,-0.077,-5.875,+4.812,-4.250,22, 21, 5, 4, 9, 1, 8, 6
1503697327809,+0.751,+0.650,+0.116,+0.002,+1.047,-0.188,-0.061,-6.688,-3.500,-1.562,16, 2, -12, -2, -8, -4, -8, -3
1503697327835,+0.753,+0.648,+0.116,+0.001,+1.040,-0.192,-0.065,-8.938,-12.688,+1.125,-8, -4, -3, -1, 3, -1, 2, 5
1503697327847,+0.754,+0.647,+0.115,+0.001,+1.005,-0.199,-0.060,-8.688,-14.375,+0.750,-80, -26, -6, -3, -4, -3, -3, -12
1503697327869,+0.755,+0.645,+0.114,-0.001,+0.971,-0.215,-0.059,-12.500,-12.000,+2.250,44, 42, 1, 0, 10, -1, -1, -1
1503697327891,+0.756,+0.645,+0.113,-0.003,+0.983,-0.194,-0.064,-14.062,-7.688,+4.312,25, 35, -5, 1, 3, -2, 1, 9
1503697327908,+0.757,+0.644,+0.112,-0.005,+1.022,-0.193,-0.083,-15.625,-7.625,+5.438,18, 1, -4, -4, -8, 2, 1, 4
1503697327929,+0.759,+0.642,+0.111,-0.008,+1.024,-0.207,-0.059,-19.438,-17.375,+3.938,6, -27, 0, 1, -1, -1, -2, -12
1503697329010,+0.831,+0.542,+0.123,-0.037,+0.917,-0.240,-0.333,+32.562,+0.312,+38.312,9, -5, -8, -3, 1, 1, -1, 4
1503697329032,+0.829,+0.542,+0.132,-0.039,+0.906,-0.252,-0.334,+32.938,+5.750,+38.812,12, -1, -3, -2, 2, -1, 0, 3
1503697329048,+0.828,+0.542,+0.140,-0.041,+0.932,-0.253,-0.367,+35.375,+5.062,+39.188,4, 13, 21, 1, 9, -1, 2, 1
1503697329070,+0.827,+0.541,+0.149,-0.043,+0.936,-0.281,-0.352,+36.438,+1.250,+38.500,-5, -17, -7, -2, -31, -1, 4, 2
1503697329092,+0.825,+0.540,+0.158,-0.045,+0.911,-0.302,-0.357,+39.312,+1.125,+38.250,-10, -2, -2, 0, 2, -1, -2, -4
1503697329110,+0.824,+0.540,+0.167,-0.046,+0.889,-0.309,-0.341,+42.000,+4.938,+38.562,13, 0, -4, -1, 15, 4, 2, 0
1503697329130,+0.821,+0.540,+0.177,-0.048,+0.896,-0.329,-0.330,+44.688,+10.188,+40.312,20, 6, 0, 3, 1, 1, 2, 2
1503697329153,+0.819,+0.541,+0.187,-0.049,+0.915,-0.343,-0.352,+49.062,+9.438,+40.688,-18, 6, 6, 1, -2, -1, -1, 1
1503697329168,+0.816,+0.540,+0.198,-0.050,+0.891,-0.377,-0.321,+49.875,+4.062,+39.000,1, -2, -12, 0, -1, 2, -1, -4
1503697329190,+0.815,+0.539,+0.208,-0.050,+0.874,-0.404,-0.317,+51.750,-1.312,+37.062,14, -5, 5, 1, -1, -3, -2, -3
1503697329212,+0.813,+0.537,+0.219,-0.050,+0.830,-0.422,-0.280,+52.188,-3.312,+36.188,-9, -3, -6, 0, 1, -6, -7, -2
1503697329228,+0.810,+0.536,+0.230,-0.050,+0.826,-0.430,-0.278,+53.000,+0.000,+36.188,14, -4, -5, -2, -8, -5, -7, -4
1503697329250,+0.808,+0.535,+0.242,-0.050,+0.796,-0.450,-0.285,+54.812,+2.438,+35.750,-11, -2, 3, 0, -3, -1, 0, -4
1503697329272,+0.805,+0.534,+0.252,-0.050,+0.791,-0.465,-0.259,+54.188,+1.812,+30.750,13, -2, 1, 2, 18, 1, -2, 0
1503697329288,+0.803,+0.533,+0.263,-0.049,+0.808,-0.466,-0.239,+52.812,+0.375,+31.062,-22, -2, -2, -2, -2, 2, 3, 3
1503697329312,+0.800,+0.533,+0.273,-0.049,+0.780,-0.479,-0.229,+50.188,+3.000,+32.062,31, 4, 14, 0, -8, 2, 4, 8
1503697329332,+0.797,+0.532,+0.282,-0.050,+0.728,-0.492,-0.220,+45.375,+3.500,+29.375,3, -7, 3, 1, -5, -6, -5, -7
1503697329348,+0.794,+0.531,+0.291,-0.050,+0.728,-0.470,-0.219,+45.250,+8.812,+28.750,6, 8, -6, -1, 6, 2, 1, 4
1503697329370,+0.791,+0.532,+0.299,-0.050,+0.738,-0.483,-0.221,+44.375,+10.000,+26.250,-19, -5, -6, -4, -1, -2, -2, -5
1503697329392,+0.788,+0.532,+0.307,-0.050,+0.744,-0.508,-0.176,+38.875,+7.812,+22.250,-47, -9, 0, 1, 5, -3, -8, -14
1503697329408,+0.785,+0.532,+0.313,-0.050,+0.753,-0.504,-0.166,+35.125,+7.062,+20.125,0, -6, 1, -2, -7, -2, 1, 6
1503697329430,+0.783,+0.532,+0.319,-0.050,+0.770,-0.520,-0.148,+29.312,+5.312,+20.062,-5, 1, -3, 2, 1, 0, -2, -3
1503697329452,+0.781,+0.531,+0.324,-0.050,+0.745,-0.523,-0.136,+22.250,+0.375,+16.875,15, -1, 3, 1, -1, -1, 2, 5
1503697329468,+0.780,+0.531,+0.328,-0.050,+0.707,-0.520,-0.091,+13.188,-1.625,+11.312,3, -16, -7, -1, -6, -2, 0, 1
1503697329490,+0.779,+0.532,+0.330,-0.051,+0.735,-0.521,-0.097,+6.938,+3.250,+8.875,-27, -5, -7, -6, -6, -1, -4, -7
1503697329513,+0.778,+0.532,+0.330,-0.052,+0.761,-0.529,-0.088,-4.250,+1.000,+7.500,-3, 2, 2, -2, 0, 1, 3, 1
1503697329528,+0.778,+0.532,+0.329,-0.053,+0.764,-0.511,-0.129,-11.250,-0.625,+4.062,-18, -8, -7, -1, 3, 3, 2, -4
1503697329550,+0.779,+0.531,+0.327,-0.055,+0.759,-0.511,-0.172,-15.188,-0.875,+2.688,22, 8, 2, 1, 5, 2, 7, 8
1503697329572,+0.781,+0.531,+0.325,-0.056,+0.781,-0.507,-0.191,-19.250,-1.500,+0.438,20, 4, 2, 1, -7, -3, -3, -3
1503697329588,+0.783,+0.530,+0.321,-0.056,+0.823,-0.507,-0.189,-21.000,-7.188,-4.688,24, -1, 0, 0, 1, -2, -2, 1
1503697329610,+0.785,+0.528,+0.318,-0.056,+0.803,-0.515,-0.251,-19.312,-13.938,-6.750,34, 5, -3, -4, -6, -5, 1, 5
1503697329632,+0.788,+0.526,+0.315,-0.057,+0.813,-0.569,-0.250,-18.188,-11.125,-5.000,-6, 1, 2, -2, 3, 0, 2, -1
1503697329649,+0.790,+0.525,+0.312,-0.057,+0.828,-0.551,-0.204,-19.688,-9.562,-5.625,10, -1, 3, 0, -3, -3, -4, 0
1503697329670,+0.791,+0.525,+0.309,-0.057,+0.834,-0.537,-0.195,-21.875,-6.750,-4.500,-35, -9, -5, 1, 4, 1, 4, 7
1503697329692,+0.792,+0.525,+0.306,-0.059,+0.854,-0.566,-0.212,-21.250,+2.062,-2.625,-20, -2, 3, 2, 3, 5, 3, -10
1503697329715,+0.793,+0.525,+0.302,-0.060,+0.884,-0.544,-0.232,-23.250,+1.188,-2.375,-13, 0, -2, -1, 1, 1, -1, -1
1503697329730,+0.794,+0.525,+0.299,-0.062,+0.846,-0.536,-0.244,-22.250,-1.375,-2.250,-11, -6, 1, -1, -4, -3, -1, 12
1503697329756,+0.796,+0.525,+0.296,-0.063,+0.821,-0.532,-0.194,-25.438,-5.438,-3.375,15, 0, 0, -2, 1, -2, -4, -5
1503697329775,+0.797,+0.525,+0.292,-0.065,+0.820,-0.510,-0.243,-23.875,+1.812,+0.500,-12, -12, -10, 0, 2, -1, -3, 8
1503697329791,+0.798,+0.525,+0.289,-0.067,+0.835,-0.503,-0.251,-24.312,+5.625,+1.625,31, 13, 0, -1, 3, 0, -3, 0
1503697329820,+0.799,+0.525,+0.285,-0.069,+0.833,-0.492,-0.261,-24.688,+0.812,-0.062,8, 6, 1, 1, -5, -5, -10, -7
1503697329836,+0.800,+0.524,+0.282,-0.071,+0.777,-0.513,-0.239,-25.250,-4.312,-0.312,16, -1, -4, 0, 1, -2, 1, -14
1503697329851,+0.801,+0.524,+0.278,-0.074,+0.746,-0.483,-0.206,-28.500,+3.438,+0.938,-44, 3, -6, -3, -3, -2, -4, -5
1503697329872,+0.801,+0.526,+0.275,-0.078,+0.748,-0.469,-0.265,-25.500,+17.312,+5.062,42, 0, 4, 0, 2, 2, 5, 6
1503697329894,+0.801,+0.527,+0.272,-0.081,+0.806,-0.492,-0.231,-27.250,+14.938,+3.750,14, 8, 2, 0, -1, -2, -2, -8
1503697329910,+0.802,+0.528,+0.267,-0.084,+0.786,-0.474,-0.224,-31.062,+5.938,+1.438,-17, 2, 4, -3, -6, 1, -4, 3
1503697329932,+0.803,+0.528,+0.263,-0.088,+0.705,-0.481,-0.242,-34.562,+4.938,+2.188,-43, -13, -2, 0, -1, -3, 3, 0
1503697329956,+0.803,+0.529,+0.258,-0.093,+0.691,-0.477,-0.235,-38.438,+20.000,+4.500,27, 2, 1, -1, -1, 1, -2, 4
1503697330027,+0.802,+0.532,+0.253,-0.098,+0.780,-0.472,-0.227,-40.750,+27.500,+6.750,-18, -2, 0, -1, 6, -1, 3, 6
1503697330028,+0.802,+0.534,+0.247,-0.104,+0.818,-0.476,-0.243,-44.000,+19.250,+4.500,-4, -2, -2, -4, -6, -1, 2, -2
1503697330030,+0.803,+0.535,+0.240,-0.108,+0.766,-0.461,-0.241,-48.250,+10.750,-1.875,0, -8, -2, 0, -1, 3, 4, -10
1503697330040,+0.803,+0.536,+0.233,-0.113,+0.679,-0.455,-0.263,-49.188,+14.750,-3.375,15, -2, -1, 1, -2, -1, -3, -2
1503697330054,+0.803,+0.538,+0.226,-0.118,+0.777,-0.454,-0.244,-50.375,+21.875,-2.312,-28, -11, -7, -3, -7, -4, -1, -3
1503697330077,+0.803,+0.541,+0.219,-0.123,+0.862,-0.464,-0.279,-49.125,+24.625,+0.250,-7, 1, 3, -1, 2, 0, -6, -11
1503697330091,+0.804,+0.541,+0.211,-0.126,+0.861,-0.475,-0.260,-52.375,+6.500,-9.562,37, 13, 9, 4, 15, -1, -4, -3
1503697330113,+0.807,+0.539,+0.202,-0.128,+0.873,-0.437,-0.281,-53.812,-12.188,-14.688,-16, -13, -9, -3, -4, 1, -1, 5
1503697330137,+0.812,+0.536,+0.193,-0.131,+0.799,-0.411,-0.321,-54.625,-18.500,-14.312,-14, -3, -1, -2, -1, -2, 2, -1
1503697330160,+0.815,+0.533,+0.185,-0.134,+0.766,-0.432,-0.323,-55.125,-8.562,-11.938,39, 11, 2, 0, -19, -1, 3, 9
1503697330173,+0.815,+0.534,+0.177,-0.138,+0.812,-0.444,-0.316,-53.250,+10.562,-9.375,11, 10, 5, 2, 6, -2, -4, -1
1503697330195,+0.815,+0.535,+0.168,-0.141,+0.916,-0.421,-0.340,-52.312,+17.375,-8.375,-3, 8, 8, 0, -4, 1, 0, 4
1503697330211,+0.816,+0.536,+0.160,-0.145,+0.951,-0.389,-0.330,-53.062,+8.125,-6.938,26, 8, 0, -1, -4, 2, 5, 10
1503697330233,+0.818,+0.535,+0.151,-0.148,+0.882,-0.390,-0.336,-53.438,-2.250,-10.125,-29, -4, 3, -1, 7, 1, -1, -3
1503697330257,+0.819,+0.535,+0.143,-0.151,+0.808,-0.393,-0.350,-49.875,+8.250,-11.438,25, 12, 15, 1, 1, 1, 3, 3
1503697330270,+0.818,+0.537,+0.136,-0.155,+0.811,-0.389,-0.363,-48.562,+24.875,-7.438,-21, -8, -1, 0, 9, -2, -2, -4
1503697330293,+0.816,+0.540,+0.128,-0.159,+0.868,-0.378,-0.337,-45.438,+33.625,-2.312,3, 2, -3, 0, -7, -1, 0, 3
1503697330315,+0.814,+0.545,+0.121,-0.164,+0.873,-0.394,-0.330,-41.438,+38.500,-3.188,-20, -10, -6, -1, 2, 1, -3, -4
1503697330330,+0.811,+0.549,+0.115,-0.168,+0.857,-0.407,-0.333,-39.938,+39.938,-4.875,12, -10, -7, -2, -2, -5, -3, -4
1503697330358,+0.808,+0.554,+0.109,-0.172,+0.841,-0.400,-0.333,-38.312,+42.938,-4.000,-11, -14, -13, -5, -3, -3, -4, -5
1503697330382,+0.804,+0.559,+0.103,-0.175,+0.874,-0.375,-0.337,-32.562,+45.312,-3.188,1, 7, -9, -1, 3, 1, -1, 0
1503697330390,+0.800,+0.564,+0.098,-0.178,+0.899,-0.397,-0.291,-27.312,+41.438,-3.188,-20, -15, -7, -5, 3, -5, -6, -10
1503697330413,+0.797,+0.568,+0.094,-0.181,+0.930,-0.423,-0.268,-25.125,+36.188,-4.562,-23, 3, -2, 0, 1, 1, 2, -1
1503697330435,+0.794,+0.572,+0.090,-0.183,+0.925,-0.426,-0.283,-23.250,+33.125,-5.875,38, 4, 5, -1, -5, -1, 1, 3
1503697330454,+0.792,+0.576,+0.086,-0.185,+0.906,-0.398,-0.295,-22.188,+33.250,-6.750,-5, 2, -7, -2, -2, -1, 0, -2
1503697330473,+0.789,+0.580,+0.081,-0.186,+0.914,-0.373,-0.294,-20.938,+30.750,-8.312,-17, -1, 0, -1, -3, -2, -1, -3
1503697330495,+0.787,+0.583,+0.078,-0.187,+0.960,-0.383,-0.271,-18.000,+27.250,-8.562,9, 7, 7, 0, -2, 0, -2, -2
1503697330510,+0.785,+0.586,+0.074,-0.187,+0.996,-0.355,-0.262,-14.625,+24.000,-8.812,-10, 5, 0, -1, -1, 1, -2, 2
1503697330531,+0.784,+0.588,+0.071,-0.187,+0.981,-0.364,-0.253,-13.250,+11.375,-10.875,19, 1, -5, -2, -1, -1, -3, -1
1503697330556,+0.784,+0.588,+0.068,-0.187,+0.948,-0.357,-0.234,-15.125,+4.938,-12.938,-5, -6, -3, 0, 0, -2, 0, 2
1503697330569,+0.783,+0.590,+0.065,-0.187,+0.944,-0.313,-0.259,-11.500,+11.625,-10.312,-12, 5, 4, 0, -1, 0, -2, -2
1503697330592,+0.782,+0.592,+0.063,-0.186,+0.965,-0.315,-0.258,-6.688,+16.562,-6.500,19, -8, -3, 0, 0, 0, -1, 3
1503697330614,+0.780,+0.594,+0.061,-0.186,+0.991,-0.338,-0.251,-7.562,+14.062,-6.312,-31, -8, -3, -2, -3, 1, 0, -3
1503697330629,+0.780,+0.595,+0.059,-0.186,+1.010,-0.323,-0.210,-8.875,+5.500,-4.250,5, -5, -4, -1, 6, -1, -6, 1
1503697330655,+0.780,+0.595,+0.058,-0.186,+0.963,-0.314,-0.197,-8.188,-1.062,-3.938,-32, -12, -5, -1, -4, -3, -4, -7
1503697330674,+0.779,+0.595,+0.057,-0.187,+0.923,-0.317,-0.198,-8.812,+2.562,-1.750,4, -3, -5, 0, 3, -1, 4, -1
1503697330689,+0.778,+0.597,+0.055,-0.188,+0.927,-0.333,-0.211,-8.125,+12.500,-1.812,8, 7, 2, 1, 2, -1, -2, -2
1503697330712,+0.776,+0.599,+0.054,-0.188,+0.936,-0.334,-0.206,-8.062,+14.500,-3.750,-41, -15, -3, -1, 4, -3, -4, -7
1503697330734,+0.775,+0.601,+0.052,-0.188,+0.957,-0.333,-0.202,-7.250,+9.812,-7.000,33, 26, 2, -4, 7, -3, -1, 0
1503697330751,+0.776,+0.601,+0.050,-0.187,+0.935,-0.348,-0.189,-9.562,+0.188,-13.625,-16, -9, -3, -1, -6, 0, 2, -2
1503697330772,+0.776,+0.601,+0.048,-0.186,+0.914,-0.320,-0.182,-11.750,-2.312,-15.375,18, -13, 2, -2, -5, 2, -1, 6
1503697330796,+0.776,+0.601,+0.045,-0.185,+0.878,-0.325,-0.218,-9.625,+0.188,-17.375,20, 7, 9, 5, -6, -1, -4, -2
1503697330809,+0.776,+0.602,+0.043,-0.184,+0.875,-0.335,-0.230,-8.312,+10.812,-16.875,-1, 7, 0, 2, -2, 0, 0, -1
1503697330832,+0.775,+0.604,+0.040,-0.183,+0.929,-0.314,-0.239,-6.500,+18.250,-14.062,-24, -13, -10, 0, -4, 0, 2, -2
1503697330856,+0.774,+0.604,+0.038,-0.182,+0.973,-0.314,-0.236,-7.250,+6.000,-13.812,-25, -17, -3, -2, 4, -1, -3, -5
1503697330869,+0.775,+0.604,+0.036,-0.181,+0.979,-0.316,-0.218,-6.688,-5.500,-15.750,3, 2, -2, -2, 9, 1, 1, 1
1503697330892,+0.777,+0.602,+0.035,-0.179,+0.956,-0.293,-0.251,-3.250,-11.000,-15.250,-5, -2, -9, -2, -4, 1, 1, -1
1503697330914,+0.779,+0.600,+0.034,-0.178,+0.895,-0.304,-0.253,-6.000,-14.875,-14.062,-1, -6, -1, -2, 0, -2, -2, 3
1503697330929,+0.780,+0.599,+0.032,-0.178,+0.919,-0.270,-0.233,-8.438,-4.562,-6.375,-4, 7, 0, -1, 1, -1, -3, -1
1503697330951,+0.780,+0.600,+0.032,-0.178,+0.953,-0.259,-0.234,-2.750,+3.688,-4.000,5, -1, -1, -4, -6, -2, 2, 4
1503697330974,+0.780,+0.600,+0.031,-0.177,+0.985,-0.289,-0.225,-1.875,+0.062,-3.062,-13, -9, 1, 2, 2, 0, 0, -2
1503697330993,+0.780,+0.599,+0.031,-0.176,+1.006,-0.271,-0.208,-1.125,-8.750,-4.500,4, -4, 2, 1, 0, 0, -1, -1
1503697331011,+0.782,+0.597,+0.031,-0.175,+0.938,-0.287,-0.202,-0.500,-19.688,-7.750,9, 20, 9, 0, -2, -1, 3, 0
1503697331034,+0.784,+0.595,+0.031,-0.174,+0.896,-0.285,-0.208,-4.688,-12.000,-10.625,8, -3, -8, 0, -1, 0, -2, 4
1503697331053,+0.784,+0.595,+0.029,-0.174,+0.909,-0.246,-0.212,-8.500,-0.125,-6.938,15, -4, -3, -5, -3, -2, -5, -6
1503697331072,+0.784,+0.596,+0.027,-0.174,+0.941,-0.239,-0.229,-6.812,+2.500,-5.500,13, -1, 3, -2, -1, 1, -2, 3
1503697331096,+0.784,+0.595,+0.026,-0.173,+0.985,-0.242,-0.237,-6.875,-2.562,-9.375,-38, -2, 6, 0, -2, -3, -5, -5
1503697331114,+0.786,+0.594,+0.024,-0.172,+0.992,-0.232,-0.244,-6.750,-15.312,-13.000,26, 2, 0, 0, 2, 0, 0, 1
1503697331136,+0.789,+0.590,+0.022,-0.170,+0.922,-0.223,-0.241,-9.750,-22.312,-14.875,-2, -6, -8, -2, -5, -2, -2, 1
1503697331158,+0.790,+0.589,+0.019,-0.169,+0.880,-0.191,-0.231,-10.625,-11.750,-14.375,-12, 12, 6, 4, -1, 2, 6, 3
1503697331169,+0.791,+0.587,+0.017,-0.168,+0.917,-0.190,-0.272,-9.812,-6.062,-12.750,9, 3, 1, -4, -6, -4, -3, 0
1503697331196,+0.793,+0.586,+0.014,-0.167,+0.954,-0.201,-0.254,-11.312,-8.125,-14.250,-29, -6, -1, 3, 7, 1, 3, 0
1503697331227,+0.794,+0.584,+0.011,-0.166,+0.962,-0.183,-0.246,-11.625,-15.875,-15.938,-27, -11, -6, -4, -3, -3, -1, -5
1503697331231,+0.797,+0.581,+0.009,-0.164,+0.914,-0.186,-0.261,-11.438,-19.562,-15.562,19, -1, -3, -3, -1, 0, 2, 4
1503697332367,+0.818,+0.546,+0.107,-0.148,+0.917,-0.351,-0.361,+62.000,-1.000,+13.125,10, 0, 0, 0, 2, 0, 0, -3
1503697332371,+0.817,+0.547,+0.117,-0.144,+0.870,-0.345,-0.346,+62.938,-2.125,+11.250,-5, -5, -3, -2, 0, 0, -2, -5
1503697332392,+0.815,+0.548,+0.127,-0.139,+0.861,-0.349,-0.345,+63.875,+0.500,+13.062,17, 4, -8, -1, 4, -1, -3, 1
1503697332416,+0.813,+0.549,+0.138,-0.135,+0.843,-0.370,-0.332,+63.250,+4.875,+14.250,-15, 1, -3, -1, 1, 1, -1, -1
1503697332433,+0.811,+0.551,+0.147,-0.131,+0.857,-0.378,-0.318,+62.562,+7.250,+13.438,9, -3, -4, -3, 0, -1, -3, -3
1503697332451,+0.809,+0.552,+0.157,-0.127,+0.857,-0.379,-0.311,+62.812,+3.062,+12.875,-16, -11, -3, -2, -1, -2, 0, 0
1503697332475,+0.807,+0.553,+0.167,-0.123,+0.849,-0.394,-0.297,+61.625,+0.500,+12.750,11, -6, -1, -2, -9, 1, -2, -3
1503697332490,+0.805,+0.554,+0.177,-0.119,+0.824,-0.405,-0.284,+59.000,+0.625,+12.812,28, 5, -1, -1, -1, -1, 0, 4
1503697332513,+0.803,+0.555,+0.186,-0.115,+0.830,-0.410,-0.277,+57.812,+2.250,+12.062,4, 4, 5, 1, 2, 0, -4, -4
1503697332536,+0.800,+0.556,+0.195,-0.112,+0.826,-0.407,-0.279,+57.875,+2.875,+12.938,-26, -7, -2, -1, 1, 2, 3, 0
1503697332549,+0.799,+0.556,+0.203,-0.107,+0.833,-0.406,-0.271,+55.688,-1.375,+10.688,-6, -7, -1, 1, 1, -2, 3, 0
1503697332573,+0.797,+0.556,+0.211,-0.104,+0.821,-0.416,-0.241,+52.250,-4.625,+11.250,-39, -11, -10, -7, 2, 0, -4, -10
1503697332594,+0.795,+0.556,+0.219,-0.100,+0.808,-0.420,-0.249,+50.125,-2.812,+10.000,-13, 1, 1, 3, -2, 1, -2, -3
1503697332610,+0.794,+0.556,+0.227,-0.096,+0.796,-0.419,-0.248,+48.875,-2.250,+10.312,17, 9, 3, 0, 0, -1, -1, 3
1503697332631,+0.792,+0.556,+0.234,-0.093,+0.796,-0.425,-0.223,+47.125,+0.500,+10.438,10, 4, 9, 1, 1, 3, 2, 0
1503697332654,+0.790,+0.557,+0.241,-0.090,+0.807,-0.430,-0.227,+46.188,+1.000,+10.062,-2, -2, 3, -1, -3, -7, -3, 2
1503697332677,+0.788,+0.557,+0.247,-0.087,+0.806,-0.450,-0.207,+41.188,-0.188,+8.062,25, 3, -1, -1, -3, 0, -1, -2
1503697332691,+0.786,+0.557,+0.254,-0.084,+0.799,-0.450,-0.201,+40.188,+2.562,+9.375,24, 1, 0, 0, 0, 3, 0, 0
1503697332714,+0.784,+0.558,+0.260,-0.082,+0.811,-0.448,-0.218,+39.250,+4.000,+10.562,-7, -3, 3, 0, 4, 2, 4, 2
1503697332737,+0.782,+0.558,+0.265,-0.079,+0.821,-0.455,-0.202,+36.750,+0.688,+9.812,-21, 4, -2, 4, 1, 0, 5, 5
1503697332751,+0.781,+0.558,+0.271,-0.077,+0.817,-0.468,-0.174,+33.562,-2.188,+9.625,50, 7, -5, -5, -2, 10, -5, 3
1503697332782,+0.780,+0.557,+0.276,-0.075,+0.805,-0.476,-0.162,+30.000,-3.375,+9.500,-23, -4, 1, 1, 0, -5, 0, 1
1503697332807,+0.778,+0.557,+0.280,-0.074,+0.807,-0.479,-0.181,+27.250,-0.688,+10.000,18, 11, 3, -1, -8, -5, -6, -3
1503697332815,+0.777,+0.557,+0.284,-0.072,+0.816,-0.480,-0.156,+23.000,-1.000,+9.375,10, 1, -1, 0, 0, 1, 0, 0
1503697332836,+0.776,+0.557,+0.288,-0.072,+0.792,-0.508,-0.125,+16.062,-1.812,+9.125,33, -2, -5, 2, 8, -3, -1, -2
1503697332857,+0.775,+0.557,+0.290,-0.072,+0.850,-0.513,-0.099,+7.938,+0.688,+9.125,-20, -8, -2, -2, -2, -1, 2, 0
1503697332886,+0.775,+0.556,+0.291,-0.073,+0.814,-0.458,-0.143,+1.625,-3.625,+10.750,-11, 1, 0, -2, -3, -4, 1, 4
1503697332926,+0.776,+0.555,+0.291,-0.073,+0.780,-0.444,-0.146,-6.188,-6.438,+7.188,23, -3, -3, -3, -4, -1, -7, 6
1503697332938,+0.775,+0.556,+0.291,-0.076,+0.762,-0.481,-0.138,-5.625,+11.562,+10.375,-20, -6, -3, 0, 2, 0, -6, -7
1503697332939,+0.773,+0.559,+0.290,-0.079,+0.858,-0.512,-0.130,-9.812,+20.688,+13.250,-16, 1, 4, 1, -1, -3, -2, -8
1503697332955,+0.772,+0.560,+0.289,-0.082,+0.844,-0.492,-0.125,-15.875,+7.688,+9.312,-39, -6, -2, 0, -21, 8, -3, -7
1503697332977,+0.773,+0.560,+0.287,-0.084,+0.793,-0.497,-0.157,-17.562,+3.500,+5.125,-13, -5, 2, -3, -3, -11, -4, -10
1503697332992,+0.773,+0.560,+0.285,-0.086,+0.796,-0.499,-0.190,-19.625,+7.562,+3.375,-28, 1, -1, 1, 1, -1, 5, 1
1503697333014,+0.773,+0.561,+0.282,-0.089,+0.837,-0.500,-0.158,-21.688,+9.625,+0.625,-34, -7, -1, 0, 6, 3, -2, -3
1503697333037,+0.774,+0.562,+0.279,-0.090,+0.845,-0.497,-0.162,-20.625,+5.750,-1.000,37, 4, -4, -2, 1, 1, 2, 1
1503697333056,+0.774,+0.562,+0.275,-0.092,+0.823,-0.511,-0.154,-22.500,+2.250,-3.562,-15, -1, 3, 5, 3, 0, 8, 3
1503697333074,+0.775,+0.562,+0.272,-0.094,+0.808,-0.500,-0.160,-24.312,+4.625,-4.188,-4, 0, -3, -4, 4, 3, 0, 5
1503697333100,+0.776,+0.563,+0.268,-0.096,+0.834,-0.498,-0.182,-25.375,+7.312,-2.625,4, -2, 0, 1, 3, -1, -3, -12
1503697333113,+0.776,+0.564,+0.264,-0.099,+0.839,-0.499,-0.184,-27.625,+9.250,-1.688,-16, -1, 0, 1, -9, 1, 6, 6
1503697333134,+0.777,+0.564,+0.260,-0.100,+0.912,-0.472,-0.202,-27.625,+3.625,-2.125,-19, 1, -5, -2, -6, -2, -1, -1
1503697333157,+0.780,+0.563,+0.255,-0.102,+0.813,-0.469,-0.214,-29.938,-9.438,-4.062,57, 11, 2, 0, 4, 0, 2, 1
1503697333172,+0.781,+0.562,+0.251,-0.104,+0.783,-0.458,-0.205,-30.375,-3.312,-5.438,28, 13, 4, 1, 10, -5, 2, 9
1503697333194,+0.782,+0.563,+0.247,-0.107,+0.797,-0.457,-0.210,-28.125,+11.812,-0.250,9, 0, 0, 0, 2, 1, 1, 1
1503697333216,+0.782,+0.564,+0.242,-0.110,+0.868,-0.472,-0.204,-29.188,+11.000,-0.312,-28, -4, -2, -2, -1, -4, -3, -9
1503697333232,+0.783,+0.563,+0.238,-0.111,+0.892,-0.455,-0.248,-28.375,-0.438,-2.375,4, 0, -2, -3, -3, -1, -3, 2
1503697333256,+0.786,+0.561,+0.233,-0.113,+0.816,-0.467,-0.237,-31.938,-10.500,-6.312,24, -1, -1, 0, 1, 1, 1, 1
1503697333277,+0.789,+0.559,+0.228,-0.115,+0.752,-0.432,-0.212,-35.375,-10.875,-8.000,26, 1, -3, 2, 1, 0, 3, 2
1503697333292,+0.791,+0.558,+0.222,-0.117,+0.736,-0.403,-0.240,-35.812,-1.188,-7.625,-13, 6, 6, 1, -2, 1, -2, 9
1503697333315,+0.792,+0.559,+0.216,-0.120,+0.796,-0.420,-0.258,-35.938,+8.812,-7.438,-72, -11, -1, 1, 4, 1, -3, -7
1503697333336,+0.793,+0.559,+0.210,-0.121,+0.865,-0.430,-0.250,-36.000,+6.125,-10.438,14, -2, 1, 1, -3, 2, 8, 4
1503697333352,+0.795,+0.559,+0.204,-0.122,+0.856,-0.444,-0.244,-36.625,-3.938,-14.312,-8, -2, -1, -2, -1, 0, -5, -5
1503697333374,+0.797,+0.557,+0.198,-0.123,+0.849,-0.449,-0.267,-35.938,-10.188,-15.688,-3, 0, 0, 0, -9, -1, 2, 1
1503697333396,+0.799,+0.555,+0.192,-0.125,+0.822,-0.456,-0.281,-35.625,-7.438,-14.250,-27, -8, -2, 0, -2, -4, -6, -8
1503697333412,+0.801,+0.555,+0.187,-0.126,+0.817,-0.470,-0.278,-34.750,-1.250,-13.500,-70, -5, 3, 1, 1, -2, -6, -14
1503697333434,+0.802,+0.554,+0.181,-0.128,+0.880,-0.453,-0.271,-33.250,-2.375,-11.625,35, 7, 1, 0, -21, 2, 1, 4
1503697333457,+0.804,+0.553,+0.176,-0.129,+0.913,-0.439,-0.302,-31.438,-8.312,-8.875,12, 2, -7, -3, 1, -2, -2, 2
1503697333474,+0.807,+0.550,+0.172,-0.130,+0.896,-0.452,-0.317,-30.562,-14.312,-9.625,11, -6, -7, -5, 9, -2, -1, 1
1503697333494,+0.809,+0.547,+0.168,-0.131,+0.877,-0.436,-0.316,-28.562,-15.812,-8.875,2, -6, -3, -2, -12, -2, 6, 6
1503697333516,+0.811,+0.545,+0.164,-0.132,+0.885,-0.412,-0.333,-24.562,-10.875,-4.312,26, 2, 0, -3, 18, 2, 0, -2
1503697333532,+0.812,+0.544,+0.161,-0.134,+0.896,-0.413,-0.331,-21.875,-6.312,-0.500,5, -2, 4, 1, -25, 1, -1, -4
1503697333554,+0.814,+0.543,+0.159,-0.135,+0.926,-0.396,-0.334,-20.812,-8.062,+0.875,-9, -2, 1, 0, -5, 1, 6, 2
1503697333580,+0.815,+0.541,+0.156,-0.136,+0.876,-0.376,-0.333,-19.188,-9.750,+1.000,1, -2, 0, 0, 8, 4, 7, 8
1503697333592,+0.816,+0.539,+0.154,-0.138,+0.845,-0.383,-0.355,-18.438,-5.500,+2.312,23, 0, -1, -2, -30, -1, -3, -4
1503697333614,+0.816,+0.540,+0.152,-0.141,+0.862,-0.392,-0.355,-16.312,+7.188,+6.562,-11, -5, -3, -3, 0, -5, -2, -2
1503697333636,+0.815,+0.541,+0.150,-0.143,+0.865,-0.382,-0.338,-14.312,+16.875,+7.562,8, -1, -1, 1, 3, -1, 0, -1
1503697333652,+0.814,+0.543,+0.148,-0.145,+0.864,-0.369,-0.314,-13.812,+15.250,+6.125,23, 1, 1, -2, 9, 1, 3, 9
1503697333676,+0.813,+0.544,+0.146,-0.147,+0.862,-0.362,-0.326,-13.688,+12.000,+3.062,13, 6, 0, 2, -4, 3, 2, 7
1503697333696,+0.812,+0.546,+0.144,-0.149,+0.858,-0.365,-0.308,-13.688,+14.625,+3.750,-31, 1, -1, 1, -3, 0, -2, -5
1503697333713,+0.810,+0.548,+0.142,-0.151,+0.918,-0.353,-0.297,-12.938,+15.500,+7.000,-2, 4, 1, -2, -17, -2, -3, -4
1503697333735,+0.810,+0.549,+0.141,-0.152,+0.925,-0.367,-0.302,-12.938,+7.750,+5.562,3, 1, 2, 0, 6, -2, -2, -1
1503697333756,+0.810,+0.549,+0.139,-0.153,+0.874,-0.387,-0.308,-13.375,+0.438,-2.125,-48, -10, -9, -3, -7, -1, 0, -14
1503697333772,+0.810,+0.548,+0.136,-0.154,+0.796,-0.383,-0.326,-16.062,-0.312,-4.375,12, 3, 0, 0, 15, 0, 1, 5
1503697333796,+0.810,+0.549,+0.134,-0.156,+0.790,-0.390,-0.321,-17.938,+9.125,-0.625,32, 7, -2, -2, -20, -2, -1, 6
1503697333819,+0.809,+0.551,+0.131,-0.158,+0.827,-0.379,-0.303,-17.375,+20.188,+1.750,8, 7, -2, -1, -9, -4, 1, 3
1503697333839,+0.807,+0.554,+0.129,-0.160,+0.868,-0.386,-0.278,-17.688,+21.875,+0.312,-23, -3, -2, -2, -18, -2, -1, -3
1503697333855,+0.805,+0.556,+0.126,-0.162,+0.877,-0.391,-0.290,-17.938,+17.875,-1.688,12, -8, -3, 0, 15, 1, -3, -2
1503697333877,+0.804,+0.558,+0.123,-0.164,+0.869,-0.388,-0.304,-16.750,+15.875,-2.250,21, -1, 1, 2, -12, 0, -1, 3
1503697333892,+0.803,+0.559,+0.120,-0.165,+0.858,-0.376,-0.318,-15.125,+14.125,-3.125,-6, 2, 1, -1, -2, -1, -2, 1
1503697333915,+0.803,+0.560,+0.118,-0.166,+0.847,-0.362,-0.296,-16.688,+11.625,-2.625,-5, 1, 0, 1, 4, 2, 2, -1
1503697333936,+0.802,+0.562,+0.115,-0.168,+0.849,-0.370,-0.279,-18.188,+11.812,+0.625,-8, -6, -1, -2, 4, -1, -1, 0
1503697333952,+0.801,+0.563,+0.113,-0.171,+0.862,-0.384,-0.293,-18.250,+14.500,+3.500,-2, 1, -1, 0, 17, 2, -2, -5
1503697334005,+0.799,+0.565,+0.111,-0.174,+0.888,-0.396,-0.291,-17.500,+18.625,+6.438,-13, -8, -1, 0, -4, -3, -3, -4
1503697334008,+0.797,+0.567,+0.109,-0.176,+0.903,-0.402,-0.292,-16.000,+18.625,+5.750,2, -2, -3, -2, -5, 0, -1, 2
1503697334015,+0.796,+0.568,+0.107,-0.178,+0.901,-0.396,-0.273,-15.750,+11.062,+3.812,-7, -4, 0, -3, -9, -4, -5, -3
1503697334036,+0.795,+0.569,+0.106,-0.180,+0.891,-0.406,-0.257,-14.562,+6.750,+3.312,-19, -6, -5, 0, -3, -1, 1, -1
1503697334057,+0.794,+0.570,+0.105,-0.182,+0.890,-0.422,-0.261,-12.438,+10.062,+4.500,-4, 0, -5, -2, -4, -1, -3, -2
1503697334072,+0.793,+0.572,+0.104,-0.184,+0.912,-0.409,-0.277,-10.250,+15.000,+4.125,3, 6, 9, 1, 7, 1, -1, -2
1503697334095,+0.792,+0.573,+0.103,-0.185,+0.904,-0.407,-0.259,-8.750,+10.750,+1.250,14, 4, -1, 3, 4, -1, -3, -1
1503697334121,+0.791,+0.574,+0.102,-0.186,+0.899,-0.397,-0.248,-5.938,+8.812,-1.188,25, -5, -5, -2, 13, 3, 0, 2
1503697334132,+0.789,+0.576,+0.102,-0.186,+0.880,-0.422,-0.239,-1.000,+8.938,-2.125,15, 0, -4, -3, -29, 0, 0, -2
1503697334155,+0.787,+0.579,+0.102,-0.186,+0.887,-0.446,-0.214,+0.062,+16.250,-2.188,-12, 7, 5, 0, 2, 0, -1, -2
1503697334179,+0.785,+0.582,+0.102,-0.186,+0.913,-0.449,-0.187,+0.750,+22.562,-2.625,-21, -12, -5, -4, -4, -1, -1, -3
1503697334192,+0.782,+0.586,+0.102,-0.186,+0.938,-0.445,-0.192,+2.125,+21.125,-3.125,-19, -2, -2, -1, -5, -1, -1, -3
1503697334215,+0.780,+0.589,+0.103,-0.185,+0.921,-0.445,-0.200,+3.875,+15.750,-6.625,-8, 2, -2, 1, 13, 1, 0, 0
1503697334236,+0.778,+0.591,+0.102,-0.184,+0.910,-0.456,-0.186,+2.375,+12.688,-10.688,-8, -5, -5, -2, 3, 1, 2, -3
1503697334254,+0.777,+0.594,+0.102,-0.183,+0.911,-0.434,-0.184,+2.312,+15.438,-12.000,13, 4, -1, -1, 3, -2, -1, 2
1503697334275,+0.775,+0.597,+0.101,-0.181,+0.928,-0.413,-0.188,+4.312,+16.562,-11.688,13, -3, -11, -6, -14, -1, 1, 1
1503697334296,+0.773,+0.599,+0.100,-0.180,+0.934,-0.424,-0.197,+3.250,+15.000,-11.625,-2, 2, -1, -2, 1, -3, -2, -2
1503697334319,+0.772,+0.602,+0.100,-0.178,+0.941,-0.417,-0.170,+1.562,+13.062,-12.062,-15, -7, 0, 1, -16, -1, 0, -1
1503697334335,+0.771,+0.604,+0.099,-0.177,+0.936,-0.406,-0.175,+0.875,+10.188,-11.688,-26, -5, 2, -1, -3, 1, 1, 4
1503697334356,+0.771,+0.605,+0.098,-0.175,+0.915,-0.403,-0.210,+2.125,+7.000,-14.688,0, 5, 4, -1, 1, 0, -2, -1
1503697334372,+0.771,+0.606,+0.096,-0.172,+0.876,-0.400,-0.210,+2.000,+6.250,-20.375,-11, -9, -6, -1, -6, -2, -2, -2
1503697334397,+0.770,+0.608,+0.095,-0.170,+0.911,-0.377,-0.164,+0.312,+10.188,-18.312,19, 2, 1, 0, 12, -1, -4, -1
1503697334418,+0.769,+0.610,+0.094,-0.168,+0.936,-0.362,-0.179,+2.000,+12.438,-12.125,-7, 0, 1, 4, 0, -1, 1, 0
1503697334432,+0.767,+0.612,+0.093,-0.167,+0.907,-0.354,-0.196,+2.625,+17.562,-10.062,-5, -14, -3, 0, -3, -1, -5, -3
1503697334457,+0.765,+0.615,+0.092,-0.165,+0.933,-0.337,-0.211,+4.625,+19.125,-10.812,11, 1, 3, 1, -3, 1, 1, 2
1503697334476,+0.765,+0.617,+0.091,-0.163,+0.968,-0.327,-0.197,+7.188,+10.812,-12.625,-22, -22, -12, -6, -3, -4, 0, -5
1503697334493,+0.765,+0.618,+0.090,-0.160,+0.961,-0.322,-0.186,+7.125,+3.312,-12.938,1, -2, 0, -1, 4, -1, 1, -4
1503697334516,+0.765,+0.618,+0.090,-0.158,+0.943,-0.327,-0.185,+7.938,+2.000,-9.688,-19, 12, 3, 5, -1, -2, -2, -1
1503697334537,+0.764,+0.619,+0.090,-0.156,+0.912,-0.310,-0.202,+8.625,+6.438,-7.875,9, 16, 1, -4, -4, -4, -6, 1
1503697334553,+0.764,+0.620,+0.090,-0.154,+0.921,-0.300,-0.192,+8.188,+9.312,-7.250,10, 1, -2, -3, -1, 0, 0, 1
1503697334575,+0.763,+0.622,+0.091,-0.152,+0.943,-0.298,-0.181,+8.938,+7.625,-3.812,-7, 3, -11, -3, 2, -2, -3, 2
1503697334596,+0.762,+0.623,+0.091,-0.151,+0.926,-0.312,-0.172,+8.438,+5.438,-4.438,11, 1, -1, -2, 7, -1, -1, -4
1503697334615,+0.761,+0.624,+0.091,-0.149,+0.934,-0.300,-0.148,+7.188,+10.188,-5.250,18, 11, -6, -4, 2, -3, 0, 5
1503697334635,+0.761,+0.626,+0.091,-0.147,+0.949,-0.290,-0.167,+7.875,+8.625,-4.875,-37, -18, 0, 7, -18, 1, 2, -3
1503697334658,+0.760,+0.627,+0.092,-0.145,+0.951,-0.289,-0.165,+8.500,+5.438,-5.750,4, 1, 2, 1, 6, -1, 4, -1
1503697336374,+0.805,+0.552,+0.179,-0.125,+0.864,-0.405,-0.274,+41.375,+2.562,+17.312,6, -1, 0, 2, 5, 0, 1, 4
1503697336398,+0.803,+0.553,+0.186,-0.122,+0.867,-0.408,-0.284,+41.688,+0.438,+15.688,-17, -5, -3, 0, 0, 0, 0, -2
1503697336419,+0.801,+0.553,+0.194,-0.120,+0.835,-0.434,-0.301,+42.188,+2.375,+14.250,41, 6, -2, -1, -6, -3, -4, 2
1503697336434,+0.799,+0.554,+0.200,-0.118,+0.862,-0.425,-0.276,+40.688,+3.500,+13.750,15, 5, 4, 1, -2, -3, -1, -3
1503697336456,+0.798,+0.555,+0.207,-0.116,+0.866,-0.433,-0.274,+41.875,+3.500,+14.188,-43, -6, -1, 0, -6, -2, 1, 3
1503697336479,+0.796,+0.555,+0.214,-0.114,+0.845,-0.448,-0.250,+41.250,+3.750,+12.000,7, -2, 1, 0, -1, 0, 1, 1
1503697336495,+0.794,+0.556,+0.220,-0.111,+0.835,-0.441,-0.235,+40.562,+3.250,+11.750,4, 1, -4, -2, 5, -2, 3, 0
1503697336516,+0.792,+0.557,+0.226,-0.109,+0.815,-0.445,-0.236,+38.938,+4.438,+8.000,-23, -7, -4, -1, -6, 6, 0, -2
1503697336539,+0.790,+0.558,+0.232,-0.106,+0.826,-0.448,-0.242,+37.875,+4.562,+7.500,27, 5, 5, -1, -7, -7, -4, 1
1503697336554,+0.788,+0.559,+0.237,-0.103,+0.836,-0.443,-0.229,+37.562,+5.312,+8.312,-17, -6, -2, -2, -3, -3, -4, -5
1503697336577,+0.786,+0.560,+0.243,-0.101,+0.821,-0.454,-0.225,+37.750,+4.938,+6.688,16, 3, -4, -1, -2, -3, -3, -2
1503697336602,+0.784,+0.561,+0.248,-0.098,+0.813,-0.455,-0.205,+34.188,+2.125,+5.875,-31, -7, 0, 0, 1, -3, -7, -10
1503697336621,+0.782,+0.561,+0.252,-0.095,+0.811,-0.438,-0.202,+33.250,+1.625,+5.812,5, 0, 0, 1, -3, 1, 0, 1
1503697336644,+0.781,+0.562,+0.257,-0.093,+0.804,-0.458,-0.203,+33.250,+3.688,+7.625,-27, -4, -3, 1, 9, 1, 4, -1
1503697336659,+0.779,+0.562,+0.262,-0.091,+0.829,-0.477,-0.197,+30.500,+4.688,+7.438,19, -1, -4, 0, -4, -2, -4, 2
1503697336674,+0.777,+0.563,+0.266,-0.089,+0.824,-0.466,-0.179,+28.625,+4.750,+8.500,6, -1, -2, -1, -2, 1, -1, 0
1503697336697,+0.775,+0.564,+0.271,-0.088,+0.797,-0.469,-0.182,+29.812,+4.250,+8.562,-38, -9, -4, -1, 0, -2, 1, 1
1503697336719,+0.774,+0.564,+0.275,-0.086,+0.810,-0.482,-0.172,+28.062,+1.812,+7.438,8, 0, -5, -6, -4, -7, -6, -4
1503697336736,+0.772,+0.564,+0.279,-0.084,+0.810,-0.486,-0.142,+24.188,+0.812,+7.688,-23, -5, 1, -3, -3, 1, -1, -5
1503697336756,+0.771,+0.565,+0.283,-0.083,+0.804,-0.489,-0.159,+23.688,+3.375,+8.875,27, 8, 7, 2, 2, 2, 2, 1
1503697336779,+0.769,+0.565,+0.287,-0.082,+0.797,-0.492,-0.153,+21.812,+6.000,+11.000,9, 0, 0, 1, 4, 3, 2, 0
1503697336794,+0.768,+0.565,+0.290,-0.082,+0.836,-0.505,-0.150,+20.500,+4.625,+9.875,1, 2, -3, -2, 0, -2, -2, 2
1503697336816,+0.767,+0.565,+0.294,-0.081,+0.811,-0.521,-0.128,+17.000,-3.125,+8.938,-15, 3, 4, 2, -16, -4, 0, -2
1503697336839,+0.766,+0.564,+0.296,-0.080,+0.800,-0.527,-0.117,+12.938,-6.688,+7.500,-5, -1, 4, 0, -6, 1, -5, -11
1503697336854,+0.766,+0.563,+0.299,-0.080,+0.795,-0.529,-0.129,+9.812,-4.500,+9.125,-23, -3, -2, -2, 2, -4, -5, 2
1503697336876,+0.766,+0.562,+0.301,-0.080,+0.788,-0.525,-0.124,+6.625,-3.562,+7.562,-13, 4, -3, -1, 3, -2, 0, -1
1503697336899,+0.765,+0.563,+0.302,-0.080,+0.830,-0.525,-0.091,+5.312,+2.000,+6.812,20, -11, -4, 1, 22, 3, 3, 3
1503697336914,+0.764,+0.563,+0.304,-0.081,+0.855,-0.533,-0.090,+4.062,+2.062,+8.625,25, -2, -10, -4, -9, -3, -2, 0
1503697336936,+0.764,+0.563,+0.304,-0.081,+0.860,-0.558,-0.093,-0.438,-6.000,+6.000,35, 7, 1, -1, 0, -2, 3, -1
1503697336959,+0.765,+0.561,+0.305,-0.081,+0.794,-0.526,-0.125,-2.562,-8.625,+4.312,-35, -1, -1, -3, -5, -1, -1, -12
1503697336974,+0.764,+0.562,+0.305,-0.082,+0.791,-0.562,-0.105,-2.250,+6.500,+5.562,-3, -8, -4, -1, 0, 3, 4, 8
1503697337000,+0.763,+0.563,+0.305,-0.084,+0.873,-0.574,-0.096,-5.125,+10.000,+7.438,24, -6, -4, -1, -2, -1, 5, 7
1503697337019,+0.762,+0.564,+0.305,-0.086,+0.863,-0.572,-0.072,-10.250,+3.812,+5.750,2, 6, 4, 1, -5, -4, -5, 0
1503697337034,+0.762,+0.564,+0.304,-0.088,+0.825,-0.579,-0.068,-13.625,+1.750,+5.875,-47, -5, -7, -3, 2, 0, -6, -6
1503697337056,+0.762,+0.565,+0.303,-0.091,+0.764,-0.556,-0.120,-15.562,+11.250,+5.750,49, 10, 6, 1, 3, -2, -4, -5
1503697337079,+0.761,+0.567,+0.301,-0.094,+0.839,-0.576,-0.123,-15.562,+18.750,+5.812,-19, -10, -8, -3, 0, -3, 0, 1
1503697337094,+0.760,+0.569,+0.299,-0.096,+0.842,-0.547,-0.105,-19.375,+12.875,+1.750,-13, 7, 4, 3, 0, 0, 0, -5
1503697337117,+0.760,+0.570,+0.296,-0.098,+0.822,-0.547,-0.102,-18.938,+7.625,+0.062,-7, -10, 1, 1, -2, 3, 11, 4
1503697337139,+0.760,+0.570,+0.294,-0.100,+0.799,-0.557,-0.130,-19.000,+7.750,+0.250,37, 1, 2, -2, -2, -2, -10, -9
1503697337154,+0.760,+0.571,+0.291,-0.103,+0.792,-0.562,-0.136,-21.500,+8.625,-0.062,-3, 6, 4, 0, 0, -2, 0, -1
1503697337176,+0.760,+0.572,+0.289,-0.106,+0.798,-0.560,-0.136,-23.625,+11.375,+0.750,-9, -4, -5, -3, -3, -2, 4, -8
1503697337200,+0.760,+0.573,+0.285,-0.109,+0.799,-0.533,-0.137,-25.312,+13.312,+0.875,-19, -3, 1, -2, -5, 2, -3, 1
1503697337214,+0.761,+0.574,+0.282,-0.112,+0.798,-0.530,-0.147,-25.688,+7.875,-1.250,18, -9, -1, -3, 0, -1, -1, 4
1503697337237,+0.762,+0.573,+0.278,-0.113,+0.809,-0.521,-0.167,-23.875,+0.875,-3.688,3, 3, -2, 0, -4, -1, -5, -6
1503697337270,+0.764,+0.572,+0.274,-0.114,+0.763,-0.513,-0.182,-26.188,-4.188,-8.750,18, 1, -5, -1, 0, 0, 0, 18
1503697337274,+0.766,+0.572,+0.270,-0.116,+0.739,-0.519,-0.163,-26.875,+3.188,-7.875,18, -3, -4, -1, 2, 5, 6, 13
1503697337296,+0.766,+0.573,+0.265,-0.118,+0.769,-0.485,-0.144,-28.312,+6.500,-7.312,-16, 6, 2, -4, -2, -2, 4, -1
1503697337319,+0.768,+0.573,+0.260,-0.120,+0.775,-0.456,-0.201,-27.562,+4.125,-6.500,-16, -7, -3, 1, 8, 1, 3, -8
1503697337334,+0.770,+0.572,+0.255,-0.121,+0.766,-0.432,-0.217,-27.562,+1.562,-9.500,11, -1, -1, 0, -7, -6, -1, 10
1503697337356,+0.772,+0.571,+0.250,-0.122,+0.744,-0.411,-0.241,-29.812,-4.375,-11.688,-12, 0, -3, -2, 15, 0, -1, -7
1503697337379,+0.775,+0.570,+0.244,-0.122,+0.730,-0.386,-0.236,-31.375,-3.688,-13.938,6, -1, -1, 1, -11, -1, -9, -9
1503697337394,+0.777,+0.569,+0.237,-0.124,+0.728,-0.373,-0.250,-32.875,+1.812,-12.062,-10, -2, 0, -1, -10, 1, -3, 1
1503697337416,+0.779,+0.570,+0.231,-0.125,+0.747,-0.379,-0.262,-32.375,+8.938,-11.250,-9, 6, -3, -1, 4, 0, 0, 2
1503697337439,+0.780,+0.571,+0.225,-0.127,+0.784,-0.377,-0.271,-30.312,+12.500,-12.188,-4, -2, 0, -1, -4, -2, -5, -9
1503697337454,+0.781,+0.572,+0.219,-0.127,+0.826,-0.371,-0.249,-29.625,+10.188,-13.688,-21, -4, -5, -2, 0, 0, 3, 5
1503697337477,+0.782,+0.571,+0.213,-0.127,+0.900,-0.373,-0.253,-26.625,-0.625,-11.375,-17, -6, -8, -2, 0, -2, -1, 7
1503697337498,+0.785,+0.569,+0.208,-0.127,+0.865,-0.403,-0.270,-24.625,-11.312,-11.562,-38, -5, -3, -1, 3, -2, -1, -2
1503697337514,+0.789,+0.566,+0.203,-0.127,+0.837,-0.434,-0.286,-27.562,-23.938,-17.000,0, -15, -9, -2, -7, -3, -2, -7
1503697337536,+0.793,+0.562,+0.198,-0.126,+0.843,-0.438,-0.293,-29.812,-27.875,-19.750,2, 5, -1, -2, 0, 0, -2, 1
1503697337558,+0.797,+0.558,+0.193,-0.126,+0.854,-0.434,-0.263,-28.562,-22.812,-15.312,-45, -2, -3, 2, 1, -5, -7, -11
1503697337574,+0.800,+0.556,+0.189,-0.126,+0.869,-0.438,-0.253,-26.625,-20.688,-11.750,-2, -1, 2, 2, -1, 2, -3, -6
1503697337596,+0.803,+0.552,+0.185,-0.126,+0.908,-0.467,-0.303,-26.625,-24.750,-11.312,-34, -1, -3, -1, -5, 0, 1, -1
1503697337619,+0.808,+0.547,+0.181,-0.125,+0.907,-0.500,-0.339,-28.812,-35.188,-15.375,25, -3, -8, -2, -1, 1, -3, -3
1503697337637,+0.813,+0.541,+0.176,-0.124,+0.918,-0.470,-0.317,-30.875,-38.875,-18.500,-11, -8, 1, -2, -6, 0, -3, -4
1503697337656,+0.817,+0.536,+0.172,-0.124,+0.884,-0.449,-0.284,-28.625,-37.688,-14.000,-18, -5, -5, -2, -4, -3, -4, -11
1503697337679,+0.820,+0.532,+0.169,-0.125,+0.875,-0.469,-0.302,-26.688,-32.750,-7.250,60, 12, 6, 3, -11, 1, 4, 7
1503697337694,+0.824,+0.527,+0.166,-0.126,+0.871,-0.475,-0.351,-27.188,-29.250,-3.562,-6, -4, -2, -2, 1, -1, 0, 2
1503697337716,+0.827,+0.523,+0.163,-0.127,+0.880,-0.479,-0.361,-27.938,-27.750,-3.812,-16, 1, -6, -3, -5, -3, -2, 1
1503697337741,+0.830,+0.519,+0.160,-0.128,+0.911,-0.462,-0.362,-26.875,-30.562,-4.812,-3, -1, -1, -1, -2, 0, 2, 1
1503697337754,+0.833,+0.515,+0.158,-0.129,+0.896,-0.439,-0.351,-23.750,-26.062,-1.875,8, -2, -2, -1, 1, 0, 2, 3
1503697337776,+0.835,+0.511,+0.155,-0.130,+0.856,-0.428,-0.358,-23.125,-24.688,+0.438,16, 19, 9, 0, -9, 2, -1, 2
1503697337799,+0.837,+0.508,+0.153,-0.132,+0.832,-0.424,-0.373,-23.875,-23.750,+3.750,39, 0, 2, 2, 3, 0, 0, 10
1503697337814,+0.839,+0.505,+0.152,-0.135,+0.833,-0.436,-0.398,-21.375,-13.438,+5.562,37, 7, 6, 2, 0, 2, 3, 5
1503697337838,+0.840,+0.504,+0.150,-0.137,+0.857,-0.424,-0.375,-21.188,-8.625,+4.500,40, 6, -4, -1, -2, 0, 2, 6
1503697337858,+0.841,+0.502,+0.148,-0.139,+0.870,-0.418,-0.390,-21.125,-13.000,+3.688,-19, 2, -4, -3, -3, -4, -4, -7
1503697337875,+0.843,+0.499,+0.146,-0.140,+0.849,-0.417,-0.412,-19.312,-15.875,+1.312,-3, 6, 6, -1, 1, -2, -4, -6
1503697337896,+0.844,+0.496,+0.144,-0.142,+0.821,-0.406,-0.397,-20.625,-16.875,+1.812,-20, 0, -1, 1, -2, -3, -6, -8
1503697337919,+0.846,+0.494,+0.142,-0.143,+0.817,-0.420,-0.399,-19.750,-14.438,+1.812,-4, -5, -1, -1, 2, 2, 2, -2
1503697337934,+0.846,+0.493,+0.141,-0.145,+0.818,-0.422,-0.400,-16.062,-5.188,+0.250,-9, -7, -6, -3, -5, -4, -4, 3
1503697337956,+0.846,+0.493,+0.139,-0.146,+0.812,-0.404,-0.419,-14.250,+1.438,-1.812,-11, -4, 2, 0, -3, 3, 0, 1
1503697337979,+0.847,+0.493,+0.137,-0.146,+0.829,-0.384,-0.452,-14.562,-1.750,-3.438,-19, -5, -5, -2, 0, -1, -1, -7
1503697337995,+0.848,+0.492,+0.134,-0.146,+0.832,-0.383,-0.450,-14.188,-5.125,-5.375,19, 14, 0, 2, -1, 0, 3, 1
1503697338016,+0.849,+0.491,+0.132,-0.146,+0.800,-0.384,-0.448,-12.625,-3.750,-8.312,-26, -9, -4, -5, -4, -3, -3, -5
1503697338041,+0.849,+0.491,+0.130,-0.146,+0.805,-0.371,-0.436,-10.125,+0.875,-8.812,1, 9, -2, -1, -1, -3, 1, 4
1503697338054,+0.849,+0.491,+0.129,-0.145,+0.821,-0.379,-0.411,-9.562,+1.250,-8.750,-27, -19, -4, 0, -3, -3, 0, -1
1503697338076,+0.849,+0.492,+0.127,-0.145,+0.831,-0.404,-0.392,-9.062,+4.312,-8.438,28, 7, 3, -1, 0, -2, -3, -1
1503697338099,+0.848,+0.495,+0.126,-0.144,+0.861,-0.402,-0.390,-7.000,+11.562,-9.250,24, 6, 0, -2, 1, 3, 0, 3
1503697338114,+0.847,+0.497,+0.125,-0.143,+0.873,-0.413,-0.392,-4.875,+11.375,-11.125,-19, -12, -10, 0, 0, 1, 0, 1
1503697338136,+0.846,+0.499,+0.123,-0.142,+0.876,-0.385,-0.395,-4.000,+9.625,-14.312,2, -4, 8, 1, -1, -1, -2, -1
1503697338159,+0.845,+0.501,+0.121,-0.140,+0.884,-0.367,-0.379,-2.812,+7.375,-15.562,-11, -5, 2, -1, -1, -1, -2, -2
1503697338175,+0.845,+0.503,+0.120,-0.138,+0.869,-0.365,-0.372,-2.438,+7.312,-15.562,-24, -3, -4, -5, -1, -2, -4, -9
1503697338196,+0.844,+0.506,+0.119,-0.136,+0.846,-0.361,-0.375,-2.375,+11.312,-15.938,6, -3, 3, 0, 5, 1, 2, -1
1503697338219,+0.843,+0.508,+0.117,-0.133,+0.845,-0.337,-0.384,-0.938,+14.750,-18.500,-26, 1, 1, -1, -12, -1, -2, -3
1503697338234,+0.842,+0.511,+0.115,-0.130,+0.868,-0.329,-0.392,-0.562,+12.875,-20.875,2, -7, 1, 0, -2, -1, -2, 1
1503697338256,+0.841,+0.513,+0.113,-0.127,+0.880,-0.330,-0.390,-1.188,+10.438,-22.250,-22, 5, 8, 0, 1, -2, 2, -2
1503697338279,+0.841,+0.515,+0.111,-0.124,+0.891,-0.323,-0.386,+0.375,+8.875,-22.688,-3, -3, -10, -1, 0, 0, 1, -2
1503697338295,+0.840,+0.517,+0.109,-0.121,+0.875,-0.318,-0.380,+1.250,+7.938,-22.688,11, 11, 19, 4, 1, -2, -1, 0
1503697338316,+0.840,+0.519,+0.107,-0.117,+0.856,-0.303,-0.377,+1.125,+6.938,-23.188,27, 8, -4, -1, -1, 0, -1, -1
1503697338341,+0.840,+0.520,+0.105,-0.114,+0.871,-0.294,-0.382,-0.125,+7.562,-21.875,24, 2, 5, 1, 1, 2, 4, 8
1503697338354,+0.839,+0.522,+0.103,-0.111,+0.905,-0.277,-0.382,+0.500,+8.438,-19.250,0, 1, -7, -1, 6, -3, -3, 2
1503697338377,+0.839,+0.523,+0.102,-0.108,+0.907,-0.285,-0.392,+1.062,+2.312,-18.438,-13, -14, -5, -1, -3, 0, -1, -4
1503697338398,+0.840,+0.523,+0.100,-0.106,+0.891,-0.288,-0.372,-1.688,-1.875,-19.562,29, 11, 5, 0, 1, -1, 0, -2
1503697338415,+0.840,+0.523,+0.099,-0.103,+0.883,-0.265,-0.371,-2.625,-3.000,-17.375,-5, -9, -15, -3, -4, 1, 1, 1
1503697338437,+0.840,+0.523,+0.097,-0.101,+0.882,-0.264,-0.382,-1.312,-0.188,-13.938,-46, -18, -6, -1, 1, 0, 0, 4
1503697338458,+0.840,+0.524,+0.096,-0.100,+0.896,-0.261,-0.393,-1.188,+5.125,-8.688,8, -8, -7, -1, 13, 0, 0, -1
1503697338476,+0.840,+0.525,+0.095,-0.099,+0.917,-0.271,-0.397,-1.688,+4.250,-8.562,-6, 16, 1, -3, -6, 0, -1, -2
1503697338497,+0.840,+0.525,+0.094,-0.097,+0.911,-0.262,-0.387,-3.875,-4.688,-12.562,10, 19, 2, -2, -8, -1, -1, -5
1503697338519,+0.841,+0.524,+0.093,-0.095,+0.886,-0.239,-0.382,-2.562,-5.750,-12.500,1, 13, 11, 2, 0, -1, -3, -2
1503697338535,+0.842,+0.524,+0.091,-0.093,+0.883,-0.251,-0.391,-1.438,-1.812,-12.312,-6, -15, -6, -2, 0, 0, -4, -4
1503697338557,+0.842,+0.525,+0.090,-0.091,+0.895,-0.245,-0.385,-2.812,+2.375,-12.188,9, -2, 2, 1, 0, -1, -1, 1
1503697338579,+0.842,+0.525,+0.089,-0.090,+0.930,-0.230,-0.374,-2.438,-2.062,-12.125,-21, -10, -2, 0, -2, -2, -1, -2
1503697338595,+0.843,+0.524,+0.088,-0.087,+0.887,-0.253,-0.378,-1.000,-7.938,-15.062,-25, -4, -6, -3, -2, -1, 0, -1
1503697338618,+0.843,+0.524,+0.086,-0.085,+0.876,-0.241,-0.376,-0.938,-1.688,-15.312,-31, -8, -14, -4, -2, -2, -2, -4
1503697338640,+0.843,+0.524,+0.085,-0.083,+0.900,-0.232,-0.396,-0.938,+0.375,-12.562,-9, -10, -6, 0, 0, -1, -1, -9
1503697338655,+0.843,+0.524,+0.084,-0.082,+0.894,-0.253,-0.395,-3.875,-2.250,-13.188,-11, -5, -1, -3, -1, -2, -4, -1
1503697338677,+0.844,+0.524,+0.082,-0.080,+0.907,-0.205,-0.384,-5.625,-1.438,-11.125,-5, -9, 6, 1, -3, 1, -2, 0
1503697338699,+0.844,+0.524,+0.081,-0.079,+0.895,-0.191,-0.410,-2.250,-1.125,-8.312,34, 14, -5, -1, -2, 3, 3, 4
1503697338715,+0.844,+0.524,+0.080,-0.078,+0.889,-0.195,-0.396,-1.438,+1.312,-7.875,55, 3, 4, 0, 0, 1, 1, 4
1503697338737,+0.844,+0.524,+0.079,-0.076,+0.917,-0.194,-0.418,-1.438,-0.688,-8.562,41, 28, 1, 1, 0, 2, -2, 1
1503697338758,+0.845,+0.523,+0.078,-0.075,+0.886,-0.194,-0.421,-2.312,-7.125,-10.312,-5, -6, -3, 0, 0, -4, 5, 6
1503697340680,+0.834,+0.528,+0.149,-0.050,+0.934,-0.320,-0.396,+37.688,+22.250,+19.188,26, 8, 1, -1, 1, 0, -1, 2
1503697340702,+0.831,+0.531,+0.156,-0.050,+0.891,-0.316,-0.374,+37.938,+22.125,+19.562,-8, -2, -3, -2, 4, 10, 7, 4
1503697340717,+0.828,+0.534,+0.164,-0.050,+0.885,-0.319,-0.375,+39.875,+25.938,+20.312,1, 2, -11, -4, -1, -4, 0, 1
1503697340740,+0.824,+0.537,+0.171,-0.050,+0.906,-0.327,-0.374,+40.375,+28.875,+22.562,-24, 0, 5, 4, -3, 3, 2, 2
1503697340762,+0.820,+0.541,+0.179,-0.050,+0.900,-0.343,-0.346,+41.000,+30.375,+23.750,5, 4, 2, -4, -4, -4, -3, 2
1503697340777,+0.816,+0.544,+0.187,-0.050,+0.887,-0.356,-0.353,+42.562,+28.312,+23.375,-4, -9, -1, 0, 7, -1, -4, -4
1503697340800,+0.813,+0.547,+0.194,-0.050,+0.884,-0.337,-0.334,+43.000,+23.375,+23.000,-18, -9, -7, -3, -1, -5, 2, -2
1503697340822,+0.809,+0.549,+0.202,-0.050,+0.843,-0.354,-0.327,+43.875,+25.562,+24.312,-34, -3, 1, 1, 0, -4, -5, -8
1503697340837,+0.805,+0.552,+0.210,-0.050,+0.816,-0.365,-0.308,+44.688,+31.062,+25.125,-23, -2, 8, 3, 6, 0, 0, 0
1503697340860,+0.800,+0.556,+0.219,-0.050,+0.832,-0.361,-0.283,+44.938,+35.688,+26.938,-14, -3, 5, 2, 0, -4, -7, -1
1503697340882,+0.795,+0.560,+0.227,-0.051,+0.855,-0.371,-0.275,+46.938,+35.250,+27.125,-21, -1, -4, 0, 0, 1, 1, -3
1503697340898,+0.791,+0.562,+0.235,-0.050,+0.869,-0.396,-0.263,+47.688,+27.500,+24.375,7, 16, 8, -1, -3, -1, -3, 3
1503697340920,+0.788,+0.564,+0.243,-0.049,+0.820,-0.401,-0.241,+44.312,+17.625,+19.562,-32, -5, 2, 1, 3, 0, -2, -5
1503697340942,+0.785,+0.565,+0.250,-0.048,+0.790,-0.401,-0.215,+43.438,+16.625,+16.562,25, 2, -2, -3, -10, 0, 2, 0
1503697340959,+0.781,+0.568,+0.257,-0.047,+0.781,-0.417,-0.206,+42.688,+22.875,+17.500,-25, -6, -2, 3, 1, -3, -3, -3
1503697340980,+0.777,+0.570,+0.264,-0.046,+0.820,-0.421,-0.197,+40.688,+24.375,+16.312,23, 4, 0, 1, 2, -2, 1, 1
1503697341002,+0.773,+0.572,+0.270,-0.045,+0.797,-0.414,-0.166,+37.625,+20.000,+13.562,6, -11, -4, -2, -1, -5, -4, -4
1503697341017,+0.770,+0.574,+0.276,-0.043,+0.801,-0.417,-0.154,+37.562,+18.000,+10.812,-1, -1, 0, 0, 0, -3, 0, 0
1503697341040,+0.767,+0.575,+0.281,-0.042,+0.815,-0.435,-0.155,+35.625,+14.938,+11.438,-22, -5, -1, 2, 12, 2, 1, 2
1503697341063,+0.764,+0.577,+0.286,-0.041,+0.823,-0.443,-0.131,+30.750,+10.938,+10.625,-26, -6, -2, -2, -4, -1, 1, 0
1503697341077,+0.762,+0.577,+0.291,-0.039,+0.779,-0.431,-0.104,+27.000,+6.375,+9.062,17, 3, -2, -2, -3, -1, -3, 1
1503697341106,+0.760,+0.578,+0.295,-0.038,+0.784,-0.441,-0.113,+23.125,+6.938,+8.562,-20, -9, 2, 1, -2, -1, -3, -8
1503697341131,+0.758,+0.579,+0.298,-0.038,+0.807,-0.448,-0.118,+21.312,+12.500,+11.312,1, 0, -4, -1, 0, 1, 1, -5
1503697341137,+0.757,+0.579,+0.301,-0.038,+0.824,-0.449,-0.097,+16.062,+6.000,+10.062,49, 11, 2, -3, -2, 0, 9, 11
1503697341161,+0.756,+0.579,+0.304,-0.038,+0.795,-0.451,-0.089,+12.062,+0.812,+9.188,58, 23, 18, 1, 5, 8, 1, -1
1503697341182,+0.755,+0.579,+0.306,-0.039,+0.809,-0.493,-0.092,+8.500,+4.688,+11.125,3, -6, -11, -4, 1, -2, -1, 4
1503697341198,+0.754,+0.579,+0.308,-0.040,+0.804,-0.491,-0.080,+2.500,+6.125,+10.062,-32, 2, 4, -1, -4, -4, -2, -4
1503697341220,+0.753,+0.580,+0.309,-0.041,+0.816,-0.482,-0.066,-1.188,+8.000,+8.812,-44, -12, -1, 2, -1, -1, -5, -5
1503697341242,+0.752,+0.580,+0.309,-0.043,+0.858,-0.471,-0.044,-5.812,+5.375,+9.000,6, 4, -1, 0, 1, -4, -6, -2
1503697341257,+0.752,+0.580,+0.309,-0.044,+0.837,-0.465,-0.078,-5.688,+0.312,+8.938,-21, -9, -5, -2, -8, -5, -1, -4
1503697341280,+0.753,+0.580,+0.309,-0.046,+0.831,-0.494,-0.116,-5.938,+1.125,+8.812,-2, -1, 6, 2, 0, -2, 1, -2
1503697341301,+0.753,+0.580,+0.309,-0.048,+0.838,-0.500,-0.088,-7.625,+3.188,+8.250,26, 8, 2, -1, -6, -6, -3, -2
1503697341316,+0.752,+0.580,+0.309,-0.050,+0.850,-0.510,-0.071,-9.250,+3.812,+8.500,1, 2, 2, 1, 1, 1, -1, 4
1503697341338,+0.753,+0.580,+0.308,-0.052,+0.855,-0.514,-0.057,-13.688,+2.438,+7.188,39, -2, 0, -1, -4, 0, 1, 1
1503697341362,+0.752,+0.581,+0.307,-0.055,+0.841,-0.508,-0.017,-17.000,+6.250,+7.188,25, 9, 1, 2, 2, -1, -2, 1
1503697341383,+0.752,+0.582,+0.305,-0.058,+0.903,-0.508,-0.042,-20.062,+10.500,+9.312,-38, -5, 0, 1, 6, -4, -1, -10
1503697341399,+0.752,+0.582,+0.303,-0.062,+0.850,-0.483,-0.116,-24.000,+6.062,+10.062,4, 3, 1, -2, -10, 0, -2, -2
1503697341421,+0.753,+0.582,+0.300,-0.065,+0.817,-0.465,-0.117,-24.938,+4.625,+7.812,18, -1, -6, -3, -5, -6, -2, -2
1503697341443,+0.753,+0.582,+0.298,-0.069,+0.796,-0.490,-0.135,-22.125,+12.500,+8.312,-2, -9, -7, -2, 0, 0, -1, 0
1503697341458,+0.753,+0.583,+0.295,-0.072,+0.881,-0.509,-0.132,-20.312,+12.938,+7.812,10, -3, -4, -1, 1, 0, 1, 3
1503697341481,+0.754,+0.583,+0.293,-0.074,+0.853,-0.487,-0.100,-23.375,+0.188,+3.625,26, 3, -2, -5, 1, -5, -6, -2
1503697341504,+0.756,+0.582,+0.290,-0.076,+0.808,-0.476,-0.109,-22.875,-4.750,+1.000,-8, 1, 0, 1, 4, 4, 5, -2
1503697341518,+0.757,+0.581,+0.287,-0.079,+0.789,-0.471,-0.133,-23.375,-1.188,+1.688,9, -1, -2, -1, -4, -1, 0, 3
1503697341549,+0.758,+0.581,+0.284,-0.081,+0.793,-0.471,-0.125,-24.438,+3.938,+0.812,48, 2, -1, -1, -2, 0, 0, 5
1503697341565,+0.759,+0.581,+0.280,-0.083,+0.873,-0.476,-0.100,-25.688,+0.500,+1.312,-2, -8, -2, -1, -9, -2, -1, 5
1503697341578,+0.762,+0.580,+0.277,-0.085,+0.852,-0.466,-0.124,-28.000,-10.562,+0.125,-11, -2, -1, 1, -4, -4, -3, -7
1503697341601,+0.764,+0.578,+0.273,-0.087,+0.804,-0.493,-0.154,-30.188,-13.000,-2.000,28, 1, 0, -4, -6, -5, -11, -5
1503697341623,+0.766,+0.576,+0.269,-0.089,+0.782,-0.475,-0.155,-29.375,-5.562,-2.375,-8, -9, -4, 0, 2, -1, -3, -9
1503697341639,+0.769,+0.575,+0.265,-0.091,+0.868,-0.474,-0.177,-27.375,-6.500,-3.500,-16, 3, 7, 4, 17, 2, -1, -5
1503697341663,+0.771,+0.573,+0.261,-0.092,+0.851,-0.500,-0.186,-27.875,-13.062,-5.812,-4, 3, 2, -1, -9, 0, 8, 10
1503697341683,+0.774,+0.571,+0.256,-0.093,+0.835,-0.495,-0.176,-29.625,-16.750,-8.375,-32, -8, -2, 0, 0, 1, -7, -9
1503697341703,+0.777,+0.568,+0.252,-0.094,+0.839,-0.480,-0.189,-27.750,-15.875,-6.000,31, 1, 0, 2, 0, 0, 6, 0
1503697341721,+0.780,+0.566,+0.249,-0.095,+0.802,-0.482,-0.206,-23.750,-13.188,-6.188,-13, -4, -6, -6, -4, -4, -5, -3
1503697341743,+0.782,+0.565,+0.246,-0.096,+0.810,-0.484,-0.213,-20.812,-8.062,-4.875,-2, -1, -3, 0, 3, 4, 3, 0
1503697341758,+0.783,+0.564,+0.243,-0.097,+0.851,-0.490,-0.209,-19.312,-6.875,-3.688,-9, 1, 0, -1, 2, 2, -4, 2
1503697341781,+0.784,+0.563,+0.241,-0.098,+0.862,-0.484,-0.186,-17.938,-5.625,-1.875,1, 1, -3, -2, -1, -1, 2, -2
1503697341804,+0.786,+0.561,+0.239,-0.099,+0.871,-0.494,-0.201,-16.688,-14.188,-2.000,3, 0, 2, 3, -1, -1, -3, 5
1503697341818,+0.789,+0.558,+0.237,-0.099,+0.854,-0.501,-0.209,-16.625,-22.562,-4.500,0, 0, 0, 0, 2, 1, 2, -4
1503697341841,+0.792,+0.555,+0.236,-0.098,+0.870,-0.496,-0.206,-14.312,-24.562,-3.688,-4, 4, 0, -3, -5, -3, 2, 3
1503697341866,+0.794,+0.552,+0.234,-0.098,+0.864,-0.506,-0.227,-12.938,-23.062,-2.812,-14, 0, 5, 1, -2, -2, -2, -2
1503697341878,+0.797,+0.548,+0.233,-0.098,+0.845,-0.507,-0.227,-14.000,-23.250,-1.500,17, -2, -4, -2, 6, 0, -3, -1
1503697341901,+0.799,+0.545,+0.232,-0.099,+0.842,-0.507,-0.226,-14.062,-23.062,-1.688,-4, -2, -2, -1, -7, 2, 6, 2
1503697341923,+0.801,+0.543,+0.231,-0.099,+0.848,-0.517,-0.229,-11.688,-15.062,-1.562,9, 3, 0, 0, 1, -3, -7, -5
1503697341939,+0.802,+0.543,+0.230,-0.099,+0.888,-0.517,-0.217,-10.438,-7.000,+0.188,30, -2, -4, -4, -3, -4, -1, 3
1503697341961,+0.803,+0.542,+0.229,-0.100,+0.922,-0.506,-0.243,-9.562,-10.625,+0.125,24, 7, 4, 1, 1, 0, -4, 0
1503697341983,+0.805,+0.539,+0.228,-0.099,+0.877,-0.493,-0.253,-10.438,-18.688,-3.938,-1, -6, -1, -1, 1, 2, -2, -6
1503697341999,+0.807,+0.537,+0.227,-0.099,+0.800,-0.479,-0.260,-10.812,-19.000,-7.062,7, -1, -1, -1, -1, -3, 0, -2
1503697342021,+0.808,+0.536,+0.225,-0.098,+0.782,-0.474,-0.249,-10.375,-9.188,-5.750,-20, -2, 0, 0, -2, 3, 6, -1
1503697342043,+0.808,+0.536,+0.224,-0.099,+0.803,-0.483,-0.265,-7.938,+3.875,-4.500,9, -1, -1, -3, 1, 0, -4, 3
1503697342058,+0.807,+0.537,+0.223,-0.099,+0.865,-0.491,-0.256,-8.188,+6.188,-5.688,-4, -8, -2, -1, 3, -1, 2, -1
1503697342081,+0.808,+0.537,+0.221,-0.098,+0.895,-0.482,-0.249,-10.312,-4.688,-8.312,29, 0, -2, -1, -1, 1, 3, 1
1503697342104,+0.810,+0.536,+0.219,-0.096,+0.849,-0.468,-0.260,-10.625,-16.688,-15.938,2, 3, 3, 1, -2, -1, -1, 2
