Timestamp,Orientation X,Orientation Y,Orientation Z,Orientation W,Accelerometer X,Accelerometer Y,Accelerometer Z,Gyroscope X,Gyroscope Y,Gyroscope Z,EMG1,EMG2,EMG3,EMG4,EMG5,EMG6,EMG7,EMG8,Roll,Yaw,Window
1503697313336,+0.910,+0.242,-0.127,-0.312,+0.536,+0.087,-0.812,-1.000,-0.062,+0.625,-2, 0, 0, -1, -1, 0, 0, -3,-2.458514018101865,0.5484366935471922,0
1503697313364,+0.910,+0.242,-0.127,-0.312,+0.544,+0.086,-0.809,-0.812,+0.438,+0.688,0, 0, -2, 0, -1, 0, -1, -2,-2.458514018101865,0.5484366935471922,0
1503697313380,+0.910,+0.242,-0.127,-0.312,+0.549,+0.085,-0.812,-0.750,+0.375,+0.750,-1, -1, 0, -1, -2, 0, -1, -1,-2.458514018101865,0.5484366935471922,0
1503697313396,+0.910,+0.242,-0.127,-0.312,+0.543,+0.081,-0.815,-1.125,-0.312,+0.688,-1, 0, -1, 0, -1, -2, -1, 0,-2.458514018101865,0.5484366935471922,0
1503697313419,+0.910,+0.242,-0.127,-0.312,+0.544,+0.086,-0.817,-1.250,+0.188,+0.562,-1, -1, -1, 0, 0, -2, -2, -1,-2.458514018101865,0.5484366935471922,0
1503697313441,+0.910,+0.242,-0.127,-0.312,+0.539,+0.083,-0.812,-1.062,-0.438,+0.875,-2, -1, -1, -1, -1, 1, 0, 0,-2.458514018101865,0.5484366935471922,0
1503697313456,+0.910,+0.242,-0.127,-0.312,+0.548,+0.079,-0.809,-1.062,-0.062,+0.750,1, -1, 1, 1, 0, 0, 0, 0,-2.458514018101865,0.5484366935471922,0
1503697313479,+0.910,+0.242,-0.127,-0.312,+0.541,+0.082,-0.813,-0.875,-0.562,+0.375,-1, -2, -1, -2, 0, -1, 0, -2,-2.458514018101865,0.5484366935471922,0
1503697313502,+0.910,+0.242,-0.127,-0.312,+0.534,+0.080,-0.817,-1.062,-0.562,+0.562,0, 0, -1, 0, 0, -2, 0, 0,-2.458514018101865,0.5484366935471922,0
1503697313516,+0.910,+0.242,-0.127,-0.312,+0.546,+0.086,-0.809,-1.375,+0.000,+0.312,-3, -2, -1, -1, -2, -1, -1, -2,-2.458514018101865,0.5484366935471922,0
1503697313539,+0.910,+0.242,-0.127,-0.312,+0.542,+0.090,-0.815,-0.875,+0.250,+0.688,2, 1, -2, -1, -1, 0, -1, -1,-2.458514018101865,0.5484366935471922,0
1503697313568,+0.910,+0.242,-0.127,-0.312,+0.540,+0.083,-0.819,-0.875,-0.438,+1.125,1, -1, -1, -2, 0, -2, -1, -1,-2.458514018101865,0.5484366935471922,0
1503697313577,+0.910,+0.242,-0.127,-0.312,+0.544,+0.079,-0.805,-1.312,+0.250,+0.750,-1, 0, -1, -1, -1, -1, 1, 0,-2.458514018101865,0.5484366935471922,0
1503697313599,+0.910,+0.242,-0.127,-0.312,+0.539,+0.086,-0.814,-1.625,+0.000,+0.625,1, 0, 1, -2, 0, 0, 0, 0,-2.458514018101865,0.5484366935471922,0
1503697313621,+0.910,+0.242,-0.127,-0.312,+0.546,+0.089,-0.806,-1.312,+0.688,+0.812,0, 0, -1, 0, 0, 0, -1, 0,-2.458514018101865,0.5484366935471922,0
1503697313641,+0.910,+0.242,-0.127,-0.312,+0.547,+0.080,-0.813,-1.312,-0.312,+0.875,-2, -1, -2, 0, -1, -1, 0, -1,-2.458514018101865,0.5484366935471922,0
1503697313660,+0.910,+0.242,-0.127,-0.312,+0.543,+0.088,-0.817,-1.000,-0.812,+0.562,-1, -1, -2, -1, -2, -1, 1, 0,-2.458514018101865,0.5484366935471922,0
1503697313680,+0.910,+0.242,-0.127,-0.312,+0.537,+0.082,-0.811,-1.000,+0.125,+0.688,-2, -1, 0, 0, -1, 0, -1, -2,-2.458514018101865,0.5484366935471922,0
1503697313696,+0.910,+0.242,-0.127,-0.312,+0.543,+0.086,-0.810,-1.125,+0.375,+0.750,-2, -1, 0, -1, 0, 0, 0, -1,-2.458514018101865,0.5484366935471922,0
1503697313718,+0.910,+0.242,-0.127,-0.312,+0.554,+0.088,-0.810,-1.125,+0.500,+0.625,1, -2, -1, 0, -1, -1, -1, -1,-2.458514018101865,0.5484366935471922,0
1503697313741,+0.910,+0.242,-0.127,-0.312,+0.550,+0.086,-0.809,-1.000,-0.562,+0.750,0, 1, -1, -1, 1, -1, 0, 0,-2.458514018101865,0.5484366935471922,0
1503697313756,+0.910,+0.243,-0.127,-0.312,+0.549,+0.080,-0.810,-0.875,-0.500,+0.562,0, -2, -1, 0, -1, -1, 0, 0,-2.4589301125140537,0.5505018321409378,0
1503697313781,+0.910,+0.242,-0.127,-0.312,+0.539,+0.085,-0.824,-0.812,-0.438,+0.688,-2, 1, 0, 0, -1, -2, 0, 0,-2.458514018101865,0.5484366935471922,0
1503697313803,+0.910,+0.242,-0.127,-0.312,+0.537,+0.084,-0.811,-1.125,-0.750,+0.500,-1, -2, -1, -1, -1, 0, -2, 0,-2.458514018101865,0.5484366935471922,0
1503697313816,+0.910,+0.243,-0.127,-0.312,+0.543,+0.085,-0.809,-0.812,+1.312,+0.562,-2, -1, -1, 0, -1, -1, 0, -1,-2.4589301125140537,0.5505018321409378,0
1503697313848,+0.910,+0.243,-0.127,-0.312,+0.546,+0.085,-0.819,-0.812,+0.062,+0.750,-1, -1, -1, 0, -1, -2, -1, 0,-2.4589301125140537,0.5505018321409378,0
1503697313861,+0.910,+0.243,-0.127,-0.312,+0.556,+0.072,-0.806,-1.000,+0.500,+0.500,-1, -2, -1, -2, -2, -2, -1, 0,-2.4589301125140537,0.5505018321409378,0
1503697313876,+0.910,+0.243,-0.127,-0.312,+0.542,+0.081,-0.810,-1.438,+0.125,+0.688,-1, -1, -2, 0, -2, -2, -1, 0,-2.4589301125140537,0.5505018321409378,0
1503697313898,+0.910,+0.243,-0.127,-0.312,+0.543,+0.088,-0.813,-1.562,-1.062,+0.312,1, 0, 0, 1, -1, 0, -1, -1,-2.4589301125140537,0.5505018321409378,0
1503697313921,+0.910,+0.243,-0.127,-0.312,+0.542,+0.089,-0.805,-0.938,+0.625,+0.750,0, 1, -1, 0, 0, -2, -2, -1,-2.4589301125140537,0.5505018321409378,0
1503697313939,+0.910,+0.243,-0.127,-0.312,+0.542,+0.084,-0.824,-0.875,-0.625,+0.812,0, -1, -1, -1, -1, -1, -2, 0,-2.4589301125140537,0.5505018321409378,0
1503697313958,+0.910,+0.243,-0.127,-0.312,+0.545,+0.080,-0.804,-1.000,+0.188,+0.625,-1, 1, -3, -1, -2, 0, -1, -1,-2.4589301125140537,0.5505018321409378,0
1503697313981,+0.910,+0.243,-0.127,-0.312,+0.543,+0.082,-0.808,-1.250,+0.062,+0.625,0, 0, 2, -1, 0, 0, -1, -1,-2.4589301125140537,0.5505018321409378,0
1503697313996,+0.910,+0.243,-0.127,-0.312,+0.551,+0.085,-0.805,-1.562,-0.375,+0.562,0, 0, -1, 0, -1, 0, 0, -3,-2.4589301125140537,0.5505018321409378,0
1503697314018,+0.910,+0.243,-0.127,-0.312,+0.551,+0.086,-0.802,-1.250,+0.125,+0.750,-3, 0, -1, -1, 0, -2, 0, -2,-2.4589301125140537,0.5505018321409378,0
1503697314041,+0.910,+0.243,-0.127,-0.312,+0.534,+0.088,-0.821,-1.062,-1.188,+0.625,-3, -2, -1, -1, 0, -1, -1, 0,-2.4589301125140537,0.5505018321409378,0
1503697314056,+0.910,+0.243,-0.127,-0.312,+0.540,+0.081,-0.813,-1.000,+0.312,+0.500,-1, -2, -1, -2, -1, -1, -1, 1,-2.4589301125140537,0.5505018321409378,0
1503697314079,+0.910,+0.243,-0.127,-0.312,+0.542,+0.084,-0.810,-0.938,+0.938,+0.375,-1, -1, 0, 0, 0, 0, 0, -1,-2.4589301125140537,0.5505018321409378,0
1503697314106,+0.910,+0.243,-0.127,-0.312,+0.557,+0.086,-0.805,-1.312,-0.062,+0.062,-1, 0, -2, -3, 1, -1, 0, -1,-2.4589301125140537,0.5505018321409378,0
1503697314128,+0.910,+0.243,-0.127,-0.312,+0.556,+0.077,-0.810,-0.938,+0.312,+0.625,0, -1, 0, -1, -1, -1, -3, -1,-2.4589301125140537,0.5505018321409378,0
1503697314140,+0.910,+0.243,-0.126,-0.312,+0.540,+0.085,-0.812,-1.375,-1.875,+0.625,1, -2, -1, -1, -1, -1, 0, 0,-2.4593080920930857,0.5497029541875192,0
1503697314161,+0.910,+0.243,-0.126,-0.312,+0.542,+0.085,-0.810,-1.188,+0.062,+0.625,-1, 0, 0, -1, -1, 0, 0, -1,-2.4593080920930857,0.5497029541875192,0
1503697314179,+0.910,+0.243,-0.126,-0.312,+0.538,+0.083,-0.816,-0.938,+0.375,+0.750,-1, 0, -1, -1, -1, -1, -1, -2,-2.4593080920930857,0.5497029541875192,0
1503697314198,+0.910,+0.243,-0.126,-0.312,+0.549,+0.082,-0.811,-1.062,+0.125,+0.438,-1, 0, 0, -1, 0, -1, -1, -2,-2.4593080920930857,0.5497029541875192,0
1503697314221,+0.910,+0.243,-0.126,-0.312,+0.546,+0.082,-0.806,-1.062,-0.250,+0.500,0, 0, 0, 0, -2, 0, 0, 1,-2.4593080920930857,0.5497029541875192,0
1503697314237,+0.910,+0.243,-0.126,-0.312,+0.547,+0.084,-0.814,-0.938,-0.375,+0.625,1, -2, -1, 0, -1, -3, 0, -2,-2.4593080920930857,0.5497029541875192,0
1503697314259,+0.910,+0.243,-0.126,-0.312,+0.544,+0.081,-0.805,-1.312,-0.875,+0.562,-1, -2, -1, -2, 0, 0, -1, 0,-2.4593080920930857,0.5497029541875192,0
1503697314281,+0.910,+0.243,-0.126,-0.312,+0.539,+0.085,-0.815,-1.188,-0.438,+0.750,-1, -2, -1, -2, -2, -1, 0, -1,-2.4593080920930857,0.5497029541875192,0
1503697314299,+0.910,+0.243,-0.126,-0.312,+0.541,+0.087,-0.810,-1.000,-0.500,+0.750,-2, 0, -1, 1, -1, -2, -1, -1,-2.4593080920930857,0.5497029541875192,0
1503697314319,+0.910,+0.243,-0.126,-0.312,+0.542,+0.084,-0.818,-0.938,+0.125,+1.125,-1, 0, -1, -2, -1, -2, -1, 0,-2.4593080920930857,0.5497029541875192,0
1503697314341,+0.910,+0.243,-0.126,-0.312,+0.546,+0.084,-0.809,-1.062,+0.125,+0.938,0, 1, -1, -2, 0, -1, 0, -2,-2.4593080920930857,0.5497029541875192,0
1503697314355,+0.910,+0.243,-0.126,-0.312,+0.545,+0.074,-0.809,-1.250,+0.125,+0.750,-1, 0, -1, 1, -1, 1, -1, -1,-2.4593080920930857,0.5497029541875192,0
1503697314377,+0.910,+0.243,-0.126,-0.312,+0.548,+0.079,-0.812,-1.500,-0.500,+0.500,1, -1, -2, 0, 0, 1, -1, 0,-2.4593080920930857,0.5497029541875192,0
1503697314412,+0.910,+0.243,-0.126,-0.312,+0.543,+0.087,-0.811,-1.438,-0.312,+0.375,0, 0, -2, -1, 0, -1, -1, -1,-2.4593080920930857,0.5497029541875192,0
1503697314417,+0.910,+0.243,-0.126,-0.312,+0.532,+0.082,-0.807,-1.000,-0.188,+0.500,1, 0, 0, 1, -1, -2, -1, -1,-2.4593080920930857,0.5497029541875192,0
1503697314437,+0.910,+0.243,-0.126,-0.312,+0.551,+0.084,-0.809,-0.625,+0.625,+0.625,1, 0, -2, -1, 0, -1, -1, 0,-2.4593080920930857,0.5497029541875192,0
1503697314460,+0.910,+0.243,-0.126,-0.312,+0.546,+0.075,-0.815,-1.062,-0.250,+0.625,-1, -1, 0, -2, -2, 0, -1, 1,-2.4593080920930857,0.5497029541875192,0
1503697314478,+0.910,+0.243,-0.126,-0.312,+0.540,+0.084,-0.814,-1.312,-0.438,+0.625,-2, -2, -2, 0, -2, 0, 0, -1,-2.4593080920930857,0.5497029541875192,0
1503697314498,+0.910,+0.243,-0.126,-0.312,+0.548,+0.079,-0.803,-1.438,+0.188,+0.688,1, -1, -1, -1, 0, -1, 0, 1,-2.4593080920930857,0.5497029541875192,0
1503697314520,+0.910,+0.243,-0.126,-0.312,+0.548,+0.089,-0.819,-1.125,-0.750,+0.562,1, -1, -2, -1, -1, -1, 0, 0,-2.4593080920930857,0.5497029541875192,0
1503697314536,+0.910,+0.243,-0.126,-0.312,+0.538,+0.089,-0.816,-0.562,-0.562,+0.688,0, -2, -1, -4, 0, -1, -1, -1,-2.4593080920930857,0.5497029541875192,0
1503697314557,+0.910,+0.243,-0.126,-0.312,+0.534,+0.076,-0.812,-0.812,-0.438,+0.500,-2, 0, 0, 0, -3, -1, -3, 0,-2.4593080920930857,0.5497029541875192,0
1503697314580,+0.910,+0.243,-0.126,-0.312,+0.548,+0.075,-0.814,-1.125,+0.812,+0.562,0, -2, 1, -1, 0, 0, 0, -1,-2.4593080920930857,0.5497029541875192,0
1503697314596,+0.910,+0.243,-0.126,-0.312,+0.548,+0.084,-0.810,-1.688,+0.188,+0.750,-1, 1, 0, -1, -1, -1, -1, -1,-2.4593080920930857,0.5497029541875192,0
1503697314618,+0.910,+0.243,-0.126,-0.312,+0.552,+0.084,-0.802,-1.562,+0.062,+0.750,-1, 1, -2, 0, 0, -1, 0, -3,-2.4593080920930857,0.5497029541875192,0
1503697314642,+0.910,+0.243,-0.126,-0.312,+0.542,+0.090,-0.811,-1.062,-1.062,+0.750,0, -2, -1, 0, -1, -1, -2, -1,-2.4593080920930857,0.5497029541875192,0
1503697314656,+0.910,+0.243,-0.126,-0.312,+0.535,+0.077,-0.819,-0.750,-0.812,+0.625,0, -1, 0, 1, -1, -1, -1, -1,-2.4593080920930857,0.5497029541875192,0
1503697314677,+0.910,+0.243,-0.126,-0.312,+0.535,+0.083,-0.816,-0.875,-0.062,+0.688,-1, -3, -2, -1, -2, 0, 0, -1,-2.4593080920930857,0.5497029541875192,0
1503697314700,+0.910,+0.243,-0.126,-0.312,+0.548,+0.077,-0.804,-1.188,+0.750,+0.625,1, -1, -2, -2, 1, -3, -1, -1,-2.4593080920930857,0.5497029541875192,0
1503697314722,+0.910,+0.243,-0.126,-0.312,+0.551,+0.082,-0.809,-1.000,+0.375,+0.812,-2, -3, 0, -1, -1, -1, -1, -2,-2.4593080920930857,0.5497029541875192,0
1503697314737,+0.910,+0.243,-0.126,-0.312,+0.548,+0.083,-0.809,-1.000,-0.625,+0.875,2, 1, 0, -1, 1, 1, 0, -2,-2.4593080920930857,0.5497029541875192,0
1503697314760,+0.910,+0.243,-0.126,-0.312,+0.538,+0.082,-0.814,-0.938,+0.375,+0.750,-1, -1, 0, 0, -2, -1, -1, 1,-2.4593080920930857,0.5497029541875192,0
1503697314784,+0.910,+0.243,-0.126,-0.312,+0.532,+0.080,-0.814,-1.000,-0.125,+0.750,1, 1, -1, -1, -1, 0, 2, 1,-2.4593080920930857,0.5497029541875192,0
1503697314797,+0.910,+0.243,-0.126,-0.312,+0.546,+0.080,-0.805,-1.250,+1.375,+0.438,0, 0, 0, -2, 2, -1, -2, 0,-2.4593080920930857,0.5497029541875192,0
1503697314820,+0.910,+0.244,-0.126,-0.312,+0.556,+0.084,-0.814,-1.250,-0.062,+0.500,-1, -1, -1, 1, -2, -3, -1, -2,-2.4597272875145326,0.5517695616730643,0
1503697314845,+0.910,+0.243,-0.126,-0.312,+0.547,+0.082,-0.811,-1.500,-1.375,+0.562,-2, -1, -1, 0, -1, -1, 1, -1,-2.4593080920930857,0.5497029541875192,0
1503697314857,+0.910,+0.243,-0.126,-0.312,+0.539,+0.082,-0.813,-1.312,-0.062,+0.500,-2, -1, -3, -2, 1, -2, -1, -3,-2.4593080920930857,0.5497029541875192,0
1503697314880,+0.910,+0.243,-0.126,-0.312,+0.541,+0.086,-0.807,-1.312,-0.625,+0.500,0, 0, -2, -1, -1, -1, -2, -2,-2.4593080920930857,0.5497029541875192,0
1503697314902,+0.910,+0.243,-0.126,-0.312,+0.544,+0.079,-0.812,-0.938,+0.375,+0.500,0, -1, 0, 0, -1, -1, -1, 2,-2.4593080920930857,0.5497029541875192,0
1503697314917,+0.910,+0.243,-0.126,-0.312,+0.544,+0.080,-0.817,-1.000,+0.062,+0.625,-1, 0, -1, -1, -1, -1, -1, -2,-2.4593080920930857,0.5497029541875192,0
1503697314940,+0.910,+0.243,-0.126,-0.312,+0.542,+0.083,-0.809,-1.125,+0.312,+0.750,-3, -1, 0, 0, -1, 0, -1, 0,-2.4593080920930857,0.5497029541875192,0
1503697314962,+0.910,+0.243,-0.126,-0.312,+0.546,+0.078,-0.807,-0.938,+0.625,+0.938,1, 0, -2, -2, -2, -1, 0, 2,-2.4593080920930857,0.5497029541875192,0
1503697314979,+0.910,+0.243,-0.126,-0.312,+0.557,+0.078,-0.808,-1.500,-0.688,+0.500,1, -1, -1, -1, 1, 2, -2, -1,-2.4593080920930857,0.5497029541875192,0
1503697315000,+0.910,+0.243,-0.126,-0.312,+0.549,+0.089,-0.814,-1.188,-0.812,+0.438,0, -2, -1, -2, 0, 0, -1, -1,-2.4593080920930857,0.5497029541875192,0
1503697315022,+0.910,+0.243,-0.126,-0.312,+0.532,+0.083,-0.814,-0.875,-0.812,+0.625,-1, -2, -2, -2, -2, -3, 0, -2,-2.4593080920930857,0.5497029541875192,0
1503697315037,+0.910,+0.243,-0.126,-0.312,+0.535,+0.088,-0.818,-1.062,+0.125,+0.562,0, 1, 0, 1, -1, -2, 0, -1,-2.4593080920930857,0.5497029541875192,0
1503697315060,+0.910,+0.244,-0.126,-0.312,+0.548,+0.087,-0.813,-0.500,+1.062,+0.750,-3, -2, -2, -2, -1, 0, 0, -1,-2.4597272875145326,0.5517695616730643,0
1503697315083,+0.910,+0.244,-0.126,-0.312,+0.551,+0.073,-0.806,-0.938,+0.000,+0.750,-1, 0, 0, 0, -1, -2, -1, 0,-2.4597272875145326,0.5517695616730643,0
1503697315097,+0.910,+0.244,-0.126,-0.312,+0.552,+0.079,-0.814,-1.250,+0.000,+0.562,-1, 0, -2, -1, 0, 0, 0, -1,-2.4597272875145326,0.5517695616730643,0
1503697315123,+0.910,+0.244,-0.126,-0.312,+0.541,+0.082,-0.813,-1.250,-0.250,+0.688,0, -2, 1, -1, 0, -2, 0, -1,-2.4597272875145326,0.5517695616730643,0
1503697315142,+0.910,+0.244,-0.126,-0.312,+0.542,+0.078,-0.807,-1.250,-0.562,+0.500,0, 0, 0, 0, -2, 0, -1, -2,-2.4597272875145326,0.5517695616730643,0
1503697315157,+0.910,+0.244,-0.126,-0.312,+0.541,+0.081,-0.822,-0.688,+0.875,+0.312,-2, 0, -1, -1, 0, -1, 0, 1,-2.4597272875145326,0.5517695616730643,0
1503697315180,+0.910,+0.244,-0.126,-0.312,+0.541,+0.077,-0.811,-1.062,-0.438,+0.438,-1, 0, -2, 1, -1, -1, -3, -1,-2.4597272875145326,0.5517695616730643,0
1503697315202,+0.909,+0.244,-0.126,-0.312,+0.555,+0.079,-0.803,-1.625,+0.875,+0.062,-1, -3, 0, -1, 1, -2, -1, -2,-2.4579104581696827,0.5513526893680559,0
1503697315218,+0.909,+0.244,-0.126,-0.312,+0.551,+0.087,-0.809,-1.250,+0.000,+0.625,0, 0, 0, 0, 0, -1, 0, 0,-2.4579104581696827,0.5513526893680559,0
1503697315240,+0.909,+0.244,-0.126,-0.312,+0.554,+0.086,-0.810,-1.312,-1.188,+0.812,-2, -1, 0, 0, -1, 0, -2, -2,-2.4579104581696827,0.5513526893680559,0
1503697315256,+0.909,+0.244,-0.126,-0.312,+0.544,+0.085,-0.814,-0.750,-1.125,+0.562,0, 0, -1, -2, 0, 0, -1, 2,-2.4579104581696827,0.5513526893680559,0
1503697315278,+0.909,+0.244,-0.126,-0.312,+0.534,+0.082,-0.812,-0.688,-0.938,+0.500,0, -1, 0, -1, -2, 0, 0, -1,-2.4579104581696827,0.5513526893680559,0
1503697315300,+0.909,+0.244,-0.126,-0.312,+0.540,+0.071,-0.815,-1.500,-0.562,+0.125,0, 0, -1, -2, -1, 0, 0, 0,-2.4579104581696827,0.5513526893680559,0
1503697315316,+0.909,+0.244,-0.126,-0.312,+0.545,+0.084,-0.815,-1.562,+1.062,+0.188,1, -1, -2, 0, -1, -2, 0, -1,-2.4579104581696827,0.5513526893680559,0
1503697315347,+0.909,+0.244,-0.126,-0.312,+0.543,+0.079,-0.811,-1.625,-0.125,+0.438,0, 1, -1, -1, 0, -1, 0, 0,-2.4579104581696827,0.5513526893680559,0
1503697315362,+0.909,+0.244,-0.126,-0.312,+0.556,+0.081,-0.817,-1.562,+0.188,-0.062,-1, -1, -2, -1, -1, -1, 0, -1,-2.4579104581696827,0.5513526893680559,0
1503697315382,+0.909,+0.244,-0.126,-0.312,+0.544,+0.093,-0.812,-1.750,-1.062,+0.250,-3, -1, -2, -2, 0, -1, 0, -1,-2.4579104581696827,0.5513526893680559,0
1503697315398,+0.909,+0.244,-0.126,-0.312,+0.535,+0.072,-0.804,-1.625,-1.000,+0.375,1, -1, 1, 0, -3, -2, -1, -1,-2.4579104581696827,0.5513526893680559,0
1503697315420,+0.909,+0.244,-0.126,-0.312,+0.549,+0.093,-0.813,-2.062,+1.062,+0.312,-2, -1, -1, -2, -1, -2, -1, 0,-2.4579104581696827,0.5513526893680559,0
1503697315442,+0.909,+0.244,-0.127,-0.312,+0.541,+0.093,-0.819,-1.562,-0.250,+0.938,0, -1, -1, -1, 0, -4, -2, 0,-2.4575304789143275,0.5521518465263358,0
1503697315457,+0.909,+0.244,-0.126,-0.312,+0.542,+0.082,-0.806,-1.250,+0.000,+0.875,-2, -2, -1, 0, -1, -1, -1, 0,-2.4579104581696827,0.5513526893680559,0
1503697315482,+0.909,+0.244,-0.126,-0.312,+0.560,+0.082,-0.811,-1.125,+0.562,+0.625,0, 0, 1, 0, 0, -1, -2, -2,-2.4579104581696827,0.5513526893680559,0
1503697315502,+0.909,+0.244,-0.126,-0.312,+0.542,+0.083,-0.809,-0.875,-0.812,+0.562,-1, -1, -3, -1, -2, 1, -1, -1,-2.4579104581696827,0.5513526893680559,0
1503697315518,+0.909,+0.244,-0.126,-0.312,+0.546,+0.081,-0.805,-0.188,+0.188,+0.375,-3, 0, -1, -2, -7, -1, 0, 0,-2.4579104581696827,0.5513526893680559,0
1503697315541,+0.909,+0.244,-0.126,-0.312,+0.545,+0.072,-0.817,-0.688,-0.438,+0.438,-3, -2, -1, -1, 7, 0, 0, -2,-2.4579104581696827,0.5513526893680559,0
1503697315562,+0.909,+0.244,-0.126,-0.312,+0.541,+0.072,-0.817,-1.438,-0.438,+0.000,1, -3, -1, 0, 2, -2, 0, 1,-2.4579104581696827,0.5513526893680559,0
1503697315577,+0.909,+0.244,-0.127,-0.312,+0.544,+0.083,-0.811,-1.750,+0.812,+0.000,-1, 0, -1, -1, -2, -1, 0, 1,-2.4575304789143275,0.5521518465263358,0
1503697315600,+0.909,+0.244,-0.127,-0.312,+0.551,+0.088,-0.811,-1.688,+0.125,+0.562,1, 1, -1, -1, -1, 0, -1, -3,-2.4575304789143275,0.5521518465263358,0
1503697315622,+0.909,+0.244,-0.127,-0.312,+0.547,+0.084,-0.822,-1.250,-0.562,+0.375,0, 0, -1, -1, -2, 1, -1, -1,-2.4575304789143275,0.5521518465263358,0
1503697315638,+0.909,+0.244,-0.127,-0.312,+0.538,+0.085,-0.816,-1.062,-0.688,+0.375,0, 0, -2, -1, -2, -1, -2, 0,-2.4575304789143275,0.5521518465263358,0
1503697315660,+0.909,+0.244,-0.127,-0.312,+0.536,+0.083,-0.817,-1.125,-0.188,+0.250,0, 0, 1, -1, -2, -2, -1, -1,-2.4575304789143275,0.5521518465263358,0
1503697315686,+0.909,+0.244,-0.127,-0.312,+0.542,+0.078,-0.814,-1.312,+0.938,+0.000,0, 0, -2, -2, -1, 0, -1, 0,-2.4575304789143275,0.5521518465263358,0
1503697315697,+0.909,+0.245,-0.127,-0.312,+0.552,+0.088,-0.810,-1.500,+0.062,+0.062,-3, 0, 0, -1, -1, 1, -2, -2,-2.4579531234625525,0.5542190390336932,0
1503697315720,+0.909,+0.245,-0.127,-0.312,+0.547,+0.078,-0.807,-1.375,-0.625,+0.188,-1, -1, 0, -1, -3, -3, -1, -1,-2.4579531234625525,0.5542190390336932,0
1503697315742,+0.909,+0.245,-0.127,-0.312,+0.547,+0.085,-0.822,-1.375,-0.812,+0.125,1, 1, 0, -1, 0, 0, -3, 0,-2.4579531234625525,0.5542190390336932,0
1503697315759,+0.909,+0.244,-0.127,-0.312,+0.542,+0.084,-0.806,-1.812,-1.812,-0.125,-1, -1, 0, 0, -1, -2, 1, -1,-2.4575304789143275,0.5521518465263358,0
1503697315780,+0.909,+0.244,-0.127,-0.312,+0.537,+0.087,-0.820,-1.438,+0.188,+0.000,1, -3, -2, -1, -2, -1, -1, -1,-2.4575304789143275,0.5521518465263358,0
1503697315802,+0.909,+0.244,-0.127,-0.312,+0.542,+0.090,-0.814,-1.188,-0.250,+0.438,-3, -3, -2, -1, -1, -1, -3, 0,-2.4575304789143275,0.5521518465263358,0
1503697315818,+0.909,+0.244,-0.127,-0.312,+0.544,+0.087,-0.804,-1.312,-0.250,+0.250,0, -1, -1, 0, 0, 1, -1, -1,-2.4575304789143275,0.5521518465263358,0
1503697315841,+0.909,+0.244,-0.127,-0.312,+0.547,+0.095,-0.817,-0.750,+0.375,+0.500,0, -1, -1, -1, 0, 0, 1, 0,-2.4575304789143275,0.5521518465263358,0
1503697315862,+0.909,+0.244,-0.127,-0.312,+0.546,+0.069,-0.807,-0.750,-1.062,+0.750,-1, -1, -1, 0, 0, 0, 0, -2,-2.4575304789143275,0.5521518465263358,0
1503697315877,+0.909,+0.244,-0.127,-0.312,+0.546,+0.080,-0.813,-1.625,-0.188,+0.000,-1, -1, 0, -1, 0, -2, -1, -1,-2.4575304789143275,0.5521518465263358,0
1503697315900,+0.909,+0.244,-0.127,-0.312,+0.542,+0.087,-0.812,-1.812,-0.812,+0.000,1, 0, -1, -1, -2, -1, -2, 1,-2.4575304789143275,0.5521518465263358,0
1503697315923,+0.909,+0.244,-0.127,-0.312,+0.536,+0.085,-0.807,-1.938,-0.188,+0.438,-3, 0, -1, -1, -2, -1, -1, 0,-2.4575304789143275,0.5521518465263358,0
1503697315937,+0.909,+0.244,-0.127,-0.312,+0.540,+0.091,-0.817,-1.750,-0.125,+0.625,0, 0, -1, -2, 0, 0, -1, -1,-2.4575304789143275,0.5521518465263358,0
1503697315960,+0.909,+0.244,-0.127,-0.312,+0.544,+0.086,-0.811,-1.562,+0.562,+0.625,1, -1, 0, 0, 1, -1, 0, 0,-2.4575304789143275,0.5521518465263358,0
1503697315986,+0.909,+0.244,-0.127,-0.312,+0.546,+0.090,-0.814,-1.438,+0.500,+0.625,2, -1, 0, -1, -1, -1, -1, 0,-2.4575304789143275,0.5521518465263358,0
1503697315998,+0.909,+0.244,-0.127,-0.312,+0.548,+0.079,-0.801,-1.312,-0.312,+0.250,-1, -1, 0, -1, -2, 0, 0, 1,-2.4575304789143275,0.5521518465263358,0
1503697316021,+0.909,+0.244,-0.127,-0.312,+0.548,+0.087,-0.813,-1.250,-0.688,+0.312,0, -1, 0, 0, -1, 0, 0, -2,-2.4575304789143275,0.5521518465263358,0
1503697316043,+0.909,+0.244,-0.127,-0.312,+0.543,+0.088,-0.808,-1.188,-0.812,+0.562,-1, -1, -1, 1, -1, -2, -3, -1,-2.4575304789143275,0.5521518465263358,0
1503697316058,+0.909,+0.244,-0.127,-0.312,+0.539,+0.083,-0.812,-1.000,-0.312,+0.562,-1, 0, -1, -1, 1, 0, 0, -2,-2.4575304789143275,0.5521518465263358,0
1503697316080,+0.909,+0.244,-0.126,-0.312,+0.536,+0.083,-0.817,-1.125,+0.500,+0.562,-1, 0, 0, -1, 0, -2, -1, -2,-2.4579104581696827,0.5513526893680559,0
1503697316102,+0.909,+0.244,-0.126,-0.312,+0.542,+0.088,-0.808,-1.000,+0.500,+0.625,0, -1, -2, -1, -1, -1, 0, 0,-2.4579104581696827,0.5513526893680559,0
1503697316129,+0.909,+0.244,-0.127,-0.312,+0.547,+0.082,-0.808,-1.000,+1.000,+0.750,-1, -1, -1, -1, -1, 0, -2, -2,-2.4575304789143275,0.5521518465263358,0
1503697316147,+0.909,+0.245,-0.127,-0.312,+0.555,+0.090,-0.807,-0.688,+0.812,+0.875,-1, -3, -1, -1, -1, -2, 0, -1,-2.4579531234625525,0.5542190390336932,0
1503697316162,+0.909,+0.245,-0.127,-0.312,+0.543,+0.087,-0.808,-0.750,-0.438,+1.125,-1, -2, -2, -1, -1, 1, 0, 1,-2.4579531234625525,0.5542190390336932,0
1503697316178,+0.909,+0.245,-0.127,-0.312,+0.544,+0.089,-0.812,-0.625,+0.312,+0.938,1, 0, -2, 1, 0, -1, -1, -2,-2.4579531234625525,0.5542190390336932,0
1503697316200,+0.909,+0.245,-0.127,-0.312,+0.541,+0.085,-0.817,-0.312,+0.312,+1.000,-2, -2, -2, 0, -1, -3, 0, -2,-2.4579531234625525,0.5542190390336932,0
1503697316223,+0.909,+0.245,-0.127,-0.312,+0.546,+0.090,-0.813,-0.250,+0.500,+1.000,0, 0, -2, 0, -1, 1, 0, -3,-2.4579531234625525,0.5542190390336932,0
1503697316239,+0.909,+0.245,-0.127,-0.312,+0.552,+0.084,-0.809,-0.125,+0.812,+1.188,-2, 0, -2, -1, -1, -1, -1, 1,-2.4579531234625525,0.5542190390336932,0
1503697316260,+0.909,+0.245,-0.126,-0.312,+0.548,+0.079,-0.814,-0.375,-0.375,+1.000,-2, -1, 2, -1, -1, -2, -3, 0,-2.4583344399791076,0.5534197662787246,0
1503697316283,+0.909,+0.245,-0.126,-0.312,+0.546,+0.082,-0.812,-0.875,-0.250,+1.000,-1, -1, 0, -3, 1, -2, -1, -1,-2.4583344399791076,0.5534197662787246,0
1503697316298,+0.909,+0.245,-0.126,-0.312,+0.543,+0.078,-0.803,-1.062,+0.250,+0.688,-1, -1, -2, -1, -1, 0, -1, -1,-2.4583344399791076,0.5534197662787246,0
1503697316338,+0.909,+0.245,-0.126,-0.312,+0.540,+0.091,-0.812,-0.812,-0.062,+0.688,-1, -1, -1, 0, -1, -1, 0, 0,-2.4583344399791076,0.5534197662787246,0
1503697316343,+0.909,+0.245,-0.126,-0.312,+0.544,+0.083,-0.803,-0.500,-0.375,+0.500,-1, -1, -2, -1, 0, 0, -2, 0,-2.4583344399791076,0.5534197662787246,0
1503697316358,+0.909,+0.245,-0.126,-0.312,+0.544,+0.083,-0.813,-0.312,+0.375,+0.500,-1, 2, 0, -1, 0, -1, -1, -1,-2.4583344399791076,0.5534197662787246,0
1503697316380,+0.909,+0.245,-0.126,-0.312,+0.542,+0.082,-0.812,-0.750,-0.438,+0.688,-2, 0, -1, -1, -1, -1, -2, 0,-2.4583344399791076,0.5534197662787246,0
1503697316402,+0.909,+0.245,-0.126,-0.312,+0.543,+0.081,-0.806,-1.062,+0.938,+0.625,0, -1, 0, -1, 0, -1, -1, -1,-2.4583344399791076,0.5534197662787246,0
1503697316424,+0.909,+0.245,-0.126,-0.312,+0.546,+0.080,-0.813,-1.125,-0.062,+0.812,-2, -4, -2, -1, -1, -1, -1, 0,-2.4583344399791076,0.5534197662787246,0
1503697316440,+0.909,+0.245,-0.126,-0.312,+0.552,+0.085,-0.808,-1.312,-0.438,+0.312,1, 0, -1, 0, -1, -2, -1, 0,-2.4583344399791076,0.5534197662787246,0
1503697316463,+0.909,+0.245,-0.126,-0.312,+0.547,+0.084,-0.813,-0.875,-0.062,+0.562,-1, -2, -1, -1, -1, -3, 1, 0,-2.4583344399791076,0.5534197662787246,0
1503697316478,+0.909,+0.245,-0.126,-0.312,+0.535,+0.087,-0.818,-1.000,-0.812,+0.875,1, 0, 0, -1, -1, -1, -1, -2,-2.4583344399791076,0.5534197662787246,0
1503697316500,+0.909,+0.245,-0.126,-0.312,+0.546,+0.086,-0.804,-0.625,+0.500,+0.688,0, -1, 0, 0, -1, -2, 0, 1,-2.4583344399791076,0.5534197662787246,0
1503697316523,+0.909,+0.245,-0.126,-0.312,+0.549,+0.087,-0.816,-0.312,+0.625,+1.125,-2, -2, -2, -2, -1, 0, 0, -3,-2.4583344399791076,0.5534197662787246,0
1503697316538,+0.909,+0.245,-0.126,-0.312,+0.546,+0.081,-0.812,-0.438,+0.062,+0.812,0, 0, 0, -1, -2, 1, 0, -2,-2.4583344399791076,0.5534197662787246,0
1503697316561,+0.909,+0.245,-0.126,-0.312,+0.548,+0.077,-0.808,-0.688,+0.375,+0.750,-1, 0, 0, 1, -2, 0, -1, -2,-2.4583344399791076,0.5534197662787246,0
1503697316600,+0.909,+0.245,-0.126,-0.312,+0.550,+0.081,-0.810,-1.250,-0.062,+1.000,-1, 0, -2, -1, -2, 0, -2, -2,-2.4583344399791076,0.5534197662787246,0
1503697316609,+0.909,+0.245,-0.126,-0.312,+0.548,+0.080,-0.808,-1.375,+0.000,+0.938,-1, 0, -1, -2, 0, 0, -1, 0,-2.4583344399791076,0.5534197662787246,0
1503697316625,+0.909,+0.245,-0.126,-0.312,+0.547,+0.082,-0.808,-1.125,-0.062,+1.000,-1, 0, -1, 0, 1, -1, -2, -2,-2.4583344399791076,0.5534197662787246,0
1503697316642,+0.909,+0.245,-0.126,-0.312,+0.543,+0.081,-0.814,-0.938,+0.188,+0.500,-1, -2, -2, 0, 1, -1, -2, 0,-2.4583344399791076,0.5534197662787246,0
1503697316658,+0.909,+0.245,-0.126,-0.312,+0.552,+0.084,-0.811,-0.750,+0.312,+0.625,-2, 0, -1, -1, -1, 0, 1, -2,-2.4583344399791076,0.5534197662787246,0
1503697316680,+0.909,+0.245,-0.126,-0.312,+0.547,+0.079,-0.807,-1.000,+0.125,+0.500,-1, -3, 1, -2, -1, 0, -1, -2,-2.4583344399791076,0.5534197662787246,0
1503697316703,+0.909,+0.245,-0.126,-0.312,+0.554,+0.080,-0.806,-1.438,-0.188,+0.312,0, 1, -1, -3, 0, 0, -2, 0,-2.4583344399791076,0.5534197662787246,0
1503697316718,+0.909,+0.245,-0.126,-0.312,+0.553,+0.082,-0.819,-1.312,-0.875,+0.750,-2, 0, 0, 0, -1, -1, 1, -1,-2.4583344399791076,0.5534197662787246,0
1503697316740,+0.909,+0.245,-0.126,-0.312,+0.537,+0.082,-0.811,-1.312,-1.562,+1.000,1, -2, -1, -2, -1, -2, -1, 0,-2.4583344399791076,0.5534197662787246,0
1503697316762,+0.909,+0.245,-0.126,-0.312,+0.535,+0.084,-0.805,-1.125,+0.250,+0.688,-1, 0, -1, 0, 0, -2, 0, -1,-2.4583344399791076,0.5534197662787246,0
1503697316778,+0.909,+0.245,-0.126,-0.312,+0.537,+0.078,-0.822,-0.875,+1.250,+0.688,0, -1, 0, -2, 0, -1, -1, -1,-2.4583344399791076,0.5534197662787246,0
1503697316800,+0.909,+0.245,-0.126,-0.312,+0.557,+0.078,-0.802,-1.125,+0.438,+0.312,-2, -1, -1, -2, -2, 0, -3, -2,-2.4583344399791076,0.5534197662787246,0
1503697316824,+0.909,+0.245,-0.126,-0.312,+0.557,+0.079,-0.806,-1.000,-0.312,+0.562,-1, -1, -1, -2, 0, 0, -1, -1,-2.4583344399791076,0.5534197662787246,0
1503697316838,+0.909,+0.245,-0.126,-0.312,+0.541,+0.077,-0.810,-1.438,-1.312,+0.812,-1, -1, 0, 0, -1, -1, 2, 1,-2.4583344399791076,0.5534197662787246,0
1503697316860,+0.909,+0.245,-0.126,-0.312,+0.540,+0.085,-0.810,-1.500,-0.625,+0.688,-1, -2, 1, -1, 0, 0, -1, -1,-2.4583344399791076,0.5534197662787246,0
1503697316885,+0.909,+0.245,-0.126,-0.312,+0.541,+0.090,-0.814,-0.875,+0.312,+1.062,1, -1, -2, 1, -1, -1, 0, -1,-2.4583344399791076,0.5534197662787246,0
1503697316902,+0.909,+0.245,-0.126,-0.312,+0.544,+0.078,-0.813,-0.625,+0.062,+0.750,0, -1, -1, -1, -1, -1, -2, 0,-2.4583344399791076,0.5534197662787246,0
1503697316920,+0.909,+0.245,-0.126,-0.312,+0.546,+0.073,-0.807,-0.875,+0.500,+0.688,-1, 0, -2, -2, -2, -1, -1, -2,-2.4583344399791076,0.5534197662787246,0
1503697316944,+0.909,+0.245,-0.126,-0.312,+0.554,+0.077,-0.804,-1.188,+0.375,+0.500,0, -1, -2, 0, -2, -1, -2, -1,-2.4583344399791076,0.5534197662787246,0
1503697316959,+0.909,+0.245,-0.126,-0.312,+0.554,+0.082,-0.805,-1.688,-0.250,+0.688,-2, -2, 0, 0, -1, 0, 0, 0,-2.4583344399791076,0.5534197662787246,0
1503697316980,+0.909,+0.245,-0.126,-0.312,+0.548,+0.083,-0.808,-1.250,-0.438,+0.562,-1, -1, -1, -1, 0, 0, -2, -1,-2.4583344399791076,0.5534197662787246,0
1503697317002,+0.909,+0.245,-0.126,-0.312,+0.542,+0.088,-0.814,-1.062,-1.062,+0.375,0, -2, -2, 0, 0, 0, 0, 1,-2.4583344399791076,0.5534197662787246,0
1503697317019,+0.909,+0.245,-0.126,-0.312,+0.541,+0.078,-0.812,-0.750,+0.000,+0.688,-1, -1, -2, -1, 1, 0, -2, 0,-2.4583344399791076,0.5534197662787246,0
1503697317041,+0.909,+0.245,-0.126,-0.312,+0.546,+0.081,-0.806,-1.312,+0.188,+0.500,0, 0, 0, -1, 1, -1, -1, -2,-2.4583344399791076,0.5534197662787246,0
1503697317062,+0.909,+0.245,-0.126,-0.312,+0.553,+0.085,-0.805,-1.125,+0.688,+0.688,0, -3, -3, -1, 0, -3, 0, 0,-2.4583344399791076,0.5534197662787246,0
1503697317078,+0.909,+0.245,-0.126,-0.312,+0.554,+0.078,-0.815,-1.125,-0.250,+0.938,-1, -1, 1, -1, 0, -1, 0, -1,-2.4583344399791076,0.5534197662787246,0
1503697317102,+0.909,+0.245,-0.126,-0.312,+0.550,+0.083,-0.812,-1.062,-1.000,+0.562,-1, 1, 0, -1, 0, -2, 0, 0,-2.4583344399791076,0.5534197662787246,0
1503697317122,+0.909,+0.245,-0.126,-0.312,+0.541,+0.078,-0.812,-0.812,-0.688,+0.500,-1, 1, -2, 0, -2, 0, 0, -1,-2.4583344399791076,0.5534197662787246,0
1503697317138,+0.909,+0.245,-0.126,-0.312,+0.540,+0.079,-0.812,-0.875,+0.125,+0.312,1, -1, -2, -1, 0, -1, 0, -1,-2.4583344399791076,0.5534197662787246,0
1503697317161,+0.909,+0.245,-0.126,-0.312,+0.542,+0.084,-0.808,-0.938,-0.125,+0.375,0, 0, 0, -2, -1, -1, -1, 0,-2.4583344399791076,0.5534197662787246,0
1503697317183,+0.909,+0.245,-0.126,-0.312,+0.553,+0.085,-0.814,-1.000,+0.500,+0.688,-2, 0, -1, -1, -1, 0, 0, -1,-2.4583344399791076,0.5534197662787246,0
1503697317198,+0.909,+0.245,-0.126,-0.312,+0.553,+0.083,-0.806,-0.938,+0.000,+1.062,-2, -1, -1, -1, -1, -2, -1, 0,-2.4583344399791076,0.5534197662787246,0
1503697317220,+0.909,+0.245,-0.126,-0.312,+0.546,+0.083,-0.811,-1.000,+0.000,+0.750,1, -1, -2, 0, 0, -3, -2, 0,-2.4583344399791076,0.5534197662787246,0
1503697317242,+0.909,+0.245,-0.126,-0.312,+0.549,+0.080,-0.804,-0.688,+0.000,+0.562,0, 0, -2, 1, 0, 1, -2, 0,-2.4583344399791076,0.5534197662787246,0
1503697317260,+0.909,+0.245,-0.126,-0.312,+0.542,+0.074,-0.810,-1.188,-0.188,+0.250,-3, -2, -1, 0, -2, -1, -1, -1,-2.4583344399791076,0.5534197662787246,0
1503697317280,+0.909,+0.245,-0.126,-0.312,+0.547,+0.084,-0.812,-1.000,+0.438,+0.250,-2, -3, -2, -2, -2, -1, 0, -1,-2.4583344399791076,0.5534197662787246,0
1503697317302,+0.909,+0.245,-0.126,-0.312,+0.555,+0.083,-0.809,-1.000,-0.188,+0.750,-1, -1, -1, -1, -1, 0, 0, -1,-2.4583344399791076,0.5534197662787246,0
1503697317318,+0.909,+0.245,-0.126,-0.312,+0.544,+0.077,-0.809,-1.188,-0.812,+0.750,-2, -1, 0, 0, 0, -1, 0, 0,-2.4583344399791076,0.5534197662787246,0
1503697317340,+0.909,+0.245,-0.126,-0.312,+0.543,+0.087,-0.809,-1.062,+0.625,+0.875,-1, -1, 0, -2, 0, 0, -1, 0,-2.4583344399791076,0.5534197662787246,0
1503697317362,+0.909,+0.245,-0.126,-0.312,+0.551,+0.078,-0.811,-1.250,-0.312,+0.625,0, 0, -1, -1, 0, 1, 0, -1,-2.4583344399791076,0.5534197662787246,0
1503697317378,+0.909,+0.245,-0.126,-0.312,+0.551,+0.077,-0.803,-0.750,+0.438,+0.438,0, 0, -1, -1, 0, 1, -1, -2,-2.4583344399791076,0.5534197662787246,0
1503697317407,+0.909,+0.245,-0.126,-0.312,+0.543,+0.077,-0.816,-0.750,-0.875,+0.625,0, -1, -1, -1, -1, -2, -1, -1,-2.4583344399791076,0.5534197662787246,0
1503697317430,+0.909,+0.245,-0.126,-0.312,+0.545,+0.073,-0.801,-1.125,-0.938,+0.500,0, -2, 0, 1, -2, -1, -2, -3,-2.4583344399791076,0.5534197662787246,0
1503697317438,+0.909,+0.245,-0.126,-0.312,+0.542,+0.074,-0.819,-1.438,-0.062,+0.750,-2, -1, -1, -2, -1, -2, -1, -1,-2.4583344399791076,0.5534197662787246,0
1503697317462,+0.909,+0.245,-0.126,-0.312,+0.542,+0.085,-0.814,-1.688,-0.688,+0.562,-4, -1, 0, 0, 0, 1, -1, -2,-2.4583344399791076,0.5534197662787246,0
1503697317482,+0.909,+0.245,-0.126,-0.312,+0.547,+0.083,-0.810,-1.188,+0.875,+0.562,0, -1, 0, -1, -2, -3, -2, -1,-2.4583344399791076,0.5534197662787246,0
1503697317498,+0.909,+0.245,-0.126,-0.312,+0.545,+0.088,-0.816,-0.938,-0.188,+0.438,0, 0, -1, -1, 0, -1, 0, 0,-2.4583344399791076,0.5534197662787246,0
1503697317520,+0.909,+0.245,-0.126,-0.312,+0.551,+0.076,-0.803,-0.688,+0.250,+0.438,0, 0, -3, -1, -2, 0, 0, 0,-2.4583344399791076,0.5534197662787246,0
1503697317542,+0.909,+0.245,-0.126,-0.312,+0.552,+0.072,-0.814,-1.062,+0.062,+0.750,-1, -1, -1, 0, 0, 0, 0, -1,-2.4583344399791076,0.5534197662787246,0
1503697317558,+0.909,+0.245,-0.126,-0.312,+0.544,+0.083,-0.808,-1.312,-0.562,+0.750,0, -1, 0, -1, 1, -1, -1, -1,-2.4583344399791076,0.5534197662787246,0
1503697317580,+0.909,+0.245,-0.126,-0.312,+0.542,+0.080,-0.808,-1.562,+0.062,+1.000,0, 1, 0, 0, 0, -1, -2, 0,-2.4583344399791076,0.5534197662787246,0
1503697317605,+0.909,+0.245,-0.126,-0.312,+0.543,+0.084,-0.816,-1.250,-0.250,+0.875,-1, -2, -2, -1, 1, -1, 0, -2,-2.4583344399791076,0.5534197662787246,0
1503697317618,+0.909,+0.245,-0.126,-0.312,+0.548,+0.079,-0.812,-0.875,+0.688,+0.625,-2, -1, 0, -1, 0, -2, -1, -1,-2.4583344399791076,0.5534197662787246,0
1503697317641,+0.909,+0.245,-0.126,-0.312,+0.542,+0.078,-0.806,-0.812,+0.062,+0.375,-2, 0, -2, -1, -2, 0, -3, 1,-2.4583344399791076,0.5534197662787246,0
1503697317663,+0.909,+0.245,-0.126,-0.312,+0.546,+0.076,-0.814,-1.312,+0.250,+0.375,0, 1, 0, 0, -1, -1, -1, -2,-2.4583344399791076,0.5534197662787246,0
1503697317678,+0.909,+0.245,-0.126,-0.312,+0.549,+0.084,-0.808,-1.062,+0.375,+0.375,-1, -1, -3, 0, -2, -2, -2, -1,-2.4583344399791076,0.5534197662787246,0
1503697317701,+0.909,+0.245,-0.126,-0.312,+0.551,+0.078,-0.814,-1.188,-0.438,+0.938,0, -1, -3, -1, -1, 0, -2, -1,-2.4583344399791076,0.5534197662787246,0
1503697317722,+0.909,+0.245,-0.126,-0.312,+0.543,+0.081,-0.813,-1.062,-0.125,+0.750,-1, -2, -1, -2, -1, 0, 0, 0,-2.4583344399791076,0.5534197662787246,0
1503697317741,+0.909,+0.245,-0.126,-0.312,+0.542,+0.076,-0.808,-1.062,-0.188,+0.500,-2, 1, -1, -1, -1, -1, 0, -1,-2.4583344399791076,0.5534197662787246,0
1503697317760,+0.909,+0.245,-0.126,-0.312,+0.549,+0.080,-0.818,-1.125,+1.062,+0.312,0, -1, 0, -1, -1, -1, 0, -2,-2.4583344399791076,0.5534197662787246,0
1503697317782,+0.909,+0.245,-0.126,-0.312,+0.551,+0.079,-0.808,-1.062,+0.000,+0.500,-3, 2, -1, -1, 0, 0, 0, -1,-2.4583344399791076,0.5534197662787246,0
1503697317799,+0.909,+0.245,-0.126,-0.312,+0.550,+0.077,-0.812,-1.250,-0.188,+0.438,0, -2, -1, 0, -2, 0, 0, -2,-2.4583344399791076,0.5534197662787246,0
1503697317820,+0.909,+0.245,-0.126,-0.312,+0.547,+0.083,-0.811,-0.938,-0.500,+0.562,-3, -1, -2, -1, -2, -2, -1, -2,-2.4583344399791076,0.5534197662787246,0
1503697317843,+0.909,+0.245,-0.126,-0.312,+0.542,+0.079,-0.806,-1.125,-1.125,+0.625,-1, -1, -2, -2, -2, -1, -1, 1,-2.4583344399791076,0.5534197662787246,0
1503697317859,+0.909,+0.245,-0.126,-0.312,+0.546,+0.085,-0.807,-1.000,+0.688,+0.812,0, 0, -2, 0, -1, -2, -1, 0,-2.4583344399791076,0.5534197662787246,0
1503697317881,+0.909,+0.245,-0.126,-0.312,+0.548,+0.080,-0.809,-1.000,-0.188,+0.938,0, 0, -1, 0, -2, 0, -1, -1,-2.4583344399791076,0.5534197662787246,0
1503697317905,+0.909,+0.245,-0.126,-0.312,+0.548,+0.079,-0.810,-1.250,+0.062,+0.875,-2, -1, -1, -1, 0, -2, -2, -1,-2.4583344399791076,0.5534197662787246,0
1503697317918,+0.909,+0.245,-0.126,-0.312,+0.549,+0.078,-0.812,-1.062,+0.312,+0.812,0, -4, -1, 0, 0, 0, -2, 0,-2.4583344399791076,0.5534197662787246,0
1503697317941,+0.909,+0.245,-0.125,-0.312,+0.544,+0.076,-0.811,-1.438,-0.938,+0.688,-1, -2, -1, 0, -1, 0, 0, 0,-2.4587159933763925,0.5526227635827186,0
1503697317963,+0.909,+0.245,-0.125,-0.312,+0.545,+0.080,-0.808,-1.312,+0.500,+0.438,0, 1, 0, -1, -1, -3, -1, -2,-2.4587159933763925,0.5526227635827186,0
1503697317978,+0.909,+0.245,-0.125,-0.312,+0.542,+0.083,-0.807,-1.188,-0.312,+0.625,1, -1, 0, -1, -1, -1, 0, -1,-2.4587159933763925,0.5526227635827186,0
1503697318001,+0.909,+0.245,-0.125,-0.312,+0.551,+0.085,-0.814,-1.000,-0.312,+0.688,-1, 0, -2, -1, 0, -1, 0, -1,-2.4587159933763925,0.5526227635827186,0
1503697318023,+0.909,+0.245,-0.125,-0.312,+0.552,+0.081,-0.804,-0.875,-0.250,+0.875,1, -2, -1, -1, -1, -1, -2, -2,-2.4587159933763925,0.5526227635827186,0
1503697318038,+0.909,+0.245,-0.125,-0.312,+0.544,+0.079,-0.808,-1.000,-1.062,+0.562,-2, -3, 0, -1, -1, 0, -2, -1,-2.4587159933763925,0.5526227635827186,0
1503697318061,+0.909,+0.245,-0.125,-0.312,+0.548,+0.077,-0.809,-0.938,-0.062,+0.500,-2, 2, -1, 0, 0, -1, -2, -1,-2.4587159933763925,0.5526227635827186,0
1503697318083,+0.909,+0.245,-0.125,-0.312,+0.543,+0.076,-0.811,-0.938,-1.062,+0.312,-1, 0, -1, 1, 0, 1, -1, -2,-2.4587159933763925,0.5526227635827186,0
1503697318100,+0.909,+0.245,-0.125,-0.312,+0.545,+0.078,-0.815,-1.375,-0.188,+0.188,0, -2, -2, -2, -1, 0, -1, -2,-2.4587159933763925,0.5526227635827186,0
1503697318123,+0.909,+0.245,-0.125,-0.312,+0.546,+0.082,-0.812,-0.938,+0.188,+0.438,-1, -1, 0, 1, -3, -2, -1, -1,-2.4587159933763925,0.5526227635827186,0
1503697318143,+0.909,+0.245,-0.125,-0.312,+0.547,+0.075,-0.810,-1.375,-0.062,+0.188,-2, 0, -2, 0, -2, 1, -1, 0,-2.4587159933763925,0.5526227635827186,0
1503697318158,+0.909,+0.245,-0.125,-0.312,+0.549,+0.082,-0.808,-1.000,+0.375,+0.188,-1, 0, 0, -1, -1, -2, -1, -2,-2.4587159933763925,0.5526227635827186,0
1503697318181,+0.909,+0.245,-0.125,-0.312,+0.546,+0.079,-0.806,-1.438,-0.625,+0.188,-1, 0, -2, -3, -1, 0, -1, -1,-2.4587159933763925,0.5526227635827186,0
1503697318206,+0.909,+0.245,-0.125,-0.312,+0.551,+0.083,-0.808,-1.188,-0.312,+0.250,-1, -1, -1, -1, 1, -2, 0, -2,-2.4587159933763925,0.5526227635827186,0
1503697318218,+0.909,+0.245,-0.125,-0.312,+0.539,+0.081,-0.813,-1.188,-0.312,+0.938,-1, 0, -1, -3, 0, -1, 0, 0,-2.4587159933763925,0.5526227635827186,0
1503697318241,+0.909,+0.245,-0.125,-0.312,+0.539,+0.085,-0.809,-1.312,-0.312,+0.750,0, 0, -2, -1, 1, -1, 0, -1,-2.4587159933763925,0.5526227635827186,0
1503697318263,+0.909,+0.245,-0.125,-0.312,+0.548,+0.079,-0.812,-0.750,+1.562,+0.875,0, -1, -1, -1, -2, -2, 2, -1,-2.4587159933763925,0.5526227635827186,0
1503697318279,+0.909,+0.245,-0.125,-0.312,+0.553,+0.071,-0.812,-1.250,+0.062,+0.625,-1, 0, -1, 0, -1, -2, 0, 0,-2.4587159933763925,0.5526227635827186,0
1503697318301,+0.909,+0.245,-0.125,-0.312,+0.557,+0.080,-0.798,-1.750,-0.188,+0.438,1, -1, -2, 0, -1, -1, -1, 0,-2.4587159933763925,0.5526227635827186,0
1503697318323,+0.909,+0.245,-0.125,-0.312,+0.545,+0.085,-0.807,-1.375,+0.000,+0.812,-1, -1, -1, -2, -2, -5, -3, 0,-2.4587159933763925,0.5526227635827186,0
1503697318338,+0.909,+0.245,-0.125,-0.312,+0.544,+0.081,-0.807,-1.625,-1.062,+0.812,-1, -2, -2, -1, -2, 1, -1, -2,-2.4587159933763925,0.5526227635827186,0
1503697318361,+0.909,+0.245,-0.125,-0.312,+0.543,+0.083,-0.810,-0.812,+0.750,+0.938,1, -2, 0, 0, -2, -1, 0, -1,-2.4587159933763925,0.5526227635827186,0
1503697318383,+0.909,+0.245,-0.125,-0.312,+0.537,+0.080,-0.807,-0.812,-0.125,+0.875,-1, -1, -1, 0, -1, 1, -1, -1,-2.4587159933763925,0.5526227635827186,0
1503697318405,+0.909,+0.245,-0.125,-0.312,+0.549,+0.078,-0.802,-1.062,+0.875,+0.688,-2, -1, -1, -1, 0, 0, -1, 0,-2.4587159933763925,0.5526227635827186,0
1503697318421,+0.909,+0.245,-0.125,-0.312,+0.554,+0.077,-0.810,-1.375,+0.625,+0.500,0, -1, 0, -1, 0, 0, 0, 0,-2.4587159933763925,0.5526227635827186,0
1503697318443,+0.909,+0.245,-0.125,-0.312,+0.554,+0.080,-0.809,-1.438,-0.688,+0.688,-1, -2, 0, -2, -1, -1, -1, -1,-2.4587159933763925,0.5526227635827186,0
1503697318465,+0.909,+0.245,-0.125,-0.312,+0.546,+0.075,-0.815,-1.375,-0.250,+0.625,-4, -2, 0, 0, -2, 0, -1, -1,-2.4587159933763925,0.5526227635827186,0
1503697318481,+0.909,+0.245,-0.125,-0.312,+0.542,+0.085,-0.821,-1.125,-0.812,+0.312,-1, -1, -1, 0, -2, -1, -1, 1,-2.4587159933763925,0.5526227635827186,0
1503697318503,+0.909,+0.245,-0.125,-0.312,+0.542,+0.077,-0.809,-1.000,+0.250,+0.125,-4, -3, -1, -1, -1, 0, 0, -1,-2.4587159933763925,0.5526227635827186,0
1503697318525,+0.909,+0.245,-0.125,-0.312,+0.542,+0.081,-0.810,-0.875,+0.812,+0.312,2, 0, -1, -3, -2, -1, -2, -1,-2.4587159933763925,0.5526227635827186,0
1503697318541,+0.909,+0.245,-0.125,-0.312,+0.550,+0.079,-0.808,-1.188,-0.312,+0.375,-2, 1, -2, -1, -1, -1, -1, 0,-2.4587159933763925,0.5526227635827186,0
1503697318563,+0.909,+0.245,-0.125,-0.312,+0.556,+0.075,-0.810,-1.438,+0.625,+0.875,-1, 0, 0, -1, 0, -2, -1, 0,-2.4587159933763925,0.5526227635827186,0
1503697318585,+0.909,+0.245,-0.125,-0.312,+0.545,+0.084,-0.818,-1.750,-1.188,+0.625,0, -1, 0, -1, 0, -3, -2, 0,-2.4587159933763925,0.5526227635827186,0
1503697318601,+0.909,+0.245,-0.125,-0.312,+0.551,+0.080,-0.809,-1.125,-0.062,+0.688,1, 1, -1, -1, -1, -1, 0, -1,-2.4587159933763925,0.5526227635827186,0
1503697318623,+0.909,+0.245,-0.125,-0.312,+0.542,+0.082,-0.812,-0.938,-1.062,+0.625,-1, -2, -3, -2, -1, -2, -1, 1,-2.4587159933763925,0.5526227635827186,0
1503697318645,+0.909,+0.245,-0.125,-0.312,+0.541,+0.074,-0.808,-0.625,-0.125,+0.312,1, 0, -1, -1, -1, -1, 0, -2,-2.4587159933763925,0.5526227635827186,0
1503697318661,+0.909,+0.245,-0.125,-0.312,+0.549,+0.075,-0.812,-1.000,+0.625,+0.375,-1, -2, -1, -1, -1, -1, 1, -2,-2.4587159933763925,0.5526227635827186,0
1503697318690,+0.909,+0.245,-0.125,-0.312,+0.554,+0.083,-0.809,-1.312,+0.500,+0.375,1, -1, -1, -1, -1, 0, -2, 1,-2.4587159933763925,0.5526227635827186,0
1503697318712,+0.909,+0.245,-0.125,-0.312,+0.553,+0.081,-0.807,-1.188,-0.250,+0.688,0, 2, 0, 0, 0, -1, -1, -2,-2.4587159933763925,0.5526227635827186,0
1503697318721,+0.909,+0.245,-0.125,-0.312,+0.556,+0.083,-0.807,-1.312,-0.750,+0.438,-1, -1, 0, -1, -1, -2, -1, -1,-2.4587159933763925,0.5526227635827186,0
1503697318743,+0.909,+0.245,-0.125,-0.312,+0.546,+0.078,-0.817,-1.000,-0.812,+0.500,0, 0, -1, 1, 1, -1, 0, 0,-2.4587159933763925,0.5526227635827186,0
1503697318765,+0.909,+0.245,-0.125,-0.312,+0.543,+0.076,-0.806,-1.312,-0.562,+0.188,0, -1, 1, -1, -1, 0, -1, 2,-2.4587159933763925,0.5526227635827186,0
1503697318781,+0.909,+0.245,-0.125,-0.312,+0.541,+0.081,-0.814,-1.375,-0.188,+0.062,1, -1, -1, -2, 1, 0, -1, -2,-2.4587159933763925,0.5526227635827186,0
1503697318807,+0.909,+0.245,-0.125,-0.312,+0.546,+0.081,-0.816,-1.062,+0.812,+0.562,-1, -1, -1, 0, 0, 0, 1, -2,-2.4587159933763925,0.5526227635827186,0
1503697318825,+0.909,+0.245,-0.125,-0.312,+0.551,+0.078,-0.816,-1.188,+0.062,+0.250,0, -1, 0, 1, -1, 0, -1, -1,-2.4587159933763925,0.5526227635827186,0
1503697318841,+0.909,+0.245,-0.125,-0.312,+0.551,+0.083,-0.818,-1.062,+0.438,+0.250,0, -1, -2, -1, -1, -3, -2, 0,-2.4587159933763925,0.5526227635827186,0
1503697318863,+0.909,+0.245,-0.125,-0.312,+0.549,+0.076,-0.806,-1.250,-0.500,+0.250,0, 0, -1, -2, -1, -1, 0, -2,-2.4587159933763925,0.5526227635827186,0
1503697318885,+0.909,+0.245,-0.125,-0.312,+0.545,+0.078,-0.808,-1.625,-0.625,+0.062,0, 1, 0, 1, -1, -1, -2, -2,-2.4587159933763925,0.5526227635827186,0
1503697318901,+0.909,+0.245,-0.125,-0.312,+0.545,+0.082,-0.812,-1.812,+0.188,+0.188,0, -1, 0, -1, -1, -1, -2, 0,-2.4587159933763925,0.5526227635827186,0
1503697318923,+0.909,+0.245,-0.125,-0.312,+0.544,+0.085,-0.813,-1.688,-0.750,+0.250,0, 1, 0, 1, -1, -3, -1, -1,-2.4587159933763925,0.5526227635827186,0
1503697318947,+0.909,+0.245,-0.125,-0.312,+0.549,+0.082,-0.806,-1.375,+0.125,+0.312,2, -2, -2, -2, 0, -1, 0, -2,-2.4587159933763925,0.5526227635827186,0
1503697318961,+0.909,+0.245,-0.125,-0.312,+0.549,+0.076,-0.816,-1.375,-0.375,+0.125,-1, 0, 0, -1, -2, -1, 0, 1,-2.4587159933763925,0.5526227635827186,0
1503697318983,+0.909,+0.245,-0.125,-0.312,+0.549,+0.077,-0.805,-2.062,-1.000,-0.375,-2, -2, -1, -2, -2, -1, -1, -1,-2.4587159933763925,0.5526227635827186,0
1503697319007,+0.909,+0.245,-0.125,-0.312,+0.550,+0.086,-0.808,-1.875,+0.312,-0.312,-1, -1, -2, -1, 1, -1, -1, -1,-2.4587159933763925,0.5526227635827186,0
1503697319021,+0.909,+0.245,-0.125,-0.312,+0.539,+0.088,-0.807,-1.562,-0.750,+0.188,-2, -3, 0, 1, -2, -1, -1, -2,-2.4587159933763925,0.5526227635827186,0
1503697319044,+0.909,+0.245,-0.125,-0.312,+0.541,+0.081,-0.810,-1.500,-0.625,-0.125,0, -1, 0, -1, -1, 0, -1, 0,-2.4587159933763925,0.5526227635827186,0
1503697319065,+0.909,+0.245,-0.125,-0.312,+0.546,+0.082,-0.812,-1.375,+0.375,-0.250,-1, 0, -1, 0, 0, -1, 0, -1,-2.4587159933763925,0.5526227635827186,0
1503697319082,+0.909,+0.245,-0.125,-0.312,+0.544,+0.082,-0.809,-1.812,-0.625,+0.062,1, 0, -2, -2, -1, 0, 0, -1,-2.4587159933763925,0.5526227635827186,0
1503697319103,+0.909,+0.245,-0.125,-0.312,+0.551,+0.086,-0.807,-2.062,+0.438,+0.250,-1, 1, 0, -1, -1, 0, -2, 0,-2.4587159933763925,0.5526227635827186,0
1503697319125,+0.909,+0.245,-0.125,-0.312,+0.544,+0.087,-0.808,-1.875,-0.625,+0.500,-1, -1, 0, -1, 0, -1, 0, 0,-2.4587159933763925,0.5526227635827186,0
1503697319141,+0.909,+0.245,-0.125,-0.312,+0.542,+0.083,-0.809,-1.500,-0.125,+0.312,-2, -1, 0, -1, -2, -2, 0, -1,-2.4587159933763925,0.5526227635827186,0
1503697319163,+0.909,+0.245,-0.125,-0.312,+0.547,+0.081,-0.821,-1.562,-0.562,+0.125,2, -1, 0, -2, -2, -1, -1, -1,-2.4587159933763925,0.5526227635827186,0
1503697319185,+0.909,+0.245,-0.125,-0.312,+0.539,+0.089,-0.808,-1.875,-0.500,+0.062,0, 0, -1, 0, 0, -1, -2, -1,-2.4587159933763925,0.5526227635827186,0
1503697319201,+0.909,+0.245,-0.125,-0.312,+0.541,+0.092,-0.810,-1.500,+1.688,+0.625,0, 0, 0, -1, -1, 1, 0, -2,-2.4587159933763925,0.5526227635827186,0
1503697319223,+0.909,+0.245,-0.125,-0.312,+0.552,+0.089,-0.807,-1.562,+0.625,+0.750,-2, 0, 0, -1, -1, -2, -1, -1,-2.4587159933763925,0.5526227635827186,0
1503697319245,+0.909,+0.246,-0.125,-0.312,+0.553,+0.079,-0.808,-1.250,+1.375,+0.500,-1, -1, -1, 0, 0, 0, -2, -1,-2.459143062610006,0.5546913363726603,0
1503697319261,+0.909,+0.246,-0.126,-0.312,+0.538,+0.084,-0.807,-1.312,+1.188,-0.312,-3, -2, -1, 1, 0, 0, 1, 1,-2.4587601726681343,0.5554884465299629,0
1503697319283,+0.909,+0.246,-0.126,-0.312,+0.550,+0.095,-0.806,-1.250,+2.750,-1.000,0, -1, -1, 0, 0, 0, -1, -1,-2.4587601726681343,0.5554884465299629,0
1503697319308,+0.909,+0.247,-0.126,-0.311,+0.563,+0.091,-0.804,+0.688,+6.250,-1.188,0, -3, -2, -1, -2, -1, -1, -1,-2.4606028383735494,0.5573442838081476,0
1503697319321,+0.908,+0.249,-0.126,-0.311,+0.580,+0.094,-0.779,+3.062,+9.938,-1.000,0, 1, -2, -1, -1, -1, -1, -1,-2.459651548911224,0.5610675384586062,0
1503697319343,+0.908,+0.252,-0.126,-0.310,+0.620,+0.070,-0.787,+6.438,+6.562,-1.875,1, 0, 0, -1, -1, 0, -1, 1,-2.462376627482626,0.5670823422319885,0
1503697319365,+0.908,+0.253,-0.125,-0.309,+0.646,+0.099,-0.821,+7.500,+2.625,-0.938,-1, 1, -1, -1, 0, 0, 0, 0,-2.4646290074347106,0.5681559054024867,0
1503697319381,+0.908,+0.255,-0.124,-0.308,+0.665,+0.114,-0.827,+12.750,+4.688,+0.625,0, -1, 0, -1, 0, -1, -2, -2,-2.4673328267651877,0.5713202550145674,0
1503697319404,+0.908,+0.258,-0.121,-0.307,+0.593,+0.113,-0.867,+25.000,+8.438,+3.250,0, -1, 0, 1, 0, -2, -2, 0,-2.4713092216018753,0.5750215024122003,0
1503697319425,+0.908,+0.263,-0.117,-0.306,+0.569,+0.153,-0.892,+35.812,+26.562,+7.000,-3, -4, -2, -1, -2, 0, 0, -2,-2.47666735738285,0.582190284723943,0
1503697319446,+0.906,+0.272,-0.112,-0.305,+0.569,+0.175,-0.914,+48.875,+51.875,+17.312,1, 2, 0, -8, -2, -3, -4, -1,-2.4810044975494514,0.5962350996198764,0
1503697319463,+0.903,+0.285,-0.104,-0.303,+0.402,+0.168,-1.047,+71.750,+77.500,+25.125,0, 2, -1, -3, -4, -1, -1, -1,-2.4888404538021245,0.616127229767557,0
1503697319485,+0.899,+0.307,-0.093,-0.300,+0.401,+0.277,-0.932,+104.750,+113.438,+24.812,-4, -6, 2, -2, -6, -2, -2, -3,-2.5038194503778586,0.653206866244461,0
1503697319501,+0.889,+0.338,-0.080,-0.296,+0.853,+0.082,-0.767,+122.438,+161.562,+41.562,-3, -2, -3, -3, -1, -2, -3, -4,-2.5193671610727826,0.7071042529154368,0
1503697319523,+0.880,+0.366,-0.067,-0.294,+0.672,+0.098,-0.843,+121.938,+141.312,+45.312,1, 0, -1, 0, -3, -1, -1, 2,-2.535164537505346,0.7572866002143255,0
1503697319545,+0.874,+0.382,-0.048,-0.296,+1.063,+0.021,-0.923,+118.625,+61.062,+71.875,0, 0, -4, 8, -1, 0, 1, -2,-2.547130858018601,0.7801170657312905,0
1503697319561,+0.871,+0.390,-0.025,-0.298,+0.967,-0.031,-0.842,+129.625,+10.062,+74.000,-1, -5, -6, -10, -7, -3, -4, -1,-2.561246158301503,0.785203755156988,0
1503697319583,+0.869,+0.395,+0.002,-0.298,+0.769,-0.149,-0.781,+145.750,-21.562,+65.625,-3, -5, -3, -17, -2, -4, -1, 0,-2.580931052452958,0.7834873840792397,0
1503697319605,+0.867,+0.398,+0.031,-0.297,+0.625,-0.254,-0.766,+158.062,-24.688,+65.812,-2, 2, 5, 20, 12, 4, 1, 2,-2.602779068488446,0.7783383511109465,0
1503697319621,+0.863,+0.405,+0.061,-0.295,+0.605,-0.320,-0.757,+165.000,-8.625,+67.000,-2, 2, 9, -11, -5, 0, 2, 0,-2.6293270082092493,0.7842923657903949,0
1503697319645,+0.858,+0.411,+0.091,-0.293,+0.612,-0.362,-0.647,+171.875,-6.188,+68.125,2, 0, -4, -10, -4, -3, -3, 2,-2.6555880718171347,0.7902950604717129,0
1503697319666,+0.852,+0.418,+0.122,-0.291,+0.595,-0.476,-0.574,+176.938,-8.375,+70.000,-2, 1, 8, 23, 6, -2, -6, -5,-2.6847131782154796,0.8016274483584597,0
1503697319689,+0.846,+0.423,+0.154,-0.287,+0.571,-0.532,-0.518,+177.688,-11.438,+65.188,1, 4, 4, 25, 5, 2, 1, 2,-2.7185917591145756,0.8120769379235722,0
1503697319703,+0.839,+0.427,+0.185,-0.283,+0.545,-0.523,-0.459,+175.688,-17.062,+63.062,-2, -5, -9, -21, -5, -4, -2, -1,-2.752319230109208,0.8234763444615477,0
1503697319726,+0.831,+0.431,+0.215,-0.278,+0.498,-0.596,-0.375,+170.688,-19.750,+63.438,0, -1, 22, -6, 4, -1, 1, 0,-2.7892855124621354,0.83897806754582,0
1503697319740,+0.823,+0.435,+0.243,-0.274,+0.461,-0.644,-0.301,+162.438,-12.688,+57.750,-3, -3, 5, 5, -1, -2, -2, -3,-2.8257159478590763,0.8583552025575256,0
1503697319762,+0.814,+0.439,+0.269,-0.270,+0.456,-0.623,-0.281,+152.750,-0.938,+52.875,3, 0, -9, -13, -4, 3, 3, 1,-2.8628510852528115,0.880939231553784,0
1503697319785,+0.804,+0.445,+0.293,-0.267,+0.423,-0.616,-0.262,+144.250,+7.500,+52.875,1, -2, -13, -11, -5, -1, -2, -1,-2.9016131041119144,0.912659457633471,0
1503697319801,+0.793,+0.450,+0.314,-0.264,+0.413,-0.635,-0.230,+134.375,+13.250,+49.375,-5, -2, -6, -5, -2, -3, -5, -4,-2.939030734615969,0.9428009564842273,0
1503697319822,+0.784,+0.455,+0.334,-0.260,+0.468,-0.641,-0.190,+122.875,+10.188,+42.250,6, 10, 28, 13, 4, 4, 4, 5,-2.9817220463537613,0.9789582756323619,0
1503697319846,+0.776,+0.457,+0.351,-0.256,+0.489,-0.698,-0.149,+108.250,-4.000,+33.312,1, 1, -13, -2, -3, -1, -2, 1,-3.0192297805313726,1.005530348891776,0
1503697319860,+0.770,+0.459,+0.367,-0.250,+0.475,-0.728,-0.118,+90.438,-15.750,+21.750,0, 2, 2, -1, -2, -2, 1, 1,-3.062546550756987,1.0370855602085824,0
1503697319882,+0.765,+0.459,+0.379,-0.245,+0.449,-0.729,-0.108,+72.750,-20.250,+11.125,-3, -1, -4, -3, -3, -2, 0, -3,-3.0961230792629575,1.057244397148787,0
1503697319905,+0.762,+0.459,+0.389,-0.239,+0.466,-0.755,-0.083,+58.625,-24.312,+3.000,2, 3, 6, -3, -3, 0, -1, 0,-3.129349208074336,1.077676245279087,0
1503697319920,+0.761,+0.459,+0.396,-0.233,+0.486,-0.811,-0.078,+40.500,-22.938,-4.688,-3, -8, -9, -2, 4, -1, -2, -3,3.1262350988970775,1.0948149298469372,0
1503697319942,+0.760,+0.459,+0.400,-0.229,+0.501,-0.848,-0.055,+23.125,-17.312,-12.438,1, -2, -7, -2, -3, -3, -1, 0,3.108442713578503,1.1049772360076107,0
1503697319965,+0.759,+0.461,+0.401,-0.225,+0.548,-0.880,-0.052,+6.250,-7.688,-17.875,-4, -5, -4, -4, -4, -2, -6, -5,3.0928236541503997,1.1169281981626675,0
1503697319989,+0.760,+0.463,+0.399,-0.222,+0.589,-0.888,-0.065,-9.000,-2.688,-23.375,1, -1, 5, 1, 6, 2, 3, 4,3.086789022269955,1.1231373343157802,0
1503697320002,+0.761,+0.465,+0.395,-0.219,+0.645,-0.904,-0.084,-20.688,-5.688,-30.000,-3, -6, -11, 0, 12, 4, -2, -3,3.084042491857462,1.1250495029983596,0
1503697320025,+0.764,+0.467,+0.390,-0.215,+0.702,-0.921,-0.055,-28.188,-4.438,-36.188,-2, -5, -11, -2, 0, 0, 1, 0,3.0824473755194224,1.1268535167821931,0
1503697320048,+0.766,+0.471,+0.383,-0.213,+0.774,-0.936,-0.108,-32.812,+3.438,-33.500,0, 2, -3, -2, -8, -4, -2, 0,3.08580107484773,1.1307236757164116,0
1503697320062,+0.768,+0.473,+0.376,-0.212,+0.654,-0.871,-0.204,-37.000,+11.562,-31.750,1, -6, -11, -8, -5, 0, -1, 1,3.0936884724476847,1.1267502235143323,0
1503697320087,+0.769,+0.477,+0.368,-0.213,+0.529,-0.787,-0.261,-36.250,+24.312,-31.625,7, 14, 25, 5, -7, 4, 3, 3,3.104797201583268,1.1272257222533018,0
1503697320107,+0.771,+0.482,+0.358,-0.212,+0.668,-0.656,-0.369,-29.125,+37.250,-39.562,-2, -5, -6, 1, -5, -5, -1, 0,3.113738858107193,1.1299940210699695,0
1503697320124,+0.775,+0.482,+0.351,-0.210,+0.353,-0.754,-0.707,-15.812,+18.688,-48.688,3, 8, 5, 6, 12, 1, 2, -2,3.12227678224759,1.1217817212892116,0
1503697320144,+0.771,+0.505,+0.334,-0.198,+1.651,-0.671,+0.209,-29.500,+74.250,-86.625,-6, -7, -5, -7, -8, -5, -3, -1,3.095806198675141,1.179324103846675,0
1503697320167,+0.781,+0.489,+0.336,-0.193,+1.607,-0.050,-0.627,-5.250,-120.688,+21.250,0, -11, -9, -4, 1, 3, 2, 3,3.1027359686542986,1.1341142617326758,0
1503697320182,+0.786,+0.478,+0.338,-0.198,+0.426,-0.915,-0.226,-33.938,-49.000,+27.312,2, 9, 1, 1, 12, 1, -10, -7,3.1244521353341663,1.099715061940147,0
1503697320205,+0.788,+0.476,+0.338,-0.196,+0.110,-0.183,-0.548,+21.312,+2.688,-13.250,8, -22, 7, 1, -12, -11, -8, 12,3.1230634668769954,1.0948948709004849,0
1503697320227,+0.779,+0.481,+0.342,-0.210,+0.637,-0.674,-0.498,+14.938,+84.188,+81.312,10, -26, 5, -2, 1, -9, -1, 5,3.138896046859479,1.1065268806952435,0
1503697320242,+0.769,+0.492,+0.343,-0.220,+0.801,-0.462,-0.260,+17.062,+91.125,+57.188,24, 67, 63, 29, -45, 16, 19, 17,-3.1403210039790834,1.1370488065503752,0
1503697320264,+0.764,+0.496,+0.346,-0.224,+0.906,-0.643,-0.321,+25.750,+37.875,+52.062,16, -2, -3, 22, 86, 49, 39, 23,3.140136838633418,1.1517560054311573,0
1503697320287,+0.763,+0.493,+0.351,-0.228,+0.668,-0.696,-0.239,+10.250,-10.250,+45.125,-15, 36, 13, -1, -44, 6, -1, -10,-3.1387607145891967,1.146564280555562,0
1503697320302,+0.763,+0.488,+0.356,-0.231,+0.453,-0.654,-0.156,+2.062,-20.750,+30.938,-47, -92, -41, -36, 5, -17, -19, -25,-3.133709902341808,1.1349159398243063,0
1503697320325,+0.762,+0.485,+0.358,-0.236,+0.415,-0.631,-0.152,-8.375,-2.250,+33.625,-6, 7, 10, 7, -7, -5, -2, -7,-3.1219604542249,1.1239275894223586,0
1503697320349,+0.759,+0.487,+0.358,-0.243,+0.462,-0.616,-0.146,-16.125,+28.188,+30.312,-6, -8, -42, -19, 1, -21, -13, -8,-3.1093899031385646,1.1261550652306798,0
1503697320362,+0.755,+0.492,+0.354,-0.250,+0.527,-0.593,-0.131,-23.312,+48.750,+21.562,7, 29, -6, -12, 20, 6, 7, 7,-3.094902759143891,1.1325104731109152,0
1503697320385,+0.752,+0.497,+0.349,-0.256,+0.550,-0.627,-0.174,-28.688,+56.188,+10.312,-5, 3, 5, 3, 24, 4, -4, 0,-3.0806818315655113,1.1385959395996084,0
1503697320407,+0.749,+0.504,+0.341,-0.262,+0.560,-0.642,-0.230,-32.312,+58.562,-4.750,-5, -8, -10, 3, 4, 2, 10, 1,-3.0643729027909488,1.147845148076664,0
1503697320422,+0.747,+0.511,+0.332,-0.265,+0.573,-0.645,-0.239,-32.875,+58.938,-20.312,0, 0, -2, 7, -8, -3, 1, -1,-3.053136093789775,1.1579714488359723,0
1503697320445,+0.746,+0.519,+0.321,-0.267,+0.569,-0.672,-0.216,-39.500,+61.000,-35.562,1, 0, -4, -10, -1, -4, 0, 0,-3.041938280940385,1.1704029925548358,0
1503697320467,+0.745,+0.527,+0.308,-0.268,+0.554,-0.684,-0.215,-43.938,+62.688,-49.812,-1, 3, 0, 0, 18, 19, 8, 3,-3.0298332373758847,1.1809320962661956,0
1503697320483,+0.744,+0.536,+0.294,-0.268,+0.588,-0.711,-0.209,-43.125,+67.625,-61.438,-2, -2, -3, -5, -10, -24, -11, -3,-3.019537847439648,1.1949560527488963,0
1503697320504,+0.743,+0.547,+0.279,-0.267,+0.637,-0.713,-0.222,-45.125,+72.562,-67.000,-2, -2, -4, -2, -9, -2, 4, -3,-3.0120252147590816,1.2160543702196842,0
1503697320527,+0.741,+0.556,+0.265,-0.266,+0.692,-0.741,-0.255,-42.438,+70.250,-69.438,2, -2, -1, 6, -9, -21, -4, -3,-3.0035492763094234,1.2312239025759169,0
1503697320543,+0.742,+0.564,+0.249,-0.263,+0.725,-0.755,-0.263,-45.375,+54.562,-78.062,-8, 0, 2, 3, -6, -18, -34, -14,-2.994265592361636,1.2433558127170665,0
1503697320565,+0.744,+0.569,+0.234,-0.260,+0.728,-0.724,-0.241,-49.438,+34.312,-83.250,-1, 3, 4, 3, 6, -2, 9, -1,-2.98312739303545,1.2474303504392843,0
1503697320588,+0.748,+0.572,+0.218,-0.255,+0.697,-0.657,-0.263,-57.125,+26.438,-89.125,9, 2, 1, 4, 15, 10, 66, 5,-2.9724308754461086,1.2461393889354138,0
1503697320602,+0.752,+0.576,+0.201,-0.252,+0.739,-0.612,-0.283,-60.000,+27.438,-84.250,5, 0, 1, 4, 2, 17, -12, 3,-2.9580982470462454,1.248285965029039,0
1503697320625,+0.753,+0.579,+0.186,-0.250,+0.813,-0.673,-0.291,-56.500,+32.562,-69.438,-6, -5, -6, -17, -1, 0, -1, 3,-2.9439437241689967,1.2482741866265799,0
1503697320647,+0.754,+0.582,+0.173,-0.249,+0.901,-0.677,-0.293,-54.312,+33.750,-56.500,-4, 5, 4, -6, -4, 33, 0, 2,-2.9309823359570517,1.2503426016424475,0
1503697320662,+0.756,+0.584,+0.161,-0.249,+0.913,-0.650,-0.312,-52.250,+21.500,-48.188,-1, -3, -2, -5, -4, -6, -10, -2,-2.9170812945769593,1.2508000935913757,0
1503697320685,+0.760,+0.581,+0.151,-0.250,+0.880,-0.639,-0.335,-50.875,-2.750,-41.000,-7, 9, 7, -7, 1, -4, -6, -7,-2.900065650207062,1.2378669340048871,0
1503697320707,+0.763,+0.579,+0.141,-0.249,+0.989,-0.626,-0.330,-47.500,-5.688,-38.500,-7, -3, -8, 12, 20, -5, -19, -3,-2.8876254204731246,1.228558955693893,0
1503697320722,+0.770,+0.571,+0.136,-0.250,+0.715,-0.650,-0.360,-42.312,-45.000,-31.000,-2, 5, -6, -15, -23, -12, -7, 1,-2.8740361124217726,1.2048340226618424,0
1503697320745,+0.776,+0.565,+0.129,-0.249,+0.786,-0.581,-0.285,-47.562,-35.500,-37.188,1, -8, -4, -7, -8, -10, 6, 12,-2.8634274568991622,1.1868863754136456,0
1503697320767,+0.781,+0.560,+0.122,-0.248,+0.742,-0.543,-0.321,-41.250,-24.312,-38.000,-7, -9, -5, -7, 1, 6, -1, -11,-2.8538227579434827,1.172057346874648,0
1503697320782,+0.785,+0.557,+0.117,-0.246,+0.765,-0.539,-0.321,-32.062,-19.500,-36.938,-14, -10, -4, 9, 6, 6, 5, 0,-2.8501384405548364,1.1638247938930912,0
1503697320804,+0.788,+0.554,+0.111,-0.245,+0.804,-0.536,-0.318,-30.188,-14.562,-33.625,-5, 2, 1, 1, -4, 8, 13, -4,-2.843271435716446,1.1549682633321634,0
1503697320828,+0.791,+0.552,+0.106,-0.243,+0.864,-0.544,-0.302,-25.500,-17.938,-33.312,18, 17, 20, 23, 5, -2, -1, 15,-2.8403900554426924,1.1496302627660968,0
1503697320842,+0.795,+0.548,+0.102,-0.240,+0.874,-0.533,-0.308,-22.000,-30.562,-34.875,0, -8, -6, -7, -6, -3, -4, 16,-2.839126790788985,1.139358140613122,0
1503697320865,+0.799,+0.543,+0.099,-0.237,+0.806,-0.517,-0.326,-20.750,-32.562,-32.500,13, -7, -9, -12, 10, 6, 0, 15,-2.838254961800924,1.1265275173836315,0
1503697320887,+0.802,+0.540,+0.096,-0.235,+0.847,-0.500,-0.335,-17.125,-20.000,-29.000,-3, 18, 14, -1, -4, -14, 7, 5,-2.83712925538711,1.1190592642647348,0
1503697320902,+0.804,+0.539,+0.094,-0.233,+0.860,-0.496,-0.349,-13.062,-14.062,-22.250,-2, -6, -6, 3, 1, 5, -9, -21,-2.8384509547147903,1.1170824343775412,0
1503697320925,+0.805,+0.538,+0.092,-0.232,+0.897,-0.480,-0.339,-10.438,-8.938,-18.750,-8, 9, 11, 4, 5, -1, -14, 1,-2.8375525419969096,1.1145219441361596,0
1503697320948,+0.807,+0.537,+0.090,-0.230,+0.944,-0.458,-0.343,-10.562,-11.938,-15.000,-6, -11, -5, -1, -3, -30, -13, 0,-2.8389163266548123,1.1125887238474328,0
1503697320963,+0.808,+0.535,+0.088,-0.229,+0.923,-0.441,-0.331,-9.812,-14.875,-11.438,-14, -7, -2, -2, -7, -13, -3, -17,-2.8371800198589407,1.1072127776142278,0
1503697320989,+0.810,+0.533,+0.087,-0.229,+0.895,-0.427,-0.334,-10.562,-15.625,-6.875,8, 0, 1, -1, -1, 24, 0, -5,-2.835482543933754,1.1024227762893595,0
1503697321007,+0.810,+0.532,+0.086,-0.229,+0.921,-0.422,-0.341,-11.188,-10.188,-2.062,-2, -3, -2, -2, 1, -1, -6, -15,-2.833505282504319,1.0994611231246103,0
1503697321022,+0.811,+0.531,+0.086,-0.230,+0.947,-0.400,-0.382,-7.750,-7.625,+4.375,12, 5, 7, -1, -1, 8, 12, -1,-2.831547765583987,1.0970508883779548,0
1503697321044,+0.811,+0.530,+0.086,-0.231,+0.889,-0.380,-0.341,-6.688,-12.438,+7.625,9, 2, 1, 1, -2, 3, 4, 5,-2.828992351759751,1.094117676662188,0
1503697321060,+0.812,+0.528,+0.086,-0.231,+0.864,-0.374,-0.368,-4.000,-13.125,+4.500,8, -8, -14, -5, -5, -14, -4, 20,-2.827830680738276,1.0889549831371925,0
1503697321082,+0.813,+0.526,+0.087,-0.232,+0.856,-0.366,-0.371,-3.875,-12.438,+4.438,4, 3, 0, 0, 3, 1, 0, -2,-2.826081246584589,1.0838126388861715,0
1503697321104,+0.814,+0.524,+0.087,-0.233,+0.852,-0.384,-0.388,-5.875,-13.688,+6.250,4, -1, -2, 0, -2, -4, 4, -5,-2.8232427689686164,1.078579795765013,0
1503697321121,+0.815,+0.522,+0.087,-0.234,+0.856,-0.390,-0.404,-7.500,-13.938,+10.062,4, -1, -2, 0, -3, -1, 0, 2,-2.8204061963064424,1.0733568055704568,0
1503697321142,+0.816,+0.519,+0.089,-0.236,+0.900,-0.392,-0.398,-5.000,-19.625,+12.625,-8, 1, 3, -3, -3, -4, -4, -13,-2.8171300518712745,1.0653950013587035,0
1503697321165,+0.819,+0.515,+0.090,-0.237,+0.815,-0.364,-0.438,-4.438,-27.938,+7.750,7, 5, 1, 0, -5, -1, 0, 9,-2.8148459567685555,1.0557190493717488,0
1503697321188,+0.822,+0.509,+0.091,-0.237,+0.776,-0.367,-0.440,-0.562,-37.688,+4.125,2, 3, 0, -3, -3, 2, -4, 10,-2.8124633276951188,1.040556302493093,0
1503697321202,+0.826,+0.503,+0.094,-0.236,+0.736,-0.393,-0.458,+2.188,-38.500,-0.812,-4, -5, 0, 1, 0, -3, 0, 5,-2.8145604472636516,1.0263137141936576,0
1503697321225,+0.829,+0.498,+0.095,-0.235,+0.667,-0.351,-0.484,+3.500,-30.375,-4.312,15, 0, -18, -2, 1, 2, 5, 11,-2.814839526077771,1.014229047900444,0
1503697321247,+0.831,+0.495,+0.097,-0.233,+0.700,-0.351,-0.474,+7.812,-18.688,-4.688,-12, -10, 3, -1, -2, -2, -7, -14,-2.818989697181426,1.0074001266835708,0
1503697321269,+0.833,+0.493,+0.099,-0.231,+0.760,-0.413,-0.486,+11.250,-13.812,-6.125,-2, -4, -4, -1, -1, -2, 1, 2,-2.824029282081968,1.0033916421759734,0
1503697321284,+0.834,+0.492,+0.101,-0.230,+0.779,-0.418,-0.487,+8.812,-13.625,-4.188,12, 3, 6, 1, 3, 0, 1, 1,-2.8275643461486464,1.0014972839992595,0
1503697321307,+0.835,+0.490,+0.102,-0.227,+0.746,-0.359,-0.481,+12.438,-10.312,-9.312,-4, -7, -8, -5, -2, 0, -1, 0,-2.8326760391049572,0.9969776142894392,0
1503697321322,+0.836,+0.490,+0.104,-0.223,+0.696,-0.366,-0.451,+17.125,-7.750,-17.562,-8, 4, 3, 2, -1, -1, -2, -6,-2.842277568094937,0.9982638701985672,0
1503697321344,+0.837,+0.492,+0.104,-0.218,+0.715,-0.386,-0.413,+18.938,+4.562,-25.438,-2, -5, 5, 2, -1, -4, -2, -1,-2.8532309336066355,1.0049995096233226,0
1503697321367,+0.835,+0.496,+0.104,-0.213,+0.782,-0.390,-0.426,+18.312,+21.500,-26.312,-8, 6, 9, -2, 0, 2, 1, 0,-2.864063433648166,1.0155739113411855,0
1503697321382,+0.833,+0.502,+0.103,-0.209,+0.845,-0.362,-0.426,+15.875,+34.875,-21.875,-6, -18, -9, -4, -5, -3, -2, 0,-2.8737051721826434,1.0314831734348282,0
1503697321404,+0.830,+0.508,+0.103,-0.205,+0.876,-0.332,-0.424,+20.312,+34.125,-15.750,-2, 6, 5, 1, 1, -1, -1, -2,-2.883842354596181,1.0470406773863914,0
1503697321427,+0.828,+0.514,+0.103,-0.201,+0.890,-0.325,-0.380,+19.562,+30.625,-16.438,-1, 2, 7, 7, 7, 1, 3, -2,-2.894436859668077,1.0632135432742338,0
1503697321442,+0.825,+0.519,+0.102,-0.197,+0.948,-0.338,-0.392,+15.188,+28.875,-14.562,0, 5, 0, 0, 0, -3, -2, -2,-2.902708605268558,1.075907348084727,0
1503697321467,+0.822,+0.526,+0.103,-0.194,+0.967,-0.326,-0.401,+19.688,+37.062,-6.312,-2, 2, 17, 5, 0, 2, -1, -1,-2.912907274138314,1.0945806443010702,0
1503697321487,+0.818,+0.532,+0.105,-0.192,+0.918,-0.303,-0.389,+29.000,+39.500,+2.312,-19, -15, -9, -5, -3, 0, -2, -2,-2.921409566105321,1.1101545495709042,0
1503697321502,+0.814,+0.538,+0.107,-0.191,+0.994,-0.375,-0.330,+20.812,+31.500,+7.938,4, -21, -8, -2, -3, -3, -1, 0,-2.9282958545561573,1.1257918104136524,0
1503697321525,+0.810,+0.543,+0.109,-0.191,+1.035,-0.368,-0.289,+15.812,+22.500,+10.688,9, 19, 0, 1, 1, 1, 3, 2,-2.9328516404353806,1.1386240674629815,0
1503697321547,+0.808,+0.546,+0.111,-0.190,+0.955,-0.362,-0.279,+13.938,+14.500,+8.250,12, 8, -11, -6, -13, -4, -2, 0,-2.938408795252583,1.1468978433034331,0
1503697321562,+0.806,+0.549,+0.112,-0.190,+0.912,-0.347,-0.294,+11.438,+16.188,+9.062,20, 16, 2, -2, 1, -1, 1, 0,-2.941119343903321,1.1548565944423015,0
1503697321584,+0.803,+0.553,+0.114,-0.191,+0.875,-0.361,-0.322,+11.812,+23.062,+15.750,-11, -4, -9, 0, 0, -2, -5, -8,-2.943754578318095,1.1654730601875198,0
1503697321607,+0.800,+0.556,+0.116,-0.193,+0.889,-0.384,-0.290,+8.750,+23.812,+17.188,-43, -75, -7, -3, 2, 2, 1, -1,-2.9440326809007513,1.1731784776818501,0
1503697321624,+0.797,+0.560,+0.118,-0.195,+0.935,-0.391,-0.271,+3.750,+23.375,+18.875,8, 12, 8, -2, -3, -4, -3, -3,-2.9451116466224416,1.183887442329605,0
1503697321644,+0.794,+0.562,+0.119,-0.198,+0.879,-0.380,-0.281,+0.562,+21.188,+19.125,-20, -11, -5, -1, -1, -2, -3, -4,-2.941875557200066,1.1883974144825835,0
1503697321667,+0.791,+0.565,+0.120,-0.200,+0.841,-0.375,-0.293,-0.562,+23.188,+19.188,23, 28, -1, -1, 9, 6, 3, 0,-2.941132647819817,1.1959920320608735,0
1503697321682,+0.788,+0.568,+0.120,-0.204,+0.836,-0.397,-0.285,-3.688,+24.562,+21.125,27, 75, 7, 2, -2, -1, 2, 10,-2.935804055271913,1.2031208487402882,0
1503697321704,+0.785,+0.571,+0.120,-0.208,+0.850,-0.401,-0.267,-7.562,+30.625,+21.438,5, 3, 0, 4, 1, 1, 1, 0,-2.930523718128377,1.2103058104732485,0
1503697321727,+0.781,+0.575,+0.120,-0.211,+0.833,-0.394,-0.263,-6.562,+31.062,+16.750,6, -21, -1, -2, 1, -3, 0, 2,-2.9275071877729344,1.2201876764853694,0
1503697321742,+0.779,+0.578,+0.119,-0.214,+0.822,-0.408,-0.264,-6.938,+28.125,+12.438,-33, -56, -9, 0, 3, 4, 4, -8,-2.923051944462277,1.2276844043990935,0
1503697321764,+0.776,+0.581,+0.118,-0.216,+0.807,-0.406,-0.272,-5.500,+31.375,+6.062,7, 8, -5, -3, -3, -1, -2, 2,-2.9200245994573426,1.2348836342821314,0
1503697321787,+0.773,+0.585,+0.117,-0.217,+0.804,-0.413,-0.263,-4.500,+29.000,-0.625,-4, 12, -5, -5, 0, 1, 0, -1,-2.919517870887554,1.2452255943422073,0
1503697321809,+0.771,+0.587,+0.114,-0.217,+0.833,-0.417,-0.236,-5.750,+21.875,-8.625,16, 35, 5, -1, -1, -3, -3, 0,-2.916786547264829,1.2494202590394858,0
1503697321826,+0.770,+0.590,+0.112,-0.215,+0.810,-0.391,-0.255,-3.000,+19.500,-18.125,-8, 1, 2, -1, -3, -1, -4, -2,-2.919749488421362,1.2575433748747291,0
1503697321847,+0.770,+0.592,+0.109,-0.212,+0.809,-0.360,-0.281,+1.312,+19.375,-23.000,4, -10, -3, 2, -1, -1, 3, 3,-2.922522532868113,1.2628116515685064,0
1503697321863,+0.769,+0.594,+0.106,-0.209,+0.852,-0.386,-0.267,+1.750,+15.562,-22.125,17, 34, 6, 2, -3, -1, -1, -1,-2.924970070872501,1.2676903351803324,0
1503697321884,+0.769,+0.596,+0.104,-0.206,+0.860,-0.393,-0.273,+2.188,+12.000,-23.062,-10, -39, -2, -4, -4, -2, -4, -5,-2.928926409086894,1.2732652865180571,0
1503697321907,+0.770,+0.597,+0.101,-0.203,+0.868,-0.369,-0.271,+1.750,+9.500,-24.688,8, 21, -4, 2, 1, 2, -1, -2,-2.9310686106991315,1.2759299329221327,0
1503697321923,+0.770,+0.597,+0.099,-0.200,+0.880,-0.385,-0.277,+0.812,+3.438,-21.562,-7, -23, -5, -6, -4, -1, 1, 3,-2.9334451597423827,1.2755418475285198,0
1503697321945,+0.771,+0.597,+0.097,-0.198,+0.896,-0.416,-0.229,-3.188,-2.125,-16.500,11, 19, -3, 5, -1, -1, -2, 5,-2.9344506974892974,1.2754800821199321,0
1503697321969,+0.771,+0.597,+0.096,-0.197,+0.903,-0.382,-0.224,-5.188,+0.625,-10.312,-13, -34, 0, -4, 1, 0, -1, -3,-2.9348203396219783,1.2752653366166442,0
1503697321983,+0.772,+0.597,+0.094,-0.197,+0.868,-0.381,-0.232,-5.875,-0.625,-6.938,1, 9, 4, 3, 0, -3, -7, -7,-2.93256157013935,1.2751033692320028,0
1503697322004,+0.772,+0.597,+0.093,-0.197,+0.908,-0.386,-0.207,-8.750,+0.688,-6.375,5, 14, 2, -3, -4, -3, -3, -4,-2.9312990857476064,1.2748408155500828,0
1503697322027,+0.772,+0.597,+0.091,-0.197,+0.928,-0.374,-0.214,-9.938,-1.000,-4.125,15, 19, -3, -2, 2, 1, 5, 7,-2.928776160588082,1.2743289238517945,0
1503697322043,+0.773,+0.597,+0.090,-0.197,+0.895,-0.353,-0.226,-7.750,+0.625,-3.438,-16, -31, -2, -1, 0, 1, -1, -7,-2.9278079152502876,1.274455780264556,0
1503697322065,+0.773,+0.597,+0.089,-0.197,+0.899,-0.374,-0.209,-8.188,-1.750,-4.188,-2, -2, -3, -3, -3, -10, -6, -3,-2.926552298395074,1.2742109171598672,0
1503697322087,+0.773,+0.596,+0.087,-0.197,+0.938,-0.384,-0.215,-9.438,-3.000,-7.625,-26, -18, 2, 1, -3, 2, -6, -10,-2.923304710152531,1.2707900942720995,0
1503697322103,+0.775,+0.595,+0.085,-0.196,+0.925,-0.346,-0.233,-8.188,-8.250,-12.250,-13, 2, 8, 3, -2, 0, -3, -4,-2.9223124608482114,1.2682093371302747,0
1503697322124,+0.777,+0.593,+0.083,-0.195,+0.896,-0.361,-0.235,-6.875,-13.000,-11.000,16, 18, 7, 5, 4, 5, 10, 10,-2.9206211289788864,1.2627312905346533,0
1503697322147,+0.778,+0.593,+0.081,-0.193,+0.881,-0.360,-0.237,-7.375,-5.438,-13.062,-4, -13, -6, -2, 0, -1, -5, 0,-2.92171373916135,1.2628053142269375,0
1503697322163,+0.779,+0.591,+0.079,-0.192,+0.918,-0.372,-0.203,-9.125,-14.875,-18.250,-16, -4, 6, 4, 0, 0, -2, 15,-2.919753350318108,1.2570090345787697,0
1503697322184,+0.782,+0.589,+0.076,-0.189,+0.922,-0.373,-0.202,-14.688,-19.938,-24.812,23, 12, -2, 0, -3, 0, -3, -8,-2.920519320733431,1.251956252368233,0
1503697323169,+0.826,+0.530,+0.093,-0.169,+0.922,-0.354,-0.423,+55.938,+5.625,+26.188,-28, -4, 0, 1, 2, 1, -4, -6,-2.949041240666149,1.108249632692624,1
1503697323183,+0.823,+0.532,+0.104,-0.167,+0.904,-0.341,-0.415,+60.750,+7.938,+28.562,8, 4, 0, -3, -9, -1, -1, -1,-2.965079354825141,1.11493008220245,1
1503697323205,+0.821,+0.535,+0.115,-0.166,+0.895,-0.375,-0.401,+63.875,+10.875,+31.625,2, 6, 2, 0, -9, -2, 0, -3,-2.9805689624302216,1.1254443972097483,1
1503697323227,+0.817,+0.537,+0.127,-0.164,+0.895,-0.396,-0.410,+66.500,+14.312,+32.500,2, -2, 1, 2, -6, -1, -1, 4,-2.9982632101464337,1.1332233806230327,1
1503697323244,+0.814,+0.540,+0.139,-0.162,+0.896,-0.402,-0.382,+67.812,+10.062,+31.000,-13, -8, -10, -3, 13, 2, -4, -4,-3.017165037716769,1.1451341574313125,1
1503697323265,+0.811,+0.542,+0.151,-0.160,+0.900,-0.405,-0.360,+71.125,+6.750,+29.188,53, 7, 2, 0, -7, -1, 1, 2,-3.035854295189348,1.1549629014377256,1
1503697323287,+0.808,+0.544,+0.163,-0.157,+0.858,-0.421,-0.356,+73.312,+6.438,+28.000,-10, -1, 2, -1, -7, -3, -1, 4,-3.0567168410903807,1.1657348716979687,1
1503697323303,+0.805,+0.545,+0.176,-0.153,+0.855,-0.436,-0.340,+74.000,+4.438,+26.875,-20, -2, -2, 2, 3, -3, -4, -6,-3.0804511152163614,1.175142852896922,1
1503697323325,+0.802,+0.547,+0.188,-0.150,+0.831,-0.446,-0.327,+76.688,+6.625,+25.625,-27, -3, -1, -4, -7, -4, 2, -1,-3.1021387101194517,1.1876688705296006,1
1503697323347,+0.798,+0.548,+0.201,-0.146,+0.840,-0.465,-0.334,+79.000,+5.125,+22.500,-24, -3, -2, 2, 4, 0, -1, -6,-3.127043500436318,1.1985331334183376,1
1503697323363,+0.795,+0.549,+0.213,-0.141,+0.824,-0.464,-0.286,+77.250,+0.250,+20.688,-56, -6, 4, 1, -1, 2, -1, -6,3.13042166111234,1.2102541997182572,1
1503697323385,+0.792,+0.550,+0.225,-0.136,+0.793,-0.467,-0.272,+79.562,+0.000,+17.312,16, 4, 2, -2, 0, 0, 1, 11,3.1042918067624687,1.222892948179201,1
1503697323407,+0.789,+0.552,+0.238,-0.130,+0.766,-0.479,-0.250,+80.562,+1.625,+15.875,-11, -5, -8, -5, -4, -2, 5, 1,3.074268724351769,1.240640272705002,1
1503697323423,+0.785,+0.552,+0.250,-0.124,+0.748,-0.480,-0.258,+80.875,+0.875,+13.250,-34, -3, 1, -1, -4, -1, 4, 1,3.045295557400589,1.2519806267379525,1
1503697323446,+0.782,+0.553,+0.261,-0.119,+0.734,-0.489,-0.234,+75.500,+2.125,+12.438,28, 5, -5, -4, 0, -1, -8, -2,3.0193418235937384,1.2664672992898696,1
1503697323468,+0.778,+0.554,+0.271,-0.114,+0.719,-0.491,-0.202,+70.250,+4.812,+12.500,4, -7, 0, -1, 2, 2, 1, 3,2.9936234104959127,1.2802395095746106,1
1503697323483,+0.775,+0.556,+0.281,-0.109,+0.711,-0.490,-0.171,+65.688,+5.875,+10.688,7, 7, -8, -2, 0, -1, -2, -4,2.9682219040181868,1.2981881761934335,1
1503697323506,+0.771,+0.557,+0.290,-0.105,+0.722,-0.494,-0.166,+59.125,+3.938,+9.250,6, -2, -1, 1, -1, -5, -1, 0,2.9450597258615834,1.3119454582911547,1
1503697323528,+0.769,+0.556,+0.297,-0.101,+0.708,-0.493,-0.177,+50.438,-3.375,+6.188,-11, 2, -4, -3, -4, -4, 2, -2,2.926582209586164,1.3181074834970459,1
1503697323543,+0.768,+0.556,+0.303,-0.097,+0.717,-0.480,-0.145,+41.875,-8.062,+4.812,-14, -6, -3, -1, 2, 1, -1, -1,2.910266731988194,1.3266445240787075,1
1503697323566,+0.767,+0.555,+0.308,-0.093,+0.674,-0.462,-0.150,+35.562,-7.625,+3.688,9, 23, 11, 1, -7, -4, -1, 8,2.8953545430424996,1.3309188640233398,1
1503697323588,+0.767,+0.554,+0.312,-0.090,+0.671,-0.465,-0.143,+26.312,-8.500,+0.938,-29, -11, -7, -2, 6, -2, 1, 1,2.88470279590437,1.334063015375574,1
1503697323605,+0.766,+0.554,+0.314,-0.089,+0.662,-0.478,-0.119,+15.938,-0.688,+1.188,4, -4, -2, 0, 0, 2, 0, -7,2.879087355764603,1.3368078411084139,1
1503697323625,+0.765,+0.555,+0.315,-0.088,+0.733,-0.475,-0.089,+7.562,+3.625,-0.625,22, 0, 2, 0, -2, 0, -1, 4,2.87473715354708,1.3412047729868448,1
1503697323648,+0.765,+0.555,+0.314,-0.087,+0.761,-0.479,-0.099,-2.250,-5.438,-4.438,43, 20, 17, 3, 4, -1, -1, -8,2.874240343422869,1.3399280568979415,1
1503697323672,+0.768,+0.553,+0.312,-0.085,+0.756,-0.463,-0.143,-9.188,-16.250,-9.875,14, 14, 3, -5, -4, -3, -2, -5,2.876856094863427,1.3322073190293453,1
1503697323686,+0.771,+0.551,+0.308,-0.083,+0.740,-0.471,-0.163,-17.125,-19.062,-13.125,4, -8, 3, 1, 4, 0, 3, -4,2.8819980053157264,1.3217654369765506,1
1503697323708,+0.773,+0.550,+0.304,-0.083,+0.749,-0.467,-0.172,-21.062,-12.875,-13.812,-16, -21, -11, -5, -4, -4, -5, -3,2.8894891072847573,1.313841155733644,1
1503697323729,+0.776,+0.549,+0.299,-0.082,+0.797,-0.450,-0.197,-20.812,-9.062,-13.250,-15, 0, 10, 1, -2, 0, 2, 4,2.897489297194549,1.3052483010007252,1
1503697323746,+0.779,+0.548,+0.295,-0.081,+0.839,-0.497,-0.202,-22.500,-14.938,-12.062,-13, -16, -6, -2, -4, 0, 10, 6,2.904083421200321,1.2981746032800219,1
1503697323768,+0.782,+0.545,+0.290,-0.080,+0.844,-0.476,-0.209,-24.562,-23.125,-12.688,-4, 0, 1, 0, 4, -2, -10, -17,2.911984934057479,1.2839490710268986,1
1503697323790,+0.787,+0.541,+0.286,-0.079,+0.792,-0.463,-0.245,-25.750,-28.250,-10.875,22, 4, -2, -1, -1, -3, -6, -7,2.92064379068909,1.2689705982258215,1
1503697323808,+0.790,+0.538,+0.282,-0.079,+0.748,-0.475,-0.252,-24.250,-19.000,-7.562,-8, 1, -3, -1, 1, 0, -4, -3,2.928905934043243,1.2562481435670196,1
1503697323835,+0.792,+0.537,+0.278,-0.080,+0.778,-0.493,-0.241,-24.812,-7.375,-3.812,33, 5, 1, -1, -2, -1, 4, 22,2.9377293413089287,1.2490628913653987,1
1503697323850,+0.793,+0.537,+0.275,-0.082,+0.850,-0.507,-0.195,-26.750,+0.562,-2.000,-27, -3, -2, 1, 7, 6, 4, -1,2.946029031818003,1.2455335840340704,1
1503697323866,+0.795,+0.537,+0.271,-0.084,+0.879,-0.489,-0.193,-27.500,-4.812,+0.312,13, 7, 4, -1, -11, -4, 0, 3,2.956421363132702,1.241331821829378,1
1503697323888,+0.797,+0.535,+0.267,-0.086,+0.845,-0.504,-0.233,-30.500,-12.188,+0.688,-35, -10, -12, -5, -3, -3, -3, 4,2.9670762627951355,1.23128798043155,1
1503697323909,+0.800,+0.532,+0.263,-0.089,+0.695,-0.484,-0.292,-33.562,-9.000,-0.125,7, -1, -4, -3, -1, 1, 0, 11,2.9805592487401285,1.2186148074404404,1
1503697323926,+0.800,+0.533,+0.258,-0.093,+0.654,-0.481,-0.283,-33.125,+18.688,-1.812,36, 10, 4, 2, -2, 0, 4, 12,2.993854459534676,1.2154183404014054,1
1503697323948,+0.798,+0.538,+0.253,-0.097,+0.749,-0.484,-0.263,-30.875,+40.562,+0.000,15, 18, 9, 1, -4, 1, -1, -2,3.004721779000273,1.2234373645420973,1
1503697323970,+0.796,+0.543,+0.248,-0.101,+0.892,-0.458,-0.271,-28.312,+40.750,+1.188,-31, 4, 3, -1, -2, -3, -8, -16,3.015606695649551,1.231642587989341,1
1503697323986,+0.796,+0.545,+0.243,-0.104,+0.875,-0.456,-0.293,-29.312,+18.500,-3.250,-17, -13, -4, -1, 1, 0, 3, -5,3.026803923501462,1.2320858706201068,1
1503697324009,+0.798,+0.544,+0.238,-0.104,+0.796,-0.446,-0.292,-29.312,-3.188,-13.562,-6, -4, -5, -1, 0, -3, -5, -12,3.034594255917003,1.2251317570277653,1
1503697324029,+0.800,+0.543,+0.233,-0.104,+0.763,-0.438,-0.291,-22.250,-5.000,-18.875,-40, -8, -5, 1, 2, 2, 0, -1,3.0423017497486953,1.2183481332265391,1
1503697324046,+0.801,+0.544,+0.229,-0.103,+0.731,-0.437,-0.292,-18.375,+5.250,-14.938,-31, -9, -1, -1, -2, -4, -11, -37,3.045728672466934,1.2182852276317682,1
1503697324068,+0.801,+0.545,+0.226,-0.104,+0.742,-0.463,-0.325,-17.562,+14.938,-11.062,26, -4, -4, 0, 3, 2, 2, 4,3.050953322421501,1.218390155929505,1
1503697324089,+0.800,+0.548,+0.222,-0.105,+0.798,-0.456,-0.291,-15.312,+23.250,-11.125,5, 4, -2, -2, -3, -3, 1, 9,3.0562775218871048,1.2231531107087041,1
1503697324105,+0.798,+0.551,+0.219,-0.105,+0.860,-0.463,-0.274,-12.188,+20.562,-12.625,6, 2, 4, -1, -3, 0, 3, 3,3.058048733804752,1.2285909649330673,1
1503697324127,+0.797,+0.554,+0.217,-0.105,+0.887,-0.501,-0.246,-6.438,+19.500,-14.375,-4, 6, 3, 0, 5, 0, -2, 6,3.059149470439411,1.2353315706409473,1
1503697324150,+0.796,+0.556,+0.215,-0.103,+0.858,-0.511,-0.241,-5.062,+15.188,-18.000,10, -5, 1, 0, -1, -2, 1, 3,3.056980179293019,1.2394538530133266,1
1503697324165,+0.795,+0.559,+0.213,-0.102,+0.866,-0.510,-0.246,-3.688,+12.562,-21.000,-8, -9, -7, 0, -1, -1, -4, -9,3.056363208489944,1.2463716653391348,1
1503697324188,+0.794,+0.562,+0.211,-0.099,+0.889,-0.505,-0.212,-2.500,+13.500,-21.750,2, -4, -2, -1, -1, -2, 2, 4,3.052255037987137,1.2535906433835116,1
1503697324210,+0.793,+0.564,+0.209,-0.097,+0.924,-0.475,-0.218,+1.750,+13.000,-22.688,9, 2, 0, 0, -2, 0, -1, -1,3.050214640901029,1.257719700127242,1
1503697324226,+0.792,+0.567,+0.207,-0.092,+0.939,-0.471,-0.189,+5.062,+3.188,-31.438,-1, 4, -3, 0, 1, 3, 1, -2,3.042741073159185,1.2652003917589854,1
1503697324248,+0.793,+0.567,+0.205,-0.086,+0.930,-0.473,-0.154,+6.875,-12.125,-34.000,22, 3, -3, -2, -5, 1, 0, 2,3.0353257122228428,1.2647814180758923,1
1503697324269,+0.793,+0.568,+0.205,-0.080,+0.928,-0.474,-0.146,+10.812,-8.312,-33.250,3, 13, -4, -2, 0, -2, -2, -2,3.0247340040885415,1.2685024461286698,1
1503697324285,+0.792,+0.571,+0.204,-0.075,+0.927,-0.465,-0.160,+13.438,+9.688,-30.938,2, 11, -2, 0, -1, 1, 1, 0,3.016323588967131,1.276688872365111,1
1503697324309,+0.789,+0.575,+0.203,-0.070,+0.976,-0.440,-0.164,+15.812,+15.562,-29.688,-5, -3, 1, 0, -2, -2, -2, -2,3.00670982777579,1.2870258974515663,1
1503697324329,+0.788,+0.577,+0.203,-0.064,+1.024,-0.434,-0.165,+17.875,+2.000,-31.438,-4, -9, -5, 1, 1, 1, 1, 3,2.9956818219515977,1.2931947360547955,1
1503697324346,+0.789,+0.578,+0.202,-0.056,+1.021,-0.416,-0.143,+20.500,-14.812,-38.938,8, 0, 6, 1, 1, 0, 6, 2,2.9839728094333884,1.2965628487363425,1
1503697324367,+0.790,+0.577,+0.202,-0.047,+0.946,-0.407,-0.143,+21.312,-24.750,-42.688,17, 14, -2, -2, -2, -5, -3, -1,2.969527792919614,1.2951035014405183,1
1503697324390,+0.791,+0.576,+0.201,-0.039,+0.892,-0.401,-0.162,+20.500,-16.562,-41.000,-4, -2, 3, 2, 0, -1, -1, -3,2.9580322424557983,1.292730585224167,1
1503697324405,+0.791,+0.578,+0.200,-0.032,+0.927,-0.355,-0.154,+17.875,-5.062,-37.125,-1, -6, 1, -1, 2, 2, 0, 1,2.9476816364575726,1.2984201453115245,1
1503697324428,+0.790,+0.579,+0.200,-0.026,+0.966,-0.363,-0.161,+19.125,-0.250,-33.750,-7, -8, -17, -10, -1, 1, 0, -1,2.937107225851349,1.301605379063034,1
1503697324450,+0.789,+0.580,+0.199,-0.019,+0.987,-0.358,-0.155,+16.312,-6.250,-36.688,11, 8, 11, 1, -6, -2, 0, 3,2.926151709776115,1.3040834469807943,1
1503697324465,+0.790,+0.580,+0.198,-0.012,+0.968,-0.321,-0.156,+14.750,-13.125,-34.062,8, -13, -10, -6, -1, -2, -2, -5,2.916669225783207,1.304380186565242,1
1503697324488,+0.791,+0.579,+0.197,-0.006,+0.917,-0.323,-0.163,+12.688,-17.375,-32.188,10, 25, -1, 0, -6, -6, -3, 0,2.9087249904321038,1.301762541451323,1
1503697324511,+0.790,+0.580,+0.196,-0.001,+0.933,-0.313,-0.135,+10.125,-2.312,-24.750,-29, -13, -15, -4, 0, 1, 1, -7,2.901187105921101,1.3039879007571096,1
1503697324525,+0.789,+0.583,+0.195,+0.002,+0.950,-0.311,-0.176,+7.812,+8.938,-18.500,12, 16, 3, 0, 7, 1, -1, 1,2.897305118617235,1.3115758656503933,1
1503697324550,+0.787,+0.585,+0.194,+0.004,+1.006,-0.292,-0.163,+2.688,+10.438,-15.875,3, 2, 5, 2, -1, -1, -1, 0,2.8940882879170746,1.315951955119398,1
1503697324570,+0.787,+0.585,+0.193,+0.007,+1.019,-0.288,-0.176,+3.562,-2.438,-13.750,-37, -14, -3, -1, -2, -2, -1, -1,2.890474989108384,1.315470944453233,1
1503697324586,+0.788,+0.585,+0.192,+0.010,+0.983,-0.266,-0.191,+2.500,-7.938,-14.062,-32, 6, -1, 0, -3, -4, -8, -12,2.8876775288412935,1.3153015066963167,1
1503697324608,+0.788,+0.585,+0.191,+0.012,+0.953,-0.256,-0.206,+2.625,-2.188,-11.062,34, 16, 7, -2, -2, 0, 2, 1,2.885673973497244,1.314724014402368,1
1503697324630,+0.788,+0.586,+0.191,+0.013,+0.951,-0.271,-0.201,+1.750,+1.062,-7.188,-33, -27, -12, -5, -6, -4, 0, 1,2.8843187620634563,1.3176034039283846,1
1503697324646,+0.787,+0.587,+0.190,+0.014,+0.984,-0.257,-0.208,+1.438,+7.438,-4.188,4, 16, -4, 0, 1, -5, -3, 2,2.883343779228445,1.319399156237203,1
1503697324668,+0.787,+0.587,+0.190,+0.015,+0.994,-0.264,-0.216,+2.750,+2.875,-3.375,0, -8, -8, -4, -6, 0, 0, -5,2.8817587379290646,1.3194976448339097,1
1503697324690,+0.787,+0.587,+0.190,+0.017,+0.992,-0.268,-0.198,+3.938,-2.938,-4.500,40, -1, -5, -1, 3, 1, 3, 0,2.8785926655659173,1.3196943955848712,1
1503697324706,+0.787,+0.586,+0.190,+0.019,+0.940,-0.261,-0.193,+4.688,-8.812,-7.562,-2, -6, -8, 1, 3, 2, -3, -13,2.8751709298901793,1.3171174520091606,1
1503697324728,+0.788,+0.586,+0.190,+0.021,+0.905,-0.233,-0.194,+3.438,-4.750,-9.438,-11, -26, -7, -2, 0, 2, 1, 8,2.8728370604859808,1.3176213738441669,1
1503697324750,+0.788,+0.586,+0.189,+0.022,+0.920,-0.242,-0.206,+4.375,+1.188,-5.688,-19, -15, -1, -3, 2, -1, -1, -5,2.8724327519426116,1.3169465291947346,1
1503697324765,+0.786,+0.588,+0.189,+0.024,+0.980,-0.235,-0.192,+4.438,+11.312,-5.438,-6, 1, 1, -1, -3, 0, 4, 6,2.8681743004503724,1.3220722477547335,1
1503697324789,+0.785,+0.589,+0.190,+0.025,+1.007,-0.245,-0.210,+6.125,+6.375,-3.375,-7, 10, 14, 4, 1, -1, -1, -3,2.8648755480152976,1.325414226465206,1
1503697324810,+0.786,+0.588,+0.190,+0.027,+1.003,-0.248,-0.197,+5.375,-5.375,-4.625,41, 16, 2, 1, 0, 3, 2, 9,2.8622920446713778,1.323137716698833,1
1503697324825,+0.786,+0.587,+0.190,+0.028,+0.990,-0.235,-0.209,+5.812,-7.000,-2.688,-16, -7, -2, -4, -3, 0, -2, 3,2.860428545517044,1.3204696498924056,1
1503697324849,+0.787,+0.587,+0.191,+0.029,+0.974,-0.228,-0.210,+5.062,-5.500,+1.812,-6, -1, 4, 3, -8, -6, -1, -3,2.858544130087013,1.3216487209820782,1
1503697324870,+0.787,+0.586,+0.192,+0.029,+0.975,-0.239,-0.205,+3.875,-5.000,+6.938,11, 6, 1, 0, -1, -3, -2, -1,2.857078019157309,1.3196719947436741,1
1503697324885,+0.787,+0.585,+0.193,+0.029,+0.944,-0.258,-0.207,+3.438,-4.875,+9.688,17, 13, -17, -3, 2, 4, -4, -1,2.855610883260341,1.317698895864137,1
1503697324908,+0.788,+0.584,+0.194,+0.027,+0.960,-0.261,-0.204,+1.125,-1.438,+10.688,-24, -15, -5, -7, 0, -3, -7, -4,2.858153656467914,1.3158322565764475,1
1503697324930,+0.788,+0.584,+0.195,+0.026,+0.938,-0.264,-0.208,+0.875,+0.188,+11.375,-1, -3, 7, 6, 4, 1, 5, -4,2.858560729217367,1.3165271607459208,1
1503697324948,+0.788,+0.583,+0.197,+0.025,+0.936,-0.290,-0.200,+1.750,-2.438,+11.938,-2, 9, 10, -1, -3, -3, 0, 0,2.8575158379493475,1.3152657405158574,1
1503697324968,+0.788,+0.582,+0.198,+0.024,+0.918,-0.293,-0.192,+1.188,-2.875,+8.188,-7, -4, 7, 2, -1, 1, 1, 0,2.8576418332187985,1.3132040856481095,1
1503697324991,+0.788,+0.582,+0.200,+0.023,+0.887,-0.315,-0.207,+1.562,+3.125,+7.938,-10, -6, -8, -5, -7, -2, 3, 7,2.856888216163031,1.3147307583967707,1
1503697325006,+0.787,+0.582,+0.201,+0.022,+0.896,-0.328,-0.191,+0.875,+4.875,+5.562,18, 14, -6, -1, -1, -2, -2, -1,2.856419914377038,1.315139624973109,1
1503697325028,+0.787,+0.583,+0.201,+0.022,+0.874,-0.314,-0.184,-0.812,+3.750,-1.375,2, -3, -5, -4, -7, -1, -5, -5,2.8567017242885346,1.3179113336012152,1
1503697325050,+0.786,+0.583,+0.201,+0.022,+0.885,-0.293,-0.159,-0.125,+3.875,-6.250,4, 3, -16, -6, 0, -2, -3, -6,2.85581921901542,1.3176061092092244,1
1503697326009,+0.873,+0.467,+0.125,-0.055,+0.917,-0.278,-0.590,+36.875,-34.438,+8.562,13, 2, -4, 0, 1, -1, 2, 20,3.1200224642025627,0.9843925507169382,2
1503697326025,+0.875,+0.463,+0.133,-0.052,+0.825,-0.285,-0.562,+43.750,-27.562,+10.438,10, 22, 5, -2, 2, 2, -5, 0,3.108106839688162,0.9785129329206558,2
1503697326047,+0.875,+0.461,+0.142,-0.049,+0.816,-0.287,-0.562,+52.125,-12.688,+12.562,-28, -7, -6, -2, -3, 1, 4, 7,3.0943890347621124,0.9775086048610186,2
1503697326069,+0.874,+0.460,+0.152,-0.047,+0.812,-0.318,-0.557,+58.938,-2.938,+18.000,-22, 14, 6, 1, 0, 0, 0, -8,3.0810076760200453,0.9792397994943218,2
1503697326092,+0.872,+0.458,+0.163,-0.045,+0.844,-0.314,-0.567,+64.062,-4.062,+19.750,5, 3, -1, 2, -2, -2, 2, 11,3.066409416105462,0.9787320052520398,2
1503697326107,+0.871,+0.457,+0.175,-0.042,+0.811,-0.345,-0.534,+67.500,-7.125,+20.000,-12, -4, -1, -3, -1, 0, 0, 4,3.0490366229878285,0.9826850496153466,2
1503697326132,+0.870,+0.455,+0.187,-0.039,+0.753,-0.347,-0.494,+69.625,-6.312,+19.062,-35, -11, -4, -4, -4, -4, 4, -2,3.0317706426095303,0.9846347340098929,2
1503697326152,+0.867,+0.455,+0.199,-0.036,+0.706,-0.356,-0.481,+71.062,+0.250,+18.938,11, -9, -2, -1, -8, -1, -6, -16,3.0129604506065397,0.9914948306082125,2
1503697326168,+0.864,+0.455,+0.211,-0.034,+0.707,-0.375,-0.463,+70.188,+9.625,+20.000,22, -3, -2, -2, 2, 0, -2, -3,2.995721259196429,0.9988250218284898,2
1503697326190,+0.861,+0.456,+0.222,-0.032,+0.739,-0.375,-0.449,+69.062,+11.438,+21.000,-12, -4, 1, -1, -1, -2, 0, 0,2.979035673023937,1.0087814794417607,2
1503697326212,+0.858,+0.456,+0.233,-0.030,+0.713,-0.378,-0.434,+66.500,+5.000,+17.438,-13, 0, -6, -1, 16, 2, -4, -1,2.962256779584498,1.016675112684643,2
1503697326229,+0.856,+0.456,+0.243,-0.027,+0.668,-0.378,-0.409,+61.125,+2.250,+14.000,-17, 1, -4, -1, -9, -5, 0, -3,2.9451538574904057,1.0251246134829983,2
1503697326249,+0.853,+0.456,+0.253,-0.025,+0.663,-0.377,-0.415,+58.500,+7.562,+14.062,-11, -17, -2, 2, -1, -1, -1, -4,2.9289370369185526,1.0333236336318765,2
1503697326272,+0.850,+0.456,+0.261,-0.022,+0.697,-0.389,-0.396,+51.188,+6.062,+11.562,-4, -20, -4, -2, -1, -3, -3, -13,2.9126230723738518,1.0403950143293834,2
1503697326287,+0.848,+0.457,+0.268,-0.020,+0.711,-0.394,-0.373,+46.625,+3.438,+8.125,-21, 1, 7, 2, 1, 0, -1, -2,2.899854450846162,1.049796611333937,2
1503697326309,+0.847,+0.456,+0.274,-0.017,+0.706,-0.417,-0.373,+42.438,-4.062,+5.000,10, 3, 0, -4, 1, 11, 2, 1,2.8873230343871086,1.0537355620433506,2
1503697326333,+0.846,+0.454,+0.279,-0.014,+0.703,-0.426,-0.371,+34.625,-7.062,+2.750,4, 22, 9, -1, 2, -2, -1, 0,2.8758329189555947,1.0540360243985565,2
1503697326349,+0.845,+0.453,+0.284,-0.012,+0.710,-0.435,-0.355,+27.875,-8.125,+2.188,31, 8, -1, 0, 8, 1, 5, 6,2.8660940423526204,1.056935486206883,2
1503697326377,+0.845,+0.452,+0.287,-0.009,+0.710,-0.438,-0.346,+21.062,-9.875,-0.062,-28, -14, -3, 0, -3, -4, -1, 5,2.8575642108837465,1.0585296502583106,2
1503697326392,+0.845,+0.450,+0.289,-0.007,+0.720,-0.449,-0.369,+16.750,-12.312,-0.500,27, 4, 5, 0, -3, -3, -5, -12,2.8519484673847275,1.0559473114068216,2
1503697326407,+0.845,+0.448,+0.290,-0.005,+0.706,-0.469,-0.340,+8.125,-13.188,-2.562,62, 15, 15, 2, 0, -3, 0, 8,2.847314924475564,1.0522409761130613,2
1503697326429,+0.846,+0.447,+0.291,-0.004,+0.733,-0.465,-0.350,+2.875,-9.500,-1.938,-43, -17, -4, 3, 3, 1, -1, -3,2.84564779146981,1.0514851180889928,2
1503697326445,+0.846,+0.446,+0.291,-0.004,+0.763,-0.485,-0.361,-2.750,-10.000,-2.188,-10, 9, -5, -3, -7, -2, 1, -6,2.845689112510798,1.0487311165842872,2
1503697326467,+0.848,+0.444,+0.289,-0.003,+0.759,-0.468,-0.367,-7.000,-14.500,-3.375,-16, -5, -5, -1, 0, 0, -2, 3,2.848153358838985,1.0422914730810566,2
1503697326493,+0.849,+0.443,+0.288,-0.002,+0.746,-0.446,-0.386,-9.250,-12.500,-4.125,-50, -8, -5, -5, -5, -5, -1, 3,2.848440668967989,1.0392574296967416,2
1503697326505,+0.850,+0.442,+0.286,-0.002,+0.757,-0.469,-0.383,-10.812,-7.250,-3.500,19, -17, -9, -3, -4, -4, -5, -7,2.8515574084349007,1.0347727481485662,2
1503697326527,+0.851,+0.442,+0.284,-0.002,+0.796,-0.467,-0.388,-13.500,-4.938,-3.562,5, 0, -3, -2, 0, 1, 0, -1,2.8546101947627847,1.0330523136085166,2
1503697326549,+0.852,+0.441,+0.282,-0.001,+0.802,-0.476,-0.409,-13.438,-8.938,-3.062,1, 13, 8, -2, 1, 2, -7, -9,2.855831651381084,1.0289581712663307,2
1503697326565,+0.854,+0.439,+0.279,-0.001,+0.747,-0.447,-0.431,-14.562,-13.938,-4.500,15, 7, 2, 0, -1, -5, -3, -8,2.86100528309182,1.0212771502722648,2
1503697326587,+0.855,+0.438,+0.277,-0.001,+0.736,-0.464,-0.417,-14.938,-8.000,-3.688,27, 7, 6, 4, 0, -1, -1, 5,2.864055562676729,1.0169307178743017,2
1503697326609,+0.856,+0.438,+0.275,-0.002,+0.758,-0.464,-0.407,-15.750,-0.062,-1.000,-44, -11, -10, -6, 1, -3, 3, -6,2.868899353720361,1.0149971241038764,2
1503697326626,+0.857,+0.438,+0.272,-0.003,+0.818,-0.472,-0.419,-17.250,-0.250,-0.125,-2, -15, -7, -2, -4, 4, 1, 7,2.874678557643781,1.0120467928435941,2
1503697326647,+0.858,+0.437,+0.270,-0.003,+0.786,-0.494,-0.436,-18.125,-10.000,-3.125,-11, -2, -1, 1, 1, -6, -7, -10,2.877684242826378,1.0077961939067543,2
1503697326669,+0.860,+0.435,+0.267,-0.003,+0.761,-0.476,-0.443,-18.562,-14.188,-5.250,-1, -2, -2, -4, -2, 3, 8, -3,2.8827073542073536,1.000391847302884,2
1503697326694,+0.861,+0.434,+0.264,-0.003,+0.774,-0.468,-0.467,-15.312,-9.250,-6.312,-19, 1, 1, 1, 0, -2, -6, 1,2.8866208834492566,0.99522333454055,2
1503697326707,+0.862,+0.433,+0.262,-0.003,+0.793,-0.502,-0.439,-14.312,-3.812,-5.500,-11, -8, -8, -3, 1, -3, 5, 5,2.8895726140219065,0.9910913857947884,2
1503697326729,+0.862,+0.435,+0.260,-0.004,+0.850,-0.458,-0.387,-18.062,+1.812,-3.812,15, -5, -1, -1, 0, 4, 4, 3,2.8931665121590417,0.9941945997871634,2
1503697326752,+0.862,+0.436,+0.257,-0.005,+0.860,-0.478,-0.468,-16.562,+3.438,+0.438,25, -2, -5, -4, -4, -4, -7, 0,2.8977942309840454,0.9936717433587968,2
1503697326767,+0.863,+0.437,+0.255,-0.006,+0.801,-0.466,-0.439,-17.562,+6.312,+0.625,-72, 0, 2, 0, 5, -1, -6, -15,2.902405591224395,0.9946731630402348,2
1503697326789,+0.862,+0.439,+0.253,-0.008,+0.806,-0.452,-0.450,-15.062,+14.625,+1.875,57, 15, 0, 0, 1, 3, 3, 6,2.9069431379290673,0.9970142705186816,2
1503697326812,+0.860,+0.443,+0.252,-0.011,+0.843,-0.478,-0.435,-12.375,+23.625,+7.188,20, 0, 6, 4, 4, 2, -1, -2,2.9113211071854255,1.004878301529223,2
1503697326830,+0.860,+0.445,+0.250,-0.014,+0.813,-0.431,-0.423,-16.375,+14.625,+8.125,-52, -2, -1, 0, -1, 0, 0, 9,2.918659820545865,1.0075172732207562,2
1503697326850,+0.859,+0.446,+0.249,-0.017,+0.764,-0.423,-0.418,-17.125,+12.438,+9.562,-22, 0, -1, 0, -1, 0, 3, 6,2.9242658260518746,1.0078768774747144,2
1503697326872,+0.859,+0.448,+0.247,-0.020,+0.649,-0.372,-0.430,-17.375,+17.562,+10.562,10, 7, 8, 0, 2, -1, 3, 3,2.9316037307395346,1.0105811553292126,2
1503697326887,+0.858,+0.450,+0.244,-0.024,+0.587,-0.338,-0.431,-20.875,+28.562,+8.312,23, 6, 1, 3, -4, 0, 1, 7,2.940965600270727,1.0116081329125228,2
1503697326909,+0.857,+0.455,+0.240,-0.028,+0.666,-0.345,-0.429,-24.875,+34.312,+4.688,-11, -6, 1, -1, -14, -3, -4, -16,2.950937886373667,1.0199927897337726,2
1503697326932,+0.857,+0.458,+0.234,-0.031,+0.625,-0.316,-0.431,-33.625,+27.375,-5.312,-9, -3, 0, 0, 9, -2, -9, -21,2.9620900168644937,1.0221557939752783,2
1503697326948,+0.857,+0.461,+0.226,-0.032,+0.522,-0.293,-0.405,-40.938,+26.062,-20.000,-40, 3, 3, -1, 4, 0, 4, 4,2.971513221980553,1.0233992314291984,2
1503697326971,+0.856,+0.467,+0.217,-0.033,+0.542,-0.285,-0.407,-43.812,+45.062,-26.250,3, -1, 0, 2, 7, -1, -10, -10,2.9808639685502563,1.031750062206819,2
1503697327001,+0.853,+0.477,+0.208,-0.035,+0.635,-0.277,-0.400,-43.500,+69.812,-27.750,22, 12, -7, -9, -22, -2, 6, 9,2.990360709650669,1.0500226041219467,2
1503697327007,+0.848,+0.489,+0.199,-0.037,+0.764,-0.322,-0.424,-41.000,+79.562,-28.375,36, 0, -5, 0, -1, 0, 0, -1,2.9986813974522057,1.073136223177397,2
1503697327029,+0.844,+0.500,+0.191,-0.038,+0.925,-0.370,-0.416,-36.375,+69.500,-27.000,-43, -11, -5, 0, -7, -2, -3, -10,3.005253488044277,1.0953602278192953,2
1503697327052,+0.841,+0.508,+0.184,-0.038,+0.970,-0.410,-0.409,-32.750,+50.188,-29.000,3, -12, -6, 0, 4, -1, 3, 5,3.010164557670031,1.1110359637004463,2
1503697327069,+0.838,+0.514,+0.178,-0.038,+0.919,-0.446,-0.389,-28.500,+37.375,-31.375,-20, -11, 3, 5, 1, 0, 1, 7,3.0144037115003828,1.122097378743065,2
1503697327089,+0.835,+0.521,+0.173,-0.039,+0.873,-0.449,-0.341,-25.312,+45.812,-25.688,10, 13, 5, 0, 10, 2, 1, 9,3.0193711524919653,1.136544932371783,2
1503697327112,+0.830,+0.530,+0.170,-0.041,+0.895,-0.434,-0.321,-20.875,+64.500,-11.562,19, -5, -5, -5, -6, -2, -3, -4,3.022805871791905,1.1568492468161662,2
1503697327127,+0.822,+0.542,+0.168,-0.045,+0.978,-0.447,-0.292,-17.500,+84.312,-2.125,23, 3, -2, -1, 0, -3, -4, -5,3.0269285346447057,1.1847389988584944,2
1503697327149,+0.814,+0.555,+0.166,-0.049,+1.039,-0.414,-0.299,-15.312,+87.625,+0.750,-2, 1, 1, 2, 12, -1, 0, 0,3.0310345500817695,1.2158738988713986,2
1503697327172,+0.806,+0.566,+0.164,-0.052,+1.068,-0.380,-0.284,-8.312,+79.500,-3.500,25, 20, 8, 1, -6, -1, -1, 8,3.033688156235431,1.2419751993638124,2
1503697327187,+0.801,+0.574,+0.162,-0.052,+1.030,-0.364,-0.194,-5.562,+52.625,-9.875,-4, -8, -5, -5, 0, 0, 1, 6,3.0330451796509457,1.2613988978447321,2
1503697327209,+0.797,+0.580,+0.160,-0.052,+0.945,-0.372,-0.167,-7.375,+38.375,-13.188,-17, -9, -2, -1, -7, 0, -2, -6,3.03312475779614,1.2756693424737,2
1503697327232,+0.791,+0.588,+0.158,-0.053,+0.866,-0.357,-0.150,-6.938,+52.938,-16.812,14, 12, 10, 1, -3, 0, 2, 1,3.033868951971322,1.2949343590490665,2
1503697327247,+0.785,+0.598,+0.155,-0.052,+0.874,-0.256,-0.168,-4.312,+67.688,-19.250,-13, -6, -2, -2, -1, -2, -4, -5,3.032556947046221,1.3196492494877299,2
1503697327271,+0.779,+0.607,+0.151,-0.050,+0.961,-0.198,-0.162,+0.062,+60.062,-21.938,-6, -19, -1, -2, -1, 0, -2, 2,3.0311495045001906,1.3411989807787534,2
1503697327293,+0.775,+0.613,+0.148,-0.046,+1.029,-0.237,-0.158,+2.750,+38.438,-30.312,4, -15, -13, 0, 2, 1, -5, -5,3.0264975876395686,1.3556554945682422,2
1503697327307,+0.772,+0.617,+0.144,-0.041,+1.068,-0.237,-0.123,+1.688,+23.750,-35.375,-3, -5, 1, 1, 1, -1, -2, -3,3.022173571708977,1.3642382416747367,2
1503697327332,+0.771,+0.620,+0.140,-0.035,+1.039,-0.195,-0.161,+5.875,+7.875,-32.812,25, 19, 9, -2, -5, 3, 2, 7,3.0173201668059,1.3706058440958924,2
1503697327352,+0.773,+0.619,+0.138,-0.030,+0.991,-0.234,-0.161,+7.250,-10.000,-31.188,-24, -5, -8, -4, -2, -2, -2, -4,3.0128448803853125,1.3674774418907187,2
1503697327367,+0.774,+0.618,+0.136,-0.026,+0.975,-0.279,-0.095,+3.625,-13.562,-26.562,3, -8, -9, 0, -1, 3, 0, 1,3.009468748258651,1.364060654657663,2
1503697327389,+0.773,+0.619,+0.135,-0.023,+0.965,-0.265,-0.091,+1.750,-1.562,-16.938,-14, -8, -6, -4, 0, -3, 0, -1,3.005580188509335,1.366255734620785,2
1503697327415,+0.772,+0.621,+0.135,-0.023,+0.945,-0.265,-0.111,+0.500,+12.500,-8.875,-1, -12, 15, 6, -1, 0, 1, 0,3.005243834482696,1.3716398394400477,2
1503697327427,+0.769,+0.625,+0.135,-0.023,+0.982,-0.267,-0.134,-1.938,+26.125,-2.062,3, 3, 11, -1, 11, -3, -3, -4,3.004104697918515,1.3821831936855198,2
1503697327449,+0.766,+0.628,+0.135,-0.024,+1.057,-0.247,-0.118,-1.000,+24.688,+2.125,19, 14, -4, -2, -2, -2, -1, 0,3.004461494179852,1.38989599522598,2
1503697327474,+0.764,+0.630,+0.135,-0.024,+1.084,-0.260,-0.112,-0.688,+12.250,+0.562,-3, -12, -11, -4, -5, -1, -2, -4,3.0036589859354788,1.3950939425804942,2
1503697327488,+0.764,+0.630,+0.135,-0.023,+1.040,-0.238,-0.110,+0.062,+2.188,-4.250,12, 2, 11, 4, 16, -1, 0, 3,3.0020996856803692,1.3951425292049422,2
1503697327509,+0.764,+0.631,+0.133,-0.022,+0.985,-0.210,-0.109,-0.312,-3.188,-11.438,-15, -23, -7, -3, -15, -3, -2, -3,3.0031989569246833,1.3969485962676558,2
1503697327533,+0.764,+0.631,+0.132,-0.019,+0.945,-0.176,-0.117,+0.312,-1.000,-13.062,0, 0, 2, -2, -4, -2, 0, 2,2.999819081780943,1.3965610756333349,2
1503697327548,+0.764,+0.631,+0.130,-0.017,+0.913,-0.158,-0.142,+2.688,+3.062,-14.125,32, 8, -3, 1, 4, -1, 0, 1,2.9992781141513367,1.39560812073602,2
1503697327569,+0.763,+0.633,+0.128,-0.014,+0.906,-0.143,-0.111,+2.812,+8.688,-17.500,-3, -4, -12, -2, 7, 0, 6, 3,2.9969318268328076,1.4001343281911967,2
1503697327592,+0.762,+0.635,+0.127,-0.010,+0.944,-0.145,-0.081,+5.188,+13.938,-20.000,-21, -6, -8, -3, -14, 2, 0, -3,2.9918041016208226,1.4052189214048871,2
1503697327609,+0.760,+0.638,+0.125,-0.007,+0.968,-0.147,-0.083,+7.500,+14.312,-18.938,-45, -10, 2, 1, 4, 1, -1, -3,2.989206612351939,1.4123622670128266,2
1503697327629,+0.757,+0.641,+0.125,-0.004,+0.982,-0.172,-0.086,+8.562,+18.875,-15.938,27, 34, 0, 2, 4, 0, 3, 1,2.983605985003366,1.4203260830552258,2
1503697327659,+0.755,+0.644,+0.124,-0.002,+0.990,-0.190,-0.094,+6.250,+20.000,-14.062,-7, -1, 4, -2, -7, -2, -4, -4,2.9813603853905617,1.4279648577738275,2
1503697327675,+0.753,+0.647,+0.123,+0.000,+0.986,-0.195,-0.070,+5.000,+18.000,-13.062,-12, -25, -15, -4, -16, -1, -5, -1,2.97916071351442,1.4356175185556912,2
1503697327689,+0.751,+0.649,+0.123,+0.002,+1.027,-0.197,-0.068,+4.188,+12.562,-11.250,2, 8, -2, -2, 2, -2, -2, -1,2.9755176733418307,1.4409644813165012,2
1503697327712,+0.750,+0.650,+0.122,+0.003,+1.025,-0.206,-0.060,+0.375,+4.562,-8.625,0, -37, -9, -3, -3, -1, -2, -1,2.975006595205889,1.4431474707347742,2
1503697327727,+0.750,+0.650,+0.121,+0.003,+1.014,-0.200,-0.060,-5.438,-2.125,-7.500,1, -4, -1, 1, 6, -1, -1, -2,2.9763102371676387,1.4426567066061076,2
1503697327749,+0.751,+0.649,+0.120,+0.003,+0.995,-0.188,-0.060,-9.438,-5.938,-5.188,-20, -9, 3, 0, -2, 0, 0, 3,2.9779162225453093,1.4395252190076346,2
1503697327772,+0.751,+0.649,+0.118,+0.003,+0.953,-0.158,-0.066,-8.312,-2.062,-3.438,-20, -27, -4, -5, -11, -2, -4, -5,2.9805214814557393,1.4385645615582991,2
1503697327788,+0.751,+0.650,+0.117,+0.003,+1.003,-0.166,-0.077,-5.875,+4.812,-4.250,22, 21, 5, 4, 9, 1, 8, 6,2.9820099113930216,1.4409056380459768,2
1503697327809,+0.751,+0.650,+0.116,+0.002,+1.047,-0.188,-0.061,-6.688,-3.500,-1.562,16, 2, -12, -2, -8, -4, -8, -3,2.9848182031272272,1.4404052946531034,2
1503697327835,+0.753,+0.648,+0.116,+0.001,+1.040,-0.192,-0.065,-8.938,-12.688,+1.125,-8, -4, -3, -1, 3, -1, 2, 5,2.9869150055161713,1.4350948943958943,2
1503697327847,+0.754,+0.647,+0.115,+0.001,+1.005,-0.199,-0.060,-8.688,-14.375,+0.750,-80, -26, -6, -3, -4, -3, -3, -12,2.988508800346368,1.4319967091517454,2
1503697327869,+0.755,+0.645,+0.114,-0.001,+0.971,-0.215,-0.059,-12.500,-12.000,+2.250,44, 42, 1, 0, 10, -1, -1, -1,2.992969323676891,1.4260271953601964,2
1503697327891,+0.756,+0.645,+0.113,-0.003,+0.983,-0.194,-0.064,-14.062,-7.688,+4.312,25, 35, -5, 1, 3, -2, 1, 9,2.9977556230524787,1.425694100655451,2
1503697327908,+0.757,+0.644,+0.112,-0.005,+1.022,-0.193,-0.083,-15.625,-7.625,+5.438,18, 1, -4, -4, -8, 2, 1, 4,3.0023899468973725,1.4225535541818182,2
1503697327929,+0.759,+0.642,+0.111,-0.008,+1.024,-0.207,-0.059,-19.438,-17.375,+3.938,6, -27, 0, 1, -1, -1, -2, -12,3.008858670266811,1.416769973891957,2
1503697329010,+0.831,+0.542,+0.123,-0.037,+0.917,-0.240,-0.333,+32.562,+0.312,+38.312,9, -5, -8, -3, 1, 1, -1, 4,3.0675651655381144,1.1658514854880158,3
1503697329032,+0.829,+0.542,+0.132,-0.039,+0.906,-0.252,-0.334,+32.938,+5.750,+38.812,12, -1, -3, -2, 2, -1, 0, 3,3.0602494767470283,1.168849880621864,3
1503697329048,+0.828,+0.542,+0.140,-0.041,+0.932,-0.253,-0.367,+35.375,+5.062,+39.188,4, 13, 21, 1, 9, -1, 2, 1,3.0543376106475253,1.1720926641677452,3
1503697329070,+0.827,+0.541,+0.149,-0.043,+0.936,-0.281,-0.352,+36.438,+1.250,+38.500,-5, -17, -7, -2, -31, -1, 4, 2,3.0473550838846073,1.1733649619430346,3
1503697329092,+0.825,+0.540,+0.158,-0.045,+0.911,-0.302,-0.357,+39.312,+1.125,+38.250,-10, -2, -2, 0, 2, -1, -2, -4,3.0398854100388655,1.1745027462080904,3
1503697329110,+0.824,+0.540,+0.167,-0.046,+0.889,-0.309,-0.341,+42.000,+4.938,+38.562,13, 0, -4, -1, 15, 4, 2, 0,3.0309568903420323,1.1792992373030242,3
1503697329130,+0.821,+0.540,+0.177,-0.048,+0.896,-0.329,-0.330,+44.688,+10.188,+40.312,20, 6, 0, 3, 1, 1, 2, 2,3.021539063239413,1.1840935270640196,3
1503697329153,+0.819,+0.541,+0.187,-0.049,+0.915,-0.343,-0.352,+49.062,+9.438,+40.688,-18, 6, 6, 1, -2, -1, -1, 1,3.010644806361439,1.1927089277347558,3
1503697329168,+0.816,+0.540,+0.198,-0.050,+0.891,-0.377,-0.321,+49.875,+4.062,+39.000,1, -2, -12, 0, -1, 2, -1, -4,2.998048266928651,1.1965095435560806,3
1503697329190,+0.815,+0.539,+0.208,-0.050,+0.874,-0.404,-0.317,+51.750,-1.312,+37.062,14, -5, 5, 1, -1, -3, -2, -3,2.9859349546097524,1.2010673130876084,3
1503697329212,+0.813,+0.537,+0.219,-0.050,+0.830,-0.422,-0.280,+52.188,-3.312,+36.188,-9, -3, -6, 0, 1, -6, -7, -2,2.971979496343208,1.2036925545819686,3
1503697329228,+0.810,+0.536,+0.230,-0.050,+0.826,-0.430,-0.278,+53.000,+0.000,+36.188,14, -4, -5, -2, -8, -5, -7, -4,2.957022076700334,1.2093183764655997,3
1503697329250,+0.808,+0.535,+0.242,-0.050,+0.796,-0.450,-0.285,+54.812,+2.438,+35.750,-11, -2, 3, 0, -3, -1, 0, -4,2.9414564751295926,1.2169515744570587,3
1503697329272,+0.805,+0.534,+0.252,-0.050,+0.791,-0.465,-0.259,+54.188,+1.812,+30.750,13, -2, 1, 2, 18, 1, -2, 0,2.9272052732772593,1.2228606886238633,3
1503697329288,+0.803,+0.533,+0.263,-0.049,+0.808,-0.466,-0.239,+52.812,+0.375,+31.062,-22, -2, -2, -2, -2, 2, 3, 3,2.910690170459606,1.2310070734505338,3
1503697329312,+0.800,+0.533,+0.273,-0.049,+0.780,-0.479,-0.229,+50.188,+3.000,+32.062,31, 4, 14, 0, -8, 2, 4, 8,2.89597771037472,1.2409884351260858,3
1503697329332,+0.797,+0.532,+0.282,-0.050,+0.728,-0.492,-0.220,+45.375,+3.500,+29.375,3, -7, 3, 1, -5, -6, -5, -7,2.8840169761470276,1.2472522806365094,3
1503697329348,+0.794,+0.531,+0.291,-0.050,+0.728,-0.470,-0.219,+45.250,+8.812,+28.750,6, 8, -6, -1, 6, 2, 1, 4,2.870046472378036,1.2542061119605272,3
1503697329370,+0.791,+0.532,+0.299,-0.050,+0.738,-0.483,-0.221,+44.375,+10.000,+26.250,-19, -5, -6, -4, -1, -2, -2, -5,2.857094306312266,1.2662442480771605,3
1503697329392,+0.788,+0.532,+0.307,-0.050,+0.744,-0.508,-0.176,+38.875,+7.812,+22.250,-47, -9, 0, 1, 5, -3, -8, -14,2.843939339207159,1.2757832583485398,3
1503697329408,+0.785,+0.532,+0.313,-0.050,+0.753,-0.504,-0.166,+35.125,+7.062,+20.125,0, -6, 1, -2, -7, -2, 1, 6,2.8330117745743135,1.2829586642749238,3
1503697329430,+0.783,+0.532,+0.319,-0.050,+0.770,-0.520,-0.148,+29.312,+5.312,+20.062,-5, 1, -3, 2, 1, 0, -2, -3,2.823207777664352,1.2907524942406678,3
1503697329452,+0.781,+0.531,+0.324,-0.050,+0.745,-0.523,-0.136,+22.250,+0.375,+16.875,15, -1, 3, 1, -1, -1, 2, 5,2.8144477323728285,1.2943473121100557,3
1503697329468,+0.780,+0.531,+0.328,-0.050,+0.707,-0.520,-0.091,+13.188,-1.625,+11.312,3, -16, -7, -1, -6, -2, 0, 1,2.80824990007283,1.2999415370113152,3
1503697329490,+0.779,+0.532,+0.330,-0.051,+0.735,-0.521,-0.097,+6.938,+3.250,+8.875,-27, -5, -7, -6, -6, -1, -4, -7,2.8063392819986284,1.3053867984001462,3
1503697329513,+0.778,+0.532,+0.330,-0.052,+0.761,-0.529,-0.088,-4.250,+1.000,+7.500,-3, 2, 2, -2, 0, 1, 3, 1,2.806763126722113,1.3048369195264082,3
1503697329528,+0.778,+0.532,+0.329,-0.053,+0.764,-0.511,-0.129,-11.250,-0.625,+4.062,-18, -8, -7, -1, 3, 3, 2, -4,2.80977558869535,1.3031131635160673,3
1503697329550,+0.779,+0.531,+0.327,-0.055,+0.759,-0.511,-0.172,-15.188,-0.875,+2.688,22, 8, 2, 1, 5, 2, 7, 8,2.8170869369459997,1.2970282538069942,3
1503697329572,+0.781,+0.531,+0.325,-0.056,+0.781,-0.507,-0.191,-19.250,-1.500,+0.438,20, 4, 2, 1, -7, -3, -3, -3,2.823985091957595,1.2945377227460317,3
1503697329588,+0.783,+0.530,+0.321,-0.056,+0.823,-0.507,-0.189,-21.000,-7.188,-4.688,24, -1, 0, 0, 1, -2, -2, 1,2.8314165959160484,1.2863912367752335,3
1503697329610,+0.785,+0.528,+0.318,-0.056,+0.803,-0.515,-0.251,-19.312,-13.938,-6.750,34, 5, -3, -4, -6, -5, 1, 5,2.8375465237870183,1.2768195445660293,3
1503697329632,+0.788,+0.526,+0.315,-0.057,+0.813,-0.569,-0.250,-18.188,-11.125,-5.000,-6, 1, 2, -2, 3, 0, 2, -1,2.8467061331233583,1.267492364351018,3
1503697329649,+0.790,+0.525,+0.312,-0.057,+0.828,-0.551,-0.204,-19.688,-9.562,-5.625,10, -1, 3, 0, -3, -3, -4, 0,2.8527716269494365,1.2610890862478528,3
1503697329670,+0.791,+0.525,+0.309,-0.057,+0.834,-0.537,-0.195,-21.875,-6.750,-4.500,-35, -9, -5, 1, 4, 1, 4, 7,2.857590914910249,1.2573519329325014,3
1503697329692,+0.792,+0.525,+0.306,-0.059,+0.854,-0.566,-0.212,-21.250,+2.062,-2.625,-20, -2, 3, 2, 3, 5, 3, -10,2.8660238988945195,1.2532218025403687,3
1503697329715,+0.793,+0.525,+0.302,-0.060,+0.884,-0.544,-0.232,-23.250,+1.188,-2.375,-13, 0, -2, -1, 1, 1, -1, -1,2.8738249610866617,1.248060674214588,3
1503697329730,+0.794,+0.525,+0.299,-0.062,+0.846,-0.536,-0.244,-22.250,-1.375,-2.250,-11, -6, 1, -1, -4, -3, -1, 12,2.882222876913341,1.2440755521797653,3
1503697329756,+0.796,+0.525,+0.296,-0.063,+0.821,-0.532,-0.194,-25.438,-5.438,-3.375,15, 0, 0, -2, 1, -2, -4, -5,2.889860051181295,1.2407845320321893,3
1503697329775,+0.797,+0.525,+0.292,-0.065,+0.820,-0.510,-0.243,-23.875,+1.812,+0.500,-12, -12, -10, 0, 2, -1, -3, 8,2.89939591460236,1.2356718242239901,3
1503697329791,+0.798,+0.525,+0.289,-0.067,+0.835,-0.503,-0.251,-24.312,+5.625,+1.625,31, 13, 0, -1, 3, 0, -3, 0,2.9077080875580545,1.2318970036914811,3
1503697329820,+0.799,+0.525,+0.285,-0.069,+0.833,-0.492,-0.261,-24.688,+0.812,-0.062,8, 6, 1, 1, -5, -5, -10, -7,2.917204043340197,1.2269724613101012,3
1503697329836,+0.800,+0.524,+0.282,-0.071,+0.777,-0.513,-0.239,-25.250,-4.312,-0.312,16, -1, -4, 0, 1, -2, 1, -14,2.9255916492125738,1.2203793493163027,3
1503697329851,+0.801,+0.524,+0.278,-0.074,+0.746,-0.483,-0.206,-28.500,+3.438,+0.938,-44, 3, -6, -3, -3, -2, -4, -5,2.936900991012555,1.215416856938818,3
1503697329872,+0.801,+0.526,+0.275,-0.078,+0.748,-0.469,-0.265,-25.500,+17.312,+5.062,42, 0, 4, 0, 2, 2, 5, 6,2.9476094593744633,1.2169776973274418,3
1503697329894,+0.801,+0.527,+0.272,-0.081,+0.806,-0.492,-0.231,-27.250,+14.938,+3.750,14, 8, 2, 0, -1, -2, -2, -8,2.9566164995545723,1.215862844027327,3
1503697329910,+0.802,+0.528,+0.267,-0.084,+0.786,-0.474,-0.224,-31.062,+5.938,+1.438,-17, 2, 4, -3, -6, 1, -4, 3,2.9688986469591216,1.2130283885519306,3
1503697329932,+0.803,+0.528,+0.263,-0.088,+0.705,-0.481,-0.242,-34.562,+4.938,+2.188,-43, -13, -2, 0, -1, -3, 3, 0,2.9819589910067363,1.2082428392380087,3
1503697329956,+0.803,+0.529,+0.258,-0.093,+0.691,-0.477,-0.235,-38.438,+20.000,+4.500,27, 2, 1, -1, -1, 1, -2, 4,2.997068685879308,1.204831869526061,3
1503697330027,+0.802,+0.532,+0.253,-0.098,+0.780,-0.472,-0.227,-40.750,+27.500,+6.750,-18, -2, 0, -1, 6, -1, 3, 6,3.010955830071078,1.2070919225243115,3
1503697330028,+0.802,+0.534,+0.247,-0.104,+0.818,-0.476,-0.243,-44.000,+19.250,+4.500,-4, -2, -2, -4, -6, -1, 2, -2,3.0288733050173655,1.2057956728567938,3
1503697330030,+0.803,+0.535,+0.240,-0.108,+0.766,-0.461,-0.241,-48.250,+10.750,-1.875,0, -8, -2, 0, -1, 3, 4, -10,3.045203848602927,1.201656923700751,3
1503697330040,+0.803,+0.536,+0.233,-0.113,+0.679,-0.455,-0.263,-49.188,+14.750,-3.375,15, -2, -1, 1, -2, -1, -3, -2,3.062727167097056,1.1971710784383034,3
1503697330054,+0.803,+0.538,+0.226,-0.118,+0.777,-0.454,-0.244,-50.375,+21.875,-2.312,-28, -11, -7, -3, -7, -4, -1, -3,3.079877654667549,1.1959564519630208,3
1503697330077,+0.803,+0.541,+0.219,-0.123,+0.862,-0.464,-0.279,-49.125,+24.625,+0.250,-7, 1, 3, -1, 2, 0, -6, -11,3.0965706395324077,1.198006635788812,3
1503697330091,+0.804,+0.541,+0.211,-0.126,+0.861,-0.475,-0.260,-52.375,+6.500,-9.562,37, 13, 9, 4, 15, -1, -4, -3,3.112343225489666,1.1914582770734774,3
1503697330113,+0.807,+0.539,+0.202,-0.128,+0.873,-0.437,-0.281,-53.812,-12.188,-14.688,-16, -13, -9, -3, -4, 1, -1, 5,3.128957791646921,1.1797399064654965,3
1503697330137,+0.812,+0.536,+0.193,-0.131,+0.799,-0.411,-0.321,-54.625,-18.500,-14.312,-14, -3, -1, -2, -1, -2, 2, -1,-3.1350460876125443,1.1663939386111464,3
1503697330160,+0.815,+0.533,+0.185,-0.134,+0.766,-0.432,-0.323,-55.125,-8.562,-11.938,39, 11, 2, 0, -19, -1, 3, 9,-3.1179417692244873,1.153307519626932,3
1503697330173,+0.815,+0.534,+0.177,-0.138,+0.812,-0.444,-0.316,-53.250,+10.562,-9.375,11, 10, 5, 2, 6, -2, -4, -1,-3.101665599542446,1.150653972596609,3
1503697330195,+0.815,+0.535,+0.168,-0.141,+0.916,-0.421,-0.340,-52.312,+17.375,-8.375,-3, 8, 8, 0, -4, 1, 0, 4,-3.0860720166568525,1.1479437115820514,3
1503697330211,+0.816,+0.536,+0.160,-0.145,+0.951,-0.389,-0.330,-53.062,+8.125,-6.938,26, 8, 0, -1, -4, 2, 5, 10,-3.06986365338662,1.1464880687060461,3
1503697330233,+0.818,+0.535,+0.151,-0.148,+0.882,-0.390,-0.336,-53.438,-2.250,-10.125,-29, -4, 3, -1, 7, 1, -1, -3,-3.0533648695380355,1.1397683327923556,3
1503697330257,+0.819,+0.535,+0.143,-0.151,+0.808,-0.393,-0.350,-49.875,+8.250,-11.438,25, 12, 15, 1, 1, 1, 3, 3,-3.038750105794268,1.1362889076271312,3
1503697330270,+0.818,+0.537,+0.136,-0.155,+0.811,-0.389,-0.363,-48.562,+24.875,-7.438,-21, -8, -1, 0, 9, -2, -2, -4,-3.0246234162343564,1.1381400382137004,3
1503697330293,+0.816,+0.540,+0.128,-0.159,+0.868,-0.378,-0.337,-45.438,+33.625,-2.312,3, 2, -3, 0, -7, -1, 0, 3,-3.0098361848567095,1.1422459409776335,3
1503697330315,+0.814,+0.545,+0.121,-0.164,+0.873,-0.394,-0.330,-41.438,+38.500,-3.188,-20, -10, -6, -1, 2, 1, -3, -4,-2.9956662719352916,1.1526022112757055,3
1503697330330,+0.811,+0.549,+0.115,-0.168,+0.857,-0.407,-0.333,-39.938,+39.938,-4.875,12, -10, -7, -2, -2, -5, -3, -4,-2.983673383669125,1.1602902698266941,3
1503697330358,+0.808,+0.554,+0.109,-0.172,+0.841,-0.400,-0.333,-38.312,+42.938,-4.000,-11, -14, -13, -5, -3, -3, -4, -5,-2.972299170549822,1.171046075502341,3
1503697330382,+0.804,+0.559,+0.103,-0.175,+0.874,-0.375,-0.337,-32.562,+45.312,-3.188,1, 7, -9, -1, 3, 1, -1, 0,-2.9623990933691,1.1816366086503578,3
1503697330390,+0.800,+0.564,+0.098,-0.178,+0.899,-0.397,-0.291,-27.312,+41.438,-3.188,-20, -15, -7, -5, 3, -5, -6, -10,-2.9536415994423315,1.192681943147047,3
1503697330413,+0.797,+0.568,+0.094,-0.181,+0.930,-0.423,-0.268,-25.125,+36.188,-4.562,-23, 3, -2, 0, 1, 1, 2, -1,-2.9456710236734254,1.201684453123968,3
1503697330435,+0.794,+0.572,+0.090,-0.183,+0.925,-0.426,-0.283,-23.250,+33.125,-5.875,38, 4, 5, -1, -5, -1, 1, 3,-2.9393732956140783,1.210865919604421,3
1503697330454,+0.792,+0.576,+0.086,-0.185,+0.906,-0.398,-0.295,-22.188,+33.250,-6.750,-5, 2, -7, -2, -2, -1, 0, -2,-2.933378949987572,1.2205708222614486,3
1503697330473,+0.789,+0.580,+0.081,-0.186,+0.914,-0.373,-0.294,-20.938,+30.750,-8.312,-17, -1, 0, -1, -3, -2, -1, -3,-2.927514148508382,1.2298099282959145,3
1503697330495,+0.787,+0.583,+0.078,-0.187,+0.960,-0.383,-0.271,-18.000,+27.250,-8.562,9, 7, 7, 0, -2, 0, -2, -2,-2.9236756597443407,1.2370428404877725,3
1503697330510,+0.785,+0.586,+0.074,-0.187,+0.996,-0.355,-0.262,-14.625,+24.000,-8.812,-10, 5, 0, -1, -1, 1, -2, 2,-2.9202445081217734,1.2442043850248419,3
1503697330531,+0.784,+0.588,+0.071,-0.187,+0.981,-0.364,-0.253,-13.250,+11.375,-10.875,19, 1, -5, -2, -1, -1, -3, -1,-2.9176542150825533,1.249092677970602,3
1503697330556,+0.784,+0.588,+0.068,-0.187,+0.948,-0.357,-0.234,-15.125,+4.938,-12.938,-5, -6, -3, 0, 0, -2, 0, 2,-2.9140147503552116,1.248630906851883,3
1503697330569,+0.783,+0.590,+0.065,-0.187,+0.944,-0.313,-0.259,-11.500,+11.625,-10.312,-12, 5, 4, 0, -1, 0, -2, -2,-2.9114145280248653,1.2535811158875283,3
1503697330592,+0.782,+0.592,+0.063,-0.186,+0.965,-0.315,-0.258,-6.688,+16.562,-6.500,19, -8, -3, 0, 0, 0, -1, 3,-2.911624304125226,1.2587336790312207,3
1503697330614,+0.780,+0.594,+0.061,-0.186,+0.991,-0.338,-0.251,-7.562,+14.062,-6.312,-31, -8, -3, -2, -3, 1, 0, -3,-2.909844937212411,1.2634808809759124,3
1503697330629,+0.780,+0.595,+0.059,-0.186,+1.010,-0.323,-0.210,-8.875,+5.500,-4.250,5, -5, -4, -1, 6, -1, -6, 1,-2.90810773717796,1.266118804127077,3
1503697330655,+0.780,+0.595,+0.058,-0.186,+0.963,-0.314,-0.197,-8.188,-1.062,-3.938,-32, -12, -5, -1, -4, -3, -4, -7,-2.9068902742797076,1.2660013540112003,3
1503697330674,+0.779,+0.595,+0.057,-0.187,+0.923,-0.317,-0.198,-8.812,+2.562,-1.750,4, -3, -5, 0, 3, -1, 4, -1,-2.9036892837835433,1.2654757809049684,3
1503697330689,+0.778,+0.597,+0.055,-0.188,+0.927,-0.333,-0.211,-8.125,+12.500,-1.812,8, 7, 2, 1, 2, -1, -2, -2,-2.9006834486284996,1.270618744680925,3
1503697330712,+0.776,+0.599,+0.054,-0.188,+0.936,-0.334,-0.206,-8.062,+14.500,-3.750,-41, -15, -3, -1, 4, -3, -4, -7,-2.9000924816311513,1.2755476048388052,3
1503697330734,+0.775,+0.601,+0.052,-0.188,+0.957,-0.333,-0.202,-7.250,+9.812,-7.000,33, 26, 2, -4, 7, -3, -1, 0,-2.8986703127269706,1.2807579311122153,3
1503697330751,+0.776,+0.601,+0.050,-0.187,+0.935,-0.348,-0.189,-9.562,+0.188,-13.625,-16, -9, -3, -1, -6, 0, 2, -2,-2.898203467781452,1.2809639022427808,3
1503697330772,+0.776,+0.601,+0.048,-0.186,+0.914,-0.320,-0.182,-11.750,-2.312,-15.375,18, -13, 2, -2, -5, 2, -1, 6,-2.897337709429961,1.2808230889983896,3
1503697330796,+0.776,+0.601,+0.045,-0.185,+0.878,-0.325,-0.218,-9.625,+0.188,-17.375,20, 7, 9, 5, -6, -1, -4, -2,-2.8952520782714544,1.2806244877053248,3
1503697330809,+0.776,+0.602,+0.043,-0.184,+0.875,-0.335,-0.230,-8.312,+10.812,-16.875,-1, 7, 0, 2, -2, 0, 0, -1,-2.8950890966712577,1.2833898009799822,3
1503697330832,+0.775,+0.604,+0.040,-0.183,+0.929,-0.314,-0.239,-6.500,+18.250,-14.062,-24, -13, -10, 0, -4, 0, 2, -2,-2.893977377628467,1.288623386023302,3
1503697330856,+0.774,+0.604,+0.038,-0.182,+0.973,-0.314,-0.236,-7.250,+6.000,-13.812,-25, -17, -3, -2, 4, -1, -3, -5,-2.8926757979970277,1.288194867624502,3
1503697330869,+0.775,+0.604,+0.036,-0.181,+0.979,-0.316,-0.218,-6.688,-5.500,-15.750,3, 2, -2, -2, 9, 1, 1, 1,-2.8922293183027925,1.28848167191843,3
1503697330892,+0.777,+0.602,+0.035,-0.179,+0.956,-0.293,-0.251,-3.250,-11.000,-15.250,-5, -2, -9, -2, -4, 1, 1, -1,-2.893628442889651,1.2834710748131233,3
1503697330914,+0.779,+0.600,+0.034,-0.178,+0.895,-0.304,-0.253,-6.000,-14.875,-14.062,-1, -6, -1, -2, 0, -2, -2, 3,-2.8934880343248937,1.2784655783620915,3
1503697330929,+0.780,+0.599,+0.032,-0.178,+0.919,-0.270,-0.233,-8.438,-4.562,-6.375,-4, 7, 0, -1, 1, -1, -3, -1,-2.8908372688811625,1.2759283458595385,3
1503697330951,+0.780,+0.600,+0.032,-0.178,+0.953,-0.259,-0.234,-2.750,+3.688,-4.000,5, -1, -1, -4, -6, -2, 2, 4,-2.891516805974418,1.278774449424269,3
1503697330974,+0.780,+0.600,+0.031,-0.177,+0.985,-0.289,-0.225,-1.875,+0.062,-3.062,-13, -9, 1, 2, 2, 0, 0, -2,-2.891877590450288,1.278774109858317,3
1503697330993,+0.780,+0.599,+0.031,-0.176,+1.006,-0.271,-0.208,-1.125,-8.750,-4.500,4, -4, 2, 1, 0, 0, -1, -1,-2.8927685038499167,1.2759479614825326,3
1503697331011,+0.782,+0.597,+0.031,-0.175,+0.938,-0.287,-0.202,-0.500,-19.688,-7.750,9, 20, 9, 0, -2, -1, 3, 0,-2.893880934443625,1.2710074164948046,3
1503697331034,+0.784,+0.595,+0.031,-0.174,+0.896,-0.285,-0.208,-4.688,-12.000,-10.625,8, -3, -8, 0, -1, 0, -2, 4,-2.8950066209249234,1.2660855920630278,3
1503697331053,+0.784,+0.595,+0.029,-0.174,+0.909,-0.246,-0.212,-8.500,-0.125,-6.938,15, -4, -3, -5, -3, -2, -5, -6,-2.8926203009249085,1.2660647824061835,3
1503697331072,+0.784,+0.596,+0.027,-0.174,+0.941,-0.239,-0.229,-6.812,+2.500,-5.500,13, -1, 3, -2, -1, 1, -2, 3,-2.8909015156224593,1.2688903616884453,3
1503697331096,+0.784,+0.595,+0.026,-0.173,+0.985,-0.242,-0.237,-6.875,-2.562,-9.375,-38, -2, 6, 0, -2, -3, -5, -5,-2.890615223388185,1.2660792825026763,3
1503697331114,+0.786,+0.594,+0.024,-0.172,+0.992,-0.232,-0.244,-6.750,-15.312,-13.000,26, 2, 0, 0, 2, 0, 0, 1,-2.89006941926143,1.2640245589738166,3
1503697331136,+0.789,+0.590,+0.022,-0.170,+0.922,-0.223,-0.241,-9.750,-22.312,-14.875,-2, -6, -8, -2, -5, -2, -2, 1,-2.8896372805486403,1.2539405551552063,3
1503697331158,+0.790,+0.589,+0.019,-0.169,+0.880,-0.191,-0.231,-10.625,-11.750,-14.375,-12, 12, 6, 4, -1, 2, 6, 3,-2.8875158699425274,1.2516090946268421,3
1503697331169,+0.791,+0.587,+0.017,-0.168,+0.917,-0.190,-0.272,-9.812,-6.062,-12.750,9, 3, 1, -4, -6, -4, -3, 0,-2.885942254301835,1.2464703083860678,3
1503697331196,+0.793,+0.586,+0.014,-0.167,+0.954,-0.201,-0.254,-11.312,-8.125,-14.250,-29, -6, -1, 3, 7, 1, 3, 0,-2.8843640001113213,1.2445987311824815,3
1503697331227,+0.794,+0.584,+0.011,-0.166,+0.962,-0.183,-0.246,-11.625,-15.875,-15.938,-27, -11, -6, -4, -3, -3, -1, -5,-2.881685808278301,1.2395933939506976,3
1503697331231,+0.797,+0.581,+0.009,-0.164,+0.914,-0.186,-0.261,-11.438,-19.562,-15.562,19, -1, -3, -3, -1, 0, 2, 4,-2.882161663140816,1.2325693477337742,3
1503697332367,+0.818,+0.546,+0.107,-0.148,+0.917,-0.351,-0.361,+62.000,-1.000,+13.125,10, 0, 0, 0, 2, 0, 0, -3,-3.008319214530217,1.1545666622348911,4
1503697332371,+0.817,+0.547,+0.117,-0.144,+0.870,-0.345,-0.346,+62.938,-2.125,+11.250,-5, -5, -3, -2, 0, 0, -2, -5,-3.027140607697352,1.1604278747578671,4
1503697332392,+0.815,+0.548,+0.127,-0.139,+0.861,-0.349,-0.345,+63.875,+0.500,+13.062,17, 4, -8, -1, 4, -1, -3, 1,-3.047818393012972,1.1664482343667002,4
1503697332416,+0.813,+0.549,+0.138,-0.135,+0.843,-0.370,-0.332,+63.250,+4.875,+14.250,-15, 1, -3, -1, 1, 1, -1, -1,-3.0682056405131757,1.1733311989692794,4
1503697332433,+0.811,+0.551,+0.147,-0.131,+0.857,-0.378,-0.318,+62.562,+7.250,+13.438,9, -3, -4, -3, 0, -1, -3, -3,-3.086926176813246,1.1827559227528561,4
1503697332451,+0.809,+0.552,+0.157,-0.127,+0.857,-0.379,-0.311,+62.812,+3.062,+12.875,-16, -11, -3, -2, -1, -2, 0, 0,-3.106590567090618,1.1902992447186993,4
1503697332475,+0.807,+0.553,+0.167,-0.123,+0.849,-0.394,-0.297,+61.625,+0.500,+12.750,11, -6, -1, -2, -9, 1, -2, -3,-3.126475373931031,1.1983953963794662,4
1503697332490,+0.805,+0.554,+0.177,-0.119,+0.824,-0.405,-0.284,+59.000,+0.625,+12.812,28, 5, -1, -1, -1, -1, 0, 4,3.1366184232269023,1.2070523687692436,4
1503697332513,+0.803,+0.555,+0.186,-0.115,+0.830,-0.410,-0.277,+57.812,+2.250,+12.062,4, 4, 5, 1, 2, 0, -4, -4,3.117559775605035,1.2155931007194423,4
1503697332536,+0.800,+0.556,+0.195,-0.112,+0.826,-0.407,-0.279,+57.875,+2.875,+12.938,-26, -7, -2, -1, 1, 2, 3, 0,3.099714477143293,1.2240411201248498,4
1503697332549,+0.799,+0.556,+0.203,-0.107,+0.833,-0.406,-0.271,+55.688,-1.375,+10.688,-6, -7, -1, 1, 1, -2, 3, 0,3.080500643564355,1.2303903358309136,4
1503697332573,+0.797,+0.556,+0.211,-0.104,+0.821,-0.416,-0.241,+52.250,-4.625,+11.250,-39, -11, -10, -7, 2, 0, -4, -10,3.0642668046767447,1.2363924216227724,4
1503697332594,+0.795,+0.556,+0.219,-0.100,+0.808,-0.420,-0.249,+50.125,-2.812,+10.000,-13, 1, 1, 3, -2, 1, -2, -3,3.046082379455125,1.242925114513931,4
1503697332610,+0.794,+0.556,+0.227,-0.096,+0.796,-0.419,-0.248,+48.875,-2.250,+10.312,17, 9, 3, 0, 0, -1, -1, 3,3.028359389772272,1.2502378902644535,4
1503697332631,+0.792,+0.556,+0.234,-0.093,+0.796,-0.425,-0.223,+47.125,+0.500,+10.438,10, 4, 9, 1, 1, 3, 2, 0,3.012957666415613,1.2564212850859526,4
1503697332654,+0.790,+0.557,+0.241,-0.090,+0.807,-0.430,-0.227,+46.188,+1.000,+10.062,-2, -2, 3, -1, -3, -7, -3, 2,2.997243596862676,1.2658684214041556,4
1503697332677,+0.788,+0.557,+0.247,-0.087,+0.806,-0.450,-0.207,+41.188,-0.188,+8.062,25, 3, -1, -1, -3, 0, -1, -2,2.9828647606122427,1.2716346018349436,4
1503697332691,+0.786,+0.557,+0.254,-0.084,+0.799,-0.450,-0.201,+40.188,+2.562,+9.375,24, 1, 0, 0, 0, 3, 0, 0,2.9671093091728666,1.2786893644155404,4
1503697332714,+0.784,+0.558,+0.260,-0.082,+0.811,-0.448,-0.218,+39.250,+4.000,+10.562,-7, -3, 3, 0, 4, 2, 4, 2,2.954174635818364,1.2877590310721054,4
1503697332737,+0.782,+0.558,+0.265,-0.079,+0.821,-0.455,-0.202,+36.750,+0.688,+9.812,-21, 4, -2, 4, 1, 0, 5, 5,2.9407561212318645,1.2931215148752997,4
1503697332751,+0.781,+0.558,+0.271,-0.077,+0.817,-0.468,-0.174,+33.562,-2.188,+9.625,50, 7, -5, -5, -2, 10, -5, 3,2.9286912578088775,1.2999918056042887,4
1503697332782,+0.780,+0.557,+0.276,-0.075,+0.805,-0.476,-0.162,+30.000,-3.375,+9.500,-23, -4, 1, 1, 0, -5, 0, 1,2.9179241346381777,1.3028997860319438,4
1503697332807,+0.778,+0.557,+0.280,-0.074,+0.807,-0.479,-0.181,+27.250,-0.688,+10.000,18, 11, 3, -1, -8, -5, -6, -3,2.9090988573856027,1.3072155544726156,4
1503697332815,+0.777,+0.557,+0.284,-0.072,+0.816,-0.480,-0.156,+23.000,-1.000,+9.375,10, 1, -1, 0, 0, 1, 0, 0,2.8994590090530763,1.312148022988569,4
1503697332836,+0.776,+0.557,+0.288,-0.072,+0.792,-0.508,-0.125,+16.062,-1.812,+9.125,33, -2, -5, 2, 8, -3, -1, -2,2.893335666924579,1.316842504863985,4
1503697332857,+0.775,+0.557,+0.290,-0.072,+0.850,-0.513,-0.099,+7.938,+0.688,+9.125,-20, -8, -2, -2, -2, -1, 2, 0,2.8897276249594777,1.319065255618153,4
1503697332886,+0.775,+0.556,+0.291,-0.073,+0.814,-0.458,-0.143,+1.625,-3.625,+10.750,-11, 1, 0, -2, -3, -4, 1, 4,2.8902371788935572,1.3171779743774032,4
1503697332926,+0.776,+0.555,+0.291,-0.073,+0.780,-0.444,-0.146,-6.188,-6.438,+7.188,23, -3, -3, -3, -4, -1, -7, 6,2.8913283627996567,1.3145066704657522,4
1503697332938,+0.775,+0.556,+0.291,-0.076,+0.762,-0.481,-0.138,-5.625,+11.562,+10.375,-20, -6, -3, 0, 2, 0, -6, -7,2.8955674565211957,1.3166593451065998,4
1503697332939,+0.773,+0.559,+0.290,-0.079,+0.858,-0.512,-0.130,-9.812,+20.688,+13.250,-16, 1, 4, 1, -1, -3, -2, -8,2.8999670633037504,1.3232438376177427,4
1503697332955,+0.772,+0.560,+0.289,-0.082,+0.844,-0.492,-0.125,-15.875,+7.688,+9.312,-39, -6, -2, 0, -21, 8, -3, -7,2.9055033002734034,1.324151926190944,4
1503697332977,+0.773,+0.560,+0.287,-0.084,+0.793,-0.497,-0.157,-17.562,+3.500,+5.125,-13, -5, 2, -3, -3, -11, -4, -10,2.9126885327790917,1.3215902610554175,4
1503697332992,+0.773,+0.560,+0.285,-0.086,+0.796,-0.499,-0.190,-19.625,+7.562,+3.375,-28, 1, -1, 1, 1, -1, 5, 1,2.918847984189594,1.3187260938592333,4
