Timestamp,Orientation X,Orientation Y,Orientation Z,Orientation W,Accelerometer X,Accelerometer Y,Accelerometer Z,Gyroscope X,Gyroscope Y,Gyroscope Z,EMG1,EMG2,EMG3,EMG4,EMG5,EMG6,EMG7,EMG8,Roll,Yaw,Window
1503515701957,+0.980,+0.174,-0.013,+0.092,+0.365,+0.060,-0.913,-0.625,-0.188,+0.875,-2, -2, -4, -1, 0, 1, -1, 1,2.9643362047471378,0.3460912897940736,0
1503515701980,+0.980,+0.174,-0.013,+0.092,+0.365,+0.057,-0.907,-0.938,+0.125,+0.500,1, -2, -2, -3, -2, -5, -2, -1,2.9643362047471378,0.3460912897940736,0
1503515702000,+0.980,+0.174,-0.013,+0.092,+0.368,+0.063,-0.914,-1.250,-0.875,+0.562,-2, -1, -1, 0, -1, -1, -2, 0,2.9643362047471378,0.3460912897940736,0
1503515702016,+0.980,+0.174,-0.013,+0.092,+0.357,+0.066,-0.903,-1.188,-0.750,+0.438,-2, -1, -1, 1, 1, 2, 0, -4,2.9643362047471378,0.3460912897940736,0
1503515702039,+0.980,+0.174,-0.013,+0.092,+0.357,+0.067,-0.916,-1.625,-1.188,+0.438,2, -2, -2, -2, -1, -1, -3, 0,2.9643362047471378,0.3460912897940736,0
1503515702054,+0.980,+0.174,-0.013,+0.092,+0.357,+0.065,-0.914,-1.375,-0.812,+0.438,-2, 1, 1, 0, 0, -2, -3, 0,2.9643362047471378,0.3460912897940736,0
1503515702077,+0.980,+0.174,-0.013,+0.092,+0.356,+0.069,-0.902,-1.375,-0.188,+0.375,-3, -4, -1, -1, 0, -1, 0, -2,2.9643362047471378,0.3460912897940736,0
1503515702099,+0.980,+0.174,-0.013,+0.092,+0.355,+0.074,-0.908,-1.062,-0.188,+0.312,-1, 2, 1, -1, -1, -1, -3, -3,2.9643362047471378,0.3460912897940736,0
1503515702115,+0.980,+0.174,-0.013,+0.092,+0.360,+0.071,-0.912,-0.812,-0.188,+0.250,-1, 0, -1, -1, -1, -1, 0, 1,2.9643362047471378,0.3460912897940736,0
1503515702137,+0.980,+0.174,-0.013,+0.092,+0.355,+0.065,-0.917,-0.875,-0.688,+0.812,-3, -1, 1, 0, 0, 1, -1, -2,2.9643362047471378,0.3460912897940736,0
1503515702159,+0.980,+0.174,-0.013,+0.092,+0.354,+0.070,-0.910,-1.000,+0.125,+0.625,2, 1, 0, 1, -1, 0, -3, -3,2.9643362047471378,0.3460912897940736,0
1503515702174,+0.980,+0.174,-0.013,+0.092,+0.358,+0.065,-0.915,-1.062,-0.625,+0.812,-1, 1, 0, -1, 0, 1, 1, 3,2.9643362047471378,0.3460912897940736,0
1503515702197,+0.980,+0.174,-0.013,+0.092,+0.350,+0.071,-0.920,-0.875,+0.188,+0.500,-3, 0, -2, -1, 1, -2, -2, 1,2.9643362047471378,0.3460912897940736,0
1503515702219,+0.980,+0.174,-0.013,+0.092,+0.357,+0.060,-0.902,-0.750,+0.562,+0.375,1, -1, 0, -2, -4, -4, 2, -2,2.9643362047471378,0.3460912897940736,0
1503515702234,+0.980,+0.174,-0.013,+0.092,+0.356,+0.064,-0.909,-1.438,+0.188,+0.375,-1, -3, -2, -1, -2, -1, -2, -1,2.9643362047471378,0.3460912897940736,0
1503515702257,+0.980,+0.175,-0.013,+0.092,+0.364,+0.070,-0.910,-1.500,+0.938,+0.625,-2, -2, -2, -2, 1, -1, 2, -1,2.964485224790763,0.3481753663892265,0
1503515702279,+0.980,+0.175,-0.013,+0.092,+0.368,+0.072,-0.913,-1.438,-0.375,+0.938,0, 3, -2, 0, 0, 0, 2, 3,2.964485224790763,0.3481753663892265,0
1503515702302,+0.980,+0.175,-0.013,+0.092,+0.359,+0.066,-0.903,-1.312,-1.500,+0.938,-1, -3, -2, -1, -1, -2, -2, -2,2.964485224790763,0.3481753663892265,0
1503515702317,+0.980,+0.175,-0.013,+0.092,+0.351,+0.061,-0.913,-1.000,-0.125,+0.438,3, 3, 1, 0, -2, 0, 0, -2,2.964485224790763,0.3481753663892265,0
1503515702340,+0.980,+0.175,-0.013,+0.092,+0.360,+0.065,-0.921,-1.188,+0.250,+0.312,-2, -2, -2, 0, -1, -1, -4, -4,2.964485224790763,0.3481753663892265,0
1503515702360,+0.980,+0.175,-0.013,+0.092,+0.358,+0.067,-0.904,-1.312,+0.625,-0.062,1, 1, 0, -4, -1, 0, 2, -2,2.964485224790763,0.3481753663892265,0
1503515702376,+0.980,+0.175,-0.013,+0.092,+0.360,+0.073,-0.913,-1.500,-0.312,+0.312,-1, -1, -1, -1, -2, 1, 0, 2,2.964485224790763,0.3481753663892265,0
1503515702402,+0.980,+0.175,-0.013,+0.092,+0.360,+0.075,-0.909,-1.062,+0.062,+0.562,-3, 0, 0, -1, -1, -2, -1, 0,2.964485224790763,0.3481753663892265,0
1503515702421,+0.980,+0.175,-0.013,+0.092,+0.366,+0.071,-0.908,-0.562,-0.812,+0.688,0, 0, -2, 0, 1, -1, -2, -2,2.964485224790763,0.3481753663892265,0
1503515702437,+0.980,+0.175,-0.013,+0.092,+0.355,+0.060,-0.912,-0.750,-1.000,+0.875,-3, -1, 2, 0, -1, -1, 1, 2,2.964485224790763,0.3481753663892265,0
1503515702459,+0.980,+0.175,-0.013,+0.092,+0.362,+0.065,-0.916,-0.938,-0.562,+0.750,0, 0, -1, 1, 2, 0, -1, -4,2.964485224790763,0.3481753663892265,0
1503515702481,+0.980,+0.175,-0.013,+0.092,+0.357,+0.062,-0.917,-1.438,-0.938,+0.812,0, 1, 0, -1, -2, -2, -3, 1,2.964485224790763,0.3481753663892265,0
1503515702496,+0.980,+0.175,-0.013,+0.092,+0.355,+0.073,-0.914,-1.188,-0.125,+0.688,-3, -3, 0, 1, -1, 3, 6, -1,2.964485224790763,0.3481753663892265,0
1503515702519,+0.980,+0.175,-0.013,+0.092,+0.353,+0.071,-0.917,-0.875,-0.188,+0.750,-1, 0, -1, 0, -2, -2, -3, -1,2.964485224790763,0.3481753663892265,0
1503515702542,+0.980,+0.175,-0.013,+0.092,+0.354,+0.064,-0.912,-0.812,+0.062,+0.500,-3, -1, -1, -3, 1, 1, 4, 4,2.964485224790763,0.3481753663892265,0
1503515702556,+0.980,+0.175,-0.013,+0.092,+0.365,+0.059,-0.910,-1.125,-0.438,+0.625,2, 1, -2, -3, -1, -2, 1, -1,2.964485224790763,0.3481753663892265,0
1503515702579,+0.980,+0.175,-0.013,+0.092,+0.364,+0.063,-0.912,-1.438,-0.562,+0.812,-2, -3, -3, 0, -2, 0, 0, 1,2.964485224790763,0.3481753663892265,0
1503515702602,+0.980,+0.175,-0.013,+0.092,+0.359,+0.062,-0.909,-1.438,-1.062,+0.688,0, -2, 0, 1, 0, -1, -4, -3,2.964485224790763,0.3481753663892265,0
1503515702616,+0.980,+0.175,-0.013,+0.092,+0.352,+0.071,-0.916,-1.375,-1.375,+0.750,-1, -1, -1, -2, 0, -1, -3, -5,2.964485224790763,0.3481753663892265,0
1503515702639,+0.980,+0.174,-0.013,+0.092,+0.356,+0.066,-0.912,-1.125,-0.562,+0.500,-2, -2, -1, -1, 0, -1, -3, 1,2.9643362047471378,0.3460912897940736,0
1503515702661,+0.980,+0.174,-0.013,+0.092,+0.359,+0.062,-0.910,-1.375,-0.250,+0.438,1, 0, -1, -1, -3, 0, -1, 1,2.9643362047471378,0.3460912897940736,0
1503515702677,+0.980,+0.174,-0.013,+0.092,+0.356,+0.068,-0.917,-1.625,-0.812,+0.312,0, -1, -1, -1, -1, -2, 0, -2,2.9643362047471378,0.3460912897940736,0
1503515702699,+0.980,+0.174,-0.013,+0.092,+0.354,+0.072,-0.910,-1.625,-0.750,+0.750,-2, -1, -3, -1, -1, -1, -1, -4,2.9643362047471378,0.3460912897940736,0
1503515702721,+0.980,+0.174,-0.013,+0.092,+0.354,+0.071,-0.915,-1.312,-0.500,+0.250,-4, -3, 1, 2, 0, -2, 0, 1,2.9643362047471378,0.3460912897940736,0
1503515702736,+0.980,+0.174,-0.013,+0.092,+0.357,+0.070,-0.916,-1.375,-0.812,+0.562,-2, -3, -4, 0, 1, -1, 1, 2,2.9643362047471378,0.3460912897940736,0
1503515702759,+0.980,+0.174,-0.013,+0.092,+0.356,+0.063,-0.904,-1.125,-0.250,+0.812,2, 1, 1, -1, -1, -2, -3, -2,2.9643362047471378,0.3460912897940736,0
1503515702781,+0.980,+0.174,-0.013,+0.092,+0.362,+0.064,-0.918,-1.438,-0.625,+0.625,2, 0, 1, -1, 1, 0, 1, 2,2.9643362047471378,0.3460912897940736,0
1503515702797,+0.980,+0.174,-0.013,+0.092,+0.356,+0.064,-0.910,-1.125,-0.312,+0.500,-2, -4, 0, -1, -2, -1, 0, -1,2.9643362047471378,0.3460912897940736,0
1503515702819,+0.980,+0.174,-0.013,+0.092,+0.352,+0.068,-0.911,-1.312,-0.625,+0.438,-2, -2, -2, -1, -2, -2, -1, -3,2.9643362047471378,0.3460912897940736,0
1503515702841,+0.980,+0.174,-0.013,+0.092,+0.356,+0.065,-0.913,-1.438,-0.562,+0.812,1, 2, 0, -1, 0, 1, -4, -3,2.9643362047471378,0.3460912897940736,0
1503515702856,+0.980,+0.174,-0.013,+0.092,+0.355,+0.072,-0.902,-1.375,+0.000,+0.562,0, -1, -2, 0, -2, -2, -1, -1,2.9643362047471378,0.3460912897940736,0
1503515702879,+0.980,+0.174,-0.013,+0.092,+0.357,+0.072,-0.917,-1.562,-1.188,+0.938,-1, -2, -2, -3, -3, 0, -1, -1,2.9643362047471378,0.3460912897940736,0
1503515702903,+0.980,+0.174,-0.013,+0.092,+0.351,+0.070,-0.911,-0.875,+0.750,+0.688,3, -1, -2, 0, -1, 1, 2, 2,2.9643362047471378,0.3460912897940736,0
1503515702916,+0.980,+0.174,-0.013,+0.092,+0.352,+0.065,-0.911,-0.688,+0.688,+0.438,-1, -2, -3, 1, 0, -1, -4, -1,2.9643362047471378,0.3460912897940736,0
1503515702942,+0.980,+0.174,-0.013,+0.092,+0.354,+0.064,-0.914,-0.812,-0.062,+0.562,-3, -1, -2, -1, -1, -2, -1, 0,2.9643362047471378,0.3460912897940736,0
1503515702961,+0.980,+0.175,-0.013,+0.092,+0.356,+0.062,-0.900,-0.875,+1.375,+0.312,0, -2, -2, -1, -2, 1, -1, -3,2.964485224790763,0.3481753663892265,0
1503515702976,+0.980,+0.175,-0.013,+0.092,+0.363,+0.067,-0.919,-1.438,+0.438,+0.875,-1, 0, -1, 0, -1, 0, 3, -1,2.964485224790763,0.3481753663892265,0
1503515702999,+0.980,+0.175,-0.013,+0.092,+0.361,+0.073,-0.906,-1.438,+0.500,+0.812,1, 0, -4, -2, -2, -1, -7, -2,2.964485224790763,0.3481753663892265,0
1503515703021,+0.980,+0.175,-0.013,+0.092,+0.362,+0.070,-0.913,-1.125,+0.000,+0.625,-2, -3, 0, -1, 0, -3, 1, -1,2.964485224790763,0.3481753663892265,0
1503515703038,+0.980,+0.175,-0.013,+0.092,+0.355,+0.074,-0.905,-0.875,-0.625,+0.562,-1, -1, -2, 0, 0, 0, -2, -1,2.964485224790763,0.3481753663892265,0
1503515703059,+0.980,+0.175,-0.013,+0.092,+0.354,+0.066,-0.914,-0.812,+0.312,+0.688,-1, 0, 0, -2, 0, 1, -3, 0,2.964485224790763,0.3481753663892265,0
1503515703081,+0.980,+0.175,-0.013,+0.092,+0.358,+0.066,-0.912,-1.188,+0.812,+0.688,-1, -3, -2, -2, -1, -1, 0, 1,2.964485224790763,0.3481753663892265,0
1503515703096,+0.980,+0.175,-0.013,+0.092,+0.361,+0.069,-0.912,-1.125,+0.938,+0.625,0, -3, -1, 0, 1, -3, -1, -1,2.964485224790763,0.3481753663892265,0
1503515703119,+0.980,+0.175,-0.013,+0.092,+0.363,+0.074,-0.919,-1.125,+0.312,+0.812,-2, 2, 0, 2, 0, 1, -1, 0,2.964485224790763,0.3481753663892265,0
1503515703141,+0.980,+0.175,-0.013,+0.092,+0.352,+0.070,-0.908,-0.625,+0.812,+0.500,0, 0, -1, 0, -1, -1, 1, 0,2.964485224790763,0.3481753663892265,0
1503515703156,+0.980,+0.175,-0.013,+0.092,+0.359,+0.071,-0.915,-0.750,+0.500,+0.500,2, 1, -1, -1, -1, 0, 0, -2,2.964485224790763,0.3481753663892265,0
1503515703179,+0.980,+0.175,-0.013,+0.092,+0.363,+0.058,-0.908,-1.062,+0.375,+0.750,-3, 0, 0, -1, -1, -1, -2, -4,2.964485224790763,0.3481753663892265,0
1503515703201,+0.980,+0.175,-0.013,+0.092,+0.370,+0.065,-0.908,-1.188,+0.438,+0.688,1, 4, 2, 0, -2, -2, -1, 0,2.964485224790763,0.3481753663892265,0
1503515703216,+0.980,+0.175,-0.013,+0.092,+0.358,+0.073,-0.909,-1.375,-0.375,+0.750,-1, -2, -1, 0, 0, -1, 1, -1,2.964485224790763,0.3481753663892265,0
1503515703239,+0.980,+0.175,-0.013,+0.092,+0.354,+0.067,-0.917,-1.062,-0.250,+0.250,0, -3, -2, -2, -1, -1, -2, 1,2.964485224790763,0.3481753663892265,0
1503515703261,+0.980,+0.175,-0.013,+0.092,+0.354,+0.066,-0.909,-1.062,+0.312,+0.312,-1, -3, -2, -1, -1, 1, 0, 1,2.964485224790763,0.3481753663892265,0
1503515703276,+0.980,+0.175,-0.013,+0.092,+0.357,+0.066,-0.909,-1.062,+1.438,+0.000,0, -1, 0, -1, -2, -1, -1, -2,2.964485224790763,0.3481753663892265,0
1503515703298,+0.980,+0.175,-0.013,+0.092,+0.363,+0.066,-0.910,-1.062,+0.875,+0.250,0, 2, 1, -3, -1, -1, 0, -1,2.964485224790763,0.3481753663892265,0
1503515703320,+0.980,+0.175,-0.013,+0.092,+0.355,+0.069,-0.901,-1.062,+0.812,-0.062,1, 1, -1, 1, 0, 0, -2, -1,2.964485224790763,0.3481753663892265,0
1503515703335,+0.980,+0.175,-0.013,+0.092,+0.362,+0.069,-0.914,-1.188,+0.438,+0.375,1, 1, 0, -1, -1, 1, -1, 1,2.964485224790763,0.3481753663892265,0
1503515703358,+0.980,+0.176,-0.013,+0.092,+0.361,+0.064,-0.911,-0.938,+0.875,+0.375,0, -1, -1, -3, 0, 1, 1, -1,2.9646347463984286,0.3502607652408315,0
1503515703381,+0.980,+0.176,-0.013,+0.092,+0.361,+0.064,-0.912,-1.062,+0.438,-0.062,0, 1, 0, -2, -1, -1, -5, 0,2.9646347463984286,0.3502607652408315,0
1503515703395,+0.980,+0.176,-0.013,+0.092,+0.356,+0.067,-0.906,-1.188,+0.188,+0.188,-2, -1, -1, -1, 0, -1, 2, -1,2.9646347463984286,0.3502607652408315,0
1503515703418,+0.980,+0.176,-0.013,+0.093,+0.356,+0.070,-0.914,-1.125,+1.625,+0.000,1, 1, 1, 0, -1, 1, 0, 0,2.9627028207364736,0.35023630268380895,0
1503515703440,+0.980,+0.176,-0.013,+0.093,+0.356,+0.073,-0.909,-1.000,+2.188,+0.125,-2, -2, -1, -2, -3, -2, -1, -2,2.9627028207364736,0.35023630268380895,0
1503515703455,+0.980,+0.177,-0.013,+0.093,+0.359,+0.070,-0.907,-0.625,+2.438,+0.000,-1, 0, 0, 0, 0, -3, 0, 0,2.9628541234151036,0.3523230481481218,0
1503515703478,+0.980,+0.177,-0.013,+0.093,+0.366,+0.065,-0.908,-0.500,+2.688,+0.188,-3, -4, -2, -1, -1, -4, 1, -1,2.9628541234151036,0.3523230481481218,0
1503515703500,+0.980,+0.178,-0.013,+0.093,+0.361,+0.065,-0.902,-0.688,+3.000,+0.438,0, -2, 0, -1, -1, -4, 0, -1,2.9630059277776346,0.35441112670443864,0
1503515703517,+0.980,+0.178,-0.013,+0.093,+0.367,+0.076,-0.895,-1.188,+2.438,+1.562,0, 2, 0, 2, 2, 3, 1, 0,2.9630059277776346,0.35441112670443864,0
1503515703541,+0.979,+0.179,-0.013,+0.092,+0.374,+0.083,-0.897,-0.062,+6.750,+2.250,-1, 0, -1, -2, -2, -3, 0, 1,2.964577705342224,0.35618886895319934,0
1503515703560,+0.979,+0.181,-0.012,+0.093,+0.401,+0.051,-0.937,+1.812,+11.500,-0.750,-3, 0, 1, -2, -2, -5, -4, -1,2.96259545603856,0.36050079385000905,0
1503515703576,+0.979,+0.183,-0.012,+0.093,+0.409,+0.079,-0.923,+1.000,+7.312,-1.750,0, 0, -1, -5, -4, 0, 3, -1,2.962901987245767,0.36468540810135447,0
1503515703598,+0.979,+0.183,-0.011,+0.093,+0.344,+0.057,-0.898,+2.500,+2.875,-0.188,-2, -3, -5, -15, -7, -11, -29, -5,2.9625417588895364,0.3648430059977072,0
1503515703620,+0.979,+0.183,-0.010,+0.094,+0.332,+0.037,-0.896,+0.562,+2.875,-0.312,0, 0, -1, 2, 0, 6, 9, 0,2.9602555066707885,0.36498329052216216,0
1503515703635,+0.978,+0.185,-0.011,+0.093,+0.331,+0.075,-0.907,-3.438,+15.625,+1.562,-3, -1, 1, 0, 2, 0, 4, 0,2.9623326285180527,0.36868698439835923,0
1503515703658,+0.978,+0.188,-0.011,+0.093,+0.447,+0.080,-0.916,-1.562,+14.188,+0.750,0, -2, 0, 4, 3, -3, 0, 0,2.962796799594349,0.37497703390857035,0
1503515703681,+0.977,+0.190,-0.010,+0.093,+0.402,+0.077,-0.901,+0.062,+7.562,+3.312,1, 1, 0, 4, 0, 2, 5, 2,2.962221140600513,0.37898130762071347,0
1503515703703,+0.977,+0.191,-0.010,+0.093,+0.389,+0.062,-0.893,+1.750,+6.625,+1.625,1, -1, -1, 18, 7, -2, 2, -1,2.962377080282725,0.38108180176399703,0
1503515703718,+0.977,+0.192,-0.009,+0.093,+0.389,+0.030,-0.907,+0.812,+7.312,+0.062,2, 1, -1, -5, -2, -1, -1, -2,2.9621551944238673,0.3833422397541941,0
1503515703742,+0.977,+0.193,-0.008,+0.093,+0.372,+0.049,-0.900,+0.562,+7.000,-1.188,0, 4, 1, -4, -3, -1, -1, 2,2.961930450013866,0.38560512362420646,0
1503515703755,+0.977,+0.193,-0.008,+0.093,+0.363,+0.067,-0.904,-0.750,+6.000,+0.250,-2, -2, 0, 2, 1, 4, 1, -1,2.961930450013866,0.38560512362420646,0
1503515703778,+0.976,+0.194,-0.008,+0.093,+0.361,+0.062,-0.875,-1.688,+7.562,+0.750,1, 0, 1, -2, -4, 0, -2, -1,2.961568261619737,0.387349726227681,0
1503515703801,+0.976,+0.196,-0.009,+0.093,+0.392,+0.052,-0.896,-4.625,+9.562,+1.000,-2, -2, -1, -2, 1, 1, 2, 1,2.9622661374658104,0.39140039653606623,0
1503515703816,+0.976,+0.198,-0.010,+0.093,+0.453,+0.085,-0.902,-6.750,+8.125,+1.562,-13, -1, -1, -2, -1, -1, -2, -1,2.962972696677505,0.3954592303477217,0
1503515703838,+0.976,+0.199,-0.010,+0.092,+0.429,+0.087,-0.889,-2.750,+2.750,+4.688,-1, -3, -4, -3, -1, -1, -2, -3,2.9650546136789777,0.39758813827959233,0
1503515703860,+0.976,+0.199,-0.010,+0.091,+0.400,+0.073,-0.877,-3.000,+2.812,+3.625,1, -2, -1, -2, -2, -1, 1, 3,2.9669771338903113,0.39760660612040616,0
1503515703875,+0.975,+0.200,-0.011,+0.091,+0.417,+0.069,-0.879,-3.625,+5.375,+2.188,2, 2, -2, -5, -4, -2, 1, 2,2.9670309171284868,0.3991977815528816,0
1503515703898,+0.975,+0.201,-0.011,+0.091,+0.433,+0.078,-0.896,-3.000,+4.250,+1.125,0, -1, -2, 0, 0, -1, -1, -3,2.9671923268125635,0.401309838954013,0
1503515703920,+0.975,+0.202,-0.011,+0.091,+0.401,+0.065,-0.895,-2.312,+4.188,+0.938,-1, -1, 0, -1, -1, -1, -2, -3,2.9673541770847796,0.403423370147977,0
1503515703935,+0.975,+0.203,-0.012,+0.091,+0.395,+0.113,-0.904,-5.875,+7.188,-1.375,0, -2, -1, -5, -3, -2, -14, 0,2.9679168527624897,0.40538902015030037,0
1503515703958,+0.974,+0.205,-0.013,+0.091,+0.410,+0.100,-0.907,-4.875,+9.812,-0.062,1, 0, -2, -3, -2, -2, 2, 0,2.9681565257600147,0.40909980528178347,0
1503515703981,+0.974,+0.207,-0.014,+0.091,+0.440,+0.061,-0.888,-5.938,+16.125,-2.875,-1, -1, -1, 2, 0, 0, 0, -1,2.968901496518163,0.41319300331040804,0
1503515704003,+0.973,+0.211,-0.015,+0.093,+0.470,+0.058,-0.894,-12.375,+18.125,-9.812,0, 0, 0, -1, -2, -2, -1, -1,2.9656714452786757,0.42110570492969884,0
1503515704018,+0.972,+0.215,-0.018,+0.094,+0.438,+0.103,-0.942,-16.875,+21.375,-12.750,-1, 2, -3, -1, -1, 0, 0, 0,2.965243383911511,0.4287709394586073,0
1503515704043,+0.971,+0.219,-0.020,+0.096,+0.438,+0.067,-0.931,-12.688,+25.125,-9.562,5, -1, -1, -3, -2, 0, 5, 1,2.962529614449101,0.4365619452261245,0
1503515704063,+0.969,+0.225,-0.022,+0.096,+0.437,+0.107,-0.921,-13.438,+40.000,-5.812,-4, -3, 0, 3, 2, 0, 7, -2,2.963601567347123,0.44832594137820847,0
1503515704079,+0.967,+0.233,-0.023,+0.097,+0.501,+0.116,-0.919,-12.688,+45.750,-3.062,-1, 1, 1, 3, -1, -20, 1, 0,2.9628031749006634,0.4645259645790734,0
1503515704100,+0.965,+0.240,-0.025,+0.097,+0.494,+0.180,-0.849,-13.625,+42.188,-4.062,-1, -2, 0, -11, -8, 4, -5, 0,2.9642597323270135,0.4785423711737158,0
1503515704123,+0.964,+0.248,-0.027,+0.098,+0.479,+0.219,-0.837,-10.125,+44.188,+0.250,-2, -2, -4, -9, -6, 1, -4, -1,2.964620915754914,0.4951895385224161,0
1503515704138,+0.961,+0.255,-0.028,+0.098,+0.448,+0.263,-0.825,+0.750,+49.250,+1.188,-2, -1, -1, 6, 4, 2, 2, -3,2.9652852292762586,0.5090214309375436,0
1503515704160,+0.961,+0.259,-0.028,+0.098,+0.599,+0.190,-0.863,+4.000,+16.625,+7.188,-1, -2, -1, 1, -1, -1, -1, -6,2.9662303033461472,0.5177856183736895,0
1503515704183,+0.959,+0.264,-0.027,+0.098,+0.618,+0.246,-0.782,+9.688,+24.562,+3.875,1, 1, 1, 1, -1, 4, 0, 0,2.965942945761457,0.527978191726684,0
1503515704198,+0.958,+0.268,-0.024,+0.098,+0.547,+0.198,-0.840,+16.375,+27.938,+10.438,0, -1, 1, 0, 1, 0, -1, 0,2.964833181517395,0.5366831018047944,0
1503515704221,+0.956,+0.276,-0.020,+0.097,+0.575,+0.252,-0.772,+26.625,+46.750,+13.812,3, 1, -1, 10, 5, 5, 5, -2,2.965492871575486,0.5539597638114284,0
1503515704245,+0.953,+0.287,-0.013,+0.097,+0.665,+0.219,-0.824,+35.125,+64.438,+19.000,2, -2, -3, -3, 1, -1, -7, -3,2.962698287505308,0.5778887842363,0
1503515704258,+0.950,+0.299,-0.006,+0.095,+0.752,+0.208,-0.829,+39.188,+64.500,+23.625,0, 0, 4, 2, -2, 2, -1, 3,2.963669420128951,0.6042989487336465,0
1503515704282,+0.946,+0.310,+0.004,+0.093,+0.789,+0.216,-0.790,+50.750,+63.125,+32.438,-1, -2, -6, -26, -15, -5, 1, 2,2.9618527817695237,0.6286313811932602,0
1503515704305,+0.942,+0.322,+0.016,+0.091,+0.779,+0.204,-0.757,+66.688,+73.625,+41.250,-5, 1, 0, 9, 15, 1, 5, 0,2.9586015796355873,0.6558835094784325,0
1503515704320,+0.938,+0.335,+0.031,+0.087,+0.800,+0.125,-0.768,+75.500,+83.500,+51.312,-2, 0, -7, 6, -3, 0, -2, -1,2.9567786290419185,0.6864148627689357,0
1503515704340,+0.932,+0.350,+0.048,+0.081,+0.829,+0.054,-0.783,+79.812,+95.375,+63.375,-9, -3, 6, -1, 0, -2, 0, 2,2.9558390420561023,0.7215279417912274,0
1503515704363,+0.925,+0.366,+0.068,+0.073,+0.824,+0.062,-0.786,+85.562,+112.000,+78.688,28, 3, -27, -23, -6, -2, -7, 1,2.9550283849252144,0.7600026647348512,0
1503515704380,+0.917,+0.383,+0.090,+0.064,+0.823,+0.058,-0.750,+96.750,+124.375,+90.062,-7, 5, 33, 43, -1, -2, 0, 3,2.952805173018059,0.8021443925368748,0
1503515704401,+0.908,+0.400,+0.114,+0.054,+0.870,-0.043,-0.641,+105.750,+125.125,+98.750,-15, -3, -1, 20, 26, 1, -2, -7,2.9486882099784686,0.8461424566775931,0
1503515704416,+0.897,+0.417,+0.139,+0.043,+0.923,-0.178,-0.624,+111.938,+130.375,+104.312,-4, -5, -3, -18, -13, -1, -3, -5,2.942520936301127,0.8916279379550054,0
1503515704438,+0.885,+0.433,+0.166,+0.032,+0.900,-0.263,-0.608,+116.125,+126.875,+104.812,3, -3, -7, 1, -3, 1, 0, -9,2.9318591450300393,0.9379763043914416,0
1503515704460,+0.873,+0.448,+0.192,+0.022,+0.819,-0.298,-0.620,+119.562,+129.938,+104.000,0, 4, 4, 0, -8, -3, 0, -5,2.9180489091241295,0.9847576590733695,0
1503515704478,+0.858,+0.465,+0.218,+0.012,+0.781,-0.354,-0.503,+120.312,+136.250,+101.375,7, 1, 4, -3, 7, 2, 1, 8,2.899593855910419,1.0390279697227336,0
1503515704498,+0.842,+0.482,+0.243,+0.001,+0.797,-0.451,-0.393,+116.812,+150.438,+101.875,14, -10, -4, -15, -12, -2, -1, 2,2.8803742864961976,1.0962097056118514,0
1503515704521,+0.822,+0.502,+0.267,-0.012,+0.838,-0.536,-0.307,+108.625,+169.688,+98.375,-11, -11, -19, -2, 12, -1, -2, 1,2.8590322753570967,1.1633637658525655,0
1503515704536,+0.803,+0.521,+0.289,-0.023,+0.878,-0.584,-0.242,+99.812,+164.438,+92.125,-9, 4, 5, 7, -2, 0, 0, 0,2.8342887169242656,1.2320946086555398,0
1503515704558,+0.784,+0.537,+0.309,-0.035,+0.929,-0.604,-0.210,+92.812,+149.438,+88.875,-4, -5, -9, -16, -22, -5, -1, -2,2.8106005281209923,1.2948603312101088,0
1503515704581,+0.766,+0.551,+0.327,-0.046,+0.896,-0.606,-0.152,+84.750,+139.750,+87.250,-18, -2, -10, -1, 9, 1, -2, -5,2.786066502989472,1.3544224424743176,0
1503515704596,+0.747,+0.565,+0.345,-0.057,+0.853,-0.612,-0.066,+79.500,+136.750,+84.062,3, -8, 0, -8, -5, -2, -1, 0,2.757771611562839,1.4185261137912955,0
1503515704618,+0.730,+0.577,+0.361,-0.068,+0.858,-0.656,-0.043,+72.188,+127.250,+84.375,-2, -14, -19, -6, -2, -4, -1, -3,2.7323831543240567,1.4784119083912552,0
1503515704640,+0.714,+0.585,+0.377,-0.079,+0.777,-0.679,-0.093,+68.500,+109.438,+90.000,-22, -35, -1, -4, -1, 0, -3, -3,2.705286213571243,1.5304837682923427,0
1503515704656,+0.699,+0.590,+0.392,-0.090,+0.605,-0.670,-0.102,+68.938,+94.812,+85.938,-4, 15, 7, -7, -7, -2, -3, -5,2.677898713753592,1.575473724868999,0
1503515704680,+0.685,+0.595,+0.408,-0.100,+0.579,-0.706,+0.036,+62.438,+85.250,+83.750,16, 56, 26, 10, 3, 3, 0, 2,2.647166230107335,1.6266009126155647,0
1503515704700,+0.671,+0.600,+0.421,-0.114,+0.576,-0.726,+0.113,+46.000,+93.688,+89.625,-2, -17, -6, 3, 6, -1, -1, -1,2.6253052529334595,1.6754335413725152,0
1503515704716,+0.655,+0.605,+0.434,-0.128,+0.440,-0.666,+0.063,+40.562,+102.062,+96.062,-4, -18, -8, -6, -5, -3, -1, -3,2.5969473502110185,1.7290661546415045,0
1503515704738,+0.639,+0.609,+0.446,-0.145,+0.429,-0.692,-0.006,+33.562,+109.062,+106.125,12, 43, 5, 2, 10, 0, 1, -1,2.5715944346475905,1.7826714153888092,0
1503515704760,+0.625,+0.612,+0.457,-0.162,+0.449,-0.740,+0.098,+22.938,+100.312,+97.062,-22, -20, -11, -5, -9, -4, -1, -6,2.549282451129592,1.8348319853945267,0
1503515704783,+0.612,+0.614,+0.465,-0.178,+0.365,-0.719,+0.189,+12.000,+86.375,+85.562,6, 18, -16, -10, -29, -5, 1, -1,2.5295445232596605,1.8788316393468012,0
1503515704797,+0.602,+0.612,+0.475,-0.192,+0.314,-0.659,+0.085,+11.000,+59.500,+92.438,4, -15, 9, 7, -1, -2, -1, 1,2.5051376016689697,1.9175277058296942,0
1503515704821,+0.595,+0.606,+0.485,-0.207,+0.259,-0.709,+0.118,+1.688,+33.875,+98.562,-5, 15, -4, -2, 13, 2, -2, 2,2.4843535638435537,1.945960069106528,0
1503515704843,+0.590,+0.599,+0.494,-0.221,+0.141,-0.713,+0.122,-5.312,+24.188,+96.312,13, 39, 18, 0, 9, 1, -2, -1,2.4668658575636533,1.969321518114947,0
1503515704858,+0.585,+0.590,+0.503,-0.236,+0.041,-0.705,+0.107,-16.625,+13.875,+91.375,-18, -19, 13, -1, -3, -5, -2, -6,2.4465262968055326,1.9907455874552458,0
1503515704881,+0.584,+0.579,+0.511,-0.250,+0.050,-0.716,+0.087,-26.125,-2.688,+89.438,1, 6, 11, 7, 14, 4, -1, 5,2.437044092205601,2.000303582609461,0
1503515704903,+0.585,+0.566,+0.518,-0.263,+0.065,-0.828,+0.129,-39.250,-22.062,+86.562,-8, 42, 30, 11, -1, -4, -5, -7,2.4330448996465193,1.9978490169169858,0
1503515704918,+0.591,+0.550,+0.523,-0.274,+0.013,-0.903,+0.160,-55.375,-55.188,+73.375,-19, -59, -33, -24, -1, 5, 4, 0,2.449848652733227,1.966996203680747,0
1503515704940,+0.598,+0.531,+0.529,-0.285,-0.089,-0.886,+0.084,-67.250,-68.500,+71.938,3, 20, -5, 5, 13, -1, -3, -3,2.4720416224856594,1.925682416153551,0
1503515704963,+0.607,+0.512,+0.531,-0.295,-0.109,-0.907,+0.124,-85.938,-67.250,+59.812,-5, -9, -10, -10, -16, 7, -4, -8,2.5237492242648556,1.8494875267808542,0
1503515704985,+0.621,+0.493,+0.529,-0.301,+0.064,-0.960,+0.144,-100.875,-93.375,+32.500,-8, 35, 11, 1, 8, -8, -3, 2,2.6204638180532767,1.7253487182493927,0
1503515705000,+0.643,+0.472,+0.526,-0.297,+0.224,-1.060,+0.020,-105.438,-147.000,+2.000,3, -96, -49, -12, 0, 0, -3, -4,2.743446007711054,1.5671297082467393,0
1503515705023,+0.669,+0.446,+0.521,-0.287,+0.115,-1.129,+0.002,-118.562,-191.375,-19.062,-23, -81, 6, -5, -44, -17, 6, 13,2.8727071722096555,1.3742174329563217,0
1503515705038,+0.694,+0.421,+0.512,-0.279,-0.166,-1.124,-0.057,-135.000,-172.938,-29.375,19, 47, -6, -9, -28, -18, 0, 5,3.0044527860094465,1.1851935496794872,0
1503515705060,+0.715,+0.412,+0.497,-0.269,-0.252,-1.061,+0.273,-119.812,-95.875,-93.312,0, 71, 63, 2, -13, 44, -5, -6,3.0730200655972513,1.0933058754485392,0
1503515705083,+0.744,+0.416,+0.473,-0.222,+0.215,-0.782,-0.138,-70.750,-153.375,-321.750,29, 50, 17, 53, 127, 53, 5, -4,3.003028623267171,1.1033768526099679,0
1503515705099,+0.768,+0.390,+0.462,-0.211,+1.824,-0.977,+0.385,-120.875,-189.500,-27.625,-9, 24, -3, -26, -56, -100, -22, -14,3.066783364095125,0.983602841885515,0
1503515705120,+0.793,+0.357,+0.442,-0.220,-0.748,-1.387,+0.182,-234.562,-152.812,+31.500,-1, -5, 82, 22, 33, 127, 11, 113,-3.076658204448194,0.8092857763033035,0
1503515705143,+0.821,+0.356,+0.407,-0.183,+0.029,-0.146,-1.262,-142.750,-107.688,-283.125,-28, -54, -43, -18, 54, 19, 15, -3,-3.1238039411295286,0.8093234531549413,0
1503515705158,+0.829,+0.372,+0.381,-0.170,+0.567,-0.309,-0.288,-97.188,+57.062,-159.000,19, -15, -23, -53, -123, -128, -49, -72,3.1391297027158696,0.8443703358287957,0
1503515705182,+0.837,+0.385,+0.357,-0.151,+1.082,-0.534,-0.386,-78.875,+25.250,-171.812,18, -9, -13, 31, 61, 71, 25, 14,3.1098997420607755,0.8744963629594301,0
1503515705203,+0.849,+0.392,+0.335,-0.119,+1.021,-0.766,-0.251,-58.875,-49.000,-228.875,1, -44, -49, -8, -2, 23, 11, -7,3.0608823007429273,0.8965622231004836,0
1503515705219,+0.860,+0.392,+0.312,-0.091,+0.621,-0.802,-0.252,-75.062,-64.562,-202.875,9, 21, 9, 6, -21, -12, -2, -6,3.0300614072660497,0.8920988890925291,0
1503515705240,+0.870,+0.398,+0.285,-0.059,+0.535,-0.100,-0.758,-77.312,-34.938,-231.625,-22, -37, -27, -9, -17, -15, -3, -7,2.99316335419944,0.9019782322214881,0
1503515705263,+0.872,+0.412,+0.262,-0.034,+0.368,+0.209,-0.755,-46.688,+39.188,-202.250,-19, 1, 1, 8, 15, 0, 2, -4,2.961534571148778,0.9294084127373646,0
1503515705278,+0.865,+0.437,+0.245,-0.017,+0.667,+0.051,-0.401,-25.188,+122.938,-158.250,6, -15, -10, 2, 8, 5, 8, 9,2.9343185951572277,0.9832024832861118,0
1503515705300,+0.854,+0.466,+0.233,+0.002,+1.093,-0.183,-0.178,+0.062,+143.000,-161.312,-2, 42, 5, -11, -36, -13, -4, -13,2.899423851782567,1.049985451163121,0
1503515705323,+0.843,+0.489,+0.225,+0.018,+1.185,-0.251,-0.543,+22.250,+121.938,-134.625,5, -7, -1, 5, 10, 6, -2, -3,2.8701032581694257,1.1030914255757693,0
1503515705339,+0.839,+0.498,+0.214,+0.041,+1.045,-0.145,-0.403,+16.562,+22.500,-152.312,-1, -16, -10, -3, -3, -3, 3, 6,2.83922305454522,1.1205480547684983,0
1503515705360,+0.836,+0.505,+0.205,+0.061,+1.055,-0.144,-0.318,+16.312,+16.062,-126.312,8, -5, 0, 2, 2, 0, 3, 10,2.8134832178487827,1.1339859389589628,0
1503515705383,+0.828,+0.518,+0.201,+0.073,+1.059,-0.218,-0.294,+15.125,+60.438,-86.438,-5, -7, -3, 2, 7, 4, -4, -9,2.7937860405056654,1.1636772261948387,0
1503515705399,+0.820,+0.532,+0.196,+0.079,+1.074,-0.228,-0.136,-4.125,+69.562,-61.375,-9, -18, -4, 0, 4, 0, 4, -7,2.786160325274815,1.1943606681732164,0
1503515705421,+0.815,+0.541,+0.191,+0.081,+1.190,-0.158,-0.154,-17.000,+37.062,-31.625,2, -9, -3, -1, -1, 0, -5, -7,2.7866530729839445,1.2126150499667907,0
1503515705443,+0.812,+0.548,+0.184,+0.087,+1.118,-0.080,-0.366,-9.812,+35.125,-44.562,0, 6, 5, 0, -2, -1, 1, 1,2.7845244293246854,1.2254601489057975,0
1503515705459,+0.809,+0.553,+0.176,+0.099,+0.953,-0.017,-0.348,-0.375,+19.625,-81.000,-6, -5, -4, 0, 2, -2, -2, -10,2.7736915461140383,1.2330971293222077,0
1503515705480,+0.803,+0.561,+0.170,+0.106,+0.942,-0.072,-0.284,+2.500,+46.500,-59.688,0, -1, 1, 1, 0, 1, 0, 0,2.7673375444276296,1.248639853430199,0
1503515705503,+0.795,+0.573,+0.168,+0.107,+0.981,-0.101,-0.202,-7.125,+82.000,-25.250,3, 6, 2, 1, 1, -1, -1, 2,2.7663642833943927,1.276641420152106,0
1503515705519,+0.784,+0.589,+0.168,+0.104,+1.019,-0.072,-0.150,-14.312,+110.750,-6.938,0, 0, -4, 0, 1, 1, 2, -2,2.7688474840062076,1.3159386943948956,0
1503515705540,+0.770,+0.607,+0.169,+0.100,+1.101,-0.051,-0.173,-4.375,+134.750,-4.812,2, -16, 0, 0, -1, 1, 3, -1,2.7703822680232006,1.3612560962036087,0
1503515705563,+0.754,+0.627,+0.170,+0.101,+1.143,-0.069,-0.252,+14.375,+147.312,-26.125,4, -6, -4, 1, 6, 2, -1, 9,2.7646655533602367,1.4129720301973987,0
1503515705579,+0.738,+0.644,+0.173,+0.106,+1.156,-0.099,-0.191,+34.062,+132.500,-39.750,-2, 0, -5, -2, -4, -2, 4, -8,2.7500859653959893,1.4591597436868111,0
1503515705600,+0.726,+0.655,+0.176,+0.114,+1.214,-0.177,-0.121,+47.750,+89.688,-44.625,-2, 3, -1, -2, -2, -1, 1, -2,2.7319462779690133,1.4902616814472236,0
1503515705623,+0.720,+0.659,+0.180,+0.124,+1.306,-0.234,-0.083,+54.438,+39.375,-44.000,-8, -11, -4, -5, -2, 0, -12, -3,2.711061702114354,1.5038293824404805,0
1503515705639,+0.716,+0.661,+0.181,+0.134,+1.155,-0.235,-0.091,+49.188,+17.438,-51.562,-4, 4, -5, -3, -5, 0, 1, 0,2.694455929495392,1.5099345565270512,0
1503515705660,+0.713,+0.661,+0.182,+0.145,+0.954,-0.161,-0.074,+43.500,+6.625,-52.125,12, 0, 4, 1, -2, 0, -2, 0,2.6760747589482228,1.5106799360237753,0
1503515705684,+0.709,+0.663,+0.184,+0.154,+0.906,-0.072,-0.081,+47.688,+21.188,-39.812,5, -1, -2, -3, 1, -2, -1, -3,2.6599256663929842,1.51752646657009,0
1503515705699,+0.700,+0.669,+0.188,+0.162,+0.987,-0.082,-0.023,+53.188,+53.812,-31.438,-3, -4, 0, 1, 0, -3, 10, 2,2.6413615178534604,1.5365344625897772,0
1503515705720,+0.690,+0.676,+0.194,+0.169,+1.046,-0.106,+0.054,+49.062,+66.000,-26.188,2, 48, 45, 10, 1, -3, -11, -4,2.6219558056487213,1.5600040387089362,0
1503515705743,+0.682,+0.682,+0.199,+0.173,+1.043,-0.112,+0.080,+40.125,+56.938,-20.250,-9, -10, -11, -4, -3, -1, 11, 0,2.608803950914198,1.5802545384753355,0
1503515705760,+0.676,+0.687,+0.201,+0.177,+0.991,-0.039,+0.098,+27.812,+38.000,-16.062,-7, -11, -11, -1, -3, 0, 6, -2,2.6005357178430826,1.5955318250892927,0
1503515705780,+0.672,+0.689,+0.202,+0.183,+1.012,+0.042,+0.118,+29.000,+14.188,-23.125,-3, -3, -4, 0, 4, 11, -2, 3,2.5902568145415397,1.6018379672308665,0
1503515705802,+0.668,+0.691,+0.201,+0.191,+0.971,+0.040,+0.105,+31.000,+10.500,-39.375,3, -16, -2, -3, -1, -2, -6, 0,2.580175281036919,1.6065465905736678,0
1503515705819,+0.665,+0.691,+0.199,+0.199,+0.930,+0.033,+0.080,+23.750,-0.188,-42.875,2, -9, -4, -6, -7, -2, 5, -1,2.570199541133832,1.605007482526755,0
1503515705840,+0.664,+0.691,+0.197,+0.204,+0.922,+0.046,+0.046,+11.500,-2.625,-28.375,-3, -2, -1, -5, -4, -2, -2, -6,2.5658260165155538,1.603429243724707,0
1503515705862,+0.662,+0.693,+0.196,+0.207,+0.921,+0.114,+0.043,+5.625,+12.188,-10.938,29, 18, 5, 8, 3, 2, 8, 5,2.5638050896576403,1.6081584226180023,0
1503515705878,+0.660,+0.695,+0.196,+0.208,+0.976,+0.100,+0.074,+4.188,+16.000,-4.688,1, 1, -5, -4, -3, 0, -5, -14,2.5628804989563756,1.6136976621287822,0
1503515705900,+0.658,+0.696,+0.196,+0.210,+1.049,+0.033,+0.071,+6.125,+13.812,-12.688,-3, 2, 12, 3, 2, -5, 4, 3,2.55968102289608,1.6165082377604674,0
1503515705923,+0.659,+0.695,+0.193,+0.212,+1.047,+0.040,+0.053,-1.250,-13.188,-19.750,-5, -1, -8, -6, -5, -1, -2, -1,2.56085985468818,1.6114096740616295,0
1503515705938,+0.662,+0.693,+0.189,+0.215,+0.996,+0.081,+0.043,-3.875,-28.438,-19.500,-4, -7, -3, -6, -11, -3, -2, -1,2.5630593115851394,1.6027637430224135,0
1503515705960,+0.664,+0.691,+0.185,+0.218,+0.960,+0.087,+0.030,-5.562,-18.562,-17.500,-8, -1, 3, 1, 4, 1, 3, -9,2.564139537716304,1.5942437091274628,0
1503515705983,+0.664,+0.691,+0.182,+0.219,+0.983,+0.109,+0.039,-6.812,-3.250,-12.562,-2, 24, 11, 1, -1, 1, -5, -1,2.566507366557974,1.5920591791675456,0
1503515705998,+0.663,+0.692,+0.181,+0.220,+1.010,+0.108,+0.058,-2.125,+7.500,-10.625,-3, -29, -19, -5, 1, -1, -2, 0,2.5666795382710106,1.5941066384626554,0
1503515706020,+0.661,+0.694,+0.179,+0.222,+0.999,+0.109,+0.077,-2.688,+5.812,-18.375,6, 23, 14, 5, -1, 1, -6, 5,2.5670571406725395,1.5982272945762577,0
1503515706043,+0.660,+0.695,+0.175,+0.224,+1.022,+0.134,+0.056,-7.625,+4.750,-20.375,-3, -17, -10, -2, 0, 0, 0, -4,2.5696656205634327,1.5982046051768337,0
1503515706059,+0.659,+0.697,+0.172,+0.225,+1.052,+0.158,+0.067,-9.438,+4.875,-11.438,0, -1, -4, 3, 7, 3, -1, -5,2.573460104353345,1.6016947011140765,0
1503515706080,+0.659,+0.697,+0.171,+0.225,+1.069,+0.160,+0.068,-5.938,+4.438,-0.875,-5, -4, -2, -2, -4, -3, 3, 1,2.5746398183417485,1.6010202671547722,0
1503515706103,+0.659,+0.698,+0.171,+0.225,+1.035,+0.126,+0.071,-5.250,+0.875,+1.375,-4, 12, 0, -3, 1, -1, 1, -2,2.5758514896932403,1.603776177254016,0
1503515706120,+0.660,+0.696,+0.169,+0.225,+1.009,+0.121,+0.097,-5.562,-15.062,-2.938,-12, -14, -5, -4, -3, -2, -6, 0,2.5768297937787565,1.59688086225526,0
1503515706140,+0.661,+0.695,+0.167,+0.226,+1.026,+0.118,+0.086,-3.438,-16.562,-7.312,-1, -3, -5, -2, -1, -3, -9, 1,2.577898673179879,1.592746507765731,0
1503515706163,+0.662,+0.695,+0.165,+0.226,+1.001,+0.133,+0.095,-7.562,-8.688,-5.500,1, -5, 1, 1, -2, -1, 0, 0,2.581298604164157,1.5914013960550237,0
1503515706179,+0.661,+0.697,+0.165,+0.224,+1.001,+0.132,+0.074,-11.625,+14.625,+6.062,0, 3, 1, -1, -2, -1, -1, 0,2.5849302405872443,1.5969800186722065,0
1503515706201,+0.658,+0.700,+0.167,+0.221,+1.073,+0.133,+0.096,-10.812,+26.062,+14.500,-5, -11, -3, 0, -1, -1, 2, 5,2.586459768053814,1.6067381251141162,0
1503515706225,+0.658,+0.701,+0.167,+0.219,+1.128,+0.151,+0.090,-7.125,+9.312,+13.438,9, 6, 1, -3, -2, -2, -2, -10,2.589901252908825,1.6095250411434558,0
1503515706239,+0.660,+0.698,+0.167,+0.219,+1.110,+0.128,+0.037,-3.438,-18.438,+10.688,5, 39, 18, 7, 3, 1, 7, 2,2.588362784092561,1.6011397687667561,0
1503515706268,+0.664,+0.695,+0.168,+0.218,+1.036,+0.105,+0.016,-1.625,-26.812,+12.250,-5, -19, -5, -3, -2, -3, -5, -3,2.588847585371223,1.5933761257475507,0
1503515706283,+0.667,+0.692,+0.170,+0.217,+0.971,+0.073,+0.018,+5.375,-14.250,+20.250,0, -6, 1, 2, -1, 0, 0, -2,2.5871901107019206,1.5863712287900467,0
1503515706299,+0.667,+0.691,+0.175,+0.216,+0.981,+0.030,+0.042,+14.125,+3.312,+27.125,3, 6, -1, -2, -1, 1, 1, 1,2.581265853780152,1.5870492543911023,0
1503515706322,+0.667,+0.691,+0.182,+0.213,+1.038,-0.016,+0.057,+17.375,+13.562,+29.562,0, -8, -2, 1, 3, 0, -2, -3,2.5764624468645323,1.592017445858781,0
1503515706342,+0.666,+0.690,+0.188,+0.212,+1.011,-0.032,+0.023,+19.125,+13.562,+26.125,0, 13, 10, 3, 0, -1, -1, -6,2.5683469297151906,1.5937079989764584,0
1503515706359,+0.666,+0.688,+0.195,+0.212,+0.949,-0.046,-0.012,+24.500,+2.188,+24.125,21, -4, -13, -5, -1, 0, 2, 5,2.5578888926654115,1.593550972478144,0
1503515706381,+0.668,+0.684,+0.202,+0.212,+0.922,-0.063,-0.016,+31.188,-9.000,+25.438,-8, 0, 0, -1, 0, 0, 0, 0,2.547378591295107,1.5881237422538512,0
1503515706402,+0.670,+0.680,+0.209,+0.213,+0.907,-0.073,+0.012,+33.000,-12.938,+26.812,-7, -4, -6, -3, -2, 0, -1, -4,2.5359101961783264,1.5829548823822415,0
1503515706420,+0.671,+0.676,+0.216,+0.214,+0.895,-0.069,+0.053,+34.125,-9.688,+24.750,0, -4, -4, -2, -4, -2, 0, -1,2.5233938471804445,1.57806281487928,0
1503515706441,+0.670,+0.674,+0.223,+0.216,+0.877,-0.060,+0.042,+36.500,+0.625,+18.938,11, -4, -7, -3, -1, 1, -2, 4,2.5098775126104753,1.5788101943104567,0
1503515706463,+0.670,+0.672,+0.228,+0.219,+0.861,-0.039,-0.010,+36.062,+0.438,+11.688,-5, -6, -1, 1, -1, -3, 1, 6,2.498758271588315,1.5779297518560202,0
1503515706489,+0.669,+0.669,+0.234,+0.222,+0.867,+0.006,-0.032,+39.188,+2.000,+14.000,-1, -1, 3, 1, -2, -1, -4, -4,2.4841122977602796,1.5754348485883807,0
1503515706501,+0.669,+0.666,+0.240,+0.226,+0.891,+0.014,-0.005,+40.938,-6.938,+15.562,-5, -4, -1, -2, -3, -2, -9, -4,2.4697575815433472,1.5731092756069456,0
1503515706523,+0.669,+0.663,+0.246,+0.229,+0.948,+0.010,+0.064,+39.375,-14.375,+15.688,-9, -28, -11, -3, -1, 0, 1, 0,2.456550111875471,1.5709663672628895,0
1503515706539,+0.670,+0.659,+0.251,+0.233,+0.952,+0.016,+0.054,+36.125,-16.438,+14.000,-4, -28, -13, -3, -2, -2, 5, -6,2.4434732593378805,1.5653605216668705,0
1503515706561,+0.671,+0.655,+0.254,+0.236,+0.883,+0.037,+0.003,+30.812,-16.625,+11.688,-8, 9, 7, 2, 2, 0, -1, -3,2.4335125210866315,1.5578647963249588,0
1503515706583,+0.673,+0.650,+0.258,+0.240,+0.880,+0.018,-0.056,+31.375,-23.688,+16.750,-2, 0, 0, -2, -1, 1, 2, 0,2.421678059372984,1.5489002332580641,0
1503515706599,+0.677,+0.644,+0.262,+0.244,+0.942,+0.024,-0.018,+31.750,-36.938,+15.938,5, 10, 0, 1, 1, -2, 3, 1,2.4115128908759527,1.5375629818578733,0
1503515706621,+0.680,+0.637,+0.264,+0.248,+1.001,+0.011,+0.044,+29.312,-44.000,+7.750,-6, 9, 8, 3, 0, -1, -1, -6,2.400650319926676,1.5216313550487817,0
1503515706643,+0.683,+0.632,+0.266,+0.253,+1.006,-0.016,+0.015,+28.562,-41.250,+0.000,0, 18, 13, 2, 1, 0, 0, -1,2.391552061972254,1.5111023036556264,0
1503515706659,+0.684,+0.627,+0.267,+0.258,+0.938,+0.009,-0.032,+25.062,-29.688,-1.688,-5, -10, -9, -4, -1, 2, 4, 3,2.380455334280105,1.4994326095486206,0
1503515706681,+0.686,+0.623,+0.267,+0.263,+0.947,+0.035,-0.068,+22.812,-29.375,-2.312,0, -2, -2, -4, -2, -1, -3, -3,2.37315426915465,1.4894207960175316,0
1503515706703,+0.688,+0.619,+0.268,+0.268,+1.008,+0.070,-0.016,+26.062,-29.188,-2.250,2, 1, -7, -2, -1, 0, -1, 1,2.365007458754949,1.4805949813845245,0
1503515706719,+0.688,+0.616,+0.269,+0.275,+1.082,+0.048,-0.006,+30.125,-27.625,-15.312,-5, -25, -12, -4, -1, -1, 0, -2,2.3532215045922054,1.4743017501419313,0
1503515706741,+0.688,+0.613,+0.267,+0.282,+1.066,+0.042,-0.010,+24.562,-29.812,-26.250,0, -3, -2, -1, 0, -4, 1, -5,2.3440643551198357,1.4646814318640835,0
1503515706763,+0.688,+0.611,+0.266,+0.288,+0.996,+0.108,-0.068,+14.938,-16.938,-15.938,0, 3, 6, 1, -1, -2, 1, -3,2.3363974063242385,1.4587411357643214,0
1503515706779,+0.685,+0.613,+0.265,+0.290,+0.990,+0.179,-0.026,+11.000,+6.438,-5.188,0, -7, -1, 0, 1, 0, -4, 0,2.3333953669421486,1.4625040670965683,0
1503515706801,+0.682,+0.615,+0.266,+0.292,+1.103,+0.194,+0.084,+11.312,+9.875,-0.500,2, -11, -5, -5, -2, -1, -3, -1,2.328747105393117,1.4685215674276912,0
1503515706823,+0.679,+0.617,+0.268,+0.294,+1.191,+0.139,+0.018,+14.375,+7.062,+2.438,-4, -7, -4, 0, -1, -2, -3, 2,2.3233046918046707,1.4756780392582425,0
1503515706839,+0.679,+0.617,+0.266,+0.296,+1.083,+0.127,+0.013,+0.812,-4.125,-5.312,-10, -5, -1, 0, 1, 0, 1, 3,2.323135218476851,1.4735412352529627,0
1503515706861,+0.679,+0.618,+0.264,+0.295,+1.048,+0.162,-0.002,-15.812,-5.250,+5.125,-2, 3, 0, 0, -1, 0, -5, -3,2.327194466017491,1.4738553022089846,0
1503515706882,+0.681,+0.618,+0.263,+0.292,+1.112,+0.147,-0.032,-18.812,-5.562,+23.438,2, 2, 1, 1, -1, 0, 0, -2,2.3339924481337784,1.4728357794039786,0
1503515706899,+0.683,+0.617,+0.262,+0.289,+1.112,+0.081,-0.037,-16.812,-10.688,+17.438,0, -1, -5, -3, -3, -2, -2, -2,2.3393981644122372,1.4692278196214363,0
1503515706921,+0.688,+0.614,+0.259,+0.286,+1.042,+0.001,-0.094,-24.562,-33.750,+13.438,6, 39, 41, 6, 3, 1, 5, 1,2.3484708972924113,1.4586359495926329,0
1503515706942,+0.695,+0.611,+0.253,+0.283,+0.984,+0.016,-0.092,-40.938,-39.562,+11.188,-2, -13, -14, -2, -3, -3, -4, -5,2.3633705958563147,1.4451726794323492,0
1503515706959,+0.699,+0.610,+0.248,+0.279,+0.967,+0.063,-0.052,-42.938,-23.812,+11.562,0, -12, 0, 2, 1, 1, -2, -2,2.3765593678721704,1.4376135930868312,0
1503515706981,+0.702,+0.610,+0.245,+0.274,+1.000,+0.012,-0.061,-34.812,-10.000,+15.125,5, -5, -5, -3, -1, -1, 0, 0,2.3888783822065123,1.4346200416712251,0
1503515707002,+0.705,+0.610,+0.242,+0.268,+1.025,-0.038,-0.088,-37.625,-9.375,+17.812,-5, -8, -7, 1, -1, -2, -2, -2,2.4023084271779744,1.431602964128774,0
1503515707019,+0.710,+0.609,+0.238,+0.262,+1.008,-0.027,-0.138,-45.312,-16.375,+14.125,-9, -11, -25, -3, -3, -2, -3, -6,2.4184687561789207,1.4253415728380414,0
1503515707041,+0.716,+0.606,+0.232,+0.257,+0.918,+0.020,-0.152,-46.375,-31.250,+16.188,4, 2, 2, 1, 0, -1, -2, 4,2.434512767058897,1.4121869007868006,0
1503515707063,+0.722,+0.603,+0.228,+0.252,+0.861,+0.015,-0.146,-43.062,-27.875,+24.125,-3, -6, 4, -1, -2, 0, 2, -2,2.448875878298263,1.4011693886697736,0
1503515707079,+0.726,+0.602,+0.225,+0.244,+0.873,-0.040,-0.125,-43.688,-16.125,+33.062,-2, -6, -1, -2, 0, 0, 0, 2,2.4652724901193905,1.3958167332946305,0
1503515707101,+0.732,+0.600,+0.223,+0.234,+0.928,-0.124,-0.109,-46.938,-17.188,+38.812,-4, 5, 11, -3, -1, 0, 1, 1,2.484932724434305,1.3891137083378782,0
1503515707125,+0.736,+0.599,+0.221,+0.224,+0.953,-0.183,-0.068,-54.500,-11.688,+36.188,-1, 4, 4, 1, 0, 1, 0, -1,2.5031117194318973,1.384632910897513,0
1503515707139,+0.740,+0.599,+0.219,+0.212,+1.004,-0.189,-0.101,-60.250,-5.938,+34.438,2, 22, 8, -3, 1, -2, -3, 1,2.524978529150478,1.382645577092275,0
1503515707163,+0.746,+0.597,+0.215,+0.203,+0.947,-0.169,-0.194,-58.688,-19.125,+32.125,-4, -9, -4, -1, 0, 0, 0, -5,2.546067230772719,1.3742570439319797,0
1503515707183,+0.753,+0.592,+0.211,+0.194,+0.937,-0.257,-0.207,-51.188,-37.188,+31.500,5, 6, -2, -1, -1, 0, 1, -1,2.565829694218953,1.3582890484898484,0
1503515707199,+0.760,+0.587,+0.210,+0.185,+0.952,-0.327,-0.137,-45.625,-39.500,+32.625,1, -4, -8, -2, 1, -1, -3, 1,2.5829688529797656,1.3451433518517548,0
1503515707221,+0.765,+0.583,+0.209,+0.176,+0.949,-0.332,-0.172,-39.750,-28.062,+27.562,-7, -7, -3, -1, -1, -1, 2, 8,2.5987230981013396,1.3341489076605488,0
1503515707243,+0.769,+0.580,+0.207,+0.170,+0.909,-0.233,-0.240,-35.438,-18.812,+19.188,24, 3, 1, 1, 0, 1, 0, 2,2.611318507230821,1.3249406557324028,0
1503515707261,+0.774,+0.577,+0.203,+0.166,+0.884,-0.103,-0.292,-34.812,-21.688,+17.312,-10, -4, -2, 0, -1, 2, 2, -5,2.6246217539023347,1.3145081899618862,0
1503515707281,+0.777,+0.575,+0.200,+0.161,+0.920,-0.023,-0.304,-29.188,-5.812,+23.062,-4, 0, -2, -1, -3, -3, -3, -4,2.6366267685930898,1.3069837930322716,0
1503515707303,+0.778,+0.575,+0.198,+0.157,+0.957,+0.021,-0.306,-20.500,+7.812,+23.438,-4, -2, -7, -3, -3, -4, -12, -4,2.6453852032718674,1.3051504712166604,0
1503515707319,+0.779,+0.575,+0.198,+0.154,+0.986,+0.006,-0.271,-13.250,-2.438,+22.500,5, 14, 31, 10, 1, 1, 2, -3,2.6507444904575848,1.3051404106684703,0
1503515707341,+0.781,+0.572,+0.197,+0.152,+0.991,-0.010,-0.280,-4.438,-14.562,+20.188,-2, -10, -6, -3, -1, 0, 2, -2,2.6547536486287164,1.2967418789837486,0
1503515707363,+0.783,+0.570,+0.197,+0.152,+0.977,+0.018,-0.281,-2.062,-14.000,+12.188,-2, 0, -1, 4, 2, -1, -3, -13,2.6557114147928593,1.2920726946122916,0
1503515707379,+0.785,+0.568,+0.195,+0.153,+0.980,+0.054,-0.281,-1.750,-13.312,+11.750,3, 2, 7, 1, 2, 0, 0, 4,2.657307740636644,1.285838702770179,0
1503515707402,+0.786,+0.566,+0.195,+0.154,+0.998,+0.069,-0.247,+4.750,-17.250,+9.062,-16, -7, 0, -2, -4, 0, 0, 2,2.6556723005496465,1.2809877984714912,0
1503515707423,+0.787,+0.564,+0.195,+0.157,+1.063,-0.028,-0.233,+13.438,-14.062,-2.688,4, -18, -9, -2, -3, -2, -2, 0,2.651236171314296,1.2763759366663365,0
1503515707439,+0.797,+0.550,+0.194,+0.156,+1.304,-0.303,-0.538,-8.625,-92.250,+17.562,1, 10, 16, 2, 2, -2, -1, -1,2.655936758955254,1.2420343538390746,0
1503515707462,+0.802,+0.543,+0.191,+0.160,+1.065,-0.095,-0.175,-1.750,-63.312,-11.188,0, -11, -11, -3, -1, 2, 0, 1,2.654474863132252,1.223544666534563,0
1503515707483,+0.807,+0.535,+0.189,+0.163,+1.027,-0.108,-0.266,+2.000,-63.250,-7.062,4, 23, 5, 0, -1, -1, 1, -1,2.652816803342354,1.20334118420005,0
1503515707499,+0.811,+0.529,+0.191,+0.162,+0.986,-0.208,-0.329,+5.438,-41.812,+18.750,7, 17, 14, 5, 1, 0, -1, -4,2.6533189705387854,1.1908643431411632,0
1503515707521,+0.813,+0.525,+0.192,+0.161,+1.062,-0.122,-0.304,+1.375,-29.562,+15.875,4, 0, 2, 0, 1, -2, -1, -1,2.6537010304403967,1.1820005641606317,0
1503515707544,+0.815,+0.522,+0.193,+0.162,+0.933,-0.064,-0.337,+5.125,-23.312,+12.125,36, 3, -4, -5, -1, 0, 2, 10,2.6518768628027893,1.1760481196311199,0
1503515707561,+0.815,+0.520,+0.197,+0.161,+0.860,-0.145,-0.354,+17.125,-1.750,+17.000,-21, -13, -6, -4, -4, -1, 0, -3,2.648318343787189,1.1741505822567015,0
1503515707581,+0.814,+0.520,+0.202,+0.158,+0.826,-0.186,-0.349,+16.500,+18.312,+24.500,-4, -5, -14, -3, -1, 0, -1, 2,2.6467559735657398,1.177632970187954,0
1503515707604,+0.812,+0.524,+0.207,+0.155,+0.913,-0.224,-0.318,+11.188,+33.250,+23.938,7, -5, -1, -2, 1, 1, -3, 7,2.6464394064337906,1.1911459566954246,0
1503515707619,+0.810,+0.526,+0.211,+0.151,+0.893,-0.226,-0.330,+3.438,+23.812,+19.625,2, 4, 9, 5, 0, -2, -3, 4,2.647180706841944,1.1985350443827256,0
1503515707641,+0.809,+0.528,+0.213,+0.148,+0.953,-0.199,-0.274,-3.500,+14.688,+18.188,5, 7, -4, -2, -2, 0, -2, 0,2.649622536007696,1.204699513201649,0
1503515707664,+0.809,+0.528,+0.212,+0.146,+0.916,-0.207,-0.313,-9.250,+1.562,+7.375,-8, -18, -5, 1, 0, 0, 1, 1,2.6534783890279385,1.2034738835292529,0
1503515707679,+0.812,+0.525,+0.210,+0.147,+0.886,-0.138,-0.356,-9.688,-18.812,-3.688,-7, -2, -1, -2, -1, 1, -1, -1,2.6558860014047276,1.1951890187106615,0
1503515707702,+0.816,+0.518,+0.206,+0.148,+0.917,-0.136,-0.387,-10.875,-47.250,-3.688,4, 5, -4, -4, -2, -2, -2, 1,2.658991923231822,1.1752220375104183,0
1503515707724,+0.820,+0.514,+0.204,+0.149,+0.984,-0.160,-0.316,-10.062,-38.062,-0.500,0, 0, -1, 5, 4, -1, -1, 0,2.662062399822636,1.1649199441068356,0
1503515707739,+0.823,+0.509,+0.202,+0.149,+0.936,-0.162,-0.358,-11.938,-36.312,+6.188,-2, -9, -5, -6, -1, -1, 2, 1,2.6647613766475633,1.1515361626546416,0
1503515707763,+0.826,+0.505,+0.200,+0.147,+0.855,-0.144,-0.387,-12.312,-25.688,+10.188,-9, -41, -26, -9, -6, -2, 1, -1,2.671069277849536,1.1404504581952182,0
1503515707783,+0.828,+0.502,+0.199,+0.146,+0.889,-0.158,-0.404,-8.688,-16.312,+11.812,26, 6, 2, 1, 1, -3, -3, -4,2.6743098980680244,1.1325755727272293,0
1503515707800,+0.829,+0.501,+0.199,+0.146,+0.940,-0.146,-0.429,-0.562,-6.438,+3.750,-17, -1, 3, 3, 1, 5, -1, 1,2.675006709946408,1.1304443014035144,0
1503515707821,+0.829,+0.501,+0.200,+0.149,+0.936,-0.145,-0.412,+13.188,-3.250,-9.562,-5, 8, 5, -1, -4, -3, -1, 0,2.669583161508717,1.1318249244960266,0
1503515707843,+0.827,+0.502,+0.200,+0.155,+0.922,-0.164,-0.366,+16.312,+3.562,-30.125,1, 6, 3, 5, 3, 0, 0, 0,2.658648988557925,1.1345542788177971,0
1503515707859,+0.826,+0.503,+0.201,+0.159,+0.909,-0.239,-0.349,+16.062,+1.625,-25.875,1, 6, 2, -5, -3, -1, -2, 2,2.6511257175696374,1.1382400298001722,0
1503515707881,+0.824,+0.505,+0.199,+0.164,+0.830,-0.152,-0.351,+7.938,+11.125,-34.125,-6, -1, 0, 3, 2, 2, 0, -2,2.644195734838023,1.1415973951446647,0
1503515707903,+0.821,+0.509,+0.198,+0.169,+0.900,-0.120,-0.318,+3.812,+17.250,-29.750,-8, -9, -2, -4, -3, -3, -1, -9,2.6364234004392193,1.1505118315419394,0
1503515707919,+0.819,+0.511,+0.197,+0.172,+1.070,-0.105,-0.367,+8.000,+7.000,-20.562,-1, 3, -1, 2, 4, -6, -3, -2,2.6316666603161365,1.154407449975586,0
1503515707941,+0.817,+0.511,+0.198,+0.176,+0.973,-0.125,-0.320,+15.062,-0.062,-18.125,-15, 2, 0, 0, 6, 5, 2, -2,2.62235860295919,1.1550906197769082,0
1503515707964,+0.816,+0.514,+0.197,+0.178,+0.829,-0.142,-0.281,-3.250,+13.375,-16.750,5, 6, 3, -2, -5, -1, -2, -1,2.6211118348970035,1.1617971151969875,0
1503515708720,+0.815,+0.506,+0.149,+0.239,+0.994,-0.005,-0.381,+7.875,+1.438,-4.875,3, 15, 11, 1, 0, -3, -1, -1,2.5702362928185196,1.111152221295704,1
1503515708743,+0.814,+0.506,+0.150,+0.241,+0.958,+0.013,-0.386,+5.562,+4.000,-8.625,-9, 9, 6, 3, 1, -5, -1, 0,2.565279231873086,1.1117176826827482,1
1503515708765,+0.814,+0.506,+0.150,+0.243,+0.929,+0.031,-0.412,+5.375,-1.312,-5.000,-6, 4, -3, -1, -1, -1, 4, 3,2.56255004982097,1.1119835296744882,1
1503515708781,+0.814,+0.506,+0.151,+0.244,+0.900,+0.038,-0.443,+11.062,+2.062,+1.438,-12, 18, 2, -3, -1, 0, -2, -6,2.5603443245516804,1.1128717835599298,1
1503515708804,+0.812,+0.506,+0.154,+0.245,+0.950,+0.074,-0.442,+18.812,+12.250,+6.938,-1, -21, -10, -1, -2, 0, 1, 1,2.5536833902202343,1.1144025934180481,1
1503515708825,+0.810,+0.507,+0.160,+0.246,+0.988,+0.075,-0.471,+30.000,+18.875,+13.438,16, -5, -5, 6, -2, -1, -4, 0,2.5453456294139887,1.1208652810792006,1
1503515708840,+0.808,+0.508,+0.168,+0.245,+1.000,-0.006,-0.434,+38.938,+22.188,+24.250,-25, -30, -10, -12, -7, -12, -4, -7,2.537999380092613,1.1288112790896048,1
1503515708863,+0.805,+0.510,+0.178,+0.246,+0.984,-0.015,-0.439,+49.438,+34.312,+22.312,-8, 3, -5, -4, -3, 4, -3, -1,2.5257503305494353,1.141074519143535,1
1503515708885,+0.801,+0.510,+0.192,+0.246,+1.043,+0.009,-0.475,+71.125,+39.562,+36.688,-14, -44, -14, 3, 5, 0, 3, 3,2.508220419304754,1.1516855184504715,1
1503515708900,+0.800,+0.505,+0.209,+0.247,+0.884,-0.043,-0.431,+91.312,+9.875,+52.438,-18, 0, 2, 6, 4, 0, 3, -1,2.487043746327918,1.1547828537351374,1
1503515708923,+0.804,+0.495,+0.225,+0.241,+0.870,-0.381,-0.504,+60.938,-16.438,+81.188,12, 25, 13, 12, 6, 1, -4, -2,2.4794602356246584,1.1463661264982643,1
1503515708947,+0.803,+0.492,+0.237,+0.237,+0.934,-0.167,-0.354,+46.625,+5.625,+54.438,8, -16, -9, -7, -3, 0, 1, -1,2.470936729084212,1.1503282895044558,1
1503515708960,+0.801,+0.490,+0.251,+0.235,+0.935,-0.100,-0.427,+65.750,+21.875,+53.938,-7, -22, -12, 2, -1, -1, 1, -3,2.4575537762624284,1.1595415605324981,1
1503515708983,+0.800,+0.485,+0.264,+0.234,+0.996,-0.153,-0.434,+73.188,+2.312,+52.438,8, -4, -5, -6, 0, -3, 1, 1,2.442853144680373,1.1615589764361636,1
1503515709005,+0.801,+0.476,+0.278,+0.234,+0.958,-0.217,-0.316,+69.500,-26.375,+54.000,-1, 12, 3, -6, -6, 0, -4, -5,2.4264555236050915,1.1567481574395313,1
1503515709020,+0.800,+0.470,+0.291,+0.234,+0.867,-0.220,-0.303,+73.312,-13.188,+47.625,15, 5, 17, -1, -4, 1, 1, 4,2.410064960685987,1.1581442251036385,1
1503515709043,+0.797,+0.466,+0.305,+0.234,+0.827,-0.244,-0.348,+74.062,+15.438,+42.812,1, -6, -5, -1, -3, -2, -9, 0,2.391036836202194,1.165790881257472,1
1503515709065,+0.793,+0.465,+0.319,+0.232,+0.904,-0.230,-0.316,+70.500,+23.875,+44.125,-17, -13, -12, -5, -1, 16, -3, -5,2.375033835634449,1.180761156430984,1
1503515709088,+0.789,+0.462,+0.332,+0.233,+0.950,-0.222,-0.262,+74.312,+9.438,+40.875,-1, -12, -1, -9, 0, -3, -3, 0,2.3543287375732955,1.1911049269770273,1
1503515709102,+0.785,+0.458,+0.345,+0.235,+0.871,-0.281,-0.194,+72.688,+1.062,+29.000,20, -12, 11, 18, 1, 1, 1, 2,2.3315223970985177,1.2001719787177876,1
1503515709125,+0.781,+0.455,+0.356,+0.235,+0.802,-0.323,-0.260,+65.688,+12.750,+27.750,-29, -9, -15, -16, -3, 2, -1, -1,2.313158502311711,1.2088176089623244,1
1503515709140,+0.776,+0.456,+0.367,+0.235,+0.831,-0.338,-0.227,+57.062,+32.688,+23.250,-5, -9, -8, -3, -2, -2, -1, 0,2.2962503882272847,1.227377325106996,1
1503515709163,+0.771,+0.456,+0.377,+0.234,+0.930,-0.326,-0.226,+50.188,+26.188,+25.062,1, -12, -5, 4, -2, 0, -2, 0,2.2800493883326625,1.242232508076072,1
1503515709185,+0.769,+0.454,+0.385,+0.234,+0.891,-0.344,-0.246,+48.062,+4.625,+24.938,7, 0, 5, -1, -5, 3, -4, -2,2.2686271305816907,1.2505758670760574,1
1503515709200,+0.767,+0.450,+0.392,+0.236,+0.814,-0.380,-0.236,+40.750,-6.312,+15.875,-6, -22, 4, 2, 2, -1, 0, -4,2.2537727509959438,1.2532700107716281,1
1503515709222,+0.765,+0.448,+0.398,+0.235,+0.789,-0.403,-0.231,+32.062,+6.938,+16.375,-37, 16, -10, 2, 0, 1, 0, -2,2.2446269424281513,1.2584091899205956,1
1503515709245,+0.762,+0.450,+0.403,+0.233,+0.868,-0.367,-0.166,+22.875,+27.500,+15.062,-3, -7, -10, -3, 0, -3, 0, -2,2.2387510322444566,1.270852250718494,1
1503515709260,+0.759,+0.451,+0.408,+0.231,+0.945,-0.372,-0.198,+18.750,+18.875,+23.875,-8, -8, 14, 5, 0, 18, 3, -1,2.2318354497200907,1.2810891192071319,1
1503515709283,+0.759,+0.448,+0.413,+0.229,+0.895,-0.393,-0.232,+19.500,+0.938,+27.062,-1, 9, -7, -5, -2, 0, -1, -1,2.2278178490897496,1.28283826103339,1
1503515709309,+0.759,+0.445,+0.417,+0.229,+0.793,-0.413,-0.245,+22.500,-4.250,+14.312,15, 11, -1, -7, 0, -6, -1, -1,2.222393471584058,1.2833431252883185,1
1503515709320,+0.757,+0.444,+0.421,+0.228,+0.799,-0.404,-0.169,+18.000,+6.312,+13.812,-29, 12, 14, 12, 2, -3, 1, -2,2.2152669123227406,1.287866243100325,1
1503515709343,+0.756,+0.445,+0.425,+0.224,+0.837,-0.412,-0.149,+8.438,+22.188,+23.812,4, 0, -9, -9, -2, -2, -5, -2,2.215562507537926,1.296721468329692,1
1503515709365,+0.755,+0.446,+0.427,+0.221,+0.898,-0.427,-0.243,+1.188,+18.000,+23.375,16, -16, -8, -7, -3, -4, -1, 3,2.216029536247246,1.3019916836319054,1
1503515709381,+0.756,+0.444,+0.428,+0.218,+0.900,-0.413,-0.252,-1.625,+0.188,+24.938,9, 9, -11, -9, -1, -2, 1, -1,2.21886651930365,1.298719645344635,1
1503515709402,+0.758,+0.441,+0.430,+0.215,+0.824,-0.412,-0.170,-0.188,-9.688,+25.438,9, -8, -12, -8, -8, -2, -1, 2,2.2225857282743533,1.29532257604937,1
1503515709425,+0.759,+0.440,+0.430,+0.212,+0.766,-0.442,-0.108,-8.438,-3.312,+17.000,1, 10, 55, 43, 0, -2, -1, 4,2.227150459988641,1.2924158933494792,1
1503515709442,+0.760,+0.441,+0.429,+0.209,+0.818,-0.494,-0.177,-23.250,+8.812,+8.188,39, -4, -12, -18, 1, -3, -2, -1,2.234326373136217,1.2922778101617234,1
1503515709463,+0.762,+0.443,+0.425,+0.206,+0.847,-0.370,-0.284,-28.312,+9.750,+2.688,-1, -11, -11, 1, -1, -1, -2, -2,2.24676423975258,1.288880988761493,1
1503515709485,+0.765,+0.443,+0.421,+0.205,+0.924,-0.351,-0.209,-26.750,-10.312,+9.125,-7, 3, -1, 1, 0, -2, -1, 0,2.2575182502191224,1.2816065978464426,1
1503515709500,+0.768,+0.441,+0.417,+0.203,+0.872,-0.389,-0.148,-28.750,-22.688,+11.375,-10, 1, -2, 3, 2, -1, -1, 0,2.267506955101804,1.2693398224220878,1
1503515709523,+0.772,+0.439,+0.411,+0.202,+0.745,-0.483,-0.157,-42.125,-24.438,-6.625,3, -1, 11, 3, 0, -2, -2, 16,2.280082521735441,1.2539284097820835,1
1503515709545,+0.777,+0.440,+0.404,+0.199,+0.721,-0.580,-0.163,-62.250,-11.750,-16.625,-1, -16, -18, -18, -4, -3, 0, -8,2.300585165738067,1.24388557842893,1
1503515709560,+0.782,+0.444,+0.391,+0.195,+0.794,-0.492,-0.229,-85.188,+0.125,-23.625,-10, 1, -6, -5, -2, -1, 4, -4,2.3287356351084245,1.2303932738188736,1
1503515709583,+0.786,+0.450,+0.379,+0.191,+0.887,-0.412,-0.223,-86.312,+5.500,-21.438,-17, -23, -17, -12, -4, 0, 0, -11,2.355601640652146,1.224270899987959,1
1503515709605,+0.790,+0.454,+0.366,+0.187,+0.861,-0.444,-0.186,-88.312,-4.312,-22.125,-5, -6, -2, 2, -2, 1, -1, 0,2.3815294604619313,1.212508641653324,1
1503515709620,+0.797,+0.458,+0.350,+0.183,+0.792,-0.516,-0.228,-104.625,-9.812,-27.312,-3, 3, -4, 0, -1, -1, 0, -3,2.4157470408427426,1.1981387049303602,1
1503515709644,+0.803,+0.462,+0.330,+0.180,+0.761,-0.464,-0.312,-119.312,-9.750,-43.250,5, 12, 4, 1, -1, 0, 2, 2,2.4494035407020296,1.179318971871615,1
1503515709665,+0.807,+0.468,+0.311,+0.180,+0.701,-0.393,-0.292,-109.500,-0.250,-56.938,0, 7, 12, 1, 2, -2, -7, -4,2.4758251409485146,1.1690209984864641,1
1503515709682,+0.809,+0.478,+0.294,+0.177,+0.863,-0.442,-0.229,-105.188,+26.625,-53.375,1, 15, 15, 7, 3, -2, -1, -1,2.5039642403761073,1.171601557536479,1
1503515709702,+0.807,+0.493,+0.276,+0.172,+1.055,-0.356,-0.283,-111.312,+62.312,-56.750,10, -3, -9, -3, 1, 0, -1, 1,2.532803935331955,1.185178650829638,1
1503515709725,+0.806,+0.503,+0.259,+0.173,+1.071,-0.154,-0.477,-84.938,+39.625,-61.312,-5, -3, -4, -2, -2, 1, -2, -3,2.5513838746034176,1.190634652448907,1
1503515709740,+0.810,+0.503,+0.242,+0.180,+1.005,-0.030,-0.527,-57.875,-31.812,-61.875,0, 7, 6, 1, -1, -4, 1, 0,2.5624641852006746,1.1750335383066668,1
1503515709762,+0.815,+0.499,+0.226,+0.188,+1.001,-0.109,-0.351,-54.938,-66.500,-67.750,-5, -6, -3, -2, 0, 1, -3, -5,2.569658287368745,1.1520319589512606,1
1503515709786,+0.817,+0.500,+0.212,+0.192,+0.958,-0.197,-0.261,-59.375,-28.875,-65.750,3, -1, 10, 8, 3, 0, -6, 2,2.579670138400898,1.1425605284427032,1
1503515709800,+0.816,+0.507,+0.199,+0.193,+0.841,-0.046,-0.355,-63.938,+26.250,-48.438,-1, 0, -6, -8, -6, -3, 2, -1,2.5931481822205855,1.1481328807043152,1
1503515709822,+0.815,+0.512,+0.188,+0.197,+0.834,+0.232,-0.619,-41.125,+27.188,-36.250,-3, 0, 1, 0, -1, 1, -1, -6,2.599468287277397,1.151481138735778,1
1503515709845,+0.816,+0.512,+0.177,+0.201,+0.914,+0.206,-0.546,-27.625,-8.000,-33.875,8, 5, 0, 1, -1, -1, 0, 4,2.604892246891342,1.1433462006765507,1
1503515709860,+0.819,+0.508,+0.169,+0.203,+0.969,-0.022,-0.350,-32.875,-44.500,-23.812,-2, 0, -4, 2, 1, -2, -1, 0,2.610112901065073,1.1283367756446756,1
1503515709883,+0.823,+0.506,+0.163,+0.203,+0.875,-0.133,-0.312,-35.500,-32.438,-12.875,0, -9, -3, -2, -1, -1, 1, 1,2.6191306159322223,1.120347837663638,1
1503515709905,+0.824,+0.506,+0.157,+0.201,+0.809,-0.022,-0.402,-34.750,-4.938,-6.250,2, 9, 2, -1, -1, 0, 0, 3,2.628554258297913,1.115990957716323,1
1503515709921,+0.826,+0.504,+0.153,+0.200,+0.885,+0.119,-0.470,-17.750,-13.125,+8.312,-1, -3, -4, -2, -1, -1, 2, 1,2.634621042179282,1.1087198618877876,1
1503515709943,+0.833,+0.495,+0.151,+0.198,+1.191,-0.034,-0.491,-14.438,-71.500,+22.562,-2, -3, -3, -1, 0, 1, -2, -3,2.641769561210851,1.0873463560241878,1
1503515709965,+0.836,+0.490,+0.150,+0.196,+1.046,-0.041,-0.229,-5.750,-51.625,+13.875,-5, 2, 7, 3, 3, -2, -2, -1,2.645933690775929,1.0751017449923956,1
1503515709984,+0.840,+0.483,+0.151,+0.195,+0.945,-0.210,-0.396,-2.312,-46.875,+10.875,2, 3, -2, 1, -1, -2, -2, 0,2.6469306240797534,1.0599274220380457,1
1503515710002,+0.841,+0.483,+0.152,+0.191,+0.884,-0.194,-0.393,-11.562,-4.188,+14.000,2, 19, 12, -1, -2, -2, 7, 0,2.6532689918291066,1.0605259685370827,1
1503515710025,+0.841,+0.484,+0.152,+0.190,+0.984,-0.015,-0.447,-6.500,+2.625,+12.000,-2, -8, -9, -4, -1, 0, -5, -3,2.6553957695160353,1.0628918287867475,1
1503515710041,+0.841,+0.483,+0.152,+0.190,+1.008,+0.025,-0.480,+8.500,-6.000,+4.438,-3, -9, -7, -6, -1, 1, 0, 1,2.654758916602254,1.0603770858898804,1
1503515710063,+0.842,+0.481,+0.154,+0.191,+0.860,-0.069,-0.468,+11.250,-9.312,+8.688,3, 3, -5, -3, -5, -1, -4, -1,2.651536317937214,1.0574211719403965,1
1503515710093,+0.842,+0.480,+0.157,+0.189,+0.784,-0.157,-0.475,+4.562,+1.812,+12.625,-4, -15, -4, -4, 1, -2, -3, -5,2.651333193415122,1.0567975105745062,1
1503515710107,+0.842,+0.481,+0.158,+0.186,+0.810,-0.127,-0.467,-6.188,+12.625,+12.812,-3, 0, 0, -2, -1, -1, -4, -3,2.655586519631011,1.0595782135395504,1
1503515710123,+0.842,+0.483,+0.158,+0.183,+0.878,-0.073,-0.448,-9.438,+16.625,+13.188,3, 0, 0, -1, -1, 0, 1, -2,2.6613110957274455,1.0641417568769727,1
1503515710147,+0.841,+0.485,+0.159,+0.182,+0.930,-0.085,-0.399,-3.812,+11.312,+6.875,4, 2, -2, -1, -1, -1, -4, 0,2.661941948831022,1.069287486849176,1
1503515710161,+0.841,+0.484,+0.159,+0.182,+0.977,-0.117,-0.366,-0.625,-11.000,-4.625,-1, 2, -2, 0, -1, -1, -4, 1,2.661327103665017,1.066768926699612,1
1503515710186,+0.841,+0.483,+0.158,+0.184,+0.989,-0.126,-0.370,+1.938,-21.688,-10.438,7, 25, 7, 2, 0, -1, 3, 2,2.6585750176145146,1.0638250118849422,1
1503515710205,+0.843,+0.479,+0.157,+0.187,+0.981,-0.088,-0.360,+3.438,-33.375,-11.375,-9, -4, 1, -2, -4, -1, 2, 1,2.654950492631071,1.054452683066229,1
1503515710221,+0.846,+0.474,+0.156,+0.190,+0.961,-0.072,-0.446,+3.750,-43.812,-6.438,-8, -6, -5, -2, -1, 0, 2, -1,2.6519743442588353,1.0431048583268339,1
1503515710242,+0.849,+0.467,+0.154,+0.193,+0.842,-0.029,-0.528,+4.000,-44.750,-8.375,7, -3, -1, -1, -2, 1, -6, -2,2.648623960391655,1.0261230121965905,1
1503515710265,+0.853,+0.460,+0.152,+0.197,+0.742,-0.027,-0.552,+5.250,-42.438,-14.562,0, -2, -4, 0, 1, -1, 3, -2,2.645071106748667,1.0099126720608,1
1503515710281,+0.855,+0.454,+0.149,+0.199,+0.734,-0.044,-0.541,-0.438,-31.188,-9.000,7, 11, 4, 2, -1, 0, -5, 0,2.6433918271048222,0.994253967071235,1
1503515710302,+0.857,+0.451,+0.150,+0.198,+0.833,-0.110,-0.547,-2.688,-17.750,+9.125,-3, -6, 1, -2, -2, 1, 1, 2,2.6448746178258675,0.9884241696586313,1
1503515710325,+0.858,+0.450,+0.150,+0.196,+0.856,-0.095,-0.518,-7.312,-3.312,+14.250,6, -1, -3, 0, -1, -1, 3, 2,2.648598469950996,0.9861335382716845,1
1503515710341,+0.859,+0.450,+0.148,+0.195,+0.899,-0.053,-0.510,-11.688,-8.125,+3.125,-3, 1, 4, -1, 0, -3, 1, -3,2.652988505206268,0.9850369322639138,1
1503515710362,+0.860,+0.448,+0.148,+0.193,+0.837,-0.124,-0.530,-5.438,-10.188,+11.875,-1, -7, -5, 1, 4, 0, 0, -3,2.656145843571406,0.980295281624781,1
1503515710385,+0.861,+0.447,+0.148,+0.191,+0.819,-0.111,-0.524,-7.375,-5.062,+8.875,-6, -1, -1, -3, -2, -2, 1, -1,2.65989992330095,0.9780102962273893,1
1503515710401,+0.862,+0.446,+0.148,+0.189,+0.807,-0.100,-0.534,-7.625,-1.125,+9.625,2, 11, 6, 2, -1, 1, 3, 1,2.6636655128007485,0.9757255775243986,1
1503515710423,+0.863,+0.446,+0.149,+0.186,+0.812,-0.112,-0.519,-7.125,+1.562,+13.750,3, 1, -1, -2, -1, -1, -3, -5,2.668738974840445,0.9764310405236297,1
1503515710445,+0.863,+0.447,+0.149,+0.185,+0.873,-0.125,-0.487,-8.562,+3.438,+7.562,-10, -13, -4, -1, -3, 0, -1, 0,2.6708285246302474,0.9787190402649861,1
1503515710461,+0.863,+0.448,+0.148,+0.183,+0.912,-0.083,-0.482,-9.500,-2.312,+4.125,2, 3, 0, -1, -1, 0, 1, 2,2.6752611769644545,0.9801432596079173,1
1503515710484,+0.863,+0.446,+0.147,+0.183,+0.890,-0.060,-0.514,-6.062,-11.500,+1.125,-2, 5, 2, -1, -1, 2, -1, -1,2.674977085214104,0.9745307381328827,1
1503515710505,+0.865,+0.444,+0.146,+0.183,+0.809,-0.062,-0.546,-4.312,-15.812,+3.312,-1, 7, 2, -2, 1, 0, 3, -1,2.677157679230045,0.9699351169522197,1
1503515710522,+0.866,+0.442,+0.144,+0.183,+0.755,-0.069,-0.531,-9.438,-9.375,+0.188,3, 2, -2, -1, -2, -2, -10, -2,2.6789048148120775,0.9641614535659091,1
1503515710542,+0.867,+0.441,+0.142,+0.183,+0.793,-0.091,-0.554,-10.812,-5.188,-2.625,0, -3, -3, 0, 0, -1, -1, -2,2.6811813170239813,0.960856605535076,1
1503515710565,+0.867,+0.441,+0.142,+0.182,+0.831,-0.078,-0.560,-1.625,-1.875,+5.375,0, -1, 1, -1, -1, 1, 4, 3,2.682742106167873,0.9606932861522403,1
1503515710585,+0.867,+0.441,+0.142,+0.181,+0.864,-0.060,-0.533,-1.188,+0.688,+5.438,-3, -4, -3, 0, 0, -2, 5, -2,2.684305305944856,0.960529890423392,1
1503515710602,+0.868,+0.440,+0.142,+0.181,+0.839,-0.078,-0.516,-3.625,-4.000,+4.062,-3, -6, 3, 0, 0, -4, 0, -3,2.684992113905988,0.9585890823042255,1
1503515710625,+0.868,+0.439,+0.141,+0.181,+0.829,-0.089,-0.545,-4.000,-7.125,-0.438,-8, -16, -6, -4, -2, 0, -2, 0,2.6852615899502745,0.9554683502427556,1
1503515710647,+0.869,+0.438,+0.142,+0.181,+0.785,-0.116,-0.564,+1.250,-1.750,-0.562,-1, -7, -4, 0, -2, -1, -5, -3,2.685160937377986,0.9542058267582582,1
1503515710663,+0.868,+0.439,+0.142,+0.182,+0.832,-0.091,-0.512,-1.938,+2.125,-5.250,7, 1, 1, 1, 0, 0, -1, -2,2.682903641523005,0.9563067867482299,1
1503515710685,+0.868,+0.439,+0.142,+0.181,+0.861,-0.113,-0.553,-2.375,-0.500,+1.500,-2, -8, -4, -1, -2, 2, 0, 1,2.6844689829156514,0.956142351535146,1
1503515710701,+0.868,+0.440,+0.141,+0.181,+0.833,-0.097,-0.523,-3.750,+3.500,-3.375,-1, -2, -4, -3, -4, -2, 2, 2,2.6857853720429214,0.9579152822993577,1
1503515710722,+0.868,+0.440,+0.141,+0.181,+0.825,-0.078,-0.522,-3.188,+0.938,-1.750,3, 9, 2, -2, -1, -2, -3, -3,2.6857853720429214,0.9579152822993577,1
1503515710745,+0.868,+0.440,+0.141,+0.182,+0.814,-0.072,-0.538,-1.562,+1.188,-3.688,6, 0, -1, 2, -1, -2, 3, 8,2.684221082768062,0.9580780780010019,1
1503515710761,+0.867,+0.441,+0.141,+0.182,+0.856,-0.054,-0.506,+0.125,+1.562,-2.250,-2, 5, -3, 3, -1, 0, -1, -3,2.6835369274355605,0.9600182204401049,1
1503515710785,+0.868,+0.441,+0.141,+0.183,+0.883,-0.061,-0.531,+0.938,-3.375,+2.312,6, 33, 23, 3, 1, -2, -1, 0,2.6831874898577985,0.9606877440633967,1
1503515710805,+0.868,+0.440,+0.141,+0.183,+0.847,-0.077,-0.541,+2.125,-5.562,+1.562,-4, -15, -8, -4, -1, -1, -6, -2,2.682659198514799,0.9582407983364968,1
1503515710822,+0.868,+0.439,+0.142,+0.183,+0.784,-0.087,-0.534,+2.375,-4.688,+1.688,-6, -3, -5, -4, 0, 0, 0, -3,2.6813407163863974,0.9564711453584837,1
1503515710843,+0.869,+0.438,+0.142,+0.183,+0.783,-0.092,-0.547,+2.188,-1.625,+1.125,0, -8, -3, -2, -1, 0, -2, -2,2.682032956805342,0.9545354193954196,1
1503515710865,+0.868,+0.438,+0.143,+0.183,+0.839,-0.085,-0.521,+1.188,+0.250,+0.250,-1, -2, 1, 0, 0, 0, -1, 3,2.680024152108,0.9547065121372917,1
1503515710881,+0.868,+0.438,+0.143,+0.183,+0.887,-0.085,-0.524,-0.500,-2.562,+2.188,-4, -19, -13, -4, -2, -3, 2, 0,2.680024152108,0.9547065121372917,1
1503515710903,+0.869,+0.437,+0.143,+0.183,+0.845,-0.095,-0.548,-1.812,-6.562,-0.438,0, 5, 0, 1, 0, -1, 1, -2,2.6807229698499744,0.9527726050685192,1
1503515710925,+0.869,+0.436,+0.142,+0.183,+0.766,-0.104,-0.549,-3.875,-3.875,-3.125,-1, -3, -1, 0, -2, 1, -1, 1,2.6809851997640677,0.9496525641888902,1
1503515710941,+0.869,+0.437,+0.139,+0.184,+0.805,-0.077,-0.548,-14.000,+2.812,-10.500,1, -2, 0, -1, -1, 0, -1, -1,2.6823048016365965,0.9502376841616286,1
1503515710963,+0.869,+0.437,+0.139,+0.183,+0.798,-0.110,-0.566,-6.750,+2.688,-0.625,-4, -3, -1, -3, 0, -1, -6, -2,2.683871074334278,0.9500754157429115,1
1503515710987,+0.869,+0.439,+0.137,+0.184,+0.853,-0.058,-0.537,-8.125,+7.812,-5.938,2, -11, -5, 1, -1, 0, -4, -3,2.6849389967063524,0.9537931716487364,1
1503515711001,+0.868,+0.440,+0.136,+0.184,+0.878,-0.052,-0.545,-7.562,+7.438,-2.562,0, 10, 4, 2, 2, 1, 1, -4,2.6850569936450457,0.9550690630516694,1
1503515711023,+0.868,+0.442,+0.135,+0.183,+0.833,-0.062,-0.536,-6.688,+6.188,-1.812,-2, 1, -1, -3, -2, -2, 0, -1,2.68848143933813,0.9591533860805047,1
1503515711045,+0.867,+0.443,+0.135,+0.183,+0.812,-0.057,-0.540,-6.438,+8.000,-0.812,-3, 1, 1, -3, -1, 1, -1, 2,2.6878214040431243,0.9610959033140875,1
1503515711062,+0.867,+0.444,+0.135,+0.183,+0.831,-0.061,-0.525,-4.312,+8.062,+1.000,-1, -3, -4, 0, 0, 0, 2, 3,2.6883572009667756,0.9635489145705666,1
1503515711083,+0.866,+0.445,+0.135,+0.182,+0.855,-0.065,-0.521,-2.312,+7.750,-0.250,2, 11, 4, 0, 0, -1, -1, 0,2.6892650040216095,0.9653417307657362,1
1503515711105,+0.865,+0.447,+0.135,+0.182,+0.861,-0.059,-0.511,-1.188,+6.625,-1.000,2, -5, -4, -4, -2, -2, -3, -1,2.6891526180906165,0.9697504550171269,1
1503515711121,+0.865,+0.447,+0.135,+0.183,+0.861,-0.069,-0.505,-0.375,+3.250,-1.812,-5, -2, 0, 0, 0, -1, -5, -5,2.687592114841887,0.9699035332726146,1
1503515711143,+0.865,+0.448,+0.135,+0.183,+0.872,-0.067,-0.500,-1.062,-1.062,-2.250,0, -2, 0, 3, -3, -1, -1, 1,2.688135148355332,0.9723633573066608,1
1503515711165,+0.865,+0.447,+0.134,+0.184,+0.888,-0.047,-0.493,+0.125,-12.250,-2.750,-1, 0, 1, -4, -1, 3, 2, -1,2.686838872276133,0.9694031981132615,1
1503515711181,+0.866,+0.444,+0.134,+0.185,+0.842,-0.055,-0.557,+3.938,-15.375,-3.000,-4, -3, 1, 0, -2, -2, -4, -3,2.684839691553277,0.9626951671311317,1
1503515711203,+0.867,+0.442,+0.134,+0.186,+0.758,-0.065,-0.559,+3.688,-10.375,-3.188,3, -3, -3, -2, -1, 0, 1, 2,2.683393601648186,0.9584550921511644,1
1503515711225,+0.867,+0.441,+0.135,+0.186,+0.796,-0.095,-0.537,-0.125,-1.750,+0.062,1, -3, -1, -2, 2, -3, 0, 1,2.6820559260194266,0.9566621817392241,1
1503515711241,+0.867,+0.441,+0.134,+0.186,+0.854,-0.096,-0.521,-4.875,-0.625,-3.000,-3, 3, 1, 1, 1, -1, 0, -2,2.6828502084662893,0.9560062345371854,1
1503515711263,+0.867,+0.441,+0.133,+0.187,+0.868,-0.057,-0.531,-6.125,-4.062,-6.562,3, -1, -1, 0, -2, -2, 1, 0,2.68208293218066,0.9555075477378703,1
1503515711288,+0.868,+0.441,+0.131,+0.188,+0.853,-0.035,-0.542,-4.375,-4.875,-6.375,-5, -3, -2, 1, 0, 2, 0, 0,2.6833131770199157,0.9548726846041926,1
1503515711301,+0.868,+0.441,+0.131,+0.189,+0.825,-0.050,-0.537,-3.562,-2.812,-4.625,5, -6, -2, 7, 6, 1, -1, 1,2.6817557582885962,0.9550242744336841,1
1503515711323,+0.868,+0.440,+0.130,+0.189,+0.821,-0.062,-0.548,-4.625,-3.500,-2.125,-7, -5, -9, -1, 0, 1, 2, -2,2.6819977436420874,0.9519328396962942,1
1503515711345,+0.868,+0.440,+0.129,+0.189,+0.787,-0.052,-0.564,-4.812,+1.750,-4.250,-1, -2, 4, 0, -2, 0, -3, -2,2.6827886642100713,0.9512903936375869,1
1503515711361,+0.868,+0.441,+0.128,+0.190,+0.798,-0.038,-0.534,-2.812,+7.688,-3.500,0, 11, 1, -1, 1, -1, 2, -1,2.682571848119983,0.9532462141315894,1
1503515711383,+0.867,+0.443,+0.128,+0.189,+0.856,-0.045,-0.517,-3.500,+6.250,-0.625,3, -3, -2, 0, 0, -2, -2, 0,2.684039324158763,0.9574845088276028,1
1503515711405,+0.866,+0.444,+0.128,+0.189,+0.884,-0.031,-0.530,-2.750,+5.750,-1.000,-3, 1, -2, 0, -2, -2, -2, -2,2.6833994217755412,0.9594256163227979,1
1503515711424,+0.866,+0.445,+0.128,+0.190,+0.871,-0.016,-0.519,+1.500,+1.750,-0.375,-5, 0, -1, -5, -2, -2, -4, -5,2.6824024373342192,0.9620257286228102,1
1503515711443,+0.866,+0.444,+0.129,+0.190,+0.866,-0.038,-0.515,+4.375,-2.750,+2.375,4, 3, 0, 0, 0, 0, 1, 1,2.681045393078205,0.9602128045757468,1
1503515711465,+0.866,+0.444,+0.130,+0.190,+0.865,-0.069,-0.524,+6.250,-4.375,+1.500,6, -3, 0, 0, 1, 0, 0, 1,2.6802487834688127,0.9608560804212647,1
1503515711481,+0.866,+0.443,+0.131,+0.191,+0.814,-0.063,-0.537,+6.562,-3.062,+0.375,-6, -3, -4, 0, 1, -1, 0, -1,2.677341916461081,0.9592026056939139,1
1503515711509,+0.866,+0.442,+0.132,+0.192,+0.843,-0.063,-0.534,+7.000,-3.062,-2.375,0, -6, -1, 0, 0, -1, -2, -4,2.6744373441546294,0.9575574171683778,1
1503515711526,+0.866,+0.442,+0.133,+0.193,+0.852,-0.044,-0.562,+7.625,+1.375,-1.562,7, 6, -1, -3, 0, 1, 2, 2,2.6720986035231364,0.958366288305767,1
1503515711547,+0.864,+0.444,+0.135,+0.194,+0.899,-0.053,-0.541,+11.312,+15.938,-3.000,-7, -3, -1, -2, -5, -2, -1, 0,2.6676477820337516,0.9637238851748202,1
1503515711565,+0.862,+0.447,+0.138,+0.195,+0.906,-0.050,-0.572,+11.125,+22.875,-2.750,-4, 0, 1, -3, -2, 1, 1, -3,2.6629759525620673,0.9722363839991824,1
1503515711585,+0.858,+0.453,+0.142,+0.196,+0.833,-0.088,-0.541,+20.062,+45.375,-2.625,-1, -1, -3, 1, 2, -1, -2, -1,2.656773394084831,0.9878699205482294,1
1503515711607,+0.852,+0.461,+0.147,+0.198,+0.733,-0.043,-0.576,+25.312,+69.938,-8.188,7, 3, -1, -1, -1, -3, 1, 3,2.646965470980259,1.0084622067128826,1
1503515711623,+0.845,+0.472,+0.153,+0.199,+0.818,-0.047,-0.579,+28.812,+89.938,-8.750,-2, 4, 7, 6, 0, -1, -1, -4,2.6385279187479584,1.036850921863114,1
1503515711645,+0.834,+0.488,+0.161,+0.199,+0.813,-0.048,-0.525,+27.875,+119.562,-4.438,-2, -2, -5, 0, 0, -2, 0, -1,2.628191815732022,1.077678716737155,1
1503515711668,+0.822,+0.507,+0.170,+0.198,+0.905,-0.084,-0.383,+27.562,+138.000,+1.125,2, 0, 0, 2, 1, -1, 0, -1,2.6195421383485975,1.1271589807313513,1
1503515711683,+0.811,+0.522,+0.179,+0.194,+0.984,-0.241,-0.452,+22.938,+121.062,+16.875,6, 5, 4, 4, -2, -1, -2, 2,2.613832030345416,1.1674545401781151,1
1503515711705,+0.805,+0.530,+0.186,+0.190,+1.139,-0.201,-0.384,+15.000,+66.438,+16.500,-15, -12, -1, 9, 6, 2, -1, -3,2.611218638151604,1.1908349376425724,1
1503515711727,+0.801,+0.535,+0.191,+0.189,+1.087,-0.123,-0.276,+18.875,+38.188,+8.312,5, 3, -2, -12, -9, -4, -2, -1,2.6065554449959314,1.2062713626116504,1
1503515711743,+0.798,+0.537,+0.196,+0.192,+0.999,-0.121,-0.282,+30.938,+19.062,-0.312,-1, -3, -2, -3, -1, -1, -1, -1,2.5953754104946456,1.2150273592424885,1
1503515711766,+0.796,+0.537,+0.201,+0.195,+0.898,-0.146,-0.321,+31.375,+12.188,-3.875,-6, -5, -1, 2, -1, -2, 0, -1,2.583988507010128,1.2191133527108018,1
1503515711787,+0.793,+0.538,+0.206,+0.197,+0.883,-0.162,-0.318,+31.000,+15.188,-5.438,-3, -2, 0, 2, 1, 1, -1, 1,2.5733971048056428,1.2253880917191413,1
1503515711804,+0.790,+0.540,+0.211,+0.200,+0.915,-0.157,-0.327,+33.062,+28.000,-3.625,-4, 4, 0, -8, -5, -1, 0, 1,2.5622889785681915,1.2345035221716578,1
1503515711826,+0.786,+0.543,+0.217,+0.202,+0.890,-0.116,-0.309,+34.375,+32.188,+0.125,2, 2, 1, 1, 2, 1, -1, -1,2.5510670826088213,1.2467820214386158,1
1503515711847,+0.782,+0.545,+0.223,+0.204,+0.853,-0.089,-0.289,+35.250,+30.688,+2.000,2, 0, -2, -3, -2, -4, -3, -2,2.538996951324789,1.2566615538224213,1
1503515711864,+0.778,+0.548,+0.229,+0.206,+0.908,-0.107,-0.270,+34.750,+36.500,+2.438,-2, -4, -3, -4, -3, 1, 0, -2,2.527814619816093,1.269296108694952,1
1503515711886,+0.772,+0.553,+0.235,+0.207,+0.963,-0.120,-0.234,+32.500,+48.812,+3.062,0, 1, 1, -2, 0, -1, -1, -1,2.516802849348351,1.2864970597226828,1
1503515711907,+0.766,+0.558,+0.241,+0.209,+0.990,-0.107,-0.212,+35.250,+44.875,+0.375,-8, -8, -2, 1, 4, -2, -2, -1,2.5045820545592665,1.3040637052721276,1
1503515711926,+0.761,+0.561,+0.247,+0.212,+1.007,-0.100,-0.223,+41.188,+29.562,-2.312,-15, 1, 0, -3, -5, 2, 0, -2,2.490790856145963,1.3171008702287301,1
1503515711945,+0.758,+0.561,+0.253,+0.217,+0.969,-0.131,-0.193,+42.750,+14.438,-6.375,6, -5, -4, -1, -2, -12, 0, 2,2.4747469453473845,1.3233977756093058,1
1503515711968,+0.755,+0.561,+0.257,+0.221,+0.934,-0.161,-0.166,+37.125,+8.250,-10.938,-2, -11, -8, -1, 0, 5, 0, -1,2.461745466259877,1.3274994890403689,1
1503515711984,+0.751,+0.564,+0.261,+0.224,+0.957,-0.120,-0.117,+27.875,+21.000,-9.125,6, 3, 1, 3, 2, 1, 0, -1,2.4514843926682595,1.3389889798444174,1
1503515712006,+0.746,+0.568,+0.264,+0.227,+0.969,-0.071,-0.125,+25.938,+29.000,-6.750,-1, -6, 0, -2, -3, 0, -2, 1,2.4416716820373106,1.351731606967085,1
1503515712027,+0.741,+0.571,+0.268,+0.230,+0.951,-0.035,-0.145,+28.625,+29.000,-9.938,4, 5, 0, -1, 2, 0, -1, -1,2.430015837293893,1.3631378141570782,1
1503515712043,+0.737,+0.573,+0.270,+0.234,+0.951,-0.073,-0.142,+27.625,+19.062,-11.438,3, -1, -2, 1, -2, 0, 0, -2,2.419559037520198,1.3700858873294959,1
1503515712066,+0.734,+0.575,+0.272,+0.236,+0.966,-0.117,-0.102,+16.438,+16.375,-11.062,0, 2, 2, -2, -3, -3, -5, -1,2.413009838400319,1.3770764395881212,1
1503515712087,+0.731,+0.579,+0.273,+0.236,+1.000,-0.079,-0.069,+4.000,+22.688,-6.125,14, -3, -3, -1, 0, 1, -1, 2,2.411863612463353,1.3878452195827793,1
1503515712104,+0.729,+0.582,+0.273,+0.236,+1.030,-0.065,-0.096,-1.938,+17.562,-2.500,2, 1, 1, 1, 0, -3, 1, 1,2.4120986374341644,1.395122639251476,1
1503515712127,+0.728,+0.583,+0.272,+0.237,+0.981,-0.072,-0.122,+0.750,+1.438,-6.562,-11, 4, -1, 0, 1, -2, 0, -4,2.4114332868090194,1.3964164443339384,1
1503515712147,+0.729,+0.581,+0.271,+0.240,+0.950,-0.098,-0.143,+2.625,-14.000,-11.688,4, 1, 1, 0, -2, 2, -1, 0,2.408314796668075,1.3906186472560988,1
1503515712164,+0.730,+0.580,+0.268,+0.243,+0.919,-0.086,-0.119,-3.875,-19.000,-16.125,-12, -24, -8, -4, -2, -2, 1, 0,2.4080898012004237,1.3850969060742313,1
1503515712185,+0.730,+0.580,+0.265,+0.244,+0.905,-0.071,-0.099,-9.625,-8.250,-14.750,4, 4, 1, 0, 1, 1, -2, -4,2.4096009813367063,1.3817619444131621,1
1503515712207,+0.728,+0.583,+0.264,+0.244,+0.933,-0.056,-0.097,-8.250,+17.938,-8.125,0, 4, 1, 0, -1, 0, -1, -1,2.410785292767978,1.3879049113128958,1
1503515712224,+0.725,+0.587,+0.264,+0.243,+0.979,-0.072,-0.153,-6.125,+28.812,-5.875,-9, -4, -7, -2, -1, -1, 0, -5,2.4118178462146744,1.3974857247148313,1
1503515712245,+0.723,+0.590,+0.262,+0.245,+1.005,-0.040,-0.187,-3.312,+17.875,-16.688,5, 5, 4, 5, 7, 1, 0, 3,2.4118118768860515,1.4027491986738159,1
1503515712268,+0.724,+0.589,+0.260,+0.247,+1.032,-0.044,-0.171,-0.562,-8.688,-14.500,0, 4, -1, -2, 0, -3, -1, 0,2.411792016265907,1.398313691618616,1
1503515712284,+0.726,+0.587,+0.259,+0.248,+1.039,-0.076,-0.141,-1.500,-17.875,-1.125,-8, -9, -3, -3, -2, -1, 0, -3,2.412356113624294,1.392547195658434,1
1503515712306,+0.726,+0.586,+0.259,+0.248,+0.990,-0.077,-0.129,+1.188,-7.312,+3.000,-6, -5, -2, 0, -2, 0, -2, -4,2.411172961560495,1.3899694910105116,1
1503515712328,+0.725,+0.587,+0.260,+0.248,+0.968,-0.100,-0.143,-0.062,+11.250,-1.500,-4, 3, 4, 0, 1, -1, 2, 4,2.409904876639605,1.3934524031105227,1
1503515712344,+0.724,+0.589,+0.260,+0.248,+0.962,-0.104,-0.168,+0.000,+16.812,-4.562,5, -3, -5, 3, -1, -1, -1, 0,2.4107093342633124,1.3984032425905146,1
1503515712366,+0.723,+0.590,+0.260,+0.250,+0.992,-0.088,-0.143,+4.062,+2.688,-9.250,-3, 1, -5, -7, -5, 0, -3, -5,2.408176119994404,1.4009570729133043,1
1503515712388,+0.723,+0.588,+0.260,+0.253,+1.036,-0.137,-0.098,+10.750,-12.188,-14.938,1, 3, 1, 0, -15, 0, 1, 2,2.402555253761231,1.3960729967210463,1
1503515712404,+0.723,+0.588,+0.259,+0.255,+1.026,-0.171,-0.085,+4.938,-11.625,-18.000,-3, -7, -5, -2, 3, 1, -2, -2,2.401284665224452,1.3951407802197973,1
1503515712426,+0.723,+0.588,+0.258,+0.257,+0.968,-0.097,-0.113,-2.312,-6.562,-16.688,1, 5, 1, 1, 0, 0, 0, 2,2.4000170198515844,1.394212413499855,1
1503515712447,+0.723,+0.587,+0.256,+0.259,+0.983,-0.055,-0.167,+0.125,-9.375,-10.938,1, 2, -1, 1, 1, -3, 0, 1,2.398405298760751,1.3896098040333298,1
1503515712464,+0.724,+0.585,+0.255,+0.260,+0.972,-0.087,-0.168,-1.375,-9.812,-6.812,-10, -5, -2, -14, -20, -4, 0, -1,2.3973552888680945,1.3836641804295775,1
1503515712486,+0.724,+0.586,+0.254,+0.262,+0.926,-0.068,-0.169,-0.562,+3.750,-11.500,-2, -4, -3, -1, 6, 1, 1, 1,2.397298411830243,1.385328808662171,1
1503515712507,+0.722,+0.587,+0.253,+0.263,+0.944,-0.040,-0.132,+1.500,+6.250,-15.000,0, 1, 1, 5, 9, 0, 2, -3,2.395160911720238,1.3864714168341004,1
1503515712524,+0.721,+0.588,+0.252,+0.266,+1.007,-0.015,-0.090,+4.062,-4.750,-13.938,24, 10, 3, -2, -5, -1, -5, -15,2.3924950403749903,1.3880207338999164,1
1503515712545,+0.721,+0.587,+0.251,+0.269,+1.023,-0.014,-0.114,+6.312,-7.750,-12.875,-11, -2, 1, 3, 4, 3, 0, -1,2.3889504206527805,1.384631325025516,1
1503515712567,+0.720,+0.587,+0.250,+0.271,+0.963,+0.035,-0.147,+3.625,-2.125,-8.188,4, -4, -5, -3, 1, -3, 3, 1,2.386120049500856,1.3835128793848928,1
1503515712583,+0.720,+0.587,+0.250,+0.273,+0.967,+0.039,-0.163,+7.500,-3.312,-2.750,-8, -4, -5, 1, 0, -2, -9, -2,2.3840219143698405,1.3836992156324464,1
1503515712605,+0.720,+0.586,+0.251,+0.274,+1.030,-0.024,-0.106,+8.000,-3.812,-0.125,-7, 3, 4, 1, 3, -3, 1, 13,2.380872201012047,1.382304477477158,1
1503515712635,+0.720,+0.585,+0.252,+0.275,+1.063,-0.013,-0.091,+7.875,-9.875,-0.125,-10, -1, 3, 2, 1, 2, 1, -5,2.3777266164498903,1.3809179875272977,1
1503515712643,+0.721,+0.583,+0.253,+0.276,+1.051,+0.021,-0.178,+7.750,-10.000,+11.562,-12, -4, -3, -2, -5, -2, 2, -9,2.374932783120746,1.3771939027012101,1
1503515712666,+0.723,+0.581,+0.255,+0.272,+0.987,+0.003,-0.184,-3.688,-3.312,+34.938,27, 7, 3, 1, 1, 0, 4, 43,2.378143847979843,1.374325495776677,1
1503515712688,+0.725,+0.580,+0.259,+0.264,+1.000,-0.031,-0.145,-9.312,+4.625,+53.875,18, 9, 1, -1, -3, -5, 2, 14,2.3851853635416407,1.375872721637634,1
1503515712704,+0.727,+0.579,+0.265,+0.257,+1.088,-0.068,-0.176,-4.812,+10.250,+56.250,-5, -2, -1, -3, -3, -4, -3, -1,2.3895550229480738,1.3798454725069647,1
1503515712726,+0.728,+0.577,+0.269,+0.252,+1.038,-0.102,-0.191,+0.812,+4.500,+42.375,-1, 0, 1, 2, 0, 3, -1, -9,2.390736933904151,1.3790417469187577,1
1503515712748,+0.730,+0.575,+0.272,+0.249,+1.021,-0.134,-0.140,+3.250,-8.562,+26.438,-1, -2, -1, -2, 0, 1, 0, -12,2.3923127091112817,1.3775554646675177,1
1503515712767,+0.732,+0.572,+0.275,+0.247,+1.046,-0.128,-0.112,+4.188,-16.125,+23.125,-3, 4, -2, -3, -2, -3, -6, -12,2.3917002780741683,1.3736671347254445,1
1503515712786,+0.734,+0.570,+0.276,+0.246,+0.956,-0.109,-0.121,+0.375,-13.562,+14.938,3, 0, -3, -4, -1, 0, 7, 5,2.3929143005819475,1.370103151419366,1
1503515712808,+0.733,+0.571,+0.276,+0.246,+0.904,-0.049,-0.149,+1.312,+10.875,+4.750,-9, -6, -4, 0, -5, -2, -6, -7,2.392422792484578,1.372422102620856,1
1503515712823,+0.729,+0.575,+0.278,+0.247,+0.899,-0.016,-0.188,+10.562,+32.562,-1.250,0, 2, 12, -1, 1, 0, 1, -3,2.3877419443393686,1.3842193087373582,1
1503515712846,+0.725,+0.578,+0.281,+0.248,+0.944,-0.048,-0.200,+18.750,+35.875,-4.812,5, 6, 4, 1, -1, -1, -3, -1,2.3811078801836763,1.394721348515705,1
1503515712868,+0.721,+0.581,+0.283,+0.250,+0.991,-0.085,-0.179,+20.125,+29.000,-9.188,-4, -24, -15, -4, 0, -1, -1, -1,2.37432304558991,1.4041745965059238,1
1503515712883,+0.718,+0.582,+0.285,+0.253,+1.029,-0.115,-0.125,+21.312,+10.375,-11.188,-6, -3, 0, -1, 0, 1, -1, -2,2.365775656507255,1.4088513476360947,1
1503515712908,+0.717,+0.581,+0.287,+0.257,+1.008,-0.142,-0.131,+22.688,-1.812,-11.188,6, 8, -1, -3, 0, 0, 2, 1,2.3570967678433945,1.4089288149111643,1
1503515712928,+0.716,+0.580,+0.289,+0.261,+0.938,-0.136,-0.119,+23.062,-4.500,-14.250,-6, -1, -1, 1, 3, -2, 0, 0,2.348462451067348,1.4090318537409339,1
1503515712945,+0.714,+0.579,+0.290,+0.267,+0.885,-0.110,-0.153,+28.000,+1.688,-23.500,8, 5, -3, -5, -4, -2, 2, -13,2.336993768740438,1.4079221792395635,1
1503515712967,+0.710,+0.580,+0.292,+0.273,+0.892,-0.113,-0.148,+32.125,+9.938,-27.812,-4, 9, 0, 3, -1, 2, -4, 5,2.3239613458576054,1.4127492584546766,1
1503515712988,+0.706,+0.581,+0.294,+0.278,+0.988,-0.167,-0.127,+30.688,+13.875,-24.188,-1, -13, -5, -1, 0, 0, 0, 0,2.3120105945720106,1.4175050191814629,1
1503515713005,+0.702,+0.582,+0.298,+0.281,+1.055,-0.167,-0.103,+24.062,+20.125,-15.688,-2, -5, -1, 1, -1, -1, -2, -5,2.3004724699410097,1.4246356534826639,1
1503515713026,+0.698,+0.586,+0.300,+0.283,+0.967,-0.070,-0.069,+24.188,+28.250,-14.875,0, 1, 4, -4, -3, -2, 1, -1,2.29556150662244,1.4367592732025836,1
1503515713048,+0.693,+0.587,+0.303,+0.289,+0.976,-0.064,-0.084,+33.750,+17.688,-22.875,-16, -9, 8, 1, 0, 0, -3, -6,2.280488337048899,1.4428036598706275,1
1503515713064,+0.690,+0.587,+0.304,+0.295,+1.045,-0.111,-0.079,+32.188,-0.125,-29.938,1, 0, -7, 0, 0, -2, -2, 9,2.2691347931190853,1.4441009451212383,1
1503515713086,+0.688,+0.585,+0.305,+0.302,+1.024,-0.119,-0.082,+29.625,-18.188,-29.625,-23, -3, -1, -1, -4, -1, -3, 1,2.2558839378331914,1.4406201435848363,1
1503515713109,+0.687,+0.583,+0.305,+0.309,+0.929,-0.100,-0.071,+28.500,-11.438,-26.125,-3, 1, 1, -3, -2, -2, 1, 3,2.2451926702582607,1.4360268587936973,1
1503515713124,+0.683,+0.585,+0.306,+0.313,+0.906,-0.095,-0.009,+22.812,+9.688,-29.062,13, 15, 14, 3, 11, 2, -4, -14,2.236913626545745,1.4420261958545024,1
1503515713146,+0.678,+0.588,+0.307,+0.317,+1.006,-0.076,-0.018,+16.938,+17.938,-31.438,-2, 0, -5, -1, -4, -4, -3, -8,2.228461925934158,1.450395509775404,1
1503515713169,+0.675,+0.589,+0.306,+0.322,+1.074,-0.056,-0.049,+12.750,-0.750,-31.000,-12, -20, -15, -2, -1, 1, -1, 13,2.2212757776508076,1.4515459238877613,1
1503515713184,+0.674,+0.589,+0.302,+0.328,+1.033,-0.054,-0.050,+5.375,-18.500,-39.812,8, 1, 2, -2, -1, -2, 3, 20,2.2174733985769515,1.4466998794995773,1
1503515713206,+0.674,+0.589,+0.296,+0.333,+0.957,-0.020,-0.012,-7.375,-26.062,-44.125,5, 4, 1, -1, -8, -1, -2, 2,2.217671129884327,1.4394561521975473,1
1503515713228,+0.673,+0.591,+0.289,+0.338,+0.945,+0.071,+0.000,-12.250,-13.125,-42.000,4, 6, 2, 1, -4, -2, -1, 0,2.219906400490623,1.4359819754438445,1
1503515713244,+0.673,+0.592,+0.284,+0.341,+1.087,+0.115,-0.049,-13.812,-14.625,-27.625,12, 3, 8, 4, -9, -1, -2, -12,2.22257865005025,1.4326043207121095,1
1503515713269,+0.676,+0.591,+0.278,+0.342,+1.126,+0.083,-0.125,-20.875,-24.688,-9.562,-13, -9, -3, -2, -3, 5, 3, -1,2.2297149054774135,1.4233972586011991,1
1503515713288,+0.679,+0.590,+0.273,+0.341,+1.009,+0.059,-0.072,-27.500,-31.562,-9.875,-10, 3, 4, 0, 4, 5, 1, 1,2.2378080410054544,1.415345038071611,1
1503515713305,+0.683,+0.587,+0.266,+0.343,+0.966,+0.068,-0.116,-25.438,-39.750,-15.500,1, -2, 7, 0, 10, -1, -2, 0,2.243549340015217,1.4004163143365747,1
1503515713326,+0.688,+0.583,+0.259,+0.345,+0.988,+0.076,-0.188,-19.000,-47.500,-12.875,-19, 2, -1, 2, -1, 1, 2, 1,2.2495241425081436,1.3833437667392323,1
1503515713348,+0.692,+0.580,+0.253,+0.346,+0.968,+0.049,-0.177,-21.875,-37.062,-10.375,4, -2, -6, -5, -6, -2, 1, 12,2.2554469798465053,1.3698407538251163,1
1503515713363,+0.696,+0.579,+0.249,+0.345,+0.958,+0.048,-0.170,-27.625,-24.812,-1.938,17, 5, -1, -2, -1, 0, 1, 3,2.264634764068233,1.3636252575685548,1
1503515713386,+0.698,+0.579,+0.246,+0.342,+0.970,+0.069,-0.184,-26.812,-5.688,+6.188,29, -1, -8, -4, 0, -5, -6, -13,2.272951515682506,1.3604611875539383,1
1503515713409,+0.699,+0.581,+0.243,+0.339,+0.998,+0.081,-0.201,-25.062,+6.188,+6.438,-14, -5, -1, 0, 0, -6, 2, -1,2.2825220811756766,1.3622246993089215,1
1503515713424,+0.700,+0.581,+0.241,+0.337,+1.054,+0.096,-0.220,-20.000,-3.125,+5.812,0, -1, 1, -1, -5, 2, -3, -4,2.287558708598407,1.3600863969323524,1
1503515713446,+0.703,+0.580,+0.238,+0.336,+1.042,+0.074,-0.178,-16.938,-19.562,+2.062,-5, -6, -6, 0, -14, -4, -14, -14,2.2943615642698565,1.3549106041411563,1
1503515713470,+0.706,+0.578,+0.235,+0.336,+0.952,+0.053,-0.168,-15.688,-24.250,-4.625,3, -1, -4, -1, 0, 5, 4, -7,2.298819954140267,1.347314223381514,1
1503515713483,+0.706,+0.578,+0.233,+0.336,+0.862,+0.054,-0.182,-11.438,-2.688,-4.500,-2, 1, -6, -2, 0, -1, -6, 0,2.3003618326249127,1.3451866617023918,1
1503515713507,+0.705,+0.580,+0.233,+0.336,+0.901,+0.081,-0.240,-0.500,+18.000,-4.625,-13, -21, -12, -4, 7, 0, -1, -16,2.3015388310157325,1.3500803802517538,1
1503515713528,+0.701,+0.583,+0.233,+0.338,+1.002,+0.126,-0.223,+6.000,+24.250,-14.312,25, 9, -1, -1, -2, 1, 3, 11,2.2973377568333393,1.3570149409267998,1
1503515713544,+0.700,+0.582,+0.232,+0.342,+1.065,+0.092,-0.199,+12.312,-3.000,-18.750,-12, -7, -5, -4, 5, 4, 0, -4,2.2912923433100683,1.3535243684358886,1
1503515713566,+0.701,+0.579,+0.232,+0.344,+1.039,+0.035,-0.164,+8.000,-24.188,-10.000,-2, 3, 1, 0, 0, 5, -1, 2,2.286759183825104,1.3462400794718483,1
1503515713588,+0.702,+0.578,+0.231,+0.345,+0.941,+0.050,-0.119,-2.250,-15.062,-3.625,-5, -5, 2, 1, 0, -4, -2, -2,2.2868208300633315,1.3429653709476124,1
1503515713604,+0.702,+0.579,+0.231,+0.344,+0.913,+0.055,-0.079,-4.812,+3.312,+3.875,-5, -9, -4, -2, -1, -1, 7, 16,2.2891924063903635,1.3454396278559353,1
1503515713626,+0.701,+0.581,+0.234,+0.342,+1.059,+0.105,-0.204,+0.062,+18.500,+14.438,-4, -1, 2, 0, -1, -16, -4, -7,2.289969939106269,1.3533164316992983,1
1503515713648,+0.702,+0.580,+0.234,+0.342,+1.077,+0.119,-0.251,+2.250,-4.312,+4.312,-3, -4, -3, 1, -1, -7, 2, -1,2.2901919597940967,1.3509931856216388,1
1503515713664,+0.705,+0.575,+0.232,+0.343,+1.000,+0.039,-0.183,+0.500,-36.250,+0.750,14, -12, -2, -3, 1, 17, -2, 1,2.2886244892627663,1.3368843997617865,1
1503515713686,+0.708,+0.573,+0.231,+0.343,+0.888,+0.002,-0.112,-5.125,-25.125,+0.750,-4, 3, -1, -3, 3, -10, 0, -2,2.2915655544002944,1.3314916187301673,1
1503515713709,+0.708,+0.574,+0.230,+0.342,+0.912,+0.037,-0.086,-11.938,-1.438,-0.312,0, -1, -2, -2, -1, -10, -3, 0,2.2946801336067577,1.3328910094235935,1
1503515713723,+0.708,+0.574,+0.229,+0.341,+1.070,+0.121,-0.212,-10.062,+2.125,+6.000,2, -4, 0, -1, -1, 2, -1, -15,2.2963836485787987,1.3317266214694363,1
1503515713745,+0.710,+0.573,+0.227,+0.341,+1.038,+0.140,-0.242,-7.312,-16.625,+2.375,14, 2, -1, -1, -6, 1, -10, 1,2.2998372073417843,1.3276012492716855,1
1503515713767,+0.713,+0.569,+0.223,+0.342,+0.967,+0.103,-0.207,-11.312,-34.500,-4.375,-10, 1, -1, -2, -2, -1, 4, -2,2.3013271049208757,1.3140982599264615,1
1503515713790,+0.715,+0.568,+0.221,+0.341,+0.885,+0.076,-0.205,-15.500,-12.250,+3.125,1, -1, 3, 3, -1, 4, 2, 28,2.3057617458594404,1.3099223601329675,1
1503515713805,+0.715,+0.571,+0.220,+0.339,+0.826,+0.102,-0.215,-16.125,+14.938,+4.000,-4, -1, 3, 1, -3, -6, 3, 7,2.312637392304679,1.3163908281608117,1
1503515713827,+0.713,+0.574,+0.220,+0.336,+0.957,+0.116,-0.257,-14.250,+25.625,+4.938,14, 2, -4, -2, -14, -19, 11, -7,2.316421134090654,1.323231595107494,1
1503515713850,+0.712,+0.577,+0.220,+0.334,+1.036,+0.102,-0.222,-11.938,+21.625,+6.000,8, -1, -3, -1, 6, 21, -3, 16,2.320906478627879,1.3304968750205388,1
1503515713865,+0.712,+0.577,+0.219,+0.334,+1.053,+0.109,-0.221,-1.688,-5.438,-1.000,-17, -15, -9, -7, -6, 1, 9, 1,2.3216961350855048,1.3294818986760655,1
1503515713887,+0.713,+0.575,+0.218,+0.336,+0.949,+0.100,-0.235,+0.812,-10.062,-6.938,5, -18, -9, -2, 3, 7, 0, 1,2.3193826600523275,1.3237828621236851,1
1503515713910,+0.714,+0.574,+0.217,+0.338,+0.884,+0.071,-0.174,+0.188,-10.000,-9.000,-21, 1, -4, -3, -5, -4, -9, -14,2.3184650486388576,1.3206829018763488,1
1503515713932,+0.712,+0.576,+0.217,+0.337,+0.991,+0.088,-0.168,-3.875,+10.688,+0.188,-15, -3, 1, 1, 2, 2, -6, -8,2.3189548728342078,1.3251852696953788,1
1503515713948,+0.711,+0.578,+0.218,+0.336,+1.027,+0.143,-0.253,+0.188,+16.625,+5.062,-11, -10, -2, 1, 2, -1, -4, -10,2.3203052647462896,1.3309937157214995,1
1503515713962,+0.711,+0.577,+0.218,+0.337,+0.963,+0.138,-0.263,+2.938,-0.375,+5.625,5, 1, -2, 0, -2, 2, 0, -5,2.317933327856101,1.3285070081819284,1
1503515713985,+0.713,+0.575,+0.220,+0.336,+0.958,+0.103,-0.221,+6.188,-6.688,+13.875,-20, 1, 3, -1, 2, -1, -3, -6,2.3178138871782084,1.3258152324177133,1
1503515714009,+0.711,+0.576,+0.223,+0.334,+0.900,+0.048,-0.146,+3.250,+18.750,+14.000,34, 10, -2, 0, -1, -6, -1, 30,2.3155112810919283,1.330703325771958,1
1503515714030,+0.709,+0.580,+0.227,+0.332,+0.950,+0.060,-0.168,+5.438,+31.812,+10.062,6, 3, -1, -3, 0, 17, 6, 7,2.3166091023240734,1.3444221383985575,1
1503515714045,+0.707,+0.582,+0.230,+0.330,+1.081,+0.077,-0.180,+5.438,+22.688,+16.250,-3, 0, 2, -2, -15, 2, 3, -10,2.3156962291777554,1.3519892137056122,1
1503515714067,+0.706,+0.582,+0.233,+0.329,+1.065,+0.084,-0.177,+6.250,+9.938,+14.000,29, 15, 4, 2, 1, 6, -3, 5,2.3126500369946728,1.3547817044609003,1
1503515714090,+0.707,+0.580,+0.234,+0.330,+0.963,+0.046,-0.151,+8.375,-9.000,+5.375,0, 1, 0, 0, -4, 6, -8, 7,2.309748439062019,1.3510333617085184,1
1503515714105,+0.708,+0.579,+0.235,+0.330,+0.910,+0.001,-0.143,+4.938,-9.500,+0.000,4, -1, 2, 0, 3, 3, 0, -7,2.309217565286324,1.3497737064990265,1
1503515714127,+0.707,+0.579,+0.235,+0.331,+0.931,+0.017,-0.162,+2.312,+2.000,-4.438,-25, -35, -8, -2, 2, -7, -4, 22,2.306613222552725,1.3496226667286713,1
1503515714142,+0.707,+0.580,+0.235,+0.331,+1.018,+0.033,-0.159,-2.125,+2.625,-3.812,-12, -12, -8, -2, 4, 1, -3, -9,2.3080155002584304,1.35219574986572,1
1503515714165,+0.706,+0.580,+0.235,+0.330,+1.001,+0.045,-0.141,-5.000,+0.312,-0.375,3, 8, 3, 0, 0, -14, -4, -3,2.3073153782272247,1.35184151260643,1
1503515714187,+0.707,+0.579,+0.234,+0.331,+1.001,+0.074,-0.151,-1.750,-10.062,-1.688,14, 11, 5, 0, -1, 13, -3, -6,2.3073923083367096,1.3485603366146983,1
1503515714202,+0.708,+0.578,+0.232,+0.333,+0.985,+0.092,-0.207,-0.312,-11.812,-8.938,-13, -9, -6, -3, -3, 2, -8, -9,2.3072947507860864,1.3443343895621984,1
1503515715125,+0.725,+0.578,+0.208,+0.311,+1.059,+0.134,-0.268,+8.375,-0.188,+18.312,15, 7, -1, -2, -1, -4, -1, 8,2.3760527259074165,1.3224788411970092,2
1503515715148,+0.727,+0.576,+0.211,+0.310,+1.112,+0.110,-0.266,+14.188,-4.688,+22.375,1, -7, -4, -2, 0, -4, -2, -13,2.3751384787722745,1.3206486875325023,2
1503515715170,+0.729,+0.572,+0.216,+0.308,+1.056,+0.060,-0.229,+16.625,-11.625,+32.938,14, 9, 2, 1, -2, 0, 0, 4,2.3711090001239254,1.3155647689357977,2
1503515715185,+0.730,+0.569,+0.223,+0.305,+1.012,+0.012,-0.209,+19.312,-1.375,+43.188,-4, -8, -5, -1, -2, 2, 5, 8,2.3662819704157294,1.3148208010859899,2
1503515715207,+0.731,+0.566,+0.231,+0.301,+1.083,+0.033,-0.268,+27.312,+6.688,+50.875,-8, 5, -4, -2, 0, 1, -4, 3,2.361779171336059,1.3152057013924272,2
1503515715230,+0.733,+0.562,+0.240,+0.299,+1.124,+0.036,-0.283,+35.500,-2.812,+54.375,11, 4, -4, -2, 0, 3, 1, -4,2.3549020335461286,1.3148943480320125,2
1503515715245,+0.736,+0.555,+0.250,+0.297,+1.062,-0.032,-0.271,+40.250,-14.750,+53.500,-6, -6, -4, -5, -7, 14, -2, -6,2.3454165186385665,1.3087497787343998,2
1503515715267,+0.737,+0.550,+0.260,+0.294,+0.960,-0.082,-0.213,+40.312,-8.562,+56.938,3, -3, -3, 0, -2, -4, 4, -3,2.336335954726603,1.3074391317483278,2
1503515715291,+0.738,+0.546,+0.272,+0.289,+0.958,-0.111,-0.219,+44.250,+8.875,+64.438,6, -10, -5, 0, 1, 0, -2, 0,2.3291853874214445,1.3111925203543082,2
1503515715305,+0.737,+0.542,+0.286,+0.285,+1.026,-0.108,-0.246,+50.500,+19.562,+65.125,-4, -23, 2, 1, 0, 1, -3, 1,2.316152655500781,1.3176178607283893,2
1503515715327,+0.737,+0.537,+0.299,+0.282,+1.044,-0.146,-0.246,+55.812,+9.188,+63.750,-29, -18, -6, -6, -3, -2, -5, -5,2.3035824835541674,1.3214932535650359,2
1503515715350,+0.736,+0.532,+0.312,+0.279,+0.977,-0.218,-0.176,+53.188,+3.875,+57.938,5, -6, -7, -1, -2, -6, -1, -5,2.289333401477763,1.3258530613412107,2
1503515715365,+0.734,+0.529,+0.325,+0.275,+0.901,-0.217,-0.127,+52.500,+15.938,+56.812,10, 3, 7, 12, 15, -18, 0, 5,2.2766684140313074,1.3354584928076898,2
1503515715387,+0.731,+0.527,+0.339,+0.271,+0.910,-0.217,-0.154,+56.625,+32.562,+58.062,-11, 2, 4, -4, -4, 10, 3, 2,2.26259557025665,1.349479590227392,2
1503515715410,+0.728,+0.524,+0.353,+0.268,+0.952,-0.260,-0.163,+57.125,+27.875,+56.000,5, 30, 7, -2, -5, 0, 4, 1,2.2463376228502883,1.3621167640226537,2
1503515715425,+0.725,+0.521,+0.365,+0.264,+0.935,-0.309,-0.132,+49.312,+18.188,+49.875,30, 2, 4, 2, 0, -1, -4, -1,2.232318134858865,1.3723524085884284,2
1503515715447,+0.722,+0.518,+0.376,+0.262,+0.859,-0.301,-0.081,+45.688,+18.938,+41.000,8, -16, -13, 3, 1, -4, 3, 3,2.2170571942263004,1.381965323271767,2
1503515715470,+0.718,+0.518,+0.388,+0.257,+0.811,-0.338,-0.026,+43.000,+36.812,+41.875,6, 7, 1, 1, 5, 25, 2, 1,2.205466556655626,1.4004425621577272,2
1503515715488,+0.712,+0.520,+0.399,+0.252,+0.867,-0.300,-0.057,+37.938,+51.688,+41.750,-5, -8, -1, -2, -2, 4, 2, 0,2.192727842757366,1.422361767081798,2
1503515715507,+0.708,+0.520,+0.408,+0.248,+0.946,-0.311,-0.067,+37.375,+37.688,+38.375,-26, 19, 13, 1, -2, -5, -1, -1,2.181943118805424,1.4370793615158577,2
1503515715530,+0.705,+0.518,+0.417,+0.246,+0.906,-0.386,-0.051,+34.562,+15.312,+30.625,-16, -33, -15, -1, -4, -7, -5, -1,2.168907437907766,1.4478823979136124,2
1503515715546,+0.703,+0.516,+0.424,+0.245,+0.834,-0.400,-0.045,+33.875,+7.938,+19.875,6, -1, -4, -4, -1, -3, 3, 5,2.1584193524772743,1.4556526042516984,2
1503515715567,+0.700,+0.516,+0.431,+0.243,+0.827,-0.375,-0.012,+29.125,+20.750,+20.312,-3, -3, -5, -1, 3, 5, 9, -3,2.1491992252381578,1.468175467890698,2
1503515715590,+0.696,+0.516,+0.437,+0.240,+0.849,-0.344,+0.037,+22.375,+25.875,+22.375,-3, -15, -6, -1, -3, -4, -1, 2,2.139117623803788,1.4788718080618002,2
1503515715605,+0.693,+0.517,+0.442,+0.237,+0.916,-0.374,+0.022,+14.625,+22.000,+20.562,-29, 5, 9, 3, -2, 0, -2, -7,2.133169601155802,1.4903135833572765,2
1503515715627,+0.692,+0.516,+0.446,+0.236,+0.895,-0.386,-0.058,+14.938,+13.188,+15.938,4, 12, -5, -8, -3, -7, -8, -2,2.1279596184808214,1.4956065441216824,2
1503515715651,+0.692,+0.514,+0.449,+0.235,+0.888,-0.423,-0.041,+14.750,-0.625,+11.750,5, -1, -9, -9, -5, -7, -8, 0,2.12422669060626,1.4967714326000066,2
1503515715665,+0.692,+0.513,+0.452,+0.234,+0.894,-0.417,+0.011,+7.562,-1.062,+15.062,9, 2, -4, -8, -1, -2, -3, 0,2.1218839679550396,1.5003196214576355,2
1503515715687,+0.691,+0.513,+0.454,+0.231,+0.859,-0.394,+0.035,-0.938,+8.688,+16.938,7, 20, 17, 13, 1, 0, -1, 0,2.1207817033521237,1.5040305057229921,2
1503515715710,+0.691,+0.514,+0.456,+0.227,+0.877,-0.378,+0.008,-6.750,+16.562,+17.000,15, -4, -1, -5, -1, 0, 8, 1,2.1241427269170146,1.5101147582995296,2
1503515715725,+0.691,+0.514,+0.457,+0.223,+0.955,-0.363,-0.029,-5.562,+12.750,+21.625,-6, -27, -12, -5, -3, -9, -28, -7,2.1267247771890694,1.511893019021121,2
1503515715747,+0.691,+0.512,+0.459,+0.221,+0.917,-0.378,-0.015,+0.750,+0.625,+21.688,12, 12, 2, 5, 0, 6, 6, 3,2.1243734476802953,1.5111721149819428,2
1503515715770,+0.692,+0.510,+0.461,+0.219,+0.873,-0.439,-0.018,+0.938,-1.688,+19.500,-9, -11, 1, 14, 3, 5, -1, -1,2.1243636003522015,1.510547089314428,2
1503515715786,+0.692,+0.510,+0.463,+0.216,+0.854,-0.393,-0.053,-1.750,+9.938,+16.562,-2, -23, -12, -3, -1, -1, 2, -1,2.1255873927426587,1.5144871333569778,2
1503515715807,+0.692,+0.510,+0.464,+0.213,+0.916,-0.405,+0.000,-2.375,+14.625,+16.688,-14, -3, 0, -5, -1, -1, -2, -3,2.1274111625134093,1.5163865714347,2
1503515715830,+0.692,+0.510,+0.466,+0.210,+0.971,-0.392,-0.028,-4.250,+8.125,+19.125,7, 5, -3, -5, -3, 0, 2, 3,2.1286470499980927,1.5203843081837636,2
1503515715846,+0.694,+0.508,+0.466,+0.209,+0.910,-0.383,-0.048,-2.250,-8.250,+15.812,-3, 6, 14, 8, 0, -2, -1, 0,2.1314484566232887,1.5157786305120464,2
1503515715867,+0.695,+0.506,+0.466,+0.208,+0.871,-0.391,-0.018,-6.375,-7.000,+9.688,3, 4, -3, -10, -3, -3, -1, 0,2.1319222090686774,1.5111077950525775,2
1503515715890,+0.696,+0.507,+0.465,+0.207,+0.940,-0.415,-0.000,-11.125,+1.938,+5.250,-4, 10, 3, -3, -3, -4, -1, -3,2.1370698797953933,1.5113598622795807,2
1503515715905,+0.697,+0.508,+0.463,+0.206,+0.979,-0.422,-0.036,-15.875,-0.812,-1.812,15, 1, 1, -1, 0, 6, 6, 6,2.1428204023377604,1.5095386461054807,2
1503515715928,+0.700,+0.507,+0.457,+0.209,+0.939,-0.362,-0.080,-21.438,-20.875,-15.312,9, -3, -14, -6, -5, -3, -1, -1,2.149677479735639,1.4952277688260747,2
1503515715950,+0.703,+0.507,+0.451,+0.213,+0.872,-0.325,-0.051,-22.188,-27.938,-24.688,7, -3, -3, 1, -1, -1, 0, -2,2.1569561085726994,1.483611497931695,2
1503515715965,+0.706,+0.507,+0.444,+0.216,+0.880,-0.338,-0.026,-27.188,-25.188,-31.750,-8, -6, 3, -2, -1, -3, -6, -4,2.1656409717418263,1.4701888129275307,2
1503515715988,+0.709,+0.509,+0.436,+0.219,+0.905,-0.380,-0.016,-37.000,-22.875,-35.000,0, -5, 1, -4, -4, -2, 0, -1,2.1774638110784834,1.4598885108845996,2
1503515716010,+0.713,+0.511,+0.426,+0.221,+0.894,-0.409,-0.008,-50.250,-24.875,-42.750,-18, 5, 0, -2, 0, 3, -1, -4,2.1935959656059896,1.4462440334987776,2
1503515716026,+0.716,+0.515,+0.413,+0.224,+0.858,-0.371,-0.093,-59.688,-15.375,-58.312,-10, -10, -8, 4, 1, -2, -3, -3,2.210981396170048,1.4324856848714278,2
1503515716047,+0.719,+0.522,+0.399,+0.227,+0.851,-0.284,-0.126,-64.812,-5.875,-68.625,-11, -13, -8, -3, 0, -1, 0, -1,2.2326902210340425,1.4252008935931613,2
1503515716069,+0.721,+0.529,+0.384,+0.231,+0.865,-0.270,-0.077,-66.312,-3.938,-72.125,-4, -5, 0, -3, -2, 1, 1, 1,2.251989738783804,1.4173617822988986,2
1503515716088,+0.722,+0.536,+0.369,+0.233,+0.858,-0.300,-0.070,-71.750,+1.750,-76.625,3, 11, 10, 6, 0, -1, 2, 4,2.271266080552784,1.41035225449325,2
1503515716107,+0.722,+0.546,+0.354,+0.235,+0.838,-0.286,-0.087,-75.688,+10.562,-82.250,11, 10, 0, -3, -3, 0, 3, 0,2.2924519229711824,1.411765941743121,2
1503515716130,+0.721,+0.556,+0.338,+0.238,+0.856,-0.210,-0.149,-68.625,+21.938,-86.688,-12, -3, 1, -4, -3, -1, -2, -3,2.311853396185808,1.4129336424117849,2
1503515716146,+0.719,+0.564,+0.323,+0.245,+0.892,-0.101,-0.212,-49.375,+18.000,-90.562,-4, 6, -2, 2, 0, -1, -2, -3,2.3226470334508966,1.4120790201594806,2
1503515716167,+0.718,+0.570,+0.311,+0.251,+0.933,-0.157,-0.170,-33.812,+4.125,-80.125,8, 13, 0, -2, -1, -1, -2, 4,2.3317492866452865,1.4113255591225509,2
1503515716190,+0.717,+0.575,+0.301,+0.256,+0.970,-0.206,-0.129,-37.000,+0.062,-68.812,3, -7, -1, 0, -1, -2, 3, -4,2.3392100924963133,1.4111826934925837,2
1503515716205,+0.717,+0.579,+0.290,+0.259,+0.950,-0.150,-0.155,-41.375,-0.250,-60.188,-4, -3, -3, -5, -2, 0, 1, 3,2.3501016106838484,1.407731905490612,2
1503515716227,+0.716,+0.582,+0.281,+0.262,+1.006,-0.060,-0.171,-31.188,-0.750,-46.625,20, 3, -9, -6, -3, -2, -1, 7,2.3565446611354797,1.4044718480308531,2
1503515716250,+0.715,+0.585,+0.276,+0.266,+1.056,-0.048,-0.182,-12.750,+2.625,-37.750,-2, -19, -9, -2, 0, 1, -2, -3,2.3587473140327258,1.4063393301336256,2
1503515716265,+0.715,+0.585,+0.271,+0.269,+1.034,-0.102,-0.137,-9.688,-7.812,-32.562,-8, -2, -2, -1, -2, -1, -2, -6,2.359857581486508,1.4007555238546678,2
1503515716290,+0.715,+0.587,+0.268,+0.269,+1.013,-0.125,-0.133,-18.000,+0.125,-18.062,0, 0, 1, 2, 1, -1, 3, 1,2.3649022487486735,1.4024031855177388,2
1503515716310,+0.715,+0.590,+0.264,+0.268,+1.026,-0.025,-0.220,-24.062,+16.812,-9.188,4, -1, 0, 2, 1, 1, -1, 0,2.373095265862721,1.405442897021566,2
1503515716326,+0.713,+0.593,+0.261,+0.267,+1.030,+0.098,-0.172,-14.688,+21.812,-5.375,-15, 0, 1, -1, -1, 1, -1, -4,2.377284388253394,1.4093099873900647,2
1503515716347,+0.711,+0.594,+0.261,+0.269,+1.131,+0.051,-0.076,+5.312,+2.375,-5.312,-2, 3, 6, 5, 2, -1, -3, 0,2.3733133740359182,1.4116736760242141,2
1503515716370,+0.712,+0.593,+0.261,+0.272,+1.207,-0.081,-0.025,+8.375,-21.062,-13.312,1, -3, 0, 1, -1, 0, 1, -2,2.370557815056719,1.4095390874150229,2
1503515716385,+0.713,+0.591,+0.259,+0.274,+1.128,-0.125,-0.095,-2.812,-20.875,-14.312,2, 0, -3, -1, -1, -2, -3, 1,2.369250323993932,1.402527239405184,2
1503515716407,+0.713,+0.592,+0.255,+0.274,+1.045,+0.012,-0.095,-15.250,-6.000,-10.875,2, 5, 10, 2, 0, -1, 0, 0,2.3739348274046903,1.400674543723792,2
1503515716430,+0.713,+0.593,+0.253,+0.276,+0.955,+0.118,-0.079,-5.312,-1.312,-5.875,0, -2, -7, -4, -1, -2, 0, 1,2.3748685307831483,1.4012350871193584,2
1503515716446,+0.711,+0.594,+0.253,+0.277,+1.022,+0.062,-0.071,+8.062,-0.438,-3.312,1, 4, 3, 4, 0, 2, -1, 2,2.371964470750514,1.4035028990850804,2
1503515716475,+0.711,+0.594,+0.254,+0.278,+1.103,-0.108,-0.077,+5.875,-1.250,-5.438,0, 1, -1, -1, 3, 0, -2, -3,2.3700896562050167,1.4046799896565898,2
1503515716497,+0.711,+0.594,+0.253,+0.278,+1.067,-0.114,-0.112,-10.500,-7.062,-8.250,2, -7, -8, -4, -1, -1, 0, -2,2.370942173924223,1.4035872165774002,2
1503515716506,+0.713,+0.594,+0.250,+0.277,+1.038,-0.003,-0.069,-17.500,-11.625,-2.438,-3, 4, 0, 1, 0, -2, 0, -1,2.3776898653060043,1.4006458760759983,2
1503515716528,+0.713,+0.594,+0.248,+0.277,+1.037,+0.032,-0.064,-10.625,-10.312,-0.938,9, 3, 2, -1, -3, 0, -1, 0,2.3794078580678577,1.3984933690281236,2
1503515716549,+0.713,+0.595,+0.247,+0.276,+1.067,+0.003,-0.074,-10.125,+0.312,+0.438,-2, 18, 5, -1, -1, -1, -1, 0,2.3825865469843674,1.3999265318867562,2
1503515716566,+0.714,+0.596,+0.245,+0.273,+1.036,+0.008,-0.129,-19.375,+0.750,+5.250,-5, -12, -7, -2, -2, -3, 1, -1,2.39027699307178,1.4003422587867806,2
1503515716588,+0.714,+0.598,+0.244,+0.270,+1.020,+0.067,-0.142,-22.875,+11.438,+12.688,-5, -11, -5, 1, -2, 1, -2, -3,2.3968297008765216,1.4042305320133357,2
1503515716609,+0.714,+0.601,+0.243,+0.266,+1.074,+0.055,-0.118,-20.750,+17.062,+15.438,0, 0, -7, -5, 0, 0, -2, -2,2.405703904653657,1.4106609822953957,2
1503515716626,+0.714,+0.602,+0.243,+0.263,+1.088,+0.015,-0.138,-15.875,+12.375,+14.688,-9, -10, -6, -4, -2, -3, 2, -3,2.4101329568132863,1.413031674632634,2
1503515716648,+0.715,+0.602,+0.243,+0.259,+1.066,-0.032,-0.125,-13.250,-0.438,+17.625,14, 29, 10, 1, -2, -1, -4, -2,2.415913496313935,1.4129153148449212,2
1503515716670,+0.717,+0.601,+0.243,+0.256,+1.043,-0.080,-0.112,-13.312,-8.125,+14.125,-5, -8, -5, -4, -3, -2, 6, -2,2.4209300865707846,1.4104608424233973,2
1503515716686,+0.719,+0.599,+0.243,+0.255,+1.001,-0.094,-0.085,-8.875,-13.875,+8.250,2, -5, -2, 0, 0, -1, 0, 2,2.422596502523219,1.4055640424593916,2
1503515716708,+0.720,+0.598,+0.242,+0.255,+0.952,-0.105,-0.116,-5.062,-13.562,-4.938,-6, -5, 0, 0, -1, 1, -1, 4,2.42379916831435,1.402117731716786,2
1503515716731,+0.721,+0.597,+0.241,+0.256,+0.892,-0.088,-0.155,-1.625,-5.312,-10.750,-1, 0, -2, 1, 0, 1, -2, -1,2.423916505912537,1.3987600431601401,2
1503515716746,+0.720,+0.598,+0.241,+0.257,+0.882,-0.104,-0.161,+2.688,+10.500,-12.500,-6, -17, -5, -1, -1, -2, -2, -2,2.422529979294112,1.4012410667687,2
1503515716768,+0.717,+0.600,+0.242,+0.258,+0.932,-0.124,-0.121,+5.812,+18.688,-12.875,-6, 5, 0, 0, -1, -1, -1, -2,2.4184517946147586,1.4069712134614056,2
1503515716789,+0.715,+0.602,+0.243,+0.259,+0.975,-0.123,-0.093,+4.938,+11.500,-11.375,8, -2, -1, -1, 1, -2, -3, -1,2.415913496313935,1.4129153148449212,2
1503515716806,+0.715,+0.601,+0.243,+0.261,+0.971,-0.079,-0.107,+7.875,-6.438,-12.500,-1, 4, 5, 3, 2, 1, 3, 2,2.412536586769986,1.410464997088942,2
1503515716828,+0.716,+0.599,+0.241,+0.265,+0.961,-0.028,-0.122,+8.438,-18.938,-19.562,5, -2, -1, -1, -4, -2, -2, -3,2.409093405741798,1.4036872043083874,2
1503515716850,+0.716,+0.597,+0.240,+0.269,+0.965,-0.016,-0.101,+7.062,-16.562,-14.062,-8, 1, -7, -3, -1, 2, 12, 1,2.4032284299744897,1.3977697663755495,2
1503515716866,+0.717,+0.597,+0.241,+0.269,+0.970,-0.052,-0.106,+2.812,-4.938,-0.438,2, -8, -5, 0, -3, -4, -5, 1,2.4038756724906096,1.3990149919700632,2
1503515716888,+0.716,+0.598,+0.242,+0.267,+0.962,-0.047,-0.099,-3.000,+12.312,+9.312,-1, -2, 1, -3, 3, 0, -4, -4,2.4048314512604447,1.4022896881787423,2
1503515716910,+0.715,+0.599,+0.244,+0.265,+1.018,-0.006,-0.084,-2.062,+10.938,+10.188,-2, 5, 1, 5, -1, -2, -1, -1,2.404897756262691,1.4066238500984913,2
1503515716929,+0.715,+0.600,+0.243,+0.264,+1.073,+0.008,-0.074,-4.625,-1.688,+4.312,0, 10, 4, -2, -2, 1, -1, -1,2.408097081483865,1.4080970969733049,2
1503515716948,+0.716,+0.599,+0.242,+0.264,+1.038,+0.001,-0.091,-7.938,-9.875,+3.562,1, -1, 1, 0, 1, -3, -1, 1,2.409267551775974,1.4046480665900187,2
1503515716970,+0.717,+0.598,+0.242,+0.263,+0.964,+0.001,-0.122,-7.000,-6.938,+7.312,0, -2, 0, -3, 1, 2, -1, -2,2.410618832542859,1.4021654575927442,2
1503515716986,+0.718,+0.598,+0.242,+0.262,+0.961,-0.008,-0.131,-6.688,-2.062,+7.250,-1, -2, 0, 0, 0, 0, 0, -1,2.413212341947302,1.402284990862389,2
1503515717008,+0.718,+0.599,+0.241,+0.260,+1.023,-0.027,-0.104,-9.812,+2.062,+3.062,0, 16, 2, -3, -1, -5, -3, -5,2.417484527092374,1.4036848742710644,2
1503515717030,+0.717,+0.600,+0.240,+0.259,+1.061,-0.038,-0.069,-11.312,+6.188,+3.062,-1, 2, -2, -3, 0, -4, -1, -2,2.419178003113436,1.4049758366404939,2
1503515717046,+0.717,+0.601,+0.240,+0.258,+1.030,-0.037,-0.092,-6.750,-1.000,-3.250,25, 7, 0, 0, -1, 2, -2, -2,2.4214854499959713,1.4075049841531935,2
1503515717068,+0.719,+0.599,+0.237,+0.261,+0.997,-0.038,-0.146,-3.500,-18.312,-15.312,-10, -6, -1, 1, -2, -1, -2, -6,2.4215126193314576,1.3998449175109584,2
1503515717090,+0.721,+0.596,+0.234,+0.264,+0.965,-0.039,-0.193,+1.312,-26.688,-17.938,-7, -3, 0, 0, -3, 0, 1, 1,2.420301795424052,1.389631802612075,2
1503515717106,+0.722,+0.594,+0.232,+0.268,+0.971,-0.018,-0.172,+6.750,-20.375,-17.375,-12, -3, -1, -2, 0, -1, 4, 4,2.416815533448337,1.3829525372165457,2
1503515717129,+0.722,+0.593,+0.231,+0.270,+0.979,-0.002,-0.120,+3.312,-9.125,-12.688,41, 24, 3, 2, -1, -1, -3, -6,2.4143110681523887,1.379510827234575,2
1503515717149,+0.721,+0.593,+0.232,+0.271,+0.950,+0.001,-0.152,+4.125,+6.062,-3.125,-29, -21, -2, 0, 0, 1, 0, 1,2.410824749887727,1.3803862956427821,2
1503515717166,+0.720,+0.594,+0.233,+0.272,+0.914,-0.008,-0.176,+8.000,+13.812,+0.812,-4, -5, -2, 0, 0, 0, -1, -1,2.4085847101016347,1.383871097438875,2
1503515717188,+0.718,+0.595,+0.235,+0.273,+0.961,+0.000,-0.157,+10.688,+10.812,-3.500,5, -1, 0, -1, -1, -3, -5, 12,2.403947461058534,1.3881647157697985,2
1503515717210,+0.717,+0.596,+0.235,+0.274,+1.040,-0.006,-0.099,+7.188,+2.062,-5.562,-1, -1, 6, 3, 1, 2, 4, 8,2.402613277704789,1.390637712177758,2
1503515717226,+0.717,+0.596,+0.236,+0.275,+1.048,-0.030,-0.055,+2.312,-3.500,-1.812,-11, -3, -12, -6, -5, 1, -4, -15,2.4006742517824997,1.3917467278950553,2
1503515717248,+0.717,+0.596,+0.236,+0.274,+1.003,-0.006,-0.070,-4.812,-3.125,+3.312,-11, -10, -7, -3, -1, 0, 0, 2,2.401732259639337,1.391662666767376,2
1503515717270,+0.717,+0.596,+0.236,+0.273,+0.986,+0.044,-0.106,-3.938,-0.438,+4.188,-2, -2, 0, -1, 0, -1, 1, -3,2.40279231506685,1.3915785275189836,2
1503515717286,+0.717,+0.596,+0.235,+0.274,+1.006,+0.047,-0.131,-1.750,-4.562,+2.000,-4, -5, 0, 0, 2, -2, -4, -5,2.402613277704789,1.390637712177758,2
1503515717308,+0.718,+0.595,+0.234,+0.274,+1.027,+0.046,-0.110,-5.938,-10.062,+0.375,3, 4, 5, -1, 0, -1, 0, 1,2.4037652023278637,1.3872276282670952,2
1503515717330,+0.719,+0.595,+0.232,+0.274,+0.997,+0.050,-0.126,-7.938,-7.750,+2.375,5, 2, 0, -2, 0, -1, 1, 4,2.4070547984198485,1.385411883233697,2
1503515717346,+0.720,+0.595,+0.232,+0.273,+0.947,+0.044,-0.159,-6.062,-3.188,+5.438,-6, -6, -6, -2, 3, 2, -2, 5,2.4096423530545192,1.3855456235732675,2
1503515717368,+0.720,+0.595,+0.231,+0.272,+0.964,+0.033,-0.162,-7.188,+1.125,+7.250,-6, -25, -13, -4, -2, -3, 2, 6,2.41159960291978,1.3844495511942316,2
1503515717390,+0.720,+0.595,+0.231,+0.270,+1.021,+0.029,-0.127,-7.312,+3.062,+6.812,-13, -14, -1, 0, 0, -1, -1, -4,2.413750796619796,1.3842781669488686,2
1503515717406,+0.720,+0.596,+0.231,+0.270,+1.046,+0.021,-0.108,-3.875,-0.812,+5.625,-12, 3, 2, 1, 1, -1, -7, -26,2.414990850179741,1.386886301989792,2
1503515717430,+0.722,+0.594,+0.230,+0.270,+1.019,+0.022,-0.149,-3.562,-14.125,+1.125,-6, -3, 6, 4, 0, 1, 3, 7,2.416432147705138,1.3811084206602626,2
1503515717450,+0.724,+0.592,+0.228,+0.270,+0.980,-0.005,-0.180,-7.688,-19.750,+1.938,4, 9, -1, -3, -2, -2, -2, -1,2.4187764686211786,1.374345676238145,2
1503515717467,+0.726,+0.591,+0.228,+0.269,+0.965,+0.013,-0.169,-9.438,-4.250,+8.312,9, 7, 5, 1, 0, 0, 1, 1,2.4216657110782274,1.3721160348797936,2
1503515717488,+0.726,+0.592,+0.228,+0.266,+1.002,+0.019,-0.145,-6.938,+6.188,+12.812,21, 19, 0, 0, 0, 1, 4, 10,2.426156306949409,1.3744518491730398,2
1503515717511,+0.726,+0.592,+0.229,+0.264,+1.020,-0.021,-0.144,-5.000,-0.750,+12.312,20, -4, 1, -1, -2, 1, 1, 4,2.4274555705247693,1.3752737524114682,2
1503515717526,+0.728,+0.590,+0.229,+0.263,+0.995,-0.057,-0.157,-6.875,-11.062,+9.188,-12, 4, 0, -2, 1, -1, -1, -6,2.4291639945934986,1.370438677745892,2
1503515717548,+0.730,+0.588,+0.228,+0.263,+0.943,-0.033,-0.151,-8.812,-18.875,+0.750,-2, -2, -1, 0, -4, -3, -3, -2,2.4306841229067375,1.3647065349879708,2
1503515717570,+0.731,+0.587,+0.226,+0.264,+0.921,-0.011,-0.181,-5.812,-8.000,-8.375,-5, -2, -1, -2, -3, -4, -1, -1,2.4316764338319765,1.3604454764761995,2
1503515717586,+0.732,+0.586,+0.224,+0.265,+0.941,-0.012,-0.190,-0.750,-7.812,-6.750,-7, -1, -1, 3, 1, 0, -3, -2,2.4326650356626,1.3562014401711353,2
1503515717608,+0.733,+0.584,+0.225,+0.265,+0.971,-0.070,-0.192,+2.688,-12.062,+0.750,5, 2, 0, 0, 0, -1, -1, 4,2.4309141429023176,1.3522409306612235,2
1503515717632,+0.735,+0.582,+0.225,+0.265,+0.954,-0.070,-0.184,-3.750,-15.875,+2.688,4, -14, -8, -2, -2, -1, 0, -3,2.43158131403972,1.3475550052650673,2
1503515717646,+0.736,+0.581,+0.224,+0.264,+0.944,-0.021,-0.144,-7.750,-9.000,+3.688,0, 3, 1, 1, 0, 2, 3, 2,2.433923897728815,1.3441230683324692,2
1503515717669,+0.737,+0.581,+0.223,+0.264,+0.953,-0.008,-0.166,-6.125,-4.062,-1.562,-1, 3, 1, -1, -1, -1, 0, 0,2.436320674488929,1.3433943328298825,2
1503515717690,+0.737,+0.580,+0.222,+0.264,+0.999,-0.034,-0.174,-1.688,-7.625,-0.625,2, 5, 0, 1, 5, 0, -2, -4,2.436037537890149,1.3398088656368743,2
1503515717708,+0.739,+0.578,+0.222,+0.264,+1.008,-0.046,-0.188,-3.438,-16.000,+7.188,1, 1, 0, -1, -3, -2, -2, 0,2.4367356705529115,1.3351501278901738,2
1503515717728,+0.742,+0.575,+0.222,+0.262,+0.991,-0.035,-0.189,-6.688,-22.250,+11.438,7, 3, -4, -2, -1, 1, 0, 1,2.4400861292980425,1.3279785394571755,2
1503515717758,+0.744,+0.573,+0.221,+0.262,+0.922,-0.006,-0.192,-7.188,-17.000,+8.000,-11, 6, 15, 3, -1, -2, -1, -5,2.4417143801609456,1.3223676369132331,2
1503515717773,+0.745,+0.572,+0.221,+0.261,+0.939,-0.004,-0.176,-5.438,-7.125,+7.812,0, -7, -7, -4, -2, -2, -1, -2,2.4432374954251603,1.3199520287619935,2
1503515717788,+0.745,+0.573,+0.222,+0.258,+1.020,-0.051,-0.152,-9.375,+6.312,+13.062,2, 1, 0, -5, -2, -2, -1, 0,2.4469246842078087,1.3232013904264632,2
1503515717810,+0.746,+0.574,+0.222,+0.254,+1.053,-0.055,-0.185,-12.688,+7.438,+15.812,8, 1, -2, -1, -1, 0, 1, 0,2.45415790407556,1.3256389888929858,2
1503515717833,+0.747,+0.573,+0.222,+0.251,+1.043,-0.047,-0.207,-13.062,-9.562,+14.062,-12, -20, -6, -1, -3, 0, 2, -1,2.4580248030732417,1.3230010079415453,2
1503515717848,+0.751,+0.570,+0.220,+0.250,+1.021,-0.075,-0.203,-14.875,-30.562,+10.812,1, 11, 2, 1, -1, -1, -4, -2,2.463678225997501,1.3142930498250573,2
1503515717870,+0.755,+0.566,+0.219,+0.248,+0.988,-0.080,-0.200,-14.062,-28.875,+9.938,-3, -8, -2, -1, 2, 4, 1, -1,2.4685891366556194,1.3039142179937464,2
1503515717892,+0.757,+0.565,+0.218,+0.245,+0.926,-0.070,-0.221,-13.000,-10.812,+12.562,-1, 21, -6, -2, 0, 0, -1, -4,2.4749622124862367,1.3006061516370164,2
1503515717909,+0.758,+0.564,+0.218,+0.242,+0.915,-0.068,-0.217,-12.375,-1.938,+17.125,-8, -2, -6, -4, -2, -1, 0, -1,2.478987144498489,1.2979711360206054,2
1503515717931,+0.759,+0.565,+0.218,+0.239,+0.985,-0.042,-0.241,-13.312,+5.562,+17.188,1, -3, 0, 0, 1, -3, -3, 1,2.48511960019183,1.3005109501304257,2
1503515717952,+0.759,+0.566,+0.218,+0.236,+1.018,+0.016,-0.254,-12.562,+10.688,+11.875,-5, -6, -2, -1, -4, -3, -1, 1,2.489774593394229,1.3027520293835475,2
1503515717969,+0.760,+0.565,+0.218,+0.236,+0.960,+0.032,-0.314,-0.250,+0.625,+9.562,7, -5, 6, 1, 0, -2, 4, 1,2.490217612875868,1.3004633248304693,2
1503515717990,+0.762,+0.562,+0.219,+0.236,+0.943,-0.040,-0.285,+6.250,-13.250,+9.938,-8, 21, 7, 2, -1, -1, -3, -6,2.489202469590459,1.294283891587251,2
1503515718012,+0.762,+0.561,+0.219,+0.235,+1.011,-0.045,-0.229,-0.250,-5.938,+12.125,11, -5, 1, 2, 0, -2, 0, 1,2.4893990203160423,1.2915780696000214,2
1503515718028,+0.762,+0.562,+0.220,+0.234,+0.977,-0.002,-0.242,-1.875,+6.188,+10.562,1, -2, 4, -1, 0, 0, -1, 3,2.49073634016107,1.2950192683602504,2
1503515718050,+0.761,+0.563,+0.220,+0.235,+0.915,-0.001,-0.286,+6.000,+11.562,-0.750,-3, -4, -1, -1, 0, 2, 0, 0,2.489060497761879,1.2974188609448842,2
1503515718070,+0.761,+0.563,+0.220,+0.237,+0.959,-0.023,-0.265,+8.688,+0.500,-7.438,-31, -32, -13, -4, -1, -1, -5, -4,2.4866391524320646,1.2976568834877438,2
1503515718088,+0.760,+0.562,+0.220,+0.241,+1.020,-0.022,-0.227,+12.812,-8.438,-12.500,7, -6, -7, -3, -1, -2, 1, -2,2.4793027805741943,1.2952462883887712,2
1503515718111,+0.759,+0.561,+0.221,+0.245,+0.977,-0.039,-0.220,+15.250,-4.750,-15.312,-2, 12, 2, 0, -1, -1, -2, -2,2.471087453723241,1.2938241332838147,2
1503515718132,+0.758,+0.562,+0.221,+0.247,+0.936,-0.028,-0.207,+12.750,+6.562,-12.625,1, -1, -1, -1, 0, -1, 0, -3,2.468256447269881,1.2963376695483895,2
1503515718148,+0.755,+0.564,+0.222,+0.249,+0.987,-0.015,-0.206,+10.438,+14.812,-8.625,7, 8, 16, 4, 2, 1, 2, 1,2.4626145826026886,1.3018156079350358,2
1503515718171,+0.753,+0.565,+0.223,+0.251,+1.034,-0.019,-0.212,+9.375,+10.375,-4.250,2, 3, -3, -1, 0, -2, -8, -3,2.4574341037722123,1.3050273374636314,2
1503515718192,+0.752,+0.565,+0.225,+0.252,+1.030,-0.037,-0.212,+9.250,+1.625,-1.875,12, -9, -5, -4, -4, -1, -1, 2,2.4529884090158136,1.3068456785103528,2
1503515718208,+0.752,+0.565,+0.226,+0.253,+1.002,-0.043,-0.208,+8.562,-0.625,-1.938,-3, 1, -5, -5, -1, -1, 2, -1,2.4509509614424916,1.307967649231363,2
1503515718231,+0.752,+0.565,+0.227,+0.254,+0.980,-0.039,-0.214,+7.438,-0.438,+0.188,0, -6, -7, 2, 2, 0, 1, 0,2.4489203520514224,1.3090929760406507,2
1503515718246,+0.752,+0.564,+0.227,+0.255,+0.960,-0.061,-0.218,+4.188,-6.375,-0.562,2, -1, -7, -3, -2, -1, -1, 1,2.446667736571166,1.3066369215540938,2
1503515718272,+0.752,+0.562,+0.228,+0.257,+0.976,-0.071,-0.231,+9.062,-8.500,-5.312,-4, -12, -1, 1, 0, 1, 3, -3,2.441293584738417,1.302746016825083,2
1503515718290,+0.752,+0.562,+0.227,+0.260,+0.955,-0.045,-0.243,+10.375,-4.000,-14.375,-1, -6, -5, 3, 3, 0, -3, 2,2.438701995649279,1.3020925469857139,2
1503515718309,+0.751,+0.561,+0.228,+0.263,+0.944,-0.040,-0.262,+13.188,-4.125,-13.250,-1, 7, 4, -6, -6, -2, 0, -1,2.4317466791401103,1.300606757709015,2
1503515718328,+0.751,+0.559,+0.228,+0.266,+0.982,-0.073,-0.239,+11.125,-7.125,-6.688,-16, -17, 1, 3, 3, 1, -2, -4,2.4260875624778357,1.2958450590402615,2
1503515718351,+0.751,+0.559,+0.229,+0.266,+1.023,-0.070,-0.187,+6.438,-0.750,-3.312,9, 10, 2, -1, -5, -2, 0, 0,2.425242345170986,1.2968705190915983,2
1503515718366,+0.749,+0.560,+0.230,+0.268,+1.019,-0.042,-0.193,+6.875,+4.688,-4.438,11, 16, 9, 0, 0, -4, -1, 2,2.42011367077379,1.3001067955715375,2
1503515718388,+0.749,+0.560,+0.231,+0.270,+0.990,-0.007,-0.250,+9.312,-1.188,-6.250,23, 6, -5, -3, 1, 0, 4, 0,2.417024966699304,1.3013860297261943,2
1503515718411,+0.750,+0.557,+0.231,+0.272,+0.960,-0.028,-0.250,+9.500,-16.500,-6.750,-33, -14, -2, 2, -1, 1, -2, -1,2.412953831805576,1.2942657773794832,2
1503515718433,+0.752,+0.554,+0.230,+0.274,+0.966,-0.080,-0.201,+2.062,-25.062,-4.688,-5, 7, 10, 1, 0, 1, -7, -1,2.4113201414841625,1.2864402741858765,2
1503515718448,+0.753,+0.553,+0.229,+0.274,+0.962,-0.070,-0.179,-4.125,-12.812,-2.938,5, 2, -2, 4, 20, 5, 2, 0,2.4126099084047024,1.2831665723663332,2
1503515718472,+0.752,+0.554,+0.229,+0.274,+0.965,-0.016,-0.183,-5.188,-0.250,+1.375,-6, 0, -2, -2, -9, -3, -1, -2,2.4121463731180572,1.285404492563417,2
1503515718493,+0.753,+0.553,+0.228,+0.275,+0.966,+0.039,-0.281,+3.000,-3.312,+1.750,3, -2, -3, -3, -4, -1, 4, -2,2.4123115603902803,1.2822636031435966,2
1503515718508,+0.754,+0.550,+0.227,+0.277,+0.926,+0.013,-0.271,+4.750,-22.125,-3.688,3, -4, -2, -1, -1, 0, 1, 0,2.4090849905605567,1.274166096208283,2
1503515718531,+0.756,+0.548,+0.227,+0.278,+0.939,-0.060,-0.225,-0.062,-18.125,-1.438,-11, -6, -5, -2, -3, 0, -3, -2,2.4089142637841703,1.2698565245474456,2
1503515718553,+0.756,+0.549,+0.227,+0.276,+0.942,-0.051,-0.198,-7.250,+3.312,+2.125,0, 1, -2, -1, -5, -4, -2, -1,2.4122911973415895,1.2721317662496994,2
1503515718568,+0.754,+0.552,+0.226,+0.273,+0.949,+0.003,-0.246,-13.938,+22.562,+10.000,6, -1, -3, -2, 0, -3, -4, -3,2.416684898921482,1.2777120480102697,2
1503515718591,+0.754,+0.554,+0.227,+0.271,+0.979,+0.051,-0.298,-9.438,+16.062,+15.812,-5, -12, -12, -5, -3, -3, -4, 1,2.4203705319243762,1.2835850542938143,2
1503515718613,+0.753,+0.555,+0.227,+0.270,+0.989,+0.041,-0.307,-1.188,+13.562,+9.125,-1, -4, -4, -1, -1, 0, -3, 0,2.4210432549911056,1.285699034627861,2
1503515718628,+0.754,+0.554,+0.228,+0.270,+1.035,-0.000,-0.277,+6.500,-1.062,+7.312,-1, 2, -1, -2, -1, 1, 3, 5,2.420671065172275,1.2844828327074398,2
1503515718651,+0.755,+0.552,+0.229,+0.269,+1.022,-0.066,-0.205,+0.062,-15.125,+11.312,5, 9, 6, 1, 1, 2, -7, -1,2.4203267349327016,1.2805929431443333,2
1503515718674,+0.757,+0.551,+0.229,+0.267,+0.984,-0.031,-0.210,-10.375,-6.938,+14.062,-6, -1, 1, -4, -7, -6, -6, -13,2.4246766890221116,1.2784132468954983,2
1503515718694,+0.757,+0.553,+0.230,+0.263,+0.925,+0.012,-0.242,-9.625,+12.125,+19.688,-3, -4, 2, 1, -1, -2, -2, 2,2.4306193743009694,1.2840227348218483,2
1503515718711,+0.756,+0.554,+0.232,+0.260,+0.999,+0.005,-0.284,+1.812,+16.938,+23.188,9, -6, -1, -1, -2, -2, -2, -3,2.431900223523312,1.287945598710167,2
1503515718733,+0.755,+0.555,+0.234,+0.259,+1.028,+0.006,-0.265,+6.312,+12.062,+14.188,-2, -1, 1, 0, -2, -2, 2, -2,2.430877814337812,1.2921467088987744,2
1503515718749,+0.755,+0.553,+0.236,+0.259,+0.961,-0.056,-0.219,+9.188,-3.125,+11.188,1, 3, -4, -1, 0, 4, 10, 8,2.427000446291474,1.2891370321028626,2
1503515718782,+0.755,+0.553,+0.239,+0.257,+0.968,-0.090,-0.209,+4.625,+6.125,+16.438,-6, 1, 5, 3, 3, 2, 3, -5,2.42677428745703,1.2920516358810927,2
1503515718800,+0.753,+0.556,+0.243,+0.254,+0.931,-0.077,-0.240,+4.250,+31.438,+19.000,0, 13, 2, -1, -4, -2, -5, -9,2.426928863629514,1.3029957911440877,2
1503515718809,+0.750,+0.559,+0.248,+0.251,+0.971,-0.091,-0.229,+9.062,+35.938,+19.750,-16, -14, -1, 2, 1, -2, 1, 0,2.4246179769495746,1.314823017510583,2
1503515718831,+0.748,+0.561,+0.252,+0.249,+1.015,-0.107,-0.244,+14.375,+27.438,+17.812,15, -1, -6, -4, -1, -3, -4, 7,2.4224946466027752,1.3235147143136867,2
1503515718853,+0.747,+0.561,+0.255,+0.250,+0.959,-0.065,-0.221,+18.375,+9.250,+5.062,-1, 1, -1, 1, 0, -2, 1, 4,2.417218785124898,1.3266955482519338,2
1503515718868,+0.745,+0.560,+0.259,+0.252,+0.940,-0.126,-0.209,+23.312,+4.375,+1.188,0, 3, 5, 2, 2, 2, -4, -1,2.4072546389238747,1.3283513410509336,2
1503515718891,+0.743,+0.561,+0.264,+0.252,+0.947,-0.207,-0.151,+20.500,+14.438,+5.750,7, 0, -7, -4, -3, 1, -3, -1,2.400929689659714,1.3360755436641942,2
1503515718913,+0.740,+0.564,+0.269,+0.249,+0.977,-0.201,-0.085,+9.250,+27.500,+13.625,-9, -1, 1, 1, 2, -2, -4, -5,2.398525160740719,1.348369334501596,2
1503515718928,+0.737,+0.568,+0.273,+0.246,+0.997,-0.109,-0.147,+6.625,+38.188,+17.438,21, 31, 9, 3, 1, 2, 0, 11,2.398079290786118,1.3621594626653857,2
1503515718951,+0.734,+0.570,+0.276,+0.245,+0.959,-0.043,-0.163,+7.938,+26.875,+10.625,-10, -4, -2, 2, 1, -2, -5, -26,2.393998635348318,1.3699922158707432,2
1503515718976,+0.733,+0.571,+0.279,+0.244,+1.032,-0.145,-0.141,+8.312,+9.625,+11.000,11, -4, -2, -2, -1, 2, 6, 12,2.392058397382708,1.3757845078876036,2
1503515718989,+0.733,+0.571,+0.281,+0.241,+1.074,-0.177,-0.113,-0.438,+6.188,+21.062,1, -3, -1, -1, -19, -2, 0, -2,2.393619507442103,1.3778633584162292,2
1503515719010,+0.732,+0.572,+0.284,+0.236,+0.981,-0.096,-0.103,-4.688,+18.812,+26.875,2, 4, 2, 0, 2, 0, -1, 1,2.3960011245447204,1.383289368766321,2
1503515719032,+0.731,+0.574,+0.287,+0.233,+0.969,-0.063,-0.137,+0.062,+21.938,+27.438,20, 15, 3, 1, 3, -2, -2, 4,2.397344637567709,1.391526281257166,2
1503515719047,+0.729,+0.576,+0.290,+0.229,+0.983,-0.116,-0.143,+0.750,+21.312,+22.062,-11, -19, -8, 0, 7, 1, -3, -3,2.3981035054615307,1.3995085023618228,2
1503515719070,+0.729,+0.576,+0.292,+0.227,+1.021,-0.159,-0.158,-1.312,+11.688,+16.625,-10, -9, 0, 3, 26, -5, -5, -2,2.398560198747489,1.4017904483213215,2
1503515719092,+0.730,+0.575,+0.293,+0.226,+1.002,-0.182,-0.162,+1.188,-1.062,+11.000,1, 1, -2, -5, -3, -2, -9, 5,2.3993110271877818,1.4005839018332435,2
1503515719109,+0.730,+0.574,+0.294,+0.227,+0.960,-0.187,-0.175,+6.062,-4.938,-1.875,-10, -4, -2, 2, -9, -8, -1, 7,2.3962252148009164,1.3993882184722881,2
1503515719130,+0.730,+0.573,+0.294,+0.229,+0.917,-0.184,-0.123,+8.625,-6.750,-10.875,-6, 0, 3, -2, 0, 2, 1, -1,2.39290984265853,1.3970467966221813,2
1503515719152,+0.729,+0.573,+0.294,+0.232,+0.897,-0.181,-0.105,+10.250,-2.125,-14.000,-15, 0, 4, 2, -18, -1, 0, -7,2.3879894389087126,1.3971550758352382,2
1503515719167,+0.727,+0.574,+0.293,+0.235,+0.880,-0.166,-0.116,+8.625,+4.875,-24.562,1, 19, 14, -1, 4, 10, 11, 2,2.3834146359033284,1.398352652500983,2
1503515719190,+0.726,+0.575,+0.293,+0.239,+0.938,-0.190,-0.126,+9.625,+5.375,-25.562,8, -6, -6, -3, -9, -3, -3, -2,2.3786463757970417,1.4011007273306402,2
1503515719212,+0.724,+0.576,+0.292,+0.242,+0.991,-0.202,-0.126,+6.938,+2.438,-19.250,2, -4, -5, 2, 15, 3, -2, -4,2.3741406066817077,1.4023004683122247,2
1503515719227,+0.723,+0.576,+0.292,+0.243,+0.990,-0.179,-0.104,+2.938,-0.812,-14.375,20, 16, 2, -4, -3, -3, -2, -3,2.3714055348127268,1.402204138652355,2
