Timestamp,Orientation X,Orientation Y,Orientation Z,Orientation W,Accelerometer X,Accelerometer Y,Accelerometer Z,Gyroscope X,Gyroscope Y,Gyroscope Z,EMG1,EMG2,EMG3,EMG4,EMG5,EMG6,EMG7,EMG8,Roll,Yaw,Window
1503515707985,+0.814,+0.517,+0.194,+0.179,+0.881,-0.097,-0.364,-9.688,+14.188,-17.562,-1, -4, 5, -4, -9, -4, -7, -1,2.621823481939579,1.1662137473116234,0
1503515708001,+0.812,+0.520,+0.190,+0.184,+0.896,-0.024,-0.347,-5.062,+11.250,-34.188,-8, 2, -9, -1, -3, 0, -3, -5,2.6178277730753696,1.1704272423552202,0
1503515708023,+0.812,+0.519,+0.188,+0.189,+0.937,-0.102,-0.266,+6.562,-14.188,-27.688,4, -6, -1, 0, -1, -2, 2, 2,2.6118454401459434,1.166912571389608,0
1503515708046,+0.813,+0.517,+0.186,+0.191,+1.078,-0.228,-0.366,-8.125,-18.938,-19.562,7, 7, 0, 0, 0, 2, -2, -1,2.610686874479055,1.1608153887890624,0
1503515708061,+0.815,+0.515,+0.185,+0.189,+1.001,-0.161,-0.459,-12.125,-10.750,+7.938,3, 0, 4, -1, 2, -3, 2, 2,2.6156099399656516,1.1553935759864349,0
1503515708084,+0.815,+0.517,+0.184,+0.186,+0.933,+0.018,-0.426,-15.312,+10.562,+17.500,-3, -5, -3, -1, 0, 1, 7, 1,2.6222044913725915,1.1592351867470043,0
1503515708106,+0.816,+0.517,+0.185,+0.181,+0.876,-0.095,-0.386,-9.125,+10.000,+24.688,2, 1, -2, 2, 0, 0, -3, 1,2.6297348591480345,1.1597372210836054,0
1503515708122,+0.816,+0.517,+0.186,+0.179,+0.787,-0.170,-0.390,-4.000,+10.938,+12.750,1, 2, 0, -2, -3, -6, -3, -2,2.631693651179086,1.1602685836392304,0
1503515708144,+0.815,+0.519,+0.187,+0.178,+0.846,-0.165,-0.296,-3.938,+10.312,-0.812,-5, 26, 12, -1, -3, 1, -3, -4,2.6323081087424653,1.1656725855888719,0
1503515708166,+0.815,+0.519,+0.186,+0.178,+0.915,-0.199,-0.305,-8.938,-3.375,-10.625,-1, -26, -16, -3, -5, -2, -4, -1,2.6332210333092174,1.1648407392617102,0
1503515708181,+0.815,+0.519,+0.182,+0.178,+0.931,-0.126,-0.349,-19.188,-2.625,-12.688,3, -1, -1, -1, -3, 1, -2, -3,2.636882028062436,1.1615497858191526,0
1503515708204,+0.816,+0.520,+0.178,+0.179,+0.948,-0.019,-0.366,-16.188,-0.688,-11.812,4, -1, 2, 1, 1, 0, 0, 0,2.641069794191535,1.1614509385793519,0
1503515708226,+0.815,+0.521,+0.176,+0.179,+0.986,-0.015,-0.366,-9.500,+1.438,-1.062,-2, -7, -1, -3, 2, -2, -1, 21,2.642343233017849,1.162015065720565,0
1503515708242,+0.815,+0.522,+0.176,+0.179,+0.985,-0.053,-0.337,-4.062,+3.688,+2.188,0, -1, 2, 0, -1, 1, -1, -11,2.643036739182158,1.1645904461308063,0
1503515708264,+0.814,+0.524,+0.176,+0.180,+0.939,-0.075,-0.337,+1.125,+7.812,-4.188,0, -7, -7, 0, 1, 3, 2, -5,2.6417409134918652,1.1694688918801712,0
1503515708279,+0.813,+0.525,+0.176,+0.182,+0.924,-0.075,-0.333,+7.188,+8.125,-11.750,-7, 11, 0, -3, -3, -2, -6, 6,2.6383287289431636,1.171911014350611,0
1503515708302,+0.811,+0.526,+0.175,+0.185,+0.907,-0.110,-0.285,+3.625,+2.812,-20.750,4, -11, -9, -4, 0, 1, 2, -1,2.633169930704214,1.1732880253050166,0
1503515708324,+0.811,+0.526,+0.172,+0.190,+0.900,-0.084,-0.270,-2.250,-10.812,-33.938,1, 1, 2, 1, -1, 0, -2, -3,2.6288295896659593,1.1715992979747527,0
1503515708346,+0.811,+0.526,+0.168,+0.194,+0.914,-0.099,-0.340,-6.312,-12.250,-32.312,-4, 2, 0, -1, 2, 5, 10, -4,2.6268391090400436,1.1690191130757175,0
1503515708361,+0.812,+0.525,+0.165,+0.197,+0.941,-0.080,-0.376,-7.375,-11.438,-23.438,9, 5, 1, -1, -3, -6, -2, -1,2.6258582169461535,1.1649487378146142,0
1503515708384,+0.812,+0.524,+0.161,+0.203,+0.952,+0.045,-0.395,+1.312,-13.625,-33.875,-3, 2, -3, -2, 0, 2, 2, 17,2.620285045128776,1.1601217094988812,0
1503515708406,+0.811,+0.523,+0.161,+0.206,+0.999,-0.055,-0.329,+10.250,-9.750,-19.125,17, 4, 2, -1, 0, 1, 0, 5,2.6140261456200444,1.1575182051133106,0
1503515708421,+0.812,+0.521,+0.159,+0.210,+0.983,-0.077,-0.285,+4.188,-23.875,-19.250,-12, 20, 14, 1, -1, -1, -3, -8,2.6099443705375966,1.1518132223744442,0
1503515708445,+0.815,+0.515,+0.156,+0.214,+0.980,-0.062,-0.365,-0.562,-45.500,-24.375,2, -11, -10, -2, 0, -3, -1, 11,2.6061877085738,1.1360045380678787,0
1503515708468,+0.818,+0.509,+0.153,+0.220,+1.103,-0.070,-0.397,+6.188,-53.750,-32.688,5, 13, 9, 4, 0, -1, -6, -5,2.5996051520131043,1.120571871363222,0
1503515708481,+0.819,+0.509,+0.149,+0.221,+0.877,+0.242,-0.382,-10.812,-9.938,+7.000,2, 3, -4, -4, -1, -1, -1, -15,2.602997292569279,1.1182041566543173,0
1503515708503,+0.821,+0.503,+0.151,+0.225,+1.084,-0.263,-0.375,+14.250,-42.125,-24.625,36, -17, -11, -3, 0, 14, 1, 3,2.5935497717199394,1.1058589914268977,0
1503515708525,+0.822,+0.501,+0.146,+0.228,+0.887,+0.083,-0.414,-9.562,-21.125,-18.500,-1, -4, -5, -2, -1, -3, -1, -1,2.593367434137419,1.0979746550429557,0
1503515708540,+0.824,+0.497,+0.143,+0.232,+0.879,+0.063,-0.465,+0.625,-28.000,-19.812,-22, -4, -5, -3, -1, -5, -6, 0,2.5897769788840166,1.087132606956614,0
1503515708563,+0.825,+0.494,+0.141,+0.235,+0.864,+0.053,-0.542,+5.062,-20.375,-11.875,-8, -34, -19, -3, 0, -6, 0, -4,2.586190191446887,1.0789840652464602,0
1503515708585,+0.825,+0.494,+0.142,+0.237,+0.857,+0.038,-0.482,+10.125,+5.562,-4.750,4, -2, -3, -3, -3, -3, 2, -1,2.5825533990746767,1.0799726318173999,0
1503515708601,+0.824,+0.494,+0.143,+0.237,+0.857,+0.008,-0.458,+7.812,+11.562,+1.938,-13, -2, 0, 3, -1, -1, -4, -2,2.5803669830002534,1.0802331165146168,0
1503515708622,+0.823,+0.496,+0.144,+0.238,+0.841,+0.028,-0.455,+4.375,+14.688,-4.188,-4, 11, 8, 1, -1, -1, 3, 8,2.578407756668329,1.0856747984575608,0
1503515708645,+0.821,+0.498,+0.145,+0.238,+0.877,-0.001,-0.434,+0.312,+19.062,+2.812,32, 12, 8, -13, -9, -4, -1, 0,2.576494405478282,1.090532296399579,0
1503515708661,+0.819,+0.501,+0.146,+0.237,+0.917,+0.016,-0.417,-0.750,+18.625,-1.438,-14, 13, 8, 4, 1, 3, -1, 0,2.576798112326075,1.0978024428877513,0
1503515708683,+0.817,+0.504,+0.146,+0.238,+0.941,+0.034,-0.357,+1.938,+17.000,-3.500,6, 5, 1, 0, -2, 1, 1, -1,2.575202001931284,1.104625684765332,0
1503515708706,+0.816,+0.505,+0.148,+0.238,+0.987,+0.004,-0.344,+6.250,+5.312,+1.000,0, 31, 3, 1, -1, -1, -2, -4,2.572980701137152,1.1081883719178047,0
1503515714225,+0.710,+0.575,+0.230,+0.335,+0.982,+0.050,-0.213,+0.250,-24.688,-8.688,1, 17, 1, -1, -1, -7, 2, -11,2.306046806073211,1.3352455010148618,1
1503515714247,+0.712,+0.573,+0.229,+0.335,+0.969,+0.007,-0.163,-7.375,-17.062,-0.562,3, -5, 3, 2, 1, 0, 2, -25,2.307348960931627,1.3295936528432915,1
1503515714270,+0.712,+0.574,+0.228,+0.334,+0.933,+0.048,-0.180,-9.750,-1.000,+2.062,-1, -19, -17, -3, -2, -3, 1, 4,2.3104739987824474,1.3310073736238268,1
1503515714285,+0.712,+0.575,+0.228,+0.332,+0.944,+0.071,-0.209,-10.375,+8.188,+4.562,1, -13, -6, -2, 0, 0, -3, -1,2.3137904896366237,1.3333654786860634,1
1503515714310,+0.712,+0.576,+0.228,+0.331,+1.012,+0.088,-0.219,-4.500,+10.312,+5.312,-9, 0, -2, -2, -4, -1, -2, -2,2.3161433691538114,1.3358340393913997,1
1503515714322,+0.712,+0.576,+0.228,+0.331,+1.026,+0.075,-0.187,-1.562,-4.188,+0.125,-3, 4, 5, 1, 4, 4, -8, -10,2.3161433691538114,1.3358340393913997,1
1503515714347,+0.713,+0.575,+0.227,+0.332,+0.959,+0.063,-0.188,-1.562,-11.062,-2.750,20, 3, -1, -3, 0, 0, 2, -5,2.316219195943182,1.3325944569947143,1
1503515714367,+0.713,+0.574,+0.226,+0.332,+0.903,+0.060,-0.218,-2.250,-3.625,-0.875,-3, -5, -3, -2, -5, -4, 0, -4,2.3156153173090663,1.3289791449779689,1
1503515714383,+0.713,+0.575,+0.227,+0.332,+0.927,+0.071,-0.213,+0.188,+8.375,-0.875,-1, 19, 18, 3, 0, -1, 2, 4,2.316219195943182,1.3325944569947143,1
1503515714405,+0.711,+0.576,+0.228,+0.332,+1.001,+0.086,-0.197,+2.375,+15.562,+0.188,-4, -14, -5, 0, 0, 3, 3, 17,2.3135299151256907,1.3356716687124048,1
1503515714427,+0.710,+0.577,+0.229,+0.333,+1.030,+0.083,-0.187,+5.438,+6.312,-1.125,23, 3, -2, 0, 0, 0, 0, -4,2.31153265945423,1.3391319883755781,1
1503515714445,+0.710,+0.576,+0.229,+0.334,+1.030,+0.065,-0.207,+4.688,-5.438,-1.688,2, -13, -5, -2, 1, 2, 5, -7,2.3091770193686094,1.336662085877971,1
1503515714465,+0.711,+0.575,+0.229,+0.335,+0.978,+0.054,-0.179,+3.812,-10.000,-0.625,-8, 1, -3, -2, -1, 2, 11, 4,2.3084776035106858,1.3344639694366844,1
1503515714487,+0.710,+0.575,+0.230,+0.335,+0.954,+0.071,-0.161,+3.062,+2.562,+0.500,-20, 21, 8, 1, -1, -4, -11, -8,2.306046806073211,1.3352455010148618,1
1503515714503,+0.708,+0.576,+0.230,+0.336,+0.930,+0.114,-0.183,+6.188,+14.438,-3.062,-23, -29, -15, -5, 0, 4, 5, 13,2.3031768691970838,1.3373909552511767,1
1503515714525,+0.707,+0.578,+0.232,+0.336,+1.021,+0.080,-0.167,+1.500,+13.438,+0.625,7, 8, 2, -1, -2, 15, -5, -11,2.3027929073898874,1.3443874487755048,1
1503515714549,+0.705,+0.580,+0.234,+0.334,+1.078,+0.019,-0.163,+2.125,+15.562,+8.062,-16, -11, 3, 2, 0, 14, 11, -2,2.3026490775234114,1.350935516420788,1
1503515714563,+0.705,+0.580,+0.235,+0.333,+1.056,+0.038,-0.185,-2.688,+1.938,+2.750,18, 4, -3, -1, -3, -13, -8, -2,2.3028165215190493,1.3518959168003974,1
1503515714586,+0.707,+0.578,+0.233,+0.334,+1.011,+0.074,-0.143,-3.000,-18.062,+0.562,37, -1, 0, -2, -2, -5, 0, -2,2.3039126119907634,1.3452368599022395,1
1503515714607,+0.708,+0.576,+0.232,+0.335,+0.983,+0.042,-0.125,+0.312,-20.938,-3.688,-3, 0, -5, -2, 0, -2, 6, 1,2.3025812267828525,1.3393971046469797,1
1503515714630,+0.710,+0.574,+0.231,+0.336,+1.028,+0.022,-0.177,-3.500,-23.250,-6.375,22, -2, -3, -2, -3, -10, -9, 1,2.302922392322554,1.3338377581395133,1
1503515714645,+0.712,+0.571,+0.228,+0.338,+0.935,+0.067,-0.232,-3.562,-21.125,-6.125,-9, 6, 0, 0, -4, -12, 7, 3,2.3024562243730444,1.3237344539045448,1
1503515714667,+0.714,+0.570,+0.226,+0.338,+0.909,+0.059,-0.180,-8.000,-14.312,-5.625,-19, -1, 2, 0, -1, -4, -9, -3,2.305933810708738,1.3196315823133644,1
1503515714690,+0.713,+0.572,+0.225,+0.337,+0.970,+0.096,-0.164,-12.312,+2.188,-2.250,3, 12, 3, -2, 1, 8, 9, 2,2.3087830816649535,1.323336672470488,1
1503515714705,+0.713,+0.572,+0.223,+0.337,+0.977,+0.124,-0.196,-6.750,-0.875,-0.875,-8, -4, -3, -1, 0, 4, -8, 3,2.3103289550346706,1.3212625416113828,1
1503515714727,+0.714,+0.571,+0.221,+0.338,+1.010,+0.120,-0.213,-7.125,-14.438,-5.562,-7, -1, -2, 0, 3, 3, -1, -1,2.3111754516407204,1.317018492709328,1
1503515714750,+0.716,+0.569,+0.218,+0.339,+0.976,+0.101,-0.216,-5.562,-21.750,-4.938,-4, -7, -2, -1, -4, 9, 10, -17,2.3130617965084874,1.3094827016602515,1
1503515714765,+0.718,+0.567,+0.216,+0.340,+0.909,+0.076,-0.229,-7.438,-16.500,-1.875,35, 9, 3, 3, 7, -16, -5, -4,2.314180016857977,1.3030012197394159,1
1503515714787,+0.719,+0.567,+0.215,+0.339,+0.917,+0.088,-0.225,-9.875,-6.750,+0.250,-21, -5, -4, -2, -7, -6, -2, 5,2.317588267010241,1.3021737014964427,1
1503515714810,+0.719,+0.568,+0.214,+0.338,+0.946,+0.108,-0.196,-8.562,+1.562,+3.562,6, 5, 4, 4, -2, 8, 10, -8,2.3207216527846066,1.3036278127811312,1
1503515714825,+0.719,+0.569,+0.213,+0.338,+0.973,+0.129,-0.206,-8.375,+1.875,-0.438,-40, -3, -3, -5, -3, -7, -2, -4,2.322874958530975,1.3052030558798766,1
1503515714848,+0.720,+0.568,+0.210,+0.338,+1.018,+0.127,-0.216,-11.375,-10.188,-2.812,-1, -6, 1, -1, 3, -1, 0, 17,2.32548494075863,1.2999281413032289,1
1503515714863,+0.722,+0.567,+0.208,+0.338,+0.999,+0.128,-0.235,-12.188,-15.062,+0.312,-6, -7, -4, -2, 0, -5, -5, 15,2.3289587487758343,1.2959768535056817,1
1503515714885,+0.724,+0.566,+0.207,+0.336,+0.946,+0.124,-0.243,-11.125,-9.000,+10.312,-4, -22, -9, -5, -4, -4, -5, -4,2.3336522852315222,1.2928017153671956,1
1503515714907,+0.724,+0.568,+0.206,+0.333,+0.893,+0.138,-0.182,-16.125,+2.688,+12.500,-6, 16, 3, 0, 0, 0, -3, -20,2.3401652205291894,1.2966524135791044,1
1503515714930,+0.723,+0.570,+0.206,+0.331,+0.944,+0.144,-0.188,-12.125,+15.812,+9.812,29, -8, -9, -7, -7, -8, 0, 11,2.343270037880634,1.301302747702343,1
1503515714946,+0.723,+0.572,+0.206,+0.328,+1.044,+0.141,-0.240,-13.125,+13.438,+11.625,12, 1, -2, 2, 2, 4, 2, 3,2.3490119225338972,1.3061615883708593,1
1503515714967,+0.724,+0.573,+0.205,+0.326,+1.027,+0.160,-0.237,-13.812,-0.750,+13.438,7, 3, -2, -3, 2, -1, -2, 0,2.354800711544338,1.307874410355076,1
1503515714990,+0.727,+0.571,+0.204,+0.323,+0.962,+0.141,-0.269,-13.875,-9.062,+23.062,-10, 18, 1, 1, -1, 2, 5, 3,2.3608199220542025,1.302303473873982,1
1503515715005,+0.728,+0.572,+0.204,+0.318,+0.817,+0.122,-0.196,-18.688,+6.000,+23.688,8, 8, 5, 1, -1, -3, -2, 17,2.368919220165496,1.304661019395214,1
1503515715028,+0.727,+0.575,+0.204,+0.315,+0.863,+0.102,-0.181,-11.938,+21.625,+12.625,-3, -1, 3, 2, 2, 0, -3, -40,2.3744061501885745,1.3118407363793123,1
1503515715050,+0.724,+0.579,+0.206,+0.313,+1.025,+0.074,-0.191,-4.375,+31.250,+2.562,38, 4, 1, -1, -4, -2, 2, 6,2.37537679954387,1.3230865337992073,1
1503515715065,+0.723,+0.581,+0.206,+0.313,+1.101,+0.076,-0.179,-6.125,+8.875,-0.812,-21, -8, 1, 1, 3, -2, 2, -3,2.3764458715453163,1.3280181618248397,1
1503515715090,+0.724,+0.581,+0.205,+0.312,+1.033,+0.096,-0.208,-6.562,-6.812,+3.500,-24, -41, -9, -2, -2, 2, -6, 3,2.3798822749679895,1.3272495439035334,1
1503515715110,+0.725,+0.579,+0.206,+0.311,+0.976,+0.118,-0.245,+0.875,-5.312,+12.625,-25, 9, 6, 3, 0, 1, -4, -3,2.37903158698523,1.3231685789195142,1
1503515719527,+0.717,+0.582,+0.285,+0.258,+1.012,-0.053,-0.104,-6.562,-13.812,+3.000,4, 4, -3, -10, 0, -6, -8, 6,2.35897562017591,1.4091246659087844,2
1503515719550,+0.718,+0.581,+0.284,+0.258,+0.965,-0.042,-0.115,-7.938,-13.000,+4.875,-8, -1, 7, 2, -3, 0, 6, -3,2.360228119517046,1.405559035679038,2
1503515719572,+0.719,+0.580,+0.282,+0.258,+0.923,-0.037,-0.115,-8.562,-8.125,+0.500,8, -11, -2, 2, -1, 2, 3, 0,2.362314657562683,1.4007911538034656,2
1503515719587,+0.719,+0.581,+0.280,+0.258,+0.978,-0.063,-0.123,-8.562,-1.188,-5.938,-8, -7, -6, -4, -6, -2, 3, 3,2.365216536430022,1.4009335936495726,2
1503515719611,+0.719,+0.582,+0.278,+0.257,+0.993,-0.095,-0.131,-11.000,+4.125,-4.250,7, 8, 3, -1, 1, 1, 8, 0,2.3691603971874264,1.4010012828507992,2
1503515719632,+0.720,+0.582,+0.276,+0.258,+0.986,-0.061,-0.130,-11.812,-4.312,-6.625,10, 9, 4, 0, -4, 0, -6, 3,2.3714481129076614,1.398923346881193,2
1503515719648,+0.722,+0.581,+0.273,+0.258,+0.994,-0.062,-0.111,-14.125,-16.000,-5.812,-2, 0, -2, -1, -2, 1, 7, -3,2.3760232477632885,1.3932469091110875,2
1503515719669,+0.724,+0.580,+0.269,+0.258,+0.969,-0.082,-0.138,-16.188,-18.125,-9.250,-16, -18, -8, -4, -3, 0, -9, 0,2.381444032061766,1.3864532057381522,2
1503515719692,+0.726,+0.579,+0.266,+0.258,+0.949,-0.099,-0.153,-15.312,-14.000,-6.500,-2, -5, -4, 2, 3, -5, -6, -10,2.386023383663777,1.3808711478406268,2
1503515719707,+0.727,+0.580,+0.264,+0.257,+0.947,-0.095,-0.158,-16.500,-1.812,-1.375,2, 4, -2, -1, -2, -6, 0, -22,2.3916037512394976,1.3812654249478713,2
1503515719730,+0.727,+0.580,+0.262,+0.256,+0.980,-0.055,-0.188,-14.875,+3.688,+0.000,-5, 1, 3, -1, -3, -6, -14, -5,2.394379280155731,1.3788966196179433,2
1503515719753,+0.727,+0.581,+0.261,+0.255,+0.998,-0.080,-0.154,-9.312,+1.250,+1.188,-5, -5, -1, 1, 2, 2, -19, 1,2.397506966949897,1.3802347718734378,2
1503515719767,+0.729,+0.580,+0.261,+0.254,+1.004,-0.125,-0.118,-10.312,-7.625,+1.562,18, 14, 12, 2, 2, -1, 0, 4,2.4005939938548284,1.3780126091077345,2
1503515719790,+0.730,+0.579,+0.259,+0.253,+1.015,-0.124,-0.120,-12.562,-12.062,+1.688,16, 8, 2, 3, 0, 2, -9, 13,2.4038112600385877,1.3733247426756945,2
1503515719813,+0.731,+0.580,+0.259,+0.250,+0.972,-0.100,-0.117,-15.875,+4.188,+8.562,1, 10, 4, -1, -3, -1, -7, -7,2.409843875601068,1.375815955883716,2
1503515719827,+0.730,+0.582,+0.258,+0.247,+0.950,-0.058,-0.149,-16.188,+14.812,+10.500,4, -1, -5, -2, 2, 4, 18, 16,2.4147495896390208,1.3793219427429098,2
1503515719850,+0.730,+0.585,+0.258,+0.243,+1.005,-0.064,-0.143,-15.750,+15.625,+9.812,-19, -16, -4, 1, 0, -2, 7, -10,2.422633390149926,1.386663735351391,2
1503515719872,+0.730,+0.586,+0.257,+0.241,+1.023,-0.090,-0.129,-15.375,+7.938,+7.875,0, 3, -5, -1, 0, 1, 4, 4,2.4268818944586155,1.3879487610601005,2
1503515719887,+0.731,+0.586,+0.256,+0.239,+0.999,-0.097,-0.160,-13.562,-3.188,+7.812,-7, -12, 1, 0, -1, 2, 9, -3,2.431543891828462,1.3868747259792842,2
1503515719916,+0.733,+0.584,+0.255,+0.237,+0.949,-0.090,-0.177,-12.875,-8.812,+9.250,-6, 2, -1, -3, -2, 1, -11, -9,2.435493064683447,1.380856707227296,2
1503515719932,+0.735,+0.583,+0.254,+0.236,+0.917,-0.080,-0.162,-10.188,-8.375,+5.375,3, 10, 4, -2, -1, -3, -1, 10,2.439478201053558,1.3775278752465525,2
1503515719947,+0.736,+0.582,+0.253,+0.235,+0.936,-0.081,-0.158,-8.000,-8.062,+0.000,-4, -1, -4, 0, 2, -1, -4, 4,2.4419269668718626,1.3739811394064685,2
1503515719969,+0.737,+0.582,+0.251,+0.236,+0.932,-0.083,-0.174,-5.688,-5.125,-5.125,3, -8, 0, 0, -1, -3, -2, -9,2.444125565850857,1.3721385217629694,2
1503515719992,+0.737,+0.582,+0.251,+0.237,+0.960,-0.104,-0.162,-1.062,-1.688,-6.125,-7, 5, 2, 2, 1, -2, 9, 3,2.442992891156167,1.372237949308053,2
1503515720007,+0.736,+0.582,+0.251,+0.237,+1.020,-0.130,-0.130,-1.812,+2.688,-2.750,-2, -21, -7, 0, -3, -5, 3, -4,2.4414532680362124,1.3720072538350394,2
1503515720029,+0.735,+0.583,+0.251,+0.236,+1.072,-0.100,-0.107,-2.438,+3.562,+1.062,20, 27, 13, 0, 1, 5, 10, 15,2.4421663587714475,1.3742647887505424,2
1503515720052,+0.735,+0.583,+0.251,+0.237,+1.027,-0.083,-0.134,+1.125,-3.000,-1.625,-15, -9, -6, -1, -2, 2, -4, 5,2.44103520162455,1.3743632942879203,2
1503515720067,+0.736,+0.582,+0.251,+0.239,+0.990,-0.077,-0.141,+6.062,-11.375,-8.062,-3, -7, -4, 0, 0, -1, 2, -5,2.4391945701072335,1.372206269918659,2
1503515720090,+0.736,+0.581,+0.251,+0.241,+0.994,-0.101,-0.132,+6.188,-9.562,-8.250,1, -2, -3, -1, 0, -1, 0, -6,2.4358163700780207,1.369824759923409,2
1503515720113,+0.735,+0.581,+0.251,+0.241,+1.017,-0.099,-0.108,+1.500,-0.875,-4.188,2, -3, -5, -7, -5, -1, 1, -8,2.4342657287872598,1.3695916639723031,2
1503515720127,+0.735,+0.582,+0.251,+0.241,+1.034,-0.079,-0.128,-1.000,+1.562,+1.188,2, -8, 0, 0, 0, 2, 4, -3,2.4353999859453945,1.3721745805522532,2
1503515720150,+0.734,+0.583,+0.252,+0.241,+1.036,-0.072,-0.127,-0.188,+4.688,+4.125,-4, -2, -5, 0, 2, 0, -3, -2,2.434098446181117,1.375613075191816,2
1503515720172,+0.734,+0.582,+0.252,+0.241,+1.034,-0.082,-0.144,+0.375,-3.375,+3.312,-23, -4, -1, -2, -6, -1, -3, 4,2.432960709198532,1.3730303049248636,2
1503515720189,+0.735,+0.581,+0.253,+0.240,+1.055,-0.092,-0.134,-1.188,-6.688,+5.562,4, 0, -5, -4, -4, -1, 2, -3,2.4336130750550935,1.3716685475917731,2
1503515720210,+0.735,+0.581,+0.253,+0.239,+1.041,-0.096,-0.134,-1.250,-1.188,+7.750,-3, 7, 4, 1, 1, -4, -3, -8,2.4347369480058694,1.3715679180624438,2
1503515720232,+0.735,+0.581,+0.254,+0.239,+1.025,-0.063,-0.158,+1.688,+0.500,+8.938,2, -5, -1, 2, 5, 2, -7, 6,2.433848374350251,1.3726619910350033,2
1503515720248,+0.736,+0.580,+0.256,+0.238,+1.031,-0.078,-0.154,+5.625,-2.438,+14.000,6, -1, -2, 0, -2, 2, -1, -2,2.4336288985819206,1.3724106620146874,2
1503515720270,+0.736,+0.579,+0.259,+0.236,+1.029,-0.111,-0.162,+6.500,+0.938,+18.375,-7, -22, -4, -2, -1, -1, -2, -1,2.4320981360451595,1.372957991902898,2
1503515720292,+0.736,+0.579,+0.262,+0.234,+1.048,-0.131,-0.151,+5.438,+7.500,+21.438,8, 10, 0, -1, -2, -1, 3, 6,2.4316936007926038,1.3761153208931043,2
1503515720315,+0.736,+0.578,+0.266,+0.231,+1.072,-0.123,-0.157,+6.188,+4.562,+24.000,-1, 8, -2, -5, -6, -9, -11, -2,2.4304149136257154,1.377770893665312,2
1503515720337,+0.736,+0.576,+0.269,+0.230,+1.066,-0.111,-0.169,+10.375,-1.062,+24.062,-3, 5, 5, 3, 1, 1, 1, -4,2.4266642240233725,1.3759715632917655,2
1503515720352,+0.737,+0.575,+0.273,+0.228,+1.024,-0.137,-0.148,+13.875,-0.438,+23.312,9, -4, -4, 0, 1, -2, 2, 1,2.425890594025048,1.3780697530066222,2
1503515720375,+0.737,+0.573,+0.278,+0.226,+1.019,-0.153,-0.141,+13.625,+3.375,+25.188,21, -14, -8, -4, -2, -2, -1, 5,2.4215515315702425,1.3786363669072275,2
1503515720390,+0.736,+0.573,+0.283,+0.224,+1.021,-0.159,-0.135,+14.062,+6.312,+27.438,-17, -10, -6, 0, 1, 1, -3, -5,2.4178079962162666,1.3842100529827026,2
1503515720415,+0.735,+0.572,+0.288,+0.221,+1.039,-0.172,-0.130,+12.500,+11.312,+30.938,2, 16, 10, 4, 4, -1, 9, 1,2.4140612252904283,1.3872266065351857,2
1503515720428,+0.734,+0.572,+0.293,+0.218,+1.037,-0.149,-0.161,+14.188,+13.938,+32.125,-4, 4, 1, -4, -4, -2, 2, -3,2.4114077419647,1.3929095658452872,2
1503515720451,+0.734,+0.571,+0.299,+0.215,+1.027,-0.177,-0.170,+18.812,+12.812,+34.062,2, 2, 3, -1, -1, 0, -7, 3,2.408441887912208,1.39762457693738,2
1503515720472,+0.733,+0.569,+0.306,+0.213,+1.052,-0.200,-0.142,+20.875,+10.938,+36.750,-11, -12, -4, -1, -2, -3, -1, 2,2.400729340473868,1.4011576248420208,2
1503515726097,+0.813,+0.520,+0.180,+0.193,+0.951,-0.015,-0.348,-8.625,-15.750,-0.188,3, 1, 5, 1, -12, 2, 12, 5,2.6154626496825695,1.1638223632916902,3
1503515726112,+0.814,+0.517,+0.178,+0.195,+0.935,-0.013,-0.351,-2.812,-22.000,-7.062,-14, -4, -7, -5, -2, -2, 15, -65,2.613535995381184,1.15521246709482,3
1503515726134,+0.815,+0.515,+0.176,+0.198,+0.915,-0.034,-0.379,+3.188,-19.250,-10.438,-9, 5, 4, 2, 0, 1, -8, 7,2.6109204404348296,1.1493315160783224,3
1503515726157,+0.816,+0.513,+0.175,+0.200,+0.923,-0.057,-0.366,+1.688,-13.750,-11.125,2, -5, 0, 0, -4, -2, 8, 20,2.6088175008929584,1.1441312966168093,3
1503515726172,+0.816,+0.512,+0.174,+0.202,+0.953,-0.055,-0.362,+3.125,-11.375,-9.625,6, -6, -5, -3, 1, 0, -5, 9,2.60613561809739,1.141065977294957,3
1503515726194,+0.817,+0.510,+0.173,+0.205,+0.919,-0.047,-0.370,+2.125,-13.062,-9.688,4, -2, -4, -6, -45, -3, -1, 8,2.602616136872376,1.1360329956231616,3
1503515726217,+0.818,+0.509,+0.172,+0.207,+0.915,-0.048,-0.366,+3.438,-14.500,-9.375,7, 1, -1, -3, -4, -2, 1, 41,2.6012572981346422,1.1334108277241322,3
1503515726232,+0.818,+0.507,+0.172,+0.209,+0.943,-0.049,-0.390,+5.188,-14.438,-8.750,3, 10, 1, 4, 14, 3, -18, -4,2.596935842415414,1.1286217583263887,3
1503515726254,+0.819,+0.504,+0.171,+0.212,+0.910,-0.053,-0.421,+5.938,-17.062,-8.562,16, -9, -10, -4, 7, -4, -5, 2,2.592655871896923,1.1210893413245167,3
1503515726278,+0.820,+0.503,+0.171,+0.213,+0.859,-0.046,-0.415,+2.938,-9.688,-4.562,-21, -10, -1, -1, 6, 0, 0, 7,2.591844650129275,1.1191452807997002,3
1503515726292,+0.820,+0.502,+0.171,+0.214,+0.879,-0.060,-0.395,+1.250,-0.688,-2.188,-6, 1, 2, 0, 3, -1, -3, -1,2.589680830349675,1.1167644354371458,3
1503515726314,+0.820,+0.502,+0.171,+0.214,+0.953,-0.083,-0.365,-1.688,+0.500,+0.000,-4, -4, 0, -1, 2, -2, 6, -4,2.589680830349675,1.1167644354371458,3
1503515726337,+0.821,+0.501,+0.171,+0.214,+0.991,-0.046,-0.402,+0.562,-9.688,-0.500,29, -7, -4, 0, 3, -2, -3, -5,2.5902778550652257,1.114677340649338,3
1503515726353,+0.822,+0.499,+0.170,+0.215,+0.919,-0.036,-0.425,+2.000,-18.875,-0.875,2, -11, -9, -4, 0, -1, 2, -3,2.5895698977417885,1.1094166433220343,3
1503515726374,+0.823,+0.497,+0.170,+0.216,+0.867,-0.075,-0.411,-0.125,-10.312,+0.812,-12, -24, -6, 0, 0, 0, 2, -7,2.58801370195884,1.104969611119769,3
1503515726397,+0.823,+0.497,+0.170,+0.215,+0.878,-0.074,-0.408,-3.375,+1.750,+0.750,-5, 4, -4, -1, 0, -3, -4, 3,2.589418340740476,1.1048165157876928,3
1503515726412,+0.823,+0.497,+0.169,+0.215,+0.927,-0.050,-0.395,-5.062,+1.250,-1.312,1, 15, 7, -1, -5, -3, -8, -9,2.5902677649037513,1.1040155509835559,3
1503515726434,+0.823,+0.497,+0.169,+0.215,+0.952,-0.041,-0.375,-1.625,-6.625,-0.250,34, 7, 5, 1, 1, 2, 4, 10,2.5902677649037513,1.1040155509835559,3
1503515726457,+0.824,+0.495,+0.168,+0.216,+0.903,-0.043,-0.420,+1.438,-13.375,-2.562,-14, -10, -4, -2, 0, -3, 0, -4,2.589560886730888,1.098778265977254,3
1503515726472,+0.825,+0.493,+0.168,+0.218,+0.869,-0.058,-0.417,+1.500,-11.875,-2.938,7, -8, -3, -1, -2, -2, 0, 1,2.5866035414074022,1.0945039875376863,3
1503515726494,+0.826,+0.492,+0.168,+0.218,+0.869,-0.078,-0.427,-2.000,-5.625,-1.312,-5, 2, -5, 0, 1, -3, 7, 2,2.5872215548496778,1.092443895416239,3
1503515726517,+0.826,+0.492,+0.167,+0.218,+0.893,-0.055,-0.440,-5.812,-2.188,-1.438,4, 14, 1, -3, 0, 2, -4, 3,2.588060147419899,1.091646792435944,3
1503515726533,+0.826,+0.492,+0.166,+0.218,+0.924,-0.030,-0.409,-3.312,-4.125,+0.062,-2, 2, 1, 2, 2, -3, 5, 0,2.588899610059715,1.0908531203616834,3
1503515726554,+0.827,+0.491,+0.166,+0.218,+0.912,-0.029,-0.441,+1.562,-3.688,-0.438,-8, 0, -4, -1, -1, -2, -4, -4,2.5895155942636037,1.0887962103262006,3
1503515726579,+0.827,+0.491,+0.166,+0.219,+0.864,-0.047,-0.414,+1.062,-1.875,-1.625,-2, 16, 0, 0, -2, -1, 0, 2,2.5881061952938107,1.0889503391174042,3
1503515726592,+0.826,+0.491,+0.166,+0.219,+0.904,-0.059,-0.402,-0.500,+1.250,-0.562,8, 7, 5, -1, 0, 0, 0, -3,2.586735721052762,1.0884941889707864,3
1503515726615,+0.826,+0.492,+0.166,+0.219,+0.953,-0.050,-0.429,-3.125,+1.625,-2.250,-13, -17, -1, 2, 0, 1, 4, 2,2.5874907641370353,1.0910066913190664,3
1503515726637,+0.826,+0.492,+0.164,+0.220,+0.935,-0.029,-0.436,-4.625,+0.938,-5.375,-2, -7, -1, -2, -3, 1, 0, 0,2.587760063142332,1.0895803811107083,3
1503515726653,+0.826,+0.492,+0.164,+0.221,+0.867,-0.036,-0.427,+2.125,+0.125,-4.938,-7, 15, 7, -2, -1, -1, -3, -2,2.5863532002767426,1.0897324094576328,3
1503515726674,+0.825,+0.493,+0.164,+0.222,+0.850,-0.076,-0.400,+0.000,+4.625,-6.625,4, -13, -2, -1, -1, -5, 0, -1,2.584342553315242,1.091941898831524,3
1503515726697,+0.824,+0.495,+0.164,+0.222,+0.915,-0.058,-0.385,-3.062,+8.312,-8.188,2, -8, -4, -1, 1, 5, -2, -2,2.584508653216885,1.096519156342743,3
1503515726713,+0.823,+0.495,+0.163,+0.224,+0.971,-0.018,-0.403,-1.938,-0.500,-7.625,6, 1, 4, 0, -3, -1, -3, -2,2.58118084678124,1.0955787270152149,3
1503515726742,+0.824,+0.494,+0.162,+0.225,+0.967,-0.011,-0.447,+2.875,-6.688,-7.938,-16, -9, -6, 0, 0, 1, 1, 0,2.5812180098158986,1.0928812670453767,3
1503515726757,+0.824,+0.494,+0.162,+0.226,+0.921,-0.052,-0.433,+2.562,-3.312,-4.125,14, 0, -4, -1, -2, -3, -2, 4,2.579821584120478,1.0930303995915365,3
1503515726773,+0.823,+0.495,+0.163,+0.226,+0.947,-0.070,-0.427,-2.375,+9.062,+1.188,-1, 10, 1, -3, 0, -2, 2, -7,2.578389622282816,1.0958773345882766,3
1503515730745,+0.753,+0.589,+0.229,+0.183,+1.083,-0.237,-0.083,+7.938,-29.188,+2.688,-11, 0, -2, -2, -3, -3, -2, -3,2.559084776937698,1.3663725199868764,4
1503515730756,+0.755,+0.585,+0.229,+0.187,+0.953,-0.187,-0.073,+7.625,-33.812,-14.562,7, -10, -1, 0, -2, 1, 0, 0,2.5530584477308693,1.3567191909637313,4
1503515730777,+0.757,+0.582,+0.229,+0.190,+0.903,-0.211,-0.116,+10.812,-26.250,-14.000,-2, -8, -5, -3, 0, -2, -3, -3,2.5492436969267915,1.3496468562109074,4
1503515730800,+0.757,+0.581,+0.229,+0.191,+0.920,-0.237,-0.147,+4.500,-10.062,-10.188,4, 2, 2, 0, 0, 0, -2, 0,2.5470499458086344,1.3471252354151029,4
1503515730822,+0.757,+0.581,+0.227,+0.195,+0.918,-0.160,-0.191,+1.438,-1.750,-26.688,11, 7, 1, -3, 1, 0, 0, 0,2.5439378638643464,1.345569514979321,4
1503515730837,+0.756,+0.582,+0.224,+0.200,+0.916,-0.098,-0.162,+3.812,-3.562,-35.188,-15, -3, 1, 10, 0, 1, 0, -2,2.5401097448953687,1.345515954587896,4
1503515730859,+0.754,+0.583,+0.222,+0.204,+0.969,-0.109,-0.139,+3.562,+1.375,-29.438,13, -3, -3, -2, 0, -1, 2, 3,2.5352207270630225,1.346085998383869,4
1503515730882,+0.752,+0.585,+0.221,+0.207,+0.996,-0.088,-0.154,+0.688,+8.062,-24.875,-4, 18, 7, -1, -1, -1, -7, -4,2.531626414169962,1.350150426637177,4
1503515730936,+0.752,+0.585,+0.218,+0.211,+0.974,-0.045,-0.207,+1.938,-7.562,-24.312,-8, -7, -5, -5, -3, 2, 1, 1,2.5295647025348225,1.347681600631295,4
1503515730937,+0.754,+0.582,+0.214,+0.216,+0.938,-0.059,-0.183,-1.188,-27.000,-28.438,-3, 5, 1, -3, -1, -5, -2, 3,2.5270141596285733,1.3370698691232608,4
1503515730943,+0.755,+0.582,+0.209,+0.220,+0.917,-0.065,-0.155,-8.812,-19.812,-32.625,8, -4, -3, -4, 1, 4, 1, 0,2.5282220034993084,1.3331069323995042,4
1503515730957,+0.755,+0.582,+0.204,+0.223,+0.925,-0.007,-0.180,-10.750,-6.500,-29.375,-4, 0, -2, 1, -2, -4, -5, -4,2.529277913108753,1.3288585406682853,4
1503515730979,+0.755,+0.582,+0.200,+0.227,+0.948,+0.029,-0.234,-6.625,-9.062,-24.750,-5, -8, -3, -5, -3, -3, 1, -4,2.5281451225304417,1.3256749809623387,4
1503515731002,+0.757,+0.579,+0.195,+0.231,+0.972,+0.019,-0.246,-5.000,-30.375,-25.688,-1, 0, 4, -4, -1, -2, -3, -1,2.527637404330473,1.3143683788648182,4
1503515731017,+0.759,+0.577,+0.191,+0.234,+0.942,-0.022,-0.176,-8.625,-29.500,-25.750,-1, 7, 3, 4, 1, 1, 6, 0,2.5283997792850688,1.306547686077602,4
1503515731040,+0.760,+0.576,+0.186,+0.237,+0.940,-0.009,-0.156,-15.500,-16.062,-25.062,-1, -4, -5, 2, -1, 2, 2, 0,2.5297317988719192,1.300267619696167,4
1503515731061,+0.760,+0.576,+0.181,+0.239,+0.990,+0.090,-0.267,-12.500,-9.875,-19.938,0, 6, 4, -2, -2, -2, -4, -3,2.5319613507766054,1.296289056493801,4
1503515731077,+0.762,+0.573,+0.177,+0.242,+1.006,+0.092,-0.306,-4.688,-23.188,-16.500,-7, -10, -7, -2, -2, -3, 0, 0,2.5316155596386496,1.2860423665382001,4
1503515731102,+0.765,+0.570,+0.174,+0.244,+0.994,+0.028,-0.205,-9.000,-33.750,-13.688,-5, 1, -1, -1, 0, -4, -6, -8,2.532911054466571,1.2769021538687357,4
1503515731122,+0.766,+0.569,+0.170,+0.246,+0.946,+0.037,-0.201,-10.562,-20.938,-13.000,1, -3, -3, 0, 2, 1, -1, 1,2.5344657238356296,1.2716045113308228,4
1503515731137,+0.766,+0.568,+0.167,+0.248,+0.934,+0.068,-0.271,-7.625,-7.438,-14.312,3, 8, 6, 3, 0, -2, -2, 1,2.5337282510676347,1.2668038913989335,4
1503515731159,+0.768,+0.567,+0.164,+0.249,+0.988,+0.073,-0.308,-7.688,-14.375,-10.000,15, 19, 5, 2, 1, 2, 4, 6,2.5369280602037274,1.2626147732503974,4
1503515731183,+0.770,+0.564,+0.161,+0.250,+1.019,+0.050,-0.250,-8.562,-25.688,-9.000,-5, -12, -13, -5, -1, 1, -1, -1,2.538076701388104,1.2532120641253977,4
1503515731197,+0.772,+0.562,+0.159,+0.251,+0.978,+0.025,-0.216,-10.812,-23.688,-7.500,-6, 0, 1, 1, 1, 2, 0, 0,2.539308192958656,1.2472409326739842,4
1503515731219,+0.772,+0.562,+0.157,+0.251,+0.907,+0.067,-0.280,-7.375,-6.562,-5.000,12, -3, 1, 0, 2, 2, -2, 1,2.5411638768150313,1.2457215691576742,4
1503515731242,+0.772,+0.562,+0.156,+0.252,+0.907,+0.091,-0.326,-3.312,+1.000,-4.375,-18, -8, -1, -2, -4, 1, 10, 3,2.540816815312132,1.2450669362968947,4
1503515731256,+0.774,+0.560,+0.155,+0.252,+1.014,+0.054,-0.349,-3.812,-10.188,+5.812,-2, -20, -6, 1, 3, -1, -10, -14,2.542383475280193,1.2397889753306446,4
1503515731279,+0.775,+0.560,+0.155,+0.250,+0.996,+0.053,-0.257,-7.875,-4.938,+11.312,-1, 1, 1, -3, -4, -1, 0, 1,2.546272194780492,1.2399515193648512,4
1503515731295,+0.776,+0.559,+0.155,+0.248,+0.956,+0.070,-0.282,-7.562,-4.125,+11.750,-4, -2, -2, -3, 0, -2, -9, -7,2.549170375098023,1.237491804304271,4
1503515731316,+0.777,+0.558,+0.155,+0.247,+0.941,+0.043,-0.265,-3.750,-6.625,+5.438,1, -13, -7, -3, -3, -3, 2, -1,2.550792760633457,1.2351354553898406,4
1503515731339,+0.777,+0.558,+0.155,+0.248,+1.030,+0.038,-0.310,+3.938,-6.375,-6.312,-5, -7, -10, -5, -3, -1, 2, -3,2.549502807582988,1.235237590490341,4
1503515731355,+0.777,+0.556,+0.154,+0.251,+1.001,+0.023,-0.291,+6.000,-11.812,-11.750,18, 12, 3, 0, -2, -2, -2, -10,2.5445770005702335,1.2295579583113487,4
1503515731378,+0.778,+0.555,+0.154,+0.252,+0.960,+0.034,-0.267,+4.312,-9.938,-5.000,1, 13, 9, 2, 2, 2, 8, 2,2.54362908766031,1.227417592560501,4
1503515731399,+0.777,+0.555,+0.155,+0.253,+0.933,+0.053,-0.281,+4.562,+1.062,+0.438,-4, 4, 7, 4, 2, 0, 0, 8,2.5400888704131686,1.2279003144106082,4
1503515731422,+0.776,+0.556,+0.156,+0.254,+0.936,+0.054,-0.294,+5.312,+6.875,-5.062,-21, -14, -10, -5, -3, 0, 1, -13,2.537552491219812,1.2310045743280007,4
1503515731437,+0.775,+0.557,+0.156,+0.256,+1.004,+0.072,-0.317,+8.438,+10.188,-6.250,16, 9, 3, 0, 0, -2, -7, 0,2.534666019209566,1.2334583425285806,4
1503515731459,+0.774,+0.556,+0.159,+0.256,+1.018,+0.057,-0.305,+11.750,+1.312,+5.062,-25, -3, 1, 1, 0, 2, 4, 14,2.529553277046791,1.2327676382456383,4
1503515731505,+0.776,+0.553,+0.161,+0.255,+1.017,+0.026,-0.316,+9.750,-15.312,+16.750,-7, -5, -4, -1, -1, -2, 5, -6,2.528692829927941,1.227117071588189,4
1503515731506,+0.777,+0.551,+0.164,+0.255,+0.975,+0.046,-0.297,+13.312,-9.250,+14.125,7, -9, -7, -3, -1, 1, 0, 1,2.525338903019016,1.2246341561513174,4
1503515731519,+0.777,+0.549,+0.168,+0.256,+1.021,+0.057,-0.359,+23.000,-0.562,+15.125,23, 13, 1, -3, -1, 0, -2, -5,2.5184636169832593,1.222743482533289,4
1503515731542,+0.778,+0.547,+0.173,+0.256,+1.047,+0.025,-0.367,+28.125,-2.812,+18.062,-5, -3, 8, 6, 0, -2, 2, -7,2.5134074131341215,1.2220140447109897,4
1503515731557,+0.779,+0.544,+0.179,+0.256,+1.069,+0.015,-0.304,+30.438,-9.438,+24.062,-4, 3, -4, -3, -2, 1, -5, -4,2.506538648466341,1.2196587869909805,4
1503515739147,+0.688,+0.620,+0.212,+0.311,+0.989,+0.135,-0.159,-8.188,-40.625,-6.312,-4, 10, 2, -2, -2, 0, -5, 3,2.373736550249747,1.4283023591551207,5
1503515739162,+0.692,+0.616,+0.209,+0.312,+0.951,+0.073,-0.118,-11.188,-35.750,+0.125,33, -3, -3, 1, 3, 0, 2, 13,2.3756410034390822,1.4156620448581372,5
1503515739185,+0.693,+0.616,+0.208,+0.310,+0.930,+0.081,-0.114,-10.812,-3.125,+6.812,0, 2, -3, 0, 0, 0, 1, 13,2.380023594734276,1.414798975403988,5
1503515739208,+0.692,+0.618,+0.209,+0.308,+0.961,+0.115,-0.115,-6.000,+13.375,+5.438,4, 5, 2, -2, -2, -2, 1, 0,2.3824867776046785,1.4207322641248166,5
1503515739222,+0.691,+0.619,+0.210,+0.308,+1.039,+0.111,-0.111,-1.688,+12.062,+4.500,-12, -3, 0, -3, -4, 2, 2, -1,2.3815266869957084,1.4241362696610826,5
1503515739245,+0.691,+0.620,+0.211,+0.307,+1.046,+0.083,-0.096,+0.312,+4.938,+0.750,4, 6, 4, 4, 5, 1, 1, -2,2.3830367643308303,1.427662987330586,5
1503515739267,+0.691,+0.619,+0.211,+0.307,+1.001,+0.078,-0.105,-2.125,-2.625,+1.312,8, 16, 14, 1, -1, -1, 0, 11,2.381631574693055,1.425001409629223,5
1503515739283,+0.692,+0.619,+0.210,+0.307,+0.958,+0.067,-0.099,-3.500,-5.750,+0.500,25, 22, 12, 6, 1, 2, 1, 6,2.383997317341235,1.42425625019486,5
1503515739305,+0.693,+0.618,+0.210,+0.307,+1.036,+0.080,-0.120,-2.938,-5.375,-0.562,-17, 0, -1, -1, -5, 1, 1, -5,2.384059971061657,1.4217785609325373,5
1503515739327,+0.694,+0.616,+0.209,+0.307,+1.063,+0.077,-0.127,-1.938,-13.250,-2.250,6, 5, 0, 2, 0, 1, 2, 0,2.3836312863464197,1.4157201068278165,5
1503515739342,+0.696,+0.615,+0.208,+0.308,+0.985,+0.052,-0.136,-3.500,-14.500,-3.438,4, 3, 1, -1, 0, 0, 7, -1,2.3850588826309145,1.4125881723832816,5
1503515739365,+0.697,+0.614,+0.207,+0.308,+0.921,+0.050,-0.154,-5.688,-5.500,-1.812,9, 9, 2, 4, 6, 0, -2, 0,2.386034660532197,1.4092061946866818,5
1503515739387,+0.696,+0.615,+0.207,+0.307,+0.887,+0.077,-0.113,-4.312,+9.812,+1.000,0, 1, -4, -4, -4, -3, 1, 5,2.3869742004112733,1.4116020905408826,5
1503515739403,+0.694,+0.617,+0.209,+0.307,+1.017,+0.097,-0.084,+5.125,+20.375,+0.438,-5, 26, 8, 2, -2, 4, 0, -13,2.3850278456592275,1.4183808218064966,5
1503515739425,+0.691,+0.619,+0.211,+0.308,+1.078,+0.127,-0.112,+11.500,+15.125,-5.000,-9, -10, -7, -4, -3, -3, -3, -5,2.3806258064283625,1.4250629640702337,5
1503515739447,+0.692,+0.616,+0.210,+0.312,+1.028,+0.126,-0.127,+13.500,-16.062,-12.312,11, 10, -1, -3, -2, -4, -6, 1,2.3747487804245786,1.4165906731001314,5
1503515739462,+0.693,+0.614,+0.210,+0.314,+0.976,+0.090,-0.096,+8.938,-22.562,-4.188,-1, -5, 1, 1, 7, 2, -1, 3,2.37140104416762,1.4115989141237395,5
1503515739485,+0.694,+0.613,+0.210,+0.314,+0.938,+0.092,-0.031,+0.812,-6.625,+5.250,-5, -8, -3, -2, -4, -2, -2, -9,2.3714748642200836,1.4091400201908175,5
1503515739514,+0.693,+0.614,+0.211,+0.313,+1.043,+0.133,-0.013,-0.375,-0.062,+9.000,-6, -4, 0, -1, -4, -3, -4, -1,2.3715149873468837,1.4124667921457579,5
1503515739522,+0.696,+0.611,+0.212,+0.313,+1.129,+0.145,-0.156,+3.500,-18.188,+12.500,-7, 25, 33, 13, 3, 4, -2, 3,2.3708817765071593,1.4060441649049107,5
1503515739545,+0.701,+0.605,+0.210,+0.313,+1.017,+0.109,-0.125,-3.625,-46.062,+10.375,9, -8, -12, -2, -3, -3, -1, 1,2.371768129885599,1.3893345122001137,5
1503515739567,+0.705,+0.602,+0.207,+0.313,+0.864,+0.074,-0.092,-10.750,-38.062,+2.875,-1, -2, -4, -4, -5, -3, -3, -6,2.3762710308502375,1.3794878659535477,5
1503515739582,+0.707,+0.601,+0.206,+0.312,+0.885,+0.067,-0.116,-14.688,-9.500,+3.938,-2, -8, -2, -2, 0, 2, 1, 8,2.3798065673837847,1.3762973963996976,5
1503515739605,+0.706,+0.604,+0.205,+0.308,+0.980,+0.104,-0.145,-20.625,+13.438,+9.688,56, 16, 0, -1, -1, -2, -2, -11,2.3873885923692684,1.382754762690495,5
1503515739627,+0.706,+0.606,+0.203,+0.305,+1.050,+0.144,-0.119,-25.062,+12.375,+6.750,-17, 1, -3, -3, -1, 1, 0, 6,2.394986417669137,1.3859875423238055,5
1503515739644,+0.706,+0.607,+0.200,+0.303,+1.055,+0.156,-0.173,-17.375,-0.875,+2.188,-5, 18, 9, 5, 0, 1, -1, -13,2.4011184813141004,1.3857705622174954,5
1503515739665,+0.708,+0.606,+0.198,+0.304,+0.952,+0.116,-0.171,-7.000,-14.625,-3.125,-11, -18, -10, -1, 1, -1, 2, 2,2.4034508181592478,1.3818423089524292,5
1503515739687,+0.710,+0.604,+0.196,+0.305,+0.924,+0.097,-0.147,-6.750,-18.438,-7.750,12, -20, -8, -8, -4, -4, 5, 29,2.40443720260852,1.3752827522909554,5
1503515739702,+0.710,+0.604,+0.193,+0.306,+0.914,+0.120,-0.131,-8.438,-6.188,-10.250,-63, -16, -5, -1, -3, -1, -1, -6,2.406077087712525,1.3727004507939988,5
1503515739725,+0.709,+0.605,+0.192,+0.306,+0.972,+0.131,-0.118,-8.250,+3.938,-7.812,-6, 17, 9, 3, 1, -11, 0, -1,2.4068649385011964,1.3742455385452477,5
1503515739747,+0.709,+0.606,+0.190,+0.306,+1.019,+0.152,-0.156,-5.875,-0.375,-3.938,25, -9, -12, -1, -1, 2, -2, -12,2.410020520677596,1.3751652153461114,5
1503515739762,+0.710,+0.605,+0.188,+0.308,+0.986,+0.176,-0.167,-2.438,-11.688,-3.625,4, -7, -5, 0, 1, 3, -4, 3,2.4098122098772663,1.371152654579551,5
1503515739785,+0.712,+0.602,+0.186,+0.309,+0.943,+0.184,-0.152,-0.875,-22.438,-0.438,2, 4, 1, -1, 0, -1, 0, 8,2.409425928525325,1.3619932830749104,5
1503515739807,+0.714,+0.600,+0.186,+0.309,+0.932,+0.168,-0.132,-1.312,-17.750,+6.625,7, 5, 4, 2, -1, 1, -6, -16,2.409660327485554,1.3571695815955245,5
1503515739823,+0.715,+0.600,+0.186,+0.308,+0.951,+0.176,-0.125,-4.625,-6.750,+14.250,-14, -20, -6, -5, -5, 0, -3, 7,2.412184951773778,1.3573459759147224,5
1503515739845,+0.716,+0.599,+0.186,+0.305,+0.959,+0.177,-0.135,-7.312,-7.500,+20.312,-17, -37, -5, -5, -1, 0, 0, -10,2.415537125603137,1.354701914930962,5
1503515739866,+0.719,+0.598,+0.186,+0.302,+0.960,+0.163,-0.156,-11.188,-11.688,+22.875,9, 10, 1, 1, 1, 1, -2, -1,2.4218234808755024,1.3525778464514346,5
1503515739889,+0.721,+0.596,+0.186,+0.299,+0.966,+0.140,-0.154,-12.500,-15.125,+23.875,10, 7, -1, -1, 1, -1, 2, 2,2.4253960784674256,1.3475436261866722,5
1503515739904,+0.724,+0.595,+0.186,+0.295,+0.981,+0.129,-0.167,-12.750,-12.562,+26.000,1, 0, 0, -1, -2, 0, 2, 1,2.432847937958378,1.345354812531273,5
1503515739926,+0.727,+0.593,+0.186,+0.292,+0.978,+0.104,-0.193,-13.500,-10.438,+24.438,9, 12, 0, -3, 1, 2, 2, 9,2.437968582634838,1.3406080148844626,5
1503515739949,+0.730,+0.591,+0.186,+0.288,+0.960,+0.069,-0.204,-15.312,-12.188,+22.188,48, 33, 13, 3, 0, 0, 0, 1,2.444262904590259,1.3357905105998065,5
1503515739964,+0.733,+0.590,+0.186,+0.284,+0.946,+0.036,-0.206,-15.688,-12.000,+21.062,-22, -14, -4, -1, 0, -1, -3, 3,2.4518449892173853,1.3336281223860365,5
1503515739987,+0.734,+0.589,+0.186,+0.280,+0.955,+0.017,-0.198,-17.312,-1.688,+18.000,-1, -7, -5, -3, -2, -3, 1, -4,2.4566089627942045,1.3309117124709748,5
1503515740009,+0.734,+0.591,+0.187,+0.276,+0.995,+0.020,-0.184,-13.375,+10.812,+14.125,2, 0, -2, 0, -2, -2, -1, 4,2.462667983968771,1.3367078150180118,5
1503515740024,+0.734,+0.592,+0.188,+0.274,+1.065,+0.006,-0.220,-5.438,+10.812,+7.688,0, -6, -4, -2, 1, -4, -9, -4,2.465230809009895,1.3400377907033438,5
1503515740047,+0.735,+0.591,+0.188,+0.275,+1.042,-0.005,-0.236,-0.438,-3.875,-2.500,-11, -1, 0, 0, 0, 0, -1, -4,2.464308021598451,1.3377532142421582,5
1503515740069,+0.737,+0.588,+0.188,+0.276,+1.007,-0.043,-0.207,+2.250,-20.875,-7.688,-11, 0, 1, -1, -2, 2, 1, -1,2.462437276674707,1.3304761356745094,5
1503515740084,+0.738,+0.586,+0.188,+0.277,+0.964,-0.052,-0.157,+2.938,-13.562,-5.688,-11, -5, -3, -1, -4, -2, -1, -2,2.4603457829811846,1.3255768210342191,5
1503515740106,+0.737,+0.587,+0.189,+0.278,+0.968,-0.013,-0.159,+5.500,+0.438,-5.250,2, 2, -1, -1, 2, 2, 2, -4,2.4580471458889717,1.3288855734392442,5
1503515740129,+0.736,+0.587,+0.190,+0.279,+0.980,+0.018,-0.235,+7.062,+7.500,-6.688,-3, -3, -2, -1, -1, -1, -1, 0,2.454563427229211,1.3295651594765487,5
1503515740144,+0.736,+0.586,+0.190,+0.281,+1.004,+0.037,-0.238,+8.812,-3.750,-8.875,0, 21, 12, 0, -1, -1, 0, 1,2.451089828565052,1.327114252764529,5
1503515740166,+0.737,+0.584,+0.191,+0.283,+1.011,+0.035,-0.209,+11.812,-12.062,-3.938,-23, -19, -6, 0, -2, 0, 1, 15,2.4469657466585524,1.3232010692980112,5
1503515740181,+0.737,+0.582,+0.193,+0.284,+0.988,+0.041,-0.174,+13.188,-11.250,+2.625,7, 1, -1, 0, 0, -3, -6, -11,2.441638665243321,1.3198138824990087,5
1503515743205,+0.748,+0.566,+0.231,+0.259,+0.992,-0.130,-0.173,+10.438,-18.562,-16.125,-19, -11, -6, -7, -1, -2, -1, -2,2.434662903935808,1.3151652042321325,6
1503515743229,+0.749,+0.563,+0.230,+0.262,+1.040,-0.078,-0.220,+7.062,-20.312,-10.688,2, 1, -4, -4, -3, -1, 0, 2,2.430297783805442,1.307074223175707,6
1503515743248,+0.751,+0.560,+0.230,+0.265,+0.950,-0.033,-0.273,+11.375,-23.312,-6.500,1, 8, 1, 0, 0, 0, 3, -3,2.4266544505939263,1.3003369060887355,6
1503515743271,+0.752,+0.556,+0.230,+0.269,+0.909,-0.023,-0.147,+14.625,-30.000,-4.938,0, 3, 2, 3, 0, 0, -2, 5,2.41920898616374,1.2909058234256963,6
1503515743287,+0.753,+0.554,+0.230,+0.271,+0.969,-0.071,-0.119,+9.250,-22.625,-9.562,-1, -7, -2, 0, 0, 0, 1, 1,2.416288644675942,1.2863639008567374,6
1503515743308,+0.753,+0.554,+0.229,+0.272,+1.014,-0.054,-0.154,-1.188,-12.375,-7.062,-4, -2, 1, -1, 0, -2, -3, -2,2.4159907225426034,1.2854585845666835,6
1503515743325,+0.753,+0.554,+0.229,+0.272,+0.960,+0.013,-0.265,-3.812,+2.750,+2.688,-2, 4, -2, -1, -2, -3, -2, 4,2.4159907225426034,1.2854585845666835,6
1503515743353,+0.753,+0.554,+0.228,+0.272,+0.951,+0.043,-0.271,-3.938,+1.688,+5.688,-6, -10, -6, -3, -3, 0, 0, 0,2.4168205048251417,1.284427425703274,6
1503515743376,+0.754,+0.554,+0.227,+0.270,+1.045,-0.004,-0.138,-9.500,-10.375,+5.875,8, -4, -1, 0, 1, 0, 2, 1,2.4215043717212645,1.2834563129182726,6
1503515743385,+0.755,+0.554,+0.225,+0.269,+1.090,+0.003,-0.155,-12.500,-13.812,+4.188,1, 7, 1, 1, -2, -1, -4, 1,2.4258940570612353,1.2816011316165907,6
1503515743406,+0.758,+0.551,+0.222,+0.269,+1.028,+0.043,-0.277,-13.375,-27.062,+5.125,13, -27, -8, -2, 2, -1, -1, 1,2.429800358124633,1.2718571763964357,6
1503515743429,+0.762,+0.547,+0.220,+0.268,+0.929,+0.031,-0.355,-11.312,-27.000,+13.312,-9, 8, 10, 2, 2, -2, 0, 1,2.4345350988907644,1.2608201519232451,6
1503515743451,+0.765,+0.544,+0.219,+0.266,+0.926,-0.005,-0.305,-11.250,-16.750,+20.375,-11, -10, -8, -4, -3, 1, -1, -6,2.4391749738018658,1.252911279676716,6
1503515743467,+0.767,+0.543,+0.220,+0.262,+0.977,-0.021,-0.282,-9.750,-7.625,+24.688,3, 11, 2, 2, 3, 0, -8, -3,2.4451127288981804,1.2514952423314716,6
1503515743489,+0.769,+0.541,+0.220,+0.258,+0.965,-0.043,-0.278,-14.000,-6.312,+28.312,-2, 4, 3, 1, 0, 2, 4, -1,2.4508832791429707,1.2465300640047745,6
1503515743506,+0.771,+0.541,+0.221,+0.253,+0.918,-0.039,-0.263,-15.312,+4.562,+28.812,3, 10, 1, -2, -1, -3, 3, -2,2.4591401602386425,1.247518088251847,6
1503515743530,+0.771,+0.542,+0.222,+0.249,+0.971,-0.036,-0.248,-11.438,+6.938,+23.062,7, 37, 36, 9, 2, 1, 4, 3,2.4641262152760706,1.2505072996696522,6
1503515743549,+0.772,+0.543,+0.222,+0.246,+1.029,-0.039,-0.272,-10.250,+2.375,+16.188,-5, 28, 5, -4, -7, -2, 2, 2,2.470306644542165,1.252980980270309,6
1503515743565,+0.774,+0.541,+0.221,+0.245,+0.995,-0.047,-0.292,-7.938,-17.312,+7.000,-10, -24, -6, 0, 0, -1, -4, -6,2.4734461007932693,1.2474257270846532,6
1503515743589,+0.777,+0.536,+0.219,+0.246,+0.952,-0.063,-0.311,-6.000,-33.375,+2.125,4, -6, -3, -1, 1, -1, 2, 2,2.47358364427749,1.233890638845519,6
1503515743610,+0.781,+0.532,+0.217,+0.246,+0.877,-0.078,-0.307,-6.125,-29.312,+5.250,2, -12, -10, -2, -1, -2, 0, 3,2.4775204185698976,1.2231798220934835,6
1503515743625,+0.782,+0.530,+0.217,+0.245,+0.835,-0.079,-0.275,-6.125,-9.062,+8.188,1, -3, -10, -3, -3, -1, -6, -3,2.47835999106136,1.2183179841782825,6
1503515743647,+0.782,+0.531,+0.217,+0.243,+0.880,-0.071,-0.277,-6.812,+5.625,+8.375,0, -23, -12, -2, -3, -3, -6, -6,2.4818030644827838,1.220557778076186,6
1503515743669,+0.782,+0.532,+0.217,+0.241,+0.936,-0.060,-0.314,-5.688,+5.812,+7.250,-1, -10, -11, -3, -1, -1, -6, -3,2.485248413255205,1.2228016802266433,6
1503515743684,+0.783,+0.531,+0.217,+0.240,+0.942,-0.092,-0.327,-5.812,+0.312,+5.375,-3, 4, 5, 0, 0, 0, 3, 1,2.4870711248996384,1.220475115822966,6
1503515743707,+0.784,+0.530,+0.217,+0.239,+0.946,-0.111,-0.325,-5.125,-4.250,+4.125,-2, 0, 0, -1, 0, -1, -3, -1,2.4889023741080867,1.2181502346821995,6
1503515743731,+0.785,+0.529,+0.217,+0.238,+0.917,-0.127,-0.298,-7.375,-10.375,+5.562,-4, -4, -1, 0, -1, -2, -1, -2,2.490742130111928,1.2158270267677078,6
1503515743745,+0.786,+0.528,+0.216,+0.237,+0.951,-0.125,-0.258,-9.000,-8.062,+4.250,-4, 1, 2, 2, 3, 1, 1, 0,2.493435946444901,1.2125240953349448,6
1503515743767,+0.787,+0.528,+0.215,+0.236,+0.957,-0.088,-0.291,-7.375,-8.562,+1.375,-7, -6, -3, -1, -1, 0, 0, -5,2.497068001645515,1.211767148137608,6
1503515743789,+0.788,+0.526,+0.214,+0.237,+0.951,-0.069,-0.343,-3.938,-13.188,-2.500,2, 34, 17, 5, 0, -2, -5, -6,2.4963153334545676,1.2062418333522273,6
1503515743805,+0.790,+0.523,+0.212,+0.238,+0.948,-0.070,-0.359,-2.562,-19.625,-3.312,-6, -13, -8, -3, -1, -1, -1, 2,2.497007195083762,1.1976063628666782,6
1503515743827,+0.792,+0.521,+0.211,+0.239,+0.942,-0.097,-0.332,-2.562,-15.875,-1.812,-5, -10, -4, -2, -3, 0, 1, 2,2.497786226040768,1.1925005900414318,6
1503515743849,+0.792,+0.521,+0.211,+0.238,+0.915,-0.111,-0.279,-4.562,-0.188,-0.688,1, -4, -4, -1, -1, -1, -3, -5,2.49905817195353,1.1923441340918333,6
1503515743865,+0.790,+0.524,+0.211,+0.238,+0.969,-0.083,-0.277,-4.188,+12.062,-3.438,1, 1, 1, 0, 0, 0, 1, 8,2.498770938345189,1.1991766712461183,6
1503515743887,+0.789,+0.526,+0.211,+0.239,+1.020,-0.059,-0.355,-0.188,+13.938,-5.188,-30, 1, 7, -2, -4, -4, -11, -11,2.4978362811411396,1.2040222179860371,6
1503515750913,+0.787,+0.551,+0.188,+0.205,+0.885,+0.011,-0.315,-13.750,-38.938,-5.438,16, 18, 14, 4, 2, 0, 1, 1,2.5820303736143697,1.2420808130736574,7
1503515750936,+0.790,+0.547,+0.184,+0.206,+0.862,-0.025,-0.280,-13.938,-34.000,-8.375,3, 9, -9, -5, -3, -4, -2, -2,2.5850006017647993,1.2295363405315272,7
1503515750951,+0.792,+0.546,+0.182,+0.205,+0.851,-0.092,-0.231,-18.000,-11.750,-3.312,-12, -14, -7, -6, 2, -4, -5, -6,2.590006403225535,1.225895077654313,7
1503515750973,+0.792,+0.548,+0.178,+0.204,+0.899,-0.050,-0.242,-23.188,+3.250,-5.688,-1, 7, 4, 3, -4, -4, -1, -1,2.5967631565785583,1.2277012719301617,7
1503515750996,+0.793,+0.548,+0.174,+0.204,+0.993,+0.023,-0.278,-21.938,-11.500,-11.500,0, -4, 3, 2, 8, -3, 2, -3,2.6018035658628715,1.224867147602035,7
1503515751011,+0.795,+0.545,+0.168,+0.206,+0.984,+0.060,-0.378,-15.938,-26.625,-11.125,-4, 5, -2, -5, -25, -5, 2, 4,2.6047798482227873,1.2133475636416615,7
1503515751041,+0.799,+0.540,+0.164,+0.208,+0.874,+0.038,-0.384,-9.500,-37.625,-9.750,3, 1, -3, -4, -9, -5, -7, -2,2.606746721302731,1.1990690473849053,7
1503515751056,+0.806,+0.530,+0.163,+0.206,+0.883,-0.197,-0.477,-12.000,-53.312,+11.625,-5, -14, -7, -3, 16, 2, 2, -1,2.611302849947077,1.1749913053381864,7
1503515751071,+0.809,+0.528,+0.161,+0.202,+0.935,-0.065,-0.301,-21.250,-24.938,+19.188,6, 11, 4, 5, 6, 3, -3, -1,2.620975805714352,1.169048128474445,7
1503515751093,+0.811,+0.526,+0.161,+0.199,+0.982,-0.036,-0.326,-13.812,-12.188,+17.750,4, 14, -1, -2, -31, -1, 0, 1,2.6261888086708884,1.1643408682401493,7
1503515751116,+0.812,+0.524,+0.160,+0.198,+1.093,+0.002,-0.364,-5.312,-17.562,+11.812,-3, -10, -5, 3, 2, 3, -2, -6,2.62826533786657,1.1587292621402985,7
1503515751131,+0.814,+0.522,+0.161,+0.199,+1.008,+0.007,-0.371,+6.688,-18.062,+4.000,-6, -4, -2, -6, -5, 1, 0, 2,2.6269441455486775,1.155302883880174,7
1503515751153,+0.815,+0.519,+0.162,+0.200,+0.946,-0.050,-0.345,+14.062,-16.000,+1.125,-5, -5, 0, -15, -57, -6, 0, 3,2.6236390583645752,1.1489074824765277,7
1503515751177,+0.816,+0.517,+0.164,+0.201,+0.922,-0.101,-0.374,+9.938,-15.625,+2.812,-6, -6, -6, -3, 6, 0, 2, -2,2.6201998381294005,1.1458622241400198,7
1503515751191,+0.817,+0.515,+0.165,+0.201,+0.899,-0.079,-0.375,+2.625,-7.750,+2.250,5, 8, 1, -5, 1, -3, 2, 1,2.619096133599027,1.1419386450383449,7
1503515751213,+0.817,+0.514,+0.165,+0.202,+0.885,-0.032,-0.402,+3.125,-4.500,+0.125,-6, -7, -7, -7, 9, -3, 1, 5,2.616933773178056,1.1395197164066513,7
1503515751236,+0.817,+0.513,+0.165,+0.204,+0.885,-0.022,-0.400,+8.750,-2.000,-2.875,-13, -4, 1, -4, -2, -5, -8, -6,2.6133521902152403,1.1372418213294526,7
1503515751251,+0.817,+0.512,+0.166,+0.205,+0.891,-0.076,-0.347,+8.938,-6.625,-5.562,-8, -7, -4, -5, -14, 2, 0, 2,2.6102980502804316,1.135602839524088,7
1503515751273,+0.817,+0.511,+0.166,+0.206,+0.935,-0.102,-0.341,+1.625,-9.000,-5.125,-8, -6, -3, 3, 10, 0, 3, -1,2.608129271649728,1.1331922463231545,7
1503515751296,+0.818,+0.510,+0.165,+0.207,+0.943,-0.059,-0.363,-4.688,-14.375,-4.312,-3, -5, -5, 5, 3, 2, -4, -4,2.6081545175785674,1.1304422279787574,7
1503515751311,+0.820,+0.507,+0.163,+0.208,+0.920,-0.004,-0.420,-3.000,-18.250,-2.375,1, -4, 0, -2, -7, -5, -5, -2,2.608858990373198,1.122277485396591,7
1503515751336,+0.822,+0.504,+0.162,+0.210,+0.871,+0.001,-0.438,+3.812,-19.125,-4.625,14, 12, 10, 5, 4, 2, -9, 1,2.607273436798976,1.1150564246446901,7
1503515751356,+0.822,+0.502,+0.163,+0.211,+0.874,-0.049,-0.415,+6.188,-10.375,-2.625,3, 0, -3, -5, -48, -5, -5, 11,2.6034883816491345,1.1108985847987458,7
1503515751371,+0.822,+0.502,+0.163,+0.212,+0.922,-0.076,-0.385,+2.312,-3.188,-1.875,-5, -12, -6, -1, 2, 2, 8, 15,2.6020724515964093,1.1110435671066812,7
1503515751393,+0.823,+0.502,+0.163,+0.212,+0.944,-0.062,-0.399,-2.062,-4.750,-3.000,1, 12, 10, 5, 14, -1, -3, -13,2.603398785720446,1.11148954424862,7
1503515751416,+0.823,+0.501,+0.162,+0.213,+0.923,-0.023,-0.410,-2.875,-8.125,-3.250,22, 1, -3, 1, 12, 2, -1, 7,2.6020955060505564,1.1083301796601652,7
1503515751431,+0.824,+0.499,+0.161,+0.214,+0.923,-0.005,-0.409,+2.312,-10.875,-2.188,-10, -2, -3, -1, 10, -2, 2, -3,2.6013642245183988,1.1030944123763524,7
1503515751453,+0.825,+0.497,+0.161,+0.216,+0.902,-0.031,-0.420,+5.625,-11.875,-2.625,-4, 1, -3, -1, 5, 1, -2, -8,2.5983638566020955,1.0987856691334719,7
1503515751476,+0.825,+0.496,+0.161,+0.217,+0.871,-0.071,-0.407,+2.812,-9.125,-3.812,4, 4, 3, 0, 2, 1, 1, 13,2.596196302146449,1.0964095421690236,7
1503515751491,+0.826,+0.495,+0.161,+0.217,+0.892,-0.062,-0.417,-4.125,-5.938,-0.562,-2, -1, -3, 0, 0, 2, 10, 26,2.5967857411796813,1.0943425675189487,7
1503515751513,+0.826,+0.495,+0.160,+0.217,+0.916,-0.030,-0.409,-6.688,-5.688,-1.062,-23, -22, -12, -2, -1, -2, -5, -20,2.597633470915495,1.093572074877521,7
1503515751537,+0.827,+0.494,+0.159,+0.217,+0.922,-0.010,-0.433,-1.938,-10.062,-1.000,9, -5, -4, -3, -7, -1, 0, 1,2.599069403299755,1.0907411875042905,7
1503515751551,+0.828,+0.492,+0.158,+0.219,+0.882,+0.000,-0.460,+4.562,-7.750,-4.500,0, 3, -1, -2, -5, -4, 0, 18,2.596921339426732,1.0856949419128283,7
1503515751573,+0.827,+0.492,+0.159,+0.220,+0.861,-0.040,-0.401,+7.312,-0.750,-1.688,-3, -3, -4, -5, -4, 2, 2, 5,2.593318567042833,1.0861500517676932,7
1503515755915,+0.888,+0.423,+0.122,+0.130,+0.833,-0.098,-0.557,-3.938,+6.812,+0.125,3, -1, -2, -1, -1, -1, -2, -4,2.798395403462175,0.9070540460578395,8
1503515755938,+0.888,+0.424,+0.122,+0.130,+0.833,-0.094,-0.567,-3.375,+3.250,-1.938,-2, -3, -3, -1, -1, -1, 2, 1,2.798737537027925,0.9094963102055315,8
1503515755953,+0.888,+0.424,+0.121,+0.130,+0.804,-0.101,-0.569,-2.688,+0.250,-3.500,-1, -2, 0, -1, -3, -3, -2, -1,2.799540811046969,0.9089500549247245,8
1503515755975,+0.888,+0.425,+0.121,+0.131,+0.781,-0.104,-0.556,-3.688,+0.125,-3.375,-2, 4, 3, -2, 0, -1, 1, 1,2.7982046045984683,0.9115426993257361,8
1503515755999,+0.888,+0.425,+0.120,+0.131,+0.790,-0.090,-0.583,-3.688,+2.188,-3.375,0, 3, 0, 0, 0, -1, -1, 0,2.79900801055666,0.9109985509743038,8
1503515756013,+0.887,+0.425,+0.119,+0.132,+0.810,-0.085,-0.571,-2.875,+2.188,-3.500,1, -2, -2, 0, 1, -1, -2, 1,2.7971793531054314,0.9100802812139317,8
1503515756036,+0.887,+0.426,+0.119,+0.132,+0.833,-0.097,-0.562,-2.188,+2.000,-2.500,-1, -2, -2, -2, -1, 0, -3, -1,2.7975318365864736,0.9125248610337853,8
1503515756060,+0.887,+0.426,+0.119,+0.133,+0.832,-0.087,-0.559,-1.812,-0.312,-3.625,-1, 9, 2, 0, 1, 0, 1, -1,2.795854073927388,0.9126711533359985,8
1503515756073,+0.887,+0.426,+0.118,+0.133,+0.807,-0.090,-0.570,-2.312,-2.312,-3.000,1, -9, -4, -2, -2, -1, -3, 0,2.7966596015344782,0.9121309319144312,8
1503515756096,+0.887,+0.426,+0.118,+0.134,+0.794,-0.080,-0.577,-1.312,-1.625,-2.875,-2, -11, -2, 0, -1, -4, -2, 0,2.79498289083382,0.9122760299333855,8
1503515756118,+0.887,+0.425,+0.118,+0.134,+0.791,-0.076,-0.585,+0.375,-1.688,-2.688,-1, -2, -3, 0, 0, 0, 0, -4,2.794624525849822,0.9098324776978348,8
1503515756133,+0.887,+0.426,+0.117,+0.135,+0.785,-0.083,-0.566,+0.250,+1.375,-3.312,2, 2, 2, 0, 0, -1, 1, 0,2.794112255654716,0.9118818345141927,8
1503515756164,+0.887,+0.426,+0.117,+0.135,+0.823,-0.097,-0.565,-0.312,+1.062,-3.812,-2, -2, -3, 1, -2, -2, 3, -4,2.794112255654716,0.9118818345141927,8
1503515756178,+0.886,+0.427,+0.117,+0.136,+0.834,-0.079,-0.565,-2.000,+2.250,-2.438,-1, 1, 0, -2, -1, -1, -2, -1,2.791841812984481,0.9139462418726845,8
1503515756196,+0.886,+0.427,+0.117,+0.136,+0.801,-0.076,-0.577,-1.688,+1.625,-1.062,0, 22, 10, 0, -2, 0, -1, -1,2.791841812984481,0.9139462418726845,8
1503515756215,+0.886,+0.427,+0.117,+0.136,+0.783,-0.081,-0.565,-0.562,+0.438,-0.188,0, -8, -4, 1, 0, 1, -1, 0,2.791841812984481,0.9139462418726845,8
1503515756238,+0.886,+0.427,+0.117,+0.136,+0.792,-0.070,-0.567,+0.750,+4.375,-1.062,4, 13, 9, -2, -1, -1, -1, -1,2.791841812984481,0.9139462418726845,8
1503515756253,+0.886,+0.428,+0.117,+0.137,+0.817,-0.091,-0.569,+3.250,+2.500,-3.312,-2, -5, -7, -1, -1, -1, -2, -1,2.790539537957077,0.9165352076471925,8
1503515756275,+0.885,+0.429,+0.118,+0.138,+0.828,-0.090,-0.556,+1.750,+3.875,-2.625,-1, -9, -3, 0, -1, -1, -1, 2,2.7874695568393246,0.9191452752125665,8
1503515756301,+0.885,+0.429,+0.118,+0.138,+0.829,-0.083,-0.552,+1.062,+1.688,-2.625,-4, -6, -2, 1, 0, 0, -1, -2,2.7874695568393246,0.9191452752125665,8
1503515756313,+0.885,+0.429,+0.118,+0.139,+0.818,-0.082,-0.553,-0.688,-0.750,-1.812,0, -25, -6, -3, -1, -1, -1, 0,2.785804337399786,0.919288957908494,8
1503515756336,+0.885,+0.429,+0.118,+0.139,+0.803,-0.072,-0.566,+0.500,-2.062,-0.750,-2, -8, -6, -3, -1, -1, -3, -1,2.785804337399786,0.919288957908494,8
1503515756358,+0.885,+0.429,+0.118,+0.140,+0.795,-0.072,-0.584,+3.250,-0.188,-2.375,3, 14, 4, 0, -2, -1, -3, -2,2.784141176283036,0.9194325864808195,8
1503515756373,+0.885,+0.428,+0.119,+0.141,+0.793,-0.109,-0.560,+3.562,+0.500,-3.312,-3, -4, -3, 0, -1, -1, 0, -2,2.7812934844051895,0.9176806277620869,8
1503515756396,+0.884,+0.430,+0.119,+0.140,+0.834,-0.095,-0.543,-1.938,+6.062,-0.062,1, 1, -1, -1, -3, 0, 0, 1,2.7827345698693335,0.9219071820097693,8
1503515756429,+0.884,+0.430,+0.119,+0.141,+0.842,-0.077,-0.558,-3.750,-0.438,-2.062,-1, 3, 0, -1, 0, -4, 0, -3,2.7810738655495872,0.9220515574883564,8
1503515756441,+0.884,+0.430,+0.118,+0.141,+0.811,-0.077,-0.552,-3.875,-0.750,-1.188,4, 1, 1, 0, 1, 2, 0, 0,2.781881415121133,0.9215014051497746,8
1503515756455,+0.884,+0.430,+0.117,+0.141,+0.809,-0.074,-0.562,-1.938,-4.125,-1.875,-2, -2, -3, 0, -2, 1, 0, 0,2.7826894554926778,0.920954517793256,8
1503515756478,+0.884,+0.429,+0.117,+0.141,+0.792,-0.074,-0.573,-0.875,-0.438,-1.938,-1, 4, -4, -2, -1, -2, 2, 1,2.7823029750694577,0.9185069834436316,8
1503515756496,+0.884,+0.430,+0.117,+0.142,+0.831,-0.077,-0.561,-0.125,-0.062,-1.750,-2, -3, -1, 0, 0, 0, -1, -3,2.7810288074888123,0.9210966011176231,8
1503515756516,+0.884,+0.429,+0.117,+0.142,+0.839,-0.085,-0.561,-0.500,-2.375,-2.562,-2, -6, -3, -1, -1, 0, 1, -1,2.780639748093829,0.9186495762436271,8
1503515756538,+0.884,+0.429,+0.117,+0.143,+0.799,-0.077,-0.560,-0.812,-3.625,-3.625,0, 0, -3, -2, -2, -5, -3, -1,2.778978607022655,0.9187921158084554,8
1503515756554,+0.885,+0.428,+0.116,+0.144,+0.799,-0.056,-0.574,-0.188,-5.250,-2.562,-1, -9, -3, -1, 0, -1, -2, -2,2.778721864970712,0.9164658553550666,8
1503515756576,+0.885,+0.428,+0.117,+0.145,+0.817,-0.054,-0.592,+3.438,-2.312,-1.688,-2, -2, 0, -1, -2, -2, -2, 1,2.776263735857583,0.9171553811820833,8
1503515756599,+0.884,+0.427,+0.117,+0.146,+0.798,-0.073,-0.569,+5.188,+0.312,-2.625,0, 1, 1, 1, -2, 1, -4, -4,2.7732094597308,0.9143336517367894,8
1503515756613,+0.884,+0.428,+0.118,+0.146,+0.808,-0.113,-0.570,+4.062,+1.312,-2.188,-1, -5, -1, -3, -5, -3, 3, 1,2.772806866413164,0.9173284505374875,8
1503515756636,+0.884,+0.428,+0.118,+0.147,+0.812,-0.080,-0.571,+1.188,+5.125,-3.938,3, 10, 2, 0, 2, 0, -4, -2,2.7711526104714066,0.9174724095812836,8
1503515760320,+0.744,+0.594,+0.166,+0.257,+0.968,+0.039,-0.211,-6.625,-8.375,+10.312,-12, -16, -5, -2, 0, 2, 1, -8,2.522082862054593,1.3288137674338274,9
1503515760342,+0.745,+0.594,+0.167,+0.255,+0.964,+0.026,-0.208,-7.375,+0.375,+12.250,4, 3, 1, 0, -2, 0, -1, 10,2.524852657738653,1.3297089213035471,9
1503515760356,+0.746,+0.594,+0.167,+0.252,+0.985,+0.031,-0.203,-9.250,-0.625,+11.812,-4, -3, -5, -4, -4, 3, -3, -4,2.529812273116501,1.3297533612489927,9
1503515760383,+0.746,+0.593,+0.168,+0.251,+1.000,+0.024,-0.219,-5.625,+1.125,+7.250,-3, -6, -5, 1, 2, -2, 2, 2,2.5289708798279795,1.3277794638137357,9
1503515760402,+0.747,+0.593,+0.168,+0.250,+1.004,+0.002,-0.214,-2.875,-2.688,+0.875,-6, 8, -4, -3, -2, 0, 0, 1,2.5315003351636545,1.3279841535641392,9
1503515760417,+0.748,+0.592,+0.168,+0.250,+1.003,-0.001,-0.202,-2.625,-9.750,+2.125,-8, -6, 0, 0, 0, 0, 1, -8,2.5317210885607637,1.3256080135538553,9
1503515760439,+0.749,+0.590,+0.168,+0.249,+0.967,+0.006,-0.208,-3.875,-9.188,+4.188,8, 2, 3, 1, -1, -4, -1, 5,2.532097650901737,1.3204928496663944,9
1503515760462,+0.750,+0.590,+0.168,+0.248,+0.946,+0.041,-0.233,-2.812,+0.250,+5.250,2, 0, 2, -3, -5, -1, -1, -4,2.5346360261665906,1.3207020279079424,9
1503515760476,+0.749,+0.590,+0.169,+0.247,+0.925,+0.062,-0.230,+0.500,+9.188,+7.000,20, 1, -2, -1, 0, -1, -2, -1,2.533591369715606,1.3211028147229853,9
1503515760499,+0.749,+0.591,+0.171,+0.247,+0.980,+0.069,-0.217,+4.812,+8.438,+7.500,-11, 3, 9, 3, 0, -1, -7, -4,2.5327231166301076,1.3253247139568136,9
1503515760523,+0.749,+0.591,+0.173,+0.247,+1.019,+0.075,-0.208,+8.688,+0.750,+11.500,-2, -5, -5, -3, 0, 2, 5, 7,2.530787193549949,1.3268989540071614,9
1503515760544,+0.750,+0.589,+0.176,+0.246,+0.999,+0.062,-0.199,+10.125,-6.438,+18.562,-5, -2, -2, 0, -3, 0, -1, -12,2.5282988531307766,1.3241854965588833,9
1503515760559,+0.751,+0.587,+0.179,+0.245,+0.952,+0.044,-0.205,+10.812,-6.812,+21.000,-4, -5, -4, 0, 2, 0, 1, 1,2.5258431407163235,1.3215173407367715,9
1503515760582,+0.752,+0.585,+0.182,+0.244,+0.943,+0.029,-0.219,+11.750,-6.250,+22.875,-2, 1, -3, -1, -1, 0, -1, -7,2.523420121459332,1.3188942746932528,9
1503515760604,+0.753,+0.583,+0.187,+0.242,+0.950,+0.028,-0.215,+15.375,-3.500,+26.250,15, -6, -1, 0, 0, 1, 0, 0,2.5203583893634254,1.3179061984688636,9
1503515760619,+0.753,+0.581,+0.191,+0.241,+0.923,+0.006,-0.203,+18.812,+1.188,+25.188,-9, -6, -3, -1, 0, 0, -3, -3,2.515694225899229,1.3159599889691018,9
1503515760641,+0.754,+0.579,+0.197,+0.240,+0.948,-0.040,-0.189,+18.500,-0.625,+25.875,-1, -3, -4, 0, 0, 0, 3, -4,2.5105620144385488,1.3161378268384736,9
1503515760663,+0.754,+0.578,+0.201,+0.237,+0.956,-0.083,-0.199,+11.250,-0.562,+23.562,5, -7, -3, -2, 0, -3, -5, 5,2.5094320135109407,1.3167804209529244,9
1503515760679,+0.755,+0.577,+0.204,+0.235,+0.968,-0.068,-0.187,+5.125,-0.562,+18.938,-11, -11, -3, 0, -1, -1, -4, -6,2.509435696072709,1.3169600457252302,9
1503515760716,+0.756,+0.575,+0.207,+0.234,+1.007,-0.060,-0.185,+7.250,-7.938,+15.688,-3, -1, 6, 0, -1, 3, 5, 6,2.5072111114282185,1.3146645904298122,9
1503515760723,+0.758,+0.572,+0.210,+0.234,+1.018,-0.076,-0.188,+11.000,-18.875,+15.750,2, 1, -3, 0, 0, -1, 0, 6,2.5042031692715483,1.3102099234863656,9
1503515760738,+0.759,+0.569,+0.212,+0.234,+1.000,-0.103,-0.201,+10.938,-17.250,+11.438,-2, 0, -1, -2, -1, -1, -1, -12,2.500733806105881,1.304578020140207,9
1503515760760,+0.760,+0.567,+0.214,+0.234,+0.964,-0.098,-0.208,+9.062,-10.812,+4.125,17, 15, -4, 1, 2, -1, -1, 2,2.49831408869012,1.3015777367982289,9
1503515760783,+0.760,+0.566,+0.216,+0.235,+0.964,-0.092,-0.219,+8.750,-1.125,+3.562,-8, -1, 1, 1, 2, -2, -2, -5,2.4942605698531852,1.3010098042090823,9
1503515760798,+0.759,+0.567,+0.218,+0.234,+0.993,-0.094,-0.219,+6.562,+8.562,+2.625,5, 3, 0, -3, -3, -4, -2, -16,2.493224538786995,1.3051135486201886,9
1503515760821,+0.757,+0.569,+0.219,+0.235,+1.027,-0.075,-0.185,+3.938,+10.750,-3.688,-5, 7, 0, -4, -12, -3, 3, -10,2.4902376378762656,1.3107906237285514,9
1503515760843,+0.756,+0.570,+0.219,+0.236,+1.042,-0.028,-0.197,+5.000,+4.188,-4.938,-6, -3, 2, 2, 2, 0, 0, 14,2.488604283557354,1.3132053038964322,9
1503515760858,+0.756,+0.569,+0.219,+0.238,+1.009,-0.000,-0.214,+6.688,-1.938,-6.562,-5, -10, -2, -2, -1, 1, -2, -2,2.485159391258519,1.3108359566331897,9
1503515760882,+0.755,+0.569,+0.218,+0.240,+0.985,-0.031,-0.219,+5.875,-3.562,-6.688,19, -1, -7, -1, 0, -3, -8, -8,2.4821908106350414,1.3097981235674803,9
1503515760903,+0.755,+0.570,+0.219,+0.241,+0.980,-0.061,-0.195,+3.375,+3.812,-6.312,15, -26, -13, -2, -2, 0, 2, -8,2.481147539324037,1.3134730193572262,9
1503515760920,+0.753,+0.571,+0.219,+0.241,+1.017,-0.037,-0.193,+0.500,+9.625,-2.750,1, 1, -9, -2, -3, -1, 5, 7,2.4792565300605767,1.3154872818901893,9
1503515760943,+0.752,+0.572,+0.219,+0.242,+1.011,+0.003,-0.232,+2.438,+9.250,-0.500,1, -4, 1, -1, -1, -3, -2, -13,2.4776555390213377,1.3179059895201544,9
1503515760963,+0.752,+0.572,+0.219,+0.243,+0.962,+0.023,-0.250,+6.812,+3.062,-1.375,-2, 7, 5, 0, 1, 0, 5, 23,2.4764688215811206,1.3180157485127464,9
1503515760978,+0.752,+0.571,+0.220,+0.245,+0.965,-0.035,-0.216,+9.875,-4.500,-1.875,2, 9, 0, -2, -3, -1, -2, -11,2.4721313397743216,1.316616120508458,9
1503515761001,+0.751,+0.571,+0.222,+0.245,+0.990,-0.075,-0.191,+5.812,+3.375,+1.250,-2, -15, -4, 1, 1, -1, -4, 16,2.4688506201536895,1.3182898073426204,9
1503515761023,+0.750,+0.572,+0.223,+0.244,+0.998,-0.045,-0.172,+1.688,+8.250,+7.438,1, 2, 4, -1, -2, -3, -3, 2,2.468718416984895,1.321472940710151,9
1503515761038,+0.749,+0.573,+0.224,+0.244,+1.005,+0.003,-0.198,+2.312,+8.312,+4.938,-11, -5, -2, -2, -1, -3, -2, -1,2.467409515839891,1.3247738232185402,9
1503515761062,+0.749,+0.573,+0.225,+0.245,+1.021,-0.001,-0.218,+5.688,+2.188,+2.438,2, 3, 5, 0, -3, -3, -1, 12,2.465340623374629,1.3258749938128398,9
1503515761085,+0.750,+0.572,+0.225,+0.245,+1.035,-0.032,-0.201,+6.188,-9.125,+4.625,-27, -19, -5, -1, 1, 1, 3, -28,2.465752975636384,1.3235642938576924,9
1503515768524,+0.725,+0.574,+0.253,+0.285,+0.964,+0.016,-0.253,+8.312,-1.312,-2.125,9, 9, 0, 1, 12, 13, 4, -1,2.360797342198365,1.3560070530335007,10
1503515768545,+0.726,+0.571,+0.254,+0.287,+1.019,-0.013,-0.291,+13.062,-8.750,+0.500,-5, -11, 0, 0, 12, 15, 9, 0,2.3557995930206053,1.349934753359945,10
1503515768567,+0.728,+0.568,+0.254,+0.289,+1.043,-0.057,-0.163,+8.125,-27.562,-1.000,-3, -1, 1, 9, -11, 19, 9, 2,2.3532875545173266,1.3430302319777594,10
1503515768583,+0.729,+0.566,+0.255,+0.290,+1.012,-0.057,-0.055,+7.562,-23.000,+0.000,-3, -8, -3, 1, -13, 40, 18, 9,2.350621694448927,1.3394459822416462,10
1503515768605,+0.728,+0.564,+0.255,+0.293,+0.936,+0.010,-0.203,+12.625,-6.250,-7.625,-12, -8, -4, 2, 37, 21, 22, -11,2.3433705353918546,1.3344617997002381,10
1503515768628,+0.729,+0.561,+0.254,+0.298,+0.917,+0.030,-0.281,+14.125,-19.875,-12.500,-2, 2, 0, 0, 13, -9, -4, -8,2.3369674527383992,1.3265989563763765,10
1503515768643,+0.731,+0.558,+0.253,+0.301,+0.919,-0.023,-0.198,+11.188,-22.688,-8.938,5, -3, 2, 0, -11, -21, -11, -24,2.33430048868035,1.3188026474662906,10
1503515768666,+0.729,+0.559,+0.253,+0.303,+0.959,-0.038,-0.097,+4.312,-2.875,-12.438,5, 5, -1, -5, 4, -10, -6, -1,2.330158088948489,1.3210268800562806,10
1503515768690,+0.728,+0.559,+0.253,+0.305,+0.979,-0.009,-0.191,+5.250,+2.375,-10.812,10, -12, -4, -12, -12, -30, 3, 5,2.3264525221948227,1.321000659190154,10
1503515768704,+0.728,+0.559,+0.252,+0.307,+0.906,+0.032,-0.281,+5.500,-1.812,-8.062,-18, -19, -5, 0, 0, -2, -4, 71,2.3252223637207488,1.3201202918277988,10
1503515768726,+0.729,+0.557,+0.250,+0.309,+0.935,+0.005,-0.232,+1.188,-12.000,-9.875,14, 17, 9, 8, 6, 6, 7, -6,2.3238905693344285,1.3133449004009905,10
1503515768756,+0.728,+0.558,+0.250,+0.309,+0.978,-0.069,-0.125,-4.438,+3.312,-6.500,-11, -11, -5, -7, -17, 5, -8, -22,2.323471689165977,1.315590023844094,10
1503515768764,+0.726,+0.562,+0.250,+0.308,+1.025,-0.008,-0.165,-9.438,+17.750,-1.312,4, -1, 0, 2, 43, 7, -5, -4,2.3262357605559267,1.3250357863124516,10
1503515768786,+0.726,+0.562,+0.249,+0.308,+1.064,+0.085,-0.285,-5.562,+4.750,+0.562,24, 18, -4, -2, -58, -3, 0, 5,2.3270067551751015,1.3239175906988432,10
1503515768808,+0.729,+0.559,+0.246,+0.311,+1.075,+0.063,-0.257,+1.875,-31.125,-4.875,8, -9, -4, -3, -45, -3, 12, -4,2.3275207771635684,1.3141874686218198,10
1503515768825,+0.730,+0.556,+0.245,+0.313,+0.926,+0.012,-0.188,+3.125,-24.062,-7.375,-6, 4, 0, 1, 12, -9, 3, 26,2.32412324313405,1.306029348995555,10
1503515768846,+0.729,+0.557,+0.245,+0.313,+0.780,+0.009,-0.188,+0.688,+11.562,+1.125,0, -7, 2, 3, 27, 3, -9, 8,2.323711285742355,1.3082689309755866,10
1503515768867,+0.725,+0.564,+0.248,+0.308,+0.961,+0.076,-0.200,-9.938,+52.312,+16.438,9, 8, 10, 4, 31, 17, 2, -10,2.328685244547022,1.327604678824923,10
1503515768883,+0.721,+0.568,+0.251,+0.306,+1.119,+0.111,-0.260,+2.875,+43.312,+15.375,-1, -3, -8, -4, -1, 1, -3, -15,2.326827557091479,1.3398158006180267,10
1503515768906,+0.722,+0.567,+0.251,+0.306,+1.140,-0.036,-0.172,+0.000,-9.250,+4.062,-5, -19, -1, 0, -4, -8, -12, -13,2.3272006882620215,1.3375342658694422,10
1503515768928,+0.724,+0.565,+0.249,+0.306,+0.971,-0.096,-0.137,-9.750,-23.938,-5.000,-27, 4, 1, -3, -2, -4, 0, -14,2.3295182807624055,1.3307491943834755,10
1503515768943,+0.726,+0.564,+0.246,+0.307,+0.866,-0.037,-0.223,-9.438,-15.812,-12.750,15, 13, 1, -1, -17, -16, 7, 19,2.332919058459407,1.3255430839371711,10
1503515768966,+0.726,+0.564,+0.245,+0.309,+0.902,-0.017,-0.270,-4.812,+1.312,-12.750,9, 9, -1, 0, 1, 9, -7, -16,2.3316941751843623,1.3246797551094693,10
1503515768990,+0.724,+0.566,+0.244,+0.309,+1.013,+0.000,-0.165,-2.875,+8.312,-11.250,-12, 16, 10, 2, 12, 4, -5, -35,2.3317243262496126,1.3281215879155175,10
1503515769004,+0.724,+0.566,+0.243,+0.312,+1.027,+0.031,-0.146,+5.438,-6.000,-12.500,-2, 5, -2, -1, -6, -3, -6, -1,2.3295127998072895,1.32737849992073,10
1503515769034,+0.723,+0.564,+0.241,+0.318,+0.951,+0.028,-0.241,+16.250,-17.500,-30.375,2, -11, -2, -1, 15, 4, 1, -3,2.32081332291372,1.320538937382697,10
1503515769047,+0.724,+0.559,+0.239,+0.326,+0.900,-0.022,-0.302,+22.938,-29.312,-32.625,-3, -16, -9, -7, -10, -4, -15, 25,2.309550108688698,1.306914747951535,10
1503515769064,+0.724,+0.556,+0.240,+0.330,+0.867,-0.047,-0.202,+20.000,-16.250,-16.938,5, 2, 6, 3, 3, 0, 1, -6,2.300916373316349,1.3009169752413652,10
1503515769086,+0.722,+0.558,+0.241,+0.331,+1.047,+0.026,-0.133,+5.000,+7.500,-3.312,-12, -9, -6, -5, -4, -4, 7, 7,2.298460199672511,1.3066204810478483,10
1503515769107,+0.721,+0.558,+0.243,+0.331,+1.119,+0.097,-0.198,+9.125,+2.062,+10.438,-23, 13, 4, 2, -1, -2, -4, -4,2.2952593193484288,1.3085442408698442,10
1503515769125,+0.724,+0.553,+0.244,+0.332,+1.038,+0.007,-0.230,+8.500,-28.062,+8.062,-8, -14, -7, -12, -21, -11, -18, -6,2.2920320616674767,1.298040762215781,10
1503515769145,+0.728,+0.548,+0.242,+0.334,+0.917,-0.026,-0.237,+1.750,-39.125,-4.688,19, 7, 5, 8, 38, -3, 1, 3,2.2918692036520185,1.2847015529449335,10
1503515769168,+0.730,+0.546,+0.240,+0.334,+0.896,-0.008,-0.202,-3.000,-23.688,-0.438,6, 5, 1, 1, 15, 0, 6, 13,2.2941612908657114,1.2780713949835638,10
1503515769183,+0.730,+0.546,+0.240,+0.333,+0.998,+0.038,-0.202,-9.625,-0.438,+6.250,-23, -6, -5, -1, -13, -1, 5, 4,2.29512856159643,1.2779328241239902,10
1503515769205,+0.729,+0.549,+0.240,+0.331,+1.074,+0.083,-0.211,-6.500,+10.875,+7.000,-15, -4, 1, -1, -20, -3, 0, 5,2.2992834340628026,1.284894107943645,10
1503515769228,+0.730,+0.547,+0.240,+0.331,+1.047,+0.085,-0.260,-0.812,-11.438,+6.438,5, 11, 1, -1, -1, 5, 1, -5,2.2983867698397433,1.280171416210328,10
1503515769244,+0.732,+0.545,+0.237,+0.334,+0.955,+0.103,-0.271,+3.312,-21.375,-7.438,14, 4, -4, -3, 24, -2, 1, -7,2.298503611066147,1.272872772014132,10
1503515769266,+0.733,+0.542,+0.236,+0.336,+0.938,+0.050,-0.221,+0.500,-21.812,-6.375,-14, -5, 0, -2, -16, -6, 8, 0,2.2950911860567818,1.2648403337776488,10
1503515769287,+0.733,+0.544,+0.236,+0.334,+0.970,+0.018,-0.216,-10.375,+4.250,+8.188,-7, -3, 7, 2, -9, 4, 3, 7,2.2996590403008335,1.2695805379306555,10
1503515769303,+0.733,+0.545,+0.235,+0.332,+1.011,+0.062,-0.268,-14.812,+9.438,+9.500,10, -23, -19, -8, -2, -5, 1, -23,2.3036502497505524,1.270719122280428,10
1503515769326,+0.735,+0.545,+0.234,+0.328,+1.007,+0.062,-0.264,-17.188,-6.250,+17.312,15, -37, -23, -7, 1, -1, -2, 5,2.3117956135722717,1.26971742559571,10
1503515769347,+0.738,+0.544,+0.232,+0.325,+0.978,+0.057,-0.222,-20.125,-15.375,+17.375,-10, -10, -6, -1, 2, 0, 2, 10,2.320154865510388,1.2655871997831838,10
1503515769364,+0.740,+0.543,+0.230,+0.323,+0.959,+0.078,-0.283,-15.562,-12.188,+14.375,5, 1, 1, -2, 0, -9, -1, -1,2.325821266233401,1.261291922608552,10
1503515769386,+0.743,+0.541,+0.228,+0.321,+0.947,+0.042,-0.292,-17.875,-15.875,+16.062,-5, -11, 1, 1, 3, 4, -2, 7,2.3319684631290216,1.254831429898953,10
1503515769407,+0.746,+0.540,+0.228,+0.317,+0.926,+0.003,-0.305,-17.688,-5.500,+21.250,-7, -47, -13, -1, -2, 3, 6, 15,2.339966286747798,1.2527555376229043,10
1503515769426,+0.747,+0.540,+0.227,+0.313,+0.875,-0.001,-0.261,-16.812,+1.750,+17.188,2, 17, 9, 2, -1, -1, -6, 0,2.3465885533681092,1.25146197259655,10
1503515769446,+0.748,+0.541,+0.226,+0.311,+0.939,+0.029,-0.283,-14.312,+2.812,+10.312,29, 24, 0, -1, -2, 0, -1, 3,2.3523632538730403,1.2529828719810805,10
1503515769468,+0.750,+0.540,+0.225,+0.310,+0.964,+0.041,-0.292,-10.000,-10.438,+3.875,-11, -5, -3, -2, -1, 1, -6, -4,2.356335713182509,1.2499465164538879,10
1503515769483,+0.753,+0.537,+0.221,+0.310,+0.907,+0.025,-0.283,-13.250,-28.062,-1.375,-5, 1, 1, 0, -1, 4, 0, -1,2.3608178768271486,1.2392452953700308,10
1503515769506,+0.755,+0.534,+0.218,+0.311,+0.799,+0.008,-0.312,-11.688,-16.625,-3.625,-2, -7, -7, -1, 1, -1, -15, -12,2.361805998707956,1.2294358770536746,10
1503515769528,+0.755,+0.535,+0.217,+0.310,+0.797,-0.017,-0.282,-10.875,+2.125,-3.938,-2, -19, -16, -5, -3, -6, 8, 26,2.3648367484301387,1.2307832141896948,10
1503515769543,+0.754,+0.539,+0.216,+0.309,+0.921,-0.014,-0.217,-13.875,+18.938,-2.688,19, 16, 8, 4, 0, 2, -1, -9,2.369782532063326,1.2393644333442893,10
1503515769566,+0.752,+0.541,+0.216,+0.307,+1.038,+0.009,-0.250,-9.875,+14.688,-3.000,-14, -3, 0, -1, -2, -2, 10, 1,2.3710183452990528,1.243448066174387,10
1503515769588,+0.752,+0.541,+0.214,+0.308,+1.025,+0.021,-0.323,-5.438,-3.688,-7.375,-7, -1, 3, 0, 1, 11, -6, -4,2.3714928749577524,1.2415605742791014,10
1503515769603,+0.754,+0.539,+0.212,+0.309,+0.971,+0.008,-0.297,-5.750,-19.312,-3.625,-15, -7, -3, 0, -4, -4, -3, -34,2.3728758680300013,1.235320559715844,10
1503515776173,+0.836,+0.513,+0.155,+0.122,+0.904,-0.110,-0.397,-0.625,+0.312,-0.062,19, 0, 2, 2, 1, -2, 0, 4,2.7672937895711773,1.1271449334464883,11
1503515776188,+0.836,+0.513,+0.155,+0.122,+0.896,-0.104,-0.391,-0.125,+3.125,+0.688,-10, -2, 1, -2, -3, 0, 1, 2,2.7672937895711773,1.1271449334464883,11
1503515776211,+0.835,+0.514,+0.155,+0.122,+0.907,-0.113,-0.380,+0.375,+5.812,+0.438,4, 12, -1, 0, 0, -1, -7, 3,2.7667569838227806,1.1292953356228412,11
1503515776233,+0.834,+0.515,+0.155,+0.122,+0.919,-0.140,-0.361,-0.500,+4.062,-1.125,-3, 13, 4, 1, 0, -2, 8, 4,2.7662218661544205,1.1314489561709586,11
1503515776248,+0.834,+0.515,+0.155,+0.122,+0.932,-0.129,-0.356,-2.875,-0.375,-3.250,-9, -7, -6, -3, -2, -2, 2, -7,2.7662218661544205,1.1314489561709586,11
1503515776271,+0.834,+0.515,+0.154,+0.123,+0.937,-0.114,-0.364,-3.562,-4.188,-3.375,-4, -7, -1, -4, -1, -3, -4, -12,2.7656227561726197,1.1309121853970472,11
1503515776294,+0.835,+0.514,+0.153,+0.124,+0.915,-0.105,-0.391,-1.812,-6.562,-3.562,5, 10, 7, 2, -1, 1, -3, 3,2.765552703247194,1.1282257796573512,11
1503515776308,+0.835,+0.513,+0.153,+0.124,+0.898,-0.110,-0.389,-0.375,-4.562,-1.938,4, -3, -4, 2, 0, 2, -2, 4,2.7650783363741738,1.1256318069035898,11
1503515776331,+0.836,+0.512,+0.152,+0.125,+0.874,-0.105,-0.401,-0.250,-6.312,-2.375,-10, -13, -5, 0, -1, -1, 7, -3,2.7650040824657798,1.1229552539600256,11
1503515776352,+0.837,+0.511,+0.152,+0.125,+0.872,-0.113,-0.397,-0.875,-5.875,-0.125,-3, -18, -5, -1, 0, 2, 2, 3,2.7655362299703845,1.1208128063134202,11
1503515776367,+0.837,+0.510,+0.152,+0.125,+0.904,-0.117,-0.395,-0.875,-3.875,+2.625,-6, 1, 0, -1, -2, -3, -4, -4,2.765064685820037,1.118224134352095,11
1503515776390,+0.837,+0.510,+0.152,+0.125,+0.921,-0.119,-0.393,-1.500,-2.625,+3.688,6, 1, 1, -1, 1, -1, 2, 2,2.765064685820037,1.118224134352095,11
1503515776412,+0.837,+0.510,+0.152,+0.124,+0.900,-0.102,-0.382,-0.875,-0.375,+4.125,1, -3, -4, -2, -1, -2, -2, 0,2.7666369383306897,1.1180900334379862,11
1503515776428,+0.838,+0.509,+0.153,+0.124,+0.909,-0.108,-0.413,+1.938,-2.125,+5.250,11, 20, 7, 3, 0, 0, -2, -4,2.7662187999811128,1.1166149576013056,11
1503515776449,+0.837,+0.510,+0.154,+0.124,+0.907,-0.113,-0.394,+3.188,+3.375,+5.062,-2, -7, 5, 0, -2, -3, -6, 6,2.7647211916397554,1.1194193803540917,11
1503515776481,+0.837,+0.510,+0.155,+0.123,+0.908,-0.132,-0.399,+3.938,+3.938,+5.750,-2, -4, -9, -4, -2, 0, -7, -2,2.7653350419381835,1.1199533115816827,11
1503515776487,+0.837,+0.511,+0.157,+0.122,+0.903,-0.147,-0.395,+2.188,+7.062,+6.938,-1, -1, -1, -4, -3, 0, -1, 2,2.7654537846161467,1.1237553112500978,11
1503515776509,+0.836,+0.511,+0.157,+0.121,+0.899,-0.144,-0.374,+0.000,+6.500,+5.375,-6, -2, -3, -4, -2, -3, 0, -2,2.76601291107304,1.123171875216883,11
1503515776532,+0.836,+0.512,+0.158,+0.121,+0.935,-0.143,-0.382,-0.812,+2.562,+3.438,5, 4, 1, -1, 0, -1, 10, 7,2.7655143681239385,1.1264437889427446,11
1503515776548,+0.835,+0.513,+0.158,+0.120,+0.941,-0.144,-0.373,-1.312,+4.750,+1.812,8, 1, -2, -2, -3, 0, -9, -1,2.76653494459541,1.128456892149401,11
1503515776570,+0.835,+0.514,+0.159,+0.120,+0.946,-0.153,-0.365,-1.375,+5.438,+0.125,-2, -14, -9, -2, 0, 0, -1, -1,2.7660327777664055,1.131734955701365,11
1503515776592,+0.834,+0.515,+0.158,+0.120,+0.935,-0.151,-0.368,-3.562,+5.500,-2.375,-5, -13, -5, -3, -1, 1, 0, -6,2.7664529465560657,1.1332083007181877,11
1503515776608,+0.834,+0.516,+0.157,+0.120,+0.910,-0.134,-0.372,-5.250,+3.750,-4.438,11, -12, -7, -1, -3, -2, -4, 1,2.7678859997726923,1.1351279025170513,11
1503515776639,+0.833,+0.516,+0.156,+0.121,+0.919,-0.117,-0.371,-6.000,+2.688,-5.500,2, 2, 0, -2, -2, 2, 3, 3,2.766284661823617,1.13414574210883,11
1503515776652,+0.833,+0.517,+0.155,+0.121,+0.937,-0.101,-0.357,-4.312,+2.375,-4.812,4, 6, 3, -1, 0, -3, -4, -1,2.767726990990509,1.1360738123257084,11
1503515776669,+0.833,+0.517,+0.154,+0.122,+0.950,-0.102,-0.372,-1.000,-1.188,-5.312,2, 3, 2, 0, -2, 1, 2, 4,2.76713332203061,1.135536431233509,11
1503515776689,+0.832,+0.518,+0.154,+0.123,+0.913,-0.117,-0.372,+2.312,+0.625,-6.375,-5, 27, 6, -1, 0, 0, -1, -3,2.765044326357498,1.137828854049133,11
1503515776712,+0.832,+0.517,+0.154,+0.125,+0.885,-0.121,-0.374,+2.625,-1.375,-8.000,7, -27, -10, -2, -1, -2, -8, 3,2.7614375222032845,1.135489639770578,11
1503515776729,+0.832,+0.517,+0.154,+0.127,+0.894,-0.121,-0.371,+3.250,-2.875,-9.812,-6, 3, 1, -2, -1, -2, -6, -2,2.7583188011608915,1.1357515507385214,11
1503515776749,+0.833,+0.516,+0.153,+0.129,+0.930,-0.131,-0.376,+2.938,-7.875,-11.375,-1, -5, -1, -4, -1, -2, 2, 2,2.7566969849072036,1.1331869159821073,11
1503515776772,+0.833,+0.515,+0.152,+0.131,+0.918,-0.115,-0.410,+3.312,-7.500,-11.625,-4, -2, -1, -1, -2, -1, -1, -6,2.754051053704006,1.1301868633417633,11
1503515776796,+0.833,+0.515,+0.152,+0.133,+0.889,-0.073,-0.399,+2.375,-2.938,-7.938,-4, -1, 2, 1, 0, 0, 2, -3,2.750944529402963,1.1304479538014383,11
1503515776810,+0.833,+0.515,+0.152,+0.134,+0.892,-0.090,-0.368,+3.312,-1.250,-3.562,-4, -9, 2, 1, 0, -2, -4, 0,2.7493942384553023,1.1305783906229636,11
1503515776833,+0.833,+0.514,+0.152,+0.135,+0.937,-0.104,-0.364,+4.062,-4.625,-2.938,0, -3, -5, -4, 1, 1, 3, 3,2.747333167104467,1.128119208736595,11
1503515776854,+0.833,+0.514,+0.152,+0.137,+0.937,-0.071,-0.389,+2.312,-2.812,-4.938,3, 7, 0, 2, 0, 0, 2, -11,2.744236918829023,1.128381318886311,11
1503515776870,+0.832,+0.515,+0.152,+0.138,+0.916,-0.063,-0.372,+4.875,+3.812,-4.062,-3, 6, 1, 0, -1, -2, -6, 1,2.7421683197021625,1.130658161758271,11
1503515776893,+0.831,+0.516,+0.153,+0.139,+0.898,-0.086,-0.388,+7.438,+8.875,-5.875,-8, 0, 1, -1, -1, 0, 5, 6,2.739147775877362,1.1336117259175975,11
1503515776915,+0.829,+0.519,+0.154,+0.140,+0.904,-0.108,-0.376,+6.875,+23.875,-3.625,-3, 4, 2, -1, -1, 0, 3, 1,2.7361469813329156,1.1413213274180594,11
1503515776931,+0.826,+0.524,+0.156,+0.140,+0.955,-0.109,-0.354,+6.188,+31.062,-0.750,-2, -7, -4, 1, 0, 0, 2, -1,2.733763762480055,1.154382331473634,11
1503515776952,+0.822,+0.529,+0.157,+0.140,+0.982,-0.098,-0.355,+7.438,+35.688,-2.250,7, 8, 1, -1, 0, -1, -3, -3,2.7313201098712274,1.1664023926224467,11
1503515784221,+0.786,+0.570,+0.151,+0.186,+0.953,-0.028,-0.235,+1.938,-19.062,-14.812,-4, -5, -5, -1, -5, 2, -3, -8,2.6584102474240954,1.2611980233316313,12
1503515784235,+0.787,+0.569,+0.148,+0.188,+0.906,-0.019,-0.237,-5.125,-15.188,-15.188,-2, -3, -4, 5, 0, -2, 0, -6,2.6589867751721177,1.25702806698678,12
1503515784257,+0.787,+0.569,+0.146,+0.190,+0.925,+0.037,-0.270,-4.375,-3.375,-10.188,2, -4, -7, -9, -4, -3, -3, 0,2.6582150906803723,1.2558579627911675,12
1503515784279,+0.787,+0.568,+0.146,+0.192,+0.972,+0.043,-0.300,+3.375,-4.125,-6.000,-15, -30, -17, -5, -1, -1, 1, 2,2.6546303251739642,1.2533892706498624,12
1503515784295,+0.788,+0.567,+0.145,+0.193,+0.972,+0.003,-0.300,+1.938,-10.062,-7.312,-1, -7, -2, -1, -3, 0, -1, -4,2.654570265642503,1.2505143245173755,12
1503515784317,+0.789,+0.565,+0.143,+0.194,+0.945,-0.015,-0.276,-5.812,-15.375,-3.688,-3, -4, -4, -5, -6, -6, -5, -7,2.6547014305728043,1.2443326900791358,12
1503515784339,+0.790,+0.564,+0.142,+0.193,+0.919,+0.024,-0.288,-8.312,-8.750,+4.188,-3, 1, -3, -10, 0, -2, -4, 3,2.65742775752828,1.2412933619721533,12
1503515784355,+0.790,+0.565,+0.143,+0.190,+0.991,+0.049,-0.258,-8.062,+9.188,+21.625,0, 2, 3, 1, 12, 2, 3, 3,2.6614237233560902,1.2443281996746272,12
1503515784377,+0.789,+0.568,+0.146,+0.185,+1.004,+0.021,-0.255,-3.812,+23.500,+26.688,16, 14, 4, 3, 0, -1, 0, 5,2.666650678530253,1.2534604113922858,12
1503515784402,+0.787,+0.571,+0.149,+0.182,+0.983,+0.012,-0.319,+0.438,+31.312,+27.000,0, 2, -1, 0, -3, 1, 2, 1,2.6679233362613326,1.2624654214398219,12
1503515784422,+0.785,+0.573,+0.152,+0.178,+0.943,+0.016,-0.315,+0.062,+25.500,+24.625,-3, -4, -1, -4, 6, 1, 4, 6,2.6697924133117668,1.2687753464234004,12
1503515784437,+0.783,+0.576,+0.155,+0.174,+0.963,-0.008,-0.266,+1.562,+28.188,+27.750,-4, 0, -1, 2, 3, 0, -9, -8,2.672404649434899,1.277793981489553,12
1503515784459,+0.780,+0.581,+0.161,+0.169,+0.987,-0.047,-0.208,+5.312,+43.625,+31.250,2, -3, -2, 0, -8, -1, 5, 3,2.673683840235715,1.2939137024589191,12
1503515784476,+0.775,+0.588,+0.166,+0.164,+0.996,-0.076,-0.179,+4.562,+53.688,+29.688,0, -3, -3, -2, 5, 0, -2, -2,2.6752182976603986,1.3142188608656316,12
1503515784497,+0.770,+0.594,+0.171,+0.160,+1.008,-0.057,-0.192,+5.062,+51.875,+26.000,-1, 0, 3, 2, 0, 1, 0, -1,2.6745300400280314,1.3321611576746053,12
1503515784521,+0.766,+0.598,+0.175,+0.159,+1.015,-0.054,-0.216,+11.062,+39.500,+16.062,5, 1, 0, 0, 1, -2, -3, -3,2.6702978879707358,1.3446974267018608,12
1503515784537,+0.764,+0.599,+0.178,+0.160,+1.021,-0.085,-0.207,+18.000,+17.188,+3.188,0, 4, -2, 0, -3, -5, -5, -3,2.664275367764708,1.3492099351041311,12
1503515784558,+0.763,+0.599,+0.181,+0.162,+0.977,-0.128,-0.170,+17.250,+0.562,-4.875,0, -6, 0, 5, 6, 5, 6, 0,2.657229224658825,1.3514256124443498,12
1503515784579,+0.763,+0.599,+0.181,+0.164,+0.939,-0.123,-0.130,+11.812,-3.062,-11.938,4, 0, -10, 1, -3, 2, -2, 1,2.6545228733926205,1.3515835912167267,12
1503515784595,+0.761,+0.600,+0.181,+0.167,+0.916,-0.089,-0.128,+7.688,+4.625,-16.312,-7, -12, -8, -7, -4, -3, -2, -3,2.6489988627108225,1.3539774976436458,12
1503515784617,+0.759,+0.601,+0.181,+0.170,+0.879,-0.080,-0.163,+8.750,+12.625,-18.875,-8, 5, 1, -3, -3, -2, -1, -1,2.643491889236804,1.3563751010710636,12
1503515784641,+0.757,+0.603,+0.181,+0.173,+0.939,-0.092,-0.162,+10.562,+10.125,-22.062,3, 2, 5, 7, 0, 4, 2, 2,2.638851251088716,1.3614582067835155,12
1503515784655,+0.757,+0.602,+0.180,+0.176,+1.013,-0.128,-0.174,+5.250,-6.750,-20.188,10, 14, 8, 1, -6, -2, -2, -1,2.6350669946204053,1.3582235372854792,12
1503515784679,+0.759,+0.600,+0.178,+0.179,+1.012,-0.116,-0.176,-1.062,-22.438,-16.875,-3, 4, 7, -1, 2, 0, -4, 0,2.6338043913176987,1.3520578457851797,12
1503515784702,+0.762,+0.597,+0.175,+0.181,+0.979,-0.083,-0.172,-6.250,-29.375,-17.562,-2, -14, 0, 0, 17, -1, 1, 1,2.6352116745365612,1.3426784116913124,12
1503515784715,+0.764,+0.594,+0.173,+0.184,+0.981,-0.021,-0.164,-3.688,-26.312,-15.062,2, 3, 3, 2, 1, -2, -4, 1,2.6330594924103985,1.3339288465900823,12
1503515784740,+0.766,+0.591,+0.171,+0.186,+1.029,-0.037,-0.168,-0.438,-25.125,-9.000,-2, -4, -5, -1, -5, 2, 1, -2,2.6322288945685224,1.325137895709599,12
1503515784759,+0.768,+0.589,+0.169,+0.187,+1.045,-0.033,-0.147,-4.562,-27.438,-10.188,-5, 5, 3, 0, 13, 2, 0, -1,2.633583237352031,1.318965982492774,12
1503515784776,+0.771,+0.585,+0.167,+0.190,+1.029,-0.011,-0.194,+0.562,-38.250,-10.125,-4, -4, -2, 4, 3, 0, -1, -2,2.631711157853272,1.307973869397301,12
1503515784797,+0.774,+0.580,+0.165,+0.193,+0.962,-0.040,-0.257,+4.000,-38.062,-13.438,0, 2, -1, 3, 7, 2, 1, -4,2.6289821181993234,1.2943946316222696,12
1503515784819,+0.777,+0.576,+0.162,+0.197,+0.911,-0.026,-0.265,+2.500,-30.000,-17.750,0, -2, -3, -8, -11, -4, -3, -1,2.62674813556884,1.2829019430218565,12
1503515784840,+0.778,+0.574,+0.161,+0.200,+0.955,-0.028,-0.223,+2.312,-18.875,-15.812,0, 4, 2, 1, -7, -3, 3, 3,2.623175591475899,1.2774791598488644,12
1503515784858,+0.779,+0.572,+0.160,+0.202,+1.018,-0.028,-0.245,+2.188,-14.188,-10.750,-5, -2, -3, -6, 2, -1, -1, 2,2.6209476636317204,1.2719774736945,12
1503515784880,+0.779,+0.570,+0.159,+0.204,+0.996,+0.004,-0.290,+2.250,-11.688,-10.375,10, 7, 6, 4, -18, 1, 3, 1,2.617507234361311,1.2661468845563608,12
1503515784895,+0.781,+0.568,+0.158,+0.207,+0.987,+0.010,-0.288,+3.500,-20.438,-9.625,0, 3, 2, 0, 0, -1, -1, 2,2.6151241835577212,1.2611095319928318,12
1503515791345,+0.765,+0.517,+0.262,+0.281,+0.985,-0.087,-0.173,-10.125,-33.938,-3.562,-2, -1, -4, -1, -3, -1, 0, 0,2.3591748507630057,1.234363554485541,13
1503515791360,+0.766,+0.515,+0.259,+0.282,+0.987,-0.065,-0.244,-9.625,-21.125,-6.188,-1, 2, -1, -2, -1, 1, 2, -1,2.359878649531655,1.2264077896704975,13
1503515791382,+0.770,+0.510,+0.255,+0.287,+0.888,-0.039,-0.454,-2.250,-39.188,-13.812,-2, -5, -4, -3, -1, 0, -1, 0,2.358978415731386,1.2117093128562821,13
1503515791408,+0.775,+0.502,+0.251,+0.291,+0.841,-0.127,-0.381,-0.250,-56.375,-13.625,-4, -2, -4, 0, -2, -2, 0, 0,2.357759483035303,1.189994103292524,13
1503515791420,+0.777,+0.500,+0.250,+0.291,+0.862,-0.171,-0.267,-8.688,-21.250,-4.562,-2, 1, 8, -1, -6, -3, -2, -2,2.3599144873338727,1.1846956024504316,13
1503515791442,+0.775,+0.503,+0.250,+0.288,+0.882,-0.099,-0.268,-15.375,+23.000,+6.438,8, -4, -7, -2, 0, 0, 0, 2,2.3628612099099837,1.190736160353237,13
1503515791465,+0.774,+0.508,+0.249,+0.286,+0.936,+0.002,-0.330,-11.688,+26.125,+2.250,6, 1, -1, 1, 0, 0, 0, -4,2.3693625980702477,1.2011538348768107,13
1503515791480,+0.773,+0.508,+0.248,+0.287,+1.035,-0.024,-0.397,-2.750,+4.688,-4.688,-9, -4, -5, 0, -1, -3, -1, -28,2.367222890360694,1.1998263904208455,13
1503515791504,+0.775,+0.506,+0.246,+0.289,+1.022,-0.118,-0.333,-3.500,-25.312,-6.562,9, 1, -2, 1, 1, -1, -2, 7,2.3678375043726714,1.1937366748252969,13
1503515791525,+0.777,+0.503,+0.243,+0.290,+0.930,-0.109,-0.283,-8.812,-31.500,-9.562,9, 0, -4, 0, -2, -1, -2, 6,2.3692266064052583,1.1839121394413405,13
1503515791541,+0.778,+0.501,+0.240,+0.292,+0.826,-0.071,-0.300,-7.625,-14.938,-9.500,-1, 33, 11, -2, -2, -2, -4, 6,2.368797187142619,1.1763915989770575,13
1503515791563,+0.778,+0.502,+0.240,+0.292,+0.904,-0.056,-0.362,-4.812,+3.000,-2.625,-4, 1, -2, -2, 2, -1, 2, 4,2.3698571366778935,1.1788491968766803,13
1503515791584,+0.778,+0.503,+0.239,+0.292,+1.037,-0.055,-0.352,-5.000,+1.438,-2.062,-3, -8, -8, -6, -2, -3, -5, 9,2.3716392252323817,1.1801962637751295,13
1503515791600,+0.779,+0.501,+0.238,+0.291,+1.059,-0.077,-0.332,-8.562,-13.125,+5.812,-3, 8, 1, 0, 0, -1, -1, 2,2.3731231440272236,1.1743723113266133,13
1503515791630,+0.781,+0.500,+0.237,+0.289,+0.971,-0.054,-0.358,-10.438,-9.688,+13.562,2, -17, -16, -6, -2, -1, -5, -1,2.3785603583216535,1.1712180489586297,13
1503515791645,+0.782,+0.500,+0.236,+0.287,+0.881,-0.029,-0.368,-9.688,-2.312,+14.875,-1, 10, 2, -4, -3, -1, 0, 5,2.383305940769086,1.1701395830705292,13
1503515791660,+0.783,+0.500,+0.238,+0.283,+0.885,-0.032,-0.367,-5.188,+6.125,+23.000,2, 4, 0, 0, -2, 1, 3, 1,2.3881584520706145,1.1719882524111125,13
1503515791682,+0.783,+0.501,+0.240,+0.279,+0.960,-0.071,-0.331,-3.938,+15.875,+27.062,3, -4, -7, -3, -3, -5, -3, -2,2.3923106368571565,1.1759166158949004,13
1503515791706,+0.783,+0.503,+0.243,+0.274,+1.018,-0.115,-0.327,-7.312,+15.812,+27.312,1, 0, -1, -2, -3, 1, 2, 6,2.397895004513845,1.1832520802532958,13
1503515791720,+0.784,+0.503,+0.245,+0.269,+0.998,-0.098,-0.338,-7.375,+5.750,+30.188,-5, -5, -6, -4, -5, -4, -11, -5,2.4039412898375034,1.184938659171419,13
1503515791743,+0.787,+0.500,+0.245,+0.266,+0.943,-0.097,-0.351,-7.312,-9.688,+29.188,18, 8, 4, -2, -1, -1, 1, -14,2.409660899367358,1.178120199258337,13
1503515791765,+0.789,+0.498,+0.247,+0.262,+0.869,-0.105,-0.363,-5.188,-6.562,+28.000,-11, -6, 13, 7, 5, 1, 2, -3,2.4143951031599378,1.1754368426299147,13
1503515791781,+0.790,+0.498,+0.249,+0.258,+0.823,-0.141,-0.347,-5.062,+7.938,+26.188,-2, 0, -4, -2, -2, -1, -1, -4,2.4193769685589697,1.177304508637108,13
1503515791805,+0.790,+0.499,+0.250,+0.254,+0.850,-0.186,-0.304,-9.500,+11.375,+19.688,-14, -4, -3, 0, 4, 2, 0, -5,2.4243639286039147,1.180132912958411,13
1503515791824,+0.790,+0.501,+0.251,+0.250,+0.933,-0.162,-0.312,-12.375,+14.062,+12.312,-15, -7, -2, 1, -3, -1, -1, -4,2.4303047375681768,1.185445157258952,13
1503515791840,+0.791,+0.500,+0.250,+0.249,+0.956,-0.130,-0.332,-9.438,-4.062,+3.500,-5, -7, -8, -2, -2, -1, 4, 5,2.433048152432632,1.182031104144534,13
1503515791862,+0.792,+0.498,+0.247,+0.250,+0.928,-0.145,-0.343,-6.812,-21.875,-4.938,-2, -1, -2, 1, 4, -4, -3, -5,2.4339692557696515,1.1742920146410085,13
1503515791885,+0.794,+0.495,+0.246,+0.252,+0.848,-0.155,-0.369,-3.000,-18.000,-8.688,-2, 6, 3, -2, -3, 3, 3, 0,2.4329137426684775,1.166926954457701,13
1503515791900,+0.794,+0.495,+0.244,+0.254,+0.790,-0.130,-0.349,-0.312,-4.312,-14.750,30, 6, -5, -5, -7, -1, -2, 1,2.4319963980079713,1.165094487865187,13
1503515791922,+0.793,+0.496,+0.243,+0.257,+0.855,-0.120,-0.335,+0.125,+4.188,-22.875,-27, -3, 7, 4, -2, 5, -2, -4,2.428346531173482,1.166644092479767,13
1503515791945,+0.791,+0.498,+0.242,+0.259,+1.000,-0.130,-0.354,+0.688,+12.250,-15.375,-12, -14, -10, -6, -3, -5, -3, -3,2.425176656787799,1.170078787038799,13
1503515791959,+0.789,+0.501,+0.242,+0.260,+1.015,-0.112,-0.346,-0.500,+14.250,-8.438,6, -3, -5, -1, 2, 2, 1, -1,2.4234450172900095,1.1769082120043408,13
1503515791981,+0.788,+0.502,+0.241,+0.261,+0.976,-0.063,-0.346,-1.250,+1.812,-9.875,2, 4, 0, 2, 1, -2, 2, 0,2.422276138862917,1.1780830802037465,13
1503515792006,+0.788,+0.501,+0.240,+0.264,+0.923,-0.060,-0.357,+4.438,-6.875,-8.500,-4, -3, -1, -2, -2, -4, -1, 2,2.41848446749414,1.1750682260263898,13
1503515792026,+0.788,+0.501,+0.240,+0.265,+0.931,-0.126,-0.316,+4.250,-3.688,-7.562,4, 1, 2, 1, 2, -2, -1, 0,2.4172947960986675,1.1752544698550438,13
1503515792044,+0.787,+0.502,+0.241,+0.264,+0.977,-0.146,-0.305,-3.812,+6.812,-0.062,2, -4, 1, -7, -5, 0, 0, 8,2.4169987475358643,1.1782534385355108,13
1503515792067,+0.787,+0.504,+0.240,+0.263,+0.990,-0.105,-0.313,-10.688,+7.688,+4.000,-2, -14, -13, -5, -3, -3, 0, 11,2.420901285715373,1.181924195876329,13
1503515796488,+0.765,+0.557,+0.206,+0.250,+0.927,-0.044,-0.229,-16.000,-9.312,+13.000,-3, 0, 2, 2, 1, 2, 0, 6,2.483073504980769,1.2716097056968243,14
1503515796505,+0.766,+0.557,+0.205,+0.247,+0.938,-0.028,-0.220,-14.812,-0.125,+13.500,5, 13, 5, 0, 0, -1, 1, 5,2.489072026609474,1.270641953956235,14
1503515796528,+0.766,+0.558,+0.206,+0.243,+0.959,-0.056,-0.257,-12.125,+10.125,+15.250,-3, 2, 1, -1, 0, -1, -4, -5,2.4940911462204842,1.2736731066002507,14
1503515796548,+0.766,+0.560,+0.206,+0.240,+0.968,-0.057,-0.250,-13.500,+11.375,+13.750,1, -9, -1, 3, 1, 1, 3, -2,2.4997994098871845,1.2784882879033097,14
1503515796565,+0.766,+0.561,+0.206,+0.236,+0.997,-0.057,-0.208,-14.875,+6.812,+11.938,8, 3, -1, -1, -3, -3, 1, 7,2.5057320791941216,1.2806050850840585,14
1503515796587,+0.766,+0.562,+0.206,+0.233,+0.992,-0.050,-0.231,-11.438,+4.688,+15.312,-3, -3, -2, 0, -1, 0, -3, -6,2.510444765930196,1.2828461954098003,14
1503515796608,+0.767,+0.562,+0.207,+0.230,+0.943,-0.044,-0.262,-9.562,+6.938,+15.188,-4, -11, -6, -4, -2, 0, -2, -2,2.5146939945538187,1.283738646373283,14
1503515796625,+0.768,+0.562,+0.207,+0.228,+0.915,-0.068,-0.281,-9.188,+6.125,+13.375,-9, -2, -3, 0, 3, -1, -1, -1,2.5186142086654324,1.2838225829041552,14
1503515796647,+0.768,+0.562,+0.208,+0.225,+0.945,-0.106,-0.280,-8.062,+3.562,+11.125,-2, -9, -9, 0, -1, 2, 4, 13,2.521452305427084,1.284395918887152,14
1503515796664,+0.769,+0.561,+0.208,+0.223,+0.984,-0.111,-0.272,-6.188,-0.875,+11.375,-4, -2, -1, 0, 4, -1, -1, 13,2.5244212848807392,1.2818816220664522,14
1503515796685,+0.769,+0.561,+0.209,+0.221,+0.979,-0.092,-0.275,-2.625,+4.688,+11.500,-15, -1, 0, 0, -1, -2, -8, -4,2.5260232083416723,1.2825725013749978,14
1503515796707,+0.769,+0.562,+0.212,+0.219,+0.940,-0.079,-0.250,+2.750,+8.750,+13.875,4, -1, 0, 0, -2, 0, 1, 2,2.5267393061823498,1.287736827793154,14
1503515796729,+0.768,+0.562,+0.215,+0.218,+0.925,-0.066,-0.275,+10.062,+13.875,+13.000,1, 12, 5, 1, 0, 0, 3, -5,2.523810374287297,1.2901396024352771,14
1503515796745,+0.766,+0.563,+0.218,+0.219,+0.954,-0.089,-0.270,+15.688,+19.312,+7.125,9, 4, 2, -1, 0, 1, -1, -6,2.5178861407933764,1.2951045436353315,14
1503515796768,+0.764,+0.565,+0.222,+0.219,+0.992,-0.110,-0.240,+17.812,+20.812,+4.875,3, 2, 0, -2, -3, -5, 1, -1,2.513263145083917,1.303563746103785,14
1503515796789,+0.761,+0.567,+0.226,+0.219,+1.021,-0.082,-0.202,+20.750,+22.688,+6.562,-13, -6, -2, 0, 0, 1, 2, 4,2.5071895762016774,1.3117990954570806,14
1503515796805,+0.758,+0.568,+0.231,+0.220,+1.031,-0.066,-0.199,+24.000,+17.188,+9.688,19, 7, -3, -3, 0, -2, -1, -3,2.497967484113748,1.318647155703593,14
1503515796831,+0.756,+0.569,+0.235,+0.221,+0.982,-0.067,-0.212,+23.438,+15.625,+7.188,-3, -5, 1, 1, 1, 1, -1, -4,2.4911367240759934,1.324862754984475,14
1503515796849,+0.754,+0.570,+0.238,+0.222,+0.937,-0.067,-0.201,+19.750,+16.500,+3.500,-5, 1, 0, 1, 0, -1, 0, -3,2.4852261772174353,1.3301086784651601,14
1503515796866,+0.751,+0.573,+0.242,+0.223,+0.947,-0.068,-0.169,+16.375,+25.938,+4.062,2, -2, 6, 0, -1, 1, -2, 1,2.478973685934041,1.3413563704896778,14
1503515796887,+0.746,+0.577,+0.245,+0.222,+0.990,-0.062,-0.151,+14.438,+38.625,+5.312,1, -15, -4, 0, -1, -4, 1, -3,2.4740623079641293,1.3534927303231046,14
1503515796909,+0.742,+0.581,+0.249,+0.222,+1.018,-0.074,-0.148,+14.500,+35.625,+6.500,-18, -15, 9, 13, 1, 0, -4, -1,2.4685932630712193,1.367157605648876,14
1503515796925,+0.739,+0.584,+0.252,+0.222,+1.042,-0.106,-0.127,+13.875,+21.562,+5.188,-7, -3, -3, -5, -1, 1, 1, 14,2.464518332280136,1.3774749003581794,14
1503515796947,+0.738,+0.585,+0.254,+0.222,+1.040,-0.121,-0.124,+7.438,+10.875,+0.938,6, 4, 2, -4, -1, -2, -2, -4,2.462249427752622,1.3820131429934903,14
1503515796969,+0.737,+0.586,+0.254,+0.222,+1.006,-0.104,-0.135,+0.500,+6.250,-4.062,3, 5, -5, -3, -3, -2, -5, -4,2.4618150817664985,1.3843853975729694,14
1503515796985,+0.737,+0.586,+0.253,+0.223,+0.978,-0.125,-0.139,-1.250,-1.750,-3.312,3, -10, -3, 1, 3, 0, -1, -3,2.4615788655510626,1.3833945149619216,14
1503515797007,+0.738,+0.585,+0.253,+0.223,+0.972,-0.128,-0.156,-2.750,-6.875,-0.188,6, 23, -1, -2, -1, -3, -1, -2,2.4620101035718687,1.3810229969784544,14
1503515797022,+0.738,+0.585,+0.253,+0.222,+0.973,-0.112,-0.158,-3.000,+1.750,+1.125,7, -2, -1, -5, -3, -1, 2, 1,2.463165344426236,1.380926936930877,14
1503515797045,+0.737,+0.586,+0.253,+0.222,+0.937,-0.090,-0.175,-0.750,+13.812,-0.125,6, 29, 16, 3, 3, 1, 0, -2,2.462732643239331,1.3832996277268075,14
1503515797068,+0.735,+0.588,+0.254,+0.222,+0.961,-0.073,-0.145,+3.688,+14.250,-0.812,12, -5, -6, -4, -1, -1, -1, 2,2.46096046042892,1.3891415163908907,14
1503515797082,+0.734,+0.589,+0.255,+0.223,+1.015,-0.110,-0.108,+5.438,+4.250,-2.688,-16, -3, 7, 1, 1, 0, 0, -6,2.4584731710836882,1.3927041409782766,14
1503515797112,+0.734,+0.588,+0.255,+0.224,+1.031,-0.138,-0.114,+3.875,-6.000,-5.062,-7, -5, -7, -3, 0, 0, 0, -3,2.4562292155326553,1.39020159882004,14
1503515802152,+0.758,+0.620,+0.121,+0.162,+1.047,+0.038,-0.104,-1.312,-1.438,-0.750,-3, 4, 6, -2, -1, -1, -2, -1,2.7346463254479882,1.3674242274350532,15
1503515802167,+0.758,+0.620,+0.120,+0.163,+1.036,+0.073,-0.146,-0.312,-6.000,-1.750,-1, 6, -1, -1, -3, -2, -1, -1,2.734392781002667,1.3669350692248328,15
1503515802190,+0.760,+0.618,+0.119,+0.164,+0.977,+0.068,-0.176,-1.688,-13.812,-1.438,-1, -24, -19, -5, -2, -2, -6, -2,2.734417609298719,1.3614875066740073,15
1503515802211,+0.761,+0.617,+0.119,+0.163,+0.954,+0.032,-0.163,-3.000,-10.938,+4.125,-8, 5, 5, 0, -1, 1, -3, -2,2.735957768656581,1.3589631039281174,15
1503515802234,+0.761,+0.617,+0.119,+0.162,+0.996,+0.015,-0.150,-4.250,-0.562,+5.375,-8, 0, 5, 1, -1, -3, -1, 1,2.737355931752591,1.358913063496163,15
1503515802258,+0.761,+0.617,+0.119,+0.161,+1.021,+0.019,-0.179,-3.812,-0.312,+4.062,-2, -2, -3, 1, 2, -2, -2, 2,2.7387557694143663,1.358862999772066,15
1503515802279,+0.762,+0.616,+0.119,+0.161,+0.984,+0.020,-0.187,-3.438,-4.688,+1.125,-2, -7, -10, -2, 4, 1, 5, 3,2.7389058398671993,1.356391166915,15
1503515802287,+0.763,+0.615,+0.118,+0.161,+0.974,+0.001,-0.158,-4.125,-9.250,-3.000,-4, -8, 3, -1, -3, -1, -1, -4,2.7401902231792272,1.3533914020061995,15
1503515802309,+0.764,+0.614,+0.116,+0.162,+0.965,+0.002,-0.131,-7.750,-12.062,-11.625,-8, -5, 6, 0, -2, -1, -2, -4,2.741197637368595,1.3499243896612663,15
1503515802333,+0.765,+0.613,+0.113,+0.164,+0.970,+0.023,-0.187,-4.750,-12.375,-16.938,5, -2, -6, 0, -2, -2, -1, -7,2.7419168377601357,1.3460097408729186,15
1503515802347,+0.766,+0.610,+0.111,+0.167,+0.926,+0.040,-0.227,-1.438,-16.438,-18.625,1, -3, -4, -1, -1, 1, -3, 1,2.7385814153962844,1.3372225394621136,15
1503515802368,+0.768,+0.608,+0.108,+0.170,+0.892,+0.047,-0.191,-0.375,-17.188,-18.562,12, 1, -2, -4, -4, -1, -5, -6,2.7379875648260485,1.330971296299077,15
1503515802391,+0.768,+0.608,+0.106,+0.173,+0.904,+0.005,-0.180,-1.438,-7.125,-21.812,-7, -5, -7, -4, -2, -1, -6, -5,2.7359866477321755,1.3301288102853124,15
1503515802413,+0.768,+0.608,+0.103,+0.175,+0.942,+0.006,-0.181,-6.062,-5.875,-23.125,-5, 6, -4, 2, -2, -1, -3, -6,2.7365159684968927,1.328760455314703,15
1503515802429,+0.769,+0.606,+0.101,+0.177,+0.987,+0.071,-0.231,-5.875,-10.062,-16.062,13, -13, -12, -4, -2, -2, -4, -5,2.7352695675606173,1.322726999318298,15
1503515802451,+0.771,+0.604,+0.098,+0.179,+0.964,+0.082,-0.244,-2.875,-19.500,-13.500,3, -13, -10, -3, -2, 2, -1, -2,2.736008349914637,1.3165421714056145,15
1503515802473,+0.773,+0.601,+0.096,+0.181,+0.920,+0.052,-0.211,-2.438,-25.188,-13.125,-8, -11, -7, 0, 0, -2, -5, 2,2.7348414800833156,1.308135356209745,15
1503515802488,+0.775,+0.598,+0.094,+0.183,+0.925,+0.038,-0.204,-0.875,-23.938,-12.438,-4, -5, -5, -2, 4, 2, 12, -1,2.733656986502268,1.2997614892436058,15
1503515802511,+0.777,+0.595,+0.093,+0.185,+0.966,+0.058,-0.231,+0.125,-21.625,-12.188,4, 2, 2, 1, -3, -2, -5, 3,2.731361472066602,1.291879256764971,15
1503515802534,+0.779,+0.592,+0.091,+0.186,+0.962,+0.072,-0.257,-0.188,-21.312,-9.688,-21, -21, -8, -5, -3, -2, -1, -7,2.731579821061164,1.2835149608392,15
1503515802548,+0.781,+0.589,+0.090,+0.187,+0.955,+0.063,-0.260,-0.438,-25.250,-5.312,-14, -11, -6, -3, 0, -1, -3, -5,2.730705963698586,1.275635572934414,15
1503515802571,+0.783,+0.586,+0.090,+0.188,+0.960,+0.054,-0.251,-1.250,-19.375,-1.688,-3, -5, -3, -2, -1, -2, -5, 1,2.7287560551557113,1.2682377438484986,15
1503515802594,+0.785,+0.584,+0.089,+0.188,+0.971,+0.081,-0.249,-0.750,-16.438,-1.875,3, 0, -1, 1, -5, -3, -14, 0,2.7301084874769512,1.2630648052222582,15
1503515802608,+0.787,+0.581,+0.089,+0.189,+1.011,+0.118,-0.275,+3.688,-21.875,+1.688,-5, 2, 0, 0, -2, -1, 3, -2,2.7281812993177215,1.2557139384836524,15
1503515802631,+0.789,+0.577,+0.089,+0.190,+1.016,+0.083,-0.286,+5.125,-27.188,+2.562,-2, 0, -12, -7, -4, -4, 2, 4,2.72549572353461,1.245690320954251,15
1503515802653,+0.791,+0.574,+0.090,+0.190,+0.978,+0.058,-0.266,+2.938,-23.562,+5.750,-6, -10, -13, -3, -2, -5, -1, -4,2.7239959475652196,1.2388051520101382,15
1503515802668,+0.793,+0.572,+0.090,+0.189,+0.951,+0.076,-0.260,+0.875,-16.188,+8.562,-1, 2, 6, -1, -3, 0, -8, -4,2.7257959501170443,1.2341141246324503,15
1503515802693,+0.794,+0.571,+0.091,+0.188,+1.007,+0.091,-0.270,+1.750,-8.500,+9.188,4, -3, 4, 0, -2, 1, -1, -1,2.7263828318208483,1.232211654228721,15
1503515802713,+0.795,+0.569,+0.093,+0.188,+1.050,+0.102,-0.301,+6.750,-11.500,+10.188,6, 3, 0, 0, 1, 0, 2, 1,2.72372482827453,1.2281681684891492,15
1503515802728,+0.797,+0.566,+0.094,+0.188,+1.026,+0.090,-0.312,+9.500,-19.312,+9.375,-6, -10, -1, 0, 1, 2, 3, -1,2.7223301025522364,1.2213759799917745,15
1503515802751,+0.799,+0.563,+0.096,+0.188,+0.951,+0.063,-0.300,+9.250,-20.062,+9.500,2, 0, -6, -3, -2, -3, 1, -2,2.7199382803150693,1.2151057084560053,15
1503515802773,+0.801,+0.561,+0.098,+0.188,+0.901,+0.045,-0.282,+6.562,-16.125,+11.562,-2, 1, -1, -1, 1, 3, -2, 7,2.7183358680696568,1.2115466558805201,15
1503515802788,+0.801,+0.559,+0.100,+0.186,+0.937,+0.042,-0.271,+3.938,-7.812,+13.062,0, -3, -5, -2, -1, -1, 2, 4,2.7177335668954914,1.2070824926192232,15
1503515802811,+0.802,+0.559,+0.101,+0.186,+0.974,+0.094,-0.332,+6.062,-2.938,+12.062,-9, -8, -3, 1, -2, -2, 0, -2,2.7176939810254943,1.2079889335776464,15
1503515802833,+0.803,+0.557,+0.103,+0.186,+0.945,+0.068,-0.351,+9.375,-8.062,+7.312,-7, 2, 3, -2, -2, -1, -2, -3,2.7151756159062597,1.2040965357561875,15
1503515802848,+0.804,+0.555,+0.105,+0.186,+0.930,+0.035,-0.328,+7.750,-10.562,+10.312,6, -11, -14, -3, -1, 0, -2, 0,2.7126789565203726,1.2002314577672246,15
1503515802871,+0.805,+0.554,+0.107,+0.185,+0.929,+0.021,-0.275,+7.625,-7.562,+11.312,-12, -25, -10, -5, -3, 0, -8, -1,2.7123965871373374,1.1989651316903867,15
1503515802886,+0.805,+0.552,+0.108,+0.185,+0.944,+0.034,-0.276,+6.312,-9.125,+6.812,4, 14, 3, 0, 0, -1, 1, 1,2.70993326057563,1.1942022171310653,15
1503515802908,+0.807,+0.550,+0.109,+0.185,+0.950,+0.052,-0.331,+4.938,-13.875,+3.312,-3, 7, 5, 1, 1, 0, 0, -1,2.7095076251692647,1.1902657979023459,15
1503515811098,+0.723,+0.644,+0.191,+0.160,+0.958,-0.030,-0.048,+18.375,+30.375,+13.812,1, -1, 1, 3, 1, 2, -4, 2,2.642128383182333,1.4727925754707991,16
1503515811114,+0.719,+0.647,+0.197,+0.159,+0.924,-0.047,-0.092,+22.625,+41.875,+20.312,0, 4, 6, -2, -3, -2, 1, 2,2.634850941792225,1.4852440772667646,16
1503515811136,+0.715,+0.650,+0.205,+0.156,+0.992,-0.121,-0.074,+22.562,+43.000,+29.875,-3, -3, 1, 1, 1, 2, -1, -6,2.6277687180518705,1.4995003074303288,16
1503515811158,+0.710,+0.654,+0.211,+0.153,+1.054,-0.167,+0.025,+14.812,+39.688,+23.625,-6, -1, -1, -3, -2, -1, -2, -3,2.6226700248758448,1.514950881897703,16
1503515811177,+0.705,+0.658,+0.215,+0.151,+1.011,-0.149,+0.048,+10.312,+38.312,+8.688,2, 10, 9, 3, 2, 0, 5, -5,2.6185683823560986,1.528893216925004,16
1503515811196,+0.702,+0.661,+0.217,+0.152,+0.948,-0.120,+0.034,+13.438,+26.188,-1.812,-15, -15, -14, -6, -5, -1, -4, -4,2.614442247926703,1.5386347704945975,16
1503515811219,+0.699,+0.663,+0.220,+0.153,+0.970,-0.161,+0.028,+12.812,+18.938,-4.125,-5, 3, 1, -5, -9, -1, -2, -4,2.6082351560168777,1.5465985309431316,16
1503515811236,+0.697,+0.665,+0.221,+0.152,+1.041,-0.180,+0.025,+3.500,+19.125,-1.312,-8, 2, -1, -1, -7, -2, -3, -3,2.607919410018397,1.5528259140250034,16
1503515811256,+0.694,+0.668,+0.221,+0.151,+1.000,-0.118,+0.025,-4.438,+20.938,-1.750,8, -2, -3, -1, 1, -6, 0, -4,2.608585242951529,1.5608663364451354,16
1503515811278,+0.693,+0.669,+0.221,+0.151,+0.923,-0.069,+0.032,-0.125,+10.812,-2.938,-2, 17, 14, 0, 1, -3, -2, -2,2.6084127339900323,1.563556841852504,16
1503515811294,+0.692,+0.670,+0.221,+0.153,+0.997,-0.127,+0.076,+5.625,+5.750,-11.438,4, -5, -4, -3, -1, 3, 1, 5,2.605848610121959,1.5662552254809778,16
1503515811316,+0.691,+0.671,+0.221,+0.154,+1.013,-0.157,+0.019,+3.500,+6.500,-8.062,30, 9, -2, -3, -18, -3, -3, -5,2.604494502929954,1.5689518257271116,16
1503515811341,+0.690,+0.672,+0.221,+0.154,+0.949,-0.092,+0.025,+0.938,+9.875,-3.688,-8, -5, -5, -1, 6, 15, 0, -2,2.6043398103197273,1.5716502306366682,16
1503515811354,+0.689,+0.672,+0.221,+0.156,+0.992,-0.066,+0.007,+7.250,+1.250,-4.000,-7, -9, -3, -3, 0, -1, 4, 13,2.6008058502748335,1.571650625418788,16
1503515811376,+0.690,+0.671,+0.221,+0.158,+1.012,-0.093,+0.047,+7.812,-9.875,-10.750,-2, -6, -3, 0, 5, -4, -2, -2,2.598579171870292,1.5689526147842001,16
1503515811398,+0.692,+0.669,+0.219,+0.162,+0.968,-0.088,+0.040,+4.625,-26.000,-20.688,-6, -5, -8, -4, -1, -1, 1, -4,2.596427610412292,1.5618122859909194,16
1503515811414,+0.694,+0.666,+0.216,+0.166,+0.894,-0.024,+0.004,+2.062,-24.062,-19.875,-8, -19, -6, 1, 2, -5, -7, -29,2.594379234827501,1.5511466054474865,16
1503515811437,+0.694,+0.666,+0.212,+0.170,+0.850,+0.032,-0.019,-1.688,-6.250,-19.500,-10, -10, -5, -4, -5, -7, -1, 2,2.5941871579061515,1.5477193634992314,16
1503515811458,+0.693,+0.668,+0.209,+0.172,+0.895,+0.059,+0.042,-5.562,+6.938,-22.062,7, 8, 3, 1, 3, 0, 1, 4,2.596146705245552,1.5505634365287289,16
1503515811474,+0.691,+0.670,+0.205,+0.175,+0.974,+0.041,+0.072,-3.375,+3.438,-23.688,2, 0, -5, -2, 11, 0, 1, 1,2.596965012970198,1.552606309703741,16
1503515811496,+0.692,+0.671,+0.200,+0.179,+0.963,+0.043,+0.049,-8.500,-13.812,-32.500,1, 1, -1, -4, -5, -2, -2, -3,2.6001370986313783,1.5512859541352246,16
1503515811518,+0.694,+0.670,+0.191,+0.184,+0.938,+0.096,+0.048,-19.688,-30.312,-44.250,-5, -5, -15, -3, 2, 2, -2, 1,2.6057208837408505,1.541573897031933,16
1503515811536,+0.697,+0.668,+0.181,+0.189,+0.988,+0.123,+0.044,-23.625,-35.812,-41.312,-3, -9, -2, -3, -1, -1, 3, 3,2.6124451255306798,1.5287746803865314,16
1503515811556,+0.701,+0.665,+0.173,+0.192,+1.009,+0.103,-0.016,-22.562,-41.562,-31.562,-3, 5, 1, -2, -5, -4, 0, -1,2.6192350420039734,1.5150929795166403,16
1503515811579,+0.707,+0.660,+0.165,+0.194,+0.936,+0.080,-0.087,-22.688,-51.125,-22.938,-10, -4, -3, -4, -1, 0, 0, 2,2.627255082832899,1.4963797219075625,16
1503515811594,+0.713,+0.655,+0.156,+0.198,+0.853,+0.105,-0.086,-25.625,-54.812,-31.000,-6, 3, 1, 0, -2, -3, -3, -4,2.633870085083689,1.4773980011000405,16
1503515811616,+0.717,+0.651,+0.147,+0.202,+0.895,+0.123,-0.069,-24.062,-48.562,-41.750,33, 28, 24, 8, 0, 2, 4, 2,2.6392904978738536,1.461278016748273,16
1503515811639,+0.721,+0.647,+0.138,+0.207,+0.983,+0.102,-0.120,-17.062,-40.812,-44.250,12, -10, -15, -6, -2, -2, 1, 4,2.643339125942876,1.445515851046977,16
1503515811654,+0.725,+0.642,+0.130,+0.212,+0.971,+0.067,-0.167,-13.500,-42.438,-42.438,-22, -13, -4, -2, -4, -5, -6, -11,2.645127001044863,1.4278935956513144,16
1503515811683,+0.729,+0.637,+0.122,+0.217,+0.956,+0.074,-0.111,-14.438,-53.000,-43.312,-10, 8, 2, -1, 2, 2, -2, -1,2.6467895354736024,1.4105295238442486,16
1503515811699,+0.732,+0.634,+0.117,+0.221,+0.964,+0.048,-0.054,-7.125,-39.875,-34.375,-10, -23, -9, -5, -2, 8, 4, 5,2.647257701325084,1.40029556219157,16
1503515811714,+0.734,+0.631,+0.113,+0.224,+1.028,+0.038,-0.167,-3.812,-20.312,-30.562,19, 8, -3, 1, 1, -2, 0, -2,2.6468425485297686,1.390431592312394,16
1503515819798,+0.767,+0.531,+0.290,+0.213,+0.965,-0.203,-0.197,-3.625,-0.875,-3.562,5, -7, -3, -2, 0, -2, 3, 6,2.4329603760118435,1.2926433784704812,17
1503515819820,+0.767,+0.531,+0.289,+0.213,+0.959,-0.218,-0.223,-2.188,+0.312,-2.375,6, 19, 5, 2, -2, -1, -2, 7,2.4337877081766752,1.2913820130989155,17
1503515819844,+0.768,+0.531,+0.289,+0.213,+0.956,-0.223,-0.233,-3.062,-1.875,-1.312,-12, -8, -4, 0, 0, -3, 0, 1,2.4354990343303915,1.2916819469515113,17
1503515819858,+0.768,+0.531,+0.288,+0.213,+0.962,-0.215,-0.242,-3.875,-2.625,-0.250,16, 3, 0, -2, -4, 2, -7, 1,2.436326532065833,1.2904256313709617,17
1503515819880,+0.768,+0.530,+0.288,+0.213,+0.958,-0.192,-0.243,-3.312,-3.188,+0.062,7, 3, -3, -2, -1, 0, 4, 2,2.435365088288737,1.287899685246212,17
1503515819902,+0.769,+0.530,+0.287,+0.213,+0.936,-0.173,-0.249,-3.250,-0.250,+0.000,-7, 2, 0, 1, 0, -3, -2, -7,2.4379020606207757,1.2869500298855614,17
1503515819918,+0.769,+0.530,+0.287,+0.213,+0.935,-0.181,-0.246,-2.312,+2.125,+1.062,2, -5, -1, 1, 2, 1, 0, -4,2.4379020606207757,1.2869500298855614,17
1503515819944,+0.769,+0.531,+0.287,+0.213,+0.951,-0.188,-0.231,-1.188,+2.312,+2.938,-8, -12, -6, -2, -3, -2, 5, -4,2.4388580067010817,1.289475002444459,17
1503515819962,+0.768,+0.531,+0.287,+0.212,+0.976,-0.205,-0.215,-0.188,+4.438,+2.562,-6, 12, 10, 2, 0, -2, -3, -3,2.4383557870937973,1.2890095381277589,17
1503515819981,+0.768,+0.532,+0.288,+0.212,+0.989,-0.234,-0.210,-0.625,+4.062,+2.688,-18, -24, -10, -3, 0, -2, -4, -1,2.438484144753674,1.2927891733390489,17
1503515820001,+0.768,+0.532,+0.289,+0.211,+0.970,-0.228,-0.221,-0.062,-0.562,+3.500,0, 9, 0, -1, -1, -1, -1, -3,2.438852594334682,1.2938825093611437,17
1503515820023,+0.768,+0.531,+0.289,+0.211,+0.947,-0.222,-0.235,-2.188,-1.438,+2.000,-3, 3, 2, -1, -1, 1, -1, 0,2.4378958972229055,1.291355435037947,17
1503515820039,+0.768,+0.531,+0.288,+0.211,+0.962,-0.208,-0.231,-4.125,-2.500,+3.375,0, -3, -2, -2, 0, -1, -4, 0,2.4387267759126434,1.2900987941683657,17
1503515820061,+0.769,+0.530,+0.288,+0.210,+0.965,-0.199,-0.232,-2.562,-4.812,+3.938,4, -4, 0, -2, 0, -1, -3, -1,2.44068367046114,1.2877084207999279,17
1503515820083,+0.770,+0.530,+0.288,+0.210,+0.955,-0.201,-0.222,-0.750,-5.000,+5.250,-6, -18, -4, 1, -1, -2, 0, 0,2.442387242341636,1.2880118072005107,17
1503515820099,+0.770,+0.529,+0.289,+0.210,+0.946,-0.200,-0.218,-0.062,-6.250,+4.062,1, -6, -3, -1, -1, 2, -2, 0,2.4406116628014884,1.2867419818017523,17
1503515820121,+0.771,+0.528,+0.289,+0.211,+0.946,-0.223,-0.204,+1.000,-8.062,-0.062,3, 9, 4, 1, 1, 0, 1, -3,2.4401681810155416,1.2846893655968905,17
1503515820143,+0.771,+0.526,+0.288,+0.212,+0.944,-0.217,-0.215,+2.438,-11.750,-3.750,-2, -2, 0, 1, -2, 0, 0, -4,2.437896080161829,1.2785544185837558,17
1503515820159,+0.772,+0.525,+0.289,+0.213,+0.963,-0.249,-0.224,+1.750,-14.062,-1.000,-3, 5, 0, 0, -2, -2, 1, -1,2.4366404775639534,1.2777742628461535,17
1503515820182,+0.773,+0.523,+0.288,+0.213,+0.952,-0.249,-0.229,-2.562,-12.000,-3.375,2, 5, -1, -2, 0, 1, 1, 1,2.4372962295398537,1.2717905452321947,17
1503515820203,+0.774,+0.522,+0.287,+0.215,+0.949,-0.221,-0.246,-3.750,-16.062,-4.250,2, 21, 8, 1, 0, -2, -1, -1,2.436477054717863,1.2686834580909543,17
1503515820225,+0.776,+0.519,+0.284,+0.217,+0.910,-0.208,-0.252,-5.125,-24.500,-11.000,1, 2, -3, 0, -1, -1, -5, -3,2.4371274194185975,1.2583922757746513,17
1503515820242,+0.778,+0.516,+0.281,+0.220,+0.914,-0.194,-0.244,-4.750,-29.375,-16.938,0, -5, -5, -5, -1, 0, -1, 1,2.436556632740301,1.2483459090538747,17
1503515820262,+0.780,+0.513,+0.278,+0.224,+0.937,-0.192,-0.260,-3.438,-28.938,-18.500,4, 2, 2, -1, 0, -2, 1, 1,2.434759059520624,1.2385540586149715,17
1503515820285,+0.782,+0.511,+0.276,+0.227,+0.903,-0.204,-0.301,-1.250,-23.438,-18.688,-3, -3, -3, -1, -1, 2, 2, -2,2.4342982935957376,1.2323609161764721,17
1503515820301,+0.783,+0.509,+0.273,+0.231,+0.861,-0.194,-0.326,-0.688,-15.250,-18.875,-4, -9, -1, -2, 0, -1, 0, -2,2.4316865894032667,1.2248373026987607,17
1503515820323,+0.783,+0.509,+0.271,+0.233,+0.884,-0.169,-0.308,-2.938,-4.750,-15.500,-13, -5, -5, -1, 0, -3, -3, -2,2.4308402467756425,1.2228084836029631,17
1503515820347,+0.782,+0.511,+0.270,+0.233,+0.942,-0.158,-0.231,-6.125,+4.375,-8.562,-2, -10, -4, 1, -1, -2, 0, 1,2.4317826054499214,1.2262465964733296,17
1503515820361,+0.780,+0.514,+0.269,+0.233,+1.000,-0.170,-0.226,-9.562,+12.938,-8.000,0, -4, 0, -1, -2, -1, -3, -4,2.431980119666738,1.2318479987690547,17
1503515820383,+0.779,+0.516,+0.268,+0.233,+0.990,-0.162,-0.289,-8.625,+10.688,-9.062,8, 9, 5, 0, 0, 0, 0, 1,2.4329701338495795,1.2353167167876085,17
1503515820405,+0.779,+0.517,+0.266,+0.234,+0.939,-0.135,-0.343,-5.812,+2.938,-7.875,-6, 1, 3, 2, 0, -1, 1, -1,2.434315945780465,1.2356367325524853,17
1503515820421,+0.779,+0.518,+0.265,+0.234,+0.951,-0.141,-0.301,-6.125,+2.562,-3.188,1, -6, -4, -1, 1, -1, 0, -4,2.4360692718948593,1.2369664932707538,17
1503515820443,+0.779,+0.520,+0.263,+0.233,+0.989,-0.213,-0.234,-14.688,+9.062,-3.875,2, 7, 1, -2, -2, -3, -2, -1,2.4407848464157595,1.2394699680199668,17
1503515820473,+0.779,+0.521,+0.261,+0.232,+0.993,-0.184,-0.285,-15.875,+3.188,-4.500,-7, -18, -8, -2, -2, 0, -1, 0,2.444559168333804,1.2394908428869822,17
1503515820482,+0.780,+0.520,+0.259,+0.232,+0.946,-0.125,-0.350,-10.312,-6.188,-0.688,8, -10, -3, 1, 0, 0, 0, -2,2.446895925043027,1.2350243533193455,17
1503515820503,+0.781,+0.519,+0.258,+0.232,+0.908,-0.111,-0.316,-5.938,-6.125,+1.375,-2, 4, -4, -3, -1, -3, 0, 0,2.4484241940555846,1.2317168069150723,17
1503515820525,+0.781,+0.520,+0.257,+0.232,+0.960,-0.151,-0.236,-5.875,-3.000,+0.000,-3, -1, -2, 0, -1, -4, 1, 2,2.4501769577066037,1.2330878297784964,17
1503515826615,+0.747,+0.580,+0.269,+0.182,+1.016,-0.183,-0.130,+0.625,+7.812,-2.438,-3, 5, -6, -1, -2, -1, -10, -2,2.5043399401796926,1.3837999038822677,18
1503515826623,+0.747,+0.580,+0.270,+0.183,+0.959,-0.164,-0.161,+7.000,-3.188,-3.500,-2, -16, -7, -2, -1, -2, -6, 0,2.5021699925552734,1.3850493684624652,18
1503515826646,+0.747,+0.579,+0.270,+0.185,+0.922,-0.199,-0.152,+9.625,-4.688,-7.625,3, -6, 1, 1, -2, -2, -8, 0,2.498763211548745,1.3826522562635561,18
1503515826668,+0.746,+0.579,+0.271,+0.186,+0.930,-0.237,-0.142,+6.125,+5.250,-8.500,0, 8, 0, 1, -1, 1, 6, 0,2.495080579670816,1.3836879848741075,18
1503515826684,+0.745,+0.580,+0.271,+0.187,+0.954,-0.216,-0.144,+0.750,+7.688,-6.750,-3, -7, -1, -1, 1, -1, 8, 0,2.49332411940028,1.3861722123036866,18
1503515826706,+0.744,+0.581,+0.270,+0.188,+0.994,-0.146,-0.125,-0.375,+4.188,-6.625,-1, -6, 1, -1, -2, 1, -1, -4,2.492519646949929,1.387505144930992,18
1503515826728,+0.743,+0.582,+0.270,+0.190,+0.995,-0.095,-0.130,+5.812,-0.562,-9.188,-3, -4, -4, -2, 0, 0, 1, 0,2.489580435118807,1.3900908404460095,18
1503515826747,+0.743,+0.581,+0.270,+0.193,+0.958,-0.118,-0.142,+13.812,-3.188,-7.125,1, 5, 5, -1, 0, -2, 0, -1,2.4849801524920774,1.3877900238859533,18
1503515826766,+0.742,+0.581,+0.271,+0.196,+0.934,-0.184,-0.152,+13.875,-1.500,-8.062,1, -8, -3, -1, 0, 0, 2, 0,2.4789333262575615,1.3890276321397785,18
1503515826789,+0.741,+0.581,+0.272,+0.197,+0.990,-0.210,-0.125,+7.688,+2.688,-4.500,-1, -3, -1, -1, 0, 1, 4, -2,2.475273528185708,1.3900713362464798,18
1503515826810,+0.740,+0.582,+0.273,+0.197,+1.013,-0.163,-0.097,+0.500,+4.750,-1.750,-2, -3, 0, -2, 1, -4, -1, -1,2.473824303051599,1.3936152106987618,18
1503515826826,+0.740,+0.583,+0.272,+0.197,+1.088,-0.107,-0.119,+0.062,+3.000,+1.500,-4, -4, -3, 0, -2, 1, -1, 1,2.4757824311239163,1.3950484470279394,18
1503515826853,+0.741,+0.581,+0.273,+0.197,+0.981,-0.150,-0.163,+3.625,-7.500,+9.938,0, 0, 1, -2, 0, -2, -1, 1,2.47434561373256,1.3912324797054416,18
1503515826863,+0.742,+0.580,+0.274,+0.197,+0.940,-0.179,-0.144,+0.875,-7.500,+7.938,0, -3, -3, -1, -1, -1, -8, -4,2.47394655567557,1.39001853729581,18
1503515826886,+0.742,+0.579,+0.274,+0.197,+0.980,-0.168,-0.127,-2.375,-5.625,-1.375,0, -4, -2, 0, 0, 2, -1, -3,2.4729247458847343,1.387429243705129,18
1503515826908,+0.742,+0.579,+0.273,+0.198,+1.015,-0.143,-0.124,-3.250,-3.812,-4.188,-3, -6, -2, -2, -2, -3, -2, 2,2.4726646817625992,1.3863642955296942,18
1503515826930,+0.742,+0.580,+0.271,+0.199,+0.967,-0.100,-0.147,-0.312,+1.000,-6.438,0, 1, 4, 1, 1, -1, 1, 0,2.4743546490351913,1.3867356774950992,18
1503515826948,+0.742,+0.580,+0.271,+0.201,+0.962,-0.107,-0.184,+4.125,+0.938,-6.688,-2, -4, -1, -2, -2, 1, -1, -1,2.4719926296126054,1.3869368333332432,18
1503515826968,+0.742,+0.579,+0.271,+0.203,+0.988,-0.137,-0.178,+5.188,-3.500,-6.062,-2, 2, -3, 0, -1, -2, -3, -1,2.46860692019697,1.3845521444546622,18
1503515826990,+0.742,+0.579,+0.270,+0.205,+1.011,-0.147,-0.146,+3.688,-8.375,-11.688,-2, -5, -2, -1, 0, 1, -3, 1,2.467174211936035,1.3836014741137013,18
1503515827006,+0.742,+0.578,+0.268,+0.208,+1.012,-0.134,-0.114,+1.000,-10.750,-13.438,0, -6, -2, -1, 0, -1, 1, -2,2.4644442734503005,1.37902602343809,18
1503515827028,+0.742,+0.579,+0.267,+0.209,+0.973,-0.104,-0.118,-0.688,-2.562,-8.625,2, 1, 0, 0, -1, 2, -4, 0,2.4652306674186715,1.3805700399845615,18
1503515827050,+0.741,+0.579,+0.266,+0.211,+0.928,-0.080,-0.164,+1.375,+4.125,-6.375,-1, -5, -5, -4, -3, -1, 2, -2,2.4622558922247584,1.3794130096286024,18
1503515827066,+0.740,+0.580,+0.265,+0.213,+0.949,-0.083,-0.167,+1.375,+3.500,-10.188,-1, -7, 1, 1, -1, -2, -1, -4,2.4603436902224396,1.3808443160167168,18
1503515827088,+0.739,+0.581,+0.263,+0.215,+1.012,-0.111,-0.132,-0.688,+0.562,-16.438,-2, -1, -1, 0, -1, -3, -4, 1,2.459360291838564,1.3811515541415413,18
1503515827110,+0.739,+0.582,+0.261,+0.217,+1.013,-0.136,-0.115,-1.938,-4.062,-16.875,0, 5, 2, 1, -2, -2, -2, -1,2.4599362751001164,1.3816955549958991,18
1503515827126,+0.739,+0.582,+0.259,+0.218,+0.977,-0.128,-0.128,-7.062,-7.938,-13.625,0, 2, -1, -1, 0, 1, 1, 1,2.4606025514049654,1.3795680931181722,18
1503515827148,+0.740,+0.582,+0.256,+0.220,+0.941,-0.090,-0.168,-8.062,-3.750,-16.500,2, -8, -5, -2, -1, -2, -2, -1,2.4625532442007234,1.3766804283251723,18
1503515827170,+0.740,+0.582,+0.253,+0.223,+0.949,-0.062,-0.193,-2.938,-5.250,-18.312,-1, -5, -3, -3, 0, 3, 0, 0,2.4618107000044724,1.3737024139125664,18
1503515827186,+0.740,+0.582,+0.251,+0.227,+0.983,-0.102,-0.177,+2.125,-7.688,-21.750,-4, -7, -4, 0, -1, -2, 1, 0,2.4590052488864678,1.3719350033370832,18
1503515827208,+0.740,+0.582,+0.250,+0.229,+1.014,-0.141,-0.125,+0.125,-7.688,-18.125,-1, -3, -4, -1, 1, -3, -3, -2,2.4576073029971597,1.3710567990282065,18
1503515827229,+0.740,+0.581,+0.248,+0.230,+1.019,-0.127,-0.116,-4.312,-9.688,-14.125,1, 5, 0, 1, -1, 0, 0, -2,2.457176733317394,1.366422902531232,18
1503515827249,+0.741,+0.580,+0.245,+0.233,+1.001,-0.073,-0.169,-5.312,-16.375,-16.625,0, 2, -1, -2, -2, -1, 0, -2,2.456859315443231,1.3611826114256176,18
1503515834009,+0.721,+0.653,+0.184,+0.139,+0.957,-0.115,-0.008,+9.688,+5.000,+7.812,1, 4, 5, -1, -1, 1, 0, -2,2.6828943648836936,1.4909185397632352,19
1503515834032,+0.721,+0.653,+0.186,+0.139,+0.963,-0.129,-0.013,+4.812,+5.125,+0.000,-1, 4, 1, 0, 0, 2, -1, 1,2.6805442666858785,1.492443690541064,19
1503515834054,+0.721,+0.653,+0.185,+0.141,+0.979,-0.103,+0.013,+1.750,-8.750,-11.688,-1, 0, -4, -2, -1, 1, 1, -1,2.6791271428647145,1.4917379479663655,19
1503515834069,+0.723,+0.651,+0.183,+0.144,+0.974,-0.094,+0.009,+0.438,-24.250,-18.125,1, -2, 0, -1, 0, 1, -1, 1,2.6779808770899463,1.4850756143273454,19
1503515834092,+0.726,+0.648,+0.179,+0.147,+0.966,-0.091,-0.017,-1.938,-34.125,-23.438,-1, -7, -4, -5, -2, -3, 0, 1,2.6793348853130383,1.4743597369618309,19
1503515834116,+0.729,+0.644,+0.175,+0.151,+0.930,-0.071,-0.038,-5.938,-35.375,-30.250,-6, 10, 17, 3, 1, 1, -2, -3,2.67850013527003,1.4610577046293367,19
1503515834129,+0.732,+0.641,+0.169,+0.157,+0.926,-0.016,-0.103,-4.562,-32.375,-37.625,0, 13, 15, 4, 0, -2, -1, 2,2.67812325412749,1.4492430012047415,19
1503515834152,+0.734,+0.638,+0.163,+0.163,+0.891,-0.015,-0.083,-3.375,-33.938,-40.750,1, -3, -5, 0, 1, 0, -4, -2,2.67662514535224,1.437439705950278,19
1503515834174,+0.735,+0.637,+0.159,+0.167,+0.936,-0.042,-0.065,-3.375,-18.812,-33.000,-2, -4, -6, -3, -1, -1, -1, -3,2.6760974029300906,1.4323243332414746,19
1503515834189,+0.735,+0.638,+0.156,+0.170,+0.957,-0.020,-0.115,-4.062,-1.562,-30.062,1, -2, -3, -2, -3, -1, -3, -1,2.676437471219222,1.4331715059154997,19
1503515834212,+0.735,+0.637,+0.151,+0.175,+1.011,+0.046,-0.169,-2.375,-4.875,-30.312,1, 4, 4, 0, -1, -1, -2, -1,2.674694697869217,1.4273739901774491,19
1503515834234,+0.737,+0.635,+0.147,+0.180,+1.044,+0.072,-0.190,+1.938,-20.062,-30.438,3, -1, -5, -1, -2, -1, 0, 0,2.6729253914169613,1.419933490682091,19
1503515834257,+0.739,+0.632,+0.144,+0.185,+1.027,+0.053,-0.099,+4.375,-28.062,-29.250,3, 6, 8, 0, -3, -1, -1, 1,2.6690957180727293,1.4104629159400917,19
1503515834272,+0.740,+0.630,+0.141,+0.189,+1.008,+0.020,-0.073,+4.062,-21.500,-22.812,5, 3, 7, 3, -1, 1, -2, -1,2.6664217868854405,1.4035212267863488,19
1503515834295,+0.740,+0.629,+0.139,+0.191,+0.985,+0.036,-0.104,-0.875,-11.062,-16.438,-7, -7, -8, -4, -2, -2, 1, -3,2.665122648029131,1.3996488908764309,19
1503515834309,+0.741,+0.629,+0.137,+0.193,+0.994,+0.090,-0.143,-1.750,-8.625,-12.000,2, 3, -1, -2, -1, -1, -1, -1,2.66574322399671,1.3987383252062997,19
1503515834332,+0.741,+0.628,+0.136,+0.195,+0.989,+0.099,-0.148,-0.938,-4.812,-9.812,-4, -1, -1, -2, -1, -1, 0, -2,2.6633145366765105,1.3954937292996243,19
1503515834355,+0.740,+0.629,+0.135,+0.197,+0.980,+0.065,-0.118,+1.562,+1.188,-9.062,1, 1, -1, -1, 0, 0, 0, 2,2.6617010620645383,1.397502595596842,19
1503515834369,+0.739,+0.630,+0.134,+0.197,+1.040,+0.032,-0.083,-1.312,+5.875,-8.500,-2, -3, -2, -1, 0, -3, -1, -2,2.662727299021169,1.399425701795518,19
1503515834392,+0.739,+0.631,+0.134,+0.197,+1.084,+0.056,-0.097,-4.125,+1.188,+0.250,-3, -5, -3, -3, -2, 0, 1, 0,2.6636508669627776,1.4021639251404248,19
1503515834415,+0.738,+0.631,+0.135,+0.196,+1.053,+0.078,-0.120,-3.562,+3.312,+6.812,-2, -1, 1, 0, -2, -1, -1, -1,2.6628302283480987,1.4025038486586565,19
1503515834429,+0.739,+0.631,+0.134,+0.195,+1.014,+0.079,-0.155,-3.125,-1.500,+3.125,1, 0, -2, 1, 0, -1, -1, 0,2.6662773574369947,1.4020738817264287,19
1503515834452,+0.740,+0.630,+0.134,+0.195,+0.998,+0.057,-0.159,-3.438,-5.875,+4.312,0, -1, 3, 1, 0, -2, -1, -1,2.6663684225997892,1.3995492571339472,19
1503515834474,+0.740,+0.630,+0.134,+0.194,+1.008,+0.042,-0.123,-5.125,-2.500,+0.625,-5, -2, -4, -5, -1, 0, 0, -4,2.66768559686545,1.3995035417506003,19
1503515834489,+0.740,+0.630,+0.133,+0.195,+1.033,+0.061,-0.113,-3.062,-3.125,-4.562,0, -5, -6, -3, -3, -1, -5, -4,2.66748968790405,1.3989560043229095,19
1503515834515,+0.740,+0.629,+0.133,+0.195,+1.020,+0.051,-0.146,-1.688,-1.250,-1.375,-4, 7, -2, -1, 0, 0, 1, 0,2.666573893923914,1.3962164223511737,19
1503515834534,+0.739,+0.631,+0.133,+0.195,+0.973,+0.051,-0.156,-1.438,+11.500,+0.875,2, 5, 1, -1, -2, -1, -2, 0,2.6674008497065715,1.4014812454960328,19
1503515834552,+0.738,+0.632,+0.134,+0.195,+1.021,+0.064,-0.127,+2.000,+13.312,+0.000,3, 8, 4, -3, 0, 0, 1, 2,2.666189877018733,1.4046028477000687,19
1503515834572,+0.737,+0.633,+0.134,+0.195,+1.111,+0.039,-0.079,+0.875,+2.188,+2.250,1, 8, 6, 4, 2, -1, -3, -2,2.6661059879160502,1.4071361604634438,19
1503515834595,+0.739,+0.631,+0.135,+0.194,+1.091,+0.015,-0.061,-1.875,-17.812,+2.312,-2, 4, 0, -1, -1, 2, 2, 3,2.666469558847964,1.4026248928992229,19
1503515834609,+0.741,+0.628,+0.133,+0.195,+0.987,+0.061,-0.146,-1.438,-26.188,-2.938,-5, 4, 9, 4, 3, 0, -1, -4,2.6666687735740244,1.3936971374016995,19
1503515834632,+0.744,+0.625,+0.132,+0.197,+0.850,+0.085,-0.193,+2.438,-17.188,-4.938,5, 1, -3, -2, -2, -1, 0, 2,2.6654388726983544,1.3856692349278323,19
1503515834655,+0.744,+0.624,+0.132,+0.198,+0.854,+0.039,-0.172,+5.750,-0.688,-4.250,-5, -6, 0, 1, -1, -2, 1, -2,2.6632012084783216,1.3829841539479464,19
1503515834669,+0.742,+0.626,+0.133,+0.199,+0.979,+0.007,-0.120,+0.938,+9.875,-8.125,1, 6, 1, 0, -1, -2, -2, -3,2.6605672730993,1.3886375033551472,19
1503515834692,+0.742,+0.626,+0.132,+0.200,+1.040,+0.052,-0.083,-2.500,-1.312,-9.625,1, -2, -1, -1, 1, 0, -2, -1,2.6603612409893476,1.3880911243873046,19
1503515834714,+0.743,+0.625,+0.130,+0.203,+0.988,+0.107,-0.149,+5.812,-14.250,-9.375,-1, -5, -1, 1, -2, 2, 1, 1,2.6587211011972034,1.3845498160302214,19
1503515834729,+0.744,+0.622,+0.129,+0.206,+0.883,+0.099,-0.178,+7.250,-19.438,-16.188,-2, 21, 10, 4, 0, 0, 1, -4,2.6540933378763425,1.3761402383446852,19
1503515834752,+0.745,+0.620,+0.127,+0.210,+0.904,+0.078,-0.190,+5.938,-13.938,-14.812,-4, -10, -5, -2, 0, -1, -1, -1,2.6501659368810078,1.369945276849758,19
