Timestamp,Orientation X,Orientation Y,Orientation Z,Orientation W,Accelerometer X,Accelerometer Y,Accelerometer Z,Gyroscope X,Gyroscope Y,Gyroscope Z,EMG1,EMG2,EMG3,EMG4,EMG5,EMG6,EMG7,EMG8
1503955695447,+0.755,+0.508,+0.284,+0.302,+0.968,-0.120,-0.233,-30.062,+3.562,+8.875,30, -4, -3, 2, 11, 2, 5, 1
1503955695462,+0.756,+0.509,+0.281,+0.300,+0.973,-0.123,-0.258,-26.000,-2.188,+2.812,3, 5, -2, -2, 9, 3, 0, -3
1503955695484,+0.757,+0.510,+0.278,+0.298,+0.995,-0.141,-0.259,-23.312,-7.375,-2.875,-20, 0, -2, -4, 1, -1, -1, -10
1503955695507,+0.759,+0.511,+0.274,+0.297,+0.966,-0.081,-0.323,-22.375,-2.625,-3.000,-13, -2, 6, 6, 6, 1, 2, -3
1503955695522,+0.759,+0.511,+0.271,+0.297,+0.902,-0.029,-0.322,-16.000,-0.312,-4.625,32, 6, -2, -3, -5, 0, 10, 13
1503955695544,+0.760,+0.513,+0.268,+0.297,+0.940,-0.053,-0.293,-16.438,+0.375,-6.438,-9, 0, -3, -2, 0, -12, -3, 2
1503955695567,+0.760,+0.514,+0.266,+0.296,+0.993,-0.096,-0.305,-13.812,+4.875,-0.500,12, 4, 0, -1, -2, 17, 8, 6
1503955695582,+0.760,+0.514,+0.267,+0.295,+1.026,-0.131,-0.321,-3.312,+6.250,+6.812,-20, -12, -6, -3, 0, -3, -7, 1
1503955695604,+0.761,+0.513,+0.269,+0.293,+0.988,-0.080,-0.367,+3.938,+0.875,+15.000,-3, -4, 0, 2, 2, 0, 6, 19
1503955695620,+0.762,+0.511,+0.270,+0.293,+0.949,-0.092,-0.312,+6.875,-9.188,+12.125,-1, 5, 2, -2, 11, 4, 0, 12
1503955695649,+0.762,+0.509,+0.271,+0.294,+0.943,-0.099,-0.283,+8.562,-8.750,+5.062,-8, -2, 0, 1, 5, -1, 0, -13
1503955695666,+0.762,+0.508,+0.272,+0.295,+0.917,-0.078,-0.271,+6.812,-3.688,-2.562,0, -5, -3, -2, 1, 2, 2, -3
1503955695680,+0.761,+0.508,+0.272,+0.297,+0.933,-0.087,-0.295,+5.375,+0.250,-7.312,5, -2, 4, 4, 4, 4, 7, -5
1503955695703,+0.761,+0.508,+0.272,+0.298,+0.952,-0.097,-0.308,+7.250,+2.438,-4.250,-7, 7, 5, -1, 5, 11, 1, -5
1503955695724,+0.760,+0.508,+0.272,+0.300,+0.923,-0.110,-0.283,+5.000,-5.125,-6.938,-2, 0, -4, -1, -3, -5, 6, 19
1503955695747,+0.760,+0.507,+0.271,+0.303,+0.926,-0.087,-0.243,+1.562,-11.125,-17.375,-24, -11, -1, 0, 0, -3, -4, -13
1503955695763,+0.759,+0.508,+0.268,+0.306,+0.932,-0.055,-0.262,-2.688,-1.562,-21.250,-5, -2, 0, 0, -1, 1, -4, -7
1503955695784,+0.758,+0.510,+0.266,+0.308,+0.946,-0.043,-0.290,-6.500,+2.625,-15.438,-4, 5, 3, 0, 2, -8, -1, 7
1503955695807,+0.758,+0.510,+0.264,+0.309,+0.977,-0.043,-0.296,-8.625,-5.875,-8.812,11, -6, -8, -3, -2, -1, 5, -5
1503955695822,+0.759,+0.510,+0.262,+0.309,+0.974,-0.082,-0.260,-11.438,-12.188,-3.812,5, -2, -2, 1, -2, -3, -2, -1
1503955695844,+0.761,+0.509,+0.259,+0.308,+0.956,-0.097,-0.263,-16.750,-16.125,-1.062,-8, 8, 7, 13, 8, -3, -15, -15
1503955695867,+0.763,+0.508,+0.255,+0.308,+0.925,-0.055,-0.282,-19.688,-14.500,-6.812,-15, -3, -1, -6, -1, 1, 14, -12
1503955695882,+0.764,+0.508,+0.250,+0.308,+0.932,-0.039,-0.289,-27.312,-16.750,-10.500,-13, -3, -2, 1, -4, 0, 4, -2
1503955695904,+0.766,+0.508,+0.246,+0.307,+0.934,-0.082,-0.336,-26.875,-7.500,-4.438,4, 3, 1, -2, -2, 3, 0, 12
1503955695928,+0.768,+0.509,+0.242,+0.305,+0.930,-0.088,-0.330,-23.625,-6.375,-3.000,-5, 0, -3, -3, 0, 6, 5, 2
1503955695942,+0.769,+0.509,+0.239,+0.305,+0.953,-0.054,-0.316,-21.938,-8.812,-9.125,5, -9, -7, -5, -5, -6, -4, 1
1503955695967,+0.769,+0.510,+0.235,+0.305,+0.952,-0.032,-0.324,-20.875,-0.250,-9.812,-13, -1, 2, 1, 4, -2, -9, -16
1503955695987,+0.770,+0.512,+0.232,+0.303,+0.917,-0.022,-0.347,-20.250,+3.188,-1.625,16, 3, 0, -1, -2, 1, 1, -5
1503955696003,+0.770,+0.512,+0.230,+0.302,+0.945,-0.029,-0.344,-17.188,-0.812,+2.375,-7, 7, 7, 4, 4, 3, 1, 7
1503955696032,+0.772,+0.511,+0.229,+0.300,+0.966,-0.076,-0.332,-14.438,-7.938,+7.312,34, 3, -2, -5, -1, -1, 1, 11
1503955696046,+0.774,+0.510,+0.228,+0.298,+0.958,-0.085,-0.320,-10.750,-15.312,+9.500,21, 3, -1, -2, 1, -1, 2, 14
1503955696064,+0.776,+0.508,+0.227,+0.296,+0.956,-0.083,-0.301,-10.938,-15.750,+9.438,-3, -10, -6, -10, -7, -4, 2, 0
1503955696085,+0.778,+0.507,+0.226,+0.294,+0.925,-0.066,-0.326,-13.812,-5.875,+10.938,4, -3, -7, -3, -6, -1, 0, 1
1503955696107,+0.779,+0.507,+0.226,+0.291,+0.890,-0.075,-0.361,-13.438,-2.188,+13.938,-15, -9, -2, -3, -2, -2, 3, -5
1503955696122,+0.782,+0.505,+0.225,+0.289,+0.918,-0.067,-0.351,-11.062,-11.125,+15.438,-23, -4, -2, 1, 1, 0, -10, -8
1503955696144,+0.784,+0.502,+0.225,+0.287,+0.936,-0.048,-0.377,-3.688,-13.500,+14.062,-9, 5, -6, -2, -1, -4, -12, -10
1503955696167,+0.786,+0.500,+0.226,+0.286,+0.907,-0.054,-0.394,+0.000,-13.500,+15.438,-8, -4, -4, 3, -2, 0, -4, -6
1503955696182,+0.789,+0.496,+0.227,+0.284,+0.899,-0.079,-0.381,-1.312,-18.000,+21.938,3, 2, -2, 0, 0, -2, -15, -3
1503955696205,+0.792,+0.492,+0.228,+0.281,+0.913,-0.088,-0.376,+1.000,-19.375,+24.750,11, -2, -3, 0, -2, 0, 5, 4
1503955696227,+0.793,+0.489,+0.230,+0.281,+0.898,-0.107,-0.332,+8.688,-15.188,+13.688,-11, 0, 3, -3, -1, -2, -3, 0
1503955696242,+0.793,+0.489,+0.232,+0.281,+0.908,-0.120,-0.328,+5.938,-2.938,-0.688,6, 12, 10, 3, 3, 2, 6, 5
1503955696265,+0.791,+0.490,+0.232,+0.283,+0.899,-0.103,-0.337,+5.188,+7.375,-10.250,-2, -9, -11, -9, -5, -5, -21, -9
1503955702385,+0.800,+0.424,+0.260,+0.335,+0.853,-0.132,-0.484,-2.312,-0.500,+1.000,-7, -4, -2, 0, 2, 4, -16, -17
1503955702408,+0.800,+0.423,+0.260,+0.336,+0.850,-0.151,-0.474,+1.812,-3.312,-3.562,7, 1, 0, -2, -3, 1, 5, 5
1503955702429,+0.800,+0.423,+0.260,+0.338,+0.860,-0.149,-0.447,+4.000,-1.812,-11.125,13, 1, 1, 2, 0, 6, 9, 12
1503955702449,+0.798,+0.423,+0.260,+0.340,+0.858,-0.162,-0.449,+4.688,-0.062,-16.500,0, 1, 0, 1, 3, -2, -13, -10
1503955702468,+0.797,+0.423,+0.260,+0.343,+0.869,-0.149,-0.471,+6.625,-3.312,-17.375,-6, -5, -11, -9, -2, -1, 3, -4
1503955702490,+0.796,+0.422,+0.259,+0.346,+0.874,-0.121,-0.479,+7.938,-6.562,-18.562,-1, -7, -5, -5, -8, -3, -16, -4
1503955702513,+0.795,+0.422,+0.258,+0.350,+0.856,-0.094,-0.464,+7.250,-6.438,-20.688,10, -3, 1, 1, 2, -3, 1, -5
1503955702531,+0.794,+0.422,+0.258,+0.354,+0.870,-0.104,-0.433,+5.312,-2.938,-20.250,-15, 3, 4, 2, -2, 0, 1, 3
1503955702550,+0.793,+0.423,+0.257,+0.356,+0.903,-0.088,-0.470,+4.562,+0.500,-15.000,12, 4, 12, 7, 8, 7, 12, -11
1503955702572,+0.792,+0.423,+0.257,+0.358,+0.901,-0.063,-0.471,+3.625,-2.125,-8.875,-1, 0, 2, 2, -6, 1, -6, 5
1503955702587,+0.791,+0.423,+0.256,+0.359,+0.904,-0.048,-0.448,-0.938,-1.250,-3.312,8, 4, -4, -4, 8, 1, 16, 8
1503955702610,+0.792,+0.424,+0.256,+0.358,+0.905,-0.056,-0.456,-6.750,+1.500,+6.750,15, 5, -2, -2, -5, 1, 2, 24
1503955702631,+0.793,+0.424,+0.255,+0.355,+0.891,-0.074,-0.491,-9.250,+0.875,+16.438,-2, 2, 7, 10, 1, -4, -4, -20
1503955702648,+0.794,+0.424,+0.255,+0.352,+0.880,-0.075,-0.471,-9.875,-3.000,+16.625,-9, 1, -3, -6, -1, -2, 0, 12
1503955702669,+0.795,+0.424,+0.254,+0.350,+0.866,-0.085,-0.457,-13.625,+2.250,+12.188,4, -5, 3, 1, -1, -1, -12, -2
1503955702691,+0.796,+0.425,+0.253,+0.347,+0.883,-0.084,-0.467,-15.438,+4.375,+12.312,18, 3, -5, 0, 2, 24, -21, -1
1503955702710,+0.798,+0.426,+0.252,+0.344,+0.884,-0.084,-0.480,-16.562,+2.875,+15.375,5, 0, 1, 0, 0, -2, 9, 16
1503955702729,+0.799,+0.426,+0.251,+0.341,+0.875,-0.092,-0.492,-14.938,+1.188,+17.188,-6, 4, 2, 0, -2, -7, 12, -6
1503955702751,+0.801,+0.426,+0.251,+0.338,+0.852,-0.109,-0.479,-12.812,+0.750,+14.375,19, 6, 1, 2, 4, -3, 5, -2
1503955702767,+0.801,+0.427,+0.251,+0.336,+0.859,-0.139,-0.460,-10.375,+3.375,+7.000,-7, 0, 4, 1, 0, 0, 0, -6
1503955702789,+0.801,+0.427,+0.250,+0.335,+0.876,-0.146,-0.440,-8.125,+2.938,+3.000,-11, -1, -4, -5, -6, -8, 0, 0
1503955702813,+0.802,+0.428,+0.250,+0.334,+0.877,-0.144,-0.446,-7.438,+3.250,+1.250,-15, -3, -2, -2, -6, -4, 2, -1
1503955702827,+0.802,+0.428,+0.250,+0.334,+0.855,-0.131,-0.481,-5.500,+2.188,-1.062,28, -4, -3, -5, -2, -6, 3, 7
1503955702850,+0.802,+0.428,+0.249,+0.334,+0.836,-0.126,-0.499,-2.938,+1.250,-3.438,-17, -13, -9, -2, -2, -1, -5, -11
1503955702872,+0.802,+0.427,+0.249,+0.336,+0.826,-0.113,-0.497,+0.875,-4.750,-8.000,4, 2, 2, 6, 2, -4, -3, 1
1503955702888,+0.801,+0.427,+0.248,+0.338,+0.855,-0.120,-0.467,+3.438,+0.125,-12.562,5, -2, 3, 2, 0, 5, -3, 17
1503955702911,+0.799,+0.428,+0.249,+0.340,+0.884,-0.120,-0.458,+6.125,+1.625,-16.875,1, 6, 3, 0, 0, -3, -2, 0
1503955702931,+0.798,+0.429,+0.248,+0.344,+0.885,-0.094,-0.432,+5.438,-0.688,-22.750,-28, -4, 0, -2, -1, -2, 3, -13
1503955702948,+0.796,+0.430,+0.247,+0.347,+0.895,-0.083,-0.439,+2.750,+1.625,-19.438,8, 1, 0, -1, -3, 2, 16, 0
1503955702970,+0.795,+0.430,+0.247,+0.348,+0.893,-0.052,-0.464,+2.000,-1.938,-7.562,4, -2, -2, 1, 3, 1, -2, 9
1503955702991,+0.796,+0.430,+0.246,+0.349,+0.887,-0.049,-0.451,-1.875,-5.125,+0.688,-11, -4, -2, -3, -3, -6, -12, -10
1503955703007,+0.796,+0.430,+0.246,+0.347,+0.902,-0.085,-0.453,-5.062,-1.500,+8.812,-7, -6, -4, 0, 0, 1, 12, 13
1503955703029,+0.797,+0.430,+0.247,+0.344,+0.904,-0.090,-0.442,-7.812,+3.062,+18.625,14, 4, 4, 1, -5, 1, 2, 4
1503955703053,+0.799,+0.430,+0.247,+0.340,+0.910,-0.080,-0.442,-11.312,-0.125,+23.625,14, 3, 1, -2, 2, 1, 2, -9
1503955703068,+0.801,+0.430,+0.247,+0.336,+0.894,-0.096,-0.449,-14.750,-1.312,+25.250,-15, -5, -6, -6, -3, 0, -6, -3
1503955703090,+0.803,+0.430,+0.247,+0.331,+0.860,-0.125,-0.477,-15.312,+1.938,+27.375,9, -2, -1, 1, 1, 2, 8, 15
1503955703113,+0.805,+0.428,+0.248,+0.326,+0.842,-0.134,-0.517,-10.062,+0.312,+29.375,8, 3, 0, -1, -2, 0, -4, -5
1503955703127,+0.807,+0.427,+0.250,+0.323,+0.871,-0.140,-0.471,-2.312,-1.562,+23.500,1, 2, 1, 1, 0, -1, -4, -2
1503955703151,+0.807,+0.427,+0.252,+0.321,+0.863,-0.166,-0.438,+2.375,+3.438,+11.188,-13, -5, -1, 3, 3, -1, -1, -5
1503955703172,+0.806,+0.428,+0.253,+0.322,+0.852,-0.160,-0.462,+4.312,+13.000,-3.562,0, 2, 4, 3, 2, 0, 6, 4
1503955703187,+0.804,+0.430,+0.254,+0.324,+0.867,-0.144,-0.485,+6.812,+13.375,-14.562,15, 2, -1, -3, -2, -3, -2, 1
1503955703212,+0.802,+0.431,+0.254,+0.327,+0.859,-0.106,-0.478,+9.062,+5.312,-19.500,-4, -13, -7, -4, -7, -4, -5, 9
1503955703232,+0.800,+0.431,+0.254,+0.331,+0.855,-0.091,-0.477,+14.625,+3.312,-23.188,-3, -13, -5, 1, 0, 2, 13, 13
1503955703247,+0.798,+0.431,+0.254,+0.336,+0.809,-0.083,-0.467,+14.000,+1.062,-22.312,-10, 5, -10, -2, -3, -1, -1, -12
1503955703270,+0.796,+0.432,+0.255,+0.339,+0.821,-0.080,-0.449,+10.875,+7.125,-18.875,-16, -6, -1, -3, 0, -3, -11, -21
1503955703292,+0.795,+0.433,+0.255,+0.341,+0.895,-0.091,-0.444,+6.438,+4.750,-6.875,5, 4, -7, -7, -1, 1, 5, -3
1503955703307,+0.795,+0.432,+0.256,+0.340,+0.910,-0.091,-0.458,+2.812,-3.438,+9.312,14, -3, -2, 1, 0, -3, -9, -6
1503955703330,+0.798,+0.429,+0.257,+0.337,+0.862,-0.074,-0.488,-0.938,-13.750,+24.688,-14, 2, -4, 1, 1, 2, 2, -9
1503955703352,+0.801,+0.425,+0.257,+0.334,+0.840,-0.109,-0.462,-4.750,-15.562,+31.125,4, 1, -5, -1, 1, 3, 0, 5
1503955703367,+0.804,+0.423,+0.258,+0.330,+0.874,-0.131,-0.447,-6.688,-12.562,+28.500,-1, -1, 3, 2, 2, -1, 0, -6
1503955703390,+0.805,+0.421,+0.259,+0.327,+0.897,-0.148,-0.432,-6.688,-9.625,+21.000,6, -1, -8, -6, 0, -3, -6, 1
1503955703414,+0.807,+0.420,+0.259,+0.326,+0.894,-0.173,-0.440,-6.625,-8.812,+10.000,-7, -2, 2, -1, 1, 0, 1, -5
1503955703427,+0.806,+0.421,+0.258,+0.326,+0.885,-0.148,-0.449,-5.375,-1.375,-4.312,-6, -5, -7, -5, -6, -5, 9, -7
1503955703451,+0.806,+0.422,+0.256,+0.327,+0.896,-0.133,-0.433,-7.250,+2.375,-13.875,4, 1, 2, -1, -2, 8, 5, 10
1503955703472,+0.804,+0.424,+0.255,+0.329,+0.897,-0.115,-0.421,-5.750,+1.938,-18.750,-7, 3, 4, 0, 4, 4, -5, -8
1503955703487,+0.803,+0.426,+0.252,+0.331,+0.891,-0.121,-0.458,-7.750,+1.250,-20.000,14, -3, -9, -5, 3, -1, -1, 8
1503955703510,+0.803,+0.427,+0.251,+0.333,+0.895,-0.099,-0.487,-7.125,+2.750,-11.312,4, -2, 5, 5, -2, -3, 3, -19
1503955703532,+0.803,+0.428,+0.250,+0.333,+0.869,-0.086,-0.508,-6.500,+4.000,-1.500,0, -1, 8, 0, -1, 3, 8, 2
1503955703559,+0.803,+0.428,+0.250,+0.332,+0.881,-0.110,-0.490,-4.438,+2.375,+5.438,-4, 0, 6, 9, 3, -3, -7, -6
1503955703570,+0.804,+0.427,+0.250,+0.329,+0.881,-0.146,-0.461,-4.438,-0.438,+12.938,6, 8, -9, -4, -3, -2, 1, 8
1503955703592,+0.805,+0.427,+0.251,+0.327,+0.888,-0.169,-0.422,-7.750,-3.250,+16.688,-21, 9, 3, -3, -4, -4, -11, -15
1503955703607,+0.806,+0.427,+0.252,+0.324,+0.902,-0.175,-0.416,-10.750,+2.062,+13.500,4, -1, 11, 3, 2, 0, -7, 5
1503955703630,+0.806,+0.429,+0.252,+0.321,+0.886,-0.157,-0.434,-10.688,+12.312,+9.875,17, 0, 5, 5, 3, 1, -8, 7
1503955703652,+0.805,+0.431,+0.253,+0.318,+0.894,-0.146,-0.416,-8.562,+12.375,+9.750,3, 10, 11, 4, 0, 3, 4, -3
1503955703667,+0.805,+0.434,+0.254,+0.315,+0.917,-0.164,-0.387,-8.250,+14.062,+9.875,-6, 1, -8, -6, -2, -1, 0, -12
1503955711856,+0.746,+0.495,+0.285,+0.342,+0.900,-0.051,-0.317,-11.812,-5.812,-6.250,4, 3, -1, -2, 2, 0, 4, 1
1503955711879,+0.746,+0.496,+0.284,+0.341,+0.952,-0.081,-0.314,-7.312,+8.625,+0.375,-8, 0, 1, 1, 1, 1, -6, -5
1503955711894,+0.746,+0.497,+0.285,+0.340,+0.994,-0.110,-0.314,-6.250,+7.938,+3.500,12, -1, -4, -12, -16, -8, -11, -6
1503955711916,+0.746,+0.497,+0.284,+0.339,+0.951,-0.095,-0.320,-7.438,-0.125,+2.938,-8, 0, -1, -2, 1, 2, -1, 5
1503955711935,+0.748,+0.496,+0.283,+0.339,+0.920,-0.087,-0.316,-6.625,-7.250,+2.188,-9, -2, -1, -1, -1, -1, -7, -1
1503955711954,+0.749,+0.495,+0.283,+0.338,+0.919,-0.094,-0.310,-7.375,-4.750,+4.500,-6, -5, -5, 4, 2, -3, -7, 14
1503955711977,+0.750,+0.495,+0.282,+0.336,+0.919,-0.093,-0.301,-9.438,-1.812,+6.125,1, -1, -2, 2, 1, -2, 1, -1
1503955711992,+0.750,+0.495,+0.281,+0.335,+0.935,-0.077,-0.294,-10.250,-0.812,+5.312,-9, 0, -3, -3, -4, 0, 0, -2
1503955712016,+0.751,+0.496,+0.280,+0.334,+0.936,-0.068,-0.296,-7.938,+1.938,+2.562,-14, -5, 0, 0, 0, 1, -1, -14
1503955712036,+0.751,+0.496,+0.280,+0.334,+0.941,-0.088,-0.298,-5.750,-1.125,-0.500,-7, 6, 5, 4, 0, 7, -2, -10
1503955712052,+0.751,+0.496,+0.279,+0.334,+0.944,-0.099,-0.306,-5.500,-5.438,-3.125,17, 2, 1, -1, -1, -2, 8, 25
1503955712075,+0.752,+0.496,+0.277,+0.335,+0.935,-0.082,-0.304,-6.812,-5.500,-5.312,-6, 0, -3, -5, -3, -4, 7, 13
1503955712096,+0.752,+0.496,+0.276,+0.335,+0.926,-0.059,-0.305,-6.375,-4.062,-1.875,-5, -6, -8, -1, 15, -12, 0, -8
1503955712118,+0.752,+0.496,+0.275,+0.334,+0.920,-0.063,-0.318,-6.938,+2.750,-1.000,18, 7, 7, 2, -4, -2, 0, -1
1503955712134,+0.753,+0.497,+0.274,+0.334,+0.967,-0.070,-0.322,-7.438,-1.125,-1.188,5, 6, 0, 0, -4, -1, -12, 4
1503955712156,+0.753,+0.496,+0.273,+0.335,+0.978,-0.048,-0.321,-5.625,-9.812,-0.812,-8, -5, 1, 2, 0, 2, 1, 13
1503955712179,+0.755,+0.494,+0.271,+0.335,+0.954,-0.057,-0.314,-4.875,-15.500,-0.688,21, 0, 1, 3, 0, 10, -2, 13
1503955712196,+0.756,+0.492,+0.270,+0.335,+0.924,-0.063,-0.345,-5.375,-11.562,+4.062,22, 4, -2, -2, -4, -3, 1, -4
1503955712217,+0.758,+0.491,+0.270,+0.334,+0.928,-0.073,-0.339,-3.062,-9.438,+10.625,-23, 0, -2, 2, 12, -2, -11, -10
1503955712239,+0.759,+0.491,+0.271,+0.333,+0.938,-0.050,-0.293,-3.438,-1.688,+12.000,-3, -5, -6, -8, -10, -8, 12, 14
1503955712254,+0.759,+0.490,+0.271,+0.332,+0.926,-0.027,-0.331,-2.875,-3.250,+11.312,-23, -7, 0, -3, -4, -1, 0, -16
1503955712277,+0.761,+0.488,+0.270,+0.330,+0.904,-0.043,-0.358,-3.438,-11.438,+14.312,10, -2, -5, -3, -2, 1, 9, 2
1503955712298,+0.764,+0.485,+0.270,+0.329,+0.913,-0.084,-0.362,-2.625,-14.562,+15.250,-1, -2, -2, 1, -2, -2, 4, 9
1503955712314,+0.765,+0.484,+0.272,+0.328,+0.901,-0.117,-0.354,+0.562,-1.188,+11.500,8, -7, -7, -3, -2, 3, 19, 23
1503955712336,+0.764,+0.485,+0.274,+0.326,+0.913,-0.159,-0.285,+0.500,+8.938,+5.500,8, 0, 2, 0, 1, -2, -19, 19
1503955712358,+0.763,+0.487,+0.274,+0.326,+0.967,-0.180,-0.232,-4.750,+10.375,-7.062,36, -1, -7, -5, -2, -6, -2, 1
1503955712376,+0.760,+0.490,+0.274,+0.326,+0.991,-0.155,-0.257,-6.562,+10.875,-17.750,-36, 2, -1, -2, -2, -2, 0, -39
1503955712397,+0.759,+0.492,+0.272,+0.328,+0.964,-0.093,-0.313,-3.938,+8.938,-18.438,-4, -6, 0, -2, -2, 1, 7, 25
1503955712419,+0.757,+0.494,+0.271,+0.331,+0.896,-0.025,-0.318,+0.438,+3.438,-17.875,4, 6, 1, -4, -3, 0, 21, 2
1503955712435,+0.756,+0.495,+0.269,+0.334,+0.876,-0.035,-0.282,-0.438,+2.688,-23.875,15, 2, -4, 0, 0, -1, -2, -11
1503955712457,+0.754,+0.498,+0.267,+0.336,+0.950,-0.061,-0.295,-5.688,+7.000,-21.500,-11, -3, -3, -2, -4, -4, 2, -1
1503955712479,+0.753,+0.498,+0.266,+0.336,+0.992,-0.047,-0.345,-6.000,+2.875,-5.312,11, 1, 2, 2, 2, 3, 3, 10
1503955712495,+0.755,+0.497,+0.265,+0.336,+0.991,-0.022,-0.338,-5.562,-9.562,+4.375,-14, -5, 2, 1, 0, 1, -8, -3
1503955712517,+0.756,+0.496,+0.264,+0.336,+0.964,-0.042,-0.323,-2.812,-14.375,+6.000,-15, -3, -2, -2, -4, 1, 10, -12
1503955712538,+0.758,+0.493,+0.264,+0.336,+0.955,-0.076,-0.339,+0.250,-13.875,+10.438,24, 3, -4, -1, 12, 0, -3, -1
1503955712555,+0.760,+0.491,+0.265,+0.334,+0.933,-0.099,-0.321,-2.125,-12.312,+16.312,34, 8, 1, 0, -3, -2, -1, 8
1503955712578,+0.762,+0.489,+0.266,+0.331,+0.942,-0.080,-0.319,-2.688,-11.812,+20.125,-12, -2, 1, 0, -3, 2, 1, -1
1503955712598,+0.764,+0.486,+0.267,+0.330,+0.962,-0.068,-0.348,-1.312,-12.500,+20.125,-2, -3, -2, -1, -4, -2, -2, 3
1503955712617,+0.766,+0.483,+0.268,+0.328,+0.954,-0.071,-0.377,+3.188,-15.875,+19.625,-9, -3, -3, -1, -4, 1, -4, 10
1503955712638,+0.768,+0.479,+0.269,+0.328,+0.912,-0.102,-0.385,+8.125,-18.000,+13.875,3, 6, 0, -2, -3, 0, 8, 0
1503955712658,+0.769,+0.476,+0.271,+0.329,+0.891,-0.137,-0.344,+9.375,-12.000,+6.500,8, 3, 3, 3, -1, -1, -2, 9
1503955712674,+0.768,+0.476,+0.273,+0.329,+0.872,-0.149,-0.306,+9.250,+5.250,-2.750,-7, -5, 2, 1, -1, 2, -7, -8
1503955717901,+0.833,+0.458,+0.207,+0.232,+0.868,-0.135,-0.426,-7.750,-18.500,+0.375,-3, 0, -11, -3, 6, 6, 1, -6
1503955717925,+0.833,+0.458,+0.206,+0.232,+0.851,-0.105,-0.452,-8.938,-0.500,+1.688,0, 1, -2, -6, 11, 1, 3, 0
1503955717939,+0.833,+0.458,+0.205,+0.230,+0.879,-0.090,-0.496,-6.375,+4.938,+6.250,-2, -2, -5, -23, -36, -1, -3, 2
1503955717962,+0.834,+0.458,+0.205,+0.230,+0.936,-0.113,-0.479,-1.188,-4.250,+4.625,5, 5, 4, 2, 5, -3, -8, -1
1503955717977,+0.835,+0.456,+0.205,+0.230,+0.919,-0.147,-0.453,+0.125,-11.312,+1.312,-1, -1, 0, 3, 19, 5, 2, -2
1503955717999,+0.835,+0.455,+0.205,+0.231,+0.851,-0.142,-0.458,-1.125,-10.500,-2.062,11, -1, -2, 9, 11, 2, -3, 8
1503955718022,+0.835,+0.455,+0.205,+0.232,+0.847,-0.121,-0.452,+0.375,-0.375,-3.188,4, 0, -2, -7, -7, -9, -4, 1
1503955718037,+0.834,+0.456,+0.206,+0.231,+0.886,-0.122,-0.456,+1.750,+9.625,+1.188,-12, -3, -5, -6, -10, -3, 3, -1
1503955718059,+0.833,+0.457,+0.207,+0.231,+0.916,-0.125,-0.479,+3.312,+11.438,+2.688,-2, -2, -1, -1, 4, 10, 9, 4
1503955718083,+0.833,+0.458,+0.208,+0.231,+0.913,-0.114,-0.466,+5.562,+4.688,+2.250,24, 4, -1, 0, -4, -5, 2, 7
1503955718097,+0.833,+0.457,+0.209,+0.232,+0.897,-0.119,-0.458,+7.312,-3.125,+1.938,3, 0, -2, -4, -1, 0, -5, -18
1503955718121,+0.833,+0.456,+0.211,+0.232,+0.872,-0.122,-0.472,+9.875,-0.125,+3.625,7, 5, 1, -3, -1, -2, -6, -20
1503955718141,+0.832,+0.456,+0.213,+0.232,+0.858,-0.122,-0.477,+10.125,+5.562,+7.625,22, -14, -3, 1, -2, -2, -3, 19
1503955718157,+0.832,+0.456,+0.215,+0.231,+0.855,-0.131,-0.479,+8.938,+6.312,+12.812,-30, 8, 0, -2, -3, -3, 2, -15
1503955718180,+0.833,+0.454,+0.218,+0.230,+0.899,-0.127,-0.477,+10.312,-4.625,+18.188,-25, 0, 0, 0, 3, 5, 8, -24
1503955718201,+0.835,+0.450,+0.221,+0.229,+0.896,-0.139,-0.488,+15.000,-19.062,+21.688,42, 8, 1, 3, 4, 1, 2, 21
1503955718224,+0.837,+0.445,+0.224,+0.229,+0.825,-0.169,-0.456,+18.312,-23.938,+18.938,-11, -1, -1, -2, 0, -5, -12, -47
1503955718240,+0.838,+0.441,+0.226,+0.229,+0.802,-0.164,-0.400,+14.312,-16.812,+12.312,-18, -7, 0, -1, -4, -1, -9, -12
1503955718262,+0.837,+0.441,+0.229,+0.229,+0.823,-0.167,-0.410,+13.188,-0.812,+5.500,-4, -5, -4, -3, -4, -5, -30, -5
1503955718286,+0.836,+0.440,+0.232,+0.229,+0.837,-0.161,-0.484,+15.500,+5.062,+4.562,1, 1, 1, 0, -2, -3, 4, 14
1503955718299,+0.836,+0.440,+0.234,+0.231,+0.835,-0.156,-0.494,+15.625,+2.000,+1.750,46, 7, -1, -1, 0, -3, -5, 0
1503955718322,+0.835,+0.439,+0.235,+0.232,+0.866,-0.167,-0.425,+11.562,-1.625,-3.000,6, -4, -7, -3, 0, 0, 1, 3
1503955718337,+0.834,+0.441,+0.236,+0.233,+0.868,-0.166,-0.391,+5.188,+9.812,-7.875,17, 11, 0, 1, 1, -3, -8, -8
1503955718360,+0.831,+0.445,+0.236,+0.235,+0.820,-0.121,-0.419,+3.250,+19.688,-13.625,-22, -1, 0, 2, 1, 2, 7, 15
1503955718382,+0.829,+0.448,+0.235,+0.238,+0.824,-0.125,-0.450,+2.375,+18.188,-20.438,-20, -7, 1, -1, -1, 3, 10, -16
1503955718403,+0.827,+0.451,+0.234,+0.241,+0.885,-0.131,-0.428,+0.062,+15.562,-23.438,-13, 4, -4, 3, -1, -1, -3, -13
1503955718420,+0.824,+0.455,+0.232,+0.244,+0.919,-0.175,-0.433,-2.125,+17.125,-28.812,-4, -7, -2, -3, -3, -2, 5, 0
1503955718441,+0.821,+0.459,+0.231,+0.249,+0.811,-0.178,-0.394,-1.062,+22.062,-38.938,-23, -9, -6, -3, 0, 0, -2, -13
1503955718463,+0.817,+0.465,+0.228,+0.253,+0.810,-0.175,-0.329,-8.188,+23.125,-46.688,-6, -8, -8, -3, -2, -3, 0, -6
1503955718479,+0.812,+0.473,+0.224,+0.257,+0.877,-0.112,-0.358,-14.750,+40.375,-44.375,1, 3, -1, 0, 0, 1, 4, -13
1503955718501,+0.807,+0.482,+0.222,+0.257,+0.928,-0.111,-0.455,-16.250,+55.812,-25.750,9, 6, 1, -3, -1, -2, -2, -4
1503955718527,+0.805,+0.486,+0.221,+0.258,+1.045,-0.080,-0.481,-5.250,+25.375,-11.688,34, 3, 1, -5, -3, -5, -4, -14
1503955718539,+0.807,+0.482,+0.221,+0.260,+1.071,-0.106,-0.423,+5.312,-29.562,-1.750,-29, -6, 0, 3, 0, 1, 8, 27
1503955718562,+0.811,+0.476,+0.220,+0.261,+0.986,-0.169,-0.371,+1.375,-47.312,+4.500,-22, 5, -4, 1, -1, -2, -3, -29
1503955718583,+0.814,+0.471,+0.220,+0.260,+0.851,-0.120,-0.408,-1.938,-31.562,+16.188,-10, -9, -3, -3, 0, -3, -3, -10
1503955718599,+0.816,+0.467,+0.222,+0.257,+0.854,-0.109,-0.451,+1.312,-13.688,+24.125,5, 2, 0, 0, 0, -1, 2, 2
1503955718622,+0.818,+0.464,+0.224,+0.255,+0.911,-0.145,-0.435,+6.812,-10.875,+20.438,-14, -9, -1, -1, 0, 3, 9, 9
1503955726751,+0.800,+0.489,+0.200,+0.283,+0.989,-0.075,-0.349,+8.625,+2.875,+1.312,-2, -2, -3, -1, 1, -1, 0, -1
1503955726765,+0.800,+0.489,+0.201,+0.284,+0.999,-0.064,-0.329,+2.188,-9.812,+0.312,-4, -1, -2, -1, -2, 3, -4, -3
1503955726796,+0.801,+0.488,+0.200,+0.284,+0.954,-0.062,-0.348,-4.062,-12.625,-0.062,-3, 0, -2, 2, -3, -3, -2, -4
1503955726811,+0.802,+0.486,+0.199,+0.284,+0.908,-0.067,-0.351,-9.312,-16.625,-3.875,-3, -1, 3, -3, -4, -2, -5, 3
1503955726825,+0.803,+0.485,+0.196,+0.285,+0.901,-0.039,-0.378,-10.688,-13.562,-10.750,-3, -3, 2, 4, -1, -2, -7, 3
1503955726848,+0.804,+0.485,+0.193,+0.286,+0.884,-0.021,-0.394,-11.375,-10.062,-11.062,-5, -1, 1, 4, 2, 1, 2, -8
1503955726864,+0.804,+0.484,+0.190,+0.287,+0.855,+0.009,-0.409,-11.500,-9.938,-10.250,-5, 1, -1, -4, -3, 1, -6, -5
1503955726887,+0.804,+0.485,+0.187,+0.288,+0.897,+0.023,-0.429,-12.188,-1.438,-7.250,-2, -2, -2, -1, -3, -1, 0, 1
1503955726908,+0.804,+0.486,+0.186,+0.287,+0.904,+0.006,-0.434,-10.562,+5.062,+1.125,-3, -1, 0, -2, 1, -1, -4, -14
1503955726925,+0.805,+0.486,+0.185,+0.286,+0.922,+0.000,-0.439,-7.625,+3.500,+5.750,3, -3, -5, -14, -10, -6, -7, 3
1503955726947,+0.805,+0.486,+0.185,+0.284,+0.931,-0.005,-0.457,-4.625,+1.750,+6.562,-8, -2, -3, -4, -1, -2, 6, -8
1503955726968,+0.805,+0.486,+0.186,+0.284,+0.902,-0.002,-0.451,-1.188,+0.625,+6.938,-2, 2, -1, 2, 4, 3, 7, 1
1503955726984,+0.806,+0.486,+0.186,+0.283,+0.882,-0.003,-0.421,-2.062,+1.625,+9.188,3, 6, 7, 7, 3, 1, -4, 1
1503955727005,+0.806,+0.487,+0.187,+0.281,+0.899,-0.013,-0.413,-3.688,+8.000,+10.125,-9, -2, -2, 2, -2, -1, -4, -7
1503955727028,+0.805,+0.488,+0.188,+0.279,+0.922,-0.027,-0.421,-4.188,+11.312,+11.188,-1, -1, -2, -3, -2, -2, 1, -2
1503955727045,+0.806,+0.488,+0.189,+0.277,+0.949,-0.017,-0.416,-1.188,+2.750,+10.250,-6, -2, -1, 1, 4, -9, -14, -21
1503955727065,+0.806,+0.487,+0.190,+0.277,+0.932,-0.015,-0.400,+2.250,-3.562,+7.625,1, -2, -1, -11, -11, -4, -3, -1
1503955727088,+0.806,+0.487,+0.190,+0.276,+0.881,-0.034,-0.380,+0.312,-3.000,+3.688,-2, 0, -2, 0, -3, 1, 8, -7
1503955727103,+0.806,+0.487,+0.190,+0.276,+0.873,-0.045,-0.386,-3.312,+3.562,+3.125,0, -2, -5, -7, -16, 0, -4, -2
1503955727125,+0.806,+0.489,+0.191,+0.275,+0.923,-0.037,-0.396,-5.000,+9.875,+3.438,8, -3, -1, -4, 1, 1, -3, 4
1503955727148,+0.805,+0.490,+0.191,+0.273,+0.958,-0.037,-0.411,-2.688,+5.250,+5.938,-4, 3, 0, 4, 1, 1, 2, 3
1503955727164,+0.806,+0.489,+0.192,+0.273,+0.931,-0.042,-0.405,-0.562,-5.875,+8.750,-1, 1, 3, -1, 0, 10, 7, 3
1503955727187,+0.808,+0.487,+0.192,+0.271,+0.898,-0.058,-0.396,-1.188,-10.000,+10.688,11, -3, -8, -5, -3, -4, -1, 1
1503955727208,+0.809,+0.485,+0.193,+0.269,+0.866,-0.063,-0.420,-2.125,-11.062,+15.812,1, 1, 2, -2, -5, 2, -5, 1
1503955727223,+0.811,+0.483,+0.194,+0.268,+0.853,-0.065,-0.435,-0.688,-6.812,+15.500,-3, -2, -2, -3, -2, 0, 4, -2
1503955727246,+0.812,+0.481,+0.195,+0.266,+0.861,-0.077,-0.426,+0.125,-4.625,+11.750,-4, 2, 3, 1, 1, 1, -1, 1
1503955734251,+0.701,+0.486,+0.293,+0.432,+0.956,+0.003,-0.316,-11.938,-1.062,+8.312,7, -1, -4, -4, -4, 2, 0, -4
1503955734273,+0.703,+0.485,+0.292,+0.430,+0.953,+0.004,-0.316,-13.000,-5.312,+10.062,-1, 1, -3, -16, -12, 2, 2, -3
1503955734288,+0.705,+0.485,+0.291,+0.428,+0.930,-0.005,-0.305,-13.062,-8.875,+9.000,-2, -5, -1, 7, 5, 2, 4, 1
1503955734311,+0.707,+0.484,+0.290,+0.427,+0.936,-0.014,-0.310,-12.938,-7.312,+6.750,-14, -3, -3, -5, -3, -3, 6, 0
1503955734333,+0.708,+0.484,+0.289,+0.426,+0.946,-0.014,-0.299,-11.562,-6.188,+3.000,2, 0, 0, 4, 3, -1, 0, -5
1503955734355,+0.709,+0.484,+0.288,+0.425,+0.941,-0.011,-0.314,-10.062,-5.688,+0.625,3, 2, -1, 0, 0, 2, 1, 0
1503955734372,+0.710,+0.483,+0.286,+0.425,+0.921,-0.004,-0.333,-7.438,-5.375,-1.062,-16, -3, 0, 1, 1, -1, -1, 1
1503955734393,+0.710,+0.483,+0.286,+0.425,+0.920,+0.010,-0.334,-5.000,-1.875,-2.188,5, 0, -1, -4, -2, 2, 3, 2
1503955734415,+0.710,+0.483,+0.285,+0.425,+0.940,+0.025,-0.330,-4.438,-1.625,-1.125,-1, -3, 2, 7, 10, 4, -2, -1
1503955734431,+0.710,+0.483,+0.284,+0.425,+0.937,+0.029,-0.324,-5.500,-2.250,+0.438,-14, -7, -2, -7, -6, 1, -1, 0
1503955734453,+0.711,+0.483,+0.283,+0.425,+0.931,+0.034,-0.329,-5.062,-3.625,+3.188,0, 1, 4, -5, -3, 0, 0, 0
1503955734475,+0.712,+0.483,+0.283,+0.424,+0.950,+0.033,-0.321,-5.812,-3.438,+2.688,9, -3, -8, -7, -24, 2, 3, 4
1503955734491,+0.712,+0.483,+0.282,+0.424,+0.932,+0.029,-0.322,-6.375,-1.250,+3.375,-9, -6, -9, -8, 0, -4, -4, -3
1503955734514,+0.713,+0.483,+0.282,+0.423,+0.934,+0.025,-0.339,-6.875,-0.438,+6.250,-5, 2, -2, -2, -3, 0, 2, -1
1503955734537,+0.714,+0.483,+0.281,+0.421,+0.947,+0.018,-0.333,-7.625,+0.250,+8.375,7, -1, -3, 2, 1, -1, 1, -1
1503955734552,+0.715,+0.483,+0.281,+0.420,+0.974,+0.004,-0.313,-8.000,-3.438,+9.750,11, 4, 2, 1, -5, 0, -1, -3
1503955734574,+0.717,+0.482,+0.281,+0.418,+0.978,+0.000,-0.311,-10.062,-6.500,+14.312,-9, -3, 0, 3, 0, 1, 3, -1
1503955734595,+0.719,+0.482,+0.281,+0.416,+0.949,+0.001,-0.328,-9.812,-7.375,+14.250,3, -2, 2, 5, 4, 3, 1, -1
1503955734611,+0.720,+0.481,+0.281,+0.413,+0.938,-0.003,-0.335,-10.688,-4.250,+13.750,-2, 2, 2, 8, 2, -1, -5, 0
1503955734633,+0.721,+0.481,+0.281,+0.411,+0.945,-0.001,-0.322,-8.750,+3.000,+11.562,0, 4, 1, 4, 3, 0, 8, 1
1503955734655,+0.722,+0.482,+0.281,+0.409,+0.957,-0.014,-0.324,-7.875,+2.688,+14.562,5, 3, 0, -5, -6, -4, -2, 8
1503955734671,+0.724,+0.481,+0.282,+0.406,+0.956,-0.013,-0.333,-8.938,+0.375,+19.812,-1, -2, -4, -4, -3, 0, -1, 8
1503955734693,+0.726,+0.481,+0.283,+0.402,+0.953,-0.024,-0.332,-9.062,+0.562,+22.375,-7, -2, 1, -1, 1, -4, -11, -7
1503955734715,+0.728,+0.480,+0.284,+0.399,+0.942,-0.033,-0.333,-7.062,-0.938,+22.562,-15, 3, 6, 9, 5, 2, 4, 1
1503955734733,+0.729,+0.479,+0.285,+0.396,+0.938,-0.033,-0.326,-7.000,+0.062,+21.062,2, 2, 4, 9, 14, -1, -3, -2
1503955734753,+0.730,+0.479,+0.287,+0.394,+0.926,-0.035,-0.329,-3.625,+3.312,+17.188,7, 2, 4, 6, 2, 9, 5, 4
1503955734776,+0.731,+0.478,+0.287,+0.392,+0.938,-0.042,-0.317,-1.125,-0.938,+10.750,6, 6, 0, -2, -5, -2, -5, -11
1503955734791,+0.731,+0.478,+0.288,+0.392,+0.935,-0.053,-0.306,-0.562,-1.812,+2.500,13, 4, 0, -4, -2, -2, -1, 9
1503955734813,+0.730,+0.479,+0.288,+0.393,+0.910,-0.056,-0.307,+1.312,+3.812,-6.375,-1, -6, -1, -1, 0, -6, 3, 2
1503955734837,+0.729,+0.480,+0.288,+0.395,+0.927,-0.050,-0.305,+1.500,+5.625,-15.500,-4, 2, 0, 0, -4, 6, -3, 3
1503955734851,+0.726,+0.482,+0.288,+0.397,+0.943,-0.035,-0.301,+4.562,+10.500,-21.875,-12, -2, -2, -1, -1, -9, -6, 2
1503955734874,+0.723,+0.484,+0.287,+0.400,+0.928,-0.020,-0.313,+6.312,+11.688,-24.062,-16, -8, -1, -1, 0, 1, -12, -10
1503955734896,+0.719,+0.487,+0.287,+0.404,+0.921,-0.003,-0.313,+6.875,+15.688,-26.062,-3, 2, -1, 2, 3, 0, 1, 4
1503955734911,+0.716,+0.489,+0.287,+0.406,+0.941,-0.010,-0.287,+4.938,+12.188,-24.125,12, 6, -4, -4, -5, -7, -7, -15
1503955734936,+0.714,+0.491,+0.287,+0.409,+0.966,+0.000,-0.295,+3.750,+11.125,-18.688,-4, 4, 1, 1, -3, 0, -24, -14
1503955734955,+0.712,+0.492,+0.286,+0.410,+0.964,+0.003,-0.293,+2.125,+3.750,-11.500,4, 1, -1, -2, -2, 0, -4, -1
1503955743318,+0.752,+0.468,+0.301,+0.352,+0.904,-0.078,-0.389,+7.812,-2.625,+33.500,8, 2, 0, -1, 0, -2, 1, -5
1503955743339,+0.753,+0.467,+0.305,+0.348,+0.850,-0.119,-0.354,+5.875,+7.500,+32.500,-15, -3, -5, -2, -2, 1, -6, -5
1503955743363,+0.754,+0.466,+0.309,+0.345,+0.858,-0.148,-0.335,+6.375,+10.500,+25.688,7, -1, -4, -3, 1, -1, 2, 11
1503955743378,+0.754,+0.466,+0.312,+0.343,+0.937,-0.154,-0.316,+7.812,+11.875,+18.500,3, 0, 2, 23, 1, -2, 4, 1
1503955743400,+0.753,+0.466,+0.314,+0.342,+0.938,-0.132,-0.303,+6.062,+3.625,+11.562,6, -1, -3, 1, 4, 20, 8, -3
1503955743422,+0.753,+0.465,+0.315,+0.342,+0.865,-0.119,-0.320,+6.250,+0.000,+6.125,5, 3, -1, -4, -4, -2, 6, 2
1503955743445,+0.753,+0.465,+0.316,+0.343,+0.830,-0.097,-0.333,+6.938,+4.562,+0.250,0, -1, 0, 6, -2, -8, -8, -1
1503955743460,+0.751,+0.466,+0.316,+0.344,+0.865,-0.059,-0.328,+6.562,+9.938,-3.188,-1, -2, -1, -10, -2, -3, -3, 1
1503955743476,+0.750,+0.466,+0.316,+0.345,+0.892,-0.032,-0.318,+4.875,+4.875,-2.250,-9, -1, -1, -7, -2, -9, -15, 8
1503955743498,+0.750,+0.466,+0.316,+0.347,+0.870,-0.041,-0.323,+2.562,-2.562,-2.188,-7, 0, -1, -3, 0, -1, 2, 0
1503955743519,+0.750,+0.466,+0.314,+0.348,+0.830,-0.061,-0.322,+0.625,-3.625,-6.250,-5, -8, -6, -5, -5, -6, -1, -14
1503955743536,+0.749,+0.467,+0.313,+0.350,+0.808,-0.081,-0.302,-0.688,+6.688,-11.062,-20, 5, 1, -1, -1, -2, -6, -24
1503955743562,+0.747,+0.470,+0.312,+0.352,+0.839,-0.073,-0.299,-1.875,+13.250,-18.938,5, -9, -5, -6, -1, 0, 4, 4
1503955743579,+0.744,+0.473,+0.310,+0.355,+0.904,-0.090,-0.264,-4.250,+5.438,-30.875,16, 3, 0, 1, 0, 2, -4, 40
1503955743604,+0.742,+0.475,+0.306,+0.359,+0.929,-0.139,-0.278,-6.500,-2.312,-34.875,-6, -8, -3, -4, -2, -5, -7, -39
1503955743617,+0.741,+0.476,+0.303,+0.363,+0.864,-0.155,-0.263,-8.312,-4.500,-34.250,17, -3, -2, -5, -1, -1, 23, 14
1503955743640,+0.739,+0.479,+0.300,+0.367,+0.909,-0.155,-0.244,-7.812,-4.188,-40.812,-14, 3, 3, -1, -1, 3, 13, 13
1503955743663,+0.737,+0.480,+0.296,+0.372,+1.044,-0.146,-0.257,-6.312,-8.250,-41.438,-9, -3, 1, 1, 0, 2, -3, -12
1503955743678,+0.738,+0.479,+0.292,+0.376,+1.093,-0.152,-0.303,-10.500,-27.688,-30.562,26, 9, 1, 0, 0, 0, -1, -18
1503955743701,+0.740,+0.477,+0.288,+0.378,+1.016,-0.119,-0.329,-12.500,-31.938,-17.062,-10, -2, -2, 0, 1, 0, 1, -4
1503955743723,+0.741,+0.475,+0.284,+0.380,+0.965,-0.078,-0.338,-8.250,-24.625,-12.625,7, 2, -2, -3, 0, 0, 0, -6
1503955743738,+0.742,+0.473,+0.283,+0.381,+1.046,-0.101,-0.347,-3.438,-16.500,-1.312,-5, 1, 4, 1, -1, 2, 7, -6
1503955752129,+0.783,+0.485,+0.239,+0.307,+0.917,-0.084,-0.332,+2.312,+13.688,-8.188,2, 0, 1, 0, 1, -2, -4, -6
1503955752144,+0.781,+0.489,+0.240,+0.307,+0.995,-0.032,-0.332,-3.188,+20.250,-2.188,0, -2, -4, 3, 8, 1, 4, 2
1503955752167,+0.780,+0.491,+0.239,+0.306,+1.023,-0.053,-0.346,-3.188,+8.875,-3.062,-1, -3, 1, 11, 1, -2, -7, -1
1503955752181,+0.780,+0.490,+0.239,+0.308,+1.004,-0.056,-0.365,-1.375,-8.000,-5.250,-5, 2, 6, -6, -6, 0, 1, 2
1503955752204,+0.780,+0.489,+0.237,+0.309,+0.959,-0.062,-0.357,+0.625,-13.938,-7.312,-4, -1, 0, -2, -2, 0, 1, 1
1503955752230,+0.780,+0.489,+0.236,+0.311,+0.905,-0.077,-0.341,-2.312,-5.250,-10.500,-3, -1, -1, 3, 12, 3, 5, -4
1503955752241,+0.779,+0.490,+0.235,+0.311,+0.927,-0.075,-0.338,-9.312,+5.875,-9.688,0, -6, -10, -9, -3, -4, -4, -3
1503955752264,+0.779,+0.492,+0.234,+0.311,+0.972,-0.055,-0.344,-11.250,+6.000,-4.625,-4, -5, -4, -4, 0, 0, -2, -5
1503955752288,+0.778,+0.494,+0.233,+0.310,+0.987,-0.053,-0.356,-11.188,+4.000,-4.062,7, 5, 1, 1, -3, -2, -1, 2
1503955752301,+0.779,+0.493,+0.231,+0.310,+0.976,-0.053,-0.333,-11.188,-10.875,-4.000,13, 3, -1, -8, -6, -2, 0, 0
1503955752327,+0.781,+0.492,+0.228,+0.310,+0.962,-0.048,-0.330,-14.125,-17.438,+0.812,4, 5, -2, 3, 0, -2, -4, 4
1503955752346,+0.783,+0.491,+0.226,+0.308,+0.923,-0.029,-0.393,-15.688,-12.750,+4.750,8, 2, -3, -15, -10, -2, -6, -3
1503955752369,+0.785,+0.489,+0.224,+0.308,+0.887,-0.024,-0.417,-11.125,-16.188,+4.562,-4, -4, 2, 18, 23, 7, 9, 1
1503955752384,+0.788,+0.485,+0.221,+0.308,+0.901,-0.058,-0.398,-8.000,-25.250,+1.312,-10, -6, -5, -9, -12, -2, 1, 1
1503955752407,+0.790,+0.482,+0.219,+0.309,+0.914,-0.075,-0.389,-8.250,-27.875,-2.688,0, -4, 1, 5, 9, 3, 4, 3
1503955752430,+0.792,+0.480,+0.217,+0.309,+0.856,-0.066,-0.366,-10.250,-20.312,-3.938,-2, -4, -4, 0, 1, 4, 2, 2
1503955752444,+0.793,+0.478,+0.214,+0.310,+0.839,-0.049,-0.395,-11.500,-13.062,-4.312,-2, -1, 0, 11, 9, 2, 4, 0
1503955752467,+0.793,+0.479,+0.212,+0.310,+0.903,-0.008,-0.441,-9.500,-1.000,-6.625,-4, -3, -2, -7, -9, 0, -3, -3
1503955752490,+0.793,+0.479,+0.211,+0.311,+0.928,+0.005,-0.442,-3.375,+3.125,-2.875,0, -2, 4, 1, 1, -2, 5, 4
1503955752504,+0.794,+0.478,+0.211,+0.312,+0.902,-0.020,-0.421,-0.125,-7.812,-3.062,-2, 0, 2, 16, 22, 3, -2, -2
1503955752532,+0.794,+0.477,+0.209,+0.313,+0.870,-0.041,-0.393,-4.625,-7.625,-8.250,7, -1, -4, -16, -16, -2, -4, -1
1503955752542,+0.794,+0.478,+0.208,+0.313,+0.885,-0.035,-0.383,-5.125,+1.062,-7.000,-9, -6, -7, -20, -10, -4, 2, 7
1503955759976,+0.802,+0.471,+0.204,+0.305,+0.904,-0.034,-0.434,-6.375,-13.250,-7.125,1, 3, 2, 0, 18, 0, 2, -2
1503955759990,+0.803,+0.470,+0.202,+0.306,+0.916,-0.033,-0.424,-6.688,-13.562,-6.250,-4, 4, 6, 17, 20, 9, 0, -9
1503955760013,+0.803,+0.469,+0.200,+0.307,+0.908,-0.017,-0.433,-7.375,-11.125,-6.812,0, -1, 10, 12, -8, 2, 4, 0
1503955760034,+0.804,+0.468,+0.198,+0.308,+0.899,-0.005,-0.458,-7.125,-8.562,-8.125,-4, 2, 0, -3, -12, -4, -5, -8
1503955760050,+0.805,+0.467,+0.196,+0.309,+0.899,-0.015,-0.456,-6.125,-10.750,-5.625,0, -3, -3, 0, 0, 3, 6, -2
1503955760079,+0.806,+0.466,+0.194,+0.310,+0.909,-0.029,-0.438,-5.562,-15.062,-4.000,-9, -5, -3, -4, -12, -4, -1, 0
1503955760101,+0.807,+0.464,+0.193,+0.310,+0.905,-0.034,-0.431,-7.562,-14.375,-3.500,0, -1, -2, 2, 17, 8, 2, -11
1503955760111,+0.807,+0.464,+0.191,+0.311,+0.881,-0.025,-0.444,-7.375,-8.375,-2.500,1, 1, 1, 10, 15, 9, 9, 15
1503955760132,+0.808,+0.463,+0.190,+0.311,+0.863,-0.014,-0.453,-6.438,-5.938,-3.688,-7, -2, 3, -1, -5, -4, 0, 6
1503955760154,+0.808,+0.463,+0.189,+0.311,+0.888,-0.020,-0.442,-7.312,-6.562,-3.688,-1, -1, -3, -23, -49, -6, 0, 5
1503955760170,+0.809,+0.463,+0.187,+0.311,+0.898,-0.022,-0.435,-7.312,-5.062,-3.562,-1, -4, -6, -15, -30, 2, -7, -4
1503955760192,+0.809,+0.462,+0.186,+0.311,+0.896,-0.009,-0.461,-6.312,-5.750,-2.688,13, 2, -4, -14, -9, -9, 1, 10
1503955760214,+0.810,+0.461,+0.185,+0.312,+0.891,-0.005,-0.456,-5.438,-9.625,-2.750,4, 1, 2, 15, 24, 1, -7, -1
1503955760230,+0.810,+0.461,+0.184,+0.312,+0.896,-0.009,-0.458,-3.812,-7.125,-2.312,1, -1, -3, 5, 11, 2, 5, -1
1503955760253,+0.811,+0.460,+0.183,+0.312,+0.876,-0.001,-0.475,-4.312,-4.188,-0.375,-2, -4, -1, 6, 15, 3, 5, 0
1503955760276,+0.811,+0.460,+0.183,+0.312,+0.868,-0.011,-0.473,-4.125,-0.625,+1.062,0, 5, 8, 15, 42, 13, 5, -6
1503955760290,+0.811,+0.460,+0.183,+0.311,+0.902,-0.020,-0.460,-4.000,+1.125,+2.375,-8, -3, -8, -9, -2, -5, -3, -5
1503955760313,+0.811,+0.460,+0.183,+0.311,+0.928,-0.019,-0.459,-2.625,+0.188,+4.188,25, -7, -5, 1, -8, -2, -4, 9
1503955760334,+0.811,+0.460,+0.184,+0.310,+0.926,-0.013,-0.468,+0.438,-1.812,+4.625,-13, -2, 1, 3, 0, -1, -4, -10
1503955760350,+0.812,+0.460,+0.185,+0.310,+0.901,-0.003,-0.471,+1.750,-1.875,+6.188,-5, 4, 2, 6, 3, -3, -6, -10
1503955760372,+0.812,+0.459,+0.186,+0.309,+0.888,-0.014,-0.475,+2.250,+0.500,+9.125,14, 1, -6, -3, -5, -3, -2, 8
1503955766177,+0.670,+0.457,+0.342,+0.475,+0.963,-0.002,-0.296,+3.812,+0.000,-4.688,2, 1, 0, -2, 0, -1, -6, -9
1503955766201,+0.669,+0.457,+0.342,+0.475,+0.932,+0.005,-0.292,+1.688,-2.375,-1.062,-1, 0, -3, -5, -2, -1, -2, -1
1503955766216,+0.670,+0.456,+0.342,+0.475,+0.944,+0.000,-0.299,-2.000,-2.562,+1.312,0, -4, -2, -2, -1, -4, -8, -2
1503955766237,+0.671,+0.456,+0.341,+0.476,+0.941,+0.000,-0.325,-3.500,-6.250,+2.250,1, -2, 0, 4, 0, 0, 4, 5
1503955766258,+0.672,+0.455,+0.340,+0.476,+0.941,+0.017,-0.304,-4.500,-12.125,+2.438,-5, -4, 0, -4, -1, 1, -2, -5
1503955766274,+0.673,+0.454,+0.338,+0.476,+0.940,+0.011,-0.290,-7.938,-11.438,+2.250,-4, -1, -2, -1, -1, -1, -3, 2
1503955766297,+0.674,+0.453,+0.336,+0.477,+0.944,+0.019,-0.313,-5.812,-10.375,+0.062,3, 0, 2, 7, 4, -1, 1, -1
1503955766319,+0.675,+0.453,+0.334,+0.477,+0.922,+0.018,-0.337,-6.562,-9.375,-1.938,1, -2, -1, -1, -2, -1, -1, 1
1503955766335,+0.675,+0.453,+0.333,+0.478,+0.911,+0.019,-0.310,-9.125,-6.000,-3.438,-2, 0, -2, 2, -5, 0, -2, 0
1503955766357,+0.676,+0.454,+0.331,+0.477,+0.917,+0.016,-0.330,-12.375,-1.438,-1.062,-1, -1, -2, -8, -8, -3, -6, -2
1503955766379,+0.677,+0.454,+0.329,+0.476,+0.938,+0.012,-0.361,-12.312,-0.750,+4.625,1, 1, -1, -2, 3, 0, 1, 2
1503955766395,+0.678,+0.454,+0.328,+0.475,+0.963,+0.020,-0.347,-11.812,-6.250,+6.062,0, 0, -1, -2, -1, 2, 6, 3
1503955766417,+0.680,+0.454,+0.326,+0.475,+0.970,+0.009,-0.320,-10.625,-9.625,+3.812,-1, -1, 0, 2, -1, -4, 5, -1
1503955766438,+0.682,+0.453,+0.325,+0.474,+0.935,-0.002,-0.319,-10.375,-11.000,+6.938,-1, 0, 0, 4, 2, 0, 0, 5
1503955766456,+0.684,+0.452,+0.324,+0.473,+0.921,-0.020,-0.345,-9.875,-11.500,+11.062,-1, -2, -2, 6, 2, 1, -2, -3
1503955766477,+0.686,+0.451,+0.323,+0.471,+0.899,-0.043,-0.355,-8.688,-6.375,+8.875,-7, -2, 2, 2, 3, 0, -1, -7
1503955766500,+0.687,+0.450,+0.323,+0.470,+0.917,-0.063,-0.365,-7.000,-2.812,+4.125,6, -1, -3, -11, -4, -1, -2, -4
1503955766515,+0.688,+0.449,+0.322,+0.471,+0.943,-0.064,-0.370,-3.125,-2.750,-1.062,-13, 0, 5, 15, 8, 6, 0, 1
1503955766537,+0.687,+0.449,+0.322,+0.471,+0.925,-0.066,-0.342,+0.250,-0.625,-7.688,4, 4, 0, 4, -5, 0, 1, 1
1503955766559,+0.686,+0.449,+0.322,+0.473,+0.908,-0.069,-0.322,+1.938,-3.812,-12.000,-2, -3, -3, -21, -6, 0, 1, 3
1503955766574,+0.685,+0.448,+0.322,+0.475,+0.923,-0.057,-0.329,+4.750,-3.562,-15.312,-1, -5, -8, 8, 2, 1, -1, 0
1503955766598,+0.684,+0.448,+0.321,+0.478,+0.943,-0.022,-0.337,+8.500,-4.312,-17.125,0, -1, -5, -4, -1, 0, 0, 0
1503955766622,+0.682,+0.448,+0.321,+0.481,+0.930,+0.004,-0.333,+7.812,-3.250,-17.562,-22, -2, -9, -31, 5, -2, -3, -1
1503955766636,+0.680,+0.449,+0.320,+0.483,+0.937,+0.027,-0.293,+4.312,-2.562,-13.375,-8, -5, -4, -12, -9, -1, -4, -3
1503955766658,+0.679,+0.449,+0.320,+0.484,+0.979,+0.050,-0.311,+1.062,+0.625,-3.438,-4, -3, 0, 19, -1, 0, 1, 1
1503955774445,+0.706,+0.472,+0.310,+0.428,+0.939,-0.001,-0.301,-9.875,-9.312,+3.562,-12, -1, 4, 14, 3, 1, 4, 0
1503955774463,+0.707,+0.472,+0.308,+0.427,+0.924,-0.019,-0.315,-10.250,-5.250,+4.500,6, -2, -4, -12, -7, -2, 5, 0
1503955774479,+0.708,+0.472,+0.307,+0.426,+0.928,-0.030,-0.298,-10.188,-4.062,+3.938,-3, -4, -2, -8, -5, -2, -2, 2
1503955774501,+0.709,+0.472,+0.306,+0.425,+0.923,-0.035,-0.314,-11.875,-4.312,+2.000,-6, 1, -1, -7, -1, 2, -1, 0
1503955774526,+0.710,+0.472,+0.305,+0.424,+0.934,-0.022,-0.325,-11.625,-5.812,+3.250,-6, 1, -1, 6, 4, -2, -1, -1
1503955774539,+0.711,+0.472,+0.303,+0.423,+0.930,-0.003,-0.322,-11.062,-5.562,+3.875,4, -4, -5, -5, -15, -4, -2, -2
1503955774561,+0.713,+0.471,+0.302,+0.422,+0.918,-0.000,-0.335,-11.500,-7.000,+6.500,4, 0, 2, 18, 16, 2, -1, 2
1503955774583,+0.715,+0.470,+0.300,+0.421,+0.928,-0.037,-0.333,-11.688,-10.250,+9.125,-6, 0, -2, -7, -6, -4, -4, -2
1503955774599,+0.717,+0.469,+0.299,+0.420,+0.948,-0.041,-0.328,-12.062,-16.812,+8.438,5, -1, -2, -15, -5, -2, 2, -1
1503955774620,+0.720,+0.467,+0.297,+0.419,+0.946,-0.034,-0.341,-11.562,-19.000,+9.500,0, 1, 5, 7, 8, 1, 1, 4
1503955774643,+0.723,+0.464,+0.295,+0.418,+0.921,-0.034,-0.345,-10.000,-18.625,+9.938,3, 1, -1, -3, -4, -1, -3, -3
1503955774659,+0.725,+0.463,+0.294,+0.417,+0.898,-0.059,-0.353,-8.688,-9.625,+7.812,0, 1, 2, -1, 2, 0, -6, -4
1503955774681,+0.726,+0.463,+0.294,+0.416,+0.906,-0.057,-0.358,-8.875,-3.375,+4.188,-1, -4, -4, -4, -12, -9, 0, -4
1503955774703,+0.726,+0.463,+0.293,+0.414,+0.937,-0.048,-0.345,-11.250,+1.375,+5.000,-7, -3, -1, -7, -10, -2, -1, -4
1503955774719,+0.727,+0.464,+0.293,+0.412,+0.942,-0.022,-0.365,-11.312,+3.750,+10.188,11, 1, -1, -14, 3, 0, 1, 1
1503955774740,+0.728,+0.464,+0.293,+0.411,+0.938,-0.022,-0.361,-7.812,+2.625,+10.688,1, 2, 5, 17, 2, 7, 2, -1
1503955774763,+0.729,+0.464,+0.293,+0.409,+0.945,-0.034,-0.363,-5.438,+0.625,+7.938,-5, -3, -4, -10, 3, -3, 4, 2
1503955774786,+0.729,+0.464,+0.293,+0.408,+0.970,-0.040,-0.342,-2.875,-1.438,+9.062,3, 2, 2, 9, 7, 1, -6, 0
1503955780988,+0.788,+0.467,+0.247,+0.316,+0.905,-0.092,-0.425,-10.250,+1.062,-0.938,-3, -2, -2, -5, -4, 0, -3, -2
1503955781004,+0.788,+0.467,+0.246,+0.316,+0.921,-0.083,-0.402,-10.250,-1.500,-4.312,-2, 0, 1, 0, 0, 0, 1, 0
1503955781026,+0.789,+0.467,+0.244,+0.317,+0.924,-0.083,-0.399,-6.375,-4.688,-7.500,0, -1, 0, -3, -1, -1, 7, 3
1503955781048,+0.789,+0.466,+0.243,+0.318,+0.905,-0.104,-0.403,-3.000,-7.688,-8.625,0, 0, 0, 2, -1, 0, 6, -1
1503955781065,+0.789,+0.466,+0.242,+0.319,+0.893,-0.106,-0.400,-3.812,-9.250,-9.000,0, -1, -1, 0, 1, -1, -3, 0
1503955781088,+0.789,+0.466,+0.240,+0.321,+0.874,-0.088,-0.387,-3.562,-3.438,-12.375,3, -1, -2, -1, 0, -2, -1, -1
1503955781108,+0.788,+0.466,+0.238,+0.323,+0.873,-0.056,-0.388,-5.062,-0.188,-16.000,-4, -1, -2, -1, -1, 0, 0, 2
1503955781125,+0.787,+0.468,+0.237,+0.325,+0.905,-0.047,-0.395,-4.312,+1.750,-14.625,-1, -2, -1, -1, -2, -2, -3, -6
1503955781146,+0.786,+0.468,+0.236,+0.327,+0.942,-0.053,-0.411,-1.500,+0.000,-13.625,0, 2, -1, 0, 1, -2, -1, -3
1503955781168,+0.786,+0.469,+0.234,+0.329,+0.933,-0.057,-0.388,-0.938,-3.688,-16.375,2, 0, 4, -2, -2, -1, -2, 3
1503955781184,+0.785,+0.469,+0.233,+0.331,+0.952,-0.057,-0.383,-1.188,-7.250,-16.000,3, 1, -1, 3, 0, -1, -2, 2
1503955781206,+0.785,+0.468,+0.232,+0.333,+0.965,-0.058,-0.405,-3.625,-9.125,-9.562,0, -2, 0, -3, 1, -1, 1, 2
1503955781228,+0.787,+0.466,+0.230,+0.333,+0.922,-0.044,-0.435,-7.188,-15.250,-0.812,-1, -1, 0, -2, -2, -3, -11, -5
1503955781248,+0.788,+0.465,+0.228,+0.333,+0.903,-0.038,-0.441,-7.125,-14.500,+3.312,-1, -4, -2, -1, 0, 1, 16, 4
1503955781266,+0.789,+0.463,+0.227,+0.333,+0.892,-0.043,-0.418,-4.250,-11.375,+1.500,0, 0, 0, 3, 2, 0, 1, 5
1503955781290,+0.790,+0.462,+0.227,+0.333,+0.920,-0.063,-0.416,-4.250,-7.312,+0.312,-2, 0, 0, 1, 0, -2, 0, -2
1503955781304,+0.790,+0.462,+0.227,+0.332,+0.937,-0.076,-0.427,-4.625,-2.312,+3.125,0, -1, 1, 0, 1, 0, -5, -3
1503955781328,+0.791,+0.462,+0.227,+0.331,+0.923,-0.058,-0.417,-3.375,+1.625,+5.812,-2, -1, 0, -1, 0, 1, 5, -2
1503955781348,+0.790,+0.463,+0.228,+0.330,+0.925,-0.041,-0.397,-2.125,+3.500,+7.000,0, 0, -2, 2, -2, 1, -3, -2
1503955781365,+0.791,+0.463,+0.229,+0.329,+0.952,-0.049,-0.419,-1.312,+1.438,+8.938,3, 1, -1, 0, -1, -1, 5, 1
1503955781386,+0.791,+0.462,+0.230,+0.327,+0.938,-0.062,-0.432,-0.250,-1.062,+10.500,1, 2, 1, 5, 5, 0, -1, 3
1503955781408,+0.792,+0.462,+0.231,+0.326,+0.901,-0.067,-0.430,+0.688,-1.938,+9.562,-1, -4, -3, -3, -4, -2, -9, -3
1503955781429,+0.792,+0.461,+0.232,+0.326,+0.912,-0.055,-0.427,+1.312,+0.750,+8.688,-2, -1, 0, -3, -2, 0, -1, -1
1503955788511,+0.719,+0.424,+0.375,+0.403,+0.937,-0.173,-0.281,+0.000,-4.000,-11.500,-4, -3, -2, -4, 0, 1, 6, 3
1503955788532,+0.719,+0.425,+0.373,+0.404,+0.953,-0.193,-0.282,-7.375,-3.438,-12.875,-1, 0, -2, -2, -3, -1, -1, 1
1503955788555,+0.719,+0.427,+0.371,+0.404,+0.927,-0.164,-0.294,-17.438,-1.062,-7.562,-1, -2, -3, -3, -2, 0, 2, -3
1503955788570,+0.720,+0.429,+0.367,+0.403,+0.946,-0.149,-0.291,-27.250,-2.750,-6.375,1, 4, 4, 2, 0, -1, 5, 3
1503955788592,+0.722,+0.432,+0.362,+0.402,+0.931,-0.138,-0.305,-34.375,-1.438,-4.500,-2, -3, 0, 4, 3, 0, -2, -5
1503955788616,+0.724,+0.435,+0.357,+0.399,+0.917,-0.153,-0.331,-42.312,+0.562,-3.938,2, 0, -2, -1, -2, 1, 7, 1
1503955788630,+0.726,+0.438,+0.351,+0.397,+0.932,-0.149,-0.345,-44.438,+0.250,-3.062,0, -1, -1, 5, 3, -1, 2, 1
1503955788652,+0.729,+0.441,+0.346,+0.393,+0.941,-0.145,-0.320,-44.625,+1.125,+1.500,-2, -1, -3, -4, -4, 0, -9, -3
1503955788677,+0.732,+0.443,+0.342,+0.389,+0.950,-0.160,-0.340,-40.938,+1.250,+10.375,-3, 0, -1, -1, -2, -2, -4, -3
1503955788690,+0.734,+0.445,+0.339,+0.384,+0.959,-0.184,-0.333,-35.062,+3.375,+13.000,-1, -3, -2, -2, -1, 1, -1, -2
1503955788713,+0.736,+0.447,+0.337,+0.380,+0.946,-0.181,-0.344,-30.375,+8.062,+12.875,-1, 0, 0, 0, 0, -1, -2, 1
1503955788735,+0.738,+0.448,+0.336,+0.376,+0.941,-0.206,-0.350,-24.062,+8.875,+14.625,-3, -2, -2, -5, -4, -2, -5, -4
1503955788751,+0.740,+0.449,+0.336,+0.372,+0.971,-0.213,-0.340,-16.688,+6.625,+13.938,1, 0, 0, 2, 1, -2, 0, -2
1503955788776,+0.741,+0.449,+0.337,+0.369,+0.951,-0.199,-0.326,-11.500,+6.812,+14.438,0, -3, -2, -2, 0, 0, 5, 4
1503955788795,+0.741,+0.450,+0.338,+0.366,+0.937,-0.211,-0.335,-8.312,+9.312,+14.938,-3, 1, -1, 1, -2, -4, 1, -2
1503955788811,+0.742,+0.450,+0.339,+0.363,+0.955,-0.208,-0.324,-7.125,+9.375,+15.062,-2, -1, 0, 7, 4, 1, -5, -3
1503955788832,+0.743,+0.451,+0.340,+0.360,+0.939,-0.183,-0.313,-6.625,+7.062,+16.250,0, 1, 0, -4, -2, -1, -18, -6
1503955788855,+0.743,+0.450,+0.342,+0.358,+0.929,-0.200,-0.326,-1.125,+5.812,+15.062,-2, -1, -4, -5, -3, -2, -4, -3
1503955788870,+0.743,+0.450,+0.344,+0.356,+0.920,-0.193,-0.308,+2.812,+7.438,+12.000,-2, -1, 1, 0, -1, -2, 11, 1
1503955788900,+0.743,+0.450,+0.345,+0.355,+0.930,-0.179,-0.315,+3.688,+7.000,+9.438,2, -1, 0, 8, 6, 1, -2, 2
1503955797916,+0.666,+0.420,+0.352,+0.506,+0.932,-0.027,-0.346,-2.938,+5.938,+1.125,5, -1, -1, 0, 8, 6, -1, -1
1503955797940,+0.666,+0.420,+0.353,+0.505,+0.935,-0.034,-0.360,-2.875,+8.375,+5.375,14, 4, -2, -2, -5, 2, -1, -7
1503955797960,+0.666,+0.421,+0.354,+0.504,+0.952,-0.027,-0.362,-1.500,+6.062,+6.938,-5, 0, -3, 2, -3, 0, -2, 2
1503955797977,+0.667,+0.420,+0.354,+0.503,+0.928,-0.019,-0.351,-0.312,+1.750,+9.688,-19, -2, -2, -4, -11, 2, -7, -5
1503955797998,+0.667,+0.420,+0.355,+0.502,+0.894,-0.044,-0.359,-0.250,+1.750,+10.438,8, -5, -5, -4, -5, 0, 1, 2
1503955798020,+0.668,+0.419,+0.356,+0.501,+0.908,-0.063,-0.367,+0.000,+3.438,+7.500,7, -1, -3, -1, -3, 1, 3, 5
1503955798035,+0.668,+0.419,+0.357,+0.501,+0.911,-0.065,-0.347,+0.812,+2.188,+3.312,-4, -2, -1, -2, 0, -1, 1, 8
1503955798058,+0.668,+0.419,+0.357,+0.501,+0.917,-0.061,-0.338,+0.562,-1.375,-0.250,3, 1, -1, 12, 11, 0, 0, 1
1503955798080,+0.668,+0.418,+0.357,+0.502,+0.916,-0.062,-0.331,+0.312,-2.625,-3.812,-6, -4, -4, -10, -8, -3, -7, 1
1503955798096,+0.667,+0.418,+0.357,+0.503,+0.917,-0.057,-0.331,+0.625,-1.562,-6.812,5, -2, -3, -2, -5, -2, 3, 2
1503955798118,+0.666,+0.418,+0.356,+0.504,+0.911,-0.051,-0.333,+1.188,-2.750,-8.625,8, -2, -3, -5, -4, 0, 1, 3
1503955798141,+0.666,+0.418,+0.355,+0.505,+0.918,-0.041,-0.331,+0.562,-4.938,-9.500,-1, -2, -2, -1, 0, -5, 4, 0
1503955798155,+0.665,+0.418,+0.354,+0.507,+0.931,-0.040,-0.334,-1.188,-5.562,-6.812,-12, -2, 1, -1, -4, -4, -5, -10
1503955798178,+0.666,+0.418,+0.353,+0.507,+0.942,-0.031,-0.364,-1.875,-6.500,-2.188,21, 5, -2, -4, -6, 0, -4, 2
1503955798201,+0.666,+0.417,+0.352,+0.508,+0.930,-0.035,-0.375,-3.562,-7.000,+1.062,15, 1, -1, 0, 2, 0, -1, 3
1503955798223,+0.667,+0.417,+0.352,+0.507,+0.941,-0.033,-0.361,-6.812,-6.500,+4.188,-16, 0, 0, 0, 1, 2, 6, 1
1503955798238,+0.669,+0.417,+0.351,+0.506,+0.964,-0.028,-0.353,-7.875,-3.938,+7.875,-4, -1, 1, -1, -1, -1, 0, -4
1503955798261,+0.670,+0.416,+0.351,+0.505,+0.961,-0.024,-0.370,-5.938,-3.000,+10.562,2, 0, 1, 2, 0, 0, 0, 13
1503955798284,+0.671,+0.415,+0.351,+0.504,+0.946,-0.045,-0.378,-3.750,-5.375,+10.062,-1, 2, 2, 1, 8, 2, 3, -2
1503955798298,+0.672,+0.414,+0.351,+0.503,+0.930,-0.060,-0.362,-2.500,-5.000,+7.375,-4, -3, -3, -2, -6, -2, 0, -2
1503955798321,+0.672,+0.414,+0.351,+0.503,+0.934,-0.060,-0.358,-2.250,+1.000,+2.812,-1, -1, 1, 10, 10, 3, -3, -1
1503955798345,+0.672,+0.414,+0.352,+0.503,+0.933,-0.065,-0.362,-1.375,+3.438,+1.875,1, 2, 8, 32, 17, 7, 3, 0
1503955806067,+0.678,+0.453,+0.383,+0.434,+0.933,-0.060,-0.322,-13.000,-1.500,+3.125,-3, -1, -1, -3, -1, -1, -7, -1
1503955806083,+0.678,+0.453,+0.382,+0.435,+0.896,-0.042,-0.318,-5.125,+1.688,+1.000,-5, -3, -1, -2, 0, -3, -12, -8
1503955806105,+0.678,+0.453,+0.382,+0.435,+0.967,-0.108,-0.254,+0.875,+1.688,-3.812,2, 0, -2, 1, -1, 2, 2, 3
1503955806130,+0.677,+0.453,+0.382,+0.436,+1.026,-0.151,-0.235,+3.125,-1.875,-7.938,-2, -1, -1, -2, -2, -1, -8, -6
1503955806142,+0.676,+0.452,+0.382,+0.438,+0.999,-0.149,-0.252,+3.938,-8.812,-11.438,1, -1, 0, -1, 0, 0, 3, 2
1503955806164,+0.676,+0.451,+0.380,+0.442,+0.954,-0.127,-0.255,+4.688,-15.812,-17.188,-1, 2, -1, 0, 1, -1, 4, 2
1503955806187,+0.675,+0.451,+0.378,+0.445,+0.935,-0.111,-0.239,+2.875,-12.062,-20.250,1, -3, -3, -1, -2, 1, 6, 6
1503955806203,+0.674,+0.452,+0.377,+0.447,+0.951,-0.094,-0.229,-1.688,+0.062,-16.375,-3, -1, -2, 0, 1, -1, 0, 1
1503955806225,+0.673,+0.454,+0.376,+0.448,+0.968,-0.086,-0.242,-6.000,+3.812,-10.875,1, 0, 2, -1, -2, 2, 2, 2
1503955806247,+0.672,+0.455,+0.375,+0.448,+0.984,-0.062,-0.281,-6.375,+6.188,-8.500,0, -3, -1, 1, 0, -2, -2, -4
1503955806263,+0.671,+0.456,+0.373,+0.450,+0.989,-0.026,-0.302,-2.812,+1.938,-9.312,-2, -1, 2, 0, 0, -2, -2, 0
1503955806284,+0.670,+0.456,+0.372,+0.452,+0.973,-0.021,-0.258,+1.875,-8.188,-10.688,-2, 0, -1, -1, 0, -3, -13, -4
1503955806307,+0.670,+0.456,+0.370,+0.455,+0.955,-0.041,-0.247,+2.812,-12.375,-13.125,0, 0, 0, 0, -1, 0, -2, 0
1503955806322,+0.669,+0.455,+0.368,+0.457,+0.924,-0.063,-0.263,+0.188,-9.062,-13.625,-2, -1, -1, 0, -2, -1, 0, 2
1503955806344,+0.668,+0.456,+0.367,+0.459,+0.904,-0.050,-0.279,-2.000,-1.000,-13.000,1, 0, -2, -2, 0, -1, -1, 0
1503955806368,+0.667,+0.457,+0.365,+0.460,+0.946,-0.035,-0.271,-4.375,+1.438,-12.562,1, 0, -1, -1, 0, 0, -1, -2
1503955806382,+0.666,+0.459,+0.364,+0.461,+0.990,-0.027,-0.256,-6.562,+3.000,-11.062,-2, -1, 0, 1, -2, -1, -4, 0
1503955806404,+0.666,+0.460,+0.362,+0.462,+0.982,-0.003,-0.258,-7.812,-1.500,-9.312,-1, 1, 0, 0, 0, -1, -22, -9
1503955806427,+0.666,+0.461,+0.360,+0.463,+0.951,+0.004,-0.280,-6.375,-7.625,-6.250,-2, -2, -1, -1, -1, 0, 4, 4
1503955806443,+0.667,+0.460,+0.357,+0.464,+0.953,-0.024,-0.289,-7.875,-12.750,-5.250,1, -3, -3, -1, -1, 0, -4, -1
1503955806466,+0.668,+0.459,+0.355,+0.465,+0.949,-0.018,-0.274,-8.562,-13.125,-4.438,-1, -2, -1, -1, -1, -2, 12, 0
1503955806487,+0.669,+0.459,+0.353,+0.466,+0.943,-0.007,-0.279,-7.750,-9.812,-4.312,-1, -1, -1, 0, 0, -2, -10, -5
1503955806503,+0.669,+0.459,+0.351,+0.466,+0.940,+0.000,-0.294,-9.000,-5.312,-2.375,-1, 1, -1, -1, -1, -1, -3, 1
1503955806525,+0.670,+0.460,+0.349,+0.467,+0.929,+0.006,-0.306,-7.250,-3.375,-1.062,-2, 1, 0, -2, 0, -1, 0, 1
1503955806546,+0.670,+0.460,+0.349,+0.467,+0.945,-0.022,-0.291,-6.125,-1.562,-1.000,1, -1, 0, 1, 0, 1, 6, 2
1503955806565,+0.671,+0.460,+0.348,+0.466,+0.977,-0.033,-0.273,-7.188,-4.500,-0.688,-3, -1, 0, -1, -1, 1, 6, -3
1503955806585,+0.672,+0.460,+0.346,+0.466,+0.998,-0.036,-0.293,-6.688,-7.688,+0.312,-2, -1, 0, -1, -2, -1, 1, -1
1503955806607,+0.673,+0.459,+0.345,+0.466,+0.958,-0.055,-0.304,-7.438,-8.500,+2.625,0, -1, 0, 0, -1, -2, -5, -3
1503955806623,+0.674,+0.458,+0.344,+0.466,+0.922,-0.061,-0.284,-7.875,-12.938,-1.312,-1, -1, -1, -1, -1, -2, 1, -1
1503955806645,+0.675,+0.458,+0.342,+0.467,+0.947,-0.042,-0.286,-8.125,-8.812,-4.312,-2, -2, -2, -1, -1, 1, 3, 1
1503955806667,+0.676,+0.457,+0.341,+0.467,+0.955,-0.036,-0.310,-6.188,-5.438,-1.188,2, 1, 2, 0, -1, 1, 1, 4
1503955806683,+0.676,+0.457,+0.340,+0.467,+0.939,-0.044,-0.307,-5.750,-7.438,-2.500,-1, 0, 0, 0, 0, -1, 2, 0
1503955806708,+0.677,+0.456,+0.338,+0.468,+0.961,-0.050,-0.299,-7.250,-10.188,-4.812,-3, -2, -1, -1, -1, -1, -1, -6
1503955806727,+0.678,+0.456,+0.336,+0.469,+0.959,-0.010,-0.336,-5.562,-9.812,-3.188,1, -3, -2, -2, -1, -2, -7, -5
1503955806744,+0.679,+0.455,+0.335,+0.469,+0.922,+0.005,-0.330,-4.062,-8.812,-3.125,-2, -2, -2, -3, 0, -2, 7, 3
1503955814272,+0.764,+0.460,+0.262,+0.369,+0.886,-0.042,-0.430,+0.750,+12.062,-2.062,0, 0, 0, 0, 0, -1, 2, 0
1503955814295,+0.762,+0.462,+0.263,+0.369,+0.895,-0.063,-0.415,+5.312,+17.375,-2.875,-9, 0, 0, -1, -4, 0, 4, 3
1503955814310,+0.760,+0.464,+0.265,+0.370,+0.924,-0.065,-0.360,+4.938,+15.625,-7.688,3, 0, -2, 1, 0, -4, -1, 3
1503955814332,+0.758,+0.466,+0.266,+0.371,+0.950,-0.088,-0.349,+4.188,+12.750,-12.125,0, -1, 0, -4, -3, 0, -2, -4
1503955814355,+0.756,+0.467,+0.267,+0.372,+0.959,-0.087,-0.381,+4.938,+10.438,-9.625,-7, -1, -2, 2, 0, -2, -6, -3
1503955814370,+0.755,+0.467,+0.268,+0.374,+0.966,-0.075,-0.384,+6.188,+1.438,-9.562,4, 3, 1, 2, 1, -2, -4, 0
1503955814392,+0.754,+0.467,+0.267,+0.377,+0.949,-0.045,-0.329,+6.312,-4.688,-16.125,-2, 0, 0, -1, 0, -2, -2, -3
1503955814414,+0.753,+0.467,+0.267,+0.380,+0.904,-0.054,-0.331,+6.562,-5.875,-17.000,-2, -3, -2, 0, -1, 0, 3, 0
1503955814431,+0.752,+0.467,+0.266,+0.382,+0.880,-0.058,-0.387,+5.375,+0.188,-14.750,2, -1, -2, -2, 0, 1, 2, 0
1503955814455,+0.750,+0.468,+0.266,+0.384,+0.906,-0.047,-0.388,+2.562,+3.500,-14.812,-3, 2, 1, -1, -1, -4, -4, -2
1503955814474,+0.749,+0.468,+0.265,+0.386,+0.952,-0.022,-0.369,+1.188,+0.750,-12.375,8, 1, -1, -2, 1, -1, -11, -2
1503955814491,+0.748,+0.468,+0.265,+0.388,+0.942,-0.011,-0.378,+1.250,-2.250,-11.062,-7, -2, 1, -1, 4, 4, 2, -2
1503955814512,+0.748,+0.468,+0.263,+0.390,+0.912,-0.011,-0.374,+0.188,-8.125,-12.375,10, 6, -1, -1, -1, 8, 6, 2
1503955814535,+0.749,+0.467,+0.261,+0.392,+0.927,-0.011,-0.388,-2.438,-11.938,-7.250,-6, 1, -1, -2, 0, -2, 2, -2
1503955814550,+0.749,+0.466,+0.260,+0.392,+0.931,-0.010,-0.389,-3.500,-11.875,-2.062,12, -4, 0, 0, -3, -5, -3, 2
1503955814572,+0.750,+0.464,+0.259,+0.393,+0.916,+0.001,-0.370,-5.188,-13.375,-0.062,-1, -4, -2, -2, -4, 0, 3, 3
1503955814596,+0.751,+0.463,+0.257,+0.393,+0.914,-0.008,-0.374,-5.812,-12.312,-2.688,1, 0, -1, -6, -15, -5, 2, 1
1503955814610,+0.752,+0.463,+0.255,+0.394,+0.926,-0.023,-0.388,-6.875,-10.375,-2.250,-9, -4, -3, -3, -5, -2, -1, -5
1503955814632,+0.753,+0.462,+0.254,+0.394,+0.934,-0.017,-0.404,-8.875,-9.938,-1.625,1, -4, -2, 1, 6, 5, -4, -2
1503955814660,+0.754,+0.461,+0.252,+0.394,+0.938,+0.006,-0.401,-7.812,-13.562,-3.062,6, 2, 0, 1, 0, -5, 1, 0
1503955814670,+0.755,+0.460,+0.250,+0.395,+0.922,+0.008,-0.393,-7.938,-11.000,-2.250,-9, -2, 0, -2, 7, -6, -1, -9
1503955814693,+0.756,+0.460,+0.248,+0.395,+0.893,-0.006,-0.399,-7.250,-8.438,-1.625,-10, -6, -3, 1, 9, 0, -2, 1
1503955822236,+0.738,+0.453,+0.338,+0.368,+0.936,-0.157,-0.306,-22.000,-4.188,-0.438,0, -4, -2, -4, -1, -1, 2, 3
1503955822258,+0.739,+0.455,+0.335,+0.366,+0.922,-0.152,-0.300,-21.875,+0.812,-1.438,0, -1, -1, 2, 0, -2, -2, 3
1503955822280,+0.740,+0.457,+0.333,+0.365,+0.936,-0.161,-0.292,-19.688,+4.062,-0.250,-4, -3, -1, 0, 7, 1, -5, -8
1503955822296,+0.741,+0.458,+0.331,+0.363,+0.943,-0.177,-0.309,-17.062,+1.438,-0.312,-1, 0, 1, -3, -5, -3, 1, -2
1503955822319,+0.742,+0.457,+0.329,+0.363,+0.941,-0.197,-0.316,-15.250,-9.875,-2.438,2, 0, 1, 4, 2, 1, 2, 0
1503955822334,+0.744,+0.457,+0.327,+0.363,+0.931,-0.190,-0.313,-15.188,-13.188,-3.312,-1, -1, -1, -8, -6, -1, -2, 0
1503955822356,+0.745,+0.456,+0.323,+0.363,+0.893,-0.137,-0.317,-16.562,-12.812,-7.500,-1, 1, -1, -2, 1, 1, 0, 0
1503955822379,+0.746,+0.457,+0.319,+0.364,+0.887,-0.115,-0.315,-18.375,-11.438,-10.562,1, 0, -1, 0, -5, -3, -4, -1
1503955822394,+0.747,+0.457,+0.316,+0.366,+0.899,-0.125,-0.327,-15.000,-10.562,-15.688,2, 0, -2, -1, 1, 2, 5, 3
1503955822416,+0.747,+0.457,+0.312,+0.368,+0.919,-0.120,-0.340,-14.750,-13.688,-19.688,-1, -1, -1, 2, -1, 0, -4, -5
1503955822438,+0.748,+0.457,+0.307,+0.370,+0.942,-0.092,-0.385,-12.938,-11.062,-19.438,-1, -3, -2, -2, 2, 1, 3, -6
1503955822454,+0.748,+0.457,+0.304,+0.373,+0.911,-0.032,-0.400,-9.000,-9.938,-17.250,-4, -1, -1, 0, 0, -5, -10, -7
1503955822479,+0.748,+0.457,+0.300,+0.376,+0.881,-0.037,-0.379,-7.062,-10.938,-13.562,1, -1, 2, 2, 2, 1, 4, 1
1503955822498,+0.748,+0.457,+0.298,+0.378,+0.947,-0.085,-0.354,-6.250,-11.438,-12.312,-3, -2, -1, -2, -2, -1, 1, -2
1503955822530,+0.749,+0.456,+0.295,+0.379,+0.990,-0.111,-0.358,-8.062,-15.125,-13.312,1, -1, -2, -3, -3, 0, -4, 2
1503955822536,+0.750,+0.455,+0.293,+0.381,+0.959,-0.061,-0.392,-6.188,-16.625,-9.312,-3, -1, -1, 0, -1, -1, 1, 2
1503955822558,+0.751,+0.453,+0.290,+0.383,+0.914,-0.042,-0.379,-3.500,-17.562,-7.500,2, 1, -3, 0, -1, 5, -2, 0
1503955822577,+0.752,+0.452,+0.288,+0.385,+0.919,-0.060,-0.371,-4.750,-17.250,-5.688,1, 0, 2, -1, 0, -1, -3, 1
1503955822596,+0.753,+0.451,+0.286,+0.385,+0.941,-0.082,-0.366,-7.312,-15.125,-4.625,-2, -1, 0, 7, 1, -2, -1, -1
1503955822619,+0.753,+0.450,+0.284,+0.386,+0.947,-0.100,-0.372,-10.125,-9.688,-3.750,-2, -1, -1, -7, -7, 0, 4, -1
1503955822634,+0.754,+0.450,+0.282,+0.386,+0.937,-0.065,-0.389,-12.812,-9.375,-3.000,-1, 0, -1, 0, -3, -4, -3, -6
1503955822657,+0.755,+0.450,+0.279,+0.386,+0.926,-0.040,-0.383,-12.812,-10.250,-3.125,0, 0, 0, -5, -1, 1, 3, 4
1503955829144,+0.753,+0.377,+0.344,+0.415,+0.862,-0.181,-0.438,-0.188,+2.688,+3.500,0, 0, -1, -2, -2, -1, -13, -4
1503955829161,+0.753,+0.377,+0.344,+0.416,+0.872,-0.198,-0.436,+1.500,+1.688,+0.188,-2, -2, -3, -3, -2, 0, 0, -3
1503955829182,+0.752,+0.377,+0.344,+0.416,+0.880,-0.199,-0.434,+3.625,+0.812,-3.812,-2, -4, -2, 1, 0, 2, 12, 3
1503955829204,+0.751,+0.377,+0.345,+0.418,+0.868,-0.187,-0.443,+4.812,+0.500,-5.500,-3, -2, -3, -1, 0, 0, 4, -3
1503955829226,+0.751,+0.377,+0.345,+0.419,+0.866,-0.205,-0.435,+5.750,-0.625,-6.375,-1, 3, 1, -1, -2, 1, 6, 3
1503955829242,+0.750,+0.376,+0.345,+0.421,+0.859,-0.203,-0.439,+6.688,-0.938,-10.188,2, -1, -1, -3, -5, 0, 2, 4
1503955829264,+0.748,+0.376,+0.346,+0.424,+0.862,-0.195,-0.442,+9.312,-2.812,-15.125,0, -1, 2, -2, 1, 2, -2, 1
1503955829279,+0.746,+0.375,+0.346,+0.427,+0.866,-0.207,-0.439,+11.625,-5.438,-18.375,2, 0, -1, -1, -1, -4, -2, -5
1503955829302,+0.745,+0.374,+0.346,+0.431,+0.864,-0.201,-0.445,+13.188,-6.500,-19.688,0, -1, -1, 1, 0, -1, -5, -3
1503955829325,+0.743,+0.374,+0.346,+0.435,+0.876,-0.200,-0.440,+13.000,-4.500,-20.625,-2, -1, -2, -2, -2, 0, 9, 0
1503955829345,+0.741,+0.373,+0.346,+0.438,+0.880,-0.194,-0.449,+13.125,-3.062,-19.000,1, 0, -1, -1, -2, -5, -7, -2
1503955829362,+0.739,+0.372,+0.347,+0.442,+0.866,-0.175,-0.440,+12.875,-5.375,-16.312,3, 0, 0, -1, 0, -1, -1, 4
1503955829384,+0.737,+0.372,+0.347,+0.445,+0.870,-0.175,-0.448,+13.125,-6.812,-18.125,-2, -1, -1, 0, 1, 1, -8, -6
1503955829405,+0.735,+0.370,+0.347,+0.449,+0.868,-0.181,-0.446,+14.812,-8.375,-20.562,-1, 2, 1, 1, -1, -1, 4, 0
1503955829422,+0.734,+0.368,+0.347,+0.454,+0.868,-0.176,-0.427,+13.750,-15.062,-19.062,4, 0, -2, 2, 0, -1, 4, -1
1503955829444,+0.732,+0.367,+0.346,+0.457,+0.880,-0.184,-0.420,+9.500,-13.938,-18.312,0, -1, -4, -2, 0, -1, 2, 3
1503955829467,+0.731,+0.366,+0.346,+0.461,+0.879,-0.184,-0.464,+8.750,-5.750,-19.812,-1, -2, -2, 0, -2, -1, 0, 2
1503955829482,+0.729,+0.366,+0.346,+0.464,+0.883,-0.153,-0.452,+9.938,-2.500,-18.938,1, 0, 0, -1, -2, -2, -15, 0
1503955829504,+0.727,+0.366,+0.345,+0.468,+0.893,-0.159,-0.445,+9.438,-8.625,-20.438,-3, -2, -2, -3, 3, 2, -2, 0
1503955829528,+0.726,+0.364,+0.344,+0.471,+0.895,-0.177,-0.427,+9.688,-16.875,-17.938,-1, -2, -2, 0, -1, 1, 7, 0
1503955829542,+0.725,+0.362,+0.344,+0.474,+0.877,-0.175,-0.438,+6.125,-13.750,-12.625,-1, 0, 0, 0, -2, -1, 1, -3
1503955829566,+0.724,+0.362,+0.343,+0.476,+0.883,-0.150,-0.443,+3.000,-5.250,-13.312,-1, 0, -2, 0, -1, -2, 1, -7
1503955829585,+0.722,+0.363,+0.343,+0.479,+0.917,-0.137,-0.445,+5.812,-1.062,-18.062,2, 0, -2, 1, 1, 1, 3, 7
1503955829603,+0.720,+0.364,+0.343,+0.482,+0.920,-0.111,-0.438,+6.625,-1.000,-17.125,0, -2, -1, -3, 0, 1, -3, 4
1503955829626,+0.718,+0.364,+0.342,+0.484,+0.907,-0.116,-0.433,+4.562,-2.312,-15.625,1, 2, 0, 0, 0, 0, 1, -4
1503955838046,+0.644,+0.450,+0.388,+0.482,+0.960,-0.042,-0.223,-1.500,-8.125,-2.250,2, -3, -1, -3, -1, 0, 1, 4
1503955838067,+0.643,+0.450,+0.388,+0.482,+0.946,-0.028,-0.249,+0.812,+1.750,-1.562,-5, -1, 0, -2, -3, -4, -8, -3
1503955838090,+0.643,+0.450,+0.388,+0.483,+0.978,-0.029,-0.240,+0.875,-1.375,-2.312,1, -1, 0, -1, 0, 0, 1, 2
1503955838106,+0.643,+0.450,+0.387,+0.484,+0.980,-0.051,-0.228,-1.250,-5.875,-4.625,2, 0, -1, -2, 0, -1, -2, 4
1503955838128,+0.642,+0.450,+0.387,+0.485,+0.966,-0.056,-0.229,+0.938,-3.500,-5.688,-2, -4, -1, -2, -2, 0, -4, -10
1503955838158,+0.642,+0.450,+0.387,+0.485,+0.962,-0.048,-0.247,-0.500,-1.688,-3.000,-1, 1, -1, 0, -1, 0, -2, 0
1503955838173,+0.643,+0.449,+0.386,+0.486,+0.971,-0.057,-0.272,-2.688,-5.500,-0.188,-3, 1, -1, 1, -1, -2, 2, -2
1503955838188,+0.643,+0.449,+0.385,+0.486,+0.968,-0.071,-0.255,-4.312,-7.750,-0.750,0, 0, -2, 0, -1, -2, -5, -7
1503955838210,+0.644,+0.449,+0.384,+0.486,+0.982,-0.060,-0.227,-5.812,-7.000,-1.562,1, 0, -1, -2, -1, 0, 3, 2
1503955838226,+0.645,+0.449,+0.383,+0.486,+0.982,-0.053,-0.229,-8.312,-6.125,+2.000,-3, -2, -1, -1, -2, -2, -4, 2
1503955838248,+0.646,+0.449,+0.382,+0.485,+0.982,-0.062,-0.229,-10.188,-6.812,+2.250,-2, -1, 0, 0, -1, 1, 6, -2
1503955838270,+0.648,+0.448,+0.380,+0.485,+0.967,-0.058,-0.265,-11.625,-10.938,+0.875,-1, -2, -2, -1, -4, -2, -8, -6
1503955838288,+0.649,+0.448,+0.378,+0.485,+0.960,-0.042,-0.272,-10.750,-12.562,-0.812,-3, -2, 1, -1, 1, -1, -5, -7
1503955838308,+0.650,+0.448,+0.376,+0.485,+0.948,-0.037,-0.258,-11.062,-6.438,-1.562,0, -2, 0, 0, 0, 0, 6, 5
1503955838330,+0.650,+0.449,+0.375,+0.485,+0.950,-0.042,-0.243,-11.625,-2.375,-1.375,0, 0, -2, -1, -1, -1, 1, 1
1503955838346,+0.651,+0.450,+0.373,+0.484,+0.969,-0.051,-0.259,-13.875,-0.125,-0.500,0, -1, 1, 1, 2, 0, -3, -5
1503955838368,+0.652,+0.451,+0.371,+0.484,+0.979,-0.018,-0.281,-13.438,-4.625,-0.312,-3, -2, -1, -2, -1, -3, -1, -6
1503955838390,+0.653,+0.450,+0.369,+0.484,+0.970,+0.005,-0.300,-10.812,-9.125,-0.188,0, -1, -2, -2, -2, -3, -4, 1
1503955838406,+0.655,+0.450,+0.367,+0.484,+0.923,-0.010,-0.292,-8.438,-11.438,-0.125,0, -1, -2, -1, -2, 1, 5, 2
1503955846296,+0.709,+0.398,+0.373,+0.448,+0.912,-0.141,-0.346,+10.125,+2.250,+3.625,-1, 1, 0, 1, 0, 0, 6, -2
1503955846318,+0.708,+0.398,+0.374,+0.448,+0.892,-0.132,-0.361,+9.938,+3.438,+0.062,0, -2, 2, 2, -1, 0, -7, 2
1503955846333,+0.707,+0.397,+0.375,+0.449,+0.898,-0.167,-0.349,+9.312,+1.250,-2.000,-1, -2, -1, -3, -1, -2, -4, -4
1503955846355,+0.706,+0.397,+0.377,+0.450,+0.902,-0.171,-0.346,+9.562,+4.312,-3.500,-2, -1, 0, -2, -2, -1, 0, 0
1503955846383,+0.704,+0.398,+0.378,+0.450,+0.905,-0.169,-0.334,+5.750,+10.812,-0.375,-1, 1, 2, -2, 0, 1, 3, 2
1503955846393,+0.703,+0.399,+0.380,+0.449,+0.923,-0.169,-0.320,+2.000,+11.875,+2.500,0, 0, -3, -2, -1, 0, -1, 0
1503955846415,+0.703,+0.400,+0.381,+0.448,+0.930,-0.164,-0.310,-0.688,+8.000,+1.375,-4, -1, 0, 0, -1, -1, -4, -8
1503955846437,+0.702,+0.402,+0.381,+0.448,+0.942,-0.162,-0.306,-3.062,+9.812,-1.438,1, 0, 0, 0, 1, -1, 2, -2
1503955846453,+0.701,+0.404,+0.382,+0.446,+0.948,-0.141,-0.317,-6.875,+15.312,+1.625,-1, -2, -3, -3, -2, -3, -1, -4
1503955846476,+0.701,+0.406,+0.382,+0.445,+0.929,-0.128,-0.309,-10.125,+10.625,+5.562,1, 0, -1, 0, 0, 1, 2, -4
1503955846497,+0.701,+0.408,+0.381,+0.443,+0.920,-0.144,-0.300,-13.000,+3.812,+5.500,-6, -2, -3, -3, -2, -1, -10, -9
1503955846513,+0.703,+0.409,+0.380,+0.441,+0.942,-0.197,-0.306,-20.750,+2.750,+6.312,2, 0, 2, 1, 1, 0, 1, -2
1503955846535,+0.705,+0.411,+0.378,+0.437,+0.927,-0.182,-0.292,-30.062,+5.812,+11.625,-1, 2, 1, 2, 2, -1, -5, 0
1503955846557,+0.707,+0.415,+0.375,+0.432,+0.950,-0.166,-0.250,-38.625,+9.000,+8.438,1, 1, -2, -1, -1, -1, 4, 2
1503955846572,+0.709,+0.420,+0.371,+0.428,+0.934,-0.110,-0.292,-44.000,+8.688,+5.250,-1, -3, -1, -1, -1, -1, 3, 3
1503955846595,+0.712,+0.423,+0.366,+0.424,+0.945,-0.111,-0.326,-45.750,+2.125,+6.250,1, 2, -1, 0, -2, 2, 2, 1
1503955846618,+0.716,+0.426,+0.361,+0.419,+0.933,-0.130,-0.353,-50.875,+0.125,+13.750,0, -2, -2, -3, -1, -1, -3, -1
1503955846632,+0.720,+0.428,+0.356,+0.413,+0.948,-0.186,-0.293,-53.438,-1.250,+18.438,-1, 0, 0, -3, 1, 1, -6, 0
1503955846655,+0.725,+0.431,+0.350,+0.408,+0.983,-0.109,-0.339,-51.312,-7.562,+15.500,-1, -3, -1, -2, -2, 0, -4, -1
1503955846685,+0.729,+0.431,+0.343,+0.406,+0.970,-0.083,-0.405,-46.312,-16.188,+7.375,2, -2, -2, -1, -1, -1, 5, 1
1503955846692,+0.734,+0.430,+0.335,+0.405,+0.881,-0.055,-0.393,-40.688,-33.000,+5.125,0, 2, 2, 0, -3, -2, -3, -7
1503955846715,+0.739,+0.428,+0.329,+0.404,+0.804,-0.072,-0.398,-33.938,-27.000,+5.125,-2, -6, -4, -1, -1, 0, 0, -2
1503955846737,+0.742,+0.428,+0.324,+0.403,+0.821,-0.126,-0.407,-30.375,-14.062,+1.562,0, -3, -1, 0, 0, -3, 5, 6
1503955846752,+0.744,+0.427,+0.320,+0.401,+0.896,-0.146,-0.417,-28.750,-13.438,+0.625,0, 0, 1, 1, -1, 1, 1, -1
1503955846775,+0.746,+0.428,+0.315,+0.400,+0.933,-0.109,-0.431,-27.000,-8.125,-2.750,-1, -1, -2, -2, -2, -1, -3, -1
1503955846797,+0.748,+0.428,+0.311,+0.401,+0.862,-0.053,-0.420,-20.875,-10.188,-8.125,-1, -1, 1, 0, 0, -1, 2, 0
1503955846816,+0.749,+0.428,+0.306,+0.402,+0.833,-0.053,-0.438,-16.938,-12.438,-9.438,-1, 0, -2, -2, 0, -1, 0, 2
1503955856743,+0.745,+0.441,+0.295,+0.403,+0.977,-0.075,-0.414,-13.000,-2.188,-1.125,2, -2, -3, -2, 0, 1, 2, 3
1503955856765,+0.746,+0.440,+0.293,+0.405,+0.999,-0.075,-0.425,-7.500,-14.375,-7.000,-3, 0, 2, -1, -1, -2, 0, -1
1503955856782,+0.747,+0.438,+0.291,+0.406,+0.941,-0.079,-0.397,-2.812,-21.312,-6.750,-2, 0, 0, -2, -2, -3, -2, -1
1503955856803,+0.748,+0.436,+0.289,+0.408,+0.866,-0.065,-0.399,-3.125,-17.812,-6.500,0, -1, -2, -1, -1, -1, -5, -1
1503955856826,+0.748,+0.436,+0.287,+0.409,+0.895,-0.083,-0.396,-4.625,-7.312,-6.312,0, 1, 0, -1, -1, -5, -4, -1
1503955856840,+0.749,+0.436,+0.287,+0.409,+0.937,-0.094,-0.438,-4.688,-2.438,-3.812,0, 1, 0, 0, 2, 3, 6, 0
1503955856863,+0.749,+0.435,+0.286,+0.410,+0.924,-0.093,-0.430,-2.312,-2.000,-2.875,-2, -4, 0, -2, -2, -2, 5, -2
1503955856885,+0.749,+0.435,+0.286,+0.411,+0.904,-0.078,-0.381,-2.562,-8.312,-5.062,-1, -1, 0, 1, 0, -1, -5, -2
1503955856899,+0.749,+0.435,+0.284,+0.411,+0.913,-0.056,-0.381,-4.438,-8.688,-4.625,1, -1, -2, -2, 0, 0, 2, -2
1503955856925,+0.749,+0.435,+0.284,+0.411,+0.889,-0.062,-0.408,-4.500,+0.625,-0.875,-1, 0, -1, -1, -2, 0, 0, -3
1503955856946,+0.749,+0.435,+0.284,+0.410,+0.892,-0.053,-0.440,-2.250,+4.625,+6.625,-1, -4, -1, 0, -1, 0, -2, -2
1503955856961,+0.750,+0.435,+0.285,+0.409,+0.907,-0.051,-0.444,-0.125,+3.938,+8.625,-3, -1, -3, 0, -1, -1, 1, -2
1503955856986,+0.749,+0.435,+0.287,+0.408,+0.920,-0.048,-0.417,+3.188,+8.188,+8.438,0, 0, -1, -1, 0, 2, 8, 6
1503955857004,+0.749,+0.436,+0.289,+0.407,+0.887,-0.056,-0.422,+4.000,+10.188,+9.688,2, 1, 0, 0, -1, -3, -9, 0
1503955857019,+0.748,+0.437,+0.290,+0.406,+0.905,-0.044,-0.419,+3.750,+18.438,+4.125,1, 0, -3, 0, -3, -1, -2, 2
1503955857042,+0.746,+0.439,+0.293,+0.406,+0.918,-0.097,-0.366,+5.625,+16.750,+1.188,-1, -1, -1, -2, 0, -1, -1, -3
1503955857065,+0.745,+0.440,+0.294,+0.406,+0.941,-0.096,-0.385,+4.188,+9.250,-1.562,-2, -2, -2, 0, -2, -2, 0, -5
1503955857079,+0.745,+0.440,+0.295,+0.406,+0.935,-0.091,-0.378,+2.500,-0.938,+3.500,-1, -4, -2, -2, -3, -2, 2, 2
1503955857101,+0.746,+0.438,+0.296,+0.405,+0.909,-0.104,-0.387,+1.062,-5.812,+6.750,-3, 0, -1, 0, 0, -2, -9, -7
1503955857124,+0.746,+0.438,+0.296,+0.405,+0.878,-0.108,-0.392,+0.000,-0.438,+3.812,-1, 0, 1, -1, 0, -1, -4, -4
1503955857139,+0.746,+0.438,+0.297,+0.404,+0.892,-0.094,-0.381,-0.438,+2.938,+0.688,-1, -1, -2, -1, 0, 0, 1, -3
1503955857162,+0.746,+0.438,+0.297,+0.405,+0.925,-0.082,-0.384,-1.938,-1.688,-1.688,-1, -2, -2, -2, -3, -1, -2, -3
1503955857188,+0.746,+0.437,+0.295,+0.406,+0.922,-0.069,-0.393,-3.125,-11.125,-3.375,0, -1, -1, -1, 0, 0, 3, 1
1503955857199,+0.747,+0.436,+0.294,+0.407,+0.892,-0.080,-0.402,-2.312,-12.438,-4.562,-2, 1, 0, 1, -1, -2, -9, -6
1503955857223,+0.747,+0.434,+0.293,+0.408,+0.859,-0.073,-0.417,-1.375,-10.562,-6.312,0, -2, 0, 0, -1, 0, 8, 6
1503955857247,+0.748,+0.434,+0.291,+0.410,+0.884,-0.053,-0.401,-3.625,-11.500,-7.375,-1, -1, 0, 0, 1, 1, 0, -1
1503955866071,+0.650,+0.358,+0.443,+0.503,+0.933,-0.214,-0.278,+6.625,+6.562,+2.250,9, 2, 1, -1, 0, 0, 0, -1
1503955866089,+0.649,+0.358,+0.444,+0.503,+0.954,-0.227,-0.293,+4.438,+6.750,+1.750,4, -3, -2, -4, -3, -3, -3, 2
1503955866109,+0.649,+0.357,+0.445,+0.503,+0.960,-0.240,-0.298,+3.875,+2.312,+1.000,23, -4, 5, 1, 0, 1, 6, 8
1503955866131,+0.648,+0.357,+0.446,+0.503,+0.923,-0.224,-0.301,+2.688,+2.688,+1.250,34, 10, 1, 1, 2, 0, 2, 14
1503955866147,+0.648,+0.357,+0.447,+0.503,+0.910,-0.225,-0.280,+2.375,+2.250,-2.000,-18, -8, -4, -2, 0, 1, 1, -9
1503955866171,+0.646,+0.358,+0.448,+0.504,+0.914,-0.218,-0.289,+3.625,+5.375,-6.688,-6, -5, -2, 0, 1, -1, -1, -5
1503955866191,+0.645,+0.358,+0.448,+0.505,+0.924,-0.224,-0.297,+4.438,+4.188,-8.125,5, -3, -4, -1, 0, 2, 0, 2
1503955866207,+0.644,+0.358,+0.449,+0.505,+0.936,-0.218,-0.290,+5.188,+1.875,-4.875,3, -3, -7, -6, -2, -3, -9, 9
1503955866230,+0.643,+0.358,+0.450,+0.506,+0.931,-0.240,-0.285,+5.438,+1.625,-5.312,15, 1, 3, -1, -1, 0, 0, 12
1503955866252,+0.642,+0.358,+0.450,+0.507,+0.922,-0.235,-0.282,+5.125,-0.938,-8.188,2, 1, -2, 0, 0, 3, 8, 8
1503955866267,+0.641,+0.358,+0.450,+0.509,+0.919,-0.237,-0.291,+4.750,-2.375,-12.312,-8, -6, 0, 0, -3, -2, -7, -10
1503955866290,+0.639,+0.357,+0.450,+0.511,+0.917,-0.236,-0.316,+8.188,-1.125,-12.250,-2, -5, -3, -3, -1, -3, -2, -4
1503955866315,+0.637,+0.357,+0.451,+0.513,+0.933,-0.224,-0.293,+11.062,-2.562,-10.625,-14, -2, -5, -2, 0, 5, 14, -3
1503955866334,+0.636,+0.357,+0.451,+0.515,+0.951,-0.218,-0.262,+9.250,-0.438,-10.938,4, 2, 2, 0, 2, 1, -2, 1
1503955866355,+0.633,+0.357,+0.452,+0.517,+0.949,-0.201,-0.268,+9.125,+0.250,-12.062,-7, -5, -3, -2, -1, 0, 2, -3
1503955866372,+0.632,+0.357,+0.453,+0.518,+0.943,-0.193,-0.297,+9.062,+1.062,-10.438,4, -1, 4, 6, 2, -1, -1, 0
1503955866387,+0.630,+0.357,+0.453,+0.520,+0.944,-0.195,-0.308,+11.062,+2.625,-9.250,0, 3, -3, -4, -2, 0, 3, 0
1503955866410,+0.628,+0.357,+0.454,+0.522,+0.948,-0.190,-0.298,+11.812,+2.438,-9.688,-5, -2, -2, -2, 0, 3, 7, 5
1503955866432,+0.626,+0.357,+0.455,+0.523,+0.957,-0.184,-0.291,+9.625,+3.625,-8.375,0, 0, 1, 2, 1, -1, -17, -17
1503955866448,+0.624,+0.357,+0.456,+0.524,+0.950,-0.185,-0.285,+8.188,+1.625,-6.062,-5, -2, -2, -5, -3, -1, 5, -3
1503955866470,+0.623,+0.356,+0.457,+0.526,+0.944,-0.184,-0.297,+9.500,+1.625,-4.938,18, -3, -5, -1, -3, -1, -3, 6
1503955866492,+0.622,+0.355,+0.458,+0.527,+0.954,-0.190,-0.281,+9.938,+0.500,-2.625,-5, 0, 6, 7, 2, 3, 5, -2
1503955866507,+0.620,+0.355,+0.459,+0.527,+0.962,-0.190,-0.271,+10.375,+2.750,-1.812,12, -1, -6, -6, -1, 0, 5, 17
1503955866530,+0.619,+0.354,+0.461,+0.528,+0.950,-0.190,-0.287,+10.312,+2.375,+0.438,1, 2, 2, 3, 0, 0, 3, 2
1503955866552,+0.619,+0.353,+0.462,+0.528,+0.953,-0.196,-0.292,+11.875,+1.438,+2.375,5, -3, -2, -1, -3, -1, 2, 12
1503955875270,+0.599,+0.415,+0.456,+0.512,+0.973,-0.096,-0.198,-0.625,+2.125,-1.375,-2, -2, -1, -3, -2, -4, -4, -1
1503955875282,+0.599,+0.415,+0.456,+0.511,+0.983,-0.120,-0.219,-0.062,+1.812,+1.812,-2, -2, -2, 0, -1, -4, -3, -1
1503955875296,+0.599,+0.414,+0.456,+0.511,+0.991,-0.128,-0.192,+1.188,-0.625,+4.312,-4, -3, -2, -1, -2, -1, 1, -1
1503955875318,+0.599,+0.413,+0.457,+0.511,+0.989,-0.121,-0.187,+2.875,-1.750,+4.188,0, 0, -2, -2, -2, -3, -2, 0
1503955875335,+0.599,+0.413,+0.458,+0.512,+0.961,-0.129,-0.195,+3.062,+0.500,-0.562,2, 0, -2, -1, 0, 1, 1, 2
1503955875361,+0.598,+0.413,+0.458,+0.512,+0.951,-0.135,-0.196,+2.812,+5.375,-6.312,0, -1, -2, -3, -1, -1, 0, 0
1503955875378,+0.596,+0.414,+0.458,+0.513,+0.949,-0.146,-0.193,+2.938,+4.250,-9.125,-3, -2, 1, 0, 0, 2, -4, -2
1503955875397,+0.595,+0.414,+0.458,+0.514,+0.998,-0.134,-0.166,+1.562,+1.812,-8.438,1, -2, -2, -3, -3, -2, 2, -1
1503955875416,+0.595,+0.414,+0.459,+0.514,+0.976,-0.101,-0.195,+0.875,+0.812,-1.062,1, 0, 1, 3, 1, -2, 4, 2
1503955875438,+0.595,+0.415,+0.459,+0.513,+0.973,-0.104,-0.186,+0.000,+4.812,+3.312,-2, -1, -1, -1, -1, 0, -1, -1
1503955875454,+0.595,+0.414,+0.460,+0.513,+0.995,-0.111,-0.213,+0.625,+3.875,+6.688,-2, -2, -2, -2, -1, -2, 1, -2
1503955875476,+0.595,+0.413,+0.460,+0.513,+0.976,-0.136,-0.189,+1.938,-2.938,+3.562,0, 0, -2, 2, 0, -1, 2, 1
1503955875500,+0.595,+0.412,+0.460,+0.514,+0.969,-0.142,-0.170,+1.125,-6.750,-2.688,0, -1, 2, -1, 0, 7, 2, -1
1503955875514,+0.595,+0.412,+0.459,+0.515,+0.986,-0.160,-0.143,-0.938,-11.562,-8.500,0, -1, -2, -1, 1, -5, -5, -2
1503955875536,+0.595,+0.412,+0.458,+0.516,+1.000,-0.171,-0.151,-6.500,-10.562,-10.438,-2, -1, -1, 0, -1, -2, -2, -4
1503955875562,+0.595,+0.412,+0.455,+0.518,+1.011,-0.142,-0.147,-9.000,-14.938,-14.000,0, 1, 0, 1, -2, 0, -2, 3
1503955875574,+0.596,+0.413,+0.452,+0.520,+1.012,-0.125,-0.162,-11.000,-20.438,-13.562,0, 0, -2, 0, -1, 1, 4, -1
1503955875597,+0.597,+0.413,+0.449,+0.520,+0.979,-0.103,-0.178,-12.750,-13.625,-6.000,-3, -3, -3, -6, -3, -6, 0, 1
1503955875618,+0.598,+0.414,+0.448,+0.519,+0.985,-0.111,-0.186,-14.312,-0.562,-1.062,-1, 0, 0, -2, 0, -1, -1, -4
1503955875636,+0.599,+0.415,+0.447,+0.518,+1.037,-0.114,-0.194,-16.500,-2.500,-0.562,0, -3, -2, -1, -2, -2, -3, 0
1503955875660,+0.601,+0.417,+0.444,+0.518,+1.070,-0.096,-0.215,-17.625,-7.000,-2.938,1, 0, 1, 1, -1, 0, -2, -1
1503955875679,+0.602,+0.417,+0.441,+0.520,+0.979,-0.049,-0.225,-13.188,-17.750,-6.500,-2, -2, -1, -2, -1, -2, -6, -5
1503955875696,+0.603,+0.416,+0.437,+0.522,+0.906,-0.020,-0.242,-11.375,-18.250,-7.375,-1, -1, -1, -1, -4, -2, 1, 2
1503955875717,+0.603,+0.417,+0.435,+0.522,+0.908,-0.033,-0.250,-6.875,-0.688,-2.250,-1, 0, -1, 1, 0, 0, -3, -1
1503955875738,+0.603,+0.418,+0.435,+0.521,+0.979,-0.075,-0.247,-6.750,+6.688,+0.562,2, 1, 1, 2, 2, 3, -2, 0
1503955875754,+0.603,+0.419,+0.435,+0.521,+0.999,-0.076,-0.230,-6.312,+2.125,-1.812,-1, -2, -1, 1, 0, -1, 2, -2
1503955886365,+0.716,+0.442,+0.305,+0.446,+0.924,-0.028,-0.382,-3.250,-9.438,-2.000,1, 1, -1, 0, 0, -2, -2, 2
1503955886383,+0.716,+0.442,+0.304,+0.446,+0.919,-0.023,-0.378,-2.500,-1.375,-1.500,-1, 0, 0, 0, 0, -1, -3, -1
1503955886404,+0.716,+0.443,+0.304,+0.446,+0.911,-0.029,-0.383,-2.625,+5.500,+0.500,-4, -2, -2, 0, 0, -4, -10, -6
1503955886425,+0.715,+0.444,+0.305,+0.446,+0.936,-0.029,-0.395,-1.688,+6.438,+0.812,-1, -2, 1, 0, -1, 1, 5, 2
1503955886443,+0.715,+0.444,+0.305,+0.446,+0.975,-0.035,-0.382,+0.562,+2.875,+0.562,1, -4, -2, -1, -2, 2, 9, 4
1503955886464,+0.715,+0.443,+0.306,+0.446,+0.968,-0.034,-0.393,+4.875,-2.875,+3.688,1, 3, -2, -1, 0, 0, -2, -1
1503955886486,+0.715,+0.441,+0.307,+0.446,+0.939,-0.045,-0.381,+8.125,-6.312,+6.000,-1, -2, -2, -1, 0, 1, 3, -2
1503955886502,+0.716,+0.439,+0.308,+0.447,+0.939,-0.056,-0.379,+7.625,-5.562,+5.375,0, 1, 3, 0, 0, -2, 1, -3
1503955886525,+0.716,+0.438,+0.310,+0.447,+0.912,-0.045,-0.402,+8.750,-0.312,+4.750,1, -1, -1, -2, -2, -3, -8, 1
1503955886545,+0.716,+0.437,+0.311,+0.447,+0.886,-0.035,-0.396,+7.875,-1.312,+4.938,0, 0, -1, -1, -1, -2, 6, 0
1503955886561,+0.716,+0.436,+0.312,+0.448,+0.914,-0.057,-0.366,+7.125,-0.375,+3.125,-2, -8, -1, 0, -1, 0, -4, -4
1503955886584,+0.715,+0.436,+0.314,+0.447,+0.929,-0.068,-0.364,+6.188,+3.812,+5.562,-2, -2, -4, -2, -3, -1, 0, -5
1503955886605,+0.715,+0.435,+0.316,+0.447,+0.917,-0.070,-0.365,+6.750,+3.750,+7.000,1, -1, 0, -1, 1, -1, -7, -1
1503955886622,+0.715,+0.434,+0.317,+0.447,+0.917,-0.060,-0.351,+4.938,-1.562,+3.562,2, 1, 1, 0, 0, 1, 7, 6
1503955886644,+0.715,+0.434,+0.317,+0.448,+0.909,-0.054,-0.334,+3.500,-5.812,-1.562,-2, 0, -1, -2, -2, -2, -2, -2
1503955886665,+0.715,+0.433,+0.316,+0.448,+0.877,-0.058,-0.365,+0.750,-7.688,-1.562,-1, 0, 0, 0, 1, -2, -7, -1
1503955886684,+0.716,+0.432,+0.316,+0.449,+0.880,-0.044,-0.360,-3.938,-7.062,+0.000,-1, 0, -1, -1, -1, 1, -11, -5
1503955886703,+0.717,+0.431,+0.314,+0.449,+0.908,-0.026,-0.373,-5.812,-10.750,+0.000,1, 1, 1, -1, 1, -1, -1, 0
1503955886727,+0.717,+0.431,+0.312,+0.450,+0.937,-0.029,-0.376,-4.188,-10.938,-2.438,-3, -2, 0, -2, -2, -1, 1, 0
1503955886741,+0.718,+0.429,+0.310,+0.451,+0.897,-0.023,-0.401,-3.250,-15.938,-2.812,0, 0, 2, -1, -2, 1, 1, 0
1503955886763,+0.719,+0.427,+0.308,+0.453,+0.879,-0.020,-0.409,-2.562,-20.562,-4.000,-1, -2, -2, -1, -2, -1, 7, 0
1503955886794,+0.721,+0.425,+0.305,+0.455,+0.865,-0.025,-0.404,-4.500,-18.750,-5.750,1, 0, -2, 0, 0, 0, 4, 1
1503955886808,+0.721,+0.424,+0.303,+0.456,+0.860,-0.039,-0.397,-6.312,-11.000,-7.750,-1, -2, 1, 0, -1, -1, -2, -4
1503955886824,+0.721,+0.425,+0.302,+0.457,+0.868,-0.035,-0.415,-7.688,+1.062,-9.750,-1, 1, -1, -1, -1, -2, -5, -4
1503955886846,+0.719,+0.428,+0.300,+0.457,+0.871,-0.032,-0.411,-9.375,+9.062,-12.625,-3, -1, -3, 0, 2, -3, -3, -1
1503955886868,+0.718,+0.431,+0.299,+0.458,+0.908,-0.021,-0.378,-10.812,+11.875,-14.188,-3, 0, -1, -1, -2, 0, -4, -6
1503955886885,+0.716,+0.434,+0.298,+0.458,+0.924,-0.020,-0.370,-10.125,+15.188,-14.812,1, 0, -1, 0, -1, -2, -8, -2
1503955886906,+0.714,+0.438,+0.298,+0.459,+0.921,-0.029,-0.379,-8.125,+17.312,-15.938,0, 0, -1, 0, 0, 0, -2, -1
1503955894990,+0.698,+0.407,+0.371,+0.458,+0.916,-0.139,-0.352,-21.688,-11.938,-8.438,-4, -6, -20, -16, -7, -2, 1, 20
1503955895013,+0.699,+0.407,+0.367,+0.458,+0.926,-0.131,-0.364,-22.250,-11.312,-6.000,-2, 5, -4, -3, 6, 2, -3, 0
1503955895027,+0.701,+0.408,+0.363,+0.458,+0.921,-0.104,-0.355,-22.062,-8.938,-4.625,9, 8, 5, 53, 19, 7, -2, -23
1503955895051,+0.702,+0.409,+0.359,+0.458,+0.919,-0.117,-0.355,-21.000,-11.188,-4.938,4, -2, -22, -13, -2, 0, -6, 48
1503955895072,+0.704,+0.409,+0.356,+0.458,+0.941,-0.142,-0.342,-21.688,-17.000,-6.875,1, -3, -11, -8, -2, -1, -8, 28
1503955895087,+0.706,+0.409,+0.352,+0.459,+0.930,-0.146,-0.354,-21.188,-18.125,-7.750,-4, 0, 2, 29, 16, 1, 3, -27
1503955895111,+0.708,+0.409,+0.347,+0.460,+0.922,-0.113,-0.378,-21.375,-18.000,-9.125,0, 0, -5, -28, -15, -3, -1, -13
1503955895132,+0.709,+0.409,+0.343,+0.461,+0.919,-0.094,-0.383,-21.375,-15.188,-11.500,3, -1, 8, 2, -1, 0, -2, -20
1503955895147,+0.710,+0.410,+0.339,+0.462,+0.926,-0.098,-0.365,-19.688,-11.312,-12.875,-1, 2, 10, 16, 6, -1, -3, -6
1503955895170,+0.710,+0.411,+0.335,+0.463,+0.944,-0.093,-0.370,-17.688,-11.000,-14.438,-3, -7, -9, -13, -22, -4, -8, -1
1503955895193,+0.710,+0.412,+0.331,+0.464,+0.957,-0.098,-0.366,-16.625,-15.312,-16.500,1, -3, -2, 14, 14, 3, 4, 3
1503955895210,+0.711,+0.413,+0.328,+0.466,+0.953,-0.093,-0.382,-16.250,-13.688,-15.188,-1, 0, -17, -19, 9, -2, 4, 6
1503955895230,+0.711,+0.413,+0.324,+0.467,+0.924,-0.082,-0.403,-15.875,-11.562,-12.062,-4, -3, 0, 4, 1, -2, 0, -6
1503955895253,+0.712,+0.414,+0.321,+0.468,+0.927,-0.076,-0.395,-17.500,-10.562,-10.750,-1, 0, 2, 11, 2, 0, -3, -1
1503955895268,+0.713,+0.414,+0.317,+0.468,+0.939,-0.069,-0.395,-17.750,-12.312,-10.375,4, 2, 4, 21, 11, 2, -2, 1
1503955895290,+0.714,+0.415,+0.314,+0.469,+0.936,-0.060,-0.411,-17.438,-8.500,-9.625,-2, -1, -10, -11, 4, -2, -4, -1
1503955895313,+0.714,+0.416,+0.311,+0.469,+0.911,-0.045,-0.423,-16.500,-7.500,-8.188,-3, 5, -6, -2, -1, -2, 0, -5
1503955895328,+0.715,+0.416,+0.308,+0.469,+0.890,-0.042,-0.425,-16.438,-8.562,-6.812,1, -7, 0, -1, -1, 0, -3, 1
1503955895350,+0.716,+0.417,+0.305,+0.470,+0.900,-0.053,-0.424,-16.938,-8.562,-8.312,2, 1, -1, -8, -2, -1, -1, 1
1503955895372,+0.716,+0.418,+0.302,+0.470,+0.912,-0.053,-0.411,-16.188,-4.938,-8.438,1, 0, -3, 5, 0, 1, 4, 4
1503955895388,+0.717,+0.419,+0.300,+0.470,+0.896,-0.029,-0.430,-15.688,-1.500,-7.062,-5, 2, 1, -4, -2, -1, -3, -3
1503955895413,+0.717,+0.420,+0.297,+0.470,+0.883,+0.002,-0.454,-14.688,-3.062,-6.062,2, 2, -2, -4, -1, 0, -4, 2
1503955895432,+0.718,+0.420,+0.294,+0.471,+0.886,-0.016,-0.455,-12.750,-7.812,-7.062,0, 2, 2, 5, 3, 2, -1, 1
1503955895448,+0.718,+0.420,+0.292,+0.471,+0.895,-0.030,-0.446,-11.062,-8.312,-6.438,-1, -1, -2, -3, -1, -1, 2, 3
1503955895470,+0.719,+0.420,+0.290,+0.471,+0.884,-0.033,-0.433,-10.938,-8.125,-3.375,-3, 0, -1, -1, -2, -1, 1, -2
1503955902776,+0.674,+0.321,+0.416,+0.519,+0.844,-0.265,-0.368,+101.312,-0.625,-33.000,-3, -6, -3, -3, -2, -4, 4, -1
1503955902798,+0.664,+0.314,+0.424,+0.529,+0.866,-0.246,-0.334,+89.875,-11.312,-37.188,3, 3, 5, 4, 0, -2, 1, 4
1503955902820,+0.656,+0.308,+0.430,+0.539,+0.884,-0.244,-0.346,+77.125,-17.062,-42.250,1, -3, -1, -1, 2, 0, -3, -1
1503955902836,+0.647,+0.304,+0.435,+0.547,+0.883,-0.247,-0.342,+68.375,-10.062,-40.750,-1, 3, -5, -6, -1, -3, -3, -2
1503955902858,+0.639,+0.301,+0.439,+0.555,+0.871,-0.213,-0.364,+58.250,-2.562,-37.688,-3, -6, -7, -4, -3, -3, -1, -1
1503955902879,+0.632,+0.300,+0.443,+0.561,+0.882,-0.176,-0.369,+45.375,+4.250,-37.125,-5, -4, -1, 2, -4, -2, 8, 0
1503955902897,+0.625,+0.300,+0.445,+0.567,+0.927,-0.188,-0.340,+36.250,+3.562,-37.250,2, 0, -5, -1, 0, 1, 5, 5
1503955902918,+0.619,+0.300,+0.447,+0.572,+0.919,-0.179,-0.358,+27.500,-1.000,-33.625,-5, -2, 3, 0, 0, 0, -1, -6
1503955902939,+0.615,+0.300,+0.447,+0.576,+0.893,-0.127,-0.391,+20.750,+0.188,-23.000,0, 13, -1, -1, 2, 3, -4, -3
1503955902956,+0.611,+0.301,+0.448,+0.579,+0.878,-0.094,-0.393,+18.188,+9.625,-16.188,1, -4, -6, -5, -3, -2, -4, 1
1503955902978,+0.607,+0.302,+0.451,+0.580,+0.888,-0.114,-0.396,+17.750,+18.688,-9.438,-2, -2, -2, 0, -3, 0, -1, -3
1503955903000,+0.605,+0.303,+0.453,+0.580,+0.930,-0.145,-0.369,+12.625,+15.812,-6.688,6, -5, -9, -7, -1, -2, 3, 6
1503955903016,+0.603,+0.304,+0.454,+0.581,+0.941,-0.155,-0.373,+6.438,+9.125,-7.062,-2, -1, 3, 2, -2, -1, -3, -1
1503955903038,+0.601,+0.305,+0.455,+0.583,+0.922,-0.144,-0.371,+7.000,+4.625,-10.625,1, -5, -1, -1, -2, -1, -2, -3
1503955903059,+0.599,+0.305,+0.455,+0.584,+0.887,-0.120,-0.391,+8.188,+4.000,-9.625,-4, 2, 6, 7, 0, -1, 2, 0
1503955903076,+0.596,+0.306,+0.456,+0.585,+0.886,-0.123,-0.369,+7.875,+9.250,-8.562,-8, 0, 0, 2, 3, -1, -1, -2
1503955903098,+0.594,+0.308,+0.458,+0.585,+0.924,-0.148,-0.337,+4.562,+17.688,-7.625,-1, -4, -6, -11, -4, 0, -2, -2
1503955903114,+0.592,+0.310,+0.458,+0.586,+0.954,-0.161,-0.346,+0.688,+9.812,-9.312,8, -5, -4, -9, -2, -1, 0, 1
1503955903141,+0.591,+0.311,+0.458,+0.587,+0.945,-0.155,-0.356,+2.125,+0.938,-9.875,-5, -3, 2, 2, 0, 1, -1, 0
1503955903158,+0.590,+0.311,+0.457,+0.589,+0.890,-0.134,-0.369,+2.188,-1.938,-9.625,0, -6, 5, 3, 2, -1, -1, -1
1503955910979,+0.538,+0.405,+0.460,+0.578,+0.970,-0.006,-0.199,-4.500,+0.688,-7.750,-23, -11, -5, -3, -3, -6, -11, -10
1503955911001,+0.537,+0.406,+0.460,+0.579,+0.959,-0.052,-0.227,+2.250,+11.812,-8.438,-19, -6, 1, 0, 0, 0, 4, 11
1503955911025,+0.536,+0.406,+0.461,+0.579,+1.040,-0.053,-0.196,+2.125,-0.312,-6.500,10, 6, -1, -2, -1, 0, -5, 6
1503955911040,+0.536,+0.406,+0.460,+0.580,+1.075,-0.016,-0.178,+0.625,-10.688,-3.375,-9, -9, 1, -2, 3, -2, -3, 3
1503955911062,+0.537,+0.404,+0.459,+0.581,+1.030,-0.059,-0.161,-1.000,-16.312,-1.938,-1, -3, -2, -6, -2, -3, -1, -1
1503955911084,+0.538,+0.403,+0.457,+0.582,+1.000,-0.036,-0.245,-2.375,-13.188,+3.000,7, -9, -4, 1, 0, 1, -2, -9
1503955911107,+0.539,+0.401,+0.458,+0.582,+0.965,-0.049,-0.209,+0.812,-4.250,+5.625,-1, -7, -11, -7, -4, -1, 12, 3
1503955911129,+0.540,+0.400,+0.458,+0.582,+1.019,-0.078,-0.182,-2.062,-6.750,+4.125,-9, 1, 6, 0, 1, 1, -1, 4
1503955911146,+0.541,+0.400,+0.457,+0.581,+1.051,-0.036,-0.187,-6.625,-6.750,+4.438,0, -3, -5, -5, -2, -2, -3, -4
1503955911160,+0.542,+0.399,+0.456,+0.581,+0.960,-0.004,-0.242,-4.625,-6.938,+4.812,-5, -6, -8, -3, -3, -2, -2, 0
1503955911182,+0.543,+0.399,+0.456,+0.581,+0.963,+0.000,-0.215,-2.875,-4.312,+5.562,5, -3, -8, -7, -5, -3, 4, -5
1503955911204,+0.543,+0.399,+0.457,+0.581,+1.000,-0.020,-0.207,+0.500,+2.125,+2.812,5, 6, 6, 2, -1, 0, -3, 2
1503955911221,+0.542,+0.399,+0.457,+0.581,+0.993,-0.033,-0.194,+1.812,+0.625,-1.562,-8, -4, -15, -10, -3, -1, 6, 13
1503955911241,+0.542,+0.399,+0.457,+0.581,+0.975,-0.037,-0.188,-1.000,-0.938,-0.312,18, -1, -2, -3, 2, 1, -2, 0
1503955911266,+0.542,+0.399,+0.457,+0.581,+0.967,-0.005,-0.201,-1.375,-0.688,+0.938,7, 4, 8, 5, -1, -2, 4, 6
1503955911280,+0.543,+0.399,+0.456,+0.582,+0.958,+0.011,-0.223,-3.250,-6.188,+0.562,7, 0, -12, -7, -3, -3, -3, 2
1503955911302,+0.543,+0.398,+0.454,+0.583,+0.949,+0.005,-0.223,-4.062,-8.938,-1.500,0, -1, 6, 4, 0, -2, -7, 0
1503955911325,+0.544,+0.398,+0.453,+0.583,+0.957,-0.022,-0.227,-4.688,-10.312,-2.000,12, 4, 11, 3, 4, -1, -6, -10
1503955911340,+0.545,+0.398,+0.451,+0.584,+0.954,-0.027,-0.216,-7.125,-12.375,-0.938,8, -9, -13, -20, -8, -4, 3, 6
1503955911363,+0.546,+0.397,+0.449,+0.585,+0.940,-0.016,-0.223,-9.562,-12.312,-3.375,8, 5, 29, 6, 2, 2, -2, -3
1503955911384,+0.547,+0.398,+0.447,+0.586,+0.944,-0.005,-0.232,-10.250,-11.375,-4.688,4, -14, -17, -8, -4, -3, -5, -7
1503955911400,+0.548,+0.398,+0.445,+0.586,+0.950,+0.007,-0.251,-7.375,-7.438,-4.125,-9, 0, -7, -4, 1, 0, -1, -14
1503955911423,+0.548,+0.399,+0.443,+0.587,+0.975,+0.009,-0.232,-5.875,-4.812,-4.875,5, -5, 18, -12, -4, 0, 7, -7
1503955911444,+0.547,+0.399,+0.442,+0.588,+0.981,-0.002,-0.251,-3.750,-3.500,-5.750,-7, 4, 20, 9, 3, 3, 0, 0
1503955911460,+0.548,+0.399,+0.442,+0.588,+0.981,-0.022,-0.279,-1.438,-3.375,-3.562,16, 3, -13, -8, 5, 0, -2, -1
1503955911482,+0.548,+0.398,+0.440,+0.589,+0.985,-0.009,-0.255,-0.812,-7.312,-4.062,-34, 0, 5, 8, 6, 1, 0, -7
1503955911504,+0.547,+0.398,+0.440,+0.590,+0.976,-0.022,-0.244,+0.312,-1.625,-3.688,-6, -8, -10, -3, -8, -5, -5, 1
1503955911520,+0.547,+0.398,+0.440,+0.590,+0.974,-0.029,-0.216,-0.688,-0.250,-3.875,42, -1, -6, -6, -5, -3, 6, 8
1503955911542,+0.547,+0.398,+0.440,+0.591,+1.006,-0.014,-0.223,-3.250,-7.875,-1.875,-3, 6, 10, 7, -1, -3, -4, 7
1503955911565,+0.548,+0.398,+0.438,+0.591,+1.000,-0.009,-0.229,-5.062,-12.812,-0.875,-11, -10, -7, -4, -3, -4, 0, -6
1503955911580,+0.549,+0.397,+0.436,+0.592,+0.959,-0.013,-0.227,-8.312,-13.062,-0.500,-8, -7, 0, 3, 0, 3, 6, -17
1503955911602,+0.551,+0.397,+0.435,+0.592,+0.948,+0.015,-0.250,-11.625,-9.562,+1.812,17, 9, 18, 8, 4, 3, 5, 15
1503955911626,+0.553,+0.398,+0.433,+0.591,+0.957,+0.027,-0.254,-13.562,-9.188,+6.125,-3, 5, 3, -1, 0, 1, -6, -32
1503955911640,+0.555,+0.397,+0.431,+0.590,+0.977,+0.031,-0.249,-15.062,-12.812,+10.062,0, 1, -12, -6, -1, 2, 1, -7
1503955911662,+0.558,+0.397,+0.428,+0.590,+0.982,+0.026,-0.265,-13.750,-16.375,+10.750,-7, -3, 9, 0, -1, -4, -10, -2
1503955911684,+0.561,+0.395,+0.426,+0.589,+0.957,+0.014,-0.284,-14.875,-18.750,+11.750,-4, -3, 2, 1, 1, -1, -1, -4
1503955911701,+0.565,+0.394,+0.423,+0.589,+0.939,+0.005,-0.287,-15.688,-18.875,+12.562,-6, -9, -12, -4, -4, -4, -4, 29
1503955911722,+0.568,+0.394,+0.421,+0.587,+0.934,+0.003,-0.261,-16.875,-14.188,+12.062,1, -3, -1, 14, 5, 0, -1, 20
1503955911744,+0.571,+0.394,+0.419,+0.586,+0.969,-0.006,-0.256,-18.062,-11.875,+13.500,-2, -1, 1, -6, -4, -1, 1, 12
1503955911760,+0.574,+0.393,+0.418,+0.584,+0.983,-0.013,-0.294,-18.188,-12.438,+15.312,0, 1, 1, -4, -4, -3, -3, 1
1503955911783,+0.578,+0.392,+0.415,+0.583,+0.952,-0.015,-0.310,-17.188,-14.625,+14.375,-2, 0, 2, -12, -5, 1, 2, -15
1503955920454,+0.646,+0.358,+0.451,+0.502,+0.931,-0.212,-0.286,+6.188,-4.062,-8.188,-21, -18, -2, -6, -4, -2, -17, -66
1503955920467,+0.644,+0.358,+0.451,+0.503,+0.922,-0.208,-0.274,+3.875,+0.000,-7.750,1, -1, 1, 4, 0, 1, 8, 42
1503955920491,+0.644,+0.359,+0.452,+0.503,+0.930,-0.198,-0.276,+0.000,+3.125,-3.938,3, -4, -12, -5, 3, -2, -2, -9
1503955920511,+0.643,+0.359,+0.452,+0.503,+0.955,-0.213,-0.281,-2.000,+1.438,-2.000,-16, -11, -3, -12, -5, 0, -5, -33
1503955920533,+0.643,+0.359,+0.451,+0.503,+0.955,-0.215,-0.296,-2.875,-1.438,+0.375,-8, -2, 4, 1, -1, -5, -3, 8
1503955920549,+0.644,+0.359,+0.451,+0.503,+0.937,-0.209,-0.316,-3.500,-0.125,+4.188,2, 1, 13, 8, -2, 5, 10, -6
1503955920571,+0.644,+0.359,+0.451,+0.503,+0.941,-0.200,-0.291,-1.812,-0.750,+2.750,9, 2, -16, -5, -5, -4, 4, 49
1503955920593,+0.644,+0.359,+0.451,+0.503,+0.947,-0.211,-0.268,-4.812,-1.062,+0.375,3, -14, -10, -8, -8, -4, -1, 13
1503955920609,+0.644,+0.360,+0.450,+0.503,+0.947,-0.195,-0.285,-3.250,-0.188,-1.000,9, -7, 9, 6, -3, -3, -8, 20
1503955920632,+0.644,+0.359,+0.450,+0.503,+0.919,-0.194,-0.305,-0.250,-0.812,-0.750,-3, 14, 39, 16, 2, 2, 6, -10
1503955920646,+0.644,+0.359,+0.449,+0.505,+0.909,-0.200,-0.281,+1.312,-6.250,-6.875,-2, 4, -19, -1, 2, 3, -1, 5
1503955920669,+0.643,+0.360,+0.449,+0.506,+0.924,-0.205,-0.286,-1.312,+2.125,-12.000,-6, -9, 4, -6, -11, -8, -14, -12
1503955920692,+0.642,+0.361,+0.448,+0.507,+0.912,-0.199,-0.314,-1.812,+0.188,-10.062,-1, -8, -20, -15, 1, -4, -1, 15
1503955920706,+0.642,+0.361,+0.448,+0.507,+0.955,-0.200,-0.316,-2.312,+3.938,-1.562,-3, -6, -8, -9, -6, -2, 3, -17
1503955920730,+0.642,+0.361,+0.447,+0.507,+0.941,-0.198,-0.317,-2.000,-4.562,+4.812,-3, -4, -8, -5, -1, -4, -8, -17
1503955920752,+0.643,+0.360,+0.447,+0.506,+0.971,-0.199,-0.295,-1.812,-5.625,+8.938,-2, -2, -9, -2, 7, 1, 3, -2
1503955920766,+0.644,+0.359,+0.447,+0.506,+0.924,-0.206,-0.291,-1.250,-3.875,+6.500,1, 0, -2, 1, 0, 0, 7, 5
1503955920790,+0.645,+0.358,+0.447,+0.506,+0.928,-0.206,-0.298,-2.500,-2.188,+3.625,-1, 2, 4, 2, -4, -1, 0, 6
1503955920811,+0.645,+0.358,+0.448,+0.505,+0.921,-0.218,-0.293,-2.125,+2.375,+1.562,1, -1, 5, 2, 1, -1, -6, 23
1503955920827,+0.645,+0.358,+0.448,+0.505,+0.950,-0.235,-0.284,-4.062,+0.875,+2.438,-3, -2, -10, 3, -4, -1, 5, -10
1503955920848,+0.646,+0.359,+0.448,+0.504,+0.969,-0.233,-0.269,-5.250,-2.688,+2.188,-1, -5, -8, 7, 5, -2, 4, -22
1503955920871,+0.646,+0.358,+0.447,+0.504,+0.951,-0.230,-0.258,-6.750,-6.312,-0.375,-2, -1, -5, -17, -11, -4, -10, -4
1503955920886,+0.647,+0.359,+0.445,+0.504,+0.930,-0.230,-0.250,-11.562,-7.938,-0.438,1, 1, -15, -23, -5, -2, -2, 7
1503955920909,+0.648,+0.361,+0.445,+0.503,+0.949,-0.225,-0.237,-15.812,+2.312,-0.875,-4, -4, -1, -2, -3, -3, -1, -5
1503955920931,+0.649,+0.364,+0.443,+0.500,+0.955,-0.194,-0.262,-23.188,+9.312,+1.875,-1, -1, -5, -11, -10, -4, -12, -13
1503955930794,+0.610,+0.365,+0.450,+0.540,+0.956,-0.150,-0.322,-7.375,-2.562,-3.938,2, 2, 0, 1, -1, -2, 0, 0
1503955930816,+0.611,+0.364,+0.449,+0.541,+0.923,-0.142,-0.304,-3.250,-7.000,-3.938,0, 1, 1, 1, -1, 3, 2, -2
1503955930838,+0.611,+0.364,+0.448,+0.542,+0.933,-0.139,-0.275,-3.562,-4.125,-3.938,0, 1, -1, 0, 5, -3, 3, 1
1503955930853,+0.610,+0.365,+0.447,+0.542,+0.951,-0.156,-0.269,-4.875,+1.688,-4.750,-3, -3, -1, -2, -12, -4, -6, -9
1503955930876,+0.610,+0.366,+0.447,+0.542,+0.969,-0.135,-0.274,-4.938,-0.875,-2.625,-3, -3, -1, -5, -3, -4, 6, -2
1503955930900,+0.610,+0.366,+0.446,+0.543,+0.956,-0.133,-0.270,-2.875,-6.000,-1.125,-1, -4, -2, 1, 6, -2, 0, -2
1503955930913,+0.610,+0.366,+0.446,+0.543,+0.948,-0.132,-0.286,-0.500,-1.000,-3.688,-1, 0, 1, -1, -11, -1, 3, 1
1503955930936,+0.610,+0.366,+0.445,+0.544,+0.943,-0.126,-0.295,-1.312,-0.562,-4.062,1, -3, -3, -1, -10, -2, 3, 0
1503955930960,+0.609,+0.367,+0.444,+0.545,+0.951,-0.119,-0.279,-4.562,-3.250,-4.750,-3, -1, 0, 0, -4, -2, 0, -3
1503955930973,+0.610,+0.367,+0.443,+0.545,+0.946,-0.130,-0.299,-6.125,-3.625,-3.500,1, -1, -1, -2, 1, 0, 0, 1
1503955930997,+0.610,+0.367,+0.442,+0.546,+0.931,-0.133,-0.309,-7.062,-6.500,-2.438,0, -1, -1, -1, -3, -3, 5, 6
1503955931018,+0.611,+0.367,+0.441,+0.546,+0.957,-0.147,-0.307,-6.250,-2.375,-3.625,1, -2, -2, -1, -8, -2, -1, 5
1503955931041,+0.611,+0.367,+0.440,+0.546,+0.955,-0.127,-0.313,-4.500,-2.562,-2.250,-2, -1, -2, -3, -4, -1, -4, -5
1503955931056,+0.611,+0.368,+0.439,+0.547,+0.942,-0.120,-0.270,-3.938,-5.125,-1.500,-2, -2, -3, -1, -3, -5, -5, -4
1503955931078,+0.611,+0.368,+0.439,+0.547,+0.934,-0.129,-0.285,-4.812,-1.750,-2.875,-2, 0, -1, 0, -1, -1, -8, -1
1503955931093,+0.611,+0.368,+0.438,+0.547,+0.960,-0.128,-0.296,-5.062,-1.688,-2.438,3, 2, -1, -2, -1, -1, -1, 3
1503955931116,+0.611,+0.369,+0.437,+0.547,+0.950,-0.113,-0.302,-5.562,+0.375,+0.000,-1, -2, 1, 2, 0, -3, -9, -4
1503955931138,+0.611,+0.369,+0.437,+0.547,+0.965,-0.124,-0.289,-2.625,-0.312,-1.000,0, -1, -2, -2, -3, 1, 8, 0
1503955931153,+0.611,+0.369,+0.437,+0.547,+0.955,-0.147,-0.288,-1.625,+0.125,-1.750,-2, -1, 1, -1, 0, 0, 0, 3
1503955931176,+0.611,+0.369,+0.437,+0.547,+0.956,-0.160,-0.294,-2.250,-1.875,-4.750,2, -1, -2, 0, 0, -2, -2, 4
1503955931198,+0.611,+0.370,+0.436,+0.548,+0.969,-0.138,-0.299,-3.125,-2.375,-3.875,-1, 2, 0, -1, -3, 1, 7, -2
1503955931214,+0.610,+0.370,+0.437,+0.548,+0.991,-0.113,-0.316,+2.125,+2.062,-0.750,0, -1, -3, 0, 3, -2, -2, -3
1503955931236,+0.610,+0.369,+0.438,+0.548,+0.972,-0.086,-0.314,+7.125,+4.375,+5.250,-1, 0, -2, -1, -1, 0, -5, -1
1503955940266,+0.557,+0.297,+0.442,+0.637,+0.859,-0.107,-0.388,-20.812,+8.688,+4.000,-35, -7, 2, 3, -1, -3, -3, 8
1503955940282,+0.558,+0.300,+0.441,+0.636,+0.893,-0.092,-0.416,-17.875,+6.250,-3.312,20, 0, -2, 9, 1, 0, -1, -18
1503955940304,+0.558,+0.302,+0.440,+0.636,+0.909,-0.102,-0.400,-15.312,+6.000,-6.000,-3, -4, -8, -6, 1, 0, -2, -7
1503955940333,+0.559,+0.304,+0.438,+0.635,+0.924,-0.088,-0.405,-14.375,+2.688,-2.000,-17, -5, 7, -1, -2, -2, 7, 0
1503955940341,+0.559,+0.305,+0.437,+0.634,+0.921,-0.087,-0.403,-12.375,+0.875,+1.875,12, 4, 8, 14, 2, 1, -3, -1
1503955940365,+0.561,+0.306,+0.436,+0.634,+0.877,-0.080,-0.413,-11.688,+0.625,+4.188,-2, 9, 21, -5, -1, -2, -3, -2
1503955940386,+0.561,+0.307,+0.436,+0.633,+0.897,-0.093,-0.391,-9.562,+2.688,+1.562,-12, 12, 27, -3, -3, -2, 4, 14
1503955940401,+0.561,+0.308,+0.435,+0.633,+0.928,-0.094,-0.373,-7.750,+4.250,-1.750,7, -11, -33, -12, -7, 0, -4, -8
1503955940427,+0.563,+0.309,+0.435,+0.632,+0.940,-0.102,-0.395,-10.125,-1.125,+5.500,-30, -15, -30, -2, -5, -3, 1, -3
1503955940446,+0.565,+0.308,+0.433,+0.631,+0.920,-0.109,-0.414,-12.125,-6.938,+10.375,-38, -17, -14, -7, -6, -7, -2, -18
1503955940462,+0.567,+0.308,+0.432,+0.629,+0.912,-0.116,-0.395,-13.188,-5.500,+11.438,13, 3, 6, -1, -1, -3, -2, 4
1503955940484,+0.570,+0.309,+0.432,+0.627,+0.907,-0.143,-0.354,-16.188,+1.125,+16.062,20, 8, 6, 37, 13, 4, 0, 6
1503955940506,+0.573,+0.310,+0.432,+0.624,+0.949,-0.129,-0.365,-19.562,+2.812,+14.250,7, 17, 38, 12, 11, 6, 6, 15
1503955940521,+0.575,+0.312,+0.431,+0.622,+0.943,-0.090,-0.397,-19.812,-0.062,+6.938,8, 2, -14, -13, 1, 0, -7, -12
1503955940550,+0.576,+0.312,+0.428,+0.622,+0.898,-0.080,-0.411,-16.375,-8.500,+2.500,0, -3, -4, -9, -3, 4, 2, 0
1503955940573,+0.578,+0.313,+0.426,+0.622,+0.863,-0.083,-0.409,-12.875,-5.688,+0.500,-4, 9, 12, 7, 0, 6, 0, -18
1503955940582,+0.578,+0.314,+0.425,+0.622,+0.886,-0.107,-0.417,-11.812,+1.312,-2.062,1, -3, -12, -5, -10, -7, -6, -20
1503955940604,+0.579,+0.315,+0.424,+0.621,+0.884,-0.115,-0.431,-9.562,+4.500,+1.750,3, 0, -16, -10, -1, 2, 7, 6
1503955940626,+0.580,+0.316,+0.424,+0.620,+0.873,-0.099,-0.414,-7.062,+5.688,+1.625,7, -5, 0, -6, 1, -2, -4, -9
1503955940642,+0.579,+0.317,+0.424,+0.620,+0.898,-0.086,-0.412,-4.625,+6.625,-2.125,10, 7, -7, -3, 0, 3, -4, -4
1503955948972,+0.516,+0.344,+0.528,+0.580,+0.998,-0.167,-0.127,+2.375,-0.562,-3.438,-3, -1, -1, 0, -1, 0, 3, -23
1503955948990,+0.515,+0.344,+0.528,+0.580,+0.955,-0.167,-0.140,+0.375,+2.375,-4.250,-13, 0, 5, 6, 3, 4, 1, 16
1503955949010,+0.515,+0.345,+0.529,+0.580,+0.960,-0.177,-0.152,-3.750,+5.812,-3.750,31, 4, 2, -1, -3, 2, 2, 24
1503955949033,+0.515,+0.346,+0.528,+0.579,+0.979,-0.175,-0.162,-7.688,+4.375,-4.000,5, 2, -2, 0, 4, 3, 7, 8
1503955949048,+0.515,+0.348,+0.527,+0.579,+0.995,-0.166,-0.139,-10.312,+0.062,-7.750,-15, 0, 1, 0, 0, 0, 2, -7
1503955949070,+0.516,+0.349,+0.525,+0.581,+0.970,-0.112,-0.140,-11.875,-11.562,-10.562,-10, -4, -3, -3, -2, -6, -10, -15
1503955949094,+0.516,+0.350,+0.521,+0.583,+0.925,-0.094,-0.159,-12.812,-20.750,-12.000,-7, -5, 0, 6, 2, -3, 6, 14
1503955949108,+0.517,+0.350,+0.517,+0.585,+0.975,-0.141,-0.124,-12.188,-18.812,-13.188,26, -2, -2, -4, -7, -5, -10, -30
1503955949130,+0.518,+0.351,+0.514,+0.586,+1.008,-0.173,-0.114,-17.750,-17.312,-9.812,5, 1, -5, -5, -6, -2, 3, 7
1503955949153,+0.520,+0.353,+0.511,+0.586,+1.030,-0.142,-0.122,-24.062,-18.312,-10.812,-10, -1, 4, 4, 7, 3, 4, -2
1503955949168,+0.522,+0.355,+0.505,+0.588,+0.989,-0.090,-0.161,-26.625,-22.875,-15.250,-39, -3, -9, -8, -5, 3, 5, -12
1503955949192,+0.523,+0.357,+0.500,+0.590,+0.920,-0.067,-0.190,-25.312,-21.125,-16.688,-9, -3, 1, -3, -2, 0, 8, 3
1503955949212,+0.525,+0.360,+0.495,+0.591,+0.973,-0.087,-0.170,-26.250,-16.500,-17.688,5, -1, 0, -2, -2, 0, -1, 2
1503955949229,+0.526,+0.364,+0.491,+0.591,+1.042,-0.090,-0.165,-30.188,-6.750,-16.938,7, 4, -4, 0, 3, 5, -5, 7
1503955949250,+0.526,+0.369,+0.488,+0.591,+1.073,-0.026,-0.253,-29.062,+5.250,-15.750,-8, -6, -8, -5, -4, -3, 2, 8
1503955949272,+0.525,+0.372,+0.484,+0.592,+0.960,+0.031,-0.292,-17.625,+0.625,-15.000,6, 0, -4, -4, -1, 1, -5, 0
1503955949289,+0.525,+0.374,+0.480,+0.595,+0.887,+0.054,-0.279,-8.625,-9.000,-14.688,3, 2, 1, 4, 0, -3, -8, 14
1503955949310,+0.523,+0.375,+0.479,+0.597,+0.994,-0.020,-0.229,-0.688,-3.000,-13.812,6, 3, 1, -2, 1, 1, 6, -15
1503955949332,+0.523,+0.376,+0.479,+0.597,+1.034,-0.081,-0.209,-1.312,+1.938,-7.125,-3, 3, 6, -3, -2, 2, -2, -2
1503955949348,+0.524,+0.375,+0.477,+0.597,+1.010,-0.061,-0.222,-8.500,-9.500,+1.062,-6, 0, -3, -3, -5, -11, 6, 6
1503955949370,+0.526,+0.375,+0.475,+0.598,+1.000,-0.032,-0.215,-8.562,-17.625,+2.562,-7, 0, 2, 1, 0, -2, 3, -5
1503955949392,+0.526,+0.374,+0.473,+0.599,+0.939,-0.021,-0.227,-0.875,-13.250,-2.812,3, -2, -2, -4, -1, -1, 3, 15
1503955957883,+0.705,+0.330,+0.350,+0.521,+0.857,-0.163,-0.479,-17.562,-18.438,-6.938,3, -3, -3, -2, 0, -7, -4, 13
1503955957897,+0.706,+0.331,+0.346,+0.522,+0.859,-0.134,-0.488,-19.625,-14.250,-4.125,-5, 6, -2, -4, -9, -15, -13, -4
1503955957920,+0.707,+0.332,+0.343,+0.522,+0.831,-0.104,-0.509,-18.875,-7.625,-5.000,3, -6, -1, 0, -2, 2, -10, -11
1503955957934,+0.708,+0.333,+0.340,+0.522,+0.819,-0.100,-0.514,-16.375,-5.312,-5.125,-16, -9, -4, -4, 0, -9, -12, -19
1503955957957,+0.708,+0.334,+0.338,+0.523,+0.861,-0.115,-0.507,-11.562,-3.188,-6.062,9, -2, 0, 0, 0, -9, -22, -1
1503955957982,+0.708,+0.335,+0.336,+0.523,+0.873,-0.134,-0.515,-8.938,-2.812,-6.062,-32, -9, 1, -3, 0, -8, -7, -21
1503955957994,+0.708,+0.335,+0.335,+0.524,+0.852,-0.140,-0.517,-8.062,-3.562,-5.375,1, -1, -2, -1, -1, 0, -1, 6
1503955958017,+0.708,+0.335,+0.334,+0.524,+0.842,-0.143,-0.530,-7.062,-4.188,-5.125,8, 3, -2, -4, -3, -2, 0, 0
1503955958039,+0.708,+0.335,+0.332,+0.525,+0.847,-0.122,-0.519,-6.562,-9.062,-7.875,-3, 2, 0, -1, 0, -2, -8, 4
1503955958054,+0.708,+0.334,+0.329,+0.527,+0.828,-0.108,-0.525,-7.000,-11.500,-9.125,3, -6, -6, 1, -1, 7, 5, -3
1503955958077,+0.708,+0.334,+0.328,+0.528,+0.823,-0.093,-0.523,-5.312,-6.625,-8.938,0, -1, 2, 2, 5, 6, 3, -17
1503955958100,+0.708,+0.335,+0.326,+0.530,+0.831,-0.088,-0.528,-3.438,-2.188,-9.125,-8, -1, -3, -2, -1, 16, -1, 18
1503955958119,+0.707,+0.336,+0.326,+0.530,+0.840,-0.083,-0.527,-2.688,+3.375,-6.875,31, -7, -6, -3, -5, -13, -7, 29
1503955958138,+0.706,+0.337,+0.326,+0.531,+0.833,-0.109,-0.526,-2.562,+3.750,-6.438,14, -5, -1, -1, -1, -6, -13, -5
1503955958159,+0.706,+0.337,+0.325,+0.532,+0.840,-0.113,-0.531,-4.938,-1.562,-8.062,-14, -6, -7, -5, -5, -15, -20, -10
1503955958174,+0.705,+0.338,+0.323,+0.533,+0.838,-0.077,-0.521,-5.375,-3.625,-9.062,-40, -10, -4, -2, 1, -19, -11, -22
1503955958197,+0.705,+0.339,+0.322,+0.533,+0.849,-0.063,-0.505,-4.688,+0.312,-4.625,-8, -7, 1, -3, -1, -2, 13, 15
1503955958219,+0.705,+0.339,+0.322,+0.533,+0.854,-0.082,-0.512,-5.250,+0.562,-2.625,-17, 1, 3, 1, 0, 6, -4, 11
1503955958234,+0.705,+0.340,+0.321,+0.534,+0.873,-0.094,-0.540,-4.625,-2.438,-3.750,29, -1, 2, 4, -1, 8, -1, 33
1503955958258,+0.705,+0.339,+0.320,+0.534,+0.848,-0.097,-0.555,-2.312,-2.750,-3.062,-6, 9, 5, 3, 2, 9, 10, 8
1503955958280,+0.705,+0.339,+0.320,+0.535,+0.849,-0.096,-0.535,-1.250,-5.750,-3.062,-19, -3, -2, -2, -1, -6, 1, -34
1503955958294,+0.705,+0.338,+0.319,+0.536,+0.852,-0.103,-0.497,-1.625,-7.438,-4.875,-36, 1, 2, 3, 1, 3, -7, -22
1503955958318,+0.704,+0.338,+0.318,+0.537,+0.844,-0.105,-0.528,-1.875,-4.688,-7.188,7, -11, -2, -3, 0, 2, 8, 57
1503955958339,+0.704,+0.338,+0.318,+0.538,+0.845,-0.079,-0.571,+1.188,+3.812,-3.750,4, -2, -6, -4, -5, -6, -8, 6
1503955958354,+0.703,+0.338,+0.319,+0.538,+0.844,-0.084,-0.542,+4.125,+4.250,+1.062,3, 7, 10, 6, 6, 2, 13, 8
1503955958377,+0.703,+0.338,+0.320,+0.537,+0.867,-0.090,-0.498,+3.812,-1.312,+3.812,30, 6, 0, -1, -1, 1, 2, -5
1503955958399,+0.703,+0.337,+0.321,+0.537,+0.870,-0.094,-0.481,+2.438,-1.750,+2.812,-28, -15, -4, -3, -2, 2, 0, -21
1503955958419,+0.703,+0.337,+0.322,+0.537,+0.834,-0.100,-0.518,+1.062,-1.062,+1.938,-11, 5, 3, 1, -1, -5, -12, -26
1503955958437,+0.703,+0.337,+0.322,+0.537,+0.811,-0.092,-0.524,-0.375,+2.125,+1.938,8, 4, -3, -3, -3, 0, 0, 10
1503955958460,+0.703,+0.337,+0.322,+0.537,+0.839,-0.087,-0.508,-0.688,+1.750,-0.750,-8, 6, -4, -2, -2, -3, -6, -9
1503955967423,+0.681,+0.351,+0.360,+0.533,+0.851,-0.130,-0.445,+30.062,+24.312,+0.188,3, 0, 2, 1, 1, -2, -1, -3
1503955967448,+0.677,+0.351,+0.366,+0.533,+0.852,-0.140,-0.434,+27.562,+23.812,-1.625,1, 0, -6, -5, -4, 0, 3, 0
1503955967467,+0.674,+0.350,+0.370,+0.534,+0.862,-0.138,-0.441,+25.438,+19.875,-2.000,0, -1, 1, 0, -1, -1, 2, 2
1503955967483,+0.672,+0.350,+0.374,+0.535,+0.864,-0.145,-0.430,+23.000,+15.188,-3.625,2, 4, 0, -1, 0, -1, -2, -2
1503955967505,+0.669,+0.349,+0.378,+0.536,+0.849,-0.155,-0.441,+21.125,+15.062,-3.938,-2, -4, -7, 0, -1, 2, -4, -2
1503955967528,+0.667,+0.349,+0.382,+0.536,+0.833,-0.153,-0.442,+18.625,+16.250,-0.938,3, 1, 4, 0, -1, -3, 0, 0
1503955967543,+0.666,+0.349,+0.385,+0.536,+0.842,-0.141,-0.434,+15.438,+17.250,+2.188,-3, 4, 9, 1, -1, 0, -1, -2
1503955967566,+0.664,+0.349,+0.388,+0.535,+0.875,-0.146,-0.419,+11.312,+15.438,+3.688,-5, -3, -3, -3, -2, -1, -4, -4
1503955967587,+0.663,+0.349,+0.390,+0.535,+0.896,-0.146,-0.430,+11.750,+10.562,+3.875,5, 2, 6, 6, 2, 1, -4, 14
1503955967601,+0.662,+0.348,+0.393,+0.535,+0.883,-0.148,-0.422,+11.500,+6.188,+4.250,-9, 1, 9, 1, 0, 1, 1, 3
1503955967624,+0.661,+0.347,+0.395,+0.535,+0.868,-0.148,-0.415,+12.500,+9.062,+1.938,-2, -1, -1, -3, -3, -4, -5, 3
1503955967650,+0.660,+0.347,+0.398,+0.535,+0.882,-0.139,-0.411,+13.562,+13.812,+1.750,3, 12, -2, -6, -4, 0, 11, 0
1503955967662,+0.658,+0.346,+0.400,+0.535,+0.901,-0.136,-0.409,+15.625,+8.000,+2.062,5, -6, -2, 1, 1, -1, -7, 1
1503955967685,+0.656,+0.346,+0.403,+0.536,+0.895,-0.142,-0.398,+16.438,+7.500,-0.375,-1, -4, -4, -3, 0, -1, -2, -2
1503955967706,+0.655,+0.345,+0.405,+0.537,+0.889,-0.152,-0.389,+17.188,+8.438,-1.375,-7, -2, -1, -3, -2, -2, 1, -5
1503955967722,+0.653,+0.345,+0.408,+0.537,+0.897,-0.150,-0.391,+16.062,+10.188,-0.750,-6, -3, -4, -2, -2, 0, 0, 0
1503955967744,+0.651,+0.345,+0.410,+0.538,+0.902,-0.134,-0.387,+14.312,+10.250,-1.062,-1, 0, -2, -3, -1, -2, 2, -2
1503955967767,+0.649,+0.345,+0.412,+0.539,+0.910,-0.142,-0.376,+13.188,+7.188,-3.625,0, -1, -2, -1, -2, 0, -2, -3
1503955967783,+0.647,+0.344,+0.414,+0.540,+0.911,-0.150,-0.363,+13.000,+4.938,-5.625,-2, -3, -1, 1, -1, 0, -3, -4
1503955967812,+0.645,+0.344,+0.415,+0.541,+0.892,-0.134,-0.386,+12.625,+5.562,-4.438,2, 1, 2, 1, -1, 1, 11, 1
1503955976647,+0.535,+0.255,+0.441,+0.674,+0.885,-0.118,-0.440,+1.562,-2.938,-12.062,-3, -3, -1, -2, -11, 0, 4, 1
1503955976670,+0.534,+0.255,+0.440,+0.675,+0.876,-0.121,-0.435,+2.062,-2.938,-11.188,2, 1, 0, 21, 25, 9, 15, -1
1503955976692,+0.532,+0.256,+0.440,+0.676,+0.881,-0.121,-0.424,+2.562,-3.000,-10.188,-7, 0, 6, 7, 7, -1, -1, -9
1503955976707,+0.531,+0.256,+0.440,+0.677,+0.894,-0.127,-0.427,+2.625,-2.250,-8.062,-1, 5, 10, 37, 37, 11, -1, -1
1503955976730,+0.531,+0.255,+0.440,+0.678,+0.890,-0.131,-0.431,+1.750,-1.875,-5.312,-4, -1, -4, -9, -13, 2, 2, -2
1503955976753,+0.530,+0.256,+0.439,+0.679,+0.909,-0.113,-0.432,-1.938,-2.500,-5.812,-7, -2, -3, -4, 0, -3, 0, -5
1503955976767,+0.529,+0.257,+0.438,+0.680,+0.908,-0.101,-0.424,-4.062,-3.625,-6.875,0, -3, -1, -9, -12, -2, -8, -2
1503955976790,+0.529,+0.257,+0.437,+0.680,+0.890,-0.094,-0.436,-4.375,-4.375,-5.188,0, -1, -3, -10, -6, -2, -4, 0
1503955976812,+0.529,+0.258,+0.436,+0.681,+0.895,-0.108,-0.443,-4.750,-4.062,-2.312,2, -6, -4, -3, -5, 4, -11, -3
1503955976827,+0.529,+0.258,+0.436,+0.681,+0.902,-0.109,-0.444,-5.938,-3.000,-0.125,2, 1, 0, 13, -1, 7, 7, 3
1503955976852,+0.531,+0.258,+0.435,+0.680,+0.893,-0.103,-0.460,-8.812,-1.250,+4.312,4, 0, 1, 2, 4, -2, -2, 0
1503955976872,+0.532,+0.259,+0.434,+0.679,+0.892,-0.098,-0.448,-10.125,-1.562,+7.938,4, 2, 1, -5, -6, -3, 3, 2
1503955976887,+0.534,+0.259,+0.433,+0.678,+0.924,-0.113,-0.447,-12.500,-2.438,+9.125,-8, 0, 3, -4, 6, -10, 0, 1
1503955976912,+0.536,+0.260,+0.433,+0.677,+0.906,-0.125,-0.430,-12.812,-5.062,+9.812,-4, 0, 2, 17, 16, 2, 6, 1
1503955976932,+0.538,+0.260,+0.432,+0.676,+0.877,-0.124,-0.421,-14.125,-3.750,+9.250,2, 2, 3, 25, 24, 4, 5, 0
1503955976947,+0.540,+0.261,+0.431,+0.674,+0.882,-0.124,-0.413,-16.000,-0.938,+4.625,-5, -3, -7, -26, -26, -7, -9, -4
1503955976970,+0.541,+0.264,+0.430,+0.673,+0.902,-0.103,-0.413,-17.688,+1.750,+1.312,0, -1, -1, -7, -9, 2, 0, -4
1503955976992,+0.542,+0.266,+0.429,+0.672,+0.911,-0.094,-0.450,-18.812,+4.188,+1.312,4, 0, -1, -11, -7, 2, 4, 2
1503955977014,+0.543,+0.268,+0.428,+0.671,+0.892,-0.092,-0.458,-17.062,+6.312,+1.250,1, -1, -4, -2, 3, 2, 7, 2
1503955977030,+0.544,+0.270,+0.427,+0.670,+0.879,-0.087,-0.468,-16.000,+5.812,+2.875,3, 3, 3, 10, 17, 5, 4, 1
1503955977052,+0.545,+0.273,+0.427,+0.668,+0.890,-0.087,-0.440,-15.500,+9.062,+3.688,0, 2, 1, 1, 1, -2, 6, -3
1503955977073,+0.546,+0.275,+0.426,+0.667,+0.895,-0.072,-0.456,-15.125,+7.125,+4.125,3, 0, -2, -5, -6, -7, -1, 3
1503955977090,+0.547,+0.276,+0.425,+0.666,+0.892,-0.072,-0.469,-13.500,+1.375,+5.688,-2, -5, -4, -6, -1, -2, 0, -5
1503955977114,+0.548,+0.277,+0.425,+0.665,+0.857,-0.092,-0.458,-11.125,+2.438,+4.438,4, -2, -1, 0, 1, -1, 5, 4
1503955977133,+0.549,+0.278,+0.424,+0.664,+0.853,-0.111,-0.452,-11.250,+4.062,+3.250,0, -2, 0, -4, -4, -2, -2, 0
1503955986298,+0.531,+0.274,+0.496,+0.630,+0.917,-0.075,-0.360,+20.562,+12.562,-27.625,1, -3, -4, -4, -2, 3, 5, -2
1503955986321,+0.527,+0.274,+0.496,+0.633,+0.879,-0.072,-0.353,+17.125,+4.938,-22.250,-5, 1, 1, -1, 2, -2, -4, -3
1503955986346,+0.523,+0.276,+0.497,+0.635,+0.881,-0.108,-0.328,+12.562,+9.812,-17.250,-2, -1, -3, -1, -1, -3, -6, -3
1503955986358,+0.521,+0.277,+0.498,+0.636,+0.933,-0.125,-0.329,+6.750,+10.125,-11.000,5, -3, 0, 1, -1, 1, -1, 0
1503955986381,+0.519,+0.278,+0.498,+0.637,+0.956,-0.103,-0.313,+4.188,+3.000,-8.312,-6, 1, 3, 4, 3, 11, 13, 10
1503955986396,+0.518,+0.278,+0.497,+0.638,+0.954,-0.099,-0.326,+3.750,-2.875,-8.125,-2, -3, -1, 4, 3, 1, 1, -4
1503955986418,+0.516,+0.278,+0.497,+0.640,+0.917,-0.109,-0.327,+6.375,-3.188,-9.250,5, 1, 0, -4, -4, 1, 0, -2
1503955986434,+0.515,+0.278,+0.497,+0.641,+0.918,-0.115,-0.324,+5.125,+1.938,-5.250,34, 6, -2, -4, -2, -5, -6, -1
1503955986456,+0.514,+0.278,+0.497,+0.642,+0.924,-0.130,-0.316,+2.375,+2.125,-3.500,1, -1, -1, 0, -5, 3, 8, 10
1503955986479,+0.513,+0.279,+0.496,+0.642,+0.964,-0.128,-0.303,-0.438,-1.688,-2.625,3, 2, 0, 0, -2, -5, -6, -3
1503955986494,+0.513,+0.279,+0.496,+0.643,+0.964,-0.126,-0.306,-0.875,-5.438,-2.625,8, 7, 5, 1, 0, -3, -6, -6
1503955986517,+0.512,+0.279,+0.495,+0.644,+0.945,-0.144,-0.279,-0.250,-5.375,-5.812,-1, -6, -4, -2, -4, 4, 0, -6
1503955986538,+0.511,+0.280,+0.496,+0.644,+0.939,-0.139,-0.282,+1.062,+3.312,-8.000,5, -1, -2, -1, -3, -9, -7, -7
1503955986554,+0.509,+0.281,+0.496,+0.644,+0.969,-0.131,-0.286,+0.125,+8.625,-8.562,-1, 0, -1, 1, 0, -1, 3, 1
1503955986576,+0.508,+0.283,+0.496,+0.644,+0.957,-0.110,-0.298,-2.562,+6.562,-7.812,-3, -4, -1, -2, -1, 16, 16, -4
1503955986599,+0.507,+0.285,+0.497,+0.644,+0.973,-0.117,-0.307,-4.000,+9.375,-4.562,-10, 0, -1, 0, -1, -4, -5, 1
1503955986622,+0.507,+0.285,+0.498,+0.643,+0.987,-0.135,-0.340,-0.500,+8.062,+2.188,12, 1, -6, -3, -3, -4, -7, -6
1503955986637,+0.508,+0.284,+0.499,+0.643,+0.963,-0.135,-0.308,+1.875,+3.375,+9.562,-12, -4, -2, 1, -2, 0, 0, 2
1503955986659,+0.508,+0.284,+0.501,+0.641,+0.962,-0.157,-0.292,+1.188,+10.125,+12.188,8, 1, 1, 0, -3, 0, -5, 3
1503955986674,+0.509,+0.283,+0.503,+0.639,+0.957,-0.178,-0.282,+0.125,+11.875,+10.750,8, 5, 7, 1, 3, -4, 1, -14
1503955986697,+0.510,+0.283,+0.504,+0.637,+0.964,-0.182,-0.285,-0.938,+8.125,+9.875,-11, -4, -3, -6, -4, 2, 1, 1
1503955986719,+0.510,+0.283,+0.505,+0.636,+0.946,-0.178,-0.290,-0.750,+5.688,+7.688,2, 0, -1, 0, -1, -3, 3, 6
1503955986740,+0.511,+0.282,+0.507,+0.635,+0.938,-0.170,-0.280,+0.562,+4.625,+7.500,-5, 0, 1, 1, 3, 1, -4, 3
1503955986757,+0.511,+0.282,+0.508,+0.634,+0.931,-0.168,-0.275,+1.750,+6.062,+6.812,-12, -5, -6, -3, -2, -2, -3, -1
1503955986781,+0.511,+0.281,+0.509,+0.633,+0.921,-0.166,-0.279,+2.125,+5.938,+6.375,8, -1, -4, -3, -1, 1, 1, 3
1503955986802,+0.512,+0.281,+0.510,+0.632,+0.923,-0.165,-0.295,+0.375,+3.312,+6.375,3, -4, -3, -3, 2, 0, -1, -1
1503955986817,+0.512,+0.280,+0.510,+0.632,+0.930,-0.167,-0.281,-1.375,-0.438,+2.250,-4, -1, 2, 1, -4, -1, 6, -3
1503955994706,+0.638,+0.352,+0.422,+0.539,+0.928,-0.174,-0.381,+13.000,+4.250,+3.312,-5, 1, 0, 11, 8, 6, -4, 1
1503955994721,+0.637,+0.351,+0.424,+0.540,+0.897,-0.168,-0.357,+15.500,+3.938,+1.562,0, -2, 0, -3, -1, -2, -2, -2
1503955994743,+0.635,+0.351,+0.427,+0.540,+0.887,-0.139,-0.352,+14.125,+11.938,+1.562,3, 1, 3, 21, 6, -3, -8, -1
1503955994765,+0.633,+0.352,+0.430,+0.540,+0.921,-0.158,-0.322,+13.688,+18.188,-4.500,-3, -2, -2, -20, -17, -5, -2, -1
1503955994781,+0.630,+0.352,+0.432,+0.540,+0.938,-0.162,-0.317,+14.812,+12.125,-5.062,-13, -2, -2, -4, -1, -8, -1, -3
1503955994804,+0.628,+0.352,+0.435,+0.541,+0.908,-0.178,-0.326,+15.125,+13.500,-4.812,-6, -1, -1, -9, -1, -4, 2, -3
1503955994825,+0.625,+0.353,+0.438,+0.541,+0.931,-0.175,-0.340,+14.375,+14.312,-6.000,0, 2, 5, 16, 6, 4, 3, 2
1503955994842,+0.623,+0.353,+0.440,+0.543,+0.911,-0.159,-0.336,+15.375,+8.812,-6.812,1, -6, -8, -26, -13, 0, 1, -2
1503955994863,+0.620,+0.353,+0.442,+0.543,+0.932,-0.165,-0.345,+13.750,+13.000,-7.375,14, 3, 2, 19, 12, 5, 1, 2
1503955994885,+0.617,+0.354,+0.445,+0.544,+0.949,-0.147,-0.292,+17.188,+19.938,-6.625,-12, 1, 0, -4, 1, 9, 3, -2
1503955994908,+0.613,+0.354,+0.448,+0.545,+0.938,-0.125,-0.339,+23.938,+18.688,-10.312,-2, 4, 1, -11, -5, -4, -1, 1
1503955994923,+0.609,+0.354,+0.452,+0.547,+0.962,-0.172,-0.320,+27.812,+14.812,-12.125,5, -2, -5, 0, 6, -5, -2, 0
1503955994947,+0.605,+0.354,+0.456,+0.549,+0.946,-0.186,-0.297,+26.688,+15.375,-10.562,-1, -4, -3, 1, -6, -3, -5, -2
1503955994968,+0.601,+0.354,+0.459,+0.550,+0.968,-0.179,-0.308,+23.312,+16.438,-8.375,-14, 0, 5, 2, 2, 1, 0, 1
1503955994983,+0.599,+0.353,+0.462,+0.551,+0.980,-0.160,-0.279,+20.500,+10.188,-2.875,0, -3, -4, 4, -9, -2, 0, -2
1503955995011,+0.596,+0.352,+0.465,+0.552,+0.977,-0.165,-0.273,+19.562,+5.812,-1.875,-10, -1, -4, -21, -9, -9, -1, 2
1503955995029,+0.594,+0.351,+0.467,+0.553,+0.958,-0.157,-0.269,+18.750,+6.688,-1.312,-2, 0, 2, 14, 10, 1, 2, -1
1503955995044,+0.592,+0.350,+0.470,+0.553,+0.969,-0.142,-0.267,+17.438,+5.562,+3.438,-3, -1, -1, -5, -2, 1, -2, -1
1503955995073,+0.592,+0.348,+0.472,+0.553,+0.988,-0.159,-0.299,+16.188,+2.750,+9.562,8, 1, 0, 2, 4, 1, -3, -2
1503955995082,+0.593,+0.344,+0.474,+0.552,+0.967,-0.199,-0.306,+13.812,-1.438,+18.250,2, -2, -2, -4, -3, 1, -2, -2
1503955995103,+0.594,+0.340,+0.476,+0.552,+0.941,-0.200,-0.249,+12.500,-9.250,+19.812,-12, -1, 2, 0, 1, 2, 7, 3
1503955995125,+0.595,+0.337,+0.478,+0.551,+0.928,-0.222,-0.238,+10.625,-7.375,+15.875,7, -1, -4, -6, -4, -2, 3, 1
1503956001110,+0.708,+0.341,+0.274,+0.554,+0.848,-0.003,-0.598,+29.938,+48.250,+16.750,-1, -3, 0, -1, -2, -1, -8, -8
1503956001126,+0.705,+0.344,+0.285,+0.552,+0.918,-0.015,-0.575,+34.188,+50.062,+19.312,-1, -1, -3, -3, -1, 0, 8, 4
1503956001148,+0.702,+0.344,+0.294,+0.550,+0.941,-0.044,-0.563,+36.000,+37.062,+18.125,0, -2, -1, -1, 1, -1, -5, -3
1503956001170,+0.700,+0.343,+0.303,+0.548,+0.900,-0.100,-0.551,+39.188,+27.812,+19.375,-3, 2, -1, -6, -3, -1, 0, 1
1503956001186,+0.698,+0.341,+0.312,+0.546,+0.859,-0.087,-0.538,+38.312,+30.688,+21.812,-2, 2, 0, -7, -2, -2, 0, -1
1503956001207,+0.696,+0.341,+0.322,+0.544,+0.822,-0.082,-0.517,+39.812,+37.188,+22.938,-1, -1, -1, 1, 0, 0, 1, 3
1503956001230,+0.694,+0.340,+0.332,+0.541,+0.838,-0.116,-0.516,+40.562,+39.500,+20.938,-2, -3, -1, -3, -2, 1, -5, -3
1503956001247,+0.690,+0.340,+0.343,+0.539,+0.866,-0.120,-0.489,+44.562,+43.562,+20.750,-2, -1, 1, -3, -1, -1, 2, -1
1503956001267,+0.687,+0.338,+0.353,+0.537,+0.862,-0.140,-0.495,+48.875,+40.688,+21.125,-1, -4, -1, 4, -1, -2, 3, 2
1503956001291,+0.684,+0.335,+0.364,+0.536,+0.857,-0.137,-0.488,+52.875,+31.500,+22.562,-3, -3, -4, -2, 0, 0, -4, -5
1503956001305,+0.681,+0.331,+0.374,+0.535,+0.826,-0.183,-0.461,+57.062,+22.938,+18.562,5, 8, 3, 0, 0, 0, 3, 1
1503956001327,+0.678,+0.327,+0.383,+0.536,+0.805,-0.199,-0.456,+56.312,+18.812,+10.000,1, -2, -1, -1, 2, 1, 0, -3
1503956001350,+0.673,+0.324,+0.391,+0.537,+0.813,-0.188,-0.443,+54.438,+23.625,+3.438,-3, -4, -2, 7, 0, -1, -15, -4
1503956001365,+0.669,+0.320,+0.399,+0.539,+0.828,-0.195,-0.430,+53.438,+17.562,+2.312,0, -1, -4, -2, -3, 0, 9, -2
1503956001388,+0.665,+0.316,+0.406,+0.542,+0.854,-0.207,-0.426,+53.000,+6.938,-0.625,-1, 0, 2, 0, 0, -3, -3, -6
1503956001410,+0.661,+0.311,+0.412,+0.545,+0.833,-0.218,-0.435,+53.062,+3.625,-3.500,2, 3, 4, 5, 0, 1, 3, 2
1503956001426,+0.656,+0.307,+0.418,+0.548,+0.804,-0.218,-0.412,+52.125,+3.375,-6.875,-2, -10, -7, -10, -5, -1, 0, 0
1503956001449,+0.651,+0.303,+0.424,+0.551,+0.828,-0.224,-0.417,+48.812,+7.688,-9.875,0, -4, -4, 0, 0, 0, 2, 2
1503956006654,+0.708,+0.359,+0.249,+0.555,+0.767,+0.146,-0.675,+10.375,+29.812,-1.062,-3, -13, -13, -5, -7, -3, 0, -2
1503956006675,+0.706,+0.361,+0.252,+0.554,+0.823,+0.124,-0.640,+11.688,+29.562,+5.688,0, -2, 0, 1, -1, -1, -5, -4
1503956006690,+0.705,+0.362,+0.256,+0.554,+0.857,+0.113,-0.661,+14.875,+19.562,+11.375,6, 6, 16, 3, 4, 2, -4, -8
1503956006712,+0.705,+0.361,+0.261,+0.552,+0.822,+0.071,-0.663,+19.188,+18.562,+20.062,1, -5, 1, 5, 7, 0, -8, 6
1503956006735,+0.705,+0.359,+0.266,+0.550,+0.839,+0.058,-0.647,+23.750,+20.750,+26.125,3, 5, 16, 31, 13, 3, -3, 1
1503956006750,+0.705,+0.357,+0.273,+0.548,+0.835,+0.020,-0.613,+29.875,+19.500,+28.750,28, -5, -16, -25, -12, -5, 9, 6
1503956006772,+0.705,+0.355,+0.282,+0.546,+0.854,-0.025,-0.578,+37.250,+22.875,+28.562,-13, -7, 29, -8, -10, -4, 1, 7
1503956006795,+0.704,+0.352,+0.292,+0.544,+0.851,-0.057,-0.565,+46.625,+25.062,+26.812,-6, -9, -13, -5, -3, -2, -2, -10
1503956006810,+0.702,+0.349,+0.302,+0.543,+0.842,-0.075,-0.541,+50.062,+25.750,+25.438,12, 5, -15, -9, -4, -1, 1, 7
1503956006833,+0.700,+0.345,+0.313,+0.542,+0.862,-0.124,-0.519,+54.375,+22.125,+20.125,-3, 0, -16, -11, 2, 2, -3, -1
1503956006855,+0.697,+0.341,+0.322,+0.543,+0.853,-0.119,-0.510,+53.750,+14.812,+10.188,-14, -15, -32, 0, -3, 1, -6, -13
1503956006871,+0.693,+0.337,+0.330,+0.545,+0.842,-0.115,-0.494,+54.562,+13.250,+4.500,2, 9, 4, 9, 5, 4, 3, -2
1503956006893,+0.690,+0.332,+0.339,+0.547,+0.816,-0.126,-0.501,+56.500,+14.750,+5.438,-9, -3, 6, 4, -4, -4, -4, -12
1503956006914,+0.686,+0.328,+0.347,+0.548,+0.811,-0.145,-0.492,+57.250,+13.062,+5.312,1, 0, 1, -3, -4, -1, -3, 4
1503956006930,+0.682,+0.324,+0.355,+0.551,+0.824,-0.142,-0.477,+56.312,+11.688,+1.750,-11, 3, -7, 23, 6, 2, -3, -2
1503956006956,+0.678,+0.319,+0.363,+0.553,+0.835,-0.148,-0.455,+55.938,+7.375,-0.312,-14, -14, -10, -9, -2, -6, -6, -3
1503956006974,+0.675,+0.314,+0.369,+0.556,+0.816,-0.143,-0.473,+53.125,+1.625,-1.250,3, 0, -3, 4, 0, 0, 5, -4
1503956006991,+0.671,+0.309,+0.375,+0.560,+0.815,-0.153,-0.454,+50.812,-2.875,-3.500,0, -7, -28, 1, -1, -4, -6, -8
1503956007012,+0.668,+0.304,+0.379,+0.564,+0.807,-0.157,-0.475,+48.312,-4.125,-9.938,-2, -4, -4, -4, -1, -1, -12, -6
1503956007035,+0.663,+0.300,+0.383,+0.568,+0.803,-0.148,-0.472,+45.750,-2.375,-14.250,-2, -7, -7, -2, -2, -1, -5, 3
1503956007050,+0.659,+0.297,+0.387,+0.573,+0.824,-0.154,-0.467,+42.438,-3.438,-16.125,1, 3, 27, 15, 4, 0, 2, -5
1503956015218,+0.489,+0.318,+0.506,+0.636,+0.998,-0.117,-0.262,-11.062,-19.188,+4.875,-2, -2, 0, 4, 0, -3, -3, -2
1503956015239,+0.491,+0.318,+0.504,+0.636,+0.987,-0.098,-0.231,-10.312,-10.688,+4.875,-1, -2, -2, -9, -7, -1, -4, 1
1503956015262,+0.493,+0.317,+0.503,+0.636,+0.937,-0.083,-0.221,-8.750,-15.500,+7.625,-2, 0, 0, 0, -1, 1, -1, 0
1503956015280,+0.495,+0.316,+0.501,+0.635,+0.908,-0.107,-0.243,-10.438,-8.812,+7.375,-1, -2, 0, 5, -1, -3, -8, 0
1503956015299,+0.497,+0.317,+0.500,+0.634,+0.938,-0.124,-0.245,-14.688,-1.625,+3.188,2, -1, 0, -2, 2, -1, 9, 0
1503956015322,+0.497,+0.318,+0.500,+0.634,+0.953,-0.089,-0.273,-9.875,+4.562,+0.938,0, 0, -1, 1, 1, 1, 2, 2
1503956015338,+0.497,+0.318,+0.499,+0.635,+0.986,-0.082,-0.295,-3.125,-2.750,-4.875,-2, -2, -3, -2, -1, -3, 2, -1
1503956015359,+0.497,+0.318,+0.496,+0.637,+1.009,-0.101,-0.258,-2.688,-17.438,-11.125,2, -1, 0, -2, 0, 3, 3, 6
1503956015382,+0.497,+0.317,+0.493,+0.639,+0.986,-0.099,-0.228,-4.250,-23.750,-12.000,-3, 0, -1, 2, 1, -3, -2, -2
1503956015397,+0.497,+0.317,+0.490,+0.642,+0.893,-0.085,-0.244,-5.938,-19.125,-13.188,2, -2, -3, -1, -4, -4, -6, 0
1503956015421,+0.497,+0.318,+0.488,+0.643,+0.860,-0.037,-0.268,-9.688,-10.062,-9.188,1, 0, -1, 2, 0, 1, -4, 0
1503956015442,+0.497,+0.320,+0.486,+0.643,+0.923,-0.034,-0.285,-11.688,+0.500,-4.062,-2, 0, 2, 14, 7, -1, -5, -5
1503956015457,+0.498,+0.321,+0.485,+0.643,+0.995,-0.036,-0.291,-9.812,+2.750,+0.062,-1, -2, -1, -2, -2, -1, -1, 0
1503956015482,+0.499,+0.322,+0.484,+0.642,+1.027,-0.056,-0.294,-10.438,-5.125,+3.062,-1, -1, 0, -3, 3, 1, 8, -1
1503956015502,+0.500,+0.322,+0.482,+0.643,+0.986,-0.045,-0.296,-11.438,-12.875,+0.250,1, -2, -1, -1, -1, 0, 2, 1
1503956015518,+0.502,+0.321,+0.478,+0.645,+0.956,-0.039,-0.288,-10.188,-24.688,-2.375,-3, 1, 1, 1, 0, 1, 0, -2
1503956015539,+0.504,+0.321,+0.475,+0.646,+0.923,-0.045,-0.302,-11.375,-22.500,+0.312,-2, -1, -1, 4, -1, -1, 0, 0
1503956015562,+0.507,+0.320,+0.472,+0.646,+0.915,-0.054,-0.312,-13.688,-14.688,+7.062,-1, -2, 0, -1, 2, 0, 6, 1
1503956015577,+0.509,+0.320,+0.471,+0.646,+0.948,-0.060,-0.295,-13.500,-7.438,+8.375,0, -1, -3, -1, -2, -1, 4, -1
1503956015599,+0.511,+0.320,+0.469,+0.645,+0.990,-0.055,-0.297,-11.625,-9.375,+4.250,-9, -1, 0, -5, -5, 1, 0, -1
1503956015622,+0.512,+0.321,+0.467,+0.646,+0.996,-0.046,-0.325,-11.438,-10.500,+1.625,1, -2, -2, 3, -2, -2, -5, -2
1503956015637,+0.513,+0.321,+0.465,+0.646,+0.935,-0.034,-0.318,-9.062,-13.125,+0.688,0, -2, -1, -6, -2, -2, 6, 1
1503956015659,+0.514,+0.320,+0.463,+0.647,+0.891,-0.041,-0.329,-8.438,-11.562,-0.688,0, 0, -2, -3, 1, 1, 7, -1
1503956015683,+0.515,+0.321,+0.461,+0.647,+0.917,-0.067,-0.312,-10.000,-6.562,-0.812,1, 0, -1, -2, 0, 0, 0, -1
1503956015697,+0.517,+0.321,+0.460,+0.647,+0.983,-0.065,-0.325,-10.062,-8.562,+1.875,1, 1, 1, -3, -4, -3, -5, 0
1503956021682,+0.667,+0.342,+0.307,+0.587,+0.834,-0.009,-0.538,-1.250,+1.562,+0.250,-1, -1, -1, -7, 0, -1, 6, 1
1503956021704,+0.667,+0.343,+0.307,+0.587,+0.840,-0.018,-0.542,-2.062,+1.500,+0.188,0, 0, -1, -2, 0, -1, -5, 3
1503956021720,+0.666,+0.343,+0.307,+0.587,+0.850,-0.006,-0.535,-2.125,+0.000,-0.812,0, -1, 0, 0, -2, 1, 3, 0
1503956021741,+0.666,+0.343,+0.307,+0.587,+0.842,-0.002,-0.530,-2.188,-0.938,-0.688,1, 0, -2, -6, 1, -2, -5, 1
1503956021764,+0.666,+0.343,+0.306,+0.587,+0.831,+0.005,-0.531,-1.875,-1.312,-0.062,-1, 0, -1, 3, 0, 0, -4, -4
1503956021780,+0.666,+0.343,+0.306,+0.587,+0.826,+0.004,-0.532,-2.062,-0.312,-0.125,-1, -1, 1, 0, 1, -1, 0, 1
1503956021802,+0.666,+0.343,+0.306,+0.587,+0.839,+0.008,-0.526,-1.938,+0.688,+0.062,0, -2, -1, -3, -3, 0, -2, -4
1503956021827,+0.666,+0.343,+0.306,+0.587,+0.846,-0.002,-0.517,-1.312,+0.938,+0.188,-1, -3, -1, -1, 2, 2, 8, 3
1503956021840,+0.666,+0.343,+0.307,+0.587,+0.839,-0.003,-0.536,-0.938,+1.875,+0.125,-1, -1, -2, 1, 0, -2, -2, -2
1503956021862,+0.666,+0.343,+0.307,+0.587,+0.839,-0.010,-0.532,-1.125,+0.688,+0.062,1, 2, 1, 8, 5, 0, -6, 1
1503956021884,+0.666,+0.343,+0.307,+0.587,+0.839,-0.002,-0.535,-1.375,+0.125,+0.062,-1, -2, -1, 7, 0, -1, 2, -1
1503956021900,+0.666,+0.343,+0.307,+0.587,+0.836,+0.003,-0.541,-1.375,+1.000,-0.375,0, -4, -3, -4, -4, -1, -1, -1
1503956021921,+0.666,+0.343,+0.307,+0.587,+0.842,-0.001,-0.527,-1.625,+0.312,-0.125,0, -1, -2, 0, -1, 1, 5, 0
1503956021944,+0.666,+0.344,+0.307,+0.587,+0.842,-0.003,-0.527,-1.812,+0.938,-0.500,-1, -1, 0, -2, -2, 1, -5, -3
1503956021960,+0.666,+0.344,+0.307,+0.587,+0.843,+0.001,-0.526,-1.438,+1.375,-0.500,-1, 0, 0, -3, -3, 0, -2, -3
1503956021981,+0.665,+0.344,+0.307,+0.587,+0.845,-0.004,-0.515,-0.375,+0.562,-0.500,0, 0, -2, -2, -1, -2, -4, 4
1503956022004,+0.665,+0.344,+0.307,+0.587,+0.837,-0.000,-0.526,+0.438,+2.375,-0.812,-3, -1, -2, -3, -3, -2, -2, 1
1503956022020,+0.664,+0.345,+0.308,+0.587,+0.832,-0.001,-0.527,+0.625,+3.812,-1.625,1, 0, 3, 9, 2, 0, 1, -3
1503956022043,+0.664,+0.345,+0.308,+0.587,+0.833,+0.006,-0.529,+1.125,+4.875,-1.438,0, -2, -5, -1, 0, 0, 0, 1
1503956022065,+0.663,+0.345,+0.309,+0.587,+0.828,+0.008,-0.522,+0.938,+4.812,+0.312,0, -1, 1, 0, 2, 0, 1, 0
