Timestamp,Orientation X,Orientation Y,Orientation Z,Orientation W,Accelerometer X,Accelerometer Y,Accelerometer Z,Gyroscope X,Gyroscope Y,Gyroscope Z,EMG1,EMG2,EMG3,EMG4,EMG5,EMG6,EMG7,EMG8
1503617774408,+0.475,+0.512,-0.382,-0.605,+0.990,-0.238,-0.133,-1.188,+1.062,-5.812,3, -1, 3, 6, 6, -4, -2, -4
1503617774430,+0.476,+0.512,-0.383,-0.604,+1.004,-0.225,-0.146,+0.750,+1.688,-3.188,0, -6, -1, -8, -26, -8, -9, -7
1503617774460,+0.476,+0.512,-0.383,-0.604,+0.967,-0.251,-0.139,+2.812,+0.812,-3.125,12, 14, 9, 4, 9, 8, 12, 12
1503617774472,+0.477,+0.513,-0.383,-0.603,+0.973,-0.251,-0.135,+2.375,+2.562,-2.812,20, -3, -3, 2, 9, 4, 2, -2
1503617774490,+0.477,+0.513,-0.384,-0.602,+0.952,-0.263,-0.124,+1.062,+1.875,-6.688,-9, -4, -6, -2, 0, -5, 1, 5
1503617774512,+0.478,+0.512,-0.384,-0.602,+0.983,-0.262,-0.129,-2.875,-4.062,-8.688,-1, -5, -8, 1, -2, 4, 8, 4
1503617774527,+0.479,+0.510,-0.385,-0.602,+1.013,-0.226,-0.126,-6.375,-2.625,-6.438,31, 18, 8, 5, 4, -2, -3, 18
1503617774593,+0.479,+0.510,-0.386,-0.602,+1.021,-0.197,-0.144,-4.125,-1.625,-1.812,-10, 7, 6, 3, -5, 7, -4, 15
1503617774594,+0.479,+0.509,-0.386,-0.602,+0.974,-0.231,-0.129,-4.000,-2.500,+1.500,-12, 2, -1, 1, 7, 2, -6, -5
1503617774597,+0.478,+0.508,-0.385,-0.604,+0.905,-0.264,-0.124,-8.500,-5.312,+4.188,-33, -18, -9, -3, 9, -4, -3, -7
1503617774610,+0.477,+0.508,-0.385,-0.605,+0.961,-0.220,-0.156,-10.500,-1.250,+7.188,14, 9, 6, 3, 0, -3, 2, 7
1503617774632,+0.477,+0.507,-0.385,-0.606,+1.021,-0.186,-0.181,-3.625,-1.750,+4.562,7, 0, 9, 1, 10, 1, 7, 13
1503617774647,+0.477,+0.507,-0.385,-0.606,+0.964,-0.248,-0.182,+1.688,+4.125,+2.625,7, -3, -4, 0, -14, -3, -1, 10
1503617774670,+0.476,+0.509,-0.386,-0.605,+0.943,-0.237,-0.140,+0.562,+12.000,+4.750,-39, -15, -6, 1, -1, -8, -1, -7
1503617774692,+0.475,+0.510,-0.386,-0.605,+1.041,-0.285,-0.093,+1.938,+2.500,+4.250,7, -4, 0, -5, -7, 4, -6, -10
1503617774707,+0.475,+0.509,-0.385,-0.605,+0.979,-0.239,-0.161,-0.438,-3.625,-2.188,21, 8, 1, 8, 27, 4, -1, -7
1503617774730,+0.477,+0.509,-0.386,-0.604,+0.877,-0.228,-0.215,+3.375,+3.688,-9.312,12, 1, -2, -4, -4, -1, -1, -5
1503617774752,+0.477,+0.509,-0.387,-0.603,+0.939,-0.254,-0.121,-1.438,+2.188,-10.125,-12, -17, -14, -8, -8, 8, 10, -1
1503617774767,+0.478,+0.509,-0.387,-0.603,+1.056,-0.321,-0.021,-4.500,-6.375,-8.312,20, -4, -8, 0, -5, -2, -1, 3
1503617774793,+0.480,+0.505,-0.388,-0.603,+1.033,-0.253,-0.139,-10.000,-13.688,-16.938,-3, -11, -6, -7, 5, 3, 5, 51
1503617774812,+0.483,+0.502,-0.390,-0.603,+0.897,-0.173,-0.201,-7.938,-7.938,-20.375,-11, 5, -1, -2, -15, -13, -5, -20
1503617774834,+0.485,+0.500,-0.391,-0.602,+0.960,-0.218,-0.183,-2.750,-3.312,-17.188,15, 26, 3, -2, 2, -3, 4, 15
1503617774850,+0.485,+0.499,-0.392,-0.601,+0.978,-0.281,-0.097,-9.125,-2.312,-17.125,-10, -21, -2, 2, -2, -2, -2, -17
1503617774872,+0.486,+0.495,-0.393,-0.603,+1.004,-0.255,-0.022,-19.250,-26.188,-8.562,-19, -5, 3, 2, 1, -1, 0, -2
1503617774894,+0.489,+0.490,-0.393,-0.605,+1.033,-0.137,-0.168,-20.312,-25.062,-12.750,-10, -4, 0, 3, 9, -1, -2, -75
1503617774910,+0.491,+0.486,-0.393,-0.607,+0.998,-0.155,-0.166,-14.500,-25.188,-5.812,-19, -47, -17, -7, 1, -6, -14, -33
1503617774933,+0.494,+0.481,-0.391,-0.610,+0.956,-0.198,-0.157,-15.438,-33.375,-8.875,-2, -5, -12, -4, -1, 4, 8, 20
1503617774955,+0.495,+0.477,-0.389,-0.613,+0.942,-0.235,-0.167,-18.938,-35.438,-4.688,9, 13, 17, 6, 6, 3, 6, 23
1503617774970,+0.497,+0.471,-0.388,-0.617,+0.921,-0.205,-0.229,-24.875,-35.125,-6.938,-17, 12, 5, -2, 1, 0, -8, -39
1503617774993,+0.499,+0.465,-0.387,-0.620,+0.956,-0.185,-0.252,-24.938,-29.188,-8.625,9, 21, 8, 3, -9, -5, 5, 54
1503617775015,+0.501,+0.459,-0.387,-0.623,+0.990,-0.174,-0.254,-23.312,-30.375,-7.062,13, -3, -7, -3, -1, 2, 4, 69
1503617775030,+0.503,+0.454,-0.385,-0.626,+0.954,-0.145,-0.291,-16.188,-30.438,-5.938,-3, -8, -4, 1, -2, -1, -4, -8
1503617775052,+0.505,+0.450,-0.384,-0.628,+0.884,-0.183,-0.239,-15.938,-26.250,-11.562,-14, -6, 1, -1, -1, -1, -2, -57
1503617775075,+0.506,+0.446,-0.384,-0.630,+0.940,-0.175,-0.292,-18.000,-14.875,-3.312,15, 3, 2, -3, 3, 1, 4, 0
1503617775093,+0.507,+0.443,-0.384,-0.632,+1.049,-0.136,-0.283,-12.562,-15.500,-3.125,-26, 1, -2, -2, -1, 3, 7, 24
1503617775113,+0.508,+0.440,-0.384,-0.633,+1.017,-0.128,-0.257,-9.500,-19.375,-3.125,4, 1, 1, 1, 6, -5, -13, -7
1503617775135,+0.510,+0.438,-0.382,-0.635,+0.958,-0.167,-0.288,-4.875,-21.500,-1.062,-6, -10, 1, 0, -8, -7, -9, -7
1503617775151,+0.511,+0.436,-0.378,-0.637,+0.932,-0.175,-0.308,+1.625,-25.062,+7.000,-5, -27, -12, -11, -2, -5, 2, 3
1503617775173,+0.512,+0.435,-0.377,-0.638,+0.912,-0.154,-0.306,-1.375,-13.562,-1.812,10, 25, 5, 4, -1, -1, 0, -1
1503617775196,+0.512,+0.435,-0.375,-0.639,+0.997,-0.181,-0.309,+0.500,-6.938,+9.812,1, 10, -2, 0, -9, 3, -6, -34
1503617775210,+0.512,+0.435,-0.374,-0.639,+0.981,-0.147,-0.302,+3.688,-4.812,+4.312,4, -20, -5, -1, 3, -1, 1, 9
1503617775233,+0.513,+0.436,-0.373,-0.638,+0.972,-0.152,-0.266,+7.125,-2.625,+1.188,-13, 24, 9, 4, -5, -3, -6, -38
1503617775248,+0.514,+0.438,-0.372,-0.637,+1.016,-0.166,-0.292,+13.312,-1.562,+1.938,-5, -21, -8, -3, -7, -8, -1, -25
1503617775270,+0.514,+0.441,-0.371,-0.635,+0.991,-0.144,-0.310,+23.312,+7.188,+4.062,-11, 11, 8, 2, 14, 11, 10, 13
1503617775293,+0.514,+0.446,-0.370,-0.632,+1.001,-0.137,-0.289,+29.062,+19.750,+6.125,8, 26, 15, 5, 8, -3, -1, -12
1503617775315,+0.512,+0.452,-0.367,-0.632,+1.100,-0.339,-0.418,+22.688,+16.375,+24.500,8, 40, 19, 4, 1, 2, 2, 12
1503617775331,+0.509,+0.457,-0.363,-0.633,+1.148,-0.263,-0.319,+24.312,+3.938,+33.938,-3, -13, -11, -1, 2, 0, 2, 7
1503617778210,+0.549,+0.516,-0.404,-0.519,+1.047,-0.062,-0.086,+2.250,+4.625,-1.938,-15, 0, 3, 2, -7, -4, -2, -2
1503617778232,+0.549,+0.517,-0.404,-0.518,+0.987,-0.079,-0.099,+2.625,+2.250,-1.312,8, 12, -4, 2, -1, -1, 0, 1
1503617778253,+0.549,+0.517,-0.404,-0.518,+0.980,-0.097,-0.073,+0.438,+1.625,+1.562,13, -8, -9, -3, -8, -1, -2, -5
1503617778270,+0.547,+0.518,-0.404,-0.518,+0.977,-0.104,-0.084,-3.312,+6.562,+5.312,-9, -4, -9, -3, 4, -2, 2, -1
1503617778292,+0.547,+0.518,-0.404,-0.519,+1.010,-0.104,-0.067,-3.562,-3.188,+0.312,29, 2, 14, 2, -2, 1, -2, 1
1503617778314,+0.547,+0.517,-0.404,-0.520,+1.018,-0.106,-0.076,-7.312,-6.000,+2.062,-3, -16, 7, 4, 1, 0, 1, 7
1503617778330,+0.547,+0.516,-0.404,-0.521,+0.947,-0.094,-0.112,-8.000,-2.312,+1.438,2, 4, -10, -5, -4, -1, 2, 4
1503617778352,+0.547,+0.515,-0.404,-0.521,+1.035,-0.071,-0.079,-7.438,-4.125,-0.625,0, 0, 1, -2, 0, -2, -7, -6
1503617778375,+0.547,+0.515,-0.405,-0.522,+1.101,-0.057,-0.095,-3.250,-3.000,+2.062,2, -4, -6, 1, 7, 9, 7, 2
1503617778390,+0.547,+0.515,-0.405,-0.522,+1.022,-0.095,-0.052,-1.812,-1.562,+0.000,1, -5, -6, 5, -2, -1, 3, 0
1503617778412,+0.546,+0.515,-0.404,-0.523,+0.986,-0.075,-0.104,-3.812,-2.000,+6.062,-11, -6, -1, -1, -1, -1, -1, -5
1503617778434,+0.545,+0.516,-0.403,-0.524,+0.953,-0.086,-0.139,-0.250,+4.438,+15.562,2, -4, 3, 2, -2, -1, -5, -7
1503617778450,+0.544,+0.517,-0.404,-0.524,+0.965,-0.079,-0.091,-3.438,+6.688,+5.938,2, -1, -3, -4, -4, -4, -2, 3
1503617778472,+0.544,+0.516,-0.403,-0.525,+1.058,-0.120,-0.072,-1.250,-6.562,+1.812,12, 11, 1, 2, 15, 3, 5, 2
1503617778494,+0.545,+0.515,-0.403,-0.524,+0.999,-0.070,-0.142,+1.500,-5.812,-5.000,7, 14, 1, -1, -13, 2, 4, 6
1503617778510,+0.548,+0.514,-0.402,-0.524,+0.953,-0.072,-0.109,+3.438,-11.188,-10.062,-4, 11, 8, 4, 8, -3, -6, -8
1503617778532,+0.547,+0.514,-0.401,-0.525,+1.035,-0.160,-0.121,-2.125,-5.062,+4.312,11, 22, 1, 4, 1, 0, 1, 5
1503617778554,+0.548,+0.513,-0.401,-0.525,+0.997,-0.079,-0.038,-0.312,-8.188,-0.188,-18, -23, -5, -4, 7, -1, -4, -7
1503617778576,+0.550,+0.512,-0.398,-0.526,+1.059,-0.147,-0.093,+3.625,-23.062,-4.000,-1, -3, -1, 2, 20, 8, 4, -5
1503617778592,+0.552,+0.509,-0.397,-0.528,+0.986,-0.132,-0.109,-7.688,-26.500,-4.438,7, 18, 4, 2, -8, -1, 5, 1
1503617778614,+0.554,+0.505,-0.397,-0.529,+0.916,-0.023,-0.184,-8.750,-13.312,-8.250,-3, -18, -9, -13, -29, 1, -1, -1
1503617778636,+0.554,+0.505,-0.398,-0.529,+0.972,-0.012,-0.167,-3.938,+0.125,+1.500,12, 3, 7, 0, 12, 0, 3, 10
1503617778652,+0.554,+0.505,-0.396,-0.530,+1.058,-0.120,-0.032,+3.938,-11.188,+8.375,-14, 1, -3, 0, -1, -2, -9, 10
1503617778676,+0.555,+0.504,-0.393,-0.532,+1.054,-0.224,-0.067,-2.062,-27.000,+0.312,-11, -17, -3, 4, -5, 0, 1, 2
1503617778696,+0.557,+0.500,-0.393,-0.534,+0.951,-0.081,-0.172,-15.625,-19.938,-8.312,21, -1, -2, -3, 3, 1, -2, -28
1503617778713,+0.558,+0.497,-0.393,-0.536,+0.924,+0.013,-0.229,-11.500,-13.562,+0.562,12, 6, 1, -2, -2, -3, 3, 26
1503617778734,+0.558,+0.496,-0.393,-0.536,+1.038,-0.049,-0.119,-6.688,-4.125,+4.750,-3, -4, 1, 4, -4, -4, 0, -26
1503617778756,+0.558,+0.496,-0.391,-0.538,+1.081,-0.185,-0.087,+0.938,-18.562,+4.062,3, -6, -4, -3, 1, 2, -3, 16
1503617778772,+0.560,+0.492,-0.390,-0.541,+0.960,-0.141,-0.138,-13.500,-32.875,-6.750,-11, 12, 11, 2, -1, -1, -5, -25
1503617778794,+0.563,+0.486,-0.389,-0.543,+0.901,-0.029,-0.222,-18.375,-30.062,-10.500,-3, 24, 4, 4, 4, 8, 3, 15
1503617778817,+0.565,+0.483,-0.389,-0.545,+0.959,-0.056,-0.171,-11.250,-16.938,-3.000,28, -2, -5, -3, -3, -2, 6, 60
1503617778834,+0.565,+0.480,-0.389,-0.546,+1.011,-0.113,-0.141,-10.375,-19.312,-3.000,-9, -10, -3, -2, -11, -1, -6, -66
1503617778855,+0.567,+0.476,-0.388,-0.548,+0.978,-0.097,-0.186,-14.000,-26.250,-10.875,-5, 0, -4, -3, -13, -2, -2, -19
1503617778877,+0.570,+0.472,-0.388,-0.550,+0.992,-0.055,-0.240,-13.938,-26.125,-7.625,-20, -7, -11, -9, -13, -15, -14, 31
1503617778892,+0.571,+0.468,-0.387,-0.552,+1.039,-0.053,-0.206,-10.750,-22.812,-2.688,-10, -13, -9, 1, 1, 2, 1, -9
1503617778915,+0.572,+0.466,-0.386,-0.554,+1.028,-0.069,-0.190,-8.625,-24.250,+2.062,3, -8, 5, 3, 10, 1, -1, 5
1503617778936,+0.573,+0.463,-0.385,-0.556,+0.964,-0.038,-0.224,-9.812,-21.875,-0.188,4, 11, 9, -2, 2, -2, 1, -9
1503617778954,+0.574,+0.460,-0.383,-0.558,+0.970,-0.042,-0.241,-6.750,-19.688,+4.125,-8, 13, 3, 1, 6, -3, -2, 5
1503617778977,+0.574,+0.459,-0.382,-0.560,+0.993,-0.043,-0.246,-6.875,-14.000,+10.375,-16, -10, -5, -2, 0, -3, -4, -8
1503617778996,+0.573,+0.458,-0.380,-0.563,+1.004,-0.076,-0.309,-6.938,-8.688,+17.312,-2, -2, 4, -1, -1, 0, 8, 46
1503617779012,+0.572,+0.458,-0.378,-0.566,+1.054,-0.036,-0.275,-3.000,-10.312,+20.062,-2, -20, -4, 6, 12, -5, -8, -19
1503617779035,+0.571,+0.458,-0.375,-0.569,+1.067,-0.030,-0.266,-0.500,-17.312,+25.688,8, -6, -8, -5, -3, -2, 1, -17
1503617779056,+0.571,+0.458,-0.371,-0.572,+1.035,-0.035,-0.298,+3.875,-19.125,+30.562,8, 5, 0, 1, 0, 2, 7, 25
1503617779072,+0.569,+0.458,-0.366,-0.577,+1.018,-0.072,-0.309,+5.250,-17.438,+39.625,-6, 0, 0, -1, 2, -1, -2, -22
1503617779094,+0.566,+0.461,-0.360,-0.581,+1.034,-0.037,-0.378,+10.812,-7.438,+50.812,1, -19, -11, -3, 4, 1, 3, 44
1503617779116,+0.561,+0.466,-0.353,-0.586,+1.018,-0.071,-0.342,+19.250,-0.625,+64.938,-1, 15, 3, -5, -3, -1, -4, -23
1503617779132,+0.555,+0.472,-0.346,-0.591,+0.994,-0.118,-0.301,+21.062,+2.125,+74.875,-3, -8, -6, 0, -2, 0, 0, -1
1503617779155,+0.549,+0.480,-0.337,-0.596,+0.990,-0.154,-0.339,+29.875,+7.188,+83.188,0, -8, 1, -2, 5, 0, 1, 18
1503617779179,+0.542,+0.489,-0.327,-0.601,+1.009,-0.201,-0.337,+37.062,+7.500,+91.438,-4, 0, 1, 1, 1, 1, 1, 14
1503617779192,+0.534,+0.498,-0.315,-0.607,+1.019,-0.270,-0.285,+37.375,-4.250,+99.250,-4, 11, 2, -2, 12, 3, 1, 26
1503617779214,+0.527,+0.506,-0.301,-0.613,+0.952,-0.290,-0.236,+38.062,-13.875,+100.438,7, 6, 0, 4, -3, -1, 1, 14
1503617779236,+0.520,+0.514,-0.286,-0.619,+0.854,-0.328,-0.262,+45.125,-18.188,+100.438,-2, -18, -12, -3, -3, -5, -2, -14
1503617781794,+0.515,+0.513,-0.434,-0.532,+1.055,-0.038,-0.053,-4.062,-7.062,-5.188,10, -9, -4, 2, -36, 5, 4, -1
1503617781816,+0.515,+0.513,-0.434,-0.532,+1.059,-0.058,-0.070,+0.000,+2.750,+1.562,2, -5, -2, -3, -3, -9, -4, -5
1503617781832,+0.515,+0.514,-0.434,-0.532,+0.973,-0.133,-0.046,+0.438,+1.625,+0.938,-7, 0, 2, -4, 4, -2, -1, -2
1503617781855,+0.515,+0.514,-0.434,-0.532,+0.993,-0.125,-0.034,-0.875,-0.188,-0.688,-19, -4, -5, 1, 12, 2, 0, -3
1503617781876,+0.515,+0.514,-0.434,-0.532,+1.016,-0.102,-0.022,-2.688,-2.375,-1.250,28, 16, 6, 0, 4, -2, 2, 0
1503617781892,+0.516,+0.512,-0.434,-0.532,+1.004,-0.104,-0.041,-3.812,-10.000,-3.438,-15, 9, -3, -2, -6, -4, -9, -10
1503617781913,+0.516,+0.511,-0.433,-0.534,+0.997,-0.090,-0.050,-6.500,-12.188,-2.375,-23, -21, -12, -11, -6, -5, -18, -29
1503617781936,+0.516,+0.510,-0.433,-0.535,+1.017,-0.084,-0.032,-7.625,-9.625,+2.500,31, 15, 14, 3, 4, 1, 4, -2
1503617781952,+0.517,+0.508,-0.432,-0.537,+1.041,-0.088,-0.061,-7.062,-12.688,+4.250,5, 5, 1, -1, -17, -4, -2, 11
1503617781973,+0.518,+0.506,-0.431,-0.538,+1.014,-0.088,-0.070,-5.938,-17.250,+1.500,-24, -21, -19, -5, 4, 0, -4, 7
1503617782004,+0.519,+0.504,-0.431,-0.540,+0.965,-0.076,-0.072,-7.375,-14.125,-4.062,-21, -5, -9, -3, 3, 2, 6, 0
1503617782021,+0.519,+0.503,-0.430,-0.541,+0.991,-0.124,-0.083,-6.688,-12.125,-0.625,-61, -7, 25, 14, 7, 0, -2, 6
1503617782036,+0.520,+0.501,-0.430,-0.543,+1.001,-0.110,-0.084,-9.250,-13.875,-2.188,5, 0, -4, -6, 6, -4, -3, -16
1503617782056,+0.521,+0.498,-0.429,-0.544,+1.017,-0.100,-0.098,-9.438,-13.188,-1.938,-6, 7, 0, -5, 4, 6, 3, -14
1503617782072,+0.522,+0.496,-0.429,-0.546,+0.995,-0.103,-0.108,-8.750,-13.562,-4.438,23, -4, -14, -4, -7, -5, 1, 10
1503617782094,+0.523,+0.493,-0.428,-0.547,+0.967,-0.095,-0.112,-8.062,-15.625,-8.000,1, 28, 29, 8, 0, -1, -2, 8
1503617782116,+0.525,+0.491,-0.428,-0.548,+0.985,-0.107,-0.103,-7.000,-15.625,-10.188,-2, -13, -14, -6, -2, 0, 2, -20
1503617782139,+0.527,+0.488,-0.429,-0.549,+1.016,-0.086,-0.125,-10.250,-13.625,-12.188,-4, 5, 11, 3, 0, -1, -1, 10
1503617782156,+0.528,+0.485,-0.430,-0.549,+1.013,-0.062,-0.119,-10.250,-7.562,-12.125,-3, -4, -3, -1, -3, -1, -8, -6
1503617782176,+0.530,+0.482,-0.429,-0.550,+1.042,-0.064,-0.094,-7.562,-24.562,-10.500,-25, 3, -1, -1, -6, -1, 1, 3
1503617782199,+0.534,+0.477,-0.427,-0.552,+1.059,-0.108,-0.122,-7.312,-37.625,-11.500,-13, -16, -9, -2, 1, -4, -5, -1
1503617782213,+0.536,+0.472,-0.427,-0.554,+0.972,-0.060,-0.108,-14.062,-33.750,-14.375,-11, 6, 6, 0, -2, 2, 6, 7
1503617782237,+0.539,+0.468,-0.425,-0.557,+0.991,-0.032,-0.181,-11.812,-30.938,-6.000,6, 8, -5, -4, -2, -4, -7, -5
1503617782263,+0.542,+0.464,-0.424,-0.558,+0.995,-0.019,-0.144,-5.312,-28.125,-8.188,20, 18, 13, 3, -1, -1, -5, 7
1503617782273,+0.544,+0.460,-0.421,-0.561,+1.001,-0.087,-0.141,-9.375,-38.438,-4.062,14, -5, -3, 0, 1, 0, 2, 8
1503617782296,+0.547,+0.455,-0.419,-0.564,+0.949,-0.064,-0.184,-14.500,-36.312,-6.000,-15, -10, -9, -4, 3, 0, -1, -1
1503617782318,+0.548,+0.451,-0.419,-0.566,+0.904,-0.007,-0.226,-13.125,-20.875,-6.875,-15, -3, -3, -1, -5, -3, 2, -1
1503617782334,+0.549,+0.448,-0.419,-0.568,+0.998,-0.031,-0.191,-11.562,-15.000,-0.812,-11, 4, 2, -3, 7, 6, -4, -17
1503617782356,+0.549,+0.446,-0.418,-0.570,+1.040,-0.045,-0.192,-11.375,-19.625,+0.938,-14, -11, -11, -1, 0, 3, 2, 6
1503617782378,+0.551,+0.442,-0.417,-0.572,+0.992,-0.046,-0.198,-9.125,-24.875,-5.062,-1, 2, 5, 4, -2, -6, -2, 2
1503617782396,+0.553,+0.439,-0.416,-0.574,+0.965,-0.034,-0.225,-10.250,-24.812,-3.250,1, 0, 0, -2, -1, -5, -2, -2
1503617782416,+0.553,+0.436,-0.415,-0.576,+1.006,-0.028,-0.213,-12.000,-18.875,+3.000,-9, 0, 3, 1, 1, 0, -6, -40
1503617782439,+0.553,+0.434,-0.414,-0.579,+1.044,-0.027,-0.217,-12.188,-19.938,+5.688,-28, -24, -2, -2, -4, -3, -8, -9
1503617782455,+0.554,+0.431,-0.412,-0.581,+1.024,-0.015,-0.243,-10.250,-24.375,+4.438,7, 12, 1, 1, -2, 0, 2, 18
1503617782476,+0.555,+0.428,-0.410,-0.584,+0.985,-0.021,-0.241,-7.812,-25.188,+6.250,6, 1, -3, -1, -3, -3, 1, -7
1503617782499,+0.555,+0.426,-0.408,-0.587,+0.977,-0.028,-0.252,-8.312,-20.625,+10.625,-20, -2, -2, -2, 0, -2, -8, -30
1503617782515,+0.554,+0.425,-0.406,-0.590,+0.996,-0.035,-0.245,-9.250,-18.375,+14.188,-11, -1, 2, 0, -8, 1, 6, 39
1503617782537,+0.553,+0.423,-0.404,-0.593,+0.993,-0.018,-0.266,-7.688,-23.312,+17.312,2, 18, 7, 4, 3, 1, -1, -15
1503617782559,+0.551,+0.424,-0.402,-0.596,+0.938,-0.050,-0.280,-3.188,-2.750,+27.062,6, -3, -2, 3, 6, 1, 5, 17
1503617782575,+0.548,+0.426,-0.401,-0.598,+0.932,-0.041,-0.266,-4.062,+8.562,+25.375,8, 6, 11, 0, -3, -1, 1, 18
1503617782598,+0.542,+0.430,-0.402,-0.600,+0.983,-0.069,-0.271,-6.250,+24.312,+32.688,8, -12, -8, -4, -6, 1, -2, -12
1503617782619,+0.537,+0.432,-0.402,-0.603,+1.067,-0.066,-0.287,-14.438,+8.312,+35.812,2, 2, 1, 0, 2, 1, -7, 10
1503617782634,+0.533,+0.433,-0.400,-0.607,+1.062,-0.054,-0.265,-13.250,-0.312,+37.688,-17, -11, -3, -3, -3, -5, -6, -61
1503617782656,+0.528,+0.433,-0.398,-0.612,+1.026,-0.076,-0.272,-10.500,-9.500,+41.438,-8, -5, -3, -2, -1, 1, 4, 19
1503617782678,+0.524,+0.435,-0.394,-0.617,+0.993,-0.100,-0.271,-10.688,-8.750,+45.938,-4, 3, 1, -2, -5, -3, -6, 15
1503617782697,+0.519,+0.436,-0.391,-0.623,+0.973,-0.115,-0.272,-10.250,-7.312,+48.688,6, 15, 6, 3, 1, 3, 3, 19
1503617782716,+0.514,+0.437,-0.387,-0.628,+0.983,-0.128,-0.279,-9.000,-10.938,+50.250,-10, -11, -4, -1, -1, -2, 2, 2
1503617782739,+0.509,+0.438,-0.382,-0.634,+0.970,-0.139,-0.296,-8.688,-15.500,+50.375,7, -2, -1, 3, 5, 1, 2, -7
1503617782754,+0.505,+0.439,-0.378,-0.640,+0.934,-0.160,-0.323,-8.938,-14.875,+49.938,3, 7, 1, 0, -3, 0, -2, 14
1503617782776,+0.500,+0.440,-0.373,-0.646,+0.909,-0.166,-0.316,-6.938,-9.938,+50.125,1, 3, -1, -3, 7, -2, 3, 5
1503617782799,+0.494,+0.443,-0.369,-0.651,+0.929,-0.185,-0.296,-5.375,-1.438,+52.500,-3, -3, -4, -6, -1, -2, -1, 10
1503617782814,+0.488,+0.446,-0.365,-0.655,+0.959,-0.218,-0.302,-2.625,-0.750,+53.938,11, 8, 3, 2, -7, -5, 3, 20
1503617782836,+0.483,+0.448,-0.361,-0.660,+0.951,-0.236,-0.282,+0.250,-9.250,+49.312,-3, 1, -1, -2, -6, -2, 0, -8
1503617782858,+0.480,+0.450,-0.355,-0.664,+0.949,-0.230,-0.347,+4.188,-17.250,+46.188,-14, -1, -2, 1, 0, -2, -2, -7
1503617782874,+0.478,+0.451,-0.348,-0.669,+0.891,-0.234,-0.376,+8.188,-21.688,+43.562,-2, -1, -2, -1, -4, -2, -2, 0
1503617782897,+0.475,+0.453,-0.341,-0.673,+0.835,-0.271,-0.366,+11.188,-15.875,+44.375,6, -3, -2, -6, 2, -2, 2, -4
1503617782918,+0.471,+0.456,-0.336,-0.676,+0.853,-0.307,-0.352,+12.562,-6.125,+44.750,-3, -5, -1, 3, 0, 2, -1, -9
1503617782935,+0.467,+0.461,-0.331,-0.679,+0.905,-0.328,-0.325,+13.500,+0.062,+44.875,-6, -3, -3, -1, 2, 1, 1, 18
1503617782956,+0.463,+0.465,-0.326,-0.681,+0.928,-0.333,-0.319,+16.188,-4.750,+43.750,3, -1, 0, -3, 0, 2, 0, 2
1503617782978,+0.460,+0.468,-0.319,-0.684,+0.899,-0.339,-0.331,+18.250,-13.062,+41.875,-1, 0, -1, 0, -7, 0, 0, -2
1503617782994,+0.458,+0.471,-0.312,-0.686,+0.868,-0.342,-0.322,+19.250,-19.312,+40.750,1, -3, -2, 2, 1, -4, 3, 20
1503617783016,+0.456,+0.474,-0.305,-0.688,+0.854,-0.360,-0.321,+22.375,-15.750,+39.812,3, 3, 1, 0, -1, -2, 2, 33
1503617783038,+0.453,+0.479,-0.299,-0.690,+0.837,-0.374,-0.315,+23.500,-7.688,+37.938,13, -1, 0, -3, 3, 5, 8, 19
1503617783054,+0.451,+0.483,-0.294,-0.691,+0.848,-0.396,-0.314,+24.250,-4.812,+36.188,2, 2, 3, 2, 2, -1, -1, 6
1503617783076,+0.449,+0.487,-0.288,-0.692,+0.857,-0.398,-0.319,+24.812,-5.375,+35.562,-4, -2, -3, -2, 1, -3, -8, -15
1503617783098,+0.446,+0.491,-0.283,-0.692,+0.859,-0.416,-0.311,+24.000,-7.375,+34.250,-2, 0, -2, -1, 1, -4, -3, -2
1503617783114,+0.444,+0.495,-0.277,-0.693,+0.852,-0.432,-0.297,+24.125,-8.562,+32.938,-1, -5, -5, -5, -4, -4, 0, -4
1503617783136,+0.443,+0.499,-0.272,-0.694,+0.832,-0.451,-0.320,+24.812,-7.625,+31.938,-1, 0, -2, -1, -2, 0, -1, 19
1503617783158,+0.440,+0.504,-0.266,-0.694,+0.816,-0.477,-0.310,+28.562,-5.250,+31.500,0, 2, 4, 3, 1, 1, 3, 1
1503617783174,+0.439,+0.508,-0.260,-0.694,+0.812,-0.491,-0.304,+28.375,-5.875,+29.438,-3, 2, 1, 1, -6, 1, -4, -15
1503617783196,+0.437,+0.512,-0.255,-0.694,+0.801,-0.486,-0.302,+27.750,-6.875,+27.625,-1, -8, -2, -4, -2, -4, 1, -7
1503617783218,+0.436,+0.517,-0.250,-0.693,+0.795,-0.501,-0.304,+30.188,-4.500,+25.938,-3, -5, -1, 0, -2, 0, -5, -18
1503617783234,+0.434,+0.521,-0.245,-0.693,+0.817,-0.526,-0.284,+30.375,-3.375,+26.188,2, 7, 6, 3, 1, 0, -1, 16
1503617783258,+0.433,+0.526,-0.240,-0.692,+0.807,-0.529,-0.270,+30.312,-2.375,+26.500,-4, -4, -1, -3, 0, 3, 4, -12
1503617783286,+0.431,+0.530,-0.235,-0.691,+0.795,-0.538,-0.254,+28.250,-5.562,+23.500,-1, 10, 2, 2, 1, -1, 0, 22
1503617783295,+0.431,+0.534,-0.230,-0.690,+0.789,-0.535,-0.266,+27.312,-5.375,+19.250,-5, -3, 4, 2, 3, 1, 2, 4
1503617783317,+0.430,+0.538,-0.226,-0.689,+0.768,-0.546,-0.251,+26.875,-7.750,+16.375,4, -7, -8, -6, -3, -1, -2, -3
1503617783339,+0.430,+0.541,-0.222,-0.688,+0.770,-0.572,-0.250,+25.250,-5.250,+13.625,4, -6, -5, -2, -2, -1, 2, -3
1503617783355,+0.429,+0.545,-0.218,-0.687,+0.783,-0.593,-0.237,+22.500,-1.000,+14.062,-10, 2, -7, -3, -5, -8, -7, -19
1503617783377,+0.428,+0.548,-0.216,-0.686,+0.768,-0.605,-0.210,+17.312,-1.125,+10.812,-1, -5, -3, -3, -2, -1, -5, -28
1503617783400,+0.428,+0.550,-0.214,-0.685,+0.765,-0.587,-0.218,+12.750,-1.062,+5.688,0, -1, -1, 0, 7, 1, 3, 7
1503617783415,+0.428,+0.552,-0.213,-0.684,+0.767,-0.583,-0.232,+11.188,-0.750,+3.125,-6, -2, 1, -3, 4, -2, -1, -14
1503617783437,+0.428,+0.553,-0.212,-0.683,+0.775,-0.598,-0.216,+9.188,-0.812,+1.625,2, -2, -4, -2, 0, -2, -4, -8
1503617783458,+0.428,+0.555,-0.211,-0.682,+0.794,-0.606,-0.205,+6.000,-2.438,-1.375,0, 3, -1, -3, -2, 1, 1, 5
1503617783475,+0.429,+0.555,-0.210,-0.681,+0.788,-0.605,-0.223,+2.375,-5.812,-3.750,-3, -9, -3, 0, 4, -1, 2, 13
1503617783496,+0.430,+0.555,-0.210,-0.681,+0.779,-0.596,-0.230,+0.812,-6.625,-5.875,2, 1, -4, -1, 0, -1, 1, 9
1503617783518,+0.431,+0.554,-0.210,-0.681,+0.784,-0.601,-0.240,-1.062,-7.812,-6.812,1, 0, -1, 0, -4, 3, 6, 24
1503617783536,+0.432,+0.553,-0.209,-0.681,+0.776,-0.601,-0.246,-2.062,-7.312,-5.875,-5, -1, 5, 2, 9, -2, -5, -17
1503617783557,+0.433,+0.552,-0.209,-0.681,+0.764,-0.587,-0.254,-4.375,-5.438,-5.188,0, 3, -3, -1, -1, 0, -5, -7
1503617783578,+0.434,+0.552,-0.209,-0.681,+0.766,-0.597,-0.248,-6.000,-3.812,-4.875,0, 10, 8, -1, -3, 0, -1, -17
1503617783595,+0.434,+0.551,-0.210,-0.681,+0.783,-0.594,-0.253,-8.500,-0.375,-4.562,-2, -15, -15, -4, -5, -2, -3, -15
1503617783616,+0.434,+0.550,-0.211,-0.682,+0.790,-0.578,-0.257,-10.188,+1.938,-3.812,0, 4, 3, 1, 2, -2, 2, 11
1503617783639,+0.433,+0.549,-0.213,-0.682,+0.801,-0.569,-0.249,-11.875,+3.688,-3.875,-3, -1, 0, 0, -1, -1, -3, -15
1503617783655,+0.433,+0.547,-0.214,-0.683,+0.802,-0.572,-0.267,-12.125,+1.000,-5.625,8, 3, 1, 1, 2, 2, 6, 19
1503617783677,+0.434,+0.546,-0.216,-0.684,+0.799,-0.553,-0.273,-13.688,-0.375,-6.062,2, -5, -1, -2, -3, -1, -6, -3
1503617783698,+0.434,+0.544,-0.218,-0.685,+0.795,-0.544,-0.264,-14.688,-0.625,-6.188,6, -1, -7, -2, -3, -3, -3, 11
1503617783715,+0.434,+0.542,-0.220,-0.685,+0.796,-0.550,-0.264,-14.875,+1.938,-7.000,-9, -5, -2, -3, -4, -2, -5, 13
1503617783738,+0.434,+0.540,-0.222,-0.686,+0.807,-0.543,-0.278,-15.500,+1.812,-7.688,3, 4, -2, -2, 2, 0, 0, -5
1503617783758,+0.435,+0.538,-0.224,-0.686,+0.804,-0.530,-0.291,-15.750,+0.312,-9.375,-1, 1, 1, -2, -2, 1, 4, -13
1503617783777,+0.436,+0.536,-0.226,-0.687,+0.809,-0.532,-0.279,-16.125,-0.188,-9.188,0, 4, -2, -3, -1, 0, -4, -9
1503617783797,+0.436,+0.534,-0.228,-0.688,+0.807,-0.527,-0.303,-14.250,+0.938,-8.500,0, -1, 3, -1, 3, 1, -1, 0
1503617783818,+0.437,+0.532,-0.230,-0.688,+0.818,-0.510,-0.308,-12.375,+2.875,-9.625,2, -9, -6, -5, -3, -1, 0, 15
1503617783836,+0.438,+0.530,-0.232,-0.688,+0.824,-0.507,-0.316,-10.438,-0.438,-8.938,4, 0, -1, -1, 0, 0, -2, 9
1503617783856,+0.439,+0.529,-0.233,-0.688,+0.830,-0.507,-0.316,-7.812,-2.375,-7.812,-8, -8, 4, 0, -2, -4, -4, -15
1503617783878,+0.440,+0.527,-0.234,-0.688,+0.817,-0.513,-0.313,-5.938,-1.938,-6.750,-4, -2, -1, 1, 0, 2, -1, -8
1503617783895,+0.441,+0.526,-0.234,-0.688,+0.821,-0.511,-0.330,-3.938,-0.312,-5.375,-2, 2, 2, 2, -2, -1, -2, 6
1503617783917,+0.441,+0.526,-0.235,-0.688,+0.823,-0.490,-0.342,-0.375,+2.250,-2.375,4, 2, -1, -2, 1, -1, -6, 0
1503617783939,+0.442,+0.526,-0.235,-0.688,+0.834,-0.469,-0.325,+1.375,+1.125,-0.625,5, 6, 4, 1, -3, 1, 5, 9
1503617783955,+0.442,+0.526,-0.235,-0.688,+0.843,-0.514,-0.319,+3.000,+1.688,+1.188,2, 13, -4, -5, -2, -2, 3, 19
1503617783977,+0.442,+0.527,-0.234,-0.687,+0.837,-0.524,-0.305,+5.938,+0.188,+2.188,-1, 6, 3, 0, -3, 1, -1, -9
1503617783998,+0.442,+0.528,-0.234,-0.687,+0.816,-0.495,-0.296,+6.438,-1.812,+3.062,2, -11, -1, 1, -1, -1, 2, 3
1503617784015,+0.442,+0.529,-0.233,-0.686,+0.811,-0.518,-0.287,+8.062,-1.000,+3.250,-4, -3, -4, -2, 4, -2, -6, -13
1503617784037,+0.442,+0.530,-0.232,-0.686,+0.825,-0.537,-0.276,+8.688,+0.562,+4.438,-13, -1, 3, -1, -1, -1, -2, -19
1503617784058,+0.441,+0.532,-0.231,-0.685,+0.824,-0.527,-0.280,+8.250,+1.312,+4.688,0, -3, -3, -4, -4, -1, -4, -7
1503617784075,+0.441,+0.533,-0.230,-0.684,+0.827,-0.521,-0.276,+8.812,-1.062,+4.125,-15, 1, 3, 1, 10, 0, 1, -19
1503617784097,+0.442,+0.534,-0.228,-0.684,+0.817,-0.534,-0.276,+9.500,-2.250,+4.125,1, -4, 0, 0, 0, -2, -6, -3
1503617784118,+0.442,+0.535,-0.227,-0.683,+0.812,-0.532,-0.273,+9.438,-2.812,+2.812,4, 11, -1, 0, -2, 0, -1, 9
1503617784137,+0.442,+0.537,-0.226,-0.682,+0.797,-0.541,-0.263,+8.000,-2.188,+2.938,6, -5, -1, -1, -1, 1, 0, 14
1503617784156,+0.442,+0.538,-0.225,-0.682,+0.810,-0.540,-0.266,+8.500,-2.438,+2.625,0, -7, -1, -3, -4, -1, 1, 5
1503617784179,+0.442,+0.539,-0.224,-0.681,+0.808,-0.546,-0.271,+8.000,-2.062,+1.625,1, -2, -5, -1, -3, 0, -1, -2
1503617784195,+0.443,+0.539,-0.222,-0.681,+0.800,-0.547,-0.272,+6.938,-3.875,+0.188,3, 15, 7, 5, 3, 2, 3, 2
1503617784217,+0.444,+0.540,-0.222,-0.680,+0.801,-0.544,-0.263,+6.000,-4.125,-1.000,-4, -12, -4, -2, 3, -3, -4, -6
1503617784240,+0.444,+0.541,-0.221,-0.679,+0.795,-0.553,-0.266,+4.688,-3.312,-2.375,-3, 1, 1, 0, -4, 0, 1, -6
1503617784258,+0.445,+0.541,-0.221,-0.679,+0.785,-0.549,-0.268,+2.875,-1.938,-3.562,-1, -1, 1, 1, -2, -1, -2, 3
1503617784277,+0.445,+0.541,-0.221,-0.678,+0.801,-0.545,-0.259,+1.188,+0.500,-4.125,-4, -5, -5, 1, -3, 0, -1, 9
1503617784299,+0.446,+0.541,-0.221,-0.678,+0.812,-0.542,-0.264,-0.625,+0.688,-5.375,3, -2, 7, 2, -2, -2, -1, -9
1503617784315,+0.447,+0.541,-0.222,-0.677,+0.811,-0.536,-0.263,-2.000,-0.250,-6.750,0, -5, -9, -1, -1, -1, 1, 5
1503617784339,+0.448,+0.540,-0.223,-0.677,+0.815,-0.539,-0.262,-3.375,-1.625,-8.125,-3, 13, 6, 0, 3, 0, -2, -4
1503617784359,+0.448,+0.540,-0.224,-0.676,+0.820,-0.531,-0.271,-3.062,-1.000,-7.750,0, -2, -2, -2, 1, 1, 2, 14
1503617784376,+0.449,+0.539,-0.225,-0.676,+0.820,-0.519,-0.272,-2.750,-0.250,-7.688,1, 15, 6, -2, -7, -2, 0, -3
1503617784397,+0.450,+0.538,-0.226,-0.676,+0.825,-0.517,-0.283,-2.875,-0.875,-6.938,-7, -16, -9, 0, 0, -1, -5, -41
1503617784419,+0.451,+0.538,-0.226,-0.675,+0.823,-0.521,-0.295,-1.938,-0.312,-5.562,3, -1, -2, 0, 2, 0, 1, 11
1503617784435,+0.452,+0.538,-0.227,-0.675,+0.833,-0.522,-0.281,-1.812,-0.125,-5.000,-4, 12, 5, -1, 1, -2, 0, -10
1503617784457,+0.452,+0.537,-0.227,-0.675,+0.822,-0.514,-0.284,-1.062,-0.312,-4.750,-1, -11, -7, -2, -3, -1, -2, 4
1503617784480,+0.453,+0.537,-0.228,-0.674,+0.835,-0.513,-0.270,-0.250,-0.812,-4.250,1, -12, -3, -1, 1, -1, 4, 22
1503617784494,+0.453,+0.537,-0.228,-0.674,+0.833,-0.517,-0.291,+0.125,-0.812,-2.562,-3, -3, -2, -2, -2, 0, 3, 6
1503617784517,+0.454,+0.537,-0.228,-0.674,+0.825,-0.511,-0.276,+0.125,-0.500,-2.312,3, 4, -3, -4, -3, -1, -3, -25
1503617784539,+0.454,+0.537,-0.228,-0.673,+0.839,-0.513,-0.275,+1.375,-1.250,-1.875,-3, 0, 2, -1, 0, 0, -2, 4
1503617784561,+0.455,+0.537,-0.228,-0.673,+0.834,-0.505,-0.295,+2.000,-0.062,-1.562,4, -4, -5, 1, 2, 0, -4, 1
1503617784577,+0.455,+0.537,-0.228,-0.673,+0.831,-0.514,-0.271,+2.062,-3.062,-1.000,6, 11, 3, 2, -6, -1, 1, 14
1503617784599,+0.456,+0.537,-0.227,-0.672,+0.833,-0.522,-0.276,+1.000,-2.438,-0.812,-1, -1, 0, 1, 0, -2, 0, 3
1503617784616,+0.456,+0.537,-0.227,-0.672,+0.834,-0.504,-0.278,+1.125,-0.500,-0.125,-6, -2, 3, 2, -2, 0, -3, -22
1503617784643,+0.456,+0.538,-0.227,-0.672,+0.830,-0.503,-0.277,+2.312,-0.438,+1.250,-2, -8, -7, -2, -2, -1, 1, 2
1503617784660,+0.456,+0.538,-0.227,-0.672,+0.829,-0.515,-0.276,+2.312,-2.188,+0.750,0, -2, -3, -4, 0, -1, -6, -12
1503617784678,+0.457,+0.538,-0.226,-0.672,+0.832,-0.519,-0.281,+2.938,-2.500,+1.750,-5, -4, 4, 1, 7, 0, 0, 13
1503617784697,+0.456,+0.539,-0.225,-0.671,+0.817,-0.523,-0.272,+2.938,-1.000,+2.688,-3, 6, 4, -1, -3, -2, 0, 8
1503617784719,+0.456,+0.539,-0.225,-0.671,+0.818,-0.514,-0.273,+2.750,-1.000,+2.438,-5, 0, 0, 0, 0, 1, 0, 3
1503617784735,+0.456,+0.540,-0.224,-0.671,+0.828,-0.521,-0.272,+3.250,-1.125,+3.188,3, 11, 0, -2, -3, -2, -2, -11
1503617784757,+0.456,+0.540,-0.223,-0.671,+0.821,-0.524,-0.278,+3.000,+0.562,+3.750,-1, -8, -2, -1, -2, 2, 1, 7
1503617784782,+0.456,+0.541,-0.223,-0.671,+0.824,-0.519,-0.260,+2.500,+0.312,+3.312,2, -3, 1, -2, -1, 0, -1, 2
1503617784795,+0.456,+0.541,-0.222,-0.671,+0.824,-0.523,-0.275,+3.062,-0.562,+2.875,2, -1, 1, 0, 0, -1, -1, -9
1503617784817,+0.456,+0.542,-0.222,-0.671,+0.813,-0.528,-0.273,+2.750,-2.750,+2.500,-4, -8, -4, 0, 1, -1, -2, -10
1503617784840,+0.456,+0.542,-0.221,-0.670,+0.814,-0.528,-0.269,+2.375,-2.062,+1.438,-6, -5, -3, -1, -2, 0, -3, -17
1503617784854,+0.456,+0.542,-0.220,-0.670,+0.815,-0.536,-0.269,+2.188,-0.750,+2.062,0, -1, -3, 1, -1, -1, 0, 3
1503617784877,+0.456,+0.543,-0.220,-0.670,+0.817,-0.527,-0.262,+1.812,-0.312,+1.500,-2, -10, 5, -4, -2, -2, -4, 15
1503617784899,+0.456,+0.543,-0.220,-0.670,+0.816,-0.526,-0.271,+1.500,-1.188,+1.125,4, 1, -2, 2, 3, 1, 4, 7
1503617784915,+0.456,+0.543,-0.219,-0.670,+0.827,-0.527,-0.277,+1.625,-1.750,+0.812,-4, 2, -4, -2, -3, -1, -5, -14
1503617784937,+0.456,+0.543,-0.219,-0.670,+0.826,-0.531,-0.272,+1.750,-2.062,+1.438,-1, 2, -4, -3, -2, -2, -7, -3
1503617784959,+0.456,+0.544,-0.218,-0.670,+0.825,-0.517,-0.276,+2.250,-1.375,+1.438,4, 5, -3, -3, 6, -1, 2, 0
1503617784975,+0.457,+0.544,-0.218,-0.670,+0.822,-0.527,-0.280,+3.000,-2.062,+2.250,-5, 19, 16, 6, 5, 3, 2, -27
1503617784997,+0.457,+0.544,-0.217,-0.669,+0.822,-0.529,-0.276,+3.688,-1.625,+2.438,-2, -2, -3, -1, -4, -3, -3, 6
1503617785019,+0.457,+0.545,-0.216,-0.669,+0.831,-0.533,-0.279,+4.062,-1.500,+3.688,-2, -8, -4, -3, -7, -1, 2, -5
1503617785035,+0.457,+0.545,-0.215,-0.669,+0.828,-0.526,-0.277,+5.250,-1.375,+4.312,-6, 0, 1, 0, 1, -3, -3, 10
1503617785057,+0.457,+0.546,-0.214,-0.669,+0.823,-0.518,-0.285,+6.812,-3.312,+4.312,-1, -8, -4, -1, 4, 0, -1, -12
1503617785079,+0.457,+0.547,-0.213,-0.668,+0.820,-0.521,-0.291,+7.625,-3.500,+5.250,-1, -6, -7, -4, -2, -1, 0, 3
1503617785094,+0.457,+0.548,-0.211,-0.668,+0.818,-0.532,-0.269,+9.750,-2.938,+6.750,1, 6, 13, 0, -4, -2, 1, 7
1503617785123,+0.457,+0.549,-0.209,-0.668,+0.829,-0.533,-0.271,+11.125,-3.000,+7.750,5, 6, 2, 1, -1, 0, 5, 17
1503617785142,+0.457,+0.551,-0.207,-0.667,+0.827,-0.536,-0.281,+12.688,-4.812,+8.875,4, 5, -1, -2, 1, -1, 1, -2
1503617785154,+0.457,+0.552,-0.204,-0.667,+0.809,-0.535,-0.278,+14.000,-5.250,+9.562,-2, -7, -9, -1, -2, -1, -4, -16
1503617785177,+0.457,+0.554,-0.202,-0.666,+0.816,-0.539,-0.277,+16.125,-4.750,+10.875,-8, -5, -3, 0, 2, 1, 0, -3
1503617787621,+0.391,+0.503,-0.413,-0.651,+1.024,-0.284,-0.067,-24.500,-1.375,-10.000,-5, 5, -5, -3, 0, 1, 2, -1
1503617787636,+0.393,+0.497,-0.414,-0.654,+0.992,-0.300,-0.098,-25.375,-21.625,-14.188,-6, -3, -5, 1, -5, -2, -3, -5
1503617787660,+0.397,+0.491,-0.412,-0.657,+0.934,-0.313,-0.129,-22.438,-44.062,-18.500,2, 3, 2, -2, -2, 0, -2, 2
1503617787681,+0.401,+0.484,-0.411,-0.660,+0.869,-0.311,-0.136,-25.125,-38.375,-24.812,1, -7, -5, -2, 2, -2, 3, 3
1503617787697,+0.403,+0.477,-0.412,-0.663,+0.864,-0.321,-0.146,-29.500,-24.312,-25.062,7, -1, -3, -1, -1, -4, -3, -3
1503617787718,+0.404,+0.473,-0.414,-0.665,+0.898,-0.331,-0.155,-28.250,-11.062,-19.500,1, 9, -6, -3, -1, -2, -1, -2
1503617787741,+0.404,+0.468,-0.417,-0.666,+0.978,-0.306,-0.169,-29.875,-1.812,-15.562,-2, -4, -9, -3, -7, -1, 0, -6
1503617787758,+0.404,+0.463,-0.421,-0.667,+0.997,-0.265,-0.181,-32.438,-0.312,-15.875,-2, -1, 1, -1, 11, -1, -1, 1
1503617787778,+0.405,+0.458,-0.423,-0.669,+0.976,-0.247,-0.215,-30.312,-10.875,-17.438,3, 0, 4, 4, -10, 1, 1, 5
1503617787801,+0.406,+0.452,-0.424,-0.672,+0.978,-0.251,-0.192,-29.875,-16.562,-17.375,-4, -2, 1, 0, 7, -2, -3, -3
1503617787816,+0.407,+0.446,-0.425,-0.674,+0.954,-0.233,-0.199,-28.375,-16.812,-14.188,-2, -2, 1, 0, -1, -3, 1, -4
1503617787838,+0.408,+0.441,-0.427,-0.676,+0.926,-0.218,-0.215,-25.938,-12.188,-13.312,-14, -5, -5, -4, -1, 0, -3, 2
1503617787861,+0.408,+0.437,-0.428,-0.677,+0.906,-0.229,-0.236,-22.312,-5.062,-10.812,-1, -2, 2, 2, 8, -1, -3, -3
1503617787876,+0.408,+0.434,-0.430,-0.679,+0.943,-0.239,-0.193,-21.938,-6.875,-11.750,-19, -11, -7, -3, 2, 17, -2, -7
1503617787899,+0.409,+0.430,-0.432,-0.679,+0.991,-0.237,-0.205,-22.312,-3.438,-13.375,5, 0, -3, -4, -6, -1, 2, 2
1503617787923,+0.409,+0.426,-0.434,-0.680,+0.966,-0.210,-0.240,-22.438,-0.625,-12.188,10, -2, -2, -1, 6, 0, 2, 1
1503617787937,+0.409,+0.423,-0.435,-0.681,+0.940,-0.207,-0.258,-17.625,-5.250,-12.875,0, -5, -3, -2, -4, -9, -6, 2
1503617787959,+0.410,+0.419,-0.436,-0.682,+0.986,-0.225,-0.232,-18.562,-11.125,-12.062,6, -6, -1, 0, 8, 3, -1, -5
1503617787981,+0.411,+0.416,-0.437,-0.684,+0.981,-0.208,-0.206,-17.562,-10.875,-9.500,16, 2, 7, 1, 2, -3, -5, 13
1503617787998,+0.412,+0.413,-0.438,-0.684,+0.944,-0.195,-0.249,-14.062,-8.375,-11.312,20, 14, 4, 6, -2, 1, 0, -6
1503617788019,+0.413,+0.410,-0.438,-0.685,+0.938,-0.190,-0.240,-14.875,-8.750,-12.000,2, -9, -9, -5, -2, -2, -7, -22
1503617788041,+0.414,+0.407,-0.439,-0.686,+0.938,-0.189,-0.244,-13.688,-7.688,-11.188,8, 8, -2, -1, 1, 1, 3, 11
1503617788059,+0.415,+0.404,-0.440,-0.686,+0.968,-0.182,-0.254,-12.875,-3.625,-11.625,-12, -10, -2, 1, 1, 3, 1, -1
1503617788079,+0.415,+0.401,-0.441,-0.687,+0.972,-0.179,-0.254,-13.000,-3.875,-11.062,-2, 0, 1, 1, -7, 0, -2, -30
1503617788101,+0.416,+0.399,-0.442,-0.687,+0.955,-0.174,-0.251,-9.938,-6.312,-11.062,8, -2, 3, -1, 2, -3, 2, 14
1503617788117,+0.418,+0.397,-0.442,-0.687,+0.976,-0.173,-0.268,-6.312,-11.062,-12.438,-3, -1, 0, -1, 0, -1, 5, 43
1503617788139,+0.420,+0.394,-0.442,-0.688,+0.971,-0.153,-0.251,-5.688,-12.062,-13.500,-9, -2, -7, -7, -2, 1, 0, 8
1503617788161,+0.422,+0.392,-0.442,-0.688,+0.940,-0.173,-0.278,-5.250,-6.500,-10.750,-14, -10, -1, -2, -2, 0, 3, 8
1503617788177,+0.423,+0.391,-0.442,-0.688,+0.957,-0.161,-0.281,-3.062,-2.812,-10.250,6, 2, -3, -4, -2, 0, 3, -3
1503617788199,+0.424,+0.390,-0.442,-0.687,+0.982,-0.151,-0.270,-2.438,-4.875,-9.250,2, -1, -3, 2, 2, -2, 0, 6
1503617788220,+0.426,+0.388,-0.442,-0.687,+0.968,-0.148,-0.268,-0.188,-7.188,-9.562,-18, 1, -2, -2, -8, -3, -2, -30
1503617788237,+0.428,+0.388,-0.442,-0.686,+0.969,-0.150,-0.250,+2.312,-1.688,-9.688,-1, 1, -6, 2, -3, -1, -4, 4
1503617788261,+0.429,+0.388,-0.443,-0.685,+0.965,-0.157,-0.250,+0.812,+0.812,-7.875,13, -3, -2, -1, -1, -1, -6, 10
1503617788280,+0.429,+0.388,-0.444,-0.685,+0.956,-0.141,-0.275,+0.938,+5.312,-5.062,-8, 2, 3, 3, 0, 0, -3, -13
1503617788297,+0.430,+0.388,-0.444,-0.684,+0.953,-0.138,-0.269,+0.062,+3.375,-4.750,-16, 0, -1, -4, 2, -2, -3, -39
1503617788319,+0.430,+0.388,-0.445,-0.683,+0.952,-0.140,-0.257,+0.875,+3.625,-3.000,1, 1, -1, -5, -1, -1, -1, 24
1503617788341,+0.430,+0.389,-0.445,-0.683,+0.964,-0.159,-0.240,+0.562,+4.375,-2.000,5, -2, 2, -1, -1, -2, 3, 13
1503617788359,+0.429,+0.389,-0.447,-0.682,+0.992,-0.162,-0.220,-2.125,+7.562,-1.750,-5, -1, -1, 1, 8, 1, 0, 8
1503617788379,+0.429,+0.389,-0.448,-0.681,+1.000,-0.140,-0.241,-2.375,+4.938,-1.812,-2, -1, 2, 4, -4, 3, -3, -37
1503617788401,+0.429,+0.389,-0.448,-0.681,+0.983,-0.126,-0.266,-1.375,-1.938,-2.062,3, 0, -5, -1, 7, -3, -7, -13
1503617788417,+0.430,+0.388,-0.447,-0.682,+0.963,-0.146,-0.267,+0.500,-7.188,-3.438,0, 1, -1, -2, -2, 0, 6, 21
1503617788439,+0.432,+0.387,-0.446,-0.682,+0.978,-0.165,-0.243,+0.312,-12.438,-4.812,-12, -3, 2, -3, -2, 0, -2, 0
1503617788462,+0.432,+0.387,-0.445,-0.683,+0.965,-0.156,-0.241,-2.312,-10.250,-2.125,-9, -4, -7, -3, -3, 0, -2, -1
1503617788477,+0.433,+0.386,-0.444,-0.683,+0.960,-0.141,-0.255,-2.625,-5.938,-1.688,5, 0, -1, 1, 0, 0, 5, 15
1503617788500,+0.433,+0.385,-0.444,-0.683,+0.955,-0.131,-0.267,-1.625,-6.750,-1.000,-8, -9, 3, 0, -12, -2, 1, 10
1503617788521,+0.434,+0.384,-0.443,-0.684,+0.960,-0.127,-0.270,-2.250,-10.062,-4.188,-6, 2, -1, 1, -4, -1, 4, 33
1503617788537,+0.436,+0.382,-0.442,-0.685,+0.963,-0.135,-0.269,-2.562,-12.125,-5.125,3, -2, -2, -4, -6, 1, -8, -8
1503617788559,+0.437,+0.381,-0.441,-0.685,+0.954,-0.144,-0.289,-0.812,-10.938,-5.562,1, -3, 4, 2, -1, -3, -1, -5
1503617788580,+0.438,+0.380,-0.440,-0.685,+0.947,-0.140,-0.273,-1.438,-11.250,-6.250,1, 6, 11, 3, -1, 0, 1, 4
1503617788597,+0.440,+0.379,-0.439,-0.686,+0.945,-0.134,-0.281,-1.438,-9.375,-5.500,-8, 5, -5, -5, -2, -1, 0, -6
1503617788619,+0.440,+0.378,-0.439,-0.686,+0.951,-0.115,-0.273,-2.938,-4.500,-6.062,-6, -6, -6, -4, 2, 0, -2, -21
1503617788640,+0.441,+0.378,-0.440,-0.685,+0.953,-0.101,-0.264,+0.250,-0.438,-3.000,4, 5, 13, 6, 4, 0, 1, -5
1503617788661,+0.442,+0.377,-0.440,-0.685,+0.964,-0.118,-0.285,+1.812,-0.750,-4.875,13, -4, -4, -1, 0, -3, -3, -26
1503617788679,+0.443,+0.377,-0.440,-0.685,+0.990,-0.141,-0.297,+0.500,-1.938,-4.312,-2, 10, 26, 6, 2, -3, 1, 17
1503617788701,+0.443,+0.377,-0.439,-0.685,+1.004,-0.154,-0.321,+2.438,-5.688,-1.000,-2, 6, -2, -2, -1, 6, 1, 24
1503617788717,+0.443,+0.377,-0.438,-0.685,+0.979,-0.150,-0.256,+0.125,-6.625,+2.875,-1, -6, -7, 0, -9, -3, 1, 19
1503617788739,+0.442,+0.378,-0.438,-0.686,+0.916,-0.138,-0.250,-2.562,+1.062,+7.938,3, -7, -13, -7, -2, 1, -2, -15
1503617788761,+0.438,+0.380,-0.440,-0.686,+0.888,-0.129,-0.317,-6.875,+24.875,+13.688,-9, -3, -9, -2, 1, -1, -4, -19
1503617788777,+0.434,+0.383,-0.443,-0.685,+0.911,-0.084,-0.299,-6.000,+36.500,+15.375,-3, -6, -10, -3, 5, -3, -5, -36
1503617788799,+0.431,+0.386,-0.447,-0.682,+0.998,-0.058,-0.252,-0.375,+35.875,+9.562,1, -9, -5, -3, 2, 2, 4, 8
1503617788821,+0.431,+0.388,-0.449,-0.680,+1.098,-0.120,-0.242,+5.188,+13.562,+2.188,-3, 2, 1, 1, -1, -1, -1, 7
1503617788837,+0.433,+0.387,-0.446,-0.681,+1.094,-0.188,-0.271,+8.250,-18.625,-3.188,4, 4, 4, 5, 2, 5, 7, 2
1503617788864,+0.437,+0.385,-0.441,-0.683,+0.965,-0.183,-0.327,+9.500,-40.562,-8.125,4, 0, -2, 0, 6, -5, -1, 9
1503617788881,+0.442,+0.382,-0.435,-0.686,+0.890,-0.135,-0.335,+10.812,-42.875,-6.438,3, -14, -7, -3, -4, 3, -3, -14
1503617788897,+0.444,+0.382,-0.430,-0.687,+0.865,-0.135,-0.301,+10.875,-25.000,-0.125,17, 1, -7, -4, -5, -2, 0, 11
1503617788919,+0.444,+0.383,-0.430,-0.686,+0.865,-0.148,-0.258,+7.500,+3.125,+4.875,-7, -4, 8, -1, -3, -2, -4, 5
1503617788941,+0.442,+0.386,-0.432,-0.685,+0.917,-0.143,-0.248,+3.812,+23.438,+7.938,-1, 13, 3, 1, 0, -2, -5, 2
1503617788957,+0.439,+0.390,-0.434,-0.683,+1.002,-0.136,-0.231,+2.750,+24.875,+7.688,-5, -6, -7, -1, -9, -40, -2, -3
1503617788979,+0.438,+0.391,-0.436,-0.682,+1.059,-0.155,-0.228,+1.125,+7.625,+4.125,1, 1, -2, -1, 6, 11, -4, -2
1503617789002,+0.439,+0.391,-0.434,-0.683,+1.040,-0.160,-0.251,+2.000,-13.062,+0.438,-6, -1, -1, -3, 1, 5, 2, -1
1503617789017,+0.442,+0.389,-0.431,-0.684,+0.950,-0.169,-0.275,+2.125,-28.688,-4.062,-6, 0, 2, 4, 0, 2, -2, 1
1503617789039,+0.444,+0.387,-0.428,-0.686,+0.891,-0.173,-0.294,+0.000,-25.375,-4.625,6, 13, 9, 1, 2, 3, 3, 6
1503617789061,+0.444,+0.386,-0.426,-0.687,+0.881,-0.161,-0.290,-2.750,-10.125,-0.562,3, 1, 7, 1, -3, 4, -1, 2
1503617789077,+0.444,+0.386,-0.427,-0.687,+0.917,-0.153,-0.280,-4.312,+3.375,+1.188,-4, -4, -1, -2, -3, -1, -2, -10
1503617789099,+0.443,+0.386,-0.428,-0.687,+0.953,-0.153,-0.281,-7.250,+6.562,+0.312,20, 4, -4, -3, 0, 1, -1, 3
1503617789121,+0.442,+0.385,-0.429,-0.687,+0.972,-0.142,-0.289,-7.750,+0.625,-1.812,1, -3, -2, 1, -10, -1, -1, -12
1503617789137,+0.443,+0.384,-0.429,-0.688,+0.952,-0.140,-0.292,-6.562,-6.438,-3.875,-12, 4, 9, 31, 45, 18, -4, -8
1503617789161,+0.444,+0.382,-0.429,-0.688,+0.939,-0.146,-0.290,-6.188,-9.688,-7.250,-9, 3, 0, -6, -11, 3, 1, -12
1503617789181,+0.445,+0.380,-0.429,-0.688,+0.938,-0.154,-0.284,-7.625,-4.125,-10.188,6, 2, -4, 1, -1, 4, 0, -8
1503617789197,+0.446,+0.378,-0.430,-0.688,+0.944,-0.144,-0.314,-7.688,-5.500,-9.875,6, 4, 4, -1, 4, -2, -2, -2
1503617789219,+0.447,+0.377,-0.430,-0.688,+0.969,-0.127,-0.307,-6.188,-2.875,-9.562,-7, -10, 4, -4, -5, -1, -14, -20
1503617789241,+0.448,+0.375,-0.431,-0.688,+0.972,-0.113,-0.312,-6.438,-5.938,-9.188,4, 10, 4, -3, -6, 1, 6, -5
1503617789258,+0.449,+0.373,-0.431,-0.688,+0.958,-0.109,-0.317,-5.438,-6.812,-7.625,-6, 11, 11, 0, -5, -3, 1, 6
1503617789279,+0.449,+0.372,-0.431,-0.688,+0.953,-0.116,-0.313,-4.938,-1.875,-4.750,-2, -8, -7, 0, 0, 0, -2, 8
1503617789301,+0.449,+0.371,-0.432,-0.688,+0.950,-0.113,-0.303,-4.750,+1.312,-2.125,7, -3, -5, -1, 0, 22, 2, 10
1503617789317,+0.449,+0.371,-0.432,-0.688,+0.977,-0.120,-0.313,-3.812,+1.750,-0.312,-4, -6, -4, -6, -1, 4, 5, 16
1503617789339,+0.449,+0.371,-0.432,-0.688,+0.994,-0.106,-0.321,-1.938,+0.375,+0.938,1, -5, -5, -1, -7, -6, -1, 7
1503617789363,+0.450,+0.371,-0.432,-0.688,+0.989,-0.093,-0.314,-0.250,-5.375,+0.938,2, 8, 6, -3, 0, -7, -3, 3
1503617789377,+0.450,+0.370,-0.431,-0.689,+0.956,-0.097,-0.310,+1.062,-9.438,+1.812,2, 5, -2, 0, -2, -7, -4, -3
1503617789406,+0.450,+0.370,-0.430,-0.690,+0.951,-0.112,-0.322,+2.375,-6.438,+4.125,-2, -9, -10, -1, 2, -5, 0, -8
1503617789421,+0.450,+0.371,-0.428,-0.690,+0.953,-0.124,-0.318,+3.750,-2.375,+6.812,3, 1, 4, -1, 0, 0, 2, -2
1503617789437,+0.450,+0.372,-0.427,-0.690,+0.954,-0.116,-0.328,+4.938,-0.688,+8.688,-9, -12, -9, -3, -4, -2, 2, -3
1503617789461,+0.449,+0.374,-0.426,-0.691,+0.958,-0.118,-0.329,+6.375,+0.000,+10.188,-3, -4, -3, 1, 3, -2, -3, 3
1503617789481,+0.448,+0.375,-0.425,-0.691,+0.935,-0.125,-0.327,+7.125,+0.875,+11.875,0, -3, 1, -2, -2, -2, -1, -7
1503617789498,+0.447,+0.378,-0.424,-0.691,+0.938,-0.140,-0.316,+7.062,+6.875,+14.750,4, 0, 0, -4, -1, -4, 0, 4
1503617789520,+0.445,+0.381,-0.424,-0.691,+0.917,-0.144,-0.309,+7.750,+13.562,+17.562,3, 1, 0, 3, 4, 3, 0, 2
1503617789541,+0.442,+0.385,-0.424,-0.691,+0.929,-0.169,-0.278,+5.875,+17.188,+16.188,-3, -9, -7, 0, 0, -1, 2, 2
1503617789565,+0.439,+0.388,-0.425,-0.690,+1.000,-0.165,-0.297,+4.250,+17.188,+16.188,-13, 3, 4, -1, -3, -3, -1, -1
1503617789579,+0.438,+0.391,-0.424,-0.690,+0.973,-0.147,-0.329,+9.625,+9.625,+15.312,2, 4, 0, 0, -5, 0, -2, -10
1503617789601,+0.438,+0.392,-0.422,-0.690,+0.962,-0.166,-0.280,+11.125,-6.562,+11.125,6, 6, 14, 3, 3, 1, 3, 8
1503617789623,+0.438,+0.393,-0.419,-0.691,+0.949,-0.193,-0.270,+7.750,-14.750,+8.125,3, 1, 5, 2, 2, 0, -2, 17
1503617789639,+0.438,+0.394,-0.417,-0.692,+0.892,-0.188,-0.275,+6.062,-6.375,+6.688,-3, -7, -11, -5, -3, -4, -1, 1
1503617789661,+0.437,+0.396,-0.417,-0.692,+0.859,-0.191,-0.264,+4.062,+4.188,+5.625,1, -3, -3, 2, 1, 0, -1, -5
1503617789684,+0.436,+0.397,-0.418,-0.691,+0.900,-0.205,-0.280,-0.625,+10.500,+3.375,-1, -5, -1, -1, -1, 0, -1, 7
1503617789699,+0.435,+0.398,-0.419,-0.690,+0.923,-0.196,-0.296,-2.625,+14.688,-1.500,-1, -1, -2, -4, 0, -1, 3, 7
1503617789721,+0.435,+0.398,-0.421,-0.690,+0.927,-0.179,-0.273,-2.438,+8.062,-5.000,-4, -3, -2, 2, 8, 0, 0, -7
1503617789737,+0.435,+0.398,-0.422,-0.688,+0.954,-0.180,-0.255,-2.250,+6.250,-8.625,-6, 2, 0, 1, 0, -1, -4, -20
1503617789759,+0.436,+0.398,-0.424,-0.687,+1.006,-0.177,-0.238,-4.000,+7.625,-9.875,2, 10, 5, 1, 0, -1, 0, 0
1503617789782,+0.436,+0.397,-0.426,-0.686,+1.025,-0.168,-0.278,-3.062,+5.688,-7.750,1, -6, -6, -4, -1, -3, 0, -6
1503617789798,+0.437,+0.396,-0.427,-0.685,+1.024,-0.130,-0.314,-0.875,-1.125,-5.250,-4, -9, -5, -3, -5, -1, 0, 14
1503617789819,+0.438,+0.395,-0.425,-0.686,+1.016,-0.120,-0.318,+1.812,-11.750,-0.125,-2, 5, 1, -2, -5, -3, -1, -2
1503617789842,+0.440,+0.395,-0.423,-0.687,+0.986,-0.149,-0.319,+5.688,-15.625,+5.562,4, 0, -1, 0, -5, -2, 0, 4
1503617789857,+0.440,+0.396,-0.420,-0.688,+0.967,-0.174,-0.312,+7.938,-11.188,+11.312,3, -2, 2, 1, 4, 0, -3, -3
1503617789879,+0.439,+0.398,-0.417,-0.689,+0.965,-0.168,-0.324,+9.812,-5.188,+16.688,-1, 12, 3, 2, -3, 2, 1, -11
1503617789902,+0.438,+0.400,-0.415,-0.690,+0.982,-0.152,-0.333,+13.250,-2.250,+20.938,-1, -6, -5, -4, -5, -2, -1, -7
1503617789924,+0.438,+0.403,-0.411,-0.691,+1.001,-0.148,-0.314,+17.188,-7.875,+23.250,-5, -3, -4, -2, -2, -3, -3, -8
1503617789940,+0.438,+0.405,-0.406,-0.692,+0.987,-0.165,-0.295,+19.625,-17.062,+23.312,-2, 0, 4, 1, 2, 0, 3, -3
1503617789962,+0.438,+0.408,-0.401,-0.694,+0.966,-0.191,-0.306,+22.438,-21.812,+23.625,-7, -9, -4, 1, 9, -1, -3, -14
1503617789984,+0.438,+0.411,-0.395,-0.695,+0.941,-0.206,-0.340,+25.250,-19.312,+25.688,-11, 6, 1, -1, 0, -3, -7, -16
1503617789999,+0.438,+0.415,-0.389,-0.696,+0.927,-0.212,-0.338,+26.750,-16.062,+27.188,1, -3, -1, 3, 2, 3, 2, 3
1503617790022,+0.438,+0.419,-0.383,-0.697,+0.946,-0.212,-0.338,+29.125,-14.188,+29.938,5, 0, -3, -2, -4, -1, 0, 3
1503617790044,+0.438,+0.423,-0.376,-0.698,+0.949,-0.232,-0.330,+31.688,-16.188,+32.188,-2, 11, 0, -2, 2, 0, -3, -3
1503617790059,+0.437,+0.428,-0.370,-0.699,+0.916,-0.266,-0.316,+32.938,-15.750,+32.688,-1, -7, -3, -4, -7, -3, 0, 2
1503617790082,+0.437,+0.433,-0.363,-0.700,+0.907,-0.274,-0.321,+33.188,-13.438,+33.125,4, 4, -3, -3, -5, -2, -6, -7
1503617790104,+0.435,+0.439,-0.357,-0.701,+0.890,-0.272,-0.321,+33.875,-9.250,+35.188,-1, 4, 3, 1, 2, 0, -1, 3
1503617790119,+0.434,+0.445,-0.351,-0.701,+0.888,-0.300,-0.319,+36.375,-6.250,+37.250,7, -6, -2, 1, 1, -1, 3, 6
1503617790142,+0.432,+0.451,-0.345,-0.701,+0.894,-0.318,-0.316,+36.812,-5.375,+36.062,1, -9, -7, -7, -6, -4, -6, -1
1503617790164,+0.431,+0.457,-0.338,-0.701,+0.890,-0.343,-0.307,+37.438,-7.625,+34.438,-2, -9, 0, 2, 0, 0, 4, 22
1503617790179,+0.430,+0.463,-0.332,-0.701,+0.879,-0.362,-0.319,+38.000,-7.938,+34.062,0, 5, 3, 0, -1, -1, -2, 1
1503617790202,+0.429,+0.469,-0.325,-0.701,+0.879,-0.362,-0.307,+39.750,-7.750,+33.188,-8, 4, 3, -1, -2, -2, -3, 1
1503617790224,+0.428,+0.475,-0.318,-0.700,+0.880,-0.375,-0.299,+41.562,-11.875,+30.688,-7, -9, -2, -2, 6, 2, 3, -3
1503617790239,+0.429,+0.480,-0.311,-0.699,+0.868,-0.394,-0.298,+41.500,-16.938,+28.938,5, -7, -11, -2, -3, -2, -1, 9
1503617790262,+0.429,+0.485,-0.304,-0.699,+0.856,-0.416,-0.289,+40.562,-16.500,+25.875,3, -10, -9, -3, -2, -1, 0, 3
1503617790283,+0.429,+0.490,-0.297,-0.698,+0.846,-0.429,-0.306,+40.625,-14.250,+26.375,-13, -2, 2, 0, 0, -2, -2, -4
1503617790301,+0.429,+0.496,-0.290,-0.697,+0.837,-0.436,-0.286,+41.312,-11.688,+27.000,2, 0, 2, -3, -7, -1, -2, 3
1503617790320,+0.429,+0.501,-0.284,-0.696,+0.842,-0.442,-0.271,+41.125,-12.000,+25.438,3, 5, 4, 1, -1, -1, -6, 8
1503617790343,+0.430,+0.507,-0.277,-0.694,+0.855,-0.468,-0.266,+39.938,-13.938,+22.625,-4, -1, -3, -1, -1, -3, 2, -9
1503617790358,+0.430,+0.511,-0.271,-0.693,+0.857,-0.484,-0.275,+38.250,-15.250,+23.812,2, 7, 1, -1, 1, -1, -1, -6
1503617790381,+0.430,+0.516,-0.264,-0.692,+0.845,-0.474,-0.272,+38.062,-16.000,+22.875,-2, -5, 0, -2, -3, -1, -3, 0
1503617790403,+0.431,+0.520,-0.257,-0.691,+0.828,-0.487,-0.275,+38.812,-17.125,+22.312,-1, 2, 0, -3, -1, 1, 1, -6
1503617790418,+0.432,+0.525,-0.250,-0.690,+0.819,-0.506,-0.267,+38.375,-17.562,+23.125,-16, -2, -4, -3, 1, -3, -5, -28
1503617790441,+0.432,+0.529,-0.244,-0.688,+0.823,-0.516,-0.266,+38.125,-15.438,+23.000,3, 0, 0, 1, -2, -1, 3, 7
1503617790463,+0.432,+0.534,-0.237,-0.687,+0.820,-0.535,-0.256,+37.500,-13.250,+24.188,1, -7, -1, 1, 2, 1, 1, 5
1503617790478,+0.432,+0.538,-0.231,-0.686,+0.809,-0.546,-0.250,+36.062,-14.000,+24.625,1, 0, 0, 0, 10, 1, -2, 2
1503617790502,+0.431,+0.543,-0.224,-0.685,+0.792,-0.558,-0.257,+34.312,-13.312,+24.500,-3, 10, -3, -3, -4, 0, -3, -4
1503617790523,+0.431,+0.547,-0.218,-0.684,+0.786,-0.550,-0.248,+33.875,-11.500,+23.750,10, -1, -1, -2, -2, 0, 4, 10
1503617790539,+0.430,+0.551,-0.213,-0.683,+0.762,-0.562,-0.240,+31.250,-9.000,+23.625,4, 2, -3, -1, -1, 0, -1, 10
1503617790561,+0.429,+0.555,-0.207,-0.682,+0.771,-0.580,-0.248,+30.812,-6.312,+22.625,-2, 0, 5, 3, 1, 0, -2, 4
1503617790583,+0.428,+0.559,-0.203,-0.681,+0.776,-0.591,-0.242,+30.438,-4.188,+21.500,0, -5, -4, -3, -3, -1, -1, -8
1503617790598,+0.427,+0.563,-0.198,-0.679,+0.772,-0.601,-0.238,+27.375,-4.938,+19.562,-3, -1, -1, -1, -3, -2, -2, 13
1503617790621,+0.426,+0.566,-0.194,-0.678,+0.765,-0.603,-0.229,+24.000,-4.562,+19.000,0, 5, 2, 1, -1, 1, 4, 7
1503617790643,+0.425,+0.570,-0.191,-0.677,+0.754,-0.604,-0.213,+22.375,+0.250,+16.625,7, -3, -7, -3, -3, -4, -5, 4
1503617790658,+0.423,+0.573,-0.188,-0.677,+0.768,-0.601,-0.218,+18.438,+2.312,+18.562,2, -1, -2, -1, -2, -3, -4, -9
1503617790681,+0.421,+0.576,-0.185,-0.676,+0.767,-0.631,-0.212,+18.438,+3.562,+16.562,0, 12, 4, 2, -1, 1, -3, -12
1503617790703,+0.420,+0.578,-0.183,-0.675,+0.776,-0.628,-0.211,+14.812,+0.062,+13.875,-4, -14, 3, -1, -2, -4, 0, 13
1503617790718,+0.420,+0.580,-0.181,-0.674,+0.774,-0.630,-0.215,+12.750,-3.062,+12.062,1, 3, 8, 5, 4, 0, -1, -13
1503617790741,+0.419,+0.581,-0.178,-0.674,+0.760,-0.632,-0.214,+11.625,-4.312,+11.625,-1, -3, -2, -5, -8, 1, 0, -14
1503617794004,+0.426,+0.478,-0.393,-0.660,+0.986,-0.240,-0.246,-10.750,-3.312,-10.312,12, -3, -4, -2, 9, 2, 2, 3
1503617794025,+0.427,+0.476,-0.393,-0.661,+0.994,-0.249,-0.237,-5.062,-5.250,-5.188,4, -8, -8, -3, -8, -3, -3, 3
1503617794042,+0.428,+0.475,-0.393,-0.661,+0.988,-0.262,-0.246,-0.812,-4.375,-2.750,-2, 2, 1, 2, 14, 5, 2, 3
1503617794063,+0.429,+0.475,-0.392,-0.661,+0.937,-0.262,-0.239,+4.562,-6.062,-0.562,-13, -10, -2, 5, 9, -2, -3, -9
1503617794079,+0.430,+0.476,-0.390,-0.661,+0.946,-0.287,-0.238,+9.750,-0.375,+4.750,3, 0, -8, -8, 3, 1, 1, 2
1503617794101,+0.429,+0.478,-0.389,-0.660,+0.960,-0.297,-0.227,+10.875,+6.500,+10.625,-7, -7, -5, -1, -3, 2, 2, 3
1503617794124,+0.428,+0.481,-0.388,-0.659,+0.957,-0.289,-0.179,+12.625,+4.438,+10.250,1, 6, -6, 1, -3, -4, -8, -13
1503617794145,+0.428,+0.483,-0.387,-0.659,+0.989,-0.312,-0.175,+10.562,+3.625,+8.000,0, -10, -8, -9, -27, -6, 0, 0
1503617794162,+0.428,+0.484,-0.385,-0.658,+0.964,-0.285,-0.218,+13.562,-3.375,+6.875,0, -11, -2, 3, 1, 0, 3, 4
1503617794184,+0.431,+0.485,-0.383,-0.658,+0.948,-0.296,-0.170,+12.938,-16.812,+0.688,4, 7, 6, -2, 11, 2, 5, 5
1503617794205,+0.434,+0.484,-0.380,-0.658,+0.942,-0.344,-0.140,+9.750,-24.875,-5.062,7, 4, 1, -3, -3, 2, 0, -3
1503617794222,+0.437,+0.484,-0.377,-0.658,+0.902,-0.366,-0.172,+8.188,-23.812,-9.188,6, 3, 8, 4, 2, -2, -3, 1
1503617794244,+0.439,+0.483,-0.375,-0.659,+0.850,-0.353,-0.166,+1.938,-18.625,-11.562,-6, -6, -4, -2, -6, 1, 0, 1
1503617794265,+0.440,+0.482,-0.375,-0.659,+0.884,-0.340,-0.138,-5.062,-8.312,-9.938,-5, -4, 19, 6, -8, -1, -4, -13
1503617794282,+0.440,+0.481,-0.377,-0.658,+0.939,-0.330,-0.154,-7.625,+1.812,-10.062,18, 5, -2, 0, -12, -1, 3, 10
1503617794304,+0.440,+0.480,-0.378,-0.658,+0.958,-0.322,-0.166,-11.188,-1.438,-10.938,0, 2, 1, 3, 10, 0, 3, 6
1503617794326,+0.441,+0.477,-0.380,-0.658,+0.939,-0.299,-0.182,-14.875,-6.188,-12.312,-3, 7, 3, -1, -4, -3, -5, -1
1503617794342,+0.443,+0.474,-0.382,-0.659,+0.933,-0.274,-0.184,-19.062,-7.000,-17.062,2, -8, -7, -4, 5, 14, 5, 3
1503617794364,+0.444,+0.470,-0.384,-0.659,+0.942,-0.280,-0.188,-19.438,-7.438,-17.500,-2, 10, -4, -1, -8, -2, -1, 5
1503617794388,+0.445,+0.466,-0.386,-0.660,+0.951,-0.274,-0.235,-20.062,-5.812,-16.688,-14, -18, -1, 4, 0, -1, -2, -3
1503617794401,+0.446,+0.462,-0.388,-0.661,+0.947,-0.260,-0.241,-19.500,-6.250,-16.750,-3, 0, -4, -3, -14, -7, -2, -6
1503617794424,+0.447,+0.459,-0.390,-0.662,+0.955,-0.257,-0.254,-18.312,-5.500,-13.938,6, 1, -3, -1, 2, -2, 1, 4
1503617794446,+0.448,+0.456,-0.391,-0.662,+0.955,-0.242,-0.236,-16.438,-9.188,-13.312,0, 2, 1, -1, 1, -1, 2, 0
1503617794462,+0.449,+0.453,-0.393,-0.663,+0.962,-0.236,-0.244,-16.562,-5.250,-12.375,-9, -3, 1, -3, -10, -2, -1, -18
1503617794484,+0.450,+0.450,-0.394,-0.664,+0.943,-0.223,-0.257,-15.625,-4.812,-10.500,-1, 3, -2, -1, 17, 1, -4, 2
1503617794506,+0.450,+0.447,-0.395,-0.664,+0.965,-0.235,-0.254,-14.312,-2.938,-9.438,-4, -3, -3, -9, 8, 7, 2, -1
1503617794523,+0.451,+0.445,-0.397,-0.665,+0.969,-0.217,-0.262,-14.125,-2.312,-8.188,-6, -1, -5, -2, 3, -9, -4, -6
1503617794544,+0.451,+0.443,-0.398,-0.665,+0.956,-0.198,-0.256,-8.938,-2.125,-4.938,-3, -7, -2, 6, -4, 0, -3, 7
1503617794566,+0.451,+0.442,-0.399,-0.665,+0.965,-0.223,-0.244,-9.125,-0.250,-2.312,15, 8, 6, -3, -9, 3, 2, -16
1503617794582,+0.450,+0.441,-0.400,-0.666,+0.953,-0.235,-0.229,-9.625,+2.125,-1.312,-5, -6, -8, 0, -15, -4, -1, -3
1503617794604,+0.449,+0.440,-0.401,-0.666,+0.980,-0.220,-0.226,-11.688,-0.375,-1.750,-21, 15, 13, 4, 0, -1, -5, -17
1503617794628,+0.449,+0.439,-0.401,-0.667,+0.960,-0.215,-0.262,-8.875,-0.375,+0.062,-21, -20, -14, -11, -6, -11, -7, -46
1503617794642,+0.449,+0.437,-0.401,-0.668,+0.957,-0.238,-0.252,-8.875,-6.625,-2.562,4, 3, 3, 1, 4, 2, 3, 3
1503617794664,+0.449,+0.436,-0.401,-0.669,+0.953,-0.243,-0.251,-10.562,-6.375,-1.125,8, 1, 1, 4, 14, 14, 1, 39
1503617794686,+0.449,+0.435,-0.402,-0.669,+0.932,-0.216,-0.244,-9.688,-4.438,-2.188,-13, -7, -13, -4, -6, -7, -6, 12
1503617794702,+0.449,+0.433,-0.402,-0.670,+0.933,-0.221,-0.237,-11.750,-4.062,-4.438,8, 18, 11, 7, -4, 1, 5, 10
1503617794724,+0.449,+0.431,-0.403,-0.671,+0.941,-0.213,-0.268,-12.500,-3.688,-3.812,-17, -10, -12, -4, -1, -3, -3, 16
1503617794746,+0.449,+0.429,-0.404,-0.672,+0.929,-0.205,-0.275,-10.812,-2.250,-6.125,-13, 13, 9, 1, -2, 2, -3, 16
1503617794763,+0.450,+0.427,-0.404,-0.672,+0.946,-0.229,-0.272,-9.875,-6.500,-9.125,-3, 2, 2, -2, 9, 1, -6, -14
1503617794784,+0.451,+0.425,-0.405,-0.673,+0.946,-0.221,-0.284,-10.812,-8.250,-10.000,-6, -5, -3, -1, -5, -2, -3, -2
1503617794807,+0.452,+0.422,-0.406,-0.673,+0.933,-0.190,-0.271,-9.312,-5.062,-11.812,-3, -2, -6, -3, -1, -1, -3, -14
1503617794829,+0.453,+0.420,-0.407,-0.673,+0.954,-0.183,-0.271,-8.250,-4.500,-11.125,-13, -5, 7, 2, 3, 0, -1, -9
1503617794844,+0.455,+0.418,-0.407,-0.673,+0.956,-0.191,-0.286,-9.000,-6.688,-11.688,2, -8, -5, -1, -2, -1, 0, -2
1503617794866,+0.456,+0.416,-0.408,-0.673,+0.957,-0.198,-0.268,-10.125,-6.562,-12.625,10, 19, 17, 1, -6, -5, -4, -20
1503617794881,+0.457,+0.414,-0.409,-0.673,+0.972,-0.176,-0.276,-9.625,-3.312,-10.125,3, -2, -6, -2, 7, 1, 1, -3
1503617794904,+0.458,+0.412,-0.410,-0.673,+0.977,-0.149,-0.285,-7.312,-4.625,-7.750,-11, 2, 3, -1, -1, -2, -5, -6
1503617794926,+0.458,+0.410,-0.410,-0.673,+0.969,-0.170,-0.274,-7.375,-6.125,-5.562,-5, 5, -9, -1, 5, -1, -3, 2
1503617794942,+0.459,+0.409,-0.410,-0.674,+0.961,-0.174,-0.286,-7.188,-9.125,-4.875,6, -4, -5, -5, -2, -1, 0, 5
1503617794964,+0.459,+0.407,-0.410,-0.675,+0.963,-0.160,-0.282,-7.625,-7.062,-3.688,-10, -3, 0, -3, 1, -5, -5, -20
1503617794986,+0.459,+0.406,-0.411,-0.675,+0.952,-0.167,-0.279,-6.625,-3.188,-1.562,-4, -3, 3, 3, 0, -3, -3, -26
1503617795001,+0.459,+0.405,-0.410,-0.676,+0.962,-0.166,-0.302,-5.688,-3.500,-0.125,1, -6, -7, -2, -1, -1, -6, -51
1503617795025,+0.459,+0.405,-0.410,-0.676,+0.958,-0.155,-0.300,-3.875,-3.312,+0.688,-6, -4, -7, -2, -2, -1, -1, -5
1503617795046,+0.459,+0.404,-0.410,-0.676,+0.953,-0.158,-0.299,-1.875,-1.750,+1.312,-5, -4, 0, -2, -3, -4, -1, -16
1503617795061,+0.459,+0.404,-0.410,-0.677,+0.950,-0.166,-0.283,-1.812,-2.562,+1.750,2, -9, -4, -1, -11, -1, -4, -24
1503617795084,+0.459,+0.404,-0.410,-0.677,+0.961,-0.179,-0.281,-2.438,-2.625,+2.188,-5, 8, -3, -2, 5, -2, -1, 23
1503617795106,+0.459,+0.404,-0.409,-0.677,+0.940,-0.163,-0.300,-2.562,-0.375,+3.188,2, 4, 2, 2, -2, 1, 0, 7
1503617795121,+0.458,+0.404,-0.409,-0.678,+0.950,-0.159,-0.305,-2.000,+0.125,+2.625,0, -2, -2, -1, 0, 0, -1, -10
1503617795144,+0.458,+0.404,-0.409,-0.678,+0.948,-0.162,-0.301,-0.312,-0.500,+3.438,-2, 0, 1, 1, -7, 1, 5, 14
1503617795167,+0.458,+0.405,-0.408,-0.678,+0.966,-0.189,-0.287,+1.375,-3.125,+3.188,-9, -9, -3, -3, -6, 0, -2, 2
1503617795182,+0.458,+0.405,-0.408,-0.679,+0.950,-0.187,-0.288,+0.125,-2.562,+3.625,4, 4, 3, -1, -5, 1, 1, -1
1503617795204,+0.457,+0.405,-0.407,-0.679,+0.939,-0.158,-0.310,-0.062,-0.312,+3.312,4, 5, -5, -4, 2, -1, -3, 17
1503617795226,+0.457,+0.406,-0.407,-0.679,+0.948,-0.169,-0.298,+1.812,-0.375,+5.312,-4, -7, 1, 2, 5, 1, 3, 2
1503617795242,+0.457,+0.406,-0.406,-0.679,+0.963,-0.185,-0.291,+2.250,-2.688,+5.250,-7, 2, 0, -2, 4, 2, 0, -3
1503617795263,+0.457,+0.407,-0.405,-0.680,+0.952,-0.174,-0.300,+3.125,-6.000,+3.875,-2, -2, 11, 2, 6, 0, 0, 30
1503617795285,+0.457,+0.407,-0.404,-0.680,+0.931,-0.184,-0.304,+3.000,-4.438,+3.500,3, 2, 1, 2, 3, -3, -7, -9
1503617795301,+0.457,+0.407,-0.403,-0.680,+0.920,-0.176,-0.313,+1.812,-0.062,+4.875,2, -10, -7, -3, -3, -2, 1, -18
1503617795323,+0.456,+0.408,-0.403,-0.680,+0.932,-0.191,-0.287,+1.875,+3.375,+5.812,6, -2, -10, -5, -2, -1, -2, -11
1503617795345,+0.456,+0.410,-0.403,-0.680,+0.961,-0.197,-0.284,+2.000,+4.250,+4.812,-2, 4, 4, 1, 3, 0, 3, -4
1503617795362,+0.455,+0.410,-0.402,-0.680,+0.964,-0.206,-0.281,+0.750,+0.500,+3.938,4, -7, -2, 2, 0, -1, -4, -20
1503617795383,+0.455,+0.411,-0.402,-0.681,+0.968,-0.201,-0.279,-0.062,-5.000,+3.312,3, 1, 3, -2, -9, -1, 2, 7
1503617795405,+0.455,+0.410,-0.401,-0.681,+0.942,-0.184,-0.292,-0.500,-6.688,+2.875,-8, 4, 7, 0, 2, -2, -2, -11
1503617795420,+0.455,+0.410,-0.400,-0.682,+0.933,-0.179,-0.296,-0.312,-7.000,+2.500,-7, 3, -5, -1, -3, -1, 1, 6
1503617795443,+0.456,+0.410,-0.399,-0.682,+0.941,-0.193,-0.302,+0.438,-7.875,+2.688,4, 1, 7, 0, 1, 0, 0, 8
1503617795465,+0.456,+0.409,-0.397,-0.683,+0.935,-0.198,-0.323,+0.125,-6.688,+1.938,5, 2, -4, -2, -1, -1, -1, 11
1503617795480,+0.456,+0.409,-0.397,-0.683,+0.939,-0.204,-0.305,+0.500,-4.812,+3.000,8, -1, -3, -3, -2, 0, -1, 2
1503617795503,+0.456,+0.409,-0.396,-0.684,+0.933,-0.195,-0.305,-0.125,-3.750,+3.500,-13, -3, 3, 0, 0, 0, 0, 5
1503617795528,+0.456,+0.410,-0.395,-0.684,+0.940,-0.190,-0.300,+0.000,-2.812,+3.500,-9, -7, 0, -1, 0, -1, 1, 4
1503617795540,+0.456,+0.410,-0.395,-0.685,+0.947,-0.192,-0.306,-0.438,-0.875,+3.625,1, 3, -1, -3, 5, -5, -6, -21
1503617795563,+0.455,+0.410,-0.394,-0.685,+0.937,-0.200,-0.309,+0.125,-2.688,+3.375,7, 2, 2, 2, 2, 3, 5, 19
1503617795585,+0.455,+0.410,-0.394,-0.685,+0.930,-0.207,-0.303,+0.000,-2.812,+3.625,-11, 8, 5, 1, 0, -1, -2, -4
1503617795600,+0.455,+0.410,-0.393,-0.686,+0.933,-0.207,-0.295,-0.250,-3.375,+3.188,-11, -5, -6, -1, -3, -1, -2, -10
1503617795623,+0.455,+0.410,-0.393,-0.686,+0.939,-0.208,-0.307,-1.250,-3.125,+2.000,1, 15, 12, 0, -1, -1, 1, -1
1503617795645,+0.455,+0.410,-0.392,-0.686,+0.942,-0.211,-0.310,-1.938,-2.625,+2.438,3, -8, -8, 2, -9, -1, 0, 1
1503617795661,+0.455,+0.410,-0.392,-0.687,+0.944,-0.194,-0.315,-2.312,-2.312,+3.188,1, -10, -9, -3, 1, -2, -8, -8
1503617795683,+0.454,+0.410,-0.392,-0.687,+0.945,-0.199,-0.315,-1.938,-2.562,+4.312,6, -1, 4, -2, -2, -3, 1, -5
1503617795705,+0.454,+0.410,-0.391,-0.688,+0.948,-0.197,-0.317,-2.125,-2.750,+5.312,20, 1, -4, -1, 1, 0, 3, 19
1503617795720,+0.453,+0.410,-0.390,-0.689,+0.925,-0.198,-0.327,-1.812,-2.188,+6.062,-6, -15, -11, -2, 1, 3, 2, -4
1503617795743,+0.453,+0.410,-0.390,-0.689,+0.933,-0.221,-0.299,-1.688,-2.188,+5.875,1, 3, -5, -1, -1, -4, -4, 1
1503617795765,+0.452,+0.410,-0.389,-0.690,+0.946,-0.218,-0.317,-1.688,-2.312,+5.125,-16, -15, -6, 0, 0, 0, -1, -13
1503617795780,+0.452,+0.410,-0.388,-0.690,+0.932,-0.210,-0.327,-1.188,-4.312,+4.125,1, -6, 0, -3, -2, -1, 1, 0
1503617795803,+0.452,+0.410,-0.388,-0.691,+0.928,-0.220,-0.318,-0.938,-5.250,+3.875,-8, -4, -4, -1, -3, -1, 0, 7
1503617795825,+0.452,+0.410,-0.387,-0.692,+0.937,-0.223,-0.318,-0.938,-5.562,+4.000,-5, 0, -2, -1, -4, 2, 3, 3
1503617795840,+0.451,+0.410,-0.386,-0.692,+0.918,-0.211,-0.324,-0.938,-4.312,+4.500,14, 9, 10, 1, -4, 1, -4, 5
1503617795863,+0.451,+0.410,-0.385,-0.693,+0.910,-0.212,-0.335,-0.562,-3.438,+4.500,-8, 10, 0, 0, -1, -2, -6, -1
1503617795885,+0.451,+0.410,-0.385,-0.693,+0.904,-0.210,-0.322,-0.875,+0.000,+4.250,-14, -10, 1, 0, -2, -2, -6, -17
1503617795900,+0.450,+0.410,-0.385,-0.693,+0.907,-0.225,-0.305,-1.000,-0.500,+1.938,9, -2, -2, 0, 0, -2, -3, 4
1503617795923,+0.451,+0.410,-0.384,-0.694,+0.898,-0.236,-0.306,-1.938,-1.625,-1.125,-2, -2, -1, -3, 1, -3, -2, -4
1503617795945,+0.451,+0.410,-0.385,-0.693,+0.920,-0.233,-0.314,-3.375,-1.125,-4.500,2, 5, 0, -3, 0, 1, 0, -10
1503617795965,+0.452,+0.409,-0.385,-0.693,+0.930,-0.221,-0.322,-2.812,-2.812,-5.500,6, -4, -3, -3, -2, -1, 2, 16
1503617795983,+0.453,+0.408,-0.385,-0.693,+0.914,-0.215,-0.329,-3.000,-5.375,-6.625,-6, -7, 2, 0, -3, -2, 2, 1
1503617796005,+0.454,+0.407,-0.385,-0.693,+0.912,-0.215,-0.336,-2.562,-5.188,-8.125,4, 11, -2, -2, -1, -3, -3, -9
1503617796020,+0.455,+0.406,-0.385,-0.693,+0.903,-0.214,-0.338,-3.250,-0.188,-7.688,-10, 11, -1, 2, 3, 2, 6, 5
1503617796043,+0.455,+0.406,-0.387,-0.692,+0.917,-0.203,-0.331,-2.625,+6.438,-6.188,0, -8, -8, -1, -1, 0, -1, -4
1503617796066,+0.455,+0.406,-0.388,-0.691,+0.953,-0.201,-0.329,-1.438,+8.062,-5.938,5, 1, -1, -3, -1, -3, -3, 0
1503617796088,+0.455,+0.406,-0.389,-0.690,+0.958,-0.203,-0.328,-1.500,+2.188,-5.938,0, -4, -5, -6, -5, -5, -10, -18
1503617796110,+0.456,+0.405,-0.390,-0.690,+0.932,-0.190,-0.329,-0.875,+1.188,-6.438,1, -5, -2, 0, 1, -2, 0, 7
1503617796125,+0.457,+0.405,-0.390,-0.689,+0.930,-0.188,-0.336,+0.938,+0.625,-5.562,2, 9, 5, 2, 0, -4, -7, 3
1503617796140,+0.457,+0.405,-0.390,-0.689,+0.938,-0.197,-0.328,+0.875,+3.188,-4.125,11, -4, -4, 1, -2, 0, -7, 6
1503617796163,+0.458,+0.406,-0.391,-0.688,+0.950,-0.199,-0.319,+1.250,+5.125,-2.625,0, 3, -3, -2, 0, 2, 2, -8
1503617796185,+0.457,+0.406,-0.392,-0.687,+0.971,-0.198,-0.318,+1.875,+5.188,-0.625,2, -2, -2, 1, 2, -3, -1, 3
1503617796201,+0.458,+0.407,-0.392,-0.687,+0.979,-0.195,-0.318,+1.000,-1.312,-0.250,-5, -2, 3, -1, 0, -2, 3, 4
1503617796223,+0.458,+0.406,-0.391,-0.687,+0.951,-0.187,-0.313,+0.938,-4.938,+0.062,12, 6, -1, 0, 1, -2, 0, -1
1503617796245,+0.458,+0.406,-0.390,-0.687,+0.941,-0.194,-0.326,+0.750,-4.750,+2.312,4, -6, -4, 1, 0, -1, 1, 7
1503617796260,+0.458,+0.407,-0.390,-0.688,+0.945,-0.192,-0.324,+1.812,-1.062,+4.125,3, -6, 1, 0, 0, -1, 4, 17
1503617796283,+0.458,+0.407,-0.389,-0.688,+0.945,-0.200,-0.330,+2.250,-1.625,+5.250,-7, -5, -9, -4, -4, -2, -5, -6
1503617796306,+0.458,+0.408,-0.388,-0.688,+0.938,-0.210,-0.321,+3.000,-4.375,+5.000,15, 10, 4, -1, -1, 1, 1, 10
1503617796328,+0.458,+0.408,-0.387,-0.689,+0.915,-0.214,-0.307,+1.750,-6.062,+4.062,-3, -1, 0, -1, -2, -1, 5, -1
1503617796343,+0.458,+0.408,-0.386,-0.689,+0.907,-0.209,-0.325,+1.125,-4.875,+2.688,1, 6, 2, 1, 2, 1, 2, 1
1503617796365,+0.458,+0.409,-0.385,-0.689,+0.906,-0.197,-0.341,+2.750,+1.438,+2.438,0, -5, -7, -2, -1, 0, -6, -11
1503617796381,+0.458,+0.409,-0.385,-0.689,+0.928,-0.211,-0.320,+3.812,+0.375,+2.000,-2, -5, -2, 0, 1, -1, 0, 0
1503617796403,+0.458,+0.410,-0.384,-0.689,+0.929,-0.235,-0.316,+2.562,-3.750,-0.438,5, -1, 2, 3, 2, 0, -1, 8
1503617796426,+0.459,+0.409,-0.383,-0.689,+0.905,-0.216,-0.325,+1.625,-5.562,-3.375,-4, -2, -2, -3, -6, -2, -5, -6
1503617796442,+0.460,+0.410,-0.383,-0.688,+0.879,-0.204,-0.325,+1.375,+0.875,-3.938,-3, 8, 5, -4, -2, -1, 0, -8
1503617796466,+0.460,+0.410,-0.384,-0.688,+0.899,-0.217,-0.315,+0.500,+5.500,-3.750,2, 0, 0, 1, 1, 0, 4, 7
1503617796486,+0.460,+0.411,-0.386,-0.687,+0.921,-0.218,-0.303,-2.000,+10.000,-4.875,-6, -4, -1, -1, -1, -2, -5, -2
1503617796501,+0.460,+0.411,-0.388,-0.685,+0.938,-0.212,-0.293,-3.312,+9.875,-7.500,-3, -11, -3, -3, 1, -1, -1, -4
1503617796523,+0.459,+0.411,-0.390,-0.684,+0.970,-0.212,-0.292,-5.000,+8.188,-7.312,2, 15, 5, 0, 1, -3, -1, -2
1503617796545,+0.460,+0.410,-0.391,-0.684,+0.971,-0.186,-0.312,-5.375,+5.688,-7.125,5, -3, -4, -3, 2, 1, -1, 1
1503617796561,+0.460,+0.409,-0.393,-0.683,+0.971,-0.189,-0.308,-4.062,+2.000,-7.312,-7, -4, -2, 1, 0, 1, -4, -6
1503617796583,+0.461,+0.409,-0.393,-0.683,+0.987,-0.184,-0.334,-3.688,-1.688,-5.688,-2, -3, -6, -1, -2, 0, 1, 0
1503617796605,+0.462,+0.408,-0.393,-0.683,+0.960,-0.164,-0.340,-1.375,-2.750,-2.375,-6, -5, 0, -2, -1, -1, -3, -4
1503617796621,+0.462,+0.408,-0.392,-0.683,+0.938,-0.188,-0.344,+1.062,-2.438,+2.062,5, -4, 2, 4, 0, 0, -1, 2
1503617796643,+0.461,+0.408,-0.392,-0.683,+0.949,-0.194,-0.340,+1.875,-0.188,+4.812,3, -2, -1, -1, -2, -4, 1, 8
1503617796668,+0.461,+0.409,-0.391,-0.683,+0.943,-0.184,-0.327,+2.625,+1.562,+7.125,0, 0, 0, 0, 1, 1, 4, 3
1503617796687,+0.460,+0.410,-0.391,-0.684,+0.924,-0.190,-0.306,+2.312,+1.188,+7.250,-2, -6, -2, -1, 0, -2, -7, -15
1503617796705,+0.460,+0.411,-0.391,-0.684,+0.924,-0.193,-0.303,+2.250,+2.938,+5.750,-4, -1, -1, -3, -8, -2, -7, -14
1503617796726,+0.459,+0.412,-0.391,-0.683,+0.956,-0.184,-0.299,+1.938,+3.375,+4.625,4, 2, 4, 2, 1, -2, -7, 5
1503617796741,+0.459,+0.412,-0.390,-0.683,+0.958,-0.205,-0.306,+1.312,-1.000,+3.812,2, -4, -3, 0, 1, -1, 2, -2
1503617796763,+0.459,+0.413,-0.389,-0.684,+0.935,-0.223,-0.304,+0.625,-6.438,+3.188,-5, 5, 3, -2, -1, -1, -3, 1
1503617796785,+0.459,+0.413,-0.388,-0.685,+0.912,-0.217,-0.314,+1.312,-6.625,+2.688,-1, -7, -2, 2, -1, -1, 4, -2
1503617796801,+0.459,+0.413,-0.387,-0.685,+0.874,-0.212,-0.333,+1.812,-1.312,+2.500,0, 2, 4, 0, 0, 0, 3, 8
1503617796823,+0.459,+0.413,-0.387,-0.685,+0.889,-0.216,-0.317,+0.875,+2.688,+2.062,1, 3, 1, 0, -2, 1, 4, 5
1503617796845,+0.458,+0.414,-0.388,-0.685,+0.929,-0.224,-0.284,-2.500,+7.062,+1.000,0, 13, 10, 0, -1, -1, 2, 10
1503617796861,+0.457,+0.414,-0.389,-0.684,+0.958,-0.209,-0.274,-4.812,+7.438,-0.250,9, -14, -11, -2, -1, 0, 0, 6
1503617796883,+0.457,+0.414,-0.390,-0.684,+0.954,-0.200,-0.287,-5.625,+1.938,-2.562,-6, -7, -6, -2, 0, 3, 9, 3
1503617796905,+0.457,+0.413,-0.391,-0.684,+0.956,-0.204,-0.308,-4.750,-3.562,-5.375,-2, -7, -5, -2, 0, -2, -5, -2
1503617796921,+0.458,+0.412,-0.390,-0.684,+0.937,-0.203,-0.336,-4.000,-6.750,-5.688,-6, -7, -5, 0, -1, -2, -1, 5
1503617796943,+0.459,+0.411,-0.390,-0.684,+0.929,-0.205,-0.334,-2.188,-5.125,-4.188,0, -6, -3, 0, 0, 0, 0, 9
1503617796967,+0.460,+0.410,-0.390,-0.685,+0.933,-0.199,-0.333,-2.250,-1.625,-1.750,3, -2, -3, 1, -1, -3, -3, -10
1503617796981,+0.460,+0.410,-0.390,-0.685,+0.940,-0.188,-0.326,-1.250,+0.375,-0.312,-3, -2, -3, -3, -4, -1, -4, -11
1503617797003,+0.460,+0.410,-0.390,-0.685,+0.943,-0.187,-0.321,-0.938,-0.250,+1.125,0, 0, 1, -1, 1, 0, -1, -4
1503617797025,+0.460,+0.410,-0.390,-0.685,+0.940,-0.188,-0.324,-0.500,-0.438,+1.000,0, -2, -3, -1, 1, 0, -6, -2
1503617797041,+0.460,+0.410,-0.390,-0.685,+0.924,-0.194,-0.324,+0.375,-1.812,+0.188,5, 16, -2, 0, 1, 1, -4, -19
1503617797063,+0.460,+0.410,-0.389,-0.685,+0.905,-0.205,-0.328,+0.500,-0.500,-1.188,1, -9, -9, -1, -1, -3, 1, 2
1503617797085,+0.460,+0.410,-0.389,-0.684,+0.890,-0.198,-0.330,+0.625,+3.438,-2.438,4, 17, 12, -1, -2, -1, -2, -6
1503617797101,+0.460,+0.411,-0.390,-0.683,+0.898,-0.208,-0.314,+0.562,+7.000,-4.188,-2, -2, -3, -1, -1, -1, -4, -9
1503617797123,+0.460,+0.411,-0.392,-0.682,+0.946,-0.216,-0.278,-0.625,+9.750,-5.625,-1, -3, 14, 6, 2, 1, 3, 1
1503617797145,+0.460,+0.412,-0.394,-0.681,+0.980,-0.192,-0.295,-1.375,+7.938,-7.500,-2, -11, -10, -3, -4, -1, -1, 4
1503617797161,+0.461,+0.411,-0.395,-0.680,+0.977,-0.179,-0.293,-1.062,+0.438,-8.500,4, 2, -1, -1, -1, -1, 0, -6
1503617797183,+0.463,+0.410,-0.394,-0.680,+0.960,-0.194,-0.310,+0.125,-6.500,-7.938,1, 2, 0, 0, -4, -1, -4, 2
1503617797205,+0.464,+0.410,-0.394,-0.679,+0.946,-0.193,-0.320,+0.562,-4.375,-6.188,0, 1, -5, -3, -1, -3, -2, 1
1503617797221,+0.465,+0.409,-0.394,-0.679,+0.949,-0.178,-0.324,+0.688,-1.938,-2.062,-1, -2, -4, -4, 0, 0, 5, 3
1503617797244,+0.465,+0.410,-0.394,-0.679,+0.954,-0.182,-0.306,+0.938,-0.188,+1.312,1, 5, 2, -2, -2, -3, 2, 3
1503617797265,+0.464,+0.410,-0.394,-0.679,+0.956,-0.189,-0.309,+0.438,-0.250,+3.000,1, -5, -6, -3, -1, 0, 4, 8
1503617797281,+0.464,+0.410,-0.393,-0.679,+0.938,-0.179,-0.307,+0.000,-0.312,+3.812,-2, -4, 6, 0, -2, -3, -2, 8
1503617797305,+0.464,+0.410,-0.393,-0.680,+0.931,-0.181,-0.303,-0.750,-1.375,+2.375,4, 23, 6, 0, 1, 0, 0, 0
1503617797325,+0.464,+0.410,-0.393,-0.680,+0.937,-0.192,-0.308,-1.062,-1.875,+0.500,15, 0, -7, -1, -4, 0, -2, -9
1503617797341,+0.464,+0.410,-0.393,-0.680,+0.928,-0.201,-0.313,-1.688,-1.500,-0.625,-2, -6, -1, 1, 1, 2, 1, 3
1503617797365,+0.464,+0.410,-0.393,-0.680,+0.929,-0.198,-0.312,-2.875,-0.875,-1.062,-7, -2, -3, 1, -1, 1, -3, -8
1503617797386,+0.464,+0.409,-0.393,-0.680,+0.951,-0.192,-0.312,-2.312,-0.875,-2.188,-7, -2, -1, -1, 2, -3, -1, -5
1503617797403,+0.465,+0.409,-0.393,-0.680,+0.953,-0.185,-0.321,-2.062,-2.250,-2.312,-3, 2, 0, -1, -4, -3, 0, -1
1503617797424,+0.465,+0.408,-0.393,-0.680,+0.949,-0.179,-0.330,-1.188,-3.625,-2.438,-3, -1, 2, 1, 3, 1, 2, 0
1503617797446,+0.466,+0.408,-0.392,-0.680,+0.943,-0.179,-0.320,-0.188,-5.000,-1.438,-6, -2, 2, -1, 0, -4, -6, -9
1503617797462,+0.466,+0.408,-0.392,-0.680,+0.962,-0.181,-0.315,+0.875,-4.312,-0.688,-2, 6, 0, -1, 0, 0, 0, 9
1503617797484,+0.467,+0.407,-0.391,-0.680,+0.957,-0.186,-0.316,+1.125,-5.812,-0.250,13, -15, -12, -6, -4, 0, 0, -4
1503617797506,+0.468,+0.407,-0.390,-0.681,+0.944,-0.188,-0.337,+2.125,-8.438,+0.625,1, -6, -1, -1, 1, -2, -2, -9
1503617797522,+0.468,+0.407,-0.389,-0.681,+0.951,-0.172,-0.327,+3.125,-3.812,+2.250,0, 2, 2, 2, 2, 1, -12, -2
1503617797545,+0.468,+0.408,-0.388,-0.681,+0.966,-0.173,-0.337,+4.562,+0.875,+5.625,-2, 2, -1, 0, -2, -2, 5, 1
1503617797566,+0.468,+0.410,-0.386,-0.681,+0.976,-0.199,-0.349,+9.938,-4.250,+7.938,-2, -5, 1, -4, -1, 0, -3, -6
1503617797582,+0.468,+0.411,-0.384,-0.682,+0.967,-0.203,-0.340,+9.375,-8.562,+9.438,1, -2, -2, 2, -2, -2, -4, -11
1503617797605,+0.469,+0.412,-0.381,-0.682,+0.958,-0.173,-0.354,+11.312,-10.938,+12.312,1, 2, -4, -2, -2, -2, 3, 7
1503617797625,+0.469,+0.414,-0.378,-0.683,+0.928,-0.175,-0.364,+14.625,-7.688,+17.312,0, -2, -2, 0, 0, 0, 5, 26
1503617797651,+0.468,+0.416,-0.375,-0.684,+0.936,-0.193,-0.342,+15.250,-4.688,+20.250,-4, 1, 1, 1, 2, 3, 1, -4
1503617797664,+0.467,+0.419,-0.371,-0.685,+0.951,-0.202,-0.350,+17.438,-4.250,+22.688,0, -1, 0, 5, 2, 1, 2, -5
1503617797686,+0.466,+0.423,-0.368,-0.685,+0.945,-0.212,-0.348,+20.062,-3.000,+24.375,-1, 10, 1, -6, -4, -4, -4, 4
1503617797708,+0.465,+0.426,-0.363,-0.686,+0.956,-0.224,-0.357,+23.438,-8.188,+25.375,-11, -3, 1, 0, -1, 2, 1, -10
1503617800064,+0.548,+0.516,-0.406,-0.518,+0.969,-0.095,-0.104,-2.500,+0.000,-1.938,23, 5, -6, -4, -4, -3, -1, 2
1503617800086,+0.548,+0.516,-0.406,-0.518,+1.044,-0.119,-0.071,-3.312,-1.312,-5.000,-18, 10, 9, -3, -5, -1, 2, -2
1503617800109,+0.550,+0.514,-0.407,-0.518,+1.019,-0.078,-0.072,-5.188,-10.875,-11.188,-5, 6, 1, -3, -1, -4, -3, 1
1503617800125,+0.550,+0.513,-0.407,-0.517,+1.001,-0.080,-0.091,-3.375,-1.188,-5.812,-4, -11, -9, -5, -6, -3, -1, -2
1503617800146,+0.551,+0.512,-0.408,-0.517,+0.998,-0.074,-0.088,-5.000,-6.188,-7.625,16, -4, 1, 3, -2, -1, 0, 0
1503617800169,+0.551,+0.512,-0.408,-0.517,+1.050,-0.065,-0.067,-2.688,+0.688,-0.438,3, -2, -2, 2, 1, 2, 1, 5
1503617800184,+0.550,+0.512,-0.409,-0.517,+1.062,-0.066,-0.073,-4.562,-0.562,+1.375,-6, 15, 4, 1, -3, -2, -1, -4
1503617800206,+0.550,+0.512,-0.409,-0.518,+1.031,-0.087,-0.070,-4.750,-2.250,+3.500,-11, -5, -2, 1, 5, 1, -6, -10
1503617800229,+0.550,+0.511,-0.408,-0.519,+0.998,-0.057,-0.092,-6.312,-8.000,+3.875,-24, 2, -12, -5, -7, -6, -4, -8
1503617800242,+0.550,+0.509,-0.407,-0.521,+0.987,-0.080,-0.104,-5.625,-14.188,+4.062,5, -3, 0, 2, 1, 7, 5, 10
1503617800266,+0.551,+0.508,-0.406,-0.523,+1.010,-0.104,-0.089,-7.125,-15.125,+3.000,-5, -14, -11, -8, -3, -2, -1, 0
1503617800288,+0.551,+0.506,-0.406,-0.525,+0.991,-0.108,-0.101,-11.375,-13.500,+2.812,9, 18, 6, 4, 0, -2, 2, 4
1503617800302,+0.551,+0.504,-0.405,-0.528,+0.992,-0.092,-0.107,-15.000,-12.562,+3.750,13, 18, 7, 4, 8, -1, -4, -3
1503617800326,+0.551,+0.501,-0.405,-0.530,+0.988,-0.068,-0.126,-14.375,-17.688,+3.625,1, -9, 1, -4, -4, -2, -2, 1
1503617800347,+0.552,+0.498,-0.404,-0.533,+0.990,-0.085,-0.134,-13.562,-22.250,+0.625,2, 8, 5, 3, 9, -1, -7, -4
1503617800370,+0.552,+0.496,-0.404,-0.536,+0.947,-0.090,-0.151,-16.250,-12.188,+2.375,5, 4, -5, -1, 1, 4, -3, 3
1503617800385,+0.551,+0.494,-0.404,-0.538,+1.001,-0.080,-0.162,-16.625,-9.875,+5.500,-8, 0, 10, 0, -2, -9, -7, -7
1503617800407,+0.551,+0.491,-0.404,-0.540,+1.021,-0.067,-0.142,-14.375,-9.875,+0.625,7, -1, 0, -1, -3, 3, 7, -2
1503617800430,+0.552,+0.489,-0.404,-0.542,+1.004,-0.095,-0.154,-11.812,-18.000,-5.062,6, 0, 3, 4, 7, 13, 9, 13
1503617800445,+0.553,+0.486,-0.404,-0.543,+0.975,-0.089,-0.147,-12.125,-15.938,-6.062,10, -6, -2, -3, -9, -5, -3, -1
1503617800468,+0.554,+0.483,-0.404,-0.545,+0.976,-0.072,-0.186,-14.125,-12.812,-6.188,8, -2, 11, 2, -1, 1, -6, -3
1503617800490,+0.554,+0.480,-0.405,-0.546,+1.000,-0.058,-0.155,-14.562,-8.375,-4.688,-25, -11, 3, 0, -5, -9, -7, -9
1503617800505,+0.555,+0.478,-0.406,-0.547,+1.009,-0.088,-0.162,-10.250,-11.750,-9.562,2, -1, -12, -5, -7, -4, -1, -1
1503617800528,+0.557,+0.474,-0.406,-0.547,+0.988,-0.091,-0.125,-11.688,-22.250,-16.750,6, -8, -6, -3, 1, 3, 6, 14
1503617800554,+0.560,+0.469,-0.406,-0.549,+0.976,-0.082,-0.153,-14.750,-27.500,-16.438,-3, -14, -9, -4, -3, -1, 0, 1
1503617800565,+0.562,+0.464,-0.407,-0.551,+0.962,-0.042,-0.208,-19.750,-26.625,-11.938,10, 5, 1, 2, 7, 6, -4, -3
1503617800588,+0.564,+0.459,-0.407,-0.553,+0.977,+0.022,-0.259,-19.750,-20.125,-10.875,-3, 9, -4, -3, -3, 0, -6, -3
1503617800610,+0.565,+0.456,-0.408,-0.554,+1.023,+0.009,-0.223,-12.062,-13.250,-3.625,9, 3, 4, 2, 3, 5, -1, -5
1503617800625,+0.566,+0.454,-0.407,-0.555,+1.011,-0.040,-0.210,-4.750,-15.688,-4.562,-9, 9, 41, 20, 9, 2, 1, -4
1503617800647,+0.567,+0.452,-0.407,-0.556,+0.961,-0.059,-0.204,-7.688,-11.688,-6.188,4, -10, -25, -11, -3, -1, 3, 1
1503617800670,+0.567,+0.450,-0.408,-0.557,+0.974,-0.034,-0.219,-12.688,-4.000,+0.250,-4, 3, -8, -4, -11, -6, 1, -2
1503617800686,+0.565,+0.450,-0.409,-0.558,+1.023,-0.013,-0.220,-11.812,+3.938,+6.438,0, -14, -5, 0, 0, -1, -2, -3
1503617800708,+0.564,+0.450,-0.409,-0.559,+1.046,-0.015,-0.170,-4.188,-6.188,+7.000,-6, 18, 12, 1, 1, -8, -3, -11
1503617800730,+0.566,+0.447,-0.407,-0.560,+1.002,-0.057,-0.198,-4.375,-24.062,-1.312,10, -3, -3, -3, -8, -3, 0, 4
1503617800745,+0.567,+0.444,-0.405,-0.562,+0.903,-0.057,-0.242,-7.188,-20.812,-2.875,-3, -11, -6, 3, 7, 1, -6, -5
1503617800768,+0.568,+0.442,-0.405,-0.564,+0.947,-0.015,-0.263,-8.188,-12.312,+2.438,12, 5, -1, -6, -8, 3, 3, 7
1503617800790,+0.567,+0.441,-0.404,-0.566,+1.021,-0.033,-0.238,-8.562,-7.000,+6.250,0, -12, -8, -2, 1, -9, 0, 0
1503617800805,+0.566,+0.441,-0.404,-0.567,+1.027,-0.057,-0.190,-9.500,-8.438,+5.250,0, 8, 5, -2, -7, -10, 1, 3
1503617800828,+0.566,+0.439,-0.403,-0.569,+1.009,-0.033,-0.225,-9.812,-18.562,+5.312,-9, -4, 4, 1, -3, -4, -5, -5
1503617800858,+0.567,+0.436,-0.402,-0.572,+0.952,-0.020,-0.258,-9.625,-20.438,+4.125,2, 2, 8, 3, 1, 5, 1, 1
1503617800865,+0.568,+0.434,-0.400,-0.574,+0.946,-0.030,-0.270,-8.188,-15.750,+5.188,-3, -2, -9, -3, -1, -2, 3, -6
1503617800888,+0.567,+0.432,-0.399,-0.576,+0.972,-0.031,-0.282,-8.562,-13.250,+6.938,6, 2, 1, 1, 10, 1, 12, 11
1503617800910,+0.567,+0.431,-0.399,-0.578,+0.961,-0.044,-0.287,-8.062,-7.062,+6.250,8, 7, 2, -1, -1, 4, 6, 11
1503617800925,+0.566,+0.431,-0.399,-0.579,+0.947,-0.044,-0.285,-7.188,+0.312,+5.250,-3, -5, -13, -7, -3, -4, -9, -6
1503617800948,+0.565,+0.432,-0.397,-0.580,+0.963,-0.073,-0.243,-0.562,-3.438,+13.500,-6, 7, 6, 0, -4, -5, -8, -10
1503617800970,+0.563,+0.432,-0.397,-0.582,+0.968,-0.079,-0.229,-4.875,-2.812,+9.562,-3, -3, -2, 1, 2, -1, -5, -7
1503617800987,+0.563,+0.431,-0.396,-0.584,+0.965,-0.063,-0.272,-9.312,-7.875,+6.688,-14, 1, -1, -1, -6, -3, 0, -7
1503617801008,+0.562,+0.429,-0.396,-0.585,+0.902,-0.026,-0.307,-10.625,-3.938,+5.312,5, 1, 1, -2, -4, -2, 0, -8
1503617801030,+0.561,+0.429,-0.397,-0.586,+0.926,-0.033,-0.288,-10.562,+2.250,+5.625,1, 6, 5, 3, -2, -4, -5, 1
1503617801045,+0.560,+0.429,-0.398,-0.587,+0.978,-0.048,-0.285,-8.438,+6.000,+6.688,2, -3, -1, -3, 2, -1, 0, 20
1503617801068,+0.558,+0.429,-0.398,-0.588,+0.990,-0.057,-0.264,-7.062,+5.625,+6.625,7, 3, -4, 0, 3, 1, 5, -9
1503617801083,+0.557,+0.430,-0.399,-0.588,+0.990,-0.059,-0.269,-3.812,+1.312,+5.000,-6, -7, -1, 0, 0, -1, -3, 12
1503617801105,+0.557,+0.429,-0.398,-0.589,+0.961,-0.063,-0.284,-2.062,-3.625,+2.188,-3, 9, 7, 2, 0, -3, -1, -1
1503617801128,+0.557,+0.429,-0.398,-0.590,+0.938,-0.058,-0.304,-2.438,+0.688,+3.188,6, 8, 4, 0, 0, 0, 1, 6
1503617801143,+0.556,+0.430,-0.398,-0.590,+0.934,-0.055,-0.277,-2.000,+8.938,+4.750,-12, -29, -11, -3, -9, -1, 0, -6
1503617801165,+0.554,+0.431,-0.399,-0.589,+0.975,-0.058,-0.259,-1.625,+10.625,+7.625,3, 5, 0, -2, 0, 0, 0, -1
1503617801189,+0.553,+0.433,-0.400,-0.589,+0.991,-0.055,-0.250,-2.000,+9.125,+6.375,9, 24, 17, 2, 9, -3, 2, 10
1503617801210,+0.552,+0.433,-0.400,-0.589,+0.982,-0.055,-0.248,-1.125,+4.062,+4.250,-10, -14, -5, 1, -3, -2, -7, -13
1503617801233,+0.552,+0.434,-0.400,-0.590,+0.985,-0.059,-0.263,+1.188,-0.688,+3.625,-6, 4, -1, -3, -6, 0, -4, -20
1503617801248,+0.552,+0.434,-0.399,-0.590,+0.966,-0.074,-0.254,+2.000,-3.688,+2.562,-2, -3, 0, 1, 3, -3, 2, 13
1503617801265,+0.552,+0.434,-0.398,-0.590,+0.953,-0.091,-0.266,+1.188,-4.875,+3.062,6, 7, 6, 5, 4, 2, -1, -4
1503617801285,+0.552,+0.434,-0.397,-0.591,+0.970,-0.067,-0.268,+0.000,-3.438,+2.000,-3, -5, -11, -3, -7, 22, -2, 2
1503617801308,+0.553,+0.434,-0.396,-0.591,+0.973,-0.075,-0.264,+0.438,-3.938,+2.000,-4, -8, -7, -4, -3, 0, -9, -3
1503617801325,+0.553,+0.434,-0.396,-0.591,+0.963,-0.074,-0.257,-0.500,-4.500,+0.750,6, 1, -2, -2, -1, -6, -2, -22
1503617801345,+0.553,+0.433,-0.395,-0.592,+0.966,-0.073,-0.261,+0.062,-4.312,-0.125,-5, -9, -2, -2, 0, -6, 4, 4
1503617801367,+0.554,+0.433,-0.395,-0.592,+0.965,-0.072,-0.273,+0.938,-3.312,-1.188,-4, 4, -3, -2, 0, -2, 2, 26
1503617801383,+0.554,+0.433,-0.394,-0.592,+0.957,-0.069,-0.277,+0.500,-2.938,-0.500,-4, 6, 0, -2, 0, -5, 1, -3
1503617801405,+0.554,+0.433,-0.394,-0.592,+0.972,-0.069,-0.265,+0.375,-2.125,+0.562,7, -9, -5, -3, -3, 2, 4, 5
1503617801428,+0.554,+0.433,-0.394,-0.592,+0.987,-0.074,-0.255,-0.312,+0.500,+1.688,-14, -10, 4, 1, 0, -1, -1, -12
1503617801443,+0.554,+0.433,-0.394,-0.592,+0.996,-0.073,-0.269,-0.500,-1.000,+2.625,4, 0, 2, 1, 1, -5, -10, 26
1503617801465,+0.554,+0.433,-0.393,-0.592,+0.978,-0.068,-0.272,-1.062,-2.750,+3.375,-4, 4, 0, 0, -1, -1, 1, -19
1503617801490,+0.554,+0.433,-0.393,-0.593,+0.965,-0.068,-0.264,-0.875,-2.500,+3.938,0, -2, -2, -4, -2, -2, 3, -9
1503617801510,+0.553,+0.434,-0.392,-0.593,+0.976,-0.078,-0.269,-0.625,-2.375,+5.250,-9, -14, 1, 2, -1, -3, -3, -9
1503617801525,+0.552,+0.434,-0.392,-0.594,+0.978,-0.083,-0.279,-1.812,+1.750,+6.375,4, 4, 2, -1, 0, 1, 3, 9
1503617801548,+0.551,+0.435,-0.392,-0.594,+0.967,-0.072,-0.276,-0.812,+2.938,+7.938,-3, 0, -2, -2, 0, -1, 1, -14
1503617801571,+0.551,+0.436,-0.391,-0.595,+0.980,-0.087,-0.262,+0.000,-0.875,+9.062,9, 2, -1, 0, 0, 0, 1, 9
1503617801585,+0.550,+0.436,-0.390,-0.596,+0.971,-0.092,-0.260,-1.125,-1.250,+8.875,-4, 3, -2, -1, 0, -1, -2, -4
1503617801608,+0.549,+0.437,-0.390,-0.597,+0.961,-0.091,-0.256,-1.438,-0.312,+8.812,7, 4, -3, -3, -8, -6, 3, -15
1503617801635,+0.547,+0.438,-0.389,-0.598,+0.979,-0.089,-0.266,-2.375,+2.312,+10.375,1, -7, -8, -4, -3, -1, -4, 5
1503617801645,+0.546,+0.438,-0.389,-0.599,+0.976,-0.098,-0.269,-2.312,+3.375,+10.625,0, 4, -1, -2, 3, 0, -4, -4
1503617801668,+0.545,+0.439,-0.389,-0.600,+0.969,-0.104,-0.263,-2.562,+1.438,+10.688,-7, -2, 0, 4, -1, 0, -5, -4
1503617801691,+0.543,+0.440,-0.389,-0.601,+0.963,-0.099,-0.252,-4.625,+1.625,+9.625,5, 3, 0, -1, 0, 1, 2, 1
1503617801705,+0.541,+0.441,-0.388,-0.602,+0.983,-0.106,-0.225,-5.000,+2.188,+13.562,5, 3, -3, -1, 0, -1, 0, 6
1503617801727,+0.540,+0.441,-0.388,-0.603,+0.987,-0.094,-0.263,-3.875,+0.875,+11.188,-10, 2, 5, 1, -2, 2, 0, -5
1503617801750,+0.539,+0.441,-0.387,-0.604,+0.968,-0.103,-0.268,-4.375,-5.688,+10.188,5, -2, -3, -2, -3, 0, 4, 8
1503617801765,+0.538,+0.440,-0.386,-0.606,+0.957,-0.119,-0.268,-5.188,-8.062,+9.938,-15, -12, 0, -1, 1, 0, 1, -9
1503617801787,+0.537,+0.441,-0.385,-0.608,+0.955,-0.126,-0.273,-5.312,-2.562,+12.062,-3, -6, -5, 0, 0, -2, -7, -3
1503617801810,+0.535,+0.441,-0.385,-0.609,+0.976,-0.125,-0.263,-5.938,+1.875,+14.250,2, -4, 0, 0, 1, -1, -3, 5
1503617801826,+0.533,+0.442,-0.384,-0.611,+0.998,-0.116,-0.260,-4.188,-0.812,+16.188,2, -3, -3, -3, -1, -1, -1, 12
1503617801848,+0.532,+0.442,-0.383,-0.612,+0.966,-0.118,-0.297,-2.562,-3.562,+13.125,2, 0, 2, 1, 0, -1, 3, -2
1503617801870,+0.531,+0.442,-0.381,-0.614,+0.938,-0.115,-0.292,-1.375,-8.688,+13.125,2, 1, 0, 1, 1, 0, -1, -2
1503617801886,+0.530,+0.442,-0.379,-0.616,+0.950,-0.134,-0.280,-0.812,-3.688,+15.875,8, -1, -1, 0, -2, -2, 1, 7
1503617801908,+0.528,+0.444,-0.378,-0.617,+0.980,-0.153,-0.277,+0.062,+3.688,+18.500,-8, 0, 5, -1, 0, 2, -1, 0
1503617801930,+0.526,+0.446,-0.377,-0.619,+1.001,-0.145,-0.275,+0.375,+3.562,+20.250,7, -3, -7, -2, -1, 0, 1, 5
1503617801946,+0.524,+0.447,-0.375,-0.620,+0.995,-0.133,-0.284,+1.312,-2.062,+21.062,-3, -1, -2, 0, 1, -1, -3, -4
1503617801968,+0.523,+0.448,-0.373,-0.622,+0.985,-0.133,-0.304,+4.812,-6.250,+23.438,-9, 0, 0, -2, -2, -1, 2, -9
1503617801993,+0.521,+0.450,-0.369,-0.625,+0.962,-0.156,-0.288,+5.875,-9.188,+26.062,0, 0, 0, -1, -2, -1, -1, 5
1503617802005,+0.519,+0.451,-0.366,-0.627,+0.956,-0.171,-0.297,+5.688,-6.250,+28.375,3, 28, 16, 2, 1, -1, 5, -9
1503617802028,+0.517,+0.454,-0.362,-0.629,+0.950,-0.179,-0.305,+7.688,-2.375,+30.812,-5, -10, -8, -2, 0, -1, -1, -3
1503617802050,+0.514,+0.457,-0.359,-0.631,+0.948,-0.200,-0.284,+8.625,-1.438,+32.312,-5, -3, 0, 1, 0, -1, -2, 5
1503617802066,+0.511,+0.459,-0.355,-0.634,+0.942,-0.219,-0.289,+8.812,-2.812,+32.625,-4, -3, -2, -4, -1, 0, 3, -2
1503617802088,+0.509,+0.462,-0.351,-0.636,+0.931,-0.226,-0.281,+9.688,-2.312,+32.062,9, -5, -4, -4, -1, -3, -3, 6
1503617802110,+0.506,+0.465,-0.348,-0.638,+0.887,-0.249,-0.274,+8.875,-1.375,+30.938,-12, -8, -4, 0, 0, -1, -1, -7
1503617802127,+0.503,+0.468,-0.345,-0.640,+0.864,-0.262,-0.277,+8.000,+1.312,+25.875,3, -2, 0, 0, 0, -1, -2, -2
1503617802147,+0.501,+0.470,-0.342,-0.641,+0.838,-0.272,-0.269,+8.000,+4.125,+20.000,1, 1, -2, -1, -3, -1, -1, 1
1503617802170,+0.500,+0.473,-0.341,-0.641,+0.839,-0.286,-0.254,+7.500,+4.938,+10.562,5, 9, 3, 1, -1, -2, -2, -3
1503617802186,+0.499,+0.474,-0.341,-0.640,+0.858,-0.297,-0.254,+5.375,+7.750,+1.250,-6, -5, -1, 2, 1, -1, -5, -9
1503617802207,+0.499,+0.476,-0.341,-0.639,+0.867,-0.309,-0.256,+3.438,+8.000,-5.250,1, -2, -4, -3, -2, 0, -2, -2
1503617802231,+0.500,+0.476,-0.343,-0.637,+0.878,-0.299,-0.229,+1.188,+6.062,-15.375,-1, 1, 0, -1, -1, -1, -3, -3
1503617802246,+0.502,+0.475,-0.345,-0.635,+0.895,-0.284,-0.245,-0.062,+4.688,-23.812,1, 2, 2, 1, 1, 1, -3, 3
1503617802269,+0.504,+0.474,-0.347,-0.633,+0.898,-0.286,-0.263,-0.062,+3.750,-27.562,6, 0, -1, -1, -2, -2, 2, 3
1503617802290,+0.508,+0.473,-0.349,-0.630,+0.903,-0.269,-0.250,-1.125,+0.438,-32.500,6, -1, -1, -1, 0, 1, -1, 4
1503617802306,+0.512,+0.471,-0.352,-0.627,+0.937,-0.226,-0.252,-1.438,+0.750,-37.188,0, -2, -2, -2, -3, -2, 0, 1
1503617802328,+0.515,+0.468,-0.356,-0.623,+0.937,-0.196,-0.270,-1.312,+3.375,-36.250,-1, -1, -2, -3, -2, -2, 5, -1
1503617802350,+0.519,+0.467,-0.359,-0.620,+0.927,-0.198,-0.259,-1.375,+4.375,-35.875,-3, -3, -1, 1, -1, -1, -2, -4
1503617802366,+0.522,+0.465,-0.363,-0.616,+0.957,-0.192,-0.262,-3.188,+7.250,-37.000,4, -16, -6, -2, 0, -1, -2, 5
1503617802388,+0.524,+0.463,-0.367,-0.613,+0.979,-0.164,-0.281,-4.438,+12.688,-31.812,1, 1, 1, 0, -1, 1, 2, 0
1503617802410,+0.526,+0.462,-0.372,-0.609,+0.981,-0.137,-0.247,-4.375,+17.312,-28.500,3, 0, -3, -1, -2, 1, -2, -5
1503617802429,+0.528,+0.462,-0.376,-0.606,+1.038,-0.123,-0.233,-2.000,+12.750,-27.812,4, 1, 2, 1, 0, -1, -2, 2
1503617802449,+0.530,+0.461,-0.379,-0.603,+1.069,-0.136,-0.253,-0.812,+4.750,-23.188,7, 4, 0, 1, 1, 0, -4, 4
1503617802470,+0.532,+0.459,-0.380,-0.602,+1.032,-0.136,-0.251,-1.375,-4.625,-19.125,-11, -3, 0, 0, 0, -2, -5, -4
1503617802493,+0.534,+0.457,-0.381,-0.601,+1.000,-0.115,-0.226,-4.000,-6.500,-14.875,0, -11, -6, -3, -3, 0, -2, -14
1503617802515,+0.535,+0.456,-0.382,-0.600,+1.009,-0.108,-0.236,-2.938,-1.438,-7.562,-4, -3, -5, -3, 0, 1, 2, 2
1503617802530,+0.535,+0.456,-0.383,-0.600,+1.022,-0.121,-0.249,-1.688,+2.438,+0.125,-2, 1, 0, 1, 0, 0, -1, 1
1503617802546,+0.534,+0.457,-0.383,-0.600,+1.046,-0.132,-0.244,-2.500,+0.062,+5.062,-5, -2, -3, -3, -3, 0, 0, 3
1503617802569,+0.533,+0.456,-0.382,-0.601,+1.028,-0.130,-0.256,-3.688,-5.000,+10.312,4, -2, -2, -2, -1, 1, 3, 7
1503617802590,+0.532,+0.457,-0.380,-0.603,+1.000,-0.128,-0.247,-1.625,-6.812,+14.375,2, 5, 2, 1, 0, -2, 2, 1
1503617802606,+0.531,+0.457,-0.379,-0.605,+0.993,-0.134,-0.246,-2.000,-6.062,+17.250,2, -3, -1, -3, -5, 0, -3, -1
1503617802631,+0.529,+0.458,-0.377,-0.607,+0.985,-0.132,-0.261,-2.000,-5.625,+20.562,0, 4, 2, 0, -2, -2, 4, -4
1503617802650,+0.527,+0.458,-0.374,-0.609,+0.988,-0.142,-0.266,-0.562,-6.500,+23.875,-3, 2, 3, 0, 1, 1, -3, -3
1503617802666,+0.526,+0.460,-0.372,-0.612,+0.989,-0.153,-0.257,+0.500,-6.562,+24.750,-1, 3, 0, 3, 2, -3, 1, 1
1503617802688,+0.524,+0.461,-0.369,-0.614,+0.979,-0.158,-0.264,+1.188,-8.312,+25.062,-6, -4, -4, -3, 0, -2, 0, 0
1503617802710,+0.522,+0.461,-0.366,-0.617,+0.985,-0.159,-0.273,+2.562,-11.125,+27.188,3, -2, -4, -1, -1, -1, -6, -5
1503617802726,+0.521,+0.463,-0.362,-0.620,+0.972,-0.176,-0.284,+4.375,-11.375,+29.688,0, -2, -1, 0, -3, -1, -1, 2
1503617802747,+0.519,+0.464,-0.357,-0.623,+0.948,-0.198,-0.280,+5.375,-12.562,+30.312,-15, 1, 1, -1, 0, 1, 2, 11
1503617802771,+0.517,+0.465,-0.353,-0.626,+0.939,-0.208,-0.268,+5.938,-12.125,+29.875,-1, -5, -1, -1, 0, 0, 0, 0
1503617802786,+0.515,+0.467,-0.349,-0.628,+0.956,-0.206,-0.290,+7.000,-10.188,+30.750,-7, -7, -5, -1, -2, -2, -2, 3
1503617802807,+0.513,+0.469,-0.345,-0.631,+0.954,-0.211,-0.283,+8.812,-10.125,+32.625,-4, -3, -2, 0, -1, 0, -1, -11
1503617805770,+0.523,+0.452,-0.449,-0.567,+0.997,-0.073,-0.121,-13.188,-6.062,-1.375,2, -1, -3, -1, -8, -3, 0, -2
1503617805792,+0.522,+0.450,-0.450,-0.569,+0.975,-0.049,-0.164,-17.062,-1.625,-0.312,-4, 5, 8, 0, -8, -8, -3, -5
1503617805807,+0.521,+0.448,-0.451,-0.569,+0.972,-0.028,-0.168,-16.250,+2.562,-2.188,6, -5, -5, -3, -3, 4, -7, -6
1503617805830,+0.520,+0.447,-0.453,-0.570,+0.992,-0.029,-0.135,-14.938,+3.250,-2.000,3, -1, -2, -1, -9, 0, -1, 0
1503617805854,+0.518,+0.446,-0.455,-0.571,+0.982,-0.056,-0.135,-15.688,+5.125,-0.438,-3, -8, 2, 3, 4, 0, -2, 2
1503617805867,+0.517,+0.445,-0.456,-0.571,+0.984,-0.034,-0.134,-13.625,+0.188,-3.125,5, 1, -2, -3, -9, -3, -1, -4
1503617805890,+0.516,+0.443,-0.458,-0.572,+1.020,-0.023,-0.133,-15.500,+0.750,-3.125,6, 12, 9, 4, 0, 2, 0, 3
1503617805913,+0.515,+0.442,-0.460,-0.573,+0.922,+0.013,-0.141,-15.188,+5.312,+2.812,-2, -5, -4, 0, -4, -5, -1, -6
1503617805927,+0.512,+0.444,-0.463,-0.572,+0.897,-0.020,-0.200,-8.625,+33.125,+7.500,-14, 1, -1, 2, -6, -3, -4, 4
1503617805950,+0.508,+0.448,-0.466,-0.570,+1.000,+0.024,-0.155,-3.625,+40.562,+10.375,-3, 0, -2, -3, -7, 1, 9, 10
1503617805972,+0.505,+0.452,-0.468,-0.568,+1.103,+0.017,-0.160,+7.438,+31.438,+13.000,4, 3, 0, 0, 9, 3, 2, 5
1503617805988,+0.505,+0.455,-0.467,-0.566,+1.051,+0.001,-0.137,+15.250,+19.250,+8.750,-1, -1, -1, -5, -6, -5, -10, -8
1503617806010,+0.505,+0.458,-0.466,-0.563,+0.977,-0.046,-0.123,+20.875,+11.562,+4.625,1, -4, -3, 1, 5, 8, 1, -1
1503617806032,+0.505,+0.462,-0.465,-0.562,+0.991,-0.073,-0.100,+19.188,+12.688,+6.125,14, -4, -3, -2, -8, -6, 0, 9
1503617806048,+0.505,+0.464,-0.464,-0.560,+1.017,-0.069,-0.065,+13.500,+5.625,+2.375,0, -5, -3, -1, 0, -5, -5, -7
1503617806070,+0.505,+0.466,-0.464,-0.559,+0.994,-0.095,-0.025,+8.688,+6.625,-3.250,-4, 0, 1, -1, 1, -3, -7, -1
1503617806092,+0.506,+0.467,-0.464,-0.557,+1.030,-0.081,-0.035,+4.625,-2.562,-8.188,3, 13, 6, 5, 3, 0, 0, -12
1503617806107,+0.508,+0.465,-0.464,-0.557,+1.058,-0.042,-0.039,-1.000,-14.188,-11.812,9, -6, -7, -3, -3, 7, 8, 9
1503617806130,+0.510,+0.462,-0.464,-0.558,+0.995,-0.037,-0.092,-3.875,-17.812,-10.688,-10, -7, -4, -2, -2, -7, 0, 21
1503617806152,+0.512,+0.460,-0.464,-0.558,+0.965,-0.070,-0.090,-5.062,-13.188,-11.250,-2, -2, 1, 0, -10, -4, 1, 2
1503617806167,+0.512,+0.458,-0.465,-0.559,+0.973,-0.065,-0.093,-10.375,-5.438,-11.750,11, 6, -2, -1, 3, 5, 0, -4
1503617806190,+0.512,+0.456,-0.465,-0.560,+1.014,-0.074,-0.112,-11.688,-3.312,-5.500,1, 2, 1, 0, 0, 0, -2, 0
1503617806214,+0.514,+0.453,-0.467,-0.560,+1.021,+0.030,-0.153,-10.250,-7.000,-14.250,-1, 1, 0, -1, -3, -2, 0, -18
1503617806227,+0.515,+0.451,-0.467,-0.560,+1.005,-0.009,-0.135,-6.125,-7.625,-11.500,-3, 1, -1, -1, 2, 8, -2, 3
1503617806250,+0.516,+0.449,-0.468,-0.559,+0.996,-0.011,-0.117,-5.188,-5.688,-11.750,-12, -2, -6, -2, 14, 10, 4, -3
1503617806273,+0.517,+0.448,-0.469,-0.559,+0.975,+0.017,-0.115,-5.875,-1.438,-8.250,0, -3, 3, -1, -3, -1, -2, 5
1503617806287,+0.517,+0.447,-0.470,-0.558,+1.009,+0.022,-0.108,-5.000,+2.688,-5.500,-10, -2, -3, 0, 8, 2, 1, 3
1503617806310,+0.517,+0.446,-0.471,-0.558,+1.018,-0.004,-0.099,-3.125,+1.125,-2.938,-10, -5, -2, -3, -5, -9, -5, -1
1503617806332,+0.518,+0.446,-0.472,-0.558,+0.989,+0.002,-0.100,-3.938,+0.750,-6.625,-2, -1, -4, -4, 3, 6, 3, -7
1503617806355,+0.518,+0.445,-0.472,-0.557,+1.010,+0.000,-0.059,-1.688,-4.438,-3.562,-7, -4, -2, 1, 4, -5, -6, -8
1503617806370,+0.517,+0.445,-0.472,-0.558,+1.003,-0.038,-0.041,-6.000,-7.812,+0.562,-3, -4, -4, 0, -1, -4, -3, -23
1503617806392,+0.518,+0.443,-0.472,-0.560,+0.981,-0.032,-0.128,-11.500,-11.500,-3.938,-1, 1, 0, 0, -2, -4, -7, -21
1503617806407,+0.519,+0.441,-0.472,-0.560,+0.959,+0.019,-0.156,-7.562,-5.125,-6.562,2, -5, -4, -2, -1, -7, 3, 13
1503617806430,+0.519,+0.439,-0.473,-0.560,+1.011,+0.018,-0.098,-6.812,-3.938,-3.938,14, -2, 0, -2, -3, 3, 2, 20
1503617806452,+0.518,+0.438,-0.474,-0.561,+1.024,-0.006,-0.079,-9.250,-6.062,-2.375,-3, 4, 2, 0, 5, -11, -11, -15
1503617806467,+0.519,+0.436,-0.474,-0.562,+1.035,+0.034,-0.137,-7.500,-9.688,-3.562,0, 2, -1, 1, -2, -2, 4, 12
1503617806490,+0.521,+0.435,-0.473,-0.562,+0.975,+0.046,-0.189,+1.312,-6.688,-1.750,-1, -1, -1, -1, -4, 3, -4, 6
1503617806512,+0.521,+0.435,-0.472,-0.562,+0.976,-0.003,-0.143,+4.000,-2.125,+1.500,-1, 1, 3, 2, 0, 3, 2, -4
1503617806527,+0.521,+0.436,-0.472,-0.562,+1.002,-0.011,-0.113,+1.188,+0.125,+0.500,-2, 0, -2, -2, -2, -4, 0, -1
1503617806550,+0.522,+0.436,-0.472,-0.562,+1.005,+0.008,-0.130,+1.688,-1.062,-4.312,-5, -2, 1, -2, -4, 6, 0, -7
1503617806573,+0.522,+0.436,-0.471,-0.561,+0.994,+0.018,-0.117,+2.188,-2.000,-1.562,0, 0, -1, 2, 4, 0, 4, 4
1503617806588,+0.523,+0.436,-0.471,-0.561,+1.024,+0.004,-0.124,+3.000,-3.312,-0.375,0, 0, 1, -3, -8, 1, 0, 1
1503617806610,+0.525,+0.435,-0.469,-0.562,+1.064,+0.029,-0.130,+5.812,-16.000,-2.938,-5, -3, 0, -1, -18, 1, -1, -4
1503617806632,+0.527,+0.433,-0.467,-0.562,+0.959,+0.006,-0.124,+5.875,-21.000,-5.375,0, -16, -9, -5, -4, -4, -1, -4
1503617806649,+0.528,+0.433,-0.466,-0.563,+0.925,-0.025,-0.139,-0.875,-5.562,-2.562,1, -9, -7, -1, 6, 0, -1, -3
1503617806670,+0.528,+0.432,-0.467,-0.563,+1.013,+0.024,-0.147,-3.062,-2.000,-1.938,3, 4, -5, 0, 3, -1, 2, 0
1503617806692,+0.528,+0.432,-0.467,-0.562,+1.071,+0.046,-0.128,-1.438,-2.062,-0.625,-2, 6, 8, 3, 0, 1, 0, 3
1503617806708,+0.529,+0.431,-0.466,-0.563,+1.072,+0.020,-0.132,+2.875,-10.438,+0.688,11, 12, 2, 1, 1, -3, 8, 14
1503617806730,+0.532,+0.429,-0.463,-0.564,+0.939,+0.020,-0.137,+2.125,-28.250,-4.812,-6, -3, 8, 2, 1, 2, -8, -30
1503617806752,+0.532,+0.428,-0.462,-0.566,+0.950,-0.011,-0.140,-2.188,-11.000,+3.312,10, 14, 1, 0, 5, 2, -9, 10
1503617806768,+0.532,+0.428,-0.462,-0.567,+0.996,+0.018,-0.147,-6.188,-7.125,+5.938,17, -4, -2, 1, 5, 22, 1, 50
1503617806790,+0.532,+0.426,-0.461,-0.569,+1.015,+0.017,-0.163,-5.562,-12.812,+4.938,-1, -8, -4, -3, -6, -8, -4, -16
1503617806812,+0.532,+0.425,-0.459,-0.571,+1.000,+0.001,-0.150,-5.500,-15.938,+4.688,3, 0, -3, -3, 0, -2, 5, 5
1503617806828,+0.532,+0.424,-0.458,-0.573,+0.992,+0.006,-0.158,-5.188,-16.875,+5.375,4, 0, -3, -3, -5, -14, -8, -12
1503617806850,+0.533,+0.422,-0.456,-0.575,+1.008,+0.013,-0.183,-5.438,-19.625,+5.562,-31, -6, 0, -3, -4, -3, -2, -21
1503617806872,+0.533,+0.420,-0.454,-0.577,+0.993,+0.021,-0.202,-4.375,-15.750,+6.375,2, 7, 4, -1, 2, -4, 3, -9
1503617806888,+0.533,+0.419,-0.452,-0.579,+0.986,+0.003,-0.186,-4.250,-15.312,+8.062,-2, -3, -2, 0, 0, -1, 0, 9
1503617806910,+0.533,+0.418,-0.451,-0.581,+0.999,+0.005,-0.195,-5.750,-13.188,+10.500,0, 2, -3, -2, 0, -3, 6, 19
1503617806932,+0.532,+0.418,-0.449,-0.584,+0.990,+0.005,-0.197,-6.188,-12.312,+11.688,0, -2, -1, 1, -1, 0, 2, 8
1503617806950,+0.531,+0.417,-0.448,-0.586,+0.987,-0.015,-0.188,-6.938,-13.250,+12.625,-3, -3, 1, 2, 1, 1, -2, -6
1503617806970,+0.530,+0.417,-0.446,-0.588,+0.966,-0.021,-0.214,-5.562,-7.438,+15.000,1, -3, -2, -1, -2, -1, -3, -9
1503617806993,+0.527,+0.418,-0.446,-0.590,+0.943,-0.030,-0.203,-9.438,+6.312,+17.000,0, -3, -4, -2, 4, 5, -2, -7
1503617807008,+0.524,+0.419,-0.446,-0.592,+0.959,-0.015,-0.214,-10.500,+4.812,+17.750,1, -4, -1, 1, -4, -6, 6, -6
1503617807030,+0.522,+0.419,-0.447,-0.594,+1.015,-0.026,-0.226,-10.500,+6.812,+15.812,-8, 8, 0, -1, -3, -1, -1, 17
1503617807054,+0.520,+0.420,-0.447,-0.595,+0.942,-0.003,-0.255,-6.062,+8.750,+13.438,-10, 0, -3, -2, -1, -2, -2, -1
1503617807068,+0.518,+0.421,-0.446,-0.596,+0.892,-0.063,-0.241,-1.625,+1.625,+11.188,1, 2, 3, -1, 2, 3, -2, -19
1503617807090,+0.517,+0.421,-0.446,-0.597,+0.876,-0.094,-0.220,-4.125,+6.312,+3.188,1, -6, -5, -1, -1, 0, 2, 18
1503617807112,+0.516,+0.422,-0.448,-0.596,+0.900,-0.058,-0.253,-4.562,+20.312,-4.312,-9, 2, 0, 1, 0, -2, -15, -31
1503617807128,+0.516,+0.423,-0.450,-0.593,+0.974,-0.028,-0.245,-0.500,+24.500,-8.812,-10, -5, 0, 0, 1, 1, 7, -12
1503617807152,+0.517,+0.424,-0.453,-0.590,+1.039,-0.001,-0.173,+5.125,+14.812,-13.562,11, -1, -4, 1, 0, -2, -4, 3
1503617807172,+0.519,+0.425,-0.453,-0.587,+1.057,-0.007,-0.171,+13.312,+6.188,-16.750,-2, 5, 3, 0, 0, -3, -2, -3
1503617807188,+0.520,+0.426,-0.455,-0.584,+1.030,-0.023,-0.136,+9.562,+10.438,-14.750,-11, -7, -1, -4, 2, 0, -5, 4
1503617807210,+0.520,+0.428,-0.457,-0.582,+1.033,+0.008,-0.157,+4.375,+15.750,-4.375,-17, -18, -2, 0, -2, -4, -5, -31
1503617807232,+0.519,+0.429,-0.458,-0.580,+1.055,+0.014,-0.163,+4.875,+14.750,+0.438,-1, -5, -2, -1, 2, -2, 2, 29
1503617807248,+0.519,+0.431,-0.459,-0.578,+1.027,-0.001,-0.120,+6.562,+8.750,+1.375,4, -14, -9, -3, -1, -2, -5, 4
1503617807270,+0.519,+0.432,-0.458,-0.578,+1.006,-0.016,-0.152,+5.125,+3.000,+3.875,-16, 20, 4, -5, -5, 3, 7, 42
1503617807292,+0.519,+0.433,-0.457,-0.578,+0.963,-0.027,-0.153,+2.750,-0.875,+3.812,18, -2, -1, -1, -3, 1, 5, -3
1503617807308,+0.519,+0.433,-0.457,-0.578,+0.940,-0.050,-0.146,-0.375,-1.062,+2.125,4, -9, -2, 0, -2, 7, 6, 6
1503617807330,+0.518,+0.433,-0.457,-0.579,+0.997,-0.047,-0.125,-3.188,-1.625,+0.188,-13, 3, -3, 0, -2, -2, -2, 23
1503617807354,+0.519,+0.432,-0.457,-0.579,+1.064,-0.017,-0.130,-2.625,-8.125,-3.875,18, -8, -5, -3, -1, 0, 2, 10
1503617807368,+0.520,+0.431,-0.457,-0.579,+1.066,-0.001,-0.095,-0.625,-16.062,-6.562,7, 14, 0, -2, -4, -5, -1, 13
1503617807390,+0.522,+0.429,-0.455,-0.580,+1.073,+0.014,-0.163,+0.688,-21.125,-0.625,-10, -9, -3, -1, -2, -2, -5, 7
1503617807412,+0.524,+0.427,-0.452,-0.582,+0.974,+0.013,-0.225,+1.438,-23.062,+4.062,-4, 5, 1, 1, 1, 1, -4, -37
1503617807428,+0.524,+0.427,-0.450,-0.584,+0.926,-0.056,-0.219,-0.375,-12.750,+8.000,6, 28, 9, 0, -1, -3, 0, 25
1503617807450,+0.523,+0.427,-0.449,-0.585,+0.948,-0.058,-0.219,-4.125,-0.750,+8.375,15, -11, -2, 1, -3, -2, 10, 31
1503617807472,+0.522,+0.427,-0.449,-0.586,+0.972,-0.045,-0.206,-6.188,+3.688,+4.625,12, 2, 3, -1, 1, 2, 7, -21
1503617807488,+0.522,+0.426,-0.449,-0.587,+0.929,-0.048,-0.184,-8.188,+0.000,-1.000,23, 2, -2, 1, -2, -2, -6, -43
1503617807510,+0.521,+0.426,-0.451,-0.587,+0.941,-0.049,-0.161,-10.125,+3.062,-4.500,1, 8, -3, -2, 0, 1, 4, 5
1503617807532,+0.521,+0.424,-0.452,-0.587,+1.076,+0.000,-0.134,-7.875,-4.062,-6.375,4, -6, -5, -1, -5, -6, -5, -41
1503617807548,+0.523,+0.422,-0.452,-0.586,+1.077,+0.054,-0.138,-1.625,-14.000,-5.938,7, 8, 4, 0, 3, 2, -1, 10
1503617807570,+0.525,+0.420,-0.449,-0.588,+1.030,+0.023,-0.218,+3.000,-26.750,+3.938,-1, -5, 0, -1, -1, 0, -5, -6
1503617807600,+0.525,+0.420,-0.446,-0.591,+0.935,-0.042,-0.258,+1.438,-14.438,+9.312,-6, 2, 2, -3, -1, -1, -5, -2
1503617807608,+0.525,+0.420,-0.445,-0.592,+0.845,-0.083,-0.274,-2.188,+1.750,+5.938,12, -7, 5, 2, 1, -1, -1, -11
1503617807631,+0.524,+0.420,-0.446,-0.592,+0.867,-0.084,-0.230,-4.688,+10.438,-2.062,7, -6, -6, 0, 1, 2, 3, 4
1503617807655,+0.523,+0.421,-0.448,-0.591,+0.977,-0.044,-0.182,-8.188,+13.062,-6.812,-1, 0, 0, 1, 0, -3, -3, -5
1503617807668,+0.522,+0.420,-0.451,-0.589,+1.078,+0.014,-0.152,-9.188,+10.688,-9.375,3, -1, -2, -1, 0, -1, -6, -26
1503617807692,+0.523,+0.420,-0.453,-0.587,+1.097,+0.041,-0.130,-1.188,+5.750,-7.562,-5, 2, 0, 1, 0, 0, -2, 7
1503617807712,+0.525,+0.419,-0.451,-0.587,+1.039,+0.059,-0.205,+8.938,-18.812,-4.562,-2, 3, 3, 0, 0, -2, 1, 11
1503617807728,+0.528,+0.418,-0.448,-0.588,+0.920,+0.004,-0.228,+11.562,-16.500,+2.312,27, 0, -3, -2, 2, 2, 3, 3
1503617807750,+0.527,+0.420,-0.447,-0.588,+0.978,-0.041,-0.225,+6.812,+1.562,+10.688,-1, -6, -2, -2, -3, -2, -3, -4
1503617807772,+0.525,+0.423,-0.447,-0.588,+1.033,-0.031,-0.195,+2.750,+13.438,+13.062,7, 2, 1, 1, -3, -1, 0, 11
1503617807791,+0.524,+0.425,-0.447,-0.588,+1.005,-0.046,-0.184,+2.312,+8.500,+9.250,0, -1, 0, -2, -5, -2, -1, 11
1503617807811,+0.523,+0.425,-0.446,-0.589,+0.966,-0.043,-0.177,+1.062,-3.500,+6.312,-1, 21, 6, 1, 1, -1, 0, -11
1503617807832,+0.523,+0.426,-0.445,-0.589,+0.961,-0.051,-0.164,-1.000,-1.438,+4.312,-22, -15, -10, -3, -5, -2, 2, -7
1503617807848,+0.522,+0.426,-0.445,-0.590,+1.000,-0.023,-0.170,-3.062,-3.000,+4.250,-46, -3, 0, -2, 1, 0, 2, 5
1503617807870,+0.522,+0.425,-0.445,-0.591,+1.009,-0.035,-0.164,-3.688,-8.062,+4.125,32, 16, 8, 1, 2, -1, 2, 0
1503617807893,+0.522,+0.424,-0.444,-0.592,+1.000,-0.023,-0.195,-5.312,-10.312,+5.250,17, 2, 7, -1, 0, 4, 1, 8
1503617807908,+0.521,+0.424,-0.443,-0.594,+0.973,-0.027,-0.211,-6.188,-4.500,+8.250,5, -1, -6, 2, -1, -1, 0, 2
1503617807931,+0.519,+0.425,-0.444,-0.595,+0.975,-0.050,-0.182,-8.938,+5.812,+12.812,8, -1, -5, -4, -1, 1, 4, 1
1503617807952,+0.516,+0.425,-0.444,-0.596,+1.041,-0.039,-0.175,-13.188,+6.000,+15.312,-5, -9, -7, -3, -2, -4, -6, -13
1503617807975,+0.513,+0.426,-0.444,-0.598,+1.082,-0.012,-0.161,-10.938,-1.250,+19.125,-1, -25, -11, 2, 1, -2, -5, 0
1503617807991,+0.512,+0.425,-0.442,-0.602,+1.052,-0.032,-0.192,-7.625,-16.188,+20.812,2, -19, -1, -3, 0, -4, 0, -9
1503617808012,+0.511,+0.424,-0.439,-0.605,+0.966,-0.050,-0.247,-4.188,-23.750,+18.188,1, -8, -4, 1, 1, 2, 3, 10
1503617808035,+0.511,+0.423,-0.435,-0.609,+0.929,-0.044,-0.273,-0.250,-20.688,+18.625,13, 5, 4, 2, 6, -1, 3, -12
1503617808050,+0.510,+0.424,-0.432,-0.611,+0.945,-0.062,-0.240,+1.938,-9.562,+21.375,-10, 0, -2, -4, -4, -1, -4, 1
1503617808072,+0.508,+0.426,-0.430,-0.613,+1.009,-0.083,-0.212,+1.312,-2.375,+23.812,6, 5, 0, -3, -1, -2, -2, 17
1503617808095,+0.506,+0.428,-0.428,-0.615,+1.066,-0.062,-0.198,+0.938,-0.812,+25.375,-7, 1, 4, 2, 1, 0, -6, -4
1503617808110,+0.504,+0.429,-0.425,-0.617,+1.065,-0.050,-0.232,+2.750,-9.250,+30.000,-9, 10, 0, 5, -5, -4, -10, -17
1503617808132,+0.502,+0.430,-0.421,-0.621,+1.017,-0.078,-0.245,+5.500,-18.438,+33.500,9, -3, -4, -7, -2, -4, -10, 11
1503617808160,+0.500,+0.432,-0.415,-0.625,+0.978,-0.115,-0.254,+5.125,-21.000,+35.500,-1, -10, 0, -2, -2, 2, 3, -4
1503617808170,+0.498,+0.434,-0.410,-0.629,+0.972,-0.105,-0.261,+6.375,-13.250,+39.438,3, -16, -14, -4, -3, -2, 2, -8
1503617808192,+0.494,+0.437,-0.406,-0.632,+0.968,-0.133,-0.242,+7.500,-5.062,+44.500,-9, 1, 3, 0, 0, -1, -3, -21
1503617808215,+0.490,+0.441,-0.401,-0.636,+1.002,-0.162,-0.230,+6.938,-5.438,+47.500,1, 3, 3, -3, -2, 0, 10, 10
1503617808230,+0.486,+0.445,-0.396,-0.640,+1.004,-0.167,-0.235,+7.812,-6.750,+50.250,13, 5, 2, 1, 6, 23, 8, 29
1503617808252,+0.482,+0.448,-0.391,-0.643,+0.979,-0.167,-0.224,+9.250,-10.438,+50.562,-22, -2, 1, 0, -1, -2, -1, -5
1503617808275,+0.478,+0.452,-0.384,-0.648,+0.952,-0.172,-0.271,+14.188,-14.375,+54.375,4, 0, 0, 0, 1, 2, -10, -19
1503617808291,+0.475,+0.455,-0.377,-0.652,+0.919,-0.199,-0.278,+15.688,-18.562,+51.188,-5, 11, 6, 7, 1, -2, -1, 1
1503617808312,+0.472,+0.459,-0.369,-0.656,+0.924,-0.262,-0.283,+15.938,-17.438,+52.000,-9, -14, 12, 7, 0, -5, -1, -2
1503617808335,+0.468,+0.463,-0.362,-0.659,+0.928,-0.276,-0.267,+16.750,-11.938,+49.875,-7, 9, -8, -6, -2, -5, 2, -3
1503617808350,+0.465,+0.467,-0.356,-0.662,+0.923,-0.273,-0.265,+17.938,-11.688,+47.812,4, -6, -4, -3, -2, -7, 0, 4
1503617808372,+0.463,+0.471,-0.349,-0.665,+0.906,-0.281,-0.281,+18.812,-17.562,+44.688,7, 4, -2, 1, 1, -1, -4, 9
1503617808395,+0.461,+0.474,-0.342,-0.668,+0.895,-0.297,-0.283,+20.938,-17.625,+43.625,8, 3, -3, 2, 9, -10, 5, 8
1503617808410,+0.459,+0.478,-0.334,-0.671,+0.875,-0.318,-0.291,+23.312,-17.750,+41.312,-3, -9, -6, -7, -8, 6, -6, -15
1503617808433,+0.457,+0.481,-0.327,-0.672,+0.879,-0.333,-0.294,+23.750,-15.312,+38.750,-1, 2, 3, -3, -4, -6, -3, -1
1503617808455,+0.455,+0.485,-0.321,-0.674,+0.909,-0.353,-0.286,+23.500,-12.375,+38.062,10, -22, -9, -2, -4, -3, -2, 3
1503617808471,+0.453,+0.489,-0.315,-0.676,+0.889,-0.360,-0.284,+23.500,-10.938,+39.688,-27, -25, -9, -5, -2, -2, 4, -6
1503617808493,+0.451,+0.493,-0.308,-0.677,+0.866,-0.372,-0.289,+26.250,-8.375,+38.062,-10, 11, 1, 0, -1, -2, 1, -3
1503617808515,+0.450,+0.497,-0.301,-0.678,+0.871,-0.387,-0.306,+28.625,-12.188,+35.875,-1, 5, 1, -1, 0, 2, 2, -10
1503617808531,+0.448,+0.502,-0.294,-0.679,+0.867,-0.427,-0.288,+28.812,-14.312,+38.000,11, -1, -1, 1, -2, 1, 2, 3
1503617808553,+0.446,+0.506,-0.287,-0.680,+0.846,-0.450,-0.284,+29.438,-11.625,+38.562,5, -3, -1, 1, 0, 0, 2, -1
1503617808575,+0.444,+0.511,-0.280,-0.681,+0.833,-0.440,-0.269,+29.312,-10.500,+34.125,2, -8, -5, -1, -2, 2, 7, 11
1503617808597,+0.442,+0.515,-0.274,-0.681,+0.828,-0.457,-0.268,+29.938,-7.562,+33.750,-19, -3, -2, -1, 0, 0, 1, -8
1503617808613,+0.440,+0.520,-0.268,-0.681,+0.849,-0.462,-0.271,+31.375,-6.438,+34.250,-5, -3, -1, 0, 0, -5, -6, -1
1503617808636,+0.439,+0.525,-0.262,-0.681,+0.829,-0.478,-0.263,+31.438,-7.500,+31.875,1, 2, 1, -2, -2, 4, 7, 1
1503617808651,+0.438,+0.529,-0.256,-0.680,+0.826,-0.494,-0.252,+31.125,-9.250,+30.750,-5, -2, -2, -2, -1, 3, -5, -10
1503617808673,+0.436,+0.534,-0.250,-0.680,+0.818,-0.506,-0.263,+30.875,-8.188,+29.188,-6, -3, -3, -2, -1, -5, 2, -4
1503617808695,+0.435,+0.538,-0.244,-0.680,+0.822,-0.518,-0.246,+29.000,-6.125,+28.688,-4, -3, -2, 0, -1, -1, 4, -10
1503617811732,+0.409,+0.484,-0.437,-0.639,+0.985,-0.271,-0.111,-3.375,-6.062,-1.250,-10, -11, -7, -3, 0, -3, -7, -6
1503617811755,+0.410,+0.482,-0.436,-0.640,+0.982,-0.257,-0.100,-4.188,-8.750,-3.438,-20, -5, -2, -2, -1, -2, -5, -29
1503617811770,+0.412,+0.481,-0.435,-0.640,+0.935,-0.220,-0.179,+2.062,-14.688,-6.500,10, 0, 3, -1, 10, 0, -2, 11
1503617811792,+0.414,+0.479,-0.433,-0.641,+0.860,-0.249,-0.153,+1.250,-14.250,-6.938,-13, 0, 1, -1, -3, -3, -5, -10
1503617811816,+0.415,+0.479,-0.433,-0.641,+0.881,-0.291,-0.087,+0.062,-0.625,-6.812,-4, -2, -2, -1, -2, 0, 2, 1
1503617811837,+0.412,+0.481,-0.436,-0.640,+0.997,-0.290,-0.070,-4.812,+20.812,+2.312,0, -5, -5, 0, -4, -1, -1, -13
1503617811852,+0.408,+0.484,-0.439,-0.638,+1.039,-0.277,-0.062,-6.875,+32.938,+10.438,-10, -8, -4, -3, -14, 0, -5, -3
1503617811876,+0.405,+0.485,-0.441,-0.638,+1.085,-0.237,-0.082,-9.125,+18.000,+9.562,-1, -7, -7, -5, -5, -3, -4, -4
1503617811897,+0.404,+0.484,-0.441,-0.639,+1.072,-0.229,-0.082,-8.875,-7.000,+5.500,3, -7, 1, -4, 2, 0, 0, 3
1503617811917,+0.405,+0.482,-0.440,-0.640,+0.953,-0.227,-0.091,-6.938,-15.188,+0.938,30, 10, 0, 2, 6, 1, 4, 18
1503617811935,+0.406,+0.480,-0.439,-0.642,+0.862,-0.243,-0.108,-6.250,-17.875,-2.938,-3, 7, 5, 3, 1, 0, -9, -5
1503617811958,+0.406,+0.479,-0.439,-0.643,+0.879,-0.275,-0.109,-9.125,-3.812,-2.375,26, -14, 8, 6, 4, -2, 5, 17
1503617811972,+0.405,+0.479,-0.441,-0.643,+0.914,-0.287,-0.095,-10.438,+12.688,-5.250,2, -3, -5, -3, -2, -1, -1, -12
1503617811995,+0.404,+0.478,-0.443,-0.642,+0.975,-0.286,-0.112,-11.938,+10.688,-6.562,6, 16, -12, -2, 0, 1, 2, 0
1503617812011,+0.402,+0.476,-0.445,-0.643,+1.013,-0.293,-0.087,-16.375,+6.375,-4.812,-59, -12, -6, -7, 1, -4, 1, -12
1503617812032,+0.400,+0.475,-0.448,-0.643,+1.029,-0.294,-0.042,-21.812,+7.312,-3.625,-5, 0, -2, -2, 3, 7, -7, -2
1503617812055,+0.398,+0.473,-0.450,-0.644,+1.036,-0.265,+0.017,-22.125,-4.875,-2.938,13, 0, -1, -4, -3, -3, 3, 9
1503617812077,+0.399,+0.470,-0.450,-0.646,+1.064,-0.257,-0.019,-21.250,-19.250,-7.188,-8, -2, -1, 0, 2, -3, 0, 8
1503617812092,+0.400,+0.464,-0.451,-0.649,+1.016,-0.232,-0.042,-32.188,-27.312,-11.625,8, 0, -5, -3, 0, 0, 0, 24
1503617812115,+0.400,+0.457,-0.451,-0.654,+0.917,-0.201,-0.125,-34.438,-29.062,-9.312,2, 1, 1, 1, -10, 0, 1, 6
1503617812137,+0.402,+0.450,-0.450,-0.658,+0.893,-0.213,-0.174,-30.250,-33.625,-11.500,16, 0, -2, 2, 2, -1, -2, 3
1503617812153,+0.403,+0.444,-0.450,-0.661,+0.929,-0.241,-0.147,-33.250,-26.000,-16.500,5, -3, -2, -3, 1, -4, -7, 12
1503617812177,+0.403,+0.438,-0.452,-0.664,+0.957,-0.222,-0.162,-36.750,-15.625,-15.062,17, -2, 1, 0, 2, -3, -3, -9
1503617812197,+0.404,+0.432,-0.453,-0.667,+0.929,-0.197,-0.260,-28.812,-12.938,-14.688,2, 3, 3, 1, 3, 0, 5, 2
1503617812213,+0.406,+0.426,-0.453,-0.670,+0.970,-0.183,-0.229,-26.812,-20.938,-15.188,-1, -13, -6, -3, 0, 1, -2, -3
1503617812235,+0.407,+0.420,-0.454,-0.672,+1.039,-0.199,-0.216,-28.062,-20.562,-13.125,-1, 9, 2, 2, 1, -3, -4, -2
1503617812260,+0.408,+0.414,-0.453,-0.675,+0.981,-0.181,-0.219,-27.375,-26.812,-14.125,-9, 1, 4, 0, 1, 1, 2, -14
1503617812273,+0.410,+0.408,-0.452,-0.679,+0.949,-0.162,-0.188,-27.250,-33.000,-12.500,10, -6, -3, -2, -1, -2, -9, 15
1503617812295,+0.411,+0.403,-0.452,-0.681,+0.955,-0.149,-0.193,-25.125,-24.500,-11.375,10, 7, -2, 5, 0, 1, 0, 5
1503617812317,+0.413,+0.397,-0.453,-0.684,+0.969,-0.159,-0.205,-26.188,-23.312,-15.125,-9, -4, -6, -3, 2, 0, -3, -53
1503617812334,+0.414,+0.391,-0.452,-0.687,+0.964,-0.171,-0.230,-30.250,-26.812,-12.812,-11, 1, 2, -1, -4, -4, 3, 6
1503617812355,+0.414,+0.385,-0.453,-0.690,+0.937,-0.156,-0.261,-32.438,-19.500,-9.375,2, -7, 0, -1, -9, -6, -4, -8
1503617812378,+0.414,+0.379,-0.454,-0.692,+0.947,-0.129,-0.251,-29.438,-18.250,-11.812,-4, 2, 0, -1, -5, 1, 4, 5
1503617812393,+0.415,+0.373,-0.454,-0.694,+0.975,-0.124,-0.274,-26.625,-21.875,-13.500,-4, 3, 0, -1, -11, 0, 8, 21
1503617812415,+0.417,+0.367,-0.453,-0.697,+0.983,-0.132,-0.293,-25.250,-27.375,-14.062,23, 5, -2, -3, 0, -4, -6, 8
1503617812437,+0.418,+0.362,-0.452,-0.700,+0.960,-0.135,-0.304,-23.875,-28.062,-10.688,-5, -1, 3, -1, 3, 0, -9, -8
1503617812453,+0.419,+0.357,-0.452,-0.702,+0.939,-0.094,-0.294,-24.062,-19.688,-8.188,-12, -9, -2, -4, 1, -2, -2, -32
1503617812475,+0.419,+0.353,-0.452,-0.704,+0.948,-0.072,-0.299,-19.562,-14.562,-7.625,0, 4, 2, -1, -1, 0, -16, -3
1503617812497,+0.420,+0.349,-0.451,-0.706,+0.970,-0.075,-0.335,-15.562,-16.562,-7.500,1, -3, 0, 0, 2, 1, 16, 18
1503617812513,+0.422,+0.345,-0.450,-0.708,+0.972,-0.091,-0.354,-13.312,-21.250,-7.500,-9, 11, 17, 10, -1, 1, 1, 1
1503617812535,+0.423,+0.342,-0.449,-0.709,+0.962,-0.096,-0.364,-9.125,-18.250,-4.750,10, -9, -11, -1, 8, -1, 7, 6
1503617812557,+0.424,+0.340,-0.447,-0.711,+0.956,-0.091,-0.352,-6.688,-17.750,-1.812,2, 8, 10, 2, 3, 2, -29, -8
1503617812573,+0.425,+0.338,-0.445,-0.712,+0.960,-0.069,-0.354,-3.500,-13.062,+0.562,-7, 0, 0, 1, -3, -3, 10, 2
1503617812594,+0.425,+0.337,-0.444,-0.713,+0.943,-0.073,-0.371,+0.938,-9.688,+3.312,-7, -7, -1, -1, -6, -1, 7, -7
1503617812617,+0.426,+0.337,-0.442,-0.714,+0.942,-0.082,-0.368,+3.188,-7.688,+5.562,-2, -5, 0, 1, 3, 5, 11, 47
1503617812633,+0.426,+0.338,-0.441,-0.714,+0.940,-0.078,-0.371,+7.188,-3.500,+8.125,-2, -16, -9, -4, 2, 0, 4, -5
1503617812655,+0.425,+0.340,-0.439,-0.714,+0.960,-0.099,-0.357,+10.500,-0.312,+9.812,5, 5, 1, 4, 2, -1, -13, -11
1503617812680,+0.425,+0.343,-0.437,-0.715,+0.976,-0.109,-0.347,+12.062,-2.625,+11.812,0, -12, -6, -4, 0, -3, -1, -9
1503617812693,+0.425,+0.345,-0.435,-0.715,+0.958,-0.102,-0.349,+13.938,-6.062,+12.500,12, 14, 4, -1, -11, -45, -13, -1
1503617812722,+0.425,+0.347,-0.432,-0.715,+0.905,-0.113,-0.356,+16.188,-5.625,+13.062,0, 8, 2, 3, 4, 14, -2, -5
1503617812748,+0.425,+0.350,-0.430,-0.715,+0.901,-0.125,-0.356,+18.938,+1.000,+12.875,8, 1, 3, 1, 0, 8, -2, 15
1503617812753,+0.425,+0.354,-0.428,-0.714,+0.933,-0.129,-0.362,+21.250,+7.250,+12.500,-7, -9, -9, -6, -8, -1, -9, -17
1503617812774,+0.425,+0.358,-0.427,-0.714,+0.956,-0.145,-0.325,+20.188,+3.938,+13.625,-6, 5, 1, -2, 1, 3, 5, 6
1503617812797,+0.425,+0.362,-0.425,-0.713,+0.943,-0.168,-0.316,+20.250,+1.438,+11.625,-2, 3, 2, 1, 6, 8, 5, -10
1503617812814,+0.425,+0.365,-0.422,-0.713,+0.924,-0.163,-0.333,+21.562,-3.312,+8.562,-12, 1, 4, 3, -15, 4, 2, -14
1503617812834,+0.426,+0.368,-0.420,-0.712,+0.900,-0.169,-0.323,+19.500,-3.188,+6.625,-7, 0, -1, -2, -11, 1, -2, -13
1503617812857,+0.427,+0.371,-0.418,-0.711,+0.892,-0.184,-0.309,+17.688,+1.438,+4.438,0, -5, -3, 0, 3, -1, -4, -5
1503617812873,+0.427,+0.374,-0.417,-0.710,+0.925,-0.190,-0.307,+16.250,+3.438,+2.000,-1, 5, 1, -3, 4, 2, -7, 4
1503617812894,+0.428,+0.376,-0.416,-0.709,+0.944,-0.189,-0.316,+13.375,+3.875,+1.500,0, -4, -3, -1, 1, 19, 4, -8
1503617812917,+0.428,+0.378,-0.416,-0.708,+0.930,-0.180,-0.311,+12.188,+2.812,+0.000,-12, 6, 4, 3, 5, 2, -5, -5
1503617812933,+0.429,+0.380,-0.415,-0.707,+0.927,-0.190,-0.296,+11.000,+0.688,-1.688,7, -5, 2, 1, 5, -8, -4, -3
1503617812956,+0.430,+0.381,-0.415,-0.706,+0.929,-0.190,-0.301,+8.625,+0.250,-1.875,-12, 3, -2, 1, -7, -5, 0, 3
1503617812977,+0.431,+0.382,-0.415,-0.705,+0.929,-0.196,-0.300,+6.562,+2.438,-2.312,25, 3, -1, -1, -1, 3, 0, 3
1503617812993,+0.431,+0.383,-0.415,-0.704,+0.933,-0.199,-0.289,+3.688,+4.875,-2.750,1, 5, 6, 2, 6, 4, 3, -3
1503617813015,+0.431,+0.384,-0.416,-0.703,+0.940,-0.181,-0.300,+2.750,+5.062,-3.688,-13, -3, -5, -6, -5, -5, -13, -43
1503617813037,+0.431,+0.384,-0.417,-0.702,+0.948,-0.176,-0.301,+2.250,+3.562,-4.812,-35, -13, -5, -3, 1, -1, -22, -44
1503617813053,+0.432,+0.384,-0.417,-0.701,+0.948,-0.177,-0.301,+0.562,+1.125,-4.812,3, 14, 14, 9, 7, 0, 11, 17
1503617813075,+0.433,+0.384,-0.417,-0.701,+0.938,-0.176,-0.311,-0.812,+0.812,-4.500,10, -6, -8, -5, -6, 10, 4, 7
1503617813097,+0.433,+0.384,-0.418,-0.700,+0.941,-0.185,-0.298,-1.500,+3.375,-4.625,-3, -3, -2, 4, -3, -6, 7, 34
1503617813115,+0.433,+0.384,-0.419,-0.700,+0.950,-0.183,-0.306,-3.562,+4.438,-3.250,-17, -7, -3, -3, -5, -3, -2, 4
1503617813135,+0.432,+0.383,-0.420,-0.700,+0.958,-0.167,-0.300,-4.562,+2.812,-3.000,4, 8, -1, -5, 3, -2, 2, 2
1503617813158,+0.433,+0.383,-0.421,-0.699,+0.956,-0.160,-0.295,-4.438,+1.125,-3.938,-3, -14, -10, -1, 1, 1, 7, 6
1503617813173,+0.433,+0.382,-0.421,-0.700,+0.940,-0.173,-0.295,-6.375,-1.812,-4.188,8, -3, 0, 1, 13, 2, 0, 2
1503617813195,+0.433,+0.381,-0.422,-0.700,+0.941,-0.167,-0.306,-6.812,+0.938,-3.250,13, 1, 15, 5, -1, -1, -3, 17
1503617813217,+0.432,+0.381,-0.423,-0.699,+0.950,-0.157,-0.307,-6.250,+3.312,-2.375,-5, 5, -11, -2, -5, -2, 5, 33
1503617813233,+0.432,+0.380,-0.424,-0.700,+0.967,-0.166,-0.312,-6.000,+0.938,-1.250,-6, -9, -1, 2, -2, 0, -1, -4
1503617813255,+0.432,+0.379,-0.424,-0.700,+0.966,-0.148,-0.322,-5.188,-1.125,-1.000,0, 3, -1, -2, 0, -3, -9, -29
1503617813277,+0.432,+0.378,-0.424,-0.700,+0.948,-0.154,-0.318,-3.562,-3.188,-0.500,-7, 3, 3, -3, 2, 3, 2, -12
1503617813293,+0.432,+0.378,-0.424,-0.701,+0.935,-0.164,-0.313,-4.188,-2.688,+0.062,17, 8, -4, -2, -5, -1, 1, -1
1503617813316,+0.432,+0.378,-0.424,-0.701,+0.938,-0.158,-0.315,-3.562,+0.812,-0.062,-2, 3, 1, 1, -1, 1, 4, 9
1503617813338,+0.432,+0.377,-0.425,-0.701,+0.945,-0.151,-0.308,-3.250,+1.750,-0.062,1, 13, 21, 1, 0, -1, 0, 7
1503617813353,+0.432,+0.377,-0.425,-0.701,+0.960,-0.158,-0.301,-3.812,+0.188,-0.500,-7, -7, -5, -1, -3, -7, -6, -34
1503617813375,+0.432,+0.377,-0.425,-0.701,+0.961,-0.153,-0.312,-3.688,-2.562,-0.812,-9, -3, -2, -1, -2, -3, -9, 10
1503617813397,+0.432,+0.376,-0.425,-0.701,+0.944,-0.150,-0.321,-2.438,-3.125,-0.312,-4, -11, -13, -3, -2, 1, -2, -7
1503617813413,+0.432,+0.376,-0.424,-0.702,+0.938,-0.151,-0.329,-1.375,-3.062,+0.000,2, -4, -5, -3, -4, -2, -2, -4
1503617813435,+0.432,+0.376,-0.424,-0.702,+0.944,-0.160,-0.314,-0.875,-2.000,+1.625,0, -21, -8, -3, -1, 1, 3, 5
1503617813458,+0.432,+0.376,-0.424,-0.702,+0.941,-0.161,-0.320,-1.250,-0.188,+1.938,-3, -2, 1, -4, -2, -1, 1, -8
1503617813473,+0.432,+0.376,-0.424,-0.702,+0.936,-0.155,-0.313,-1.000,+0.500,+1.125,-2, -4, -1, -1, 0, 1, 0, -2
1503617813495,+0.432,+0.376,-0.424,-0.702,+0.944,-0.153,-0.313,-1.250,+0.062,+0.875,10, 3, 3, 1, -1, -1, 3, 19
1503617813517,+0.432,+0.376,-0.424,-0.702,+0.951,-0.154,-0.316,-0.312,+0.250,+0.562,-3, -4, -1, 1, 2, 0, -2, 1
1503617813534,+0.432,+0.376,-0.424,-0.702,+0.946,-0.155,-0.322,-0.250,-2.062,-0.188,0, 0, 0, -1, -4, -1, -1, -5
1503617813556,+0.432,+0.375,-0.423,-0.702,+0.938,-0.155,-0.317,+0.188,-2.562,-0.062,-4, 11, 0, -1, 4, -1, -3, -10
1503617813578,+0.432,+0.376,-0.423,-0.702,+0.938,-0.152,-0.320,+0.562,-0.062,+0.375,-4, -7, -7, -3, -4, 0, -2, -2
1503617813594,+0.432,+0.376,-0.423,-0.702,+0.941,-0.164,-0.314,+0.562,-0.750,+0.750,1, 5, 1, -2, -3, 0, -3, -7
1503617813619,+0.432,+0.376,-0.423,-0.702,+0.947,-0.167,-0.309,+0.062,-0.375,+0.500,-1, -1, 0, 0, 1, -1, -3, -2
1503617813637,+0.433,+0.376,-0.423,-0.702,+0.946,-0.158,-0.322,+0.375,-0.438,+0.500,-2, 12, 1, -2, -1, 0, 2, 7
1503617813655,+0.433,+0.376,-0.422,-0.702,+0.939,-0.155,-0.317,+0.688,-2.188,+0.438,1, -9, -2, -2, -1, -3, -8, -8
1503617813675,+0.433,+0.376,-0.422,-0.702,+0.940,-0.155,-0.315,+0.750,-2.125,+0.375,3, -2, 4, 1, -2, 0, 1, 15
1503617813697,+0.433,+0.376,-0.422,-0.702,+0.942,-0.160,-0.322,+1.062,-0.438,+0.250,-2, -3, -6, -2, 0, -2, 0, -2
1503617813713,+0.433,+0.377,-0.422,-0.702,+0.943,-0.154,-0.309,+0.688,+0.500,+0.750,1, 0, 0, 0, -2, -2, -2, -2
1503617813735,+0.433,+0.377,-0.421,-0.702,+0.943,-0.159,-0.324,+1.000,+0.312,+0.938,1, -8, -1, 3, 0, -1, 6, 14
1503617813757,+0.433,+0.377,-0.421,-0.702,+0.956,-0.154,-0.318,+1.625,+0.250,+1.312,-3, -5, -2, 0, -1, -1, 2, -9
1503617813773,+0.433,+0.378,-0.421,-0.702,+0.952,-0.160,-0.317,+1.938,-0.938,+1.438,0, -2, -3, -1, -1, 0, -2, -9
1503617813795,+0.434,+0.378,-0.420,-0.702,+0.947,-0.167,-0.315,+2.688,-2.438,+1.312,-1, 2, 0, 0, -1, 1, 1, -7
1503617813818,+0.434,+0.378,-0.420,-0.702,+0.936,-0.169,-0.319,+2.000,-2.812,+1.938,-2, 1, -3, -1, 0, -1, -9, -19
1503617813834,+0.434,+0.379,-0.419,-0.702,+0.931,-0.160,-0.313,+1.438,-0.812,+2.062,-7, 0, 0, -2, -1, -1, 0, -11
1503617813855,+0.434,+0.379,-0.419,-0.702,+0.927,-0.167,-0.318,+1.688,+1.312,+2.625,-5, -2, -2, -3, 2, 1, 0, 16
1503617813877,+0.433,+0.380,-0.419,-0.702,+0.933,-0.167,-0.293,+1.125,+2.000,+1.375,0, 5, 8, 4, -1, -1, -4, -1
1503617813894,+0.433,+0.380,-0.419,-0.701,+0.945,-0.174,-0.305,+1.000,+1.062,+0.312,0, 21, 15, 1, 0, -4, -5, -1
1503617813915,+0.433,+0.380,-0.419,-0.701,+0.944,-0.171,-0.308,-0.062,-0.375,-0.375,5, -8, -8, 0, -1, 0, 6, 6
1503617813937,+0.433,+0.380,-0.419,-0.701,+0.933,-0.167,-0.306,-0.812,-0.375,-1.438,-1, -3, -1, -1, -1, 1, 0, -3
1503617813954,+0.434,+0.380,-0.419,-0.701,+0.932,-0.169,-0.311,-0.875,-1.500,-1.938,1, -2, -1, -2, 0, 0, 0, 8
1503617813975,+0.434,+0.380,-0.419,-0.701,+0.940,-0.164,-0.312,-0.625,+1.250,-0.938,1, -1, -2, 1, 0, 0, 2, 8
1503617814004,+0.434,+0.380,-0.420,-0.701,+0.954,-0.171,-0.306,-1.188,+1.688,-1.500,3, 19, 6, -1, 0, -1, -6, -6
1503617814014,+0.434,+0.380,-0.420,-0.701,+0.948,-0.169,-0.315,-1.375,-0.688,-1.375,-1, -11, -9, -2, 0, -2, 2, -3
1503617814036,+0.434,+0.380,-0.420,-0.701,+0.943,-0.167,-0.316,-1.062,-1.625,-2.250,2, -6, -5, -2, -1, -1, 0, -2
1503617814058,+0.435,+0.380,-0.420,-0.701,+0.938,-0.155,-0.323,-1.250,-1.188,-1.688,1, 1, 1, 0, 1, 0, 3, -7
1503617814073,+0.435,+0.379,-0.420,-0.700,+0.938,-0.157,-0.320,-0.938,+1.125,-0.938,0, 2, 2, -2, -1, -1, 0, -4
1503617814096,+0.435,+0.380,-0.420,-0.700,+0.945,-0.155,-0.318,-0.438,+1.688,-1.125,-14, -3, -4, -1, 1, 1, -3, -35
1503617814120,+0.435,+0.380,-0.421,-0.700,+0.949,-0.161,-0.318,-0.312,+1.562,-1.188,2, 3, 3, -1, 1, -1, -1, 5
1503617814133,+0.435,+0.380,-0.421,-0.700,+0.947,-0.157,-0.318,+0.375,+0.125,-1.062,5, -3, -3, -2, 0, -2, 4, 15
1503617814159,+0.436,+0.380,-0.420,-0.700,+0.938,-0.168,-0.308,+0.062,-1.250,-2.250,-2, -3, -2, -3, -1, -2, -2, -7
1503617814178,+0.436,+0.380,-0.421,-0.699,+0.945,-0.163,-0.316,+0.062,+0.125,-2.562,3, -1, -2, -3, -1, -1, 0, 6
1503617814193,+0.436,+0.380,-0.421,-0.699,+0.948,-0.153,-0.327,+0.875,+2.750,-1.562,1, 1, 6, 2, -1, -1, 1, -1
1503617814216,+0.436,+0.380,-0.421,-0.699,+0.961,-0.156,-0.299,+0.625,+0.500,-0.312,-2, 15, 15, 2, -1, -1, -6, 2
1503617814237,+0.437,+0.380,-0.421,-0.698,+0.961,-0.163,-0.303,+1.062,-0.375,-0.750,-1, -3, -4, 0, -1, 0, 1, -3
1503617814254,+0.437,+0.380,-0.421,-0.698,+0.958,-0.149,-0.313,+1.812,-0.250,-1.125,0, 2, -2, -1, 0, -1, -1, -2
1503617814275,+0.437,+0.381,-0.421,-0.698,+0.966,-0.145,-0.319,+1.750,-2.125,+1.000,0, 1, -2, 0, 0, -1, 2, -9
1503617814297,+0.438,+0.381,-0.419,-0.698,+0.962,-0.146,-0.315,+4.688,-5.375,+3.500,1, -1, 2, 1, 0, 1, 1, 1
1503617814313,+0.438,+0.382,-0.418,-0.698,+0.958,-0.140,-0.325,+8.812,-5.000,+3.562,-1, -6, -3, -1, -2, -3, -4, 3
1503617814336,+0.440,+0.383,-0.416,-0.698,+0.937,-0.150,-0.351,+11.000,-6.188,+1.688,0, 9, 2, -2, 1, -1, 2, 0
1503617814358,+0.440,+0.384,-0.414,-0.698,+0.922,-0.174,-0.359,+10.250,-5.750,+5.125,3, -2, 1, -1, 0, -1, 0, 3
1503617814373,+0.440,+0.386,-0.412,-0.698,+0.914,-0.188,-0.331,+10.000,+1.250,+8.250,0, 3, -3, -2, -1, 0, -4, 3
1503617814396,+0.439,+0.388,-0.412,-0.698,+0.925,-0.193,-0.312,+10.125,+4.875,+7.938,-1, 0, 3, 0, 1, -1, 1, 0
1503617814418,+0.439,+0.390,-0.411,-0.698,+0.916,-0.197,-0.291,+6.438,+1.625,+5.750,1, -10, -5, 0, 0, 1, -2, -10
1503617814433,+0.439,+0.391,-0.411,-0.697,+0.901,-0.194,-0.288,+3.938,+2.000,+1.562,1, -2, 0, 0, -2, -2, 0, 0
1503617814456,+0.439,+0.392,-0.411,-0.697,+0.896,-0.188,-0.294,+3.250,+5.250,-1.625,-3, -3, -3, -3, -2, -1, 1, -9
1503617814478,+0.439,+0.393,-0.412,-0.695,+0.913,-0.187,-0.260,+0.688,+9.688,-3.875,0, 2, -3, 0, -1, -1, -1, 6
1503617814493,+0.438,+0.393,-0.415,-0.694,+0.945,-0.201,-0.242,-4.188,+10.125,-6.688,-2, -4, -5, -2, -2, -1, -2, 2
1503617814516,+0.438,+0.393,-0.417,-0.693,+0.975,-0.186,-0.262,-7.500,+7.812,-9.188,-2, -4, -2, -1, 0, 1, 3, 1
1503617814537,+0.439,+0.391,-0.419,-0.692,+0.971,-0.166,-0.283,-8.188,+1.375,-10.062,-2, 5, 6, 0, 0, 0, 0, -5
1503617814555,+0.440,+0.389,-0.419,-0.692,+0.971,-0.153,-0.302,-8.938,-4.438,-10.500,-2, 11, 2, -1, 0, 0, 0, -6
1503617814576,+0.441,+0.387,-0.420,-0.693,+0.961,-0.155,-0.334,-8.062,-4.688,-8.500,-2, -6, 4, 0, 0, -2, 3, -3
1503617814598,+0.441,+0.386,-0.420,-0.693,+0.958,-0.149,-0.331,-5.875,-1.188,-4.500,-2, -3, -1, -1, 1, 0, -2, -3
1503617814613,+0.441,+0.385,-0.421,-0.693,+0.985,-0.152,-0.327,-4.250,+0.375,-1.062,0, -1, -7, -2, -2, -2, 0, -6
1503617814636,+0.441,+0.385,-0.421,-0.693,+0.997,-0.142,-0.325,-2.625,-0.938,+2.188,0, -1, -5, -3, -1, -1, -2, -4
1503617814658,+0.441,+0.385,-0.420,-0.694,+0.987,-0.123,-0.332,+0.562,-4.125,+5.688,2, 3, -2, 2, 0, 1, 5, 3
1503617814673,+0.441,+0.385,-0.419,-0.694,+0.976,-0.130,-0.338,+3.875,-5.500,+9.062,1, 3, 2, 1, 0, 0, -1, 0
1503617814695,+0.441,+0.386,-0.417,-0.695,+0.962,-0.146,-0.346,+7.125,-5.938,+11.875,-3, -3, 1, 1, -2, -2, -6, -6
1503617814718,+0.440,+0.388,-0.414,-0.696,+0.958,-0.145,-0.337,+9.875,-5.188,+15.000,0, -3, -3, -2, -3, -1, -1, -1
1503617814734,+0.440,+0.390,-0.412,-0.696,+0.964,-0.143,-0.350,+13.688,-4.438,+16.688,-2, 0, -2, 1, 0, -1, 3, 7
1503617814757,+0.439,+0.393,-0.408,-0.697,+0.973,-0.167,-0.340,+16.812,-5.438,+19.250,-3, -1, 0, 2, 0, 1, 2, -7
1503617814778,+0.439,+0.395,-0.405,-0.698,+0.967,-0.163,-0.343,+19.312,-9.688,+19.812,-2, 0, -3, -1, -3, -1, 2, -4
1503617814794,+0.440,+0.398,-0.400,-0.698,+0.945,-0.156,-0.350,+24.875,-11.188,+21.125,0, -8, -3, -2, 0, -1, 1, 8
1503617814816,+0.440,+0.402,-0.395,-0.699,+0.922,-0.178,-0.352,+28.000,-12.000,+23.188,-2, 7, 6, 1, -1, -2, 0, 4
1503617814838,+0.440,+0.407,-0.390,-0.699,+0.928,-0.200,-0.349,+31.000,-7.938,+24.438,-3, -2, -5, -2, 0, -2, -2, -5
1503617814854,+0.440,+0.412,-0.385,-0.699,+0.949,-0.206,-0.348,+35.062,-5.625,+26.125,4, 3, -1, 3, 1, 1, 0, 5
1503617814876,+0.440,+0.417,-0.379,-0.699,+0.948,-0.206,-0.338,+38.062,-7.312,+26.875,-1, -1, 0, -1, -1, -2, -4, -3
1503617814898,+0.441,+0.423,-0.373,-0.698,+0.944,-0.224,-0.350,+42.312,-11.688,+28.000,-2, 7, 6, -2, 1, 2, -2, -4
1503617814914,+0.442,+0.429,-0.366,-0.698,+0.939,-0.247,-0.346,+46.562,-13.938,+28.750,1, -14, -8, -1, -2, -1, -6, 3
1503617814936,+0.443,+0.435,-0.358,-0.697,+0.928,-0.254,-0.348,+50.062,-15.250,+29.188,2, 3, 1, 0, -1, -1, 1, 1
1503617814960,+0.444,+0.442,-0.350,-0.697,+0.911,-0.279,-0.358,+53.312,-16.062,+29.688,-1, -2, -1, 0, -1, -1, -1, 2
