Timestamp,Orientation X,Orientation Y,Orientation Z,Orientation W,Accelerometer X,Accelerometer Y,Accelerometer Z,Gyroscope X,Gyroscope Y,Gyroscope Z,EMG1,EMG2,EMG3,EMG4,EMG5,EMG6,EMG7,EMG8
1503514038314,-0.382,-0.241,-0.497,-0.741,+0.921,-0.056,-0.341,+5.000,-11.312,-8.062,9, 3, -2, -1, -2, 0, 0, 10
1503514038333,-0.382,-0.240,-0.496,-0.742,+0.933,-0.030,-0.353,-0.250,-8.875,-6.125,-12, -4, -3, 3, 3, -3, -3, -10
1503514038356,-0.381,-0.239,-0.494,-0.744,+0.901,+0.008,-0.399,+4.500,-9.188,-5.812,11, 1, -2, -3, -1, -3, 0, 30
1503514038372,-0.379,-0.238,-0.493,-0.746,+0.884,-0.017,-0.402,+11.688,-8.250,-10.125,3, -2, 2, 0, 1, -1, -2, -7
1503514038394,-0.377,-0.237,-0.493,-0.747,+0.860,-0.046,-0.327,+10.250,-2.375,-11.375,-6, -2, 0, -5, -5, -2, -3, -6
1503514038416,-0.375,-0.237,-0.494,-0.747,+0.877,-0.020,-0.292,+3.125,+5.688,-6.000,17, 10, -2, -1, 0, 2, 4, -1
1503514038432,-0.374,-0.238,-0.495,-0.747,+0.930,+0.010,-0.361,+4.875,+10.625,-4.562,-5, 3, 6, 0, -2, -1, -3, 2
1503514038454,-0.371,-0.237,-0.496,-0.748,+0.978,+0.001,-0.407,+13.312,+6.062,-9.438,-5, -1, 4, 1, -8, -13, -2, -4
1503514038475,-0.369,-0.236,-0.495,-0.750,+0.976,-0.027,-0.365,+12.125,-10.688,-13.312,-6, -5, -8, -7, -3, 3, -2, -5
1503514038496,-0.367,-0.234,-0.492,-0.754,+0.935,-0.022,-0.329,+8.125,-27.750,-16.125,2, 1, -4, -2, 0, -2, 0, 5
1503514038518,-0.365,-0.233,-0.489,-0.758,+0.900,+0.006,-0.324,+8.000,-28.688,-18.312,9, 6, 2, 2, 2, 3, 1, 4
1503514038536,-0.362,-0.232,-0.487,-0.760,+0.882,+0.026,-0.379,+9.625,-12.938,-17.188,9, 5, 1, 5, -1, -14, -2, 2
1503514038553,-0.360,-0.232,-0.486,-0.762,+0.884,+0.024,-0.387,+9.125,-3.750,-10.750,-4, -4, -4, -5, -18, 0, 2, 21
1503514038574,-0.359,-0.231,-0.486,-0.763,+0.939,+0.005,-0.340,+3.812,-4.875,-4.688,7, -4, -1, 1, 5, -3, -1, 28
1503514038596,-0.358,-0.231,-0.486,-0.763,+0.971,-0.002,-0.333,+0.375,-3.625,-3.938,-19, -10, -5, -1, 2, -2, 6, 26
1503514038612,-0.358,-0.231,-0.485,-0.764,+0.958,-0.002,-0.360,+0.562,-7.562,-4.250,-9, -2, 1, 1, 3, -4, -4, -26
1503514038634,-0.358,-0.230,-0.482,-0.766,+0.944,+0.016,-0.379,+0.625,-22.625,-3.188,-2, -4, -6, -5, 2, 7, -1, -24
1503514038658,-0.358,-0.229,-0.478,-0.769,+0.953,+0.011,-0.365,-2.062,-30.688,-6.312,-25, -6, 0, 2, 6, 8, -2, -22
1503514038672,-0.358,-0.229,-0.474,-0.771,+0.881,+0.029,-0.390,-4.500,-23.625,-8.375,4, -8, -5, -2, 2, 5, 3, 15
1503514038694,-0.358,-0.228,-0.471,-0.773,+0.847,+0.011,-0.407,-1.438,-21.625,-7.625,6, 14, 8, 0, -1, -1, -2, 4
1503514038717,-0.359,-0.228,-0.469,-0.774,+0.878,+0.002,-0.393,-6.812,-12.500,-4.312,21, 10, 2, -3, -4, 0, 0, -1
1503514038732,-0.359,-0.229,-0.469,-0.774,+0.888,+0.048,-0.404,-7.000,+0.875,-1.562,-8, -10, -2, -4, -4, 0, -2, 2
1503514038755,-0.358,-0.230,-0.469,-0.774,+0.909,+0.044,-0.388,-4.062,+1.375,-1.250,27, 10, 2, -1, 3, 3, 3, 32
1503514038776,-0.358,-0.231,-0.468,-0.774,+0.938,+0.030,-0.408,-6.000,+1.000,-0.875,2, 4, 7, 2, 0, 2, 3, 40
1503514038792,-0.359,-0.232,-0.468,-0.774,+0.944,+0.021,-0.406,-7.062,-1.250,+1.438,-6, 1, 1, -2, -2, -3, -2, 5
1503514038814,-0.360,-0.232,-0.468,-0.773,+0.958,+0.013,-0.409,-7.875,-4.750,+4.688,-7, -11, -8, -1, 4, -6, -5, -22
1503514038837,-0.362,-0.232,-0.467,-0.773,+0.952,+0.002,-0.401,-8.312,-6.000,+6.438,-28, -12, -2, 3, -4, -5, -6, -36
1503514038852,-0.363,-0.232,-0.466,-0.772,+0.914,+0.013,-0.413,-7.500,-3.188,+5.750,11, 1, -3, -5, -5, -3, -2, 15
1503514038874,-0.364,-0.232,-0.467,-0.772,+0.888,+0.012,-0.388,-4.125,+0.625,+4.000,18, 7, -7, -4, -2, -3, 0, -5
1503514038896,-0.364,-0.232,-0.468,-0.771,+0.905,-0.010,-0.381,-2.438,+8.375,+2.562,-31, -19, -6, -4, 2, 8, 1, -31
1503514038912,-0.365,-0.233,-0.471,-0.769,+0.944,-0.046,-0.388,-1.688,+14.125,+4.188,2, 0, -1, 0, 1, -2, -1, 12
1503514038934,-0.365,-0.233,-0.473,-0.768,+0.953,-0.053,-0.382,-2.188,+12.312,+4.188,0, 0, 7, 4, 2, 6, -2, -11
1503514038956,-0.365,-0.233,-0.474,-0.767,+0.936,-0.039,-0.394,-0.812,+8.812,-1.625,-13, -7, -6, -3, -2, 2, -3, -73
1503514038972,-0.363,-0.233,-0.475,-0.767,+0.930,-0.036,-0.381,+0.562,+6.438,-7.812,6, 8, 2, -4, -3, -5, -3, 23
1503514038994,-0.363,-0.233,-0.476,-0.766,+0.946,-0.038,-0.398,+1.000,+4.750,-4.688,-3, -5, -3, -2, -2, -3, -1, 1
1503514039019,-0.362,-0.233,-0.477,-0.766,+0.939,-0.044,-0.391,-0.500,+4.000,-2.312,19, 7, 1, -2, -5, 0, 1, 26
1503514039039,-0.362,-0.233,-0.478,-0.766,+0.912,-0.014,-0.421,+2.125,+9.188,-0.875,-4, -2, 3, 0, -5, -4, -4, -3
1503514039061,-0.361,-0.232,-0.480,-0.765,+0.929,+0.016,-0.421,+7.062,+10.125,-0.312,-6, -2, 2, -2, -9, -5, 2, 13
1503514039076,-0.359,-0.232,-0.482,-0.765,+0.971,+0.019,-0.386,+10.375,+10.750,+0.750,1, -6, -1, 3, 17, -5, 3, 25
1503514039092,-0.358,-0.230,-0.484,-0.764,+1.000,+0.011,-0.376,+12.375,+6.812,+3.375,0, -3, 0, 1, -3, -2, 0, 3
1503514042398,-0.171,-0.148,-0.602,-0.766,+1.013,-0.021,-0.175,-12.500,-15.062,+5.625,10, -3, -9, 6, 5, 3, 3, 24
1503514042414,-0.173,-0.148,-0.600,-0.767,+0.974,-0.034,-0.196,-12.312,-14.125,+0.938,-7, -19, -12, -6, -2, -2, 0, -4
1503514042436,-0.174,-0.149,-0.598,-0.768,+0.937,+0.006,-0.177,-12.812,-13.688,-2.812,6, 0, 1, 1, -1, -1, 0, 2
1503514042458,-0.174,-0.150,-0.596,-0.770,+0.927,+0.041,-0.210,-5.688,-9.938,-1.938,-9, 0, 1, 0, 3, 3, 4, -2
1503514042476,-0.175,-0.149,-0.596,-0.770,+0.935,+0.008,-0.215,-0.062,-0.625,+3.062,10, 4, 2, 3, -1, -19, -5, 1
1503514042496,-0.176,-0.149,-0.597,-0.769,+0.975,-0.012,-0.195,-2.750,+8.250,+7.875,-7, -1, 4, -1, 0, 4, -4, 0
1503514042519,-0.177,-0.148,-0.599,-0.767,+0.979,+0.030,-0.215,-5.312,+13.188,+12.375,9, 5, -1, 3, 2, -3, -9, -17
1503514042534,-0.179,-0.148,-0.600,-0.766,+0.975,+0.039,-0.211,-0.500,+6.625,+12.750,-3, 2, 3, -1, -1, 4, 4, 12
1503514042556,-0.180,-0.146,-0.600,-0.766,+1.003,+0.006,-0.190,+3.875,+2.688,+11.812,5, 3, -1, 1, 5, 5, -2, 7
1503514042578,-0.181,-0.144,-0.600,-0.766,+1.004,-0.007,-0.205,+2.188,-3.062,+9.250,-17, -11, -3, 0, 0, 4, 1, -15
1503514042594,-0.181,-0.144,-0.598,-0.767,+0.982,+0.012,-0.200,-3.062,-15.312,+2.750,2, 4, 2, -2, -2, -2, -4, -6
1503514042623,-0.181,-0.144,-0.595,-0.770,+0.968,+0.056,-0.204,-3.062,-21.750,-2.938,-11, -7, -5, 3, 3, 0, 3, 1
1503514042638,-0.181,-0.144,-0.592,-0.772,+0.930,+0.058,-0.236,+0.875,-17.500,-5.312,-1, 1, 1, -5, -5, -4, 1, -2
1503514042654,-0.179,-0.144,-0.590,-0.774,+0.920,+0.036,-0.256,+3.375,-12.562,-8.688,10, 5, 1, 0, -3, 2, 3, 15
1503514042678,-0.178,-0.144,-0.587,-0.776,+0.937,+0.038,-0.242,+4.125,-16.812,-8.562,3, 4, 1, 5, 2, -1, -5, -23
1503514042698,-0.175,-0.145,-0.584,-0.779,+0.976,+0.064,-0.231,+3.500,-19.188,-14.625,1, 0, 3, -2, -1, -2, -2, -4
1503514042715,-0.173,-0.146,-0.582,-0.781,+0.967,+0.099,-0.227,+0.750,-17.438,-17.875,1, 2, 1, 2, -4, -7, -1, 2
1503514042736,-0.172,-0.148,-0.579,-0.783,+0.943,+0.126,-0.276,-2.312,-11.562,-5.750,2, 0, -1, 0, 1, 10, 2, 5
1503514042758,-0.173,-0.148,-0.577,-0.784,+0.921,+0.133,-0.271,-9.000,-12.625,+8.750,8, 3, 0, -1, -1, 0, 2, 16
1503514042784,-0.175,-0.149,-0.575,-0.785,+0.950,+0.103,-0.224,-11.062,-11.688,+7.250,-8, -11, -8, -1, 3, 2, -1, -28
1503514042796,-0.176,-0.151,-0.575,-0.785,+0.978,+0.063,-0.207,-11.000,-1.938,+3.562,-4, 0, 0, -2, -2, -2, -4, -1
1503514042818,-0.179,-0.151,-0.575,-0.784,+0.969,+0.045,-0.256,-12.562,-0.812,+12.125,0, 0, 1, 0, -3, -5, -5, -9
1503514042840,-0.182,-0.151,-0.573,-0.785,+0.974,+0.048,-0.268,-17.000,-13.188,+14.938,-2, -2, -2, -4, -2, 2, 2, 9
1503514042863,-0.185,-0.153,-0.570,-0.786,+0.982,+0.071,-0.237,-19.000,-18.875,+6.312,-9, -11, -10, -8, -6, -1, 4, 17
1503514042885,-0.187,-0.154,-0.567,-0.787,+0.988,+0.064,-0.239,-15.062,-18.938,+3.062,-1, 2, 1, -2, 0, 0, 2, 2
1503514042900,-0.190,-0.154,-0.564,-0.789,+0.947,+0.029,-0.313,-11.688,-18.562,+9.062,-1, 4, 3, 0, 1, -2, -4, -8
1503514042917,-0.193,-0.154,-0.560,-0.791,+0.933,+0.006,-0.303,-13.938,-26.688,+9.875,11, -2, -1, 0, 0, -4, -4, -12
1503514042938,-0.196,-0.155,-0.556,-0.793,+0.946,+0.033,-0.252,-18.938,-26.812,+3.688,-2, -1, 1, 3, 2, 3, 0, -3
1503514042960,-0.198,-0.156,-0.554,-0.793,+0.957,+0.032,-0.249,-16.562,-17.562,+3.188,-6, -5, 0, -4, 1, -3, -7, -7
1503514042976,-0.202,-0.157,-0.552,-0.794,+0.940,+0.009,-0.279,-15.625,-10.688,+11.438,6, 4, 2, -1, -1, -3, 1, -2
1503514042998,-0.205,-0.157,-0.551,-0.794,+0.943,+0.010,-0.312,-16.375,-11.000,+12.062,-2, 1, 4, 4, 3, 3, 3, 7
1503514043021,-0.207,-0.158,-0.549,-0.794,+0.972,+0.027,-0.294,-14.000,-11.812,+5.875,19, 10, 4, 0, -1, 1, 1, 6
1503514043036,-0.209,-0.159,-0.547,-0.795,+0.987,+0.015,-0.267,-11.062,-14.938,+3.500,-15, -4, -5, -6, -3, -5, 1, -7
1503514043058,-0.211,-0.159,-0.545,-0.796,+0.975,+0.018,-0.277,-14.188,-15.062,+7.375,-4, -6, -4, -7, -4, 2, -3, -13
1503514043081,-0.214,-0.159,-0.543,-0.796,+0.954,+0.036,-0.334,-13.375,-14.000,+9.625,1, -2, -2, -1, -2, -2, -10, 3
1503514043096,-0.216,-0.159,-0.541,-0.797,+0.935,+0.025,-0.363,-6.875,-12.188,+10.438,14, -4, -5, 0, 2, -3, -8, -6
1503514043118,-0.219,-0.158,-0.539,-0.798,+0.943,+0.003,-0.313,-6.875,-12.688,+9.125,-1, 2, 0, 4, -1, -4, -8, -30
1503514043140,-0.221,-0.158,-0.538,-0.798,+0.954,+0.020,-0.297,-10.938,-9.688,+11.938,-23, 3, 5, 1, -3, -3, 1, -6
1503514043156,-0.224,-0.158,-0.537,-0.798,+0.933,+0.059,-0.341,-10.125,-7.188,+15.188,4, 6, 2, 6, -3, -18, 2, 10
1503514043181,-0.226,-0.157,-0.535,-0.799,+0.896,+0.053,-0.406,-3.250,-10.562,+15.125,2, -1, 4, 3, 5, 8, -1, -1
1503514043201,-0.229,-0.155,-0.532,-0.800,+0.903,+0.007,-0.350,-1.562,-18.062,+11.875,-3, 3, 1, -3, -1, 2, 4, 38
1503514043217,-0.230,-0.155,-0.530,-0.801,+0.899,-0.005,-0.302,-6.688,-16.000,+6.000,2, 2, -2, -6, -6, 6, -3, -11
1503514043238,-0.231,-0.155,-0.529,-0.802,+0.867,+0.005,-0.312,-7.688,-8.188,+0.938,4, 11, 4, 0, 1, 2, 1, 17
1503514043261,-0.232,-0.156,-0.527,-0.802,+0.878,+0.001,-0.362,-7.500,-6.750,-1.562,-4, -6, 1, 3, 4, 0, -8, -62
1503514043276,-0.233,-0.155,-0.526,-0.803,+0.916,-0.022,-0.371,-4.562,-7.125,+1.312,9, 11, 7, 3, 0, 2, 11, 15
1503514043298,-0.233,-0.156,-0.526,-0.803,+0.919,-0.024,-0.316,-7.875,-6.000,-0.938,19, -4, -11, -6, -1, 0, 0, 22
1503514043316,-0.233,-0.158,-0.525,-0.803,+0.929,-0.007,-0.297,-10.062,-3.312,-6.938,-8, -3, -2, -1, -6, -3, -2, -15
1503514043343,-0.234,-0.159,-0.524,-0.803,+0.963,+0.001,-0.362,-8.938,-3.625,-2.812,-1, -5, -6, -5, -5, 0, 2, -2
1503514043359,-0.235,-0.158,-0.523,-0.804,+0.966,-0.026,-0.411,-5.000,-7.688,+7.062,-15, -10, -7, 0, 0, -2, -1, 7
1503514043374,-0.238,-0.156,-0.522,-0.804,+0.973,-0.053,-0.368,-4.125,-7.875,+14.438,7, 7, 0, -4, -1, 1, 8, 4
1503514043396,-0.240,-0.156,-0.523,-0.803,+0.935,+0.001,-0.317,-8.062,-1.000,+13.375,3, -5, 0, -2, 0, 3, 0, -1
1503514043419,-0.242,-0.156,-0.524,-0.802,+0.962,+0.047,-0.362,-3.812,+7.562,+14.062,-4, -1, 3, 6, 2, -1, -3, 2
1503514043450,-0.244,-0.154,-0.526,-0.800,+1.018,+0.012,-0.425,+4.188,+10.812,+24.500,-3, -2, 0, -2, 1, 0, -1, 2
1503514043457,-0.248,-0.149,-0.528,-0.798,+1.039,-0.048,-0.401,+7.562,+5.312,+35.688,-11, -3, 2, 2, 3, -3, -5, -1
1503514043478,-0.253,-0.145,-0.529,-0.797,+1.019,-0.025,-0.344,+7.438,-2.938,+36.188,8, -1, -4, -7, -4, -3, 1, 2
1503514043500,-0.255,-0.140,-0.529,-0.797,+0.996,+0.019,-0.340,+13.438,-10.875,+33.562,-2, -3, -3, -3, -2, 0, -3, -11
1503514043518,-0.259,-0.134,-0.529,-0.797,+0.973,+0.006,-0.396,+20.000,-14.250,+39.250,-1, 3, 0, -1, -1, -4, -6, -15
1503514043538,-0.263,-0.126,-0.529,-0.797,+0.954,-0.058,-0.407,+24.438,-10.000,+48.375,-4, -3, 3, 2, 4, -2, 0, 2
1503514047319,-0.329,-0.147,-0.461,-0.811,+0.806,-0.047,-0.464,-5.250,-2.312,+9.812,-13, -2, 0, 1, -1, -2, 3, -11
1503514047340,-0.329,-0.146,-0.462,-0.811,+0.770,-0.086,-0.507,+0.000,+10.062,+3.500,5, 2, -8, -5, -11, -5, 3, 17
1503514047362,-0.328,-0.146,-0.464,-0.810,+0.859,-0.145,-0.474,+4.375,+12.812,-3.750,-9, -7, -4, 1, -6, -4, -2, 30
1503514047379,-0.327,-0.146,-0.467,-0.809,+0.933,-0.142,-0.442,+0.188,+9.875,-5.438,-7, -7, -6, -7, -13, -11, -6, -13
1503514047401,-0.326,-0.146,-0.467,-0.809,+0.883,-0.086,-0.442,-0.062,-2.875,-8.562,1, 4, 1, -3, -4, 1, 3, -4
1503514047423,-0.324,-0.146,-0.466,-0.810,+0.824,-0.076,-0.440,+4.812,-2.688,-11.375,7, 12, 16, 7, 5, 4, 2, -20
1503514047438,-0.321,-0.146,-0.468,-0.810,+0.812,-0.099,-0.477,+6.938,+11.750,-13.438,-13, -8, -8, -6, -7, 1, 8, 50
1503514047460,-0.318,-0.147,-0.471,-0.810,+0.911,-0.086,-0.472,+7.562,+16.812,-13.125,1, 0, -2, -1, 7, 7, 1, -14
1503514047483,-0.317,-0.146,-0.472,-0.810,+0.988,-0.076,-0.438,+7.938,+1.250,-6.438,0, -2, -1, -3, -5, 0, -3, -11
1503514047498,-0.316,-0.146,-0.473,-0.810,+0.919,-0.062,-0.431,+5.625,-1.062,+0.312,-3, 0, 2, -2, -3, -2, 1, 51
1503514047522,-0.315,-0.144,-0.473,-0.810,+0.852,-0.075,-0.468,+8.312,-0.125,+0.250,-2, -1, -5, -3, -1, -3, -9, -33
1503514047546,-0.315,-0.143,-0.474,-0.810,+0.879,-0.085,-0.453,+5.500,+0.938,-1.375,-6, 0, 0, 4, 5, 6, 1, -38
1503514047558,-0.314,-0.143,-0.474,-0.810,+0.899,-0.066,-0.453,+2.625,+2.312,-1.562,6, 4, 6, 9, 15, 2, 0, -14
1503514047580,-0.313,-0.143,-0.475,-0.810,+0.871,-0.053,-0.477,-0.250,+2.875,-1.625,-3, -5, -3, -5, -7, -2, 2, -8
1503514047602,-0.312,-0.144,-0.474,-0.811,+0.834,+0.015,-0.489,-1.562,-1.812,-9.812,1, -7, -1, 1, -3, -3, 0, 11
1503514047619,-0.308,-0.146,-0.472,-0.813,+0.819,+0.022,-0.511,+5.125,-5.625,-21.312,3, 4, 7, 5, -1, -3, 1, -4
1503514047641,-0.305,-0.146,-0.470,-0.815,+0.835,-0.019,-0.498,+4.438,-7.000,-19.625,-4, 1, -2, -5, -7, -2, -4, 0
1503514047663,-0.304,-0.147,-0.468,-0.817,+0.877,-0.027,-0.484,-3.812,-9.500,-8.750,13, -1, -2, -4, -1, 5, 9, 16
1503514047680,-0.304,-0.149,-0.467,-0.817,+0.861,+0.027,-0.480,-10.562,+0.312,-2.125,-2, 4, 0, 0, 1, -3, -9, -8
1503514047700,-0.304,-0.151,-0.466,-0.817,+0.835,+0.086,-0.502,-5.750,+0.375,-1.250,-12, -6, -4, -5, -8, -5, 0, -3
1503514047723,-0.304,-0.151,-0.465,-0.817,+0.875,+0.041,-0.494,-3.312,-2.312,+4.375,7, 1, -7, -5, -2, -3, -1, -2
1503514047738,-0.306,-0.151,-0.465,-0.817,+0.894,-0.039,-0.471,-7.375,-6.750,+12.438,0, -3, 0, -1, -2, 1, -4, -7
1503514047760,-0.309,-0.151,-0.463,-0.817,+0.868,-0.052,-0.482,-11.812,-9.062,+11.750,4, 3, 0, 6, 4, -3, -2, 14
1503514047784,-0.311,-0.152,-0.461,-0.817,+0.851,-0.006,-0.506,-13.562,-7.438,+9.375,4, -1, 1, -1, 0, 10, -9, -1
1503514047798,-0.314,-0.153,-0.459,-0.817,+0.843,+0.020,-0.501,-17.562,-11.500,+11.938,-7, 0, -3, -3, -8, -8, -3, -5
1503514047822,-0.318,-0.154,-0.457,-0.817,+0.860,-0.017,-0.476,-18.125,-10.312,+14.938,1, -1, 2, -4, -8, -4, 2, -6
1503514047843,-0.321,-0.155,-0.456,-0.816,+0.851,-0.048,-0.474,-17.500,-5.750,+13.500,-20, 2, 2, 0, -2, -3, 0, -59
1503514047859,-0.324,-0.155,-0.454,-0.815,+0.854,-0.049,-0.488,-17.062,-6.625,+12.375,-5, -4, 1, 17, 16, 3, -2, -15
1503514047882,-0.327,-0.156,-0.452,-0.815,+0.863,-0.045,-0.504,-17.688,-8.812,+12.000,12, 0, -7, -8, -1, 0, 3, 24
1503514047903,-0.330,-0.157,-0.450,-0.815,+0.849,-0.032,-0.505,-16.500,-15.000,+10.375,5, -6, -7, 1, 1, -7, -6, 3
1503514047924,-0.333,-0.157,-0.446,-0.816,+0.841,-0.030,-0.482,-16.562,-20.125,+7.938,-1, -2, -6, -5, -7, 10, 1, 5
1503514047941,-0.335,-0.159,-0.445,-0.815,+0.808,-0.012,-0.485,-14.750,-3.875,+8.562,7, 1, 0, -6, -2, 12, 6, 36
1503514047963,-0.337,-0.159,-0.446,-0.814,+0.795,-0.036,-0.522,-9.375,+11.000,+12.000,6, 0, 1, 2, 21, 9, 3, 20
1503514047983,-0.339,-0.159,-0.448,-0.812,+0.873,-0.081,-0.521,-6.875,+11.312,+13.875,-1, -3, -5, -8, -12, -12, -12, -52
1503514048008,-0.341,-0.159,-0.449,-0.811,+0.938,-0.077,-0.487,-7.688,+2.375,+10.812,-3, -2, -3, 1, 21, -3, 4, 15
1503514048024,-0.343,-0.159,-0.448,-0.810,+0.916,-0.072,-0.475,-6.375,-9.250,+8.250,-2, 1, 1, -1, -14, -15, -12, -23
1503514048039,-0.345,-0.158,-0.446,-0.811,+0.864,-0.073,-0.501,-5.812,-17.438,+11.625,-4, -6, -5, -3, -7, -6, -1, -16
1503514048061,-0.348,-0.156,-0.444,-0.811,+0.819,-0.073,-0.524,-3.375,-13.750,+14.000,0, 8, 8, 7, 2, 6, 6, 4
1503514048083,-0.349,-0.154,-0.444,-0.811,+0.828,-0.096,-0.526,+1.625,-5.562,+10.312,-4, 17, 11, 4, 2, 0, 0, 12
1503514048099,-0.351,-0.152,-0.445,-0.810,+0.859,-0.124,-0.508,+2.562,+3.625,+11.375,1, -8, -6, -2, -3, -2, 2, 28
1503514048121,-0.353,-0.150,-0.447,-0.808,+0.883,-0.120,-0.504,+2.688,+5.875,+15.750,-3, -1, 0, 4, -4, -1, 2, -24
1503514048143,-0.354,-0.148,-0.449,-0.807,+0.886,-0.120,-0.509,+5.000,+4.812,+17.062,-9, 2, 8, 1, 0, -4, -1, 2
1503514048159,-0.356,-0.146,-0.451,-0.806,+0.879,-0.125,-0.499,+9.000,+5.312,+14.500,8, -8, -9, -6, -1, 14, -1, 3
1503514048184,-0.357,-0.143,-0.453,-0.804,+0.882,-0.125,-0.491,+11.125,+8.812,+14.312,3, -1, -3, -2, -1, -3, 0, -12
1503514048203,-0.358,-0.140,-0.456,-0.803,+0.918,-0.128,-0.485,+11.938,+7.500,+19.062,-2, -3, -5, -2, 1, 10, 5, 21
1503514048221,-0.360,-0.137,-0.459,-0.801,+0.916,-0.119,-0.494,+11.250,+3.625,+23.250,-3, -10, -8, -1, 0, 0, -2, 2
1503514048252,-0.361,-0.133,-0.460,-0.800,+0.893,-0.122,-0.503,+15.500,+1.688,+22.438,-8, -5, -3, -6, -8, -15, -12, -31
1503514048263,-0.363,-0.128,-0.463,-0.799,+0.851,-0.141,-0.532,+24.250,+6.312,+24.875,10, 5, -3, -7, -10, -6, 1, 1
1503514048279,-0.365,-0.122,-0.467,-0.797,+0.858,-0.176,-0.510,+26.062,+8.812,+30.312,4, 3, 1, -4, -6, -4, -4, -4
1503514048301,-0.367,-0.117,-0.471,-0.794,+0.862,-0.173,-0.478,+20.562,+14.250,+33.375,-9, -3, -1, -2, -1, 0, -3, -41
1503514048323,-0.369,-0.113,-0.475,-0.791,+0.896,-0.145,-0.467,+21.375,+15.750,+35.312,8, 0, -5, -2, -4, 6, 4, 12
1503514048339,-0.372,-0.107,-0.479,-0.788,+0.886,-0.154,-0.485,+26.188,+11.250,+36.938,1, 13, 10, 2, -5, -6, 2, -18
1503514048361,-0.374,-0.101,-0.483,-0.786,+0.845,-0.181,-0.535,+30.688,+10.875,+39.312,-9, -1, 0, 4, 1, 0, -2, -20
1503514048386,-0.377,-0.094,-0.487,-0.783,+0.841,-0.218,-0.473,+31.438,+12.812,+40.312,6, 3, 9, 14, 19, 6, 2, 16
1503514048399,-0.379,-0.088,-0.492,-0.779,+0.834,-0.227,-0.438,+30.375,+17.750,+37.562,6, 1, -6, -6, -7, -10, -3, 11
1503514051070,-0.434,-0.194,-0.589,-0.654,+0.919,-0.200,-0.200,-5.438,-5.062,-2.000,0, 6, 6, 0, -2, -1, -1, -7
1503514051082,-0.434,-0.194,-0.587,-0.655,+0.918,-0.228,-0.195,-2.562,-5.562,-2.625,-12, -2, 2, -1, -2, -28, -6, -13
1503514051106,-0.433,-0.195,-0.586,-0.657,+0.929,-0.256,-0.163,-2.125,-13.938,-12.062,-2, -5, -5, -4, -5, 3, 0, 1
1503514051120,-0.432,-0.196,-0.583,-0.659,+0.927,-0.246,-0.173,-5.562,-13.125,-16.688,6, 1, 2, 2, 1, 5, 0, 1
1503514051144,-0.431,-0.198,-0.580,-0.663,+0.895,-0.208,-0.196,-8.812,-17.750,-20.250,-2, -2, -2, 4, 4, 3, -1, 1
1503514051165,-0.429,-0.199,-0.576,-0.666,+0.927,-0.222,-0.178,-6.688,-22.312,-26.875,7, -1, -5, -2, -10, 17, 0, 2
1503514051180,-0.426,-0.202,-0.573,-0.670,+0.961,-0.236,-0.186,-4.000,-17.438,-35.500,3, 0, -7, -5, -4, -4, -3, 4
1503514051207,-0.423,-0.205,-0.570,-0.674,+0.933,-0.212,-0.216,-9.188,-9.562,-34.875,9, 13, 18, 3, 5, 4, -1, -16
1503514051225,-0.421,-0.210,-0.568,-0.676,+0.920,-0.148,-0.237,-16.312,-5.188,-26.438,0, -2, -3, -2, -22, -3, 2, 5
1503514051246,-0.420,-0.213,-0.563,-0.679,+0.956,-0.151,-0.235,-17.312,-17.125,-28.625,6, 3, -4, -4, -4, 0, -3, 2
1503514051262,-0.417,-0.216,-0.559,-0.683,+1.010,-0.169,-0.198,-12.000,-22.688,-35.000,-17, -14, -6, -2, 1, 0, -1, -3
1503514051285,-0.414,-0.220,-0.555,-0.687,+0.956,-0.175,-0.225,-8.875,-18.000,-39.188,-5, -4, -5, -4, -1, -4, -8, -12
1503514051300,-0.412,-0.223,-0.550,-0.691,+0.905,-0.150,-0.247,-15.875,-18.000,-35.438,1, 0, 1, 9, -2, -5, 4, 12
1503514051322,-0.411,-0.227,-0.546,-0.694,+0.945,-0.101,-0.269,-19.188,-17.500,-30.500,3, -3, -2, -5, 4, 2, 2, 8
1503514051345,-0.408,-0.230,-0.542,-0.698,+0.979,-0.099,-0.296,-7.625,-11.938,-31.625,11, 14, 1, -4, -8, -3, 2, 0
1503514051360,-0.405,-0.232,-0.540,-0.701,+0.943,-0.152,-0.279,+1.875,-10.500,-30.250,0, 3, 1, 3, 11, 2, -1, -7
1503514051383,-0.403,-0.233,-0.537,-0.704,+0.951,-0.156,-0.248,-6.438,-14.812,-29.438,-1, -3, 3, -1, -5, 0, -2, 1
1503514051407,-0.400,-0.238,-0.534,-0.706,+0.992,-0.040,-0.255,-12.688,-5.500,-29.312,-4, -6, -1, 1, 2, -1, -3, 11
1503514051420,-0.397,-0.240,-0.533,-0.708,+0.985,-0.012,-0.329,+0.875,-2.250,-21.938,0, -12, -8, 4, 5, 3, 3, 9
1503514051443,-0.397,-0.239,-0.531,-0.710,+0.979,-0.110,-0.283,+0.188,-16.188,-6.625,5, 0, -4, -5, 0, 2, 0, -1
1503514051465,-0.398,-0.240,-0.529,-0.710,+0.995,-0.125,-0.214,-14.875,-8.625,-0.750,-6, -1, -5, 1, 2, -3, -4, -23
1503514051481,-0.398,-0.242,-0.529,-0.709,+0.998,-0.037,-0.250,-13.438,+1.812,-4.188,-2, 0, -5, -8, -2, -4, -5, -10
1503514051510,-0.398,-0.243,-0.527,-0.710,+1.001,-0.028,-0.305,-2.625,-5.875,-3.000,-19, -3, 6, -2, -5, -5, 0, -1
1503514051525,-0.399,-0.242,-0.525,-0.712,+0.977,-0.083,-0.303,-5.062,-18.250,-1.438,0, -3, -3, -1, 0, 0, -6, -26
1503514051541,-0.401,-0.242,-0.522,-0.713,+0.970,-0.089,-0.247,-12.812,-20.312,-2.625,2, -3, 1, 8, 17, 15, 5, 14
1503514051562,-0.402,-0.244,-0.519,-0.714,+0.981,-0.051,-0.256,-13.812,-17.562,-4.062,4, 0, 1, 11, 16, 12, 7, 20
1503514051585,-0.402,-0.244,-0.517,-0.715,+0.958,-0.038,-0.305,-8.938,-13.125,-5.625,6, -8, -5, -5, -8, -5, -1, 2
1503514051601,-0.402,-0.245,-0.514,-0.717,+0.909,-0.045,-0.344,-7.938,-13.375,-7.750,2, 2, -1, -8, -7, -6, -4, 7
1503514051622,-0.402,-0.246,-0.511,-0.719,+0.905,-0.042,-0.314,-10.000,-12.625,-9.625,0, 3, 3, 0, -2, -5, 3, 1
1503514051645,-0.402,-0.247,-0.509,-0.720,+0.942,-0.044,-0.319,-5.312,-8.000,-9.125,0, 3, 6, 0, -6, 0, 0, -4
1503514051661,-0.401,-0.247,-0.508,-0.721,+0.953,-0.058,-0.333,-1.062,-2.875,-7.250,-13, -9, -4, -2, -1, -5, -1, 11
1503514051683,-0.401,-0.247,-0.507,-0.722,+0.939,-0.048,-0.314,-3.625,-6.938,-5.938,0, 0, 0, 1, 0, 4, 7, 13
1503514051707,-0.401,-0.248,-0.505,-0.723,+0.935,-0.027,-0.307,-7.312,-8.375,-6.875,0, 5, 0, -5, -5, -5, -6, -5
1503514051721,-0.400,-0.249,-0.504,-0.724,+0.950,-0.019,-0.303,-4.938,-8.500,-7.062,8, -1, -4, -1, -3, -13, -6, 2
1503514051743,-0.401,-0.249,-0.503,-0.724,+0.953,-0.042,-0.322,-3.500,-7.750,-0.562,20, 5, -2, -2, -4, -2, 7, 34
1503514051765,-0.402,-0.249,-0.501,-0.725,+0.938,-0.054,-0.340,-7.062,-10.750,+3.125,4, -1, 0, 0, 1, 1, -1, 12
1503514051781,-0.403,-0.249,-0.499,-0.726,+0.947,-0.033,-0.323,-10.250,-11.750,+0.375,5, 4, 0, -2, 1, 2, -1, -2
1503514051803,-0.404,-0.250,-0.497,-0.726,+0.972,-0.013,-0.311,-10.062,-10.062,+1.250,-2, -11, -6, -7, -4, -7, -3, 0
1503514051825,-0.406,-0.250,-0.496,-0.726,+0.950,-0.007,-0.349,-7.688,-5.750,+6.562,3, 2, 7, 0, -3, 2, 3, 4
1503514051850,-0.407,-0.249,-0.495,-0.726,+0.939,-0.020,-0.397,-2.250,-4.812,+7.750,-5, 1, -3, -3, -2, -1, -3, -13
1503514051862,-0.407,-0.248,-0.495,-0.727,+0.969,-0.046,-0.377,+1.375,-6.438,+2.688,-5, -2, -6, -3, -3, -1, -2, 8
1503514051885,-0.407,-0.247,-0.494,-0.727,+0.995,-0.058,-0.334,+3.438,-7.250,-0.438,4, 3, 3, 1, 3, 1, 4, 35
1503514051901,-0.408,-0.245,-0.494,-0.728,+0.998,-0.045,-0.341,+4.062,-11.812,+4.312,-12, -4, -2, -3, 0, 3, 2, -32
1503514051923,-0.409,-0.243,-0.493,-0.729,+0.979,-0.031,-0.383,+6.438,-13.812,+8.938,-1, -1, -6, -6, -7, -1, -7, -18
1503514051945,-0.409,-0.240,-0.492,-0.731,+0.932,-0.041,-0.398,+13.188,-11.375,+5.438,-17, -2, -1, -1, -2, -2, 5, -19
1503514051961,-0.408,-0.236,-0.493,-0.732,+0.938,-0.080,-0.386,+19.875,-5.625,+4.312,3, 2, 2, -6, -6, -4, 8, 21
1503514051983,-0.407,-0.232,-0.495,-0.732,+0.964,-0.083,-0.384,+21.812,-3.000,+9.312,8, -1, -3, 0, 0, 2, 0, -3
1503514052010,-0.407,-0.228,-0.496,-0.732,+0.987,-0.077,-0.360,+21.062,-3.562,+14.750,11, 7, 4, 3, 2, 1, 0, 23
1503514052021,-0.407,-0.223,-0.499,-0.732,+0.979,-0.077,-0.345,+24.812,-3.625,+18.250,-8, -4, -4, 1, 2, 0, -1, 10
1503514052043,-0.407,-0.217,-0.501,-0.732,+0.929,-0.103,-0.398,+33.438,-1.562,+17.625,9, 5, 3, 4, 2, 0, -9, 0
1503514052065,-0.406,-0.209,-0.504,-0.733,+0.924,-0.149,-0.382,+38.625,-4.875,+16.312,12, 3, 2, 4, 4, 5, 1, -1
1503514052081,-0.405,-0.202,-0.507,-0.733,+0.947,-0.167,-0.332,+37.688,-4.562,+18.812,-2, -1, 0, -5, -6, -6, -4, 10
1503514056610,-0.420,-0.202,-0.550,-0.693,+0.882,-0.218,-0.229,-6.500,+8.438,-17.438,-15, -7, -4, -2, -2, 1, -5, -26
1503514056625,-0.419,-0.206,-0.551,-0.692,+0.944,-0.226,-0.233,-14.500,+15.688,-15.375,-8, -4, -2, 0, 1, 0, 1, 7
1503514056648,-0.418,-0.211,-0.552,-0.690,+0.968,-0.201,-0.217,-17.500,+19.000,-18.375,-8, -4, 0, 1, 2, 0, -2, 5
1503514056670,-0.415,-0.216,-0.552,-0.690,+0.946,-0.164,-0.222,-14.062,+13.562,-23.438,-4, -1, 2, -1, -1, 1, 3, 4
1503514056685,-0.413,-0.220,-0.551,-0.691,+0.923,-0.133,-0.251,-11.312,+5.062,-24.250,-3, -7, -10, -7, -2, -2, -3, 1
1503514056709,-0.412,-0.222,-0.549,-0.693,+0.905,-0.137,-0.299,-7.625,+2.062,-19.688,-18, -6, -2, 3, 2, 1, 1, -5
1503514056730,-0.411,-0.225,-0.548,-0.693,+0.938,-0.151,-0.278,-9.250,+0.625,-17.375,-1, -7, -8, -4, 2, 2, 3, 1
1503514056745,-0.409,-0.228,-0.547,-0.694,+0.993,-0.118,-0.268,-10.375,+0.938,-17.812,-1, 1, 5, 2, 1, -1, -3, -6
1503514056767,-0.408,-0.230,-0.546,-0.695,+0.967,-0.083,-0.284,-5.062,+2.438,-13.250,3, 2, 3, 1, -2, -2, -2, -3
1503514056790,-0.408,-0.230,-0.545,-0.696,+0.920,-0.111,-0.297,-3.625,+0.750,-3.688,6, 2, 2, -1, 0, 1, -2, 0
1503514056813,-0.408,-0.231,-0.545,-0.695,+0.937,-0.133,-0.277,-6.562,+4.562,-1.125,7, 3, -1, -2, -1, -2, -1, 3
1503514056827,-0.407,-0.233,-0.545,-0.695,+0.984,-0.115,-0.251,-6.938,+8.812,-4.000,12, 10, 2, 2, -1, -2, -1, -4
1503514056851,-0.407,-0.235,-0.545,-0.694,+0.997,-0.071,-0.264,-5.625,+6.812,-5.750,-10, -4, -4, 2, 3, 1, 1, 1
1503514056865,-0.406,-0.236,-0.545,-0.695,+0.946,-0.071,-0.242,-2.562,-1.375,-5.875,-2, -2, -1, -1, -3, -1, -1, 0
1503514056887,-0.404,-0.236,-0.544,-0.696,+0.938,-0.105,-0.234,+1.250,-3.875,-11.062,0, 15, 16, 4, 1, -1, -1, -6
1503514056912,-0.403,-0.238,-0.544,-0.697,+0.956,-0.110,-0.240,+0.188,+4.375,-12.625,-9, -7, -5, -2, -2, -2, -1, -11
1503514056933,-0.401,-0.239,-0.544,-0.697,+0.961,-0.078,-0.257,-4.000,+2.875,-9.312,6, -3, 2, -1, 0, -2, -1, 2
1503514056955,-0.401,-0.240,-0.543,-0.698,+0.974,-0.061,-0.235,-5.312,-4.688,-5.875,4, -1, -9, 7, 6, 4, 0, 3
1503514056970,-0.401,-0.241,-0.542,-0.698,+0.996,-0.108,-0.210,-4.312,-5.062,-3.500,-9, -6, -2, -6, -4, -3, 0, -2
1503514056986,-0.401,-0.241,-0.543,-0.698,+1.001,-0.140,-0.209,-4.312,+0.125,+1.688,4, -5, -5, -2, -3, -2, -5, -1
1503514057007,-0.403,-0.241,-0.542,-0.697,+0.985,-0.126,-0.254,-8.125,-4.188,+6.062,-10, -14, -6, 0, 2, 1, 0, 1
1503514057031,-0.404,-0.241,-0.540,-0.698,+0.947,-0.088,-0.252,-11.125,-8.500,+0.000,0, 3, 2, 0, -2, -1, 0, -4
1503514057046,-0.404,-0.243,-0.539,-0.699,+0.933,-0.079,-0.235,-6.750,-6.250,-9.875,4, -1, -6, -1, 0, 0, -1, -26
1503514057067,-0.404,-0.244,-0.538,-0.699,+0.978,-0.116,-0.239,-6.000,-0.938,-4.875,8, 9, 3, 0, -2, -3, -3, -2
1503514057090,-0.405,-0.244,-0.538,-0.698,+0.978,-0.120,-0.256,-8.125,-0.688,+4.750,8, 0, -5, -4, -2, -2, 0, 3
1503514057105,-0.406,-0.243,-0.536,-0.699,+0.987,-0.096,-0.261,-7.688,-14.562,+1.125,-4, 6, 2, -2, -4, -3, -3, 6
1503514057127,-0.405,-0.244,-0.533,-0.702,+0.963,-0.046,-0.284,-3.938,-18.125,-14.750,-2, 1, 2, 0, -2, -1, -1, 3
1503514057153,-0.403,-0.245,-0.529,-0.706,+0.944,-0.017,-0.295,+3.562,-20.875,-23.062,16, 28, 16, 7, 4, 0, -1, -2
1503514057165,-0.401,-0.244,-0.525,-0.710,+0.932,-0.033,-0.307,+4.688,-25.375,-17.938,-4, -6, -1, -3, -1, -3, -5, -11
1503514057187,-0.400,-0.244,-0.522,-0.713,+0.922,-0.021,-0.303,+1.750,-21.688,-12.375,-3, -1, 1, -6, -3, -1, 3, 5
1503514057212,-0.398,-0.244,-0.519,-0.716,+0.920,+0.015,-0.314,+1.875,-14.125,-13.438,-1, -1, -5, -8, -5, -5, -1, 4
1503514057226,-0.396,-0.245,-0.517,-0.718,+0.911,+0.044,-0.305,+1.062,-9.250,-12.312,-6, -7, -5, 1, 6, 3, 1, 5
1503514057250,-0.395,-0.245,-0.515,-0.720,+0.940,+0.025,-0.307,+0.000,-10.875,-4.625,-3, -1, 1, -3, -10, -25, -2, -3
1503514057270,-0.396,-0.245,-0.513,-0.721,+0.943,-0.019,-0.326,-0.438,-12.688,+0.250,-12, -13, -10, -5, -1, 5, -1, -1
1503514057286,-0.397,-0.243,-0.510,-0.723,+0.970,-0.040,-0.287,-3.688,-25.375,+0.125,-8, -2, -3, -3, -1, 3, -1, 0
1503514057307,-0.399,-0.243,-0.506,-0.725,+0.974,-0.040,-0.262,-10.750,-31.375,+0.625,3, 4, 3, -1, -1, 1, -2, -18
1503514057330,-0.401,-0.243,-0.502,-0.727,+0.938,-0.025,-0.293,-17.062,-29.938,+4.250,2, -1, 6, 15, 14, 0, 4, 3
1503514057347,-0.404,-0.242,-0.498,-0.728,+0.898,-0.017,-0.367,-14.812,-25.000,+5.688,-3, -2, 0, -4, 2, 33, 11, 5
1503514057367,-0.406,-0.241,-0.494,-0.730,+0.909,-0.057,-0.378,-9.500,-21.875,+3.875,-9, -2, 4, 4, 6, -4, -2, 1
1503514057390,-0.409,-0.241,-0.491,-0.730,+0.938,-0.090,-0.333,-13.500,-20.938,+3.562,1, -5, -9, -7, -7, -10, -7, -5
1503514057405,-0.412,-0.242,-0.489,-0.730,+0.939,-0.071,-0.292,-21.562,-17.188,+5.625,-10, -4, -4, -5, -3, 2, -4, -12
1503514057427,-0.414,-0.244,-0.487,-0.730,+0.937,-0.041,-0.328,-20.688,-8.500,+3.750,3, -3, -2, -5, -5, -4, -3, 5
1503514057452,-0.415,-0.245,-0.485,-0.730,+0.936,-0.033,-0.426,-12.125,-0.188,+1.375,1, -5, -2, -3, -23, -31, -5, 4
1503514057465,-0.416,-0.245,-0.484,-0.729,+0.945,-0.070,-0.404,-7.375,-2.312,+1.688,18, 21, 8, -3, 0, 2, -1, 9
1503514057487,-0.417,-0.245,-0.484,-0.729,+0.950,-0.075,-0.339,-8.625,-4.688,-0.312,2, -6, -7, -3, 7, 10, 5, 12
1503514057511,-0.417,-0.246,-0.484,-0.729,+0.946,-0.045,-0.340,-6.062,+0.188,-3.062,-1, -2, -2, -6, -14, -25, -8, 2
1503514057525,-0.417,-0.247,-0.484,-0.729,+0.933,-0.020,-0.376,-2.062,+7.000,+0.375,-7, 0, 2, 6, 4, 6, -1, 0
1503514057548,-0.417,-0.247,-0.485,-0.728,+0.948,-0.043,-0.398,-1.250,+7.062,+5.938,-9, -11, -1, -1, -3, 3, -2, -6
1503514057570,-0.418,-0.246,-0.486,-0.727,+0.969,-0.059,-0.371,-1.375,+2.312,+8.312,-5, -2, 1, 8, 13, 17, 3, 0
1503514057586,-0.419,-0.245,-0.487,-0.726,+0.946,-0.049,-0.359,+1.750,+0.750,+8.875,-6, 0, -2, -3, -3, 3, 4, -14
1503514057607,-0.419,-0.244,-0.487,-0.726,+0.919,-0.045,-0.371,+6.875,-1.000,+9.562,-10, 5, 3, -1, 8, 3, -6, -31
1503514057630,-0.420,-0.241,-0.488,-0.726,+0.935,-0.066,-0.373,+8.250,+0.375,+10.750,-2, -4, -7, 0, 1, 4, 0, 0
1503514057645,-0.421,-0.239,-0.490,-0.725,+0.956,-0.076,-0.361,+8.438,+3.312,+14.062,-4, 0, -1, -6, -5, -2, 3, -2
1503514057667,-0.422,-0.237,-0.492,-0.724,+0.960,-0.092,-0.348,+9.688,+1.625,+15.438,0, -1, -2, -2, 6, 8, 0, 1
1503514057692,-0.422,-0.234,-0.493,-0.723,+0.948,-0.091,-0.340,+8.812,-1.188,+13.438,4, 1, 0, 1, -3, -3, -1, 15
1503514057706,-0.423,-0.232,-0.494,-0.723,+0.926,-0.078,-0.359,+9.000,-2.875,+12.000,-11, -3, -3, -2, 2, 14, 0, 4
1503514057727,-0.424,-0.229,-0.495,-0.723,+0.923,-0.087,-0.387,+12.500,-1.688,+13.688,-14, -14, -8, 2, 6, -1, -6, -18
1503514057750,-0.424,-0.225,-0.497,-0.723,+0.928,-0.100,-0.379,+14.750,-0.625,+13.625,-3, 0, 0, 2, -3, 0, 5, 2
1503514057765,-0.425,-0.222,-0.498,-0.723,+0.945,-0.104,-0.362,+14.375,-2.375,+16.125,3, 0, 4, 2, -2, -5, -2, -10
1503514057788,-0.426,-0.218,-0.500,-0.722,+0.922,-0.104,-0.352,+14.312,-3.938,+20.500,8, 0, -2, -2, -12, -26, -2, 13
1503514057810,-0.427,-0.214,-0.501,-0.721,+0.900,-0.104,-0.367,+17.562,-2.250,+20.875,3, 1, 2, -2, -1, -3, -3, -1
1503514057826,-0.428,-0.210,-0.503,-0.721,+0.907,-0.121,-0.376,+19.875,+1.125,+19.688,-7, -1, -2, -1, 0, -2, -5, -12
1503514057850,-0.429,-0.205,-0.506,-0.720,+0.917,-0.139,-0.370,+18.438,+0.812,+22.438,3, 3, 1, -3, -1, 2, 5, 18
1503514057870,-0.430,-0.201,-0.508,-0.719,+0.925,-0.138,-0.358,+17.312,-1.438,+25.312,-3, -2, -5, -2, -1, 1, -2, 12
1503514057888,-0.431,-0.197,-0.510,-0.718,+0.909,-0.130,-0.349,+18.938,-2.375,+21.375,0, 14, 6, 3, 4, 4, -1, 5
1503514057907,-0.431,-0.193,-0.511,-0.718,+0.902,-0.134,-0.338,+20.312,-2.750,+17.938,-2, -5, -1, 0, -1, -2, -2, -39
1503514057930,-0.432,-0.188,-0.513,-0.718,+0.914,-0.149,-0.358,+19.688,-2.250,+19.875,-6, -9, -6, -1, 0, 2, -3, 0
1503514057945,-0.432,-0.184,-0.515,-0.717,+0.906,-0.162,-0.380,+20.625,+0.562,+21.812,-10, -4, -2, -2, -5, -4, -6, -14
1503514057967,-0.433,-0.180,-0.517,-0.716,+0.897,-0.167,-0.357,+20.875,+0.188,+19.625,-1, 0, -4, -5, -2, -2, 4, 39
1503514057990,-0.433,-0.176,-0.519,-0.716,+0.897,-0.164,-0.319,+18.250,-3.250,+16.875,15, 4, -2, -1, -2, -1, -4, 1
1503514058005,-0.433,-0.172,-0.520,-0.716,+0.915,-0.170,-0.341,+17.875,-6.000,+16.125,-4, -6, 1, 0, 0, -1, -2, -19
1503514058028,-0.433,-0.168,-0.520,-0.716,+0.905,-0.188,-0.363,+17.438,-10.375,+14.938,1, 2, 2, -2, 2, 4, 4, 12
1503514058053,-0.434,-0.164,-0.520,-0.717,+0.880,-0.204,-0.374,+16.062,-14.875,+13.562,-5, -5, -1, 4, -1, 3, -1, 6
1503514058065,-0.435,-0.159,-0.520,-0.718,+0.875,-0.199,-0.344,+14.250,-16.562,+13.062,-2, -1, 0, -1, -2, -4, 0, -1
1503514058087,-0.434,-0.156,-0.520,-0.719,+0.873,-0.198,-0.342,+15.938,-11.000,+10.688,6, 0, -2, -5, -4, -5, 1, -7
1503514058110,-0.434,-0.153,-0.521,-0.719,+0.866,-0.219,-0.348,+17.062,-4.312,+9.062,-11, -2, 1, 2, 2, 5, -2, -8
1503514058127,-0.434,-0.149,-0.522,-0.719,+0.888,-0.239,-0.361,+14.438,-3.938,+12.125,-5, 2, -3, -10, -6, -4, -7, -16
1503514058148,-0.435,-0.146,-0.523,-0.719,+0.915,-0.243,-0.365,+13.438,-6.000,+13.500,8, 3, 8, 2, -1, 2, -1, 8
1503514058170,-0.435,-0.142,-0.523,-0.719,+0.908,-0.246,-0.363,+14.500,-8.125,+12.125,-7, -4, -4, -2, -3, -5, -1, -22
1503514058187,-0.435,-0.139,-0.523,-0.720,+0.895,-0.251,-0.362,+15.375,-10.062,+11.562,-1, 0, 0, 1, 2, 3, -1, -4
1503514058215,-0.435,-0.134,-0.523,-0.720,+0.889,-0.260,-0.376,+15.438,-12.562,+13.938,1, -1, -3, -2, -3, -2, 1, 7
1503514058238,-0.436,-0.129,-0.523,-0.721,+0.903,-0.284,-0.384,+17.312,-15.312,+17.062,-8, -2, -2, -6, -6, -4, 2, -2
1503514058246,-0.437,-0.124,-0.523,-0.721,+0.900,-0.297,-0.384,+16.188,-16.688,+17.938,1, -1, -2, 3, 5, 4, 2, -8
1503514058268,-0.438,-0.120,-0.523,-0.722,+0.870,-0.283,-0.374,+15.188,-15.125,+18.000,-4, -3, -3, -1, -1, -5, -5, -1
1503514058290,-0.439,-0.115,-0.523,-0.722,+0.863,-0.282,-0.384,+19.062,-11.000,+18.062,-2, -6, 0, 3, 1, 1, -1, 9
1503514058306,-0.439,-0.110,-0.525,-0.721,+0.862,-0.322,-0.386,+23.312,-4.375,+18.750,14, 1, -2, 7, 6, -2, 3, 10
1503514058329,-0.440,-0.104,-0.527,-0.720,+0.900,-0.350,-0.365,+21.875,-2.188,+21.000,-5, -1, -1, 3, 3, 3, -2, -14
1503514058350,-0.441,-0.100,-0.528,-0.719,+0.918,-0.329,-0.356,+18.750,-7.312,+24.375,0, 3, 3, -3, -4, -4, -3, -10
1503514058366,-0.441,-0.094,-0.529,-0.719,+0.903,-0.307,-0.371,+22.000,-13.000,+24.250,2, -1, 2, -5, -1, 0, -1, -5
1503514058388,-0.441,-0.088,-0.530,-0.719,+0.849,-0.321,-0.390,+28.812,-13.250,+20.500,-7, -4, -5, -5, -5, -3, -4, -37
1503514058410,-0.441,-0.080,-0.531,-0.719,+0.833,-0.363,-0.403,+32.125,-12.938,+21.250,-5, 0, 1, -4, -2, 3, 0, 5
1503514058428,-0.442,-0.073,-0.532,-0.719,+0.843,-0.378,-0.395,+31.375,-10.188,+27.625,14, 3, -4, -4, -11, -17, -2, 2
1503514058448,-0.442,-0.066,-0.534,-0.718,+0.870,-0.370,-0.366,+31.062,-8.938,+27.812,-9, -1, 2, -2, 2, 3, 0, 10
1503514061410,-0.249,-0.098,-0.643,-0.718,+0.989,-0.115,-0.110,+2.750,-9.062,-13.688,0, -2, -3, 2, 2, 0, -2, 3
1503514061432,-0.247,-0.099,-0.642,-0.719,+1.010,-0.147,-0.117,+2.562,-10.938,-10.688,6, 25, 9, 3, 2, -1, 0, 6
1503514061448,-0.246,-0.099,-0.641,-0.721,+0.983,-0.157,-0.124,-2.875,-6.312,-7.875,-13, -13, 3, 6, 1, 0, -1, -2
1503514061469,-0.245,-0.101,-0.639,-0.722,+0.949,-0.136,-0.141,-4.938,-7.312,-10.438,-12, -9, -5, -3, -1, -1, 1, 4
1503514061492,-0.244,-0.103,-0.637,-0.724,+0.988,-0.128,-0.126,-4.312,-15.812,-15.625,2, -5, -4, -6, -8, 1, -3, 1
1503514061519,-0.243,-0.103,-0.635,-0.727,+1.037,-0.167,-0.126,-2.062,-16.062,-9.875,-1, 2, 6, 1, -3, -4, 0, 0
1503514061529,-0.244,-0.103,-0.633,-0.728,+1.000,-0.184,-0.119,-7.250,-13.438,+0.062,2, -4, -7, -4, -5, -5, 2, 12
1503514061552,-0.245,-0.104,-0.630,-0.729,+0.996,-0.167,-0.112,-8.500,-18.562,-2.625,1, 0, 4, -2, 0, 2, 0, -3
1503514061581,-0.244,-0.105,-0.628,-0.732,+1.012,-0.172,-0.127,-5.125,-16.938,-11.250,-17, -6, -4, -10, -12, -6, -1, -12
1503514061590,-0.243,-0.106,-0.626,-0.733,+0.999,-0.173,-0.135,-6.062,-12.188,-13.688,1, -1, -6, -3, -5, -23, -2, -2
1503514061614,-0.243,-0.107,-0.623,-0.735,+0.963,-0.163,-0.133,-10.625,-19.500,-11.625,1, -2, 2, -5, -10, -6, -4, -1
1503514061634,-0.243,-0.110,-0.619,-0.739,+0.990,-0.142,-0.132,-13.625,-27.500,-18.688,-2, -4, -2, -6, -7, -6, -2, -10
1503514061651,-0.240,-0.113,-0.616,-0.742,+0.989,-0.115,-0.144,-12.562,-24.875,-28.312,2, -1, -5, -4, 0, 3, -1, 3
1503514061672,-0.239,-0.117,-0.612,-0.745,+0.957,-0.099,-0.160,-11.062,-19.125,-24.688,3, 2, 0, -1, -4, -3, -2, -4
1503514061694,-0.239,-0.119,-0.609,-0.747,+0.962,-0.083,-0.180,-16.812,-20.938,-11.562,1, -2, -1, 2, -5, -1, -1, 1
1503514061712,-0.240,-0.123,-0.605,-0.749,+0.971,-0.056,-0.200,-22.562,-17.312,-8.312,-6, -2, 1, 5, 4, 1, 0, -2
1503514061733,-0.239,-0.126,-0.602,-0.751,+0.959,-0.051,-0.198,-14.500,-14.312,-21.750,21, 5, -4, 3, 7, -1, 0, 25
1503514061755,-0.236,-0.130,-0.600,-0.753,+0.958,-0.070,-0.202,-8.062,-11.375,-24.688,15, 2, -5, -8, -6, -5, 1, 10
1503514061769,-0.236,-0.132,-0.597,-0.756,+0.989,-0.071,-0.199,-12.562,-19.312,-14.938,-11, -3, 3, -2, -1, 1, -3, -18
1503514061792,-0.236,-0.134,-0.593,-0.758,+1.004,-0.058,-0.225,-15.000,-22.188,-11.812,-2, -15, -1, 0, -2, -1, -1, -1
1503514061817,-0.235,-0.136,-0.589,-0.761,+0.969,-0.056,-0.251,-9.625,-19.188,-16.312,-2, -17, -12, -2, -1, 0, 0, 11
1503514061829,-0.234,-0.138,-0.586,-0.763,+0.928,-0.069,-0.271,-4.438,-14.500,-17.562,-10, 9, 9, 2, 1, 2, -1, 5
1503514061853,-0.233,-0.139,-0.583,-0.766,+0.962,-0.067,-0.239,-8.625,-20.750,-11.812,-5, 0, -1, 1, -3, -3, -6, -8
1503514061874,-0.233,-0.141,-0.580,-0.768,+0.998,-0.020,-0.214,-13.250,-23.188,-12.375,-1, 6, 5, 2, 8, -1, -4, -13
1503514061889,-0.231,-0.143,-0.576,-0.771,+0.971,+0.021,-0.265,-4.625,-17.312,-16.625,-2, -1, -1, 0, -1, 1, 2, 7
1503514061912,-0.229,-0.144,-0.574,-0.773,+0.935,+0.005,-0.278,+2.062,-14.000,-12.875,-10, -7, -9, 1, 2, 0, 0, 4
1503514061935,-0.229,-0.144,-0.571,-0.775,+0.952,-0.024,-0.246,-4.438,-17.688,-6.938,-41, -17, -1, 2, 1, 2, -2, -44
1503514061950,-0.229,-0.146,-0.570,-0.776,+1.001,-0.023,-0.212,-11.188,-12.000,-5.625,47, 27, 0, -2, -2, -3, -2, 9
1503514061972,-0.229,-0.148,-0.569,-0.776,+0.994,-0.004,-0.243,-8.875,-5.188,-3.500,-17, 1, 12, 2, 1, 0, 2, -3
1503514061988,-0.230,-0.148,-0.567,-0.777,+0.948,-0.005,-0.299,-7.688,-6.250,-0.062,5, 4, -4, -2, 0, 0, 2, 3
1503514062013,-0.231,-0.149,-0.565,-0.778,+0.937,-0.030,-0.273,-8.875,-11.000,-0.125,6, -1, -3, -1, -3, 0, 1, 5
1503514062032,-0.232,-0.150,-0.564,-0.778,+0.985,-0.052,-0.248,-11.125,-10.375,-0.750,2, -2, -1, -3, -1, -3, -2, 16
1503514062055,-0.234,-0.151,-0.563,-0.778,+0.987,-0.045,-0.252,-12.500,-5.812,+1.500,3, 6, 11, 3, -3, 1, 1, 0
1503514062080,-0.235,-0.152,-0.562,-0.779,+0.935,-0.024,-0.285,-12.125,-6.188,+2.312,0, 11, -4, -5, -1, 9, -2, -9
1503514062092,-0.236,-0.153,-0.560,-0.779,+0.916,-0.016,-0.287,-10.438,-6.875,+0.250,-13, -12, -6, -3, -1, -3, -5, -15
1503514062107,-0.237,-0.153,-0.560,-0.779,+0.953,-0.043,-0.277,-6.812,-0.688,+3.125,-7, -6, -1, -4, -3, -1, 2, -14
1503514062129,-0.239,-0.153,-0.560,-0.779,+1.012,-0.063,-0.275,-6.875,-2.375,+7.875,-8, -6, -6, -1, 0, -3, 3, 1
1503514062153,-0.241,-0.153,-0.558,-0.779,+0.998,-0.041,-0.249,-11.500,-14.438,+5.375,-4, -2, 5, 2, 0, -2, -1, 3
1503514062174,-0.242,-0.154,-0.555,-0.781,+0.963,-0.009,-0.258,-12.188,-21.938,-2.375,2, -7, -5, 0, 0, 0, 0, 3
1503514062192,-0.243,-0.155,-0.552,-0.782,+0.905,+0.005,-0.304,-8.188,-15.125,-3.125,2, -1, -2, -5, -4, -2, 2, 10
1503514062214,-0.244,-0.155,-0.550,-0.784,+0.916,-0.015,-0.315,-6.250,-12.750,+2.625,-4, 6, 8, 2, 1, 2, 3, -3
1503514062234,-0.246,-0.155,-0.549,-0.784,+0.961,-0.033,-0.286,-10.000,-12.312,+6.000,2, -10, -7, 0, 0, -2, -3, -3
1503514062252,-0.247,-0.155,-0.548,-0.784,+0.966,-0.038,-0.274,-10.938,-7.250,+4.875,3, 6, 0, -3, -4, -3, -5, -1
1503514062272,-0.249,-0.156,-0.547,-0.784,+0.952,-0.005,-0.319,-9.625,-4.688,+6.250,0, 10, 10, 9, 6, 1, 1, 5
1503514062288,-0.251,-0.156,-0.545,-0.785,+0.944,+0.003,-0.352,-8.938,-10.000,+11.188,-6, 0, 0, 3, 2, -1, -1, 1
1503514062310,-0.254,-0.155,-0.543,-0.786,+0.958,-0.024,-0.315,-8.688,-15.625,+12.125,4, -9, -8, -3, -3, -2, -4, -15
1503514062332,-0.256,-0.154,-0.542,-0.786,+0.972,-0.057,-0.292,-7.688,-12.500,+10.312,16, 5, 0, -3, 0, -1, -1, 15
1503514062361,-0.259,-0.153,-0.540,-0.786,+0.967,-0.048,-0.338,-6.500,-8.125,+13.062,5, 3, 3, 4, 0, 3, 0, 20
1503514062370,-0.262,-0.152,-0.539,-0.786,+0.953,-0.027,-0.371,-5.438,-10.125,+17.188,-2, -4, -2, -1, -1, 0, 2, 15
1503514062392,-0.264,-0.150,-0.537,-0.787,+0.943,-0.022,-0.354,-2.812,-12.312,+14.438,-16, -6, -3, -3, -3, -3, 2, -8
1503514062407,-0.265,-0.149,-0.536,-0.788,+0.926,-0.034,-0.323,+0.500,-10.875,+7.062,-24, -4, -6, -5, -4, -4, -8, -33
1503514062429,-0.265,-0.148,-0.535,-0.788,+0.904,-0.046,-0.329,+2.375,-10.250,+4.250,-2, 1, 1, 0, 1, 2, 0, -11
1503514062452,-0.266,-0.147,-0.534,-0.789,+0.900,-0.053,-0.343,+0.375,-10.188,+5.312,14, 2, 0, -1, -1, -1, -4, -8
1503514062467,-0.267,-0.146,-0.532,-0.790,+0.896,-0.040,-0.331,-2.312,-10.125,+3.438,28, 11, 0, -3, -3, -4, -4, 4
1503514062491,-0.267,-0.147,-0.531,-0.791,+0.877,-0.034,-0.305,-3.125,-9.688,-3.812,-26, -8, 6, 4, 2, 0, -1, -42
1503514067334,-0.282,-0.151,-0.454,-0.832,+0.833,-0.097,-0.468,-6.562,+1.500,-15.625,17, -10, -20, -7, -3, 0, 1, 21
1503514067358,-0.282,-0.151,-0.454,-0.832,+0.852,-0.109,-0.456,-5.750,-3.438,-9.812,-4, -11, -8, -10, -26, -11, -1, -11
1503514067372,-0.281,-0.151,-0.453,-0.832,+0.850,-0.093,-0.444,-5.938,-6.938,-8.250,2, -1, -7, -5, -4, 1, 4, 10
1503514067394,-0.280,-0.152,-0.453,-0.833,+0.858,-0.052,-0.456,-4.000,-3.812,-10.375,22, 46, 50, 23, 13, 2, -1, -15
1503514067417,-0.279,-0.152,-0.452,-0.833,+0.855,-0.036,-0.497,-0.562,-2.438,-9.438,17, -3, 3, 1, 10, 2, -1, 7
1503514067432,-0.279,-0.151,-0.451,-0.834,+0.838,-0.024,-0.506,+2.438,-7.125,-4.938,8, 2, -9, -20, -24, -8, -2, 6
1503514067461,-0.277,-0.150,-0.451,-0.835,+0.833,-0.032,-0.461,+5.000,-3.625,-6.562,0, 5, 2, -8, -9, 2, 0, 6
1503514067477,-0.275,-0.150,-0.452,-0.835,+0.890,-0.015,-0.477,+6.875,+4.125,-10.062,-27, -17, -12, -1, -4, -4, -5, -25
1503514067493,-0.272,-0.150,-0.453,-0.836,+0.902,+0.045,-0.508,+7.875,+1.438,-12.000,8, -3, -7, -7, -9, -4, 1, -4
1503514067517,-0.269,-0.149,-0.452,-0.837,+0.869,+0.033,-0.509,+12.000,-7.312,-13.688,11, 16, 15, 0, -1, -2, -2, -3
1503514067540,-0.267,-0.148,-0.452,-0.838,+0.896,-0.005,-0.500,+13.562,-3.438,-12.500,18, 9, 8, 17, 25, 10, 2, 34
1503514067555,-0.264,-0.147,-0.453,-0.839,+0.921,+0.024,-0.505,+12.875,+0.938,-6.438,-6, 3, -4, -11, -11, 0, 6, 6
1503514067574,-0.263,-0.146,-0.453,-0.839,+0.922,+0.063,-0.521,+10.312,-4.688,-0.562,0, -7, -2, 4, 3, 1, 6, -8
1503514067597,-0.262,-0.144,-0.450,-0.841,+0.885,+0.046,-0.515,+9.062,-19.250,-6.250,-1, -12, 1, -6, -7, -5, -4, -4
1503514067612,-0.260,-0.143,-0.447,-0.844,+0.884,+0.036,-0.466,+6.375,-27.125,-6.312,-1, -3, -7, -1, 5, 4, -3, -2
1503514067634,-0.261,-0.141,-0.445,-0.845,+0.864,+0.031,-0.491,+6.938,-17.000,+5.750,6, 17, 3, 0, -12, -3, -1, -9
1503514067657,-0.262,-0.139,-0.445,-0.845,+0.823,+0.023,-0.515,+6.812,-3.625,+14.250,2, -1, -1, -7, -13, -9, -8, 0
1503514067672,-0.263,-0.137,-0.446,-0.844,+0.830,+0.004,-0.529,+7.062,+2.438,+13.250,-1, -5, -7, -4, 0, 2, 6, 10
1503514067694,-0.264,-0.135,-0.447,-0.844,+0.868,-0.021,-0.508,+7.500,-2.188,+9.062,-2, 0, -9, -3, 2, -7, -4, -1
1503514067719,-0.265,-0.132,-0.447,-0.844,+0.891,-0.052,-0.508,+7.250,-8.312,+10.500,8, -1, -6, -6, -9, -5, 1, 4
1503514067732,-0.268,-0.130,-0.447,-0.844,+0.843,-0.051,-0.537,+2.000,-3.312,+18.500,-13, -26, -14, 3, 11, 1, -4, -15
1503514067754,-0.271,-0.127,-0.447,-0.843,+0.796,-0.003,-0.531,+2.875,-3.688,+21.812,3, -7, -2, -9, -15, -6, 1, 20
1503514067777,-0.272,-0.124,-0.446,-0.844,+0.823,+0.008,-0.531,+10.750,-6.000,+16.312,-3, 10, 13, 17, 19, 3, -1, -15
1503514067795,-0.273,-0.121,-0.446,-0.844,+0.841,-0.027,-0.521,+12.562,-6.875,+15.062,14, 24, 9, 2, -4, -2, -3, 4
1503514067814,-0.275,-0.117,-0.446,-0.843,+0.835,-0.063,-0.516,+10.438,-7.188,+20.500,-21, 0, -15, -11, -11, -7, 3, 6
1503514067837,-0.278,-0.114,-0.446,-0.843,+0.815,-0.072,-0.497,+9.500,-9.875,+21.125,-1, 1, 1, -5, -2, 0, -1, -4
1503514067853,-0.279,-0.112,-0.445,-0.844,+0.823,-0.042,-0.504,+2.062,-8.812,+8.938,1, -3, -6, -13, -20, -7, -1, -12
1503514067874,-0.279,-0.113,-0.444,-0.844,+0.821,+0.040,-0.500,-1.688,-8.750,+2.125,2, -5, 16, 9, -2, 0, 6, 14
1503514067897,-0.279,-0.112,-0.443,-0.845,+0.833,+0.016,-0.541,+0.750,-9.812,+7.875,8, -4, -11, 7, 12, 7, 3, -8
1503514067912,-0.282,-0.112,-0.442,-0.844,+0.836,-0.017,-0.565,-5.250,-1.625,+17.562,23, 14, -1, -12, -3, -6, -4, 1
1503514067936,-0.285,-0.113,-0.442,-0.843,+0.824,+0.029,-0.553,-11.000,+4.188,+18.438,-6, 3, 10, 16, 15, 3, -11, -14
1503514067957,-0.287,-0.114,-0.442,-0.842,+0.821,+0.026,-0.565,-6.625,+2.688,+13.625,13, 5, 3, 7, 13, 3, -4, 10
1503514067972,-0.289,-0.113,-0.442,-0.842,+0.828,-0.056,-0.543,-6.938,-1.312,+14.375,-3, -9, -4, -10, -17, -8, 6, 0
1503514067995,-0.293,-0.114,-0.442,-0.840,+0.848,-0.075,-0.537,-17.125,+0.438,+17.250,-19, -4, 3, 5, 6, 9, -9, -36
1503514068017,-0.296,-0.117,-0.441,-0.839,+0.828,-0.022,-0.536,-20.625,+2.438,+16.062,-12, 10, -1, -2, -6, -6, -10, -27
1503514068032,-0.299,-0.118,-0.440,-0.839,+0.828,-0.021,-0.550,-18.625,-3.062,+12.250,14, 7, -9, -7, -10, -4, 2, 20
1503514068055,-0.302,-0.119,-0.438,-0.839,+0.841,-0.080,-0.548,-17.938,-12.688,+11.750,19, 12, 3, -3, -8, -2, 2, 18
1503514068078,-0.306,-0.120,-0.435,-0.839,+0.836,-0.090,-0.542,-22.250,-16.875,+14.625,6, 2, -1, 2, -3, -5, 1, 20
1503514068093,-0.310,-0.122,-0.431,-0.839,+0.791,-0.076,-0.531,-25.625,-16.438,+11.812,7, -1, -1, -1, -3, -4, 0, 28
1503514068115,-0.313,-0.124,-0.429,-0.838,+0.787,-0.054,-0.531,-23.625,-10.062,+7.500,10, 9, 6, 5, 3, -1, 1, -7
1503514068138,-0.316,-0.124,-0.428,-0.838,+0.808,-0.077,-0.568,-16.000,-4.625,+13.062,18, 2, -2, -9, -16, -11, -2, 0
1503514068154,-0.320,-0.124,-0.427,-0.837,+0.828,-0.128,-0.558,-13.125,-3.438,+17.188,-3, 4, 8, 7, 10, -15, -4, 5
1503514068174,-0.323,-0.125,-0.428,-0.835,+0.819,-0.122,-0.523,-14.750,+2.000,+13.812,-3, -5, -8, 1, -5, 2, -1, 4
1503514068197,-0.325,-0.125,-0.429,-0.834,+0.826,-0.075,-0.525,-9.625,+6.000,+12.000,1, 14, -1, 0, -4, -8, -4, -16
1503514072036,-0.384,-0.219,-0.527,-0.726,+0.930,-0.081,-0.309,+2.875,+13.625,+9.562,-3, 8, 0, 1, 0, -1, -7, -18
1503514072059,-0.384,-0.218,-0.528,-0.725,+0.933,-0.089,-0.309,+4.625,+6.688,+8.250,3, -7, -2, -5, -4, -3, -2, 4
1503514072075,-0.384,-0.217,-0.528,-0.726,+0.935,-0.099,-0.302,+5.312,-1.562,+0.250,-15, -5, 2, 0, 2, -1, -5, 1
1503514072096,-0.382,-0.216,-0.528,-0.727,+0.913,-0.080,-0.276,+5.938,-2.938,-9.875,-1, -8, 0, -7, -10, -3, 4, 17
1503514072120,-0.380,-0.217,-0.529,-0.727,+0.883,-0.059,-0.268,+4.688,+4.750,-8.562,16, -3, -3, 2, -1, -1, 1, 23
1503514072135,-0.379,-0.218,-0.530,-0.726,+0.885,-0.073,-0.298,+0.812,+14.625,-1.062,-5, -1, 0, 2, 2, 0, 1, -10
1503514072158,-0.379,-0.219,-0.533,-0.725,+0.935,-0.093,-0.335,+1.000,+22.000,+1.875,-23, -9, 1, 4, -3, 0, -2, -1
1503514072179,-0.377,-0.219,-0.534,-0.724,+0.976,-0.096,-0.301,+5.375,+11.375,-3.562,-9, -2, 4, 0, -3, -3, -7, -10
1503514072202,-0.376,-0.219,-0.535,-0.725,+0.991,-0.091,-0.252,+5.562,-3.562,-8.000,-8, -12, -6, -5, 0, 2, 3, 8
1503514072218,-0.375,-0.218,-0.534,-0.726,+0.932,-0.073,-0.259,+0.000,-8.375,-5.500,4, 6, 3, 5, 3, 2, 2, -4
1503514072239,-0.375,-0.218,-0.532,-0.727,+0.919,-0.092,-0.293,+0.125,-12.000,-2.125,-8, -9, -1, 4, 14, 5, 2, -10
1503514072255,-0.375,-0.217,-0.530,-0.729,+0.941,-0.121,-0.313,-0.500,-11.125,-5.062,-3, -1, -4, -11, -13, 0, -3, -5
1503514072276,-0.374,-0.217,-0.529,-0.730,+0.967,-0.107,-0.260,-2.125,-12.812,-11.750,-12, -2, -7, -19, -23, -10, -5, -7
1503514072307,-0.373,-0.219,-0.527,-0.732,+0.955,-0.064,-0.246,-7.375,-14.250,-14.312,-18, -9, -4, -7, -6, 1, 1, -4
1503514072323,-0.372,-0.220,-0.523,-0.734,+0.934,-0.042,-0.288,-7.438,-17.625,-17.000,-1, 8, 8, 3, 5, 3, 2, -2
1503514072336,-0.370,-0.221,-0.520,-0.737,+0.949,-0.024,-0.337,-4.312,-16.125,-18.875,-16, -4, 3, 0, -3, -6, -5, -6
1503514072360,-0.369,-0.222,-0.517,-0.740,+0.944,-0.021,-0.321,-3.688,-14.625,-17.125,9, 8, 4, 8, 5, 16, 7, -3
1503514072384,-0.368,-0.223,-0.514,-0.742,+0.945,-0.043,-0.313,-5.438,-18.312,-13.625,16, -2, -4, -3, -6, -6, -1, 13
1503514072397,-0.367,-0.224,-0.511,-0.744,+0.965,-0.030,-0.310,-7.875,-18.562,-13.812,-1, -1, 2, 3, 2, -4, -9, 3
1503514072421,-0.367,-0.226,-0.509,-0.745,+0.953,-0.008,-0.325,-7.438,-11.562,-10.750,16, 8, -5, 5, 5, -1, 1, 4
1503514072441,-0.367,-0.227,-0.507,-0.747,+0.930,+0.008,-0.353,-7.625,-11.625,-5.438,2, -7, 2, 8, 8, 8, 4, 6
1503514072457,-0.367,-0.227,-0.504,-0.748,+0.924,-0.000,-0.354,-6.938,-12.938,-5.500,-5, -3, -4, -5, -4, -5, -6, -15
1503514072480,-0.367,-0.228,-0.502,-0.749,+0.939,-0.019,-0.346,-5.625,-9.625,-4.062,12, 6, -2, 0, 5, 3, -5, -15
1503514072495,-0.368,-0.228,-0.502,-0.749,+0.933,-0.020,-0.340,-8.312,-3.750,+5.188,-1, 4, 7, 4, 2, -1, 0, -9
1503514072519,-0.371,-0.228,-0.502,-0.748,+0.900,-0.002,-0.339,-11.562,+2.312,+12.250,-10, -11, -12, -7, -10, -29, -3, -2
1503514072539,-0.372,-0.229,-0.502,-0.746,+0.922,-0.000,-0.350,-9.000,+6.625,+10.000,-7, 1, 0, -2, -4, -11, 0, 12
1503514072555,-0.374,-0.230,-0.503,-0.745,+0.970,-0.043,-0.352,-7.750,+5.562,+10.125,-28, -13, 1, 0, 4, 2, 0, -9
1503514072577,-0.377,-0.229,-0.502,-0.744,+0.992,-0.062,-0.339,-12.062,-5.750,+13.500,-12, -7, -3, 1, 2, 9, 1, -6
1503514072599,-0.380,-0.230,-0.500,-0.744,+0.954,-0.020,-0.326,-16.188,-13.250,+12.312,7, -1, -6, -1, 2, 10, 1, 1
1503514072622,-0.382,-0.230,-0.498,-0.744,+0.914,+0.013,-0.343,-11.562,-9.750,+8.375,-4, -10, -8, -6, 1, -1, 0, 0
1503514072636,-0.383,-0.230,-0.498,-0.743,+0.897,-0.017,-0.385,-6.000,-0.750,+9.062,13, 4, 3, 3, 2, -4, -1, -7
1503514072659,-0.385,-0.230,-0.498,-0.742,+0.918,-0.056,-0.354,-7.250,+3.688,+9.688,-5, -3, 1, -2, 1, 14, -4, -20
1503514072681,-0.386,-0.231,-0.500,-0.740,+0.947,-0.057,-0.333,-8.188,+8.375,+8.938,0, 1, -3, -4, -4, -12, 0, -15
1503514072696,-0.388,-0.231,-0.501,-0.739,+0.969,-0.050,-0.352,-5.688,+7.625,+10.625,-8, 0, -6, 1, 1, 5, 1, -5
1503514072721,-0.389,-0.230,-0.501,-0.738,+0.970,-0.045,-0.349,-5.250,-0.375,+11.312,-4, -2, 0, -5, -2, -4, -3, -7
1503514072735,-0.390,-0.230,-0.500,-0.738,+0.938,-0.048,-0.353,-2.375,-6.438,+5.500,10, -4, -2, 0, -3, -7, -9, 12
1503514072760,-0.391,-0.228,-0.499,-0.739,+0.905,-0.063,-0.346,+1.375,-12.562,-1.562,-10, -4, 2, 8, 6, 0, 0, -11
1503514072779,-0.391,-0.228,-0.497,-0.740,+0.913,-0.066,-0.327,-1.625,-11.375,-2.312,-5, -1, 0, 2, -5, 0, 2, 4
1503514072797,-0.391,-0.228,-0.497,-0.740,+0.905,-0.044,-0.333,-5.562,-3.375,+2.875,-4, -3, -3, -3, -4, 2, 0, -6
1503514072816,-0.392,-0.228,-0.497,-0.740,+0.904,-0.044,-0.348,-3.125,+1.562,+1.062,3, 0, 0, 0, 2, 2, 7, 9
1503514072840,-0.391,-0.229,-0.497,-0.740,+0.948,-0.058,-0.358,-0.688,+1.688,-4.125,-18, -11, -14, -5, 0, 0, -5, -26
1503514072855,-0.391,-0.229,-0.497,-0.740,+0.955,-0.048,-0.354,-2.500,-2.500,-2.438,5, -2, 0, -2, 0, 3, 5, 13
1503514072876,-0.392,-0.228,-0.495,-0.741,+0.944,-0.033,-0.355,-2.250,-12.562,+2.000,1, 4, 2, -5, -3, 8, 0, 1
1503514072899,-0.393,-0.227,-0.493,-0.742,+0.949,-0.053,-0.358,-3.250,-16.062,+5.000,-5, -2, 2, -2, -4, -8, 1, 20
1503514072915,-0.394,-0.226,-0.492,-0.743,+0.932,-0.056,-0.379,-1.938,-11.438,+5.688,13, 5, 4, 5, 3, -3, 2, 22
1503514072936,-0.395,-0.225,-0.491,-0.743,+0.924,-0.062,-0.378,+0.250,-7.312,+7.125,1, 8, -5, -7, -6, -4, 3, 2
1503514072961,-0.397,-0.223,-0.491,-0.743,+0.938,-0.071,-0.366,-0.500,-6.375,+9.750,7, -5, -2, 3, 5, 7, 4, 21
1503514072982,-0.399,-0.221,-0.491,-0.742,+0.981,-0.076,-0.349,-1.562,-8.125,+15.250,2, -1, -4, -5, -11, -24, -7, -24
1503514072997,-0.402,-0.219,-0.491,-0.741,+0.990,-0.082,-0.366,-1.250,-7.188,+22.250,5, -3, -2, 4, 4, 6, -3, -30
1503514073019,-0.405,-0.216,-0.491,-0.740,+0.947,-0.078,-0.412,+1.438,-9.000,+26.250,-3, 6, 5, -3, -4, 0, -1, 0
1503514073041,-0.409,-0.212,-0.491,-0.740,+0.926,-0.090,-0.407,+4.062,-13.625,+29.562,-1, -5, -1, 2, 1, -2, -2, 12
1503514073058,-0.413,-0.208,-0.491,-0.738,+0.931,-0.103,-0.375,+3.062,-12.312,+34.562,0, 28, 25, 9, 3, 2, 1, -3
1503514073079,-0.418,-0.204,-0.492,-0.736,+0.907,-0.089,-0.380,+1.125,-1.188,+42.250,0, -4, -4, -3, -4, -7, 0, 19
1503514073101,-0.423,-0.200,-0.494,-0.733,+0.878,-0.084,-0.416,+5.438,+4.500,+45.562,-3, -5, -3, -2, 1, 3, -5, -11
1503514073117,-0.428,-0.195,-0.497,-0.730,+0.888,-0.109,-0.442,+10.375,+3.500,+45.625,5, 2, 1, 9, 8, 2, -2, 3
1503514073139,-0.432,-0.190,-0.499,-0.727,+0.888,-0.143,-0.426,+13.312,+7.188,+45.438,2, -10, -12, -5, -4, 0, -3, -5
1503514073161,-0.436,-0.185,-0.503,-0.724,+0.865,-0.141,-0.384,+14.062,+7.875,+43.562,-5, 3, 7, 0, 0, 1, 0, 2
1503514073177,-0.439,-0.180,-0.505,-0.721,+0.880,-0.139,-0.395,+16.000,+4.688,+41.438,-6, -8, -6, 7, 8, 1, 8, 2
1503514073199,-0.442,-0.174,-0.508,-0.719,+0.905,-0.175,-0.382,+17.938,-1.875,+39.500,-2, -5, -5, -7, -3, 5, 1, 0
1503514073224,-0.445,-0.168,-0.509,-0.717,+0.873,-0.208,-0.400,+18.438,-7.000,+36.500,-1, -4, -3, -3, -3, 0, 2, 8
1503514073237,-0.448,-0.161,-0.511,-0.716,+0.827,-0.220,-0.375,+20.938,-7.938,+33.938,-7, -4, -3, -3, 4, 1, -2, -22
1503514073261,-0.449,-0.156,-0.512,-0.716,+0.820,-0.222,-0.404,+21.562,-4.375,+25.750,2, -3, -2, -5, -9, -10, -3, 27
1503514073281,-0.450,-0.151,-0.513,-0.715,+0.846,-0.226,-0.377,+21.000,-5.125,+21.812,6, -1, 5, 4, 4, 0, -4, 3
1503514073297,-0.450,-0.146,-0.515,-0.714,+0.865,-0.249,-0.360,+21.750,-4.250,+19.750,-1, 0, 4, -3, -2, -5, 1, 6
1503514073319,-0.450,-0.142,-0.517,-0.714,+0.845,-0.252,-0.385,+22.688,+0.438,+16.812,-5, -8, -5, -1, 0, 3, -3, -9
1503514073341,-0.449,-0.138,-0.519,-0.714,+0.862,-0.251,-0.384,+24.062,-0.562,+10.562,1, 3, -1, -1, -5, -1, 2, 8
1503514073359,-0.448,-0.133,-0.520,-0.715,+0.888,-0.270,-0.376,+24.500,-9.562,+5.625,30, 6, 2, 4, 2, 2, 2, 32
1503514073379,-0.446,-0.128,-0.520,-0.717,+0.886,-0.293,-0.377,+24.562,-20.250,+3.438,-3, 9, 14, 7, -3, -5, -5, -5
1503514073401,-0.445,-0.123,-0.519,-0.719,+0.857,-0.302,-0.375,+26.000,-25.500,+2.688,-4, -4, -5, -7, -9, -4, -2, -1
1503514073417,-0.443,-0.117,-0.519,-0.722,+0.855,-0.298,-0.361,+25.375,-22.125,+1.938,-10, -6, -3, 3, 3, 2, 4, -12
1503514073439,-0.442,-0.113,-0.519,-0.723,+0.864,-0.278,-0.346,+21.938,-16.562,+1.688,-16, -5, -6, -4, -2, -1, 0, -23
1503514073463,-0.440,-0.110,-0.519,-0.724,+0.880,-0.301,-0.364,+21.438,-9.812,+3.625,7, -2, -4, -5, -13, -29, -4, -12
1503514073477,-0.439,-0.105,-0.521,-0.725,+0.881,-0.344,-0.397,+24.500,-7.938,+4.000,0, -7, -6, -2, 2, 7, 1, 0
1503514073500,-0.437,-0.101,-0.522,-0.726,+0.883,-0.348,-0.375,+23.062,-8.438,+1.875,5, 0, -2, -1, 6, 3, 0, 14
1503514073521,-0.435,-0.098,-0.523,-0.727,+0.903,-0.315,-0.338,+20.062,-10.000,+0.812,-11, -6, -2, 1, 11, -5, 2, 0
1503514073537,-0.433,-0.095,-0.524,-0.727,+0.901,-0.308,-0.346,+19.688,-9.062,+3.188,-7, -9, -9, -5, 1, 2, 6, 37
1503514073561,-0.432,-0.091,-0.524,-0.728,+0.878,-0.332,-0.391,+22.625,-9.062,+4.500,14, 1, -6, -1, -6, -4, 0, 16
1503514073581,-0.430,-0.086,-0.526,-0.729,+0.863,-0.349,-0.404,+23.438,-6.500,+5.688,-5, -4, -5, 0, 0, 6, -1, -12
1503514073604,-0.429,-0.083,-0.527,-0.729,+0.876,-0.326,-0.371,+19.000,-4.438,+7.188,-14, -5, 2, 2, -6, -22, -7, -14
1503514073619,-0.428,-0.081,-0.528,-0.729,+0.879,-0.298,-0.355,+17.688,-2.500,+7.438,-9, 4, 4, -3, -11, 2, 0, -4
1503514073641,-0.427,-0.077,-0.530,-0.729,+0.881,-0.316,-0.364,+20.688,-2.188,+8.312,3, -1, -5, -4, 3, 7, 0, -4
1503514073657,-0.426,-0.074,-0.531,-0.728,+0.850,-0.345,-0.401,+19.938,+0.375,+9.875,7, 9, 7, 0, 0, -5, 3, 2
1503514073679,-0.426,-0.071,-0.533,-0.728,+0.856,-0.354,-0.365,+15.750,+0.125,+10.688,-7, -12, -9, 0, 4, 5, -2, -14
1503514073703,-0.426,-0.068,-0.534,-0.727,+0.870,-0.331,-0.369,+14.688,+0.562,+9.438,0, -1, -1, 3, 6, 3, 5, 4
1503514073717,-0.425,-0.065,-0.535,-0.727,+0.880,-0.329,-0.366,+15.500,-3.062,+10.312,4, 0, 3, 4, 8, 5, 4, 7
1503514073739,-0.425,-0.062,-0.536,-0.727,+0.859,-0.338,-0.369,+14.312,-6.000,+11.750,9, 1, -5, -7, -7, -3, -3, 7
1503514073763,-0.425,-0.059,-0.536,-0.727,+0.829,-0.348,-0.381,+14.812,-3.812,+10.750,-9, -2, 2, 1, 0, 3, -1, 19
1503514073777,-0.424,-0.056,-0.538,-0.727,+0.828,-0.352,-0.363,+17.250,-0.688,+8.375,1, -2, 2, 5, 13, 1, -4, 15
1503514073800,-0.423,-0.053,-0.539,-0.726,+0.867,-0.362,-0.376,+17.375,+2.188,+9.188,0, -1, -7, -14, -16, -8, -7, -26
1503514073821,-0.424,-0.050,-0.540,-0.726,+0.876,-0.363,-0.399,+15.750,-2.438,+15.250,-10, -5, -3, -6, -5, -4, -8, -12
1503514073837,-0.424,-0.046,-0.540,-0.726,+0.849,-0.377,-0.379,+18.125,-8.312,+15.188,3, 3, 3, 4, 4, 3, 5, 4
1503514073862,-0.423,-0.041,-0.541,-0.726,+0.827,-0.393,-0.379,+23.375,-7.750,+11.125,-8, -4, 2, 8, 2, 4, 2, -9
1503514073881,-0.422,-0.037,-0.542,-0.726,+0.812,-0.403,-0.373,+24.062,-4.125,+11.750,-5, 1, 0, -7, -7, -3, 1, -12
1503514073898,-0.422,-0.032,-0.544,-0.725,+0.838,-0.408,-0.384,+24.312,-0.625,+15.812,-3, -1, -1, 7, 5, -5, 3, 4
1503514073919,-0.421,-0.027,-0.546,-0.724,+0.856,-0.407,-0.389,+24.875,-0.562,+18.250,2, -4, -2, -1, 0, 2, 3, 14
1503514073942,-0.421,-0.022,-0.547,-0.724,+0.854,-0.403,-0.369,+26.000,-7.938,+17.375,9, 3, 1, -1, 2, 3, -6, -24
1503514073957,-0.420,-0.016,-0.547,-0.724,+0.830,-0.411,-0.364,+28.000,-14.375,+16.500,-7, -5, -3, 0, -3, -3, -3, -13
1503514077280,-0.399,-0.229,-0.570,-0.681,+0.928,-0.144,-0.241,+1.062,-13.312,-19.375,2, -6, -1, 0, -1, -2, 1, 4
1503514077303,-0.397,-0.229,-0.568,-0.684,+0.909,-0.157,-0.206,+2.688,-14.750,-17.250,-7, -12, -15, -5, -1, 1, 2, 2
1503514077324,-0.395,-0.230,-0.567,-0.686,+0.905,-0.157,-0.178,+5.438,-6.125,-22.562,-14, -11, -3, -6, -4, -5, -1, -3
1503514077339,-0.391,-0.232,-0.567,-0.687,+0.944,-0.123,-0.202,+5.250,+5.312,-22.875,-3, -2, 0, -6, -7, -4, -3, -4
1503514077362,-0.389,-0.233,-0.567,-0.688,+0.962,-0.129,-0.216,+2.812,+4.250,-16.312,-9, -9, -2, 4, 0, 2, 1, -4
1503514077388,-0.388,-0.234,-0.567,-0.688,+0.988,-0.162,-0.177,-4.312,+1.125,-9.812,10, 11, 11, 2, 4, -2, 0, 3
1503514077399,-0.387,-0.236,-0.566,-0.688,+0.996,-0.138,-0.148,-9.812,-1.188,-12.875,-4, 0, -1, 0, 11, 14, -2, -2
1503514077422,-0.386,-0.239,-0.565,-0.689,+0.997,-0.066,-0.177,-11.062,-0.750,-13.000,5, 2, -2, -8, -8, 0, -2, 6
1503514077444,-0.386,-0.242,-0.563,-0.690,+0.979,-0.026,-0.214,-11.000,-3.812,-9.625,-1, -10, -7, -2, -2, -7, 0, -2
1503514077462,-0.386,-0.243,-0.560,-0.691,+0.996,-0.052,-0.232,-10.438,-9.250,-10.125,5, 0, -2, -1, -1, -2, 0, 2
1503514077483,-0.386,-0.245,-0.557,-0.693,+1.005,-0.080,-0.216,-12.000,-15.500,-12.438,-5, 5, 4, 1, -6, -1, 0, -1
1503514077504,-0.385,-0.247,-0.554,-0.696,+0.992,-0.067,-0.181,-10.625,-19.312,-15.688,-4, -5, -3, -1, 2, -3, -2, -13
1503514077526,-0.384,-0.248,-0.551,-0.698,+0.966,-0.029,-0.213,-7.438,-16.625,-16.125,-4, 2, 4, 0, -2, 1, 2, 0
1503514077541,-0.383,-0.249,-0.547,-0.701,+0.957,-0.028,-0.270,-3.000,-17.812,-17.625,-8, -5, -4, 5, 8, -1, -2, -1
1503514077564,-0.381,-0.250,-0.544,-0.704,+0.970,-0.065,-0.250,-2.438,-18.438,-20.562,3, -2, -5, -4, -6, -1, -1, 1
1503514077588,-0.379,-0.251,-0.541,-0.707,+0.986,-0.098,-0.217,-2.938,-16.250,-27.812,0, -4, -2, -7, -4, -6, -7, -12
1503514077601,-0.377,-0.253,-0.538,-0.710,+1.013,-0.061,-0.225,-7.375,-13.688,-22.938,-1, 15, 19, 3, -4, 0, 3, 8
1503514077624,-0.377,-0.255,-0.536,-0.711,+0.975,+0.016,-0.290,-7.688,-6.312,-12.125,-5, -12, -16, -12, -6, -1, -3, -7
1503514077646,-0.375,-0.256,-0.534,-0.714,+0.943,+0.013,-0.311,+0.375,-10.312,-12.000,-13, -4, -1, -5, -5, -3, -1, 3
1503514077662,-0.373,-0.255,-0.531,-0.716,+0.983,-0.044,-0.261,+5.938,-15.812,-19.812,0, -3, -3, 0, -1, -1, -1, 1
1503514077684,-0.371,-0.255,-0.529,-0.719,+1.021,-0.084,-0.232,+7.625,-18.688,-20.812,-4, -2, 0, 6, 3, 2, 0, -1
1503514077706,-0.370,-0.254,-0.526,-0.722,+0.995,-0.062,-0.271,+0.312,-23.438,-12.688,-2, 1, 7, -2, -7, -3, 0, 2
1503514077722,-0.370,-0.254,-0.522,-0.726,+0.935,+0.003,-0.277,-3.188,-28.625,-11.625,3, 7, 2, 3, 4, 3, 0, 4
1503514077744,-0.368,-0.253,-0.518,-0.730,+0.909,+0.030,-0.308,+5.188,-28.062,-17.438,-4, -5, -7, -5, -6, -2, -1, -7
1503514077760,-0.366,-0.251,-0.515,-0.733,+0.927,-0.023,-0.268,+11.000,-21.688,-17.500,0, -4, -4, -4, -6, -4, -1, 3
1503514077781,-0.365,-0.250,-0.514,-0.735,+0.945,-0.054,-0.269,+6.625,-15.875,-9.250,-7, -1, -2, -6, -5, -1, -2, -14
1503514077804,-0.365,-0.249,-0.512,-0.737,+0.960,-0.026,-0.304,+1.625,-15.500,-6.125,1, -14, -10, -3, 0, -1, 1, 9
1503514077823,-0.364,-0.249,-0.509,-0.739,+0.942,+0.019,-0.316,-1.125,-21.125,-8.812,2, 6, 5, 2, -2, 0, 1, -4
1503514077841,-0.364,-0.248,-0.505,-0.742,+0.929,+0.030,-0.297,-0.312,-27.500,-6.562,-2, 3, 5, 12, 4, -16, -2, -2
1503514077864,-0.366,-0.247,-0.502,-0.744,+0.951,+0.009,-0.298,-5.312,-23.562,+1.625,3, 2, -3, -3, -1, 2, -3, -3
1503514077879,-0.368,-0.247,-0.500,-0.744,+0.935,+0.028,-0.320,-8.875,-12.625,+8.438,-2, -4, -4, -2, 0, 2, 0, 1
1503514077901,-0.369,-0.246,-0.498,-0.745,+0.940,+0.042,-0.363,-1.062,-13.062,+5.812,-1, -5, -5, -10, -5, -1, -2, -3
1503514077924,-0.369,-0.245,-0.496,-0.747,+0.918,+0.031,-0.368,+0.375,-15.125,-1.688,5, 8, 1, -3, -3, -1, -1, 0
1503514077946,-0.369,-0.245,-0.493,-0.749,+0.944,+0.025,-0.319,-4.625,-21.688,-5.562,-4, -4, -4, -3, -2, 2, 0, 1
1503514077962,-0.370,-0.245,-0.490,-0.750,+0.952,+0.054,-0.341,-7.188,-18.188,-0.625,7, 3, 8, 2, 3, 3, 1, 0
1503514077984,-0.371,-0.244,-0.488,-0.751,+0.934,+0.057,-0.378,-4.625,-15.438,+5.375,-10, 4, 11, 3, 3, 2, -3, -10
1503514078000,-0.372,-0.244,-0.485,-0.753,+0.880,+0.051,-0.371,-5.750,-16.312,+2.812,-4, -5, -8, -4, -1, 2, -1, 1
1503514078024,-0.374,-0.244,-0.483,-0.753,+0.892,+0.034,-0.334,-9.562,-12.938,+2.750,-5, -6, -4, -1, 7, 0, 0, 0
1503514078044,-0.376,-0.245,-0.483,-0.752,+0.924,+0.002,-0.349,-11.625,-3.438,+9.062,4, 5, 7, 9, 6, 0, -1, 1
1503514078062,-0.379,-0.245,-0.482,-0.751,+0.950,-0.009,-0.382,-11.625,-1.500,+14.000,-2, -1, -6, -2, -6, -2, 0, -1
1503514078081,-0.381,-0.244,-0.481,-0.751,+0.964,-0.008,-0.382,-12.125,-9.625,+12.438,-43, -23, -12, -4, -3, -1, -1, -7
1503514078104,-0.384,-0.244,-0.478,-0.751,+0.934,-0.010,-0.357,-13.438,-19.062,+5.438,5, 0, -2, -1, -6, 1, -1, 0
1503514078119,-0.386,-0.244,-0.475,-0.753,+0.903,-0.011,-0.337,-13.562,-23.750,-0.562,14, 3, 1, 2, 9, 5, 1, 3
1503514078141,-0.388,-0.244,-0.471,-0.754,+0.914,+0.002,-0.372,-12.062,-22.000,+0.750,1, 2, -5, -4, -6, -4, -1, -4
1503514078164,-0.390,-0.244,-0.469,-0.754,+0.902,+0.019,-0.424,-11.188,-15.250,+5.312,-9, -1, -1, 1, -1, -1, -3, 1
1503514078180,-0.392,-0.244,-0.466,-0.755,+0.881,+0.007,-0.424,-9.188,-12.750,+5.938,15, 4, 5, 4, 18, 7, 1, 0
1503514078201,-0.393,-0.243,-0.465,-0.755,+0.891,-0.015,-0.398,-7.812,-10.125,+3.062,5, 1, -3, -8, -11, -7, -4, 1
1503514078226,-0.394,-0.244,-0.464,-0.755,+0.900,-0.016,-0.393,-6.688,-2.438,+2.062,-3, -9, -4, -4, -4, 0, 0, -7
1503514078240,-0.395,-0.244,-0.464,-0.754,+0.904,+0.007,-0.424,-5.562,+3.125,+4.875,-19, -6, -4, -5, -2, -3, -3, -10
1503514078262,-0.396,-0.244,-0.465,-0.754,+0.912,+0.014,-0.431,-3.312,+2.312,+8.812,17, 11, 4, 3, -2, -2, -1, 0
1503514078284,-0.397,-0.243,-0.465,-0.754,+0.933,+0.002,-0.416,-0.312,-1.938,+6.250,8, 10, 6, 7, 0, 1, -2, 4
1503514078301,-0.397,-0.242,-0.465,-0.753,+0.916,+0.005,-0.403,+1.375,-0.875,+5.188,0, -6, -8, -8, -8, -6, -2, 1
1503514078321,-0.397,-0.241,-0.466,-0.753,+0.885,+0.007,-0.423,+3.000,+2.188,+6.875,-6, -13, -8, -5, -4, -1, 0, -7
1503514078344,-0.398,-0.240,-0.466,-0.753,+0.890,-0.008,-0.432,+4.562,+3.938,+10.562,5, 4, 7, 4, 3, 1, 2, 6
1503514078361,-0.399,-0.238,-0.468,-0.752,+0.929,-0.019,-0.423,+5.438,+1.562,+12.688,5, 6, 2, -3, -4, -2, 0, 5
1503514078382,-0.400,-0.236,-0.468,-0.751,+0.942,-0.016,-0.384,+4.375,-2.250,+12.375,-3, -26, -18, -2, 2, 0, -2, -3
1503514078404,-0.401,-0.235,-0.468,-0.751,+0.907,+0.008,-0.391,+2.938,-6.562,+11.500,-9, -2, 0, -1, -3, -1, 2, 1
1503514078419,-0.403,-0.233,-0.467,-0.752,+0.873,+0.005,-0.410,+3.562,-11.750,+9.875,-24, -6, -8, -6, -1, 10, 1, -8
1503514078441,-0.404,-0.231,-0.466,-0.753,+0.873,-0.010,-0.417,+3.625,-12.250,+7.375,2, 5, 6, 2, 1, 1, 0, -2
1503514078464,-0.405,-0.229,-0.465,-0.753,+0.873,-0.029,-0.386,+2.125,-10.625,+6.438,9, 9, 8, 3, 0, -5, -3, 3
1503514078479,-0.405,-0.229,-0.465,-0.753,+0.841,-0.023,-0.371,-1.750,-2.625,+3.000,22, 11, 5, 4, 0, -2, -1, 16
1503514078503,-0.404,-0.230,-0.465,-0.753,+0.825,-0.017,-0.374,-3.812,+5.688,-6.188,-1, 3, 3, 1, 0, -2, -3, -9
1503514078528,-0.402,-0.232,-0.466,-0.753,+0.873,-0.027,-0.396,-4.250,+10.812,-13.125,-11, -2, 3, -1, 0, 0, 0, 1
1503514078540,-0.400,-0.235,-0.467,-0.753,+0.933,-0.035,-0.385,-5.812,+11.250,-14.812,3, -6, -4, -7, -14, -1, -1, -3
1503514078563,-0.398,-0.238,-0.467,-0.753,+0.932,-0.024,-0.389,-8.938,+9.875,-17.188,-15, -11, -6, -5, -6, -6, -2, -7
1503514078584,-0.396,-0.241,-0.466,-0.754,+0.916,+0.024,-0.398,-7.500,+3.000,-19.688,-2, -1, -2, 0, 4, 10, -4, -55
1503514078606,-0.393,-0.243,-0.465,-0.755,+0.946,+0.040,-0.430,-1.938,-1.750,-16.062,-2, -2, -4, -5, -6, -3, -6, 1
1503514082686,-0.185,-0.149,-0.558,-0.795,+0.948,+0.048,-0.318,+0.438,-5.438,+2.062,2, 6, -4, -4, -7, -3, -5, -13
1503514082708,-0.187,-0.149,-0.558,-0.795,+0.957,+0.023,-0.270,-5.188,-2.188,+6.250,-3, -3, 1, -3, -4, -1, -1, 4
1503514082724,-0.188,-0.150,-0.559,-0.793,+0.938,+0.026,-0.242,-8.938,+6.000,+8.188,-11, -4, 0, 0, -2, -1, -1, -2
1503514082746,-0.189,-0.150,-0.561,-0.792,+0.939,+0.024,-0.274,-4.500,+15.312,+5.062,1, -3, 0, 1, -6, 0, 1, 6
1503514082769,-0.189,-0.150,-0.563,-0.791,+0.966,+0.007,-0.332,+1.062,+16.375,+1.750,1, 0, -3, -2, -3, -1, -1, 6
1503514082784,-0.189,-0.150,-0.563,-0.790,+0.972,+0.008,-0.286,-1.812,+1.625,+1.062,10, 5, 9, 2, 2, 0, 1, 9
1503514082806,-0.190,-0.150,-0.562,-0.791,+0.976,+0.026,-0.230,-4.875,-14.312,+0.875,-2, 2, 5, 5, 4, 2, -3, -10
1503514082829,-0.190,-0.150,-0.560,-0.792,+0.941,+0.029,-0.229,-5.938,-11.938,+0.125,-1, -5, -12, -5, -2, 0, 3, 16
1503514082843,-0.191,-0.151,-0.560,-0.792,+0.903,+0.023,-0.265,-4.125,-2.625,+0.438,0, 3, -4, -6, -7, -3, -5, -9
1503514082866,-0.191,-0.151,-0.560,-0.792,+0.887,+0.011,-0.330,-2.375,+5.500,+0.312,-4, -4, -9, -4, 1, -2, -2, 3
1503514082892,-0.192,-0.151,-0.560,-0.792,+0.931,+0.026,-0.292,-5.062,+3.812,+2.625,1, 1, 12, 5, 0, 0, 0, -5
1503514082903,-0.192,-0.152,-0.560,-0.792,+0.991,+0.035,-0.257,-5.438,-1.125,+2.312,-12, -11, -4, 0, 1, 3, 0, -7
1503514082926,-0.192,-0.152,-0.561,-0.791,+0.997,+0.041,-0.232,-4.562,+4.875,+0.312,-3, -6, -3, 0, 1, -3, 0, -3
1503514082949,-0.192,-0.153,-0.562,-0.790,+0.946,+0.042,-0.277,-3.000,+10.562,-2.250,16, 9, 5, 7, 5, 3, 0, 0
1503514082963,-0.191,-0.154,-0.563,-0.790,+0.934,+0.021,-0.331,-0.438,+7.375,-3.375,0, -5, -1, -6, 4, 1, 0, 1
1503514082986,-0.190,-0.154,-0.562,-0.790,+0.955,-0.003,-0.304,+0.062,-1.812,-5.500,20, 5, -4, -2, -9, -5, -4, 8
1503514083009,-0.189,-0.154,-0.561,-0.791,+0.971,-0.005,-0.266,+0.812,-8.938,-9.375,-9, -7, -2, 7, 18, 8, -1, -3
1503514083025,-0.188,-0.154,-0.560,-0.792,+0.934,+0.009,-0.263,+3.375,-4.625,-12.000,-5, -2, -1, 1, -5, -2, -1, -1
1503514083046,-0.186,-0.154,-0.560,-0.793,+0.904,+0.038,-0.283,+2.625,-2.688,-11.250,1, -5, -4, -6, -4, -5, 1, 1
1503514083069,-0.184,-0.154,-0.558,-0.794,+0.958,+0.054,-0.297,+3.062,-5.875,-8.812,-5, -6, -12, -4, -8, -5, -3, -10
1503514083084,-0.183,-0.154,-0.557,-0.796,+0.994,+0.048,-0.299,+7.188,-10.750,-7.062,-15, -13, -2, 1, 3, 0, 1, 0
1503514083106,-0.181,-0.153,-0.556,-0.797,+1.004,+0.030,-0.258,+6.688,-13.812,-6.250,10, 9, 4, -1, 0, -2, -5, -1
1503514083129,-0.181,-0.152,-0.555,-0.798,+0.972,+0.053,-0.229,+2.375,-12.000,-0.438,3, -3, -6, 2, 4, -1, 2, 6
1503514083143,-0.182,-0.151,-0.555,-0.798,+0.963,+0.071,-0.304,+0.875,+0.312,+9.812,-8, -7, -1, -2, -5, -1, -1, 2
1503514083166,-0.183,-0.150,-0.556,-0.797,+0.961,+0.075,-0.333,+2.750,+4.375,+12.438,6, -5, -4, -7, -6, -2, -3, 0
1503514083188,-0.182,-0.149,-0.557,-0.797,+0.993,+0.059,-0.283,+7.250,+3.438,+4.125,-27, -1, 10, 8, 7, -2, -5, -12
1503514083204,-0.182,-0.148,-0.558,-0.796,+0.984,+0.065,-0.262,+5.625,+3.938,+3.688,6, 0, -2, -2, -3, -2, 1, 9
1503514083228,-0.182,-0.147,-0.558,-0.796,+0.961,+0.083,-0.271,+2.750,-1.438,+9.125,12, 19, 7, 1, 1, -1, -1, 6
1503514083248,-0.182,-0.147,-0.557,-0.797,+0.942,+0.058,-0.272,+1.250,-5.688,+3.438,-14, -9, -2, -3, -2, -2, 0, -2
1503514083264,-0.182,-0.147,-0.557,-0.797,+0.972,+0.021,-0.278,-1.938,-2.688,-0.500,9, 1, -1, 5, 9, 4, 3, 12
1503514083286,-0.184,-0.147,-0.557,-0.797,+0.966,+0.026,-0.302,-5.375,+1.875,+6.000,1, -6, -7, -5, -5, -4, -1, -9
1503514083308,-0.185,-0.146,-0.557,-0.796,+0.932,+0.019,-0.291,-4.750,-0.625,+7.125,-3, -7, -6, -2, -1, 0, 0, -11
1503514083327,-0.186,-0.147,-0.557,-0.796,+0.917,+0.008,-0.258,-8.438,+0.750,+1.750,-3, -2, 1, 1, 0, 15, 7, 6
1503514083346,-0.186,-0.149,-0.558,-0.795,+0.912,+0.028,-0.260,-12.938,+10.125,-2.375,-16, -5, 1, -2, 3, 7, 0, -5
1503514083370,-0.187,-0.151,-0.560,-0.793,+0.917,+0.038,-0.309,-8.812,+18.000,-1.188,0, -2, -1, -4, -4, -7, -7, -9
1503514083384,-0.187,-0.152,-0.562,-0.792,+0.944,+0.017,-0.316,-7.750,+15.938,+2.125,3, 1, 1, -1, -10, -4, 1, 1
1503514083406,-0.188,-0.153,-0.562,-0.791,+0.952,+0.015,-0.284,-9.125,+5.750,+1.062,22, 8, -2, 0, 1, -6, -1, 11
1503514083429,-0.188,-0.153,-0.561,-0.791,+0.962,+0.018,-0.241,-4.188,-6.625,+0.312,-8, -7, -9, -4, -4, -5, -3, 2
1503514083444,-0.188,-0.152,-0.560,-0.793,+0.964,+0.020,-0.284,+2.000,-12.750,-1.812,-14, -2, 1, 2, 2, -4, -2, -10
1503514083468,-0.188,-0.151,-0.557,-0.795,+0.935,+0.041,-0.348,+3.812,-16.188,-1.625,21, 11, -2, -1, 1, -1, -1, -10
1503514083488,-0.189,-0.149,-0.554,-0.797,+0.947,+0.034,-0.332,+6.125,-22.562,+5.750,10, 1, 2, 3, 0, -17, -5, -6
1503514083504,-0.189,-0.147,-0.552,-0.799,+0.972,+0.054,-0.243,+3.250,-22.250,+6.438,-1, -3, 0, 5, 9, 4, 1, 7
1503514083528,-0.189,-0.147,-0.550,-0.800,+0.953,+0.087,-0.263,+2.562,-14.812,+2.312,-4, -7, -6, -4, -6, 2, 0, 2
1503514083548,-0.189,-0.146,-0.548,-0.802,+0.917,+0.078,-0.301,+1.688,-15.938,+1.188,-3, -8, -5, -1, 2, 5, 4, 2
1503514083565,-0.190,-0.146,-0.545,-0.804,+0.934,+0.046,-0.312,-1.438,-20.188,+2.250,-2, 1, 2, 0, 1, -1, -1, 2
1503514083586,-0.191,-0.145,-0.543,-0.805,+0.955,+0.044,-0.316,-4.750,-19.000,+3.938,-13, -5, -1, -4, -6, 9, 3, -7
1503514083608,-0.192,-0.145,-0.540,-0.806,+0.928,+0.059,-0.325,-6.938,-16.688,+6.000,-4, -4, 0, -2, -4, -7, 2, 19
1503514083624,-0.194,-0.146,-0.538,-0.808,+0.912,+0.060,-0.319,-8.500,-17.062,+7.312,-6, -5, -7, -3, -2, 1, -4, -3
1503514083646,-0.197,-0.146,-0.535,-0.808,+0.935,+0.041,-0.325,-10.438,-16.312,+9.062,-4, 11, 12, 5, 1, -3, -4, -29
1503514083671,-0.200,-0.146,-0.534,-0.809,+0.965,+0.030,-0.318,-13.438,-13.125,+12.312,17, 8, 1, 1, 0, 0, 2, 22
1503514083684,-0.203,-0.146,-0.532,-0.809,+0.938,+0.029,-0.333,-15.500,-13.500,+13.438,-12, -3, 0, -6, -5, 1, 0, -2
1503514083706,-0.206,-0.146,-0.530,-0.810,+0.920,+0.023,-0.365,-13.000,-14.000,+11.500,11, 1, -5, -3, -4, -5, -3, 3
1503514083730,-0.208,-0.147,-0.528,-0.810,+0.926,+0.037,-0.363,-10.938,-12.312,+9.562,-10, -4, 1, 3, 2, 3, -4, -10
1503514083744,-0.211,-0.147,-0.526,-0.811,+0.944,+0.024,-0.339,-12.000,-9.188,+8.750,4, 7, 12, 7, 3, 1, -1, -1
1503514083766,-0.213,-0.148,-0.526,-0.810,+0.948,+0.015,-0.342,-13.500,-5.625,+10.875,-13, 0, 2, 1, 2, 1, 1, 0
1503514083788,-0.216,-0.148,-0.525,-0.810,+0.949,+0.015,-0.366,-12.000,-3.500,+12.875,1, -2, -11, -7, -2, 1, -2, 2
1503514083811,-0.219,-0.148,-0.524,-0.810,+0.931,+0.028,-0.390,-9.375,-6.000,+12.000,-4, -5, -3, 4, 7, 0, 2, -4
1503514083834,-0.220,-0.148,-0.523,-0.810,+0.931,+0.016,-0.343,-6.500,-8.875,+9.000,8, 0, -5, -4, 1, 0, 2, 5
1503514083849,-0.222,-0.147,-0.523,-0.810,+0.953,-0.009,-0.333,-6.188,-2.688,+11.875,-3, 1, 7, 2, -1, -1, 1, 10
1503514083866,-0.226,-0.146,-0.524,-0.808,+0.966,-0.015,-0.378,-6.688,+3.812,+22.000,-11, -4, 0, 1, -1, 1, -2, -16
1503514083886,-0.230,-0.144,-0.525,-0.807,+0.970,-0.017,-0.391,-4.438,+3.812,+26.875,-3, -1, 0, 7, 4, 1, 1, -2
1503514083908,-0.234,-0.141,-0.525,-0.806,+0.973,-0.024,-0.392,-0.812,-0.312,+26.750,2, -1, -4, -2, -4, -5, 4, 3
1503514083924,-0.238,-0.138,-0.526,-0.805,+0.964,-0.027,-0.363,+0.500,-1.625,+32.125,-4, -2, -2, -1, 3, 1, -1, -3
1503514083946,-0.243,-0.135,-0.527,-0.803,+0.942,-0.016,-0.384,+1.188,+2.000,+38.938,3, 3, 4, 4, -1, -1, -2, -7
1503514083970,-0.248,-0.131,-0.529,-0.801,+0.926,-0.018,-0.391,+4.250,+4.438,+42.562,-2, -4, -1, -9, -7, -3, -5, -18
1503514083984,-0.253,-0.126,-0.530,-0.800,+0.922,-0.057,-0.384,+7.375,+1.562,+43.500,-5, -2, -3, -3, -3, -1, -2, 1
1503514084007,-0.258,-0.120,-0.531,-0.798,+0.924,-0.082,-0.369,+8.125,+1.438,+45.500,4, 10, 4, 8, 6, 4, -2, 1
1503514084028,-0.263,-0.115,-0.533,-0.796,+0.891,-0.067,-0.348,+6.375,+1.250,+45.688,2, 5, 1, -4, -4, -5, -3, -1
1503514084044,-0.268,-0.111,-0.534,-0.794,+0.878,-0.056,-0.341,+4.812,-0.062,+42.188,-6, -4, -1, -5, -1, 1, 0, -4
1503514084066,-0.272,-0.107,-0.534,-0.793,+0.891,-0.078,-0.350,+4.562,-0.688,+36.688,4, -4, -2, 1, 5, 1, -1, -1
1503514084088,-0.276,-0.104,-0.535,-0.791,+0.877,-0.114,-0.339,+3.500,+1.500,+33.188,-3, -2, -1, -3, 1, 2, 0, 3
1503514084105,-0.280,-0.101,-0.536,-0.790,+0.866,-0.114,-0.339,+1.125,+1.812,+31.625,0, -2, -3, -4, -6, -3, -2, 2
1503514084126,-0.283,-0.099,-0.537,-0.789,+0.873,-0.100,-0.334,-0.688,+2.312,+26.812,-5, 9, 7, 0, -2, -1, -1, -2
1503514084148,-0.286,-0.098,-0.537,-0.788,+0.886,-0.114,-0.350,-0.312,+2.438,+18.562,4, -5, -4, -5, -3, -1, 2, -1
1503514084167,-0.287,-0.096,-0.538,-0.787,+0.926,-0.162,-0.364,+1.312,+3.062,+14.188,-3, -2, -2, 0, -2, -1, 1, 4
1503514084186,-0.290,-0.095,-0.538,-0.786,+0.936,-0.180,-0.352,-3.062,-3.625,+16.250,0, -3, -7, 3, 1, -1, -4, -11
1503514084209,-0.293,-0.093,-0.537,-0.786,+0.911,-0.152,-0.358,-7.750,-8.000,+20.500,1, 3, 6, 0, -1, -3, -1, 8
1503514084225,-0.296,-0.092,-0.536,-0.786,+0.884,-0.135,-0.362,-5.750,-7.500,+17.938,10, -2, -6, -1, -1, 1, 2, 17
1503514084246,-0.298,-0.091,-0.535,-0.785,+0.888,-0.169,-0.376,-2.188,-4.312,+16.500,-4, 0, 1, -6, -4, 1, -6, -8
1503514084269,-0.301,-0.089,-0.535,-0.784,+0.904,-0.174,-0.375,-3.188,-1.812,+21.750,-6, -1, 2, 3, 8, 6, 4, 2
1503514084284,-0.305,-0.087,-0.535,-0.783,+0.921,-0.180,-0.375,-3.562,-3.938,+27.875,-1, -1, -4, -6, -3, -3, 2, -2
1503514084309,-0.309,-0.084,-0.535,-0.782,+0.930,-0.188,-0.383,-1.812,-4.062,+27.812,-2, 2, 1, 1, -6, -1, 0, -9
1503514087255,-0.383,-0.122,-0.443,-0.802,+0.867,-0.150,-0.511,-18.688,-17.750,+4.688,2, 4, 4, 2, 3, 0, 2, 3
1503514087268,-0.385,-0.123,-0.440,-0.802,+0.822,-0.148,-0.482,-14.688,-14.938,+6.125,0, -4, -1, -5, -3, -2, 0, -4
1503514087292,-0.386,-0.123,-0.440,-0.802,+0.806,-0.151,-0.519,-11.875,-3.000,+7.500,0, 0, 1, 3, 1, 0, 1, -3
1503514087313,-0.388,-0.124,-0.440,-0.800,+0.776,-0.168,-0.564,-12.438,+11.125,+8.438,1, 1, -3, -1, -2, -2, 0, 0
1503514087328,-0.389,-0.126,-0.442,-0.798,+0.803,-0.149,-0.555,-8.625,+17.312,+4.188,-2, -1, 2, 0, 0, -1, -5, -5
1503514087351,-0.389,-0.128,-0.443,-0.798,+0.845,-0.161,-0.538,-5.688,+11.938,-3.000,1, 4, 3, 4, 1, 3, 0, 1
1503514087366,-0.389,-0.128,-0.444,-0.797,+0.846,-0.178,-0.521,-5.812,+3.438,-4.438,0, 4, 2, -7, -4, -1, 0, -1
1503514087389,-0.388,-0.129,-0.443,-0.798,+0.797,-0.151,-0.543,-4.438,-2.500,-4.312,-1, 0, 4, 1, 1, -1, 0, 8
1503514087411,-0.387,-0.129,-0.442,-0.799,+0.767,-0.126,-0.562,+0.688,-3.812,-9.812,-2, -3, -2, -2, -2, 1, -1, 11
1503514087433,-0.385,-0.128,-0.440,-0.801,+0.791,-0.147,-0.542,+6.500,-9.875,-16.438,-2, -8, -5, 1, 3, 1, 3, -2
1503514087448,-0.383,-0.127,-0.439,-0.803,+0.804,-0.178,-0.516,+7.250,-11.562,-13.188,-1, -8, -8, -5, -4, 0, 0, -5
1503514087471,-0.382,-0.125,-0.438,-0.804,+0.783,-0.170,-0.525,+3.938,-10.812,-7.000,-2, 2, 1, -6, -8, -3, -2, 0
1503514087495,-0.380,-0.125,-0.437,-0.806,+0.755,-0.133,-0.558,+4.438,-5.250,-8.562,-2, 1, -1, 1, 3, -1, -1, -2
1503514087508,-0.378,-0.124,-0.436,-0.807,+0.801,-0.135,-0.545,+10.875,-6.312,-14.875,1, 2, 1, -9, -10, -2, -2, 1
1503514087531,-0.375,-0.122,-0.436,-0.809,+0.863,-0.156,-0.531,+11.562,-11.562,-14.188,-1, -3, -1, 11, 9, 3, 1, 1
1503514087553,-0.373,-0.120,-0.435,-0.811,+0.853,-0.138,-0.509,+7.812,-16.812,-7.312,-1, 5, 3, 17, 13, 5, 1, 0
1503514087568,-0.372,-0.119,-0.433,-0.813,+0.812,-0.119,-0.530,+8.500,-16.562,-6.125,-14, -5, 0, -3, -4, -4, -3, -7
1503514087591,-0.369,-0.117,-0.432,-0.815,+0.814,-0.127,-0.545,+13.312,-13.812,-11.938,3, -2, -2, -9, -8, -3, -1, 2
1503514087613,-0.367,-0.114,-0.431,-0.816,+0.822,-0.142,-0.557,+17.562,-11.750,-11.000,3, 6, 4, -2, -1, -2, -2, 1
1503514087630,-0.365,-0.112,-0.431,-0.818,+0.834,-0.172,-0.550,+13.500,-10.812,-6.812,-3, 3, 7, 6, 1, -2, -1, -2
1503514087651,-0.364,-0.110,-0.431,-0.818,+0.819,-0.153,-0.556,+7.750,-4.875,-2.938,7, 5, -5, -12, -11, -4, -4, -1
1503514087673,-0.363,-0.108,-0.432,-0.819,+0.817,-0.123,-0.556,+12.125,+0.875,-0.562,10, -4, -7, 2, 2, 3, 1, 3
1503514087690,-0.361,-0.106,-0.433,-0.819,+0.832,-0.127,-0.567,+16.312,-1.500,-2.812,-6, -1, 3, 6, 4, -1, 0, -1
1503514087711,-0.359,-0.105,-0.433,-0.820,+0.850,-0.135,-0.562,+12.125,-4.062,-4.750,-2, 1, 4, 3, 2, 0, 1, 0
1503514087726,-0.358,-0.104,-0.433,-0.821,+0.820,-0.105,-0.555,+4.875,-6.438,-5.812,-1, -5, 0, -2, 4, 5, -1, -1
1503514087748,-0.356,-0.104,-0.432,-0.822,+0.766,-0.088,-0.589,+6.188,-4.938,-8.375,10, 4, -5, -3, -2, -1, 1, 2
1503514087771,-0.354,-0.103,-0.432,-0.824,+0.776,-0.095,-0.573,+11.438,-1.938,-9.562,-16, -8, -7, 1, 5, 5, 2, -3
1503514087786,-0.352,-0.102,-0.432,-0.824,+0.816,-0.120,-0.548,+10.500,-0.312,-4.438,2, -3, -9, -9, -8, -3, -1, -2
1503514087808,-0.351,-0.100,-0.433,-0.824,+0.822,-0.141,-0.546,+7.875,-3.375,+0.812,4, 3, 6, 9, 2, -1, -3, 0
1503514087831,-0.351,-0.099,-0.432,-0.825,+0.802,-0.138,-0.561,+5.562,-9.625,+1.688,-1, 2, 5, -3, 0, -2, -4, -2
1503514087846,-0.350,-0.098,-0.430,-0.827,+0.780,-0.127,-0.580,+4.562,-12.438,-6.125,8, 5, 5, 3, 4, -4, -1, 1
1503514087868,-0.348,-0.098,-0.429,-0.828,+0.764,-0.098,-0.574,+4.375,-7.875,-10.312,-19, -8, -1, -3, -2, -6, -5, -7
1503514087893,-0.347,-0.097,-0.428,-0.829,+0.776,-0.085,-0.577,+4.812,-7.062,-5.062,8, 1, -7, -9, -9, -3, -2, -1
1503514087907,-0.346,-0.097,-0.426,-0.830,+0.790,-0.108,-0.577,+1.750,-7.750,-1.438,2, 3, 0, -1, -4, 1, -2, 1
1503514087929,-0.346,-0.097,-0.426,-0.830,+0.799,-0.094,-0.606,-0.125,+1.000,-2.500,-1, 0, 1, 5, 11, 0, 3, 0
1503514087951,-0.346,-0.098,-0.426,-0.830,+0.768,-0.053,-0.595,-3.125,+4.812,+1.125,13, 3, -1, -4, -5, -2, -2, 3
1503514087967,-0.346,-0.099,-0.426,-0.830,+0.822,-0.064,-0.565,-3.562,+1.812,+7.812,-3, 0, 1, 0, -5, -1, 0, -1
1503514087988,-0.348,-0.099,-0.427,-0.829,+0.836,-0.098,-0.569,-5.125,+3.625,+8.812,4, 1, 0, 8, 7, 1, -1, -1
1503514088011,-0.349,-0.100,-0.427,-0.828,+0.821,-0.105,-0.558,-6.000,+0.375,+10.688,1, -3, -4, -5, -4, -4, -1, -3
1503514088027,-0.352,-0.100,-0.426,-0.828,+0.805,-0.101,-0.584,-8.688,-3.125,+14.438,19, 9, 1, -3, -5, 3, -2, 2
1503514088048,-0.354,-0.100,-0.425,-0.827,+0.778,-0.112,-0.583,-9.750,-4.438,+14.312,-5, 0, 1, 2, 7, 11, 0, -2
1503514088071,-0.357,-0.100,-0.424,-0.826,+0.795,-0.124,-0.576,-10.750,-5.000,+13.125,-10, -3, -3, -3, 0, 1, -1, -3
1503514088086,-0.360,-0.101,-0.423,-0.826,+0.801,-0.121,-0.572,-13.812,-5.438,+15.000,-4, -11, -7, -3, -5, -4, 0, 1
1503514088108,-0.363,-0.101,-0.422,-0.825,+0.778,-0.112,-0.571,-14.625,-4.875,+16.062,-17, -4, -4, -2, -2, -6, 0, -2
1503514088132,-0.366,-0.102,-0.420,-0.824,+0.747,-0.117,-0.597,-13.500,-3.000,+14.625,-7, -9, -5, -3, 1, -5, -1, -2
1503514088153,-0.368,-0.102,-0.419,-0.824,+0.754,-0.132,-0.593,-11.688,-4.250,+14.000,-2, -4, -1, 0, 0, -4, -2, -3
1503514088169,-0.371,-0.102,-0.417,-0.823,+0.774,-0.128,-0.575,-12.812,-6.688,+13.938,2, -3, -7, -4, 3, 1, -3, 0
1503514088191,-0.374,-0.102,-0.416,-0.823,+0.769,-0.126,-0.579,-11.438,-8.688,+14.625,3, 4, 2, 1, 0, 2, 0, 3
1503514088207,-0.377,-0.102,-0.414,-0.822,+0.743,-0.134,-0.583,-10.375,-7.812,+16.500,-19, 4, 3, -1, 0, 2, 0, -2
1503514088229,-0.380,-0.102,-0.413,-0.821,+0.738,-0.153,-0.601,-9.188,-4.875,+15.438,7, -3, -4, -4, 0, 3, 1, 1
1503514088252,-0.383,-0.101,-0.413,-0.820,+0.779,-0.177,-0.587,-8.688,-1.688,+14.125,-7, -8, -6, -4, -2, 0, -4, -14
1503514088267,-0.385,-0.101,-0.413,-0.819,+0.818,-0.184,-0.565,-10.250,+1.812,+16.312,7, 2, -1, -3, -2, 0, -3, 0
1503514088288,-0.388,-0.101,-0.414,-0.817,+0.838,-0.195,-0.560,-8.312,+0.250,+15.812,-13, -10, 0, -2, -4, -3, -1, -2
1503514088311,-0.390,-0.101,-0.415,-0.816,+0.862,-0.214,-0.568,-4.375,-0.062,+11.438,-7, -8, -5, -3, 8, 3, 1, 1
1503514091432,-0.365,-0.246,-0.559,-0.702,+1.013,-0.063,-0.152,-33.875,-11.312,-1.750,0, 2, 2, 2, 0, -1, -2, -3
1503514091454,-0.368,-0.248,-0.555,-0.703,+1.014,-0.028,-0.230,-26.125,-18.000,+1.125,0, 3, 2, 3, 2, 0, -2, -2
1503514091475,-0.372,-0.248,-0.551,-0.704,+1.016,-0.065,-0.231,-21.688,-26.688,+6.312,0, -2, 3, 4, 1, -1, -3, -4
1503514091493,-0.376,-0.249,-0.548,-0.705,+0.985,-0.098,-0.174,-22.688,-23.438,+3.812,0, -2, 3, 2, -2, -2, -3, 8
1503514091522,-0.377,-0.250,-0.545,-0.706,+0.949,-0.083,-0.205,-20.688,-15.312,-5.438,-1, -1, -7, -5, -3, -2, -1, -6
1503514091536,-0.379,-0.253,-0.542,-0.706,+0.950,-0.035,-0.242,-18.875,-9.188,-5.375,-1, -7, -4, -6, -4, -3, -1, -4
1503514091552,-0.380,-0.254,-0.541,-0.706,+0.961,-0.032,-0.258,-15.812,-3.188,+1.188,0, 7, 4, 0, 0, -1, -1, -2
1503514091574,-0.382,-0.255,-0.540,-0.705,+0.975,-0.048,-0.267,-12.062,+3.938,+5.125,1, -2, -1, -4, -4, -1, 0, -1
1503514091596,-0.383,-0.256,-0.541,-0.704,+0.979,-0.063,-0.239,-9.188,+5.312,+4.438,3, 7, 10, 3, 1, -1, -1, -1
1503514091612,-0.384,-0.257,-0.541,-0.703,+1.008,-0.063,-0.230,-6.938,+5.750,+4.812,-2, -11, -6, -3, -2, -2, -3, -1
1503514091634,-0.385,-0.257,-0.542,-0.701,+0.999,-0.040,-0.263,-4.625,+8.625,+9.562,-3, -6, -5, 0, 1, -1, -2, -2
1503514091656,-0.386,-0.255,-0.543,-0.701,+0.984,-0.066,-0.269,+0.438,+3.000,+14.125,3, 8, 6, 1, 1, 0, -1, 1
1503514091672,-0.388,-0.253,-0.545,-0.699,+0.965,-0.105,-0.243,+1.938,+3.500,+16.625,0, 1, -8, -5, -3, -1, -1, 0
1503514091694,-0.389,-0.252,-0.546,-0.698,+0.955,-0.111,-0.225,+2.875,+7.750,+12.500,-1, -2, -3, -1, -1, -2, 2, -1
1503514091709,-0.389,-0.251,-0.548,-0.697,+0.950,-0.070,-0.241,+3.438,+12.000,+6.938,0, 1, 0, 1, -1, -1, -1, 0
1503514091732,-0.388,-0.250,-0.550,-0.696,+0.966,-0.042,-0.229,+7.375,+7.312,+7.125,1, 3, 6, 4, 0, -1, -1, 1
1503514091755,-0.388,-0.249,-0.551,-0.696,+0.979,-0.068,-0.209,+11.188,+1.500,+7.312,-1, 1, -1, 0, 2, -1, 2, 0
1503514091769,-0.386,-0.247,-0.553,-0.696,+0.942,-0.087,-0.232,+11.188,+7.500,+0.188,5, 6, 6, 3, 0, 0, -1, 2
1503514091792,-0.385,-0.247,-0.554,-0.696,+0.910,-0.056,-0.259,+11.688,+8.188,-3.875,-11, 0, 4, 11, 13, 0, -3, -9
1503514091814,-0.383,-0.245,-0.554,-0.698,+0.936,-0.062,-0.250,+14.375,-2.500,-2.812,-10, -12, -9, -12, -8, -1, -2, -3
1503514091829,-0.381,-0.243,-0.554,-0.699,+0.965,-0.074,-0.185,+11.875,-9.688,-3.938,5, 2, -2, -5, -3, -1, -1, 6
1503514091853,-0.380,-0.243,-0.554,-0.700,+0.943,-0.068,-0.181,+7.875,-5.250,-7.312,-16, -14, -8, -3, -1, -1, -3, -6
1503514091874,-0.378,-0.242,-0.553,-0.702,+0.911,-0.039,-0.258,+7.438,-5.125,-6.438,7, 4, 3, 27, 33, 14, 2, 2
1503514091890,-0.378,-0.241,-0.550,-0.705,+0.921,-0.050,-0.279,+6.562,-17.688,-4.625,-4, -4, -8, -26, -28, -8, -2, -5
1503514091912,-0.377,-0.240,-0.548,-0.707,+0.966,-0.060,-0.215,+3.375,-18.250,-8.688,-3, -2, -3, 1, 13, 4, 1, 1
1503514091934,-0.376,-0.240,-0.546,-0.709,+0.951,-0.048,-0.190,+1.125,-14.250,-10.188,4, -3, -5, 0, -2, -2, 2, 3
1503514091957,-0.376,-0.240,-0.544,-0.711,+0.944,-0.044,-0.215,-4.062,-15.125,-4.438,4, 6, 3, -4, -7, -2, -1, -2
1503514091972,-0.376,-0.240,-0.542,-0.712,+0.951,-0.031,-0.260,-6.000,-13.062,-4.500,6, 0, 0, -4, -5, 0, 0, 1
1503514091995,-0.375,-0.241,-0.540,-0.714,+0.962,-0.037,-0.267,-1.250,-10.438,-7.938,7, 4, 3, 1, 2, -3, 0, 4
1503514092009,-0.375,-0.241,-0.539,-0.715,+0.971,-0.056,-0.251,-0.500,-10.312,-8.938,-7, -3, -1, -2, -4, -4, -1, 0
1503514092032,-0.373,-0.242,-0.537,-0.717,+0.967,-0.047,-0.245,-1.875,-9.125,-11.000,-1, 1, 0, 7, 3, -2, 1, 0
1503514092055,-0.373,-0.243,-0.535,-0.718,+0.974,-0.043,-0.244,-4.562,-9.562,-12.000,-3, 1, 1, -2, 0, 1, -4, -5
1503514092069,-0.372,-0.243,-0.534,-0.719,+0.979,-0.052,-0.264,-3.875,-4.625,-9.625,2, 1, 0, -12, -24, -6, -3, 1
1503514092092,-0.372,-0.244,-0.534,-0.719,+0.960,-0.045,-0.271,-3.500,-1.375,-4.188,-3, -8, -6, -5, -1, -1, -1, -8
1503514092114,-0.371,-0.245,-0.532,-0.720,+0.951,-0.023,-0.270,-7.188,-5.250,-8.875,-1, 0, -2, -7, -3, 1, -1, 0
1503514092130,-0.370,-0.247,-0.530,-0.722,+0.982,+0.006,-0.250,-7.125,-8.750,-15.750,1, -6, 4, 12, 13, 6, 3, 4
1503514092151,-0.368,-0.248,-0.528,-0.724,+1.005,-0.013,-0.292,-2.188,-8.250,-12.438,-7, 3, 2, 0, 4, 0, -4, -4
1503514092173,-0.369,-0.249,-0.527,-0.725,+0.974,-0.025,-0.273,-4.938,-10.125,-4.250,4, 4, -2, -12, -11, -3, 0, 1
1503514092196,-0.369,-0.249,-0.524,-0.726,+0.941,+0.001,-0.259,-9.562,-14.500,-5.312,1, 0, -1, -5, -3, -2, -1, 0
1503514092210,-0.369,-0.251,-0.521,-0.728,+0.953,+0.026,-0.276,-8.062,-13.500,-10.250,4, 1, -2, -4, -6, -2, -2, 1
1503514092233,-0.368,-0.251,-0.520,-0.729,+0.958,+0.013,-0.294,-3.562,-8.250,-7.500,-6, -2, -5, -2, -7, -3, -4, -6
1503514092256,-0.369,-0.252,-0.519,-0.729,+0.937,-0.011,-0.279,-8.438,-4.562,-0.750,1, 5, 8, 7, -1, -3, 3, 1
1503514092270,-0.370,-0.254,-0.518,-0.728,+0.941,+0.000,-0.275,-14.375,-1.062,+1.688,1, -1, -3, -2, -3, -2, -1, 1
1503514092294,-0.371,-0.256,-0.517,-0.728,+0.964,+0.031,-0.287,-12.688,+0.625,-0.500,-11, -12, -6, -2, 2, 1, 2, 1
1503514092315,-0.371,-0.257,-0.516,-0.728,+0.971,+0.023,-0.306,-10.000,-1.188,-1.312,2, -3, -7, 6, 10, 4, -2, 0
1503514092332,-0.372,-0.258,-0.514,-0.729,+0.955,+0.012,-0.310,-11.875,-10.250,-0.250,-8, 3, 5, -2, 1, -2, -3, -5
1503514092353,-0.374,-0.258,-0.510,-0.730,+0.938,+0.011,-0.315,-15.438,-19.125,-0.312,5, -1, -1, 0, 4, 2, 3, 4
1503514092375,-0.377,-0.259,-0.506,-0.731,+0.942,+0.030,-0.306,-16.312,-21.750,+2.688,-12, -17, -6, -1, 0, 0, -1, 0
1503514092392,-0.380,-0.259,-0.503,-0.732,+0.914,+0.057,-0.344,-15.188,-19.312,+7.312,-2, -4, -4, -1, 3, -1, 1, 4
1503514092413,-0.382,-0.259,-0.500,-0.733,+0.890,+0.058,-0.332,-12.875,-16.750,+9.125,3, 1, 1, -1, 2, -3, -5, -4
1503514092436,-0.385,-0.259,-0.497,-0.734,+0.886,+0.026,-0.315,-12.688,-17.188,+7.188,-6, 2, 9, 8, 4, -2, -2, -3
1503514092451,-0.388,-0.259,-0.495,-0.734,+0.927,+0.006,-0.316,-13.688,-16.625,+10.125,-3, 1, 0, 1, 3, 1, -1, 0
1503514092473,-0.391,-0.258,-0.493,-0.733,+0.950,+0.009,-0.340,-12.125,-12.375,+13.438,0, 0, -1, 2, -4, -2, -4, -9
1503514092496,-0.393,-0.258,-0.491,-0.733,+0.924,+0.004,-0.362,-10.062,-11.062,+13.688,5, 9, 4, 1, 1, 0, -2, -5
1503514092514,-0.396,-0.257,-0.489,-0.733,+0.927,-0.011,-0.333,-10.438,-15.188,+12.688,-14, -4, 0, -2, -7, 0, -3, -10
1503514092534,-0.399,-0.256,-0.487,-0.733,+0.942,-0.009,-0.326,-12.125,-16.000,+12.438,-2, -8, -7, 0, 2, 1, 2, 9
1503514092558,-0.402,-0.256,-0.485,-0.733,+0.951,+0.001,-0.339,-10.250,-13.188,+8.938,1, 10, 3, -1, 1, -1, 0, -6
1503514092570,-0.404,-0.255,-0.483,-0.734,+0.941,-0.015,-0.356,-8.625,-14.688,+8.750,6, 5, -2, -6, -2, -2, -2, 3
1503514092593,-0.407,-0.253,-0.481,-0.734,+0.937,-0.037,-0.381,-9.562,-18.500,+13.750,10, 1, 9, -1, -2, 0, 3, 25
1503514092615,-0.411,-0.252,-0.478,-0.734,+0.917,-0.012,-0.370,-12.188,-20.000,+15.500,0, -3, -1, 6, 4, 0, 0, 8
1503514092631,-0.414,-0.252,-0.475,-0.735,+0.894,+0.013,-0.370,-12.062,-21.000,+10.438,-1, -6, -5, 2, 4, 2, 1, -4
1503514092653,-0.417,-0.250,-0.472,-0.736,+0.886,+0.007,-0.396,-10.688,-23.438,+12.500,0, 0, 1, 0, 0, 2, -2, -13
1503514092676,-0.422,-0.247,-0.468,-0.736,+0.902,-0.041,-0.421,-12.812,-30.125,+23.500,-1, -10, -8, 2, -1, -1, 1, 0
1503514092696,-0.429,-0.244,-0.464,-0.736,+0.879,-0.050,-0.425,-17.250,-34.312,+30.438,-4, -5, -4, -8, -7, -5, -1, 0
1503514092713,-0.435,-0.241,-0.459,-0.736,+0.854,-0.021,-0.444,-14.250,-36.812,+30.750,2, 4, 5, 12, 25, 8, 0, -2
1503514092736,-0.441,-0.237,-0.455,-0.737,+0.847,-0.033,-0.458,-7.125,-34.188,+30.062,3, 3, 3, -1, -9, -6, -2, -2
1503514092751,-0.446,-0.232,-0.452,-0.737,+0.854,-0.075,-0.428,-2.812,-28.688,+32.250,-6, -7, -8, -12, -11, -6, 1, -2
1503514092780,-0.452,-0.228,-0.451,-0.736,+0.879,-0.094,-0.421,-4.125,-24.000,+34.250,3, 1, 2, 4, -1, -2, -2, -4
1503514092796,-0.457,-0.224,-0.450,-0.734,+0.891,-0.113,-0.438,-3.875,-16.438,+33.875,0, -5, 0, 15, 18, 4, 1, -3
1503514092810,-0.461,-0.220,-0.449,-0.733,+0.915,-0.117,-0.449,-1.562,-17.125,+28.625,-6, -1, 0, -8, -32, -12, -6, -6
1503514092833,-0.465,-0.216,-0.448,-0.733,+0.934,-0.117,-0.454,+1.875,-24.750,+24.938,14, 7, 0, -7, -15, -4, 0, 4
1503514092855,-0.468,-0.212,-0.446,-0.733,+0.934,-0.135,-0.444,+3.812,-25.250,+18.938,-2, 3, 2, -5, -1, -3, -4, -1
1503514092871,-0.470,-0.208,-0.444,-0.734,+0.897,-0.137,-0.448,+2.375,-26.312,+14.125,3, 10, 9, 1, 5, 0, -3, -4
1503514092895,-0.473,-0.204,-0.441,-0.735,+0.883,-0.133,-0.467,+3.250,-32.188,+15.688,-25, -14, -5, 1, 5, 4, 1, -6
1503514092916,-0.475,-0.200,-0.439,-0.736,+0.877,-0.125,-0.479,+5.438,-30.438,+13.062,6, 0, -7, -6, -3, -4, 0, 1
1503514092938,-0.476,-0.197,-0.438,-0.737,+0.870,-0.119,-0.491,+9.625,-19.125,+9.125,1, -4, -7, -4, 2, 4, 3, 5
1503514092954,-0.476,-0.193,-0.437,-0.738,+0.862,-0.130,-0.475,+10.938,-13.562,+10.000,-22, -1, 9, -1, 0, -2, -4, -31
1503514092976,-0.477,-0.190,-0.438,-0.738,+0.874,-0.148,-0.473,+10.562,-12.375,+11.438,7, 12, 3, -2, 1, -2, 0, 11
1503514092990,-0.478,-0.187,-0.438,-0.738,+0.894,-0.163,-0.496,+12.062,-11.375,+10.250,-3, -19, -18, -1, 2, 0, -1, -5
1503514093013,-0.478,-0.184,-0.439,-0.739,+0.873,-0.162,-0.484,+13.312,-7.438,+6.375,-7, -1, 5, 5, 2, 1, -1, 14
1503514093037,-0.477,-0.181,-0.440,-0.739,+0.860,-0.159,-0.480,+12.812,-7.438,+4.688,32, 12, -3, -4, -2, -5, -8, -49
1503514093051,-0.477,-0.178,-0.440,-0.739,+0.867,-0.165,-0.492,+13.500,-6.562,+6.625,-11, -6, -1, -1, 1, 2, 0, -1
1503514093073,-0.477,-0.175,-0.442,-0.740,+0.866,-0.195,-0.488,+16.375,-4.562,+6.125,-3, -1, 2, -3, -6, -1, 4, 23
1503514093097,-0.476,-0.172,-0.444,-0.740,+0.862,-0.203,-0.491,+17.188,-0.125,+4.000,38, 16, -1, -1, 2, -2, -1, 17
1503514093110,-0.475,-0.170,-0.445,-0.739,+0.875,-0.195,-0.484,+12.125,-0.188,+6.375,-3, 2, 3, 1, 0, -3, -2, 2
1503514093133,-0.475,-0.169,-0.447,-0.739,+0.874,-0.173,-0.474,+9.438,+3.062,+8.562,2, 0, -4, 0, 3, 3, 3, 7
1503514093155,-0.475,-0.167,-0.450,-0.738,+0.855,-0.181,-0.478,+14.000,+4.812,+7.438,-11, -7, -5, -3, -5, -4, -6, -12
1503514093171,-0.474,-0.165,-0.452,-0.738,+0.843,-0.206,-0.492,+15.250,+5.938,+5.188,1, 1, 0, 5, 8, 8, 1, -10
1503514093193,-0.474,-0.163,-0.454,-0.737,+0.847,-0.210,-0.479,+11.625,+5.812,+6.125,1, -3, 0, -1, -4, -1, 1, 3
1503514093216,-0.474,-0.161,-0.456,-0.736,+0.844,-0.185,-0.478,+10.062,+6.000,+7.188,29, 15, 5, 4, 0, -3, 1, 16
1503514093231,-0.473,-0.160,-0.458,-0.736,+0.824,-0.186,-0.477,+10.500,+4.938,+5.000,11, 5, 5, 0, -1, -1, -1, 15
1503514093253,-0.473,-0.158,-0.459,-0.736,+0.830,-0.207,-0.486,+10.000,+1.812,+3.438,2, 2, -3, -1, 3, 1, 5, -1
1503514093276,-0.472,-0.157,-0.460,-0.736,+0.837,-0.203,-0.492,+8.000,+0.438,+5.125,8, 11, 2, -1, -5, -7, -1, 4
1503514093290,-0.472,-0.156,-0.461,-0.735,+0.826,-0.192,-0.479,+8.375,+3.625,+5.250,5, 1, 7, 8, 7, 6, 1, 20
1503514093313,-0.471,-0.155,-0.462,-0.735,+0.816,-0.171,-0.472,+8.188,+6.750,+2.125,7, -3, -5, -9, -10, -8, -3, -1
1503514093336,-0.470,-0.154,-0.464,-0.735,+0.824,-0.177,-0.486,+8.938,+5.312,+0.812,-25, -3, 6, -1, -2, 1, -6, -22
1503514093354,-0.470,-0.153,-0.464,-0.735,+0.858,-0.203,-0.481,+8.688,+1.062,+2.250,-8, -5, -4, 7, 23, 6, 2, -10
1503514093373,-0.470,-0.152,-0.465,-0.735,+0.849,-0.217,-0.473,+7.125,-0.375,+4.062,-5, -5, -6, -4, 5, 7, 4, -2
1503514093397,-0.470,-0.150,-0.465,-0.735,+0.821,-0.199,-0.502,+5.812,-1.625,+3.750,0, -6, -6, -5, -10, -8, -8, -9
1503514093410,-0.469,-0.149,-0.465,-0.736,+0.823,-0.196,-0.483,+6.062,-3.750,+1.312,-5, 7, 10, -2, -5, -2, -4, 3
1503514093433,-0.469,-0.148,-0.466,-0.736,+0.842,-0.209,-0.459,+8.000,-4.500,+0.500,-5, -2, -2, 6, 12, 17, 4, 3
1503514093455,-0.468,-0.146,-0.466,-0.736,+0.864,-0.236,-0.464,+8.438,-2.438,+2.125,-11, -6, -2, -3, -9, -6, -5, -17
1503514093472,-0.468,-0.145,-0.467,-0.736,+0.845,-0.232,-0.491,+6.500,+0.938,+4.500,0, -1, -2, -3, -12, -8, 1, 3
1503514093493,-0.468,-0.144,-0.468,-0.736,+0.843,-0.223,-0.482,+7.000,+1.875,+4.000,-5, -3, -3, -1, 0, -1, -9, -10
1503514093516,-0.467,-0.142,-0.470,-0.736,+0.875,-0.243,-0.471,+11.750,+2.750,+1.438,3, 0, 0, 0, -14, -9, -2, 5
1503514093532,-0.466,-0.140,-0.472,-0.736,+0.888,-0.272,-0.479,+14.375,+2.750,+2.000,7, 2, -4, 1, 6, 0, -5, -25
1503514093553,-0.465,-0.137,-0.473,-0.736,+0.877,-0.279,-0.491,+13.750,-2.188,+5.625,-7, -2, 1, 0, -7, -5, 6, -2
1503514093575,-0.465,-0.134,-0.473,-0.736,+0.860,-0.280,-0.499,+14.438,-7.188,+9.250,5, 1, -2, 0, -1, -3, -6, -1
1503514093591,-0.466,-0.130,-0.474,-0.736,+0.837,-0.280,-0.491,+17.938,-8.312,+10.000,5, 3, -2, -5, 2, -1, -1, 4
1503514093613,-0.465,-0.125,-0.475,-0.736,+0.828,-0.289,-0.488,+23.875,-7.062,+11.062,-8, -7, -3, -4, -4, -3, -1, 6
1503514093636,-0.465,-0.119,-0.477,-0.736,+0.852,-0.314,-0.494,+25.938,-6.125,+15.688,-1, 4, 6, 7, 13, 3, 0, -1
1503514093651,-0.466,-0.113,-0.479,-0.735,+0.866,-0.306,-0.494,+26.500,-4.938,+20.188,-2, -2, -4, -11, -7, -3, 0, 2
1503514093674,-0.465,-0.108,-0.482,-0.735,+0.871,-0.298,-0.463,+32.000,-3.375,+19.250,8, 1, 1, -1, -3, -1, 2, 0
1503514093695,-0.464,-0.101,-0.486,-0.734,+0.868,-0.312,-0.447,+38.875,+1.875,+17.938,15, 0, -4, -2, -4, 2, 7, 21
1503514093711,-0.463,-0.095,-0.490,-0.732,+0.866,-0.337,-0.469,+40.312,+4.312,+19.562,-9, -3, -2, -4, -8, -3, -2, -4
1503514093734,-0.462,-0.088,-0.494,-0.731,+0.860,-0.340,-0.468,+40.688,+3.438,+22.375,1, 1, -4, -8, -9, -7, 2, 10
1503514093755,-0.461,-0.081,-0.498,-0.730,+0.851,-0.337,-0.469,+42.062,-1.312,+24.812,-15, -6, 4, 4, 4, 2, -7, -38
1503514093771,-0.460,-0.073,-0.501,-0.729,+0.834,-0.342,-0.433,+42.938,-3.562,+25.125,4, 2, 2, 5, 1, -2, -1, 9
1503514093793,-0.459,-0.065,-0.505,-0.728,+0.801,-0.348,-0.455,+45.250,+2.188,+24.375,-7, -3, -4, 1, 4, 3, 2, -5
1503514093815,-0.458,-0.058,-0.510,-0.726,+0.787,-0.348,-0.447,+45.625,+7.875,+26.250,-3, -6, -2, -2, -1, 0, 5, 15
1503514098293,-0.371,-0.239,-0.594,-0.673,+0.968,-0.110,-0.125,-15.875,-5.812,-4.438,-3, 0, -2, -3, -4, -2, -1, -4
1503514098315,-0.371,-0.240,-0.593,-0.673,+0.983,-0.094,-0.125,-11.312,-0.250,-3.375,-3, -3, -4, 0, -1, 0, 1, -1
1503514098338,-0.372,-0.242,-0.594,-0.672,+0.987,-0.105,-0.146,-10.750,+10.062,-3.562,53, 14, -6, -1, -2, -2, -1, 11
1503514098353,-0.371,-0.245,-0.594,-0.671,+0.985,-0.114,-0.141,-9.750,+9.500,-9.500,-15, -12, -9, -9, -7, -1, -1, -3
1503514098376,-0.370,-0.247,-0.593,-0.672,+1.021,-0.107,-0.115,-5.938,-1.312,-14.375,-9, 0, 5, 10, 9, 2, 0, -3
1503514098399,-0.368,-0.248,-0.591,-0.673,+1.015,-0.072,-0.127,-3.500,-4.938,-12.750,1, 1, 4, -3, 1, -4, -1, -3
1503514098413,-0.368,-0.250,-0.591,-0.674,+0.966,-0.043,-0.150,-4.125,+0.188,-6.438,-16, -1, 4, -1, -5, -1, -2, -4
1503514098436,-0.367,-0.251,-0.590,-0.674,+0.969,-0.055,-0.155,-1.375,-0.188,-7.250,-6, -2, -8, -8, -4, -2, 0, 6
1503514098458,-0.365,-0.252,-0.589,-0.675,+1.004,-0.100,-0.123,+0.500,-2.438,-12.438,-11, -6, -6, 3, 4, 7, 4, -3
1503514098474,-0.364,-0.253,-0.588,-0.676,+1.010,-0.128,-0.102,-3.688,-4.938,-15.062,-6, 4, 14, 40, 31, 12, 2, -3
1503514098496,-0.364,-0.256,-0.587,-0.677,+0.969,-0.047,-0.118,-13.062,-3.938,-13.438,-1, -3, 0, -14, -15, -9, -3, -4
1503514098518,-0.363,-0.259,-0.585,-0.677,+0.959,+0.025,-0.130,-10.938,+2.062,-10.375,3, -4, -4, -14, -12, -5, -2, -3
1503514098534,-0.361,-0.261,-0.585,-0.678,+0.996,-0.007,-0.147,-2.875,+1.312,-10.500,10, 3, 2, -4, -7, -8, -4, 0
1503514098555,-0.360,-0.262,-0.583,-0.679,+1.042,-0.068,-0.145,-4.500,-4.062,-11.062,0, 4, -1, -6, 1, 1, 1, 0
1503514098578,-0.361,-0.264,-0.581,-0.680,+1.003,-0.046,-0.149,-13.750,-6.062,-8.125,5, 0, -7, -22, -14, -1, -5, -3
1503514098593,-0.362,-0.266,-0.579,-0.681,+0.964,+0.002,-0.155,-13.312,-8.625,-4.625,-1, -1, -2, 1, 3, 4, -1, 0
1503514098615,-0.362,-0.266,-0.577,-0.682,+0.998,-0.018,-0.172,-6.188,-13.250,-2.250,-21, -13, -7, 0, -2, -3, -1, -6
1503514098640,-0.363,-0.266,-0.574,-0.684,+1.015,-0.050,-0.162,-4.688,-15.438,-3.188,13, -8, -9, 0, -3, -4, -1, 0
1503514098653,-0.364,-0.266,-0.572,-0.686,+0.988,-0.042,-0.159,-8.250,-16.875,-4.062,-4, -4, -4, 0, -3, -1, 1, 0
1503514098676,-0.365,-0.266,-0.569,-0.688,+0.943,-0.032,-0.173,-8.312,-18.188,-5.125,1, 5, 2, -4, -2, -2, 0, 1
1503514098698,-0.365,-0.266,-0.566,-0.690,+0.966,-0.039,-0.172,-4.688,-17.938,-8.562,0, 3, 0, -1, 0, 0, -2, -2
1503514098714,-0.364,-0.267,-0.564,-0.692,+0.991,-0.050,-0.159,-2.500,-13.875,-12.000,-6, -3, 0, 4, -3, -2, 0, -3
1503514098736,-0.364,-0.268,-0.562,-0.693,+0.973,-0.035,-0.174,-4.938,-10.250,-9.562,-6, 4, 5, -2, -2, -2, -1, -1
1503514098758,-0.364,-0.268,-0.560,-0.694,+0.937,-0.018,-0.189,-5.125,-8.625,-7.750,4, -2, 0, 5, 5, 1, 1, 3
1503514098780,-0.363,-0.268,-0.558,-0.696,+0.977,-0.034,-0.189,-1.875,-13.312,-9.188,18, 3, -2, -12, -16, -6, -3, -1
1503514098795,-0.363,-0.268,-0.556,-0.698,+1.017,-0.060,-0.167,-2.500,-15.438,-8.750,4, 1, -1, -6, -8, -4, -1, -1
1503514098818,-0.363,-0.269,-0.554,-0.699,+0.999,-0.060,-0.164,-6.875,-15.000,-7.375,11, 3, -3, 0, -2, 1, -2, 1
1503514098842,-0.363,-0.269,-0.551,-0.701,+0.953,-0.015,-0.218,-4.938,-16.250,-9.812,-9, -5, 0, 5, 4, 2, 2, 1
1503514098855,-0.362,-0.269,-0.548,-0.704,+0.949,-0.004,-0.247,+0.250,-19.500,-13.625,-3, -8, -4, 0, 3, 1, 1, -1
1503514098878,-0.362,-0.268,-0.545,-0.707,+0.976,-0.017,-0.204,+1.750,-19.750,-12.062,-3, -2, -1, 0, 1, -1, -1, -3
1503514098903,-0.361,-0.268,-0.543,-0.709,+0.979,-0.014,-0.199,+0.250,-14.562,-7.938,-13, -10, -1, 2, 2, 0, 1, -2
1503514098915,-0.360,-0.268,-0.541,-0.711,+0.966,-0.004,-0.232,+0.250,-12.000,-9.062,-2, -5, -3, -3, -8, -1, 0, 5
1503514098938,-0.359,-0.268,-0.539,-0.714,+0.982,-0.001,-0.251,+5.000,-17.625,-15.312,-17, -2, 0, -3, -3, 0, -4, -7
1503514098961,-0.357,-0.267,-0.536,-0.717,+1.002,-0.010,-0.247,+9.312,-17.562,-17.750,6, 2, -1, -3, 9, -2, -1, 1
1503514098975,-0.355,-0.266,-0.535,-0.720,+0.979,-0.007,-0.259,+8.750,-14.938,-14.062,5, -9, -13, -8, -10, -3, -1, 0
1503514098998,-0.354,-0.264,-0.532,-0.723,+0.983,-0.002,-0.220,+8.188,-23.062,-9.625,4, -2, 2, 1, 3, 2, 0, 2
1503514099021,-0.353,-0.262,-0.529,-0.726,+1.012,-0.016,-0.212,+9.875,-31.875,-11.375,-21, -7, 8, 1, 0, -1, 2, 5
1503514099040,-0.351,-0.260,-0.525,-0.730,+0.979,-0.010,-0.239,+8.938,-30.688,-17.000,-2, -1, -9, -6, -3, -2, -1, 0
1503514099058,-0.350,-0.259,-0.521,-0.735,+0.914,+0.039,-0.291,+4.938,-31.500,-17.312,1, -4, -5, -1, 3, -1, -1, -5
1503514099080,-0.349,-0.258,-0.516,-0.738,+0.903,+0.062,-0.293,+3.062,-32.312,-8.500,-3, -6, -4, 3, 3, -1, 2, 2
1503514099095,-0.350,-0.257,-0.513,-0.741,+0.946,+0.045,-0.263,+1.812,-26.250,-2.688,8, 6, 3, 0, -6, -3, -1, 0
1503514099118,-0.349,-0.256,-0.512,-0.742,+0.959,+0.037,-0.281,+2.125,-9.688,-0.500,4, 0, -1, -4, -2, -1, -2, 1
1503514099140,-0.350,-0.255,-0.511,-0.743,+0.936,+0.046,-0.313,+1.500,-10.938,+0.938,3, -1, -3, -2, -2, -2, 0, -1
1503514099156,-0.350,-0.254,-0.508,-0.745,+0.949,+0.048,-0.306,+0.000,-20.188,-0.625,0, 0, -2, 2, 2, 3, -1, 0
1503514099178,-0.350,-0.253,-0.506,-0.747,+0.970,+0.042,-0.312,-0.250,-18.688,-2.062,-1, 11, 8, 1, 2, 0, -1, -1
1503514099200,-0.352,-0.252,-0.503,-0.748,+0.954,+0.043,-0.299,-4.000,-18.312,+3.500,3, -1, -2, -3, -2, -3, -3, -2
1503514099216,-0.354,-0.251,-0.501,-0.749,+0.938,+0.042,-0.307,-6.625,-19.000,+6.812,1, 2, 7, 6, 2, 0, -1, -4
1503514099238,-0.355,-0.251,-0.499,-0.750,+0.938,+0.034,-0.336,-4.375,-14.312,+5.125,-1, -3, -5, 1, 1, 0, -1, -5
1503514099260,-0.357,-0.250,-0.498,-0.750,+0.941,+0.007,-0.309,-5.375,-11.062,+4.625,-12, -10, -2, -3, -2, -1, 0, 1
1503514099276,-0.358,-0.251,-0.496,-0.750,+0.931,+0.007,-0.269,-13.562,-10.750,+4.000,-8, -7, -10, -2, 2, -1, 0, -1
1503514099298,-0.360,-0.253,-0.495,-0.750,+0.947,+0.052,-0.314,-16.562,-5.938,+2.688,6, 4, -3, -4, -4, -2, -3, -3
1503514099320,-0.361,-0.253,-0.493,-0.750,+0.946,+0.076,-0.389,-9.625,-4.062,+3.312,7, 8, 9, 3, 0, 0, -3, -2
1503514099336,-0.362,-0.253,-0.491,-0.751,+0.928,+0.030,-0.386,-5.812,-10.875,+3.375,-9, -2, 3, -2, -6, -3, 0, -2
1503514099357,-0.364,-0.253,-0.489,-0.751,+0.925,+0.012,-0.344,-8.812,-14.562,+4.438,0, -9, -6, 0, 2, 0, 1, 0
1503514099382,-0.366,-0.253,-0.488,-0.751,+0.941,+0.028,-0.331,-10.000,-11.688,+6.438,-4, -2, 0, -5, -5, -3, -3, 0
1503514099396,-0.368,-0.252,-0.487,-0.751,+0.936,+0.039,-0.354,-5.688,-4.938,+7.938,12, 2, -3, -2, 0, -1, -1, -2
1503514099419,-0.369,-0.251,-0.487,-0.751,+0.932,+0.016,-0.383,-2.500,-2.750,+10.812,8, 6, 4, 3, 1, -1, 1, 3
1503514099443,-0.371,-0.250,-0.487,-0.750,+0.926,-0.012,-0.360,-4.375,-2.625,+12.625,3, -3, -7, -5, -3, 0, -1, 2
1503514099456,-0.373,-0.250,-0.487,-0.749,+0.939,-0.002,-0.331,-6.750,-1.250,+10.812,-1, 1, 0, 0, -4, -3, -2, 0
1503514099479,-0.375,-0.250,-0.487,-0.748,+0.960,+0.019,-0.340,-5.250,-1.500,+10.438,2, 2, -3, -1, 1, -1, -2, -1
1503514099500,-0.377,-0.249,-0.487,-0.748,+0.953,+0.011,-0.368,-4.125,-6.438,+11.625,3, 4, 9, 4, -2, -1, 0, -3
1503514099516,-0.379,-0.247,-0.485,-0.748,+0.945,+0.017,-0.379,-4.562,-12.812,+10.812,3, -1, 2, 4, 4, 0, 0, 1
1503514099541,-0.380,-0.246,-0.484,-0.749,+0.910,+0.033,-0.376,-1.125,-12.312,+9.125,-2, -1, -3, -1, 2, 0, 0, -2
1503514099560,-0.381,-0.244,-0.483,-0.750,+0.890,+0.015,-0.376,+3.938,-8.125,+7.688,-4, -8, -4, -4, 0, 2, 0, -1
1503514099578,-0.382,-0.242,-0.482,-0.750,+0.878,-0.003,-0.393,+5.125,-5.562,+6.625,-1, 3, 2, -1, -4, -3, 0, 2
1503514099598,-0.382,-0.241,-0.482,-0.751,+0.898,-0.021,-0.385,+5.062,-6.625,+4.688,1, 0, 0, 0, -2, -1, 0, 1
1503514099620,-0.383,-0.239,-0.482,-0.751,+0.908,-0.024,-0.365,+4.500,-6.875,+3.375,12, 10, -1, -2, -1, -1, 0, 5
1503514099636,-0.382,-0.238,-0.482,-0.752,+0.897,-0.025,-0.341,+4.125,-4.938,-0.312,-3, -6, -2, 0, -2, -1, -2, -2
1503514099658,-0.382,-0.237,-0.481,-0.753,+0.868,-0.030,-0.359,+3.625,-4.125,-5.000,-10, -7, -3, -3, -4, -2, -2, -7
1503514099680,-0.380,-0.237,-0.481,-0.753,+0.890,-0.040,-0.356,+2.125,-3.625,-8.438,-7, -9, -9, 0, -1, 0, 0, -3
1503514099696,-0.380,-0.237,-0.481,-0.754,+0.926,-0.036,-0.367,+1.250,-1.625,-6.688,4, -5, -3, -3, -1, -2, -2, -4
1503514099718,-0.379,-0.238,-0.481,-0.754,+0.929,-0.009,-0.363,-1.062,-1.000,-6.750,-11, -5, -3, 3, 1, 0, 2, 5
1503514099743,-0.377,-0.239,-0.480,-0.755,+0.885,+0.035,-0.374,-1.750,-0.625,-10.500,4, -9, -9, -7, -3, -1, 1, 7
1503514099756,-0.375,-0.239,-0.480,-0.756,+0.898,+0.013,-0.369,+1.812,+1.438,-10.062,-3, 0, 1, -1, 1, 1, -1, -5
1503514099779,-0.375,-0.240,-0.481,-0.755,+0.926,-0.028,-0.374,-0.375,+9.875,-4.250,23, 20, 1, -4, -3, -3, -3, 2
1503514099800,-0.374,-0.241,-0.483,-0.754,+0.919,-0.001,-0.371,-2.438,+18.500,-2.938,4, 0, 2, 2, 2, 0, -1, 1
1503514099817,-0.372,-0.243,-0.485,-0.753,+0.959,+0.027,-0.354,+0.625,+12.125,-3.312,0, -6, -6, -2, 1, 2, -1, 0
1503514102763,-0.240,-0.107,-0.651,-0.713,+0.944,-0.209,-0.088,+6.000,+28.875,-33.562,2, 7, 0, -5, -7, 1, 2, 2
1503514102777,-0.235,-0.110,-0.652,-0.712,+0.954,-0.137,-0.142,+9.000,+21.188,-34.250,0, 5, 3, 3, 3, -1, 0, -1
1503514102800,-0.230,-0.112,-0.653,-0.713,+0.969,-0.113,-0.112,+12.312,+7.000,-27.188,2, -1, 0, -2, 0, -2, 0, 18
1503514102823,-0.225,-0.113,-0.653,-0.714,+0.977,-0.120,-0.062,+11.875,+1.812,-24.938,3, -4, -3, 3, 0, 1, 0, 2
1503514102839,-0.220,-0.115,-0.654,-0.715,+0.958,-0.097,-0.067,+12.625,+7.500,-25.875,1, 23, 14, 8, 9, -1, -5, -15
1503514102864,-0.215,-0.116,-0.655,-0.715,+0.952,-0.075,-0.107,+15.125,+12.500,-18.375,-5, -12, -4, -5, -2, 3, 4, -8
1503514102883,-0.212,-0.115,-0.657,-0.715,+0.988,-0.096,-0.098,+15.812,+10.438,-8.562,-5, -11, -8, -2, -1, 1, -2, 2
1503514102898,-0.210,-0.114,-0.659,-0.714,+1.009,-0.120,-0.039,+13.312,+10.250,-6.250,-1, -15, -5, 0, -3, -1, 3, 4
1503514102920,-0.207,-0.114,-0.660,-0.713,+1.012,-0.105,-0.037,+11.312,+8.000,-10.125,5, 12, 2, 3, 3, -1, -5, 1
1503514102943,-0.204,-0.115,-0.660,-0.714,+0.995,-0.040,-0.091,+8.250,+6.000,-6.625,-1, 1, -4, -7, -4, -1, -1, 0
1503514102957,-0.202,-0.114,-0.661,-0.714,+0.980,-0.027,-0.093,+9.875,+2.625,+0.062,-1, 0, -4, -1, -3, -3, -1, -1
1503514102980,-0.201,-0.113,-0.661,-0.714,+1.029,-0.067,-0.043,+10.062,-3.000,+2.188,-3, 1, 2, -3, -3, -1, -1, -3
1503514103003,-0.200,-0.112,-0.661,-0.714,+1.037,-0.079,-0.027,+6.125,+0.562,+1.750,0, 9, 5, 7, 6, 2, 1, -7
1503514103017,-0.199,-0.112,-0.661,-0.715,+0.990,-0.040,-0.046,+1.312,-1.625,+0.125,-1, -12, -6, 5, 3, 0, -3, -3
1503514103040,-0.198,-0.113,-0.660,-0.716,+0.987,-0.028,-0.054,+1.000,-6.000,-2.938,-2, 4, 3, 1, -1, 0, -3, -4
1503514103065,-0.197,-0.113,-0.659,-0.717,+1.000,-0.058,-0.062,+3.625,-8.250,-7.625,-3, -8, -2, 3, 3, 2, 1, -6
1503514103078,-0.196,-0.113,-0.658,-0.718,+1.039,-0.099,-0.047,+0.250,-9.500,-6.062,2, 13, -3, -9, -6, -2, 5, 3
1503514103100,-0.197,-0.114,-0.656,-0.719,+1.026,-0.086,-0.056,-8.625,-13.000,-3.562,5, -8, -9, -10, -6, 0, 4, 27
1503514103123,-0.198,-0.116,-0.653,-0.722,+1.012,-0.050,-0.063,-14.500,-22.875,-2.750,-8, -7, -1, -3, -2, -4, -1, 11
1503514103139,-0.198,-0.118,-0.649,-0.725,+0.962,-0.049,-0.070,-11.938,-28.062,-9.188,2, -3, -3, -2, -3, -2, -4, -11
1503514103160,-0.197,-0.120,-0.645,-0.728,+0.921,-0.085,-0.093,-6.625,-23.625,-18.625,-2, 5, 3, 2, 4, 1, -2, -2
1503514103182,-0.197,-0.122,-0.642,-0.731,+0.926,-0.106,-0.100,-11.562,-19.000,-17.062,-1, -4, -7, -10, -7, -2, -2, 0
1503514103205,-0.198,-0.124,-0.640,-0.732,+0.949,-0.059,-0.119,-16.625,-11.375,-7.625,-1, 5, -4, -2, -5, -2, -2, 8
1503514103220,-0.198,-0.126,-0.639,-0.733,+0.962,-0.027,-0.121,-13.188,-5.125,-6.688,-1, -5, -1, 4, 5, -2, -4, -11
1503514103243,-0.196,-0.128,-0.637,-0.734,+0.961,-0.041,-0.116,-4.062,-8.625,-15.125,1, 7, 3, 0, 7, 2, 0, 6
1503514103258,-0.195,-0.130,-0.635,-0.736,+0.988,-0.071,-0.086,-4.125,-14.062,-15.312,-3, -3, -3, -6, -7, -2, -1, -7
1503514103280,-0.195,-0.130,-0.632,-0.739,+1.012,-0.089,-0.128,-7.062,-21.938,-8.500,1, -9, -7, -2, -2, -1, 0, -5
1503514103303,-0.196,-0.130,-0.629,-0.741,+1.022,-0.090,-0.142,-4.250,-23.438,-4.750,0, -7, -5, -3, -2, 1, 2, -15
1503514103325,-0.195,-0.131,-0.626,-0.744,+1.008,-0.083,-0.143,-2.500,-20.812,-10.438,-6, -4, 0, -1, 1, -1, -2, 3
1503514103344,-0.194,-0.132,-0.622,-0.747,+0.979,-0.044,-0.125,-4.312,-23.625,-14.250,2, 3, 4, 6, 8, 5, 1, 6
1503514103362,-0.193,-0.133,-0.619,-0.750,+0.980,-0.013,-0.116,-2.438,-27.125,-15.125,1, 1, 3, 1, -1, -4, -7, 4
1503514103385,-0.191,-0.133,-0.616,-0.753,+0.994,-0.042,-0.152,+4.875,-19.688,-16.500,-1, 1, 5, 4, 2, 0, -1, 4
1503514103405,-0.188,-0.133,-0.614,-0.755,+0.974,-0.073,-0.185,+6.875,-12.500,-16.000,3, -3, -6, -4, -3, 0, 3, 6
1503514103422,-0.187,-0.133,-0.612,-0.757,+0.968,-0.060,-0.176,+1.188,-17.688,-15.688,-3, 1, -3, -6, -3, -2, 0, -2
1503514103445,-0.185,-0.135,-0.608,-0.760,+1.012,-0.005,-0.140,-1.812,-26.000,-16.750,2, 7, 8, 6, 2, -1, -3, -6
1503514103460,-0.183,-0.136,-0.606,-0.762,+1.019,+0.030,-0.160,+2.188,-19.625,-15.812,-2, 5, 4, 1, 0, 2, 0, -13
1503514103483,-0.181,-0.136,-0.604,-0.764,+0.964,+0.014,-0.200,+5.500,-12.875,-11.625,1, 10, 6, 0, -2, -2, 0, 0
1503514103505,-0.179,-0.136,-0.601,-0.767,+0.956,-0.010,-0.222,+3.250,-15.188,-11.000,-6, 0, -4, 0, 0, 0, 2, 11
1503514103521,-0.178,-0.136,-0.599,-0.769,+1.008,+0.009,-0.185,+1.312,-18.500,-12.688,2, -3, -1, -1, -3, -3, -2, -3
1503514103544,-0.176,-0.137,-0.597,-0.771,+1.042,+0.040,-0.170,+3.000,-15.438,-10.188,-1, 1, -1, 1, 0, -1, -1, -1
1503514103565,-0.175,-0.137,-0.595,-0.772,+0.992,+0.048,-0.209,+3.062,-13.375,-5.375,3, 2, 2, 3, 3, 0, -2, 12
1503514103580,-0.174,-0.137,-0.593,-0.774,+0.962,+0.035,-0.195,+0.625,-19.312,-3.625,-3, 2, 2, 1, -1, -1, 0, 2
1503514103603,-0.174,-0.137,-0.591,-0.776,+1.000,+0.021,-0.188,-3.500,-17.500,-2.375,2, 4, 0, 2, 3, 0, -1, 3
1503514103618,-0.175,-0.137,-0.590,-0.776,+1.000,+0.023,-0.182,-6.375,-7.250,+3.250,-3, -10, -6, -6, -6, -1, 0, -4
1503514103641,-0.177,-0.138,-0.589,-0.776,+0.974,+0.033,-0.203,-8.625,-5.750,+5.562,0, 2, 2, 2, 1, 0, -2, -7
1503514103663,-0.178,-0.139,-0.587,-0.777,+1.009,+0.041,-0.209,-13.688,-12.562,+2.250,-1, -3, -3, -5, -1, 0, 0, -3
1503514103686,-0.180,-0.141,-0.585,-0.778,+1.019,+0.051,-0.215,-14.750,-16.938,+2.438,-1, -9, -1, 0, -2, -2, -2, -1
1503514103704,-0.182,-0.142,-0.582,-0.780,+0.997,+0.034,-0.196,-16.000,-19.312,+3.375,-1, 2, 5, 2, -1, 0, -3, -2
1503514103722,-0.184,-0.145,-0.579,-0.781,+0.956,+0.048,-0.225,-20.938,-17.188,+1.812,-6, 3, -9, -9, -6, -2, -2, -10
1503514103745,-0.187,-0.147,-0.576,-0.782,+0.949,+0.044,-0.248,-20.500,-18.188,+1.750,2, -5, -4, -4, -2, 0, 3, 8
1503514103760,-0.189,-0.148,-0.573,-0.784,+0.982,+0.005,-0.264,-17.812,-20.875,+2.938,-1, 2, 6, 2, 0, -1, 0, -3
1503514103783,-0.192,-0.149,-0.570,-0.785,+0.983,-0.018,-0.290,-17.812,-20.500,+1.875,-1, 5, 0, -3, -2, -3, -2, -4
1503514103806,-0.194,-0.150,-0.566,-0.787,+0.938,+0.013,-0.264,-19.312,-23.500,+1.562,-4, 7, 12, 9, 4, 0, -4, -20
1503514103820,-0.197,-0.151,-0.562,-0.789,+0.922,+0.036,-0.268,-16.500,-25.875,+2.812,-1, 6, 1, 1, -2, -4, -3, 7
1503514103843,-0.199,-0.152,-0.558,-0.791,+0.927,+0.024,-0.307,-11.500,-20.625,+3.312,1, -7, -6, -2, -2, 0, 1, 1
1503514103865,-0.201,-0.152,-0.555,-0.793,+0.931,-0.007,-0.307,-10.500,-20.438,+3.938,0, -2, 0, -2, 0, 0, 1, 6
1503514103880,-0.204,-0.152,-0.552,-0.794,+0.935,+0.001,-0.285,-13.312,-20.938,+9.062,-2, -6, -10, -4, 0, 0, -1, -8
1503514103905,-0.206,-0.152,-0.550,-0.795,+0.929,+0.028,-0.285,-13.125,-17.938,+10.188,0, -3, -3, -3, -2, -2, -2, 6
1503514103925,-0.208,-0.152,-0.548,-0.796,+0.915,+0.039,-0.326,-8.188,-11.938,+7.938,2, -10, -4, -1, -1, -1, 0, -1
1503514103943,-0.210,-0.151,-0.547,-0.796,+0.923,+0.012,-0.323,-6.938,-7.938,+9.812,1, 0, 0, 1, 0, -3, -2, 17
1503514103962,-0.213,-0.151,-0.546,-0.796,+0.927,+0.004,-0.293,-12.125,-6.812,+11.250,7, 3, -6, -4, -1, -1, -1, 5
1503514103985,-0.216,-0.152,-0.545,-0.796,+0.951,-0.000,-0.299,-13.000,-6.938,+9.438,-2, 0, 2, 7, 2, 1, 0, -6
1503514104000,-0.218,-0.152,-0.543,-0.796,+0.972,-0.005,-0.322,-11.562,-9.750,+8.438,-8, -3, 1, -6, -3, 0, -2, -14
1503514104023,-0.221,-0.152,-0.541,-0.797,+0.967,+0.012,-0.335,-11.312,-14.438,+10.688,-17, -5, 0, 7, 4, -1, -1, 1
1503514104045,-0.224,-0.152,-0.538,-0.798,+0.938,+0.021,-0.340,-12.500,-20.688,+11.500,3, -2, -1, -8, -9, -1, 1, 1
1503514104060,-0.226,-0.152,-0.536,-0.799,+0.916,-0.003,-0.318,-11.250,-17.000,+9.312,17, 12, 3, 6, 13, 6, 1, 8
1503514104083,-0.228,-0.152,-0.535,-0.799,+0.916,-0.013,-0.336,-9.312,-3.250,+8.500,3, -1, 0, 7, 5, 7, 4, 0
1503514104107,-0.231,-0.151,-0.536,-0.798,+0.945,-0.011,-0.371,-7.688,+5.625,+14.938,-21, -18, -7, -5, -3, 11, -1, 4
1503514104120,-0.234,-0.151,-0.536,-0.797,+0.990,-0.009,-0.337,-8.625,+2.562,+18.938,10, 8, 2, -7, -3, 4, 6, 5
1503514104143,-0.237,-0.150,-0.536,-0.796,+1.017,-0.013,-0.305,-7.438,-3.250,+16.562,8, 3, 2, 7, 7, -11, 0, 1
1503514104158,-0.239,-0.149,-0.536,-0.796,+0.991,-0.030,-0.322,-3.875,-7.750,+13.625,-8, 1, 0, 1, 8, 52, -3, -3
1503514104181,-0.241,-0.147,-0.535,-0.796,+0.945,-0.038,-0.346,-2.562,-7.375,+14.062,-4, 2, 1, -1, -1, -10, 4, 5
1503514104203,-0.244,-0.146,-0.534,-0.796,+0.924,-0.026,-0.361,-2.188,-6.938,+17.500,-11, -10, -8, -7, -15, -27, 3, -10
1503514104218,-0.247,-0.144,-0.535,-0.795,+0.930,-0.035,-0.346,-1.312,-2.062,+19.562,-2, -2, 2, -1, 6, 4, -2, 3
1503514104242,-0.249,-0.142,-0.535,-0.795,+0.947,-0.038,-0.334,-0.688,-1.562,+18.375,3, -2, -1, -7, -23, -19, -7, -2
1503514104263,-0.251,-0.140,-0.535,-0.794,+0.933,-0.026,-0.366,+0.375,-1.500,+19.938,5, -2, -8, -1, 3, -12, -3, -3
1503514104285,-0.254,-0.138,-0.535,-0.794,+0.908,-0.034,-0.356,+2.312,-4.375,+22.125,-9, -9, -4, 0, -5, -15, -9, -5
1503514104308,-0.257,-0.135,-0.535,-0.794,+0.915,-0.056,-0.359,+3.625,-2.500,+20.375,-8, -3, -4, -10, -10, -4, -3, -2
1503514104322,-0.259,-0.132,-0.535,-0.793,+0.938,-0.065,-0.353,+3.500,-0.562,+22.312,-5, -2, 2, 3, 28, 3, 1, -2
1503514104345,-0.262,-0.129,-0.535,-0.793,+0.934,-0.068,-0.352,+1.938,-7.562,+25.562,6, 3, 0, 0, -11, 0, 0, 3
1503514104360,-0.265,-0.127,-0.534,-0.793,+0.905,-0.061,-0.338,+0.375,-9.312,+23.188,6, 5, 6, -1, -2, -1, -1, 3
1503514104383,-0.267,-0.125,-0.535,-0.792,+0.878,-0.052,-0.331,+3.500,-1.625,+16.625,-6, 5, 8, 3, 3, 0, 1, 0
1503514104407,-0.268,-0.123,-0.536,-0.791,+0.895,-0.079,-0.351,+6.062,+3.688,+14.562,7, -3, -5, 1, 4, 7, 0, -2
1503514104420,-0.270,-0.121,-0.536,-0.791,+0.926,-0.097,-0.351,+2.312,+2.250,+16.750,-12, -4, -4, -3, 1, -2, -2, 1
1503514104443,-0.272,-0.119,-0.536,-0.790,+0.936,-0.087,-0.345,-0.250,-2.188,+16.688,3, -7, -5, -1, -2, -2, 3, 4
1503514104458,-0.273,-0.118,-0.536,-0.790,+0.902,-0.069,-0.360,+2.312,-3.750,+12.188,11, -3, -3, -3, 0, -7, -2, -3
1503514104480,-0.274,-0.116,-0.535,-0.791,+0.884,-0.090,-0.357,+4.875,-7.500,+6.812,0, -2, -2, 7, 19, 6, 3, 5
1503514104504,-0.274,-0.115,-0.535,-0.791,+0.896,-0.126,-0.352,+2.500,-4.438,+6.312,9, 3, -4, -9, -13, -2, 1, 3
1503514104524,-0.276,-0.113,-0.535,-0.790,+0.926,-0.133,-0.341,-1.188,-2.062,+11.438,-14, 7, 13, 4, 0, -4, -1, -4
1503514104543,-0.278,-0.112,-0.535,-0.790,+0.945,-0.116,-0.355,-1.750,-3.812,+12.625,-7, -12, -8, -1, 2, 0, -2, -1
1503514104563,-0.278,-0.111,-0.535,-0.790,+0.930,-0.097,-0.348,+0.312,-4.250,+6.812,12, 7, 0, -2, -7, -9, 1, 6
1503514104579,-0.278,-0.111,-0.534,-0.791,+0.913,-0.111,-0.347,+3.000,-4.688,+1.750,6, 5, 2, 4, 5, 3, -1, -3
1503514104601,-0.278,-0.109,-0.534,-0.791,+0.912,-0.128,-0.367,+3.500,-4.125,+2.062,-5, -8, -3, -6, -10, -6, -4, -18
1503514104623,-0.278,-0.108,-0.533,-0.791,+0.933,-0.136,-0.357,+1.500,-5.562,+3.875,-5, -3, -5, 1, 1, -7, 1, 4
1503514104638,-0.279,-0.108,-0.533,-0.791,+0.931,-0.127,-0.324,-0.688,-4.375,+3.188,0, -3, 0, 4, 1, 1, -2, 6
1503514104660,-0.279,-0.107,-0.533,-0.792,+0.922,-0.127,-0.343,+1.312,-2.562,+0.750,7, 3, -1, 4, 19, 2, -2, 5
1503514104684,-0.278,-0.107,-0.533,-0.792,+0.918,-0.138,-0.371,+1.812,+0.250,+0.062,7, -1, -2, -7, -12, -4, -1, 1
1503514104700,-0.278,-0.107,-0.533,-0.792,+0.931,-0.146,-0.349,-0.250,-0.062,+1.625,-6, 1, -4, -1, -2, 2, 0, -3
1503514104720,-0.279,-0.107,-0.534,-0.792,+0.925,-0.137,-0.351,-1.062,-0.438,+2.250,6, 4, 10, 3, 1, 3, 1, 3
1503514104745,-0.279,-0.106,-0.533,-0.792,+0.913,-0.130,-0.355,-0.312,-1.938,+0.875,-8, 14, 10, -2, -3, -3, -5, -18
1503514104759,-0.279,-0.106,-0.533,-0.792,+0.919,-0.134,-0.360,-0.938,-2.125,+2.562,22, 5, -11, -7, -8, -1, -1, 0
1503514104782,-0.280,-0.105,-0.533,-0.792,+0.929,-0.130,-0.357,-1.625,-3.250,+4.125,7, 8, 9, 3, 4, 5, -1, 2
1503514104802,-0.280,-0.105,-0.533,-0.791,+0.927,-0.134,-0.347,-1.000,+0.750,+2.625,3, 7, 5, 6, -1, -2, -2, 1
1503514104820,-0.280,-0.105,-0.534,-0.791,+0.915,-0.127,-0.364,-0.500,+2.812,+1.938,6, 8, -1, -8, -9, -2, 1, -1
1503514104841,-0.280,-0.105,-0.534,-0.791,+0.914,-0.130,-0.366,+0.000,+0.875,+1.000,3, -4, -3, -1, 2, 7, -2, 11
1503514104862,-0.280,-0.105,-0.534,-0.791,+0.925,-0.137,-0.366,-0.438,+1.312,+1.188,7, 0, -1, 0, 2, 0, 2, 18
1503514104879,-0.280,-0.105,-0.534,-0.791,+0.935,-0.128,-0.354,-1.562,+0.938,+3.625,-9, -10, -3, -4, -3, -3, 0, 1
1503514104901,-0.281,-0.105,-0.535,-0.790,+0.920,-0.133,-0.347,-1.625,+1.688,+2.688,-3, 0, 0, -2, -6, -3, 1, 0
1503514104922,-0.281,-0.104,-0.535,-0.790,+0.911,-0.140,-0.353,-0.125,+1.688,+1.125,-6, -5, -5, -11, -9, -3, -1, 1
1503514104939,-0.281,-0.104,-0.535,-0.790,+0.915,-0.142,-0.359,+0.312,+3.125,+2.812,-5, 0, 2, 4, 11, 8, 2, -7
1503514104961,-0.281,-0.103,-0.536,-0.789,+0.921,-0.136,-0.376,+0.438,+2.438,+5.750,6, 6, 3, 3, 0, -20, -3, 6
1503514104983,-0.282,-0.103,-0.536,-0.789,+0.924,-0.136,-0.350,-1.438,-0.625,+3.688,-2, -4, -2, -3, -7, 1, 0, 1
1503514104999,-0.282,-0.103,-0.536,-0.789,+0.919,-0.136,-0.347,-1.562,-0.750,+3.000,-2, -4, -5, -10, -8, 0, -6, -1
1503514105021,-0.283,-0.102,-0.536,-0.789,+0.914,-0.133,-0.377,-0.125,+0.250,+5.062,0, -2, 2, -1, -2, 2, -1, -3
1503514105045,-0.283,-0.102,-0.536,-0.789,+0.905,-0.133,-0.370,+0.688,+1.375,+6.312,1, -3, 0, 2, 3, 10, 4, 12
1503514105058,-0.284,-0.101,-0.536,-0.789,+0.922,-0.135,-0.349,+0.938,+0.125,+4.562,-10, -1, 5, -5, -9, -2, -2, -11
1503514105081,-0.284,-0.101,-0.536,-0.789,+0.919,-0.135,-0.343,+1.688,-1.562,+2.625,-8, -2, 3, 3, -1, -2, 3, 16
1503514105102,-0.284,-0.100,-0.537,-0.789,+0.922,-0.146,-0.350,+2.812,-0.250,+2.625,1, -1, -3, 0, 7, 6, -4, 2
1503514105119,-0.284,-0.099,-0.537,-0.788,+0.905,-0.146,-0.354,+1.625,+2.750,+3.062,15, 7, 1, 0, -7, -7, -1, 6
1503514105141,-0.284,-0.099,-0.538,-0.788,+0.913,-0.143,-0.354,+1.125,+2.500,+4.438,2, 2, -7, -3, 1, -1, 5, 6
1503514105162,-0.284,-0.098,-0.538,-0.788,+0.916,-0.144,-0.356,+0.625,+1.188,+3.562,-6, -3, 4, 3, 6, 2, -1, -3
1503514105181,-0.284,-0.098,-0.538,-0.788,+0.908,-0.153,-0.360,+0.625,-1.250,-0.938,7, 9, 10, 6, 1, 4, 5, 4
1503514105200,-0.284,-0.098,-0.537,-0.788,+0.908,-0.144,-0.355,-0.438,-3.250,-1.062,-17, -8, -8, -3, -6, -6, 4, -10
1503514105223,-0.284,-0.098,-0.537,-0.788,+0.906,-0.133,-0.354,-1.562,-2.250,+3.000,-4, -5, -1, 0, 0, -1, -3, -3
1503514105247,-0.284,-0.098,-0.537,-0.788,+0.907,-0.135,-0.353,-1.562,+0.438,+2.938,4, -8, -8, 3, 3, -4, 0, 0
1503514105261,-0.284,-0.098,-0.537,-0.788,+0.913,-0.144,-0.356,-0.438,+0.875,-1.188,-15, 3, 6, -2, -7, 2, 4, 1
1503514105284,-0.284,-0.098,-0.537,-0.788,+0.920,-0.143,-0.356,-0.062,-0.438,-1.188,-8, -5, -3, -3, -2, -3, -2, -3
1503514109805,-0.297,-0.116,-0.489,-0.812,+0.808,-0.122,-0.449,-4.438,+2.625,-15.500,-3, -5, -7, -7, -4, 0, 2, -1
1503514109827,-0.295,-0.118,-0.490,-0.812,+0.869,-0.116,-0.459,-0.875,+4.875,-14.812,5, -1, -1, -1, -3, 2, 4, 22
1503514109844,-0.294,-0.118,-0.490,-0.812,+0.924,-0.093,-0.460,-1.812,+0.938,-6.375,-2, 2, 1, -3, -3, -1, -2, -10
1503514109865,-0.294,-0.119,-0.490,-0.812,+0.924,-0.049,-0.441,-0.312,-0.625,-0.250,0, 2, 2, 0, 1, -2, -1, 2
1503514109889,-0.292,-0.119,-0.491,-0.812,+0.892,-0.011,-0.433,+7.000,+5.125,-3.562,3, 2, 0, -1, -4, -3, -1, 28
1503514109903,-0.291,-0.120,-0.492,-0.812,+0.910,-0.010,-0.438,+4.250,+13.188,-4.250,-1, -3, -6, -1, 0, 0, 0, -11
1503514109925,-0.291,-0.120,-0.494,-0.811,+0.942,-0.063,-0.446,-0.500,+9.562,+5.562,-5, -3, -1, -2, 0, 0, 0, -9
1503514109948,-0.293,-0.120,-0.495,-0.810,+0.937,-0.117,-0.470,-5.562,+4.438,+10.625,-1, -1, -1, -5, -4, -1, 0, -6
1503514109963,-0.295,-0.121,-0.495,-0.808,+0.893,-0.105,-0.464,-13.062,+3.938,+13.750,-2, -3, -1, -3, -1, -2, -2, -3
1503514109985,-0.300,-0.120,-0.493,-0.808,+0.908,-0.090,-0.458,-14.250,-9.562,+23.250,-2, 3, 0, -4, -1, 2, 0, -3
1503514110007,-0.306,-0.118,-0.490,-0.807,+0.904,-0.129,-0.447,-15.875,-19.000,+31.062,1, 0, -1, -1, -2, -3, -2, -8
1503514110023,-0.312,-0.116,-0.487,-0.807,+0.832,-0.170,-0.454,-16.750,-21.625,+33.625,2, 0, 1, 4, 6, 1, -1, -4
1503514110047,-0.319,-0.113,-0.485,-0.807,+0.811,-0.170,-0.461,-14.312,-17.562,+31.938,-2, -2, -8, -7, -4, 1, 0, -1
1503514110067,-0.323,-0.112,-0.483,-0.806,+0.842,-0.172,-0.468,-12.312,-11.812,+23.438,-4, -2, 0, 2, -1, -1, -4, -7
1503514110084,-0.325,-0.112,-0.482,-0.806,+0.855,-0.172,-0.414,-10.062,-6.875,+7.250,-2, -1, 2, 1, 1, 0, -2, -7
1503514110105,-0.325,-0.112,-0.482,-0.806,+0.815,-0.121,-0.368,-4.562,-2.812,-1.062,-1, 2, -1, 0, -2, -2, 1, 1
1503514110127,-0.323,-0.113,-0.484,-0.805,+0.776,-0.119,-0.425,+3.000,+14.688,-7.500,1, -3, -4, -2, 1, 0, 0, -5
1503514110143,-0.320,-0.115,-0.487,-0.804,+0.809,-0.179,-0.428,+0.750,+27.250,-20.625,-2, 0, -2, 0, 0, -2, 0, -2
1503514110165,-0.317,-0.120,-0.491,-0.803,+0.930,-0.149,-0.389,-9.062,+24.062,-24.188,1, 3, 2, 3, 1, 1, -2, 1
1503514110188,-0.314,-0.123,-0.492,-0.802,+0.970,-0.063,-0.443,-2.062,+15.000,-19.562,1, -1, -3, -8, -6, -2, 1, 2
1503514110203,-0.311,-0.123,-0.492,-0.804,+0.890,-0.085,-0.482,+6.688,-4.062,-16.562,0, 5, 4, 5, 4, -1, -3, -2
1503514110225,-0.308,-0.123,-0.488,-0.807,+0.849,-0.129,-0.443,+4.438,-21.812,-23.000,3, 3, 6, 3, -1, -4, -24, -3
1503514110249,-0.305,-0.123,-0.486,-0.810,+0.871,-0.138,-0.441,+3.250,-16.562,-22.562,-1, -3, -6, -7, -3, -2, -4, -8
1503514110263,-0.303,-0.122,-0.485,-0.811,+0.877,-0.128,-0.489,+3.312,-8.312,-11.438,-11, -4, -2, 0, 0, -1, -2, 1
1503514110285,-0.303,-0.123,-0.484,-0.812,+0.866,-0.080,-0.480,-2.438,-2.875,-1.500,0, -2, -1, -3, -4, -2, 1, -2
1503514110307,-0.302,-0.123,-0.484,-0.812,+0.857,-0.043,-0.442,-1.125,+0.062,-4.688,2, 3, 2, -3, -4, 0, -5, -1
1503514110323,-0.299,-0.124,-0.484,-0.813,+0.907,-0.054,-0.441,+7.000,+3.000,-12.500,11, 4, -4, -4, 0, 1, 2, 4
1503514110345,-0.297,-0.123,-0.484,-0.814,+0.940,-0.096,-0.478,+10.812,-5.500,-12.812,6, -3, -5, -2, 5, -2, -2, 1
1503514110367,-0.295,-0.122,-0.482,-0.816,+0.905,-0.096,-0.471,+6.062,-14.500,-9.062,-7, 2, 1, 0, 1, 1, -1, 0
1503514110383,-0.293,-0.122,-0.481,-0.817,+0.856,-0.045,-0.447,+4.188,-12.500,-8.688,5, -2, -9, -16, -16, -2, -1, 0
1503514110405,-0.291,-0.121,-0.480,-0.819,+0.861,-0.044,-0.454,+9.312,-4.812,-7.438,-14, -4, 4, 20, 16, 6, 2, -4
1503514110427,-0.290,-0.120,-0.481,-0.819,+0.889,-0.075,-0.466,+11.250,+1.188,-2.562,-1, -4, -2, 0, -5, -6, -1, -2
1503514110443,-0.289,-0.118,-0.482,-0.819,+0.897,-0.081,-0.475,+7.438,+1.188,+0.438,-8, -9, -2, 1, 1, -24, -15, -8
1503514110466,-0.288,-0.118,-0.481,-0.819,+0.891,-0.078,-0.483,+3.625,-3.438,-1.938,-3, 5, 8, 4, 9, 2, -2, -3
1503514110487,-0.287,-0.117,-0.480,-0.820,+0.879,-0.085,-0.466,+4.625,-6.688,-6.125,-66, -8, 1, 2, 1, -15, -2, -13
