Timestamp,Orientation X,Orientation Y,Orientation Z,Orientation W,Accelerometer X,Accelerometer Y,Accelerometer Z,Gyroscope X,Gyroscope Y,Gyroscope Z,EMG1,EMG2,EMG3,EMG4,EMG5,EMG6,EMG7,EMG8,Roll,Yaw,Window
1503514038314,-0.382,-0.241,-0.497,-0.741,+0.921,-0.056,-0.341,+5.000,-11.312,-8.062,9, 3, -2, -1, -2, 0, 0, 10,0.9371122904797293,1.170277128775905,0
1503514038333,-0.382,-0.240,-0.496,-0.742,+0.933,-0.030,-0.353,-0.250,-8.875,-6.125,-12, -4, -3, 3, 3, -3, -3, -10,0.9359163976887358,1.1670728722889145,0
1503514038356,-0.381,-0.239,-0.494,-0.744,+0.901,+0.008,-0.399,+4.500,-9.188,-5.812,11, 1, -2, -3, -1, -3, 0, 30,0.93278395682833,1.1616709709828343,0
1503514038372,-0.379,-0.238,-0.493,-0.746,+0.884,-0.017,-0.402,+11.688,-8.250,-10.125,3, -2, 2, 0, 1, -1, -2, -7,0.9278329433473473,1.1584944783894577,0
1503514038394,-0.377,-0.237,-0.493,-0.747,+0.860,-0.046,-0.327,+10.250,-2.375,-11.375,-6, -2, 0, -5, -5, -2, -3, -6,0.9227221218504721,1.157334941854831,0
1503514038416,-0.375,-0.237,-0.494,-0.747,+0.877,-0.020,-0.292,+3.125,+5.688,-6.000,17, 10, -2, -1, 0, 2, 4, -1,0.918804089518687,1.159363666402682,0
1503514038432,-0.374,-0.238,-0.495,-0.747,+0.930,+0.010,-0.361,+4.875,+10.625,-4.562,-5, 3, 6, 0, -2, -1, -3, 2,0.9183501654675319,1.1627556702857527,0
1503514038454,-0.371,-0.237,-0.496,-0.748,+0.978,+0.001,-0.407,+13.312,+6.062,-9.438,-5, -1, 4, 1, -8, -13, -2, -4,0.9114570028474399,1.163828868042334,0
1503514038475,-0.369,-0.236,-0.495,-0.750,+0.976,-0.027,-0.365,+12.125,-10.688,-13.312,-6, -5, -8, -7, -3, 3, -2, -5,0.9065426795157412,1.1606628431944879,0
1503514038496,-0.367,-0.234,-0.492,-0.754,+0.935,-0.022,-0.329,+8.125,-27.750,-16.125,2, 1, -4, -2, 0, -2, 0, 5,0.9006185976776582,1.1523209988118137,0
1503514038518,-0.365,-0.233,-0.489,-0.758,+0.900,+0.006,-0.324,+8.000,-28.688,-18.312,9, 6, 2, 2, 2, 3, 1, 4,0.8960547601526386,1.145168713084588,0
1503514038536,-0.362,-0.232,-0.487,-0.760,+0.882,+0.026,-0.379,+9.625,-12.938,-17.188,9, 5, 1, 5, -1, -14, -2, 2,0.8887941402913193,1.13944102887454,0
1503514038553,-0.360,-0.232,-0.486,-0.762,+0.884,+0.024,-0.387,+9.125,-3.750,-10.750,-4, -4, -4, -5, -18, 0, 2, 21,0.8852514232356868,1.1374628474760728,0
1503514038574,-0.359,-0.231,-0.486,-0.763,+0.939,+0.005,-0.340,+3.812,-4.875,-4.688,7, -4, -1, 1, 5, -3, -1, 28,0.8822964998041596,1.1365345782217073,0
1503514038596,-0.358,-0.231,-0.486,-0.763,+0.971,-0.002,-0.333,+0.375,-3.625,-3.938,-19, -10, -5, -1, 2, -2, 6, 26,0.8802194700978834,1.1363401815975147,0
1503514038612,-0.358,-0.231,-0.485,-0.764,+0.958,-0.002,-0.360,+0.562,-7.562,-4.250,-9, -2, 1, 1, 3, -4, -4, -26,0.8803812399633908,1.1343450449318393,0
1503514038634,-0.358,-0.230,-0.482,-0.766,+0.944,+0.016,-0.379,+0.625,-22.625,-3.188,-2, -4, -6, -5, 2, 7, -1, -24,0.8790857930049722,1.1268262864158105,0
1503514038658,-0.358,-0.229,-0.478,-0.769,+0.953,+0.011,-0.365,-2.062,-30.688,-6.312,-25, -6, 0, 2, 6, 8, -2, -22,0.8779655857202892,1.117355812220505,0
1503514038672,-0.358,-0.229,-0.474,-0.771,+0.881,+0.029,-0.390,-4.500,-23.625,-8.375,4, -8, -5, -2, 2, 5, 3, 15,0.8777100488218297,1.108642782913362,0
1503514038694,-0.358,-0.228,-0.471,-0.773,+0.847,+0.011,-0.407,-1.438,-21.625,-7.625,6, 14, 8, 0, -1, -1, -2, 4,0.8764417603820458,1.1012047421773428,0
1503514038717,-0.359,-0.228,-0.469,-0.774,+0.878,+0.002,-0.393,-6.812,-12.500,-4.312,21, 10, 2, -3, -4, 0, 0, -1,0.8784092018537136,1.0970825951676413,0
1503514038732,-0.359,-0.229,-0.469,-0.774,+0.888,+0.048,-0.404,-7.000,+0.875,-1.562,-8, -10, -2, -4, -4, 0, -2, 2,0.8797115629538089,1.0982234499828556,0
1503514038755,-0.358,-0.230,-0.469,-0.774,+0.909,+0.044,-0.388,-4.062,+1.375,-1.250,27, 10, 2, -1, 3, 3, 3, 32,0.8789250263812487,1.0991584134355137,0
1503514038776,-0.358,-0.231,-0.468,-0.774,+0.938,+0.030,-0.408,-6.000,+1.000,-0.875,2, 4, 7, 2, 0, 2, 3, 40,0.8799390888604302,1.0979317703640334,0
1503514038792,-0.359,-0.232,-0.468,-0.774,+0.944,+0.021,-0.406,-7.062,-1.250,+1.438,-6, 1, 1, -2, -2, -3, -2, 5,0.8833406555464495,1.0992933411491763,0
1503514038814,-0.360,-0.232,-0.468,-0.773,+0.958,+0.013,-0.409,-7.875,-4.750,+4.688,-7, -11, -8, -1, 4, -6, -5, -22,0.8849778594380948,1.0990788933310747,0
1503514038837,-0.362,-0.232,-0.467,-0.773,+0.952,+0.002,-0.401,-8.312,-6.000,+6.438,-28, -12, -2, 3, -4, -5, -6, -36,0.8888773489494001,1.0971323896426608,0
1503514038852,-0.363,-0.232,-0.466,-0.772,+0.914,+0.013,-0.413,-7.500,-3.188,+5.750,11, 1, -3, -5, -5, -3, -2, 15,0.8902283621728992,1.0945508575786524,0
1503514038874,-0.364,-0.232,-0.467,-0.772,+0.888,+0.012,-0.388,-4.125,+0.625,+4.000,18, 7, -7, -4, -2, -3, 0, -5,0.892621986015705,1.0971296528733807,0
1503514038896,-0.364,-0.232,-0.468,-0.771,+0.905,-0.010,-0.381,-2.438,+8.375,+2.562,-31, -19, -6, -4, 2, 8, 1, -31,0.8924563223749438,1.0990716207525175,0
1503514038912,-0.365,-0.233,-0.471,-0.769,+0.944,-0.046,-0.388,-1.688,+14.125,+4.188,2, 0, -1, 0, 1, -2, -1, 12,0.8958311556042191,1.1067052104668489,0
1503514038934,-0.365,-0.233,-0.473,-0.768,+0.953,-0.053,-0.382,-2.188,+12.312,+4.188,0, 0, 7, 4, 2, 6, -2, -11,0.8959573388967369,1.1110330179441281,0
1503514038956,-0.365,-0.233,-0.474,-0.767,+0.936,-0.039,-0.394,-0.812,+8.812,-1.625,-13, -7, -6, -3, -2, 2, -3, -73,0.8957924180968869,1.11299086244327,0
1503514038972,-0.363,-0.233,-0.475,-0.767,+0.930,-0.036,-0.381,+0.562,+6.438,-7.812,6, 8, 2, -4, -3, -5, -3, 23,0.8918926570889364,1.1149596751983095,0
1503514038994,-0.363,-0.233,-0.476,-0.766,+0.946,-0.038,-0.398,+1.000,+4.750,-4.688,-3, -5, -3, -2, -2, -3, -1, 1,0.8917293449919622,1.116924474023629,0
1503514039019,-0.362,-0.233,-0.477,-0.766,+0.939,-0.044,-0.391,-0.500,+4.000,-2.312,19, 7, 1, -2, -5, 0, 1, 26,0.8899311178824904,1.1191055080367758,0
1503514039039,-0.362,-0.233,-0.478,-0.766,+0.912,-0.014,-0.421,+2.125,+9.188,-0.875,-4, -2, 3, 0, -5, -4, -4, -3,0.8902244039171503,1.1214920238782369,0
1503514039061,-0.361,-0.232,-0.480,-0.765,+0.929,+0.016,-0.421,+7.062,+10.125,-0.312,-6, -2, 2, -2, -9, -5, 2, 13,0.8869414257873385,1.1245043581230383,0
1503514039076,-0.359,-0.232,-0.482,-0.765,+0.971,+0.019,-0.386,+10.375,+10.750,+0.750,1, -6, -1, 3, 17, -5, 3, 25,0.8833622298713609,1.1288952318403696,0
1503514039092,-0.358,-0.230,-0.484,-0.764,+1.000,+0.011,-0.376,+12.375,+6.812,+3.375,0, -3, 0, 1, -3, -2, 0, 3,0.8787590906339148,1.1308024987205745,0
1503514042398,-0.171,-0.148,-0.602,-0.766,+1.013,-0.021,-0.175,-12.500,-15.062,+5.625,10, -3, -9, 6, 5, 3, 3, 24,0.45587261609143387,1.3373003271470465,1
1503514042414,-0.173,-0.148,-0.600,-0.767,+0.974,-0.034,-0.196,-12.312,-14.125,+0.938,-7, -19, -12, -6, -2, -2, 0, -4,0.4590091702338635,1.3323279883545618,1
1503514042436,-0.174,-0.149,-0.598,-0.768,+0.937,+0.006,-0.177,-12.812,-13.688,-2.812,6, 0, 1, 1, -1, -1, 0, 2,0.46180914554222285,1.3279574451137024,1
1503514042458,-0.174,-0.150,-0.596,-0.770,+0.927,+0.041,-0.210,-5.688,-9.938,-1.938,-9, 0, 1, 0, 3, 3, 4, -2,0.4632325183309079,1.323821898354434,1
1503514042476,-0.175,-0.149,-0.596,-0.770,+0.935,+0.008,-0.215,-0.062,-0.625,+3.062,10, 4, 2, 3, -1, -19, -5, 1,0.46358856983643987,1.3232301121174437,1
1503514042496,-0.176,-0.149,-0.597,-0.769,+0.975,-0.012,-0.195,-2.750,+8.250,+7.875,-7, -1, 4, -1, 0, 4, -4, 0,0.46523176715424014,1.3256998545116547,1
1503514042519,-0.177,-0.148,-0.599,-0.767,+0.979,+0.030,-0.215,-5.312,+13.188,+12.375,9, 5, -1, 3, 2, -3, -9, -17,0.46548580111707166,1.329915494510658,1
1503514042534,-0.179,-0.148,-0.600,-0.766,+0.975,+0.039,-0.211,-0.500,+6.625,+12.750,-3, 2, 3, -1, -1, 4, 4, 12,0.4688111374163714,1.3324639848428848,1
1503514042556,-0.180,-0.146,-0.600,-0.766,+1.003,+0.006,-0.190,+3.875,+2.688,+11.812,5, 3, -1, 1, 5, 5, -2, 7,0.4678298737486542,1.3312215381269201,1
1503514042578,-0.181,-0.144,-0.600,-0.766,+1.004,-0.007,-0.205,+2.188,-3.062,+9.250,-17, -11, -3, 0, 0, 4, 1, -15,0.4668576454504285,1.3299923891628358,1
1503514042594,-0.181,-0.144,-0.598,-0.767,+0.982,+0.012,-0.200,-3.062,-15.312,+2.750,2, 4, 2, -2, -2, -2, -4, -6,0.4666665318877652,1.3248907404459374,1
1503514042623,-0.181,-0.144,-0.595,-0.770,+0.968,+0.056,-0.204,-3.062,-21.750,-2.938,-11, -7, -5, 3, 3, 0, 3, 1,0.4668647891689227,1.3176989144572415,1
1503514042638,-0.181,-0.144,-0.592,-0.772,+0.930,+0.058,-0.236,+0.875,-17.500,-5.312,-1, 1, 1, -5, -5, -4, 1, -2,0.46673976666827965,1.3102392869888966,1
1503514042654,-0.179,-0.144,-0.590,-0.774,+0.920,+0.036,-0.256,+3.375,-12.562,-8.688,10, 5, 1, 0, -3, 2, 3, 15,0.4634588710250302,1.3053344129955002,1
1503514042678,-0.178,-0.144,-0.587,-0.776,+0.937,+0.038,-0.242,+4.125,-16.812,-8.562,3, 4, 1, 5, 2, -1, -5, -23,0.46161865531986984,1.2978364231305717,1
1503514042698,-0.175,-0.145,-0.584,-0.779,+0.976,+0.064,-0.231,+3.500,-19.188,-14.625,1, 0, 3, -2, -1, -2, -2, -4,0.4579753323232032,1.2911742441066778,1
1503514042715,-0.173,-0.146,-0.582,-0.781,+0.967,+0.099,-0.227,+0.750,-17.438,-17.875,1, 2, 1, 2, -4, -7, -1, 2,0.4559660864953912,1.2869670032754872,1
1503514042736,-0.172,-0.148,-0.579,-0.783,+0.943,+0.126,-0.276,-2.312,-11.562,-5.750,2, 0, -1, 0, 1, 10, 2, 5,0.4566886595212428,1.280851791321273,1
1503514042758,-0.173,-0.148,-0.577,-0.784,+0.921,+0.133,-0.271,-9.000,-12.625,+8.750,8, 3, 0, -1, -1, 0, 2, 16,0.4581785317710747,1.2759352793780627,1
1503514042784,-0.175,-0.149,-0.575,-0.785,+0.950,+0.103,-0.224,-11.062,-11.688,+7.250,-8, -11, -8, -1, 3, 2, -1, -28,0.46268644774110407,1.2717879439151067,1
1503514042796,-0.176,-0.151,-0.575,-0.785,+0.978,+0.063,-0.207,-11.000,-1.938,+3.562,-4, 0, 0, -2, -2, -2, -4, -1,0.4670008236119751,1.2732300887689376,1
1503514042818,-0.179,-0.151,-0.575,-0.784,+0.969,+0.045,-0.256,-12.562,-0.812,+12.125,0, 0, 1, 0, -3, -5, -5, -9,0.47184804138700354,1.2731585213768257,1
1503514042840,-0.182,-0.151,-0.573,-0.785,+0.974,+0.048,-0.268,-17.000,-13.188,+14.938,-2, -2, -2, -4, -2, 2, 2, 9,0.4768105480254038,1.268450180625999,1
1503514042863,-0.185,-0.153,-0.570,-0.786,+0.982,+0.071,-0.237,-19.000,-18.875,+6.312,-9, -11, -10, -8, -6, -1, 4, 17,0.4841163649563172,1.262489927953403,1
1503514042885,-0.187,-0.154,-0.567,-0.787,+0.988,+0.064,-0.239,-15.062,-18.938,+3.062,-1, 2, 1, -2, 0, 0, 2, 2,0.48840182026521195,1.2557816422070942,1
1503514042900,-0.190,-0.154,-0.564,-0.789,+0.947,+0.029,-0.313,-11.688,-18.562,+9.062,-1, 4, 3, 0, 1, -2, -4, -8,0.49349013439685996,1.2488509535695815,1
1503514042917,-0.193,-0.154,-0.560,-0.791,+0.933,+0.006,-0.303,-13.938,-26.688,+9.875,11, -2, -1, 0, 0, -4, -4, -12,0.49834445513938613,1.2393227231432489,1
1503514042938,-0.196,-0.155,-0.556,-0.793,+0.946,+0.033,-0.252,-18.938,-26.812,+3.688,-2, -1, 1, 3, 2, 3, 0, -3,0.504509544731026,1.2305567397749135,1
1503514042960,-0.198,-0.156,-0.554,-0.793,+0.957,+0.032,-0.249,-16.562,-17.562,+3.188,-6, -5, 0, -4, 1, -3, -7, -7,0.5087780841031956,1.2262344190732801,1
1503514042976,-0.202,-0.157,-0.552,-0.794,+0.940,+0.009,-0.279,-15.625,-10.688,+11.438,6, 4, 2, -1, -1, -3, 1, -2,0.5169565596844173,1.2225192908194347,1
1503514042998,-0.205,-0.157,-0.551,-0.794,+0.943,+0.010,-0.312,-16.375,-11.000,+12.062,-2, 1, 4, 4, 3, 3, 3, 7,0.5220329236320261,1.2202257085503248,1
1503514043021,-0.207,-0.158,-0.549,-0.794,+0.972,+0.027,-0.294,-14.000,-11.812,+5.875,19, 10, 4, 0, -1, 1, 1, 6,0.5263306285271957,1.2159499410485277,1
1503514043036,-0.209,-0.159,-0.547,-0.795,+0.987,+0.015,-0.267,-11.062,-14.938,+3.500,-15, -4, -5, -6, -3, -5, 1, -7,0.5309933589932354,1.2120743536650616,1
1503514043058,-0.211,-0.159,-0.545,-0.796,+0.975,+0.018,-0.277,-14.188,-15.062,+7.375,-4, -6, -4, -7, -4, 2, -3, -13,0.5344023979182471,1.2074739919741566,1
1503514043081,-0.214,-0.159,-0.543,-0.796,+0.954,+0.036,-0.334,-13.375,-14.000,+9.625,1, -2, -2, -1, -2, -2, -10, 3,0.5392653344966671,1.2026110938147128,1
1503514043096,-0.216,-0.159,-0.541,-0.797,+0.935,+0.025,-0.363,-6.875,-12.188,+10.438,14, -4, -5, 0, 2, -3, -8, -6,0.5427064236770064,1.1980366265294013,1
1503514043118,-0.219,-0.158,-0.539,-0.798,+0.943,+0.003,-0.313,-6.875,-12.688,+9.125,-1, 2, 0, 4, -1, -4, -8, -30,0.5467295614289293,1.1928424481779023,1
1503514043140,-0.221,-0.158,-0.538,-0.798,+0.954,+0.020,-0.297,-10.938,-9.688,+11.938,-23, 3, 5, 1, -3, -3, 1, -6,0.5501016709063477,1.1904845720124673,1
1503514043156,-0.224,-0.158,-0.537,-0.798,+0.933,+0.059,-0.341,-10.125,-7.188,+15.188,4, 6, 2, 6, -3, -18, 2, 10,0.5553098577082723,1.1882479342536876,1
1503514043181,-0.226,-0.157,-0.535,-0.799,+0.896,+0.053,-0.406,-3.250,-10.562,+15.125,2, -1, 4, 3, 5, 8, -1, -1,0.5575768535440035,1.18296141572541,1
1503514043201,-0.229,-0.155,-0.532,-0.800,+0.903,+0.007,-0.350,-1.562,-18.062,+11.875,-3, 3, 1, -3, -1, 2, 4, 38,0.560212773888545,1.1744759438100831,1
1503514043217,-0.230,-0.155,-0.530,-0.801,+0.899,-0.005,-0.302,-6.688,-16.000,+6.000,2, 2, -2, -6, -6, 6, -3, -11,0.5619206219054937,1.169849104096485,1
1503514043238,-0.231,-0.155,-0.529,-0.802,+0.867,+0.005,-0.312,-7.688,-8.188,+0.938,4, 11, 4, 0, 1, 2, 1, 17,0.5638960554065761,1.1678082659299416,1
1503514043261,-0.232,-0.156,-0.527,-0.802,+0.878,+0.001,-0.362,-7.500,-6.750,-1.562,-4, -6, 1, 3, 4, 0, -8, -62,0.5664463161286358,1.16353784863117,1
1503514043276,-0.233,-0.155,-0.526,-0.803,+0.916,-0.022,-0.371,-4.562,-7.125,+1.312,9, 11, 7, 3, 0, 2, 11, 15,0.5672073620468738,1.1607529687360416,1
1503514043298,-0.233,-0.156,-0.526,-0.803,+0.919,-0.024,-0.316,-7.875,-6.000,-0.938,19, -4, -11, -6, -1, 0, 0, 22,0.5684288083222999,1.1615091387185499,1
1503514043316,-0.233,-0.158,-0.525,-0.803,+0.929,-0.007,-0.297,-10.062,-3.312,-6.938,-8, -3, -2, -1, -6, -3, -2, -15,0.5706119573941955,1.1604645523129447,1
1503514043343,-0.234,-0.159,-0.524,-0.803,+0.963,+0.001,-0.362,-8.938,-3.625,-2.812,-1, -5, -6, -5, -5, 0, 2, -2,0.5734269085589075,1.1587935083936005,1
1503514043359,-0.235,-0.158,-0.523,-0.804,+0.966,-0.026,-0.411,-5.000,-7.688,+7.062,-15, -10, -7, 0, 0, -2, -1, 7,0.5741899557779643,1.1560087928957938,1
1503514043374,-0.238,-0.156,-0.522,-0.804,+0.973,-0.053,-0.368,-4.125,-7.875,+14.438,7, 7, 0, -4, -1, 1, 8, 4,0.5770812058886697,1.1522966149367773,1
1503514043396,-0.240,-0.156,-0.523,-0.803,+0.935,+0.001,-0.317,-8.062,-1.000,+13.375,3, -5, 0, -2, 0, 3, 0, -1,0.5806786045929326,1.1546878382000911,1
1503514043419,-0.242,-0.156,-0.524,-0.802,+0.962,+0.047,-0.362,-3.812,+7.562,+14.062,-4, -1, 3, 6, 2, -1, -3, 2,0.584277626932796,1.1570799677310304,1
1503514043450,-0.244,-0.154,-0.526,-0.800,+1.018,+0.012,-0.425,+4.188,+10.812,+24.500,-3, -2, 0, -2, 1, 0, -1, 2,0.5852932686067875,1.16009285132164,1
1503514043457,-0.248,-0.149,-0.528,-0.798,+1.039,-0.048,-0.401,+7.562,+5.312,+35.688,-11, -3, 2, 2, 3, -3, -5, -1,0.5864144021989572,1.1611170764651995,1
1503514043478,-0.253,-0.145,-0.529,-0.797,+1.019,-0.025,-0.344,+7.438,-2.938,+36.188,8, -1, -4, -7, -4, -3, 1, 2,0.5908367591150294,1.1609002306746414,1
1503514043500,-0.255,-0.140,-0.529,-0.797,+0.996,+0.019,-0.340,+13.438,-10.875,+33.562,-2, -3, -3, -3, -2, 0, -3, -11,0.5886329086484271,1.1574968738238833,1
1503514043518,-0.259,-0.134,-0.529,-0.797,+0.973,+0.006,-0.396,+20.000,-14.250,+39.250,-1, 3, 0, -1, -1, -4, -6, -15,0.5891145743124874,1.15368048972183,1
1503514043538,-0.263,-0.126,-0.529,-0.797,+0.954,-0.058,-0.407,+24.438,-10.000,+48.375,-4, -3, 3, 2, 4, -2, 0, 2,0.587382261409655,1.1485916854747187,1
1503514047319,-0.329,-0.147,-0.461,-0.811,+0.806,-0.047,-0.464,-5.250,-2.312,+9.812,-13, -2, 0, 1, -1, -2, 3, -11,0.7349766489206279,1.0088426039522471,2
1503514047340,-0.329,-0.146,-0.462,-0.811,+0.770,-0.086,-0.507,+0.000,+10.062,+3.500,5, 2, -8, -5, -11, -5, 3, 17,0.7341145454506461,1.0104255333667111,2
1503514047362,-0.328,-0.146,-0.464,-0.810,+0.859,-0.145,-0.474,+4.375,+12.812,-3.750,-9, -7, -4, 1, -6, -4, -2, 30,0.7319718130762197,1.014647947359899,2
1503514047379,-0.327,-0.146,-0.467,-0.809,+0.933,-0.142,-0.442,+0.188,+9.875,-5.438,-7, -7, -6, -7, -13, -11, -6, -13,0.7300521778306979,1.0213240030442947,2
1503514047401,-0.326,-0.146,-0.467,-0.809,+0.883,-0.086,-0.442,-0.062,-2.875,-8.562,1, 4, 1, -3, -4, 1, 3, -4,0.7279707900417541,1.0211711651924167,2
1503514047423,-0.324,-0.146,-0.466,-0.810,+0.824,-0.076,-0.440,+4.812,-2.688,-11.375,7, 12, 16, 7, 5, 4, 2, -20,0.7240820767317634,1.0189112465419166,2
1503514047438,-0.321,-0.146,-0.468,-0.810,+0.812,-0.099,-0.477,+6.938,+11.750,-13.438,-13, -8, -8, -6, -7, 1, 8, 50,0.7183026130906887,1.0233422089541742,2
1503514047460,-0.318,-0.147,-0.471,-0.810,+0.911,-0.086,-0.472,+7.562,+16.812,-13.125,1, 0, -2, -1, 7, 7, 1, -14,0.7138670325227187,1.0310700756497535,2
1503514047483,-0.317,-0.146,-0.472,-0.810,+0.988,-0.076,-0.438,+7.938,+1.250,-6.438,0, -2, -1, -3, -5, 0, -3, -11,0.7109307555181785,1.0325433048522772,2
1503514047498,-0.316,-0.146,-0.473,-0.810,+0.919,-0.062,-0.431,+5.625,-1.062,+0.312,-3, 0, 2, -2, -3, -2, 1, 51,0.7090952084292137,1.0348502173934067,2
1503514047522,-0.315,-0.144,-0.473,-0.810,+0.852,-0.075,-0.468,+8.312,-0.125,+0.250,-2, -1, -5, -3, -1, -3, -9, -33,0.704843554012609,1.0330563844370635,2
1503514047546,-0.315,-0.143,-0.474,-0.810,+0.879,-0.085,-0.453,+5.500,+0.938,-1.375,-6, 0, 0, 4, 5, 6, 1, -38,0.7039670477847493,1.0347004922490366,2
1503514047558,-0.314,-0.143,-0.474,-0.810,+0.899,-0.066,-0.453,+2.625,+2.312,-1.562,6, 4, 6, 9, 15, 2, 0, -14,0.7019133482491354,1.0345540759468406,2
1503514047580,-0.313,-0.143,-0.475,-0.810,+0.871,-0.053,-0.477,-0.250,+2.875,-1.625,-3, -5, -3, -5, -7, -2, 2, -8,0.7000811160151522,1.0368720607271207,2
1503514047602,-0.312,-0.144,-0.474,-0.811,+0.834,+0.015,-0.489,-1.562,-1.812,-9.812,1, -7, -1, 1, -3, -3, 0, 11,0.6993888804379712,1.035560128246471,2
1503514047619,-0.308,-0.146,-0.472,-0.813,+0.819,+0.022,-0.511,+5.125,-5.625,-21.312,3, 4, 7, 5, -1, -3, 1, -4,0.6939166325811127,1.0326480353752083,2
1503514047641,-0.305,-0.146,-0.470,-0.815,+0.835,-0.019,-0.498,+4.438,-7.000,-19.625,-4, 1, -2, -5, -7, -2, -4, 0,0.6882959403476084,1.0282540316865223,2
1503514047663,-0.304,-0.147,-0.468,-0.817,+0.877,-0.027,-0.484,-3.812,-9.500,-8.750,13, -1, -2, -4, -1, 5, 9, 16,0.687846208384941,1.0249868101373762,2
1503514047680,-0.304,-0.149,-0.467,-0.817,+0.861,+0.027,-0.480,-10.562,+0.312,-2.125,-2, 4, 0, 0, 1, -3, -9, -8,0.6898155227557223,1.0241829095687252,2
1503514047700,-0.304,-0.151,-0.466,-0.817,+0.835,+0.086,-0.502,-5.750,+0.375,-1.250,-12, -6, -4, -5, -8, -5, 0, -3,0.6917885373165158,1.0233960981872832,2
1503514047723,-0.304,-0.151,-0.465,-0.817,+0.875,+0.041,-0.494,-3.312,-2.312,+4.375,7, 1, -7, -5, -2, -3, -1, -2,0.6915557570492613,1.0209528915738537,2
1503514047738,-0.306,-0.151,-0.465,-0.817,+0.894,-0.039,-0.471,-7.375,-6.750,+12.438,0, -3, 0, -1, -2, 1, -4, -7,0.6956318142192242,1.0212687174916273,2
1503514047760,-0.309,-0.151,-0.463,-0.817,+0.868,-0.052,-0.482,-11.812,-9.062,+11.750,4, 3, 0, 6, 4, -3, -2, 14,0.701300225690668,1.0168664544943864,2
1503514047784,-0.311,-0.152,-0.461,-0.817,+0.851,-0.006,-0.506,-13.562,-7.438,+9.375,4, -1, 1, -1, 0, 10, -9, -1,0.7060347590151181,1.01316133498955,2
1503514047798,-0.314,-0.153,-0.459,-0.817,+0.843,+0.020,-0.501,-17.562,-11.500,+11.938,-7, 0, -3, -3, -8, -8, -3, -5,0.71283438113223,1.0096396920030293,2
1503514047822,-0.318,-0.154,-0.457,-0.817,+0.860,-0.017,-0.476,-18.125,-10.312,+14.938,1, -1, 2, -4, -8, -4, 2, -6,0.721719742824364,1.0063074333887134,2
1503514047843,-0.321,-0.155,-0.456,-0.816,+0.851,-0.048,-0.474,-17.500,-5.750,+13.500,-20, 2, 2, 0, -2, -3, 0, -59,0.7283161700875291,1.0047619464022304,2
1503514047859,-0.324,-0.155,-0.454,-0.815,+0.854,-0.049,-0.488,-17.062,-6.625,+12.375,-5, -4, 1, 17, 16, 3, -2, -15,0.7336051478433325,0.999945375296304,2
1503514047882,-0.327,-0.156,-0.452,-0.815,+0.863,-0.045,-0.504,-17.688,-8.812,+12.000,12, 0, -7, -8, -1, 0, 3, 24,0.740486252103398,0.996510479036148,2
1503514047903,-0.330,-0.157,-0.450,-0.815,+0.849,-0.032,-0.505,-16.500,-15.000,+10.375,5, -6, -7, 1, 1, -7, -6, 3,0.7473866505742827,0.9931004447240123,2
1503514047924,-0.333,-0.157,-0.446,-0.816,+0.841,-0.030,-0.482,-16.562,-20.125,+7.938,-1, -2, -6, -5, -7, 10, 1, 5,0.7532489297078461,0.9845305871826289,2
1503514047941,-0.335,-0.159,-0.445,-0.815,+0.808,-0.012,-0.485,-14.750,-3.875,+8.562,7, 1, 0, -6, -2, 12, 6, 36,0.7589075630542426,0.9837919418888186,2
1503514047963,-0.337,-0.159,-0.446,-0.814,+0.795,-0.036,-0.522,-9.375,+11.000,+12.000,6, 0, 1, 2, 21, 9, 3, 20,0.7628674273332811,0.9860382537323802,2
1503514047983,-0.339,-0.159,-0.448,-0.812,+0.873,-0.081,-0.521,-6.875,+11.312,+13.875,-1, -3, -5, -8, -12, -12, -12, -52,0.766572640708065,0.9901831219190373,2
1503514048008,-0.341,-0.159,-0.449,-0.811,+0.938,-0.077,-0.487,-7.688,+2.375,+10.812,-3, -2, -3, 1, 21, -3, 4, 15,0.7705403989549443,0.9924319656254851,2
1503514048024,-0.343,-0.159,-0.448,-0.810,+0.916,-0.072,-0.475,-6.375,-9.250,+8.250,-2, 1, 1, -1, -14, -15, -12, -23,0.7740579936809356,0.9898974947547099,2
1503514048039,-0.345,-0.158,-0.446,-0.811,+0.864,-0.073,-0.501,-5.812,-17.438,+11.625,-4, -6, -5, -3, -7, -6, -1, -16,0.7772598585767733,0.9850548261368558,2
1503514048061,-0.348,-0.156,-0.444,-0.811,+0.819,-0.073,-0.524,-3.375,-13.750,+14.000,0, 8, 8, 7, 2, 6, 6, 4,0.7810529017301765,0.9789941046090122,2
1503514048083,-0.349,-0.154,-0.444,-0.811,+0.828,-0.096,-0.526,+1.625,-5.562,+10.312,-4, 17, 11, 4, 2, 0, 0, 12,0.7810519537718725,0.9773575749375643,2
1503514048099,-0.351,-0.152,-0.445,-0.810,+0.859,-0.124,-0.508,+2.562,+3.625,+11.375,1, -8, -6, -2, -3, -2, 2, 28,0.7829252535873564,0.977786394942685,2
1503514048121,-0.353,-0.150,-0.447,-0.808,+0.883,-0.120,-0.504,+2.688,+5.875,+15.750,-3, -1, 0, 4, -4, -1, 2, -24,0.7845231910965734,0.9801120591522666,2
1503514048143,-0.354,-0.148,-0.449,-0.807,+0.886,-0.120,-0.509,+5.000,+4.812,+17.062,-9, 2, 8, 1, 0, -4, -1, 2,0.7844760601278481,0.9827853769076166,2
1503514048159,-0.356,-0.146,-0.451,-0.806,+0.879,-0.125,-0.499,+9.000,+5.312,+14.500,8, -8, -9, -6, -1, 14, -1, 3,0.7865815947976416,0.9856401072371133,2
1503514048184,-0.357,-0.143,-0.453,-0.804,+0.882,-0.125,-0.491,+11.125,+8.812,+14.312,3, -1, -3, -2, -1, -3, 0, -12,0.7849790751591543,0.9869731989652173,2
1503514048203,-0.358,-0.140,-0.456,-0.803,+0.918,-0.128,-0.485,+11.938,+7.500,+19.062,-2, -3, -5, -2, 1, 10, 5, 21,0.7840876673812651,0.9912582706201637,2
1503514048221,-0.360,-0.137,-0.459,-0.801,+0.916,-0.119,-0.494,+11.250,+3.625,+23.250,-3, -10, -8, -1, 0, 0, -2, 2,0.7848461441726814,0.9952414839822274,2
1503514048252,-0.361,-0.133,-0.460,-0.800,+0.893,-0.122,-0.503,+15.500,+1.688,+22.438,-8, -5, -3, -6, -8, -15, -12, -31,0.7825348009933978,0.9939100206055134,2
1503514048263,-0.363,-0.128,-0.463,-0.799,+0.851,-0.141,-0.532,+24.250,+6.312,+24.875,10, 5, -3, -7, -10, -6, 1, 1,0.7817669916477268,0.99681139991323,2
1503514048279,-0.365,-0.122,-0.467,-0.797,+0.858,-0.176,-0.510,+26.062,+8.812,+30.312,4, 3, 1, -4, -6, -4, -4, -4,0.7796649138418004,1.0009378231730908,2
1503514048301,-0.367,-0.117,-0.471,-0.794,+0.862,-0.173,-0.478,+20.562,+14.250,+33.375,-9, -3, -1, -2, -1, 0, -3, -41,0.778068682702585,1.005499533800823,2
1503514048323,-0.369,-0.113,-0.475,-0.791,+0.896,-0.145,-0.467,+21.375,+15.750,+35.312,8, 0, -5, -2, -4, 6, 4, 12,0.7774801405843459,1.0109623448256235,2
1503514048339,-0.372,-0.107,-0.479,-0.788,+0.886,-0.154,-0.485,+26.188,+11.250,+36.938,1, 13, 10, 2, -5, -6, 2, -18,0.7770793716574548,1.0150889245272041,2
1503514048361,-0.374,-0.101,-0.483,-0.786,+0.845,-0.181,-0.535,+30.688,+10.875,+39.312,-9, -1, 0, 4, 1, 0, -2, -20,0.7750386223627465,1.0197652714343475,2
1503514048386,-0.377,-0.094,-0.487,-0.783,+0.841,-0.218,-0.473,+31.438,+12.812,+40.312,6, 3, 9, 14, 19, 6, 2, 16,0.773708908522418,1.0234551089562671,2
1503514048399,-0.379,-0.088,-0.492,-0.779,+0.834,-0.227,-0.438,+30.375,+17.750,+37.562,6, 1, -6, -6, -7, -10, -3, 11,0.7707328819223079,1.0299886381976489,2
1503514051070,-0.434,-0.194,-0.589,-0.654,+0.919,-0.200,-0.200,-5.438,-5.062,-2.000,0, 6, 6, 0, -2, -1, -1, -7,0.9679755035820676,1.3296459463991364,3
1503514051082,-0.434,-0.194,-0.587,-0.655,+0.918,-0.228,-0.195,-2.562,-5.562,-2.625,-12, -2, 2, -1, -2, -28, -6, -13,0.9680294643560469,1.324563473023077,3
1503514051106,-0.433,-0.195,-0.586,-0.657,+0.929,-0.256,-0.163,-2.125,-13.938,-12.062,-2, -5, -5, -4, -5, 3, 0, 1,0.9679222387760551,1.323373680149392,3
1503514051120,-0.432,-0.196,-0.583,-0.659,+0.927,-0.246,-0.173,-5.562,-13.125,-16.688,6, 1, 2, 2, 1, 5, 0, 1,0.9673563274733276,1.316849718590167,3
1503514051144,-0.431,-0.198,-0.580,-0.663,+0.895,-0.208,-0.196,-8.812,-17.750,-20.250,-2, -2, -2, 4, 4, 3, -1, 1,0.9691409975621245,1.3119925605215128,3
1503514051165,-0.429,-0.199,-0.576,-0.666,+0.927,-0.222,-0.178,-6.688,-22.312,-26.875,7, -1, -5, -2, -10, 17, 0, 2,0.9666022238112638,1.3031209440706641,3
1503514051180,-0.426,-0.202,-0.573,-0.670,+0.961,-0.236,-0.186,-4.000,-17.438,-35.500,3, 0, -7, -5, -4, -4, -3, 4,0.9652690327670846,1.2992135074887603,3
1503514051207,-0.423,-0.205,-0.570,-0.674,+0.933,-0.212,-0.216,-9.188,-9.562,-34.875,9, 13, 18, 3, 5, 4, -1, -16,0.963955260627495,1.295378132074672,3
1503514051225,-0.421,-0.210,-0.568,-0.676,+0.920,-0.148,-0.237,-16.312,-5.188,-26.438,0, -2, -3, -2, -22, -3, 2, 5,0.9668392480329797,1.2958057362608377,3
1503514051246,-0.420,-0.213,-0.563,-0.679,+0.956,-0.151,-0.235,-17.312,-17.125,-28.625,6, 3, -4, -4, -4, 0, -3, 2,0.968969360259826,1.2868614805355916,3
1503514051262,-0.417,-0.216,-0.559,-0.683,+1.010,-0.169,-0.198,-12.000,-22.688,-35.000,-17, -14, -6, -2, 1, 0, -1, -3,0.9674449716124283,1.280696586800371,3
1503514051285,-0.414,-0.220,-0.555,-0.687,+0.956,-0.175,-0.225,-8.875,-18.000,-39.188,-5, -4, -5, -4, -1, -4, -8, -12,0.9673024969817718,1.27572029263295,3
1503514051300,-0.412,-0.223,-0.550,-0.691,+0.905,-0.150,-0.247,-15.875,-18.000,-35.438,1, 0, 1, 9, -2, -5, 4, 12,0.9677102944657725,1.2673437640573317,3
1503514051322,-0.411,-0.227,-0.546,-0.694,+0.945,-0.101,-0.269,-19.188,-17.500,-30.500,3, -3, -2, -5, 4, 2, 2, 8,0.9714331452456196,1.2625457543772844,3
1503514051345,-0.408,-0.230,-0.542,-0.698,+0.979,-0.099,-0.296,-7.625,-11.938,-31.625,11, 14, 1, -4, -8, -3, 2, 0,0.9699312517254849,1.2567841636330985,3
1503514051360,-0.405,-0.232,-0.540,-0.701,+0.943,-0.152,-0.279,+1.875,-10.500,-30.250,0, 3, 1, 3, 11, 2, -1, -7,0.967122438651391,1.2546255973957023,3
1503514051383,-0.403,-0.233,-0.537,-0.704,+0.951,-0.156,-0.248,-6.438,-14.812,-29.438,-1, -3, 3, -1, -5, 0, -2, 1,0.9648156559052461,1.2489955557356451,3
1503514051407,-0.400,-0.238,-0.534,-0.706,+0.992,-0.040,-0.255,-12.688,-5.500,-29.312,-4, -6, -1, 1, 2, -1, -3, 11,0.9654802752566612,1.2475243221227692,3
1503514051420,-0.397,-0.240,-0.533,-0.708,+0.985,-0.012,-0.329,+0.875,-2.250,-21.938,0, -12, -8, 4, 5, 3, 3, 9,0.9625462359408526,1.247593586161138,3
1503514051443,-0.397,-0.239,-0.531,-0.710,+0.979,-0.110,-0.283,+0.188,-16.188,-6.625,5, 0, -4, -5, 0, 2, 0, -1,0.9615088922810919,1.2421569934677212,3
1503514051465,-0.398,-0.240,-0.529,-0.710,+0.995,-0.125,-0.214,-14.875,-8.625,-0.750,-6, -1, -5, 1, 2, -3, -4, -23,0.9644790729424465,1.238533363390803,3
1503514051481,-0.398,-0.242,-0.529,-0.709,+0.998,-0.037,-0.250,-13.438,+1.812,-4.188,-2, 0, -5, -8, -2, -4, -5, -10,0.9668232578374916,1.2405368841693136,3
1503514051510,-0.398,-0.243,-0.527,-0.710,+1.001,-0.028,-0.305,-2.625,-5.875,-3.000,-19, -3, 6, -2, -5, -5, 0, -1,0.9681265777436686,1.2371278711261935,3
1503514051525,-0.399,-0.242,-0.525,-0.712,+0.977,-0.083,-0.303,-5.062,-18.250,-1.438,0, -3, -3, -1, 0, 0, -6, -26,0.969206919663966,1.23187753258185,3
1503514051541,-0.401,-0.242,-0.522,-0.713,+0.970,-0.089,-0.247,-12.812,-20.312,-2.625,2, -3, 1, 8, 17, 15, 5, 14,0.9730992637804781,1.2251842987849682,3
1503514051562,-0.402,-0.244,-0.519,-0.714,+0.981,-0.051,-0.256,-13.812,-17.562,-4.062,4, 0, 1, 11, 16, 12, 7, 20,0.9776500880202781,1.2207380795428175,3
1503514051585,-0.402,-0.244,-0.517,-0.715,+0.958,-0.038,-0.305,-8.938,-13.125,-5.625,6, -8, -5, -5, -8, -5, -1, 2,0.9775537150257692,1.2162094006687263,3
1503514051601,-0.402,-0.245,-0.514,-0.717,+0.909,-0.045,-0.344,-7.938,-13.375,-7.750,2, 2, -1, -8, -7, -6, -4, 7,0.9790226918875742,1.2108182157258414,3
1503514051622,-0.402,-0.246,-0.511,-0.719,+0.905,-0.042,-0.314,-10.000,-12.625,-9.625,0, 3, 3, 0, -2, -5, 3, 1,0.9804870504198422,1.2054612168368253,3
1503514051645,-0.402,-0.247,-0.509,-0.720,+0.942,-0.044,-0.319,-5.312,-8.000,-9.125,0, 3, 6, 0, -6, 0, 0, -4,0.9817744280862882,1.2021903507967002,3
1503514051661,-0.401,-0.247,-0.508,-0.721,+0.953,-0.058,-0.333,-1.062,-2.875,-7.250,-13, -9, -4, -2, -1, -5, -1, 11,0.9798073491649983,1.1999588641014154,3
1503514051683,-0.401,-0.247,-0.507,-0.722,+0.939,-0.048,-0.314,-3.625,-6.938,-5.938,0, 0, 0, 1, 0, 4, 7, 13,0.9799791649128236,1.197909376786435,3
1503514051707,-0.401,-0.248,-0.505,-0.723,+0.935,-0.027,-0.307,-7.312,-8.375,-6.875,0, 5, 0, -5, -5, -5, -6, -5,0.9812616948093054,1.1946661535021097,3
1503514051721,-0.400,-0.249,-0.504,-0.724,+0.950,-0.019,-0.303,-4.938,-8.500,-7.062,8, -1, -4, -1, -3, -13, -6, 2,0.9806813466782979,1.1936637269524368,3
1503514051743,-0.401,-0.249,-0.503,-0.724,+0.953,-0.042,-0.322,-3.500,-7.750,-0.562,20, 5, -2, -2, -4, -2, 7, 34,0.9825427667585708,1.1914393552360187,3
1503514051765,-0.402,-0.249,-0.501,-0.725,+0.938,-0.054,-0.340,-7.062,-10.750,+3.125,4, -1, 0, 0, 1, 1, -1, 12,0.9845773469732761,1.1871888052764352,3
1503514051781,-0.403,-0.249,-0.499,-0.726,+0.947,-0.033,-0.323,-10.250,-11.750,+0.375,5, 4, 0, -2, 1, 2, -1, -2,0.9866168306480232,1.1829518209633136,3
1503514051803,-0.404,-0.250,-0.497,-0.726,+0.972,-0.013,-0.311,-10.062,-10.062,+1.250,-2, -11, -6, -7, -4, -7, -3, 0,0.9895978575687805,1.1795803165223657,3
1503514051825,-0.406,-0.250,-0.496,-0.726,+0.950,-0.007,-0.349,-7.688,-5.750,+6.562,3, 2, 7, 0, -3, 2, 3, 4,0.9936281368517617,1.17757095464439,3
1503514051850,-0.407,-0.249,-0.495,-0.726,+0.939,-0.020,-0.397,-2.250,-4.812,+7.750,-5, 1, -3, -3, -2, -1, -3, -13,0.9941341639718273,1.1741382441213697,3
1503514051862,-0.407,-0.248,-0.495,-0.727,+0.969,-0.046,-0.377,+1.375,-6.438,+2.688,-5, -2, -6, -3, -3, -1, -2, 8,0.9932044112545715,1.1732890232816486,3
1503514051885,-0.407,-0.247,-0.494,-0.727,+0.995,-0.058,-0.334,+3.438,-7.250,-0.438,4, 3, 3, 1, 3, 1, 4, 35,0.991562636536992,1.1696693805773863,3
1503514051901,-0.408,-0.245,-0.494,-0.728,+0.998,-0.045,-0.341,+4.062,-11.812,+4.312,-12, -4, -2, -3, 0, 3, 2, -32,0.9914405976506454,1.1677975931312878,3
1503514051923,-0.409,-0.243,-0.493,-0.729,+0.979,-0.031,-0.383,+6.438,-13.812,+8.938,-1, -1, -6, -6, -7, -1, -7, -18,0.9910712570667074,1.1635493430009898,3
1503514051945,-0.409,-0.240,-0.492,-0.731,+0.932,-0.041,-0.398,+13.188,-11.375,+5.438,-17, -2, -1, -1, -2, -2, 5, -19,0.9876570839539719,1.158306594178552,3
1503514051961,-0.408,-0.236,-0.493,-0.732,+0.938,-0.080,-0.386,+19.875,-5.625,+4.312,3, 2, 2, -6, -6, -4, 8, 21,0.9808433644147799,1.156101002611615,3
1503514051983,-0.407,-0.232,-0.495,-0.732,+0.964,-0.083,-0.384,+21.812,-3.000,+9.312,8, -1, -3, 0, 0, 2, 0, -3,0.9738723850999231,1.1559688039937726,3
1503514052010,-0.407,-0.228,-0.496,-0.732,+0.987,-0.077,-0.360,+21.062,-3.562,+14.750,11, 7, 4, 3, 2, 1, 0, 23,0.9688456799754318,1.1536862727642536,3
1503514052021,-0.407,-0.223,-0.499,-0.732,+0.979,-0.077,-0.345,+24.812,-3.625,+18.250,-8, -4, -4, 1, 2, 0, -1, 10,0.9630594909051813,1.155156045006175,3
1503514052043,-0.407,-0.217,-0.501,-0.732,+0.929,-0.103,-0.398,+33.438,-1.562,+17.625,9, 5, 3, 4, 2, 0, -9, 0,0.9557702489126458,1.1531867104042783,3
1503514052065,-0.406,-0.209,-0.504,-0.733,+0.924,-0.149,-0.382,+38.625,-4.875,+16.312,12, 3, 2, 4, 4, 5, 1, -1,0.9445367957196414,1.151840442312937,3
1503514052081,-0.405,-0.202,-0.507,-0.733,+0.947,-0.167,-0.332,+37.688,-4.562,+18.812,-2, -1, 0, -5, -6, -6, -4, 10,0.9342043160032393,1.1514350848931671,3
1503514056610,-0.420,-0.202,-0.550,-0.693,+0.882,-0.218,-0.229,-6.500,+8.438,-17.438,-15, -7, -4, -2, -2, 1, -5, -26,0.957930783602244,1.246409842552966,4
1503514056625,-0.419,-0.206,-0.551,-0.692,+0.944,-0.226,-0.233,-14.500,+15.688,-15.375,-8, -4, -2, 0, 1, 0, 1, 7,0.9607607106173559,1.2527180771736177,4
1503514056648,-0.418,-0.211,-0.552,-0.690,+0.968,-0.201,-0.217,-17.500,+19.000,-18.375,-8, -4, 0, 1, 2, 0, -2, 5,0.9645088251301217,1.2597981842045414,4
1503514056670,-0.415,-0.216,-0.552,-0.690,+0.946,-0.164,-0.222,-14.062,+13.562,-23.438,-4, -1, 2, -1, -1, 1, 3, 4,0.9646994140513406,1.2648116753234722,4
1503514056685,-0.413,-0.220,-0.551,-0.691,+0.923,-0.133,-0.251,-11.312,+5.062,-24.250,-3, -7, -10, -7, -2, -2, -3, 1,0.9660224767345127,1.266707081920102,4
1503514056709,-0.412,-0.222,-0.549,-0.693,+0.905,-0.137,-0.299,-7.625,+2.062,-19.688,-18, -6, -2, 3, 2, 1, 1, -5,0.9670293266332457,1.264363938443746,4
1503514056730,-0.411,-0.225,-0.548,-0.693,+0.938,-0.151,-0.278,-9.250,+0.625,-17.375,-1, -7, -8, -4, 2, 2, 3, 1,0.9687262462057692,1.265027418258637,4
1503514056745,-0.409,-0.228,-0.547,-0.694,+0.993,-0.118,-0.268,-10.375,+0.938,-17.812,-1, 1, 5, 2, 1, -1, -3, -6,0.9687606150051828,1.2659184298089394,4
1503514056767,-0.408,-0.230,-0.546,-0.695,+0.967,-0.083,-0.284,-5.062,+2.438,-13.250,3, 2, 3, 1, -2, -2, -2, -3,0.9695848388659728,1.2658443481093269,4
1503514056790,-0.408,-0.230,-0.545,-0.696,+0.920,-0.111,-0.297,-3.625,+0.750,-3.688,6, 2, 2, -1, 0, 1, -2, 0,0.9697877151836086,1.263657154494905,4
1503514056813,-0.408,-0.231,-0.545,-0.695,+0.937,-0.133,-0.277,-6.562,+4.562,-1.125,7, 3, -1, -2, -1, -2, -1, 3,0.9707102175017497,1.2644593932496508,4
1503514056827,-0.407,-0.233,-0.545,-0.695,+0.984,-0.115,-0.251,-6.938,+8.812,-4.000,12, 10, 2, 2, -1, -2, -1, -4,0.971347445702411,1.2665960122067144,4
1503514056851,-0.407,-0.235,-0.545,-0.694,+0.997,-0.071,-0.264,-5.625,+6.812,-5.750,-10, -4, -4, 2, 3, 1, 1, 1,0.9736803677728757,1.2685574337529621,4
1503514056865,-0.406,-0.236,-0.545,-0.695,+0.946,-0.071,-0.242,-2.562,-1.375,-5.875,-2, -2, -1, -1, -3, -1, -1, 0,0.9734019692180309,1.2698912031302585,4
1503514056887,-0.404,-0.236,-0.544,-0.696,+0.938,-0.105,-0.234,+1.250,-3.875,-11.062,0, 15, 16, 4, 1, -1, -1, -6,0.9693218321636767,1.2674252313690517,4
1503514056912,-0.403,-0.238,-0.544,-0.697,+0.956,-0.110,-0.240,+0.188,+4.375,-12.625,-9, -7, -5, -2, -2, -2, -1, -11,0.970460154756462,1.2699130359039286,4
1503514056933,-0.401,-0.239,-0.544,-0.697,+0.961,-0.078,-0.257,-4.000,+2.875,-9.312,6, -3, 2, -1, 0, -2, -1, 2,0.9676177389302905,1.2707845755352993,4
1503514056955,-0.401,-0.240,-0.543,-0.698,+0.974,-0.061,-0.235,-5.312,-4.688,-5.875,4, -1, -9, 7, 6, 4, 0, 3,0.9692142849308865,1.2697640498415481,4
1503514056970,-0.401,-0.241,-0.542,-0.698,+0.996,-0.108,-0.210,-4.312,-5.062,-3.500,-9, -6, -2, -6, -4, -3, 0, -2,0.9703548232083063,1.2684276400398116,4
1503514056986,-0.401,-0.241,-0.543,-0.698,+1.001,-0.140,-0.209,-4.312,+0.125,+1.688,4, -5, -5, -2, -3, -2, -5, -1,0.9706283892620813,1.2709255293781623,4
1503514057007,-0.403,-0.241,-0.542,-0.697,+0.985,-0.126,-0.254,-8.125,-4.188,+6.062,-10, -14, -6, 0, 2, 1, 0, 1,0.9741496731507485,1.2683917244827967,4
1503514057031,-0.404,-0.241,-0.540,-0.698,+0.947,-0.088,-0.252,-11.125,-8.500,+0.000,0, 3, 2, 0, -2, -1, 0, -4,0.9761905263262408,1.2638726987717483,4
1503514057046,-0.404,-0.243,-0.539,-0.699,+0.933,-0.079,-0.235,-6.750,-6.250,-9.875,4, -1, -6, -1, 0, 0, -1, -26,0.9791965904170857,1.2640538917435478,4
1503514057067,-0.404,-0.244,-0.538,-0.699,+0.978,-0.116,-0.239,-6.000,-0.938,-4.875,8, 9, 3, 0, -2, -3, -3, -2,0.9803387017245597,1.2627458068026933,4
1503514057090,-0.405,-0.244,-0.538,-0.698,+0.978,-0.120,-0.256,-8.125,-0.688,+4.750,8, 0, -5, -4, -2, -2, 0, 3,0.9820175767900322,1.262566738009292,4
1503514057105,-0.406,-0.243,-0.536,-0.699,+0.987,-0.096,-0.261,-7.688,-14.562,+1.125,-4, 6, 2, -2, -4, -3, -3, 6,0.9826482671627175,1.2568982006632703,4
1503514057127,-0.405,-0.244,-0.533,-0.702,+0.963,-0.046,-0.284,-3.938,-18.125,-14.750,-2, 1, 2, 0, -2, -1, -1, 3,0.9824635384672055,1.2514966778697123,4
1503514057153,-0.403,-0.245,-0.529,-0.706,+0.944,-0.017,-0.295,+3.562,-20.875,-23.062,16, 28, 16, 7, 4, 0, -1, -2,0.9803169563934664,1.2438497241285273,4
1503514057165,-0.401,-0.244,-0.525,-0.710,+0.932,-0.033,-0.307,+4.688,-25.375,-17.938,-4, -6, -1, -3, -1, -3, -5, -11,0.9753573672754531,1.2338733471543593,4
1503514057187,-0.400,-0.244,-0.522,-0.713,+0.922,-0.021,-0.303,+1.750,-21.688,-12.375,-3, -1, 1, -6, -3, -1, 3, 5,0.9737559893487546,1.2273962186540228,4
1503514057212,-0.398,-0.244,-0.519,-0.716,+0.920,+0.015,-0.314,+1.875,-14.125,-13.438,-1, -1, -5, -8, -5, -5, -1, 4,0.9700246183240091,1.2207806934518883,4
1503514057226,-0.396,-0.245,-0.517,-0.718,+0.911,+0.044,-0.305,+1.062,-9.250,-12.312,-6, -7, -5, 1, 6, 3, 1, 5,0.9675161669946464,1.217464329163812,4
1503514057250,-0.395,-0.245,-0.515,-0.720,+0.940,+0.025,-0.307,+0.000,-10.875,-4.625,-3, -1, 1, -3, -10, -25, -2, -3,0.9657362682305259,1.213133549666358,4
1503514057270,-0.396,-0.245,-0.513,-0.721,+0.943,-0.019,-0.326,-0.438,-12.688,+0.250,-12, -13, -10, -5, -1, 5, -1, -1,0.967752530786087,1.2087977226254214,4
1503514057286,-0.397,-0.243,-0.510,-0.723,+0.970,-0.040,-0.287,-3.688,-25.375,+0.125,-8, -2, -3, -3, -1, 3, -1, 0,0.9671779025860542,1.2000180097673354,4
1503514057307,-0.399,-0.243,-0.506,-0.725,+0.974,-0.040,-0.262,-10.750,-31.375,+0.625,3, 4, 3, -1, -1, 1, -2, -18,0.9712488459315928,1.191420165854041,4
1503514057330,-0.401,-0.243,-0.502,-0.727,+0.938,-0.025,-0.293,-17.062,-29.938,+4.250,2, -1, 6, 15, 14, 0, 4, 3,0.9753395580687031,1.1828767408696605,4
1503514057347,-0.404,-0.242,-0.498,-0.728,+0.898,-0.017,-0.367,-14.812,-25.000,+5.688,-3, -2, 0, -4, 2, 33, 11, 5,0.9797920503429495,1.1729819086131372,4
1503514057367,-0.406,-0.241,-0.494,-0.730,+0.909,-0.057,-0.378,-9.500,-21.875,+3.875,-9, -2, 4, 4, 6, -4, -2, 1,0.9825821116028495,1.1633320431730276,4
1503514057390,-0.409,-0.241,-0.491,-0.730,+0.938,-0.090,-0.333,-13.500,-20.938,+3.562,1, -5, -9, -7, -7, -10, -7, -5,0.9882870654124544,1.1567323826868228,4
1503514057405,-0.412,-0.242,-0.489,-0.730,+0.939,-0.071,-0.292,-21.562,-17.188,+5.625,-10, -4, -4, -5, -3, 2, -4, -12,0.9956326259489612,1.1537634200298483,4
1503514057427,-0.414,-0.244,-0.487,-0.730,+0.937,-0.041,-0.328,-20.688,-8.500,+3.750,3, -3, -2, -5, -5, -4, -3, 5,1.0021619707659761,1.151850530041742,4
1503514057452,-0.415,-0.245,-0.485,-0.730,+0.936,-0.033,-0.426,-12.125,-0.188,+1.375,1, -5, -2, -3, -23, -31, -5, 4,1.0051686206220471,1.1485378967242628,4
1503514057465,-0.416,-0.245,-0.484,-0.729,+0.945,-0.070,-0.404,-7.375,-2.312,+1.688,18, 21, 8, -3, 0, 2, -1, 9,1.0066481037588786,1.1459713786278276,4
1503514057487,-0.417,-0.245,-0.484,-0.729,+0.950,-0.075,-0.339,-8.625,-4.688,-0.312,2, -6, -7, -3, 7, 10, 5, 12,1.00883829918674,1.1461736022583124,4
1503514057511,-0.417,-0.246,-0.484,-0.729,+0.946,-0.045,-0.340,-6.062,+0.188,-3.062,-1, -2, -2, -6, -14, -25, -8, 2,1.0101863746416009,1.1474131645676238,4
1503514057525,-0.417,-0.247,-0.484,-0.729,+0.933,-0.020,-0.376,-2.062,+7.000,+0.375,-7, 0, 2, 6, 4, 6, -1, 0,1.0115370397789258,1.148655492554593,4
1503514057548,-0.417,-0.247,-0.485,-0.728,+0.948,-0.043,-0.398,-1.250,+7.062,+5.938,-9, -11, -1, -1, -3, 3, -2, -6,1.0113564772213202,1.1506251626756197,4
1503514057570,-0.418,-0.246,-0.486,-0.727,+0.969,-0.059,-0.371,-1.375,+2.312,+8.312,-5, -2, 1, 8, 13, 17, 3, 0,1.0120123504570617,1.1515570543965126,4
1503514057586,-0.419,-0.245,-0.487,-0.726,+0.946,-0.049,-0.359,+1.750,+0.750,+8.875,-6, 0, -2, -3, -3, 3, 4, -14,1.0126710947874007,1.1524934968893201,4
1503514057607,-0.419,-0.244,-0.487,-0.726,+0.919,-0.045,-0.371,+6.875,-1.000,+9.562,-10, 5, 3, -1, 8, 3, -6, -31,1.0113233081326873,1.1512571405936152,4
1503514057630,-0.420,-0.241,-0.488,-0.726,+0.935,-0.066,-0.373,+8.250,+0.375,+10.750,-2, -4, -7, 0, 1, 4, 0, 0,1.0097517226552064,1.1501419313859824,4
1503514057645,-0.421,-0.239,-0.490,-0.725,+0.956,-0.076,-0.361,+8.438,+3.312,+14.062,-4, 0, -1, -6, -5, -2, 3, -2,1.0093439554793298,1.1522596204086242,4
1503514057667,-0.422,-0.237,-0.492,-0.724,+0.960,-0.092,-0.348,+9.688,+1.625,+15.438,0, -1, -2, -2, 6, 8, 0, 1,1.008942309761705,1.1544007921032688,4
1503514057692,-0.422,-0.234,-0.493,-0.723,+0.948,-0.091,-0.340,+8.812,-1.188,+13.438,4, 1, 0, 1, -3, -3, -1, 15,1.0047623845506104,1.1527744245882594,4
1503514057706,-0.423,-0.232,-0.494,-0.723,+0.926,-0.078,-0.359,+9.000,-2.875,+12.000,-11, -3, -3, -2, 2, 14, 0, 4,1.004581616419854,1.1529657812768976,4
1503514057727,-0.424,-0.229,-0.495,-0.723,+0.923,-0.087,-0.387,+12.500,-1.688,+13.688,-14, -14, -8, 2, 6, -1, -6, -18,1.003102446366516,1.151984429380149,4
1503514057750,-0.424,-0.225,-0.497,-0.723,+0.928,-0.100,-0.379,+14.750,-0.625,+13.625,-3, 0, 0, 2, -3, 0, 5, 2,0.9983732173366463,1.1520885253621278,4
1503514057765,-0.425,-0.222,-0.498,-0.723,+0.945,-0.104,-0.362,+14.375,-2.375,+16.125,3, 0, 4, 2, -2, -5, -2, -10,0.9969475162063618,1.1511860125555888,4
1503514057788,-0.426,-0.218,-0.500,-0.722,+0.922,-0.104,-0.352,+14.312,-3.938,+20.500,8, 0, -2, -2, -12, -26, -2, 13,0.9940361027978585,1.1511802932634705,4
1503514057810,-0.427,-0.214,-0.501,-0.721,+0.900,-0.104,-0.367,+17.562,-2.250,+20.875,3, 1, 2, -2, -1, -3, -3, -1,0.9909193447896911,1.1487999655202064,4
1503514057826,-0.428,-0.210,-0.503,-0.721,+0.907,-0.121,-0.376,+19.875,+1.125,+19.688,-7, -1, -2, -1, 0, -2, -5, -12,0.9885472980062575,1.1493276316976986,4
1503514057850,-0.429,-0.205,-0.506,-0.720,+0.917,-0.139,-0.370,+18.438,+0.812,+22.438,3, 3, 1, -3, -1, 2, 5, 18,0.9847078183662993,1.1508518764310915,4
1503514057870,-0.430,-0.201,-0.508,-0.719,+0.925,-0.138,-0.358,+17.312,-1.438,+25.312,-3, -2, -5, -2, -1, 1, -2, 12,0.9819295622091653,1.1511171438897254,4
1503514057888,-0.431,-0.197,-0.510,-0.718,+0.909,-0.130,-0.349,+18.938,-2.375,+21.375,0, 14, 6, 3, 4, 4, -1, 5,0.9791804395142555,1.1514472372746323,4
1503514057907,-0.431,-0.193,-0.511,-0.718,+0.902,-0.134,-0.338,+20.312,-2.750,+17.938,-2, -5, -1, 0, -1, -2, -2, -39,0.9744665012266867,1.149618482111668,4
1503514057930,-0.432,-0.188,-0.513,-0.718,+0.914,-0.149,-0.358,+19.688,-2.250,+19.875,-6, -9, -6, -1, 0, 2, -3, 0,0.9710505172935145,1.1494427165835015,4
1503514057945,-0.432,-0.184,-0.515,-0.717,+0.906,-0.162,-0.380,+20.625,+0.562,+21.812,-10, -4, -2, -2, -5, -4, -6, -14,0.9661232603179943,1.1498256176973134,4
1503514057967,-0.433,-0.180,-0.517,-0.716,+0.897,-0.167,-0.357,+20.875,+0.188,+19.625,-1, 0, -4, -5, -2, -2, 4, 39,0.9634927745928887,1.1504308212526688,4
1503514057990,-0.433,-0.176,-0.519,-0.716,+0.897,-0.164,-0.319,+18.250,-3.250,+16.875,15, 4, -2, -1, -2, -1, -4, 1,0.9591102100388067,1.1513876847910078,4
1503514058005,-0.433,-0.172,-0.520,-0.716,+0.915,-0.170,-0.341,+17.875,-6.000,+16.125,-4, -6, 1, 0, 0, -1, -2, -19,0.9545485663413842,1.1498838918649037,4
1503514058028,-0.433,-0.168,-0.520,-0.716,+0.905,-0.188,-0.363,+17.438,-10.375,+14.938,1, 2, 2, -2, 2, 4, 4, 12,0.9498166744548362,1.1458941780078402,4
1503514058053,-0.434,-0.164,-0.520,-0.717,+0.880,-0.204,-0.374,+16.062,-14.875,+13.562,-5, -5, -1, 4, -1, 3, -1, 6,0.9479400020470424,1.1425302291433657,4
1503514058065,-0.435,-0.159,-0.520,-0.718,+0.875,-0.199,-0.344,+14.250,-16.562,+13.062,-2, -1, 0, -1, -2, -4, 0, -1,0.9449636485767018,1.1382456887397157,4
1503514058087,-0.434,-0.156,-0.520,-0.719,+0.873,-0.198,-0.342,+15.938,-11.000,+10.688,6, 0, -2, -5, -4, -5, 1, -7,0.9397262498545174,1.1356737669877226,4
1503514058110,-0.434,-0.153,-0.521,-0.719,+0.866,-0.219,-0.348,+17.062,-4.312,+9.062,-11, -2, 1, 2, 2, 5, -2, -8,0.9364805596156421,1.135381055746802,4
1503514058127,-0.434,-0.149,-0.522,-0.719,+0.888,-0.239,-0.361,+14.438,-3.938,+12.125,-5, 2, -3, -10, -6, -4, -7, -16,0.9321147059426039,1.134189448269127,4
1503514058148,-0.435,-0.146,-0.523,-0.719,+0.915,-0.243,-0.365,+13.438,-6.000,+13.500,8, 3, 8, 2, -1, 2, -1, 8,0.9312265441425615,1.1341073931508712,4
1503514058170,-0.435,-0.142,-0.523,-0.719,+0.908,-0.246,-0.363,+14.500,-8.125,+12.125,-7, -4, -4, -2, -3, -5, -1, -22,0.92673694367705,1.130429944584076,4
1503514058187,-0.435,-0.139,-0.523,-0.720,+0.895,-0.251,-0.362,+15.375,-10.062,+11.562,-1, 0, 0, 1, 2, 3, -1, -4,0.9239349461105357,1.12816393651672,4
1503514058215,-0.435,-0.134,-0.523,-0.720,+0.889,-0.260,-0.376,+15.438,-12.562,+13.938,1, -1, -3, -2, -3, -2, 1, 7,0.9184091800027476,1.1236745291971548,4
1503514058238,-0.436,-0.129,-0.523,-0.721,+0.903,-0.284,-0.384,+17.312,-15.312,+17.062,-8, -2, -2, -6, -6, -4, 2, -2,0.9158366120067695,1.1198439977561772,4
1503514058246,-0.437,-0.124,-0.523,-0.721,+0.900,-0.297,-0.384,+16.188,-16.688,+17.938,1, -1, -2, 3, 5, 4, 2, -8,0.9127866032163381,1.1156066821302506,4
1503514058268,-0.438,-0.120,-0.523,-0.722,+0.870,-0.283,-0.374,+15.188,-15.125,+18.000,-4, -3, -3, -1, -1, -5, -5, -1,0.9114300487659748,1.1127659499734537,4
1503514058290,-0.439,-0.115,-0.523,-0.722,+0.863,-0.282,-0.384,+19.062,-11.000,+18.062,-2, -6, 0, 3, 1, 1, -1, 9,0.9085123989388963,1.108643908502046,4
1503514058306,-0.439,-0.110,-0.525,-0.721,+0.862,-0.322,-0.386,+23.312,-4.375,+18.750,14, 1, -2, 7, 6, -2, 3, 10,0.9029951737723119,1.1092736694463083,4
1503514058329,-0.440,-0.104,-0.527,-0.720,+0.900,-0.350,-0.365,+21.875,-2.188,+21.000,-5, -1, -1, 3, 3, 3, -2, -14,0.8988550309837985,1.1093053177534014,4
1503514058350,-0.441,-0.100,-0.528,-0.719,+0.918,-0.329,-0.356,+18.750,-7.312,+24.375,0, 3, 3, -3, -4, -4, -3, -10,0.8966890702450216,1.1083766614093475,4
1503514058366,-0.441,-0.094,-0.529,-0.719,+0.903,-0.307,-0.371,+22.000,-13.000,+24.250,2, -1, 2, -5, -1, 0, -1, -5,0.8906941970150415,1.106351510936558,4
1503514058388,-0.441,-0.088,-0.530,-0.719,+0.849,-0.321,-0.390,+28.812,-13.250,+20.500,-7, -4, -5, -5, -5, -3, -4, -37,0.8847593715541056,1.1044525321042493,4
1503514058410,-0.441,-0.080,-0.531,-0.719,+0.833,-0.363,-0.403,+32.125,-12.938,+21.250,-5, 0, 1, -4, -2, 3, 0, 5,0.8769014785435116,1.101211575320331,4
1503514058428,-0.442,-0.073,-0.532,-0.719,+0.843,-0.378,-0.395,+31.375,-10.188,+27.625,14, 3, -4, -4, -11, -17, -2, 2,0.8725732410949715,1.0989659952095447,4
1503514058448,-0.442,-0.066,-0.534,-0.718,+0.870,-0.370,-0.366,+31.062,-8.938,+27.812,-9, -1, 2, -2, 2, 3, 0, 10,0.8653645129665739,1.0990458184387613,4
1503514061410,-0.249,-0.098,-0.643,-0.718,+0.989,-0.115,-0.110,+2.750,-9.062,-13.688,0, -2, -3, 2, 2, 0, -2, 3,0.5138490709627751,1.413796722531115,5
1503514061432,-0.247,-0.099,-0.642,-0.719,+1.010,-0.147,-0.117,+2.562,-10.938,-10.688,6, 25, 9, 3, 2, -1, 0, 6,0.5119143236395706,1.4116058180999786,5
1503514061448,-0.246,-0.099,-0.641,-0.721,+0.983,-0.157,-0.124,-2.875,-6.312,-7.875,-13, -13, 3, 6, 1, 0, -1, -2,0.5108470532691263,1.4091851785471585,5
1503514061469,-0.245,-0.101,-0.639,-0.722,+0.949,-0.136,-0.141,-4.938,-7.312,-10.438,-12, -9, -5, -3, -1, -1, 1, 4,0.5118256564288226,1.4047253976524805,5
1503514061492,-0.244,-0.103,-0.637,-0.724,+0.988,-0.128,-0.126,-4.312,-15.812,-15.625,2, -5, -4, -6, -8, 1, -3, 1,0.5132259505739369,1.4005130004045365,5
1503514061519,-0.243,-0.103,-0.635,-0.727,+1.037,-0.167,-0.126,-2.062,-16.062,-9.875,-1, 2, 6, 1, -3, -4, 0, 0,0.5123870331439452,1.3955615370403396,5
1503514061529,-0.244,-0.103,-0.633,-0.728,+1.000,-0.184,-0.119,-7.250,-13.438,+0.062,2, -4, -7, -4, -5, -5, 2, 12,0.5142211595487041,1.3902529746425052,5
1503514061552,-0.245,-0.104,-0.630,-0.729,+0.996,-0.167,-0.112,-8.500,-18.562,-2.625,1, 0, 4, -2, 0, 2, 0, -3,0.5171964170099455,1.3826730309121131,5
1503514061581,-0.244,-0.105,-0.628,-0.732,+1.012,-0.172,-0.127,-5.125,-16.938,-11.250,-17, -6, -4, -10, -12, -6, -1, -12,0.5176602703974295,1.3783036081072697,5
1503514061590,-0.243,-0.106,-0.626,-0.733,+0.999,-0.173,-0.135,-6.062,-12.188,-13.688,1, -1, -6, -3, -5, -23, -2, -2,0.5172557051614622,1.3734706091016282,5
1503514061614,-0.243,-0.107,-0.623,-0.735,+0.963,-0.163,-0.133,-10.625,-19.500,-11.625,1, -2, 2, -5, -10, -6, -4, -1,0.5188587217570346,1.3661769454798314,5
1503514061634,-0.243,-0.110,-0.619,-0.739,+0.990,-0.142,-0.132,-13.625,-27.500,-18.688,-2, -4, -2, -6, -7, -6, -2, -10,0.5237207669090067,1.3577526564592581,5
1503514061651,-0.240,-0.113,-0.616,-0.742,+0.989,-0.115,-0.144,-12.562,-24.875,-28.312,2, -1, -5, -4, 0, 3, -1, 3,0.5229708463759551,1.3517794904284426,5
1503514061672,-0.239,-0.117,-0.612,-0.745,+0.957,-0.099,-0.160,-11.062,-19.125,-24.688,3, 2, 0, -1, -4, -3, -2, -4,0.526853496490016,1.343807018076007,5
1503514061694,-0.239,-0.119,-0.609,-0.747,+0.962,-0.083,-0.180,-16.812,-20.938,-11.562,1, -2, -1, 2, -5, -1, -1, 1,0.5296714578678327,1.3373050704581715,5
1503514061712,-0.240,-0.123,-0.605,-0.749,+0.971,-0.056,-0.200,-22.562,-17.312,-8.312,-6, -2, 1, 5, 4, 1, 0, -2,0.5366463368099667,1.3293702121210629,5
1503514061733,-0.239,-0.126,-0.602,-0.751,+0.959,-0.051,-0.198,-14.500,-14.312,-21.750,21, 5, -4, 3, 7, -1, 0, 25,0.5389358944570186,1.323543193586644,5
1503514061755,-0.236,-0.130,-0.600,-0.753,+0.958,-0.070,-0.202,-8.062,-11.375,-24.688,15, 2, -5, -8, -6, -5, 1, 10,0.5391551008319944,1.3209857951040214,5
1503514061769,-0.236,-0.132,-0.597,-0.756,+0.989,-0.071,-0.199,-12.562,-19.312,-14.938,-11, -3, 3, -2, -1, 1, -3, -18,0.5422983305684419,1.3150287395491598,5
1503514061792,-0.236,-0.134,-0.593,-0.758,+1.004,-0.058,-0.225,-15.000,-22.188,-11.812,-2, -15, -1, 0, -2, -1, -1, -1,0.5447906172335598,1.3061293958636724,5
1503514061817,-0.235,-0.136,-0.589,-0.761,+0.969,-0.056,-0.251,-9.625,-19.188,-16.312,-2, -17, -12, -2, -1, 0, 0, 11,0.5458722811655136,1.2975364420706756,5
1503514061829,-0.234,-0.138,-0.586,-0.763,+0.928,-0.069,-0.271,-4.438,-14.500,-17.562,-10, 9, 9, 2, 1, 2, -1, 5,0.5467612995288302,1.2913674996407483,5
1503514061853,-0.233,-0.139,-0.583,-0.766,+0.962,-0.067,-0.239,-8.625,-20.750,-11.812,-5, 0, -1, 1, -3, -3, -6, -8,0.5467430825735425,1.2849025771426645,5
1503514061874,-0.233,-0.141,-0.580,-0.768,+0.998,-0.020,-0.214,-13.250,-23.188,-12.375,-1, 6, 5, 2, 8, -1, -4, -13,0.5493945632799103,1.2788963099755781,5
1503514061889,-0.231,-0.143,-0.576,-0.771,+0.971,+0.021,-0.265,-4.625,-17.312,-16.625,-2, -1, -1, 0, -1, 1, 2, 7,0.5485828098781067,1.2704487938057087,5
1503514061912,-0.229,-0.144,-0.574,-0.773,+0.935,+0.005,-0.278,+2.062,-14.000,-12.875,-10, -7, -9, 1, 2, 0, 0, 4,0.5465626350797128,1.2663333395579104,5
1503514061935,-0.229,-0.144,-0.571,-0.775,+0.952,-0.024,-0.246,-4.438,-17.688,-6.938,-41, -17, -1, 2, 1, 2, -2, -44,0.5466070931919923,1.2590674280366134,5
1503514061950,-0.229,-0.146,-0.570,-0.776,+1.001,-0.023,-0.212,-11.188,-12.000,-5.625,47, 27, 0, -2, -2, -3, -2, 9,0.5493043438591299,1.258154679840509,5
1503514061972,-0.229,-0.148,-0.569,-0.776,+0.994,-0.004,-0.243,-8.875,-5.188,-3.500,-17, 1, 12, 2, 1, 0, 2, -3,0.5516114634785689,1.2569101312198658,5
1503514061988,-0.230,-0.148,-0.567,-0.777,+0.948,-0.005,-0.299,-7.688,-6.250,-0.062,5, 4, -4, -2, 0, 0, 2, 3,0.5533027371788042,1.2520690407794886,5
1503514062013,-0.231,-0.149,-0.565,-0.778,+0.937,-0.030,-0.273,-8.875,-11.000,-0.125,6, -1, -3, -1, -3, 0, 1, 5,0.5562735600862045,1.2479493128280719,5
1503514062032,-0.232,-0.150,-0.564,-0.778,+0.985,-0.052,-0.248,-11.125,-10.375,-0.750,2, -2, -1, -3, -1, -3, -2, 16,0.5591057960480474,1.2461220631778136,5
1503514062055,-0.234,-0.151,-0.563,-0.778,+0.987,-0.045,-0.252,-12.500,-5.812,+1.500,3, 6, 11, 3, -3, 1, 1, 0,0.5637542379325446,1.2443997760877763,5
1503514062080,-0.235,-0.152,-0.562,-0.779,+0.935,-0.024,-0.285,-12.125,-6.188,+2.312,0, 11, -4, -5, -1, 9, -2, -9,0.5669872798958424,1.2429520419103945,5
1503514062092,-0.236,-0.153,-0.560,-0.779,+0.916,-0.016,-0.287,-10.438,-6.875,+0.250,-13, -12, -6, -3, -1, -3, -5, -15,0.5695679980657222,1.2385242418508071,5
1503514062107,-0.237,-0.153,-0.560,-0.779,+0.953,-0.043,-0.277,-6.812,-0.688,+3.125,-7, -6, -1, -4, -3, -1, 2, -14,0.5713908539748865,1.2386240918056401,5
1503514062129,-0.239,-0.153,-0.560,-0.779,+1.012,-0.063,-0.275,-6.875,-2.375,+7.875,-8, -6, -6, -1, 0, -3, 3, 1,0.5750425693850133,1.2388236184490018,5
1503514062153,-0.241,-0.153,-0.558,-0.779,+0.998,-0.041,-0.249,-11.500,-14.438,+5.375,-4, -2, 5, 2, 0, -2, -1, 3,0.5781897140782428,1.2337762951664037,5
1503514062174,-0.242,-0.154,-0.555,-0.781,+0.963,-0.009,-0.258,-12.188,-21.938,-2.375,2, -7, -5, 0, 0, 0, 0, 3,0.5813305016180683,1.2275017785007674,5
1503514062192,-0.243,-0.155,-0.552,-0.782,+0.905,+0.005,-0.304,-8.188,-15.125,-3.125,2, -1, -2, -5, -4, -2, 2, 10,0.58406577769172,1.2208855599374582,5
1503514062214,-0.244,-0.155,-0.550,-0.784,+0.916,-0.015,-0.315,-6.250,-12.750,+2.625,-4, 6, 8, 2, 1, 2, 3, -3,0.5862050112640436,1.2165334356662154,5
1503514062234,-0.246,-0.155,-0.549,-0.784,+0.961,-0.033,-0.286,-10.000,-12.312,+6.000,2, -10, -7, 0, 0, -2, -3, -3,0.58964439767192,1.2141431181134568,5
1503514062252,-0.247,-0.155,-0.548,-0.784,+0.966,-0.038,-0.274,-10.938,-7.250,+4.875,3, 6, 0, -3, -4, -3, -5, -1,0.5912388633458555,1.2116469989666596,5
1503514062272,-0.249,-0.156,-0.547,-0.784,+0.952,-0.005,-0.319,-9.625,-4.688,+6.250,0, 10, 10, 9, 6, 1, 1, 5,0.5959476775745757,1.2100204617136896,5
1503514062288,-0.251,-0.156,-0.545,-0.785,+0.944,+0.003,-0.352,-8.938,-10.000,+11.188,-6, 0, 0, 3, 2, -1, -1, 1,0.599565825773778,1.2054315223171197,5
1503514062310,-0.254,-0.155,-0.543,-0.786,+0.958,-0.024,-0.315,-8.688,-15.625,+12.125,4, -9, -8, -3, -3, -2, -4, -15,0.6038220823909612,1.2002061072660783,5
1503514062332,-0.256,-0.154,-0.542,-0.786,+0.972,-0.057,-0.292,-7.688,-12.500,+10.312,16, 5, 0, -3, 0, -1, -1, 15,0.6060711205513771,1.197076809394632,5
1503514062361,-0.259,-0.153,-0.540,-0.786,+0.967,-0.048,-0.338,-6.500,-8.125,+13.062,5, 3, 3, 4, 0, 3, 0, 20,0.6099667562237302,1.1914715942695469,5
1503514062370,-0.262,-0.152,-0.539,-0.786,+0.953,-0.027,-0.371,-5.438,-10.125,+17.188,-2, -4, -2, -1, -1, 0, 2, 15,0.6141430668439909,1.188461422350217,5
1503514062392,-0.264,-0.150,-0.537,-0.787,+0.943,-0.022,-0.354,-2.812,-12.312,+14.438,-16, -6, -3, -3, -3, -3, 2, -8,0.6154094528125125,1.1824008669638986,5
1503514062407,-0.265,-0.149,-0.536,-0.788,+0.926,-0.034,-0.323,+0.500,-10.875,+7.062,-24, -4, -6, -5, -4, -4, -8, -33,0.6162736553078437,1.1795817723788327,5
1503514062429,-0.265,-0.148,-0.535,-0.788,+0.904,-0.046,-0.329,+2.375,-10.250,+4.250,-2, 1, 1, 0, 1, 2, 0, -11,0.6148119441015724,1.176243766303919,5
1503514062452,-0.266,-0.147,-0.534,-0.789,+0.900,-0.053,-0.343,+0.375,-10.188,+5.312,14, 2, 0, -1, -1, -1, -4, -8,0.6156931472438869,1.1734356239572064,5
1503514062467,-0.267,-0.146,-0.532,-0.790,+0.896,-0.040,-0.331,-2.312,-10.125,+3.438,28, 11, 0, -3, -3, -4, -4, 4,0.6163468566467044,1.1680524592249057,5
1503514062491,-0.267,-0.147,-0.531,-0.791,+0.877,-0.034,-0.305,-3.125,-9.688,-3.812,-26, -8, 6, 4, 2, 0, -1, -42,0.6177513440728702,1.1666405728464462,5
1503514067334,-0.282,-0.151,-0.454,-0.832,+0.833,-0.097,-0.468,-6.562,+1.500,-15.625,17, -10, -20, -7, -3, 0, 1, 21,0.651375009054129,0.9979725589287364,6
1503514067358,-0.282,-0.151,-0.454,-0.832,+0.852,-0.109,-0.456,-5.750,-3.438,-9.812,-4, -11, -8, -10, -26, -11, -1, -11,0.651375009054129,0.9979725589287364,6
1503514067372,-0.281,-0.151,-0.453,-0.832,+0.850,-0.093,-0.444,-5.938,-6.938,-8.250,2, -1, -7, -5, -4, 1, 4, 10,0.6491284915932307,0.9953815660837944,6
1503514067394,-0.280,-0.152,-0.453,-0.833,+0.858,-0.052,-0.456,-4.000,-3.812,-10.375,22, 46, 50, 23, 13, 2, -1, -15,0.6486589018826365,0.9965230952855356,6
1503514067417,-0.279,-0.152,-0.452,-0.833,+0.855,-0.036,-0.497,-0.562,-2.438,-9.438,17, -3, 3, 1, 10, 2, -1, 7,0.6464132212484769,0.9939322693055009,6
1503514067432,-0.279,-0.151,-0.451,-0.834,+0.838,-0.024,-0.506,+2.438,-7.125,-4.938,8, 2, -9, -20, -24, -8, -2, 6,0.6455308740705671,0.9911890685747776,6
1503514067461,-0.277,-0.150,-0.451,-0.835,+0.833,-0.032,-0.461,+5.000,-3.625,-6.562,0, 5, 2, -8, -9, 2, 0, 6,0.6408878300717674,0.9905451361462109,6
1503514067477,-0.275,-0.150,-0.452,-0.835,+0.890,-0.015,-0.477,+6.875,+4.125,-10.062,-27, -17, -12, -1, -4, -4, -5, -25,0.6371306216211355,0.9926424839712242,6
1503514067493,-0.272,-0.150,-0.453,-0.836,+0.902,+0.045,-0.508,+7.875,+1.438,-12.000,8, -3, -7, -7, -9, -4, 1, -4,0.6318300589168477,0.9950735819863203,6
1503514067517,-0.269,-0.149,-0.452,-0.837,+0.869,+0.033,-0.509,+12.000,-7.312,-13.688,11, 16, 15, 0, -1, -2, -2, -3,0.6249737072206609,0.9918518234708174,6
1503514067540,-0.267,-0.148,-0.452,-0.838,+0.896,-0.005,-0.500,+13.562,-3.438,-12.500,18, 9, 8, 17, 25, 10, 2, 34,0.6203562088487088,0.9912308808733549,6
1503514067555,-0.264,-0.147,-0.453,-0.839,+0.921,+0.024,-0.505,+12.875,+0.938,-6.438,-6, 3, -4, -11, -11, 0, 6, 6,0.6140035485601801,0.992889947606892,6
1503514067574,-0.263,-0.146,-0.453,-0.839,+0.922,+0.063,-0.521,+10.312,-4.688,-0.562,0, -7, -2, 4, 3, 1, 6, -8,0.610946358095653,0.9919509815153507,6
1503514067597,-0.262,-0.144,-0.450,-0.841,+0.885,+0.046,-0.515,+9.062,-19.250,-6.250,-1, -12, 1, -6, -7, -5, -4, -4,0.6069699559407983,0.9839390773458322,6
1503514067612,-0.260,-0.143,-0.447,-0.844,+0.884,+0.036,-0.466,+6.375,-27.125,-6.312,-1, -3, -7, -1, 5, 4, -3, -2,0.6025258046603429,0.977063899352824,6
1503514067634,-0.261,-0.141,-0.445,-0.845,+0.864,+0.031,-0.491,+6.938,-17.000,+5.750,6, 17, 3, 0, -12, -3, -1, -9,0.6023555362075788,0.9713500617804603,6
1503514067657,-0.262,-0.139,-0.445,-0.845,+0.823,+0.023,-0.515,+6.812,-3.625,+14.250,2, -1, -1, -7, -13, -9, -8, 0,0.6022394487528245,0.9699931762590894,6
1503514067672,-0.263,-0.137,-0.446,-0.844,+0.830,+0.004,-0.529,+7.062,+2.438,+13.250,-1, -5, -7, -4, 0, 2, 6, 10,0.6019269804442746,0.9705662188289425,6
1503514067694,-0.264,-0.135,-0.447,-0.844,+0.868,-0.021,-0.508,+7.500,-2.188,+9.062,-2, 0, -9, -3, 2, -7, -4, -1,0.6020511500399399,0.9716539554241658,6
1503514067719,-0.265,-0.132,-0.447,-0.844,+0.891,-0.052,-0.508,+7.250,-8.312,+10.500,8, -1, -6, -6, -9, -5, 1, 4,0.600923680647364,0.9695862070847067,6
1503514067732,-0.268,-0.130,-0.447,-0.844,+0.843,-0.051,-0.537,+2.000,-3.312,+18.500,-13, -26, -14, 3, 11, 1, -4, -15,0.6048415916322712,0.9685637699379455,6
1503514067754,-0.271,-0.127,-0.447,-0.843,+0.796,-0.003,-0.531,+2.875,-3.688,+21.812,3, -7, -2, -9, -15, -6, 1, 20,0.6073182579393301,0.9663064985677516,6
1503514067777,-0.272,-0.124,-0.446,-0.844,+0.823,+0.008,-0.531,+10.750,-6.000,+16.312,-3, 10, 13, 17, 19, 3, -1, -15,0.6065033875499476,0.9623622628433697,6
1503514067795,-0.273,-0.121,-0.446,-0.844,+0.841,-0.027,-0.521,+12.562,-6.875,+15.062,14, 24, 9, 2, -4, -2, -3, 4,0.6054742855687044,0.9603603780393842,6
1503514067814,-0.275,-0.117,-0.446,-0.843,+0.835,-0.063,-0.516,+10.438,-7.188,+20.500,-21, 0, -15, -11, -11, -7, 3, 6,0.6050274996452355,0.9573002754778477,6
1503514067837,-0.278,-0.114,-0.446,-0.843,+0.815,-0.072,-0.497,+9.500,-9.875,+21.125,-1, 1, 1, -5, -2, 0, -1, -4,0.6080904123817356,0.9556081254997617,6
1503514067853,-0.279,-0.112,-0.445,-0.844,+0.823,-0.042,-0.504,+2.062,-8.812,+8.938,1, -3, -6, -13, -20, -7, -1, -12,0.6084045899834377,0.9524381290513942,6
1503514067874,-0.279,-0.113,-0.444,-0.844,+0.821,+0.040,-0.500,-1.688,-8.750,+2.125,2, -5, 16, 9, -2, 0, 6, 14,0.6092079386161049,0.9506982036822124,6
1503514067897,-0.279,-0.112,-0.443,-0.845,+0.833,+0.016,-0.541,+0.750,-9.812,+7.875,8, -4, -11, 7, 12, 7, 3, -8,0.6084949926332722,0.9480942926435628,6
1503514067912,-0.282,-0.112,-0.442,-0.844,+0.836,-0.017,-0.565,-5.250,-1.625,+17.562,23, 14, -1, -12, -3, -6, -4, 1,0.6139426815947963,0.945542321555887,6
1503514067936,-0.285,-0.113,-0.442,-0.843,+0.824,+0.029,-0.553,-11.000,+4.188,+18.438,-6, 3, 10, 16, 15, 3, -11, -14,0.6205702371772011,0.9461178115729936,6
1503514067957,-0.287,-0.114,-0.442,-0.842,+0.821,+0.026,-0.565,-6.625,+2.688,+13.625,13, 5, 3, 7, 13, 3, -4, 10,0.6251692453418677,0.9465700414900828,6
1503514067972,-0.289,-0.113,-0.442,-0.842,+0.828,-0.056,-0.543,-6.938,-1.312,+14.375,-3, -9, -4, -10, -17, -8, 6, 0,0.6282723499616498,0.9461295302053869,6
1503514067995,-0.293,-0.114,-0.442,-0.840,+0.848,-0.075,-0.537,-17.125,+0.438,+17.250,-19, -4, 3, 5, 6, 9, -9, -36,0.6365116502387588,0.9463357005945218,6
1503514068017,-0.296,-0.117,-0.441,-0.839,+0.828,-0.022,-0.536,-20.625,+2.438,+16.062,-12, 10, -1, -2, -6, -6, -10, -27,0.6449758914872619,0.945966960647879,6
1503514068032,-0.299,-0.118,-0.440,-0.839,+0.828,-0.021,-0.550,-18.625,-3.062,+12.250,14, 7, -9, -7, -10, -4, 2, 20,0.6519572745149611,0.9446957017790863,6
1503514068055,-0.302,-0.119,-0.438,-0.839,+0.841,-0.080,-0.548,-17.938,-12.688,+11.750,19, 12, 3, -3, -8, -2, 2, 18,0.6587682147992016,0.9410301721497226,6
1503514068078,-0.306,-0.120,-0.435,-0.839,+0.836,-0.090,-0.542,-22.250,-16.875,+14.625,6, 2, -1, 2, -3, -5, 1, 20,0.6674853681902286,0.9351300167092859,6
1503514068093,-0.310,-0.122,-0.431,-0.839,+0.791,-0.076,-0.531,-25.625,-16.438,+11.812,7, -1, -1, -1, -3, -4, 0, 28,0.6770239575500797,0.9276426042366721,6
1503514068115,-0.313,-0.124,-0.429,-0.838,+0.787,-0.054,-0.531,-23.625,-10.062,+7.500,10, 9, 6, 5, 3, -1, 1, -7,0.6843893853940635,0.9243333087511719,6
1503514068138,-0.316,-0.124,-0.428,-0.838,+0.808,-0.077,-0.568,-16.000,-4.625,+13.062,18, 2, -2, -9, -16, -11, -2, 0,0.6904899779954905,0.9224004615392244,6
1503514068154,-0.320,-0.124,-0.427,-0.837,+0.828,-0.128,-0.558,-13.125,-3.438,+17.188,-3, 4, 8, 7, 10, -15, -4, 5,0.69822992440577,0.9201043380969963,6
1503514068174,-0.323,-0.125,-0.428,-0.835,+0.819,-0.122,-0.523,-14.750,+2.000,+13.812,-3, -5, -8, 1, -5, 2, -1, 4,0.7047474355529177,0.9226856810723618,6
1503514068197,-0.325,-0.125,-0.429,-0.834,+0.826,-0.075,-0.525,-9.625,+6.000,+12.000,1, 14, -1, 0, -4, -8, -4, -16,0.7086751926155316,0.9248487835879015,6
1503514072036,-0.384,-0.219,-0.527,-0.726,+0.930,-0.081,-0.309,+2.875,+13.625,+9.562,-3, 8, 0, 1, 0, -1, -7, -18,0.912945482677545,1.2133445754200984,7
1503514072059,-0.384,-0.218,-0.528,-0.725,+0.933,-0.089,-0.309,+4.625,+6.688,+8.250,3, -7, -2, -5, -4, -3, -2, 4,0.9113998947934168,1.21437683855344,7
1503514072075,-0.384,-0.217,-0.528,-0.726,+0.935,-0.099,-0.302,+5.312,-1.562,+0.250,-15, -5, 2, 0, 2, -1, -5, 1,0.9105324231637556,1.2136592561204953,7
1503514072096,-0.382,-0.216,-0.528,-0.727,+0.913,-0.080,-0.276,+5.938,-2.938,-9.875,-1, -8, 0, -7, -10, -3, 4, 17,0.9054476421537254,1.2126423971968971,7
1503514072120,-0.380,-0.217,-0.529,-0.727,+0.883,-0.059,-0.268,+4.688,+4.750,-8.562,16, -3, -3, 2, -1, -1, 1, 23,0.9028457793354692,1.2159191369679303,7
1503514072135,-0.379,-0.218,-0.530,-0.726,+0.885,-0.073,-0.298,+0.812,+14.625,-1.062,-5, -1, 0, 2, 2, 0, 1, -10,0.9018885289197457,1.2189833227263456,7
1503514072158,-0.379,-0.219,-0.533,-0.725,+0.935,-0.093,-0.335,+1.000,+22.000,+1.875,-23, -9, 1, 4, -3, 0, -2, -1,0.903581795975134,1.2272097635368842,7
1503514072179,-0.377,-0.219,-0.534,-0.724,+0.976,-0.096,-0.301,+5.375,+11.375,-3.562,-9, -2, 4, 0, -3, -3, -7, -10,0.8991991980393993,1.2290601205983736,7
1503514072202,-0.376,-0.219,-0.535,-0.725,+0.991,-0.091,-0.252,+5.562,-3.562,-8.000,-8, -12, -6, -5, 0, 2, 3, 8,0.8978554895994155,1.2317791721465121,7
1503514072218,-0.375,-0.218,-0.534,-0.726,+0.932,-0.073,-0.259,+0.000,-8.375,-5.500,4, 6, 3, 5, 3, 2, 2, -4,0.894611508122852,1.2284054278749295,7
1503514072239,-0.375,-0.218,-0.532,-0.727,+0.919,-0.092,-0.293,+0.125,-12.000,-2.125,-8, -9, -1, 4, 14, 5, 2, -10,0.8945348910353565,1.223754561941983,7
1503514072255,-0.375,-0.217,-0.530,-0.729,+0.941,-0.121,-0.313,-0.500,-11.125,-5.062,-3, -1, -4, -11, -13, 0, -3, -5,0.8935828639452273,1.2184011090414555,7
1503514072276,-0.374,-0.217,-0.529,-0.730,+0.967,-0.107,-0.260,-2.125,-12.812,-11.750,-12, -2, -7, -19, -23, -10, -5, -7,0.8916924835170741,1.2161178552193885,7
1503514072307,-0.373,-0.219,-0.527,-0.732,+0.955,-0.064,-0.246,-7.375,-14.250,-14.312,-18, -9, -4, -7, -6, 1, 1, -4,0.8926883380557069,1.2138726760810143,7
1503514072323,-0.372,-0.220,-0.523,-0.734,+0.934,-0.042,-0.288,-7.438,-17.625,-17.000,-1, 8, 8, 3, 5, 3, 2, -2,0.891781601202467,1.2055933342620342,7
1503514072336,-0.370,-0.221,-0.520,-0.737,+0.949,-0.024,-0.337,-4.312,-16.125,-18.875,-16, -4, 3, 0, -3, -6, -5, -6,0.8895282664169603,1.2000511643911247,7
1503514072360,-0.369,-0.222,-0.517,-0.740,+0.944,-0.021,-0.321,-3.688,-14.625,-17.125,9, 8, 4, 8, 5, 16, 7, -3,0.8893503286614322,1.194700290307129,7
1503514072384,-0.368,-0.223,-0.514,-0.742,+0.945,-0.043,-0.313,-5.438,-18.312,-13.625,16, -2, -4, -3, -6, -6, -1, 13,0.8886994718950225,1.18899933275436,7
1503514072397,-0.367,-0.224,-0.511,-0.744,+0.965,-0.030,-0.310,-7.875,-18.562,-13.812,-1, -1, 2, 3, 2, -4, -9, 3,0.8880423607425683,1.1833252237452891,7
1503514072421,-0.367,-0.226,-0.509,-0.745,+0.953,-0.008,-0.325,-7.438,-11.562,-10.750,16, 8, -5, 5, 5, -1, 1, 4,0.8906231169622659,1.1810273520106753,7
1503514072441,-0.367,-0.227,-0.507,-0.747,+0.930,+0.008,-0.353,-7.625,-11.625,-5.438,2, -7, 2, 8, 8, 8, 4, 6,0.8923200654356478,1.1780241025683802,7
1503514072457,-0.367,-0.227,-0.504,-0.748,+0.924,-0.000,-0.354,-6.938,-12.938,-5.500,-5, -3, -4, -5, -4, -5, -6, -15,0.8919257078337645,1.1710859801686042,7
1503514072480,-0.367,-0.228,-0.502,-0.749,+0.939,-0.019,-0.346,-5.625,-9.625,-4.062,12, 6, -2, 0, 5, 3, -5, -15,0.8931557079167733,1.167727567514191,7
1503514072495,-0.368,-0.228,-0.502,-0.749,+0.933,-0.020,-0.340,-8.312,-3.750,+5.188,-1, 4, 7, 4, 2, -1, 0, -9,0.8952405904872068,1.1679064551795608,7
1503514072519,-0.371,-0.228,-0.502,-0.748,+0.900,-0.002,-0.339,-11.562,+2.312,+12.250,-10, -11, -12, -7, -10, -29, -3, -2,0.9010473464035346,1.1680491437779679,7
1503514072539,-0.372,-0.229,-0.502,-0.746,+0.922,-0.000,-0.350,-9.000,+6.625,+10.000,-7, 1, 0, -2, -4, -11, 0, 12,0.9035590339255081,1.1685737943082581,7
1503514072555,-0.374,-0.230,-0.503,-0.745,+0.970,-0.043,-0.352,-7.750,+5.562,+10.125,-28, -13, 1, 0, 4, 2, 0, -9,0.9089151822521616,1.1721100130754527,7
1503514072577,-0.377,-0.229,-0.502,-0.744,+0.992,-0.062,-0.339,-12.062,-5.750,+13.500,-12, -7, -3, 1, 2, 9, 1, -6,0.9131324532949625,1.1686842586468174,7
1503514072599,-0.380,-0.230,-0.500,-0.744,+0.954,-0.020,-0.326,-16.188,-13.250,+12.312,7, -1, -6, -1, 2, 10, 1, 1,0.9202364552178484,1.1655105398472665,7
1503514072622,-0.382,-0.230,-0.498,-0.744,+0.914,+0.013,-0.343,-11.562,-9.750,+8.375,-4, -10, -8, -6, 1, -1, 0, 0,0.9239092264270611,1.1610289809911223,7
1503514072636,-0.383,-0.230,-0.498,-0.743,+0.897,-0.017,-0.385,-6.000,-0.750,+9.062,13, 4, 3, 3, 2, -4, -1, -7,0.9255668081518165,1.160815226255837,7
1503514072659,-0.385,-0.230,-0.498,-0.742,+0.918,-0.056,-0.354,-7.250,+3.688,+9.688,-5, -3, 1, -2, 1, 14, -4, -20,0.9293492979527186,1.1607849007182294,7
1503514072681,-0.386,-0.231,-0.500,-0.740,+0.947,-0.057,-0.333,-8.188,+8.375,+8.938,0, 1, -3, -4, -4, -12, 0, -15,0.932439539623496,1.166173988114659,7
1503514072696,-0.388,-0.231,-0.501,-0.739,+0.969,-0.050,-0.352,-5.688,+7.625,+10.625,-8, 0, -6, 1, 1, 5, 1, -5,0.9365054212030542,1.168567446792892,7
1503514072721,-0.389,-0.230,-0.501,-0.738,+0.970,-0.045,-0.349,-5.250,-0.375,+11.312,-4, -2, 0, -5, -2, -4, -3, -7,0.9368359615576539,1.167201231942658,7
1503514072735,-0.390,-0.230,-0.500,-0.738,+0.938,-0.048,-0.353,-2.375,-6.438,+5.500,10, -4, -2, 0, -3, -7, -9, 12,0.9386956887021362,1.164957720530791,7
1503514072760,-0.391,-0.228,-0.499,-0.739,+0.905,-0.063,-0.346,+1.375,-12.562,-1.562,-10, -4, 2, 8, 6, 0, 0, -11,0.938360392194893,1.1608083403538305,7
1503514072779,-0.391,-0.228,-0.497,-0.740,+0.913,-0.066,-0.327,-1.625,-11.375,-2.312,-5, -1, 0, 2, -5, 0, 2, 4,0.938283430117007,1.1563652171368481,7
1503514072797,-0.391,-0.228,-0.497,-0.740,+0.905,-0.044,-0.333,-5.562,-3.375,+2.875,-4, -3, -3, -3, -4, 2, 0, -6,0.938283430117007,1.1563652171368481,7
1503514072816,-0.392,-0.228,-0.497,-0.740,+0.904,-0.044,-0.348,-3.125,+1.562,+1.062,3, 0, 0, 0, 2, 2, 7, 9,0.9404241098614105,1.1565490567476002,7
1503514072840,-0.391,-0.229,-0.497,-0.740,+0.948,-0.058,-0.358,-0.688,+1.688,-4.125,-18, -11, -14, -5, 0, 0, -5, -26,0.939609917684586,1.1575182051133106,7
1503514072855,-0.391,-0.229,-0.497,-0.740,+0.955,-0.048,-0.354,-2.500,-2.500,-2.438,5, -2, 0, -2, 0, 3, 5, 13,0.939609917684586,1.1575182051133106,7
1503514072876,-0.392,-0.228,-0.495,-0.741,+0.944,-0.033,-0.355,-2.250,-12.562,+2.000,1, 4, 2, -5, -3, 8, 0, 1,0.940348557989621,1.1521174982868196,7
1503514072899,-0.393,-0.227,-0.493,-0.742,+0.949,-0.053,-0.358,-3.250,-16.062,+5.000,-5, -2, 2, -2, -4, -8, 1, 20,0.9411008912794898,1.146728881070028,7
1503514072915,-0.394,-0.226,-0.492,-0.743,+0.932,-0.056,-0.379,-1.938,-11.438,+5.688,13, 5, 4, 5, 3, -3, 2, 22,0.9421331228966111,1.1437612047323715,7
1503514072936,-0.395,-0.225,-0.491,-0.743,+0.924,-0.062,-0.378,+0.250,-7.312,+7.125,1, 8, -5, -7, -6, -4, 3, 2,0.9427113427530371,1.1403900293061613,7
1503514072961,-0.397,-0.223,-0.491,-0.743,+0.938,-0.071,-0.366,-0.500,-6.375,+9.750,7, -5, -2, 3, 5, 7, 4, 21,0.9444196280233973,1.1384716442777563,7
1503514072982,-0.399,-0.221,-0.491,-0.742,+0.981,-0.076,-0.349,-1.562,-8.125,+15.250,2, -1, -4, -5, -11, -24, -7, -24,0.9456861839897038,1.1361474738365964,7
1503514072997,-0.402,-0.219,-0.491,-0.741,+0.990,-0.082,-0.366,-1.250,-7.188,+22.250,5, -3, -2, 4, 4, 6, -3, -30,0.9491505882474314,1.1340132565791303,7
1503514073019,-0.405,-0.216,-0.491,-0.740,+0.947,-0.078,-0.412,+1.438,-9.000,+26.250,-3, 6, 5, -3, -4, 0, -1, 0,0.9513742475504782,1.1307496218907085,7
1503514073041,-0.409,-0.212,-0.491,-0.740,+0.926,-0.090,-0.407,+4.062,-13.625,+29.562,-1, -5, -1, 2, 1, -2, -2, 12,0.9550578631677284,1.1269814776394138,7
1503514073058,-0.413,-0.208,-0.491,-0.738,+0.931,-0.103,-0.375,+3.062,-12.312,+34.562,0, 28, 25, 9, 3, 2, 1, -3,0.9578939571831179,1.1223896883592843,7
1503514073079,-0.418,-0.204,-0.492,-0.736,+0.907,-0.089,-0.380,+1.125,-1.188,+42.250,0, -4, -4, -3, -4, -7, 0, 19,0.9632870851851292,1.1204178149940331,7
1503514073101,-0.423,-0.200,-0.494,-0.733,+0.878,-0.084,-0.416,+5.438,+4.500,+45.562,-3, -5, -3, -2, 1, 3, -5, -11,0.9685414713629606,1.1204654230494164,7
1503514073117,-0.428,-0.195,-0.497,-0.730,+0.888,-0.109,-0.442,+10.375,+3.500,+45.625,5, 2, 1, 9, 8, 2, -2, 3,0.9729023931264887,1.1218997123509118,7
1503514073139,-0.432,-0.190,-0.499,-0.727,+0.888,-0.143,-0.426,+13.312,+7.188,+45.438,2, -10, -12, -5, -4, 0, -3, -5,0.9748889892142198,1.1207771803742486,7
1503514073161,-0.436,-0.185,-0.503,-0.724,+0.865,-0.141,-0.384,+14.062,+7.875,+43.562,-5, 3, 7, 0, 0, 1, 0, 2,0.9773935400189417,1.1246537100631158,7
1503514073177,-0.439,-0.180,-0.505,-0.721,+0.880,-0.139,-0.395,+16.000,+4.688,+41.438,-6, -8, -6, 7, 8, 1, 8, 2,0.9772639167167001,1.123505641696644,7
1503514073199,-0.442,-0.174,-0.508,-0.719,+0.905,-0.175,-0.382,+17.938,-1.875,+39.500,-2, -5, -5, -7, -3, 5, 1, 0,0.9767393296497406,1.1243371195833525,7
1503514073224,-0.445,-0.168,-0.509,-0.717,+0.873,-0.208,-0.400,+18.438,-7.000,+36.500,-1, -4, -3, -3, -3, 0, 2, 8,0.975924212125636,1.1202628131215717,7
1503514073237,-0.448,-0.161,-0.511,-0.716,+0.827,-0.220,-0.375,+20.938,-7.938,+33.938,-7, -4, -3, -3, 4, 1, -2, -22,0.9747938574605451,1.118248700294304,7
1503514073261,-0.449,-0.156,-0.512,-0.716,+0.820,-0.222,-0.404,+21.562,-4.375,+25.750,2, -3, -2, -5, -9, -10, -3, 27,0.9716784027615035,1.1159781447999473,7
1503514073281,-0.450,-0.151,-0.513,-0.715,+0.846,-0.226,-0.377,+21.000,-5.125,+21.812,6, -1, 5, 4, 4, 0, -4, 3,0.9681007587246458,1.1133183456549685,7
1503514073297,-0.450,-0.146,-0.515,-0.714,+0.865,-0.249,-0.360,+21.750,-4.250,+19.750,-1, 0, 4, -3, -2, -5, 1, 6,0.9623744557901168,1.1131582040927936,7
1503514073319,-0.450,-0.142,-0.517,-0.714,+0.845,-0.252,-0.385,+22.688,+0.438,+16.812,-5, -8, -5, -1, 0, 3, -3, -9,0.9583106607189888,1.1145135304957725,7
1503514073341,-0.449,-0.138,-0.519,-0.714,+0.862,-0.251,-0.384,+24.062,-0.562,+10.562,1, 3, -1, -1, -5, -1, 2, 8,0.9518879047628459,1.1158216915456263,7
1503514073359,-0.448,-0.133,-0.520,-0.715,+0.888,-0.270,-0.376,+24.500,-9.562,+5.625,30, 6, 2, 4, 2, 2, 2, 32,0.9447784670884402,1.114185121407562,7
1503514073379,-0.446,-0.128,-0.520,-0.717,+0.886,-0.293,-0.377,+24.562,-20.250,+3.438,-3, 9, 14, 7, -3, -5, -5, -5,0.9357243868726475,1.1104066423611827,7
1503514073401,-0.445,-0.123,-0.519,-0.719,+0.857,-0.302,-0.375,+26.000,-25.500,+2.688,-4, -4, -5, -7, -9, -4, -2, -1,0.9289615311073403,1.1042326482403542,7
1503514073417,-0.443,-0.117,-0.519,-0.722,+0.855,-0.298,-0.361,+25.375,-22.125,+1.938,-10, -6, -3, 3, 3, 2, 4, -12,0.9195456157799898,1.1002790405811373,7
1503514073439,-0.442,-0.113,-0.519,-0.723,+0.864,-0.278,-0.346,+21.938,-16.562,+1.688,-16, -5, -6, -4, -2, -1, 0, -23,0.9135512034181791,1.0972663918558758,7
1503514073463,-0.440,-0.110,-0.519,-0.724,+0.880,-0.301,-0.364,+21.438,-9.812,+3.625,7, -2, -4, -5, -13, -29, -4, -12,0.9062335665261226,1.0950370282160082,7
1503514073477,-0.439,-0.105,-0.521,-0.725,+0.881,-0.344,-0.397,+24.500,-7.938,+4.000,0, -7, -6, -2, 2, 7, 1, 0,0.8995472698278173,1.0965893331827843,7
1503514073500,-0.437,-0.101,-0.522,-0.726,+0.883,-0.348,-0.375,+23.062,-8.438,+1.875,5, 0, -2, -1, 6, 3, 0, 14,0.8913878060631107,1.0963163793772588,7
1503514073521,-0.435,-0.098,-0.523,-0.727,+0.903,-0.315,-0.338,+20.062,-10.000,+0.812,-11, -6, -2, 1, 11, -5, 2, 0,0.8842686555884584,1.096906917520267,7
1503514073537,-0.433,-0.095,-0.524,-0.727,+0.901,-0.308,-0.346,+19.688,-9.062,+3.188,-7, -9, -9, -5, 1, 2, 6, 37,0.8765814177204136,1.0970459561033634,7
1503514073561,-0.432,-0.091,-0.524,-0.728,+0.878,-0.332,-0.391,+22.625,-9.062,+4.500,14, 1, -6, -1, -6, -4, 0, 16,0.8707398075133144,1.0943961648694316,7
1503514073581,-0.430,-0.086,-0.526,-0.729,+0.863,-0.349,-0.404,+23.438,-6.500,+5.688,-5, -4, -5, 0, 0, 6, -1, -12,0.8617817288804762,1.0963409977856227,7
1503514073604,-0.429,-0.083,-0.527,-0.729,+0.876,-0.326,-0.371,+19.000,-4.438,+7.188,-14, -5, 2, 2, -6, -22, -7, -14,0.8565151345031544,1.0967468225564894,7
1503514073619,-0.428,-0.081,-0.528,-0.729,+0.879,-0.298,-0.355,+17.688,-2.500,+7.438,-9, 4, 4, -3, -11, 2, 0, -4,0.852249758885085,1.0979158604914732,7
1503514073641,-0.427,-0.077,-0.530,-0.729,+0.881,-0.316,-0.364,+20.688,-2.188,+8.312,3, -1, -5, -4, 3, 7, 0, -4,0.8461081498972177,1.1004043025332821,7
1503514073657,-0.426,-0.074,-0.531,-0.728,+0.850,-0.345,-0.401,+19.938,+0.375,+9.875,7, 9, 7, 0, 0, -5, 3, 2,0.8402497238799109,1.1004417669955664,7
1503514073679,-0.426,-0.071,-0.533,-0.728,+0.856,-0.354,-0.365,+15.750,+0.125,+10.688,-7, -12, -9, 0, 4, 5, -2, -14,0.8374906724309321,1.1038357961062575,7
1503514073703,-0.426,-0.068,-0.534,-0.727,+0.870,-0.331,-0.369,+14.688,+0.562,+9.438,0, -1, -1, 3, 6, 3, 5, 4,0.8340237197830899,1.1040336360447798,7
1503514073717,-0.425,-0.065,-0.535,-0.727,+0.880,-0.329,-0.366,+15.500,-3.062,+10.312,4, 0, 3, 4, 8, 5, 4, 7,0.8287766107705592,1.1047223062672744,7
1503514073739,-0.425,-0.062,-0.536,-0.727,+0.859,-0.338,-0.369,+14.312,-6.000,+11.750,9, 1, -5, -7, -7, -3, -3, 7,0.8259331303606708,1.1055174448872283,7
1503514073763,-0.425,-0.059,-0.536,-0.727,+0.829,-0.348,-0.381,+14.812,-3.812,+10.750,-9, -2, 2, 1, 0, 3, -1, 19,0.8230121941591446,1.103587608884059,7
1503514073777,-0.424,-0.056,-0.538,-0.727,+0.828,-0.352,-0.363,+17.250,-0.688,+8.375,1, -2, 2, 5, 13, 1, -4, 15,0.8178645076050729,1.1071776429358158,7
1503514073800,-0.423,-0.053,-0.539,-0.726,+0.867,-0.362,-0.376,+17.375,+2.188,+9.188,0, -1, -7, -14, -16, -8, -7, -26,0.8120049454347731,1.1075287451609754,7
1503514073821,-0.424,-0.050,-0.540,-0.726,+0.876,-0.363,-0.399,+15.750,-2.438,+15.250,-10, -5, -3, -6, -5, -4, -8, -12,0.8115971363767617,1.1085435521245985,7
1503514073837,-0.424,-0.046,-0.540,-0.726,+0.849,-0.377,-0.379,+18.125,-8.312,+15.188,3, 3, 3, 4, 4, 3, 5, 4,0.8077617151419377,1.1061539368381095,7
1503514073862,-0.423,-0.041,-0.541,-0.726,+0.827,-0.393,-0.379,+23.375,-7.750,+11.125,-8, -4, 2, 8, 2, 4, 2, -9,0.8006420458699173,1.1060111317229517,7
1503514073881,-0.422,-0.037,-0.542,-0.726,+0.812,-0.403,-0.373,+24.062,-4.125,+11.750,-5, 1, 0, -7, -7, -3, 1, -12,0.7944848458304842,1.106534884530848,7
1503514073898,-0.422,-0.032,-0.544,-0.725,+0.838,-0.408,-0.384,+24.312,-0.625,+15.812,-3, -1, -1, 7, 5, -5, 3, 4,0.7892258513395608,1.1089389731131873,7
1503514073919,-0.421,-0.027,-0.546,-0.724,+0.856,-0.407,-0.389,+24.875,-0.562,+18.250,2, -4, -2, -1, 0, 2, 3, 14,0.7815264668435882,1.1114473733233583,7
1503514073942,-0.421,-0.022,-0.547,-0.724,+0.854,-0.403,-0.369,+26.000,-7.938,+17.375,9, 3, 1, -1, 2, 3, -6, -24,0.7768912657976733,1.1117743254538355,7
1503514073957,-0.420,-0.016,-0.547,-0.724,+0.830,-0.411,-0.364,+28.000,-14.375,+16.500,-7, -5, -3, 0, -3, -3, -3, -13,0.7688759377132658,1.108816656897282,7
1503514077280,-0.399,-0.229,-0.570,-0.681,+0.928,-0.144,-0.241,+1.062,-13.312,-19.375,2, -6, -1, 0, -1, -2, 1, 4,0.9488413947332435,1.3203811850050458,8
1503514077303,-0.397,-0.229,-0.568,-0.684,+0.909,-0.157,-0.206,+2.688,-14.750,-17.250,-7, -12, -15, -5, -1, 1, 2, 2,0.9454894925107699,1.3158725044810875,8
1503514077324,-0.395,-0.230,-0.567,-0.686,+0.905,-0.157,-0.178,+5.438,-6.125,-22.562,-14, -11, -3, -6, -4, -5, -1, -3,0.9433664838673418,1.314750359778625,8
1503514077339,-0.391,-0.232,-0.567,-0.687,+0.944,-0.123,-0.202,+5.250,+5.312,-22.875,-3, -2, 0, -6, -7, -4, -3, -4,0.9383016998737855,1.3167709127298497,8
1503514077362,-0.389,-0.233,-0.567,-0.688,+0.962,-0.129,-0.216,+2.812,+4.250,-16.312,-9, -9, -2, 4, 0, 2, 1, -4,0.9360249560844687,1.3179263840367474,8
1503514077388,-0.388,-0.234,-0.567,-0.688,+0.988,-0.162,-0.177,-4.312,+1.125,-9.812,10, 11, 11, 2, 4, -2, 0, 3,0.935377736344117,1.3189150469357551,8
1503514077399,-0.387,-0.236,-0.566,-0.688,+0.996,-0.138,-0.148,-9.812,-1.188,-12.875,-4, 0, -1, 0, 11, 14, -2, -2,0.9358961240227881,1.3184642659093284,8
1503514077422,-0.386,-0.239,-0.565,-0.689,+0.997,-0.066,-0.177,-11.062,-0.750,-13.000,5, 2, -2, -8, -8, 0, -2, 6,0.9383323240454109,1.3194381345432702,8
1503514077444,-0.386,-0.242,-0.563,-0.690,+0.979,-0.026,-0.214,-11.000,-3.812,-9.625,-1, -10, -7, -2, -2, -7, 0, -2,0.9425686010940658,1.3180273539413339,8
1503514077462,-0.386,-0.243,-0.560,-0.691,+0.996,-0.052,-0.232,-10.438,-9.250,-10.125,5, 0, -2, -1, -1, -2, 0, 2,0.9436172694870388,1.31184752422961,8
1503514077483,-0.386,-0.245,-0.557,-0.693,+1.005,-0.080,-0.216,-12.000,-15.500,-12.438,-5, 5, 4, 1, -6, -1, 0, -1,0.9465684709224391,1.3071391280246134,8
1503514077504,-0.385,-0.247,-0.554,-0.696,+0.992,-0.067,-0.181,-10.625,-19.312,-15.688,-4, -5, -3, -1, 2, -3, -2, -13,0.9478944335505345,1.3026462185568801,8
1503514077526,-0.384,-0.248,-0.551,-0.698,+0.966,-0.029,-0.213,-7.438,-16.625,-16.125,-4, 2, 4, 0, -2, 1, 2, 0,0.9473098816235116,1.2967393254619315,8
1503514077541,-0.383,-0.249,-0.547,-0.701,+0.957,-0.028,-0.270,-3.000,-17.812,-17.625,-8, -5, -4, 5, 8, -1, -2, -1,0.9468773053318917,1.2886661725765027,8
1503514077564,-0.381,-0.250,-0.544,-0.704,+0.970,-0.065,-0.250,-2.438,-18.438,-20.562,3, -2, -5, -4, -6, -1, -1, 1,0.9446621610569281,1.2829957817246644,8
1503514077588,-0.379,-0.251,-0.541,-0.707,+0.986,-0.098,-0.217,-2.938,-16.250,-27.812,0, -4, -2, -7, -4, -6, -7, -12,0.9424440560673212,1.2773560882128832,8
1503514077601,-0.377,-0.253,-0.538,-0.710,+1.013,-0.061,-0.225,-7.375,-13.688,-22.938,-1, 15, 19, 3, -4, 0, 3, 8,0.9416746824972612,1.2729353627190658,8
1503514077624,-0.377,-0.255,-0.536,-0.711,+0.975,+0.016,-0.290,-7.688,-6.312,-12.125,-5, -12, -16, -12, -6, -1, -3, -7,0.9444298473718344,1.270692768050153,8
1503514077646,-0.375,-0.256,-0.534,-0.714,+0.943,+0.013,-0.311,+0.375,-10.312,-12.000,-13, -4, -1, -5, -5, -3, -1, 3,0.9425005031518087,1.2676075083668015,8
1503514077662,-0.373,-0.255,-0.531,-0.716,+0.983,-0.044,-0.261,+5.938,-15.812,-19.812,0, -3, -3, 0, -1, -1, -1, 1,0.9369188142610017,1.2593491101904144,8
1503514077684,-0.371,-0.255,-0.529,-0.719,+1.021,-0.084,-0.232,+7.625,-18.688,-20.812,-4, -2, 0, 6, 3, 2, 0, -1,0.9335370873587305,1.255092526489705,8
1503514077706,-0.370,-0.254,-0.526,-0.722,+0.995,-0.062,-0.271,+0.312,-23.438,-12.688,-2, 1, 7, -2, -7, -3, 0, 2,0.9304552152954066,1.24735470326881,8
1503514077722,-0.370,-0.254,-0.522,-0.726,+0.935,+0.003,-0.277,-3.188,-28.625,-11.625,3, 7, 2, 3, 4, 3, 0, 4,0.9310095332524169,1.23890107561785,8
1503514077744,-0.368,-0.253,-0.518,-0.730,+0.909,+0.030,-0.308,+5.188,-28.062,-17.438,-4, -5, -7, -5, -6, -2, -1, -7,0.9260210618002672,1.2289668851915472,8
1503514077760,-0.366,-0.251,-0.515,-0.733,+0.927,-0.023,-0.268,+11.000,-21.688,-17.500,0, -4, -4, -4, -6, -4, -1, 3,0.9194759910617528,1.2199621019054663,8
1503514077781,-0.365,-0.250,-0.514,-0.735,+0.945,-0.054,-0.269,+6.625,-15.875,-9.250,-7, -1, -2, -6, -5, -1, -2, -14,0.9165853061942822,1.216868052325124,8
1503514077804,-0.365,-0.249,-0.512,-0.737,+0.960,-0.026,-0.304,+1.625,-15.500,-6.125,1, -14, -10, -3, 0, -1, 1, 9,0.9154503649989971,1.2115218419201967,8
1503514077823,-0.364,-0.249,-0.509,-0.739,+0.942,+0.019,-0.316,-1.125,-21.125,-8.812,2, 6, 5, 2, -2, 0, 1, -4,0.9133726934689903,1.2047715956863971,8
1503514077841,-0.364,-0.248,-0.505,-0.742,+0.929,+0.030,-0.297,-0.312,-27.500,-6.562,-2, 3, 5, 12, 4, -16, -2, -2,0.9120858049356944,1.1949740511051423,8
1503514077864,-0.366,-0.247,-0.502,-0.744,+0.951,+0.009,-0.298,-5.312,-23.562,+1.625,3, 2, -3, -3, -1, 2, -3, -3,0.9147989531340163,1.1876334859510416,8
1503514077879,-0.368,-0.247,-0.500,-0.744,+0.935,+0.028,-0.320,-8.875,-12.625,+8.438,-2, -4, -4, -2, 0, 2, 0, 1,0.9183381881843916,1.183172792063048,8
1503514077901,-0.369,-0.246,-0.498,-0.745,+0.940,+0.042,-0.363,-1.062,-13.062,+5.812,-1, -5, -5, -10, -5, -1, -2, -3,0.9188729403038597,1.1777224433990985,8
1503514077924,-0.369,-0.245,-0.496,-0.747,+0.918,+0.031,-0.368,+0.375,-15.125,-1.688,5, 8, 1, -3, -3, -1, -1, 0,0.9177890618018271,1.1724790397743445,8
1503514077946,-0.369,-0.245,-0.493,-0.749,+0.944,+0.025,-0.319,-4.625,-21.688,-5.562,-4, -4, -4, -3, -2, 2, 0, 1,0.9177927069488886,1.1660368791320677,8
1503514077962,-0.370,-0.245,-0.490,-0.750,+0.952,+0.054,-0.341,-7.188,-18.188,-0.625,7, 3, 8, 2, 3, 3, 1, 0,0.9194335717540046,1.1594225964455755,8
1503514077984,-0.371,-0.244,-0.488,-0.751,+0.934,+0.057,-0.378,-4.625,-15.438,+5.375,-10, 4, 11, 3, 3, 2, -3, -10,0.9200079345417788,1.1540281999638773,8
1503514078000,-0.372,-0.244,-0.485,-0.753,+0.880,+0.051,-0.371,-5.750,-16.312,+2.812,-4, -5, -8, -4, -1, 2, -1, 1,0.9221145969744708,1.1478491175139502,8
1503514078024,-0.374,-0.244,-0.483,-0.753,+0.892,+0.034,-0.334,-9.562,-12.938,+2.750,-5, -6, -4, -1, 7, 0, 0, 0,0.9257230054759595,1.1434817909079578,8
1503514078044,-0.376,-0.245,-0.483,-0.752,+0.924,+0.002,-0.349,-11.625,-3.438,+9.062,4, 5, 7, 9, 6, 0, -1, 1,0.930840997485633,1.1446875252211164,8
1503514078062,-0.379,-0.245,-0.482,-0.751,+0.950,-0.009,-0.382,-11.625,-1.500,+14.000,-2, -1, -6, -2, -6, -2, 0, -1,0.9364238099153431,1.1425175792310964,8
1503514078081,-0.381,-0.244,-0.481,-0.751,+0.964,-0.008,-0.382,-12.125,-9.625,+12.438,-43, -23, -12, -4, -3, -1, -1, -7,0.9390044027545391,1.1393427140878927,8
1503514078104,-0.384,-0.244,-0.478,-0.751,+0.934,-0.010,-0.357,-13.438,-19.062,+5.438,5, 0, -2, -1, -6, 1, -1, 0,0.9445061975859905,1.1328418726412786,8
1503514078119,-0.386,-0.244,-0.475,-0.753,+0.903,-0.011,-0.337,-13.562,-23.750,-0.562,14, 3, 1, 2, 9, 5, 1, 3,0.9488072255429347,1.1269761322919774,8
1503514078141,-0.388,-0.244,-0.471,-0.754,+0.914,+0.002,-0.372,-12.062,-22.000,+0.750,1, 2, -5, -4, -6, -4, -1, -4,0.9523925210748115,1.1183802316176834,8
1503514078164,-0.390,-0.244,-0.469,-0.754,+0.902,+0.019,-0.424,-11.188,-15.250,+5.312,-9, -1, -1, 1, -1, -1, -3, 1,0.9561106930335839,1.1141069937922177,8
1503514078180,-0.392,-0.244,-0.466,-0.755,+0.881,+0.007,-0.424,-9.188,-12.750,+5.938,15, 4, 5, 4, 18, 7, 1, 0,0.960012697569507,1.1079195552969245,8
1503514078201,-0.393,-0.243,-0.465,-0.755,+0.891,-0.015,-0.398,-7.812,-10.125,+3.062,5, 1, -3, -8, -11, -7, -4, 1,0.9605537617768787,1.1045741936157232,8
1503514078226,-0.394,-0.244,-0.464,-0.755,+0.900,-0.016,-0.393,-6.688,-2.438,+2.062,-3, -9, -4, -4, -4, 0, 0, -7,0.9637603861853283,1.103678497036087,8
1503514078240,-0.395,-0.244,-0.464,-0.754,+0.904,+0.007,-0.424,-5.562,+3.125,+4.875,-19, -6, -4, -5, -2, -3, -3, -10,0.9654676421094548,1.1034802900282132,8
1503514078262,-0.396,-0.244,-0.465,-0.754,+0.912,+0.014,-0.431,-3.312,+2.312,+8.812,17, 11, 4, 3, -2, -2, -1, 0,0.9679031841960163,1.1060367202046872,8
1503514078284,-0.397,-0.243,-0.465,-0.754,+0.933,+0.002,-0.416,-0.312,-1.938,+6.250,8, 10, 6, 7, 0, 1, -2, 4,0.9687345293178969,1.1050296527482082,8
1503514078301,-0.397,-0.242,-0.465,-0.753,+0.916,+0.005,-0.403,+1.375,-0.875,+5.188,0, -6, -8, -8, -8, -6, -2, 1,0.9669582329719637,1.1033881631053113,8
1503514078321,-0.397,-0.241,-0.466,-0.753,+0.885,+0.007,-0.423,+3.000,+2.188,+6.875,-6, -13, -8, -5, -4, -1, 0, -7,0.9659085890085299,1.1045089836237085,8
1503514078344,-0.398,-0.240,-0.466,-0.753,+0.890,-0.008,-0.432,+4.562,+3.938,+10.562,5, 4, 7, 4, 3, 1, 2, 6,0.9667515534122237,1.103508565011477,8
1503514078361,-0.399,-0.238,-0.468,-0.752,+0.929,-0.019,-0.423,+5.438,+1.562,+12.688,5, 6, 2, -3, -4, -2, 0, 5,0.966373973325162,1.1055692934960468,8
1503514078382,-0.400,-0.236,-0.468,-0.751,+0.942,-0.016,-0.384,+4.375,-2.250,+12.375,-3, -26, -18, -2, 2, 0, -2, -3,0.965464327875268,1.1029482655131337,8
1503514078404,-0.401,-0.235,-0.468,-0.751,+0.907,+0.008,-0.391,+2.938,-6.562,+11.500,-9, -2, 0, -1, -3, -1, 2, 1,0.9663297000381971,1.1019579094151393,8
1503514078419,-0.403,-0.233,-0.467,-0.752,+0.873,+0.005,-0.410,+3.562,-11.750,+9.875,-24, -6, -8, -6, -1, 10, 1, -8,0.9682725337109811,1.0980586934463747,8
1503514078441,-0.404,-0.231,-0.466,-0.753,+0.873,-0.010,-0.417,+3.625,-12.250,+7.375,2, 5, 6, 2, 1, 1, 0, -2,0.9680629283505784,1.0939607858238936,8
1503514078464,-0.405,-0.229,-0.465,-0.753,+0.873,-0.029,-0.386,+2.125,-10.625,+6.438,9, 9, 8, 3, 0, -5, -3, 3,0.9674170496161636,1.0894460178815129,8
1503514078479,-0.405,-0.229,-0.465,-0.753,+0.841,-0.023,-0.371,-1.750,-2.625,+3.000,22, 11, 5, 4, 0, -2, -1, 16,0.9674170496161636,1.0894460178815129,8
1503514078503,-0.404,-0.230,-0.465,-0.753,+0.825,-0.017,-0.374,-3.812,+5.688,-6.188,-1, 3, 3, 1, 0, -2, -3, -9,0.9665131716076273,1.0904225102198422,8
1503514078528,-0.402,-0.232,-0.466,-0.753,+0.873,-0.027,-0.396,-4.250,+10.812,-13.125,-11, -2, 3, -1, 0, 0, 0, 1,0.964989190756193,1.0947288306192187,8
1503514078540,-0.400,-0.235,-0.467,-0.753,+0.933,-0.035,-0.385,-5.812,+11.250,-14.812,3, -6, -4, -7, -14, -1, -1, -3,0.9648000651707204,1.1002426711706115,8
1503514078563,-0.398,-0.238,-0.467,-0.753,+0.932,-0.024,-0.389,-8.938,+9.875,-17.188,-15, -11, -6, -5, -6, -6, -2, -7,0.964389477539771,1.1034287557400801,8
1503514078584,-0.396,-0.241,-0.466,-0.754,+0.916,+0.024,-0.398,-7.500,+3.000,-19.688,-2, -1, -2, 0, 4, 10, -4, -55,0.964198359354364,1.1047112313953986,8
1503514078606,-0.393,-0.243,-0.465,-0.755,+0.946,+0.040,-0.430,-1.938,-1.750,-16.062,-2, -2, -4, -5, -6, -3, -6, 1,0.9605537617768787,1.1045741936157232,8
1503514082686,-0.185,-0.149,-0.558,-0.795,+0.948,+0.048,-0.318,+0.438,-5.438,+2.062,2, 6, -4, -4, -7, -3, -5, -13,0.47873553515992573,1.231243405095371,9
1503514082708,-0.187,-0.149,-0.558,-0.795,+0.957,+0.023,-0.270,-5.188,-2.188,+6.250,-3, -3, 1, -3, -4, -1, -1, 4,0.48224467172463853,1.2314419171815665,9
1503514082724,-0.188,-0.150,-0.559,-0.793,+0.938,+0.026,-0.242,-8.938,+6.000,+8.188,-11, -4, 0, 0, -2, -1, -1, -2,0.4848680391203582,1.234124247167069,9
1503514082746,-0.189,-0.150,-0.561,-0.792,+0.939,+0.024,-0.274,-4.500,+15.312,+5.062,1, -3, 0, 1, -6, 0, 1, 6,0.48681966684976596,1.2391300124575677,9
1503514082769,-0.189,-0.150,-0.563,-0.791,+0.966,+0.007,-0.332,+1.062,+16.375,+1.750,1, 0, -3, -2, -3, -1, -1, 6,0.48701591496418806,1.2440444863113607,9
1503514082784,-0.189,-0.150,-0.563,-0.790,+0.972,+0.008,-0.286,-1.812,+1.625,+1.062,10, 5, 9, 2, 2, 0, 1, 9,0.4866817383730462,1.243682795605726,9
1503514082806,-0.190,-0.150,-0.562,-0.791,+0.976,+0.026,-0.230,-4.875,-14.312,+0.875,-2, 2, 5, 5, 4, 2, -3, -10,0.4885039962658131,1.2415015482473089,9
1503514082829,-0.190,-0.150,-0.560,-0.792,+0.941,+0.029,-0.229,-5.938,-11.938,+0.125,-1, -5, -12, -5, -2, 0, 3, 16,0.48830965637517865,1.2365904049863259,9
1503514082843,-0.191,-0.151,-0.560,-0.792,+0.903,+0.023,-0.265,-4.125,-2.625,+0.438,0, 3, -4, -6, -7, -3, -5, -9,0.49133844949479616,1.2373829812107235,9
1503514082866,-0.191,-0.151,-0.560,-0.792,+0.887,+0.011,-0.330,-2.375,+5.500,+0.312,-4, -4, -9, -4, 1, -2, -2, 3,0.49133844949479616,1.2373829812107235,9
1503514082892,-0.192,-0.151,-0.560,-0.792,+0.931,+0.026,-0.292,-5.062,+3.812,+2.625,1, 1, 12, 5, 0, 0, 0, -5,0.4930968719078034,1.237481810473722,9
1503514082903,-0.192,-0.152,-0.560,-0.792,+0.991,+0.035,-0.257,-5.438,-1.125,+2.312,-12, -11, -4, 0, 1, 3, 0, -7,0.4943705962406399,1.2381799340376989,9
1503514082926,-0.192,-0.152,-0.561,-0.791,+0.997,+0.041,-0.232,-4.562,+4.875,+0.312,-3, -6, -3, 0, 1, -3, 0, -3,0.4943001558790264,1.2404500499395534,9
1503514082949,-0.192,-0.153,-0.562,-0.790,+0.946,+0.042,-0.277,-3.000,+10.562,-2.250,16, 9, 5, 7, 5, 3, 0, 0,0.4955089588092867,1.2434253130516224,9
1503514082963,-0.191,-0.154,-0.563,-0.790,+0.934,+0.021,-0.331,-0.438,+7.375,-3.375,0, -5, -1, -6, 4, 1, 0, 1,0.4953064363867514,1.2466682065768255,9
1503514082986,-0.190,-0.154,-0.562,-0.790,+0.955,-0.003,-0.304,+0.062,-1.812,-5.500,20, 5, -4, -2, -9, -5, -4, 8,0.4932821946742826,1.2439324107268261,9
1503514083009,-0.189,-0.154,-0.561,-0.791,+0.971,-0.005,-0.266,+0.812,-8.938,-9.375,-9, -7, -2, 7, 18, 8, -1, -3,0.49159240860303083,1.2415579398040486,9
1503514083025,-0.188,-0.154,-0.560,-0.792,+0.934,+0.009,-0.263,+3.375,-4.625,-12.000,-5, -2, -1, 1, -5, -2, -1, -1,0.48990082367844817,1.2391859564867356,9
1503514083046,-0.186,-0.154,-0.560,-0.793,+0.904,+0.038,-0.283,+2.625,-2.688,-11.250,1, -5, -4, -6, -4, -5, 1, 1,0.48672799355644375,1.2393500634373784,9
1503514083069,-0.184,-0.154,-0.558,-0.794,+0.958,+0.054,-0.297,+3.062,-5.875,-8.812,-5, -6, -12, -4, -8, -5, -3, -10,0.4830097783930579,1.2342458671814887,9
1503514083084,-0.183,-0.154,-0.557,-0.796,+0.994,+0.048,-0.299,+7.188,-10.750,-7.062,-15, -13, -2, 1, 3, 0, 1, 0,0.4816370310315215,1.232250331279264,9
1503514083106,-0.181,-0.153,-0.556,-0.797,+1.004,+0.030,-0.258,+6.688,-13.812,-6.250,10, 9, 4, -1, 0, -2, -5, -1,0.47691469000326475,1.2290855138732446,9
1503514083129,-0.181,-0.152,-0.555,-0.798,+0.972,+0.053,-0.229,+2.375,-12.000,-0.438,3, -3, -6, 2, 4, -1, 2, 6,0.47569732173193807,1.2261325455994894,9
1503514083143,-0.182,-0.151,-0.555,-0.798,+0.963,+0.071,-0.304,+0.875,+0.312,+9.812,-8, -7, -1, -2, -5, -1, -1, 2,0.47618464710027425,1.225541758125159,9
1503514083166,-0.183,-0.150,-0.556,-0.797,+0.961,+0.075,-0.333,+2.750,+4.375,+12.438,6, -5, -4, -7, -6, -2, -3, 0,0.4766168542277454,1.2272089923518903,9
1503514083188,-0.182,-0.149,-0.557,-0.797,+0.993,+0.059,-0.283,+7.250,+3.438,+4.125,-27, -1, 10, 8, 7, -2, -5, -12,0.47386653970761355,1.2290552807967063,9
1503514083204,-0.182,-0.148,-0.558,-0.796,+0.984,+0.065,-0.262,+5.625,+3.938,+3.688,6, 0, -2, -2, -3, -2, 1, 9,0.4725430249841308,1.230635707106618,9
1503514083228,-0.182,-0.147,-0.558,-0.796,+0.961,+0.083,-0.271,+2.750,-1.438,+9.125,12, 19, 7, 1, 1, -1, -1, 6,0.47128013999945884,1.2299576152646077,9
1503514083248,-0.182,-0.147,-0.557,-0.797,+0.942,+0.058,-0.272,+1.250,-5.688,+3.438,-14, -9, -2, -3, -2, -2, 0, -2,0.47134253894339334,1.2276952694128138,9
1503514083264,-0.182,-0.147,-0.557,-0.797,+0.972,+0.021,-0.278,-1.938,-2.688,-0.500,9, 1, -1, 5, 9, 4, 3, 12,0.47134253894339334,1.2276952694128138,9
1503514083286,-0.184,-0.147,-0.557,-0.797,+0.966,+0.026,-0.302,-5.375,+1.875,+6.000,1, -6, -7, -5, -5, -4, -1, -9,0.47484885275703814,1.2278930419003304,9
1503514083308,-0.185,-0.146,-0.557,-0.796,+0.932,+0.019,-0.291,-4.750,-0.625,+7.125,-3, -7, -6, -2, -1, 0, 0, -11,0.47501624670890313,1.226940346059558,9
1503514083327,-0.186,-0.147,-0.557,-0.796,+0.917,+0.008,-0.258,-8.438,+0.750,+1.750,-3, -2, 1, 1, 0, 15, 7, 6,0.47803108268558964,1.2277161333075857,9
1503514083346,-0.186,-0.149,-0.558,-0.795,+0.912,+0.028,-0.260,-12.938,+10.125,-2.375,-16, -5, 1, -2, 3, 7, 0, -5,0.48048931057109495,1.2313426890374775,9
1503514083370,-0.187,-0.151,-0.560,-0.793,+0.917,+0.038,-0.309,-8.812,+18.000,-1.188,0, -2, -1, -4, -4, -7, -7, -9,0.48465209928038644,1.23735417266377,9
1503514083384,-0.187,-0.152,-0.562,-0.792,+0.944,+0.017,-0.316,-7.750,+15.938,+2.125,3, 1, 1, -1, -10, -4, 1, 1,0.48613299434394186,1.2429584798243378,9
1503514083406,-0.188,-0.153,-0.562,-0.791,+0.952,+0.015,-0.284,-9.125,+5.750,+1.062,22, 8, -2, 0, 1, -6, -1, 11,0.4888314191680749,1.2433931484484477,9
1503514083429,-0.188,-0.153,-0.561,-0.791,+0.962,+0.018,-0.241,-4.188,-6.625,+0.312,-8, -7, -9, -4, -4, -5, -3, 2,0.4885610995065777,1.2407549179008086,9
1503514083444,-0.188,-0.152,-0.560,-0.793,+0.964,+0.020,-0.284,+2.000,-12.750,-1.812,-14, -2, 1, 2, 2, -4, -2, -10,0.48767932613807163,1.2381485927349758,9
1503514083468,-0.188,-0.151,-0.557,-0.795,+0.935,+0.041,-0.348,+3.812,-16.188,-1.625,21, 11, -2, -1, 1, -1, -1, -10,0.4862692934675382,1.2302906839930048,9
1503514083488,-0.189,-0.149,-0.554,-0.797,+0.947,+0.034,-0.332,+6.125,-22.562,+5.750,10, 1, 2, 3, 0, -17, -5, -6,0.48537446743641094,1.2218685769970452,9
1503514083504,-0.189,-0.147,-0.552,-0.799,+0.972,+0.054,-0.243,+3.250,-22.250,+6.438,-1, -3, 0, 5, 9, 4, 1, 7,0.4830099288839776,1.2160046050671425,9
1503514083528,-0.189,-0.147,-0.550,-0.800,+0.953,+0.087,-0.263,+2.562,-14.812,+2.312,-4, -7, -6, -4, -6, 2, 0, 2,0.48282387970505364,1.2111406319880509,9
1503514083548,-0.189,-0.146,-0.548,-0.802,+0.917,+0.078,-0.301,+1.688,-15.938,+1.188,-3, -8, -5, -1, 2, 5, 4, 2,0.4817295602111065,1.2059932286340047,9
1503514083565,-0.190,-0.146,-0.545,-0.804,+0.934,+0.046,-0.312,-1.438,-20.188,+2.250,-2, 1, 2, 0, 1, -1, -1, 2,0.48339988499933934,1.1990330306299832,9
1503514083586,-0.191,-0.145,-0.543,-0.805,+0.955,+0.044,-0.316,-4.750,-19.000,+3.938,-13, -5, -1, -4, -6, 9, 3, -7,0.48376699021983993,1.193629087189254,9
1503514083608,-0.192,-0.145,-0.540,-0.806,+0.928,+0.059,-0.325,-6.938,-16.688,+6.000,-4, -4, 0, -2, -4, -7, 2, 19,0.4851188978989676,1.1863069214732553,9
1503514083624,-0.194,-0.146,-0.538,-0.808,+0.912,+0.060,-0.319,-8.500,-17.062,+7.312,-6, -5, -7, -3, -2, 1, -4, -3,0.4900886494162142,1.1828116771408148,9
1503514083646,-0.197,-0.146,-0.535,-0.808,+0.935,+0.041,-0.325,-10.438,-16.312,+9.062,-4, 11, 12, 5, 1, -3, -4, -29,0.4946992918348949,1.1753434469124726,9
1503514083671,-0.200,-0.146,-0.534,-0.809,+0.965,+0.030,-0.318,-13.438,-13.125,+12.312,17, 8, 1, 1, 0, 0, 2, 22,0.5001928116158879,1.1734974118100074,9
1503514083684,-0.203,-0.146,-0.532,-0.809,+0.938,+0.029,-0.333,-15.500,-13.500,+13.438,-12, -3, 0, -6, -5, 1, 0, -2,0.5051003606413169,1.1686514616274621,9
1503514083706,-0.206,-0.146,-0.530,-0.810,+0.920,+0.023,-0.365,-13.000,-14.000,+11.500,11, 1, -5, -3, -4, -5, -3, 3,0.5103855685169213,1.1642348054598874,9
1503514083730,-0.208,-0.147,-0.528,-0.810,+0.926,+0.037,-0.363,-10.938,-12.312,+9.562,-10, -4, 1, 3, 2, 3, -4, -10,0.5147206364783008,1.1599988341403913,9
1503514083744,-0.211,-0.147,-0.526,-0.811,+0.944,+0.024,-0.339,-12.000,-9.188,+8.750,4, 7, 12, 7, 3, 1, -1, -1,0.5200444330244863,1.1556128258694431,9
1503514083766,-0.213,-0.148,-0.526,-0.810,+0.948,+0.015,-0.342,-13.500,-5.625,+10.875,-13, 0, 2, 1, 2, 1, 1, 0,0.5245393023192135,1.1561374224380525,9
1503514083788,-0.216,-0.148,-0.525,-0.810,+0.949,+0.015,-0.366,-12.000,-3.500,+12.875,1, -2, -11, -7, -2, 1, -2, 2,0.5297790494906288,1.1539188405462557,9
1503514083811,-0.219,-0.148,-0.524,-0.810,+0.931,+0.028,-0.390,-9.375,-6.000,+12.000,-4, -5, -3, 4, 7, 0, 2, -4,0.5350362579428745,1.1517047179864206,9
1503514083834,-0.220,-0.148,-0.523,-0.810,+0.931,+0.016,-0.343,-6.500,-8.875,+9.000,8, 0, -5, -4, 1, 0, 2, 5,0.5366229862940511,1.1492529450209026,9
1503514083849,-0.222,-0.147,-0.523,-0.810,+0.953,-0.009,-0.333,-6.188,-2.688,+11.875,-3, 1, 7, 2, -1, -1, 1, 10,0.5391106965641208,1.1487752902815778,9
1503514083866,-0.226,-0.146,-0.524,-0.808,+0.966,-0.015,-0.378,-6.688,+3.812,+22.000,-11, -4, 0, 1, -1, 1, -2, -16,0.5447880342029411,1.1502527129367814,9
1503514083886,-0.230,-0.144,-0.525,-0.807,+0.970,-0.017,-0.391,-4.438,+3.812,+26.875,-3, -1, 0, 7, 4, 1, 1, -2,0.5496658367674887,1.1514409934631977,9
1503514083908,-0.234,-0.141,-0.525,-0.806,+0.973,-0.024,-0.392,-0.812,-0.312,+26.750,2, -1, -4, -2, -4, -5, 4, 3,0.5531322934510352,1.1493485423601641,9
1503514083924,-0.238,-0.138,-0.526,-0.805,+0.964,-0.027,-0.363,+0.500,-1.625,+32.125,-4, -2, -2, -1, 3, 1, -1, -3,0.5568739015754782,1.149845535905326,9
1503514083946,-0.243,-0.135,-0.527,-0.803,+0.942,-0.016,-0.384,+1.188,+2.000,+38.938,3, 3, 4, 4, -1, -1, -2, -7,0.5621132780734055,1.150037479675736,9
1503514083970,-0.248,-0.131,-0.529,-0.801,+0.926,-0.018,-0.391,+4.250,+4.438,+42.562,-2, -4, -1, -9, -7, -3, -5, -18,0.5664330720620684,1.1521421429025762,9
1503514083984,-0.253,-0.126,-0.530,-0.800,+0.922,-0.057,-0.384,+7.375,+1.562,+43.500,-5, -2, -3, -3, -3, -1, -2, 1,0.5698304177068363,1.151452342237979,9
1503514084007,-0.258,-0.120,-0.531,-0.798,+0.924,-0.082,-0.369,+8.125,+1.438,+45.500,4, 10, 4, 8, 6, 4, -2, 1,0.5717151504608217,1.149727199334867,9
1503514084028,-0.263,-0.115,-0.533,-0.796,+0.891,-0.067,-0.348,+6.375,+1.250,+45.688,2, 5, 1, -4, -4, -5, -3, -1,0.5750258234625798,1.1513229570375716,9
1503514084044,-0.268,-0.111,-0.534,-0.794,+0.878,-0.056,-0.341,+4.812,-0.062,+42.188,-6, -4, -1, -5, -1, 1, 0, -4,0.5793451059657285,1.1509922406817192,9
1503514084066,-0.272,-0.107,-0.534,-0.793,+0.891,-0.078,-0.350,+4.562,-0.688,+36.688,4, -4, -2, 1, 5, 1, -1, -1,0.5820609141120809,1.1484197080750225,9
1503514084088,-0.276,-0.104,-0.535,-0.791,+0.877,-0.114,-0.339,+3.500,+1.500,+33.188,-3, -2, -1, -3, 1, 2, 0, 3,0.585681315851943,1.1486622738929122,9
1503514084105,-0.280,-0.101,-0.536,-0.790,+0.866,-0.114,-0.339,+1.125,+1.812,+31.625,0, -2, -3, -4, -6, -3, -2, 2,0.5898010529234993,1.1493626911024704,9
1503514084126,-0.283,-0.099,-0.537,-0.789,+0.873,-0.100,-0.334,-0.688,+2.312,+26.812,-5, 9, 7, 0, -2, -1, -1, -2,0.5931224816477015,1.1505956868129616,9
1503514084148,-0.286,-0.098,-0.537,-0.788,+0.886,-0.114,-0.350,-0.312,+2.438,+18.562,4, -5, -4, -5, -3, -1, 2, -1,0.5974209539795371,1.1497977889465911,9
1503514084167,-0.287,-0.096,-0.538,-0.787,+0.926,-0.162,-0.364,+1.312,+3.062,+14.188,-3, -2, -2, 0, -2, -1, 1, 4,0.5968330123638349,1.150880380727022,9
1503514084186,-0.290,-0.095,-0.538,-0.786,+0.936,-0.180,-0.352,-3.062,-3.625,+16.250,0, -3, -7, 3, 1, -1, -4, -11,0.6011573352897335,1.1500807916700606,9
1503514084209,-0.293,-0.093,-0.537,-0.786,+0.911,-0.152,-0.358,-7.750,-8.000,+20.500,1, 3, 6, 0, -1, -3, -1, 8,0.6047220738884613,1.1464941138095757,9
1503514084225,-0.296,-0.092,-0.536,-0.786,+0.884,-0.135,-0.362,-5.750,-7.500,+17.938,10, -2, -6, -1, -1, 1, 2, 17,0.6094354227851988,1.1434971302213721,9
1503514084246,-0.298,-0.091,-0.535,-0.785,+0.888,-0.169,-0.376,-2.188,-4.312,+16.500,-4, 0, 1, -6, -4, 1, -6, -8,0.6116822758802929,1.1399692066214189,9
1503514084269,-0.301,-0.089,-0.535,-0.784,+0.904,-0.174,-0.375,-3.188,-1.812,+21.750,-6, -1, 2, 3, 8, 6, 4, 2,0.6149999575977347,1.138569333163979,9
1503514084284,-0.305,-0.087,-0.535,-0.783,+0.921,-0.180,-0.375,-3.562,-3.938,+27.875,-1, -1, -4, -6, -3, -3, 2, -2,0.6203655270769517,1.1372448336918086,9
1503514084309,-0.309,-0.084,-0.535,-0.782,+0.930,-0.188,-0.383,-1.812,-4.062,+27.812,-2, 2, 1, 1, -6, -1, 0, -9,0.6246932094894357,1.1353399122733159,9
1503514087255,-0.383,-0.122,-0.443,-0.802,+0.867,-0.150,-0.511,-18.688,-17.750,+4.688,2, 4, 4, 2, 3, 0, 2, 3,0.8179534524742278,0.9477267876032847,10
1503514087268,-0.385,-0.123,-0.440,-0.802,+0.822,-0.148,-0.482,-14.688,-14.938,+6.125,0, -4, -1, -5, -3, -2, 0, -4,0.8228968737109307,0.9416879837910515,10
1503514087292,-0.386,-0.123,-0.440,-0.802,+0.806,-0.151,-0.519,-11.875,-3.000,+7.500,0, 0, 1, 3, 1, 0, 1, -3,0.8251403944029982,0.9418341683261049,10
1503514087313,-0.388,-0.124,-0.440,-0.800,+0.776,-0.168,-0.564,-12.438,+11.125,+8.438,1, 1, -3, -1, -2, -2, 0, 0,0.8295443308263312,0.9419453551642606,10
1503514087328,-0.389,-0.126,-0.442,-0.798,+0.803,-0.149,-0.555,-8.625,+17.312,+4.188,-2, -1, 2, 0, 0, -1, -5, -5,0.8330230053754557,0.9475698129684733,10
1503514087351,-0.389,-0.128,-0.443,-0.798,+0.845,-0.161,-0.538,-5.688,+11.938,-3.000,1, 4, 3, 4, 1, 3, 0, 1,0.8351568194183225,0.9517114005637589,10
1503514087366,-0.389,-0.128,-0.444,-0.797,+0.846,-0.178,-0.521,-5.812,+3.438,-4.438,0, 4, 2, -7, -4, -1, 0, -1,0.8348029761167234,0.9535858026218121,10
1503514087389,-0.388,-0.129,-0.443,-0.798,+0.797,-0.151,-0.543,-4.438,-2.500,-4.312,-1, 0, 4, 1, 1, -1, 0, 8,0.8338973791501295,0.9524386299643596,10
1503514087411,-0.387,-0.129,-0.442,-0.799,+0.767,-0.126,-0.562,+0.688,-3.812,-9.812,-2, -3, -2, -2, -2, 1, -1, 11,0.8320063117898657,0.9504154329797044,10
1503514087433,-0.385,-0.128,-0.440,-0.801,+0.791,-0.147,-0.542,+6.500,-9.875,-16.438,-2, -8, -5, 1, 3, 1, 3, -2,0.8272451197550801,0.9454996301911343,10
1503514087448,-0.383,-0.127,-0.439,-0.803,+0.804,-0.178,-0.516,+7.250,-11.562,-13.188,-1, -8, -8, -5, -4, 0, 0, -5,0.8226693987966731,0.9429810636220705,10
1503514087471,-0.382,-0.125,-0.438,-0.804,+0.783,-0.170,-0.525,+3.938,-10.812,-7.000,-2, 2, 1, -6, -8, -3, -2, 0,0.8188371151048979,0.9392363539639321,10
1503514087495,-0.380,-0.125,-0.437,-0.806,+0.755,-0.133,-0.558,+4.438,-5.250,-8.562,-2, 1, -1, 1, 3, -1, -1, -2,0.8152517499880554,0.937597761054337,10
1503514087508,-0.378,-0.124,-0.436,-0.807,+0.801,-0.135,-0.545,+10.875,-6.312,-14.875,1, 2, 1, -9, -10, -2, -2, 1,0.8101772812790982,0.9345818131608086,10
1503514087531,-0.375,-0.122,-0.436,-0.809,+0.863,-0.156,-0.531,+11.562,-11.562,-14.188,-1, -3, -1, 11, 9, 3, 1, 1,0.8026218536471663,0.9334840346348554,10
1503514087553,-0.373,-0.120,-0.435,-0.811,+0.853,-0.138,-0.509,+7.812,-16.812,-7.312,-1, 5, 3, 17, 13, 5, 1, 0,0.7971379338572482,0.9301730326726863,10
1503514087568,-0.372,-0.119,-0.433,-0.813,+0.812,-0.119,-0.530,+8.500,-16.562,-6.125,-14, -5, 0, -3, -4, -4, -3, -7,0.794676244736472,0.9254772493096687,10
1503514087591,-0.369,-0.117,-0.432,-0.815,+0.814,-0.127,-0.545,+13.312,-13.812,-11.938,3, -2, -2, -9, -8, -3, -1, 2,0.7870077333254486,0.9220579200510676,10
1503514087613,-0.367,-0.114,-0.431,-0.816,+0.822,-0.142,-0.557,+17.562,-11.750,-11.000,3, 6, 4, -2, -1, -2, -2, 1,0.7801066036041848,0.9174604552984952,10
1503514087630,-0.365,-0.112,-0.431,-0.818,+0.834,-0.172,-0.550,+13.500,-10.812,-6.812,-3, 3, 7, 6, 1, -2, -1, -2,0.7748589949762749,0.9166188425817042,10
1503514087651,-0.364,-0.110,-0.431,-0.818,+0.819,-0.153,-0.556,+7.750,-4.875,-2.938,7, 5, -5, -12, -11, -4, -4, -1,0.7707795972532847,0.9148758435573405,10
1503514087673,-0.363,-0.108,-0.432,-0.819,+0.817,-0.123,-0.556,+12.125,+0.875,-0.562,10, -4, -7, 2, 2, 3, 1, 3,0.7673934855147772,0.916068425196868,10
1503514087690,-0.361,-0.106,-0.433,-0.819,+0.832,-0.127,-0.567,+16.312,-1.500,-2.812,-6, -1, 3, 6, 4, -1, 0, -1,0.7612799837501499,0.9166221838358632,10
1503514087711,-0.359,-0.105,-0.433,-0.820,+0.850,-0.135,-0.562,+12.125,-4.062,-4.750,-2, 1, 4, 3, 2, 0, 1, 0,0.7564765661337715,0.9161144090419099,10
1503514087726,-0.358,-0.104,-0.433,-0.821,+0.820,-0.105,-0.555,+4.875,-6.438,-5.812,-1, -5, 0, -2, 4, 5, -1, -1,0.7538786828026749,0.9157427540516785,10
1503514087748,-0.356,-0.104,-0.432,-0.822,+0.766,-0.088,-0.589,+6.188,-4.938,-8.375,10, 4, -5, -3, -2, -1, 1, 2,0.7498592536241308,0.9136234629219014,10
1503514087771,-0.354,-0.103,-0.432,-0.824,+0.776,-0.095,-0.573,+11.438,-1.938,-9.562,-16, -8, -7, 1, 5, 5, 2, -3,0.745601516788937,0.9136650235075572,10
1503514087786,-0.352,-0.102,-0.432,-0.824,+0.816,-0.120,-0.548,+10.500,-0.312,-4.438,2, -3, -9, -9, -8, -3, -1, -2,0.7403018375116669,0.9126492206394808,10
1503514087808,-0.351,-0.100,-0.433,-0.824,+0.822,-0.141,-0.546,+7.875,-3.375,+0.812,4, 3, 6, 9, 2, -1, -3, 0,0.736425664315117,0.9134106163392347,10
1503514087831,-0.351,-0.099,-0.432,-0.825,+0.802,-0.138,-0.561,+5.562,-9.625,+1.688,-1, 2, 5, -3, 0, -2, -4, -2,0.7358848706042522,0.9107925941626379,10
1503514087846,-0.350,-0.098,-0.430,-0.827,+0.780,-0.127,-0.580,+4.562,-12.438,-6.125,8, 5, 5, 3, 4, -4, -1, 1,0.7335408714387783,0.9061952404889083,10
1503514087868,-0.348,-0.098,-0.429,-0.828,+0.764,-0.098,-0.574,+4.375,-7.875,-10.312,-19, -8, -1, -3, -2, -6, -5, -7,0.7295488979348839,0.9040908358331141,10
1503514087893,-0.347,-0.097,-0.428,-0.829,+0.776,-0.085,-0.577,+4.812,-7.062,-5.062,8, 1, -7, -9, -9, -3, -2, -1,0.726835967912515,0.901367153750266,10
1503514087907,-0.346,-0.097,-0.426,-0.830,+0.790,-0.108,-0.577,+1.750,-7.750,-1.438,2, 3, 0, -1, -4, 1, -2, 1,0.724885354304667,0.8969989024508557,10
1503514087929,-0.346,-0.097,-0.426,-0.830,+0.799,-0.094,-0.606,-0.125,+1.000,-2.500,-1, 0, 1, 5, 11, 0, 3, 0,0.724885354304667,0.8969989024508557,10
1503514087951,-0.346,-0.098,-0.426,-0.830,+0.768,-0.053,-0.595,-3.125,+4.812,+1.125,13, 3, -1, -4, -5, -2, -2, 3,0.7257897288254749,0.8977420509832029,10
1503514087967,-0.346,-0.099,-0.426,-0.830,+0.822,-0.064,-0.565,-3.562,+1.812,+7.812,-3, 0, 1, 0, -5, -1, 0, -1,0.7266962844484793,0.8984879094467724,10
1503514087988,-0.348,-0.099,-0.427,-0.829,+0.836,-0.098,-0.569,-5.125,+3.625,+8.812,4, 1, 0, 8, 7, 1, -1, -1,0.7306847283579141,0.9005895577522685,10
1503514088011,-0.349,-0.100,-0.427,-0.828,+0.821,-0.105,-0.558,-6.000,+0.375,+10.688,1, -3, -4, -5, -4, -4, -1, -3,0.7332544272878102,0.9009305982345243,10
1503514088027,-0.352,-0.100,-0.426,-0.828,+0.805,-0.101,-0.584,-8.688,-3.125,+14.438,19, 9, 1, -3, -5, 3, -2, 2,0.7396685747935322,0.8989201392730116,10
1503514088048,-0.354,-0.100,-0.425,-0.827,+0.778,-0.112,-0.583,-9.750,-4.438,+14.312,-5, 0, 1, 2, 7, 11, 0, -2,0.7433822786763381,0.8962524289037691,10
1503514088071,-0.357,-0.100,-0.424,-0.826,+0.795,-0.124,-0.576,-10.750,-5.000,+13.125,-10, -3, -3, -3, 0, 1, -1, -3,0.749306656889617,0.8937138141671837,10
1503514088086,-0.360,-0.101,-0.423,-0.826,+0.801,-0.121,-0.572,-13.812,-5.438,+15.000,-4, -11, -7, -3, -5, -4, 0, 1,0.7566804899807695,0.892487607560698,10
1503514088108,-0.363,-0.101,-0.422,-0.825,+0.778,-0.112,-0.571,-14.625,-4.875,+16.062,-17, -4, -4, -2, -2, -6, 0, -2,0.7626447910583304,0.8899616545644083,10
1503514088132,-0.366,-0.102,-0.420,-0.824,+0.747,-0.117,-0.597,-13.500,-3.000,+14.625,-7, -9, -5, -3, 1, -5, -1, -2,0.7693781416736171,0.8858558672371849,10
1503514088153,-0.368,-0.102,-0.419,-0.824,+0.754,-0.132,-0.593,-11.688,-4.250,+14.000,-2, -4, -1, 0, 0, -4, -2, -3,0.7736839328151605,0.8837513463500712,10
1503514088169,-0.371,-0.102,-0.417,-0.823,+0.774,-0.128,-0.575,-12.812,-6.688,+13.938,2, -3, -7, -4, 3, 1, -3, 0,0.7795567444327072,0.8788843702728966,10
1503514088191,-0.374,-0.102,-0.416,-0.823,+0.769,-0.126,-0.579,-11.438,-8.688,+14.625,3, 4, 2, 1, 0, 2, 0, 3,0.7861324972359707,0.8769220380328446,10
1503514088207,-0.377,-0.102,-0.414,-0.822,+0.743,-0.134,-0.583,-10.375,-7.812,+16.500,-19, 4, 3, -1, 0, 2, 0, -2,0.7920519719944916,0.8720747111904533,10
1503514088229,-0.380,-0.102,-0.413,-0.821,+0.738,-0.153,-0.601,-9.188,-4.875,+15.438,7, -3, -4, -4, 0, 3, 1, 1,0.7981387502923752,0.8695858107870543,10
1503514088252,-0.383,-0.101,-0.413,-0.820,+0.779,-0.177,-0.587,-8.688,-1.688,+14.125,-7, -8, -6, -4, -2, 0, -4, -14,0.80351509361284,0.8686324214259666,10
1503514088267,-0.385,-0.101,-0.413,-0.819,+0.818,-0.184,-0.565,-10.250,+1.812,+16.312,7, 2, -1, -3, -2, 0, -3, 0,0.80751587837676,0.868356610044898,10
1503514088288,-0.388,-0.101,-0.414,-0.817,+0.838,-0.195,-0.560,-8.312,+0.250,+15.812,-13, -10, 0, -2, -4, -3, -1, -2,0.8134039898352381,0.8700195990955502,10
1503514088311,-0.390,-0.101,-0.415,-0.816,+0.862,-0.214,-0.568,-4.375,-0.062,+11.438,-7, -8, -5, -3, 8, 3, 1, 1,0.8175657142133076,0.8720918365179761,10
1503514091432,-0.365,-0.246,-0.559,-0.702,+1.013,-0.063,-0.152,-33.875,-11.312,-1.750,0, 2, 2, 2, 0, -1, -2, -3,0.9097315316048086,1.3132667317824134,11
1503514091454,-0.368,-0.248,-0.555,-0.703,+1.014,-0.028,-0.230,-26.125,-18.000,+1.125,0, 3, 2, 3, 2, 0, -2, -2,0.9179729214870355,1.3061454348209636,11
1503514091475,-0.372,-0.248,-0.551,-0.704,+1.016,-0.065,-0.231,-21.688,-26.688,+6.312,0, -2, 3, 4, 1, -1, -3, -4,0.9253549362890735,1.296918395501519,11
1503514091493,-0.376,-0.249,-0.548,-0.705,+0.985,-0.098,-0.174,-22.688,-23.438,+3.812,0, -2, 3, 2, -2, -2, -3, 8,0.934548304656593,1.2914136281746,11
1503514091522,-0.377,-0.250,-0.545,-0.706,+0.949,-0.083,-0.205,-20.688,-15.312,-5.438,-1, -1, -7, -5, -3, -2, -1, -6,0.937613147540421,1.2855390547431282,11
1503514091536,-0.379,-0.253,-0.542,-0.706,+0.950,-0.035,-0.242,-18.875,-9.188,-5.375,-1, -7, -4, -6, -4, -3, -1, -4,0.9452030336231125,1.281900313017299,11
1503514091552,-0.380,-0.254,-0.541,-0.706,+0.961,-0.032,-0.258,-15.812,-3.188,+1.188,0, 7, 4, 0, 0, -1, -1, -2,0.9484240477579354,1.2807529022712463,11
1503514091574,-0.382,-0.255,-0.540,-0.705,+0.975,-0.048,-0.267,-12.062,+3.938,+5.125,1, -2, -1, -4, -4, -1, 0, -1,0.953269729997732,1.2794508305238053,11
1503514091596,-0.383,-0.256,-0.541,-0.704,+0.979,-0.063,-0.239,-9.188,+5.312,+4.438,3, 7, 10, 3, 1, -1, -1, -1,0.9566492784387287,1.2829651972039677,11
1503514091612,-0.384,-0.257,-0.541,-0.703,+1.008,-0.063,-0.230,-6.938,+5.750,+4.812,-2, -11, -6, -3, -2, -2, -3, -1,0.9597378141086194,1.2840064284993287,11
1503514091634,-0.385,-0.257,-0.542,-0.701,+0.999,-0.040,-0.263,-4.625,+8.625,+9.562,-3, -6, -5, 0, 1, -1, -2, -2,0.9612182849044503,1.2860178975292276,11
1503514091656,-0.386,-0.255,-0.543,-0.701,+0.984,-0.066,-0.269,+0.438,+3.000,+14.125,3, 8, 6, 1, 1, 0, -1, 1,0.9606558494478121,1.28623987467651,11
1503514091672,-0.388,-0.253,-0.545,-0.699,+0.965,-0.105,-0.243,+1.938,+3.500,+16.625,0, 1, -8, -5, -3, -1, -1, 0,0.9615827360719447,1.2884975316749652,11
1503514091694,-0.389,-0.252,-0.546,-0.698,+0.955,-0.111,-0.225,+2.875,+7.750,+12.500,-1, -2, -3, -1, -1, -2, 2, -1,0.9620495412899385,1.2896355288026686,11
1503514091709,-0.389,-0.251,-0.548,-0.697,+0.950,-0.070,-0.241,+3.438,+12.000,+6.938,0, 1, 0, 1, -1, -1, -1, 0,0.9607254125571594,1.2931370656579255,11
1503514091732,-0.388,-0.250,-0.550,-0.696,+0.966,-0.042,-0.229,+7.375,+7.312,+7.125,1, 3, 6, 4, 0, -1, -1, 1,0.957321597597687,1.2965202364424169,11
1503514091755,-0.388,-0.249,-0.551,-0.696,+0.979,-0.068,-0.209,+11.188,+1.500,+7.312,-1, 1, -1, 0, 2, -1, 2, 0,0.9561554521433676,1.297849894413231,11
1503514091769,-0.386,-0.247,-0.553,-0.696,+0.942,-0.087,-0.232,+11.188,+7.500,+0.188,5, 6, 6, 3, 0, 0, -1, 2,0.9496767086409164,1.3002655859055563,11
1503514091792,-0.385,-0.247,-0.554,-0.696,+0.910,-0.056,-0.259,+11.688,+8.188,-3.875,-11, 0, 4, 11, 13, 0, -3, -9,0.9478944335505345,1.3026462185568801,11
1503514091814,-0.383,-0.245,-0.554,-0.698,+0.936,-0.062,-0.250,+14.375,-2.500,-2.812,-10, -12, -9, -12, -8, -1, -2, -3,0.9417590371499076,1.3006624851929627,11
1503514091829,-0.381,-0.243,-0.554,-0.699,+0.965,-0.074,-0.185,+11.875,-9.688,-3.938,5, 2, -2, -5, -3, -1, -1, 6,0.9351882465034912,1.298400583148103,11
1503514091853,-0.380,-0.243,-0.554,-0.700,+0.943,-0.068,-0.181,+7.875,-5.250,-7.312,-16, -14, -8, -3, -1, -1, -3, -6,0.933579691396691,1.298568430156348,11
1503514091874,-0.378,-0.242,-0.553,-0.702,+0.911,-0.039,-0.258,+7.438,-5.125,-6.438,7, 4, 3, 27, 33, 14, 2, 2,0.9286344971834094,1.2952453307593519,11
1503514091890,-0.378,-0.241,-0.550,-0.705,+0.921,-0.050,-0.279,+6.562,-17.688,-4.625,-4, -4, -8, -26, -28, -8, -2, -5,0.9276882768820488,1.2874738140863353,11
1503514091912,-0.377,-0.240,-0.548,-0.707,+0.966,-0.060,-0.215,+3.375,-18.250,-8.688,-3, -2, -3, 1, 13, 4, 1, 1,0.9245247219832465,1.2817961843235819,11
1503514091934,-0.376,-0.240,-0.546,-0.709,+0.951,-0.048,-0.190,+1.125,-14.250,-10.188,4, -3, -5, 0, -2, -2, 2, 3,0.9227940677626125,1.2772693876556929,11
1503514091957,-0.376,-0.240,-0.544,-0.711,+0.944,-0.044,-0.215,-4.062,-15.125,-4.438,4, 6, 3, -4, -7, -2, -1, -2,0.9231231238886632,1.2728961721233756,11
1503514091972,-0.376,-0.240,-0.542,-0.712,+0.951,-0.031,-0.260,-6.000,-13.062,-4.500,6, 0, 0, -4, -5, 0, 0, 1,0.9229973420978322,1.2682157106222258,11
1503514091995,-0.375,-0.241,-0.540,-0.714,+0.962,-0.037,-0.267,-1.250,-10.438,-7.938,7, 4, 3, 1, 2, -3, 0, 4,0.9226844442534612,1.264872104504441,11
1503514092009,-0.375,-0.241,-0.539,-0.715,+0.971,-0.056,-0.251,-0.500,-10.312,-8.938,-7, -3, -1, -2, -4, -4, -1, 0,0.9228464901898478,1.2627057199113332,11
1503514092032,-0.373,-0.242,-0.537,-0.717,+0.967,-0.047,-0.245,-1.875,-9.125,-11.000,-1, 1, 0, 7, 3, -2, 1, 0,0.9204685693254115,1.2592382561966753,11
1503514092055,-0.373,-0.243,-0.535,-0.718,+0.974,-0.043,-0.244,-4.562,-9.562,-12.000,-3, 1, 1, -2, 0, 1, -4, -5,0.9217556554342551,1.2557529413956972,11
1503514092069,-0.372,-0.243,-0.534,-0.719,+0.979,-0.052,-0.264,-3.875,-4.625,-9.625,2, 1, 0, -12, -24, -6, -3, 1,0.9198540977398246,1.253452196541908,11
1503514092092,-0.372,-0.244,-0.534,-0.719,+0.960,-0.045,-0.271,-3.500,-1.375,-4.188,-3, -8, -6, -5, -1, -1, -1, -8,0.9212775818856445,1.254610943346628,11
1503514092114,-0.371,-0.245,-0.532,-0.720,+0.951,-0.023,-0.270,-7.188,-5.250,-8.875,-1, 0, -2, -7, -3, 1, -1, 0,0.9205043440289139,1.2509979398547044,11
1503514092130,-0.370,-0.247,-0.530,-0.722,+0.982,+0.006,-0.250,-7.125,-8.750,-15.750,1, -6, 4, 12, 13, 6, 3, 4,0.9216062044902024,1.2489046546836022,11
1503514092151,-0.368,-0.248,-0.528,-0.724,+1.005,-0.013,-0.292,-2.188,-8.250,-12.438,-7, 3, 2, 0, 4, 0, -4, -4,0.9192272621760461,1.2455022011212735,11
1503514092173,-0.369,-0.249,-0.527,-0.725,+0.974,-0.025,-0.273,-4.938,-10.125,-4.250,4, 4, -2, -12, -11, -3, 0, 1,0.9228529463444741,1.2447136868762032,11
1503514092196,-0.369,-0.249,-0.524,-0.726,+0.941,+0.001,-0.259,-9.562,-14.500,-5.312,1, 0, -1, -5, -3, -2, -1, 0,0.9223964859223296,1.2376790734182364,11
1503514092210,-0.369,-0.251,-0.521,-0.728,+0.953,+0.026,-0.276,-8.062,-13.500,-10.250,4, 1, -2, -4, -6, -2, -2, 1,0.9252381245808934,1.2333844153369058,11
1503514092233,-0.368,-0.251,-0.520,-0.729,+0.958,+0.013,-0.294,-3.562,-8.250,-7.500,-6, -2, -5, -2, -7, -3, -4, -6,0.9233254689485612,1.231115991195586,11
1503514092256,-0.369,-0.252,-0.519,-0.729,+0.937,-0.011,-0.279,-8.438,-4.562,-0.750,1, 5, 8, 7, -1, -3, 3, 1,0.9265060689866351,1.2300328141032775,11
1503514092270,-0.370,-0.254,-0.518,-0.728,+0.941,+0.000,-0.275,-14.375,-1.062,+1.688,1, -1, -3, -2, -3, -2, -1, 1,0.9306799090948308,1.229815183832361,11
1503514092294,-0.371,-0.256,-0.517,-0.728,+0.964,+0.031,-0.287,-12.688,+0.625,-0.500,-11, -12, -6, -2, 2, 1, 2, 1,0.935305512912118,1.229966119528417,11
1503514092315,-0.371,-0.257,-0.516,-0.728,+0.971,+0.023,-0.306,-10.000,-1.188,-1.312,2, -3, -7, 6, 10, 4, -2, 0,0.9364399507388617,1.2287471714814704,11
1503514092332,-0.372,-0.258,-0.514,-0.729,+0.955,+0.012,-0.310,-11.875,-10.250,-0.250,-8, 3, 5, -2, 1, -2, -3, -5,0.9397695944717889,1.2256273465561456,11
1503514092353,-0.374,-0.258,-0.510,-0.730,+0.938,+0.011,-0.315,-15.438,-19.125,-0.312,5, -1, -1, 0, 4, 2, 3, 4,0.943123721345775,1.2166360252691004,11
1503514092375,-0.377,-0.259,-0.506,-0.731,+0.942,+0.030,-0.306,-16.312,-21.750,+2.688,-12, -17, -6, -1, 0, 0, -1, 0,0.9500061981347212,1.2091042535387115,11
1503514092392,-0.380,-0.259,-0.503,-0.732,+0.914,+0.057,-0.344,-15.188,-19.312,+7.312,-2, -4, -4, -1, 3, -1, 1, 4,0.9557894273585216,1.202797002945022,11
1503514092413,-0.382,-0.259,-0.500,-0.733,+0.890,+0.058,-0.332,-12.875,-16.750,+9.125,3, 1, 1, -1, 2, -3, -5, -4,0.9595120423388658,1.1963354871409917,11
1503514092436,-0.385,-0.259,-0.497,-0.734,+0.886,+0.026,-0.315,-12.688,-17.188,+7.188,-6, 2, 9, 8, 4, -2, -2, -3,0.9653521775830596,1.1900954711676224,11
1503514092451,-0.388,-0.259,-0.495,-0.734,+0.927,+0.006,-0.316,-13.688,-16.625,+10.125,-3, 1, 0, 1, 3, 1, -1, 0,0.9710791625746954,1.1859016856037599,11
1503514092473,-0.391,-0.258,-0.493,-0.733,+0.950,+0.009,-0.340,-12.125,-12.375,+13.438,0, 0, -1, 2, -4, -2, -4, -9,0.9749875061168669,1.1800968003960908,11
1503514092496,-0.393,-0.258,-0.491,-0.733,+0.924,+0.004,-0.362,-10.062,-11.062,+13.688,5, 9, 4, 1, 1, 0, -2, -5,0.9786505121025529,1.1757320183395779,11
1503514092514,-0.396,-0.257,-0.489,-0.733,+0.927,-0.011,-0.333,-10.438,-15.188,+12.688,-14, -4, 0, -2, -7, 0, -3, -10,0.983058415462914,1.1703231159772167,11
1503514092534,-0.399,-0.256,-0.487,-0.733,+0.942,-0.009,-0.326,-12.125,-16.000,+12.438,-2, -8, -7, 0, 2, 1, 2, 9,0.9875047142164559,1.1649270571059593,11
1503514092558,-0.402,-0.256,-0.485,-0.733,+0.951,+0.001,-0.339,-10.250,-13.188,+8.938,1, 10, 3, -1, 1, -1, 0, -6,0.993375961201535,1.1608024421026182,11
1503514092570,-0.404,-0.255,-0.483,-0.734,+0.941,-0.015,-0.356,-8.625,-14.688,+8.750,6, 5, -2, -6, -2, -2, -2, 3,0.9961762145153751,1.1556166884971073,11
1503514092593,-0.407,-0.253,-0.481,-0.734,+0.937,-0.037,-0.381,-9.562,-18.500,+13.750,10, 1, 9, -1, -2, 0, 3, 25,0.9993495804919179,1.149002865482537,11
1503514092615,-0.411,-0.252,-0.478,-0.734,+0.917,-0.012,-0.370,-12.188,-20.000,+15.500,0, -3, -1, 6, 4, 0, 0, 8,1.0058449145036594,1.141517286342,11
1503514092631,-0.414,-0.252,-0.475,-0.735,+0.894,+0.013,-0.370,-12.062,-21.000,+10.438,-1, -6, -5, 2, 4, 2, 1, -4,1.0120168282175324,1.1355108120929798,11
1503514092653,-0.417,-0.250,-0.472,-0.736,+0.886,+0.007,-0.396,-10.688,-23.438,+12.500,0, 0, 1, 0, 0, 2, -2, -13,1.0155192027283675,1.1270119368966907,11
1503514092676,-0.422,-0.247,-0.468,-0.736,+0.902,-0.041,-0.421,-12.812,-30.125,+23.500,-1, -10, -8, 2, -1, -1, 1, 0,1.021463534200469,1.114977929780959,11
1503514092696,-0.429,-0.244,-0.464,-0.736,+0.879,-0.050,-0.425,-17.250,-34.312,+30.438,-4, -5, -4, -8, -7, -5, -1, 0,1.0320119956823344,1.1034298124597577,11
1503514092713,-0.435,-0.241,-0.459,-0.736,+0.854,-0.021,-0.444,-14.250,-36.812,+30.750,2, 4, 5, 12, 25, 8, 0, -2,1.0402896982451306,1.0894022549316404,11
1503514092736,-0.441,-0.237,-0.455,-0.737,+0.847,-0.033,-0.458,-7.125,-34.188,+30.062,3, 3, 3, -1, -9, -6, -2, -2,1.0481635788348844,1.0769208497653384,11
1503514092751,-0.446,-0.232,-0.452,-0.737,+0.854,-0.075,-0.428,-2.812,-28.688,+32.250,-6, -7, -8, -12, -11, -6, 1, -2,1.0525060767251524,1.064891114178778,11
1503514092780,-0.452,-0.228,-0.451,-0.736,+0.879,-0.094,-0.421,-4.125,-24.000,+34.250,3, 1, 2, 4, -1, -2, -2, -4,1.060601722090483,1.0585256255344757,11
1503514092796,-0.457,-0.224,-0.450,-0.734,+0.891,-0.113,-0.438,-3.875,-16.438,+33.875,0, -5, 0, 15, 18, 4, 1, -3,1.066117415978725,1.0515018790120452,11
1503514092810,-0.461,-0.220,-0.449,-0.733,+0.915,-0.117,-0.449,-1.562,-17.125,+28.625,-6, -1, 0, -8, -32, -12, -6, -6,1.0698928816211288,1.0447129298018982,11
1503514092833,-0.465,-0.216,-0.448,-0.733,+0.934,-0.117,-0.454,+1.875,-24.750,+24.938,14, 7, 0, -7, -15, -4, 0, 4,1.0742346728370062,1.0383958411366818,11
1503514092855,-0.468,-0.212,-0.446,-0.733,+0.934,-0.135,-0.444,+3.812,-25.250,+18.938,-2, 3, 2, -5, -1, -3, -4, -1,1.0761406111773562,1.0295841641651888,11
1503514092871,-0.470,-0.208,-0.444,-0.734,+0.897,-0.137,-0.448,+2.375,-26.312,+14.125,3, 10, 9, 1, 5, 0, -3, -4,1.076235561015961,1.021046322864718,11
1503514092895,-0.473,-0.204,-0.441,-0.735,+0.883,-0.133,-0.467,+3.250,-32.188,+15.688,-25, -14, -5, 1, 5, 4, 1, -6,1.0786032707939361,1.0104702661356393,11
1503514092916,-0.475,-0.200,-0.439,-0.736,+0.877,-0.125,-0.479,+5.438,-30.438,+13.062,6, 0, -7, -6, -3, -4, 0, 1,1.0788919901991703,1.0020051647452013,11
1503514092938,-0.476,-0.197,-0.438,-0.737,+0.870,-0.119,-0.491,+9.625,-19.125,+9.125,1, -4, -7, -4, 2, 4, 3, 5,1.0781780365594529,0.9968358592683517,11
1503514092954,-0.476,-0.193,-0.437,-0.738,+0.862,-0.130,-0.475,+10.938,-13.562,+10.000,-22, -1, 9, -1, 0, -2, -4, -31,1.0740021972725629,0.9902946208037036,11
1503514092976,-0.477,-0.190,-0.438,-0.738,+0.874,-0.148,-0.473,+10.562,-12.375,+11.438,7, 12, 3, -2, 1, -2, 0, 11,1.0732857494995578,0.9892783607602641,11
1503514092990,-0.478,-0.187,-0.438,-0.738,+0.894,-0.163,-0.496,+12.062,-11.375,+10.250,-3, -19, -18, -1, 2, 0, -1, -5,1.0724177288095869,0.9859877464524137,11
1503514093013,-0.478,-0.184,-0.439,-0.739,+0.873,-0.162,-0.484,+13.312,-7.438,+6.375,-7, -1, 5, 5, 2, 1, -1, 14,1.0698122289499186,0.9853032963619051,11
1503514093037,-0.477,-0.181,-0.440,-0.739,+0.860,-0.159,-0.480,+12.812,-7.438,+4.688,32, 12, -3, -4, -2, -5, -8, -49,1.0643513416734491,0.9839594181602086,11
1503514093051,-0.477,-0.178,-0.440,-0.739,+0.867,-0.165,-0.492,+13.500,-6.562,+6.625,-11, -6, -1, -1, 1, 2, 0, -1,1.0611457462293639,0.9805370782239764,11
1503514093073,-0.477,-0.175,-0.442,-0.740,+0.866,-0.195,-0.488,+16.375,-4.562,+6.125,-3, -1, 2, -3, -6, -1, 4, 23,1.05878581594391,0.9822750927705965,11
