Timestamp,Orientation X,Orientation Y,Orientation Z,Orientation W,Accelerometer X,Accelerometer Y,Accelerometer Z,Gyroscope X,Gyroscope Y,Gyroscope Z,EMG1,EMG2,EMG3,EMG4,EMG5,EMG6,EMG7,EMG8
1503600480080,+0.044,+0.117,-0.557,-0.821,+0.914,-0.136,-0.270,-19.375,-9.250,-20.562,-25, -31, -21, 1, 4, 12, 2, -7
1503600480102,+0.046,+0.112,-0.556,-0.822,+0.928,-0.111,-0.323,-18.125,-7.375,-24.375,69, 61, 24, 4, -3, -2, -15, 26
1503600480124,+0.048,+0.107,-0.556,-0.823,+0.911,-0.087,-0.330,-19.500,-5.000,-23.750,-10, 2, -1, -1, 8, 23, 13, -3
1503600480142,+0.050,+0.102,-0.556,-0.823,+0.924,-0.062,-0.330,-14.812,-1.438,-22.875,-13, -16, -4, -3, -9, -14, -6, -13
1503600480162,+0.052,+0.098,-0.556,-0.823,+0.924,-0.078,-0.346,-12.562,+0.500,-17.875,44, -7, -17, -6, -4, -4, 5, 10
1503600480184,+0.054,+0.095,-0.556,-0.824,+0.929,-0.061,-0.340,-12.125,-2.188,-17.938,-8, 21, 3, -1, 1, -2, -6, 4
1503600480200,+0.056,+0.092,-0.556,-0.824,+0.914,-0.050,-0.341,-9.375,-2.625,-17.125,-32, 3, -4, -1, 0, 17, -1, -26
1503600480222,+0.057,+0.089,-0.556,-0.825,+0.917,-0.047,-0.330,-7.250,-4.562,-12.750,-1, 7, -10, 1, 4, -7, -9, 6
1503600480246,+0.058,+0.087,-0.555,-0.825,+0.936,-0.043,-0.332,-5.062,-4.375,-9.438,8, 4, 7, 10, 9, 25, -3, -16
1503600480261,+0.060,+0.086,-0.554,-0.826,+0.911,-0.036,-0.337,-3.938,-4.875,-8.312,39, 16, 11, 1, 0, 1, 3, 9
1503600480283,+0.061,+0.084,-0.553,-0.826,+0.920,-0.029,-0.338,-2.000,-7.062,-7.312,3, 22, 15, 0, 3, 5, 11, 7
1503600480299,+0.062,+0.083,-0.552,-0.827,+0.922,-0.046,-0.322,-2.125,-9.938,-5.812,-14, -7, 1, -12, -9, -14, -13, 12
1503600480320,+0.063,+0.083,-0.550,-0.829,+0.940,-0.056,-0.322,-1.000,-14.625,-5.562,-23, -84, -49, -3, -2, -8, 6, -9
1503600480344,+0.064,+0.082,-0.549,-0.829,+0.922,-0.060,-0.316,-1.688,-9.188,-4.250,19, 42, -1, -2, -4, -19, 12, -3
1503600480358,+0.065,+0.081,-0.548,-0.830,+0.930,-0.038,-0.330,-3.562,-12.375,-4.062,6, 69, 28, 5, 2, 4, -2, -3
1503600480383,+0.065,+0.080,-0.546,-0.831,+0.935,-0.047,-0.330,-4.562,-11.125,-0.688,24, 2, -12, -1, 0, 1, 4, 10
1503600480404,+0.065,+0.079,-0.545,-0.832,+0.934,-0.043,-0.343,-6.500,-10.938,+0.625,8, -21, -8, 1, 5, 21, -5, -3
1503600480418,+0.065,+0.078,-0.543,-0.834,+0.934,-0.023,-0.355,-5.875,-12.312,-0.250,3, -6, -15, -8, -5, 0, -6, 9
1503600480440,+0.064,+0.078,-0.542,-0.835,+0.950,-0.042,-0.343,-6.625,-11.625,+3.375,-20, -28, -25, -9, -7, -8, 6, 14
1503600480467,+0.063,+0.077,-0.541,-0.835,+0.934,-0.035,-0.354,-7.250,-5.812,+4.875,10, 17, 7, -1, -1, 13, -11, -18
1503600480478,+0.062,+0.076,-0.540,-0.836,+0.943,-0.028,-0.359,-6.250,-5.625,+6.500,1, 2, 0, 5, 5, 8, -2, -6
1503600480503,+0.061,+0.076,-0.540,-0.836,+0.973,-0.053,-0.349,-5.812,-6.188,+7.312,37, 12, -7, 0, -2, -8, -6, -24
1503600480529,+0.059,+0.076,-0.539,-0.837,+0.963,-0.063,-0.352,-6.875,-5.688,+7.938,36, 13, -4, -1, 1, -21, 19, 20
1503600480538,+0.057,+0.076,-0.538,-0.838,+0.960,-0.061,-0.351,-7.875,-8.875,+9.062,15, 10, -1, 0, -1, -10, -16, -1
1503600480560,+0.055,+0.076,-0.537,-0.838,+0.951,-0.062,-0.358,-8.000,-5.312,+11.312,49, 60, 17, 1, -1, 9, 13, 22
1503600480583,+0.053,+0.076,-0.537,-0.839,+0.937,-0.073,-0.363,-8.625,-3.375,+10.438,-50, -6, -10, -11, -16, -35, -1, 6
1503600480598,+0.051,+0.075,-0.537,-0.839,+0.926,-0.064,-0.365,-9.125,-0.938,+9.250,-19, -49, -4, -2, 6, 12, -8, -13
1503600480621,+0.049,+0.075,-0.537,-0.839,+0.950,-0.078,-0.356,-9.312,-0.438,+9.938,-39, -16, -1, 1, -1, 4, -6, -2
1503600480648,+0.047,+0.075,-0.537,-0.839,+0.946,-0.085,-0.366,-9.312,+1.750,+9.125,-5, -30, -7, 0, -1, 2, -5, 0
1503600480658,+0.045,+0.075,-0.537,-0.839,+0.929,-0.079,-0.371,-9.812,-0.688,+7.938,-23, 3, 7, 2, -2, -20, -7, 16
1503600480680,+0.043,+0.074,-0.537,-0.839,+0.932,-0.076,-0.373,-7.688,-1.188,+7.375,-7, 35, 11, 0, -2, 9, -2, -7
1503600480703,+0.042,+0.074,-0.536,-0.840,+0.894,-0.065,-0.373,-7.000,-2.250,+3.750,24, 6, 1, 4, 4, 4, -3, 4
1503600480718,+0.041,+0.074,-0.536,-0.840,+0.902,-0.075,-0.363,-5.938,-0.875,+5.125,4, 1, -13, -4, -6, -43, -28, 4
1503600480740,+0.039,+0.074,-0.536,-0.840,+0.927,-0.093,-0.370,-6.500,+2.375,+9.375,14, -8, 10, 4, 3, 18, 6, 0
1503600480763,+0.037,+0.074,-0.536,-0.840,+0.937,-0.084,-0.354,-7.438,-0.562,+10.438,18, 5, -12, -4, 1, 4, 18, 19
1503600480779,+0.036,+0.074,-0.536,-0.840,+0.919,-0.084,-0.368,-5.812,-3.000,+9.375,-2, 85, 51, 8, 3, 10, -6, -27
1503600480799,+0.034,+0.074,-0.535,-0.841,+0.903,-0.094,-0.375,-6.250,-5.562,+6.812,-28, -50, -22, -10, -6, 6, 1, -1
1503600480822,+0.032,+0.074,-0.534,-0.842,+0.907,-0.108,-0.356,-6.188,-4.250,+9.625,-28, -52, -22, -5, -3, 7, -6, -17
1503600480846,+0.030,+0.075,-0.534,-0.841,+0.904,-0.097,-0.347,-7.688,+0.562,+11.125,32, 43, 16, 9, 8, 28, 4, -3
1503600480867,+0.028,+0.074,-0.535,-0.841,+0.929,-0.083,-0.350,-7.812,+0.688,+8.562,3, -8, -8, -3, -8, -24, 3, -7
1503600480882,+0.027,+0.074,-0.534,-0.842,+0.928,-0.090,-0.361,-7.125,-3.188,+6.625,-11, -41, -32, -9, -4, -5, -5, 13
1503600480904,+0.026,+0.074,-0.534,-0.842,+0.893,-0.084,-0.359,-7.062,-4.812,+5.750,4, -9, -16, -6, -3, -8, -8, -7
1503600480919,+0.025,+0.073,-0.533,-0.843,+0.892,-0.079,-0.366,-6.250,-2.375,+5.750,1, 18, 15, 4, 4, 4, 1, 10
1503600480942,+0.023,+0.073,-0.534,-0.842,+0.899,-0.098,-0.348,-5.375,+3.062,+6.688,-35, -30, -15, -5, -2, 12, 2, 20
1503600480964,+0.022,+0.073,-0.534,-0.842,+0.937,-0.099,-0.351,-6.000,+3.438,+4.438,16, -26, -16, -2, -6, -17, 14, 15
1503600480981,+0.022,+0.073,-0.535,-0.842,+0.927,-0.091,-0.361,-5.312,+1.688,+2.500,4, -6, 4, 3, 2, 10, 4, 3
1503600481002,+0.021,+0.073,-0.534,-0.842,+0.943,-0.098,-0.347,-4.000,-4.750,+2.000,-4, -51, -28, -8, -7, -4, -8, -12
1503600481024,+0.021,+0.072,-0.534,-0.842,+0.930,-0.103,-0.360,-3.250,-4.250,+1.125,-3, -19, -15, -4, -3, -9, -2, 9
1503600481039,+0.021,+0.072,-0.534,-0.842,+0.915,-0.109,-0.379,-2.938,-1.000,+0.125,-21, -28, 0, -2, -4, -11, -1, -9
1503600481062,+0.020,+0.072,-0.534,-0.842,+0.944,-0.106,-0.367,-1.938,+2.312,+0.875,2, 6, 3, 4, 1, -6, 0, -6
1503600481085,+0.021,+0.073,-0.535,-0.842,+0.951,-0.104,-0.369,+0.688,+2.125,-0.562,-20, 11, 27, 2, 1, 1, -7, -7
1503600481102,+0.021,+0.073,-0.535,-0.842,+0.953,-0.106,-0.367,+2.250,-1.562,-1.000,-2, -6, -5, -4, -8, -20, 2, 7
1503600481123,+0.022,+0.074,-0.535,-0.841,+0.933,-0.100,-0.355,+3.062,-0.062,-0.500,27, 43, 20, 7, -2, -19, -10, -4
1503600481144,+0.022,+0.075,-0.535,-0.841,+0.918,-0.094,-0.373,+5.312,+1.812,-1.125,14, -2, -13, -4, -4, -28, -6, 12
1503600481159,+0.023,+0.075,-0.535,-0.841,+0.933,-0.102,-0.368,+5.875,+2.312,-1.500,8, 22, -2, 2, 0, -21, -1, -6
1503600481183,+0.025,+0.077,-0.535,-0.841,+0.927,-0.085,-0.378,+9.375,+0.188,-1.250,27, -11, -6, 1, 1, 27, 4, -3
1503600481204,+0.026,+0.078,-0.535,-0.841,+0.924,-0.087,-0.379,+11.000,-1.500,-2.000,29, -23, -12, -13, -9, -13, -4, -5
1503600481219,+0.028,+0.080,-0.535,-0.841,+0.917,-0.093,-0.374,+12.938,-2.625,-1.812,-10, -1, 8, -1, 1, 6, -4, 0
1503600481242,+0.029,+0.082,-0.535,-0.841,+0.904,-0.099,-0.378,+14.688,+1.250,-0.188,2, 8, -7, 3, -4, -7, -2, 0
1503600481264,+0.031,+0.084,-0.534,-0.840,+0.904,-0.101,-0.393,+16.812,+0.625,-0.938,4, -9, 4, 2, 1, 6, -7, -16
1503600481281,+0.033,+0.087,-0.534,-0.840,+0.914,-0.116,-0.384,+17.625,-1.875,-0.812,-21, -28, -17, -6, -4, -5, -14, -2
1503600481302,+0.034,+0.090,-0.533,-0.841,+0.906,-0.134,-0.375,+17.438,-5.000,+1.562,-12, -1, 12, 2, 7, 37, 13, -12
1503600481324,+0.036,+0.093,-0.532,-0.841,+0.899,-0.130,-0.390,+18.750,-5.438,+2.562,9, 9, -7, -6, -2, -1, -6, -2
1503600481339,+0.037,+0.096,-0.530,-0.841,+0.890,-0.125,-0.388,+17.688,-6.125,+2.812,-24, -74, -23, -8, -3, -2, -1, -3
1503600481362,+0.039,+0.099,-0.529,-0.842,+0.899,-0.127,-0.375,+17.938,-9.000,+5.125,-14, -9, -2, -3, -3, -3, 8, 2
1503600481389,+0.040,+0.103,-0.527,-0.843,+0.896,-0.125,-0.399,+20.000,-7.125,+6.688,10, -6, 3, 3, 7, -2, -1, -6
1503600481399,+0.041,+0.107,-0.526,-0.843,+0.905,-0.128,-0.401,+22.125,-8.688,+7.188,25, -25, -19, -3, 0, -3, 2, -7
1503600481425,+0.042,+0.111,-0.523,-0.844,+0.907,-0.141,-0.384,+23.188,-11.688,+8.375,5, 41, 2, 1, 4, 0, -10, 4
1503600481444,+0.043,+0.116,-0.521,-0.844,+0.893,-0.158,-0.381,+23.188,-10.750,+10.438,17, 14, 6, -3, -2, 2, -1, 4
1503600481461,+0.044,+0.120,-0.520,-0.845,+0.897,-0.159,-0.394,+24.500,-9.000,+12.000,-27, -24, -5, -1, -2, -16, 2, 9
1503600481484,+0.045,+0.125,-0.517,-0.845,+0.917,-0.162,-0.417,+25.062,-11.438,+12.125,-18, 0, 3, 6, 6, 11, -3, 0
1503600481505,+0.046,+0.130,-0.515,-0.846,+0.936,-0.179,-0.416,+24.625,-9.688,+11.500,16, 16, 4, 2, -10, -4, 4, 3
1503600481519,+0.046,+0.134,-0.514,-0.846,+0.981,-0.188,-0.438,+25.625,-8.250,+12.688,-8, 19, 2, -2, -2, 5, 10, -4
1503600481541,+0.048,+0.139,-0.512,-0.846,+0.999,-0.173,-0.449,+26.250,-7.250,+8.438,-18, -12, -2, -1, -7, -10, -9, -8
1503600481564,+0.050,+0.143,-0.511,-0.846,+1.018,-0.161,-0.421,+27.000,-7.312,+4.688,2, -6, -9, -5, -8, -4, -5, 0
1503600481579,+0.053,+0.147,-0.511,-0.845,+1.018,-0.163,-0.441,+29.500,-1.750,+3.375,22, 18, -2, -5, 3, 4, -2, 1
1503600481602,+0.056,+0.151,-0.511,-0.844,+1.003,-0.178,-0.465,+33.875,+4.438,-0.562,14, 7, -12, -3, -1, -10, -6, -9
1503600481624,+0.061,+0.156,-0.512,-0.843,+1.021,-0.181,-0.443,+35.562,+5.125,-7.188,-17, -9, 4, -2, -1, -1, -1, 0
1503600481639,+0.065,+0.160,-0.513,-0.841,+1.028,-0.194,-0.435,+38.000,+9.250,-8.125,8, 12, 1, -1, -8, -6, -8, -10
1503600491771,+0.083,+0.148,-0.531,-0.830,+0.933,-0.150,-0.348,+3.062,-1.938,+17.688,-21, -13, -10, 0, 2, 2, -1, 0
1503600491791,+0.081,+0.149,-0.531,-0.830,+0.910,-0.156,-0.344,+2.125,-1.312,+16.812,-8, -12, 5, 0, -2, -13, 0, 11
1503600491808,+0.079,+0.151,-0.529,-0.831,+0.917,-0.172,-0.341,-0.562,-8.125,+16.188,-5, 2, -4, -1, 0, 7, 0, -4
1503600491831,+0.078,+0.152,-0.528,-0.832,+0.895,-0.169,-0.342,-1.188,-7.500,+10.188,-19, -2, 14, 0, -1, -2, -5, -1
1503600491846,+0.077,+0.152,-0.528,-0.832,+0.860,-0.154,-0.348,-2.812,-0.938,+3.312,-34, 6, 13, 3, -1, 1, -3, -12
1503600491869,+0.077,+0.152,-0.527,-0.833,+0.870,-0.160,-0.351,-4.250,+0.000,+2.625,5, -1, -3, -1, -2, 13, 9, -1
1503600491892,+0.076,+0.151,-0.528,-0.832,+0.898,-0.174,-0.324,-6.375,+3.062,+0.000,17, 2, -4, 0, 0, -20, 0, 4
1503600491906,+0.077,+0.149,-0.528,-0.832,+0.915,-0.157,-0.339,-7.250,-1.938,-6.562,-74, -6, 12, 2, -2, 6, 4, 2
1503600491930,+0.078,+0.147,-0.527,-0.833,+0.890,-0.147,-0.351,-6.750,-7.188,-12.000,17, 4, 4, 3, 3, 1, -4, 16
1503600491951,+0.080,+0.145,-0.527,-0.834,+0.867,-0.164,-0.356,-7.938,-7.562,-16.062,-15, -2, 0, -6, -3, -1, -6, -11
1503600491966,+0.081,+0.143,-0.526,-0.835,+0.882,-0.166,-0.359,-10.062,-6.000,-13.062,5, -4, 2, 0, -1, 7, -8, -17
1503600491991,+0.081,+0.140,-0.526,-0.835,+0.906,-0.163,-0.346,-12.562,-2.875,-10.000,-12, 6, 6, -2, -3, -15, 0, -7
1503600492011,+0.082,+0.138,-0.526,-0.835,+0.923,-0.137,-0.368,-11.938,-3.812,-11.250,-15, -16, -1, -3, -24, 3, -8, -1
1503600492027,+0.084,+0.135,-0.525,-0.836,+0.915,-0.107,-0.372,-8.750,-11.750,-12.562,0, -13, -3, 0, 9, 14, 5, -1
1503600492049,+0.085,+0.133,-0.522,-0.838,+0.907,-0.117,-0.393,-8.750,-16.750,-8.625,33, 48, 14, 4, 2, -3, -6, 7
1503600492071,+0.086,+0.131,-0.521,-0.839,+0.877,-0.121,-0.380,-7.812,-12.688,-6.062,38, -28, -14, -10, -4, 2, 0, 7
1503600492086,+0.085,+0.130,-0.520,-0.840,+0.899,-0.121,-0.386,-8.375,-7.500,-1.375,-15, -24, -6, 2, 8, -7, -3, -1
1503600492108,+0.085,+0.129,-0.519,-0.841,+0.930,-0.123,-0.412,-7.688,-4.875,+1.688,1, 22, 21, 8, 6, -5, -4, 2
1503600492131,+0.085,+0.128,-0.517,-0.842,+0.893,-0.120,-0.408,-6.188,-11.000,+0.188,-40, 34, 6, 0, 1, 6, -10, -30
1503600492146,+0.085,+0.127,-0.516,-0.843,+0.893,-0.127,-0.401,-6.000,-9.875,-1.312,26, -12, -9, -4, 2, 30, -1, 0
1503600492169,+0.085,+0.126,-0.515,-0.844,+0.892,-0.128,-0.386,-4.875,-8.250,-3.438,42, 25, 6, 2, 4, -3, -3, -4
1503600492192,+0.086,+0.125,-0.513,-0.845,+0.914,-0.117,-0.382,-4.438,-11.812,-4.375,-5, -27, -9, -9, -6, -8, -1, 6
1503600492206,+0.087,+0.124,-0.512,-0.845,+0.883,-0.099,-0.412,-1.250,-6.375,-8.688,-55, -30, -19, -3, -4, -4, -3, 5
1503600492229,+0.089,+0.122,-0.512,-0.846,+0.876,-0.118,-0.383,-5.750,-6.250,-16.312,17, 22, 8, 2, -1, -5, 6, 20
1503600492253,+0.091,+0.121,-0.512,-0.846,+0.947,-0.138,-0.379,-4.312,-6.000,-12.062,-37, -42, -6, 0, -5, -12, 0, -7
1503600492267,+0.091,+0.120,-0.512,-0.846,+0.945,-0.132,-0.364,-6.812,-0.562,-6.688,59, 0, -1, 5, 6, 5, 9, 13
1503600492289,+0.091,+0.117,-0.513,-0.846,+0.932,-0.090,-0.375,-10.312,-1.812,-8.312,39, 16, 17, 3, 0, -2, 3, 8
1503600492311,+0.092,+0.115,-0.512,-0.846,+0.902,-0.073,-0.409,-7.625,-4.125,-8.375,-25, 10, -4, 1, 11, 5, -13, -10
1503600492326,+0.094,+0.113,-0.511,-0.847,+0.898,-0.076,-0.397,-8.312,-10.750,-9.750,-4, 1, -4, -3, -6, -4, -2, -1
1503600492356,+0.094,+0.111,-0.510,-0.848,+0.904,-0.064,-0.395,-8.125,-10.688,-7.312,-11, -1, 9, 5, 9, 5, 4, 10
1503600492371,+0.095,+0.110,-0.509,-0.848,+0.880,-0.056,-0.407,-6.312,-6.062,-4.625,-39, -1, -2, -2, -1, 9, -1, 6
1503600492386,+0.095,+0.109,-0.509,-0.849,+0.889,-0.064,-0.416,-6.312,-3.125,+0.688,5, -13, -6, -1, -4, -6, -2, -1
1503600492409,+0.094,+0.108,-0.508,-0.849,+0.906,-0.050,-0.432,-5.500,-3.625,+4.938,23, 1, -1, 1, 4, 8, 9, 1
1503600492432,+0.093,+0.108,-0.508,-0.850,+0.914,-0.058,-0.419,-4.438,-5.250,+6.250,3, 20, 14, 4, 1, -2, -9, -2
1503600492446,+0.092,+0.107,-0.506,-0.851,+0.903,-0.073,-0.419,-5.500,-7.938,+6.812,12, 2, -3, -1, 1, -12, 0, 5
1503600492469,+0.090,+0.107,-0.506,-0.851,+0.911,-0.063,-0.423,-5.250,-4.812,+10.438,25, 6, -8, -5, -6, -4, -7, -27
1503600492494,+0.089,+0.108,-0.505,-0.852,+0.896,-0.064,-0.430,-3.312,-6.000,+11.062,-19, -23, -17, -3, -5, -2, -2, -5
1503600492507,+0.087,+0.108,-0.503,-0.853,+0.908,-0.095,-0.431,-2.625,-7.812,+11.188,-55, -12, 2, -1, 9, 14, 6, -5
1503600492529,+0.086,+0.109,-0.502,-0.854,+0.904,-0.108,-0.399,-3.250,-7.438,+10.312,75, 30, 30, 5, -5, 7, 0, 11
1503600492551,+0.084,+0.109,-0.501,-0.854,+0.890,-0.105,-0.417,-4.875,-6.188,+8.188,-25, 9, -7, -4, 7, -3, -3, 2
1503600492567,+0.083,+0.109,-0.501,-0.855,+0.878,-0.112,-0.424,-5.875,-3.938,+6.125,-42, -30, -7, 2, -1, -2, 1, -1
1503600492589,+0.082,+0.109,-0.500,-0.855,+0.893,-0.123,-0.423,-7.000,-5.875,+4.562,5, 12, 7, -2, -2, 8, -1, -4
1503600492611,+0.081,+0.108,-0.499,-0.856,+0.893,-0.125,-0.417,-8.375,-7.188,+2.438,-18, -13, -13, -8, -14, -2, -4, -6
1503600492629,+0.081,+0.107,-0.498,-0.857,+0.876,-0.115,-0.437,-9.125,-9.250,+0.688,16, 6, 13, -1, -1, -2, -3, 3
1503600492648,+0.080,+0.105,-0.496,-0.858,+0.865,-0.110,-0.429,-10.250,-10.250,-2.812,22, 12, 7, 0, 1, 1, 2, -2
1503600492671,+0.080,+0.104,-0.495,-0.859,+0.878,-0.109,-0.429,-10.750,-8.625,-4.938,5, 8, -8, 2, 1, 0, -10, 14
1503600492687,+0.080,+0.102,-0.495,-0.859,+0.874,-0.110,-0.435,-10.500,-6.438,-4.812,7, -5, 1, 5, 5, 0, 12, -6
1503600492708,+0.080,+0.100,-0.494,-0.860,+0.883,-0.100,-0.444,-10.625,-6.812,-4.000,19, 7, 8, 0, 3, 6, 0, -17
1503600492731,+0.080,+0.099,-0.493,-0.860,+0.875,-0.093,-0.442,-11.688,-4.312,-2.125,-25, 0, -3, 2, -1, -5, 2, 5
1503600492747,+0.079,+0.097,-0.493,-0.861,+0.891,-0.078,-0.435,-11.812,-3.000,-1.562,-13, -2, -1, 1, -2, -9, -7, 5
1503600492769,+0.079,+0.096,-0.493,-0.861,+0.906,-0.077,-0.455,-9.188,-1.438,-0.625,-16, -34, -12, -6, -1, -3, 0, -16
1503600492791,+0.078,+0.094,-0.493,-0.861,+0.912,-0.086,-0.471,-9.625,-4.250,-1.375,3, 29, 4, -6, -7, -15, -3, 1
1503600492807,+0.078,+0.093,-0.492,-0.862,+0.897,-0.078,-0.475,-9.188,-6.625,-2.000,21, 4, -2, 0, -2, -6, 4, 12
1503600492829,+0.078,+0.091,-0.491,-0.863,+0.893,-0.083,-0.472,-8.062,-9.750,-0.750,19, -9, 10, 2, 1, -2, 1, 5
1503600492851,+0.077,+0.091,-0.490,-0.864,+0.880,-0.086,-0.476,-7.125,-4.750,+0.625,-9, 14, 3, 3, 5, 8, 3, -3
1503600492868,+0.077,+0.090,-0.490,-0.864,+0.858,-0.079,-0.475,-6.750,-0.625,-0.062,-61, 4, -1, -6, -3, 6, -3, -23
1503600492888,+0.077,+0.089,-0.490,-0.864,+0.874,-0.083,-0.467,-5.938,+2.938,-1.562,-40, -30, -12, -1, -6, -14, 2, 6
1503600492911,+0.077,+0.088,-0.492,-0.863,+0.891,-0.083,-0.441,-6.062,+8.625,-4.062,-1, 21, -2, -1, 0, 4, 4, -3
1503600492927,+0.077,+0.087,-0.494,-0.862,+0.912,-0.061,-0.453,-5.500,+11.125,-7.000,-2, 26, 13, -1, 0, 1, -4, -4
1503600492948,+0.079,+0.086,-0.495,-0.861,+0.896,-0.053,-0.456,-5.438,+6.688,-10.938,-8, -32, -20, -4, 4, 34, 4, -8
1503600492972,+0.080,+0.084,-0.496,-0.861,+0.899,-0.048,-0.443,-4.812,+5.250,-11.562,-4, -6, 10, 5, 2, -3, 1, 10
1503600492987,+0.081,+0.083,-0.497,-0.860,+0.894,-0.043,-0.451,-3.438,+4.750,-9.500,43, -7, -5, 1, -1, 3, 3, -2
1503600493009,+0.083,+0.081,-0.498,-0.859,+0.900,-0.033,-0.448,-2.875,+5.250,-9.688,-79, -18, -3, -1, 1, -8, -2, 7
1503600493039,+0.084,+0.081,-0.499,-0.859,+0.904,-0.029,-0.440,-2.312,+7.625,-8.375,38, 12, 9, -2, 5, 19, 0, 11
1503600493047,+0.085,+0.080,-0.501,-0.858,+0.907,-0.028,-0.445,-0.312,+7.938,-6.875,-15, -10, 3, 0, -1, -1, 1, 14
1503600493070,+0.086,+0.080,-0.502,-0.857,+0.923,-0.025,-0.428,+1.500,+5.438,-5.938,38, 56, 6, -1, -1, 3, 0, 1
1503600493091,+0.087,+0.080,-0.503,-0.856,+0.929,-0.027,-0.439,+3.375,+5.938,-4.188,1, -23, -11, -4, -3, -6, -4, 4
1503600493107,+0.089,+0.080,-0.504,-0.855,+0.907,-0.035,-0.436,+4.688,+7.688,-4.000,-19, 29, -5, -3, -2, -1, 2, -4
1503600493129,+0.090,+0.081,-0.505,-0.854,+0.920,-0.036,-0.415,+4.312,+8.375,-5.125,62, 15, 13, -1, -2, -10, 7, 12
1503600493151,+0.091,+0.081,-0.507,-0.853,+0.951,-0.036,-0.419,+5.375,+10.062,-5.750,17, 5, -3, -1, 0, 2, 2, 4
1503600493167,+0.092,+0.082,-0.509,-0.852,+0.957,-0.045,-0.424,+5.625,+10.062,-5.750,15, 4, 11, 2, 2, 4, 1, 8
1503600493189,+0.094,+0.083,-0.510,-0.851,+0.939,-0.033,-0.438,+6.875,+8.812,-7.750,-24, -7, 10, 4, 2, 1, -3, -28
1503600493211,+0.096,+0.083,-0.511,-0.850,+0.934,-0.051,-0.415,+7.562,+7.125,-8.062,9, 32, 0, -2, -4, -4, -1, 6
1503600493227,+0.098,+0.084,-0.513,-0.849,+0.945,-0.061,-0.405,+7.562,+8.125,-8.438,7, -6, -11, -6, -3, 2, -8, -2
1503600493248,+0.100,+0.085,-0.514,-0.847,+0.933,-0.064,-0.402,+7.188,+10.500,-10.375,-46, 6, 7, -5, 7, 29, 1, -1
1503600493273,+0.102,+0.086,-0.516,-0.846,+0.932,-0.062,-0.407,+6.438,+8.375,-11.812,8, -10, -3, -4, -2, 0, -5, -2
1503600493287,+0.104,+0.086,-0.517,-0.845,+0.908,-0.046,-0.399,+7.312,+9.438,-11.500,14, 8, 4, -1, -5, -10, -3, 2
1503600493309,+0.107,+0.087,-0.518,-0.844,+0.898,-0.050,-0.394,+8.812,+8.438,-13.500,-3, -9, 14, 3, 3, 6, -4, 0
1503600493334,+0.109,+0.087,-0.519,-0.843,+0.893,-0.057,-0.389,+8.812,+6.438,-13.688,17, -7, -12, 2, -5, -6, 0, -1
1503600493347,+0.112,+0.089,-0.521,-0.842,+0.893,-0.062,-0.387,+9.875,+9.312,-10.938,-5, -12, -6, -2, -3, -12, 1, -1
1503600493370,+0.114,+0.090,-0.522,-0.841,+0.892,-0.056,-0.377,+9.125,+10.000,-10.000,12, 15, -6, -2, 0, -1, 1, -5
1503600493391,+0.116,+0.090,-0.523,-0.840,+0.875,-0.030,-0.360,+9.188,+6.000,-9.125,5, -16, -9, -5, -8, -44, -3, -5
1503600493408,+0.118,+0.092,-0.523,-0.839,+0.869,-0.023,-0.376,+10.875,+3.562,-6.875,-12, 13, 3, 0, -1, 14, -3, -9
1503600493429,+0.120,+0.093,-0.524,-0.838,+0.859,-0.036,-0.375,+11.562,+4.500,-6.375,-9, -8, -2, -4, 2, 11, 0, 1
1503600493451,+0.122,+0.095,-0.524,-0.838,+0.870,-0.041,-0.367,+12.688,+4.938,-4.688,-22, -22, -3, 1, -2, -5, 0, -6
1503600493470,+0.123,+0.097,-0.524,-0.837,+0.897,-0.044,-0.370,+13.000,+4.500,-2.375,-4, -22, 0, 0, 0, -4, -1, 10
1503600493489,+0.125,+0.099,-0.524,-0.837,+0.895,-0.040,-0.383,+12.500,-1.312,-1.875,-6, -4, -6, -2, 2, -8, 0, -1
1503600493520,+0.126,+0.100,-0.523,-0.837,+0.879,-0.026,-0.404,+12.625,-3.125,-2.625,15, 23, 17, 3, 5, 10, 1, 8
1503600493527,+0.128,+0.102,-0.522,-0.837,+0.891,-0.029,-0.407,+14.188,-1.562,-1.062,-12, -15, -16, -5, -3, -1, 1, -2
1503600493549,+0.129,+0.105,-0.522,-0.837,+0.900,-0.034,-0.396,+14.375,+2.188,+2.625,-15, 9, -1, -1, 4, -1, -2, 5
1503600493573,+0.130,+0.107,-0.522,-0.836,+0.921,-0.016,-0.405,+16.312,+6.438,+2.438,11, -11, -8, -7, -7, -8, 0, -2
1503600493588,+0.132,+0.110,-0.522,-0.835,+0.949,-0.027,-0.403,+16.188,+3.375,+1.188,13, 2, 9, -1, 3, -1, -2, 4
1503600493610,+0.133,+0.113,-0.523,-0.835,+0.947,-0.025,-0.401,+18.250,+5.312,+2.750,-6, 7, -4, 0, -1, -1, 2, 2
1503600493632,+0.135,+0.116,-0.523,-0.834,+0.932,-0.025,-0.398,+20.062,+7.062,+1.250,31, 20, 2, -2, -1, 7, 6, 9
1503600493653,+0.137,+0.119,-0.524,-0.832,+0.942,-0.031,-0.396,+20.062,+8.625,+0.500,-48, -14, -6, -1, -5, -9, 1, -2
1503600493672,+0.139,+0.122,-0.525,-0.831,+0.948,-0.042,-0.380,+22.312,+11.625,+2.188,15, 5, 0, -4, -2, -4, 3, 2
1503600493691,+0.141,+0.126,-0.526,-0.830,+0.945,-0.039,-0.383,+22.062,+10.375,+1.625,15, -34, -5, -2, -3, 3, -1, -8
1503600493714,+0.143,+0.129,-0.526,-0.828,+0.953,-0.042,-0.395,+23.375,+7.250,+0.938,-8, -1, -4, -1, -2, -3, -3, 5
1503600493729,+0.145,+0.133,-0.526,-0.828,+0.932,-0.060,-0.409,+23.562,+5.688,+0.812,18, -6, -11, 2, 0, -3, -1, -11
1503600493751,+0.147,+0.137,-0.526,-0.827,+0.916,-0.068,-0.402,+24.125,+5.812,+2.562,-105, -34, -7, -3, -4, 6, -4, -14
1503600501695,+0.064,+0.104,-0.580,-0.806,+0.936,-0.103,-0.281,-0.188,+22.688,-5.562,6, -11, 0, -3, -4, 5, 0, 1
1503600501717,+0.066,+0.103,-0.582,-0.804,+0.946,-0.085,-0.282,+3.438,+19.625,-14.062,-17, -21, 1, -1, -7, -21, -12, 21
1503600501740,+0.069,+0.102,-0.584,-0.803,+0.940,-0.089,-0.278,+6.062,+10.688,-17.625,-37, -4, -6, -3, 4, 14, 0, -15
1503600501754,+0.072,+0.102,-0.585,-0.801,+0.889,-0.085,-0.259,+4.188,+13.625,-18.312,35, 25, 11, 3, 2, 6, 3, 1
1503600501777,+0.075,+0.101,-0.588,-0.799,+0.876,-0.071,-0.273,+6.750,+22.688,-20.000,-22, -12, -2, -1, -4, 0, -1, -1
1503600501800,+0.078,+0.101,-0.591,-0.796,+0.965,-0.081,-0.240,+8.062,+21.750,-16.438,-4, 3, 3, 1, -5, -26, -2, -3
1503600501815,+0.079,+0.102,-0.594,-0.794,+1.033,-0.087,-0.233,+7.938,+16.938,-7.125,-7, 11, 1, 0, 3, 5, -2, -6
1503600501837,+0.081,+0.102,-0.595,-0.793,+0.998,-0.070,-0.208,+6.125,+10.938,-6.500,-14, 2, 5, -2, -3, 5, 1, -7
1503600501860,+0.083,+0.103,-0.596,-0.792,+0.988,-0.073,-0.225,+8.250,+4.250,-8.000,17, 41, 20, 3, 2, -7, 2, 19
1503600501874,+0.085,+0.104,-0.597,-0.791,+0.974,-0.096,-0.192,+6.625,+3.688,-10.188,6, -20, -10, -4, 0, -9, -6, -7
1503600501897,+0.086,+0.103,-0.598,-0.791,+0.958,-0.073,-0.187,+1.688,+4.250,-11.062,-1, -10, -1, -1, 3, 5, 5, -7
1503600501918,+0.087,+0.102,-0.599,-0.790,+0.967,-0.050,-0.176,-1.875,+4.688,-8.312,3, -8, -5, 0, -4, -3, -11, 4
1503600501934,+0.088,+0.101,-0.600,-0.789,+1.010,-0.029,-0.169,-4.188,+2.375,-6.312,24, -4, 1, 1, -6, -34, -6, 4
1503600501955,+0.089,+0.099,-0.599,-0.789,+0.997,-0.032,-0.160,-7.688,-8.438,-8.750,60, 23, 7, 4, 8, 20, 7, 19
1503600501979,+0.089,+0.096,-0.598,-0.791,+0.960,-0.011,-0.183,-11.375,-18.000,-9.750,-6, -7, -3, 1, 7, -1, -8, -8
1503600502003,+0.089,+0.093,-0.596,-0.793,+0.977,+0.008,-0.171,-16.562,-21.625,-5.875,-9, 25, 6, 1, 0, 10, 0, -9
1503600502016,+0.089,+0.089,-0.593,-0.795,+0.996,+0.035,-0.179,-18.000,-27.062,-2.062,-21, -13, 1, -2, 5, 11, 1, 1
1503600502039,+0.088,+0.086,-0.590,-0.798,+0.989,+0.005,-0.176,-17.875,-31.562,+0.875,-4, -12, -5, -2, 3, -1, 0, -3
1503600502063,+0.086,+0.083,-0.586,-0.801,+0.960,-0.002,-0.206,-22.312,-29.312,+1.188,-6, 2, -8, -4, -5, -15, -1, -13
1503600502075,+0.085,+0.079,-0.583,-0.804,+0.968,+0.030,-0.236,-23.188,-26.938,+0.188,13, 41, 6, 2, 3, 3, -5, -11
1503600502098,+0.083,+0.076,-0.581,-0.806,+0.969,+0.026,-0.237,-22.500,-24.062,+2.062,-38, -21, 0, -5, -4, -6, 1, -5
1503600502129,+0.081,+0.072,-0.578,-0.809,+0.965,+0.004,-0.260,-24.625,-19.812,+4.312,2, 3, -13, -3, 1, -6, -1, 0
1503600502136,+0.078,+0.069,-0.576,-0.811,+0.967,+0.002,-0.283,-23.062,-17.562,+3.812,3, -1, 2, -1, -5, -19, 7, 5
1503600502158,+0.076,+0.066,-0.574,-0.813,+0.971,-0.009,-0.303,-21.438,-20.438,+1.688,-6, -11, -1, 0, 1, 1, 0, -10
1503600502181,+0.075,+0.063,-0.570,-0.816,+0.949,-0.010,-0.299,-20.375,-25.312,+1.125,-8, 17, 9, 4, 9, 36, 12, -3
1503600502197,+0.073,+0.061,-0.567,-0.819,+0.924,-0.013,-0.327,-19.938,-24.812,+3.500,-6, 12, -2, 0, -2, -5, -5, 0
1503600502218,+0.071,+0.058,-0.565,-0.820,+0.922,-0.021,-0.313,-20.125,-15.875,+3.688,12, -17, -11, -3, -1, -1, -4, -2
1503600502241,+0.069,+0.056,-0.564,-0.821,+0.928,-0.027,-0.312,-19.688,-7.375,+0.438,7, 25, 14, 6, 5, -1, -4, 7
1503600502256,+0.067,+0.053,-0.563,-0.822,+0.943,-0.018,-0.332,-19.938,-6.500,-2.375,0, -16, -6, -3, -4, -5, 1, 5
1503600502278,+0.066,+0.050,-0.562,-0.823,+0.956,+0.000,-0.333,-18.125,-9.312,-2.875,21, 3, 0, 2, -6, -32, -1, 14
1503600502301,+0.066,+0.048,-0.560,-0.825,+0.926,-0.001,-0.331,-14.188,-11.375,-4.125,-11, -3, -3, -4, -2, 13, -6, 0
1503600502315,+0.066,+0.045,-0.559,-0.826,+0.900,-0.012,-0.323,-13.250,-10.438,-7.125,-7, 10, -4, -1, 4, 13, 7, -7
1503600502339,+0.065,+0.043,-0.557,-0.827,+0.894,+0.007,-0.337,-14.000,-7.750,-5.750,15, 1, 4, 1, -7, -8, 6, 16
1503600502353,+0.065,+0.041,-0.557,-0.827,+0.920,+0.024,-0.351,-11.750,-3.000,-3.438,13, -3, 6, 4, 2, -10, 2, -37
1503600502376,+0.065,+0.039,-0.556,-0.828,+0.957,+0.020,-0.349,-8.625,-5.062,-2.188,-28, -23, -9, -5, 0, 19, -6, -5
1503600502398,+0.065,+0.038,-0.555,-0.829,+0.962,+0.019,-0.348,-6.750,-12.188,-2.000,16, 54, 5, 3, 5, 6, -2, 7
1503600502414,+0.065,+0.037,-0.552,-0.830,+0.939,+0.021,-0.347,-6.062,-16.125,-0.812,-16, -29, 2, 1, 6, 12, -6, -1
1503600502436,+0.064,+0.037,-0.550,-0.832,+0.917,+0.020,-0.357,-4.812,-12.625,+2.062,0, 3, -10, -6, -6, -1, 4, 0
1503600502458,+0.064,+0.037,-0.549,-0.833,+0.910,+0.016,-0.362,-2.375,-6.500,+3.188,-6, -6, -6, 0, -14, -15, 4, 2
1503600502474,+0.063,+0.037,-0.549,-0.833,+0.947,+0.003,-0.342,-3.438,-4.188,+3.312,2, 16, -7, -6, 0, 3, -1, -5
1503600502498,+0.062,+0.036,-0.548,-0.833,+0.966,+0.022,-0.352,-4.375,-6.375,+5.062,-29, -21, -7, -1, 0, -2, -2, -7
1503600502518,+0.061,+0.037,-0.546,-0.835,+0.965,+0.018,-0.365,-2.438,-11.375,+6.625,1, -27, -5, -6, -8, -15, -11, 6
1503600502534,+0.060,+0.037,-0.544,-0.836,+0.929,+0.011,-0.365,-1.000,-12.312,+7.000,18, 0, 3, -6, -23, -14, 1, 4
1503600502556,+0.060,+0.038,-0.543,-0.837,+0.905,+0.008,-0.370,-1.062,-11.312,+7.062,-16, 0, 0, -4, -1, 4, -6, -4
1503600502578,+0.059,+0.038,-0.542,-0.837,+0.912,+0.001,-0.357,-1.125,-3.812,+8.062,-46, -5, -2, 1, 3, -6, -7, 0
1503600502601,+0.058,+0.039,-0.542,-0.837,+0.944,+0.010,-0.352,-1.250,+1.750,+6.312,23, -7, -3, 0, 4, -5, 2, -8
1503600502623,+0.058,+0.039,-0.542,-0.837,+0.959,+0.028,-0.360,+0.438,-1.562,+3.875,15, 14, 4, 4, 4, 16, 11, 9
1503600502640,+0.058,+0.040,-0.542,-0.838,+0.941,+0.020,-0.350,+2.062,-6.062,+2.250,3, -6, -1, 3, 13, 22, 12, -1
1503600502661,+0.058,+0.040,-0.541,-0.838,+0.925,+0.009,-0.363,+3.000,-7.562,+2.875,0, -11, -2, -2, -2, -5, -5, 6
1503600502676,+0.058,+0.041,-0.540,-0.839,+0.892,+0.005,-0.376,+4.000,-4.875,+3.188,-12, -7, -6, -3, -1, -8, -3, 8
1503600502700,+0.058,+0.042,-0.539,-0.839,+0.902,-0.019,-0.368,+4.125,-1.250,+3.625,-1, 19, 7, -2, -4, -11, -12, -11
1503600502721,+0.058,+0.043,-0.540,-0.839,+0.903,-0.024,-0.366,+3.062,+3.750,+2.062,23, -20, -13, 0, 3, 3, 3, -6
1503600502737,+0.058,+0.044,-0.540,-0.838,+0.925,-0.034,-0.370,+2.688,+5.125,-0.375,17, -10, -10, -5, -4, -11, -7, 2
1503600502758,+0.059,+0.045,-0.541,-0.838,+0.928,-0.044,-0.356,+2.125,+5.688,-3.375,-23, 5, -4, 1, 1, 3, -15, -1
1503600502774,+0.060,+0.045,-0.542,-0.837,+0.931,-0.022,-0.352,+0.938,+4.062,-7.062,-10, -27, -13, -7, -2, 0, 6, 4
1503600502796,+0.061,+0.044,-0.542,-0.837,+0.931,-0.010,-0.342,+0.500,+1.250,-8.438,20, -5, -10, -2, 1, 9, 4, -1
1503600502818,+0.062,+0.044,-0.542,-0.837,+0.944,+0.005,-0.349,+0.125,-0.250,-7.000,-5, 12, 9, 6, 3, -22, 0, -8
1503600502835,+0.064,+0.043,-0.543,-0.836,+0.925,+0.032,-0.351,+1.250,+1.500,-6.375,-24, 1, 8, -4, -3, 10, 6, -11
1503600502856,+0.065,+0.043,-0.543,-0.836,+0.953,+0.055,-0.356,+4.938,+1.562,-3.062,12, 10, 10, 3, 3, 25, -4, 7
1503600502878,+0.066,+0.044,-0.543,-0.836,+0.988,+0.063,-0.345,+7.812,-2.188,+1.500,-19, -22, 8, 4, 2, -7, 0, 5
1503600502894,+0.067,+0.046,-0.542,-0.836,+1.009,+0.073,-0.364,+12.375,-7.062,+7.188,20, 25, 12, 0, -1, 4, 2, 5
1503600502915,+0.068,+0.049,-0.540,-0.837,+0.974,+0.059,-0.377,+18.438,-12.312,+11.375,11, -11, 3, -3, -4, 15, 8, 3
1503600502938,+0.067,+0.053,-0.538,-0.838,+0.976,-0.023,-0.376,+19.438,-12.812,+17.188,-7, 26, -5, -6, -9, -40, 9, 20
1503600502961,+0.066,+0.058,-0.537,-0.839,+0.929,-0.072,-0.380,+17.438,-4.938,+19.688,11, -39, -5, -2, -3, 3, 12, 11
1503600502976,+0.064,+0.063,-0.537,-0.839,+0.945,-0.074,-0.376,+15.688,+0.812,+21.062,29, 21, 10, 0, -2, 11, 11, -3
1503600503001,+0.062,+0.067,-0.536,-0.839,+0.972,-0.075,-0.375,+12.812,-0.625,+21.188,28, 46, -2, -3, -3, 3, -5, -8
1503600503021,+0.061,+0.071,-0.535,-0.839,+0.930,-0.079,-0.372,+10.750,-4.062,+16.812,-22, 2, -3, 0, 1, 3, 9, -8
1503600503036,+0.060,+0.074,-0.534,-0.840,+0.890,-0.101,-0.363,+7.188,-10.000,+13.250,6, -5, 1, 2, 5, 20, -7, 8
1503600503068,+0.059,+0.075,-0.532,-0.841,+0.842,-0.104,-0.365,+2.500,-6.812,+10.188,1, 7, -10, -9, -12, -30, -5, 2
1503600503081,+0.057,+0.076,-0.532,-0.841,+0.816,-0.086,-0.366,-0.125,+0.812,+7.188,43, 6, 5, 3, -4, 13, -1, 0
1503600503098,+0.057,+0.077,-0.533,-0.841,+0.847,-0.083,-0.343,-1.812,+8.125,+1.688,-22, 13, 13, -1, 1, 4, -7, -8
1503600503118,+0.057,+0.076,-0.535,-0.840,+0.878,-0.069,-0.348,-3.500,+10.812,-4.688,-2, -24, -7, -1, 5, 14, 11, -15
1503600503136,+0.059,+0.075,-0.536,-0.839,+0.872,-0.035,-0.347,-3.625,+9.125,-12.500,10, -11, -5, -2, 0, 2, -23, 2
1503600503157,+0.061,+0.073,-0.537,-0.838,+0.876,-0.005,-0.348,-2.875,+3.625,-16.250,3, -35, -8, -1, 4, 11, 5, -9
1503600503178,+0.064,+0.070,-0.537,-0.838,+0.849,+0.008,-0.350,-1.125,+3.000,-19.125,-17, -12, 0, 0, 1, -6, 4, 2
1503600503194,+0.068,+0.068,-0.538,-0.837,+0.863,+0.013,-0.340,+0.188,+4.938,-19.125,4, -11, -1, 0, -3, -16, -4, 9
1503600503215,+0.070,+0.067,-0.539,-0.836,+0.909,+0.030,-0.347,+2.375,+5.500,-14.438,-5, 45, 7, 2, 2, -6, 3, -3
1503600503239,+0.073,+0.066,-0.539,-0.836,+0.929,+0.041,-0.371,+5.125,-0.812,-12.438,-5, -9, -8, -4, -2, 6, 14, 21
1503600503254,+0.076,+0.066,-0.539,-0.836,+0.936,+0.029,-0.361,+8.500,-5.688,-10.375,-2, 25, 18, 3, -2, -6, 1, 8
1503600503277,+0.078,+0.067,-0.538,-0.837,+0.942,-0.004,-0.369,+11.625,-5.375,-5.438,-45, -7, -13, -2, -2, -8, -9, -24
1503600503302,+0.080,+0.068,-0.537,-0.837,+0.963,-0.019,-0.359,+11.812,-4.375,-3.188,-4, 13, 2, -4, 0, 12, 1, 1
1503600503314,+0.082,+0.070,-0.537,-0.837,+0.994,-0.005,-0.374,+13.062,-6.375,-0.812,-29, 10, 3, -3, -1, 5, -7, -9
1503600503336,+0.083,+0.072,-0.535,-0.838,+1.001,+0.005,-0.380,+15.312,-10.500,+0.875,28, 44, 17, 5, 1, 0, 7, 4
1503600503360,+0.085,+0.074,-0.534,-0.838,+0.990,+0.019,-0.369,+17.812,-9.688,+2.250,5, -33, -6, -3, 5, 15, -2, -9
1503600503381,+0.087,+0.077,-0.533,-0.838,+0.981,+0.026,-0.368,+20.938,-7.188,+4.875,34, 29, 6, -1, 5, 20, 9, 15
1503600503396,+0.089,+0.080,-0.532,-0.838,+0.983,+0.026,-0.396,+22.562,-3.875,+5.375,-5, -8, 0, 3, 5, 26, 1, 3
1503600503418,+0.091,+0.084,-0.532,-0.838,+0.981,+0.017,-0.399,+25.812,+3.375,+5.312,1, 30, 1, -3, -5, -21, -4, -7
1503600503442,+0.093,+0.089,-0.532,-0.837,+1.024,+0.003,-0.393,+30.688,+2.000,+8.250,6, -3, 1, -1, 1, -12, -12, -3
1503600503455,+0.096,+0.094,-0.532,-0.836,+1.024,-0.013,-0.394,+32.938,+0.000,+8.688,-3, -2, -7, -5, -2, 3, -10, -18
1503600503479,+0.098,+0.100,-0.531,-0.836,+0.999,-0.017,-0.403,+37.062,-4.062,+7.438,18, -7, 0, 0, 0, 7, -12, -6
1503600503501,+0.101,+0.106,-0.529,-0.836,+0.979,-0.044,-0.411,+40.062,-4.875,+6.875,18, -9, 2, 3, -3, -10, 1, 2
1503600503515,+0.104,+0.112,-0.528,-0.836,+0.952,-0.068,-0.418,+41.375,-1.062,+8.500,0, 2, 0, -1, -4, -33, 7, 14
1503600503550,+0.107,+0.119,-0.527,-0.835,+0.956,-0.053,-0.408,+43.875,+1.062,+8.625,-9, -10, -3, -3, -11, -10, 6, 0
1503600503561,+0.111,+0.126,-0.525,-0.834,+0.966,-0.050,-0.430,+47.062,-0.125,+7.500,5, -6, -1, 0, 0, -5, -9, -6
1503600503577,+0.115,+0.134,-0.524,-0.833,+0.954,-0.073,-0.415,+49.812,-0.312,+6.438,-7, 30, 4, 0, 2, 26, 9, 4
1503600510304,-0.025,+0.043,-0.400,-0.915,+0.786,-0.083,-0.640,+4.625,+10.000,+0.438,-8, -3, 1, -1, -1, 0, 2, -5
1503600510328,-0.025,+0.044,-0.401,-0.915,+0.766,-0.094,-0.632,+5.750,+9.062,+1.062,-5, 10, -1, -1, 1, 2, 0, 8
1503600510341,-0.025,+0.045,-0.403,-0.914,+0.748,-0.102,-0.624,+5.250,+7.812,+0.500,-14, -8, -4, -2, -1, -3, -5, -2
1503600510363,-0.024,+0.046,-0.404,-0.913,+0.741,-0.107,-0.627,+4.812,+7.438,+0.438,1, -4, -3, -2, -1, 0, -3, -1
1503600510393,-0.024,+0.047,-0.405,-0.913,+0.741,-0.116,-0.624,+3.250,+7.250,-2.062,2, -2, 0, 0, -1, 0, 0, -4
1503600510408,-0.023,+0.047,-0.406,-0.912,+0.784,-0.102,-0.610,+1.938,+7.375,-2.125,9, 8, 1, -3, -6, -2, 0, -2
1503600510424,-0.022,+0.048,-0.407,-0.912,+0.799,-0.111,-0.613,+2.750,+2.000,-4.875,2, -8, -6, -1, 3, 2, 2, -3
1503600510445,-0.021,+0.047,-0.407,-0.912,+0.769,-0.097,-0.628,+1.062,+1.500,-6.688,8, -9, -1, 0, 1, -1, 3, 7
1503600510462,-0.020,+0.047,-0.408,-0.912,+0.768,-0.088,-0.634,+1.250,+3.062,-5.000,1, -14, -2, 0, -1, 1, -1, -1
1503600510488,-0.019,+0.048,-0.408,-0.911,+0.773,-0.099,-0.604,+2.125,+2.875,-2.938,-4, 6, 2, 0, 0, -1, -2, -3
1503600510505,-0.018,+0.048,-0.408,-0.911,+0.770,-0.088,-0.620,+0.438,-0.250,-2.750,8, 13, 5, 3, 7, 1, -1, -3
1503600510522,-0.018,+0.047,-0.408,-0.911,+0.788,-0.094,-0.592,-2.375,-2.562,+0.125,7, 30, 3, 3, 0, 0, 1, 3
1503600510544,-0.019,+0.047,-0.407,-0.912,+0.818,-0.099,-0.599,-4.125,-10.250,+1.500,0, 14, 3, 0, -2, -2, -9, 0
1503600510565,-0.018,+0.047,-0.405,-0.913,+0.798,-0.098,-0.614,-4.375,-17.125,-2.000,-7, -21, -10, -2, -2, -1, 1, 0
1503600510581,-0.018,+0.046,-0.401,-0.915,+0.764,-0.113,-0.617,-6.188,-25.312,-5.375,6, 3, 2, -1, -5, -2, 6, 3
1503600510603,-0.017,+0.044,-0.397,-0.917,+0.738,-0.097,-0.620,-10.938,-30.438,-5.750,-10, -14, -3, -2, -1, -4, -6, -13
1503600510626,-0.016,+0.042,-0.392,-0.919,+0.730,-0.101,-0.647,-11.438,-27.938,-7.875,0, 7, 0, 1, -1, 2, 1, 2
1503600510641,-0.016,+0.040,-0.388,-0.921,+0.747,-0.095,-0.642,-12.625,-28.938,-7.438,-16, -8, 3, 0, 0, -3, -7, -7
1503600510663,-0.016,+0.038,-0.384,-0.922,+0.750,-0.088,-0.659,-12.625,-27.438,-4.625,8, 18, 1, -1, -3, -1, -1, 1
1503600510693,-0.016,+0.036,-0.380,-0.924,+0.741,-0.063,-0.658,-14.688,-26.438,-3.250,3, 0, 0, 0, 2, 2, 2, 1
1503600510701,-0.016,+0.034,-0.376,-0.926,+0.739,-0.060,-0.657,-13.438,-25.188,-0.500,1, -3, 1, 2, 1, 0, 1, 3
1503600510729,-0.017,+0.032,-0.372,-0.927,+0.713,-0.042,-0.679,-11.938,-26.250,+2.250,0, 0, -1, -3, -3, -2, -1, 0
1503600510745,-0.018,+0.030,-0.369,-0.929,+0.691,-0.042,-0.697,-10.688,-21.875,+4.250,-3, -7, 0, -2, -2, 1, 0, 0
1503600510762,-0.019,+0.030,-0.365,-0.930,+0.653,-0.050,-0.724,-7.812,-20.312,+9.062,0, -4, -1, 1, 0, -2, 1, 3
1503600510784,-0.021,+0.029,-0.361,-0.932,+0.621,-0.054,-0.727,-6.625,-16.688,+8.125,4, -2, -1, -4, -1, 0, -4, -2
1503600510805,-0.023,+0.029,-0.359,-0.933,+0.641,-0.074,-0.709,-9.750,-10.250,+9.875,5, 7, 0, -2, -5, -2, 3, -1
1503600510822,-0.025,+0.028,-0.358,-0.933,+0.695,-0.053,-0.720,-9.500,-7.000,+8.750,-2, 1, -2, 5, 4, 1, -3, 2
1503600510844,-0.026,+0.027,-0.357,-0.933,+0.712,-0.043,-0.718,-7.312,-6.250,+6.688,-5, -14, -10, 0, 2, 0, -1, -1
1503600510865,-0.027,+0.027,-0.356,-0.934,+0.676,-0.061,-0.699,-4.875,-5.375,+8.000,4, 10, 5, 5, 4, 1, 0, -5
1503600510881,-0.029,+0.027,-0.355,-0.934,+0.653,-0.057,-0.725,-5.188,-4.500,+6.750,-4, 2, -1, -10, -13, -2, -10, -7
1503600510903,-0.030,+0.027,-0.354,-0.934,+0.658,-0.057,-0.722,-3.062,-0.562,+7.562,-11, -12, -2, -2, 0, -3, 1, -4
1503600510925,-0.031,+0.027,-0.354,-0.934,+0.682,-0.062,-0.709,-1.375,+0.625,+6.000,-3, -2, -1, -5, 1, -1, -2, -6
1503600510941,-0.031,+0.027,-0.354,-0.934,+0.687,-0.067,-0.714,-0.938,+0.875,+4.000,-4, -5, -2, 3, 2, 2, -2, -3
1503600510964,-0.031,+0.028,-0.355,-0.934,+0.676,-0.059,-0.709,+0.375,+1.812,+2.312,6, -3, -2, 1, 2, -1, 2, 2
1503600510985,-0.031,+0.028,-0.355,-0.934,+0.673,-0.067,-0.710,+1.688,+0.188,+1.688,-3, -5, 3, 7, 7, 2, -1, 3
1503600511001,-0.032,+0.029,-0.355,-0.934,+0.668,-0.068,-0.710,+1.500,+3.812,+2.500,1, 0, 2, -3, -6, -2, -4, -2
1503600511024,-0.032,+0.029,-0.356,-0.934,+0.673,-0.069,-0.705,+2.375,+3.375,+2.250,1, -4, -4, -1, 6, 0, 1, -2
1503600511045,-0.032,+0.030,-0.356,-0.933,+0.688,-0.079,-0.699,+3.062,+4.062,+2.562,7, 2, -2, -2, 0, -1, 0, 0
1503600511063,-0.032,+0.031,-0.357,-0.933,+0.703,-0.079,-0.702,+2.625,+6.000,+2.312,5, -3, -1, 0, 0, 0, 3, -3
1503600511084,-0.032,+0.031,-0.358,-0.933,+0.698,-0.072,-0.704,+2.875,+4.750,+2.062,-16, 4, -5, -3, -8, -5, -6, -4
1503600511106,-0.032,+0.032,-0.359,-0.932,+0.672,-0.081,-0.699,+1.750,+7.438,+3.125,5, -9, -1, -1, 0, -3, -8, -4
1503600511124,-0.033,+0.033,-0.360,-0.932,+0.688,-0.078,-0.691,+0.875,+5.688,+4.438,4, 5, -2, -2, -1, 0, -1, 2
1503600511144,-0.033,+0.033,-0.361,-0.931,+0.710,-0.077,-0.688,+0.875,+4.500,+3.875,7, -3, -1, -5, -11, -2, -6, -2
1503600511166,-0.033,+0.034,-0.362,-0.931,+0.723,-0.078,-0.689,+1.062,+2.750,+3.250,4, 6, 1, -4, -15, -9, 1, 0
1503600511181,-0.033,+0.034,-0.362,-0.931,+0.704,-0.079,-0.682,+1.062,+0.625,+2.062,-18, -4, -2, -4, -1, -3, 2, 3
1503600511204,-0.034,+0.035,-0.362,-0.931,+0.702,-0.083,-0.687,+0.875,-0.188,+2.562,27, 9, -1, -1, 1, 2, 0, -12
1503600511226,-0.034,+0.035,-0.362,-0.931,+0.703,-0.079,-0.701,+0.625,-1.312,+3.250,17, 9, 2, 2, -1, 1, 2, -5
1503600511241,-0.034,+0.036,-0.362,-0.931,+0.695,-0.084,-0.707,+1.250,-1.625,+3.375,13, 1, -1, 7, 7, 6, 1, 5
1503600511270,-0.035,+0.036,-0.362,-0.931,+0.678,-0.077,-0.708,+2.000,-0.750,+3.938,-17, -7, -2, -7, -10, -15, -7, -3
1503600511286,-0.035,+0.037,-0.361,-0.931,+0.680,-0.095,-0.703,+2.312,-0.188,+4.500,-11, -5, -1, -1, 2, 0, 0, 4
1503600511302,-0.036,+0.038,-0.362,-0.931,+0.682,-0.102,-0.696,+1.875,+1.875,+4.375,-15, -6, -4, -5, 3, 7, 0, -11
1503600511326,-0.036,+0.039,-0.362,-0.931,+0.694,-0.104,-0.693,+1.562,+0.625,+2.312,-6, -5, -3, 4, -6, 3, 0, -3
1503600511346,-0.036,+0.039,-0.362,-0.931,+0.695,-0.104,-0.707,+1.562,-0.250,+0.500,23, 8, -1, -2, 1, 3, 0, -13
1503600511362,-0.035,+0.039,-0.362,-0.931,+0.685,-0.083,-0.704,+1.625,+2.438,-1.438,-7, 12, 5, -6, -12, -6, -4, -4
1503600511384,-0.035,+0.040,-0.362,-0.931,+0.680,-0.081,-0.700,+2.625,+4.125,+0.250,15, 3, -5, -2, 1, 5, -3, -3
1503600511406,-0.035,+0.041,-0.364,-0.930,+0.702,-0.092,-0.702,+3.562,+7.812,+2.062,10, -6, 2, -1, -1, 3, 1, 10
1503600511428,-0.035,+0.041,-0.365,-0.929,+0.709,-0.095,-0.692,+4.312,+10.312,+2.438,1, -7, -4, -4, 2, 4, -2, -1
1503600511444,-0.034,+0.042,-0.367,-0.929,+0.677,-0.062,-0.710,+2.688,+11.188,-0.875,15, 17, 2, 6, 5, 2, 4, -11
1503600511466,-0.034,+0.043,-0.369,-0.928,+0.725,-0.096,-0.709,+7.688,+14.625,+0.875,1, -6, -9, -1, -1, 1, 1, -1
1503600511481,-0.033,+0.045,-0.372,-0.926,+0.719,-0.121,-0.685,+11.438,+19.438,-1.125,-6, -8, -1, -5, 0, -1, -2, 15
1503600511504,-0.032,+0.046,-0.376,-0.925,+0.731,-0.118,-0.702,+10.938,+22.125,-5.250,-6, 24, 16, 2, 0, -3, -1, -3
1503600511533,-0.030,+0.049,-0.380,-0.923,+0.723,-0.079,-0.682,+17.625,+23.688,-4.938,5, -6, -2, 0, 0, 1, 7, 1
1503600511555,-0.028,+0.051,-0.384,-0.921,+0.731,-0.095,-0.672,+19.312,+28.875,-4.438,-12, -8, -3, -3, -3, -3, -7, 2
1503600511564,-0.025,+0.054,-0.390,-0.919,+0.750,-0.105,-0.651,+19.438,+33.812,-8.875,-9, 0, -3, -3, -2, 1, 1, 5
1503600511586,-0.023,+0.057,-0.395,-0.917,+0.793,-0.165,-0.647,+19.438,+28.875,-7.062,1, -3, -3, 0, -2, 3, 1, 7
1503600511602,-0.021,+0.059,-0.400,-0.914,+0.803,-0.140,-0.611,+14.188,+28.312,-6.375,6, 17, 0, -3, -4, -6, -1, 16
1503600511624,-0.020,+0.060,-0.404,-0.912,+0.818,-0.124,-0.593,+12.188,+21.938,-2.688,6, -9, -10, -4, -2, 2, -2, -1
1503600511646,-0.019,+0.062,-0.406,-0.912,+0.750,-0.132,-0.607,+10.312,+9.750,-3.312,-5, -12, 0, 2, 3, 9, 6, -11
1503600511661,-0.018,+0.064,-0.408,-0.910,+0.718,-0.149,-0.595,+10.438,+17.000,-3.000,-4, -16, 1, 0, 4, 13, -3, -30
1503600511684,-0.017,+0.065,-0.411,-0.909,+0.717,-0.144,-0.574,+4.438,+17.562,-0.812,-37, 3, -3, -1, -1, -9, -7, -15
1503600511706,-0.018,+0.067,-0.416,-0.907,+0.678,-0.185,-0.554,+6.438,+36.188,+0.000,11, 8, 2, 2, -1, -5, 2, 0
1503600511722,-0.018,+0.067,-0.423,-0.904,+0.731,-0.187,-0.535,-4.188,+39.562,-1.062,1, -2, -1, -1, -5, -7, -7, 2
1503600511744,-0.019,+0.066,-0.430,-0.900,+0.796,-0.192,-0.526,-7.125,+43.000,-3.625,9, 0, 2, 0, 2, 2, -1, 0
1503600511766,-0.018,+0.064,-0.435,-0.898,+0.818,-0.138,-0.536,-12.000,+30.312,-11.625,-23, -17, -8, 0, -3, -6, -11, -4
1503600511781,-0.017,+0.061,-0.439,-0.896,+0.836,-0.120,-0.523,-11.938,+24.562,-15.000,12, 6, -1, -4, -2, 1, 0, -1
1503600511804,-0.015,+0.057,-0.442,-0.895,+0.827,-0.081,-0.546,-12.125,+13.250,-19.500,12, 18, 8, 4, 0, -5, 4, 4
1503600511829,-0.012,+0.054,-0.443,-0.895,+0.809,-0.066,-0.568,-11.062,+8.312,-23.562,-16, -3, -1, -2, 0, 0, 0, 12
1503600511842,-0.009,+0.050,-0.445,-0.894,+0.786,-0.042,-0.595,-8.375,+10.812,-21.312,10, 5, -2, 1, -1, -4, -5, -4
1503600511864,-0.006,+0.048,-0.447,-0.893,+0.807,-0.002,-0.593,-2.875,+15.125,-17.500,-2, -8, -2, -2, -8, -7, 0, 3
1503600511886,-0.002,+0.046,-0.450,-0.892,+0.841,+0.027,-0.605,+6.500,+22.938,-16.750,-16, -7, -1, -1, 3, -5, 4, 1
1503600511901,+0.001,+0.047,-0.454,-0.890,+0.862,+0.029,-0.595,+16.375,+27.812,-12.312,-1, -9, -6, -3, 0, 2, -2, -6
1503600511924,+0.005,+0.049,-0.460,-0.887,+0.913,+0.022,-0.579,+27.438,+38.188,-8.688,6, 2, 2, -1, 1, 1, 2, -2
1503600511946,+0.010,+0.054,-0.466,-0.883,+0.864,+0.007,-0.562,+39.625,+42.125,-5.938,0, -7, 2, 0, -1, -4, 3, 9
1503600511963,+0.014,+0.059,-0.473,-0.879,+0.888,-0.026,-0.558,+40.000,+49.312,-5.375,18, -3, -3, -2, -3, -3, 11, -3
1503600511984,+0.018,+0.066,-0.476,-0.877,+0.968,-0.078,-0.568,+45.688,+21.875,-0.125,2, -2, -1, -1, 4, 19, -7, -7
1503600512006,+0.022,+0.073,-0.479,-0.874,+0.970,-0.054,-0.521,+49.000,+18.000,-4.000,0, 14, 9, 1, 0, -1, -3, -2
1503600512022,+0.029,+0.080,-0.481,-0.873,+0.952,-0.068,-0.509,+53.750,+11.375,-8.875,2, -2, -3, 0, -2, -9, -5, 8
1503600512044,+0.035,+0.087,-0.482,-0.871,+0.915,-0.092,-0.511,+57.562,+9.500,-11.812,-4, -14, -6, -1, -2, -1, 0, -6
1503600512066,+0.042,+0.095,-0.483,-0.869,+0.907,-0.103,-0.525,+60.125,+7.125,-13.125,-11, -15, -11, -2, 1, 2, -6, 2
1503600524891,+0.044,+0.075,-0.389,-0.917,+0.779,-0.073,-0.637,-5.750,+2.000,-3.375,-3, 7, -2, -1, -2, -3, -1, 3
1503600524912,+0.045,+0.074,-0.388,-0.917,+0.746,-0.069,-0.654,-2.062,-2.062,-2.438,-2, -6, 0, 1, 1, -2, -1, -1
1503600524934,+0.045,+0.074,-0.388,-0.918,+0.707,-0.095,-0.641,-1.062,-4.438,-1.125,-1, -1, -2, -2, 0, -2, -1, 1
1503600524950,+0.045,+0.074,-0.387,-0.918,+0.721,-0.102,-0.643,-2.938,-1.438,+0.750,-2, -12, -6, -4, -1, -2, 0, 2
1503600524972,+0.045,+0.073,-0.387,-0.918,+0.760,-0.115,-0.648,-4.625,-3.188,-2.625,4, 0, -2, 4, -1, -2, -2, -2
1503600524995,+0.046,+0.072,-0.387,-0.918,+0.749,-0.096,-0.649,-4.812,-2.062,-5.938,1, -2, 3, -4, -3, -1, -2, 0
1503600525011,+0.047,+0.071,-0.387,-0.918,+0.730,-0.087,-0.666,-3.500,-1.875,-7.438,-2, -10, -4, -3, -1, 0, 1, 0
1503600525032,+0.047,+0.070,-0.386,-0.919,+0.704,-0.091,-0.653,-5.375,-0.562,-5.500,-7, -16, -5, -2, 1, 0, 0, -3
1503600525057,+0.048,+0.069,-0.387,-0.918,+0.719,-0.079,-0.650,-6.062,+2.625,-3.750,-7, -9, -3, -4, -2, -3, -5, -4
1503600525070,+0.048,+0.068,-0.387,-0.918,+0.778,-0.092,-0.631,-5.500,-1.938,-4.812,1, 6, 8, 3, 2, 3, -2, 1
1503600525093,+0.049,+0.067,-0.387,-0.918,+0.786,-0.079,-0.639,-6.312,-3.562,-5.000,-1, 11, -2, -2, 0, 2, 0, 4
1503600525114,+0.050,+0.066,-0.386,-0.919,+0.737,-0.066,-0.660,-4.062,-7.875,-7.125,0, 5, 1, -3, -2, -1, 0, 1
1503600525131,+0.051,+0.065,-0.385,-0.919,+0.704,-0.080,-0.667,-4.438,-6.562,-6.562,-1, -8, -2, 1, 0, -3, -2, -2
1503600525155,+0.052,+0.064,-0.384,-0.920,+0.708,-0.083,-0.639,-6.312,-5.062,-6.812,-2, 0, -1, -2, -2, 3, 3, 2
1503600525174,+0.053,+0.062,-0.383,-0.920,+0.767,-0.069,-0.659,-7.562,-5.812,-7.062,2, 3, -3, -2, -1, -2, -2, 0
1503600525192,+0.054,+0.061,-0.383,-0.920,+0.768,-0.057,-0.685,-4.562,-5.812,-9.062,-5, -6, -1, 1, -1, -2, -3, -1
1503600525213,+0.055,+0.060,-0.382,-0.921,+0.710,-0.065,-0.662,-4.188,-2.438,-8.750,-3, -4, 1, -1, 2, 0, 0, -4
1503600525235,+0.056,+0.059,-0.382,-0.921,+0.680,-0.072,-0.647,-6.312,-2.875,-6.812,-4, -5, -4, -2, -2, -3, 0, 0
1503600525251,+0.057,+0.057,-0.381,-0.921,+0.761,-0.063,-0.638,-7.500,-8.500,-8.188,-4, 2, -2, 0, -1, 3, -1, -1
1503600525273,+0.058,+0.055,-0.380,-0.922,+0.790,-0.023,-0.665,-9.250,-10.000,-8.000,-8, -9, -6, -4, -3, 1, 0, 1
1503600525295,+0.059,+0.053,-0.379,-0.922,+0.761,-0.009,-0.667,-6.625,-9.312,-4.625,5, 0, -1, -5, -3, -6, -1, 2
1503600525311,+0.059,+0.053,-0.377,-0.923,+0.736,-0.037,-0.660,-0.750,-15.938,-1.375,12, 5, -3, -3, -3, -3, -1, -1
1503600525333,+0.060,+0.053,-0.374,-0.924,+0.684,-0.055,-0.677,-1.438,-15.375,-2.750,13, 0, 0, -5, -1, 1, 2, 1
1503600525357,+0.060,+0.052,-0.372,-0.925,+0.689,-0.046,-0.679,-3.625,-13.375,-0.625,1, -3, 4, 3, 0, 2, 0, 2
1503600525371,+0.060,+0.052,-0.370,-0.926,+0.701,-0.037,-0.696,-3.125,-11.625,+1.625,-1, 1, 1, 5, 5, 2, 1, 3
1503600525395,+0.060,+0.051,-0.368,-0.926,+0.720,-0.045,-0.688,-2.812,-8.938,+2.000,-16, 20, 9, 1, -2, 6, -5, -13
1503600525415,+0.059,+0.051,-0.367,-0.927,+0.724,-0.046,-0.674,-3.625,-8.312,+2.312,-4, -1, -5, -4, -4, -6, -2, 2
1503600525432,+0.058,+0.052,-0.366,-0.927,+0.708,-0.071,-0.684,-2.375,-8.188,+6.688,-1, -4, -1, -1, 0, 4, 0, -1
1503600525453,+0.057,+0.051,-0.364,-0.928,+0.719,-0.027,-0.684,-3.625,-9.500,+5.750,0, 3, 0, 2, -1, -4, -4, 1
1503600525474,+0.056,+0.051,-0.363,-0.929,+0.700,-0.036,-0.706,-3.062,-7.875,+6.938,8, -9, -4, -4, 0, -3, -1, 4
1503600525492,+0.055,+0.051,-0.362,-0.929,+0.679,-0.045,-0.698,-2.562,-6.750,+6.812,-4, 1, 1, 0, -1, -1, -1, -4
1503600525513,+0.054,+0.051,-0.361,-0.930,+0.674,-0.052,-0.694,-3.125,-5.938,+7.438,-3, 5, -2, -2, -3, -3, -3, 3
1503600525535,+0.053,+0.051,-0.360,-0.930,+0.692,-0.054,-0.708,-3.625,-4.188,+8.000,7, 0, -2, -2, -3, -4, -3, 0
1503600525551,+0.052,+0.051,-0.359,-0.931,+0.681,-0.050,-0.691,-2.500,-4.188,+7.438,-2, 18, 3, -3, -1, -3, -1, 1
1503600525573,+0.051,+0.052,-0.358,-0.931,+0.693,-0.062,-0.695,-2.625,-3.562,+4.562,3, 6, 4, 6, -2, 1, 0, -2
1503600525595,+0.050,+0.051,-0.358,-0.931,+0.705,-0.056,-0.713,-3.688,-4.062,+4.688,5, 19, -4, -4, 0, 0, -3, 4
1503600525628,+0.050,+0.051,-0.357,-0.931,+0.676,-0.046,-0.700,-2.125,-3.062,+3.000,-2, -8, 3, 3, 2, -1, 0, 3
1503600525640,+0.049,+0.051,-0.357,-0.932,+0.677,-0.066,-0.708,-2.438,-0.875,+2.812,-2, 7, 9, 0, 0, -3, -1, 3
1503600525655,+0.049,+0.051,-0.357,-0.932,+0.685,-0.053,-0.712,-2.688,-0.562,+2.812,2, -21, -9, -3, 0, -1, -6, -8
1503600525677,+0.048,+0.051,-0.357,-0.932,+0.677,-0.047,-0.707,-2.625,+2.688,+2.625,-3, -3, -5, -4, -3, -3, 2, 7
1503600525694,+0.048,+0.051,-0.357,-0.932,+0.688,-0.054,-0.703,-2.688,+1.250,+3.312,1, 14, 8, 4, 4, 1, 0, -4
1503600525715,+0.048,+0.051,-0.357,-0.932,+0.685,-0.043,-0.705,-2.500,+1.750,+1.812,-7, -16, -12, -2, -3, 5, 1, 2
1503600525737,+0.047,+0.051,-0.358,-0.931,+0.695,-0.052,-0.695,-1.688,+4.375,+1.812,9, 7, 0, 1, 1, 1, 0, -5
1503600525753,+0.047,+0.051,-0.358,-0.931,+0.698,-0.060,-0.693,-1.312,+2.000,+1.125,3, 0, -7, -11, -11, -5, -1, 3
1503600525774,+0.047,+0.051,-0.359,-0.931,+0.694,-0.054,-0.703,-1.500,+4.625,+0.312,2, -6, 4, -6, -6, -10, -1, -12
1503600525797,+0.047,+0.051,-0.360,-0.931,+0.694,-0.055,-0.688,-1.625,+3.188,-0.312,-5, -3, -6, -6, -11, -10, -4, 3
1503600525813,+0.047,+0.051,-0.360,-0.930,+0.689,-0.062,-0.698,-2.000,+3.875,-0.125,-15, -22, -6, -2, 1, 0, -2, -2
1503600525842,+0.047,+0.050,-0.361,-0.930,+0.706,-0.053,-0.684,-2.812,+4.062,-1.312,2, -3, -3, 8, 3, 3, 1, -7
1503600525858,+0.047,+0.050,-0.362,-0.930,+0.709,-0.059,-0.688,-4.188,+2.625,-1.000,-1, 0, 4, 0, 6, 12, 1, -6
1503600525873,+0.047,+0.049,-0.363,-0.930,+0.727,-0.039,-0.693,-4.500,+4.875,-0.812,-5, 11, 7, 1, 0, -5, -5, -8
1503600525895,+0.047,+0.049,-0.363,-0.929,+0.724,-0.035,-0.681,-3.000,+2.250,-0.875,-3, 7, -4, -10, -10, -34, -1, 4
1503600525917,+0.047,+0.049,-0.363,-0.929,+0.697,-0.061,-0.693,-2.625,+1.688,-0.688,2, 0, -1, 2, -1, 0, -1, 9
1503600525933,+0.048,+0.048,-0.363,-0.929,+0.683,-0.048,-0.686,-3.438,+0.625,-2.125,-3, -13, 2, 2, 5, 8, 3, -6
1503600525954,+0.048,+0.048,-0.364,-0.929,+0.698,-0.040,-0.697,-3.438,+1.562,+0.062,0, 13, 4, 1, -5, -4, -3, 17
1503600525977,+0.048,+0.047,-0.364,-0.929,+0.716,-0.046,-0.691,-2.562,+3.812,-0.438,0, -4, 0, 9, 3, 5, -1, 7
1503600525994,+0.048,+0.047,-0.365,-0.928,+0.744,-0.048,-0.687,-1.562,+4.312,-1.250,-1, -8, -9, -4, 15, 27, -10, -6
1503600526014,+0.048,+0.047,-0.366,-0.928,+0.722,-0.044,-0.695,-1.062,+5.375,-1.062,7, 12, 15, 5, 5, 7, 4, -7
1503600526037,+0.049,+0.047,-0.367,-0.928,+0.695,-0.043,-0.701,+0.438,+7.562,-1.500,-5, 8, -4, -4, -6, -6, -1, -1
1503600526053,+0.048,+0.049,-0.368,-0.927,+0.684,-0.095,-0.697,+3.875,+9.062,+5.875,6, -7, -6, -4, 2, 4, 6, 8
1503600526075,+0.048,+0.049,-0.370,-0.926,+0.694,-0.047,-0.688,-2.250,+14.062,-0.562,-7, -12, 0, 1, 2, 1, 1, -7
1503600526101,+0.048,+0.049,-0.373,-0.926,+0.740,-0.055,-0.680,-2.062,+12.250,-1.312,25, 21, 14, 4, 0, -1, 4, 7
1503600526113,+0.048,+0.049,-0.376,-0.924,+0.761,-0.061,-0.672,-1.250,+17.250,-1.938,16, -5, -13, -8, -6, -11, -4, 0
1503600526136,+0.048,+0.049,-0.379,-0.923,+0.756,-0.066,-0.665,-0.250,+20.250,-2.812,-13, -8, -4, -2, -2, -1, -3, 2
1503600526157,+0.048,+0.050,-0.383,-0.921,+0.725,-0.052,-0.663,-1.250,+27.312,-1.250,-7, -8, -7, -6, 0, 4, 3, 0
1503600526173,+0.049,+0.050,-0.387,-0.919,+0.725,-0.040,-0.655,-1.000,+26.438,-1.750,-11, 11, 9, -1, -2, -3, 4, 0
1503600526196,+0.048,+0.050,-0.391,-0.918,+0.752,-0.051,-0.664,-1.625,+26.125,+0.375,-9, 3, -6, -6, 1, 2, -4, -18
1503600526217,+0.048,+0.050,-0.395,-0.916,+0.767,-0.048,-0.640,-4.312,+21.938,+2.812,-4, -2, 2, 3, -4, -2, -1, -1
1503600526233,+0.047,+0.049,-0.398,-0.915,+0.760,-0.026,-0.627,-3.625,+21.500,+1.875,-11, -5, -5, -1, -1, 1, 1, 0
1503600526255,+0.047,+0.049,-0.402,-0.913,+0.760,-0.032,-0.633,-0.438,+19.500,-1.562,13, 8, 3, 4, 2, -2, -2, -6
1503600526277,+0.048,+0.050,-0.405,-0.912,+0.776,-0.046,-0.622,+2.375,+21.688,-1.938,-10, -10, -5, -1, -4, -6, -5, 7
1503600526296,+0.048,+0.050,-0.408,-0.910,+0.724,-0.050,-0.619,+1.438,+23.375,-3.562,-5, -10, 5, 0, -6, -20, 1, 4
1503600526315,+0.050,+0.051,-0.414,-0.907,+0.816,-0.035,-0.617,+4.750,+36.312,-8.000,-18, -13, -8, -5, -1, 4, -1, 3
1503600526339,+0.050,+0.052,-0.421,-0.904,+0.756,-0.045,-0.604,+3.812,+46.562,-3.562,9, 17, 0, 0, 3, 7, -2, 1
1503600526353,+0.052,+0.052,-0.428,-0.901,+0.841,-0.015,-0.587,+5.125,+44.938,-11.250,3, 8, 5, 5, -1, -2, 0, -9
1503600526375,+0.055,+0.052,-0.434,-0.898,+0.811,-0.021,-0.589,+7.812,+34.562,-12.625,3, -10, -4, -4, -3, 11, -7, 2
1503600526397,+0.058,+0.054,-0.440,-0.895,+0.819,-0.043,-0.537,+10.812,+36.688,-13.688,24, 5, 9, 4, 4, 7, 6, 0
1503600526413,+0.061,+0.055,-0.446,-0.892,+0.839,-0.027,-0.543,+11.438,+37.688,-15.688,3, 0, -3, -1, -4, -2, -1, 9
1503600526435,+0.064,+0.056,-0.451,-0.889,+0.783,-0.040,-0.529,+13.812,+36.125,-16.438,-26, -15, -5, -2, -3, -5, -8, 0
1503600526465,+0.068,+0.057,-0.456,-0.885,+0.840,-0.028,-0.497,+11.750,+32.750,-20.312,-6, -13, -7, -4, -3, -6, -13, -13
1503600526473,+0.071,+0.058,-0.461,-0.883,+0.862,-0.043,-0.482,+10.938,+29.375,-16.875,11, 12, 4, -2, -2, -5, -3, 6
1503600526498,+0.075,+0.059,-0.466,-0.880,+0.884,-0.052,-0.484,+12.062,+30.812,-18.438,0, -3, 3, -2, 5, 8, 5, -13
1503600526517,+0.078,+0.060,-0.470,-0.877,+0.861,-0.025,-0.497,+12.375,+23.812,-20.312,11, 18, -5, 1, -1, 2, 0, -16
1503600526534,+0.083,+0.060,-0.473,-0.875,+0.870,-0.010,-0.505,+12.938,+20.375,-20.438,7, -12, -1, -2, -5, 1, 1, 6
1503600526555,+0.087,+0.061,-0.476,-0.873,+0.880,-0.020,-0.490,+13.875,+16.688,-20.625,-4, 7, -1, 1, 2, 5, 2, -1
1503600526577,+0.091,+0.062,-0.478,-0.872,+0.877,-0.018,-0.496,+14.188,+12.688,-17.750,9, -6, 1, 2, 3, 11, 3, 7
1503600526593,+0.094,+0.064,-0.480,-0.870,+0.879,+0.003,-0.495,+16.875,+15.750,-15.938,24, -2, -1, -5, -1, 8, 11, -7
1503600526615,+0.098,+0.065,-0.482,-0.868,+0.865,-0.013,-0.502,+18.000,+17.438,-14.250,-25, 5, 3, 0, -6, -13, -3, 0
1503600526637,+0.101,+0.068,-0.484,-0.866,+0.870,-0.014,-0.506,+16.688,+17.938,-10.500,-25, -11, -4, -2, -1, -8, -4, -2
1503600534564,+0.139,+0.110,-0.431,-0.885,+0.775,-0.051,-0.584,-3.625,-15.625,+9.750,-4, -12, -8, -13, -6, -3, -3, 2
1503600534589,+0.137,+0.110,-0.429,-0.886,+0.784,-0.054,-0.564,-2.688,-12.250,+13.000,2, -4, 1, -3, 2, 2, 3, -3
1503600534609,+0.135,+0.111,-0.427,-0.887,+0.819,-0.083,-0.579,-1.000,-8.938,+14.812,2, -5, -4, -1, -1, -6, -1, -5
1503600534617,+0.133,+0.112,-0.425,-0.888,+0.813,-0.091,-0.573,-1.000,-9.500,+12.625,6, 35, 10, 0, -1, 0, -2, -1
1503600534640,+0.132,+0.113,-0.424,-0.889,+0.812,-0.090,-0.579,+0.000,-6.312,+11.062,-4, -13, -1, 1, -2, -3, 4, 8
1503600534663,+0.131,+0.114,-0.422,-0.890,+0.762,-0.089,-0.606,+0.812,-6.688,+8.625,-6, -11, -2, 1, -3, 4, -6, -15
1503600534677,+0.130,+0.114,-0.421,-0.890,+0.695,-0.117,-0.598,-0.500,-0.625,+3.938,3, -13, -9, -2, -1, 0, 2, 0
1503600534699,+0.130,+0.114,-0.421,-0.890,+0.716,-0.120,-0.600,-3.062,+4.812,-0.875,-8, -8, -5, -2, 2, 5, -2, -6
1503600534722,+0.130,+0.113,-0.422,-0.890,+0.768,-0.098,-0.576,-5.062,+5.812,-5.000,-4, -7, -4, -3, -1, 1, -1, 13
1503600534738,+0.131,+0.112,-0.423,-0.889,+0.804,-0.085,-0.586,-5.312,+8.000,-7.375,-2, -29, -11, -4, -1, 1, 0, 2
1503600534759,+0.132,+0.111,-0.425,-0.889,+0.803,-0.059,-0.575,-4.312,+7.375,-9.812,-6, -22, -8, -11, -5, 2, 0, -1
1503600534782,+0.134,+0.111,-0.427,-0.888,+0.821,-0.064,-0.563,-1.625,+11.062,-9.500,-3, -2, -1, 0, 0, -3, 2, -3
1503600534798,+0.135,+0.110,-0.429,-0.886,+0.864,-0.071,-0.551,-0.812,+11.125,-6.688,-4, -2, -2, 2, -2, -7, -8, -1
1503600534822,+0.136,+0.110,-0.431,-0.886,+0.850,-0.054,-0.564,-0.250,+6.938,-7.500,2, -16, 0, -1, 1, 4, 3, -4
1503600534841,+0.137,+0.110,-0.431,-0.885,+0.789,-0.063,-0.563,+1.812,+5.062,-7.312,-4, 2, -4, -1, 1, 2, 4, 4
1503600534858,+0.138,+0.110,-0.432,-0.884,+0.783,-0.070,-0.564,+1.438,+9.375,-6.375,2, -11, -5, -3, -1, -2, 1, -5
1503600534879,+0.139,+0.110,-0.434,-0.883,+0.866,-0.049,-0.544,+1.625,+9.000,-4.812,0, 8, 2, 0, -1, -2, 2, 2
1503600534902,+0.140,+0.111,-0.435,-0.882,+0.856,-0.069,-0.535,+4.625,+5.438,-5.188,5, 26, 6, 2, 3, 1, -1, 2
1503600534917,+0.142,+0.111,-0.436,-0.882,+0.826,-0.065,-0.538,+4.812,+1.500,-6.812,0, 21, 5, 3, -2, 0, -3, -6
1503600534939,+0.143,+0.111,-0.436,-0.882,+0.845,-0.059,-0.538,+2.062,-0.812,-2.312,-2, -6, -4, -1, 0, 1, 1, 7
1503600534962,+0.143,+0.111,-0.436,-0.882,+0.857,-0.054,-0.551,-0.750,-3.312,+1.438,1, -2, 2, 2, 0, 1, -7, -4
1503600534977,+0.143,+0.111,-0.435,-0.882,+0.841,-0.051,-0.528,-0.688,-6.250,+2.188,-2, 14, 1, -2, -2, -3, 4, -4
1503600535000,+0.142,+0.111,-0.434,-0.883,+0.857,-0.064,-0.535,-3.188,-10.812,+6.250,-3, -14, -4, -3, -3, -4, 3, 0
1503600535023,+0.141,+0.111,-0.432,-0.884,+0.811,-0.066,-0.548,-3.188,-15.188,+5.938,2, -13, -2, -4, -1, 0, -4, -10
1503600535038,+0.141,+0.111,-0.429,-0.885,+0.791,-0.075,-0.548,-3.250,-15.938,+4.438,-1, -12, -2, -9, -2, 3, 3, 1
1503600535059,+0.139,+0.110,-0.427,-0.887,+0.836,-0.072,-0.559,-7.375,-16.312,+7.875,1, 0, 2, -1, 0, 2, -10, 2
1503600535081,+0.138,+0.109,-0.424,-0.888,+0.837,-0.070,-0.582,-6.438,-18.250,+8.125,-1, 14, 3, 0, -1, 1, 0, -3
1503600535099,+0.137,+0.109,-0.421,-0.890,+0.778,-0.068,-0.585,-5.000,-18.750,+6.562,-1, 0, -3, -3, -3, -3, 0, -3
1503600535119,+0.136,+0.108,-0.419,-0.891,+0.760,-0.073,-0.603,-4.938,-14.875,+8.312,7, 7, -6, -4, -1, -1, -3, 7
1503600535142,+0.135,+0.108,-0.416,-0.893,+0.739,-0.077,-0.612,-3.812,-12.500,+6.562,-6, -8, -5, -2, -3, 1, 3, 2
1503600535173,+0.134,+0.108,-0.415,-0.894,+0.776,-0.078,-0.607,-4.625,-7.562,+5.125,-6, 17, 5, 2, 2, 1, 2, -6
1503600535179,+0.134,+0.107,-0.414,-0.894,+0.777,-0.052,-0.640,-1.938,-3.875,+4.562,-13, -13, -8, -5, -3, 0, -2, -3
1503600535201,+0.134,+0.108,-0.413,-0.894,+0.719,-0.083,-0.608,+0.375,+0.062,+1.312,1, -12, 1, 1, 1, -4, -1, -1
1503600535230,+0.133,+0.108,-0.413,-0.894,+0.698,-0.097,-0.617,-0.375,+7.500,+1.812,-6, -4, -2, -7, -1, -3, -2, 1
1503600535239,+0.134,+0.108,-0.415,-0.894,+0.764,-0.095,-0.594,-0.625,+10.312,-2.188,-4, -10, -2, -2, 1, -4, 1, 7
1503600535267,+0.134,+0.108,-0.416,-0.893,+0.793,-0.089,-0.585,-2.688,+11.812,-3.062,-4, 4, -2, 0, -3, 0, -2, 1
1503600535284,+0.134,+0.108,-0.419,-0.892,+0.836,-0.062,-0.561,-1.875,+12.062,-3.750,4, 9, -1, -1, -2, -6, -5, -6
1503600535300,+0.135,+0.108,-0.421,-0.891,+0.870,-0.079,-0.554,-0.125,+6.688,-2.375,7, 29, 14, -3, 1, -1, 0, 0
1503600535321,+0.135,+0.108,-0.422,-0.890,+0.846,-0.069,-0.559,-0.750,+3.062,-2.312,-3, -6, -4, 1, -2, 0, 3, -1
1503600535344,+0.135,+0.108,-0.422,-0.890,+0.815,-0.074,-0.551,-0.938,+0.875,-3.125,-2, -9, -2, 1, 2, 2, 0, 0
1503600535361,+0.136,+0.108,-0.422,-0.890,+0.784,-0.067,-0.579,-1.938,-1.688,-1.438,-2, -9, -5, 1, -2, -25, -6, 5
1503600535382,+0.136,+0.108,-0.422,-0.890,+0.785,-0.070,-0.574,-1.188,-0.688,-1.875,7, 16, 14, 6, 0, 4, -2, 0
1503600535404,+0.137,+0.108,-0.421,-0.890,+0.810,-0.072,-0.573,-1.625,-4.562,-1.688,-15, -14, -5, 0, -2, 1, -1, -4
1503600535421,+0.137,+0.107,-0.421,-0.890,+0.834,-0.062,-0.573,-0.812,-6.312,-2.688,2, -4, -2, 0, 0, 7, 2, 0
1503600535441,+0.138,+0.107,-0.419,-0.891,+0.844,-0.071,-0.561,-1.000,-10.875,-1.938,-1, -6, -5, -5, -2, -1, -1, -3
1503600535464,+0.138,+0.107,-0.418,-0.892,+0.814,-0.082,-0.583,-2.312,-12.750,-1.312,-2, 10, 9, 1, 2, 7, -1, 3
1503600535481,+0.139,+0.106,-0.416,-0.893,+0.802,-0.059,-0.604,-2.938,-14.562,-2.188,-7, -17, -9, -1, -2, 1, 1, -15
1503600535503,+0.139,+0.105,-0.414,-0.894,+0.793,-0.060,-0.590,-3.688,-13.125,+0.625,2, -11, -5, -5, -1, -1, -1, 2
1503600535526,+0.138,+0.104,-0.412,-0.895,+0.796,-0.051,-0.612,-3.438,-12.625,+3.938,-4, -7, -3, 0, 1, 2, 1, 0
1503600535540,+0.137,+0.105,-0.410,-0.896,+0.771,-0.086,-0.617,+0.938,-9.688,+9.875,-1, 10, -2, 0, -2, -3, 0, 2
1503600535566,+0.136,+0.106,-0.408,-0.896,+0.727,-0.061,-0.613,-0.875,-4.812,+10.625,-2, 2, -4, -4, -1, -3, 0, 1
1503600535584,+0.134,+0.106,-0.408,-0.897,+0.737,-0.089,-0.610,-0.500,-1.562,+9.625,-18, -11, -5, -3, -4, -1, -1, 0
1503600535600,+0.133,+0.107,-0.407,-0.897,+0.761,-0.090,-0.605,-2.688,-4.312,+6.250,-1, 22, 4, -1, -1, 2, -3, 0
1503600535622,+0.133,+0.106,-0.406,-0.898,+0.771,-0.091,-0.583,-4.562,-3.625,+2.500,-6, -4, -2, -2, 0, 3, -9, -4
1503600535644,+0.133,+0.106,-0.406,-0.898,+0.795,-0.103,-0.579,-7.438,-7.500,-1.000,0, 10, 2, 0, -3, -5, -1, 3
1503600535662,+0.133,+0.104,-0.405,-0.899,+0.843,-0.067,-0.596,-7.875,-12.000,-2.125,-4, 8, -1, -1, 0, -1, 2, 1
1503600535681,+0.134,+0.102,-0.403,-0.900,+0.792,-0.042,-0.610,-6.312,-16.500,-4.688,-2, 11, 6, 3, 2, 0, -2, -5
1503600535704,+0.134,+0.101,-0.400,-0.901,+0.744,-0.071,-0.619,-6.750,-15.812,-1.625,-8, 5, -4, -4, 0, 4, -2, 1
1503600535720,+0.134,+0.100,-0.398,-0.902,+0.757,-0.087,-0.621,-7.312,-13.125,+1.312,5, -6, -3, 3, 1, -1, 1, -8
1503600535741,+0.133,+0.099,-0.397,-0.903,+0.784,-0.058,-0.632,-7.938,-10.562,+3.312,9, 6, -1, 1, 0, -19, -5, 4
1503600535764,+0.132,+0.098,-0.395,-0.904,+0.755,-0.053,-0.628,-6.312,-9.562,+4.688,3, -6, -2, -4, -1, 6, 0, 4
1503600535780,+0.131,+0.097,-0.394,-0.904,+0.745,-0.067,-0.642,-6.562,-5.188,+6.500,10, 1, 1, 1, 0, -4, 6, 0
1503600535802,+0.129,+0.097,-0.393,-0.905,+0.733,-0.064,-0.643,-6.188,-2.625,+8.938,-1, -11, -7, -3, 0, -1, -3, 0
1503600535824,+0.128,+0.096,-0.393,-0.905,+0.756,-0.054,-0.628,-6.875,-1.688,+7.000,-6, -2, 4, 2, -3, -8, -8, -2
1503600535840,+0.127,+0.096,-0.393,-0.906,+0.766,-0.063,-0.628,-4.875,-4.188,+9.188,12, 0, -3, -4, 1, -13, 2, 1
1503600535864,+0.126,+0.096,-0.392,-0.906,+0.752,-0.069,-0.625,-4.062,-3.500,+6.188,7, 13, 7, -8, -8, -7, -3, 2
1503600535884,+0.125,+0.096,-0.392,-0.907,+0.765,-0.075,-0.645,-4.062,-3.500,+5.438,-9, 4, 2, 2, 7, 4, -1, -7
1503600535900,+0.124,+0.095,-0.390,-0.907,+0.706,-0.056,-0.663,-4.125,-4.875,+1.750,4, -8, -6, -2, -5, -2, 8, 6
1503600535921,+0.124,+0.095,-0.390,-0.908,+0.683,-0.071,-0.665,-2.688,+0.625,+0.312,8, -2, -1, 2, 1, 11, -3, -2
1503600535944,+0.124,+0.095,-0.390,-0.907,+0.740,-0.097,-0.654,-3.438,+6.188,+0.062,-3, -2, 1, 3, 2, -1, 2, 0
1503600535960,+0.124,+0.095,-0.392,-0.907,+0.772,-0.087,-0.641,-4.375,+9.250,-2.688,-29, -25, -4, 3, 0, -1, -3, -6
1503600535981,+0.124,+0.094,-0.394,-0.906,+0.761,-0.062,-0.638,-3.875,+11.688,-4.625,-2, 0, -4, -2, -1, 2, -2, 9
1503600536005,+0.125,+0.094,-0.396,-0.905,+0.742,-0.072,-0.634,-4.125,+13.312,-4.750,3, 21, 9, -4, -2, -2, -1, -1
1503600536020,+0.125,+0.093,-0.399,-0.904,+0.762,-0.076,-0.622,-5.000,+17.438,-5.438,-14, 10, 1, -4, -3, -1, -2, 3
1503600536042,+0.125,+0.093,-0.402,-0.902,+0.805,-0.056,-0.608,-5.875,+19.125,-5.625,34, -17, -2, 0, 0, 3, 7, 9
1503600536064,+0.126,+0.092,-0.405,-0.901,+0.818,-0.038,-0.612,-6.188,+17.312,-5.625,-3, 1, -2, -1, -3, -5, -4, -4
1503600536080,+0.126,+0.091,-0.409,-0.899,+0.783,-0.041,-0.598,-4.438,+18.875,-5.375,13, 8, 1, -1, -2, 2, 0, -5
1503600536102,+0.127,+0.091,-0.412,-0.898,+0.807,-0.049,-0.577,-2.812,+18.625,-4.625,6, -3, 1, 7, -1, -11, 2, 7
1503600536124,+0.127,+0.091,-0.415,-0.896,+0.821,-0.055,-0.571,-4.000,+17.375,-3.562,-20, -10, -6, -5, 0, 5, -4, -12
1503600536140,+0.127,+0.090,-0.418,-0.895,+0.837,-0.045,-0.572,-4.000,+12.688,-3.062,-11, 9, 4, -3, 1, 0, -1, -10
1503600536162,+0.126,+0.090,-0.420,-0.894,+0.781,-0.057,-0.602,-3.750,+18.438,+1.812,-20, 10, 2, -3, -2, 3, -4, -9
1503600536184,+0.125,+0.091,-0.424,-0.892,+0.775,-0.046,-0.605,-2.562,+29.188,+2.688,-3, 8, 0, -3, -2, -6, 3, 1
1503600536200,+0.124,+0.092,-0.432,-0.889,+0.823,-0.052,-0.577,-1.500,+47.688,+3.938,-15, -3, 3, 1, -3, -10, -5, -30
1503600536221,+0.122,+0.093,-0.439,-0.886,+0.863,-0.044,-0.565,-3.562,+44.438,+8.125,6, 7, 0, -8, -3, -7, 6, 8
1503600536244,+0.120,+0.094,-0.446,-0.882,+0.905,-0.036,-0.586,-2.562,+46.812,+6.500,-11, 2, -4, -1, -5, -17, -1, 0
1503600536260,+0.119,+0.095,-0.452,-0.879,+0.845,-0.016,-0.567,-0.188,+46.500,+5.125,3, 3, -1, -1, 2, 8, 2, 6
1503600536282,+0.118,+0.097,-0.461,-0.874,+0.893,-0.029,-0.520,+4.250,+55.750,+5.750,-23, -21, -3, 3, 5, 4, -7, -11
1503600536304,+0.117,+0.100,-0.469,-0.870,+0.857,-0.064,-0.498,+6.625,+60.000,+7.125,-10, -4, -5, -2, -1, -1, 3, 6
1503600536320,+0.114,+0.102,-0.473,-0.868,+0.901,-0.130,-0.593,-1.625,+33.312,+13.625,5, 32, 10, 1, -1, -2, 2, 0
1503600536342,+0.113,+0.103,-0.476,-0.866,+0.972,-0.087,-0.460,-2.688,+15.750,+5.750,15, -11, -5, -2, 2, -3, -6, -9
1503600536367,+0.112,+0.104,-0.478,-0.865,+0.931,-0.090,-0.430,+0.188,+6.188,+0.625,7, -2, -1, 3, 0, 15, -2, -7
1503600536386,+0.113,+0.104,-0.478,-0.865,+0.843,-0.101,-0.452,+0.750,+1.562,-2.875,31, 19, 5, -1, 4, -12, 3, 4
1503600536403,+0.113,+0.104,-0.478,-0.865,+0.770,-0.073,-0.462,-2.812,+1.500,-4.250,-32, -39, -5, -1, -8, -3, -7, 0
1503600543872,+0.101,+0.125,-0.504,-0.849,+0.850,-0.120,-0.402,-8.625,+3.812,-4.812,1, -4, -3, -2, -6, -3, -1, -3
1503600543888,+0.100,+0.124,-0.508,-0.847,+0.912,-0.146,-0.384,-10.000,+19.688,-5.750,-6, -4, -1, -2, -1, -3, -1, 2
1503600543910,+0.100,+0.123,-0.510,-0.845,+1.003,-0.097,-0.428,-8.125,+16.812,-3.875,4, 31, 12, 3, 1, 0, 1, -4
1503600543932,+0.101,+0.122,-0.511,-0.845,+0.941,-0.094,-0.458,-0.812,+7.000,-7.125,1, -13, -2, 0, 2, 0, -1, 4
1503600543948,+0.103,+0.122,-0.510,-0.846,+0.929,-0.134,-0.418,+1.500,-12.688,-11.625,-1, 7, 1, -4, 0, 2, -1, -4
1503600543970,+0.104,+0.121,-0.508,-0.846,+0.900,-0.147,-0.402,-2.812,-12.688,-8.062,-5, -8, 0, 0, -2, 0, -4, 0
1503600543985,+0.104,+0.120,-0.508,-0.847,+0.883,-0.142,-0.434,-5.250,+0.125,-4.125,3, -5, 0, 1, 1, 0, -2, -2
1503600544010,+0.104,+0.120,-0.509,-0.846,+0.884,-0.124,-0.436,-4.375,+8.125,-3.125,6, 22, 8, 0, 1, 3, 3, 3
1503600544030,+0.104,+0.120,-0.509,-0.846,+0.944,-0.128,-0.389,-2.562,-1.312,-3.625,-4, -10, -4, -3, -3, -3, 1, -1
1503600544048,+0.104,+0.119,-0.509,-0.846,+0.945,-0.122,-0.386,-4.625,-2.188,-3.125,0, -8, -3, -1, 0, 0, -3, -3
1503600544067,+0.104,+0.118,-0.510,-0.846,+0.899,-0.100,-0.405,-6.438,+4.000,-5.062,5, -3, -6, -3, -5, -3, 2, 2
1503600544089,+0.104,+0.117,-0.511,-0.845,+0.910,-0.065,-0.413,-6.375,+6.438,-2.875,1, -15, -6, -4, -3, -4, -7, 0
1503600544113,+0.105,+0.117,-0.513,-0.844,+0.901,-0.066,-0.382,-3.750,+9.125,-1.812,-8, -8, -2, -1, 2, -3, -2, -2
1503600544126,+0.106,+0.116,-0.514,-0.843,+0.907,-0.070,-0.417,+0.000,+11.312,-8.375,-6, -3, -1, 0, -3, 1, 1, -2
1503600544153,+0.108,+0.115,-0.515,-0.842,+0.888,-0.053,-0.414,+3.188,+7.188,-15.062,1, 19, 3, 0, -1, 0, 0, -1
1503600544171,+0.111,+0.115,-0.516,-0.841,+0.879,-0.062,-0.401,+3.500,+7.812,-15.188,0, -12, -8, 0, 3, -3, -3, 0
1503600544186,+0.113,+0.114,-0.518,-0.840,+0.866,-0.053,-0.384,+3.562,+11.125,-11.625,-3, -4, -1, -2, -4, -3, 0, -1
1503600544218,+0.114,+0.114,-0.519,-0.839,+0.911,-0.043,-0.404,+4.312,+8.312,-6.188,3, 1, -1, 1, 1, 3, 1, 1
1503600544231,+0.115,+0.115,-0.520,-0.839,+0.939,-0.044,-0.368,+3.062,+3.250,-1.438,1, -2, 1, 1, -1, 1, 1, 0
1503600544247,+0.116,+0.115,-0.519,-0.839,+0.949,-0.062,-0.377,+2.875,-4.875,+0.125,-3, 0, 3, 0, -2, -4, -3, 0
1503600544269,+0.116,+0.115,-0.518,-0.840,+0.929,-0.066,-0.354,-0.125,-12.750,+1.000,2, 3, -3, 0, -2, -1, -2, 1
1503600544291,+0.116,+0.115,-0.516,-0.841,+0.910,-0.060,-0.365,-1.875,-15.500,+1.312,2, -3, -1, 1, 0, -1, 2, -1
1503600544306,+0.116,+0.114,-0.514,-0.842,+0.888,-0.058,-0.378,-3.438,-16.875,+2.188,-5, 5, 3, -1, 0, 2, 0, -3
1503600544329,+0.116,+0.114,-0.512,-0.844,+0.877,-0.061,-0.383,-6.438,-14.938,+2.562,2, -4, -2, 3, 0, -2, 2, 2
1503600544352,+0.115,+0.112,-0.510,-0.845,+0.890,-0.058,-0.393,-7.750,-11.000,+1.750,-12, -4, -2, -3, -2, -1, 2, -1
1503600544366,+0.115,+0.111,-0.509,-0.846,+0.913,-0.043,-0.404,-7.062,-8.750,+1.062,1, -1, -3, -3, 0, 0, -4, -2
1503600544389,+0.115,+0.110,-0.508,-0.847,+0.908,-0.058,-0.406,-6.312,-10.500,+0.938,-3, 1, 2, 1, 0, -1, -3, -2
1503600544413,+0.115,+0.109,-0.507,-0.847,+0.906,-0.070,-0.422,-6.375,-8.938,-2.125,-3, -3, 1, 5, -1, -4, -1, -3
1503600544434,+0.115,+0.108,-0.506,-0.848,+0.871,-0.060,-0.440,-6.000,-6.312,-5.562,3, -2, 0, -1, -1, -3, 0, 1
1503600544449,+0.116,+0.106,-0.505,-0.849,+0.881,-0.070,-0.426,-7.062,-4.125,-7.375,0, -6, -2, 0, -5, -3, -2, -5
1503600544471,+0.115,+0.106,-0.505,-0.849,+0.888,-0.082,-0.483,-6.188,-0.875,-0.312,3, 3, -1, 1, -1, -2, -2, -1
1503600544486,+0.115,+0.105,-0.505,-0.849,+0.928,-0.066,-0.425,-4.250,+2.188,-2.062,6, -1, -5, 1, -2, 0, 1, 0
1503600544509,+0.116,+0.105,-0.506,-0.848,+0.965,-0.075,-0.412,-3.750,+3.812,-4.438,-1, -8, 1, 2, 2, 4, 1, 0
1503600544531,+0.116,+0.105,-0.506,-0.848,+0.967,-0.090,-0.436,-0.062,-0.500,-2.812,-16, -6, -3, -2, 1, 1, 0, -5
1503600544547,+0.116,+0.105,-0.507,-0.848,+0.915,-0.100,-0.417,-0.250,+2.875,-3.438,-10, -9, -2, 6, -2, 2, 4, 0
1503600544569,+0.117,+0.105,-0.507,-0.848,+0.889,-0.095,-0.438,-4.062,+1.000,-7.625,3, 13, 4, -1, 0, -2, 0, 1
1503600544591,+0.118,+0.104,-0.508,-0.847,+0.927,-0.061,-0.409,-3.312,+4.188,-7.438,4, -18, -9, -4, -3, -3, 0, -1
1503600544606,+0.118,+0.103,-0.508,-0.847,+0.938,-0.073,-0.404,-5.438,+1.875,-7.062,-11, -13, 0, 1, 0, -1, -2, -3
1503600544629,+0.119,+0.102,-0.509,-0.847,+0.936,-0.059,-0.415,-6.812,-1.500,-6.438,0, 7, 1, -1, -1, 0, 1, -4
1503600544651,+0.119,+0.100,-0.508,-0.847,+0.896,-0.032,-0.379,-9.312,-10.125,-7.125,3, -5, -2, -2, -1, -2, -1, 2
1503600544666,+0.120,+0.097,-0.506,-0.849,+0.899,-0.005,-0.388,-10.562,-17.188,-7.375,0, -11, -4, -3, 1, 2, 4, 1
1503600544689,+0.121,+0.094,-0.504,-0.850,+0.845,+0.003,-0.396,-11.375,-13.688,-6.062,5, -2, -2, -2, 0, 1, -1, -3
1503600544714,+0.120,+0.092,-0.503,-0.851,+0.869,+0.010,-0.398,-13.625,-12.750,-3.375,-1, -2, 0, -8, -3, -2, -2, -4
1503600544726,+0.120,+0.089,-0.502,-0.852,+0.899,+0.031,-0.412,-13.000,-12.688,+1.562,-4, -3, -7, -1, -2, -2, -1, -1
1503600544749,+0.119,+0.087,-0.500,-0.853,+0.891,+0.020,-0.419,-13.438,-13.562,+1.062,-10, -2, 3, 2, 1, 0, 0, 0
1503600544771,+0.119,+0.084,-0.498,-0.855,+0.851,+0.021,-0.432,-11.875,-15.625,-1.500,10, 5, 0, 3, 2, 0, 0, -4
1503600544786,+0.118,+0.082,-0.497,-0.856,+0.838,+0.000,-0.451,-12.125,-10.750,+0.625,15, -6, -3, 2, 0, 2, 3, 2
1503600544809,+0.117,+0.081,-0.496,-0.857,+0.846,-0.005,-0.465,-12.312,-3.000,+3.125,-25, -17, -3, 2, 0, -2, -4, -5
1503600544831,+0.116,+0.079,-0.496,-0.857,+0.866,-0.006,-0.466,-10.938,+1.062,+2.875,0, 14, -1, -4, -2, -1, -2, 3
1503600544854,+0.115,+0.078,-0.496,-0.857,+0.889,-0.018,-0.477,-10.500,+2.188,+2.688,2, -5, -2, -2, -3, -1, 0, -1
1503600544868,+0.114,+0.078,-0.496,-0.857,+0.921,-0.024,-0.493,-6.375,-1.688,+3.375,4, -7, -1, 0, -1, -1, -2, 0
1503600544891,+0.114,+0.077,-0.494,-0.859,+0.922,-0.035,-0.470,-5.438,-15.875,+1.250,0, 4, 3, 2, -1, 2, -1, 0
1503600544907,+0.113,+0.076,-0.490,-0.861,+0.903,-0.021,-0.447,-6.250,-25.312,+2.000,4, 37, 24, 2, 1, -1, 0, -3
1503600544928,+0.113,+0.075,-0.486,-0.863,+0.834,-0.001,-0.467,-4.000,-29.938,+3.000,7, -4, -6, 0, -1, -3, -2, 2
1503600544954,+0.113,+0.074,-0.482,-0.866,+0.786,-0.006,-0.473,-5.625,-22.438,+1.750,-12, -2, 3, 1, 1, -1, 1, -3
1503600544966,+0.112,+0.074,-0.481,-0.866,+0.833,+0.004,-0.465,-4.812,-8.188,+5.312,4, 0, -4, -5, -4, -1, -2, 0
1503600544989,+0.111,+0.074,-0.481,-0.867,+0.885,+0.020,-0.462,-3.625,-3.312,+6.938,14, 1, -4, -4, -2, -1, -3, 2
1503600545011,+0.111,+0.073,-0.481,-0.867,+0.911,+0.016,-0.470,-2.312,-2.688,+5.688,-5, -11, 2, 2, 3, 0, 0, 1
1503600545030,+0.110,+0.074,-0.479,-0.868,+0.919,-0.009,-0.508,+0.250,-14.438,+8.000,3, -10, -9, -1, 0, 10, 1, -4
1503600545049,+0.109,+0.074,-0.478,-0.868,+0.895,+0.009,-0.475,+0.688,-6.438,+6.938,-5, 5, 2, -2, -1, -6, -2, -1
1503600545071,+0.109,+0.075,-0.477,-0.869,+0.912,-0.002,-0.487,+1.688,-6.125,+7.000,-13, -19, -12, -4, 0, 4, 0, -4
1503600545091,+0.108,+0.076,-0.476,-0.869,+0.898,+0.006,-0.494,+1.188,-5.812,+9.188,2, 8, -3, 1, -6, -7, -4, -2
1503600545108,+0.107,+0.077,-0.476,-0.870,+0.866,+0.023,-0.497,+3.062,-5.000,+10.500,-13, -13, 4, 0, 0, -4, 0, 1
1503600545131,+0.106,+0.078,-0.476,-0.870,+0.865,-0.003,-0.492,+4.312,+1.625,+10.250,10, -1, -4, -1, -1, -4, -5, 2
1503600545147,+0.105,+0.079,-0.476,-0.870,+0.868,-0.016,-0.507,+3.938,+4.438,+11.062,16, 3, 0, 0, 1, 2, 4, 5
1503600545169,+0.104,+0.081,-0.476,-0.870,+0.906,-0.020,-0.484,+5.562,-0.875,+13.562,-11, 6, 0, 2, 5, 2, -1, 3
1503600545191,+0.102,+0.083,-0.476,-0.870,+0.898,-0.040,-0.465,+4.250,-1.688,+11.750,-6, 9, 0, -5, -6, -11, 13, 5
1503600545206,+0.101,+0.085,-0.476,-0.870,+0.869,-0.044,-0.477,+4.500,+0.062,+10.750,-3, -12, -5, 0, 3, 10, 1, -2
1503600545229,+0.100,+0.086,-0.476,-0.870,+0.859,-0.038,-0.488,+4.000,+2.312,+10.562,13, -13, -3, -1, 0, 6, 8, 1
1503600545254,+0.099,+0.088,-0.477,-0.869,+0.875,-0.040,-0.485,+3.750,+6.062,+9.562,1, -3, -2, -7, -3, -4, -9, -10
1503600545266,+0.099,+0.089,-0.477,-0.869,+0.879,-0.041,-0.472,+3.875,+4.500,+7.625,4, 13, 1, -2, -3, -4, -6, 2
1503600545291,+0.098,+0.090,-0.478,-0.868,+0.867,-0.046,-0.473,+3.562,+3.562,+7.375,-5, 5, -1, 2, -1, -3, -8, -4
1503600545311,+0.098,+0.091,-0.478,-0.868,+0.870,-0.022,-0.463,+3.812,+4.688,+6.750,-7, -6, -2, -3, 0, 4, -1, -3
1503600545326,+0.097,+0.092,-0.479,-0.867,+0.875,-0.008,-0.451,+3.500,+3.500,+7.250,-6, 2, 1, 5, 0, -9, 2, -10
1503600545350,+0.097,+0.093,-0.480,-0.867,+0.880,-0.004,-0.462,+4.438,+2.375,+7.188,-1, -23, -5, -2, -2, -11, -4, -5
1503600545371,+0.097,+0.094,-0.480,-0.867,+0.871,-0.021,-0.475,+6.438,+0.688,+6.500,4, -4, -2, 0, -1, 2, -6, 0
1503600545387,+0.097,+0.096,-0.479,-0.867,+0.870,-0.050,-0.468,+6.875,-1.500,+6.875,-9, -13, -9, 0, 0, 3, -2, -5
1503600545408,+0.096,+0.098,-0.479,-0.867,+0.855,-0.077,-0.472,+6.062,-0.312,+9.250,2, 0, 2, 0, 0, -2, -12, -1
1503600545431,+0.095,+0.100,-0.479,-0.867,+0.873,-0.085,-0.478,+5.250,-0.750,+11.562,10, 7, -3, -3, 0, 5, 5, -3
1503600545446,+0.094,+0.101,-0.478,-0.867,+0.883,-0.089,-0.468,+4.375,-2.125,+11.000,8, 19, 10, 2, -1, -9, -2, -5
1503600545468,+0.093,+0.103,-0.477,-0.868,+0.865,-0.096,-0.446,+4.125,-4.812,+11.188,2, -24, -7, -6, -3, 5, 4, 14
1503600545492,+0.091,+0.105,-0.476,-0.868,+0.852,-0.108,-0.467,+2.688,-6.875,+11.938,16, 4, -4, -2, -1, -2, 4, 1
1503600545506,+0.090,+0.106,-0.475,-0.869,+0.845,-0.104,-0.475,+1.688,-6.188,+11.250,-10, -16, -9, 1, 9, -19, 6, 0
1503600545529,+0.089,+0.108,-0.474,-0.869,+0.852,-0.119,-0.472,+2.375,-2.438,+9.250,8, 9, 0, 0, -9, -23, -11, -18
1503600545552,+0.088,+0.109,-0.474,-0.869,+0.855,-0.129,-0.472,+2.812,-0.812,+7.250,6, 19, 1, 0, 2, 18, 6, 2
1503600545566,+0.087,+0.110,-0.474,-0.869,+0.861,-0.131,-0.496,+3.375,-0.125,+6.750,-18, -1, -5, -1, 2, 9, -2, -6
1503600545589,+0.087,+0.112,-0.473,-0.869,+0.859,-0.158,-0.475,+2.625,-0.938,+4.875,3, -1, -1, 1, -4, -10, 13, 6
1503600545611,+0.086,+0.113,-0.473,-0.869,+0.851,-0.167,-0.473,+0.875,+1.562,+3.625,-9, 2, 4, -3, 6, -1, -1, 1
1503600545628,+0.085,+0.114,-0.474,-0.869,+0.836,-0.193,-0.485,-0.500,+5.000,+2.000,-30, -3, 0, -4, -10, -15, -6, -1
1503600545652,+0.085,+0.115,-0.475,-0.869,+0.840,-0.191,-0.491,-2.625,+8.125,-1.125,-8, -17, -8, -3, 0, 4, 2, -3
1503600545671,+0.085,+0.115,-0.476,-0.868,+0.863,-0.183,-0.479,-4.500,+9.250,-3.750,18, -10, -4, -1, 5, 18, 2, 1
1503600545687,+0.085,+0.114,-0.477,-0.867,+0.864,-0.165,-0.490,-5.250,+6.625,-5.938,17, -22, -8, 2, -5, -6, -1, -6
1503600545708,+0.085,+0.114,-0.478,-0.867,+0.852,-0.186,-0.476,-6.125,+4.188,-6.938,-19, -7, -4, -5, -3, -8, -4, -10
1503600545731,+0.085,+0.113,-0.478,-0.867,+0.830,-0.184,-0.488,-7.062,+5.938,-7.062,25, 0, -6, -3, -4, 6, 0, 2
1503600545747,+0.085,+0.112,-0.479,-0.867,+0.818,-0.142,-0.498,-7.312,+6.500,-7.625,-59, 3, -3, -7, -5, -1, -1, 0
1503600545769,+0.085,+0.111,-0.479,-0.866,+0.821,-0.127,-0.476,-6.938,+5.562,-5.375,37, 30, 10, -1, -4, -4, -8, 2
1503600545791,+0.085,+0.111,-0.481,-0.866,+0.841,-0.134,-0.466,-6.562,+8.688,-3.688,-22, 11, 11, 10, 6, 6, 6, 1
1503600545807,+0.085,+0.110,-0.482,-0.865,+0.855,-0.107,-0.489,-6.312,+6.875,-1.625,18, -4, -5, -4, -5, -6, -21, 5
1503600552534,+0.006,+0.075,-0.416,-0.906,+0.828,-0.100,-0.596,+11.000,+14.250,-2.500,3, 3, -1, -1, -4, -1, -3, 1
1503600552557,+0.007,+0.077,-0.418,-0.905,+0.795,-0.111,-0.602,+12.938,+11.812,-1.375,-2, -5, -3, 2, 7, -2, -1, -1
1503600552573,+0.009,+0.079,-0.420,-0.904,+0.781,-0.131,-0.583,+15.375,+13.500,-3.125,-1, 0, 0, 1, -1, -4, -1, -4
1503600552594,+0.011,+0.081,-0.421,-0.903,+0.791,-0.135,-0.586,+14.312,+4.625,-4.500,-6, -3, -1, -2, -2, -2, 1, -2
1503600552616,+0.012,+0.083,-0.423,-0.902,+0.785,-0.147,-0.597,+13.375,+9.438,-2.250,-6, 2, -1, -2, 0, -1, -2, 2
1503600552632,+0.013,+0.085,-0.425,-0.901,+0.772,-0.144,-0.580,+11.250,+15.000,-1.875,6, 3, 9, 6, 4, 0, -3, 1
1503600552654,+0.015,+0.086,-0.427,-0.900,+0.783,-0.143,-0.578,+9.438,+11.125,-5.750,-7, -3, -4, -4, 0, 5, 2, -7
1503600552676,+0.016,+0.088,-0.429,-0.899,+0.806,-0.162,-0.570,+8.062,+12.688,-7.625,3, 2, -4, -4, -6, -4, 2, 2
1503600552692,+0.018,+0.088,-0.430,-0.898,+0.844,-0.148,-0.563,+6.812,+4.625,-9.938,1, 6, -2, -2, 1, 0, 0, 1
1503600552714,+0.021,+0.089,-0.431,-0.898,+0.817,-0.135,-0.563,+6.312,+5.312,-10.500,1, 19, 11, 2, 0, -2, 2, 0
1503600552736,+0.022,+0.089,-0.433,-0.897,+0.816,-0.133,-0.544,+5.250,+7.688,-7.500,-2, 4, -2, -3, -4, 0, -1, 0
1503600552754,+0.024,+0.089,-0.433,-0.896,+0.815,-0.145,-0.547,+3.188,+2.562,-9.062,-4, -1, -1, -1, -4, 0, -4, -4
1503600552774,+0.025,+0.089,-0.434,-0.896,+0.793,-0.150,-0.544,-0.188,+2.312,-7.875,0, -5, -1, -2, 5, 3, 0, -3
1503600552796,+0.026,+0.088,-0.435,-0.896,+0.835,-0.123,-0.559,-2.000,+3.250,-3.375,11, 16, 2, 0, -3, -3, -1, 0
1503600552812,+0.026,+0.088,-0.435,-0.896,+0.859,-0.119,-0.554,+0.312,-1.000,-3.312,4, -3, 0, 0, -1, -4, -1, 2
1503600552834,+0.027,+0.089,-0.434,-0.896,+0.812,-0.129,-0.561,+2.375,-6.562,-3.000,2, -3, -5, -5, -5, 1, 0, -1
1503600552860,+0.029,+0.088,-0.433,-0.897,+0.727,-0.116,-0.578,+1.312,-5.375,-7.875,4, 0, 1, 0, -10, -6, -5, -3
1503600552872,+0.029,+0.088,-0.433,-0.897,+0.775,-0.136,-0.576,-0.938,+1.750,-4.688,-16, -17, -8, -4, 0, 1, -1, 1
1503600552894,+0.030,+0.087,-0.434,-0.896,+0.804,-0.129,-0.568,-4.375,+5.688,-4.125,17, 10, 2, -1, 4, 0, -6, 0
1503600552916,+0.031,+0.086,-0.435,-0.896,+0.852,-0.089,-0.574,-0.500,+3.938,-5.188,4, 1, 4, 0, -9, -3, -3, 0
1503600552932,+0.032,+0.087,-0.436,-0.895,+0.842,-0.110,-0.545,+4.250,+3.438,-4.500,-9, -2, -3, -2, -1, 1, 2, 0
1503600552956,+0.033,+0.088,-0.436,-0.895,+0.818,-0.137,-0.558,+4.062,+1.688,-3.312,1, -4, 0, 4, 2, 1, 4, -2
1503600552976,+0.034,+0.088,-0.436,-0.895,+0.792,-0.127,-0.544,+1.812,-5.125,-5.562,4, -2, -1, -3, -6, -2, 3, 1
1503600552992,+0.034,+0.088,-0.436,-0.895,+0.805,-0.136,-0.553,-2.062,+0.125,-1.188,-3, 8, 0, -3, 0, 1, 2, 5
1503600553014,+0.034,+0.087,-0.436,-0.895,+0.835,-0.115,-0.544,-4.000,-2.000,-1.438,2, 0, -2, -1, 2, -4, 0, 0
1503600553036,+0.035,+0.086,-0.435,-0.895,+0.855,-0.107,-0.550,-2.812,-6.125,-2.062,3, 2, 1, 0, 0, 0, 0, 2
1503600553055,+0.036,+0.086,-0.434,-0.896,+0.816,-0.110,-0.578,+0.875,-9.375,-1.250,-4, 12, 1, -2, 0, -4, -1, -2
1503600553074,+0.036,+0.086,-0.432,-0.897,+0.749,-0.116,-0.570,+0.312,-12.500,-1.938,0, -5, -1, -4, 2, 0, -2, 0
1503600553097,+0.036,+0.086,-0.431,-0.898,+0.736,-0.147,-0.571,-4.562,-4.188,+1.750,3, -9, -2, 7, 5, 2, 0, -2
1503600553112,+0.035,+0.086,-0.430,-0.898,+0.767,-0.132,-0.606,-6.562,-2.938,-0.438,2, 7, 0, 0, 1, 4, 3, 4
1503600553134,+0.036,+0.084,-0.430,-0.898,+0.808,-0.091,-0.584,-3.938,-2.625,-4.938,2, -2, 1, -3, -3, -3, -1, 0
1503600553157,+0.036,+0.084,-0.429,-0.898,+0.794,-0.107,-0.597,-1.562,+0.812,-1.188,6, -6, 1, 2, -2, 0, -3, 0
1503600553172,+0.037,+0.084,-0.429,-0.898,+0.750,-0.096,-0.591,-0.250,+2.438,-5.062,6, 7, 2, -3, -1, -5, 1, 5
1503600553195,+0.037,+0.084,-0.431,-0.898,+0.803,-0.099,-0.590,+0.812,+8.562,+1.375,1, 0, 2, -2, -1, -2, -3, -2
1503600553216,+0.037,+0.084,-0.432,-0.897,+0.819,-0.094,-0.559,+2.000,+6.562,+2.312,-3, -3, -5, -2, -4, -2, -2, -9
1503600553232,+0.037,+0.085,-0.433,-0.897,+0.823,-0.115,-0.561,+3.188,+4.312,+2.875,-20, -14, -6, -2, -8, -4, -1, -5
1503600553258,+0.037,+0.086,-0.433,-0.896,+0.805,-0.120,-0.562,+2.125,+3.938,+3.188,-7, 4, 1, 0, 3, 2, -6, 0
1503600553276,+0.037,+0.087,-0.434,-0.896,+0.814,-0.113,-0.555,+1.688,+3.500,+3.562,-4, -3, 4, 1, -3, -6, -2, 0
1503600553292,+0.036,+0.087,-0.434,-0.896,+0.830,-0.125,-0.547,+1.000,+0.188,+3.375,3, -8, -2, -1, -1, -2, -2, -3
1503600553314,+0.036,+0.088,-0.434,-0.896,+0.831,-0.130,-0.547,+0.062,-4.125,+2.875,-17, -2, -4, -4, -2, -1, -1, -2
1503600553336,+0.036,+0.088,-0.433,-0.896,+0.812,-0.118,-0.565,-1.062,-6.062,+1.438,11, 19, 2, 0, 0, -2, -2, 2
1503600553352,+0.036,+0.088,-0.432,-0.897,+0.824,-0.130,-0.562,-1.312,-7.938,+2.938,-9, -9, -3, -2, -2, -1, 0, 2
1503600553374,+0.035,+0.088,-0.431,-0.898,+0.822,-0.129,-0.562,-2.312,-9.938,+2.688,-8, -13, -3, 1, 6, -2, -5, -11
1503600553397,+0.035,+0.088,-0.429,-0.898,+0.811,-0.136,-0.564,-3.938,-12.188,+2.312,-6, -10, -4, -3, -2, -1, 1, -4
1503600553413,+0.035,+0.088,-0.427,-0.899,+0.812,-0.142,-0.551,-5.688,-15.812,+2.250,-5, 2, 2, -3, -6, 4, 0, 4
1503600553434,+0.034,+0.087,-0.424,-0.901,+0.815,-0.141,-0.580,-8.875,-17.562,+1.438,-26, -21, -2, -1, 0, 4, 1, -2
1503600553457,+0.034,+0.085,-0.421,-0.902,+0.778,-0.127,-0.567,-10.250,-21.938,+0.625,1, -6, -2, -4, -5, -2, 1, 0
1503600553478,+0.033,+0.084,-0.418,-0.904,+0.778,-0.134,-0.570,-13.500,-22.438,+2.438,16, 14, 1, 1, 1, -1, 1, 6
1503600553495,+0.032,+0.081,-0.414,-0.906,+0.781,-0.105,-0.615,-15.875,-22.062,+1.750,6, -12, -1, -2, -6, -1, -2, 1
1503600553516,+0.031,+0.079,-0.411,-0.908,+0.749,-0.100,-0.623,-15.500,-22.125,+2.188,7, 11, 3, -1, -2, -4, 6, -1
1503600553542,+0.030,+0.076,-0.408,-0.909,+0.753,-0.108,-0.620,-16.375,-19.938,+2.062,7, 15, -1, 1, 2, -4, -1, 0
1503600553554,+0.029,+0.074,-0.404,-0.911,+0.752,-0.103,-0.622,-15.438,-20.688,+2.188,-3, -10, -1, -2, 3, 7, -1, -1
1503600553576,+0.028,+0.072,-0.401,-0.913,+0.745,-0.107,-0.632,-16.625,-19.812,-0.875,-6, -14, -4, 2, 2, -4, -1, -1
1503600553600,+0.027,+0.069,-0.398,-0.914,+0.730,-0.106,-0.641,-17.188,-17.750,-0.250,-6, -7, -5, -1, 3, 1, -1, 6
1503600553614,+0.027,+0.066,-0.396,-0.916,+0.728,-0.080,-0.657,-16.125,-15.562,-1.750,1, -4, -1, 0, -2, 1, -1, -3
1503600553636,+0.027,+0.064,-0.393,-0.917,+0.747,-0.077,-0.643,-15.312,-15.062,-3.688,-3, -12, -3, 5, 6, -5, -7, -10
1503600553659,+0.027,+0.061,-0.391,-0.918,+0.742,-0.091,-0.655,-14.188,-15.125,-2.812,10, -3, -5, -3, 3, 0, -3, 0
1503600553674,+0.026,+0.059,-0.389,-0.919,+0.725,-0.086,-0.651,-14.875,-13.688,-3.000,-6, -14, -3, 1, -4, 2, 1, 1
1503600553697,+0.026,+0.057,-0.387,-0.920,+0.737,-0.084,-0.641,-14.062,-13.312,-1.812,-8, 26, 6, 2, 1, 1, 0, 0
1503600553726,+0.025,+0.055,-0.385,-0.921,+0.761,-0.069,-0.652,-14.688,-12.875,-0.125,-5, 3, 4, 0, 0, -3, -3, -5
1503600553735,+0.025,+0.053,-0.384,-0.922,+0.746,-0.060,-0.666,-13.062,-12.062,+2.250,-13, 0, 2, 3, 2, 2, 0, -1
1503600553760,+0.024,+0.051,-0.382,-0.923,+0.724,-0.071,-0.665,-11.562,-12.188,+3.312,11, -15, -11, -5, -7, -5, -2, -1
1503600553779,+0.022,+0.049,-0.380,-0.923,+0.731,-0.049,-0.662,-12.688,-10.875,+4.375,4, 14, 2, -3, -3, 0, 1, -3
1503600553794,+0.021,+0.048,-0.379,-0.924,+0.746,-0.047,-0.660,-11.750,-11.062,+7.625,2, 2, 0, 7, -2, -1, -1, 0
1503600553816,+0.019,+0.047,-0.377,-0.925,+0.738,-0.064,-0.663,-8.750,-12.750,+8.750,-14, -19, -5, -6, -1, -2, 0, -2
1503600553832,+0.018,+0.047,-0.374,-0.926,+0.705,-0.057,-0.703,-7.750,-13.250,+8.125,1, -1, 1, 0, 1, -1, 0, -5
1503600553854,+0.016,+0.046,-0.372,-0.927,+0.662,-0.050,-0.700,-7.125,-9.875,+6.938,8, 14, 1, 1, 7, 0, -3, 5
1503600553876,+0.015,+0.045,-0.371,-0.927,+0.688,-0.060,-0.688,-6.562,-5.062,+9.375,-6, -6, 0, -5, 0, 1, 0, -1
1503600553899,+0.013,+0.045,-0.370,-0.928,+0.701,-0.052,-0.707,-5.625,-1.875,+9.562,-2, -1, -2, 0, -4, -3, -1, 0
1503600553914,+0.012,+0.045,-0.370,-0.928,+0.704,-0.049,-0.693,-2.562,-3.438,+7.062,4, -5, 0, 0, 0, -1, -4, -15
1503600553937,+0.011,+0.046,-0.369,-0.928,+0.687,-0.069,-0.705,-1.188,+0.188,+7.812,-20, -15, -13, -3, 2, 3, 0, 2
1503600553952,+0.010,+0.046,-0.369,-0.928,+0.688,-0.071,-0.697,-0.625,+2.000,+6.125,-4, -9, -2, 0, -1, -1, 0, -1
1503600553974,+0.009,+0.046,-0.370,-0.928,+0.707,-0.074,-0.686,-0.312,+2.938,+4.875,-5, 1, 3, 2, 1, -2, 1, 5
1503600553997,+0.009,+0.047,-0.370,-0.928,+0.714,-0.061,-0.693,+1.188,+2.875,+4.750,15, 14, 5, 1, 0, 2, 6, 7
1503600554012,+0.008,+0.048,-0.371,-0.927,+0.707,-0.069,-0.683,+3.312,+4.625,+4.812,-7, -9, -5, -1, -3, 1, -1, 0
1503600554035,+0.008,+0.049,-0.371,-0.927,+0.708,-0.088,-0.676,+4.750,+4.438,+3.125,5, 11, 6, 1, 2, -4, -4, -2
1503600554057,+0.008,+0.050,-0.372,-0.927,+0.711,-0.094,-0.678,+3.500,+4.875,+3.000,3, -8, 1, -3, -2, -1, -4, -6
1503600554072,+0.008,+0.051,-0.373,-0.926,+0.707,-0.080,-0.675,+2.875,+6.188,+1.625,15, 2, -2, -2, -2, 0, -1, 3
1503600554095,+0.008,+0.052,-0.374,-0.926,+0.716,-0.073,-0.681,+3.875,+4.938,+0.938,-8, 3, 3, -2, -5, -3, -1, -5
1503600554117,+0.009,+0.052,-0.375,-0.926,+0.730,-0.079,-0.650,+3.625,+6.125,-0.875,11, -6, -4, 0, 0, -2, -2, 0
1503600554132,+0.009,+0.053,-0.376,-0.925,+0.740,-0.084,-0.667,+4.562,+3.188,+0.312,-7, 5, 5, 3, -1, 2, 0, -1
1503600554154,+0.010,+0.054,-0.376,-0.925,+0.708,-0.074,-0.672,+5.625,+3.188,-1.312,4, 3, 1, 1, 0, 2, 3, 1
1503600554177,+0.011,+0.055,-0.377,-0.924,+0.737,-0.087,-0.662,+8.500,+5.562,-1.688,-4, -23, -4, 1, -2, -1, -1, -6
1503600554194,+0.012,+0.056,-0.378,-0.924,+0.729,-0.086,-0.670,+7.688,+7.250,-4.875,5, -5, -1, -3, -1, -2, -2, 6
1503600554214,+0.013,+0.057,-0.380,-0.923,+0.714,-0.092,-0.675,+6.438,+9.688,-3.938,-5, -5, 2, 2, 1, 3, 1, -2
1503600554240,+0.014,+0.059,-0.382,-0.922,+0.743,-0.093,-0.667,+7.500,+11.875,-2.062,-15, 18, 3, 1, 2, 2, -3, -3
1503600554252,+0.015,+0.060,-0.384,-0.921,+0.746,-0.092,-0.673,+7.625,+11.500,-1.938,2, -9, -4, -6, -2, -1, 0, 1
1503600554274,+0.016,+0.061,-0.386,-0.920,+0.747,-0.099,-0.656,+8.750,+13.312,-2.938,-17, 11, 12, 0, 1, 3, -4, -9
1503600554297,+0.017,+0.063,-0.387,-0.920,+0.765,-0.103,-0.651,+8.062,+7.750,-0.312,-11, -2, -5, -1, -4, -1, -3, -1
1503600554312,+0.017,+0.064,-0.389,-0.919,+0.763,-0.107,-0.650,+7.500,+7.750,+0.062,-1, 8, 5, 0, -4, -5, -4, -5
1503600554334,+0.018,+0.065,-0.390,-0.918,+0.747,-0.107,-0.656,+7.250,+6.875,-0.812,6, 11, 1, -1, -5, -8, -4, -3
1503600554357,+0.019,+0.067,-0.391,-0.918,+0.739,-0.107,-0.641,+7.125,+8.438,-1.500,8, 16, 8, -7, -6, -4, -4, -7
1503600554379,+0.020,+0.068,-0.392,-0.917,+0.736,-0.112,-0.640,+5.938,+8.125,-2.250,-8, -6, -5, -2, 2, -1, -5, -1
1503600554396,+0.020,+0.069,-0.394,-0.916,+0.730,-0.112,-0.640,+5.438,+14.312,-3.000,3, 5, 4, 2, 0, 2, 0, 0
1503600554417,+0.021,+0.069,-0.396,-0.915,+0.750,-0.111,-0.641,+3.438,+11.812,-4.875,2, -8, -6, 1, 0, 2, 0, -1
1503600554439,+0.022,+0.070,-0.398,-0.915,+0.757,-0.097,-0.629,+3.438,+8.750,-3.125,-1, 2, 0, 2, 2, -1, 1, -2
1503600554454,+0.023,+0.070,-0.398,-0.914,+0.749,-0.083,-0.647,+4.688,+6.000,-3.438,0, 2, 3, 8, 0, 2, 3, 5
1503600554477,+0.024,+0.071,-0.400,-0.914,+0.737,-0.093,-0.641,+7.438,+8.125,-2.750,0, 0, -4, -3, -1, -4, -4, -1
1503600554499,+0.025,+0.073,-0.401,-0.913,+0.733,-0.118,-0.630,+7.750,+10.875,-2.688,2, -5, 0, -1, -4, 1, 4, -6
1503600554514,+0.026,+0.074,-0.403,-0.912,+0.756,-0.131,-0.617,+6.750,+12.625,-2.750,-9, 14, 1, -1, -1, -2, -2, -1
1503600554538,+0.027,+0.075,-0.405,-0.911,+0.764,-0.127,-0.617,+4.000,+12.125,-4.000,3, -10, -8, -1, -3, 1, -3, -6
1503600554560,+0.028,+0.075,-0.407,-0.910,+0.767,-0.126,-0.602,+3.500,+12.812,-4.812,-15, 6, 7, -3, -2, 0, -2, 1
1503600554578,+0.028,+0.076,-0.409,-0.909,+0.761,-0.127,-0.599,+2.750,+11.875,-5.312,7, -11, -5, -3, 1, 0, 2, 2
1503600554597,+0.029,+0.076,-0.411,-0.908,+0.763,-0.138,-0.596,+1.750,+13.188,-3.438,-48, -12, -6, -4, -1, -5, -3, -8
1503600554618,+0.029,+0.076,-0.413,-0.907,+0.794,-0.117,-0.581,-1.688,+9.688,-4.625,28, 31, 5, 4, 1, -2, 3, 4
1503600554634,+0.030,+0.076,-0.414,-0.906,+0.758,-0.133,-0.601,-1.438,+8.375,-4.438,-6, -12, -4, -2, -6, -7, -1, -2
1503600554657,+0.030,+0.076,-0.417,-0.905,+0.791,-0.133,-0.583,-3.938,+15.625,-1.688,12, 17, 5, 4, 0, -1, -2, 4
1503600554678,+0.030,+0.075,-0.419,-0.904,+0.807,-0.080,-0.608,-3.438,+11.562,-2.000,-16, 7, 10, 3, 2, 1, 1, -1
1503600554693,+0.031,+0.075,-0.421,-0.904,+0.818,-0.082,-0.590,-1.250,+10.875,-3.875,2, -7, -4, 0, 2, 2, 3, 3
1503600554715,+0.031,+0.074,-0.422,-0.903,+0.804,-0.080,-0.599,-0.312,+8.312,-3.438,5, 1, -8, -1, 5, 4, 2, 2
1503600559179,-0.008,+0.067,-0.367,-0.928,+0.731,-0.125,-0.667,+7.625,+13.125,-2.375,-4, -1, 5, 4, 3, -6, 8, 13
1503600559201,-0.007,+0.068,-0.369,-0.927,+0.739,-0.132,-0.659,+7.562,+9.938,-4.625,-6, -15, -9, 0, -1, -8, 1, 11
1503600559219,-0.006,+0.069,-0.371,-0.926,+0.746,-0.162,-0.651,+5.125,+7.812,-3.688,-7, -3, -2, 6, -4, 1, 0, 3
1503600559239,-0.005,+0.069,-0.372,-0.926,+0.721,-0.146,-0.653,+1.312,+4.375,-4.000,-6, -2, 0, -5, -2, 3, -4, -3
1503600559263,-0.004,+0.069,-0.372,-0.926,+0.713,-0.137,-0.664,-0.688,+2.438,-4.438,5, -4, -3, -2, 0, 1, -1, 0
1503600559277,-0.004,+0.069,-0.372,-0.926,+0.718,-0.127,-0.668,-1.500,+1.562,-3.312,-5, -24, -12, -4, 0, 5, 5, 4
1503600559299,-0.003,+0.069,-0.373,-0.925,+0.736,-0.138,-0.651,-2.750,+1.812,-2.125,-2, -11, -2, -3, -1, 5, 2, -1
1503600559323,-0.003,+0.068,-0.374,-0.925,+0.758,-0.130,-0.650,-3.812,-1.312,-0.750,-3, -1, -3, 1, -1, -6, -3, -2
1503600559337,-0.003,+0.068,-0.373,-0.925,+0.750,-0.110,-0.668,-4.438,-4.375,-0.625,21, 0, 1, -1, 0, 0, 4, -12
1503600559359,-0.003,+0.067,-0.372,-0.926,+0.694,-0.096,-0.688,-2.375,-4.562,-1.188,-2, 1, 2, 0, -1, 0, -4, -3
1503600559381,-0.003,+0.067,-0.372,-0.926,+0.693,-0.115,-0.686,-1.500,-3.500,+2.125,-3, -5, -3, -2, -1, 3, 1, 7
1503600559397,-0.004,+0.067,-0.371,-0.926,+0.700,-0.121,-0.671,-2.250,-1.000,+3.000,-12, -2, 2, -2, 0, 1, -9, -13
1503600559422,-0.004,+0.067,-0.371,-0.926,+0.723,-0.120,-0.689,-2.125,-2.125,+2.688,3, 5, 1, 2, 0, -3, 1, 4
1503600559441,-0.004,+0.067,-0.371,-0.926,+0.711,-0.110,-0.685,-0.812,+0.625,+2.125,0, 4, -1, -2, 2, 9, 4, 6
1503600559457,-0.004,+0.068,-0.371,-0.926,+0.704,-0.127,-0.690,+1.188,+0.875,+3.062,7, 19, 7, 1, 0, -4, -2, 1
1503600559479,-0.004,+0.068,-0.371,-0.926,+0.681,-0.125,-0.682,+2.125,+2.312,+2.000,-8, -11, -7, -4, -6, -4, -2, 10
1503600559501,-0.005,+0.069,-0.372,-0.926,+0.694,-0.147,-0.683,-0.062,+4.875,+1.438,5, 8, 0, 1, 1, -2, 0, 0
1503600559517,-0.004,+0.068,-0.373,-0.925,+0.687,-0.123,-0.681,-1.938,+8.250,-1.500,8, -5, -4, -2, 3, 0, 3, -1
1503600559539,-0.003,+0.068,-0.374,-0.925,+0.696,-0.098,-0.689,+0.312,+6.500,-6.000,4, -8, 2, 5, 0, -3, -2, 2
1503600559564,-0.002,+0.068,-0.375,-0.925,+0.710,-0.123,-0.649,+3.438,+7.438,-5.250,-7, -11, -3, -5, -1, -5, -3, -6
1503600559576,-0.001,+0.069,-0.376,-0.924,+0.721,-0.146,-0.666,+0.750,+3.750,-4.125,2, 12, -1, -1, -3, 0, 2, -1
1503600559599,+0.000,+0.068,-0.376,-0.924,+0.696,-0.112,-0.685,-1.000,+4.812,-8.500,12, -1, -2, -1, -1, 3, -1, -3
1503600559622,+0.002,+0.068,-0.377,-0.924,+0.701,-0.104,-0.683,+3.312,+4.375,-8.812,-17, -9, 0, -2, -1, -1, -3, -1
1503600559637,+0.003,+0.068,-0.378,-0.923,+0.741,-0.117,-0.643,+4.500,+6.250,-6.938,-13, -8, -3, -4, -1, -4, -2, -1
1503600559660,+0.005,+0.069,-0.379,-0.923,+0.749,-0.133,-0.648,+3.000,+3.875,-7.562,-10, -14, 2, 0, 0, -1, -1, -7
1503600559682,+0.006,+0.069,-0.380,-0.922,+0.737,-0.135,-0.645,+1.188,+2.688,-6.688,20, 4, -3, 2, 3, 4, 0, -19
1503600559698,+0.007,+0.069,-0.381,-0.922,+0.755,-0.113,-0.665,+1.125,+7.125,-4.562,8, 29, 7, -3, -5, 0, -7, -7
1503600559719,+0.008,+0.069,-0.382,-0.922,+0.763,-0.083,-0.658,+4.688,+2.750,-4.938,5, 8, 0, 1, 1, -3, 1, 0
1503600559742,+0.009,+0.070,-0.383,-0.921,+0.723,-0.115,-0.651,+6.000,+3.750,-2.125,-14, -8, -3, 1, 3, 0, 0, 9
1503600559757,+0.010,+0.071,-0.383,-0.921,+0.675,-0.121,-0.670,+5.688,+4.875,-3.500,-5, -12, -5, -9, 0, 1, -1, 5
1503600559779,+0.011,+0.071,-0.384,-0.921,+0.693,-0.131,-0.665,+4.062,+6.312,-7.000,-4, -4, 0, 0, 1, -4, 0, 9
1503600559801,+0.013,+0.071,-0.385,-0.920,+0.751,-0.127,-0.654,+1.938,+7.062,-9.062,-9, -5, -2, -3, -2, -1, 2, 1
1503600559817,+0.014,+0.071,-0.387,-0.919,+0.782,-0.113,-0.631,+1.062,+5.562,-6.562,2, 0, -3, 1, -6, -4, -7, 0
1503600559839,+0.015,+0.071,-0.387,-0.919,+0.745,-0.108,-0.658,+0.375,+5.125,-4.000,7, 2, -2, 1, -1, 1, -1, -5
1503600559862,+0.016,+0.071,-0.388,-0.919,+0.721,-0.108,-0.655,+1.188,+6.062,-5.000,6, 16, 5, 0, -1, -2, 0, -2
1503600559877,+0.017,+0.072,-0.389,-0.918,+0.735,-0.124,-0.625,+2.500,+1.000,-4.812,-10, -10, -7, -1, -3, 2, -1, -11
1503600559899,+0.018,+0.071,-0.389,-0.918,+0.761,-0.142,-0.629,-2.188,-0.812,-7.125,-10, -5, -1, -1, 1, -2, -4, 5
1503600559924,+0.019,+0.070,-0.389,-0.919,+0.756,-0.103,-0.655,-4.750,-2.438,-8.500,-2, 3, 4, 2, 1, 2, 1, 2
1503600559936,+0.020,+0.069,-0.389,-0.919,+0.758,-0.092,-0.662,-2.812,-0.125,-6.688,-8, -9, -2, -4, 2, 1, -3, -2
1503600559960,+0.021,+0.069,-0.390,-0.918,+0.741,-0.113,-0.615,-2.000,+1.812,-4.062,-3, -11, -4, -4, -1, -2, -1, 7
1503600559981,+0.022,+0.068,-0.389,-0.918,+0.728,-0.117,-0.647,-4.188,-1.375,-4.062,-4, -1, -2, 1, 6, 6, 1, -1
1503600559996,+0.022,+0.067,-0.389,-0.918,+0.743,-0.113,-0.633,-7.375,-0.938,-5.062,0, 8, 2, -1, -3, -1, 2, -5
1503600560018,+0.023,+0.066,-0.389,-0.919,+0.807,-0.098,-0.617,-8.062,-7.312,-5.750,8, -15, -8, -3, -2, -1, -4, -2
1503600560040,+0.023,+0.064,-0.388,-0.919,+0.769,-0.095,-0.631,-8.812,-13.125,-6.938,9, -8, -5, -2, 4, 2, 3, -8
1503600560059,+0.024,+0.062,-0.385,-0.920,+0.717,-0.085,-0.644,-8.500,-15.500,-7.375,-7, 2, -2, 1, 4, -3, -1, 3
1503600560078,+0.025,+0.061,-0.383,-0.922,+0.732,-0.081,-0.658,-7.375,-15.875,-6.188,-4, 2, 1, 1, -1, -1, -4, 3
1503600560101,+0.026,+0.059,-0.380,-0.923,+0.750,-0.088,-0.657,-7.812,-17.188,-4.375,5, 5, 3, -1, -5, -1, -1, 9
1503600560125,+0.026,+0.058,-0.378,-0.924,+0.746,-0.084,-0.675,-7.438,-17.688,-2.938,-3, -16, -5, -3, -3, -3, -4, -8
1503600560138,+0.026,+0.057,-0.375,-0.925,+0.716,-0.074,-0.663,-8.188,-16.875,-0.750,-12, -12, -4, 1, 2, -1, -2, -4
1503600560162,+0.025,+0.056,-0.373,-0.926,+0.727,-0.077,-0.685,-9.000,-17.438,+2.750,-2, -2, 0, 1, -2, 7, 0, 5
1503600560183,+0.025,+0.054,-0.370,-0.927,+0.705,-0.058,-0.695,-8.250,-16.000,+2.500,-14, 1, -1, 1, -3, -6, -3, -5
1503600560206,+0.024,+0.054,-0.367,-0.928,+0.669,-0.073,-0.690,-5.750,-15.625,+2.750,4, -15, -4, -4, 0, -2, -2, -8
1503600560220,+0.024,+0.053,-0.365,-0.929,+0.682,-0.072,-0.696,-6.250,-12.438,+4.062,-2, -4, -2, 0, 2, 0, 0, -5
1503600560243,+0.022,+0.053,-0.363,-0.930,+0.702,-0.078,-0.708,-5.125,-11.250,+7.125,-5, 13, 2, 2, -3, -1, 4, -3
1503600560266,+0.021,+0.052,-0.362,-0.931,+0.703,-0.065,-0.695,-6.375,-7.688,+8.250,0, 16, 6, -1, 0, -4, 1, -1
1503600560281,+0.020,+0.052,-0.360,-0.931,+0.692,-0.062,-0.703,-5.188,-9.750,+5.625,12, -5, 0, 3, -1, -1, 0, 4
1503600560311,+0.020,+0.051,-0.359,-0.932,+0.670,-0.068,-0.717,-3.188,-8.062,+3.000,-10, -9, -6, -4, -3, -4, -2, -5
1503600560318,+0.019,+0.051,-0.357,-0.932,+0.657,-0.080,-0.710,-2.375,-5.625,+4.125,6, 4, -2, 0, -1, 5, -1, 1
1503600560342,+0.019,+0.051,-0.356,-0.933,+0.652,-0.078,-0.720,-2.250,-5.438,+2.438,2, -3, 1, -1, -2, 3, 0, -5
1503600560363,+0.019,+0.051,-0.355,-0.933,+0.670,-0.077,-0.718,-3.062,-2.188,+1.500,11, 25, 4, -1, -1, -2, 1, 6
1503600560378,+0.019,+0.051,-0.355,-0.933,+0.688,-0.073,-0.709,-1.938,+0.062,+0.125,-2, -20, -8, -1, 1, -2, -4, -5
1503600560400,+0.019,+0.051,-0.355,-0.933,+0.689,-0.080,-0.706,-1.375,-0.250,-1.000,-2, 3, 2, 0, 1, 2, -5, -5
1503600560423,+0.019,+0.051,-0.356,-0.933,+0.679,-0.069,-0.701,-0.875,+1.625,-0.875,-10, 8, -2, -2, -1, 1, 0, 2
1503600560439,+0.019,+0.051,-0.356,-0.933,+0.681,-0.076,-0.702,-0.375,+1.562,+0.188,-12, -16, -5, -2, -1, -3, -2, -6
1503600560463,+0.019,+0.051,-0.356,-0.933,+0.693,-0.073,-0.698,-1.625,+1.750,+1.125,-5, 17, 1, -1, -2, 0, 1, 2
1503600560483,+0.019,+0.051,-0.357,-0.933,+0.693,-0.062,-0.705,-1.188,+2.375,+0.688,-6, 0, 0, 0, 3, 3, 0, 1
1503600560500,+0.019,+0.051,-0.357,-0.933,+0.696,-0.080,-0.689,-1.062,+0.500,+1.688,1, 7, 2, 4, 1, -4, -4, 0
1503600560521,+0.019,+0.051,-0.357,-0.933,+0.711,-0.083,-0.686,-1.812,-0.125,+2.000,7, 0, -4, -2, -2, 1, 1, 1
1503600560543,+0.019,+0.051,-0.357,-0.933,+0.692,-0.065,-0.701,-1.875,-1.312,+1.375,-4, -6, 0, 1, -2, -2, -3, 0
1503600560562,+0.018,+0.051,-0.357,-0.933,+0.682,-0.072,-0.709,-0.875,-1.688,+2.250,-1, 14, 2, 0, -3, -5, -4, 1
1503600560580,+0.018,+0.051,-0.357,-0.933,+0.692,-0.085,-0.700,-1.375,+0.125,+3.438,-3, -7, -3, 6, -4, 0, 0, 4
1503600560605,+0.017,+0.051,-0.356,-0.933,+0.694,-0.079,-0.697,-1.750,-1.375,+2.750,-7, -7, -6, -8, -3, 3, -2, 4
1503600560620,+0.017,+0.051,-0.356,-0.933,+0.703,-0.078,-0.698,-1.875,-2.375,+2.250,1, -2, 3, -1, -2, -6, -4, 1
1503600560641,+0.016,+0.052,-0.356,-0.933,+0.701,-0.088,-0.703,-0.250,-3.062,+6.875,20, 4, 0, -1, 0, -1, 3, 0
1503600560664,+0.016,+0.052,-0.355,-0.933,+0.675,-0.079,-0.711,-1.250,-3.188,+1.938,-2, -3, 0, -2, 1, -4, -3, -7
1503600560678,+0.016,+0.052,-0.355,-0.933,+0.689,-0.089,-0.695,-1.812,-1.438,+2.938,-2, -10, -2, -4, 1, 4, 0, -3
1503600560701,+0.015,+0.052,-0.354,-0.934,+0.695,-0.088,-0.707,-2.562,-2.750,+3.500,-8, -2, -2, 1, 3, 1, 1, -3
1503600560723,+0.015,+0.052,-0.354,-0.934,+0.688,-0.069,-0.711,-3.062,-2.375,+2.438,-7, -6, -4, -2, 4, 10, -3, 2
1503600560738,+0.015,+0.052,-0.353,-0.934,+0.685,-0.071,-0.714,-2.562,-3.875,+2.062,11, 11, 1, -1, -2, -4, -1, 0
1503600560764,+0.014,+0.052,-0.353,-0.934,+0.671,-0.073,-0.709,-2.062,-2.875,+2.000,1, 4, 11, 2, -2, -3, 0, 1
1503600560783,+0.014,+0.052,-0.352,-0.934,+0.682,-0.088,-0.709,-1.875,-2.250,+1.250,16, -7, 0, -2, -4, -3, -3, 1
1503600560799,+0.014,+0.051,-0.352,-0.935,+0.685,-0.084,-0.708,-2.688,-3.188,+0.625,-43, -18, -2, -4, 0, 0, 2, -4
1503600560820,+0.014,+0.051,-0.352,-0.935,+0.671,-0.077,-0.715,-2.750,-2.500,-0.500,13, 4, -3, -1, -2, -4, -1, -3
1503600560843,+0.014,+0.051,-0.351,-0.935,+0.673,-0.075,-0.722,-1.000,-1.812,-0.250,3, 0, -2, -1, -2, 2, -3, -4
1503600560858,+0.014,+0.051,-0.351,-0.935,+0.677,-0.082,-0.708,-1.688,-0.250,+0.125,13, 10, 0, 0, 1, 1, -1, 0
1503600560880,+0.014,+0.051,-0.351,-0.935,+0.679,-0.073,-0.708,-1.750,-0.188,+0.375,-2, 15, 7, 2, 4, 2, 0, -2
1503600560904,+0.014,+0.051,-0.351,-0.935,+0.687,-0.069,-0.710,-0.938,-0.188,+0.750,9, 15, 3, -3, 0, -1, 2, 7
1503600560918,+0.014,+0.051,-0.351,-0.935,+0.682,-0.083,-0.721,-0.438,-0.875,+1.438,8, -2, -2, 1, 1, 4, 3, 4
1503600560940,+0.014,+0.051,-0.351,-0.935,+0.677,-0.087,-0.707,-1.000,-0.125,+0.500,-8, -6, 0, 1, -2, 0, 1, -3
1503600560965,+0.014,+0.051,-0.351,-0.935,+0.674,-0.082,-0.700,-1.500,-0.500,+0.625,-1, 1, -2, -8, -4, -7, 0, -4
1503600560978,+0.014,+0.051,-0.351,-0.935,+0.683,-0.087,-0.699,-2.000,+0.062,+0.438,-23, 10, 5, 2, 0, 0, 0, -4
1503600561002,+0.014,+0.051,-0.351,-0.935,+0.696,-0.069,-0.706,-2.000,+0.062,+0.438,8, 18, 2, 1, -2, -1, 1, 0
1503600561023,+0.014,+0.051,-0.351,-0.935,+0.694,-0.076,-0.706,-1.500,-0.312,+0.312,5, 0, -6, 1, 2, 2, 4, 7
1503600561040,+0.014,+0.051,-0.351,-0.935,+0.682,-0.077,-0.713,-1.188,-1.062,+0.625,4, 3, 2, -1, 0, -2, 1, -1
1503600561061,+0.014,+0.051,-0.351,-0.935,+0.671,-0.084,-0.701,-1.125,-0.812,+0.125,-4, -8, 1, 0, -2, -1, -3, -4
1503600561083,+0.014,+0.051,-0.351,-0.935,+0.684,-0.078,-0.716,-1.438,-1.000,+0.562,1, 3, 3, -1, -1, 2, -2, 5
1503600561104,+0.014,+0.051,-0.351,-0.935,+0.679,-0.074,-0.713,-1.625,-1.188,+0.938,-7, 1, 0, 4, 0, -2, -1, -2
1503600561120,+0.014,+0.051,-0.351,-0.935,+0.680,-0.080,-0.709,-1.312,+0.500,+1.500,1, -5, -2, -3, -2, -1, -1, -1
1503600561143,+0.014,+0.051,-0.351,-0.935,+0.691,-0.082,-0.709,-0.938,-0.625,+0.688,-4, -18, -5, -4, -7, -5, -3, -4
1503600561158,+0.014,+0.051,-0.351,-0.935,+0.683,-0.077,-0.705,-1.250,-0.812,+0.062,-5, 15, 5, 0, 2, 3, -2, 0
1503600561180,+0.014,+0.051,-0.351,-0.935,+0.679,-0.081,-0.711,-0.250,-1.188,+0.625,1, -16, -11, -8, 0, -3, -2, -2
1503600561206,+0.014,+0.051,-0.351,-0.935,+0.676,-0.079,-0.708,-0.500,-0.562,+0.625,-4, -10, -2, -3, 3, -2, 2, -5
1503600561218,+0.015,+0.051,-0.351,-0.935,+0.676,-0.083,-0.719,+0.250,-0.500,+0.188,0, 30, 0, -2, 0, -3, 0, 1
1503600561244,+0.015,+0.051,-0.351,-0.935,+0.670,-0.086,-0.712,-0.625,-0.250,+0.375,2, -7, -3, -7, 0, 1, 0, 5
1503600561278,+0.015,+0.051,-0.351,-0.935,+0.676,-0.079,-0.708,-1.125,+1.125,+0.688,-6, 1, -3, -6, 0, 0, 0, 1
1503600561284,+0.015,+0.051,-0.351,-0.935,+0.686,-0.076,-0.707,-1.312,+0.000,+1.000,5, -7, -1, -1, -1, 0, 1, 1
1503600561305,+0.015,+0.051,-0.351,-0.935,+0.685,-0.081,-0.706,-1.625,+0.875,+0.438,-3, -5, 5, 1, 1, 0, -3, 1
1503600561327,+0.015,+0.051,-0.351,-0.935,+0.677,-0.078,-0.712,-1.688,-0.125,+0.500,12, -12, -10, -3, -2, -1, -1, -5
1503600561339,+0.015,+0.051,-0.351,-0.935,+0.677,-0.078,-0.705,-1.438,-0.312,+1.250,-9, -14, -8, -3, 3, 2, 0, 2
1503600561361,+0.015,+0.051,-0.351,-0.935,+0.679,-0.077,-0.714,-1.062,-0.688,+0.812,-4, 14, 4, 0, 0, 0, -1, -3
1503600561383,+0.015,+0.051,-0.351,-0.935,+0.687,-0.078,-0.709,-1.062,-0.938,+0.750,-1, 16, 1, -1, 0, -1, -2, -7
1503600561403,+0.015,+0.051,-0.351,-0.935,+0.681,-0.082,-0.710,-0.938,+0.812,+0.688,-15, 9, 1, 0, -2, 0, -1, -3
1503600561420,+0.014,+0.051,-0.351,-0.935,+0.683,-0.087,-0.712,-1.625,-0.500,+0.312,-16, -21, -3, 0, -1, -2, 0, -1
1503600561443,+0.015,+0.051,-0.351,-0.935,+0.685,-0.070,-0.712,-1.812,-1.188,+0.375,0, -10, -2, -2, -2, 0, 0, 2
1503600561469,+0.015,+0.051,-0.351,-0.935,+0.671,-0.076,-0.706,-1.375,-0.062,+0.188,-2, 13, -2, -3, -1, -2, -2, 2
1503600561488,+0.015,+0.051,-0.351,-0.935,+0.678,-0.075,-0.713,-1.625,-0.188,+0.812,4, 0, 1, -1, -1, -7, -3, -3
1503600561503,+0.015,+0.051,-0.351,-0.935,+0.682,-0.080,-0.707,-1.562,+0.125,+0.750,17, 1, -1, 1, 1, 0, 1, 1
1503600561519,+0.015,+0.051,-0.351,-0.935,+0.677,-0.075,-0.712,-1.375,-0.750,+0.562,7, 17, 2, 0, -2, -2, 1, 6
1503600561540,+0.015,+0.051,-0.351,-0.935,+0.673,-0.083,-0.719,-1.312,-0.438,+0.562,1, -7, -2, -2, -6, -13, -7, -4
1503600561563,+0.015,+0.051,-0.351,-0.935,+0.672,-0.080,-0.710,-1.188,+0.938,+0.125,0, -6, -3, -3, 4, 1, 0, -1
1503600561579,+0.015,+0.051,-0.351,-0.935,+0.682,-0.078,-0.710,-1.250,-0.188,+0.375,-1, 4, 2, 8, -1, 8, 4, 2
1503600561603,+0.015,+0.051,-0.352,-0.935,+0.694,-0.076,-0.709,-1.000,+1.188,+0.625,4, 7, 5, -2, -1, 0, 3, 2
1503600561623,+0.015,+0.051,-0.352,-0.935,+0.685,-0.074,-0.711,-0.312,-0.125,+0.062,-3, -3, -1, 0, 7, -2, 4, 2
1503600561639,+0.015,+0.051,-0.352,-0.935,+0.672,-0.083,-0.705,-0.188,+0.375,+0.812,-1, 1, -6, -1, 8, 10, -4, -5
1503600561660,+0.015,+0.051,-0.352,-0.935,+0.675,-0.087,-0.708,-0.938,+0.688,+1.188,-3, 1, 1, 4, -1, -22, -7, -3
1503600561683,+0.015,+0.051,-0.352,-0.935,+0.687,-0.083,-0.704,-1.312,-0.500,+0.688,-3, -6, -4, -4, -3, -8, 2, 3
1503600561699,+0.015,+0.051,-0.352,-0.935,+0.679,-0.080,-0.708,-1.125,-0.375,+0.562,1, -3, -5, -4, 1, 6, 0, 0
1503600561721,+0.015,+0.052,-0.352,-0.935,+0.691,-0.083,-0.713,-0.500,-1.125,-0.125,-3, 3, 1, -2, -7, 9, 2, 3
1503600561746,+0.015,+0.051,-0.352,-0.935,+0.685,-0.075,-0.704,-0.875,-0.125,+0.250,0, -12, 4, 2, 9, 2, 0, 0
1503600561759,+0.015,+0.052,-0.352,-0.935,+0.684,-0.085,-0.710,-0.375,-0.938,+0.125,0, 13, 4, -6, -3, 3, -3, -3
1503600561785,+0.015,+0.052,-0.352,-0.935,+0.672,-0.084,-0.712,-1.062,-0.500,+0.188,0, -9, -6, -3, -3, 3, 4, 3
1503600561805,+0.015,+0.052,-0.352,-0.935,+0.672,-0.079,-0.711,-1.000,-0.312,+0.438,-4, -10, -10, -2, 0, -5, -1, 0
1503600561821,+0.015,+0.052,-0.352,-0.935,+0.677,-0.079,-0.714,-0.938,-0.312,+1.062,-1, -9, -7, -2, 10, 3, -2, -6
1503600561840,+0.015,+0.052,-0.352,-0.935,+0.681,-0.081,-0.708,-0.688,+0.125,+0.875,1, 6, 6, 3, 3, 4, 1, -1
1503600561863,+0.015,+0.052,-0.352,-0.935,+0.678,-0.083,-0.711,-0.562,+0.688,+0.750,5, -6, -2, 2, -1, 0, 4, -1
1503600561879,+0.015,+0.052,-0.351,-0.935,+0.676,-0.085,-0.710,-0.500,+0.500,+1.000,0, -16, -3, -10, -7, -1, -8, -2
1503600561901,+0.015,+0.052,-0.351,-0.935,+0.679,-0.089,-0.710,-0.500,+0.312,+0.500,4, -15, -5, -1, -5, -3, 0, 1
1503600561923,+0.015,+0.052,-0.351,-0.935,+0.678,-0.087,-0.711,-0.812,+0.750,+0.375,-2, 6, 3, 3, 3, 4, 2, -7
1503600561941,+0.015,+0.052,-0.351,-0.935,+0.684,-0.085,-0.707,-1.312,+0.312,+0.062,-5, -2, -2, 1, 1, -5, -1, 3
1503600561960,+0.015,+0.052,-0.351,-0.935,+0.692,-0.077,-0.708,-1.812,+0.500,-0.125,-1, 6, -1, 2, -3, -2, 0, 6
1503600561983,+0.015,+0.052,-0.352,-0.935,+0.689,-0.077,-0.707,-0.938,+0.062,-0.125,3, 27, 7, 5, 5, 5, 2, 1
1503600561999,+0.015,+0.052,-0.352,-0.935,+0.685,-0.086,-0.704,-0.875,-0.625,+0.500,-1, -1, -5, 0, 1, 4, 1, 1
1503600562020,+0.015,+0.052,-0.352,-0.935,+0.676,-0.082,-0.715,-1.625,-0.312,+0.562,-6, -24, -4, -4, -5, -8, -2, -10
1503600562043,+0.015,+0.052,-0.351,-0.935,+0.677,-0.081,-0.715,-1.625,-0.812,+0.688,-1, -1, 1, 1, 5, 0, -2, -1
1503600562060,+0.014,+0.052,-0.352,-0.935,+0.676,-0.083,-0.704,-1.812,+1.000,+0.750,-1, -7, -3, 0, 2, -3, -4, 1
1503600562080,+0.014,+0.051,-0.352,-0.935,+0.695,-0.086,-0.708,-2.438,-0.750,+0.938,-2, 1, 2, -3, -6, -3, -3, -3
1503600562108,+0.014,+0.051,-0.352,-0.935,+0.687,-0.073,-0.704,-2.250,-0.062,+0.875,-3, -1, -5, -3, 2, 4, 2, -2
1503600562119,+0.014,+0.051,-0.351,-0.935,+0.681,-0.078,-0.717,-0.625,-1.750,+0.000,-1, 17, 5, 1, 5, -1, -3, -1
1503600562141,+0.014,+0.051,-0.351,-0.935,+0.673,-0.079,-0.707,-0.938,-0.375,+0.938,3, 15, 4, 2, -1, -3, 2, 4
1503600562163,+0.014,+0.051,-0.351,-0.935,+0.677,-0.081,-0.709,-1.125,+0.625,+1.062,-8, -16, -3, -2, 3, 4, 1, 0
1503600562180,+0.014,+0.051,-0.351,-0.935,+0.680,-0.078,-0.725,-0.625,-1.125,+0.875,6, -10, 1, -3, -1, -3, -1, 3
1503600562200,+0.014,+0.052,-0.351,-0.935,+0.673,-0.084,-0.709,-0.750,+1.500,+1.438,-4, -8, -3, -3, -5, -6, 1, 0
1503600562223,+0.014,+0.052,-0.351,-0.935,+0.672,-0.081,-0.715,-0.312,+0.562,+0.875,-2, -10, -4, -2, -2, 0, -1, 1
1503600562241,+0.014,+0.052,-0.352,-0.935,+0.680,-0.085,-0.708,-0.312,+0.938,+1.188,-4, 10, 20, 6, 3, 0, 0, 0
1503600562260,+0.014,+0.052,-0.352,-0.935,+0.688,-0.091,-0.709,-1.000,+1.250,+0.750,-3, 5, -9, -3, 0, 1, 1, -2
1503600562283,+0.014,+0.052,-0.352,-0.935,+0.684,-0.081,-0.708,-1.250,+0.438,-0.125,8, -2, 0, -4, -4, -10, -2, -4
1503600562298,+0.014,+0.052,-0.352,-0.935,+0.680,-0.082,-0.707,-1.062,-0.375,-0.500,19, 8, -6, -2, 10, 3, 4, 4
1503600562320,+0.014,+0.052,-0.352,-0.935,+0.678,-0.083,-0.713,-1.438,-0.250,-0.125,-11, -15, -5, -2, -3, -6, -3, -6
1503600562344,+0.014,+0.052,-0.352,-0.935,+0.683,-0.080,-0.701,-1.375,+0.812,+0.250,-1, 1, -4, -3, -3, -4, -2, 4
1503600562359,+0.014,+0.052,-0.352,-0.935,+0.688,-0.083,-0.711,-1.250,+0.000,+0.375,-6, -3, 1, 0, -7, -5, -5, -5
1503600562380,+0.014,+0.052,-0.352,-0.935,+0.686,-0.077,-0.709,-1.625,-0.438,+0.125,3, 5, 3, -2, -5, -12, -2, 4
1503600562403,+0.014,+0.052,-0.352,-0.935,+0.680,-0.083,-0.713,-1.438,-0.688,+0.250,-18, -1, 0, -3, -14, -3, 3, -8
1503600562419,+0.014,+0.052,-0.352,-0.935,+0.682,-0.083,-0.716,-1.625,+0.375,+1.000,5, -13, 0, 1, 1, 2, -5, -10
1503600562441,+0.014,+0.052,-0.352,-0.935,+0.684,-0.081,-0.709,-1.500,+0.688,+1.062,9, -20, -7, 0, 4, -2, 0, 8
1503600562463,+0.014,+0.052,-0.352,-0.935,+0.686,-0.082,-0.704,-1.125,-0.500,+0.938,5, 10, -2, 0, 2, 0, 0, -1
1503600562479,+0.014,+0.052,-0.352,-0.935,+0.681,-0.084,-0.714,-0.688,-0.125,+1.438,4, 5, 3, -2, 0, -4, 0, 5
1503600562501,+0.014,+0.052,-0.352,-0.935,+0.676,-0.082,-0.707,-0.938,+0.625,+0.938,3, 18, 5, -2, 0, 10, 0, -4
1503600562523,+0.014,+0.052,-0.352,-0.935,+0.676,-0.084,-0.715,-1.062,+0.312,+0.750,1, 2, 0, 1, 3, 0, -5, 0
1503600562539,+0.014,+0.052,-0.352,-0.935,+0.681,-0.072,-0.704,-1.250,+1.312,+1.312,-4, -4, -2, -3, 0, 3, -1, -7
1503600562561,+0.014,+0.052,-0.352,-0.935,+0.694,-0.087,-0.695,-0.688,+0.625,+1.438,-1, 17, 5, 4, 1, -6, -1, 0
1503600562585,+0.014,+0.052,-0.352,-0.934,+0.708,-0.095,-0.699,-0.188,-1.250,+0.062,-2, 1, -1, 1, 2, 5, 1, 0
1503600562600,+0.015,+0.052,-0.352,-0.935,+0.691,-0.085,-0.715,-0.312,-2.000,-2.062,10, -4, -5, -2, -3, 1, 4, -4
1503600562621,+0.015,+0.052,-0.351,-0.935,+0.661,-0.081,-0.728,+0.000,-0.375,-2.688,-24, -16, -5, -2, -4, -12, -4, -1
1503600562644,+0.016,+0.052,-0.351,-0.935,+0.648,-0.079,-0.723,-0.750,+1.562,-1.500,6, 6, 1, -2, 1, 10, 2, -1
1503600562660,+0.016,+0.052,-0.351,-0.935,+0.663,-0.074,-0.708,-1.875,+2.438,+1.250,-14, -10, -2, -1, -3, 2, 1, 1
1503600562682,+0.015,+0.052,-0.352,-0.935,+0.686,-0.075,-0.708,-2.750,+3.312,+3.562,2, -17, -5, -2, 3, -5, -2, 3
1503600562703,+0.014,+0.052,-0.353,-0.934,+0.711,-0.078,-0.698,-2.062,+2.188,+3.750,16, 0, 2, -2, -2, 5, -1, 1
1503600562721,+0.014,+0.052,-0.353,-0.934,+0.703,-0.083,-0.701,-1.875,+1.375,+4.062,-3, 9, 11, 6, 5, 3, -8, -45
1503600562743,+0.013,+0.052,-0.353,-0.934,+0.678,-0.087,-0.700,-2.125,+0.500,+3.562,-9, -2, -2, 7, -4, -14, -3, -26
1503600562763,+0.013,+0.052,-0.353,-0.934,+0.692,-0.087,-0.681,-2.188,+0.125,+3.312,-7, 5, -5, -4, 0, 5, -3, -6
1503600562786,+0.012,+0.052,-0.353,-0.934,+0.744,-0.095,-0.688,-1.500,-3.438,+2.125,2, -5, -3, 2, 0, -8, -6, 1
1503600562801,+0.013,+0.052,-0.353,-0.934,+0.717,-0.086,-0.696,+0.250,-6.000,-2.688,2, 34, 11, 0, -1, -7, 3, -6
1503600562823,+0.014,+0.053,-0.351,-0.935,+0.659,-0.091,-0.711,+2.062,-8.500,-5.500,-3, 17, -2, -2, 1, 3, -5, 0
1503600562839,+0.015,+0.053,-0.350,-0.935,+0.642,-0.106,-0.732,+0.875,-5.875,-5.250,-9, -6, 0, 3, -6, -7, -5, 12
1503600562861,+0.016,+0.052,-0.349,-0.936,+0.622,-0.090,-0.740,-1.562,-2.625,-6.188,-3, -14, -9, -7, 2, 3, -4, -2
1503600562883,+0.017,+0.052,-0.348,-0.936,+0.626,-0.057,-0.740,-2.375,+1.000,-4.188,-40, -5, 1, 3, -1, -2, 1, -7
1503600562899,+0.017,+0.051,-0.348,-0.936,+0.645,-0.063,-0.725,-2.562,+3.812,+0.438,21, -4, -6, -1, -2, -7, -2, -4
1503600562921,+0.016,+0.051,-0.350,-0.935,+0.678,-0.068,-0.713,-3.000,+7.250,+3.812,-8, -6, 0, -1, -3, -9, 7, -1
1503600562947,+0.015,+0.051,-0.351,-0.935,+0.710,-0.068,-0.702,-2.250,+7.688,+5.312,8, -7, -3, -2, -8, 2, 0, -3
1503600562961,+0.015,+0.051,-0.353,-0.934,+0.736,-0.070,-0.675,-1.812,+8.250,+4.750,1, -15, 4, 0, 0, 3, 1, 19
1503600562983,+0.014,+0.052,-0.354,-0.934,+0.757,-0.102,-0.656,+0.375,+2.562,+4.562,-8, 13, 4, 2, 0, -6, -8, 3
1503600563003,+0.014,+0.052,-0.354,-0.934,+0.735,-0.097,-0.692,+1.188,-3.000,+1.000,-10, 0, -3, -2, 1, 2, -2, 5
1503600563020,+0.015,+0.053,-0.354,-0.934,+0.673,-0.087,-0.706,+0.938,-3.812,-1.875,8, -8, -6, 0, -3, -9, 1, -4
1503600563041,+0.015,+0.053,-0.352,-0.934,+0.641,-0.087,-0.712,-0.375,-4.312,-1.188,-9, -11, -10, -4, -5, 0, -4, -1
1503600563063,+0.015,+0.053,-0.352,-0.935,+0.650,-0.083,-0.720,-2.250,-3.062,+0.562,-47, -9, -2, -3, -1, 1, -2, -18
1503600563082,+0.015,+0.052,-0.351,-0.935,+0.663,-0.077,-0.722,-2.562,-1.125,+1.000,3, 11, 4, 0, -5, 4, -2, 1
1503600563101,+0.014,+0.052,-0.351,-0.935,+0.679,-0.091,-0.711,-2.500,-0.875,+0.875,3, -9, -10, -4, 4, 6, 0, 6
1503600563123,+0.014,+0.052,-0.351,-0.935,+0.688,-0.092,-0.700,-2.875,-0.312,+0.312,17, 8, 3, 0, 0, -10, -3, -7
1503600563139,+0.014,+0.052,-0.351,-0.935,+0.693,-0.092,-0.708,-2.750,+0.562,-1.125,5, -1, 0, -3, -4, -1, 5, 3
1503600563161,+0.015,+0.052,-0.351,-0.935,+0.704,-0.085,-0.706,-2.000,-0.125,-2.625,8, -12, -1, 2, 0, -4, -1, -3
1503600563183,+0.015,+0.051,-0.352,-0.935,+0.687,-0.070,-0.708,-1.938,+0.375,-2.812,8, 5, -7, -5, -5, 0, 5, -5
1503600563199,+0.016,+0.051,-0.352,-0.935,+0.671,-0.064,-0.706,-1.188,+0.625,-1.375,-14, 2, 3, 1, 0, 1, -1, -4
1503600563222,+0.016,+0.051,-0.352,-0.935,+0.679,-0.067,-0.705,-1.188,+0.000,+0.688,-2, 6, 2, 0, 0, -2, 4, 6
1503600563243,+0.016,+0.051,-0.352,-0.935,+0.687,-0.074,-0.714,-1.125,+0.062,+1.812,4, 9, 4, -1, -4, -6, -5, -1
1503600563260,+0.015,+0.051,-0.352,-0.935,+0.689,-0.076,-0.701,-0.500,+0.688,+2.688,0, -4, 9, 1, 3, -4, 2, -1
1503600563282,+0.015,+0.051,-0.352,-0.935,+0.682,-0.089,-0.705,-0.375,+0.625,+3.000,17, -14, -13, -4, 2, 8, 3, -2
1503600563303,+0.014,+0.052,-0.352,-0.935,+0.686,-0.094,-0.700,-1.500,+0.938,+2.250,4, -10, -7, 0, 1, -9, -6, -8
1503600563319,+0.014,+0.052,-0.352,-0.935,+0.685,-0.088,-0.706,-1.812,+0.438,+1.125,-11, 19, 5, -1, 1, 1, -2, 15
1503600563341,+0.014,+0.052,-0.352,-0.935,+0.687,-0.085,-0.710,-1.750,-0.688,-0.188,-1, -5, -2, -1, -2, -2, -2, -13
1503600563363,+0.015,+0.051,-0.352,-0.935,+0.682,-0.075,-0.709,-2.000,+0.000,-1.062,12, 20, 10, 2, 3, 5, 2, 5
1503600563382,+0.015,+0.051,-0.352,-0.935,+0.680,-0.071,-0.719,-1.188,+0.188,-0.625,0, -4, 0, 0, -9, -3, -1, -1
1503600563401,+0.015,+0.051,-0.352,-0.934,+0.679,-0.078,-0.712,-0.312,+1.438,+0.688,7, 8, -3, -3, 4, -6, -1, -1
1503600563424,+0.015,+0.052,-0.352,-0.934,+0.688,-0.083,-0.706,-0.312,+1.500,+1.500,-2, -12, -8, -3, -2, 0, 2, 8
1503600563440,+0.015,+0.052,-0.353,-0.934,+0.689,-0.085,-0.709,-1.000,+2.188,+1.375,-9, 4, -4, 0, 1, 1, 1, 4
1503600563461,+0.015,+0.052,-0.353,-0.934,+0.680,-0.080,-0.710,-1.125,+2.750,+0.875,-2, -8, -4, 2, 1, 0, 1, -3
1503600563485,+0.014,+0.052,-0.354,-0.934,+0.688,-0.082,-0.704,-1.312,+2.812,+1.625,4, 10, 1, 4, 2, 2, 0, -12
1503600563499,+0.014,+0.052,-0.354,-0.934,+0.698,-0.081,-0.708,-1.438,+3.812,+2.125,6, -5, -1, 3, -1, -2, -5, 7
1503600563522,+0.014,+0.052,-0.355,-0.933,+0.697,-0.085,-0.707,-0.688,+3.188,+2.125,5, -3, 3, 14, 7, 20, 9, 2
1503600563543,+0.013,+0.052,-0.355,-0.933,+0.690,-0.083,-0.703,-0.438,+4.562,+1.812,2, -6, -9, -7, -6, -8, -3, 8
1503600563560,+0.013,+0.052,-0.357,-0.933,+0.704,-0.070,-0.698,+0.500,+6.125,+1.312,0, 4, 3, 1, -3, -2, -2, -1
1503600563585,+0.013,+0.053,-0.358,-0.932,+0.708,-0.071,-0.707,+2.188,+9.312,+2.125,-21, 2, 2, -3, -7, -11, -3, 0
1503600563604,+0.014,+0.054,-0.361,-0.931,+0.727,-0.080,-0.707,+5.875,+17.062,+0.812,0, -8, -5, -3, -3, -5, -5, -6
1503600563626,+0.014,+0.056,-0.365,-0.929,+0.740,-0.098,-0.696,+8.438,+22.000,-1.000,3, 10, 5, 0, 2, 4, 1, 1
1503600563641,+0.015,+0.058,-0.369,-0.928,+0.704,-0.114,-0.716,+11.000,+29.938,-3.500,4, -23, -5, -3, 0, -2, -2, -3
1503600563664,+0.018,+0.058,-0.375,-0.925,+0.717,-0.014,-0.735,+13.938,+41.438,-11.438,1, 5, -1, 1, -2, -2, 3, 7
1503600563686,+0.020,+0.061,-0.383,-0.922,+0.733,-0.068,-0.726,+18.562,+49.875,-7.062,4, -9, -4, -1, 0, -5, 1, 0
1503600563701,+0.022,+0.065,-0.389,-0.919,+0.848,-0.081,-0.666,+26.375,+40.125,-3.375,2, 27, 4, 0, -4, -3, 1, 1
1503600563726,+0.025,+0.068,-0.396,-0.916,+0.790,-0.059,-0.655,+26.750,+38.625,-4.750,-17, -9, -2, -5, -2, 1, 0, 9
1503600563753,+0.027,+0.072,-0.401,-0.913,+0.722,-0.083,-0.639,+26.812,+37.125,-4.688,-4, -7, -1, -1, 6, -2, 0, 5
1503600563761,+0.029,+0.076,-0.406,-0.910,+0.673,-0.066,-0.639,+26.188,+39.000,-3.625,0, -1, -6, 0, 1, -3, -9, -7
1503600563791,+0.031,+0.080,-0.415,-0.906,+0.690,-0.062,-0.602,+24.500,+63.125,-2.000,13, -1, -4, 1, 0, 6, 1, 2
1503600563805,+0.032,+0.084,-0.426,-0.900,+0.758,-0.096,-0.569,+25.938,+74.312,-0.625,-27, -17, -5, -2, -3, 5, -3, -1
1503600563822,+0.032,+0.088,-0.434,-0.896,+0.893,-0.145,-0.640,+22.000,+51.938,+4.062,13, -2, 4, -1, 2, -5, -3, -5
1503600563843,+0.035,+0.091,-0.439,-0.893,+0.991,-0.093,-0.535,+22.625,+25.125,-4.125,-1, 0, 0, -3, -1, 3, -2, -3
1503600563865,+0.040,+0.093,-0.441,-0.892,+0.922,-0.045,-0.515,+25.875,+1.938,-16.375,-6, 1, 2, 0, -1, -5, 1, -5
1503600563885,+0.046,+0.095,-0.439,-0.892,+0.811,-0.074,-0.562,+30.875,-11.125,-23.250,12, -17, -3, -3, -3, 0, 0, 1
1503600563903,+0.052,+0.098,-0.438,-0.892,+0.742,-0.099,-0.558,+31.875,-5.812,-22.938,3, 35, 18, 6, -11, 0, 3, -5
1503600563927,+0.058,+0.101,-0.439,-0.891,+0.747,-0.085,-0.562,+30.812,+9.000,-20.312,-2, 1, -2, 9, 2, -3, -5, -2
1503600571897,+0.184,+0.115,-0.414,-0.884,+0.806,-0.035,-0.585,-5.750,-15.688,-2.312,1, -8, -2, -1, 1, -2, 1, -1
1503600571908,+0.184,+0.113,-0.412,-0.885,+0.799,-0.033,-0.594,-5.125,-16.562,-2.188,1, 4, 1, -1, -2, -1, 1, -2
1503600571927,+0.185,+0.112,-0.410,-0.886,+0.781,-0.045,-0.604,-4.000,-13.438,-0.375,0, -6, 3, 2, -1, 1, 0, 0
1503600571950,+0.184,+0.111,-0.408,-0.887,+0.797,-0.054,-0.602,-5.688,-13.000,+0.562,-1, 7, -2, -1, -2, 2, -5, -2
1503600571965,+0.184,+0.110,-0.406,-0.888,+0.784,-0.049,-0.601,-7.875,-12.625,+0.500,0, 4, -3, 1, 0, 1, 0, 3
1503600571988,+0.184,+0.109,-0.404,-0.889,+0.782,-0.036,-0.611,-6.688,-13.750,+1.062,1, 2, 1, -1, 3, -1, -3, -3
1503600572010,+0.183,+0.108,-0.402,-0.890,+0.745,-0.028,-0.612,-4.938,-11.125,+3.562,-7, -6, 2, 0, 1, -1, -2, -3
1503600572026,+0.183,+0.107,-0.401,-0.891,+0.765,-0.025,-0.619,-4.688,-10.312,+2.188,1, -4, -7, -3, -3, -5, 0, 5
1503600572048,+0.183,+0.106,-0.399,-0.892,+0.778,-0.028,-0.621,-3.250,-10.812,+3.062,-2, -4, -1, 1, -3, -1, -4, 0
1503600572070,+0.183,+0.106,-0.398,-0.893,+0.740,-0.025,-0.625,-3.125,-8.438,+1.438,2, -1, -3, 0, 2, -1, 1, -1
1503600572086,+0.183,+0.105,-0.397,-0.893,+0.768,-0.031,-0.606,-2.375,-8.688,+0.125,-4, 1, -1, -2, 0, 2, -1, -2
1503600572110,+0.183,+0.105,-0.395,-0.894,+0.786,-0.036,-0.624,-2.938,-10.188,+1.562,0, 5, -1, -3, 0, -2, -1, -1
1503600572132,+0.183,+0.104,-0.394,-0.895,+0.772,-0.032,-0.636,-2.500,-10.062,+1.312,1, -3, 2, 2, 1, -2, 0, 2
1503600572146,+0.183,+0.104,-0.393,-0.895,+0.765,-0.029,-0.632,-2.250,-6.812,+2.688,-2, -8, -2, -2, -1, -2, -1, -1
1503600572167,+0.182,+0.104,-0.391,-0.896,+0.749,-0.034,-0.625,-0.688,-7.438,+5.125,-1, 0, 3, 1, 0, 1, -2, -1
1503600572197,+0.181,+0.104,-0.390,-0.897,+0.746,-0.025,-0.646,-0.875,-5.438,+6.062,-5, 5, -3, 0, -7, -1, 1, -1
1503600572205,+0.181,+0.104,-0.389,-0.897,+0.740,-0.033,-0.641,-0.312,-2.812,+7.312,-1, -3, -1, -1, 3, 0, 1, 1
1503600572227,+0.180,+0.105,-0.389,-0.898,+0.716,-0.039,-0.648,+1.250,-0.188,+6.750,0, -4, -4, -1, -3, -3, 0, -4
1503600572252,+0.180,+0.106,-0.389,-0.898,+0.709,-0.047,-0.647,+2.750,+3.500,+2.812,-1, -3, -3, -1, 1, -3, -1, -1
1503600572265,+0.180,+0.107,-0.389,-0.897,+0.742,-0.053,-0.644,+3.062,+5.438,+1.688,1, 7, 1, 1, -1, -1, -1, 2
1503600572287,+0.180,+0.108,-0.390,-0.897,+0.726,-0.051,-0.640,+4.125,+11.562,+0.312,0, -1, -1, -1, -1, 0, 1, 1
1503600572318,+0.180,+0.109,-0.392,-0.896,+0.756,-0.049,-0.648,+4.812,+14.812,-0.750,1, 4, -1, -1, -3, -1, -1, 2
1503600572325,+0.181,+0.111,-0.395,-0.894,+0.766,-0.029,-0.638,+7.438,+18.000,-0.125,-2, -6, -1, 0, 0, 0, -4, 0
1503600572347,+0.181,+0.113,-0.397,-0.893,+0.720,-0.039,-0.642,+10.500,+23.062,+0.125,-6, -2, -3, -2, 0, -1, 0, -2
1503600572371,+0.181,+0.115,-0.401,-0.891,+0.686,-0.054,-0.600,+7.812,+31.875,-1.562,5, 10, 5, -1, -2, -1, 2, 1
1503600572392,+0.181,+0.117,-0.406,-0.888,+0.799,-0.044,-0.587,+5.188,+29.250,+1.812,-1, 9, -1, 0, 2, 1, -2, -4
1503600572407,+0.181,+0.119,-0.410,-0.886,+0.855,-0.033,-0.589,+7.875,+29.312,+3.312,0, -1, -4, -2, 0, -2, -1, -1
1503600572430,+0.181,+0.122,-0.414,-0.884,+0.792,-0.058,-0.576,+12.188,+29.000,+0.250,-1, -2, 0, 1, 2, 2, -1, 0
1503600572453,+0.181,+0.125,-0.419,-0.881,+0.812,-0.075,-0.534,+8.938,+29.250,-1.000,-1, 3, -5, -3, -3, -3, -2, -4
1503600572467,+0.181,+0.127,-0.422,-0.879,+0.850,-0.096,-0.544,+4.938,+23.875,+0.188,-1, -7, -3, -2, -3, -1, 0, 1
1503600572490,+0.181,+0.128,-0.426,-0.877,+0.860,-0.089,-0.536,+0.750,+17.875,-1.812,2, -7, -3, -1, -3, 1, 1, 0
1503600572512,+0.181,+0.128,-0.428,-0.876,+0.866,-0.073,-0.555,-1.500,+17.000,-2.750,-2, -6, -4, -2, -1, 0, -2, 0
1503600572527,+0.181,+0.128,-0.431,-0.875,+0.887,-0.061,-0.516,-2.000,+14.438,-1.375,-2, 2, -2, -1, -2, -1, 1, -3
1503600572550,+0.181,+0.129,-0.433,-0.874,+0.900,-0.083,-0.470,-1.250,+5.250,-0.688,3, 3, -2, -2, -2, -2, 2, 5
1503600572565,+0.181,+0.129,-0.433,-0.874,+0.975,-0.079,-0.503,-2.875,-13.750,-0.750,-1, -7, 0, -1, 1, 1, -6, -2
1503600572588,+0.182,+0.127,-0.429,-0.875,+0.863,-0.089,-0.519,-4.688,-27.000,-4.688,-1, -1, 2, -1, -2, -4, -1, -3
1503600572613,+0.184,+0.125,-0.425,-0.878,+0.731,-0.077,-0.574,-6.812,-27.938,-9.438,0, -6, -4, -1, -1, 0, 0, -1
1503600572632,+0.185,+0.122,-0.421,-0.879,+0.795,-0.049,-0.564,-7.125,-26.562,-9.562,1, 1, 1, 1, 0, -1, 0, -1
1503600572647,+0.186,+0.120,-0.418,-0.881,+0.805,-0.055,-0.582,-10.688,-26.562,-6.812,-3, 1, 1, 0, 1, 0, 1, -1
1503600572670,+0.188,+0.117,-0.414,-0.883,+0.757,-0.018,-0.594,-7.500,-27.438,-7.812,-5, -1, -2, -3, -1, -2, 1, -3
1503600572692,+0.188,+0.115,-0.410,-0.885,+0.748,-0.023,-0.600,-7.688,-21.438,-3.562,5, 5, 1, 0, -1, -1, 1, 2
1503600572708,+0.189,+0.113,-0.408,-0.886,+0.775,-0.048,-0.616,-6.438,-16.500,-1.750,-2, 5, 2, -1, -2, -4, -3, 2
1503600572730,+0.189,+0.112,-0.406,-0.887,+0.789,-0.037,-0.586,-7.188,-16.750,-2.062,-2, -4, -1, -1, 0, 1, -1, -1
1503600572752,+0.189,+0.110,-0.404,-0.888,+0.782,-0.022,-0.610,-7.500,-14.250,+0.562,-4, -7, 3, 0, -1, -2, -1, -3
1503600572768,+0.189,+0.109,-0.402,-0.889,+0.782,-0.007,-0.641,-4.562,-12.312,+2.062,-5, -4, -3, -1, 0, 0, -1, -3
1503600572790,+0.188,+0.108,-0.401,-0.890,+0.747,-0.025,-0.606,-2.375,-7.312,+3.688,0, -2, -3, -2, 1, -1, -3, -1
1503600572806,+0.188,+0.108,-0.399,-0.891,+0.756,-0.067,-0.604,-3.250,-7.875,+3.250,-1, -2, 0, 1, 0, 0, 1, -2
1503600572828,+0.187,+0.108,-0.398,-0.892,+0.757,-0.042,-0.617,-5.812,-8.375,+3.062,-3, 7, 1, -2, 0, 2, -2, -4
1503600572850,+0.187,+0.107,-0.397,-0.892,+0.774,-0.025,-0.627,-4.812,-5.250,+3.688,-1, 7, -1, -2, -2, 0, 0, 3
1503600572866,+0.186,+0.107,-0.397,-0.893,+0.788,-0.033,-0.609,-3.500,-6.000,+4.312,0, 9, 0, 0, -2, -1, 2, -1
1503600572889,+0.185,+0.106,-0.396,-0.893,+0.763,-0.037,-0.625,-3.500,-5.438,+4.125,1, -18, -2, 0, 1, 0, -1, 0
1503600572910,+0.185,+0.106,-0.395,-0.894,+0.752,-0.028,-0.628,-2.125,-3.125,+6.125,-2, -1, 1, 0, 1, -2, -3, -2
1503600572926,+0.183,+0.107,-0.394,-0.894,+0.761,-0.036,-0.632,-0.562,-1.375,+8.188,1, 3, -5, -2, 0, 0, -1, 1
1503600572949,+0.182,+0.107,-0.394,-0.894,+0.768,-0.047,-0.620,-1.188,-0.812,+9.312,-5, -7, -2, -1, -5, -2, -1, -3
1503600572970,+0.181,+0.108,-0.394,-0.895,+0.754,-0.040,-0.631,-0.625,-1.875,+9.125,-1, -4, -2, -2, -4, -1, -2, -3
1503600572986,+0.179,+0.109,-0.394,-0.895,+0.771,-0.051,-0.625,+0.625,+1.500,+11.875,-5, -2, -1, 0, -1, 1, -1, -3
1503600573008,+0.178,+0.110,-0.393,-0.895,+0.769,-0.052,-0.620,-0.375,-0.188,+10.500,3, 10, 7, 1, -3, -2, -2, 0
1503600573030,+0.176,+0.111,-0.393,-0.896,+0.770,-0.048,-0.623,-0.250,+0.812,+9.062,-2, -14, -3, -1, 3, -1, -2, -1
1503600573055,+0.175,+0.111,-0.393,-0.896,+0.764,-0.054,-0.615,-0.500,+0.688,+10.438,5, 8, 2, 4, 3, 0, -2, 3
1503600573068,+0.173,+0.112,-0.393,-0.896,+0.770,-0.058,-0.622,+0.000,+1.375,+10.938,-2, -2, -2, -3, -3, 0, -1, 0
1503600573091,+0.172,+0.113,-0.393,-0.896,+0.766,-0.064,-0.621,+0.000,+0.812,+9.438,-3, -2, -4, -3, -5, 2, 0, 0
1503600573106,+0.171,+0.114,-0.393,-0.896,+0.756,-0.062,-0.616,-1.188,+0.812,+10.500,18, 10, 0, -5, -5, -3, 0, 1
1503600573128,+0.169,+0.114,-0.393,-0.897,+0.754,-0.065,-0.626,-0.938,+0.625,+9.438,1, 0, -3, -11, -8, -1, 1, 0
1503600573159,+0.168,+0.115,-0.393,-0.897,+0.763,-0.074,-0.620,-1.500,-0.812,+8.750,-22, -7, -2, 3, 2, 0, -1, -3
1503600573166,+0.167,+0.115,-0.392,-0.897,+0.757,-0.075,-0.626,-1.750,+0.188,+7.188,3, 8, -1, 2, 0, 0, -1, -2
1503600573188,+0.166,+0.116,-0.393,-0.897,+0.782,-0.069,-0.619,-1.938,+0.750,+6.312,2, -5, -1, 8, -1, 0, 0, -4
1503600573210,+0.165,+0.116,-0.393,-0.897,+0.795,-0.073,-0.625,-1.812,-0.250,+8.500,8, -1, -1, -4, -2, -1, -2, 1
1503600573226,+0.163,+0.117,-0.393,-0.898,+0.782,-0.081,-0.619,-0.875,-0.125,+8.312,-4, -6, -3, -2, -8, -3, 0, -1
1503600573251,+0.163,+0.117,-0.392,-0.898,+0.746,-0.082,-0.616,-1.062,-3.000,+6.188,-16, -6, -1, 1, 1, -1, -5, -3
1503600573270,+0.162,+0.117,-0.392,-0.898,+0.750,-0.086,-0.616,-2.625,-0.875,+6.125,-3, -1, -10, -10, -8, -4, -4, -2
