Timestamp,Orientation X,Orientation Y,Orientation Z,Orientation W,Accelerometer X,Accelerometer Y,Accelerometer Z,Gyroscope X,Gyroscope Y,Gyroscope Z,EMG1,EMG2,EMG3,EMG4,EMG5,EMG6,EMG7,EMG8,Roll,Yaw,Window
1503600471350,-0.166,-0.047,-0.238,-0.956,+0.497,+0.020,-0.846,-1.062,+0.562,+0.938,-1, 0, 0, -1, -1, -2, -1, 2,0.3466797961584071,0.4900483867375207,0
1503600471376,-0.166,-0.047,-0.238,-0.956,+0.501,+0.017,-0.847,-0.938,-0.250,+0.812,1, 0, -2, -1, -1, -2, -1, 0,0.3466797961584071,0.4900483867375207,0
1503600471395,-0.166,-0.047,-0.238,-0.956,+0.493,+0.017,-0.845,-0.875,+0.125,+0.500,0, -2, 0, -2, -2, 0, 0, 0,0.3466797961584071,0.4900483867375207,0
1503600471410,-0.166,-0.047,-0.238,-0.956,+0.490,+0.020,-0.847,-0.875,+0.250,+0.375,1, 1, 0, 1, 2, -1, 0, -1,0.3466797961584071,0.4900483867375207,0
1503600471433,-0.166,-0.047,-0.238,-0.956,+0.497,+0.021,-0.852,-0.938,-0.188,+0.312,1, 0, 0, -1, -2, -1, -1, -1,0.3466797961584071,0.4900483867375207,0
1503600471455,-0.166,-0.047,-0.238,-0.956,+0.500,+0.020,-0.848,-1.000,+0.562,+0.250,-1, -1, -3, -1, -1, -1, -3, -1,0.3466797961584071,0.4900483867375207,0
1503600471477,-0.166,-0.047,-0.238,-0.956,+0.495,+0.020,-0.849,-0.938,-0.125,+0.500,-5, -3, -2, -1, 0, 0, -1, -3,0.3466797961584071,0.4900483867375207,0
1503600471519,-0.166,-0.047,-0.238,-0.956,+0.494,+0.014,-0.849,-0.938,+0.312,+0.562,-4, -4, -3, -2, -2, -1, -2, -5,0.3466797961584071,0.4900483867375207,0
1503600471525,-0.166,-0.047,-0.238,-0.956,+0.496,+0.016,-0.850,-1.250,+0.125,+0.250,0, -1, -1, -1, -2, 1, 0, 2,0.3466797961584071,0.4900483867375207,0
1503600471538,-0.166,-0.047,-0.238,-0.956,+0.499,+0.015,-0.848,-1.438,-0.125,+0.438,-1, 1, 0, 0, -1, 0, 2, 0,0.3466797961584071,0.4900483867375207,0
1503600471552,-0.166,-0.047,-0.238,-0.956,+0.498,+0.021,-0.846,-1.188,-0.438,+0.375,-3, 0, 1, 2, 0, -1, -1, -1,0.3466797961584071,0.4900483867375207,0
1503600471575,-0.166,-0.047,-0.238,-0.956,+0.496,+0.016,-0.848,-1.375,+0.312,+0.438,-1, 1, -1, -2, -1, 0, -2, -1,0.3466797961584071,0.4900483867375207,0
1503600471597,-0.166,-0.047,-0.238,-0.956,+0.499,+0.017,-0.850,-0.938,-1.125,+0.500,1, 0, -1, 0, -1, -1, -1, 0,0.3466797961584071,0.4900483867375207,0
1503600471616,-0.166,-0.047,-0.238,-0.956,+0.494,+0.018,-0.845,-1.250,-0.125,+0.500,-3, -2, 0, -1, 0, -2, 1, 1,0.3466797961584071,0.4900483867375207,0
1503600471634,-0.166,-0.047,-0.238,-0.956,+0.493,+0.016,-0.855,-1.062,-0.812,+0.562,0, 0, -1, 1, -2, -1, -2, -1,0.3466797961584071,0.4900483867375207,0
1503600471657,-0.166,-0.047,-0.238,-0.956,+0.490,+0.022,-0.845,-1.312,-0.125,+0.250,1, 1, -2, -1, -1, 0, -2, -1,0.3466797961584071,0.4900483867375207,0
1503600471673,-0.166,-0.047,-0.238,-0.956,+0.492,+0.020,-0.848,-1.375,+0.000,+0.562,-1, -2, -1, -1, 0, -1, -2, -2,0.3466797961584071,0.4900483867375207,0
1503600471694,-0.166,-0.047,-0.238,-0.956,+0.498,+0.019,-0.842,-1.250,-0.062,+0.438,-1, -1, -1, -1, 0, 0, -1, 0,0.3466797961584071,0.4900483867375207,0
1503600471717,-0.166,-0.047,-0.238,-0.956,+0.497,+0.016,-0.850,-1.375,+0.375,+0.500,-2, -1, -1, -1, -1, -1, -1, -6,0.3466797961584071,0.4900483867375207,0
1503600471732,-0.166,-0.047,-0.238,-0.956,+0.495,+0.014,-0.848,-1.000,-0.375,+0.750,1, -2, 0, 0, -1, -2, -1, 1,0.3466797961584071,0.4900483867375207,0
1503600471755,-0.166,-0.047,-0.238,-0.956,+0.490,+0.019,-0.847,-1.125,+0.000,+0.750,-3, 0, -2, -2, 0, 1, 1, -2,0.3466797961584071,0.4900483867375207,0
1503600471777,-0.166,-0.047,-0.238,-0.956,+0.493,+0.016,-0.850,-1.000,+0.812,+0.688,-4, -3, -1, -2, -2, 0, -4, -3,0.3466797961584071,0.4900483867375207,0
1503600471792,-0.166,-0.047,-0.238,-0.956,+0.498,+0.017,-0.845,-1.188,-0.250,+0.625,0, -1, -2, -2, -1, -3, 0, 1,0.3466797961584071,0.4900483867375207,0
1503600471817,-0.166,-0.047,-0.238,-0.956,+0.495,+0.016,-0.849,-1.062,-0.875,+0.562,1, -2, 0, -1, -1, 0, 1, 1,0.3466797961584071,0.4900483867375207,0
1503600471838,-0.166,-0.047,-0.238,-0.956,+0.499,+0.010,-0.850,-1.125,-0.438,+0.250,-2, 1, -1, -2, 0, 0, 2, 1,0.3466797961584071,0.4900483867375207,0
1503600471852,-0.166,-0.047,-0.238,-0.956,+0.485,+0.018,-0.850,-1.375,-0.625,+0.125,1, 0, -2, -1, -1, -1, -1, 1,0.3466797961584071,0.4900483867375207,0
1503600471884,-0.166,-0.047,-0.238,-0.956,+0.497,+0.020,-0.851,-1.500,+0.312,+0.562,4, 2, 0, -2, -1, 0, 0, 4,0.3466797961584071,0.4900483867375207,0
1503600471898,-0.166,-0.047,-0.238,-0.956,+0.491,+0.018,-0.848,-1.188,-0.625,+0.562,0, 0, -1, 0, 2, -1, 0, 2,0.3466797961584071,0.4900483867375207,0
1503600471912,-0.166,-0.047,-0.238,-0.956,+0.492,+0.018,-0.847,-1.188,+0.375,+0.688,-1, -2, -2, 0, -3, -1, -2, -2,0.3466797961584071,0.4900483867375207,0
1503600471934,-0.166,-0.047,-0.238,-0.956,+0.495,+0.014,-0.849,-1.125,-0.312,+0.688,0, -3, -1, 1, -1, -2, -3, -3,0.3466797961584071,0.4900483867375207,0
1503600471957,-0.166,-0.047,-0.238,-0.956,+0.494,+0.023,-0.842,-1.375,+0.625,+0.562,-3, -2, 1, -1, -1, 0, -1, -4,0.3466797961584071,0.4900483867375207,0
1503600471973,-0.166,-0.047,-0.238,-0.956,+0.499,+0.016,-0.848,-0.938,-0.125,+0.500,-2, 0, 1, 0, -2, -1, 0, -2,0.3466797961584071,0.4900483867375207,0
1503600471995,-0.166,-0.047,-0.238,-0.956,+0.493,+0.018,-0.842,-1.062,-0.062,+0.438,-3, -2, -1, -2, 0, -1, -2, -5,0.3466797961584071,0.4900483867375207,0
1503600472017,-0.166,-0.047,-0.238,-0.956,+0.496,+0.018,-0.849,-1.000,-0.125,+0.312,3, 0, -1, 0, -1, -1, 0, 2,0.3466797961584071,0.4900483867375207,0
1503600472033,-0.166,-0.047,-0.238,-0.956,+0.495,+0.018,-0.845,-0.875,-0.250,+0.375,1, 0, -2, -1, -2, -2, -1, -2,0.3466797961584071,0.4900483867375207,0
1503600472054,-0.166,-0.047,-0.238,-0.956,+0.499,+0.017,-0.849,-1.062,+0.125,+0.188,-1, 1, -1, -1, -1, -2, -1, -1,0.3466797961584071,0.4900483867375207,0
1503600472077,-0.166,-0.047,-0.238,-0.956,+0.493,+0.016,-0.849,-1.000,-0.688,+0.250,1, 0, 0, -1, -2, 0, 0, 0,0.3466797961584071,0.4900483867375207,0
1503600472093,-0.166,-0.047,-0.238,-0.956,+0.495,+0.016,-0.849,-1.312,+0.125,+0.375,0, 1, 1, 1, 0, 0, 0, -1,0.3466797961584071,0.4900483867375207,0
1503600472114,-0.166,-0.047,-0.238,-0.956,+0.495,+0.018,-0.849,-1.188,-0.312,+0.562,0, 0, -1, 0, 0, -1, 0, 2,0.3466797961584071,0.4900483867375207,0
1503600472137,-0.166,-0.047,-0.238,-0.956,+0.499,+0.014,-0.843,-1.312,+0.875,+0.562,-2, -3, -1, -1, -1, -1, -1, -2,0.3466797961584071,0.4900483867375207,0
1503600472153,-0.166,-0.047,-0.238,-0.956,+0.498,+0.015,-0.848,-1.188,-0.250,+0.188,-3, -2, -4, -3, 0, -1, -3, -3,0.3466797961584071,0.4900483867375207,0
1503600472174,-0.166,-0.047,-0.238,-0.956,+0.494,+0.022,-0.845,-1.062,-0.750,+0.375,-1, 0, 1, -2, -1, -1, 0, 0,0.3466797961584071,0.4900483867375207,0
1503600472197,-0.166,-0.047,-0.238,-0.956,+0.492,+0.018,-0.848,-1.312,-0.125,+0.500,-1, -1, 0, -1, 0, 0, -1, 0,0.3466797961584071,0.4900483867375207,0
1503600472213,-0.166,-0.047,-0.238,-0.956,+0.497,+0.016,-0.848,-1.312,-0.375,+0.688,-4, 0, -2, 2, 0, -1, -2, -3,0.3466797961584071,0.4900483867375207,0
1503600472234,-0.166,-0.047,-0.238,-0.956,+0.499,+0.018,-0.853,-1.438,+0.000,+0.750,1, -1, 0, 1, 0, 0, 0, 0,0.3466797961584071,0.4900483867375207,0
1503600472258,-0.166,-0.047,-0.238,-0.956,+0.499,+0.017,-0.850,-1.500,-0.188,+0.500,-1, -2, -1, -1, -1, -1, 0, 0,0.3466797961584071,0.4900483867375207,0
1503600472273,-0.166,-0.047,-0.238,-0.956,+0.494,+0.019,-0.849,-1.312,-0.875,+0.438,-2, -1, -1, -1, -1, -1, 0, -1,0.3466797961584071,0.4900483867375207,0
1503600472295,-0.166,-0.047,-0.238,-0.956,+0.490,+0.016,-0.849,-1.438,-0.750,+0.250,1, 1, 0, 0, 1, 1, 1, 4,0.3466797961584071,0.4900483867375207,0
1503600472318,-0.166,-0.047,-0.238,-0.956,+0.494,+0.021,-0.846,-1.375,+0.125,+0.312,-2, -2, -2, 1, 1, -2, -1, -2,0.3466797961584071,0.4900483867375207,0
1503600472333,-0.166,-0.047,-0.238,-0.956,+0.491,+0.018,-0.856,-1.250,-0.312,+0.438,-3, -2, -3, -2, 0, 0, -1, -4,0.3466797961584071,0.4900483867375207,0
1503600472354,-0.166,-0.047,-0.238,-0.956,+0.493,+0.019,-0.844,-1.125,+0.188,+0.312,0, -1, -2, -1, -2, 0, -2, -1,0.3466797961584071,0.4900483867375207,0
1503600472378,-0.166,-0.047,-0.238,-0.956,+0.495,+0.019,-0.853,-1.188,+0.438,+0.750,0, 1, -1, -1, -1, 0, -1, 0,0.3466797961584071,0.4900483867375207,0
1503600472393,-0.166,-0.047,-0.238,-0.956,+0.501,+0.018,-0.853,-0.938,+0.438,+0.500,0, 1, 0, -1, 0, -1, 1, 0,0.3466797961584071,0.4900483867375207,0
1503600472414,-0.166,-0.047,-0.238,-0.956,+0.500,+0.015,-0.845,-1.062,+0.250,+0.250,2, 0, 0, -3, 0, 1, -1, 2,0.3466797961584071,0.4900483867375207,0
1503600472437,-0.166,-0.047,-0.238,-0.956,+0.499,+0.019,-0.844,-1.188,-0.250,+0.500,0, -1, -2, -2, -3, -2, 0, -2,0.3466797961584071,0.4900483867375207,0
1503600472454,-0.166,-0.047,-0.238,-0.956,+0.497,+0.013,-0.848,-1.000,-0.688,+0.312,-2, 0, 2, -1, -1, 0, -2, -3,0.3466797961584071,0.4900483867375207,0
1503600472474,-0.166,-0.047,-0.238,-0.956,+0.487,+0.016,-0.848,-1.438,-0.438,+0.375,1, 0, -1, 0, -2, 0, -1, 1,0.3466797961584071,0.4900483867375207,0
1503600472497,-0.166,-0.047,-0.238,-0.956,+0.495,+0.018,-0.854,-1.438,+0.000,+0.438,1, -1, -1, 0, 0, 0, 0, 0,0.3466797961584071,0.4900483867375207,0
1503600472513,-0.166,-0.047,-0.238,-0.956,+0.494,+0.022,-0.844,-1.312,-0.312,+0.438,-4, -2, 0, -1, -1, -1, 0, -2,0.3466797961584071,0.4900483867375207,0
1503600472534,-0.166,-0.047,-0.238,-0.956,+0.493,+0.017,-0.850,-1.438,+0.188,+0.562,-1, 0, 1, 0, -1, -1, 0, 1,0.3466797961584071,0.4900483867375207,0
1503600472557,-0.166,-0.047,-0.238,-0.956,+0.492,+0.020,-0.847,-1.250,+0.250,+0.750,3, -1, 0, 0, -2, 0, -1, 3,0.3466797961584071,0.4900483867375207,0
1503600472573,-0.166,-0.047,-0.238,-0.956,+0.498,+0.021,-0.845,-1.250,-0.312,+0.875,-4, -1, -1, 1, 0, -1, -3, -5,0.3466797961584071,0.4900483867375207,0
1503600472595,-0.166,-0.047,-0.238,-0.956,+0.496,+0.016,-0.844,-1.062,+0.000,+0.438,-3, -1, -2, 0, 1, -1, -1, -1,0.3466797961584071,0.4900483867375207,0
1503600472617,-0.166,-0.047,-0.238,-0.956,+0.496,+0.012,-0.850,-1.062,-0.500,+0.625,-2, -2, -1, -1, -1, -2, -3, -3,0.3466797961584071,0.4900483867375207,0
1503600472633,-0.166,-0.047,-0.238,-0.956,+0.494,+0.018,-0.850,-1.188,-0.250,+0.188,-1, 0, -2, -1, -2, 0, -2, 0,0.3466797961584071,0.4900483867375207,0
1503600472655,-0.166,-0.047,-0.238,-0.956,+0.492,+0.016,-0.854,-1.125,+1.125,+0.188,-1, 3, -1, -1, 1, -1, 1, -3,0.3466797961584071,0.4900483867375207,0
1503600472677,-0.166,-0.047,-0.238,-0.956,+0.498,+0.018,-0.852,-0.875,-0.688,+0.062,1, -3, 1, 0, 1, -1, -1, 0,0.3466797961584071,0.4900483867375207,0
1503600472693,-0.166,-0.047,-0.238,-0.956,+0.489,+0.020,-0.842,-0.875,+0.375,+0.375,1, 0, 0, 0, 0, 0, 1, 1,0.3466797961584071,0.4900483867375207,0
1503600472715,-0.166,-0.047,-0.238,-0.956,+0.487,+0.012,-0.851,-0.750,+0.250,+0.750,-2, 0, -1, -1, -3, -1, -2, -2,0.3466797961584071,0.4900483867375207,0
1503600472738,-0.166,-0.047,-0.238,-0.956,+0.499,+0.011,-0.852,-1.062,+0.062,+0.812,2, -2, 1, 0, -1, -3, 0, 0,0.3466797961584071,0.4900483867375207,0
1503600472753,-0.166,-0.047,-0.238,-0.956,+0.502,+0.012,-0.843,-1.312,+0.312,+0.688,-1, -1, -3, -1, -2, 0, -1, -1,0.3466797961584071,0.4900483867375207,0
1503600472774,-0.166,-0.047,-0.238,-0.956,+0.498,+0.016,-0.846,-1.500,-0.250,+0.438,1, 1, 0, -2, -2, 0, -2, 1,0.3466797961584071,0.4900483867375207,0
1503600472797,-0.166,-0.047,-0.238,-0.956,+0.495,+0.018,-0.849,-1.438,-0.312,+0.500,-1, -1, 0, -2, -1, -1, 0, 0,0.3466797961584071,0.4900483867375207,0
1503600472813,-0.166,-0.047,-0.238,-0.956,+0.494,+0.019,-0.846,-1.375,-0.438,+0.625,-2, -1, -1, 0, -1, -2, -1, -5,0.3466797961584071,0.4900483867375207,0
1503600472834,-0.166,-0.047,-0.238,-0.956,+0.498,+0.019,-0.844,-1.375,-0.500,+0.438,0, -1, -2, -2, -1, 1, -1, -1,0.3466797961584071,0.4900483867375207,0
1503600472857,-0.166,-0.047,-0.238,-0.956,+0.499,+0.019,-0.845,-1.312,-0.375,+0.500,1, 1, -1, -1, 0, -2, -2, -2,0.3466797961584071,0.4900483867375207,0
1503600472873,-0.166,-0.047,-0.238,-0.956,+0.493,+0.018,-0.846,-1.250,-0.438,+0.250,0, 0, -1, -1, 1, -1, -1, 0,0.3466797961584071,0.4900483867375207,0
1503600472895,-0.166,-0.047,-0.238,-0.956,+0.494,+0.020,-0.844,-1.375,-0.062,+0.375,-2, -3, -1, 0, 0, -1, 0, 0,0.3466797961584071,0.4900483867375207,0
1503600472917,-0.166,-0.047,-0.238,-0.956,+0.498,+0.020,-0.849,-1.312,-0.125,+0.250,-2, -1, 1, -2, -1, -2, -2, -1,0.3466797961584071,0.4900483867375207,0
1503600472933,-0.166,-0.047,-0.238,-0.956,+0.497,+0.015,-0.841,-1.438,-0.438,+0.500,-1, -2, -1, 0, -2, -2, 0, 0,0.3466797961584071,0.4900483867375207,0
1503600472957,-0.166,-0.047,-0.238,-0.956,+0.491,+0.019,-0.851,-1.375,+0.062,+0.438,-1, 1, -2, -2, -1, -1, 1, 0,0.3466797961584071,0.4900483867375207,0
1503600472977,-0.166,-0.047,-0.238,-0.956,+0.499,+0.018,-0.851,-1.312,-0.375,+0.375,2, -1, -1, 0, -1, -1, 2, 2,0.3466797961584071,0.4900483867375207,0
1503600472993,-0.166,-0.047,-0.238,-0.956,+0.495,+0.022,-0.847,-1.438,+0.000,+0.250,-3, -4, -2, 0, -1, 1, -3, -3,0.3466797961584071,0.4900483867375207,0
1503600473015,-0.166,-0.047,-0.238,-0.956,+0.500,+0.020,-0.859,-0.938,-0.625,+0.688,-1, 1, 2, 0, 1, 1, -1, 1,0.3466797961584071,0.4900483867375207,0
1503600473039,-0.166,-0.047,-0.238,-0.956,+0.493,+0.019,-0.845,-1.000,-0.250,+0.312,-1, 0, -1, -1, 0, -2, -1, -1,0.3466797961584071,0.4900483867375207,0
1503600473054,-0.166,-0.047,-0.238,-0.956,+0.497,+0.016,-0.852,-1.125,-0.312,+0.750,0, -2, -2, -2, -1, -1, 0, 0,0.3466797961584071,0.4900483867375207,0
1503600473075,-0.166,-0.047,-0.238,-0.956,+0.496,+0.021,-0.842,-1.062,-0.188,+0.250,-2, -2, -2, 0, -2, -1, -3, -3,0.3466797961584071,0.4900483867375207,0
1503600473097,-0.166,-0.047,-0.238,-0.956,+0.491,+0.017,-0.852,-1.188,-0.500,+0.562,2, 0, -2, -1, -1, 0, 2, 0,0.3466797961584071,0.4900483867375207,0
1503600473115,-0.166,-0.047,-0.238,-0.956,+0.487,+0.020,-0.846,-1.375,-0.375,+0.438,-1, 0, -3, -1, -1, 0, 0, -3,0.3466797961584071,0.4900483867375207,0
1503600473135,-0.166,-0.047,-0.238,-0.956,+0.497,+0.017,-0.856,-1.312,-0.188,+0.688,2, 1, 0, -1, -3, -1, 1, 2,0.3466797961584071,0.4900483867375207,0
1503600473161,-0.166,-0.047,-0.238,-0.956,+0.490,+0.017,-0.848,-1.125,-0.875,+0.438,0, -1, -1, -1, -1, 0, -3, -1,0.3466797961584071,0.4900483867375207,0
1503600473173,-0.166,-0.047,-0.238,-0.956,+0.484,+0.019,-0.852,-1.562,+0.438,+0.562,0, 0, -1, -1, -2, 1, -2, 0,0.3466797961584071,0.4900483867375207,0
1503600473195,-0.166,-0.047,-0.238,-0.956,+0.491,+0.020,-0.849,-1.375,+0.188,+0.750,-2, -1, 0, -1, -1, 0, 0, -1,0.3466797961584071,0.4900483867375207,0
1503600473217,-0.166,-0.047,-0.238,-0.956,+0.500,+0.013,-0.849,-1.438,+1.000,+0.562,-2, 0, 1, 2, 2, -1, -1, -1,0.3466797961584071,0.4900483867375207,0
1503600473234,-0.166,-0.047,-0.238,-0.956,+0.501,+0.016,-0.850,-1.062,-0.250,+0.125,0, -1, -2, -2, -2, 0, -2, -1,0.3466797961584071,0.4900483867375207,0
1503600473255,-0.166,-0.047,-0.238,-0.956,+0.492,+0.020,-0.844,-1.250,+0.188,+0.062,1, 0, -3, -2, -1, -2, -1, 0,0.3466797961584071,0.4900483867375207,0
1503600473277,-0.166,-0.047,-0.238,-0.956,+0.498,+0.018,-0.850,-1.062,+0.562,-0.062,1, 1, 1, 1, 1, 0, -1, 0,0.3466797961584071,0.4900483867375207,0
1503600473293,-0.166,-0.047,-0.238,-0.956,+0.504,+0.022,-0.846,-0.875,+0.250,-0.062,-2, -2, -1, -2, -1, -1, -2, -2,0.3466797961584071,0.4900483867375207,0
1503600473315,-0.166,-0.047,-0.238,-0.956,+0.499,+0.019,-0.847,-0.812,+0.188,+0.062,-2, 0, -1, 0, -1, -1, -1, -6,0.3466797961584071,0.4900483867375207,0
1503600473337,-0.166,-0.047,-0.239,-0.956,+0.498,+0.018,-0.841,-0.625,-0.688,+0.062,-2, -1, 1, 0, -1, -2, -3, -4,0.3467682042869778,0.4921842928409747,0
1503600473353,-0.166,-0.047,-0.239,-0.956,+0.493,+0.013,-0.849,-1.125,-0.500,+0.188,-1, -1, -1, -1, 0, -3, 0, -2,0.3467682042869778,0.4921842928409747,0
1503600473375,-0.166,-0.047,-0.238,-0.956,+0.493,+0.015,-0.853,-1.250,-0.750,+0.062,2, -2, -1, -1, -1, -1, -2, 2,0.3466797961584071,0.4900483867375207,0
1503600473397,-0.166,-0.047,-0.238,-0.956,+0.492,+0.017,-0.850,-1.750,-0.125,+0.250,2, -2, -2, 0, -1, -2, 0, 4,0.3466797961584071,0.4900483867375207,0
1503600473413,-0.166,-0.047,-0.238,-0.956,+0.499,+0.019,-0.848,-1.562,+0.062,+0.312,-2, 0, -2, -1, 0, 0, -2, -2,0.3466797961584071,0.4900483867375207,0
1503600473436,-0.166,-0.047,-0.238,-0.956,+0.502,+0.023,-0.852,-1.250,-1.062,+0.438,1, 0, 0, 0, -1, -1, 1, 2,0.3466797961584071,0.4900483867375207,0
1503600473457,-0.166,-0.047,-0.238,-0.956,+0.490,+0.019,-0.844,-1.250,-0.625,+0.250,1, 2, -1, -1, -1, 0, 1, 0,0.3466797961584071,0.4900483867375207,0
1503600473473,-0.166,-0.047,-0.238,-0.956,+0.492,+0.021,-0.854,-1.000,-0.875,+0.562,-1, -1, -1, -2, -1, 0, 0, 0,0.3466797961584071,0.4900483867375207,0
1503600473495,-0.166,-0.047,-0.238,-0.956,+0.489,+0.021,-0.843,-1.125,-0.375,+0.500,-2, -1, -2, -2, -2, -1, -2, -2,0.3466797961584071,0.4900483867375207,0
1503600473517,-0.166,-0.047,-0.238,-0.956,+0.499,+0.015,-0.849,-1.375,+0.250,+0.625,1, 0, -1, 1, 0, -2, -1, 1,0.3466797961584071,0.4900483867375207,0
1503600473534,-0.166,-0.047,-0.238,-0.956,+0.500,+0.017,-0.853,-1.250,-1.188,+0.250,-1, 0, -2, -1, -1, -3, 0, -3,0.3466797961584071,0.4900483867375207,0
1503600473555,-0.166,-0.047,-0.238,-0.956,+0.487,+0.018,-0.851,-1.562,-0.375,+0.250,-2, 0, 1, 0, 1, -1, 0, -2,0.3466797961584071,0.4900483867375207,0
1503600473577,-0.166,-0.047,-0.238,-0.956,+0.490,+0.017,-0.851,-1.438,+0.062,+0.438,-2, 0, 1, 0, -1, 1, 1, 0,0.3466797961584071,0.4900483867375207,0
1503600473595,-0.166,-0.047,-0.238,-0.956,+0.492,+0.021,-0.843,-1.250,+0.000,+0.438,0, -1, -1, -1, -1, 0, 1, -1,0.3466797961584071,0.4900483867375207,0
1503600473615,-0.166,-0.047,-0.238,-0.956,+0.496,+0.018,-0.854,-1.125,+0.250,+0.062,0, -2, -1, 0, -1, 0, -2, 1,0.3466797961584071,0.4900483867375207,0
1503600473638,-0.166,-0.047,-0.238,-0.956,+0.496,+0.021,-0.851,-0.875,-0.938,+0.000,-1, -1, 0, -1, 0, -1, -2, -4,0.3466797961584071,0.4900483867375207,0
1503600473653,-0.166,-0.047,-0.238,-0.956,+0.494,+0.015,-0.847,-1.188,-0.188,+0.312,1, -1, 0, -2, -1, 1, -1, -1,0.3466797961584071,0.4900483867375207,0
1503600473675,-0.166,-0.047,-0.238,-0.956,+0.493,+0.020,-0.848,-1.188,+0.312,+0.125,2, 2, 0, 0, -1, 0, 1, 0,0.3466797961584071,0.4900483867375207,0
1503600473697,-0.166,-0.047,-0.238,-0.956,+0.491,+0.015,-0.851,-1.312,-0.438,+0.438,-1, 0, 0, 0, -1, -2, -1, 1,0.3466797961584071,0.4900483867375207,0
1503600473713,-0.166,-0.047,-0.238,-0.956,+0.495,+0.024,-0.848,-1.562,+0.500,+0.125,-3, -5, -2, -2, -3, 0, -1, 0,0.3466797961584071,0.4900483867375207,0
1503600473736,-0.166,-0.047,-0.238,-0.956,+0.496,+0.017,-0.851,-1.250,+0.000,+0.375,-1, -1, -1, -2, -1, -1, -3, -2,0.3466797961584071,0.4900483867375207,0
1503600473757,-0.166,-0.047,-0.238,-0.956,+0.495,+0.016,-0.848,-1.188,-0.250,+0.250,1, 1, 0, 1, 0, -1, 1, 2,0.3466797961584071,0.4900483867375207,0
1503600473773,-0.166,-0.047,-0.238,-0.956,+0.494,+0.020,-0.844,-1.312,+0.562,+0.375,1, 1, 0, -1, 1, -2, 1, 0,0.3466797961584071,0.4900483867375207,0
1503600473797,-0.166,-0.047,-0.238,-0.956,+0.493,+0.018,-0.850,-1.312,-0.125,+0.812,0, -1, -1, 0, -1, 1, 0, 1,0.3466797961584071,0.4900483867375207,0
1503600473817,-0.166,-0.047,-0.238,-0.956,+0.496,+0.018,-0.843,-1.438,+0.562,+0.562,-3, -4, -2, -1, -1, -1, -2, -3,0.3466797961584071,0.4900483867375207,0
1503600473833,-0.166,-0.047,-0.238,-0.956,+0.498,+0.021,-0.848,-1.125,-0.438,+0.562,2, 6, 1, 1, 0, -1, 0, 0,0.3466797961584071,0.4900483867375207,0
1503600473855,-0.166,-0.047,-0.238,-0.956,+0.498,+0.021,-0.848,-1.125,+0.062,+0.438,0, 1, -3, -2, -2, -1, -2, 1,0.3466797961584071,0.4900483867375207,0
1503600473878,-0.166,-0.047,-0.238,-0.956,+0.497,+0.019,-0.852,-0.938,-0.125,+0.375,-1, -3, -2, -2, -2, -2, -1, 0,0.3466797961584071,0.4900483867375207,0
1503600473893,-0.166,-0.047,-0.238,-0.956,+0.494,+0.021,-0.850,-0.875,-0.625,+0.562,-2, -1, 1, 0, 0, -2, 1, -1,0.3466797961584071,0.4900483867375207,0
1503600473916,-0.166,-0.047,-0.238,-0.956,+0.490,+0.020,-0.847,-1.062,-0.062,+0.375,-1, -1, 0, -1, -2, -1, -2, -1,0.3466797961584071,0.4900483867375207,0
1503600473939,-0.166,-0.047,-0.238,-0.956,+0.492,+0.015,-0.849,-1.062,-0.625,+0.625,1, 0, 2, 2, 0, 1, 0, -1,0.3466797961584071,0.4900483867375207,0
1503600473953,-0.166,-0.047,-0.238,-0.956,+0.498,+0.015,-0.853,-1.438,+0.125,+0.562,-3, 0, 0, -1, 0, 0, -2, -2,0.3466797961584071,0.4900483867375207,0
1503600473975,-0.166,-0.047,-0.238,-0.956,+0.496,+0.019,-0.848,-1.438,-0.188,+0.438,-3, -4, -1, -1, 0, 1, 0, -3,0.3466797961584071,0.4900483867375207,0
1503600473998,-0.166,-0.047,-0.238,-0.956,+0.498,+0.021,-0.843,-1.250,-0.625,+0.500,0, -2, 0, 1, 0, -1, 0, 2,0.3466797961584071,0.4900483867375207,0
1503600474013,-0.166,-0.047,-0.238,-0.956,+0.495,+0.017,-0.854,-1.375,-0.125,+0.250,-1, 0, -1, 0, -1, -1, 1, 1,0.3466797961584071,0.4900483867375207,0
1503600474037,-0.166,-0.047,-0.238,-0.956,+0.497,+0.021,-0.847,-1.375,-0.750,+0.312,-2, -3, -2, -1, -1, -2, -4, -3,0.3466797961584071,0.4900483867375207,0
1503600474058,-0.166,-0.047,-0.238,-0.956,+0.495,+0.019,-0.849,-1.250,-0.375,+0.375,-4, -1, -3, -2, -2, -2, -1, -3,0.3466797961584071,0.4900483867375207,0
1503600474074,-0.166,-0.047,-0.238,-0.956,+0.490,+0.018,-0.854,-1.250,-0.625,+0.562,3, 1, 1, -2, -2, -2, -1, -1,0.3466797961584071,0.4900483867375207,0
1503600474096,-0.166,-0.047,-0.238,-0.956,+0.491,+0.016,-0.846,-1.250,-0.500,+0.688,-1, -3, -3, -3, -2, -2, -1, -2,0.3466797961584071,0.4900483867375207,0
1503600474117,-0.166,-0.047,-0.238,-0.956,+0.491,+0.019,-0.847,-1.250,-0.062,+0.562,-1, -3, -1, -2, 1, 1, -1, -1,0.3466797961584071,0.4900483867375207,0
1503600474139,-0.166,-0.047,-0.238,-0.956,+0.491,+0.020,-0.858,-1.062,-0.938,+0.625,-2, 0, -2, -2, -1, 0, 0, -1,0.3466797961584071,0.4900483867375207,0
1503600474155,-0.166,-0.047,-0.238,-0.956,+0.492,+0.024,-0.843,-1.438,+0.562,+0.625,2, 3, 2, 0, -2, 1, 0, 4,0.3466797961584071,0.4900483867375207,0
1503600474177,-0.166,-0.047,-0.238,-0.956,+0.497,+0.015,-0.850,-1.062,-0.125,+0.500,-2, 0, -2, 0, -1, -1, -1, -3,0.3466797961584071,0.4900483867375207,0
1503600474193,-0.166,-0.047,-0.238,-0.956,+0.492,+0.018,-0.845,-1.062,-0.062,+0.312,-1, -1, 0, 0, -1, -2, -2, -1,0.3466797961584071,0.4900483867375207,0
1503600474215,-0.166,-0.047,-0.238,-0.956,+0.495,+0.020,-0.857,-0.938,+0.188,+0.375,-3, -2, -1, 0, 0, 0, -1, -2,0.3466797961584071,0.4900483867375207,0
1503600474244,-0.166,-0.047,-0.238,-0.956,+0.498,+0.018,-0.846,-0.812,-0.062,+0.250,0, 1, 0, -1, -1, -1, 0, -2,0.3466797961584071,0.4900483867375207,0
1503600474253,-0.166,-0.047,-0.238,-0.956,+0.494,+0.012,-0.850,-1.188,+0.500,+0.375,-3, -1, 0, 2, 1, -1, 1, -2,0.3466797961584071,0.4900483867375207,0
1503600474277,-0.166,-0.047,-0.238,-0.956,+0.494,+0.018,-0.857,-1.000,-0.375,+0.375,-2, -2, -1, -2, -1, -1, -3, -2,0.3466797961584071,0.4900483867375207,0
1503600474300,-0.166,-0.047,-0.238,-0.956,+0.496,+0.019,-0.842,-1.250,+0.312,+0.562,-1, -2, -1, -2, -2, -1, -1, -3,0.3466797961584071,0.4900483867375207,0
1503600474313,-0.166,-0.047,-0.238,-0.956,+0.498,+0.015,-0.853,-1.062,-0.125,+0.500,-3, 1, 2, 1, -1, 0, -3, -4,0.3466797961584071,0.4900483867375207,0
1503600474340,-0.166,-0.047,-0.238,-0.956,+0.492,+0.023,-0.854,-1.312,+0.188,+0.500,-1, -1, -2, -1, 1, -1, 1, 0,0.3466797961584071,0.4900483867375207,0
1503600474357,-0.166,-0.047,-0.238,-0.956,+0.497,+0.017,-0.850,-1.188,-0.188,+0.812,-2, -2, -3, 0, -1, -2, -2, -3,0.3466797961584071,0.4900483867375207,0
1503600474373,-0.166,-0.047,-0.238,-0.956,+0.495,+0.020,-0.851,-1.188,-0.188,+0.500,-1, 0, 0, -1, 0, 0, -1, 0,0.3466797961584071,0.4900483867375207,0
1503600474395,-0.166,-0.047,-0.238,-0.956,+0.495,+0.021,-0.851,-1.188,+0.375,+0.438,0, -1, 0, 0, -2, -1, -2, -2,0.3466797961584071,0.4900483867375207,0
1503600474417,-0.166,-0.047,-0.238,-0.956,+0.500,+0.019,-0.855,-0.875,-0.500,+0.500,-1, -1, 1, -1, 0, -1, -2, 1,0.3466797961584071,0.4900483867375207,0
1503600474435,-0.166,-0.047,-0.238,-0.956,+0.490,+0.026,-0.845,-1.000,+0.625,+0.438,1, 0, -2, 0, -1, 0, -1, 2,0.3466797961584071,0.4900483867375207,0
1503600474455,-0.166,-0.047,-0.238,-0.956,+0.502,+0.016,-0.853,-0.812,+0.312,+0.750,0, -3, -3, -3, -4, -1, -1, -2,0.3466797961584071,0.4900483867375207,0
1503600474478,-0.166,-0.047,-0.238,-0.956,+0.502,+0.019,-0.842,-0.750,-0.312,+0.562,-1, -2, 1, -1, 1, -2, -1, -2,0.3466797961584071,0.4900483867375207,0
1503600474493,-0.166,-0.047,-0.238,-0.956,+0.496,+0.019,-0.850,-0.938,-0.375,+0.500,-1, 0, 0, 0, 0, 0, 0, 0,0.3466797961584071,0.4900483867375207,0
1503600474515,-0.166,-0.047,-0.238,-0.956,+0.495,+0.012,-0.855,-1.000,-0.688,+0.438,0, 0, 0, -2, -1, -2, -1, -1,0.3466797961584071,0.4900483867375207,0
1503600474538,-0.166,-0.047,-0.238,-0.956,+0.492,+0.017,-0.846,-1.375,-0.188,+0.250,1, 1, 1, -2, 0, -1, 0, 1,0.3466797961584071,0.4900483867375207,0
1503600474553,-0.166,-0.047,-0.238,-0.956,+0.493,+0.021,-0.850,-1.562,+0.250,+0.312,-4, 0, -1, -1, -1, 0, 0, -2,0.3466797961584071,0.4900483867375207,0
1503600474575,-0.166,-0.047,-0.238,-0.956,+0.495,+0.019,-0.853,-1.312,-0.688,+0.500,0, 0, -1, 0, 0, -1, 0, 1,0.3466797961584071,0.4900483867375207,0
1503600474597,-0.166,-0.047,-0.238,-0.956,+0.493,+0.026,-0.846,-1.250,-0.500,+0.250,-1, -1, 0, -1, 0, 0, -1, 1,0.3466797961584071,0.4900483867375207,0
1503600474613,-0.166,-0.047,-0.238,-0.956,+0.494,+0.015,-0.852,-1.188,-0.750,+0.562,-1, -3, -1, 0, -2, -1, -1, -2,0.3466797961584071,0.4900483867375207,0
1503600474638,-0.166,-0.047,-0.238,-0.956,+0.492,+0.015,-0.846,-1.312,-0.812,+0.438,0, 2, -2, -2, -2, 0, 1, -2,0.3466797961584071,0.4900483867375207,0
1503600474657,-0.166,-0.047,-0.238,-0.956,+0.490,+0.022,-0.853,-1.438,-0.438,+0.438,1, -1, 0, -1, 1, -1, -1, 2,0.3466797961584071,0.4900483867375207,0
1503600474679,-0.166,-0.047,-0.238,-0.956,+0.491,+0.014,-0.854,-1.000,-1.000,+0.625,-5, -2, -2, 0, -1, -3, -3, -4,0.3466797961584071,0.4900483867375207,0
1503600474695,-0.166,-0.047,-0.238,-0.956,+0.492,+0.021,-0.845,-1.500,+0.312,+0.250,-2, -1, 0, 0, 0, 0, -2, -1,0.3466797961584071,0.4900483867375207,0
1503600474718,-0.166,-0.047,-0.238,-0.956,+0.488,+0.014,-0.854,-0.812,-0.875,+0.750,0, 0, -3, -1, -3, -1, -1, -1,0.3466797961584071,0.4900483867375207,0
1503600474740,-0.166,-0.047,-0.238,-0.956,+0.487,+0.017,-0.852,-1.125,+0.625,+0.625,-1, -1, -1, 0, 0, -1, 1, -1,0.3466797961584071,0.4900483867375207,0
1503600474762,-0.166,-0.047,-0.238,-0.956,+0.499,+0.014,-0.857,-1.125,+0.250,+0.625,-1, -1, -2, -2, -1, -1, -3, -4,0.3466797961584071,0.4900483867375207,0
1503600474779,-0.166,-0.047,-0.238,-0.956,+0.498,+0.016,-0.839,-0.875,-0.500,+0.438,-3, -3, -2, 1, -1, 1, -1, -2,0.3466797961584071,0.4900483867375207,0
1503600474800,-0.166,-0.047,-0.238,-0.956,+0.497,+0.016,-0.850,-1.312,+0.500,+0.312,-2, -1, -1, 0, -2, -1, 0, 0,0.3466797961584071,0.4900483867375207,0
1503600474815,-0.166,-0.047,-0.238,-0.956,+0.495,+0.017,-0.854,-1.000,-0.938,+0.438,-1, -2, 0, -1, -2, 0, -1, 2,0.3466797961584071,0.4900483867375207,0
1503600474838,-0.166,-0.047,-0.238,-0.956,+0.496,+0.023,-0.847,-1.250,-0.375,+0.500,2, 0, 2, 1, -1, -2, 0, 0,0.3466797961584071,0.4900483867375207,0
1503600474860,-0.166,-0.047,-0.238,-0.956,+0.496,+0.020,-0.846,-1.250,+0.375,+0.250,1, 0, 1, -1, 0, -1, -1, -1,0.3466797961584071,0.4900483867375207,0
1503600474875,-0.166,-0.047,-0.238,-0.956,+0.492,+0.020,-0.850,-1.000,-1.000,+0.562,0, 1, 0, -2, 0, 0, -1, -2,0.3466797961584071,0.4900483867375207,0
1503600474898,-0.166,-0.047,-0.238,-0.956,+0.488,+0.019,-0.849,-1.312,+0.500,+0.438,-8, -4, -4, -1, -1, -1, -2, -8,0.3466797961584071,0.4900483867375207,0
1503600474920,-0.166,-0.047,-0.238,-0.956,+0.496,+0.013,-0.856,-0.875,-0.625,+0.750,-1, -3, 1, 0, 1, 1, 1, -1,0.3466797961584071,0.4900483867375207,0
1503600474944,-0.166,-0.047,-0.238,-0.956,+0.496,+0.019,-0.841,-1.250,+0.750,+0.500,-1, 0, -2, -3, -1, 0, -2, -4,0.3466797961584071,0.4900483867375207,0
1503600474958,-0.166,-0.047,-0.238,-0.956,+0.496,+0.016,-0.861,-1.188,-0.062,+0.625,1, 1, -2, -1, -2, -1, -3, 2,0.3466797961584071,0.4900483867375207,0
1503600474980,-0.166,-0.047,-0.238,-0.956,+0.497,+0.022,-0.839,-0.938,-0.188,+0.688,0, -1, 0, 1, 0, -1, 2, 2,0.3466797961584071,0.4900483867375207,0
1503600474995,-0.166,-0.047,-0.238,-0.956,+0.498,+0.015,-0.847,-1.062,+0.438,+0.500,-2, 1, 1, -1, 0, -1, -1, -3,0.3466797961584071,0.4900483867375207,0
1503600475018,-0.166,-0.047,-0.238,-0.956,+0.498,+0.019,-0.848,-0.688,-0.625,+0.250,-3, -1, -1, -2, 1, -1, 0, 1,0.3466797961584071,0.4900483867375207,0
1503600475040,-0.166,-0.047,-0.238,-0.956,+0.490,+0.021,-0.845,-1.125,+0.375,+0.250,-1, -2, -1, -1, -1, -2, 0, 0,0.3466797961584071,0.4900483867375207,0
1503600475055,-0.166,-0.047,-0.238,-0.956,+0.497,+0.021,-0.853,-0.812,-0.875,+0.438,-1, 0, -1, 1, 0, 1, -1, 3,0.3466797961584071,0.4900483867375207,0
1503600475078,-0.166,-0.047,-0.238,-0.956,+0.487,+0.016,-0.843,-0.875,-0.250,+0.375,2, -1, -1, -1, -1, -2, -1, 0,0.3466797961584071,0.4900483867375207,0
1503600475100,-0.166,-0.047,-0.238,-0.956,+0.494,+0.016,-0.854,-1.375,+0.812,+0.188,2, 0, -2, -2, -2, -2, 0, 2,0.3466797961584071,0.4900483867375207,0
1503600475115,-0.166,-0.047,-0.238,-0.956,+0.496,+0.017,-0.850,-1.125,-0.688,+0.438,1, -2, 1, 0, -1, 0, 0, 0,0.3466797961584071,0.4900483867375207,0
1503600475145,-0.166,-0.047,-0.238,-0.956,+0.497,+0.023,-0.842,-1.625,+0.812,+0.250,-2, 0, 0, -1, 0, -2, -2, -2,0.3466797961584071,0.4900483867375207,0
1503600475160,-0.166,-0.047,-0.238,-0.956,+0.499,+0.016,-0.849,-1.188,-0.438,+0.375,3, 1, 1, -1, -1, 1, 0, 1,0.3466797961584071,0.4900483867375207,0
1503600475176,-0.166,-0.047,-0.238,-0.956,+0.495,+0.021,-0.846,-1.125,-1.000,+0.438,-1, 0, -3, 0, -1, -2, -1, -1,0.3466797961584071,0.4900483867375207,0
1503600475198,-0.166,-0.047,-0.238,-0.956,+0.494,+0.015,-0.846,-1.438,-0.250,+0.375,-1, 0, -1, -1, 0, 0, 1, 2,0.3466797961584071,0.4900483867375207,0
1503600475220,-0.166,-0.047,-0.238,-0.956,+0.492,+0.019,-0.846,-1.438,-0.875,+0.625,-6, -3, -1, 0, 0, -1, -3, -6,0.3466797961584071,0.4900483867375207,0
1503600475235,-0.166,-0.047,-0.238,-0.956,+0.493,+0.019,-0.851,-1.375,-0.562,+0.688,1, -1, -2, -1, 0, -2, -3, -1,0.3466797961584071,0.4900483867375207,0
1503600475258,-0.166,-0.047,-0.238,-0.956,+0.489,+0.019,-0.850,-1.500,-0.062,+0.375,1, 0, -2, -3, 0, -1, 0, -1,0.3466797961584071,0.4900483867375207,0
1503600475280,-0.166,-0.047,-0.238,-0.956,+0.496,+0.022,-0.850,-1.375,-0.500,+0.812,-1, -3, -2, -2, -2, -2, -3, -1,0.3466797961584071,0.4900483867375207,0
1503600475296,-0.166,-0.047,-0.238,-0.956,+0.493,+0.015,-0.847,-1.125,-0.188,+1.000,-1, -1, -1, 0, 0, -1, 2, 0,0.3466797961584071,0.4900483867375207,0
1503600475318,-0.166,-0.047,-0.238,-0.956,+0.496,+0.010,-0.842,-1.125,+0.062,+0.688,-3, -2, 1, 0, -1, -1, -1, -2,0.3466797961584071,0.4900483867375207,0
1503600475345,-0.166,-0.047,-0.238,-0.956,+0.496,+0.015,-0.851,-1.375,+0.250,+0.500,2, 0, -1, 0, -2, 1, -1, -1,0.3466797961584071,0.4900483867375207,0
1503600475355,-0.166,-0.047,-0.238,-0.956,+0.494,+0.017,-0.850,-1.250,-0.312,+0.125,-1, 1, -2, 0, -1, 0, -2, -1,0.3466797961584071,0.4900483867375207,0
1503600475378,-0.166,-0.047,-0.238,-0.956,+0.490,+0.019,-0.852,-1.312,+0.125,+0.438,-1, 1, -2, -3, -1, 0, -1, 0,0.3466797961584071,0.4900483867375207,0
1503600475400,-0.166,-0.047,-0.238,-0.956,+0.489,+0.023,-0.854,-1.000,-0.562,+0.625,-3, -3, -2, 0, -1, -2, -2, -4,0.3466797961584071,0.4900483867375207,0
1503600475416,-0.166,-0.047,-0.238,-0.956,+0.492,+0.022,-0.842,-1.125,+0.500,+0.688,1, 1, 0, -2, 0, 0, 1, 1,0.3466797961584071,0.4900483867375207,0
1503600475438,-0.166,-0.047,-0.238,-0.956,+0.496,+0.014,-0.854,-1.188,-0.438,+0.938,0, -1, 1, 1, 0, 3, 0, 3,0.3466797961584071,0.4900483867375207,0
1503600475460,-0.166,-0.047,-0.238,-0.956,+0.494,+0.024,-0.842,-1.312,-0.375,+1.000,-1, 0, -1, -2, 1, 0, 1, 1,0.3466797961584071,0.4900483867375207,0
1503600475479,-0.166,-0.047,-0.238,-0.956,+0.488,+0.022,-0.847,-1.312,+0.000,+1.188,-3, -1, -1, -2, -2, -2, 0, -1,0.3466797961584071,0.4900483867375207,0
1503600475498,-0.166,-0.047,-0.238,-0.956,+0.494,+0.015,-0.846,-1.188,+0.250,+0.938,-1, -1, -1, -1, -3, -2, -2, -4,0.3466797961584071,0.4900483867375207,0
1503600475520,-0.166,-0.047,-0.238,-0.956,+0.500,+0.019,-0.843,-1.062,-0.438,+0.688,-1, -1, -1, -2, 0, 0, -1, -1,0.3466797961584071,0.4900483867375207,0
1503600475534,-0.166,-0.047,-0.238,-0.956,+0.491,+0.020,-0.847,-1.062,-0.500,+0.562,0, -3, -2, -2, 0, -2, -1, 0,0.3466797961584071,0.4900483867375207,0
1503600475557,-0.166,-0.047,-0.238,-0.956,+0.492,+0.016,-0.850,-0.938,-0.375,+0.250,-2, -1, -1, 1, -1, -1, 0, -2,0.3466797961584071,0.4900483867375207,0
1503600475579,-0.166,-0.047,-0.238,-0.956,+0.491,+0.017,-0.841,-1.000,+0.250,+0.125,0, -1, 0, -3, 1, -1, 0, 1,0.3466797961584071,0.4900483867375207,0
1503600475594,-0.166,-0.047,-0.238,-0.956,+0.498,+0.012,-0.855,-1.000,-0.438,+0.062,-1, 1, -2, -1, -1, -2, 1, 2,0.3466797961584071,0.4900483867375207,0
1503600475617,-0.166,-0.047,-0.238,-0.956,+0.488,+0.020,-0.845,-1.188,+0.062,-0.125,0, -1, -2, -1, -1, -1, -1, -3,0.3466797961584071,0.4900483867375207,0
1503600475639,-0.166,-0.047,-0.238,-0.956,+0.494,+0.016,-0.854,-1.062,-0.250,+0.250,0, -1, 1, 0, 0, 1, 1, -1,0.3466797961584071,0.4900483867375207,0
1503600475654,-0.166,-0.047,-0.238,-0.956,+0.496,+0.019,-0.847,-1.375,+0.250,+0.312,-1, -2, -2, -1, -2, -1, -3, -1,0.3466797961584071,0.4900483867375207,0
1503600475677,-0.166,-0.047,-0.238,-0.956,+0.497,+0.017,-0.842,-1.438,+0.562,+0.375,-1, 0, 0, -2, -2, -1, -1, -2,0.3466797961584071,0.4900483867375207,0
1503600475707,-0.166,-0.047,-0.238,-0.956,+0.505,+0.018,-0.847,-1.188,-0.438,+0.625,0, 1, 0, 0, 0, 2, -1, 0,0.3466797961584071,0.4900483867375207,0
1503600475722,-0.166,-0.047,-0.238,-0.956,+0.498,+0.019,-0.842,-1.438,-0.438,+0.438,-2, -1, -2, -1, 0, 1, -3, -2,0.3466797961584071,0.4900483867375207,0
1503600475744,-0.166,-0.047,-0.238,-0.956,+0.496,+0.017,-0.847,-1.250,-0.688,+0.500,0, -1, -1, 0, -1, 0, 0, -2,0.3466797961584071,0.4900483867375207,0
1503600475759,-0.166,-0.047,-0.238,-0.956,+0.494,+0.017,-0.846,-1.250,-1.250,+0.562,-1, 0, -2, 0, -1, 1, -2, -1,0.3466797961584071,0.4900483867375207,0
1503600475774,-0.166,-0.047,-0.238,-0.956,+0.494,+0.015,-0.843,-1.500,+0.062,+0.500,-4, -1, -1, -2, -1, -2, -3, -2,0.3466797961584071,0.4900483867375207,0
1503600475797,-0.166,-0.047,-0.238,-0.956,+0.493,+0.017,-0.861,-1.125,-0.688,+0.500,0, 1, 0, -1, -1, 0, -1, 0,0.3466797961584071,0.4900483867375207,0
1503600475820,-0.166,-0.047,-0.238,-0.956,+0.485,+0.020,-0.850,-1.250,-0.375,+0.250,2, 0, 0, 0, -1, -2, 1, 4,0.3466797961584071,0.4900483867375207,0
1503600475834,-0.166,-0.047,-0.238,-0.956,+0.486,+0.014,-0.852,-1.375,+0.250,+0.562,-3, -4, -2, -1, 0, -1, 0, -2,0.3466797961584071,0.4900483867375207,0
1503600475857,-0.166,-0.047,-0.238,-0.956,+0.487,+0.020,-0.846,-1.312,+0.062,+0.625,-1, -2, -1, 0, -2, -1, 2, 1,0.3466797961584071,0.4900483867375207,0
1503600475879,-0.166,-0.047,-0.239,-0.956,+0.499,+0.019,-0.848,-1.562,+1.062,+0.750,0, -2, -2, -2, 0, -1, -1, -2,0.3467682042869778,0.4921842928409747,0
1503600475894,-0.166,-0.047,-0.239,-0.956,+0.495,+0.018,-0.846,-1.125,+0.188,+0.562,1, 2, 0, -1, 0, -1, 0, 0,0.3467682042869778,0.4921842928409747,0
1503600475917,-0.166,-0.047,-0.239,-0.956,+0.503,+0.011,-0.850,-1.125,-0.312,+0.500,-3, -3, -1, 0, -3, -2, -2, -5,0.3467682042869778,0.4921842928409747,0
1503600475939,-0.166,-0.047,-0.239,-0.956,+0.493,+0.021,-0.847,-1.188,-0.750,+0.250,-3, 0, -1, 0, -1, 0, 1, -2,0.3467682042869778,0.4921842928409747,0
1503600475954,-0.166,-0.047,-0.239,-0.956,+0.493,+0.015,-0.848,-1.062,-0.125,+0.625,-2, -3, 0, 0, 1, 0, -1, -1,0.3467682042869778,0.4921842928409747,0
1503600475979,-0.166,-0.047,-0.239,-0.956,+0.497,+0.019,-0.848,-1.250,-0.250,+0.625,1, 0, 0, -1, 0, -1, -2, 2,0.3467682042869778,0.4921842928409747,0
1503600475999,-0.166,-0.047,-0.239,-0.956,+0.497,+0.017,-0.851,-1.375,-0.250,+0.500,0, -1, -1, -2, -1, 1, 0, -1,0.3467682042869778,0.4921842928409747,0
1503600476015,-0.166,-0.047,-0.239,-0.956,+0.493,+0.018,-0.849,-1.375,-0.188,+0.312,2, 0, -1, -2, -1, -2, -1, 0,0.3467682042869778,0.4921842928409747,0
1503600476037,-0.166,-0.047,-0.239,-0.956,+0.492,+0.015,-0.847,-1.375,-0.375,+0.500,0, 3, 0, -2, 1, 0, 1, -3,0.3467682042869778,0.4921842928409747,0
1503600476059,-0.166,-0.047,-0.239,-0.956,+0.484,+0.011,-0.856,-1.812,+2.750,+0.500,-2, 1, 2, -5, -7, 7, 2, 0,0.3467682042869778,0.4921842928409747,0
1503600476074,-0.166,-0.048,-0.241,-0.955,+0.468,+0.011,-0.866,-4.125,+17.250,-1.000,-6, -2, -2, -2, 1, 69, 3, -2,0.34715068542199284,0.49641960238122784,0
1503600476097,-0.166,-0.050,-0.245,-0.954,+0.500,+0.033,-0.852,-5.688,+25.562,+1.250,-34, -3, -4, 1, 2, -57, -21, -7,0.34825458486238425,0.5053296606492877,0
1503600476119,-0.167,-0.051,-0.247,-0.953,+0.565,+0.081,-0.827,-5.438,+6.938,+4.500,23, -11, -5, -5, -8, 8, 2, 1,0.35068295630509055,0.5096673488597818,0
1503600476135,-0.168,-0.050,-0.246,-0.953,+0.525,+0.033,-0.825,+3.000,-6.375,+6.250,7, -5, -1, -3, -6, 56, -1, -1,0.35207604113249114,0.5072193504071136,0
1503600476157,-0.168,-0.049,-0.245,-0.954,+0.503,-0.023,-0.807,+3.375,-10.875,+3.062,-9, 7, 9, 6, 16, 48, 3, 3,0.3517693372827582,0.5051148147626314,0
1503600476180,-0.167,-0.048,-0.242,-0.955,+0.474,+0.050,-0.911,+3.312,-11.312,-2.188,7, 5, 6, 3, -11, -115, -5, -1,0.3492636319738941,0.49864347299729966,0
1503600476194,-0.166,-0.047,-0.241,-0.955,+0.400,+0.023,-0.854,+6.750,-1.375,-6.625,-15, -3, 0, -2, -5, -43, -1, -3,0.34663276825702505,0.49603715951153965,0
1503600476217,-0.164,-0.046,-0.242,-0.955,+0.514,-0.007,-0.842,+6.500,+6.938,-6.562,6, -2, 0, -1, -5, -28, -5, -7,0.3421612537012742,0.4976345203230055,0
1503600476239,-0.164,-0.045,-0.244,-0.955,+0.560,+0.029,-0.881,+4.750,+6.312,-2.000,-8, -3, -8, -3, -13, -110, -11, -3,0.3418138143160542,0.5015439243437978,0
1503600476256,-0.163,-0.044,-0.246,-0.954,+0.533,+0.032,-0.844,+7.312,+11.750,+1.750,6, 4, -5, -5, -4, 22, 2, 2,0.33913418316479094,0.5049544343425643,0
1503600476277,-0.164,-0.043,-0.250,-0.953,+0.557,+0.032,-0.833,+11.375,+19.562,+8.438,4, 1, 4, 1, 13, 56, 1, 2,0.3406443507360784,0.5128223369446857,0
1503600476299,-0.166,-0.042,-0.256,-0.952,+0.606,+0.054,-0.841,+12.062,+25.562,+17.375,4, 1, -10, -7, 5, 20, 8, -2,0.34431217234330497,0.5250959859445508,0
1503600476323,-0.168,-0.040,-0.263,-0.949,+0.649,+0.101,-0.833,+18.312,+33.688,+25.375,4, -1, -10, -2, 1, 1, 10, 8,0.34685157816024276,0.5383070370483661,0
1503600476337,-0.172,-0.036,-0.268,-0.947,+0.593,+0.104,-0.902,+25.812,+29.938,+36.312,-1, -14, -13, 1, 2, 15, 3, -19,0.35242404091239915,0.5470417745878788,0
1503600476360,-0.174,-0.035,-0.277,-0.945,+0.440,+0.172,-0.903,+24.875,+59.062,+22.688,2, -4, -12, 1, 5, 75, 5, 9,0.35584423225598333,0.5655144868693377,0
1503600476382,-0.175,-0.031,-0.294,-0.939,+0.507,+0.139,-0.815,+36.625,+104.938,+27.625,1, 19, 6, -11, -14, -48, -10, -5,0.3546161624645595,0.5987013825115084,0
1503600476397,-0.176,-0.025,-0.315,-0.932,+0.678,+0.199,-0.849,+52.438,+117.562,+23.688,2, -4, 0, 14, 0, -19, 0, 6,0.35174718476311806,0.6400816540024963,0
1503600476420,-0.173,-0.016,-0.329,-0.928,+0.761,+0.156,-0.811,+84.625,+74.125,+22.312,6, -1, 22, 18, 16, -54, -4, 6,0.33927546848518053,0.6667118593310412,0
1503600476442,-0.168,-0.004,-0.346,-0.923,+0.789,+0.131,-0.697,+99.500,+80.250,+11.750,3, -3, -6, -9, -10, 32, 2, 4,0.3202133939610528,0.6995917091178884,0
1503600476457,-0.166,+0.013,-0.361,-0.918,+0.729,+0.063,-0.711,+114.625,+73.312,+36.812,-7, -19, 6, -9, -13, 43, -8, -12,0.303095239233394,0.7278303572584467,0
1503600476479,-0.164,+0.030,-0.374,-0.912,+0.682,+0.071,-0.752,+108.375,+68.000,+30.062,-6, 8, -9, 13, 34, 97, 12, 5,0.2850073105655466,0.7522549042998801,0
1503600476502,-0.164,+0.053,-0.382,-0.908,+0.818,-0.040,-0.797,+132.750,+26.500,+55.562,-4, 8, -4, 3, -11, -40, -3, -36,0.26705089875244653,0.7663949234842722,0
1503600476517,-0.163,+0.079,-0.387,-0.904,+0.879,-0.132,-0.740,+149.938,+10.000,+57.562,-23, 25, 2, -10, -20, 43, 10, -1,0.2449413936499283,0.7750910364997433,0
1503600476540,-0.159,+0.108,-0.389,-0.901,+0.732,-0.202,-0.729,+164.875,-8.000,+49.625,46, 44, 34, 9, 55, 56, -8, 6,0.21526231432146217,0.7798815500086342,0
1503600476562,-0.154,+0.138,-0.387,-0.898,+0.650,-0.293,-0.688,+173.250,-35.438,+50.188,8, -4, 20, 0, 6, -24, -5, 5,0.18355890183136878,0.7779256158941805,0
1503600476577,-0.149,+0.170,-0.387,-0.894,+0.563,-0.391,-0.631,+179.938,-22.812,+48.938,-9, 14, -20, -8, -32, 45, -6, -10,0.1490667406023391,0.7843342660701071,0
1503600476599,-0.144,+0.201,-0.391,-0.887,+0.574,-0.508,-0.557,+183.250,+6.125,+47.125,11, -27, -24, -5, -76, -125, -5, -9,0.11149995188266333,0.8032559522480311,0
1503600476622,-0.140,+0.233,-0.397,-0.877,+0.624,-0.531,-0.495,+192.938,+23.250,+48.500,-13, 91, 77, 28, 36, 15, 3, -6,0.07093970939573968,0.8308351941848621,0
1503600476637,-0.137,+0.267,-0.408,-0.862,+0.518,-0.594,-0.473,+209.125,+58.938,+64.812,22, 22, 30, -10, -77, 8, -7, -14,0.022336030412282656,0.8767148404405942,0
1503600476659,-0.134,+0.304,-0.417,-0.846,+0.575,-0.810,-0.429,+222.125,+46.125,+65.750,8, -12, -38, -14, -13, 67, 15, 13,-0.034388483041820364,0.9279918893077777,0
1503600476683,-0.133,+0.335,-0.428,-0.829,+0.491,-0.977,-0.366,+193.250,+74.188,+64.812,29, -113, -81, -17, -46, -128, 1, -2,-0.08926298177079756,0.987824454274653,0
1503600476697,-0.129,+0.369,-0.434,-0.811,+0.645,-0.748,-0.485,+217.562,+42.000,+66.062,21, -96, -1, 36, 12, -68, 12, 50,-0.15858595237073714,1.0478059826954258,0
1503600476719,-0.129,+0.404,-0.434,-0.795,+0.869,-0.870,-0.125,+200.812,+11.562,+102.250,-85, 35, -28, 2, -19, -74, -61, -14,-0.22353964917410568,1.1017800696287152,0
1503600476742,-0.129,+0.442,-0.428,-0.778,+0.567,-0.856,-0.120,+205.438,-14.500,+125.812,-15, -9, -72, -24, -69, -10, -31, -11,-0.2991336908961345,1.1562076076425991,0
1503600476757,-0.130,+0.477,-0.422,-0.760,+0.367,-0.820,-0.016,+198.812,-4.500,+118.812,21, -56, 27, 1, -77, -85, -13, -5,-0.38140195381533054,1.220965248990242,0
1503600476779,-0.127,+0.519,-0.418,-0.735,+0.405,-0.921,+0.040,+256.812,+2.062,+119.375,-25, 121, 58, 9, -16, -77, -47, -45,-0.5227228275627293,1.3431066713009285,0
1503600476795,-0.122,+0.566,-0.417,-0.701,+0.312,-0.855,+0.374,+313.125,+25.062,+120.875,11, -87, -14, -2, 27, -50, 28, -38,-0.7401964673437074,1.545025489855426,0
1503600476819,-0.122,+0.609,-0.418,-0.663,+0.218,-0.822,+0.561,+299.625,+61.375,+128.250,1, -65, -78, -24, 76, 127, 88, 17,-0.9889937937677744,1.7919554409103906,0
1503600476839,-0.093,+0.652,-0.424,-0.622,+0.927,-1.438,-0.194,+395.000,-4.688,+3.688,29, -28, -44, -15, -8, -2, -6, -9,-1.2765451295847245,2.0474904850931908,0
1503600476862,-0.129,+0.670,-0.395,-0.615,+0.105,-0.662,+1.079,-29.125,+35.125,+289.062,22, 20, 85, 27, 108, 127, 127, 97,-1.3869478459234093,2.1614264939039836,0
1503600476877,-0.180,+0.663,-0.377,-0.622,-0.692,-1.198,+0.841,-195.500,+117.250,+217.750,86, -76, 2, -33, -54, -14, 3, 2,-1.3703867897262936,2.187847978847839,0
1503600476899,-0.230,+0.634,-0.363,-0.642,+0.717,-0.358,+0.212,-312.875,+131.250,+163.875,-54, -34, -97, -89, -128, -128, -44, -7,-1.0700134757095996,1.939732069730135,0
1503600476922,-0.258,+0.614,-0.340,-0.664,+0.420,-0.471,+0.095,-251.562,-6.250,+126.688,1, 76, -16, 29, 78, 106, 34, 2,-0.5858078286787798,1.461299591200294,0
1503600476936,-0.269,+0.601,-0.314,-0.684,-0.156,-0.783,+0.050,-186.188,-78.812,+75.125,18, 110, 101, 77, 87, 89, -42, -2,-0.07089456434343931,0.9228182678772278,0
1503600476960,-0.275,+0.588,-0.302,-0.699,-0.253,-0.686,-0.262,-132.562,-33.750,+11.438,-43, -39, 9, 2, 31, 28, -9, -21,0.1841890026150086,0.6645668180015782,0
1503600476982,-0.276,+0.575,-0.294,-0.712,-0.047,-0.888,-0.159,-113.125,-30.125,-9.062,-25, -24, -16, 11, 42, 1, -17, 0,0.28655036918506305,0.5480493561464468,0
1503600477004,-0.269,+0.562,-0.294,-0.725,+0.231,-0.755,-0.425,-66.438,-25.188,-64.500,-26, -43, -20, -18, -2, 1, -8, 15,0.2604771212332793,0.5651729367827125,0
1503600477028,-0.258,+0.553,-0.291,-0.737,+0.173,-0.921,-0.186,-60.000,-57.750,-72.062,-30, 17, -1, -15, 9, 10, 2, -22,0.22509174766386705,0.5802906687303258,0
1503600477042,-0.245,+0.544,-0.291,-0.748,+0.159,-0.996,-0.197,-53.438,-47.250,-89.938,-7, 25, 27, 13, -22, 3, -9, -12,0.1715555443943951,0.6153203779319344,0
1503600477057,-0.231,+0.534,-0.292,-0.759,+0.264,-1.005,-0.152,-59.500,-41.750,-93.062,33, 37, 12, -3, -9, 46, 8, 7,0.11956957580968396,0.6488580554668714,0
1503600477079,-0.218,+0.523,-0.295,-0.769,+0.271,-1.014,-0.130,-67.438,-35.688,-98.562,24, -20, 3, 1, -9, -10, -8, -9,0.07450405202781021,0.6803311970154232,0
1503600477102,-0.204,+0.509,-0.297,-0.781,+0.323,-1.017,-0.121,-76.875,-35.500,-110.250,5, 6, 0, -4, -7, -14, -2, -5,0.0408747488992929,0.6980628938929926,0
1503600477117,-0.193,+0.493,-0.303,-0.793,+0.354,-1.043,-0.181,-86.000,-8.562,-111.375,-5, 7, -8, -4, 4, 16, 10, 10,0.016702891644399618,0.7209891322012827,0
1503600477139,-0.182,+0.475,-0.309,-0.804,+0.434,-1.035,-0.207,-93.750,-1.062,-109.062,0, 5, 3, 1, 18, 9, 0, 16,-0.0018528399404789918,0.735837748021186,0
1503600477162,-0.171,+0.455,-0.316,-0.815,+0.473,-1.070,-0.215,-100.062,-2.500,-115.750,-14, -7, -14, -10, -19, -29, -7, -4,-0.01673878851558391,0.749517481194106,0
1503600477177,-0.159,+0.433,-0.323,-0.826,+0.415,-1.040,-0.237,-111.875,+3.250,-133.562,8, 17, -1, -2, 7, 8, 4, 6,-0.02967133684943876,0.760212235072472,0
1503600477199,-0.149,+0.407,-0.334,-0.837,+0.412,-1.015,-0.299,-129.312,+28.000,-136.625,16, -5, 0, 8, 12, 11, 14, -28,-0.03594478695028502,0.7766143454812544,0
1503600477222,-0.144,+0.379,-0.348,-0.846,+0.490,-0.908,-0.332,-139.812,+63.500,-122.312,-18, 3, -2, -9, 5, 4, -1, 11,-0.029988950827205072,0.7950318902811423,0
1503600477237,-0.139,+0.351,-0.364,-0.852,+0.618,-0.758,-0.420,-134.438,+80.562,-120.188,9, -8, 18, 5, 7, -15, 22, 12,-0.026110357267333625,0.8190772452610845,0
1503600477262,-0.131,+0.322,-0.378,-0.858,+0.603,-0.703,-0.447,-130.625,+67.188,-137.875,26, 10, -9, -3, 6, -2, 9, -21,-0.024570755400632607,0.8389529418156656,0
1503600477282,-0.121,+0.291,-0.393,-0.864,+0.559,-0.638,-0.447,-133.375,+64.688,-149.312,-22, -12, -9, -11, -8, 5, -7, 22,-0.024501058539139756,0.8621581486393404,0
1503600477297,-0.115,+0.260,-0.411,-0.866,+0.560,-0.568,-0.466,-134.562,+100.312,-134.938,-1, -6, 1, -3, -10, -13, 24, 8,-0.017341852907389262,0.8911035725062423,0
1503600477322,-0.113,+0.231,-0.432,-0.864,+0.639,-0.471,-0.410,-127.188,+127.250,-117.000,-5, 2, 3, 1, -1, 9, -3, -16,-0.00497840863644107,0.9279292602245626,0
1503600477342,-0.106,+0.204,-0.451,-0.862,+0.801,-0.383,-0.565,-105.875,+109.562,-123.375,-14, 4, -4, 1, -11, -9, -18, -16,-0.0014134013327812057,0.963760784947374,0
1503600477357,-0.096,+0.177,-0.467,-0.861,+0.669,-0.308,-0.613,-98.438,+92.875,-142.875,29, 19, -1, 0, 0, -11, -4, 4,-6.52947513890694e-06,0.993927925280319,0
1503600477379,-0.087,+0.151,-0.482,-0.859,+0.649,-0.248,-0.534,-96.750,+86.312,-129.812,10, 9, 7, 4, 6, 5, -17, -2,0.00415431036420762,1.0224649903587086,0
1503600477402,-0.082,+0.128,-0.500,-0.852,+0.791,-0.171,-0.481,-84.812,+122.000,-96.438,0, -11, -9, -6, -5, -3, -27, 21,0.012295665441842478,1.0585988531414698,0
1503600477416,-0.077,+0.111,-0.520,-0.844,+0.868,-0.125,-0.414,-53.250,+127.812,-87.688,-7, -6, -2, -10, -1, -1, 4, -4,0.015085518751249265,1.1032292428999522,0
1503600477439,-0.065,+0.094,-0.532,-0.839,+0.958,-0.157,-0.452,-39.188,+73.562,-115.188,17, 4, -3, -3, -6, -1, 7, 4,0.009296584544848323,1.129152926047806,0
1503600477462,-0.050,+0.076,-0.540,-0.837,+0.836,-0.083,-0.481,-41.625,+50.312,-129.000,-8, 4, -9, -8, -10, -8, -17, -1,0.0016472640492645808,1.1461940365999905,0
1503600477477,-0.039,+0.060,-0.548,-0.833,+0.795,+0.016,-0.540,-29.562,+64.125,-100.000,-19, -14, -3, 3, 6, 0, -2, -1,-0.000794133348525887,1.1631864172772297,0
1503600477499,-0.031,+0.050,-0.559,-0.827,+0.908,+0.033,-0.429,-15.312,+80.188,-62.750,0, -5, 3, 5, 9, 11, 6, -2,-0.0046582106744955075,1.1889401623954403,0
1503600477523,-0.023,+0.046,-0.568,-0.822,+1.092,-0.070,-0.264,+6.812,+52.500,-53.500,-16, -11, 3, 0, 3, -4, 6, -5,-0.014519794650044165,1.21095193155668,0
1503600477537,-0.012,+0.039,-0.573,-0.818,+1.070,-0.081,-0.362,+3.250,+37.875,-72.688,3, -2, 7, -4, -2, -1, -17, 3,-0.0251404373584608,1.2222540884270026,0
1503600477560,-0.002,+0.032,-0.576,-0.817,+0.843,+0.011,-0.425,+1.000,+31.250,-71.250,7, -3, -12, -3, -1, -1, 0, -4,-0.0336525062039806,1.2293673432295125,0
1503600477582,+0.006,+0.028,-0.579,-0.815,+0.852,+0.066,-0.440,+10.562,+29.500,-43.562,-3, -15, -2, 1, 5, 26, 11, 15,-0.04224817392822602,1.2364702867427422,0
1503600477599,+0.010,+0.029,-0.585,-0.810,+1.038,+0.065,-0.162,+17.812,+37.812,-11.688,6, -8, 3, 3, 3, -29, -17, -5,-0.05018235585509281,1.2511592916154515,0
1503600477619,+0.013,+0.032,-0.591,-0.806,+1.186,-0.081,-0.233,+25.188,+31.312,-9.562,-51, 4, -4, -6, -11, -12, -3, 4,-0.0588525425952581,1.2665612802252613,0
1503600477642,+0.018,+0.031,-0.591,-0.806,+1.032,-0.047,-0.278,+13.062,+1.188,-27.625,15, 9, 47, 18, 3, -3, 4, 6,-0.06573234113615177,1.2665261331183815,0
1503600477658,+0.023,+0.030,-0.588,-0.808,+0.886,+0.049,-0.283,+13.562,-18.375,-19.688,17, -3, -13, -3, -2, -11, 4, -28,-0.0725282073200068,1.2589939619238533,0
1503600477679,+0.026,+0.033,-0.586,-0.809,+0.927,+0.024,-0.298,+20.312,-6.562,-0.375,17, 8, -10, -10, -21, 0, 29, 2,-0.08085338727854716,1.2543529057777234,0
1503600477702,+0.026,+0.038,-0.588,-0.808,+1.048,-0.058,-0.167,+23.062,+1.000,+12.875,-13, 0, -3, -8, -23, 1, 16, -1,-0.0868541305357852,1.2602123021192624,0
1503600477717,+0.027,+0.042,-0.589,-0.807,+1.086,-0.095,-0.213,+18.000,+6.812,+8.000,-7, -8, -19, -5, 0, -4, -19, -9,-0.09324906980488425,1.263286727358454,0
1503600477739,+0.028,+0.043,-0.588,-0.807,+0.985,-0.045,-0.227,+10.750,-8.375,-3.438,21, 3, -2, 1, 2, -9, -11, 0,-0.09597120541020243,1.2607566743790466,0
1503600477762,+0.031,+0.045,-0.587,-0.808,+0.910,-0.048,-0.266,+13.750,-8.625,-4.375,1, -11, -6, 0, 9, 7, -1, 13,-0.10317668124961785,1.258835529610745,0
1503600477777,+0.032,+0.048,-0.586,-0.808,+0.962,-0.092,-0.270,+18.188,-0.688,-0.500,-16, 6, 7, 1, 7, 1, -7, -2,-0.10826643804228445,1.2567220904917904,0
1503600477802,+0.033,+0.051,-0.588,-0.807,+1.032,-0.123,-0.225,+11.875,+9.750,-1.000,-15, -11, -7, -3, 3, 2, 4, -11,-0.11358885128066291,1.2624820611458671,0
1503600477815,+0.033,+0.052,-0.591,-0.805,+1.010,-0.076,-0.200,+4.062,+12.625,-1.438,33, 30, -5, 1, 2, 12, -2, 1,-0.11496082304146775,1.2701925866065114,0
1503600477837,+0.034,+0.052,-0.591,-0.804,+0.985,-0.044,-0.232,+5.188,+3.562,-1.875,28, 12, 4, -2, 3, -9, 0, 0,-0.11650948255897707,1.269872992817327,0
1503600477861,+0.035,+0.053,-0.592,-0.804,+0.983,-0.034,-0.247,+5.375,+4.312,-3.750,-13, -37, -18, 1, 2, 1, -4, -9,-0.11942908502994773,1.272862363825278,0
1503600477882,+0.037,+0.053,-0.592,-0.803,+0.958,-0.032,-0.232,+5.438,+2.938,-5.562,-24, -4, 0, -3, 0, 0, -5, -4,-0.12258573218183222,1.2725766824932656,0
1503600477897,+0.038,+0.055,-0.594,-0.802,+0.972,-0.056,-0.243,+7.500,+10.250,-1.938,4, 3, -3, -4, -3, -1, 8, 14,-0.1267478524610639,1.278197923630876,0
1503600477919,+0.038,+0.056,-0.595,-0.801,+0.982,-0.072,-0.242,+6.312,+11.812,+4.062,-41, 1, 6, 5, 13, -1, -6, 0,-0.12799132590197196,1.2808309762525036,0
1503600477941,+0.038,+0.057,-0.597,-0.799,+0.974,-0.048,-0.225,+3.188,+11.438,+0.312,-5, -15, -2, -4, -7, -2, -4, -12,-0.12927716812989348,1.2858786405565656,0
1503600477959,+0.039,+0.057,-0.598,-0.799,+0.974,-0.022,-0.212,+2.500,+5.062,-1.250,-6, 23, 30, 5, -2, -2, -2, 5,-0.13099642214848028,1.2886546861157853,0
1503600477979,+0.039,+0.058,-0.598,-0.798,+0.947,-0.044,-0.244,+1.812,+6.375,+3.125,7, -7, -10, -5, -1, 10, -5, -6,-0.13213609702045395,1.288564184482728,0
1503600478001,+0.038,+0.059,-0.599,-0.797,+0.960,-0.064,-0.208,+2.000,+6.312,+4.000,11, 8, -4, 1, 0, 6, -1, 6,-0.13179134825755673,1.2911930451102713,0
1503600478017,+0.038,+0.060,-0.600,-0.797,+0.997,-0.051,-0.215,-0.375,+8.125,+1.938,10, -2, 1, -2, -1, -12, 2, -1,-0.13313086940026894,1.2941907610384407,0
1503600478039,+0.038,+0.059,-0.601,-0.797,+0.978,-0.010,-0.237,+0.188,+0.750,+0.625,-36, -16, -2, 0, -1, -1, -3, 4,-0.13202557276665552,1.296687548725465,0
1503600478062,+0.039,+0.060,-0.600,-0.797,+0.952,-0.020,-0.232,+2.812,-3.750,+3.312,4, 6, -10, -6, -8, -3, 4, 17,-0.13473311336184984,1.294223563322766,0
1503600478077,+0.038,+0.061,-0.600,-0.797,+0.990,-0.036,-0.210,+3.875,-1.062,+5.938,-24, -3, -4, -4, -4, -14, 2, 6,-0.1343540005228473,1.2944445865533705,0
1503600478099,+0.038,+0.062,-0.599,-0.797,+0.999,-0.030,-0.220,+2.188,-2.875,+7.812,17, -12, -8, -3, -1, 3, 5, -14,-0.13545482884539445,1.2919552454514738,0
1503600478122,+0.037,+0.063,-0.598,-0.798,+0.963,-0.020,-0.255,+2.312,-5.375,+9.625,-51, -9, -5, 0, 1, -6, 6, 16,-0.13502375179880868,1.2897668741714081,0
1503600478139,+0.036,+0.065,-0.598,-0.798,+0.975,-0.027,-0.237,+2.375,-2.875,+12.312,12, -7, -4, 1, 0, -6, -10, -2,-0.135863323446563,1.290264724012401,0
1503600478161,+0.035,+0.067,-0.597,-0.799,+0.976,-0.015,-0.267,+6.375,-1.750,+20.750,-19, -1, 6, 0, -1, 0, 5, -10,-0.1366425171774195,1.2883636456720047,0
1503600478181,+0.032,+0.070,-0.597,-0.799,+0.976,-0.072,-0.203,+5.250,-1.688,+22.250,12, 19, 1, -2, 0, 0, 1, 14,-0.13549592134865002,1.2890961528805647,0
1503600478197,+0.030,+0.073,-0.596,-0.799,+1.036,-0.085,-0.208,+1.438,-4.250,+23.000,10, -15, -5, 1, 7, -1, 3, 14,-0.1358171749239563,1.2871497575571509,0
1503600478219,+0.027,+0.075,-0.595,-0.800,+1.020,-0.050,-0.222,-0.188,-10.938,+22.812,5, 0, -1, -1, -1, 15, 4, -1,-0.1333586021771931,1.2852178027178327,0
1503600478242,+0.026,+0.077,-0.593,-0.801,+0.969,-0.048,-0.277,+3.938,-11.312,+18.062,20, 0, -3, 0, 1, -6, 1, 6,-0.13394722305021678,1.2806411900082482,0
1503600478258,+0.024,+0.080,-0.590,-0.803,+0.914,-0.046,-0.273,+5.312,-15.500,+19.125,-15, -23, -5, -1, -1, -1, 0, 3,-0.1340169343451675,1.2739616044211133,0
1503600478279,+0.023,+0.082,-0.588,-0.804,+0.895,-0.092,-0.252,+7.312,-10.375,+16.438,8, -12, -2, -1, -2, -3, 1, -13,-0.13456173050144643,1.2694330848085504,0
1503600478302,+0.021,+0.085,-0.588,-0.804,+0.944,-0.136,-0.211,+6.562,+0.750,+18.062,13, 4, 1, 0, 2, 3, 2, -18,-0.13498438258502427,1.2703357588277266,0
1503600478317,+0.018,+0.088,-0.589,-0.803,+0.977,-0.142,-0.215,+0.625,+5.125,+21.750,1, -8, -4, -2, -2, -7, -3, 8,-0.13393952685554403,1.2736082597370928,0
1503600478339,+0.015,+0.090,-0.589,-0.803,+0.950,-0.125,-0.221,-3.875,+1.750,+19.188,0, 12, 10, -1, -2, -2, -19, -47,-0.13154889913749387,1.2741564104428504,0
1503600478362,+0.013,+0.090,-0.589,-0.803,+0.944,-0.115,-0.250,-4.875,+1.000,+11.938,-7, -8, -4, 0, -1, 2, 7, 15,-0.1283229050522169,1.274050289488039,0
1503600478377,+0.012,+0.090,-0.587,-0.805,+0.942,-0.100,-0.273,-6.250,-10.625,+10.375,7, -47, -7, -1, -2, -2, 4, 2,-0.12639775972106312,1.2692078683595933,0
1503600478399,+0.010,+0.091,-0.584,-0.806,+0.943,-0.151,-0.250,-7.688,-17.438,+10.312,3, 8, 1, 1, -1, -2, -1, 9,-0.12385751777417575,1.2615810067688928,0
1503600478422,+0.007,+0.091,-0.581,-0.809,+0.962,-0.152,-0.251,-10.312,-20.438,+17.375,-3, -16, -5, -3, -2, -2, 8, 4,-0.11849368358671251,1.2542763658329188,0
1503600478438,+0.003,+0.092,-0.580,-0.810,+0.953,-0.142,-0.226,-13.625,-13.500,+20.375,-3, 22, 2, -4, -4, -19, -3, 14,-0.11301973983607334,1.2520278175731252,0
1503600478459,-0.001,+0.091,-0.578,-0.811,+0.921,-0.101,-0.240,-15.750,-10.938,+18.875,0, -1, 7, 1, 3, 10, 2, 3,-0.10493166964041885,1.2463354295674391,0
1503600478482,-0.003,+0.091,-0.576,-0.813,+0.933,-0.092,-0.285,-12.812,-14.250,+17.000,-14, -14, -1, 0, -2, -2, -8, -10,-0.1012913357968031,1.241492149667244,0
1503600478503,-0.007,+0.091,-0.572,-0.815,+0.992,-0.127,-0.292,-12.000,-23.000,+21.625,-23, -19, -13, -1, -1, 4, 3, 12,-0.09398672029780894,1.2310726585640135,0
1503600478529,-0.011,+0.092,-0.568,-0.818,+1.010,-0.142,-0.281,-8.750,-33.125,+27.250,22, -3, -9, -6, -3, 11, 7, 4,-0.08780111245890643,1.2214047580637728,0
1503600478542,-0.014,+0.094,-0.562,-0.821,+0.922,-0.160,-0.260,-9.812,-36.750,+23.938,9, 22, 4, 0, -5, 8, -24, -4,-0.08399072476932645,1.2067240978829292,0
1503600478558,-0.017,+0.094,-0.557,-0.825,+0.865,-0.161,-0.306,-12.562,-37.438,+19.562,11, 12, 11, 5, 3, 6, -1, -11,-0.07793300274871479,1.194543798768934,0
1503600478580,-0.021,+0.094,-0.552,-0.829,+0.865,-0.167,-0.332,-12.500,-31.562,+21.125,4, 11, 15, 4, 0, -7, -1, -13,-0.07014635549060014,1.1823567754862316,0
1503600478602,-0.024,+0.095,-0.548,-0.831,+0.879,-0.175,-0.354,-8.938,-18.312,+22.188,-1, -17, -1, 0, 2, 17, 3, 8,-0.06539614460130948,1.1724825758509465,0
1503600478618,-0.028,+0.097,-0.544,-0.833,+0.917,-0.170,-0.378,-6.562,-22.250,+22.812,-23, -14, -2, -1, -2, -10, 2, 6,-0.060041220581274375,1.1628869021715358,0
1503600478641,-0.030,+0.098,-0.540,-0.836,+0.945,-0.185,-0.393,-1.938,-29.688,+18.125,18, 27, -3, -6, -2, 1, 6, 7,-0.056813619897290515,1.1535728901517783,0
1503600478668,-0.031,+0.100,-0.535,-0.838,+0.895,-0.217,-0.368,-1.812,-28.875,+14.000,8, 45, 33, 4, 0, 4, -2, 2,-0.0562184189083571,1.1415701330399188,0
1503600478678,-0.033,+0.101,-0.533,-0.839,+0.776,-0.218,-0.408,-0.062,-5.562,+10.250,-4, -25, -21, -6, 0, 0, -2, -3,-0.05344907462777976,1.1368029691695036,0
1503600478700,-0.034,+0.103,-0.534,-0.838,+0.785,-0.246,-0.395,+4.812,+14.312,+4.000,-25, -28, -17, -3, -6, -5, -3, -5,-0.05424435660334009,1.1396583296560914,0
1503600478722,-0.034,+0.105,-0.537,-0.836,+0.938,-0.292,-0.363,+8.188,+21.562,+6.625,20, 24, 3, 1, 2, -6, 6, 8,-0.057255742839894416,1.1475818937873368,0
1503600478738,-0.036,+0.108,-0.541,-0.833,+0.940,-0.302,-0.370,+10.125,+25.438,+9.000,1, -9, -5, -1, 4, -12, 3, 4,-0.05832732628306199,1.1580190075192531,0
1503600478760,-0.035,+0.110,-0.543,-0.832,+0.860,-0.249,-0.397,+13.375,+22.875,-2.688,-24, -23, -4, -10, -19, -3, -11, -6,-0.06281344195716358,1.1638642352084145,0
1503600478782,-0.032,+0.113,-0.546,-0.830,+0.905,-0.261,-0.374,+19.562,+18.062,-8.250,10, 11, -7, 2, 6, 9, -2, 1,-0.07214420382962075,1.1726047732541165,0
1503600478799,-0.030,+0.116,-0.549,-0.827,+0.960,-0.333,-0.297,+18.312,+20.125,-6.562,-9, -11, -4, 2, 4, -2, -1, 0,-0.07987598022821818,1.1809005989989818,0
1503600478820,-0.029,+0.118,-0.553,-0.824,+0.946,-0.314,-0.302,+13.625,+24.625,-8.312,9, 5, 5, 4, 3, -1, -5, 3,-0.0850274275125563,1.1914971423660379,0
1503600478842,-0.026,+0.120,-0.556,-0.822,+0.904,-0.237,-0.345,+17.500,+21.750,-8.562,-2, -45, -15, -5, -1, 5, -2, 5,-0.09324450250401385,1.200014759103025,0
1503600478858,-0.024,+0.123,-0.558,-0.820,+0.924,-0.217,-0.327,+22.500,+19.875,-1.312,-5, -14, -10, 1, 10, 5, 0, -12,-0.10074083174696329,1.2061970585975659,0
1503600478880,-0.023,+0.127,-0.561,-0.817,+0.962,-0.246,-0.279,+27.312,+19.438,+4.125,12, 33, -7, -5, -5, 6, 3, -3,-0.10810460588651008,1.2151691532427042,0
1503600478918,-0.022,+0.132,-0.564,-0.815,+0.982,-0.287,-0.289,+24.625,+15.938,+6.312,0, -4, 6, 0, -6, -10, -5, -17,-0.11670217789932989,1.2251480274289033,0
1503600478922,-0.022,+0.137,-0.566,-0.813,+0.974,-0.289,-0.267,+23.438,+13.812,+13.625,-2, 0, 5, 6, 8, -4, 1, -1,-0.12345910905015342,1.2324181307828423,0
1503600478942,-0.022,+0.142,-0.567,-0.811,+0.950,-0.270,-0.250,+25.438,+9.375,+16.750,-14, -9, 5, 4, -3, -5, 0, 1,-0.1300057535953627,1.2370553965242566,0
1503600478962,-0.021,+0.147,-0.567,-0.810,+0.957,-0.268,-0.268,+26.812,+4.375,+14.750,-9, -2, 22, 6, 11, 19, -4, 5,-0.13791787168740013,1.239525596896448,0
1503600478978,-0.020,+0.152,-0.567,-0.810,+0.928,-0.272,-0.277,+26.000,-2.375,+11.000,11, -12, -10, -1, -2, -5, -2, -25,-0.14582954733535908,1.2424905092553868,0
1503600479004,-0.018,+0.156,-0.565,-0.810,+0.854,-0.243,-0.285,+25.000,-9.625,+4.750,3, -29, 4, 3, 1, 2, -3, 16,-0.15353448814094797,1.2395290754268766,0
1503600479022,-0.017,+0.160,-0.564,-0.810,+0.874,-0.299,-0.203,+21.000,-5.812,+7.625,-17, 21, 14, 2, 0, 5, 5, -3,-0.15991411786696552,1.2393059403796753,0
1503600479043,-0.017,+0.165,-0.566,-0.807,+0.967,-0.326,-0.243,+20.875,+13.812,+13.125,28, 27, 19, 3, -1, -13, 5, 4,-0.1670494590101139,1.2468665367326794,0
1503600479064,-0.016,+0.168,-0.567,-0.806,+0.920,-0.273,-0.269,+17.562,+7.125,+7.250,33, -15, -8, -4, -6, -12, 5, 8,-0.17292463455158683,1.251327643818121,0
1503600479082,-0.014,+0.171,-0.566,-0.806,+0.886,-0.284,-0.250,+17.938,-6.375,-1.000,18, 21, 31, 3, 3, 5, 1, 1,-0.1797405434160008,1.2507609344705268,0
1503600479101,-0.012,+0.173,-0.565,-0.806,+0.867,-0.303,-0.227,+17.188,-4.938,-2.688,4, -12, -16, -3, -2, 2, -1, 3,-0.1852691891088995,1.2495594115930038,0
1503600479120,-0.010,+0.175,-0.566,-0.806,+0.853,-0.312,-0.205,+11.438,-1.250,-4.812,-42, -18, -3, -3, -8, -18, -9, -19,-0.19151837893314277,1.2539314847053626,0
1503600479142,-0.009,+0.175,-0.568,-0.804,+0.905,-0.308,-0.204,+4.125,+14.250,-6.000,0, -21, -24, 0, 4, 3, -2, 2,-0.19392067764424037,1.2588626446500326,0
1503600479158,-0.008,+0.175,-0.571,-0.802,+0.937,-0.278,-0.234,+4.562,+19.562,-8.625,7, -12, -9, -4, -9, 1, 7, 3,-0.19667180846809446,1.2665857458683099,0
1503600479180,-0.006,+0.175,-0.571,-0.802,+0.930,-0.246,-0.268,+5.875,+1.438,-10.812,3, -16, -6, -4, 2, -2, 1, -3,-0.19994530434569832,1.266804686205484,0
1503600479203,-0.003,+0.174,-0.570,-0.803,+0.897,-0.253,-0.253,+5.125,-13.188,-12.125,29, -20, -14, -5, 3, 5, 3, 4,-0.20317790819925335,1.26402498681631,0
1503600479218,-0.001,+0.174,-0.569,-0.804,+0.876,-0.282,-0.206,+2.375,-10.438,-10.812,9, 8, 9, -1, 0, 3, -1, 3,-0.20609521453141763,1.2618347163786257,0
1503600479240,-0.000,+0.174,-0.570,-0.803,+0.912,-0.283,-0.217,-1.000,+5.188,-5.125,-3, 30, 4, -1, -1, -5, -1, 9,-0.20808883637737793,1.2643533409517849,0
1503600479263,-0.000,+0.173,-0.572,-0.802,+0.951,-0.247,-0.225,-3.000,+9.250,-3.500,-8, -3, 4, 4, 3, 15, -4, -5,-0.20748336080056787,1.268846109644304,0
1503600479278,+0.002,+0.172,-0.571,-0.803,+0.976,-0.248,-0.254,-1.562,-9.438,-8.500,0, -19, 9, 6, 7, 2, -1, 5,-0.20909136704283612,1.2659625763524203,0
1503600479302,+0.003,+0.171,-0.569,-0.805,+0.963,-0.289,-0.252,-2.312,-17.625,-8.875,1, -9, -3, -3, -5, 0, 7, 7,-0.20873414389990164,1.2605802467067384,0
1503600479322,+0.005,+0.169,-0.567,-0.806,+0.912,-0.275,-0.215,-4.938,-13.312,-11.062,16, 2, -9, -3, 0, -2, -14, -10,-0.2087307979316299,1.2542948526705815,0
1503600479339,+0.006,+0.167,-0.566,-0.807,+0.926,-0.263,-0.229,-8.062,-11.188,-13.500,21, 4, 9, 1, 0, 3, -4, 4,-0.2074552309320266,1.2506844089539058,0
1503600479360,+0.007,+0.165,-0.566,-0.808,+0.935,-0.261,-0.271,-9.250,-4.188,-11.812,3, 5, -12, -3, -3, -8, -1, -3,-0.2065333325993209,1.2498481975664397,0
1503600479382,+0.008,+0.163,-0.566,-0.808,+0.978,-0.243,-0.250,-8.250,-5.562,-7.812,10, 6, -7, -2, -1, -6, -2, 1,-0.20560569052748365,1.248657929875233,0
1503600479403,+0.009,+0.160,-0.566,-0.809,+0.998,-0.234,-0.249,-12.312,-5.562,-10.062,-26, 5, 11, 4, 0, -24, -3, -7,-0.2034235839391869,1.2472194585087484,0
1503600479420,+0.010,+0.157,-0.565,-0.810,+0.983,-0.227,-0.232,-14.625,-11.250,-12.938,-6, -23, -3, -4, -2, -5, -1, -4,-0.20094337639585344,1.2430749973542112,0
1503600479444,+0.010,+0.154,-0.564,-0.811,+0.961,-0.215,-0.262,-14.562,-13.438,-9.688,22, 37, 4, 0, -3, -2, 5, -2,-0.19684868496750782,1.2388703604145852,0
1503600479458,+0.011,+0.151,-0.563,-0.813,+0.940,-0.214,-0.258,-16.062,-11.688,-10.062,-10, -7, -3, -3, -6, 2, 3, 11,-0.1944520501812997,1.2351943341094205,0
1503600479480,+0.011,+0.148,-0.562,-0.814,+0.943,-0.189,-0.264,-17.000,-6.500,-8.562,-11, -4, -5, -5, -2, 6, -3, -3,-0.1904154294197403,1.2310812996099312,0
1503600479503,+0.011,+0.144,-0.562,-0.814,+0.938,-0.181,-0.273,-16.188,-2.875,-6.250,8, 14, 10, 3, 2, 3, 1, -5,-0.1854340142193027,1.228791184369762,0
1503600479518,+0.010,+0.141,-0.562,-0.815,+0.946,-0.179,-0.287,-17.188,-1.875,-6.500,-26, -37, -5, -1, 5, 3, 3, -5,-0.180087047292326,1.2274070472833778,0
1503600479542,+0.010,+0.138,-0.562,-0.815,+0.920,-0.174,-0.310,-13.250,-1.000,-7.125,13, 38, 66, 12, 2, 0, 0, -12,-0.17638407647738488,1.2257719205489355,0
1503600479563,+0.011,+0.136,-0.561,-0.816,+0.922,-0.177,-0.313,-10.062,-3.562,-4.688,-4, -17, -4, 2, -1, -8, -2, 16,-0.17532094733045833,1.2224580817672817,0
1503600479585,+0.011,+0.135,-0.561,-0.817,+0.917,-0.184,-0.306,-8.938,+0.125,-3.750,-6, 26, -6, -1, 0, 7, -2, 6,-0.1741168991014681,1.2223211533937344,0
1503600479605,+0.010,+0.134,-0.562,-0.816,+0.916,-0.185,-0.316,-6.125,+5.875,-1.688,19, -6, -9, 0, 3, 2, 0, -2,-0.17148915145463323,1.2240392784325846,0
1503600479622,+0.010,+0.134,-0.562,-0.817,+0.932,-0.198,-0.335,-1.625,+1.438,+1.375,-10, -1, -8, -3, -4, 3, -4, 0,-0.1715092964350177,1.2244294088835712,0
1503600479639,+0.010,+0.134,-0.561,-0.817,+0.941,-0.218,-0.312,+0.375,-1.125,+0.188,2, 1, -14, -4, 0, 4, -4, -12,-0.17123934202407523,1.2217030940740796,0
1503600479661,+0.011,+0.135,-0.561,-0.817,+0.937,-0.222,-0.286,+3.500,-2.750,-0.688,-27, -25, -4, -4, -8, -32, -7, 0,-0.1741168991014681,1.2223211533937344,0
1503600479682,+0.012,+0.136,-0.560,-0.818,+0.942,-0.231,-0.297,+4.812,-8.125,-1.312,-35, -28, -9, -3, 0, -3, -13, -15,-0.1767468199410678,1.220612026867955,0
1503600479698,+0.013,+0.136,-0.559,-0.818,+0.893,-0.224,-0.305,+5.438,-3.875,-5.188,-9, -8, -11, -4, 5, 10, 7, -6,-0.1781285566834243,1.2179849443322979,0
1503600479720,+0.014,+0.138,-0.558,-0.818,+0.946,-0.224,-0.323,+8.000,-4.312,+0.438,-33, -56, -8, 0, -4, 3, 0, 6,-0.18195696015916024,1.21643007041927,0
1503600479743,+0.014,+0.139,-0.557,-0.819,+0.957,-0.220,-0.323,+7.812,-7.438,+6.312,6, -18, -2, -2, 4, 9, -3, -1,-0.18293105184487776,1.2146468564530761,0
1503600479758,+0.014,+0.142,-0.556,-0.819,+0.904,-0.233,-0.311,+9.562,-2.000,+5.500,-2, -4, -5, -8, -12, 13, -1, 5,-0.1863256107333483,1.2135735167171657,0
1503600479781,+0.014,+0.144,-0.556,-0.819,+0.885,-0.243,-0.263,+8.188,+0.312,+4.188,-18, 46, 9, 1, 1, -4, -7, -18,-0.18878334028444227,1.2146917259053116,0
1503600479803,+0.015,+0.146,-0.557,-0.818,+0.907,-0.254,-0.259,+10.938,+4.375,+1.625,-20, -45, -23, -8, -18, -41, -5, -4,-0.19317214278567368,1.2182561518395745,0
1503600479818,+0.016,+0.147,-0.559,-0.816,+0.935,-0.250,-0.223,+6.625,+9.750,-6.000,9, 5, 10, 1, 2, 13, 12, 5,-0.19659504640490402,1.2235977503444821,0
1503600479840,+0.018,+0.147,-0.560,-0.815,+0.911,-0.222,-0.283,+7.188,+8.750,-14.188,9, 34, 2, -1, 1, 11, 6, -15,-0.20016278264186937,1.2261388676172988,0
1503600479862,+0.022,+0.146,-0.561,-0.815,+0.911,-0.226,-0.259,+3.875,+1.188,-24.750,4, -10, -10, -5, -4, -6, -4, 19,-0.20581823556210496,1.2286880466662817,0
1503600479884,+0.026,+0.144,-0.561,-0.815,+0.904,-0.221,-0.282,+1.000,-0.688,-24.438,39, 35, 12, 5, 2, -2, 5, 19,-0.20993321079986646,1.2279363469116966,0
1503600479900,+0.028,+0.142,-0.563,-0.814,+0.918,-0.208,-0.247,-1.812,+3.562,-20.438,-9, -5, 14, 2, -3, -4, -8, -1,-0.21126097537702,1.2320479884575215,0
1503600479922,+0.031,+0.140,-0.564,-0.813,+0.958,-0.171,-0.295,-1.188,+6.062,-17.062,-36, 14, 21, 2, -1, -16, -7, -16,-0.21393546612256958,1.233546536489476,0
1503600479944,+0.033,+0.138,-0.564,-0.814,+0.970,-0.179,-0.271,-3.375,-5.000,-18.812,39, -25, -21, -5, 1, 4, -6, 5,-0.21480693717007798,1.2330027162083774,0
1503600479960,+0.036,+0.136,-0.563,-0.815,+0.963,-0.185,-0.264,-2.812,-11.500,-18.562,-20, -18, -9, -3, -7, 4, 2, -2,-0.21707113106283768,1.2298523421009242,0
1503600479989,+0.038,+0.134,-0.562,-0.815,+0.952,-0.199,-0.270,-5.312,-10.250,-15.750,-1, -54, -10, -2, 2, 5, -8, 2,-0.21763367838311698,1.2262425930767986,0
1503600480009,+0.039,+0.131,-0.561,-0.816,+0.947,-0.186,-0.263,-11.062,-11.688,-16.312,25, 5, 6, 2, -3, -30, -7, -19,-0.21541061374687062,1.2224142752189486,0
1503600480020,+0.041,+0.128,-0.560,-0.818,+0.965,-0.163,-0.271,-13.062,-13.875,-14.938,6, 1, 2, 2, -6, -22, -6, 7,-0.21495116310145215,1.2191060035590227,0
1503600480042,+0.042,+0.125,-0.559,-0.819,+0.979,-0.172,-0.273,-14.125,-14.312,-14.938,14, 43, 10, 0, 6, 20, -1, -3,-0.2127892387162269,1.2153574373360498,0
1503600480064,+0.043,+0.121,-0.558,-0.820,+0.949,-0.167,-0.292,-17.438,-11.375,-15.375,3, -23, -6, -1, -7, -7, 5, 20,-0.20944896271563374,1.211156593614949,0
1503600481662,+0.070,+0.165,-0.514,-0.839,+1.000,-0.190,-0.431,+39.812,+11.125,-11.250,-3, -27, -15, -3, 3, -3, 3, 1,-0.2976756806362495,1.1305758690484173,1
1503600481685,+0.076,+0.170,-0.516,-0.836,+0.968,-0.176,-0.418,+42.875,+17.438,-15.688,-9, -10, -3, 1, 9, 17, 8, 5,-0.31428185222164534,1.1387888417419607,1
1503600481699,+0.082,+0.175,-0.519,-0.833,+0.958,-0.171,-0.411,+47.062,+22.312,-13.812,16, 17, 6, -1, -2, 1, 1, 8,-0.33127916036370897,1.149788273031882,1
1503600481722,+0.088,+0.181,-0.522,-0.829,+0.949,-0.197,-0.385,+48.375,+26.500,-12.250,0, -29, -7, -6, -4, -15, -2, -5,-0.3494338057287768,1.1612636775095617,1
1503600481744,+0.093,+0.188,-0.525,-0.825,+0.949,-0.213,-0.374,+49.500,+25.375,-9.812,-29, 2, 5, 3, -7, -4, -2, -10,-0.3672458374106332,1.1735924468384606,1
1503600481760,+0.098,+0.195,-0.528,-0.821,+0.936,-0.219,-0.352,+50.875,+26.750,-5.750,-28, -7, 9, 9, 5, -4, -9, -10,-0.38520373757790555,1.1861981209288486,1
1503600481782,+0.102,+0.202,-0.531,-0.817,+0.901,-0.222,-0.340,+51.625,+27.562,-3.438,20, 9, 12, 3, 6, 13, -4, 17,-0.40160526192892176,1.1989270546557527,1
1503600481804,+0.105,+0.210,-0.533,-0.813,+0.898,-0.231,-0.322,+50.438,+26.312,+2.250,24, 84, 19, 2, -1, -9, -2, -2,-0.41742212739811263,1.2100174662969332,1
1503600481821,+0.108,+0.218,-0.535,-0.809,+0.905,-0.212,-0.322,+51.625,+27.938,+6.312,4, -29, -17, -1, 1, 4, -2, -4,-0.43343645161146616,1.2214404459708683,1
1503600481842,+0.111,+0.226,-0.538,-0.804,+0.866,-0.215,-0.272,+51.875,+28.062,+6.812,10, 3, 5, -1, -2, -1, 1, -5,-0.4498675990696685,1.2354717683432008,1
1503600481864,+0.114,+0.235,-0.540,-0.800,+0.871,-0.236,-0.252,+53.250,+29.375,+9.438,-19, 6, 3, -1, 0, -4, -2, 10,-0.4677348300834557,1.2485652373741618,1
1503600481879,+0.116,+0.244,-0.543,-0.795,+0.860,-0.252,-0.248,+52.500,+33.625,+11.188,-25, -31, -14, -10, -6, -3, -3, -9,-0.4844246485826609,1.264215212478215,1
1503600481902,+0.118,+0.253,-0.546,-0.790,+0.850,-0.255,-0.204,+48.625,+33.438,+9.125,10, 29, 13, 3, 0, -4, 5, 6,-0.5014253522534554,1.2803010159534005,1
1503600481925,+0.120,+0.260,-0.549,-0.785,+0.886,-0.255,-0.178,+45.562,+30.250,+9.312,-34, -22, -3, -1, -1, 12, 11, -9,-0.5156817937121657,1.2945946569927889,1
1503600481939,+0.121,+0.268,-0.552,-0.780,+0.857,-0.271,-0.148,+40.062,+29.125,+8.875,19, 5, -2, 1, 1, -6, -4, 3,-0.5300338574014993,1.3101767277583347,1
1503600481963,+0.122,+0.274,-0.555,-0.776,+0.853,-0.281,-0.129,+36.062,+31.562,+8.625,22, -15, -18, -4, -1, 0, 1, -7,-0.541706041472283,1.3240500958512373,1
1503600481984,+0.122,+0.280,-0.559,-0.771,+0.876,-0.288,-0.123,+31.250,+30.312,+6.562,10, -5, -9, -5, -5, 11, 8, 23,-0.5521813153033098,1.3403735638607643,1
1503600481999,+0.122,+0.285,-0.562,-0.767,+0.870,-0.297,-0.096,+23.312,+31.375,+7.125,-32, -23, -2, 1, -2, -3, -3, -3,-0.5609320565738327,1.3533253491893174,1
1503600482023,+0.121,+0.289,-0.565,-0.763,+0.871,-0.291,-0.113,+17.125,+30.688,+6.938,11, 30, 17, 1, -3, -5, -7, -5,-0.5665395074150708,1.3650774229863747,1
1503600482044,+0.120,+0.292,-0.569,-0.759,+0.868,-0.294,-0.086,+12.375,+34.125,+8.125,11, -27, 0, 2, 2, -7, -5, -9,-0.5711061595799063,1.3783629406603226,1
1503600482061,+0.119,+0.295,-0.572,-0.756,+0.866,-0.313,-0.126,+8.750,+28.188,+4.625,-31, -25, -6, -3, 1, -6, -4, 0,-0.5754490721741112,1.3893195303087282,1
1503600482082,+0.117,+0.296,-0.576,-0.753,+0.882,-0.320,-0.082,+1.625,+25.438,+2.562,-25, -28, -10, -5, 1, 7, 3, -4,-0.5753964513374951,1.400359138689323,1
1503600482104,+0.116,+0.297,-0.578,-0.751,+0.912,-0.295,-0.063,-1.062,+20.625,+2.625,8, 1, -13, -18, -8, -11, -2, -1,-0.5761356096075182,1.4064396497325182,1
1503600482128,+0.115,+0.297,-0.580,-0.750,+0.881,-0.290,-0.107,-3.625,+12.438,-4.750,47, 6, -4, 1, 0, 1, 0, 7,-0.5753905713124647,1.4114632008371957,1
1503600482149,+0.115,+0.296,-0.582,-0.749,+0.902,-0.289,-0.054,-8.812,+5.312,-5.000,-4, -8, 3, 11, 4, -6, -9, 0,-0.5745302102531026,1.4153238257757157,1
1503600482164,+0.114,+0.294,-0.583,-0.749,+0.896,-0.288,-0.064,-12.000,+9.562,-1.562,2, 5, 8, 3, -2, -3, -8, -22,-0.5700645996026232,1.4153658947581709,1
1503600482180,+0.112,+0.293,-0.585,-0.748,+0.903,-0.262,-0.128,-12.562,+10.812,-1.000,37, 37, 2, -2, 3, 19, 2, -3,-0.5660428800369961,1.4190663143253412,1
1503600482202,+0.112,+0.290,-0.585,-0.749,+0.910,-0.244,-0.145,-13.500,+3.812,-2.562,-39, -14, 3, 2, 1, 5, 10, 19,-0.5611633107412619,1.4155160282159944,1
1503600482226,+0.111,+0.288,-0.585,-0.750,+0.934,-0.253,-0.117,-13.750,-1.750,-2.125,-53, -27, -2, -3, -3, -6, 4, -19,-0.5564120766692057,1.4131435276293711,1
1503600482240,+0.110,+0.286,-0.586,-0.750,+0.910,-0.252,-0.119,-11.812,+1.750,+1.812,-3, -45, -27, -6, -3, 7, -3, -6,-0.5519868451779684,1.4132708361722908,1
1503600482266,+0.109,+0.285,-0.585,-0.751,+0.926,-0.233,-0.173,-9.375,-1.062,+3.625,-21, -8, -11, -4, -4, -13, -1, 11,-0.5484179715324495,1.409476603227236,1
1503600482284,+0.108,+0.284,-0.584,-0.753,+0.937,-0.260,-0.137,-10.000,-4.938,+4.125,27, 15, 8, 2, 1, 5, 1, 2,-0.545045466394701,1.405887580540242,1
1503600482300,+0.107,+0.283,-0.583,-0.754,+0.948,-0.280,-0.112,-9.312,-7.750,+8.812,14, 9, 12, 0, -1, -9, -13, 4,-0.5414805542128395,1.402105652603265,1
1503600482329,+0.105,+0.283,-0.582,-0.755,+0.930,-0.279,-0.130,-8.438,-2.438,+8.875,-1, 6, -4, 2, 0, -8, 1, -1,-0.5379871949993422,1.3994331604881458,1
1503600482344,+0.104,+0.282,-0.582,-0.755,+0.958,-0.286,-0.119,-11.312,-1.562,+8.000,8, 46, 25, 12, 0, 8, -1, -15,-0.5347428022455298,1.3981244168229636,1
1503600482362,+0.102,+0.282,-0.582,-0.756,+0.984,-0.282,-0.109,-10.562,-2.250,+8.250,-8, -29, -5, -5, -4, 18, 0, 15,-0.5317551854328322,1.3981309163353186,1
1503600482381,+0.101,+0.281,-0.581,-0.757,+0.958,-0.294,-0.137,-9.562,-4.312,+4.625,31, 80, 32, 16, 5, -4, 6, -3,-0.5281879458068068,1.394354049974421,1
1503600482404,+0.100,+0.280,-0.580,-0.758,+0.952,-0.306,-0.133,-11.188,-6.188,+3.000,-62, -19, -6, 1, 5, 1, 3, -9,-0.5246233677669814,1.3905815471843255,1
1503600482420,+0.099,+0.279,-0.580,-0.759,+0.970,-0.310,-0.102,-11.438,-4.625,+4.312,29, -18, -13, -10, -5, -6, 0, 12,-0.5215702491827842,1.389501057965903,1
1503600482442,+0.097,+0.278,-0.580,-0.760,+0.956,-0.310,-0.133,-11.500,-2.188,+2.938,-6, 52, 8, -4, -3, -21, -18, -18,-0.5169264402461129,1.3883208232473947,1
1503600482466,+0.096,+0.276,-0.579,-0.761,+0.960,-0.308,-0.145,-12.562,-4.938,+0.375,-2, -22, -12, 0, -8, -15, -4, 1,-0.5117351249967422,1.383383282996474,1
1503600482480,+0.096,+0.275,-0.578,-0.762,+0.976,-0.314,-0.126,-11.438,-6.625,+0.188,-8, -29, -10, -8, -4, -7, 0, 3,-0.5097783342260562,1.3797447461709307,1
1503600482501,+0.095,+0.273,-0.578,-0.763,+0.958,-0.299,-0.126,-11.938,-8.250,-2.875,-15, 26, 6, 4, 8, 23, 0, -13,-0.5051147983470532,1.3775283012803141,1
1503600482525,+0.095,+0.271,-0.577,-0.764,+0.945,-0.305,-0.124,-12.188,-7.188,-1.375,46, -6, 8, 3, 11, 19, 4, 11,-0.5015612284074559,1.3727508584234782,1
1503600482540,+0.094,+0.269,-0.577,-0.765,+0.939,-0.305,-0.123,-15.000,-5.375,-2.312,5, -20, -9, -1, 3, 23, 14, 2,-0.49692360422502624,1.3705760076075202,1
1503600482562,+0.093,+0.267,-0.577,-0.766,+0.938,-0.301,-0.104,-18.000,-5.688,-4.375,-4, 31, -1, -3, 0, 3, -12, -17,-0.49229698433971597,1.3684223053142506,1
1503600482584,+0.092,+0.263,-0.577,-0.768,+0.911,-0.285,-0.137,-21.812,-6.812,-5.125,10, 20, 6, 8, 7, 13, -8, 0,-0.48467921612032827,1.3642913720948608,1
1503600482601,+0.091,+0.259,-0.576,-0.770,+0.917,-0.252,-0.144,-25.375,-10.375,-7.812,21, 10, 4, 7, 3, 4, -3, 4,-0.47662732981698336,1.3575495992893485,1
1503600482621,+0.091,+0.254,-0.576,-0.772,+0.933,-0.239,-0.156,-24.938,-10.812,-12.500,18, -6, -5, -1, -2, 1, 2, -5,-0.4691650223540164,1.352625401248814,1
1503600482644,+0.092,+0.249,-0.575,-0.774,+0.907,-0.246,-0.169,-25.375,-12.625,-16.250,-9, -14, -2, 1, -3, -18, -2, 4,-0.4629312293656942,1.34524826334209,1
1503600482660,+0.093,+0.243,-0.575,-0.776,+0.909,-0.240,-0.177,-27.062,-11.750,-18.688,11, 11, 5, 3, 2, 1, 1, -13,-0.4557369298639583,1.3396645224395292,1
1503600482682,+0.094,+0.237,-0.575,-0.777,+0.903,-0.227,-0.150,-27.750,-11.812,-22.812,19, -20, -10, -4, -4, -12, -3, -14,-0.4484825023248239,1.333975144908696,1
1503600482704,+0.094,+0.231,-0.575,-0.779,+0.883,-0.238,-0.141,-30.562,-9.438,-23.062,10, -22, -1, -2, -3, -7, -2, -1,-0.43989131201215315,1.3286167559130833,1
1503600482720,+0.094,+0.224,-0.576,-0.780,+0.830,-0.242,-0.146,-37.875,-3.062,-26.125,18, 17, -6, -14, -9, -10, -5, 22,-0.4301829045203774,1.32488938173688,1
1503600482741,+0.094,+0.216,-0.578,-0.781,+0.854,-0.196,-0.185,-42.250,+0.562,-29.438,16, 5, 5, 1, 3, 0, 2, 9,-0.4195439995421581,1.3231668185940388,1
1503600482764,+0.094,+0.206,-0.580,-0.783,+0.904,-0.179,-0.178,-44.875,-3.188,-33.438,-30, 1, -11, -3, -1, -5, -5, -3,-0.4063405768072469,1.3202837231970552,1
1503600482785,+0.095,+0.196,-0.582,-0.784,+0.925,-0.174,-0.188,-45.062,-2.188,-40.688,23, 44, 12, 10, 6, 10, 8, -10,-0.39476428972274447,1.3176437713525833,1
1503600482802,+0.097,+0.186,-0.583,-0.785,+0.881,-0.166,-0.236,-45.688,+1.188,-43.625,-11, 22, 13, 2, 0, -9, -7, -8,-0.38463033203439034,1.3128208305562648,1
1503600482827,+0.098,+0.176,-0.585,-0.785,+0.885,-0.129,-0.250,-45.000,+3.438,-42.062,27, 15, 3, 8, 4, 2, 2, -7,-0.37320847289181913,1.3107043676481305,1
1503600482840,+0.100,+0.166,-0.588,-0.786,+0.964,-0.095,-0.255,-40.250,+4.562,-41.750,5, 41, 21, 3, -1, -1, 0, -16,-0.3640523312852068,1.3120892753235749,1
1503600482864,+0.103,+0.156,-0.589,-0.786,+1.014,-0.087,-0.245,-37.000,-0.750,-44.875,-4, -19, -13, 1, -1, -18, 0, 8,-0.35583859570749365,1.3082385596856692,1
1503600482884,+0.106,+0.147,-0.589,-0.787,+0.953,-0.068,-0.262,-33.125,-6.938,-41.375,-28, -22, -19, -18, -18, -21, 0, 26,-0.3490176211798421,1.3029917045219082,1
1503600482900,+0.109,+0.139,-0.589,-0.789,+0.954,-0.021,-0.324,-27.625,-9.688,-37.562,-8, -29, -12, -6, 0, 11, -1, 3,-0.34386392308306635,1.2989593447986085,1
1503600482921,+0.112,+0.131,-0.589,-0.790,+1.015,-0.038,-0.276,-23.875,-7.062,-36.812,-43, -28, 10, 1, 4, 6, 3, 5,-0.33863546700950514,1.2948476220978637,1
1503600482944,+0.115,+0.126,-0.590,-0.789,+1.024,-0.075,-0.251,-20.812,+3.812,-33.250,15, -17, -8, -2, -2, -1, -1, 1,-0.33716727667303636,1.2946530236145801,1
1503600482961,+0.117,+0.120,-0.592,-0.789,+1.045,-0.046,-0.249,-18.750,+4.375,-30.062,-42, 3, 20, 7, 3, 14, 4, 0,-0.33324277271215375,1.2969780141317766,1
1503600482982,+0.119,+0.115,-0.593,-0.788,+1.118,-0.005,-0.259,-15.062,+2.188,-26.188,29, 4, -14, -2, 2, 19, 6, -4,-0.3301608664790006,1.2969112240694043,1
1503600483004,+0.122,+0.111,-0.593,-0.789,+1.102,-0.009,-0.256,-11.125,-8.875,-23.375,0, 14, 0, 7, 5, 5, -7, -3,-0.3302592318779414,1.2954148419410132,1
1503600483029,+0.124,+0.108,-0.591,-0.790,+1.058,-0.027,-0.251,-9.375,-19.062,-21.188,-33, -12, -6, -10, 1, -14, 0, 1,-0.3295977085081719,1.2889745108882953,1
1503600483041,+0.126,+0.105,-0.590,-0.791,+0.974,-0.044,-0.244,-10.875,-10.125,-17.312,-55, -30, -14, -2, -1, 2, -3, 4,-0.32918219908720225,1.2852779993228287,1
1503600483066,+0.126,+0.102,-0.591,-0.790,+0.958,-0.029,-0.252,-12.875,+7.875,-12.125,16, 30, -2, -1, -6, -12, -4, -2,-0.3253849883750988,1.2862526986603218,1
1503600483086,+0.125,+0.100,-0.594,-0.788,+1.039,-0.018,-0.229,-13.688,+21.500,-8.688,7, -10, 2, 2, -1, -3, 0, 14,-0.3213236162021242,1.2927704196010879,1
1503600483103,+0.125,+0.099,-0.598,-0.786,+1.123,+0.005,-0.220,-11.438,+20.188,-5.688,-13, -18, -5, 0, -2, -9, -4, 5,-0.3203478001487231,1.3025569789333162,1
1503600483125,+0.125,+0.096,-0.599,-0.785,+1.102,-0.003,-0.203,-13.875,+0.188,-8.250,26, -10, -4, 7, 4, -17, -1, -5,-0.3165188213383864,1.3036376611691511,1
1503600483146,+0.125,+0.094,-0.599,-0.786,+1.019,-0.001,-0.211,-13.250,-3.438,-10.375,27, 76, 27, -2, -2, 9, -3, 10,-0.31424297807957097,1.3030893139563073,1
1503600483162,+0.124,+0.091,-0.599,-0.786,+0.935,-0.003,-0.230,-14.312,+3.125,-8.500,-4, -30, -8, 3, 4, 9, 5, 2,-0.3088328832222363,1.3017725440101968,1
1503600483184,+0.122,+0.089,-0.602,-0.784,+0.941,-0.003,-0.234,-18.750,+15.125,-0.438,-1, -11, -4, -4, -9, 5, 2, 6,-0.30308066255591465,1.308413130368061,1
1503600483207,+0.119,+0.088,-0.606,-0.782,+0.988,-0.003,-0.191,-19.312,+31.188,+4.875,-5, -3, 11, 3, -2, -1, 2, 3,-0.29712232545235295,1.31819784368799,1
1503600483223,+0.117,+0.087,-0.609,-0.779,+1.050,+0.011,-0.204,-13.500,+22.938,+6.812,10, 2, -5, -7, -5, 12, -4, -6,-0.29242119931486105,1.3250360762820972,1
1503600483244,+0.116,+0.087,-0.610,-0.779,+1.025,+0.001,-0.258,-8.938,+5.188,+0.938,0, -20, 2, 3, -3, -14, -4, -9,-0.2909615887234619,1.3277376606878244,1
1503600483268,+0.116,+0.085,-0.609,-0.780,+0.952,-0.014,-0.237,-8.938,-6.375,-6.812,-6, -1, -7, 1, 3, -16, -4, 12,-0.288486070878865,1.3245098242612559,1
1503600483282,+0.116,+0.084,-0.607,-0.782,+0.960,-0.014,-0.231,-4.188,-11.438,-0.250,-5, 19, -1, -2, 0, -2, 2, 2,-0.2873449245027871,1.3192411815111211,1
1503600483305,+0.114,+0.086,-0.606,-0.783,+0.959,-0.025,-0.208,-2.000,-4.875,+10.375,7, -16, -11, -4, -3, 8, -1, -12,-0.28665932681376843,1.3174933142132903,1
1503600483320,+0.112,+0.087,-0.607,-0.782,+0.967,+0.010,-0.215,-2.375,+8.312,+11.562,22, 14, 6, 4, 5, 9, -5, -4,-0.28461194647433596,1.3202348256078076,1
1503600483342,+0.111,+0.087,-0.607,-0.782,+0.996,+0.018,-0.210,-2.188,+5.750,+8.625,-1, -12, -4, -3, -3, 1, 0, 3,-0.28298562401614,1.320191678178847,1
1503600483364,+0.110,+0.089,-0.607,-0.782,+1.013,+0.007,-0.195,+2.625,+1.000,+9.812,1, -3, -6, -6, -5, -6, 3, -5,-0.28388843073982983,1.320939667775964,1
1503600483380,+0.109,+0.091,-0.608,-0.781,+1.012,-0.009,-0.186,+4.312,+2.188,+11.062,-13, -2, -1, -4, -5, -1, 14, -2,-0.28476232227370246,1.324142364925758,1
1503600483403,+0.109,+0.092,-0.608,-0.781,+0.988,-0.022,-0.180,+2.000,+5.938,+8.562,0, -11, -3, 0, 2, 0, -2, 3,-0.28603225318890013,1.3245505495646004,1
1503600483425,+0.107,+0.094,-0.609,-0.780,+0.982,-0.028,-0.172,+0.125,+8.188,+9.188,-5, 3, 3, -2, -1, -2, -8, 9,-0.2853094581391949,1.3277326421943725,1
1503600483440,+0.106,+0.095,-0.610,-0.779,+0.991,-0.026,-0.168,-1.250,+6.062,+11.375,-5, -6, -2, -3, -3, 5, 5, 11,-0.2849465880449946,1.330555687793409,1
1503600483464,+0.104,+0.096,-0.611,-0.779,+0.981,-0.021,-0.160,-2.188,+5.438,+10.125,3, 19, 13, 9, -1, -4, -4, -8,-0.2831821192737396,1.3336286896333134,1
1503600483484,+0.103,+0.097,-0.612,-0.779,+0.970,-0.043,-0.153,-4.688,+1.750,+6.438,-16, -10, -5, -5, 1, -3, -5, -8,-0.28303791425413105,1.3367483806167613,1
1503600483501,+0.102,+0.096,-0.611,-0.779,+0.942,-0.029,-0.170,-7.375,-4.062,+3.688,6, 3, -3, -1, -1, 1, 2, 14,-0.27995895559753026,1.3335384255417093,1
1503600483522,+0.100,+0.096,-0.610,-0.780,+0.947,-0.036,-0.194,-7.438,-9.938,+6.625,-13, -12, -5, -3, -2, -10, -2, 13,-0.27674741829553073,1.330993602892468,1
1503600483545,+0.098,+0.097,-0.608,-0.782,+0.931,-0.059,-0.177,-7.688,-10.312,+12.625,0, 7, 3, 1, 1, -7, 1, 8,-0.2748116203501121,1.326426172527671,1
1503600483567,+0.095,+0.098,-0.607,-0.783,+0.939,-0.067,-0.170,-8.875,-11.438,+17.812,0, 6, -4, -2, -2, 0, 0, -6,-0.2712492919425938,1.3242659574284912,1
1503600483582,+0.091,+0.099,-0.606,-0.784,+0.967,-0.066,-0.165,-12.000,-7.000,+20.000,-5, 4, -1, 0, 4, 2, 6, -5,-0.26607013877083585,1.3220598180801097,1
1503600483604,+0.087,+0.098,-0.605,-0.785,+0.978,-0.042,-0.177,-14.125,-7.938,+17.562,1, -8, -3, -2, 0, -4, -9, -12,-0.25834087403853373,1.3189995930215106,1
1503600483626,+0.084,+0.098,-0.603,-0.787,+0.967,-0.054,-0.192,-15.312,-13.000,+16.812,15, 7, -2, -10, -2, -2, 2, 2,-0.2534639945188967,1.3139836752011425,1
1503600483642,+0.080,+0.098,-0.600,-0.790,+0.952,-0.084,-0.219,-18.125,-18.375,+17.688,-2, 3, 5, 0, 0, 1, -3, 1,-0.24692425402934592,1.3065058215098677,1
1503600483666,+0.075,+0.097,-0.598,-0.792,+0.906,-0.094,-0.229,-21.000,-18.438,+21.625,-1, -5, -3, 0, -4, -4, -2, 23,-0.23752134561321625,1.3009962446441297,1
1503600483686,+0.070,+0.097,-0.595,-0.795,+0.910,-0.096,-0.219,-21.688,-17.438,+22.250,15, 11, 3, 1, 2, 3, -2, -17,-0.22930437400548048,1.2935066246663918,1
1503600483702,+0.065,+0.096,-0.592,-0.798,+0.932,-0.091,-0.210,-22.375,-23.875,+21.500,-4, 20, 3, 0, 0, -2, -4, 4,-0.21980025694035923,1.2856318878969692,1
1503600483724,+0.060,+0.095,-0.587,-0.802,+0.910,-0.086,-0.221,-24.875,-36.375,+26.250,9, 7, 13, 3, 2, 3, 5, 0,-0.2100092267112067,1.2726835430708883,1
1503600483746,+0.053,+0.094,-0.581,-0.807,+0.878,-0.088,-0.256,-29.250,-39.688,+34.312,-1, -5, -4, 3, -2, 1, -2, 0,-0.1968323815354714,1.2573241599259075,1
1503600483762,+0.045,+0.094,-0.577,-0.810,+0.847,-0.081,-0.206,-30.688,-24.125,+38.125,-6, -15, -1, -2, -1, 1, -1, -1,-0.1833217220393993,1.2470718837261052,1
1503600483784,+0.039,+0.093,-0.574,-0.813,+0.891,-0.077,-0.234,-26.625,-23.750,+31.688,5, -4, 0, 2, 3, 9, 8, -28,-0.17199497507553702,1.2392949588787316,1
1503600483808,+0.033,+0.092,-0.569,-0.816,+0.936,-0.079,-0.238,-27.688,-36.000,+25.188,-7, 3, -2, -2, -7, -8, 8, 11,-0.16025420770672025,1.2261264110546877,1
1503600483823,+0.027,+0.091,-0.564,-0.821,+0.923,-0.104,-0.261,-28.250,-39.250,+32.062,9, 2, -1, -1, -1, -3, -2, 18,-0.1485762111307533,1.213796966302271,1
1503600483844,+0.019,+0.090,-0.559,-0.824,+0.931,-0.118,-0.261,-30.750,-32.875,+40.375,-12, -8, -1, 2, 0, 0, -4, 8,-0.13340589391102986,1.2006087484568446,1
1503600483867,+0.011,+0.090,-0.554,-0.828,+0.952,-0.079,-0.260,-29.375,-39.562,+43.188,-1, 15, 0, -2, 0, 0, -3, 1,-0.11933775727133382,1.1882228567015862,1
1503600483882,+0.005,+0.090,-0.547,-0.833,+0.954,-0.084,-0.288,-24.188,-48.750,+38.438,8, 4, 1, 0, 1, 0, -7, -10,-0.10813059311094451,1.171066821810301,1
1503600483905,-0.000,+0.089,-0.539,-0.837,+0.886,-0.110,-0.309,-24.375,-50.875,+30.938,-4, -3, -1, -2, -1, -2, -8, -10,-0.09717930465366975,1.1506301599142637,1
1503600483926,-0.006,+0.089,-0.532,-0.842,+0.871,-0.145,-0.336,-22.938,-47.438,+32.750,7, 5, -4, 4, -4, -5, 1, -2,-0.08574917793400368,1.1336853474501647,1
1503600483944,-0.013,+0.090,-0.526,-0.845,+0.925,-0.194,-0.355,-19.312,-38.062,+38.312,-6, -3, 5, 1, 1, 3, -1, -5,-0.07379843258361549,1.1188124836810562,1
1503600483964,-0.019,+0.091,-0.522,-0.848,+0.981,-0.199,-0.365,-18.250,-30.125,+36.812,0, 8, 1, 0, 1, -1, 0, -1,-0.06379747848988197,1.1093801413411353,1
1503600483986,-0.024,+0.091,-0.517,-0.851,+1.000,-0.190,-0.403,-15.500,-38.938,+25.125,-8, -2, -5, -4, -1, -1, -5, -3,-0.05415321058230058,1.0970790215412276,1
1503600484002,-0.026,+0.092,-0.509,-0.855,+0.972,-0.200,-0.375,-11.062,-53.125,+18.250,-1, 1, 0, 1, 0, 3, 1, -5,-0.05007016391667909,1.077917322991146,1
1503600484024,-0.029,+0.094,-0.502,-0.859,+0.895,-0.224,-0.410,-5.188,-50.438,+18.125,-12, -4, 4, 2, 0, -4, 2, -18,-0.04540209412358491,1.0617224588561915,1
1503600484047,-0.032,+0.095,-0.497,-0.862,+0.837,-0.243,-0.453,-6.188,-29.062,+18.750,-3, 5, 1, 1, 0, -10, -3, 5,-0.04004585151276011,1.050065281909191,1
1503600484062,-0.034,+0.096,-0.494,-0.863,+0.870,-0.239,-0.459,-6.875,-17.438,+15.875,18, 16, -2, -4, -1, 3, 0, 3,-0.03691330246286243,1.0427850771188223,1
1503600484085,-0.036,+0.097,-0.493,-0.864,+0.954,-0.244,-0.406,-3.500,-11.875,+12.875,-17, -7, -1, 1, 2, 2, -4, -14,-0.03415219872920851,1.0407690159877268,1
1503600484111,-0.037,+0.099,-0.492,-0.864,+0.982,-0.260,-0.415,-1.438,-13.062,+7.500,3, 0, -1, 2, -2, 1, -2, 4,-0.03423165683329522,1.0386528962775112,1
1503600484123,-0.038,+0.099,-0.490,-0.865,+0.944,-0.245,-0.455,-0.688,-18.375,+3.812,0, -1, 1, -2, 0, -2, -10, -3,-0.031988757011807936,1.03380364624165,1
1503600484145,-0.037,+0.100,-0.487,-0.867,+0.870,-0.235,-0.476,+0.375,-20.750,+1.688,-5, -8, -3, -1, 0, 7, 3, -5,-0.03400233305275967,1.0273717197183985,1
1503600484170,-0.037,+0.101,-0.484,-0.868,+0.844,-0.241,-0.461,+1.875,-16.500,+1.938,10, -16, -6, -3, -2, -4, 4, 5,-0.03431692810858393,1.0203403161237767,1
1503600484183,-0.038,+0.103,-0.483,-0.869,+0.851,-0.256,-0.463,+2.500,-8.812,+4.312,-7, 5, 1, 2, -1, 1, -1, 6,-0.03426694376430575,1.0187627751603552,1
1503600484205,-0.039,+0.104,-0.482,-0.869,+0.859,-0.258,-0.456,-0.688,-4.250,+7.438,-14, -17, -8, -4, -1, 6, 14, -1,-0.03328323845611524,1.0163532291819966,1
1503600484226,-0.040,+0.104,-0.481,-0.869,+0.883,-0.237,-0.438,-2.312,-7.500,+8.500,9, 5, 4, 2, 0, -3, 0, -14,-0.03129515438394508,1.0136233932828578,1
1503600484243,-0.041,+0.106,-0.480,-0.870,+0.869,-0.237,-0.446,-1.188,-10.625,+9.438,6, 23, 17, 6, 4, 0, -4, -11,-0.031216566982528327,1.0120573810335156,1
1503600484272,-0.043,+0.106,-0.478,-0.871,+0.823,-0.201,-0.460,-3.625,-14.000,+9.625,0, -7, -6, 2, -2, 0, 0, 2,-0.027133599781904105,1.0071183283234257,1
1503600484286,-0.046,+0.105,-0.471,-0.875,+0.776,-0.186,-0.551,-13.750,-39.062,+19.250,0, 12, 1, -5, -3, -3, -5, 12,-0.01890465903698316,0.9903031783461762,1
1503600484304,-0.048,+0.105,-0.466,-0.877,+0.863,-0.153,-0.447,-9.500,-31.062,+18.375,-6, -22, -21, -6, -1, 2, -1, 6,-0.01404141783749868,0.9781356196457947,1
1503600484325,-0.050,+0.106,-0.463,-0.879,+0.876,-0.185,-0.468,-5.250,-24.250,+19.188,9, 7, -2, -1, -2, -3, 1, -1,-0.010545320883802613,0.9714868938167586,1
1503600484347,-0.053,+0.107,-0.459,-0.880,+0.879,-0.215,-0.475,-8.000,-30.000,+23.875,-7, -3, 2, 0, -1, -1, -1, 3,-0.005091136104182311,0.9615959416445112,1
1503600484363,-0.057,+0.107,-0.455,-0.882,+0.877,-0.221,-0.487,-9.125,-27.688,+22.750,4, 12, 6, 4, 0, -1, -4, -10,0.003274238147859887,0.9518340615355556,1
1503600484385,-0.059,+0.108,-0.451,-0.884,+0.840,-0.209,-0.489,-9.062,-29.750,+19.250,1, -4, 2, 0, -1, -3, -10, -4,0.00711128456465179,0.9426385628385519,1
1503600484407,-0.062,+0.107,-0.443,-0.888,+0.859,-0.250,-0.558,-15.438,-47.875,+19.375,1, -13, -3, 0, -2, -2, -6, 0,0.01579173326927004,0.9235995469577594,1
1503600484423,-0.064,+0.107,-0.436,-0.891,+0.854,-0.248,-0.518,-10.250,-47.688,+14.000,-4, -12, -6, -4, -2, 0, 7, 4,0.021406354957055028,0.9070921515992242,1
1503600484446,-0.066,+0.108,-0.429,-0.894,+0.813,-0.247,-0.547,-9.312,-49.625,+12.562,0, -26, -6, -1, -1, -5, -3, 5,0.026176919400724624,0.8909305088957504,1
1503600484467,-0.066,+0.107,-0.422,-0.898,+0.782,-0.257,-0.576,-9.438,-47.938,+5.875,-15, -20, -3, -2, 0, -4, -3, 1,0.029141161178114588,0.8751774310936586,1
1503600484483,-0.066,+0.107,-0.414,-0.901,+0.726,-0.259,-0.587,-9.812,-46.938,+1.000,5, -1, -1, -2, -2, -1, 1, -1,0.03131598075953562,0.8567109338875676,1
1503600484505,-0.066,+0.106,-0.406,-0.905,+0.705,-0.261,-0.614,-11.875,-47.438,-0.688,5, 11, -1, 1, -1, -3, -1, -3,0.03444905055486721,0.8386907676100466,1
1503600484526,-0.066,+0.104,-0.399,-0.909,+0.682,-0.254,-0.652,-14.562,-43.438,-3.688,-4, 8, 3, -1, 1, -3, 1, -10,0.03813523958656229,0.8230642471881549,1
1503600484543,-0.066,+0.102,-0.393,-0.912,+0.681,-0.228,-0.656,-17.250,-36.875,-3.062,-1, 29, -4, -8, -3, -2, -3, -2,0.04141147752824603,0.809470759909661,1
1503600484565,-0.065,+0.100,-0.387,-0.914,+0.720,-0.203,-0.661,-15.875,-31.812,-2.875,-16, -22, -5, -4, -3, 0, -5, -16,0.042607104957280865,0.7955614765000959,1
1503600484586,-0.064,+0.098,-0.385,-0.916,+0.785,-0.170,-0.676,-6.750,-20.312,-5.875,10, 0, 0, 1, -2, 0, 2, 5,0.04293883890552948,0.7915224712306517,1
1503600484604,-0.063,+0.096,-0.383,-0.916,+0.710,-0.178,-0.749,-4.000,-3.125,-5.438,-7, -8, 0, 1, 1, -1, -1, 11,0.04298778739477294,0.7863925379562993,1
1503600484624,-0.061,+0.096,-0.382,-0.917,+0.627,-0.181,-0.652,+4.312,-5.938,-12.750,0, 12, 3, 1, 0, -3, 2, 0,0.03953279740682853,0.7847859464067175,1
1503600484647,-0.060,+0.097,-0.380,-0.918,+0.623,-0.239,-0.672,+2.688,-6.562,-3.188,-20, -11, -8, -3, -4, -6, -2, -2,0.03739598041496663,0.7807972826435388,1
1503600484662,-0.060,+0.097,-0.380,-0.918,+0.676,-0.243,-0.673,-1.438,+3.812,+0.688,-5, 16, 9, 2, 0, 2, 3, 2,0.03739598041496663,0.7807972826435388,1
1503600484685,-0.060,+0.097,-0.382,-0.917,+0.728,-0.215,-0.653,-3.750,+6.438,+1.188,-5, -7, -4, -2, 0, 4, -2, -6,0.03687512915349673,0.7851181046069335,1
1503600484707,-0.060,+0.096,-0.383,-0.917,+0.740,-0.198,-0.661,-1.062,+7.750,-1.562,-16, -19, -2, -1, -2, -3, 0, 1,0.037446771339674445,0.7873646721612505,1
1503600484723,-0.059,+0.096,-0.384,-0.917,+0.746,-0.198,-0.645,+3.312,+3.812,-5.562,4, 7, -1, -2, 0, 1, -4, -11,0.03536160035932499,0.7899444300900971,1
1503600484745,-0.058,+0.097,-0.384,-0.916,+0.720,-0.220,-0.649,+4.938,+0.750,-3.938,-1, 5, 0, -2, -2, -10, -4, -2,0.03258107737904118,0.7897260101762903,1
1503600484766,-0.058,+0.097,-0.385,-0.916,+0.712,-0.238,-0.631,+1.750,+3.125,-0.750,-1, 6, 1, 3, 0, 4, -8, 2,0.03238220150568675,0.7921691652290137,1
1503600484783,-0.058,+0.097,-0.385,-0.916,+0.732,-0.232,-0.637,-2.375,+3.000,+0.125,5, -11, 5, 2, 0, 0, 2, -15,0.03238220150568675,0.7921691652290137,1
1503600484808,-0.058,+0.097,-0.386,-0.916,+0.747,-0.221,-0.638,-4.312,+2.812,+1.000,3, 2, -6, -5, -3, 0, 0, 5,0.032183323069867,0.7946141247641129,1
1503600484826,-0.058,+0.096,-0.387,-0.915,+0.752,-0.212,-0.626,-3.188,-0.250,+0.188,-6, -16, -4, -1, 2, 0, 1, -6,0.03264606426974837,0.7963062626539095,1
1503600484846,-0.058,+0.096,-0.386,-0.916,+0.728,-0.219,-0.629,-1.188,-3.750,-1.125,-10, -12, 0, -1, -4, -3, -1, 6,0.032961673681969915,0.7944150777130589,1
1503600484865,-0.057,+0.096,-0.385,-0.916,+0.717,-0.232,-0.632,-2.875,-5.250,-2.188,-2, 7, 1, -2, 0, 0, 2, 6,0.031273708135596615,0.7921092190537162,1
1503600484894,-0.057,+0.096,-0.385,-0.916,+0.719,-0.220,-0.635,-4.125,-6.750,-3.688,-1, 3, -1, 0, 0, -2, 1, -4,0.031273708135596615,0.7921092190537162,1
1503600484903,-0.056,+0.095,-0.383,-0.917,+0.710,-0.211,-0.655,-5.312,-7.625,-3.250,-6, 3, -1, 0, 1, 3, -5, -7,0.03067058318385207,0.7877236496231265,1
1503600484925,-0.056,+0.094,-0.382,-0.918,+0.707,-0.207,-0.664,-5.688,-6.250,-2.438,3, 3, -2, -2, -3, 1, 5, 8,0.03174979999642475,0.7856472034298296,1
1503600484950,-0.056,+0.093,-0.381,-0.918,+0.699,-0.192,-0.671,-4.938,-4.688,-2.875,0, 0, 0, -1, -1, -1, 1, 4,0.032709569127021984,0.7830239025780716,1
1503600484963,-0.055,+0.092,-0.380,-0.919,+0.684,-0.192,-0.685,-3.438,-3.312,-3.188,-6, 4, 1, -2, -1, -1, -1, -7,0.031892251608556875,0.781093232346487,1
1503600484985,-0.055,+0.092,-0.380,-0.919,+0.690,-0.185,-0.664,-1.750,+0.688,-0.500,1, -12, -4, 0, 0, 1, 1, -3,0.031892251608556875,0.781093232346487,1
1503600485010,-0.055,+0.092,-0.380,-0.919,+0.720,-0.198,-0.647,-0.312,+0.688,+1.750,-4, -9, -10, -1, -1, 1, -2, 5,0.031892251608556875,0.781093232346487,1
1503600485023,-0.055,+0.092,-0.381,-0.918,+0.745,-0.199,-0.657,+0.812,+1.375,+0.875,3, 8, 1, -1, 0, -1, 1, -6,0.0315916402843279,0.7829715070120346,1
1503600485045,-0.055,+0.093,-0.381,-0.918,+0.720,-0.198,-0.651,+0.938,+1.438,-0.625,-5, 9, 10, 3, 0, 0, 0, -3,0.030824144129493268,0.7831588415726998,1
1503600485067,-0.054,+0.093,-0.381,-0.918,+0.702,-0.203,-0.654,+2.250,-0.062,-0.875,6, 16, 7, 2, -1, 0, -1, -3,0.028939475414286372,0.7832937443227364,1
1503600485084,-0.054,+0.094,-0.381,-0.918,+0.695,-0.209,-0.659,+1.812,+0.312,+0.438,-1, 1, 2, -2, -2, -2, -2, -5,0.02817084836595429,0.7834855717105619,1
1503600485105,-0.055,+0.094,-0.382,-0.918,+0.708,-0.214,-0.646,+0.062,+2.562,+2.438,0, 2, -1, -3, -1, 2, 0, 3,0.029863757629976194,0.7857832542801335,1
1503600485127,-0.055,+0.094,-0.382,-0.918,+0.722,-0.207,-0.639,-0.625,+1.125,+3.562,3, -4, -2, 4, 0, 6, 3, -7,0.029863757629976194,0.7857832542801335,1
1503600485143,-0.055,+0.094,-0.382,-0.918,+0.745,-0.210,-0.637,-0.812,-2.125,+3.500,-3, -1, -1, -1, -1, -3, -4, -2,0.029863757629976194,0.7857832542801335,1
1503600485165,-0.055,+0.094,-0.381,-0.918,+0.725,-0.203,-0.651,-1.125,-4.500,+1.062,6, 0, -5, -5, -2, -4, 0, -3,0.030056152932651743,0.783349196614189,1
1503600485188,-0.055,+0.094,-0.380,-0.919,+0.708,-0.203,-0.659,-0.562,-6.750,+0.000,-4, 17, 11, 3, 1, -6, -4, -4,0.030361115389091038,0.7814694850022575,1
1503600485203,-0.055,+0.095,-0.379,-0.919,+0.704,-0.209,-0.660,-0.062,-5.500,+0.812,0, -4, -5, -3, -2, 1, -2, -3,0.029789320209227227,0.7792308917542511,1
1503600485225,-0.055,+0.095,-0.378,-0.919,+0.701,-0.223,-0.668,+0.000,-5.875,+1.750,-1, -7, -1, -1, 0, 4, 4, 6,0.029983838439039626,0.7768014650821953,1
1503600485248,-0.055,+0.095,-0.378,-0.919,+0.705,-0.222,-0.656,-1.688,-3.062,+2.500,-12, -4, 0, -1, -1, -2, 4, 5,0.029983838439039626,0.7768014650821953,1
1503600485263,-0.056,+0.095,-0.377,-0.920,+0.728,-0.219,-0.658,-2.625,-3.375,+1.750,-4, -5, -8, -4, -2, -2, -1, -4,0.03218188351932129,0.7747867992425311,1
1503600485286,-0.056,+0.095,-0.377,-0.920,+0.720,-0.217,-0.666,-2.062,-1.312,+0.625,9, 21, -1, -1, -1, 0, 1, 8,0.03218188351932129,0.7747867992425311,1
1503600485307,-0.055,+0.095,-0.377,-0.920,+0.717,-0.214,-0.651,-0.312,-2.062,-0.938,-6, -23, -6, -2, 1, 0, 0, 9,0.030290967859268256,0.7749258330883815,1
1503600485323,-0.055,+0.095,-0.377,-0.920,+0.713,-0.213,-0.667,-0.188,-1.562,-0.812,-3, 2, -1, -1, -3, -2, -1, 1,0.030290967859268256,0.7749258330883815,1
1503600485345,-0.055,+0.095,-0.376,-0.920,+0.691,-0.209,-0.668,-0.375,-0.688,-1.000,-2, -10, -2, 0, 0, 0, -3, 4,0.030485480205830667,0.7725000269044029,1
1503600485367,-0.055,+0.095,-0.376,-0.920,+0.679,-0.200,-0.662,-1.062,+0.188,+0.375,-1, 2, -1, 0, -2, -2, -1, 0,0.030485480205830667,0.7725000269044029,1
1503600485385,-0.055,+0.095,-0.376,-0.920,+0.702,-0.200,-0.662,-1.125,+0.438,+2.500,-9, -14, -10, -4, -2, 2, -2, -12,0.030485480205830667,0.7725000269044029,1
1503600485405,-0.055,+0.095,-0.377,-0.920,+0.726,-0.207,-0.656,-1.000,+1.625,+3.875,-2, -3, -2, 0, -1, -2, 0, -2,0.030290967859268256,0.7749258330883815,1
1503600485427,-0.056,+0.096,-0.377,-0.920,+0.723,-0.212,-0.660,-0.500,-0.375,+2.688,-2, 14, 6, 2, 0, 0, 1, 2,0.03142216302689735,0.7749785984206602,1
1503600485445,-0.056,+0.096,-0.377,-0.920,+0.708,-0.213,-0.657,-1.062,-0.938,+2.562,-1, -10, -4, -1, -2, -7, 3, 0,0.03142216302689735,0.7749785984206602,1
1503600485465,-0.056,+0.096,-0.376,-0.920,+0.699,-0.219,-0.656,-1.812,-1.812,+2.500,-6, 1, -1, -1, -1, 0, -3, 5,0.03161883081035608,0.7725515996168049,1
1503600485488,-0.057,+0.096,-0.376,-0.920,+0.701,-0.222,-0.656,-2.562,-2.500,+2.750,7, 8, 6, -2, 1, 1, 1, 5,0.03351119701382764,0.7724106758365178,1
1503600485503,-0.057,+0.096,-0.376,-0.920,+0.714,-0.224,-0.656,-4.125,-2.375,+2.875,2, 5, 9, 3, 1, 0, -4, -22,0.03351119701382764,0.7724106758365178,1
1503600485525,-0.058,+0.095,-0.375,-0.920,+0.720,-0.218,-0.660,-4.375,-2.312,+1.625,-15, -14, -9, -2, -2, -1, 1, 5,0.03635518039315648,0.769656682807548,1
1503600485550,-0.058,+0.095,-0.375,-0.920,+0.712,-0.208,-0.654,-4.250,-2.938,+0.562,3, 9, 5, 1, -1, -1, 2, -1,0.03635518039315648,0.769656682807548,1
1503600485562,-0.058,+0.095,-0.374,-0.921,+0.691,-0.200,-0.670,-3.125,-3.500,+0.562,10, 2, 5, 2, -2, 0, -1, -1,0.036668536988156315,0.7677851406267501,1
1503600485585,-0.058,+0.094,-0.374,-0.921,+0.684,-0.209,-0.673,-1.812,-1.625,+1.125,2, -16, -11, -5, -2, -1, -2, 4,0.03741999872348027,0.7676017257748252,1
1503600485607,-0.058,+0.094,-0.374,-0.921,+0.689,-0.220,-0.668,-1.688,-1.000,+1.438,9, 35, 4, -1, 0, -1, 1, 3,0.03741999872348027,0.7676017257748252,1
1503600485623,-0.058,+0.094,-0.374,-0.921,+0.700,-0.213,-0.671,-1.812,+0.500,+1.500,-5, -3, -4, 0, 0, -4, 1, 4,0.03741999872348027,0.7676017257748252,1
1503600485647,-0.058,+0.095,-0.374,-0.921,+0.708,-0.212,-0.671,-0.938,+1.188,+1.062,-2, 7, 1, 0, 0, 0, -1, -8,0.036668536988156315,0.7677851406267501,1
1503600485667,-0.058,+0.095,-0.374,-0.921,+0.695,-0.211,-0.667,-0.562,+1.250,-0.250,-5, 1, -1, 0, -2, -2, 1, 5,0.036668536988156315,0.7677851406267501,1
1503600485685,-0.058,+0.095,-0.374,-0.921,+0.687,-0.207,-0.663,+0.000,+2.250,-0.688,-5, 1, 4, -3, -1, -1, 0, 1,0.036668536988156315,0.7677851406267501,1
1503600485705,-0.058,+0.095,-0.375,-0.920,+0.696,-0.211,-0.657,-0.062,+2.250,+0.000,-10, -3, -6, -2, -3, -2, -4, 0,0.03635518039315648,0.769656682807548,1
1503600485734,-0.057,+0.095,-0.375,-0.920,+0.709,-0.211,-0.664,-0.125,+1.625,-0.688,-6, -13, -4, 0, -2, -3, -1, 10,0.03446267484020955,0.7697965102794885,1
1503600485743,-0.057,+0.095,-0.375,-0.920,+0.702,-0.208,-0.662,-0.562,+1.562,-0.312,4, 3, -1, -1, 0, -3, 0, 5,0.03446267484020955,0.7697965102794885,1
1503600485765,-0.057,+0.095,-0.376,-0.920,+0.703,-0.206,-0.660,+0.062,+1.812,-0.062,2, 6, -4, -1, -1, 0, 1, -6,0.0342681232872953,0.7722212021618865,1
1503600485788,-0.057,+0.095,-0.376,-0.920,+0.708,-0.213,-0.655,+0.562,+0.688,+0.438,-2, -9, -7, -2, -1, 0, 0, -6,0.0342681232872953,0.7722212021618865,1
1503600485803,-0.057,+0.095,-0.376,-0.920,+0.711,-0.223,-0.652,+0.188,+0.562,+0.750,1, 1, -3, -1, 0, -1, -1, -2,0.0342681232872953,0.7722212021618865,1
1503600485825,-0.057,+0.095,-0.376,-0.920,+0.712,-0.223,-0.659,-1.062,+0.188,-0.438,-7, -1, 3, -1, 0, 0, 0, -2,0.0342681232872953,0.7722212021618865,1
1503600485848,-0.057,+0.095,-0.376,-0.920,+0.706,-0.214,-0.656,-2.312,-0.125,-0.875,-9, -7, 8, 3, -1, -1, 0, 7,0.0342681232872953,0.7722212021618865,1
1503600485863,-0.057,+0.095,-0.376,-0.920,+0.703,-0.211,-0.650,-2.125,+0.062,-0.250,-1, -4, -3, -1, -1, 1, 1, 3,0.0342681232872953,0.7722212021618865,1
1503600485885,-0.057,+0.095,-0.376,-0.920,+0.715,-0.210,-0.663,-1.750,-1.250,+0.000,10, 5, -2, 0, 0, 1, -2, -7,0.0342681232872953,0.7722212021618865,1
1503600485907,-0.057,+0.095,-0.376,-0.920,+0.713,-0.214,-0.655,-1.562,-0.438,+0.125,7, 6, -1, -1, 0, -2, -2, -11,0.0342681232872953,0.7722212021618865,1
1503600485924,-0.056,+0.095,-0.376,-0.920,+0.702,-0.215,-0.657,-1.438,-2.062,-0.625,5, 6, 1, 1, 0, -2, 0, -3,0.03237641706304611,0.7723606334686579,1
1503600485952,-0.056,+0.095,-0.376,-0.920,+0.701,-0.203,-0.666,-1.438,+0.062,-0.562,0, -4, -7, -2, -2, 0, -3, -1,0.03237641706304611,0.7723606334686579,1
1503600485968,-0.056,+0.095,-0.376,-0.920,+0.708,-0.208,-0.667,-0.750,-0.500,+0.125,3, 18, 3, -2, -1, 0, -1, -2,0.03237641706304611,0.7723606334686579,1
1503600485983,-0.056,+0.095,-0.376,-0.920,+0.709,-0.209,-0.662,-0.750,+0.688,+0.375,-1, -13, -10, -4, -1, -2, 2, -5,0.03237641706304611,0.7723606334686579,1
1503600486005,-0.056,+0.095,-0.376,-0.920,+0.700,-0.210,-0.657,-0.438,+0.375,+0.125,-5, 1, -5, -1, -1, -3, -3, 5,0.03237641706304611,0.7723606334686579,1
1503600486028,-0.056,+0.095,-0.376,-0.920,+0.698,-0.211,-0.664,-0.375,-0.500,+1.562,6, -7, -6, -1, -3, 0, -2, 1,0.03237641706304611,0.7723606334686579,1
1503600486042,-0.057,+0.095,-0.376,-0.920,+0.696,-0.209,-0.667,-0.375,+1.438,+1.812,0, 13, 4, 0, 0, -1, 0, 0,0.0342681232872953,0.7722212021618865,1
1503600486065,-0.057,+0.095,-0.376,-0.920,+0.720,-0.214,-0.656,-0.188,+0.812,+2.125,-4, -1, 2, -1, -1, -1, -1, -2,0.0342681232872953,0.7722212021618865,1
1503600486086,-0.057,+0.095,-0.376,-0.920,+0.726,-0.215,-0.654,-0.250,+0.688,+1.375,1, 3, 4, 1, -1, -1, -5, 4,0.0342681232872953,0.7722212021618865,1
1503600486102,-0.057,+0.095,-0.376,-0.920,+0.713,-0.216,-0.651,-0.312,-1.062,+0.438,-3, -7, -2, -2, -1, -1, 0, -3,0.0342681232872953,0.7722212021618865,1
1503600486126,-0.057,+0.095,-0.376,-0.920,+0.695,-0.218,-0.663,-1.125,-0.500,+1.312,1, -1, -3, -1, 0, -1, 0, -6,0.0342681232872953,0.7722212021618865,1
1503600486147,-0.057,+0.095,-0.376,-0.920,+0.698,-0.219,-0.659,-1.938,-1.375,+0.938,9, 18, -1, 0, 0, -3, -2, -6,0.0342681232872953,0.7722212021618865,1
1503600486161,-0.057,+0.095,-0.376,-0.920,+0.716,-0.212,-0.658,-2.375,-2.062,+1.375,-13, -14, -5, -3, 0, -1, 1, 1,0.0342681232872953,0.7722212021618865,1
1503600486186,-0.057,+0.095,-0.375,-0.920,+0.708,-0.212,-0.662,-1.375,-1.812,+0.688,3, -11, -5, -1, 0, 0, -1, -11,0.03446267484020955,0.7697965102794885,1
1503600486207,-0.057,+0.095,-0.375,-0.920,+0.702,-0.220,-0.660,-1.062,-2.688,+0.125,-2, 2, 7, 0, -3, -1, -3, 1,0.03446267484020955,0.7697965102794885,1
1503600486222,-0.057,+0.095,-0.375,-0.920,+0.695,-0.218,-0.672,-1.688,-1.125,+0.438,-4, -18, -7, -2, -3, -2, -1, 14,0.03446267484020955,0.7697965102794885,1
1503600486244,-0.057,+0.095,-0.375,-0.921,+0.689,-0.215,-0.665,-2.562,-0.438,+0.188,2, 13, 3, -1, -1, -1, 0, 3,0.034579404520172205,0.7703480909271944,1
1503600486267,-0.057,+0.095,-0.375,-0.920,+0.693,-0.207,-0.668,-2.625,+1.875,+0.750,4, -1, 1, -2, 0, -2, 1, 0,0.03446267484020955,0.7697965102794885,1
1503600486285,-0.057,+0.095,-0.375,-0.920,+0.706,-0.211,-0.662,-1.562,+0.812,+1.375,-2, 7, -1, -1, -1, -1, -1, -7,0.03446267484020955,0.7697965102794885,1
1503600486304,-0.057,+0.095,-0.375,-0.920,+0.709,-0.216,-0.665,-1.812,+1.438,+1.062,4, 8, 0, 0, -1, -1, -6, 8,0.03446267484020955,0.7697965102794885,1
1503600486328,-0.057,+0.095,-0.375,-0.920,+0.700,-0.212,-0.663,-1.688,+2.562,+0.562,-1, 22, 3, -1, -1, -1, -3, -9,0.03446267484020955,0.7697965102794885,1
1503600486342,-0.057,+0.095,-0.376,-0.920,+0.705,-0.208,-0.662,-1.062,+2.250,+0.938,-6, -16, -9, -2, -2, 0, -1, 4,0.0342681232872953,0.7722212021618865,1
1503600486364,-0.058,+0.095,-0.376,-0.920,+0.715,-0.219,-0.659,-1.250,+1.562,+1.562,-3, -7, 1, 1, -1, -1, 1, 2,0.03616060897434057,0.772081732974077,1
1503600486387,-0.058,+0.095,-0.376,-0.920,+0.706,-0.215,-0.659,-1.188,+1.188,+1.375,6, 6, 1, -1, -2, 0, 0, -4,0.03616060897434057,0.772081732974077,1
1503600486401,-0.058,+0.095,-0.376,-0.920,+0.695,-0.219,-0.661,-1.375,+0.438,+0.438,1, 10, 2, 0, 1, 1, -1, -8,0.03616060897434057,0.772081732974077,1
1503600486424,-0.058,+0.095,-0.377,-0.920,+0.707,-0.216,-0.653,-1.125,+1.000,+0.438,-3, -8, -4, 1, 1, -1, 1, 0,0.03596603481635279,0.7745086179630758,1
1503600486446,-0.058,+0.095,-0.377,-0.920,+0.725,-0.216,-0.663,-1.188,-1.062,+0.188,-6, 1, 4, -1, -2, -2, -3, -3,0.03596603481635279,0.7745086179630758,1
1503600486461,-0.058,+0.095,-0.377,-0.920,+0.718,-0.208,-0.670,-0.938,+0.062,+0.000,2, 6, 8, 3, 1, 1, 0, -3,0.03596603481635279,0.7745086179630758,1
1503600486486,-0.058,+0.095,-0.377,-0.920,+0.697,-0.215,-0.664,-0.500,-0.625,+0.312,3, -10, -9, -5, -2, -2, -4, -2,0.03596603481635279,0.7745086179630758,1
1503600486506,-0.058,+0.095,-0.377,-0.920,+0.691,-0.216,-0.663,-1.250,-0.375,+0.188,11, 26, 8, 1, -1, -2, 1, 1,0.03596603481635279,0.7745086179630758,1
1503600486523,-0.058,+0.095,-0.377,-0.920,+0.705,-0.204,-0.667,-1.188,-0.062,+0.375,4, -3, -2, -3, -4, -2, -3, 4,0.03596603481635279,0.7745086179630758,1
1503600486545,-0.058,+0.095,-0.377,-0.920,+0.718,-0.209,-0.660,-0.875,+1.062,+1.000,-2, 13, -3, -3, -2, -1, -2, -2,0.03596603481635279,0.7745086179630758,1
1503600486566,-0.058,+0.095,-0.377,-0.919,+0.710,-0.210,-0.652,-0.688,+1.375,+1.000,-4, 2, 7, 1, 1, 1, 1, -4,0.03584724083213584,0.7739561990711811,1
1503600486582,-0.058,+0.095,-0.377,-0.919,+0.702,-0.216,-0.658,-0.125,+0.500,+1.000,-5, -13, -9, -3, -2, -1, -5, 4,0.03584724083213584,0.7739561990711811,1
1503600486604,-0.058,+0.095,-0.377,-0.919,+0.705,-0.214,-0.662,-0.125,+0.562,+1.250,9, -4, -2, 0, 1, -1, -1, -4,0.03584724083213584,0.7739561990711811,1
1503600486628,-0.058,+0.095,-0.377,-0.919,+0.706,-0.217,-0.652,-0.375,+0.000,+1.188,13, 27, -5, -3, -2, -1, -2, -3,0.03584724083213584,0.7739561990711811,1
1503600486649,-0.058,+0.096,-0.377,-0.919,+0.706,-0.233,-0.666,-0.625,-1.750,+0.000,-12, -16, -2, 1, -1, -1, -1, -5,0.035088788617370754,0.774144922249493,1
1503600486664,-0.058,+0.096,-0.377,-0.919,+0.700,-0.219,-0.652,-1.812,+1.000,-0.812,0, -4, 2, 0, 1, -2, 2, 2,0.035088788617370754,0.774144922249493,1
1503600486688,-0.058,+0.095,-0.377,-0.919,+0.702,-0.209,-0.656,-1.688,+0.875,-0.375,-2, 1, 5, 1, 0, 1, 4, 4,0.03584724083213584,0.7739561990711811,1
1503600486709,-0.058,+0.095,-0.377,-0.919,+0.712,-0.216,-0.652,-1.750,+0.438,+1.188,-10, -4, -1, -2, 0, 0, -1, -1,0.03584724083213584,0.7739561990711811,1
1503600486724,-0.058,+0.095,-0.377,-0.919,+0.708,-0.210,-0.668,-1.250,-0.562,+0.938,-2, -14, -4, -1, 0, -1, 0, -3,0.03584724083213584,0.7739561990711811,1
1503600486746,-0.058,+0.095,-0.377,-0.919,+0.704,-0.217,-0.660,-0.938,-0.500,+0.500,4, 15, 6, 1, 1, 1, -1, -1,0.03584724083213584,0.7739561990711811,1
1503600486769,-0.058,+0.095,-0.377,-0.919,+0.712,-0.224,-0.660,-1.438,+0.812,+0.688,6, 13, 0, 0, 0, -1, -3, 0,0.03584724083213584,0.7739561990711811,1
1503600486784,-0.058,+0.095,-0.377,-0.919,+0.707,-0.216,-0.655,-2.000,+0.375,+0.062,0, -9, -4, -2, -1, 1, -2, 3,0.03584724083213584,0.7739561990711811,1
1503600486806,-0.058,+0.095,-0.377,-0.919,+0.704,-0.218,-0.655,-2.375,+0.062,-0.250,-2, -17, -4, -2, -1, -1, -5, -18,0.03584724083213584,0.7739561990711811,1
1503600486830,-0.058,+0.095,-0.377,-0.919,+0.712,-0.212,-0.658,-2.312,-1.438,-0.688,8, 13, -7, 0, -2, -3, -2, 7,0.03584724083213584,0.7739561990711811,1
1503600486844,-0.057,+0.095,-0.377,-0.920,+0.713,-0.213,-0.659,-2.438,-0.625,-1.188,-8, -13, -3, -1, 2, -1, -2, -1,0.034073569139212605,0.7746477275374573,1
1503600486866,-0.057,+0.094,-0.377,-0.920,+0.709,-0.212,-0.669,-2.438,-0.812,-1.125,-4, -7, 2, -1, -1, 0, 1, 0,0.03483213960054765,0.7744604184926885,1
1503600486889,-0.057,+0.094,-0.377,-0.920,+0.703,-0.204,-0.665,-2.000,-0.438,-0.812,-7, 8, 1, -2, -2, -1, -6, 9,0.03483213960054765,0.7744604184926885,1
1503600486904,-0.057,+0.094,-0.377,-0.920,+0.703,-0.208,-0.663,-0.938,-1.500,+0.062,3, -1, -1, -1, 0, 1, 1, -1,0.03483213960054765,0.7744604184926885,1
1503600486927,-0.057,+0.094,-0.377,-0.920,+0.706,-0.209,-0.668,-0.812,-1.000,+0.188,3, 4, 4, 0, -1, 3, 1, 2,0.03483213960054765,0.7744604184926885,1
1503600486942,-0.057,+0.094,-0.377,-0.920,+0.705,-0.213,-0.655,-1.062,+0.375,+0.625,-4, -6, 0, 0, 0, 0, 2, -6,0.03483213960054765,0.7744604184926885,1
1503600486964,-0.057,+0.094,-0.377,-0.920,+0.707,-0.206,-0.657,-0.812,-0.562,+0.938,-2, 7, 4, 0, -1, -3, -1, -9,0.03483213960054765,0.7744604184926885,1
1503600486990,-0.057,+0.094,-0.377,-0.920,+0.716,-0.212,-0.666,-0.312,+0.125,+1.000,13, 23, -4, -2, -1, -2, 1, 3,0.03483213960054765,0.7744604184926885,1
1503600487002,-0.057,+0.094,-0.377,-0.920,+0.705,-0.218,-0.658,-0.938,+0.500,+1.000,-4, -5, -3, 0, 1, 2, 3, 2,0.03483213960054765,0.7744604184926885,1
1503600487027,-0.057,+0.094,-0.377,-0.920,+0.704,-0.212,-0.654,-1.750,+0.812,+1.312,1, 1, -2, -1, -3, -3, -3, 0,0.03483213960054765,0.7744604184926885,1
1503600487046,-0.057,+0.094,-0.377,-0.920,+0.713,-0.212,-0.660,-2.250,-0.438,+1.250,2, 9, 7, -1, -1, -1, 1, -3,0.03483213960054765,0.7744604184926885,1
1503600487063,-0.057,+0.094,-0.377,-0.920,+0.718,-0.210,-0.650,-2.375,-0.562,+1.000,-2, -17, -8, -1, -2, 0, 0, -5,0.03483213960054765,0.7744604184926885,1
1503600487084,-0.057,+0.094,-0.376,-0.920,+0.720,-0.217,-0.655,-2.125,-2.062,+0.688,1, 2, 2, 1, 0, -1, 0, 15,0.03502456116436374,0.772034723409421,1
1503600487106,-0.057,+0.094,-0.376,-0.920,+0.706,-0.220,-0.670,-1.938,-2.125,+0.875,1, 12, 3, -1, -1, -3, -4, -1,0.03502456116436374,0.772034723409421,1
1503600487125,-0.057,+0.093,-0.376,-0.920,+0.684,-0.204,-0.662,-2.375,-0.125,-0.250,1, 22, -5, -1, -2, -1, 2, 1,0.03578051967260412,0.7718512347280019,1
1503600487144,-0.057,+0.093,-0.376,-0.920,+0.688,-0.199,-0.656,-1.875,-0.250,+0.938,2, -5, 5, 2, 2, -1, 1, -4,0.03578051967260412,0.7718512347280019,1
1503600487167,-0.058,+0.093,-0.376,-0.920,+0.709,-0.213,-0.665,-1.625,+0.125,+1.625,-1, -11, -7, -3, -1, 1, -2, -2,0.03767169781030232,0.7717147505387847,1
1503600487182,-0.058,+0.093,-0.376,-0.920,+0.712,-0.212,-0.667,-1.375,+1.500,+1.375,4, -7, -1, 2, 0, 0, 2, -3,0.03767169781030232,0.7717147505387847,1
1503600487204,-0.058,+0.094,-0.376,-0.920,+0.705,-0.209,-0.664,-0.250,+0.875,+0.750,-8, -2, -1, -1, -1, -2, -2, 2,0.03691639005500454,0.7718967469891835,1
1503600487234,-0.058,+0.094,-0.376,-0.920,+0.709,-0.209,-0.658,+0.375,+0.375,+1.562,3, 2, -2, 0, 0, 0, -1, -4,0.03691639005500454,0.7718967469891835,1
1503600487250,-0.058,+0.094,-0.377,-0.920,+0.702,-0.220,-0.665,+0.125,+1.188,+1.500,-3, -6, 4, 1, 0, 0, -1, -2,0.03672394926134104,0.7743227975310192,1
1503600487265,-0.058,+0.094,-0.377,-0.920,+0.701,-0.217,-0.658,-0.312,+1.062,+1.500,14, 7, -3, -3, 0, -2, -2, -3,0.03672394926134104,0.7743227975310192,1
1503600487287,-0.058,+0.095,-0.377,-0.920,+0.713,-0.226,-0.653,-1.438,+1.062,+1.688,-10, 0, 2, 0, -1, -1, -3, -3,0.03596603481635279,0.7745086179630758,1
1503600487302,-0.058,+0.095,-0.377,-0.919,+0.707,-0.228,-0.641,-2.625,+0.875,+0.000,2, 17, 7, 0, 0, -1, -1, 1,0.03584724083213584,0.7739561990711811,1
1503600487324,-0.058,+0.094,-0.377,-0.920,+0.715,-0.224,-0.651,-3.812,-1.812,-0.812,-5, -9, -3, -4, -2, -2, -3, 2,0.03672394926134104,0.7743227975310192,1
1503600487346,-0.058,+0.094,-0.377,-0.920,+0.715,-0.214,-0.661,-5.062,-0.938,-1.438,7, -3, -1, 1, 0, 2, 1, 2,0.03672394926134104,0.7743227975310192,1
1503600487363,-0.058,+0.093,-0.377,-0.920,+0.697,-0.208,-0.651,-4.375,-1.625,-2.125,-11, -8, -2, -1, -3, -1, -4, 1,0.03748138793354075,0.7741399735444106,1
1503600487384,-0.058,+0.092,-0.376,-0.920,+0.694,-0.217,-0.651,-4.375,-3.125,-1.562,-8, -12, -1, -4, -4, -2, -1, 3,0.03842654123287289,0.7715357388296368,1
1503600487406,-0.058,+0.092,-0.376,-0.920,+0.717,-0.200,-0.665,-4.938,-2.562,-2.312,-3, -5, -4, -2, -1, -1, 2, -2,0.03842654123287289,0.7715357388296368,1
1503600487429,-0.057,+0.091,-0.375,-0.921,+0.707,-0.193,-0.665,-3.938,-3.188,-1.938,-1, -6, -3, 0, -1, 1, 0, -4,0.037593596877478465,0.769622987261202,1
1503600487444,-0.057,+0.090,-0.375,-0.921,+0.706,-0.195,-0.662,-2.375,-2.250,-0.812,4, 12, 5, 2, -1, -1, -2, -3,0.03834599841621842,0.7694491456594944,1
1503600487467,-0.057,+0.091,-0.375,-0.921,+0.718,-0.198,-0.667,-0.562,-2.188,+0.375,-2, -8, -4, -2, 0, -2, -5, -6,0.037593596877478465,0.769622987261202,1
1503600487489,-0.057,+0.091,-0.375,-0.921,+0.706,-0.208,-0.660,+0.125,-1.562,+1.062,5, 9, -1, -1, -3, -2, -2, -1,0.037593596877478465,0.769622987261202,1
1503600487504,-0.057,+0.091,-0.375,-0.921,+0.682,-0.205,-0.667,+0.375,+0.375,+1.688,1, 8, 4, 3, 3, 3, 2, 1,0.037593596877478465,0.769622987261202,1
1503600487527,-0.057,+0.092,-0.375,-0.921,+0.704,-0.207,-0.666,+1.188,+0.500,+2.250,0, 0, 0, -1, 0, -2, -1, -24,0.0368407456622471,0.769799797892233,1
1503600487551,-0.058,+0.092,-0.375,-0.921,+0.713,-0.205,-0.664,+0.625,+2.188,+2.812,-1, -11, -3, -3, -2, 0, 1, 6,0.03873335286426361,0.7696646039756293,1
1503600487564,-0.058,+0.092,-0.376,-0.920,+0.711,-0.211,-0.650,+0.500,+1.875,+2.125,-6, -11, -9, -3, -1, 3, 0, 2,0.03842654123287289,0.7715357388296368,1
1503600487587,-0.058,+0.093,-0.376,-0.920,+0.707,-0.220,-0.654,-0.312,-0.188,+3.062,7, 24, -3, 1, 0, -2, -2, 0,0.03767169781030232,0.7717147505387847,1
1503600487609,-0.058,+0.093,-0.376,-0.920,+0.709,-0.208,-0.656,-1.062,+0.000,+1.938,3, 1, -1, -2, 0, -1, -2, -7,0.03767169781030232,0.7717147505387847,1
1503600487624,-0.058,+0.093,-0.375,-0.920,+0.702,-0.214,-0.662,-1.000,-2.625,+1.188,-6, -21, -3, -1, -1, -1, -2, 2,0.037862004957035754,0.7692913649776922,1
1503600487646,-0.058,+0.093,-0.375,-0.921,+0.694,-0.216,-0.669,-1.500,-1.625,+0.625,-3, -18, -6, -2, -1, -3, 1, 2,0.03798068974627407,0.769842894168922,1
1503600487669,-0.058,+0.093,-0.375,-0.921,+0.699,-0.217,-0.668,-2.375,-1.500,+0.062,-8, -3, 2, -2, 0, -2, 0, 10,0.03798068974627407,0.769842894168922,1
1503600487684,-0.058,+0.093,-0.374,-0.921,+0.700,-0.212,-0.664,-3.125,-0.875,-0.250,-6, 8, 2, 1, 0, 0, -1, 2,0.03817099243114679,0.7674212866368593,1
1503600487706,-0.058,+0.092,-0.374,-0.921,+0.698,-0.206,-0.664,-3.000,-0.938,-0.625,0, -4, -2, -1, -1, -1, 0, -3,0.038921527058939386,0.7672438184348165,1
1503600487731,-0.058,+0.092,-0.374,-0.921,+0.704,-0.209,-0.664,-2.312,-1.625,-0.562,-1, 1, 1, -4, -4, -1, -2, 2,0.038921527058939386,0.7672438184348165,1
1503600487744,-0.058,+0.092,-0.374,-0.921,+0.708,-0.222,-0.670,-2.875,-0.562,-0.312,-5, 1, 12, 2, 1, 1, 1, 1,0.038921527058939386,0.7672438184348165,1
1503600487767,-0.058,+0.091,-0.374,-0.921,+0.704,-0.202,-0.659,-2.688,+0.750,-1.875,3, -12, -4, 0, 0, 1, 1, -1,0.039671611530437995,0.7670693164488491,1
1503600487789,-0.058,+0.091,-0.374,-0.921,+0.705,-0.195,-0.663,-1.500,-1.438,-1.188,-1, 4, -1, 0, 0, -1, 1, 3,0.039671611530437995,0.7670693164488491,1
1503600487804,-0.058,+0.091,-0.374,-0.921,+0.702,-0.208,-0.667,-1.188,-0.938,+0.500,5, 9, 0, 0, -2, -3, 1, 0,0.039671611530437995,0.7670693164488491,1
1503600487828,-0.058,+0.091,-0.374,-0.921,+0.709,-0.210,-0.664,-1.438,-0.375,+1.000,1, 2, 0, 0, -2, 0, 2, 4,0.039671611530437995,0.7670693164488491,1
1503600487849,-0.058,+0.091,-0.374,-0.921,+0.715,-0.205,-0.667,-1.438,+0.312,+1.250,-8, -10, 7, 1, 0, 0, 2, 4,0.039671611530437995,0.7670693164488491,1
1503600487865,-0.058,+0.091,-0.374,-0.921,+0.710,-0.198,-0.668,-0.500,-1.000,+0.438,-5, -6, -6, -2, -1, 0, 1, 0,0.039671611530437995,0.7670693164488491,1
1503600487886,-0.058,+0.091,-0.374,-0.921,+0.700,-0.200,-0.665,+0.000,+0.688,+1.688,6, 17, -7, -3, -3, 0, 0, 2,0.039671611530437995,0.7670693164488491,1
1503600487909,-0.058,+0.092,-0.374,-0.921,+0.697,-0.215,-0.662,+0.812,-0.312,+1.312,-3, -15, -6, 1, 0, 0, -1, -4,0.038921527058939386,0.7672438184348165,1
1503600487924,-0.058,+0.092,-0.374,-0.921,+0.698,-0.212,-0.663,-0.688,+1.125,+1.750,4, 1, 4, 0, 0, -1, -2, 0,0.038921527058939386,0.7672438184348165,1
1503600487946,-0.058,+0.092,-0.374,-0.921,+0.693,-0.208,-0.667,-1.438,+1.000,+1.500,-4, -4, -2, -3, -3, -4, -1, -3,0.038921527058939386,0.7672438184348165,1
1503600487969,-0.058,+0.092,-0.374,-0.921,+0.700,-0.210,-0.670,-1.438,+0.750,+1.000,-2, 24, 7, -2, -1, -1, -8, 3,0.038921527058939386,0.7672438184348165,1
1503600487985,-0.058,+0.092,-0.375,-0.921,+0.702,-0.211,-0.660,-1.812,+1.188,+0.562,-4, -14, -3, -2, -1, -1, 1, 5,0.03873335286426361,0.7696646039756293,1
1503600488006,-0.058,+0.092,-0.375,-0.921,+0.711,-0.212,-0.658,-2.250,+0.125,+0.375,-1, -6, 0, 0, 0, -2, -1, -4,0.03873335286426361,0.7696646039756293,1
1503600488029,-0.058,+0.092,-0.375,-0.921,+0.709,-0.205,-0.659,-2.000,+0.312,-0.125,0, -2, -3, 1, -1, 0, 0, -4,0.03873335286426361,0.7696646039756293,1
1503600488044,-0.058,+0.092,-0.374,-0.921,+0.706,-0.201,-0.663,-1.062,-1.625,-0.125,0, 17, 4, 2, -1, 0, -1, -9,0.038921527058939386,0.7672438184348165,1
1503600488067,-0.058,+0.092,-0.374,-0.921,+0.698,-0.205,-0.665,-0.188,-1.438,+0.500,7, -5, -11, -1, 0, -1, 2, -3,0.038921527058939386,0.7672438184348165,1
1503600488089,-0.058,+0.092,-0.374,-0.921,+0.699,-0.212,-0.667,-0.312,-0.688,+1.188,-3, -21, -11, -2, -1, 1, -1, 2,0.038921527058939386,0.7672438184348165,1
1503600488105,-0.058,+0.092,-0.374,-0.921,+0.710,-0.207,-0.660,-0.312,+0.438,+1.250,-2, -1, 0, -1, -1, 0, 0, 5,0.038921527058939386,0.7672438184348165,1
1503600488126,-0.058,+0.092,-0.374,-0.921,+0.712,-0.209,-0.656,-0.500,+0.312,+1.500,-4, -5, 3, 0, 1, 0, 2, 4,0.038921527058939386,0.7672438184348165,1
1503600488149,-0.058,+0.092,-0.374,-0.921,+0.710,-0.215,-0.663,-0.188,-0.625,+1.438,-1, -17, 0, 0, 1, 0, 0, -4,0.038921527058939386,0.7672438184348165,1
1503600488165,-0.058,+0.092,-0.374,-0.921,+0.693,-0.216,-0.667,-0.688,-0.188,+1.688,0, 0, 2, -2, 0, 1, -1, -6,0.038921527058939386,0.7672438184348165,1
1503600488186,-0.058,+0.092,-0.374,-0.921,+0.708,-0.217,-0.668,-1.500,-0.438,+1.312,-1, 13, 9, 0, -2, -1, -1, 1,0.038921527058939386,0.7672438184348165,1
1503600488209,-0.058,+0.092,-0.374,-0.921,+0.708,-0.213,-0.667,-2.188,-0.938,+1.375,3, -6, -6, -2, -1, -2, 0, -1,0.038921527058939386,0.7672438184348165,1
1503600488225,-0.058,+0.092,-0.374,-0.921,+0.705,-0.208,-0.661,-2.250,-0.625,+0.375,-4, -7, -5, -3, -1, -1, -2, -8,0.038921527058939386,0.7672438184348165,1
1503600488246,-0.058,+0.092,-0.374,-0.921,+0.697,-0.203,-0.660,-2.125,-1.750,+0.188,0, 0, -6, 0, 0, -2, -1, -2,0.038921527058939386,0.7672438184348165,1
1503600488269,-0.059,+0.092,-0.373,-0.921,+0.693,-0.213,-0.669,-1.875,-2.250,+1.188,-2, -2, -3, 0, 0, -3, -2, -2,0.04100311948530348,0.7646889572294497,1
1503600488284,-0.059,+0.092,-0.373,-0.921,+0.693,-0.211,-0.664,-1.625,-0.938,-0.188,4, 2, -1, 0, -2, -1, -1, -1,0.04100311948530348,0.7646889572294497,1
1503600488307,-0.058,+0.092,-0.373,-0.921,+0.696,-0.212,-0.667,-1.812,-1.438,-0.375,1, 3, 1, -2, 0, 1, 1, -2,0.03910969849587713,0.7648248752308404,1
1503600488329,-0.058,+0.092,-0.373,-0.921,+0.695,-0.210,-0.672,-2.250,+1.500,-0.750,2, 0, -2, -1, 0, -2, -3, 5,0.03910969849587713,0.7648248752308404,1
1503600488344,-0.058,+0.092,-0.373,-0.921,+0.697,-0.201,-0.673,-0.875,+1.375,-0.688,-6, 3, 0, -1, -1, -2, -2, -5,0.03910969849587713,0.7648248752308404,1
1503600488366,-0.058,+0.092,-0.374,-0.921,+0.704,-0.205,-0.666,+0.312,+1.125,+0.312,-5, 0, 3, -1, -1, 1, 0, -1,0.038921527058939386,0.7672438184348165,1
1503600488389,-0.058,+0.092,-0.374,-0.921,+0.711,-0.213,-0.657,+0.562,+2.000,+0.438,-1, -13, 0, 0, 1, -2, -2, -1,0.038921527058939386,0.7672438184348165,1
1503600488405,-0.058,+0.092,-0.374,-0.921,+0.705,-0.207,-0.666,+0.188,+0.625,+0.000,-1, -1, -1, 0, 0, 1, -1, 0,0.038921527058939386,0.7672438184348165,1
1503600488426,-0.058,+0.092,-0.375,-0.921,+0.702,-0.206,-0.668,-0.250,+1.812,+1.375,6, 11, 2, 0, 1, 1, 4, 3,0.03873335286426361,0.7696646039756293,1
