Timestamp,Orientation X,Orientation Y,Orientation Z,Orientation W,Accelerometer X,Accelerometer Y,Accelerometer Z,Gyroscope X,Gyroscope Y,Gyroscope Z,EMG1,EMG2,EMG3,EMG4,EMG5,EMG6,EMG7,EMG8,Roll,Yaw,Window
1503600480080,+0.044,+0.117,-0.557,-0.821,+0.914,-0.136,-0.270,-19.375,-9.250,-20.562,-25, -31, -21, 1, 4, 12, 2, -7,-0.20615020307753373,1.2070204307398908,0
1503600480102,+0.046,+0.112,-0.556,-0.822,+0.928,-0.111,-0.323,-18.125,-7.375,-24.375,69, 61, 24, 4, -3, -2, -15, 26,-0.2033635495812087,1.202573216782884,0
1503600480124,+0.048,+0.107,-0.556,-0.823,+0.911,-0.087,-0.330,-19.500,-5.000,-23.750,-10, 2, -1, -1, 8, 23, 13, -3,-0.20084700966717728,1.2009064005151275,0
1503600480142,+0.050,+0.102,-0.556,-0.823,+0.924,-0.062,-0.330,-14.812,-1.438,-22.875,-13, -16, -4, -3, -9, -14, -6, -13,-0.19826950400599216,1.198918342020984,0
1503600480162,+0.052,+0.098,-0.556,-0.823,+0.924,-0.078,-0.346,-12.562,+0.500,-17.875,44, -7, -17, -6, -4, -4, 5, 10,-0.1968939319673703,1.1974155493889063,0
1503600480184,+0.054,+0.095,-0.556,-0.824,+0.929,-0.061,-0.340,-12.125,-2.188,-17.938,-8, 21, 3, -1, 1, -2, -6, 4,-0.19681272826831386,1.1967647432321238,0
1503600480200,+0.056,+0.092,-0.556,-0.824,+0.914,-0.050,-0.341,-9.375,-2.625,-17.125,-32, 3, -4, -1, 0, 17, -1, -26,-0.19663944491325827,1.1957320728267264,0
1503600480222,+0.057,+0.089,-0.556,-0.825,+0.917,-0.047,-0.330,-7.250,-4.562,-12.750,-1, 7, -10, 1, 4, -7, -9, 6,-0.19492179726322922,1.1950691274576257,0
1503600480246,+0.058,+0.087,-0.555,-0.825,+0.936,-0.043,-0.332,-5.062,-4.375,-9.438,8, 4, 7, 10, 9, 25, -3, -16,-0.19409354585804794,1.1917105255511906,0
1503600480261,+0.060,+0.086,-0.554,-0.826,+0.911,-0.036,-0.337,-3.938,-4.875,-8.312,39, 16, 11, 1, 0, 1, 3, 9,-0.19622178498598186,1.1892054855099221,0
1503600480283,+0.061,+0.084,-0.553,-0.826,+0.920,-0.029,-0.338,-2.000,-7.062,-7.312,3, 22, 15, 0, 3, 5, 11, 7,-0.195416367380245,1.1858667396645581,0
1503600480299,+0.062,+0.083,-0.552,-0.827,+0.922,-0.046,-0.322,-2.125,-9.938,-5.812,-14, -7, 1, -12, -9, -14, -13, 12,-0.19589482869623634,1.183312575597966,0
1503600480320,+0.063,+0.083,-0.550,-0.829,+0.940,-0.056,-0.322,-1.000,-14.625,-5.562,-23, -84, -49, -3, -2, -8, 6, -9,-0.19749109422682978,1.178866679032305,0
1503600480344,+0.064,+0.082,-0.549,-0.829,+0.922,-0.060,-0.316,-1.688,-9.188,-4.250,19, 42, -1, -2, -4, -19, 12, -3,-0.19786333189204985,1.1759041861360202,0
1503600480358,+0.065,+0.081,-0.548,-0.830,+0.930,-0.038,-0.330,-3.562,-12.375,-4.062,6, 69, 28, 5, 2, 4, -2, -3,-0.19836867391745552,1.1733699162487745,0
1503600480383,+0.065,+0.080,-0.546,-0.831,+0.935,-0.047,-0.330,-4.562,-11.125,-0.688,24, 2, -12, -1, 0, 1, 4, 10,-0.19704186552727612,1.168113051202339,0
1503600480404,+0.065,+0.079,-0.545,-0.832,+0.934,-0.043,-0.343,-6.500,-10.938,+0.625,8, -21, -8, 1, 5, 21, -5, -3,-0.19587913833937914,1.165532720633031,0
1503600480418,+0.065,+0.078,-0.543,-0.834,+0.934,-0.023,-0.355,-5.875,-12.312,-0.250,3, -6, -15, -8, -5, 0, -6, 9,-0.19469578302848103,1.1607311912685987,0
1503600480440,+0.064,+0.078,-0.542,-0.835,+0.950,-0.042,-0.343,-6.625,-11.625,+3.375,-20, -28, -25, -9, -7, -8, 6, 14,-0.19297876629400604,1.158443440434422,0
1503600480467,+0.063,+0.077,-0.541,-0.835,+0.934,-0.035,-0.354,-7.250,-5.812,+4.875,10, 17, 7, -1, -1, 13, -11, -18,-0.19001114253264206,1.1553867338813564,0
1503600480478,+0.062,+0.076,-0.540,-0.836,+0.943,-0.028,-0.359,-6.250,-5.625,+6.500,1, 2, 0, 5, 5, 8, -2, -6,-0.18717103157193402,1.1527737928687887,0
1503600480503,+0.061,+0.076,-0.540,-0.836,+0.973,-0.053,-0.349,-5.812,-6.188,+7.312,37, 12, -7, 0, -2, -8, -6, -24,-0.18547928671471703,1.1527119717426446,0
1503600480529,+0.059,+0.076,-0.539,-0.837,+0.963,-0.063,-0.352,-6.875,-5.688,+7.938,36, 13, -4, -1, 1, -21, 19, 20,-0.18206380161885818,1.1503709837735232,0
1503600480538,+0.057,+0.076,-0.538,-0.838,+0.960,-0.061,-0.351,-7.875,-8.875,+9.062,15, 10, -1, 0, -1, -10, -16, -1,-0.17864232074487896,1.1480322920794586,0
1503600480560,+0.055,+0.076,-0.537,-0.838,+0.951,-0.062,-0.358,-8.000,-5.312,+11.312,49, 60, 17, 1, -1, 9, 13, 22,-0.1751061742888805,1.1452517631002117,0
1503600480583,+0.053,+0.076,-0.537,-0.839,+0.937,-0.073,-0.363,-8.625,-3.375,+10.438,-50, -6, -10, -11, -16, -35, -1, 6,-0.17182641025076123,1.1455702626402462,0
1503600480598,+0.051,+0.075,-0.537,-0.839,+0.926,-0.064,-0.365,-9.125,-0.938,+9.250,-19, -49, -4, -2, 6, 12, -8, -13,-0.16732752572169404,1.1451266842854415,0
1503600480621,+0.049,+0.075,-0.537,-0.839,+0.950,-0.078,-0.356,-9.312,-0.438,+9.938,-39, -16, -1, 1, -1, 4, -6, -2,-0.16394270285066948,1.14500249480794,0
1503600480648,+0.047,+0.075,-0.537,-0.839,+0.946,-0.085,-0.366,-9.312,+1.750,+9.125,-5, -30, -7, 0, -1, 2, -5, 0,-0.16055940583093642,1.1448782372814037,0
1503600480658,+0.045,+0.075,-0.537,-0.839,+0.929,-0.079,-0.371,-9.812,-0.688,+7.938,-23, 3, 7, 2, -2, -20, -7, 16,-0.15717755213748105,1.144753911653727,0
1503600480680,+0.043,+0.074,-0.537,-0.839,+0.932,-0.076,-0.373,-7.688,-1.188,+7.375,-7, 35, 11, 0, -2, 9, -2, -7,-0.15268669643459248,1.14432161317445,0
1503600480703,+0.042,+0.074,-0.536,-0.840,+0.894,-0.065,-0.373,-7.000,-2.250,+3.750,24, 6, 1, 4, 4, 4, -3, 4,-0.15093358907031423,1.142048951763624,0
1503600480718,+0.041,+0.074,-0.536,-0.840,+0.902,-0.075,-0.363,-5.938,-0.875,+5.125,4, 1, -13, -4, -6, -43, -28, 4,-0.14924225828075874,1.1419872256990222,0
1503600480740,+0.039,+0.074,-0.536,-0.840,+0.927,-0.093,-0.370,-6.500,+2.375,+9.375,14, -8, 10, 4, 3, 18, 6, 0,-0.14586048439392152,1.1418637235464815,0
1503600480763,+0.037,+0.074,-0.536,-0.840,+0.937,-0.084,-0.354,-7.438,-0.562,+10.438,18, 5, -12, -4, 1, 4, 18, 19,-0.142479824806063,1.1417401546542454,0
1503600480779,+0.036,+0.074,-0.536,-0.840,+0.919,-0.084,-0.368,-5.812,-3.000,+9.375,-2, 85, 51, 8, 3, 10, -6, -27,-0.14078988685216012,1.1416783451650132,0
1503600480799,+0.034,+0.074,-0.535,-0.841,+0.903,-0.094,-0.375,-6.250,-5.562,+6.812,-28, -50, -22, -10, -6, 6, 1, -1,-0.13733118746410905,1.1393447102098417,0
1503600480822,+0.032,+0.074,-0.534,-0.842,+0.907,-0.108,-0.356,-6.188,-4.250,+9.625,-28, -52, -22, -5, -3, 7, -6, -17,-0.13386532692312,1.1370133718512068,0
1503600480846,+0.030,+0.075,-0.534,-0.841,+0.904,-0.097,-0.347,-7.688,+0.562,+11.125,32, 43, 16, 9, 8, 28, 4, -3,-0.13152268305294992,1.13673428430527,0
1503600480867,+0.028,+0.074,-0.535,-0.841,+0.929,-0.083,-0.350,-7.812,+0.688,+8.562,3, -8, -8, -3, -8, -24, 3, -7,-0.12718674271107358,1.1389716366276619,0
1503600480882,+0.027,+0.074,-0.534,-0.842,+0.928,-0.090,-0.361,-7.125,-3.188,+6.625,-11, -41, -32, -9, -4, -5, -5, 13,-0.12540294051228076,1.1367009681349913,0
1503600480904,+0.026,+0.074,-0.534,-0.842,+0.893,-0.084,-0.359,-7.062,-4.812,+5.750,4, -9, -16, -6, -3, -8, -8, -7,-0.12371095766050746,1.1366384368232123,0
1503600480919,+0.025,+0.073,-0.533,-0.843,+0.892,-0.079,-0.366,-6.250,-2.375,+5.750,1, 18, 15, 4, 4, 4, 1, 10,-0.12082241788340459,1.1340815587423279,0
1503600480942,+0.023,+0.073,-0.534,-0.842,+0.899,-0.098,-0.348,-5.375,+3.062,+6.688,-35, -30, -15, -5, -2, 12, 2, 20,-0.11753518026862736,1.1361632854205326,0
1503600480964,+0.022,+0.073,-0.534,-0.842,+0.937,-0.099,-0.351,-6.000,+3.438,+4.438,16, -26, -16, -2, -6, -17, 14, 15,-0.11584386050599975,1.1361014994617273,0
1503600480981,+0.022,+0.073,-0.535,-0.842,+0.927,-0.091,-0.361,-5.312,+1.688,+2.500,4, -6, 4, 3, 2, 10, 4, 3,-0.11598960190953757,1.1387614644083681,0
1503600481002,+0.021,+0.073,-0.534,-0.842,+0.943,-0.098,-0.347,-4.000,-4.750,+2.000,-4, -51, -28, -8, -7, -4, -8, -12,-0.11415264085282788,1.1360396970549684,0
1503600481024,+0.021,+0.072,-0.534,-0.842,+0.930,-0.103,-0.360,-3.250,-4.250,+1.125,-3, -19, -15, -4, -3, -9, -2, 9,-0.11305317442296066,1.1357575620937237,0
1503600481039,+0.021,+0.072,-0.534,-0.842,+0.915,-0.109,-0.379,-2.938,-1.000,+0.125,-21, -28, 0, -2, -4, -11, -1, -9,-0.11305317442296066,1.1357575620937237,0
1503600481062,+0.020,+0.072,-0.534,-0.842,+0.944,-0.106,-0.367,-1.938,+2.312,+0.875,2, 6, 3, 4, 1, -6, 0, -6,-0.11136221050001632,1.1356965582955711,0
1503600481085,+0.021,+0.073,-0.535,-0.842,+0.951,-0.104,-0.369,+0.688,+2.125,-0.562,-20, 11, 27, 2, 1, 1, -7, -7,-0.1142984265590657,1.1387000551821,0
1503600481102,+0.021,+0.073,-0.535,-0.842,+0.953,-0.106,-0.367,+2.250,-1.562,-1.000,-2, -6, -5, -4, -8, -20, 2, 7,-0.1142984265590657,1.1387000551821,0
1503600481123,+0.022,+0.074,-0.535,-0.841,+0.933,-0.100,-0.355,+3.062,-0.062,-0.500,27, 43, 20, 7, -2, -19, -10, -4,-0.11704814465600624,1.138597958010207,0
1503600481144,+0.022,+0.075,-0.535,-0.841,+0.918,-0.094,-0.373,+5.312,+1.812,-1.125,14, -2, -13, -4, -4, -28, -6, 12,-0.11815145320737735,1.1388885859463362,0
1503600481159,+0.023,+0.075,-0.535,-0.841,+0.933,-0.102,-0.368,+5.875,+2.312,-1.500,8, 22, -2, 2, 0, -21, -1, -6,-0.11984107639971842,1.138951715445882,0
1503600481183,+0.025,+0.077,-0.535,-0.841,+0.927,-0.085,-0.378,+9.375,+0.188,-1.250,27, -11, -6, 1, 1, 27, 4, -3,-0.12543086148424784,1.1396751213104261,0
1503600481204,+0.026,+0.078,-0.535,-0.841,+0.924,-0.087,-0.379,+11.000,-1.500,-2.000,29, -23, -12, -13, -9, -13, -4, -5,-0.12822776182555143,1.1400447635307902,0
1503600481219,+0.028,+0.080,-0.535,-0.841,+0.917,-0.093,-0.374,+12.938,-2.625,-1.812,-10, -1, 8, -1, 1, 6, -4, 0,-0.1338256952678038,1.1407999104980848,0
1503600481242,+0.029,+0.082,-0.535,-0.841,+0.904,-0.099,-0.378,+14.688,+1.250,-0.188,2, 8, -7, 3, -4, -7, -2, 0,-0.13773755213365704,1.1415075849682101,0
1503600481264,+0.031,+0.084,-0.534,-0.840,+0.904,-0.101,-0.393,+16.812,+0.625,-0.938,4, -9, 4, 2, 1, 6, -7, -16,-0.14311733056224638,1.1391956535511238,0
1503600481281,+0.033,+0.087,-0.534,-0.840,+0.914,-0.116,-0.384,+17.625,-1.875,-0.812,-21, -28, -17, -6, -4, -5, -14, -2,-0.1498386631354201,1.1403585292152014,0
1503600481302,+0.034,+0.090,-0.533,-0.841,+0.906,-0.134,-0.375,+17.438,-5.000,+1.562,-12, -1, 12, 2, 7, 37, 13, -12,-0.15476847780692252,1.139279056735788,0
1503600481324,+0.036,+0.093,-0.532,-0.841,+0.899,-0.130,-0.390,+18.750,-5.438,+2.562,9, 9, -7, -6, -2, -1, -6, -2,-0.16132661437375828,1.137869411745814,0
1503600481339,+0.037,+0.096,-0.530,-0.841,+0.890,-0.125,-0.388,+17.688,-6.125,+2.812,-24, -74, -23, -8, -3, -2, -1, -3,-0.16599910326743364,1.1337688462588402,0
1503600481362,+0.039,+0.099,-0.529,-0.842,+0.899,-0.127,-0.375,+17.938,-9.000,+5.125,-14, -9, -2, -3, -3, -3, 8, 2,-0.17263078088612702,1.1329006104304333,0
1503600481389,+0.040,+0.103,-0.527,-0.843,+0.896,-0.125,-0.399,+20.000,-7.125,+6.688,10, -6, 3, 3, 7, -2, -1, -6,-0.17848731411098864,1.1297508384773798,0
1503600481399,+0.041,+0.107,-0.526,-0.843,+0.905,-0.128,-0.401,+22.125,-8.688,+7.188,25, -25, -19, -3, 0, -3, 2, -7,-0.18446856546922066,1.1288656875231684,0
1503600481425,+0.042,+0.111,-0.523,-0.844,+0.907,-0.141,-0.384,+23.188,-11.688,+8.375,5, 41, 2, 1, 4, 0, -10, 4,-0.19009904032861621,1.1232135312044067,0
1503600481444,+0.043,+0.116,-0.521,-0.844,+0.893,-0.158,-0.381,+23.188,-10.750,+10.438,17, 14, 6, -3, -2, 2, -1, 4,-0.1969769428026136,1.1202811863353397,0
1503600481461,+0.044,+0.120,-0.520,-0.845,+0.897,-0.159,-0.394,+24.500,-9.000,+12.000,-27, -24, -5, -1, -2, -16, 2, 9,-0.20304941755266642,1.1200762224096381,0
1503600481484,+0.045,+0.125,-0.517,-0.845,+0.917,-0.162,-0.417,+25.062,-11.438,+12.125,-18, 0, 3, 6, 6, 11, -3, 0,-0.20968415537392926,1.1146962168142585,0
1503600481505,+0.046,+0.130,-0.515,-0.846,+0.936,-0.179,-0.416,+24.625,-9.688,+11.500,16, 16, 4, 2, -10, -4, 4, 3,-0.21664850545594067,1.112524546284876,0
1503600481519,+0.046,+0.134,-0.514,-0.846,+0.981,-0.188,-0.438,+25.625,-8.250,+12.688,-8, 19, 2, -2, -2, 5, 10, -4,-0.22093402358019806,1.1119783682765214,0
1503600481541,+0.048,+0.139,-0.512,-0.846,+0.999,-0.173,-0.449,+26.250,-7.250,+8.438,-18, -12, -2, -1, -7, -10, -9, -8,-0.22953952529942537,1.1096564912951934,0
1503600481564,+0.050,+0.143,-0.511,-0.846,+1.018,-0.161,-0.421,+27.000,-7.312,+4.688,2, -6, -9, -5, -8, -4, -5, 0,-0.23728995476425435,1.1095144298119295,0
1503600481579,+0.053,+0.147,-0.511,-0.845,+1.018,-0.163,-0.441,+29.500,-1.750,+3.375,22, 18, -2, -5, 3, 4, -2, 1,-0.2469695319602327,1.1117508439219856,0
1503600481602,+0.056,+0.151,-0.511,-0.844,+1.003,-0.178,-0.465,+33.875,+4.438,-0.562,14, 7, -12, -3, -1, -10, -6, -9,-0.2566756943600275,1.114071106986801,0
1503600481624,+0.061,+0.156,-0.512,-0.843,+1.021,-0.181,-0.443,+35.562,+5.125,-7.188,-17, -9, 4, -2, -1, -1, -1, 0,-0.27133968428363237,1.120008207629645,0
1503600481639,+0.065,+0.160,-0.513,-0.841,+1.028,-0.194,-0.435,+38.000,+9.250,-8.125,8, 12, 1, -1, -8, -6, -8, -10,-0.2830307172160884,1.1248389473563234,0
1503600491771,+0.083,+0.148,-0.531,-0.830,+0.933,-0.150,-0.348,+3.062,-1.938,+17.688,-21, -13, -10, 0, 2, 2, -1, 0,-0.30332139487677223,1.1622064621675954,1
1503600491791,+0.081,+0.149,-0.531,-0.830,+0.910,-0.156,-0.344,+2.125,-1.312,+16.812,-8, -12, 5, 0, -2, -13, 0, 11,-0.30111905912257425,1.1625857757737326,1
1503600491808,+0.079,+0.151,-0.529,-0.831,+0.917,-0.172,-0.341,-0.562,-8.125,+16.188,-5, 2, -4, -1, 0, 7, 0, -4,-0.29969692056228164,1.1587307626953822,1
1503600491831,+0.078,+0.152,-0.528,-0.832,+0.895,-0.169,-0.342,-1.188,-7.500,+10.188,-19, -2, 14, 0, -1, -2, -5, -1,-0.2990552527887947,1.157022991722378,1
1503600491846,+0.077,+0.152,-0.528,-0.832,+0.860,-0.154,-0.348,-2.812,-0.938,+3.312,-34, 6, 13, 3, -1, 1, -3, -12,-0.2973484587474159,1.1568989257931945,1
1503600491869,+0.077,+0.152,-0.527,-0.833,+0.870,-0.160,-0.351,-4.250,+0.000,+2.625,5, -1, -3, -1, -2, 13, 9, -1,-0.29720287530745126,1.1546896868301986,1
1503600491892,+0.076,+0.151,-0.528,-0.832,+0.898,-0.174,-0.324,-6.375,+3.062,+0.000,17, 2, -4, 0, 0, -20, 0, 4,-0.29443766686667355,1.156149471620973,1
1503600491906,+0.077,+0.149,-0.528,-0.832,+0.915,-0.157,-0.339,-7.250,-1.938,-6.562,-74, -6, 12, 2, -2, 6, 4, 2,-0.2937397145509298,1.1550325417555989,1
1503600491930,+0.078,+0.147,-0.527,-0.833,+0.890,-0.147,-0.351,-6.750,-7.188,-12.000,17, 4, 4, 3, 3, 1, -4, 16,-0.29291473874191704,1.151721636449611,1
1503600491951,+0.080,+0.145,-0.527,-0.834,+0.867,-0.164,-0.356,-7.938,-7.562,-16.062,-15, -2, 0, -6, -3, -1, -6, -11,-0.2940997738402529,1.1511861941453352,1
1503600491966,+0.081,+0.143,-0.526,-0.835,+0.882,-0.166,-0.359,-10.062,-6.000,-13.062,5, -4, 2, 0, -1, 7, -8, -17,-0.2933100590002964,1.147908918936027,1
1503600491991,+0.081,+0.140,-0.526,-0.835,+0.906,-0.163,-0.346,-12.562,-2.875,-10.000,-12, 6, 6, -2, -3, -15, 0, -7,-0.28975849412204424,1.1461414923608106,1
1503600492011,+0.082,+0.138,-0.526,-0.835,+0.923,-0.137,-0.368,-11.938,-3.812,-11.250,-15, -16, -1, -3, -24, 3, -8, -1,-0.289111234153792,1.1450973639839566,1
1503600492027,+0.084,+0.135,-0.525,-0.836,+0.915,-0.107,-0.372,-8.750,-11.750,-12.562,0, -13, -3, 0, 9, 14, 5, -1,-0.288910231351919,1.1414195630113755,1
1503600492049,+0.085,+0.133,-0.522,-0.838,+0.907,-0.117,-0.393,-8.750,-16.750,-8.625,33, 48, 14, 4, 2, -3, -6, 7,-0.2878421530155578,1.1334108655660982,1
1503600492071,+0.086,+0.131,-0.521,-0.839,+0.877,-0.121,-0.380,-7.812,-12.688,-6.062,38, -28, -14, -10, -4, 2, 0, 7,-0.2871522368052118,1.1302358791098368,1
1503600492086,+0.085,+0.130,-0.520,-0.840,+0.899,-0.121,-0.386,-8.375,-7.500,-1.375,-15, -24, -6, 2, 8, -7, -3, -1,-0.28418744467295526,1.1274003695272972,1
1503600492108,+0.085,+0.129,-0.519,-0.841,+0.930,-0.123,-0.412,-7.688,-4.875,+1.688,1, 22, 21, 8, 6, -5, -4, 2,-0.2829491776928504,1.1246852421497757,1
1503600492131,+0.085,+0.128,-0.517,-0.842,+0.893,-0.120,-0.408,-6.188,-11.000,+0.188,-40, 34, 6, 0, 1, 6, -10, -30,-0.2814684224575291,1.1193604466301867,1
1503600492146,+0.085,+0.127,-0.516,-0.843,+0.893,-0.127,-0.401,-6.000,-9.875,-1.312,26, -12, -9, -4, 2, 30, -1, 0,-0.2802429415496992,1.1166626578960959,1
1503600492169,+0.085,+0.126,-0.515,-0.844,+0.892,-0.128,-0.386,-4.875,-8.250,-3.438,42, 25, 6, 2, 4, -3, -3, -4,-0.27902289345427544,1.1139724527869272,1
1503600492192,+0.086,+0.125,-0.513,-0.845,+0.914,-0.117,-0.382,-4.438,-11.812,-4.375,-5, -27, -9, -9, -6, -8, -1, 6,-0.2792981519367058,1.1087915381849012,1
1503600492206,+0.087,+0.124,-0.512,-0.845,+0.883,-0.099,-0.412,-1.250,-6.375,-8.688,-55, -30, -19, -3, -4, -4, -3, 5,-0.27965876931898676,1.1057677123763734,1
1503600492229,+0.089,+0.122,-0.512,-0.846,+0.876,-0.118,-0.383,-5.750,-6.250,-16.312,17, 22, 8, 2, -1, -5, 6, 20,-0.2810419990164291,1.105407932940153,1
1503600492253,+0.091,+0.121,-0.512,-0.846,+0.947,-0.138,-0.379,-4.312,-6.000,-12.062,-37, -42, -6, 0, -5, -12, 0, -7,-0.2833888747668722,1.105109209708709,1
1503600492267,+0.091,+0.120,-0.512,-0.846,+0.945,-0.132,-0.364,-6.812,-0.562,-6.688,59, 0, -1, 5, 6, 5, 9, 13,-0.28226416643105057,1.1045938474983357,1
1503600492289,+0.091,+0.117,-0.513,-0.846,+0.932,-0.090,-0.375,-10.312,-1.812,-8.312,39, 16, 17, 3, 0, -2, 3, 8,-0.2791252983359426,1.1056753703768594,1
1503600492311,+0.092,+0.115,-0.512,-0.846,+0.902,-0.073,-0.409,-7.625,-4.125,-8.375,-25, 10, -4, 1, 11, 5, -13, -10,-0.27839961479781034,1.102176162013252,1
1503600492326,+0.094,+0.113,-0.511,-0.847,+0.898,-0.076,-0.397,-8.312,-10.750,-9.750,-4, 1, -4, -3, -6, -4, -2, -1,-0.2796069625228062,1.099259308551015,1
1503600492356,+0.094,+0.111,-0.510,-0.848,+0.904,-0.064,-0.395,-8.125,-10.688,-7.312,-11, -1, 9, 5, 9, 5, 4, 10,-0.2773527818179564,1.0961522838980988,1
1503600492371,+0.095,+0.110,-0.509,-0.848,+0.880,-0.056,-0.407,-6.312,-6.062,-4.625,-39, -1, -2, -2, -1, 9, -1, 6,-0.2777755536527451,1.0931727746293949,1
1503600492386,+0.095,+0.109,-0.509,-0.849,+0.889,-0.064,-0.416,-6.312,-3.125,+0.688,5, -13, -6, -1, -4, -6, -2, -1,-0.27685561668754627,1.0931643687478254,1
1503600492409,+0.094,+0.108,-0.508,-0.849,+0.906,-0.050,-0.432,-5.500,-3.625,+4.938,23, 1, -1, 1, 4, 8, 9, 1,-0.2738014213571273,1.0899920413728674,1
1503600492432,+0.093,+0.108,-0.508,-0.850,+0.914,-0.058,-0.419,-4.438,-5.250,+6.250,3, 20, 14, 4, 1, -2, -9, -2,-0.2722384535177192,1.090363336154401,1
1503600492446,+0.092,+0.107,-0.506,-0.851,+0.903,-0.073,-0.419,-5.500,-7.938,+6.812,12, 2, -3, -1, 1, -12, 0, 5,-0.2691601506393443,1.0850760781523583,1
1503600492469,+0.090,+0.107,-0.506,-0.851,+0.911,-0.063,-0.423,-5.250,-4.812,+10.438,25, 6, -8, -5, -6, -4, -7, -27,-0.2656705962110135,1.0848754120303938,1
1503600492494,+0.089,+0.108,-0.505,-0.852,+0.896,-0.064,-0.430,-3.312,-6.000,+11.062,-19, -23, -17, -3, -5, -2, -2, -5,-0.26498400548196505,1.0831203888526715,1
1503600492507,+0.087,+0.108,-0.503,-0.853,+0.908,-0.095,-0.431,-2.625,-7.812,+11.188,-55, -12, 2, -1, 9, 14, 6, -5,-0.2612440209342573,1.0782070360191236,1
1503600492529,+0.086,+0.109,-0.502,-0.854,+0.904,-0.108,-0.399,-3.250,-7.438,+10.312,75, 30, 30, 5, -5, 7, 0, 11,-0.26054257425291855,1.0764574277817507,1
1503600492551,+0.084,+0.109,-0.501,-0.854,+0.890,-0.105,-0.417,-4.875,-6.188,+8.188,-25, 9, -7, -4, 7, -3, -3, 2,-0.2568366051043171,1.0736586548196314,1
1503600492567,+0.083,+0.109,-0.501,-0.855,+0.878,-0.112,-0.424,-5.875,-3.938,+6.125,-42, -30, -7, 2, -1, -2, 1, -1,-0.25525192356739584,1.0740344026908752,1
1503600492589,+0.082,+0.109,-0.500,-0.855,+0.893,-0.123,-0.423,-7.000,-5.875,+4.562,5, 12, 7, -2, -2, 8, -1, -4,-0.2532923351756125,1.0713402871118591,1
1503600492611,+0.081,+0.108,-0.499,-0.856,+0.893,-0.125,-0.417,-8.375,-7.188,+2.438,-18, -13, -13, -8, -14, -2, -4, -6,-0.2504104235432576,1.0686677963438316,1
1503600492629,+0.081,+0.107,-0.498,-0.857,+0.876,-0.115,-0.437,-9.125,-9.250,+0.688,16, 6, 13, -1, -1, -2, -3, 3,-0.24928065988425285,1.0661075118077206,1
1503600492648,+0.080,+0.105,-0.496,-0.858,+0.865,-0.110,-0.429,-10.250,-10.250,-2.812,22, 12, 7, 0, 1, 1, 2, -2,-0.24512736962302303,1.060418666682982,1
1503600492671,+0.080,+0.104,-0.495,-0.859,+0.878,-0.109,-0.429,-10.750,-8.625,-4.938,5, 8, -8, 2, 1, 0, -10, 14,-0.24401148886512863,1.0578792675442552,1
1503600492687,+0.080,+0.102,-0.495,-0.859,+0.874,-0.110,-0.435,-10.500,-6.438,-4.812,7, -5, 1, 5, 5, 0, 12, -6,-0.24188119808901057,1.0570000770955483,1
1503600492708,+0.080,+0.100,-0.494,-0.860,+0.883,-0.100,-0.444,-10.625,-6.812,-4.000,19, 7, 8, 0, 3, 6, 0, -17,-0.23971709227187257,1.0540449843084674,1
1503600492731,+0.080,+0.099,-0.493,-0.860,+0.875,-0.093,-0.442,-11.688,-4.312,-2.125,-25, 0, -3, 2, -1, -5, 2, 5,-0.2384652222795769,1.0510395294068602,1
1503600492747,+0.079,+0.097,-0.493,-0.861,+0.891,-0.078,-0.435,-11.812,-3.000,-1.562,-13, -2, -1, 1, -2, -9, -7, 5,-0.2347561519517966,1.050591714069439,1
1503600492769,+0.079,+0.096,-0.493,-0.861,+0.906,-0.077,-0.455,-9.188,-1.438,-0.625,-16, -34, -12, -6, -1, -3, 0, -16,-0.2337033748322068,1.0501766144992188,1
1503600492791,+0.078,+0.094,-0.493,-0.861,+0.912,-0.086,-0.471,-9.625,-4.250,-1.375,3, 29, 4, -6, -7, -15, -3, 1,-0.22984704113652618,1.049262975934542,1
1503600492807,+0.078,+0.093,-0.492,-0.862,+0.897,-0.078,-0.475,-9.188,-6.625,-2.000,21, 4, -2, 0, -2, -6, 4, 12,-0.22876877471311738,1.0467762938633192,1
1503600492829,+0.078,+0.091,-0.491,-0.863,+0.893,-0.083,-0.472,-8.062,-9.750,-0.750,19, -9, 10, 2, 1, -2, 1, 5,-0.22665296672111415,1.0439004572252362,1
1503600492851,+0.077,+0.091,-0.490,-0.864,+0.880,-0.086,-0.476,-7.125,-4.750,+0.625,-9, 14, 3, 3, 5, 8, 3, -3,-0.22486822540894377,1.0417315147787098,1
1503600492868,+0.077,+0.090,-0.490,-0.864,+0.858,-0.079,-0.475,-6.750,-0.625,-0.062,-61, 4, -1, -6, -3, 6, -3, -23,-0.2238288621688371,1.041340145280023,1
1503600492888,+0.077,+0.089,-0.490,-0.864,+0.874,-0.083,-0.467,-5.938,+2.938,-1.562,-40, -30, -12, -1, -6, -14, 2, 6,-0.22279066786217766,1.0409522763704788,1
1503600492911,+0.077,+0.088,-0.492,-0.863,+0.891,-0.083,-0.441,-6.062,+8.625,-4.062,-1, 21, -2, -1, 0, 4, 4, -3,-0.2219473430353346,1.0452190555477636,1
1503600492927,+0.077,+0.087,-0.494,-0.862,+0.912,-0.061,-0.453,-5.500,+11.125,-7.000,-2, 26, 13, -1, 0, 1, -4, -4,-0.22109736417840647,1.0494974128659253,1
1503600492948,+0.079,+0.086,-0.495,-0.861,+0.896,-0.053,-0.456,-5.438,+6.688,-10.938,-8, -32, -20, -4, 4, 34, 4, -8,-0.2235781746769916,1.0513774110628646,1
1503600492972,+0.080,+0.084,-0.496,-0.861,+0.899,-0.048,-0.443,-4.812,+5.250,-11.562,-4, -6, 10, 5, 2, -3, 1, 10,-0.22340979641095754,1.0532922994271283,1
1503600492987,+0.081,+0.083,-0.497,-0.860,+0.894,-0.043,-0.451,-3.438,+4.750,-9.500,43, -7, -5, 1, -1, 3, 3, -2,-0.22412428054642025,1.0550945417724074,1
1503600493009,+0.083,+0.081,-0.498,-0.859,+0.900,-0.033,-0.448,-2.875,+5.250,-9.688,-79, -18, -3, -1, 1, -8, -2, 7,-0.22553834862049638,1.0566150324713377,1
1503600493039,+0.084,+0.081,-0.499,-0.859,+0.904,-0.029,-0.440,-2.312,+7.625,-8.375,38, 12, 9, -2, 5, 19, 0, 11,-0.2274483288582765,1.0592792286402548,1
1503600493047,+0.085,+0.080,-0.501,-0.858,+0.907,-0.028,-0.445,-0.312,+7.938,-6.875,-15, -10, 3, 0, -1, -1, 1, 14,-0.22830066960162834,1.0636781837422455,1
1503600493070,+0.086,+0.080,-0.502,-0.857,+0.923,-0.025,-0.428,+1.500,+5.438,-5.938,38, 56, 6, -1, -1, 3, 0, 1,-0.23004008986786625,1.0658577521102293,1
1503600493091,+0.087,+0.080,-0.503,-0.856,+0.929,-0.027,-0.439,+3.375,+5.938,-4.188,1, -23, -11, -4, -3, -6, -4, 4,-0.23177633878585202,1.068039804882522,1
1503600493107,+0.089,+0.080,-0.504,-0.855,+0.907,-0.035,-0.436,+4.688,+7.688,-4.000,-19, 29, -5, -3, -2, -1, 2, -4,-0.2352569070492574,1.070301257744306,1
1503600493129,+0.090,+0.081,-0.505,-0.854,+0.920,-0.036,-0.415,+4.312,+8.375,-5.125,62, 15, 13, -1, -2, -10, 7, 12,-0.2380442619302779,1.0728575180481847,1
1503600493151,+0.091,+0.081,-0.507,-0.853,+0.951,-0.036,-0.419,+5.375,+10.062,-5.750,17, 5, -3, -1, 0, 2, 2, 4,-0.23992947138488455,1.0776449015522906,1
1503600493167,+0.092,+0.082,-0.509,-0.852,+0.957,-0.045,-0.424,+5.625,+10.062,-5.750,15, 4, 11, 2, 2, 4, 1, 8,-0.24287899495372056,1.0828139760108297,1
1503600493189,+0.094,+0.083,-0.510,-0.851,+0.939,-0.033,-0.438,+6.875,+8.812,-7.750,-24, -7, 10, 4, 2, 1, -3, -28,-0.24741671864701412,1.0854709022458107,1
1503600493211,+0.096,+0.083,-0.511,-0.850,+0.934,-0.051,-0.415,+7.562,+7.125,-8.062,9, 32, 0, -2, -4, -4, -1, 6,-0.250881217085728,1.0877516383960413,1
1503600493227,+0.098,+0.084,-0.513,-0.849,+0.945,-0.061,-0.405,+7.562,+8.125,-8.438,7, -6, -11, -6, -3, 2, -8, -2,-0.2555800466356399,1.093025593167397,1
1503600493248,+0.100,+0.085,-0.514,-0.847,+0.933,-0.064,-0.402,+7.188,+10.500,-10.375,-46, 6, 7, -5, 7, 29, 1, -1,-0.2599254254083041,1.0952348682045596,1
1503600493273,+0.102,+0.086,-0.516,-0.846,+0.932,-0.062,-0.407,+6.438,+8.375,-11.812,8, -10, -3, -4, -2, 0, -5, -2,-0.26462781099794747,1.1005344560436534,1
1503600493287,+0.104,+0.086,-0.517,-0.845,+0.908,-0.046,-0.399,+7.312,+9.438,-11.500,14, 8, 4, -1, -5, -10, -3, 2,-0.2680773163063441,1.102832460631458,1
1503600493309,+0.107,+0.087,-0.518,-0.844,+0.898,-0.050,-0.394,+8.812,+8.438,-13.500,-3, -9, 14, 3, 3, 6, -4, 0,-0.27435589419828593,1.1056152965636095,1
1503600493334,+0.109,+0.087,-0.519,-0.843,+0.893,-0.057,-0.389,+8.812,+6.438,-13.688,17, -7, -12, 2, -5, -6, 0, -1,-0.2777993745443986,1.1079185888228464,1
1503600493347,+0.112,+0.089,-0.521,-0.842,+0.893,-0.062,-0.387,+9.875,+9.312,-10.938,-5, -12, -6, -2, -3, -12, 1, -1,-0.28534746936916344,1.1137446945474585,1
1503600493370,+0.114,+0.090,-0.522,-0.841,+0.892,-0.056,-0.377,+9.125,+10.000,-10.000,12, 15, -6, -2, 0, -1, 1, -5,-0.2898905590084365,1.116478107025943,1
1503600493391,+0.116,+0.090,-0.523,-0.840,+0.875,-0.030,-0.360,+9.188,+6.000,-9.125,5, -16, -9, -5, -8, -44, -3, -5,-0.2933287846560097,1.1187933339451541,1
1503600493408,+0.118,+0.092,-0.523,-0.839,+0.869,-0.023,-0.376,+10.875,+3.562,-6.875,-12, 13, 3, 0, -1, 14, -3, -9,-0.29880581235556974,1.1193550759153372,1
1503600493429,+0.120,+0.093,-0.524,-0.838,+0.859,-0.036,-0.375,+11.562,+4.500,-6.375,-9, -8, -2, -4, 2, 11, 0, 1,-0.3033524204400757,1.1221137829781243,1
1503600493451,+0.122,+0.095,-0.524,-0.838,+0.870,-0.041,-0.367,+12.688,+4.938,-4.688,-22, -22, -3, 1, -2, -5, 0, -6,-0.3090681112566336,1.123164481890067,1
1503600493470,+0.123,+0.097,-0.524,-0.837,+0.897,-0.044,-0.370,+13.000,+4.500,-2.375,-4, -22, 0, 0, 0, -4, -1, 10,-0.31281185255200994,1.123698793656732,1
1503600493489,+0.125,+0.099,-0.524,-0.837,+0.895,-0.040,-0.383,+12.500,-1.312,-1.875,-6, -4, -6, -2, 2, -8, 0, -1,-0.3185415246627679,1.1247899617652946,1
1503600493520,+0.126,+0.100,-0.523,-0.837,+0.879,-0.026,-0.404,+12.625,-3.125,-2.625,15, 23, 17, 3, 5, 10, 1, 8,-0.3212202196772854,1.1227305399902532,1
1503600493527,+0.128,+0.102,-0.522,-0.837,+0.891,-0.029,-0.407,+14.188,-1.562,-1.062,-12, -15, -16, -5, -3, -1, 1, -2,-0.3267681829944129,1.1212438156268003,1
1503600493549,+0.129,+0.105,-0.522,-0.837,+0.900,-0.034,-0.396,+14.375,+2.188,+2.625,-15, 9, -1, -1, 4, -1, -2, 5,-0.3318876625626098,1.1227880898388833,1
1503600493573,+0.130,+0.107,-0.522,-0.836,+0.921,-0.016,-0.405,+16.312,+6.438,+2.438,11, -11, -8, -7, -7, -8, 0, -2,-0.33564721004777354,1.1234170700617565,1
1503600493588,+0.132,+0.110,-0.522,-0.835,+0.949,-0.027,-0.403,+16.188,+3.375,+1.188,13, 2, 9, -1, 3, -1, -2, 4,-0.3422939608497266,1.1246689371793568,1
1503600493610,+0.133,+0.113,-0.523,-0.835,+0.947,-0.025,-0.401,+18.250,+5.312,+2.750,-6, 7, -4, 0, -1, -1, 2, 2,-0.34766350021074605,1.1289235189318887,1
1503600493632,+0.135,+0.116,-0.523,-0.834,+0.932,-0.025,-0.398,+20.062,+7.062,+1.250,31, 20, 2, -2, -1, 7, 6, 9,-0.35434229876318885,1.1302591571383565,1
1503600493653,+0.137,+0.119,-0.524,-0.832,+0.942,-0.031,-0.396,+20.062,+8.625,+0.500,-48, -14, -6, -1, -5, -9, 1, -2,-0.3610001406458527,1.1338002895111587,1
1503600493672,+0.139,+0.122,-0.525,-0.831,+0.948,-0.042,-0.380,+22.312,+11.625,+2.188,15, 5, 0, -4, -2, -4, 3, 2,-0.3679349297531683,1.137831128714522,1
1503600493691,+0.141,+0.126,-0.526,-0.830,+0.945,-0.039,-0.383,+22.062,+10.375,+1.625,15, -34, -5, -2, -3, 3, -1, -8,-0.3760582034966149,1.1424790387114423,1
1503600493714,+0.143,+0.129,-0.526,-0.828,+0.953,-0.042,-0.395,+23.375,+7.250,+0.938,-8, -1, -4, -1, -2, -3, -3, 5,-0.38254205187590107,1.1435652307057231,1
1503600493729,+0.145,+0.133,-0.526,-0.828,+0.932,-0.060,-0.409,+23.562,+5.688,+0.812,18, -6, -11, 2, 0, -3, -1, -11,-0.39074921571003723,1.146171776380449,1
1503600493751,+0.147,+0.137,-0.526,-0.827,+0.916,-0.068,-0.402,+24.125,+5.812,+2.562,-105, -34, -7, -3, -4, 6, -4, -14,-0.398718227246756,1.1484147222075614,1
1503600501695,+0.064,+0.104,-0.580,-0.806,+0.936,-0.103,-0.281,-0.188,+22.688,-5.562,6, -11, 0, -3, -4, 5, 0, 1,-0.22672176116748155,1.2590658028156803,2
1503600501717,+0.066,+0.103,-0.582,-0.804,+0.946,-0.085,-0.282,+3.438,+19.625,-14.062,-17, -21, 1, -1, -7, -21, -12, 21,-0.22890961798883702,1.263474762486337,2
1503600501740,+0.069,+0.102,-0.584,-0.803,+0.940,-0.089,-0.278,+6.062,+10.688,-17.625,-37, -4, -6, -3, 4, 14, 0, -15,-0.23284139324918576,1.2683074605718534,2
1503600501754,+0.072,+0.102,-0.585,-0.801,+0.889,-0.085,-0.259,+4.188,+13.625,-18.312,35, 25, 11, 3, 2, 6, 3, 1,-0.23765807701299813,1.2705107976825636,2
1503600501777,+0.075,+0.101,-0.588,-0.799,+0.876,-0.071,-0.273,+6.750,+22.688,-20.000,-22, -12, -2, -1, -4, 0, -1, -1,-0.24161195906717484,1.2777281346335654,2
1503600501800,+0.078,+0.101,-0.591,-0.796,+0.965,-0.081,-0.240,+8.062,+21.750,-16.438,-4, 3, 3, 1, -5, -26, -2, -3,-0.24663233054241765,1.2850577696641183,2
1503600501815,+0.079,+0.102,-0.594,-0.794,+1.033,-0.087,-0.233,+7.938,+16.938,-7.125,-7, 11, 1, 0, 3, 5, -2, -6,-0.24979256882346212,1.2930661485148554,2
1503600501837,+0.081,+0.102,-0.595,-0.793,+0.998,-0.070,-0.208,+6.125,+10.938,-6.500,-14, 2, 5, -2, -3, 5, 1, -7,-0.25307595326990967,1.295579684415379,2
1503600501860,+0.083,+0.103,-0.596,-0.792,+0.988,-0.073,-0.225,+8.250,+4.250,-8.000,17, 41, 20, 3, 2, -7, 2, 19,-0.25761402957379564,1.2985358238966611,2
1503600501874,+0.085,+0.104,-0.597,-0.791,+0.974,-0.096,-0.192,+6.625,+3.688,-10.188,6, -20, -10, -4, 0, -9, -6, -7,-0.2621526035839984,1.3014996805075463,2
1503600501897,+0.086,+0.103,-0.598,-0.791,+0.958,-0.073,-0.187,+1.688,+4.250,-11.062,-1, -10, -1, -1, 3, 5, 5, -7,-0.2627086285621284,1.3038369389062472,2
1503600501918,+0.087,+0.102,-0.599,-0.790,+0.967,-0.050,-0.176,-1.875,+4.688,-8.312,3, -8, -5, 0, -4, -3, -11, 4,-0.2630943485536498,1.3058623791995614,2
1503600501934,+0.088,+0.101,-0.600,-0.789,+1.010,-0.029,-0.169,-4.188,+2.375,-6.312,24, -4, 1, 1, -6, -34, -6, 4,-0.2634742887645653,1.3078939502980713,2
1503600501955,+0.089,+0.099,-0.599,-0.789,+0.997,-0.032,-0.160,-7.688,-8.438,-8.750,60, 23, 7, 4, 8, 20, 7, 19,-0.26237193884982646,1.3043488414335354,2
1503600501979,+0.089,+0.096,-0.598,-0.791,+0.960,-0.011,-0.183,-11.375,-18.000,-9.750,-6, -7, -3, 1, 7, -1, -8, -8,-0.25875216431129644,1.3009818931441903,2
1503600502003,+0.089,+0.093,-0.596,-0.793,+0.977,+0.008,-0.171,-16.562,-21.625,-5.875,-9, 25, 6, 1, 0, 10, 0, -9,-0.25497481027799546,1.2949330362495204,2
1503600502016,+0.089,+0.089,-0.593,-0.795,+0.996,+0.035,-0.179,-18.000,-27.062,-2.062,-21, -13, 1, -2, 5, 11, 1, 1,-0.24981804589865128,1.2858147958520172,2
1503600502039,+0.088,+0.086,-0.590,-0.798,+0.989,+0.005,-0.176,-17.875,-31.562,+0.875,-4, -12, -5, -2, 3, -1, 0, -3,-0.24449138008890886,1.2774466348302083,2
1503600502063,+0.086,+0.083,-0.586,-0.801,+0.960,-0.002,-0.206,-22.312,-29.312,+1.188,-6, 2, -8, -4, -5, -15, -1, -13,-0.23739818258355097,1.2663803402116638,2
1503600502075,+0.085,+0.079,-0.583,-0.804,+0.968,+0.030,-0.236,-23.188,-26.938,+0.188,13, 41, 6, 2, 3, 3, -5, -11,-0.23093176548189792,1.257801974174892,2
1503600502098,+0.083,+0.076,-0.581,-0.806,+0.969,+0.026,-0.237,-22.500,-24.062,+2.062,-38, -21, 0, -5, -4, -6, 1, -5,-0.22405416673426673,1.2519595004736586,2
1503600502129,+0.081,+0.072,-0.578,-0.809,+0.965,+0.004,-0.260,-24.625,-19.812,+4.312,2, 3, -13, -3, 1, -6, -1, 0,-0.2160206337637175,1.2435038863294932,2
1503600502136,+0.078,+0.069,-0.576,-0.811,+0.967,+0.002,-0.283,-23.062,-17.562,+3.812,3, -1, 2, -1, -5, -19, 7, 5,-0.20753929278837188,1.2377427700017418,2
1503600502158,+0.076,+0.066,-0.574,-0.813,+0.971,-0.009,-0.303,-21.438,-20.438,+1.688,-6, -11, -1, 0, 1, 1, 0, -10,-0.20072703439107262,1.2320818255640238,2
1503600502181,+0.075,+0.063,-0.570,-0.816,+0.949,-0.010,-0.299,-20.375,-25.312,+1.125,-8, 17, 9, 4, 9, 36, 12, -3,-0.1954906059728472,1.2215023274168408,2
1503600502197,+0.073,+0.061,-0.567,-0.819,+0.924,-0.013,-0.327,-19.938,-24.812,+3.500,-6, 12, -2, 0, -2, -5, -5, 0,-0.18991077539107862,1.2139339681219814,2
1503600502218,+0.071,+0.058,-0.565,-0.820,+0.922,-0.021,-0.313,-20.125,-15.875,+3.688,12, -17, -11, -3, -1, -1, -4, -2,-0.18302012680238577,1.2080379232566683,2
1503600502241,+0.069,+0.056,-0.564,-0.821,+0.928,-0.027,-0.312,-19.688,-7.375,+0.438,7, 25, 14, 6, 5, -1, -4, 7,-0.17741272132022617,1.2051383648268996,2
1503600502256,+0.067,+0.053,-0.563,-0.822,+0.943,-0.018,-0.332,-19.938,-6.500,-2.375,0, -16, -6, -3, -4, -5, 1, 5,-0.1706650010896033,1.2020139620918646,2
1503600502278,+0.066,+0.050,-0.562,-0.823,+0.956,+0.000,-0.333,-18.125,-9.312,-2.875,21, 3, 0, 2, -6, -32, -1, 14,-0.1655971724599876,1.1989703271905596,2
1503600502301,+0.066,+0.048,-0.560,-0.825,+0.926,-0.001,-0.331,-14.188,-11.375,-4.125,-11, -3, -3, -4, -2, 13, -6, 0,-0.16338631556757882,1.1939483902758294,2
1503600502315,+0.066,+0.045,-0.559,-0.826,+0.900,-0.012,-0.323,-13.250,-10.438,-7.125,-7, 10, -4, -1, 4, 13, 7, -7,-0.16002178181318602,1.1910091903252835,2
1503600502339,+0.065,+0.043,-0.557,-0.827,+0.894,+0.007,-0.337,-14.000,-7.750,-5.750,15, 1, 4, 1, -7, -8, 6, 16,-0.15604415603509597,1.185595545973417,2
1503600502353,+0.065,+0.041,-0.557,-0.827,+0.920,+0.024,-0.351,-11.750,-3.000,-3.438,13, -3, 6, 4, 2, -10, 2, -37,-0.15379098490766344,1.1851864903913587,2
1503600502376,+0.065,+0.039,-0.556,-0.828,+0.957,+0.020,-0.349,-8.625,-5.062,-2.188,-28, -23, -9, -5, 0, 19, -6, -5,-0.15159159276451406,1.182526481628535,2
1503600502398,+0.065,+0.038,-0.555,-0.829,+0.962,+0.019,-0.348,-6.750,-12.188,-2.000,16, 54, 5, 3, 5, 6, -2, 7,-0.1505224365452799,1.180072727430773,2
1503600502414,+0.065,+0.037,-0.552,-0.830,+0.939,+0.021,-0.347,-6.062,-16.125,-0.812,-16, -29, 2, 1, 6, 12, -6, -1,-0.1493114586115668,1.1722648538874665,2
1503600502436,+0.064,+0.037,-0.550,-0.832,+0.917,+0.020,-0.357,-4.812,-12.625,+2.062,0, 3, -10, -6, -6, -1, 4, 0,-0.14773828843315082,1.167739278453421,2
1503600502458,+0.064,+0.037,-0.549,-0.833,+0.910,+0.016,-0.362,-2.375,-6.500,+3.188,-6, -6, -6, 0, -14, -15, 4, 2,-0.14779170173432382,1.1654963488740318,2
1503600502474,+0.063,+0.037,-0.549,-0.833,+0.947,+0.003,-0.342,-3.438,-4.188,+3.312,2, 16, -7, -6, 0, 3, -1, -5,-0.14610642346180772,1.165467181347145,2
1503600502498,+0.062,+0.036,-0.548,-0.833,+0.966,+0.022,-0.352,-4.375,-6.375,+5.062,-29, -21, -7, -1, 0, -2, -2, -7,-0.14324287267349217,1.1625805129984768,2
1503600502518,+0.061,+0.037,-0.546,-0.835,+0.965,+0.018,-0.365,-2.438,-11.375,+6.625,1, -27, -5, -6, -8, -15, -11, 6,-0.14275944838364998,1.1582632648598865,2
1503600502534,+0.060,+0.037,-0.544,-0.836,+0.929,+0.011,-0.365,-1.000,-12.312,+7.000,18, 0, 3, -6, -23, -14, 1, 4,-0.14104427706060668,1.1533358355208663,2
1503600502556,+0.060,+0.038,-0.543,-0.837,+0.905,+0.008,-0.370,-1.062,-11.312,+7.062,-16, 0, 0, -4, -1, 4, -6, -4,-0.1421861188594542,1.1512972725689201,2
1503600502578,+0.059,+0.038,-0.542,-0.837,+0.912,+0.001,-0.357,-1.125,-3.812,+8.062,-46, -5, -2, 1, 3, -6, -7, 0,-0.14042003854008875,1.1486014616344158,2
1503600502601,+0.058,+0.039,-0.542,-0.837,+0.944,+0.010,-0.352,-1.250,+1.750,+6.312,23, -7, -3, 0, 4, -5, 2, -8,-0.13982464269439945,1.1487584026631732,2
1503600502623,+0.058,+0.039,-0.542,-0.837,+0.959,+0.028,-0.360,+0.438,-1.562,+3.875,15, 14, 4, 4, 4, 16, 11, 9,-0.13982464269439945,1.1487584026631732,2
1503600502640,+0.058,+0.040,-0.542,-0.838,+0.941,+0.020,-0.350,+2.062,-6.062,+2.250,3, -6, -1, 3, 13, 22, 12, -1,-0.1410349507407369,1.1493937244827082,2
1503600502661,+0.058,+0.040,-0.541,-0.838,+0.925,+0.009,-0.363,+3.000,-7.562,+2.875,0, -11, -2, -2, -2, -5, -5, 6,-0.14095574424288554,1.1467314607649486,2
1503600502676,+0.058,+0.041,-0.540,-0.839,+0.892,+0.005,-0.376,+4.000,-4.875,+3.188,-12, -7, -6, -3, -1, -8, -3, 8,-0.1420834504224396,1.1447117387578507,2
1503600502700,+0.058,+0.042,-0.539,-0.839,+0.902,-0.019,-0.368,+4.125,-1.250,+3.625,-1, 19, 7, -2, -4, -11, -12, -11,-0.14309295696338398,1.14225155462298,2
1503600502721,+0.058,+0.043,-0.540,-0.839,+0.903,-0.024,-0.366,+3.062,+3.750,+2.062,23, -20, -13, 0, 3, 3, 3, -6,-0.14426934787147444,1.1451134301167447,2
1503600502737,+0.058,+0.044,-0.540,-0.838,+0.925,-0.034,-0.370,+2.688,+5.125,-0.375,17, -10, -10, -5, -4, -11, -7, 2,-0.14524841836157507,1.144873689638757,2
1503600502758,+0.059,+0.045,-0.541,-0.838,+0.928,-0.044,-0.356,+2.125,+5.688,-3.375,-23, 5, -4, 1, 1, 3, -15, -1,-0.14812426528751182,1.1477816589502003,2
1503600502774,+0.060,+0.045,-0.542,-0.837,+0.931,-0.022,-0.352,+0.938,+4.062,-7.062,-10, -27, -13, -7, -2, 0, 6, 4,-0.149787455411468,1.1500368840546837,2
1503600502796,+0.061,+0.044,-0.542,-0.837,+0.931,-0.010,-0.342,+0.500,+1.250,-8.438,20, -5, -10, -2, 1, 9, 4, -1,-0.1503804165858866,1.1498613328519722,2
1503600502818,+0.062,+0.044,-0.542,-0.837,+0.944,+0.005,-0.349,+0.125,-0.250,-7.000,-5, 12, 9, 6, 3, -22, 0, -8,-0.1520724121665706,1.149897289229237,2
1503600502835,+0.064,+0.043,-0.543,-0.836,+0.925,+0.032,-0.351,+1.250,+1.500,-6.375,-24, 1, 8, -4, -3, 10, 6, -11,-0.154318775926119,1.151979330430451,2
1503600502856,+0.065,+0.043,-0.543,-0.836,+0.953,+0.055,-0.356,+4.938,+1.562,-3.062,12, 10, 10, 3, 3, 25, -4, 7,-0.15601056903955518,1.152014308695641,2
1503600502878,+0.066,+0.044,-0.543,-0.836,+0.988,+0.063,-0.345,+7.812,-2.188,+1.500,-19, -22, 8, 4, 2, -7, 0, 5,-0.15880282551037758,1.1522619167468269,2
1503600502894,+0.067,+0.046,-0.542,-0.836,+1.009,+0.073,-0.364,+12.375,-7.062,+7.188,20, 25, 12, 0, -1, 4, 2, 5,-0.1626066895277511,1.1500723203675745,2
1503600502915,+0.068,+0.049,-0.540,-0.837,+0.974,+0.059,-0.377,+18.438,-12.312,+11.375,11, -11, 3, -3, -4, 15, 8, 3,-0.16754277311457574,1.1459194533577386,2
1503600502938,+0.067,+0.053,-0.538,-0.838,+0.976,-0.023,-0.376,+19.438,-12.812,+17.188,-7, 26, -5, -6, -9, -40, 9, 20,-0.17016627498308673,1.1419753926727996,2
1503600502961,+0.066,+0.058,-0.537,-0.839,+0.929,-0.072,-0.380,+17.438,-4.938,+19.688,11, -39, -5, -2, -3, 3, 12, 11,-0.17397681461905604,1.1410092671631946,2
1503600502976,+0.064,+0.063,-0.537,-0.839,+0.945,-0.074,-0.376,+15.688,+0.812,+21.062,29, 21, 10, 0, -2, 11, 11, -3,-0.176081279730978,1.1422798328537573,2
1503600503001,+0.062,+0.067,-0.536,-0.839,+0.972,-0.075,-0.375,+12.812,-0.625,+21.188,28, 46, -2, -3, -3, 3, -5, -8,-0.17696965537282608,1.1406758579689953,2
1503600503021,+0.061,+0.071,-0.535,-0.839,+0.930,-0.079,-0.372,+10.750,-4.062,+16.812,-22, 2, -3, 0, 1, 3, 9, -8,-0.1795539626866025,1.1391771901782566,2
1503600503036,+0.060,+0.074,-0.534,-0.840,+0.890,-0.101,-0.363,+7.188,-10.000,+13.250,6, -5, 1, 2, 5, 20, -7, 8,-0.18114884049834273,1.1378589655711147,2
1503600503068,+0.059,+0.075,-0.532,-0.841,+0.842,-0.104,-0.365,+2.500,-6.812,+10.188,1, 7, -10, -9, -12, -30, -5, 2,-0.18037708228963545,1.1332722325922593,2
1503600503081,+0.057,+0.076,-0.532,-0.841,+0.816,-0.086,-0.366,-0.125,+0.812,+7.188,43, 6, 5, 3, -4, 13, -1, 0,-0.17808011471914292,1.1334674943241276,2
1503600503098,+0.057,+0.077,-0.533,-0.841,+0.847,-0.083,-0.343,-1.812,+8.125,+1.688,-22, 13, 13, -1, 1, 4, -7, -8,-0.17933601713561026,1.1364409701936418,2
1503600503118,+0.057,+0.076,-0.535,-0.840,+0.878,-0.069,-0.348,-3.500,+10.812,-4.688,-2, -24, -7, -1, 5, 14, 11, -15,-0.17841745201134637,1.1409639284797153,2
1503600503136,+0.059,+0.075,-0.536,-0.839,+0.872,-0.035,-0.347,-3.625,+9.125,-12.500,10, -11, -5, -2, 0, 2, -23, 2,-0.18073587844115532,1.14297098599026,2
1503600503157,+0.061,+0.073,-0.537,-0.838,+0.876,-0.005,-0.348,-2.875,+3.625,-16.250,3, -35, -8, -1, 4, 11, 5, -9,-0.18193355716791218,1.1446618227523075,2
1503600503178,+0.064,+0.070,-0.537,-0.838,+0.849,+0.008,-0.350,-1.125,+3.000,-19.125,-17, -12, 0, 0, 1, -6, 4, 2,-0.18369229996780329,1.1439018023909318,2
1503600503194,+0.068,+0.068,-0.538,-0.837,+0.863,+0.013,-0.340,+0.188,+4.938,-19.125,4, -11, -1, 0, -3, -16, -4, 9,-0.1882675736176791,1.1457263682602024,2
1503600503215,+0.070,+0.067,-0.539,-0.836,+0.909,+0.030,-0.347,+2.375,+5.500,-14.438,-5, 45, 7, 2, 2, -6, 3, -3,-0.19054788960346547,1.1477457025267328,2
1503600503239,+0.073,+0.066,-0.539,-0.836,+0.929,+0.041,-0.371,+5.125,-0.812,-12.438,-5, -9, -8, -4, -2, 6, 14, 21,-0.19452881237175346,1.147608110265138,2
1503600503254,+0.076,+0.066,-0.539,-0.836,+0.936,+0.029,-0.361,+8.500,-5.688,-10.375,-2, 25, 18, 3, -2, -6, 1, 8,-0.1996251466908288,1.147770844447085,2
1503600503277,+0.078,+0.067,-0.538,-0.837,+0.942,-0.004,-0.369,+11.625,-5.375,-5.438,-45, -7, -13, -2, -2, -8, -9, -24,-0.20415756121834908,1.145976920075034,2
1503600503302,+0.080,+0.068,-0.537,-0.837,+0.963,-0.019,-0.359,+11.812,-4.375,-3.188,-4, 13, 2, -4, 0, 12, 1, 1,-0.2085411077421862,1.143749561338765,2
1503600503314,+0.082,+0.070,-0.537,-0.837,+0.994,-0.005,-0.374,+13.062,-6.375,-0.812,-29, 10, 3, -3, -1, 5, -7, -9,-0.21416881218341371,1.1445005693386594,2
1503600503336,+0.083,+0.072,-0.535,-0.838,+1.001,+0.005,-0.380,+15.312,-10.500,+0.875,28, 44, 17, 5, 1, 0, 7, 4,-0.21797702927741475,1.1403659084157836,2
1503600503360,+0.085,+0.074,-0.534,-0.838,+0.990,+0.019,-0.369,+17.812,-9.688,+2.250,5, -33, -6, -3, 5, 15, -2, -9,-0.22346923926973167,1.1385154488533473,2
1503600503381,+0.087,+0.077,-0.533,-0.838,+0.981,+0.026,-0.368,+20.938,-7.188,+4.875,34, 29, 6, -1, 5, 20, 9, 15,-0.23006973341592665,1.137039838038428,2
1503600503396,+0.089,+0.080,-0.532,-0.838,+0.983,+0.026,-0.396,+22.562,-3.875,+5.375,-5, -8, 0, 3, 5, 26, 1, 3,-0.23667197089919043,1.1356098888035853,2
1503600503418,+0.091,+0.084,-0.532,-0.838,+0.981,+0.017,-0.399,+25.812,+3.375,+5.312,1, 30, 1, -3, -5, -21, -4, -7,-0.2445518808389458,1.1372424199210607,2
1503600503442,+0.093,+0.089,-0.532,-0.837,+1.024,+0.003,-0.393,+30.688,+2.000,+8.250,6, -3, 1, -1, 1, -12, -12, -3,-0.25339360086326623,1.1388991360618943,2
1503600503455,+0.096,+0.094,-0.532,-0.836,+1.024,-0.013,-0.394,+32.938,+0.000,+8.688,-3, -2, -7, -5, -2, 3, -10, -18,-0.2639787748028413,1.1407439147459397,2
1503600503479,+0.098,+0.100,-0.531,-0.836,+0.999,-0.017,-0.403,+37.062,-4.062,+7.438,18, -7, 0, 0, 0, 7, -12, -6,-0.27400661122329845,1.1408777219673478,2
1503600503501,+0.101,+0.106,-0.529,-0.836,+0.979,-0.044,-0.411,+40.062,-4.875,+6.875,18, -9, 2, 3, -3, -10, 1, 2,-0.28558245066185534,1.138626723535075,2
1503600503515,+0.104,+0.112,-0.528,-0.836,+0.952,-0.068,-0.418,+41.375,-1.062,+8.500,0, 2, 0, -1, -4, -33, 7, 14,-0.29738989218622897,1.1391726715045545,2
1503600503550,+0.107,+0.119,-0.527,-0.835,+0.956,-0.053,-0.408,+43.875,+1.062,+8.625,-9, -10, -3, -3, -11, -10, 6, 0,-0.3101870295769735,1.1399636523707137,2
1503600503561,+0.111,+0.126,-0.525,-0.834,+0.966,-0.050,-0.430,+47.062,-0.125,+7.500,5, -6, -1, 0, 0, -5, -9, -6,-0.3245260433682633,1.1384627982763056,2
1503600503577,+0.115,+0.134,-0.524,-0.833,+0.954,-0.073,-0.415,+49.812,-0.312,+6.438,-7, 30, 4, 0, 2, 26, 9, 4,-0.3403268558181258,1.1404010397744055,2
1503600510304,-0.025,+0.043,-0.400,-0.915,+0.786,-0.083,-0.640,+4.625,+10.000,+0.438,-8, -3, 1, -1, -1, 0, 2, -5,0.011405944413791747,0.8234610027984653,3
1503600510328,-0.025,+0.044,-0.401,-0.915,+0.766,-0.094,-0.632,+5.750,+9.062,+1.062,-5, 10, -1, -1, 1, 2, 0, 8,0.010515474645687278,0.825985864604768,3
1503600510341,-0.025,+0.045,-0.403,-0.914,+0.748,-0.102,-0.624,+5.250,+7.812,+0.500,-14, -8, -4, -2, -1, -3, -5, -2,0.009479961302895093,0.8304044124878968,3
1503600510363,-0.024,+0.046,-0.404,-0.913,+0.741,-0.107,-0.627,+4.812,+7.438,+0.438,1, -4, -3, -2, -1, 0, -3, -1,0.00669192999462562,0.8324579918113032,3
1503600510393,-0.024,+0.047,-0.405,-0.913,+0.741,-0.116,-0.624,+3.250,+7.250,-2.062,2, -2, 0, 0, -1, 0, 0, -4,0.00578616472329661,0.835002726540644,3
1503600510408,-0.023,+0.047,-0.406,-0.912,+0.784,-0.102,-0.610,+1.938,+7.375,-2.125,9, 8, 1, -3, -6, -2, 0, -2,0.0038088388838848366,0.8369599209015759,3
1503600510424,-0.022,+0.048,-0.407,-0.912,+0.799,-0.111,-0.613,+2.750,+2.000,-4.875,2, -8, -6, -1, 3, 2, 2, -3,0.001061920873850631,0.8395780060495412,3
1503600510445,-0.021,+0.047,-0.407,-0.912,+0.769,-0.097,-0.628,+1.062,+1.500,-6.688,8, -9, -1, 0, 1, -1, 3, 7,4.624509899186927e-05,0.8395284687719496,3
1503600510462,-0.020,+0.047,-0.408,-0.912,+0.768,-0.088,-0.634,+1.250,+3.062,-5.000,1, -14, -2, 0, -1, 1, -1, -1,-0.0018818171119586288,0.8420349845075844,3
1503600510488,-0.019,+0.048,-0.408,-0.911,+0.773,-0.099,-0.604,+2.125,+2.875,-2.938,-4, 6, 2, 0, 0, -1, -2, -3,-0.004574349547287536,0.8416685398076293,3
1503600510505,-0.018,+0.048,-0.408,-0.911,+0.770,-0.088,-0.620,+0.438,-0.250,-2.750,8, 13, 5, 3, 7, 1, -1, -3,-0.006405580580466031,0.8417328548073942,3
1503600510522,-0.018,+0.047,-0.408,-0.911,+0.788,-0.094,-0.592,-2.375,-2.562,+0.125,7, 30, 3, 3, 0, 0, 1, 3,-0.0055842319669106915,0.8416144946888916,3
1503600510544,-0.019,+0.047,-0.407,-0.912,+0.818,-0.099,-0.599,-4.125,-10.250,+1.500,0, 14, 3, 0, -2, -2, -9, 0,-0.0036205941145538278,0.8396546671690215,3
1503600510565,-0.018,+0.047,-0.405,-0.913,+0.798,-0.098,-0.614,-4.375,-17.125,-2.000,-7, -21, -10, -2, -2, -1, 1, 0,-0.0052284398746829264,0.8353831759064291,3
1503600510581,-0.018,+0.046,-0.401,-0.915,+0.764,-0.113,-0.617,-6.188,-25.312,-5.375,6, 3, 2, -1, -5, -2, 6, 3,-0.003971359457550217,0.8266222885216523,3
1503600510603,-0.017,+0.044,-0.397,-0.917,+0.738,-0.097,-0.620,-10.938,-30.438,-5.750,-10, -14, -3, -2, -1, -4, -6, -13,-0.0037747799214318586,0.8178497228883664,3
1503600510626,-0.016,+0.042,-0.392,-0.919,+0.730,-0.101,-0.647,-11.438,-27.938,-7.875,0, 7, 0, 1, -1, 2, 1, 2,-0.0035342637694859274,0.8067029599094612,3
1503600510641,-0.016,+0.040,-0.388,-0.921,+0.747,-0.095,-0.642,-12.625,-28.938,-7.438,-16, -8, 3, 0, 0, -3, -7, -7,-0.0015738408024261927,0.7979613007195949,3
1503600510663,-0.016,+0.038,-0.384,-0.922,+0.750,-0.088,-0.659,-12.625,-27.438,-4.625,8, 18, 1, -1, -3, -1, -1, 1,0.0003210917007853504,0.78871946722089,3
1503600510693,-0.016,+0.036,-0.380,-0.924,+0.741,-0.063,-0.658,-14.688,-26.438,-3.250,3, 0, 0, 0, 2, 2, 2, 1,0.0022148713501074025,0.7800637305341062,3
1503600510701,-0.016,+0.034,-0.376,-0.926,+0.739,-0.060,-0.657,-13.438,-25.188,-0.500,1, -3, 1, 2, 1, 0, 1, 3,0.004075486673882003,0.7714492737980092,3
1503600510729,-0.017,+0.032,-0.372,-0.927,+0.713,-0.042,-0.679,-11.938,-26.250,+2.250,0, 0, -1, -3, -3, -2, -1, 0,0.00773014579149101,0.762289517152363,3
1503600510745,-0.018,+0.030,-0.369,-0.929,+0.691,-0.042,-0.697,-10.688,-21.875,+4.250,-3, -7, 0, -2, -2, 1, 0, 0,0.011331255107175262,0.756084384599151,3
1503600510762,-0.019,+0.030,-0.365,-0.930,+0.653,-0.050,-0.724,-7.812,-20.312,+9.062,0, -4, -1, 1, 0, -2, 1, 3,0.013473166077611363,0.7471127887286656,3
1503600510784,-0.021,+0.029,-0.361,-0.932,+0.621,-0.054,-0.727,-6.625,-16.688,+8.125,4, -2, -1, -4, -1, 0, -4, -2,0.018250773521785488,0.7386097308976539,3
1503600510805,-0.023,+0.029,-0.359,-0.933,+0.641,-0.074,-0.709,-9.750,-10.250,+9.875,5, 7, 0, -2, -5, -2, 3, -1,0.022153084729070117,0.7343495275934164,3
1503600510822,-0.025,+0.028,-0.358,-0.933,+0.695,-0.053,-0.720,-9.500,-7.000,+8.750,-2, 1, -2, 5, 4, 1, -3, 2,0.02667085051956047,0.7318720806480745,3
1503600510844,-0.026,+0.027,-0.357,-0.933,+0.712,-0.043,-0.718,-7.312,-6.250,+6.688,-5, -14, -10, 0, 2, 0, -1, -1,0.029311992525255553,0.7294456296886896,3
1503600510865,-0.027,+0.027,-0.356,-0.934,+0.676,-0.061,-0.699,-4.875,-5.375,+8.000,4, 10, 5, 5, 4, 1, 0, -5,0.03129306172638025,0.7275903986262707,3
1503600510881,-0.029,+0.027,-0.355,-0.934,+0.653,-0.057,-0.725,-5.188,-4.500,+6.750,-4, 2, -1, -10, -13, -2, -10, -7,0.035097833519842754,0.7251628670787547,3
1503600510903,-0.030,+0.027,-0.354,-0.934,+0.658,-0.057,-0.722,-3.062,-0.562,+7.562,-11, -12, -2, -2, 0, -3, 1, -4,0.03702775995426871,0.7227774006636546,3
1503600510925,-0.031,+0.027,-0.354,-0.934,+0.682,-0.062,-0.709,-1.375,+0.625,+6.000,-3, -2, -1, -5, 1, -1, -2, -6,0.03890392252274615,0.7227367891249444,3
1503600510941,-0.031,+0.027,-0.354,-0.934,+0.687,-0.067,-0.714,-0.938,+0.875,+4.000,-4, -5, -2, 3, 2, 2, -2, -3,0.03890392252274615,0.7227367891249444,3
1503600510964,-0.031,+0.028,-0.355,-0.934,+0.676,-0.059,-0.709,+0.375,+1.812,+2.312,6, -3, -2, 1, 2, -1, 2, 2,0.038142674293321896,0.7251084501215153,3
1503600510985,-0.031,+0.028,-0.355,-0.934,+0.673,-0.067,-0.710,+1.688,+0.188,+1.688,-3, -5, 3, 7, 7, 2, -1, 3,0.038142674293321896,0.7251084501215153,3
1503600511001,-0.032,+0.029,-0.355,-0.934,+0.668,-0.068,-0.710,+1.500,+3.812,+2.500,1, 0, 2, -3, -6, -2, -4, -2,0.03931244643619282,0.7250942042312386,3
1503600511024,-0.032,+0.029,-0.356,-0.934,+0.673,-0.069,-0.705,+2.375,+3.375,+2.250,1, -4, -4, -1, 6, 0, 1, -2,0.03925431907982001,0.7274417522776107,3
1503600511045,-0.032,+0.030,-0.356,-0.933,+0.688,-0.079,-0.699,+3.062,+4.062,+2.562,7, 2, -2, -2, 0, -1, 0, 0,0.038481143042985576,0.7269389687780387,3
1503600511063,-0.032,+0.031,-0.357,-0.933,+0.703,-0.079,-0.702,+2.625,+6.000,+2.312,5, -3, -1, 0, 0, 0, 3, -3,0.037709894166536986,0.7293220444902491,3
1503600511084,-0.032,+0.031,-0.358,-0.933,+0.698,-0.072,-0.704,+2.875,+4.750,+2.062,-16, 4, -5, -3, -8, -5, -6, -4,0.03764773537548126,0.7316735783695363,3
1503600511106,-0.032,+0.032,-0.359,-0.932,+0.672,-0.081,-0.699,+1.750,+7.438,+3.125,5, -9, -1, -1, 0, -3, -8, -4,0.03680619688118626,0.7335289583622085,3
1503600511124,-0.033,+0.033,-0.360,-0.932,+0.688,-0.078,-0.691,+0.875,+5.688,+4.438,4, 5, -2, -2, -1, 0, -1, 2,0.037899011522611076,0.7358750704038413,3
1503600511144,-0.033,+0.033,-0.361,-0.931,+0.710,-0.077,-0.688,+0.875,+4.500,+3.875,7, -3, -1, -5, -11, -2, -6, -2,0.03776662368577793,0.7376964837398693,3
1503600511166,-0.033,+0.034,-0.362,-0.931,+0.723,-0.078,-0.689,+1.062,+2.750,+3.250,4, 6, 1, -4, -15, -9, 1, 0,0.036979247381331404,0.7400973595284939,3
1503600511181,-0.033,+0.034,-0.362,-0.931,+0.704,-0.079,-0.682,+1.062,+0.625,+2.062,-18, -4, -2, -4, -1, -3, 2, 3,0.036979247381331404,0.7400973595284939,3
1503600511204,-0.034,+0.035,-0.362,-0.931,+0.702,-0.083,-0.687,+0.875,-0.188,+2.562,27, 9, -1, -1, 1, 2, 0, -12,0.03813117722660848,0.7400899689012688,3
1503600511226,-0.034,+0.035,-0.362,-0.931,+0.703,-0.079,-0.701,+0.625,-1.312,+3.250,17, 9, 2, 2, -1, 1, 2, -5,0.03813117722660848,0.7400899689012688,3
1503600511241,-0.034,+0.036,-0.362,-0.931,+0.695,-0.084,-0.707,+1.250,-1.625,+3.375,13, 1, -1, 7, 7, 6, 1, 5,0.03741008292179256,0.7401357048392574,3
1503600511270,-0.035,+0.036,-0.362,-0.931,+0.678,-0.077,-0.708,+2.000,-0.750,+3.938,-17, -7, -2, -7, -10, -15, -7, -3,0.03928395110955556,0.7400823180663199,3
1503600511286,-0.035,+0.037,-0.361,-0.931,+0.680,-0.095,-0.703,+2.312,-0.188,+4.500,-11, -5, -1, -1, 2, 0, 0, 4,0.038637312228424044,0.7377685696760417,3
1503600511302,-0.036,+0.038,-0.362,-0.931,+0.682,-0.102,-0.696,+1.875,+1.875,+4.375,-15, -6, -4, -5, 3, 7, 0, -11,0.039716866237250494,0.7401226115187585,3
1503600511326,-0.036,+0.039,-0.362,-0.931,+0.694,-0.104,-0.693,+1.562,+0.625,+2.312,-6, -5, -3, 4, -6, 3, 0, -3,0.038996036099579696,0.7401735421690891,3
1503600511346,-0.036,+0.039,-0.362,-0.931,+0.695,-0.104,-0.707,+1.562,-0.250,+0.500,23, 8, -1, -2, 1, 3, 0, -13,0.038996036099579696,0.7401735421690891,3
1503600511362,-0.035,+0.039,-0.362,-0.931,+0.685,-0.083,-0.704,+1.625,+2.438,-1.438,-7, 12, 5, -6, -12, -6, -4, -4,0.037120901892968704,0.7402314033761055,3
1503600511384,-0.035,+0.040,-0.362,-0.931,+0.680,-0.081,-0.700,+2.625,+4.125,+0.250,15, 3, -5, -2, 1, 5, -3, -3,0.036399664720343644,0.7402865521649764,3
1503600511406,-0.035,+0.041,-0.364,-0.930,+0.702,-0.092,-0.702,+3.562,+7.812,+2.062,10, -6, 2, -1, -1, 3, 1, 10,0.03544323338072223,0.7445364804666151,3
1503600511428,-0.035,+0.041,-0.365,-0.929,+0.709,-0.095,-0.692,+4.312,+10.312,+2.438,1, -7, -4, -4, 2, 4, -2, -1,0.03529053594839742,0.7463653704215084,3
1503600511444,-0.034,+0.042,-0.367,-0.929,+0.677,-0.062,-0.710,+2.688,+11.188,-0.875,15, 17, 2, 6, 5, 2, 4, -11,0.03252252717897762,0.7512295596741813,3
1503600511466,-0.034,+0.043,-0.369,-0.928,+0.725,-0.096,-0.709,+7.688,+14.625,+0.875,1, -6, -9, -1, -1, 1, 1, -1,0.031549201947411724,0.7555049426777954,3
1503600511481,-0.033,+0.045,-0.372,-0.926,+0.719,-0.121,-0.685,+11.438,+19.438,-1.125,-6, -8, -1, -5, 0, -1, -2, 15,0.027802030235382667,0.7617695985543355,3
1503600511504,-0.032,+0.046,-0.376,-0.925,+0.731,-0.118,-0.702,+10.938,+22.125,-5.250,-6, 24, 16, 2, 0, -3, -1, -3,0.02475845481121768,0.7709150006146013,3
1503600511533,-0.030,+0.049,-0.380,-0.923,+0.723,-0.079,-0.682,+17.625,+23.688,-4.938,5, -6, -2, 0, 0, 1, 7, 1,0.018258526949837837,0.7798050923432941,3
1503600511555,-0.028,+0.051,-0.384,-0.921,+0.731,-0.095,-0.672,+19.312,+28.875,-4.438,-12, -8, -3, -3, -3, -3, -7, 2,0.012491924909618275,0.7886637008876696,3
1503600511564,-0.025,+0.054,-0.390,-0.919,+0.750,-0.105,-0.651,+19.438,+33.812,-8.875,-9, 0, -3, -3, -2, 1, 1, 5,0.0038572983919879277,0.8025976682582029,3
1503600511586,-0.023,+0.057,-0.395,-0.917,+0.793,-0.165,-0.647,+19.438,+28.875,-7.062,1, -3, -3, 0, -2, 3, 1, 7,-0.002869675449899844,0.8141489863610257,3
1503600511602,-0.021,+0.059,-0.400,-0.914,+0.803,-0.140,-0.611,+14.188,+28.312,-6.375,6, 17, 0, -3, -4, -6, -1, 16,-0.008881434272731472,0.825101634374744,3
1503600511624,-0.020,+0.060,-0.404,-0.912,+0.818,-0.124,-0.593,+12.188,+21.938,-2.688,6, -9, -10, -4, -2, 2, -2, -1,-0.012096184197179798,0.8339927200663574,3
1503600511646,-0.019,+0.062,-0.406,-0.912,+0.750,-0.132,-0.607,+10.312,+9.750,-3.312,-5, -12, 0, 2, 3, 9, 6, -11,-0.015819735237514513,0.8392769283484415,3
1503600511661,-0.018,+0.064,-0.408,-0.910,+0.718,-0.149,-0.595,+10.438,+17.000,-3.000,-4, -16, 1, 0, 4, 13, -3, -30,-0.019635072619597838,0.8434943219940314,3
1503600511684,-0.017,+0.065,-0.411,-0.909,+0.717,-0.144,-0.574,+4.438,+17.562,-0.812,-37, 3, -3, -1, -1, -9, -7, -15,-0.02272528633018564,0.8505665372778549,3
1503600511706,-0.018,+0.067,-0.416,-0.907,+0.678,-0.185,-0.554,+6.438,+36.188,+0.000,11, 8, 2, 2, -1, -5, 2, 0,-0.023312220089275214,0.8620498568866255,3
1503600511722,-0.018,+0.067,-0.423,-0.904,+0.731,-0.187,-0.535,-4.188,+39.562,-1.062,1, -2, -1, -1, -5, -7, -7, 2,-0.02436778649723987,0.8777216037787505,3
1503600511744,-0.019,+0.066,-0.430,-0.900,+0.796,-0.192,-0.526,-7.125,+43.000,-3.625,9, 0, 2, 0, 2, 2, -1, 0,-0.022770921506907828,0.8926704683789758,3
1503600511766,-0.018,+0.064,-0.435,-0.898,+0.818,-0.138,-0.536,-12.000,+30.312,-11.625,-23, -17, -8, 0, -3, -6, -11, -4,-0.023555914933524824,0.9037792956336852,3
1503600511781,-0.017,+0.061,-0.439,-0.896,+0.836,-0.120,-0.523,-11.938,+24.562,-15.000,12, 6, -1, -4, -2, 1, 0, -1,-0.023276506689204966,0.9122510004840602,3
1503600511804,-0.015,+0.057,-0.442,-0.895,+0.827,-0.081,-0.546,-12.125,+13.250,-19.500,12, 18, 8, 4, 0, -5, 4, 4,-0.023698248899841574,0.9187001288682777,3
1503600511829,-0.012,+0.054,-0.443,-0.895,+0.809,-0.066,-0.568,-11.062,+8.312,-23.562,-16, -3, -1, -2, 0, 0, 0, 12,-0.026520122108772488,0.9209276708992596,3
1503600511842,-0.009,+0.050,-0.445,-0.894,+0.786,-0.042,-0.595,-8.375,+10.812,-21.312,10, 5, -2, 1, -1, -4, -5, -4,-0.028547645321679197,0.9249800584185565,3
1503600511864,-0.006,+0.048,-0.447,-0.893,+0.807,-0.002,-0.593,-2.875,+15.125,-17.500,-2, -8, -2, -2, -8, -7, 0, 3,-0.0323361105779101,0.9293444736678201,3
1503600511886,-0.002,+0.046,-0.450,-0.892,+0.841,+0.027,-0.605,+6.500,+22.938,-16.750,-16, -7, -1, -1, 3, -5, 4, 1,-0.037974825829455446,0.9362811460679132,3
1503600511901,+0.001,+0.047,-0.454,-0.890,+0.862,+0.029,-0.595,+16.375,+27.812,-12.312,-1, -9, -6, -3, 0, 2, -2, -6,-0.04462372487850447,0.9456041735501134,3
1503600511924,+0.005,+0.049,-0.460,-0.887,+0.913,+0.022,-0.579,+27.438,+38.188,-8.688,6, 2, 2, -1, 1, 1, 2, -2,-0.05416002345726935,0.9597194790568407,3
1503600511946,+0.010,+0.054,-0.466,-0.883,+0.864,+0.007,-0.562,+39.625,+42.125,-5.938,0, -7, 2, 0, -1, -4, 3, 9,-0.06829421689004841,0.9740251344057942,3
1503600511963,+0.014,+0.059,-0.473,-0.879,+0.888,-0.026,-0.558,+40.000,+49.312,-5.375,18, -3, -3, -2, -3, -3, 11, -3,-0.08084523931583228,0.9910459244400033,3
1503600511984,+0.018,+0.066,-0.476,-0.877,+0.968,-0.078,-0.568,+45.688,+21.875,-0.125,2, -2, -1, -1, 4, 19, -7, -7,-0.09500906084803272,0.9995564011989434,3
1503600512006,+0.022,+0.073,-0.479,-0.874,+0.970,-0.054,-0.521,+49.000,+18.000,-4.000,0, 14, 9, 1, 0, -1, -3, -2,-0.10922848507232194,1.0078072633476203,3
1503600512022,+0.029,+0.080,-0.481,-0.873,+0.952,-0.068,-0.509,+53.750,+11.375,-8.875,2, -2, -3, 0, -2, -9, -5, 8,-0.12875276352691092,1.015023370580172,3
1503600512044,+0.035,+0.087,-0.482,-0.871,+0.915,-0.092,-0.511,+57.562,+9.500,-11.812,-4, -14, -6, -1, -2, -1, 0, -6,-0.1463765525984482,1.0193452204983782,3
1503600512066,+0.042,+0.095,-0.483,-0.869,+0.907,-0.103,-0.525,+60.125,+7.125,-13.125,-11, -15, -11, -2, 1, 2, -6, 2,-0.1668344252207321,1.0244014020522756,3
1503600524891,+0.044,+0.075,-0.389,-0.917,+0.779,-0.073,-0.637,-5.750,+2.000,-3.375,-3, 7, -2, -1, -2, -3, -1, 3,-0.1402539898903183,0.8095149431352716,4
1503600524912,+0.045,+0.074,-0.388,-0.917,+0.746,-0.069,-0.654,-2.062,-2.062,-2.438,-2, -6, 0, 1, 1, -2, -1, -1,-0.14114082939316394,0.8069363921635745,4
1503600524934,+0.045,+0.074,-0.388,-0.918,+0.707,-0.095,-0.641,-1.062,-4.438,-1.125,-1, -1, -2, -2, 0, -2, -1, 1,-0.1412303908791775,0.8074757874419213,4
1503600524950,+0.045,+0.074,-0.387,-0.918,+0.721,-0.102,-0.643,-2.938,-1.438,+0.750,-2, -12, -6, -4, -1, -2, 0, 2,-0.14108311078314464,0.8050742764270805,4
1503600524972,+0.045,+0.073,-0.387,-0.918,+0.760,-0.115,-0.648,-4.625,-3.188,-2.625,4, 0, -2, 4, -1, -2, -2, -2,-0.1402714548208811,0.8047985889686795,4
1503600524995,+0.046,+0.072,-0.387,-0.918,+0.749,-0.096,-0.649,-4.812,-2.062,-5.938,1, -2, 3, -4, -3, -1, -2, 0,-0.14131279645124506,0.8046262073256079,4
1503600525011,+0.047,+0.071,-0.387,-0.918,+0.730,-0.087,-0.666,-3.500,-1.875,-7.438,-2, -10, -4, -3, -1, 0, 1, 0,-0.14235474153988878,0.8044540170736284,4
1503600525032,+0.047,+0.070,-0.386,-0.919,+0.704,-0.091,-0.653,-5.375,-0.562,-5.500,-7, -16, -5, -2, 1, 0, 0, -3,-0.14149937819171712,0.8023252867457128,4
1503600525057,+0.048,+0.069,-0.387,-0.918,+0.719,-0.079,-0.650,-6.062,+2.625,-3.750,-7, -9, -3, -4, -2, -3, -5, -4,-0.14258827413039665,0.8040140614119313,4
1503600525070,+0.048,+0.068,-0.387,-0.918,+0.778,-0.092,-0.631,-5.500,-1.938,-4.812,1, 6, 8, 3, 2, 3, -2, 1,-0.1417800717625597,0.8037490657594651,4
1503600525093,+0.049,+0.067,-0.387,-0.918,+0.786,-0.079,-0.639,-6.312,-3.562,-5.000,-1, 11, -2, -2, 0, 2, 0, 4,-0.1428244729719769,0.803580404351251,4
1503600525114,+0.050,+0.066,-0.386,-0.919,+0.737,-0.066,-0.660,-4.062,-7.875,-7.125,0, 5, 1, -3, -2, -1, 0, 1,-0.14383777249902127,0.8015544002670024,4
1503600525131,+0.051,+0.065,-0.385,-0.919,+0.704,-0.080,-0.667,-4.438,-6.562,-6.562,-1, -8, -2, 1, 0, -3, -2, -2,-0.1447584768513203,0.798992149144271,4
1503600525155,+0.052,+0.064,-0.384,-0.920,+0.708,-0.083,-0.639,-6.312,-5.062,-6.812,-2, 0, -1, -2, -2, 3, 3, 2,-0.1457871671184467,0.7969711954592331,4
1503600525174,+0.053,+0.062,-0.383,-0.920,+0.767,-0.069,-0.659,-7.562,-5.812,-7.062,2, 3, -3, -2, -1, -2, -2, 0,-0.1459229153506526,0.7941610735129668,4
1503600525192,+0.054,+0.061,-0.383,-0.920,+0.768,-0.057,-0.685,-4.562,-5.812,-9.062,-5, -6, -1, 1, -1, -2, -3, -1,-0.14698351938188653,0.7939963940282079,4
1503600525213,+0.055,+0.060,-0.382,-0.921,+0.710,-0.065,-0.662,-4.188,-2.438,-8.750,-3, -4, 1, -1, 2, 0, 0, -4,-0.14803499067718112,0.7919825540258255,4
1503600525235,+0.056,+0.059,-0.382,-0.921,+0.680,-0.072,-0.647,-6.312,-2.875,-6.812,-4, -5, -4, -2, -2, -3, 0, 0,-0.14910114677162978,0.7918184594401974,4
1503600525251,+0.057,+0.057,-0.381,-0.921,+0.761,-0.063,-0.638,-7.500,-8.500,-8.188,-4, 2, -2, 0, -1, 3, -1, -1,-0.14926388189416984,0.7890255456797529,4
1503600525273,+0.058,+0.055,-0.380,-0.922,+0.790,-0.023,-0.665,-9.250,-10.000,-8.000,-8, -9, -6, -4, -3, 1, 0, 1,-0.14955233181081648,0.7867789378784185,4
1503600525295,+0.059,+0.053,-0.379,-0.922,+0.761,-0.009,-0.667,-6.625,-9.312,-4.625,5, 0, -1, -5, -3, -6, -1, 2,-0.1497386593096207,0.7840032073901473,4
1503600525311,+0.059,+0.053,-0.377,-0.923,+0.736,-0.037,-0.660,-0.750,-15.938,-1.375,12, 5, -3, -3, -3, -3, -1, -1,-0.1496455790003337,0.7797847636518384,4
1503600525333,+0.060,+0.053,-0.374,-0.924,+0.684,-0.055,-0.677,-1.438,-15.375,-2.750,13, 0, 0, -5, -1, 1, 2, 1,-0.15131299244971672,0.7732767467011233,4
1503600525357,+0.060,+0.052,-0.372,-0.925,+0.689,-0.046,-0.679,-3.625,-13.375,-0.625,1, -3, 4, 3, 0, 2, 0, 2,-0.15045375037124686,0.7688418655968215,4
1503600525371,+0.060,+0.052,-0.370,-0.926,+0.701,-0.037,-0.696,-3.125,-11.625,+1.625,-1, 1, 1, 5, 5, 2, 1, 3,-0.15036662780591015,0.7646459342995039,4
1503600525395,+0.060,+0.051,-0.368,-0.926,+0.720,-0.045,-0.688,-2.812,-8.938,+2.000,-16, 20, 9, 1, -2, 6, -5, -13,-0.1494011881238894,0.7596926863495929,4
1503600525415,+0.059,+0.051,-0.367,-0.927,+0.724,-0.046,-0.674,-3.625,-8.312,+2.312,-4, -1, -5, -4, -4, -6, -2, 2,-0.14754778084550135,0.7577932963372453,4
1503600525432,+0.058,+0.052,-0.366,-0.927,+0.708,-0.071,-0.684,-2.375,-8.188,+6.688,-1, -4, -1, -1, 0, 4, 0, -1,-0.14633118197448142,0.7555871748683753,4
1503600525453,+0.057,+0.051,-0.364,-0.928,+0.719,-0.027,-0.684,-3.625,-9.500,+5.750,0, 3, 0, 2, -1, -4, -4, 1,-0.14361635125509084,0.7511089843374064,4
1503600525474,+0.056,+0.051,-0.363,-0.929,+0.700,-0.036,-0.706,-3.062,-7.875,+6.938,8, -9, -4, -4, 0, -3, -1, 4,-0.1417542936883141,0.7492136955890129,4
1503600525492,+0.055,+0.051,-0.362,-0.929,+0.679,-0.045,-0.698,-2.562,-6.750,+6.812,-4, 1, 1, 0, -1, -1, -1, -4,-0.139779599002582,0.7467871388930972,4
1503600525513,+0.054,+0.051,-0.361,-0.930,+0.674,-0.052,-0.694,-3.125,-5.938,+7.438,-3, 5, -2, -2, -3, -3, -3, 3,-0.13791238668936684,0.7448937695560262,4
1503600525535,+0.053,+0.051,-0.360,-0.930,+0.692,-0.054,-0.708,-3.625,-4.188,+8.000,7, 0, -2, -2, -3, -4, -3, 0,-0.13593641376507137,0.74246990354301,4
1503600525551,+0.052,+0.051,-0.359,-0.931,+0.681,-0.050,-0.691,-2.500,-4.188,+7.438,-2, 18, 3, -3, -1, -3, -1, 1,-0.13406400151120954,0.7405784047732612,4
1503600525573,+0.051,+0.052,-0.358,-0.931,+0.693,-0.062,-0.695,-2.625,-3.562,+4.562,3, 6, 4, 6, -2, 1, 0, -2,-0.1328249473793815,0.7383716674372632,4
1503600525595,+0.050,+0.051,-0.358,-0.931,+0.705,-0.056,-0.713,-3.688,-4.062,+4.688,5, 19, -4, -4, 0, 0, -3, 4,-0.1302110409249116,0.7380816345983363,4
1503600525628,+0.050,+0.051,-0.357,-0.931,+0.676,-0.046,-0.700,-2.125,-3.062,+3.000,-2, -8, 3, 3, 2, -1, 0, 3,-0.1301097256255735,0.7357374529882079,4
1503600525640,+0.049,+0.051,-0.357,-0.932,+0.677,-0.066,-0.708,-2.438,-0.875,+2.812,-2, 7, 9, 0, 0, -3, -1, 3,-0.1283317530874532,0.7361918441613561,4
1503600525655,+0.049,+0.051,-0.357,-0.932,+0.685,-0.053,-0.712,-2.688,-0.562,+2.812,2, -21, -9, -3, 0, -1, -6, -8,-0.1283317530874532,0.7361918441613561,4
1503600525677,+0.048,+0.051,-0.357,-0.932,+0.677,-0.047,-0.707,-2.625,+2.688,+2.625,-3, -3, -5, -4, -3, -3, 2, 7,-0.12645479852888558,0.7361161382699087,4
1503600525694,+0.048,+0.051,-0.357,-0.932,+0.688,-0.054,-0.703,-2.688,+1.250,+3.312,1, 14, 8, 4, 4, 1, 0, -4,-0.12645479852888558,0.7361161382699087,4
1503600525715,+0.048,+0.051,-0.357,-0.932,+0.685,-0.043,-0.705,-2.500,+1.750,+1.812,-7, -16, -12, -2, -3, 5, 1, 2,-0.12645479852888558,0.7361161382699087,4
1503600525737,+0.047,+0.051,-0.358,-0.931,+0.695,-0.052,-0.695,-1.688,+4.375,+1.812,9, 7, 0, 1, 1, 1, 0, -5,-0.12458613457249453,0.7378548253840708,4
1503600525753,+0.047,+0.051,-0.358,-0.931,+0.698,-0.060,-0.693,-1.312,+2.000,+1.125,3, 0, -7, -11, -11, -5, -1, 3,-0.12458613457249453,0.7378548253840708,4
1503600525774,+0.047,+0.051,-0.359,-0.931,+0.694,-0.054,-0.703,-1.500,+4.625,+0.312,2, -6, 4, -6, -6, -10, -1, -12,-0.12468753371721294,0.7402013224675745,4
1503600525797,+0.047,+0.051,-0.360,-0.931,+0.694,-0.055,-0.688,-1.625,+3.188,-0.312,-5, -3, -6, -6, -11, -10, -4, 3,-0.1247889302846049,0.7425496023326437,4
1503600525813,+0.047,+0.051,-0.360,-0.930,+0.689,-0.062,-0.698,-2.000,+3.875,-0.125,-15, -22, -6, -2, 1, 0, -2, -2,-0.1246954864823355,0.7420180567960557,4
1503600525842,+0.047,+0.050,-0.361,-0.930,+0.706,-0.053,-0.684,-2.812,+4.062,-1.312,2, -3, -3, 8, 3, 3, 1, -7,-0.12405405680299379,0.7441615336794468,4
1503600525858,+0.047,+0.050,-0.362,-0.930,+0.709,-0.059,-0.688,-4.188,+2.625,-1.000,-1, 0, 4, 0, 6, 12, 1, -6,-0.12415346070547167,0.7465129934459837,4
1503600525873,+0.047,+0.049,-0.363,-0.930,+0.727,-0.039,-0.693,-4.500,+4.875,-0.812,-5, 11, 7, 1, 0, -5, -5, -8,-0.12350671527419452,0.7486623174217512,4
1503600525895,+0.047,+0.049,-0.363,-0.929,+0.724,-0.035,-0.681,-3.000,+2.250,-0.875,-3, 7, -4, -10, -10, -34, -1, 4,-0.12341327931267654,0.7481295028781665,4
1503600525917,+0.047,+0.049,-0.363,-0.929,+0.697,-0.061,-0.693,-2.625,+1.688,-0.688,2, 0, -1, 2, -1, 0, -1, 9,-0.12341327931267654,0.7481295028781665,4
1503600525933,+0.048,+0.048,-0.363,-0.929,+0.683,-0.048,-0.686,-3.438,+0.625,-2.125,-3, -13, 2, 2, 5, 8, 3, -6,-0.12453784478242894,0.7479987830840673,4
1503600525954,+0.048,+0.048,-0.364,-0.929,+0.698,-0.040,-0.697,-3.438,+1.562,+0.062,0, 13, 4, 1, -5, -4, -3, 17,-0.12463324158320585,0.750353140302864,4
1503600525977,+0.048,+0.047,-0.364,-0.929,+0.716,-0.046,-0.691,-2.562,+3.812,-0.438,0, -4, 0, 9, 3, 5, -1, 7,-0.12388624411532427,0.7501530888848651,4
1503600525994,+0.048,+0.047,-0.365,-0.928,+0.744,-0.048,-0.687,-1.562,+4.312,-1.250,-1, -8, -9, -4, 15, 27, -10, -6,-0.12388425671545293,0.7519753263078409,4
1503600526014,+0.048,+0.047,-0.366,-0.928,+0.722,-0.044,-0.695,-1.062,+5.375,-1.062,7, 12, 15, 5, 5, 7, 4, -7,-0.12397766344580687,0.7543329328809072,4
1503600526037,+0.049,+0.047,-0.367,-0.928,+0.695,-0.043,-0.701,+0.438,+7.562,-1.500,-5, 8, -4, -4, -6, -6, -1, -1,-0.12593925847173223,0.7567607476695787,4
1503600526053,+0.048,+0.049,-0.368,-0.927,+0.684,-0.095,-0.697,+3.875,+9.062,+5.875,6, -7, -6, -4, 2, 4, 6, 8,-0.12557962428452385,0.758922871885648,4
1503600526075,+0.048,+0.049,-0.370,-0.926,+0.694,-0.047,-0.688,-2.250,+14.062,-0.562,-7, -12, 0, 1, 2, 1, 1, -7,-0.12567898932286842,0.7631152625126622,4
1503600526101,+0.048,+0.049,-0.373,-0.926,+0.740,-0.055,-0.680,-2.062,+12.250,-1.312,25, 21, 14, 4, 0, -1, 4, 7,-0.1259711080789468,0.7702199232364677,4
1503600526113,+0.048,+0.049,-0.376,-0.924,+0.761,-0.061,-0.672,-1.250,+17.250,-1.938,16, -5, -13, -8, -6, -11, -4, 0,-0.12607245035521403,0.7762666762329289,4
1503600526136,+0.048,+0.049,-0.379,-0.923,+0.756,-0.066,-0.665,-0.250,+20.250,-2.812,-13, -8, -4, -2, -2, -1, -3, 2,-0.12626916616394362,0.7828646302337827,4
1503600526157,+0.048,+0.050,-0.383,-0.921,+0.725,-0.052,-0.663,-1.250,+27.312,-1.250,-7, -8, -7, -6, 0, 4, 3, 0,-0.1272539217108596,0.7915344635348915,4
1503600526173,+0.049,+0.050,-0.387,-0.919,+0.725,-0.040,-0.655,-1.000,+26.438,-1.750,-11, 11, 9, -1, -2, -3, 4, 0,-0.12931101424324337,0.800091779095886,4
1503600526196,+0.048,+0.050,-0.391,-0.918,+0.752,-0.051,-0.664,-1.625,+26.125,+0.375,-9, 3, -6, -6, 1, 2, -4, -18,-0.12776252914100633,0.8090764827701215,4
1503600526217,+0.048,+0.050,-0.395,-0.916,+0.767,-0.048,-0.640,-4.312,+21.938,+2.812,-4, -2, 2, 3, -4, -2, -1, -1,-0.1279691319417206,0.8176176476841847,4
1503600526233,+0.047,+0.049,-0.398,-0.915,+0.760,-0.026,-0.627,-3.625,+21.500,+1.875,-11, -5, -5, -1, -1, 1, 1, 0,-0.12551406812970511,0.8240344986453719,4
1503600526255,+0.047,+0.049,-0.402,-0.913,+0.760,-0.032,-0.633,-0.438,+19.500,-1.562,13, 8, 3, 4, 2, -2, -2, -6,-0.1257167346468798,0.8326235738208161,4
1503600526277,+0.048,+0.050,-0.405,-0.912,+0.776,-0.046,-0.622,+2.375,+21.688,-1.938,-10, -10, -5, -1, -4, -6, -5, 7,-0.12858092958395742,0.8396317974522649,4
1503600526296,+0.048,+0.050,-0.408,-0.910,+0.724,-0.050,-0.619,+1.438,+23.375,-3.562,-5, -10, 5, 0, -6, -20, 1, 4,-0.1286881828485338,0.8458367849601514,4
1503600526315,+0.050,+0.051,-0.414,-0.907,+0.816,-0.035,-0.617,+4.750,+36.312,-8.000,-18, -13, -8, -5, -1, 4, -1, 3,-0.1334993362157268,0.8591861557228989,4
1503600526339,+0.050,+0.052,-0.421,-0.904,+0.756,-0.045,-0.604,+3.812,+46.562,-3.562,9, 17, 0, 0, 3, 7, -2, 1,-0.13477330266156745,0.8749271017676736,4
1503600526353,+0.052,+0.052,-0.428,-0.901,+0.841,-0.015,-0.587,+5.125,+44.938,-11.250,3, 8, 5, 5, -1, -2, 0, -9,-0.13882846420379197,0.8906672509498522,4
1503600526375,+0.055,+0.052,-0.434,-0.898,+0.811,-0.021,-0.589,+7.812,+34.562,-12.625,3, -10, -4, -4, -3, 11, -7, 2,-0.14456844897232887,0.9040796721250276,4
1503600526397,+0.058,+0.054,-0.440,-0.895,+0.819,-0.043,-0.537,+10.812,+36.688,-13.688,24, 5, 9, 4, 4, 7, 6, 0,-0.15208157041556858,0.9180327396204279,4
1503600526413,+0.061,+0.055,-0.446,-0.892,+0.839,-0.027,-0.543,+11.438,+37.688,-15.688,3, 0, -3, -1, -4, -2, -1, 9,-0.15869748524462562,0.9318271357133859,4
1503600526435,+0.064,+0.056,-0.451,-0.889,+0.783,-0.040,-0.529,+13.812,+36.125,-16.438,-26, -15, -5, -2, -3, -5, -8, 0,-0.16519606516485794,0.9431903378949709,4
1503600526465,+0.068,+0.057,-0.456,-0.885,+0.840,-0.028,-0.497,+11.750,+32.750,-20.312,-6, -13, -7, -4, -3, -6, -13, -13,-0.1733438019079613,0.9541489068290221,4
1503600526473,+0.071,+0.058,-0.461,-0.883,+0.862,-0.043,-0.482,+10.938,+29.375,-16.875,11, 12, 4, -2, -2, -5, -3, 6,-0.17995213206152225,0.9661544280329041,4
1503600526498,+0.075,+0.059,-0.466,-0.880,+0.884,-0.052,-0.484,+12.062,+30.812,-18.438,0, -3, 3, -2, 5, 8, 5, -13,-0.18820259631598268,0.9777561488052117,4
1503600526517,+0.078,+0.060,-0.470,-0.877,+0.861,-0.025,-0.497,+12.375,+23.812,-20.312,11, 18, -5, 1, -1, 2, 0, -16,-0.19453627872030366,0.9868123293976981,4
1503600526534,+0.083,+0.060,-0.473,-0.875,+0.870,-0.010,-0.505,+12.938,+20.375,-20.438,7, -12, -1, -2, -5, 1, 1, 6,-0.2034828437967513,0.9937244846671762,4
1503600526555,+0.087,+0.061,-0.476,-0.873,+0.880,-0.020,-0.490,+13.875,+16.688,-20.625,-4, 7, -1, 1, 2, 5, 2, -1,-0.21160864001175503,1.0008836058056427,4
1503600526577,+0.091,+0.062,-0.478,-0.872,+0.877,-0.018,-0.496,+14.188,+12.688,-17.750,9, -6, 1, 2, 3, 11, 3, 7,-0.2197846247853488,1.0060322205279848,4
1503600526593,+0.094,+0.064,-0.480,-0.870,+0.879,+0.003,-0.495,+16.875,+15.750,-15.938,24, -2, -1, -5, -1, 8, 11, -7,-0.226993168846284,1.010935045488736,4
1503600526615,+0.098,+0.065,-0.482,-0.868,+0.865,-0.013,-0.502,+18.000,+17.438,-14.250,-25, 5, 3, 0, -6, -13, -3, 0,-0.23498665186292692,1.0156161365225458,4
1503600526637,+0.101,+0.068,-0.484,-0.866,+0.870,-0.014,-0.506,+16.688,+17.938,-10.500,-25, -11, -4, -2, -1, -8, -4, -2,-0.24320143968192787,1.02091606301835,4
1503600534564,+0.139,+0.110,-0.431,-0.885,+0.775,-0.051,-0.584,-3.625,-15.625,+9.750,-4, -12, -8, -13, -6, -3, -3, 2,-0.3488325175926597,0.9199232444335154,5
1503600534589,+0.137,+0.110,-0.429,-0.886,+0.784,-0.054,-0.564,-2.688,-12.250,+13.000,2, -4, 1, -3, 2, 2, 3, -3,-0.3449607336620864,0.915280868125602,5
1503600534609,+0.135,+0.111,-0.427,-0.887,+0.819,-0.083,-0.579,-1.000,-8.938,+14.812,2, -5, -4, -1, -1, -6, -1, -5,-0.34204095813429036,0.9111592336343239,5
1503600534617,+0.133,+0.112,-0.425,-0.888,+0.813,-0.091,-0.573,-1.000,-9.500,+12.625,6, 35, 10, 0, -1, 0, -2, -1,-0.33911065987409894,0.9070399390052931,5
1503600534640,+0.132,+0.113,-0.424,-0.889,+0.812,-0.090,-0.579,+0.000,-6.312,+11.062,-4, -13, -1, 1, -2, -3, 4, 8,-0.3382431932296396,0.9055039099424553,5
1503600534663,+0.131,+0.114,-0.422,-0.890,+0.762,-0.089,-0.606,+0.812,-6.688,+8.625,-6, -11, -2, 1, -3, 4, -6, -15,-0.3371543569615861,0.9015304337608201,5
1503600534677,+0.130,+0.114,-0.421,-0.890,+0.695,-0.117,-0.598,-0.500,-0.625,+3.938,3, -13, -9, -2, -1, 0, 2, 0,-0.33507754173189835,0.8989503097077953,5
1503600534699,+0.130,+0.114,-0.421,-0.890,+0.716,-0.120,-0.600,-3.062,+4.812,-0.875,-8, -8, -5, -2, 2, 5, -2, -6,-0.33507754173189835,0.8989503097077953,5
1503600534722,+0.130,+0.113,-0.422,-0.890,+0.768,-0.098,-0.576,-5.062,+5.812,-5.000,-4, -7, -4, -3, -1, 1, -1, 13,-0.33434342557380253,0.9008688036185044,5
1503600534738,+0.131,+0.112,-0.423,-0.889,+0.804,-0.085,-0.586,-5.312,+8.000,-7.375,-2, -29, -11, -4, -1, 1, 0, 2,-0.335218801152408,0.9024050124931556,5
1503600534759,+0.132,+0.111,-0.425,-0.889,+0.803,-0.059,-0.575,-4.312,+7.375,-9.812,-6, -22, -8, -11, -5, 2, 0, -1,-0.33654930740506517,0.9069112199775513,5
1503600534782,+0.134,+0.111,-0.427,-0.888,+0.821,-0.064,-0.563,-1.625,+11.062,-9.500,-3, -2, -1, 0, 0, -3, 2, -3,-0.3404363616072885,0.9115476984974777,5
1503600534798,+0.135,+0.110,-0.429,-0.886,+0.864,-0.071,-0.551,-0.812,+11.125,-6.688,-4, -2, -2, 2, -2, -7, -8, -1,-0.3412458076153511,0.9150117476262117,5
1503600534822,+0.136,+0.110,-0.431,-0.886,+0.850,-0.054,-0.564,-0.250,+6.938,-7.500,2, -16, 0, -1, 1, 4, 3, -4,-0.34351832818825945,0.920045937380356,5
1503600534841,+0.137,+0.110,-0.431,-0.885,+0.789,-0.063,-0.563,+1.812,+5.062,-7.312,-4, 2, -4, -1, 1, 2, 4, 4,-0.3451174162195933,0.91965585556696,5
1503600534858,+0.138,+0.110,-0.432,-0.884,+0.783,-0.070,-0.564,+1.438,+9.375,-6.375,2, -11, -5, -3, -1, -2, 1, -5,-0.3469216240493266,0.9217176505443933,5
1503600534879,+0.139,+0.110,-0.434,-0.883,+0.866,-0.049,-0.544,+1.625,+9.000,-4.812,0, 8, 2, 0, -1, -2, 2, 2,-0.3489305230844556,0.9262361173497399,5
1503600534902,+0.140,+0.111,-0.435,-0.882,+0.856,-0.069,-0.535,+4.625,+5.438,-5.188,5, 26, 6, 2, 3, 1, -1, 2,-0.35170094859707285,0.9288255903480298,5
1503600534917,+0.142,+0.111,-0.436,-0.882,+0.826,-0.065,-0.538,+4.812,+1.500,-6.812,0, 21, 5, 3, -2, 0, -3, -6,-0.3556200414149284,0.9315493939127609,5
1503600534939,+0.143,+0.111,-0.436,-0.882,+0.845,-0.059,-0.538,+2.062,-0.812,-2.312,-2, -6, -4, -1, 0, 1, 1, 7,-0.3574767318561899,0.9316821306226184,5
1503600534962,+0.143,+0.111,-0.436,-0.882,+0.857,-0.054,-0.551,-0.750,-3.312,+1.438,1, -2, 2, 2, 0, 1, -7, -4,-0.3574767318561899,0.9316821306226184,5
1503600534977,+0.143,+0.111,-0.435,-0.882,+0.841,-0.051,-0.528,-0.688,-6.250,+2.188,-2, 14, 1, -2, -2, -3, 4, -4,-0.35726823293075594,0.9292254078537825,5
1503600535000,+0.142,+0.111,-0.434,-0.883,+0.857,-0.064,-0.535,-3.188,-10.812,+6.250,-3, -14, -4, -3, -3, -4, 3, 0,-0.35546965897862803,0.9271588856241185,5
1503600535023,+0.141,+0.111,-0.432,-0.884,+0.811,-0.066,-0.548,-3.188,-15.188,+5.938,2, -13, -2, -4, -1, 0, -4, -10,-0.3534596670377799,0.9226416189496847,5
1503600535038,+0.141,+0.111,-0.429,-0.885,+0.791,-0.075,-0.548,-3.250,-15.938,+4.438,-1, -12, -2, -9, -2, 3, 3, 1,-0.3530983621781247,0.9158182111158311,5
1503600535059,+0.139,+0.110,-0.427,-0.887,+0.836,-0.072,-0.559,-7.375,-16.312,+7.875,1, 0, 2, -1, 0, 2, -10, 2,-0.34852714800402795,0.9111838521515316,5
1503600535081,+0.138,+0.109,-0.424,-0.888,+0.837,-0.070,-0.582,-6.438,-18.250,+8.125,-1, 14, 3, 0, -1, 1, 0, -3,-0.34535362848145684,0.9037330493639928,5
1503600535099,+0.137,+0.109,-0.421,-0.890,+0.778,-0.068,-0.585,-5.000,-18.750,+6.562,-1, 0, -3, -3, -3, -3, 0, -3,-0.34339047236551207,0.8973406217689835,5
1503600535119,+0.136,+0.108,-0.419,-0.891,+0.760,-0.073,-0.603,-4.938,-14.875,+8.312,7, 7, -6, -4, -1, -1, -3, 7,-0.34043173850472713,0.8923555219420463,5
1503600535142,+0.135,+0.108,-0.416,-0.893,+0.739,-0.077,-0.612,-3.812,-12.500,+6.562,-6, -8, -5, -2, -3, 1, 3, 2,-0.3384628785962392,0.885988858666906,5
1503600535173,+0.134,+0.108,-0.415,-0.894,+0.776,-0.078,-0.607,-4.625,-7.562,+5.125,-6, 17, 5, 2, 2, 1, 2, -6,-0.33664262214873103,0.8839542312930713,5
1503600535179,+0.134,+0.107,-0.414,-0.894,+0.777,-0.052,-0.640,-1.938,-3.875,+4.562,-13, -13, -8, -5, -3, 0, -2, -3,-0.33551152910808246,0.8810265402132299,5
1503600535201,+0.134,+0.108,-0.413,-0.894,+0.719,-0.083,-0.608,+0.375,+0.062,+1.312,1, -12, 1, 1, 1, -4, -1, -1,-0.33623346466466514,0.8791081575750149,5
1503600535230,+0.133,+0.108,-0.413,-0.894,+0.698,-0.097,-0.617,-0.375,+7.500,+1.812,-6, -4, -2, -7, -1, -3, -2, 1,-0.3343628138812216,0.8789698618935284,5
1503600535239,+0.134,+0.108,-0.415,-0.894,+0.764,-0.095,-0.594,-0.625,+10.312,-2.188,-4, -10, -2, -2, 1, -4, 1, 7,-0.33664262214873103,0.8839542312930713,5
1503600535267,+0.134,+0.108,-0.416,-0.893,+0.793,-0.089,-0.585,-2.688,+11.812,-3.062,-4, 4, -2, 0, -3, 0, -2, 1,-0.3365933779106574,0.8858517849780487,5
1503600535284,+0.134,+0.108,-0.419,-0.892,+0.836,-0.062,-0.561,-1.875,+12.062,-3.750,4, 9, -1, -1, -2, -6, -5, -6,-0.336953200526883,0.8926110651299437,5
1503600535300,+0.135,+0.108,-0.421,-0.891,+0.870,-0.079,-0.554,-0.125,+6.688,-2.375,7, 29, 14, -3, 1, -1, 0, 0,-0.338973799543863,0.8970855032078008,5
1503600535321,+0.135,+0.108,-0.422,-0.890,+0.846,-0.069,-0.559,-0.750,+3.062,-2.312,-3, -6, -4, 1, -2, 0, 3, -1,-0.33892271572680155,0.8989941493708032,5
1503600535344,+0.135,+0.108,-0.422,-0.890,+0.815,-0.074,-0.551,-0.938,+0.875,-3.125,-2, -9, -2, 1, 2, 2, 0, 0,-0.33892271572680155,0.8989941493708032,5
1503600535361,+0.136,+0.108,-0.422,-0.890,+0.784,-0.067,-0.579,-1.938,-1.688,-1.438,-2, -9, -5, 1, -2, -25, -6, 5,-0.34078722064842176,0.8991289746380086,5
1503600535382,+0.136,+0.108,-0.422,-0.890,+0.785,-0.070,-0.574,-1.188,-0.688,-1.875,7, 16, 14, 6, 0, 4, -2, 0,-0.34078722064842176,0.8991289746380086,5
1503600535404,+0.137,+0.108,-0.421,-0.890,+0.810,-0.072,-0.573,-1.625,-4.562,-1.688,-15, -14, -5, 0, -2, 1, -1, -4,-0.3424487088802265,0.8968289267018414,5
1503600535421,+0.137,+0.107,-0.421,-0.890,+0.834,-0.062,-0.573,-0.812,-6.312,-2.688,2, -4, -2, 0, 0, 7, 2, 0,-0.34150852697277695,0.8963204234046062,5
1503600535441,+0.138,+0.107,-0.419,-0.891,+0.844,-0.071,-0.561,-1.000,-10.875,-1.938,-1, -6, -5, -5, -2, -1, -1, -3,-0.3432315751985286,0.8921179715804963,5
1503600535464,+0.138,+0.107,-0.418,-0.892,+0.814,-0.082,-0.583,-2.312,-12.750,-1.312,-2, 10, 9, 1, 2, 7, -1, 3,-0.34329012290686706,0.8902162529344849,5
1503600535481,+0.139,+0.106,-0.416,-0.893,+0.802,-0.059,-0.604,-2.938,-14.562,-2.188,-7, -17, -9, -1, -2, 1, 1, -15,-0.34409053409282175,0.8855195780881062,5
1503600535503,+0.139,+0.105,-0.414,-0.894,+0.793,-0.060,-0.590,-3.688,-13.125,+0.625,2, -11, -5, -5, -1, -1, -1, 2,-0.34302852644068005,0.8806987392664477,5
1503600535526,+0.138,+0.104,-0.412,-0.895,+0.796,-0.051,-0.612,-3.438,-12.625,+3.938,-4, -7, -3, 0, 1, 2, 1, 0,-0.34009857361807505,0.8757551565834014,5
1503600535540,+0.137,+0.105,-0.410,-0.896,+0.771,-0.086,-0.617,+0.938,-9.688,+9.875,-1, 10, -2, 0, -2, -3, 0, 2,-0.33900312746824124,0.8718152884743592,5
1503600535566,+0.136,+0.106,-0.408,-0.896,+0.727,-0.061,-0.613,-0.875,-4.812,+10.625,-2, 2, -4, -4, -1, -3, 0, 1,-0.3376410074181866,0.8673519013537314,5
1503600535584,+0.134,+0.106,-0.408,-0.897,+0.737,-0.089,-0.610,-0.500,-1.562,+9.625,-18, -11, -5, -3, -4, -1, -1, 0,-0.3341430742234418,0.8676062739822866,5
1503600535600,+0.133,+0.107,-0.407,-0.897,+0.761,-0.090,-0.605,-2.688,-4.312,+6.250,-1, 22, 4, -1, -1, 2, -3, 0,-0.33297745085135344,0.8655550656747699,5
1503600535622,+0.133,+0.106,-0.406,-0.898,+0.771,-0.091,-0.583,-4.562,-3.625,+2.500,-6, -4, -2, -2, 0, 3, -9, -4,-0.33211703703099316,0.8631756328950947,5
1503600535644,+0.133,+0.106,-0.406,-0.898,+0.795,-0.103,-0.579,-7.438,-7.500,-1.000,0, 10, 2, 0, -3, -5, -1, 3,-0.33211703703099316,0.8631756328950947,5
1503600535662,+0.133,+0.104,-0.405,-0.899,+0.843,-0.067,-0.596,-7.875,-12.000,-2.125,-4, 8, -1, -1, 0, -1, 2, 1,-0.330357270560011,0.8603097052328315,5
1503600535681,+0.134,+0.102,-0.403,-0.900,+0.792,-0.042,-0.610,-6.312,-16.500,-4.688,-2, 11, 6, 3, 2, 0, -2, -5,-0.3302989810330782,0.8551881958335054,5
1503600535704,+0.134,+0.101,-0.400,-0.901,+0.744,-0.071,-0.619,-6.750,-15.812,-1.625,-8, 5, -4, -4, 0, 4, -2, 1,-0.3290817297431884,0.8480316787523354,5
1503600535720,+0.134,+0.100,-0.398,-0.902,+0.757,-0.087,-0.621,-7.312,-13.125,+1.312,5, -6, -3, 3, 1, -1, 1, -8,-0.3280670609526042,0.8432886111300838,5
1503600535741,+0.133,+0.099,-0.397,-0.903,+0.784,-0.058,-0.632,-7.938,-10.562,+3.312,9, 6, -1, 1, 0, -19, -5, 4,-0.3253626158096251,0.8408161372113866,5
1503600535764,+0.132,+0.098,-0.395,-0.904,+0.755,-0.053,-0.628,-6.312,-9.562,+4.688,3, -6, -2, -4, -1, 6, 0, 4,-0.32247473519098624,0.8359593182291246,5
1503600535780,+0.131,+0.097,-0.394,-0.904,+0.745,-0.067,-0.642,-6.562,-5.188,+6.500,10, 1, 1, 1, 0, -4, 6, 0,-0.3195285218466772,0.8329711469418036,5
1503600535802,+0.129,+0.097,-0.393,-0.905,+0.733,-0.064,-0.643,-6.188,-2.625,+8.938,-1, -11, -7, -3, 0, -1, -3, 0,-0.3158193084823751,0.8308518413306224,5
1503600535824,+0.128,+0.096,-0.393,-0.905,+0.756,-0.054,-0.628,-6.875,-1.688,+7.000,-6, -2, 4, 2, -3, -8, -8, -2,-0.31306465034035924,0.8302616061035536,5
1503600535840,+0.127,+0.096,-0.393,-0.906,+0.766,-0.063,-0.628,-4.875,-4.188,+9.188,12, 0, -3, -4, 1, -13, 2, 1,-0.3114227476096999,0.8306633900307097,5
1503600535864,+0.126,+0.096,-0.392,-0.906,+0.752,-0.069,-0.625,-4.062,-3.500,+6.188,7, 13, 7, -8, -8, -7, -3, 2,-0.3093542016357548,0.8281452028782726,5
1503600535884,+0.125,+0.096,-0.392,-0.907,+0.765,-0.075,-0.645,-4.062,-3.500,+5.438,-9, 4, 2, 2, 7, 4, -1, -7,-0.3077088356105927,0.8285465528269161,5
1503600535900,+0.124,+0.095,-0.390,-0.907,+0.706,-0.056,-0.663,-4.125,-4.875,+1.750,4, -8, -6, -2, -5, -2, 8, 6,-0.3045951338384264,0.823193284458815,5
1503600535921,+0.124,+0.095,-0.390,-0.908,+0.683,-0.071,-0.665,-2.688,+0.625,+0.312,8, -2, -1, 2, 1, 11, -3, -2,-0.30483238938605633,0.8237249570191959,5
1503600535944,+0.124,+0.095,-0.390,-0.907,+0.740,-0.097,-0.654,-3.438,+6.188,+0.062,-3, -2, 1, 3, 2, -1, 2, 0,-0.3045951338384264,0.823193284458815,5
1503600535960,+0.124,+0.095,-0.392,-0.907,+0.772,-0.087,-0.641,-4.375,+9.250,-2.688,-29, -25, -4, 3, 0, -1, -3, -6,-0.304958656123584,0.8279661165238713,5
1503600535981,+0.124,+0.094,-0.394,-0.906,+0.761,-0.062,-0.638,-3.875,+11.688,-4.625,-2, 0, -4, -2, -1, 2, -2, 9,-0.30421748189787773,0.8317662850087512,5
1503600536005,+0.125,+0.094,-0.396,-0.905,+0.742,-0.072,-0.634,-4.125,+13.312,-4.750,3, 21, 9, -4, -2, -2, -1, -1,-0.3062207135453939,0.8361467699105134,5
1503600536020,+0.125,+0.093,-0.399,-0.904,+0.762,-0.076,-0.622,-5.000,+17.438,-5.438,-14, 10, 1, -4, -3, -1, -2, 3,-0.30564515593470837,0.8423594074334152,5
1503600536042,+0.125,+0.093,-0.402,-0.902,+0.805,-0.056,-0.608,-5.875,+19.125,-5.625,34, -17, -2, 0, 0, 3, 7, 9,-0.3057005947942782,0.8485010847968585,5
1503600536064,+0.126,+0.092,-0.405,-0.901,+0.818,-0.038,-0.612,-6.188,+17.312,-5.625,-3, 1, -2, -1, -3, -5, -4, -4,-0.3069826445870557,0.8548677887686922,5
1503600536080,+0.126,+0.091,-0.409,-0.899,+0.783,-0.041,-0.598,-4.438,+18.875,-5.375,13, 8, 1, -1, -2, 2, 0, -5,-0.30631219909627283,0.8630125300157927,5
1503600536102,+0.127,+0.091,-0.412,-0.898,+0.807,-0.049,-0.577,-2.812,+18.625,-4.625,6, -3, 1, 7, -1, -11, 2, 7,-0.30846115515302175,0.8698553737462623,5
1503600536124,+0.127,+0.091,-0.415,-0.896,+0.821,-0.055,-0.571,-4.000,+17.375,-3.562,-20, -10, -6, -5, 0, 5, -4, -12,-0.3084974229418595,0.8760634381808927,5
1503600536140,+0.127,+0.090,-0.418,-0.895,+0.837,-0.045,-0.572,-4.000,+12.688,-3.062,-11, 9, 4, -3, 1, 0, -1, -10,-0.307868241034962,0.8823783669395157,5
1503600536162,+0.126,+0.090,-0.420,-0.894,+0.781,-0.057,-0.602,-3.750,+18.438,+1.812,-20, 10, 2, -3, -2, 3, -4, -9,-0.3061092898535526,0.8866003927155971,5
1503600536184,+0.125,+0.091,-0.424,-0.892,+0.775,-0.046,-0.605,-2.562,+29.188,+2.688,-3, 8, 0, -3, -2, -6, 3, 1,-0.30537938872469134,0.8956226138044763,5
1503600536200,+0.124,+0.092,-0.432,-0.889,+0.823,-0.052,-0.577,-1.500,+47.688,+3.938,-15, -3, 3, 1, -3, -10, -5, -30,-0.305140954676082,0.9139656649579683,5
1503600536221,+0.122,+0.093,-0.439,-0.886,+0.863,-0.044,-0.565,-3.562,+44.438,+8.125,6, 7, 0, -8, -3, -7, 6, 8,-0.30292896458019547,0.9298501864318266,5
1503600536244,+0.120,+0.094,-0.446,-0.882,+0.905,-0.036,-0.586,-2.562,+46.812,+6.500,-11, 2, -4, -1, -5, -17, -1, 0,-0.30054282688804573,0.9453123692989059,5
1503600536260,+0.119,+0.095,-0.452,-0.879,+0.845,-0.016,-0.567,-0.188,+46.500,+5.125,3, 3, -1, -1, 2, 8, 2, 6,-0.3000864104735906,0.9590168288612244,5
1503600536282,+0.118,+0.097,-0.461,-0.874,+0.893,-0.029,-0.520,+4.250,+55.750,+5.750,-23, -21, -3, 3, 5, 4, -7, -11,-0.30076304797429837,0.9797424104774861,5
1503600536304,+0.117,+0.100,-0.469,-0.870,+0.857,-0.064,-0.498,+6.625,+60.000,+7.125,-10, -4, -5, -2, -1, -1, 3, 6,-0.30258419025023114,0.9991005763978003,5
1503600536320,+0.114,+0.102,-0.473,-0.868,+0.901,-0.130,-0.593,-1.625,+33.312,+13.625,5, 32, 10, 1, -1, -2, 2, 0,-0.2995563271268816,1.0088028375617384,5
1503600536342,+0.113,+0.103,-0.476,-0.866,+0.972,-0.087,-0.460,-2.688,+15.750,+5.750,15, -11, -5, -2, 2, -3, -6, -9,-0.2989455950684884,1.015758165940197,5
1503600536367,+0.112,+0.104,-0.478,-0.865,+0.931,-0.090,-0.430,+0.188,+6.188,+0.625,7, -2, -1, 3, 0, 15, -2, -7,-0.29837154846088637,1.0206972798873128,5
1503600536386,+0.113,+0.104,-0.478,-0.865,+0.843,-0.101,-0.452,+0.750,+1.562,-2.875,31, 19, 5, -1, 4, -12, 3, 4,-0.3001620037864643,1.0208062830719487,5
1503600536403,+0.113,+0.104,-0.478,-0.865,+0.770,-0.073,-0.462,-2.812,+1.500,-4.250,-32, -39, -5, -1, -8, -3, -7, 0,-0.3001620037864643,1.0208062830719487,5
1503600543872,+0.101,+0.125,-0.504,-0.849,+0.850,-0.120,-0.402,-8.625,+3.812,-4.812,1, -4, -3, -2, -6, -3, -1, -3,-0.3039789161075578,1.0889781590651255,6
1503600543888,+0.100,+0.124,-0.508,-0.847,+0.912,-0.146,-0.384,-10.000,+19.688,-5.750,-6, -4, -1, -2, -1, -3, -1, 2,-0.30167898026705103,1.097756164359324,6
1503600543910,+0.100,+0.123,-0.510,-0.845,+1.003,-0.097,-0.428,-8.125,+16.812,-3.875,4, 31, 12, 3, 1, 0, 1, -4,-0.30064407451427855,1.1014867930567223,6
1503600543932,+0.101,+0.122,-0.511,-0.845,+0.941,-0.094,-0.458,-0.812,+7.000,-7.125,1, -13, -2, 0, 2, 0, -1, 4,-0.30149553308084326,1.1036665353066313,6
1503600543948,+0.103,+0.122,-0.510,-0.846,+0.929,-0.134,-0.418,+1.500,-12.688,-11.625,-1, 7, 1, -4, 0, 2, -1, -4,-0.30494664768811003,1.101752873414966,6
1503600543970,+0.104,+0.121,-0.508,-0.846,+0.900,-0.147,-0.402,-2.812,-12.688,-8.062,-5, -8, 0, 0, -2, 0, -4, 0,-0.30510514235902425,1.0961437565024665,6
1503600543985,+0.104,+0.120,-0.508,-0.847,+0.883,-0.142,-0.434,-5.250,+0.125,-4.125,3, -5, 0, 1, 1, 0, -2, -2,-0.30418530889043155,1.0960840580547933,6
1503600544010,+0.104,+0.120,-0.509,-0.846,+0.884,-0.124,-0.436,-4.375,+8.125,-3.125,6, 22, 8, 0, 1, 3, 3, 3,-0.3042159849505608,1.0982121915708032,6
1503600544030,+0.104,+0.120,-0.509,-0.846,+0.944,-0.128,-0.389,-2.562,-1.312,-3.625,-4, -10, -4, -3, -3, -3, 1, -1,-0.3042159849505608,1.0982121915708032,6
1503600544048,+0.104,+0.119,-0.509,-0.846,+0.945,-0.122,-0.386,-4.625,-2.188,-3.125,0, -8, -3, -1, 0, 0, -3, -3,-0.3030964193424749,1.0976894506075843,6
1503600544067,+0.104,+0.118,-0.510,-0.846,+0.899,-0.100,-0.405,-6.438,+4.000,-5.062,5, -3, -6, -3, -5, -3, 2, 2,-0.3022046990846072,1.099766325684733,6
1503600544089,+0.104,+0.117,-0.511,-0.845,+0.910,-0.065,-0.413,-6.375,+6.438,-2.875,1, -15, -6, -4, -3, -4, -7, 0,-0.30111126039413005,1.1013838838380685,6
1503600544113,+0.105,+0.117,-0.513,-0.844,+0.901,-0.066,-0.382,-3.750,+9.125,-1.812,-8, -8, -2, -1, 2, -3, -2, -2,-0.303103609136244,1.1062265302344945,6
1503600544126,+0.106,+0.116,-0.514,-0.843,+0.907,-0.070,-0.417,+0.000,+11.312,-8.375,-6, -3, -1, 0, -3, 1, 1, -2,-0.3037438069838671,1.1079587439831946,6
1503600544153,+0.108,+0.115,-0.515,-0.842,+0.888,-0.053,-0.414,+3.188,+7.188,-15.062,1, 19, 3, 0, -1, 0, 0, -1,-0.30611990503459985,1.109797658754048,6
1503600544171,+0.111,+0.115,-0.516,-0.841,+0.879,-0.062,-0.401,+3.500,+7.812,-15.188,0, -12, -8, 0, 3, -3, -3, 0,-0.3113572426454053,1.1122502884037906,6
1503600544186,+0.113,+0.114,-0.518,-0.840,+0.866,-0.053,-0.384,+3.562,+11.125,-11.625,-3, -4, -1, -2, -4, -3, 0, -1,-0.313937445351984,1.1166955280905033,6
1503600544218,+0.114,+0.114,-0.519,-0.839,+0.911,-0.043,-0.404,+4.312,+8.312,-6.188,3, 1, -1, 1, 1, 3, 1, 1,-0.3156802449745265,1.1189479004868086,6
1503600544231,+0.115,+0.115,-0.520,-0.839,+0.939,-0.044,-0.368,+3.062,+3.250,-1.438,1, -2, 1, 1, -1, 1, 1, 0,-0.31877326863187,1.1221693070112269,6
1503600544247,+0.116,+0.115,-0.519,-0.839,+0.949,-0.062,-0.377,+2.875,-4.875,+0.125,-3, 0, 3, 0, -2, -4, -3, 0,-0.3202971315669191,1.1196622353057217,6
1503600544269,+0.116,+0.115,-0.518,-0.840,+0.929,-0.066,-0.354,-0.125,-12.750,+1.000,2, 3, -3, 0, -2, -1, -2, 1,-0.32029903487059747,1.117510818228993,6
1503600544291,+0.116,+0.115,-0.516,-0.841,+0.910,-0.060,-0.365,-1.875,-15.500,+1.312,2, -3, -1, 1, 0, -1, 2, -1,-0.3200820427734966,1.1127606562501582,6
1503600544306,+0.116,+0.114,-0.514,-0.842,+0.888,-0.058,-0.378,-3.438,-16.875,+2.188,-5, 5, 3, -1, 0, 2, 0, -3,-0.31874215209634976,1.1075039282503252,6
1503600544329,+0.116,+0.114,-0.512,-0.844,+0.877,-0.061,-0.383,-6.438,-14.938,+2.562,2, -4, -2, 3, 0, -2, 2, 2,-0.31874976944895844,1.1032332295944252,6
1503600544352,+0.115,+0.112,-0.510,-0.845,+0.890,-0.058,-0.393,-7.750,-11.000,+1.750,-12, -4, -2, -3, -2, -1, 2, -1,-0.3145559503576751,1.0973895264246467,6
1503600544366,+0.115,+0.111,-0.509,-0.846,+0.913,-0.043,-0.404,-7.062,-8.750,+1.062,1, -1, -3, -3, 0, 0, -4, -2,-0.31345287101362324,1.0947613784416046,6
1503600544389,+0.115,+0.110,-0.508,-0.847,+0.908,-0.058,-0.406,-6.312,-10.500,+0.938,-3, 1, 2, 1, 0, -1, -3, -2,-0.31235508748149626,1.0921402722282825,6
1503600544413,+0.115,+0.109,-0.507,-0.847,+0.906,-0.070,-0.422,-6.375,-8.938,-2.125,-3, -3, 1, 5, -1, -4, -1, -3,-0.31104313085611335,1.0890555926594143,6
1503600544434,+0.115,+0.108,-0.506,-0.848,+0.871,-0.060,-0.440,-6.000,-6.312,-5.562,3, -2, 0, -1, -1, -3, 0, 1,-0.30995586320088,1.0864472294257024,6
1503600544449,+0.116,+0.106,-0.505,-0.849,+0.881,-0.070,-0.426,-7.062,-4.125,-7.375,0, -6, -2, 0, -5, -3, -2, -5,-0.30954155586219684,1.0834602813473284,6
1503600544471,+0.115,+0.106,-0.505,-0.849,+0.888,-0.082,-0.483,-6.188,-0.875,-0.312,3, 3, -1, 1, -1, -2, -2, -1,-0.3077799514773153,1.0833608196736813,6
1503600544486,+0.115,+0.105,-0.505,-0.849,+0.928,-0.066,-0.425,-4.250,+2.188,-2.062,6, -1, -5, 1, -2, 0, 1, 0,-0.3066874632225609,1.0828793329330795,6
1503600544509,+0.116,+0.105,-0.506,-0.848,+0.965,-0.075,-0.412,-3.750,+3.812,-4.438,-1, -8, 1, 2, 2, 4, 1, 0,-0.30842797941087846,1.0850899462255323,6
1503600544531,+0.116,+0.105,-0.506,-0.848,+0.967,-0.090,-0.436,-0.062,-0.500,-2.812,-16, -6, -3, -2, 1, 1, 0, -5,-0.30842797941087846,1.0850899462255323,6
1503600544547,+0.116,+0.105,-0.507,-0.848,+0.915,-0.100,-0.417,-0.250,+2.875,-3.438,-10, -9, -2, 6, -2, 2, 4, 0,-0.3086284303405116,1.0876772335200855,6
1503600544569,+0.117,+0.105,-0.507,-0.848,+0.889,-0.095,-0.438,-4.062,+1.000,-7.625,3, 13, 4, -1, 0, -2, 0, 1,-0.31038888291732963,1.0877749149125988,6
1503600544591,+0.118,+0.104,-0.508,-0.847,+0.927,-0.061,-0.409,-3.312,+4.188,-7.438,4, -18, -9, -4, -3, -3, 0, -1,-0.3110285211362612,1.0895088009145415,6
1503600544606,+0.118,+0.103,-0.508,-0.847,+0.938,-0.073,-0.404,-5.438,+1.875,-7.062,-11, -13, 0, 1, 0, -1, -2, -3,-0.30993293598812166,1.0890318723993946,6
1503600544629,+0.119,+0.102,-0.509,-0.847,+0.936,-0.059,-0.415,-6.812,-1.500,-6.438,0, 7, 1, -1, -1, 0, 1, -4,-0.31079353585470537,1.0912427975194756,6
1503600544651,+0.119,+0.100,-0.508,-0.847,+0.896,-0.032,-0.379,-9.312,-10.125,-7.125,3, -5, -2, -2, -1, -2, -1, 2,-0.30841471869380327,1.0877153200363592,6
1503600544666,+0.120,+0.097,-0.506,-0.849,+0.899,-0.005,-0.388,-10.562,-17.188,-7.375,0, -11, -4, -3, 1, 2, 4, 1,-0.3069972826251512,1.0821982778633954,6
1503600544689,+0.121,+0.094,-0.504,-0.850,+0.845,+0.003,-0.396,-11.375,-13.688,-6.062,5, -2, -2, -2, 0, 1, -1, -3,-0.3053922961109136,1.0762441486601442,6
1503600544714,+0.120,+0.092,-0.503,-0.851,+0.869,+0.010,-0.398,-13.625,-12.750,-3.375,-1, -2, 0, -8, -3, -2, -2, -4,-0.3015305486769683,1.073168287665189,6
1503600544726,+0.120,+0.089,-0.502,-0.852,+0.899,+0.031,-0.412,-13.000,-12.688,+1.562,-4, -3, -7, -1, -2, -2, -1, -1,-0.2983838892748012,1.0697696533717236,6
1503600544749,+0.119,+0.087,-0.500,-0.853,+0.891,+0.020,-0.419,-13.438,-13.562,+1.062,-10, -2, 3, 2, 1, 0, 0, 0,-0.2943814346591012,1.064161678887156,6
1503600544771,+0.119,+0.084,-0.498,-0.855,+0.851,+0.021,-0.432,-11.875,-15.625,-1.500,10, 5, 0, 3, 2, 0, 0, -4,-0.29134584435241595,1.0587374743067128,6
1503600544786,+0.118,+0.082,-0.497,-0.856,+0.838,+0.000,-0.451,-12.125,-10.750,+0.625,15, -6, -3, 2, 0, 2, 3, 2,-0.2875409762720954,1.0557592748098772,6
1503600544809,+0.117,+0.081,-0.496,-0.857,+0.846,-0.005,-0.465,-12.312,-3.000,+3.125,-25, -17, -3, 2, 0, -2, -4, -5,-0.2847887384408389,1.0531967686439967,6
1503600544831,+0.116,+0.079,-0.496,-0.857,+0.866,-0.006,-0.466,-10.938,+1.062,+2.875,0, 14, -1, -4, -2, -1, -2, 3,-0.2809281710262679,1.052330752230701,6
1503600544854,+0.115,+0.078,-0.496,-0.857,+0.889,-0.018,-0.477,-10.500,+2.188,+2.688,2, -5, -2, -2, -3, -1, 0, -1,-0.2781125362924388,1.0518656028257798,6
1503600544868,+0.114,+0.078,-0.496,-0.857,+0.921,-0.024,-0.493,-6.375,-1.688,+3.375,4, -7, -1, 0, -1, -1, -2, 0,-0.2763382478956776,1.051788200132586,6
1503600544891,+0.114,+0.077,-0.494,-0.859,+0.922,-0.035,-0.470,-5.438,-15.875,+1.250,0, 4, 3, 2, -1, 2, -1, 0,-0.2754415449764435,1.0472482159859495,6
1503600544907,+0.113,+0.076,-0.490,-0.861,+0.903,-0.021,-0.447,-6.250,-25.312,+2.000,4, 37, 24, 2, 1, -1, 0, -3,-0.2724801206139595,1.0375175969288946,6
1503600544928,+0.113,+0.075,-0.486,-0.863,+0.834,-0.001,-0.467,-4.000,-29.938,+3.000,7, -4, -6, 0, -1, -3, -2, 2,-0.27131220959443475,1.0279005120776614,6
1503600544954,+0.113,+0.074,-0.482,-0.866,+0.786,-0.006,-0.473,-5.625,-22.438,+1.750,-12, -2, 3, 1, 1, -1, 1, -3,-0.2703786016593255,1.0188258580152738,6
1503600544966,+0.112,+0.074,-0.481,-0.866,+0.833,+0.004,-0.465,-4.812,-8.188,+5.312,4, 0, -4, -5, -4, -1, -2, 0,-0.2684462585639898,1.0161986980179443,6
1503600544989,+0.111,+0.074,-0.481,-0.867,+0.885,+0.020,-0.462,-3.625,-3.312,+6.938,14, 1, -4, -4, -2, -1, -3, 2,-0.26687172798248704,1.0166272789026627,6
1503600545011,+0.111,+0.073,-0.481,-0.867,+0.911,+0.016,-0.470,-2.312,-2.688,+5.688,-5, -11, 2, 2, 3, 0, 0, 1,-0.2658660774863782,1.016260504567174,6
1503600545030,+0.110,+0.074,-0.479,-0.868,+0.919,-0.009,-0.508,+0.250,-14.438,+8.000,3, -10, -9, -1, 0, 10, 1, -4,-0.2650087701862555,1.01196295005138,6
1503600545049,+0.109,+0.074,-0.478,-0.868,+0.895,+0.009,-0.475,+0.688,-6.438,+6.938,-5, 5, 2, -2, -1, -6, -2, -1,-0.263075200638675,1.0093395490760233,6
1503600545071,+0.109,+0.075,-0.477,-0.869,+0.912,-0.002,-0.487,+1.688,-6.125,+7.000,-13, -19, -12, -4, 0, 4, 0, -4,-0.264141828630399,1.007674310514504,6
1503600545091,+0.108,+0.076,-0.476,-0.869,+0.898,+0.006,-0.494,+1.188,-5.812,+9.188,2, 8, -3, 1, -6, -7, -4, -2,-0.26320340009693627,1.0054235906003348,6
1503600545108,+0.107,+0.077,-0.476,-0.870,+0.866,+0.023,-0.497,+3.062,-5.000,+10.500,-13, -13, 4, 0, 0, -4, 0, 1,-0.2626185528699965,1.006225299616171,6
1503600545131,+0.106,+0.078,-0.476,-0.870,+0.865,-0.003,-0.492,+4.312,+1.625,+10.250,10, -1, -4, -1, -1, -4, -5, 2,-0.26182699794615566,1.0065182953439913,6
1503600545147,+0.105,+0.079,-0.476,-0.870,+0.868,-0.016,-0.507,+3.938,+4.438,+11.062,16, 3, 0, 0, 1, 2, 4, 5,-0.2610373634467465,1.0068126022667663,6
1503600545169,+0.104,+0.081,-0.476,-0.870,+0.906,-0.020,-0.484,+5.562,-0.875,+13.562,-11, 6, 0, 2, 5, 2, -1, 3,-0.261253285493321,1.0074917297667028,6
1503600545191,+0.102,+0.083,-0.476,-0.870,+0.898,-0.040,-0.465,+4.250,-1.688,+11.750,-6, 9, 0, -5, -6, -11, 13, 5,-0.2596856561975307,1.0080916855314959,6
1503600545206,+0.101,+0.085,-0.476,-0.870,+0.869,-0.044,-0.477,+4.500,+0.062,+10.750,-3, -12, -5, 0, 3, 10, 1, -2,-0.2599127571463464,1.0087876793583295,6
1503600545229,+0.100,+0.086,-0.476,-0.870,+0.859,-0.038,-0.488,+4.000,+2.312,+10.562,13, -13, -3, -1, 0, 6, 8, 1,-0.25913467409749574,1.0090933901849841,6
1503600545254,+0.099,+0.088,-0.477,-0.869,+0.875,-0.040,-0.485,+3.750,+6.062,+9.562,1, -3, -2, -7, -3, -4, -9, -10,-0.25934865846451394,1.0118379450394763,6
1503600545266,+0.099,+0.089,-0.477,-0.869,+0.879,-0.041,-0.472,+3.875,+4.500,+7.625,4, 13, 1, -2, -3, -4, -6, 2,-0.26036336559504913,1.0122437271071179,6
1503600545291,+0.098,+0.090,-0.478,-0.868,+0.867,-0.046,-0.473,+3.562,+3.562,+7.375,-5, 5, -1, 2, -1, -3, -8, -4,-0.2595795149742894,1.0145960523295814,6
1503600545311,+0.098,+0.091,-0.478,-0.868,+0.870,-0.022,-0.463,+3.812,+4.688,+6.750,-7, -6, -2, -3, 0, 4, -1, -3,-0.2605985187671486,1.0150078601996835,6
1503600545326,+0.097,+0.092,-0.479,-0.867,+0.875,-0.008,-0.451,+3.500,+3.500,+7.250,-6, 2, 1, 5, 0, -9, 2, -10,-0.2598272684709813,1.0173678643746549,6
1503600545350,+0.097,+0.093,-0.480,-0.867,+0.880,-0.004,-0.462,+4.438,+2.375,+7.188,-1, -23, -5, -2, -2, -11, -4, -5,-0.26103071857598803,1.0203343898629846,6
1503600545371,+0.097,+0.094,-0.480,-0.867,+0.871,-0.021,-0.475,+6.438,+0.688,+6.500,4, -4, -2, 0, -1, 2, -6, 0,-0.26205721541167526,1.0207555834816935,6
1503600545387,+0.097,+0.096,-0.479,-0.867,+0.870,-0.050,-0.468,+6.875,-1.500,+6.875,-9, -13, -9, 0, 0, 3, -2, -5,-0.26392819566000425,1.0190600104337175,6
1503600545408,+0.096,+0.098,-0.479,-0.867,+0.855,-0.077,-0.472,+6.062,-0.312,+9.250,2, 0, 2, 0, 0, -2, -12, -1,-0.2642064822127476,1.01982384758768,6
1503600545431,+0.095,+0.100,-0.479,-0.867,+0.873,-0.085,-0.478,+5.250,-0.750,+11.562,10, 7, -3, -3, 0, 5, 5, -3,-0.26449019851190764,1.0205975439611144,6
1503600545446,+0.094,+0.101,-0.478,-0.867,+0.883,-0.089,-0.468,+4.375,-2.125,+11.000,8, 19, 10, 2, -1, -9, -2, -5,-0.26354902518130036,1.0183868860671745,6
1503600545468,+0.093,+0.103,-0.477,-0.868,+0.865,-0.096,-0.446,+4.125,-4.812,+11.188,2, -24, -7, -6, -3, 5, 4, 14,-0.2638178051830471,1.0171305315096701,6
1503600545492,+0.091,+0.105,-0.476,-0.868,+0.852,-0.108,-0.467,+2.688,-6.875,+11.938,16, 4, -4, -2, -1, -2, 4, 1,-0.2621223972241651,1.0152697923824487,6
1503600545506,+0.090,+0.106,-0.475,-0.869,+0.845,-0.104,-0.475,+1.688,-6.188,+11.250,-10, -16, -9, 1, 9, -19, 6, 0,-0.26134602849175437,1.013573811601368,6
1503600545529,+0.089,+0.108,-0.474,-0.869,+0.852,-0.119,-0.472,+2.375,-2.438,+9.250,8, 9, 0, 0, -9, -23, -11, -18,-0.26142294947260974,1.011836704425631,6
1503600545552,+0.088,+0.109,-0.474,-0.869,+0.855,-0.129,-0.472,+2.812,-0.812,+7.250,6, 19, 1, 0, 2, 18, 6, 2,-0.26067624338341566,1.0121854956252843,6
1503600545566,+0.087,+0.110,-0.474,-0.869,+0.861,-0.131,-0.496,+3.375,-0.125,+6.750,-18, -1, -5, -1, 2, 9, -2, -6,-0.25993118367212575,1.0125357538422712,6
1503600545589,+0.087,+0.112,-0.473,-0.869,+0.859,-0.158,-0.475,+2.625,-0.938,+4.875,3, -1, -1, 1, -4, -10, 13, 6,-0.26178707276894186,1.010935294378919,6
1503600545611,+0.086,+0.113,-0.473,-0.869,+0.851,-0.167,-0.473,+0.875,+1.562,+3.625,-9, 2, 4, -3, 6, -1, -1, 1,-0.26104401123922605,1.011291501989309,6
1503600545628,+0.085,+0.114,-0.474,-0.869,+0.836,-0.193,-0.485,-0.500,+5.000,+2.000,-30, -3, 0, -4, -10, -15, -6, -1,-0.2605244237315099,1.0141942729109399,6
1503600545652,+0.085,+0.115,-0.475,-0.869,+0.840,-0.191,-0.491,-2.625,+8.125,-1.125,-8, -17, -8, -3, 0, 4, 2, -3,-0.2617895912269451,1.0172224164747128,6
1503600545671,+0.085,+0.115,-0.476,-0.868,+0.863,-0.183,-0.479,-4.500,+9.250,-3.750,18, -10, -4, -1, 5, 18, 2, 1,-0.2618479586343695,1.0192676000456407,6
1503600545687,+0.085,+0.114,-0.477,-0.867,+0.864,-0.165,-0.490,-5.250,+6.625,-5.938,17, -22, -8, 2, -5, -6, -1, -6,-0.2608591054405492,1.0208326777579284,6
1503600545708,+0.085,+0.114,-0.478,-0.867,+0.852,-0.186,-0.476,-6.125,+4.188,-6.938,-19, -7, -4, -5, -3, -8, -4, -10,-0.26108089642057014,1.0233841846246456,6
1503600545731,+0.085,+0.113,-0.478,-0.867,+0.830,-0.184,-0.488,-7.062,+5.938,-7.062,25, 0, -6, -3, -4, 6, 0, 2,-0.26003319947056164,1.022904921009524,6
1503600545747,+0.085,+0.112,-0.479,-0.867,+0.818,-0.142,-0.498,-7.312,+6.500,-7.625,-59, 3, -3, -7, -5, -1, -1, 0,-0.2592048524265369,1.0249816385264343,6
1503600545769,+0.085,+0.111,-0.479,-0.866,+0.821,-0.127,-0.476,-6.938,+5.562,-5.375,37, 30, 10, -1, -4, -4, -8, 2,-0.25799270190855056,1.0240083832321323,6
1503600545791,+0.085,+0.111,-0.481,-0.866,+0.841,-0.134,-0.466,-6.562,+8.688,-3.688,-22, 11, 11, 10, 6, 6, 6, 1,-0.2584246369188045,1.0291187459912878,6
1503600545807,+0.085,+0.110,-0.482,-0.865,+0.855,-0.107,-0.489,-6.312,+6.875,-1.625,18, -4, -5, -4, -5, -6, -21, 5,-0.2574240677414611,1.0307080748214503,6
1503600552534,+0.006,+0.075,-0.416,-0.906,+0.828,-0.100,-0.596,+11.000,+14.250,-2.500,3, 3, -1, -1, -4, -1, -3, 1,-0.07397584722244945,0.865418436443542,7
1503600552557,+0.007,+0.077,-0.418,-0.905,+0.795,-0.111,-0.602,+12.938,+11.812,-1.375,-2, -5, -3, 2, 7, -2, -1, -1,-0.07781680679549748,0.8703892096046921,7
1503600552573,+0.009,+0.079,-0.420,-0.904,+0.781,-0.131,-0.583,+15.375,+13.500,-3.125,-1, 0, 0, 1, -1, -4, -1, -4,-0.08349560569138313,0.8754897074534925,7
1503600552594,+0.011,+0.081,-0.421,-0.903,+0.791,-0.135,-0.586,+14.312,+4.625,-4.500,-6, -3, -1, -2, -2, -2, 1, -2,-0.08902494711981553,0.8781478701045401,7
1503600552616,+0.012,+0.083,-0.423,-0.902,+0.785,-0.147,-0.597,+13.375,+9.438,-2.250,-6, 2, -1, -2, 0, -1, -2, 2,-0.09290836884740743,0.8832014476502351,7
1503600552632,+0.013,+0.085,-0.425,-0.901,+0.772,-0.144,-0.580,+11.250,+15.000,-1.875,6, 3, 9, 6, 4, 0, -3, 1,-0.09680852926206224,0.8882827600343532,7
1503600552654,+0.015,+0.086,-0.427,-0.900,+0.783,-0.143,-0.578,+9.438,+11.125,-5.750,-7, -3, -4, -4, 0, 5, 2, -7,-0.10164713327478399,0.8932106911513337,7
1503600552676,+0.016,+0.088,-0.429,-0.899,+0.806,-0.162,-0.570,+8.062,+12.688,-7.625,3, 2, -4, -4, -6, -4, 2, 2,-0.1055734907269582,0.898340865819662,7
1503600552692,+0.018,+0.088,-0.430,-0.898,+0.844,-0.148,-0.563,+6.812,+4.625,-9.938,1, 6, -2, -2, 1, 0, 0, 1,-0.10934155929962218,0.900511101279495,7
1503600552714,+0.021,+0.089,-0.431,-0.898,+0.817,-0.135,-0.563,+6.312,+5.312,-10.500,1, 19, 11, 2, 0, -2, 2, 0,-0.11585914062442723,0.9036386662097967,7
1503600552736,+0.022,+0.089,-0.433,-0.897,+0.816,-0.133,-0.544,+5.250,+7.688,-7.500,-2, 4, -2, -3, -4, 0, -1, 0,-0.11798404529072155,0.9081948886183513,7
1503600552754,+0.024,+0.089,-0.433,-0.896,+0.815,-0.145,-0.547,+3.188,+2.562,-9.062,-4, -1, -1, -1, -4, 0, -4, -4,-0.12155569874103872,0.9078779384099509,7
1503600552774,+0.025,+0.089,-0.434,-0.896,+0.793,-0.150,-0.544,-0.188,+2.312,-7.875,0, -5, -1, -2, 5, 3, 0, -3,-0.12354200247860898,0.9104821873237454,7
1503600552796,+0.026,+0.088,-0.435,-0.896,+0.835,-0.123,-0.559,-2.000,+3.250,-3.375,11, 16, 2, 0, -3, -3, -1, 0,-0.12461236670122217,0.912772274383966,7
1503600552812,+0.026,+0.088,-0.435,-0.896,+0.859,-0.119,-0.554,+0.312,-1.000,-3.312,4, -3, 0, 0, -1, -4, -1, 2,-0.12461236670122217,0.912772274383966,7
1503600552834,+0.027,+0.089,-0.434,-0.896,+0.812,-0.129,-0.561,+2.375,-6.562,-3.000,2, -3, -5, -5, -5, 1, 0, -1,-0.12715795934818902,0.9107026103690132,7
1503600552860,+0.029,+0.088,-0.433,-0.897,+0.727,-0.116,-0.578,+1.312,-5.375,-7.875,4, 0, 1, 0, -10, -6, -5, -3,-0.12974133698496462,0.9086505293142831,7
1503600552872,+0.029,+0.088,-0.433,-0.897,+0.775,-0.136,-0.576,-0.938,+1.750,-4.688,-16, -17, -8, -4, 0, 1, -1, 1,-0.12974133698496462,0.9086505293142831,7
1503600552894,+0.030,+0.087,-0.434,-0.896,+0.804,-0.129,-0.568,-4.375,+5.688,-4.125,17, 10, 2, -1, 4, 0, -6, 0,-0.13075313826286114,0.910397732291611,7
1503600552916,+0.031,+0.086,-0.435,-0.896,+0.852,-0.089,-0.574,-0.500,+3.938,-5.188,4, 1, 4, 0, -9, -3, -3, 0,-0.1318192222942398,0.9126832243695585,7
1503600552932,+0.032,+0.087,-0.436,-0.895,+0.842,-0.110,-0.545,+4.250,+3.438,-4.500,-9, -2, -3, -2, -1, 1, 2, 0,-0.134652472284569,0.9150619666098291,7
1503600552956,+0.033,+0.088,-0.436,-0.895,+0.818,-0.137,-0.558,+4.062,+1.688,-3.312,1, -4, 0, 4, 2, 1, 4, -2,-0.13737749764479912,0.9154892786967923,7
1503600552976,+0.034,+0.088,-0.436,-0.895,+0.792,-0.127,-0.544,+1.812,-5.125,-5.562,4, -2, -1, -3, -6, -2, 3, 1,-0.13918381288731554,0.9155974204396824,7
1503600552992,+0.034,+0.088,-0.436,-0.895,+0.805,-0.136,-0.553,-2.062,+0.125,-1.188,-3, 8, 0, -3, 0, 1, 2, 5,-0.13918381288731554,0.9155974204396824,7
1503600553014,+0.034,+0.087,-0.436,-0.895,+0.835,-0.115,-0.544,-4.000,-2.000,-1.438,2, 0, -2, -1, 2, -4, 0, 0,-0.13826434819770844,0.9152758768096169,7
1503600553036,+0.035,+0.086,-0.435,-0.895,+0.855,-0.107,-0.550,-2.812,-6.125,-2.062,3, 2, 1, 0, 0, 0, 0, 2,-0.1389800536985318,0.9125709993854345,7
1503600553055,+0.036,+0.086,-0.434,-0.896,+0.816,-0.110,-0.578,+0.875,-9.375,-1.250,-4, 12, 1, -2, 0, -4, -1, -2,-0.1406863627982079,0.9107232186717563,7
1503600553074,+0.036,+0.086,-0.432,-0.897,+0.749,-0.116,-0.570,+0.312,-12.500,-1.938,0, -5, -1, -4, 2, 0, -2, 0,-0.1404149830677476,0.9062850618448894,7
1503600553097,+0.036,+0.086,-0.431,-0.898,+0.736,-0.147,-0.571,-4.562,-4.188,+1.750,3, -9, -2, 7, 5, 2, 0, -2,-0.14031520587154067,0.904337338744618,7
1503600553112,+0.035,+0.086,-0.430,-0.898,+0.767,-0.132,-0.606,-6.562,-2.938,-0.438,2, 7, 0, 0, 1, 4, 3, 4,-0.1383312842677079,0.9017470040020542,7
1503600553134,+0.036,+0.084,-0.430,-0.898,+0.808,-0.091,-0.584,-3.938,-2.625,-4.938,2, -2, 1, -3, -3, -3, -1, 0,-0.13833238108892218,0.9012271511377314,7
1503600553157,+0.036,+0.084,-0.429,-0.898,+0.794,-0.107,-0.597,-1.562,+0.812,-1.188,6, -6, 1, 2, -2, 0, -3, 0,-0.1381647718688828,0.8987463305706764,7
1503600553172,+0.037,+0.084,-0.429,-0.898,+0.750,-0.096,-0.591,-0.250,+2.438,-5.062,6, 7, 2, -3, -1, -5, 1, 5,-0.13997670116479918,0.8988517221750616,7
1503600553195,+0.037,+0.084,-0.431,-0.898,+0.803,-0.099,-0.590,+0.812,+8.562,+1.375,1, 0, 2, -2, -1, -2, -3, -2,-0.14031179134391028,0.9038140887150178,7
1503600553216,+0.037,+0.084,-0.432,-0.897,+0.819,-0.094,-0.559,+2.000,+6.562,+2.312,-3, -3, -5, -2, -4, -2, -2, -9,-0.14040553113622198,0.9057607752539514,7
1503600553232,+0.037,+0.085,-0.433,-0.897,+0.823,-0.115,-0.561,+3.188,+4.312,+2.875,-20, -14, -6, -2, -8, -4, -1, -5,-0.14148449973896526,0.9085604186776068,7
1503600553258,+0.037,+0.086,-0.433,-0.896,+0.805,-0.120,-0.562,+2.125,+3.938,+3.188,-7, 4, 1, 0, 3, 2, -6, 0,-0.14232309763580828,0.9083414224639575,7
1503600553276,+0.037,+0.087,-0.434,-0.896,+0.814,-0.113,-0.555,+1.688,+3.500,+3.562,-4, -3, 4, 1, -3, -6, -2, 0,-0.1434100179708955,0.9111506503846002,7
1503600553292,+0.036,+0.087,-0.434,-0.896,+0.830,-0.125,-0.547,+1.000,+0.188,+3.375,3, -8, -2, -1, -1, -2, -2, -3,-0.14160144112356363,0.9110431800678654,7
1503600553314,+0.036,+0.088,-0.434,-0.896,+0.831,-0.130,-0.547,+0.062,-4.125,+2.875,-17, -2, -4, -4, -2, -1, -1, -2,-0.1425174981417369,0.9113664282327278,7
1503600553336,+0.036,+0.088,-0.433,-0.896,+0.812,-0.118,-0.565,-1.062,-6.062,+1.438,11, 19, 2, 0, 0, -2, -2, 2,-0.1423418690643738,0.9088774318821522,7
1503600553352,+0.036,+0.088,-0.432,-0.897,+0.824,-0.130,-0.562,-1.312,-7.938,+2.938,-9, -9, -3, -2, -2, -1, 0, 2,-0.14223808408942454,0.9069268761695651,7
1503600553374,+0.035,+0.088,-0.431,-0.898,+0.822,-0.129,-0.562,-2.312,-9.938,+2.688,-8, -13, -3, 1, 6, -2, -5, -11,-0.1403214443782386,0.9048687509077625,7
1503600553397,+0.035,+0.088,-0.429,-0.898,+0.811,-0.136,-0.564,-3.938,-12.188,+2.312,-6, -10, -4, -3, -2, -1, 1, -4,-0.13997000875571788,0.899902621982348,7
1503600553413,+0.035,+0.088,-0.427,-0.899,+0.812,-0.142,-0.551,-5.688,-15.812,+2.250,-5, 2, 2, -3, -6, 4, 0, 4,-0.1396884357836837,0.8954811160865904,7
1503600553434,+0.034,+0.087,-0.424,-0.901,+0.815,-0.141,-0.580,-8.875,-17.562,+1.438,-26, -21, -2, -1, 0, 4, 1, -2,-0.13658660075827372,0.8887033585015015,7
1503600553457,+0.034,+0.085,-0.421,-0.902,+0.778,-0.127,-0.567,-10.250,-21.938,+0.625,1, -6, -2, -4, -5, -2, 1, 0,-0.1343573988668521,0.8812099853375643,7
1503600553478,+0.033,+0.084,-0.418,-0.904,+0.778,-0.134,-0.570,-13.500,-22.438,+2.438,16, 14, 1, 1, 1, -1, 1, 6,-0.1312795078001038,0.8744838437252676,7
1503600553495,+0.032,+0.081,-0.414,-0.906,+0.781,-0.105,-0.615,-15.875,-22.062,+1.750,6, -12, -1, -2, -6, -1, -2, 1,-0.12630234338257632,0.8647388920430071,7
1503600553516,+0.031,+0.079,-0.411,-0.908,+0.749,-0.100,-0.623,-15.500,-22.125,+2.188,7, 11, 3, -1, -2, -4, 6, -1,-0.12239097058297434,0.8577922171962443,7
1503600553542,+0.030,+0.076,-0.408,-0.909,+0.753,-0.108,-0.620,-16.375,-19.938,+2.062,7, 15, -1, 1, 2, -4, -1, 0,-0.11758833635722855,0.8500691930342601,7
1503600553554,+0.029,+0.074,-0.404,-0.911,+0.752,-0.103,-0.622,-15.438,-20.688,+2.188,-3, -10, -1, -2, 3, 7, -1, -1,-0.11358022897864962,0.8407686077152862,7
1503600553576,+0.028,+0.072,-0.401,-0.913,+0.745,-0.107,-0.632,-16.625,-19.812,-0.875,-6, -14, -4, 2, 2, -4, -1, -1,-0.10974447938852695,0.8339454633403025,7
1503600553600,+0.027,+0.069,-0.398,-0.914,+0.730,-0.106,-0.641,-17.188,-17.750,-0.250,-6, -7, -5, -1, 3, 1, -1, 6,-0.10504957085262043,0.8263734080017057,7
1503600553614,+0.027,+0.066,-0.396,-0.916,+0.728,-0.080,-0.657,-16.125,-15.562,-1.750,1, -4, -1, 0, -2, 1, -1, -3,-0.10242163562550052,0.8219073420183004,7
1503600553636,+0.027,+0.064,-0.393,-0.917,+0.747,-0.077,-0.643,-15.312,-15.062,-3.688,-3, -12, -3, 5, 6, -5, -7, -10,-0.10045539097426476,0.8147459838281613,7
1503600553659,+0.027,+0.061,-0.391,-0.918,+0.742,-0.091,-0.655,-14.188,-15.125,-2.812,10, -3, -5, -3, 3, 0, -3, 0,-0.0978341723995644,0.8098072563788513,7
1503600553674,+0.026,+0.059,-0.389,-0.919,+0.725,-0.086,-0.651,-14.875,-13.688,-3.000,-6, -14, -3, 1, -4, 2, 1, 1,-0.09419588096216729,0.8050300464740114,7
1503600553697,+0.026,+0.057,-0.387,-0.920,+0.737,-0.084,-0.641,-14.062,-13.312,-1.812,-8, 26, 6, 2, 1, 1, 0, 0,-0.09242153271308656,0.8003579276052224,7
1503600553726,+0.025,+0.055,-0.385,-0.921,+0.761,-0.069,-0.652,-14.688,-12.875,-0.125,-5, 3, 4, 0, 0, -3, -3, -5,-0.08881579267138079,0.7956289653486146,7
1503600553735,+0.025,+0.053,-0.384,-0.922,+0.746,-0.060,-0.666,-13.062,-12.062,+2.250,-13, 0, 2, 3, 2, 2, 0, -1,-0.08718273203411604,0.7933939312080249,7
1503600553760,+0.024,+0.051,-0.382,-0.923,+0.724,-0.071,-0.665,-11.562,-12.188,+3.312,11, -15, -11, -5, -7, -5, -2, -1,-0.08360512714308789,0.7887088696635061,7
1503600553779,+0.022,+0.049,-0.380,-0.923,+0.731,-0.049,-0.662,-12.688,-10.875,+4.375,4, 14, 2, -3, -3, 0, 1, -3,-0.07814435959590843,0.7834393478884325,7
1503600553794,+0.021,+0.048,-0.379,-0.924,+0.746,-0.047,-0.660,-11.750,-11.062,+7.625,2, 2, 0, 7, -2, -1, -1, 0,-0.0754635074506652,0.7813556988984591,7
1503600553816,+0.019,+0.047,-0.377,-0.925,+0.738,-0.064,-0.663,-8.750,-12.750,+8.750,-14, -19, -5, -6, -1, -2, 0, -2,-0.07083398984869547,0.7768287270718078,7
1503600553832,+0.018,+0.047,-0.374,-0.926,+0.705,-0.057,-0.703,-7.750,-13.250,+8.125,1, -1, 1, 0, 1, -1, 0, -5,-0.06873230884954878,0.770160045548846,7
1503600553854,+0.016,+0.046,-0.372,-0.927,+0.662,-0.050,-0.700,-7.125,-9.875,+6.938,8, 14, 1, 1, 7, 0, -3, 5,-0.06410457440935988,0.765658287187596,7
1503600553876,+0.015,+0.045,-0.371,-0.927,+0.688,-0.060,-0.688,-6.562,-5.062,+9.375,-6, -6, 0, -5, 0, 1, 0, -1,-0.06139937222837737,0.7630704524357214,7
1503600553899,+0.013,+0.045,-0.370,-0.928,+0.701,-0.052,-0.707,-5.625,-1.875,+9.562,-2, -1, -2, 0, -4, -3, -1, 0,-0.057617261629752094,0.7611057599517473,7
1503600553914,+0.012,+0.045,-0.370,-0.928,+0.704,-0.049,-0.693,-2.562,-3.438,+7.062,4, -5, 0, 0, 0, -1, -4, -15,-0.055756272064827854,0.761040415642059,7
1503600553937,+0.011,+0.046,-0.369,-0.928,+0.687,-0.069,-0.705,-1.188,+0.188,+7.812,-20, -15, -13, -3, 2, 3, 0, 2,-0.054554132618111824,0.7587462669822063,7
1503600553952,+0.010,+0.046,-0.369,-0.928,+0.688,-0.071,-0.697,-0.625,+2.000,+6.125,-4, -9, -2, 0, -1, -1, 0, -1,-0.05269292912630233,0.758679290469825,7
1503600553974,+0.009,+0.046,-0.370,-0.928,+0.707,-0.074,-0.686,-0.312,+2.938,+4.875,-5, 1, 3, 2, 1, -2, 1, 5,-0.05092388814883511,0.7609832857855751,7
1503600553997,+0.009,+0.047,-0.370,-0.928,+0.714,-0.061,-0.693,+1.188,+2.875,+4.750,15, 14, 5, 1, 0, 2, 6, 7,-0.051674836877348744,0.7611250385983064,7
1503600554012,+0.008,+0.048,-0.371,-0.927,+0.707,-0.069,-0.683,+3.312,+4.625,+4.812,-7, -9, -5, -1, -3, 1, -1, 0,-0.050644714850444264,0.7630353614232216,7
1503600554035,+0.008,+0.049,-0.371,-0.927,+0.708,-0.088,-0.676,+4.750,+4.438,+3.125,5, 11, 6, 1, 2, -4, -4, -2,-0.05139830804130779,0.76318155343395,7
1503600554057,+0.008,+0.050,-0.372,-0.927,+0.711,-0.094,-0.678,+3.500,+4.875,+3.000,3, -8, 1, -3, -2, -1, -4, -6,-0.05225258775383246,0.7657062347023785,7
1503600554072,+0.008,+0.051,-0.373,-0.926,+0.707,-0.080,-0.675,+2.875,+6.188,+1.625,15, 2, -2, -2, -2, 0, -1, 3,-0.053095314046033466,0.7676973779115623,7
1503600554095,+0.008,+0.052,-0.374,-0.926,+0.716,-0.073,-0.681,+3.875,+4.938,+0.938,-8, 3, 3, -2, -5, -3, -1, -5,-0.05395857656186257,0.7702323187352712,7
1503600554117,+0.009,+0.052,-0.375,-0.926,+0.730,-0.079,-0.650,+3.625,+6.125,-0.875,11, -6, -4, 0, 0, -2, -2, 0,-0.05592144186443397,0.7726885414101057,7
1503600554132,+0.009,+0.053,-0.376,-0.925,+0.740,-0.084,-0.667,+4.562,+3.188,+0.312,-7, 5, 5, 3, -1, 2, 0, -1,-0.056773426897098196,0.7746925851171033,7
1503600554154,+0.010,+0.054,-0.376,-0.925,+0.708,-0.074,-0.672,+5.625,+3.188,-1.312,4, 3, 1, 1, 0, 2, 3, 1,-0.059396754363893425,0.7749333498680113,7
1503600554177,+0.011,+0.055,-0.377,-0.924,+0.737,-0.087,-0.662,+8.500,+5.562,-1.688,-4, -23, -4, 1, -2, -1, -1, -6,-0.062109308032106965,0.7770252298073601,7
1503600554194,+0.012,+0.056,-0.378,-0.924,+0.729,-0.086,-0.670,+7.688,+7.250,-4.875,5, -5, -1, -3, -1, -2, -2, 6,-0.06484694355769738,0.7796646527136734,7
1503600554214,+0.013,+0.057,-0.380,-0.923,+0.714,-0.092,-0.675,+6.438,+9.688,-3.938,-5, -5, 2, 2, 1, 3, 1, -2,-0.06767783564559339,0.7841620735963257,7
1503600554240,+0.014,+0.059,-0.382,-0.922,+0.743,-0.093,-0.667,+7.500,+11.875,-2.062,-15, 18, 3, 1, 2, 2, -3, -3,-0.07129615316416081,0.7888587997868161,7
1503600554252,+0.015,+0.060,-0.384,-0.921,+0.746,-0.092,-0.673,+7.625,+11.500,-1.938,2, -9, -4, -6, -2, -1, 0, 1,-0.07414207489930763,0.7933865309136229,7
1503600554274,+0.016,+0.061,-0.386,-0.920,+0.747,-0.099,-0.656,+8.750,+13.312,-2.938,-17, 11, 12, 0, 1, 3, -4, -9,-0.07699311775507339,0.797927026020005,7
1503600554297,+0.017,+0.063,-0.387,-0.920,+0.765,-0.103,-0.651,+8.062,+7.750,-0.312,-11, -2, -5, -1, -4, -1, -3, -1,-0.08055479685058195,0.8008211889758658,7
1503600554312,+0.017,+0.064,-0.389,-0.919,+0.763,-0.107,-0.650,+7.500,+7.750,+0.062,-1, 8, 5, 0, -4, -5, -4, -5,-0.08157357146025164,0.8052999102327223,7
1503600554334,+0.018,+0.065,-0.390,-0.918,+0.747,-0.107,-0.656,+7.250,+6.875,-0.812,6, 11, 1, -1, -5, -8, -4, -3,-0.08431655519180963,0.8074685194347738,7
1503600554357,+0.019,+0.067,-0.391,-0.918,+0.739,-0.107,-0.641,+7.125,+8.438,-1.500,8, 16, 8, -7, -6, -4, -4, -7,-0.08790575863521377,0.8104071405457637,7
1503600554379,+0.020,+0.068,-0.392,-0.917,+0.736,-0.112,-0.640,+5.938,+8.125,-2.250,-8, -6, -5, -2, 2, -1, -5, -1,-0.09065624403565076,0.8125957551623392,7
1503600554396,+0.020,+0.069,-0.394,-0.916,+0.730,-0.112,-0.640,+5.438,+14.312,-3.000,3, 5, 4, 2, 0, 2, 0, 0,-0.0917032966423861,0.8171138704845594,7
1503600554417,+0.021,+0.069,-0.396,-0.915,+0.750,-0.111,-0.641,+3.438,+11.812,-4.875,2, -8, -6, 1, 0, 2, 0, -1,-0.09378066604910447,0.8215054579370241,7
1503600554439,+0.022,+0.070,-0.398,-0.915,+0.757,-0.097,-0.629,+3.438,+8.750,-3.125,-1, 2, 0, 2, 2, -1, 1, -2,-0.09672201344176876,0.8266812892641866,7
1503600554454,+0.023,+0.070,-0.398,-0.914,+0.749,-0.083,-0.647,+4.688,+6.000,-3.438,0, 2, 3, 8, 0, 2, 3, 5,-0.09851720759668565,0.8262341571794672,7
1503600554477,+0.024,+0.071,-0.400,-0.914,+0.737,-0.093,-0.641,+7.438,+8.125,-2.750,0, 0, -4, -3, -1, -4, -4, -1,-0.10146614787513601,0.8314238791936854,7
1503600554499,+0.025,+0.073,-0.401,-0.913,+0.733,-0.118,-0.630,+7.750,+10.875,-2.688,2, -5, 0, -1, -4, 1, 4, -6,-0.10506342981917124,0.8339032787884367,7
1503600554514,+0.026,+0.074,-0.403,-0.912,+0.756,-0.131,-0.617,+6.750,+12.625,-2.750,-9, 14, 1, -1, -1, -2, -2, -1,-0.1079801365059394,0.8385782054727643,7
1503600554538,+0.027,+0.075,-0.405,-0.911,+0.764,-0.127,-0.617,+4.000,+12.125,-4.000,3, -10, -8, -1, -3, 1, -3, -6,-0.11090223060252323,0.8432662669659903,7
1503600554560,+0.028,+0.075,-0.407,-0.910,+0.767,-0.126,-0.602,+3.500,+12.812,-4.812,-15, 6, 7, -3, -2, 0, -2, 1,-0.11298119365338755,0.8477022602832301,7
1503600554578,+0.028,+0.076,-0.409,-0.909,+0.761,-0.127,-0.599,+2.750,+11.875,-5.312,7, -11, -5, -3, 1, 0, 2, 2,-0.11407777785727824,0.8523108430220498,7
1503600554597,+0.029,+0.076,-0.411,-0.908,+0.763,-0.138,-0.596,+1.750,+13.188,-3.438,-48, -12, -6, -4, -1, -5, -3, -8,-0.11615492424002022,0.8567615115614726,7
1503600554618,+0.029,+0.076,-0.413,-0.907,+0.794,-0.117,-0.581,-1.688,+9.688,-4.625,28, 31, 5, 4, 1, -2, 3, 4,-0.1164008679659653,0.8611186290786671,7
1503600554634,+0.030,+0.076,-0.414,-0.906,+0.758,-0.133,-0.601,-1.438,+8.375,-4.438,-6, -12, -4, -2, -6, -7, -1, -2,-0.11831996776213942,0.8631284435112376,7
1503600554657,+0.030,+0.076,-0.417,-0.905,+0.791,-0.133,-0.583,-3.938,+15.625,-1.688,12, 17, 5, 4, 0, -1, -2, 4,-0.11871571536861822,0.8699532178972633,7
1503600554678,+0.030,+0.075,-0.419,-0.904,+0.807,-0.080,-0.608,-3.438,+11.562,-2.000,-16, 7, 10, 3, 2, 1, 1, -1,-0.11808627055554591,0.8740597160479527,7
1503600554693,+0.031,+0.075,-0.421,-0.904,+0.818,-0.082,-0.590,-1.250,+10.875,-3.875,2, -7, -4, 0, 2, 2, 3, 3,-0.12020668562412462,0.8790816378493151,7
1503600554715,+0.031,+0.074,-0.422,-0.903,+0.804,-0.080,-0.599,-0.312,+8.312,-3.438,5, 1, -8, -1, 5, 4, 2, 2,-0.11941582356305093,0.8807355837370606,7
1503600559179,-0.008,+0.067,-0.367,-0.928,+0.731,-0.125,-0.667,+7.625,+13.125,-2.375,-4, -1, 5, 4, 3, -6, 8, 13,-0.034631629965493814,0.755754792246587,8
1503600559201,-0.007,+0.068,-0.369,-0.927,+0.739,-0.132,-0.659,+7.562,+9.938,-4.625,-6, -15, -9, 0, -1, -8, 1, 11,-0.03753936431028746,0.7602494287832818,8
1503600559219,-0.006,+0.069,-0.371,-0.926,+0.746,-0.162,-0.651,+5.125,+7.812,-3.688,-7, -3, -2, 6, -4, 1, 0, 3,-0.040452230968685714,0.7647569100275946,8
1503600559239,-0.005,+0.069,-0.372,-0.926,+0.721,-0.146,-0.653,+1.312,+4.375,-4.000,-6, -2, 0, -5, -2, 3, -4, -3,-0.042457114301520146,0.7672427735169717,8
1503600559263,-0.004,+0.069,-0.372,-0.926,+0.713,-0.137,-0.664,-0.688,+2.438,-4.438,5, -4, -3, -2, 0, 1, -1, 0,-0.0443226896784774,0.767342951439826,8
1503600559277,-0.004,+0.069,-0.372,-0.926,+0.718,-0.127,-0.668,-1.500,+1.562,-3.312,-5, -24, -12, -4, 0, 5, 5, 4,-0.0443226896784774,0.767342951439826,8
1503600559299,-0.003,+0.069,-0.373,-0.925,+0.736,-0.138,-0.651,-2.750,+1.812,-2.125,-2, -11, -2, -3, -1, 5, 2, -1,-0.04633315094030623,0.7692894856664522,8
1503600559323,-0.003,+0.068,-0.374,-0.925,+0.758,-0.130,-0.650,-3.812,-1.312,-0.750,-3, -1, -3, 1, -1, -6, -3, -2,-0.04570595279919053,0.7714895335849299,8
1503600559337,-0.003,+0.068,-0.373,-0.925,+0.750,-0.110,-0.668,-4.438,-4.375,-0.625,21, 0, 1, -1, 0, 0, 4, -12,-0.04556896654595251,0.769101615151091,8
1503600559359,-0.003,+0.067,-0.372,-0.926,+0.694,-0.096,-0.688,-2.375,-4.562,-1.188,-2, 1, 2, 0, -1, 0, -4, -3,-0.044664343761905624,0.7670711071387173,8
1503600559381,-0.003,+0.067,-0.372,-0.926,+0.693,-0.115,-0.686,-1.500,-3.500,+2.125,-3, -5, -3, -2, -1, 3, 1, 7,-0.044664343761905624,0.7670711071387173,8
1503600559397,-0.004,+0.067,-0.371,-0.926,+0.700,-0.121,-0.671,-2.250,-1.000,+3.000,-12, -2, 2, -2, 0, 1, -9, -13,-0.04266473657596069,0.7645895839792601,8
1503600559422,-0.004,+0.067,-0.371,-0.926,+0.723,-0.120,-0.689,-2.125,-2.125,+2.688,3, 5, 1, 2, 0, -3, 1, 4,-0.04266473657596069,0.7645895839792601,8
1503600559441,-0.004,+0.067,-0.371,-0.926,+0.711,-0.110,-0.685,-0.812,+0.625,+2.125,0, 4, -1, -2, 2, 9, 4, 6,-0.04266473657596069,0.7645895839792601,8
1503600559457,-0.004,+0.068,-0.371,-0.926,+0.704,-0.127,-0.690,+1.188,+0.875,+3.062,7, 19, 7, 1, 0, -4, -2, 1,-0.043423912887063376,0.7647722524090265,8
1503600559479,-0.004,+0.068,-0.371,-0.926,+0.681,-0.125,-0.682,+2.125,+2.312,+2.000,-8, -11, -7, -4, -6, -4, -2, 10,-0.043423912887063376,0.7647722524090265,8
1503600559501,-0.005,+0.069,-0.372,-0.926,+0.694,-0.147,-0.683,-0.062,+4.875,+1.438,5, 8, 0, 1, 1, -2, 0, 0,-0.042457114301520146,0.7672427735169717,8
1503600559517,-0.004,+0.068,-0.373,-0.925,+0.687,-0.123,-0.681,-1.938,+8.250,-1.500,8, -5, -4, -2, 3, 0, 3, -1,-0.04370599957222861,0.7690030562349502,8
1503600559539,-0.003,+0.068,-0.374,-0.925,+0.696,-0.098,-0.689,+0.312,+6.500,-6.000,4, -8, 2, 5, 0, -3, -2, 2,-0.04570595279919053,0.7714895335849299,8
1503600559564,-0.002,+0.068,-0.375,-0.925,+0.710,-0.123,-0.649,+3.438,+7.438,-5.250,-7, -11, -3, -5, -1, -5, -3, -6,-0.04770567601484978,0.7739772569797565,8
1503600559576,-0.001,+0.069,-0.376,-0.924,+0.721,-0.146,-0.666,+0.750,+3.750,-4.125,2, 12, -1, -1, -3, 0, 2, -1,-0.05047824606454849,0.7761174359344902,8
