Timestamp,Orientation X,Orientation Y,Orientation Z,Orientation W,Accelerometer X,Accelerometer Y,Accelerometer Z,Gyroscope X,Gyroscope Y,Gyroscope Z,EMG1,EMG2,EMG3,EMG4,EMG5,EMG6,EMG7,EMG8
1503609562658,-0.575,-0.363,+0.396,+0.617,+0.892,+0.122,-0.407,-2.750,+11.312,+3.125,-6, -8, -15, -8, -10, -14, -11, -16
1503609562676,-0.576,-0.363,+0.397,+0.615,+0.929,+0.081,-0.404,+6.750,+3.312,-5.375,-17, -1, -2, -12, -8, 3, 8, -1
1503609562698,-0.578,-0.363,+0.397,+0.613,+0.986,+0.023,-0.352,+7.562,-3.812,-11.188,-3, -11, 3, 11, 16, 7, 2, 0
1503609562713,-0.580,-0.362,+0.396,+0.613,+0.975,+0.021,-0.312,+2.688,-16.812,-9.438,-6, -2, -3, -2, -1, 2, 11, 22
1503609562735,-0.581,-0.360,+0.395,+0.613,+0.941,+0.073,-0.378,-3.625,-14.438,-2.875,5, 2, 2, 4, -1, -1, -5, 2
1503609562758,-0.582,-0.359,+0.395,+0.613,+0.865,+0.062,-0.386,-0.875,-4.688,-3.938,0, -1, -6, -4, 0, -1, -8, -3
1503609562773,-0.583,-0.359,+0.394,+0.614,+0.921,-0.010,-0.363,+0.688,-7.875,-0.125,10, 12, 5, 4, 2, -2, -3, 0
1503609562795,-0.581,-0.360,+0.394,+0.615,+0.974,-0.042,-0.375,-6.438,+2.938,+9.750,2, -19, -4, 3, 5, -3, 1, 6
1503609562819,-0.578,-0.360,+0.395,+0.616,+0.928,-0.011,-0.419,-13.688,+9.750,+12.500,0, 12, 1, 2, 2, 0, -1, 5
1503609562833,-0.577,-0.359,+0.395,+0.618,+0.908,+0.026,-0.395,-11.188,-6.750,+9.188,1, -4, 12, 1, -1, -2, -6, -1
1503609562856,-0.577,-0.358,+0.393,+0.621,+0.940,+0.015,-0.370,-7.125,-17.000,+10.250,-6, -2, 4, 5, 0, 1, 3, -9
1503609562878,-0.575,-0.358,+0.392,+0.623,+0.895,-0.009,-0.406,-5.062,-3.312,+15.875,-12, 3, -4, -7, -5, -5, -14, -29
1503609562893,-0.573,-0.359,+0.391,+0.625,+0.868,-0.010,-0.385,-2.875,-2.375,+16.562,4, -7, -6, -7, -5, 1, 0, 7
1503609562916,-0.571,-0.359,+0.390,+0.626,+0.901,+0.021,-0.411,-4.125,+1.312,+15.562,2, 6, 13, 17, 9, 0, -10, -33
1503609562938,-0.570,-0.359,+0.390,+0.628,+0.906,+0.041,-0.402,-3.312,+0.188,+12.188,-6, 0, 6, 0, -3, 0, -5, -9
1503609562954,-0.570,-0.360,+0.389,+0.629,+0.908,+0.022,-0.391,+0.812,-2.750,+11.062,17, -6, -7, -5, -3, -3, -1, -3
1503609562975,-0.568,-0.361,+0.387,+0.630,+0.926,-0.021,-0.419,+3.938,-1.188,+15.500,0, -4, -6, -3, -4, 2, 6, 13
1503609562998,-0.567,-0.362,+0.386,+0.632,+0.895,-0.032,-0.382,+0.188,-0.875,+17.500,-20, -2, 11, -3, -1, -2, 4, -4
1503609563013,-0.566,-0.361,+0.384,+0.633,+0.912,+0.027,-0.405,-3.062,-10.562,+9.250,17, 8, -1, -1, 0, 1, 6, 10
1503609563035,-0.568,-0.360,+0.384,+0.633,+0.865,+0.087,-0.411,-0.812,-8.000,-1.500,-7, -11, -6, 2, 1, 1, -8, -11
1503609563058,-0.569,-0.358,+0.383,+0.633,+0.852,+0.036,-0.405,+2.250,-10.000,-3.438,7, 5, -11, -8, -4, -2, -1, 0
1503609563073,-0.569,-0.357,+0.382,+0.635,+0.959,-0.035,-0.398,-4.250,-13.938,+8.750,-18, -15, -15, 1, 3, -5, -5, -13
1503609563096,-0.566,-0.357,+0.380,+0.639,+0.985,-0.049,-0.407,-13.312,-15.938,+26.250,-22, -9, -6, 0, -4, -3, -14, -31
1503609563118,-0.563,-0.355,+0.377,+0.644,+0.903,-0.015,-0.392,-18.688,-22.562,+31.188,-23, -9, 0, 4, -1, -2, -4, -1
1503609563133,-0.561,-0.352,+0.374,+0.649,+0.872,-0.026,-0.412,-13.938,-26.188,+21.875,-6, -2, 7, 3, 3, 1, 2, -14
1503609563156,-0.559,-0.350,+0.372,+0.653,+0.903,-0.087,-0.395,-15.812,-25.125,+18.438,16, 1, 2, 3, 5, 5, 6, 0
1503609563178,-0.556,-0.348,+0.371,+0.658,+0.906,-0.077,-0.433,-23.062,-14.188,+23.000,4, -12, -8, 1, 3, 1, 2, 23
1503609563193,-0.553,-0.345,+0.370,+0.662,+0.849,-0.033,-0.435,-25.875,-14.750,+21.562,0, -3, -7, -3, 0, -2, -1, 14
1503609563216,-0.551,-0.341,+0.369,+0.666,+0.872,-0.027,-0.398,-24.750,-24.938,+16.688,-12, 4, 1, 4, 0, -4, -8, -19
1503609563238,-0.548,-0.339,+0.369,+0.670,+0.885,-0.086,-0.385,-26.938,-15.625,+17.375,19, 3, -3, 0, -1, -2, 1, 3
1503609563253,-0.544,-0.337,+0.370,+0.674,+0.880,-0.072,-0.469,-28.250,-1.688,+19.188,12, 28, 20, 1, 0, 0, 3, 12
1503609563275,-0.541,-0.335,+0.370,+0.677,+0.886,-0.012,-0.530,-20.750,+0.062,+16.562,13, -3, 15, 7, 0, -1, 5, 26
1503609563299,-0.541,-0.332,+0.369,+0.679,+0.906,-0.025,-0.481,-12.875,-19.500,+6.812,-6, -11, -16, -12, -8, -8, -6, -22
1503609563313,-0.541,-0.329,+0.367,+0.682,+0.912,-0.064,-0.429,-14.688,-28.188,+5.188,-43, -20, -15, -7, -3, -2, -5, -28
1503609563336,-0.540,-0.326,+0.365,+0.685,+0.864,-0.057,-0.492,-13.062,-17.438,+11.500,2, -5, 4, -3, -2, -4, -15, -22
1503609563358,-0.539,-0.325,+0.363,+0.687,+0.820,-0.054,-0.557,-4.062,-9.938,+16.125,4, -13, -1, -2, -1, 0, 11, 15
1503609563373,-0.537,-0.326,+0.361,+0.689,+0.847,-0.073,-0.501,-0.688,-7.125,+17.688,3, 19, 18, 3, 1, 3, 4, 0
1503609563395,-0.536,-0.327,+0.359,+0.691,+0.881,-0.094,-0.449,+1.750,-7.250,+14.250,-7, -4, 0, 0, -1, -4, -4, -25
1503609563418,-0.535,-0.328,+0.357,+0.692,+0.874,-0.095,-0.462,+0.938,-8.750,+12.812,28, 33, 1, 10, 7, 4, 2, 12
1503609563433,-0.533,-0.328,+0.354,+0.695,+0.845,-0.086,-0.501,+0.688,-9.688,+16.562,5, -34, -21, -13, -5, -3, 4, 10
1503609563458,-0.532,-0.328,+0.352,+0.697,+0.827,-0.078,-0.470,+0.812,-13.625,+18.312,-3, -8, -3, 22, 38, 6, 2, 0
1503609563478,-0.531,-0.329,+0.350,+0.698,+0.843,-0.058,-0.438,-0.312,-7.500,+16.062,-12, -7, -2, -7, -12, -3, 0, -5
1503609563493,-0.529,-0.330,+0.349,+0.699,+0.835,-0.052,-0.506,+4.688,+1.750,+14.250,7, 1, -13, -19, -14, -2, 2, 12
1503609563516,-0.529,-0.331,+0.348,+0.700,+0.851,-0.086,-0.512,+6.375,+0.500,+12.125,7, 15, 0, 2, -2, -2, -1, 4
1503609563538,-0.527,-0.332,+0.347,+0.701,+0.884,-0.098,-0.487,+1.938,-2.812,+12.312,1, 0, 10, 5, 0, 2, -4, -3
1503609563553,-0.526,-0.333,+0.346,+0.702,+0.901,-0.116,-0.545,+0.875,+0.062,+14.688,-7, -7, 0, 12, 15, 1, -8, -25
1503609563576,-0.524,-0.335,+0.344,+0.703,+0.879,-0.118,-0.609,+8.688,+4.375,+16.688,-8, 13, 13, -2, -7, -1, -2, 4
1503609563598,-0.524,-0.337,+0.340,+0.704,+0.909,-0.145,-0.537,+13.938,-8.312,+13.688,-8, 6, 20, 1, -7, -4, -4, -3
1503609563614,-0.523,-0.340,+0.337,+0.705,+0.948,-0.161,-0.485,+14.688,-8.312,+17.312,26, -11, -5, -1, -4, 0, 6, 18
1503609563636,-0.521,-0.344,+0.334,+0.706,+0.903,-0.145,-0.477,+18.188,-2.562,+27.500,1, 4, -1, -1, -3, 2, 0, 1
1503609565999,-0.604,-0.361,+0.417,+0.575,+0.931,+0.083,-0.324,-7.000,-7.438,+3.562,2, 3, -8, -5, -1, -2, -2, 9
1503609566020,-0.605,-0.360,+0.417,+0.575,+0.871,+0.102,-0.380,-2.000,-5.688,-2.688,11, -8, -8, -19, -20, -3, 3, -3
1503609566037,-0.607,-0.359,+0.416,+0.573,+0.839,+0.088,-0.384,+9.125,+2.812,-13.688,-1, -8, -2, 3, 4, 1, 0, 6
1503609566058,-0.610,-0.360,+0.416,+0.570,+0.926,+0.061,-0.363,+15.625,+3.938,-19.750,-5, 46, 54, 11, 1, -1, 3, -2
1503609566081,-0.611,-0.362,+0.416,+0.568,+1.010,+0.071,-0.324,+10.062,+7.000,-9.812,6, -1, -31, -9, 2, -1, 1, -3
1503609566096,-0.611,-0.363,+0.416,+0.567,+0.962,+0.097,-0.334,+5.750,+0.750,+2.125,26, -18, -22, -5, -4, 1, 5, 18
1503609566119,-0.612,-0.364,+0.414,+0.567,+0.934,+0.106,-0.333,+7.562,-4.625,+2.750,0, -6, -5, 2, 4, -2, -8, -6
1503609566140,-0.613,-0.364,+0.412,+0.567,+0.955,+0.099,-0.316,+13.000,-8.562,-1.688,-16, -28, -15, -6, -4, -2, 6, 1
1503609566156,-0.615,-0.364,+0.410,+0.567,+0.970,+0.079,-0.324,+10.250,-16.125,-1.875,-9, -15, -1, 2, 0, 1, 5, 5
1503609566179,-0.616,-0.363,+0.407,+0.569,+0.952,+0.084,-0.354,+0.562,-19.938,+6.062,7, 12, 7, 2, 1, 0, -3, -4
1503609566200,-0.615,-0.362,+0.407,+0.571,+0.910,+0.106,-0.317,-8.438,-12.375,+13.000,-7, -30, -18, -8, -5, -4, -2, -4
1503609566217,-0.614,-0.361,+0.406,+0.572,+0.897,+0.149,-0.320,-7.062,-9.562,+8.312,1, 8, -6, 1, 0, 1, -2, 2
1503609566238,-0.614,-0.360,+0.406,+0.573,+0.909,+0.135,-0.370,-4.625,-2.938,+4.500,-22, 8, -11, -7, -3, -4, -1, -1
1503609566260,-0.613,-0.359,+0.406,+0.575,+0.903,+0.088,-0.382,-7.875,-4.500,+8.062,-4, 3, 5, 2, 2, 5, 9, 14
1503609566278,-0.611,-0.358,+0.406,+0.578,+0.949,+0.096,-0.351,-14.562,-7.688,+16.562,13, -5, -5, -5, -6, -1, -5, -18
1503609566299,-0.609,-0.357,+0.406,+0.581,+0.953,+0.110,-0.354,-14.625,-9.125,+19.625,6, -1, 4, 9, 5, 4, 0, 1
1503609566321,-0.607,-0.356,+0.405,+0.584,+0.919,+0.089,-0.373,-14.000,-11.938,+15.812,0, -1, -6, 3, -2, -3, -3, -5
1503609566336,-0.606,-0.354,+0.404,+0.587,+0.907,+0.078,-0.396,-12.125,-12.438,+12.688,-28, -18, -9, -8, -2, -3, -5, -51
1503609566358,-0.605,-0.353,+0.403,+0.589,+0.902,+0.063,-0.414,-9.125,-4.250,+10.125,17, 6, 0, -1, 0, 0, 0, 13
1503609566380,-0.604,-0.353,+0.403,+0.590,+0.916,+0.082,-0.372,-6.625,-4.688,+7.500,2, 1, -5, -3, -3, -4, -1, 27
1503609566396,-0.603,-0.352,+0.402,+0.592,+0.927,+0.093,-0.380,-4.062,-7.500,+11.188,11, 2, 3, -5, -3, -3, -2, 10
1503609566420,-0.602,-0.352,+0.401,+0.594,+0.893,+0.069,-0.416,-1.250,-6.375,+13.875,7, 14, 0, 1, 1, 0, -8, -14
1503609566441,-0.602,-0.353,+0.399,+0.595,+0.880,+0.049,-0.392,+1.562,-8.438,+9.938,-16, -4, -4, 2, 2, 1, 1, 25
1503609566457,-0.602,-0.353,+0.397,+0.596,+0.905,+0.042,-0.377,+1.250,-7.188,+7.375,11, -4, -9, -11, 1, -1, -5, -18
1503609566486,-0.601,-0.353,+0.396,+0.598,+0.924,+0.032,-0.370,-1.250,-9.375,+10.562,-10, -2, -3, -2, -4, -1, 6, 4
1503609566501,-0.600,-0.353,+0.394,+0.600,+0.919,+0.048,-0.376,-5.688,-9.500,+13.812,-9, -8, -4, -1, 2, 0, -1, 8
1503609566517,-0.599,-0.352,+0.394,+0.602,+0.884,+0.073,-0.378,-7.875,-7.875,+8.750,2, -18, -27, -10, -6, -4, -1, 17
1503609566539,-0.599,-0.350,+0.393,+0.603,+0.890,+0.082,-0.410,-4.438,-8.562,+2.375,11, 31, 14, 6, 0, -2, -7, -28
1503609566561,-0.600,-0.349,+0.393,+0.603,+0.877,+0.062,-0.399,-2.875,-6.562,-2.250,4, -23, -14, -6, -1, 0, 3, 7
1503609566576,-0.600,-0.348,+0.393,+0.604,+0.895,+0.050,-0.391,-5.312,-3.812,+0.875,0, 17, 13, 10, 2, 1, -3, 3
1503609566599,-0.598,-0.349,+0.394,+0.605,+0.900,+0.051,-0.403,-9.688,+6.062,+10.875,5, 4, 7, 0, 0, 0, 3, -6
1503609566622,-0.596,-0.349,+0.395,+0.606,+0.922,+0.065,-0.406,-11.688,+7.750,+9.188,-3, 2, 5, -4, -2, 0, -5, -11
1503609566636,-0.595,-0.348,+0.395,+0.607,+0.958,+0.083,-0.408,-8.438,-4.750,+6.000,-5, -15, 4, 0, -1, -3, -2, -4
1503609566659,-0.596,-0.346,+0.393,+0.609,+0.941,+0.062,-0.429,-1.562,-15.688,+4.688,-7, 22, 11, 5, 3, 1, -3, -7
1503609566681,-0.597,-0.344,+0.391,+0.611,+0.901,+0.023,-0.411,-1.375,-25.062,+3.438,6, -2, -11, -6, -2, -3, -1, 10
1503609566697,-0.597,-0.342,+0.388,+0.613,+0.878,+0.034,-0.408,-5.250,-22.875,+4.750,-9, 5, 26, 15, 8, 4, 3, 8
1503609566720,-0.597,-0.341,+0.387,+0.615,+0.862,+0.047,-0.424,-6.625,-9.312,+6.312,12, -16, -14, -8, -6, -2, -1, 3
1503609566741,-0.596,-0.341,+0.387,+0.616,+0.859,+0.065,-0.447,-4.375,+0.938,+8.125,19, 13, 13, 1, -1, 1, 4, 19
1503609566757,-0.595,-0.341,+0.387,+0.616,+0.904,+0.047,-0.438,-0.250,+1.875,+7.125,9, 0, 9, 4, 4, -1, 2, 16
1503609566781,-0.595,-0.341,+0.386,+0.617,+0.945,+0.022,-0.414,-1.250,-6.688,+7.188,-10, 5, 10, 2, -2, -2, -3, -11
1503609566801,-0.594,-0.341,+0.384,+0.619,+0.928,+0.022,-0.399,-5.312,-14.438,+10.875,-4, -9, -3, -2, -1, 1, 1, 1
1503609566816,-0.593,-0.339,+0.383,+0.622,+0.887,+0.044,-0.417,-6.938,-13.688,+11.312,-7, -18, 5, 3, 4, 1, -3, 10
1503609566839,-0.593,-0.338,+0.382,+0.624,+0.864,+0.060,-0.454,-5.938,-11.000,+10.375,9, -7, -10, -8, -6, -5, -4, -24
1503609566861,-0.592,-0.338,+0.380,+0.625,+0.878,+0.043,-0.458,-1.500,-5.562,+12.125,4, 2, -4, 3, -1, 0, -1, 7
1503609566876,-0.590,-0.339,+0.379,+0.627,+0.903,+0.014,-0.429,-0.312,-3.125,+13.438,25, 35, 10, 7, 1, 2, 2, 3
1503609566899,-0.589,-0.340,+0.379,+0.628,+0.906,+0.015,-0.417,-3.188,+3.625,+12.625,-5, -17, -11, -5, -3, -3, -5, -13
1503609566921,-0.587,-0.341,+0.379,+0.629,+0.900,+0.030,-0.440,-3.812,+2.750,+11.688,6, 15, 2, -1, 0, -2, -1, -3
1503609566936,-0.586,-0.341,+0.379,+0.630,+0.912,+0.040,-0.434,-3.688,-2.125,+8.562,-5, -12, -7, 1, 0, -1, 2, 5
1503609566959,-0.585,-0.341,+0.378,+0.631,+0.941,+0.026,-0.447,-0.562,-6.188,+11.500,1, -34, -22, -11, -4, -1, -2, -3
1503609566983,-0.584,-0.342,+0.376,+0.633,+0.911,-0.011,-0.450,+1.875,-4.062,+19.812,0, -5, -4, -2, -2, -1, 0, 3
1503609566996,-0.582,-0.344,+0.374,+0.635,+0.887,-0.010,-0.429,+0.688,-0.688,+19.750,29, 0, 3, 6, 2, -3, 1, 7
1503609567020,-0.580,-0.346,+0.373,+0.636,+0.892,+0.008,-0.455,+3.750,+4.688,+16.562,-15, -10, -13, -5, -5, -1, -4, -5
1503609567041,-0.579,-0.348,+0.372,+0.637,+0.914,-0.017,-0.442,+5.062,+3.875,+14.938,-4, 8, 7, 1, 2, 0, 3, -2
1503609567056,-0.577,-0.350,+0.371,+0.638,+0.923,-0.040,-0.440,+4.812,+2.812,+19.000,13, 16, 7, 3, 3, 0, -1, 2
1503609567079,-0.574,-0.353,+0.369,+0.640,+0.911,-0.038,-0.427,+4.938,+3.562,+22.812,-14, 3, -8, -5, -7, -5, -5, -9
1503609567101,-0.572,-0.355,+0.367,+0.642,+0.891,-0.029,-0.429,+6.312,+2.500,+21.312,-11, 0, 9, 3, 4, 1, 0, -5
1503609567119,-0.571,-0.358,+0.365,+0.643,+0.876,-0.034,-0.439,+10.062,+3.062,+18.812,-6, -8, -1, 1, 0, 0, 0, 7
1503609567139,-0.569,-0.360,+0.363,+0.643,+0.884,-0.054,-0.439,+10.750,+2.188,+17.875,4, 2, -3, -1, -2, 0, -1, -2
1503609567161,-0.567,-0.363,+0.361,+0.645,+0.894,-0.073,-0.438,+9.625,+4.438,+21.688,3, -3, 4, 5, -3, 0, 2, -1
1503609567176,-0.565,-0.367,+0.359,+0.646,+0.885,-0.078,-0.417,+8.562,+6.125,+25.312,7, 3, -1, -3, -2, -1, -4, -9
1503609567199,-0.562,-0.370,+0.358,+0.647,+0.881,-0.082,-0.425,+8.125,+9.438,+25.438,-3, 4, 8, 2, -2, 0, 1, -5
1503609567221,-0.560,-0.374,+0.356,+0.648,+0.894,-0.071,-0.442,+12.375,+7.750,+23.688,-2, -5, -6, -3, 0, -1, -1, 7
1503609567236,-0.559,-0.376,+0.352,+0.649,+0.915,-0.090,-0.434,+16.250,-3.938,+20.500,-2, -10, -20, -9, -4, 0, -1, 0
1503609567259,-0.558,-0.379,+0.348,+0.651,+0.897,-0.113,-0.429,+16.000,-12.125,+21.438,6, -4, 6, 1, -4, 1, 1, 4
1503609567281,-0.557,-0.381,+0.344,+0.653,+0.866,-0.127,-0.420,+12.625,-8.625,+24.688,-3, 27, 15, 10, 5, 1, 0, -6
1503609567296,-0.555,-0.383,+0.341,+0.655,+0.826,-0.116,-0.426,+11.625,-0.500,+23.750,0, -13, -16, -12, -6, -2, -1, -3
1503609567325,-0.553,-0.387,+0.339,+0.656,+0.864,-0.111,-0.430,+13.125,+5.250,+23.312,2, -4, -6, -5, 1, -1, -3, -2
1503609567341,-0.551,-0.391,+0.337,+0.656,+0.900,-0.137,-0.404,+14.875,+7.312,+21.000,4, -5, -7, -4, -2, -1, 0, 0
1503609567357,-0.550,-0.394,+0.335,+0.656,+0.921,-0.142,-0.407,+13.625,+3.812,+18.500,9, -1, -5, -4, -3, -1, -2, -2
1503609567379,-0.549,-0.396,+0.332,+0.657,+0.917,-0.139,-0.411,+13.062,-3.688,+18.250,-23, -21, 0, 5, 4, 3, 2, -3
1503609569343,-0.587,-0.445,+0.415,+0.534,+0.909,+0.001,-0.190,-2.000,-0.312,-12.688,4, 9, 4, -1, -1, -1, -4, 0
1503609569358,-0.587,-0.445,+0.416,+0.534,+0.986,+0.009,-0.213,-3.188,-1.188,-5.125,3, 14, -6, -4, -2, -2, -5, 1
1503609569380,-0.587,-0.444,+0.416,+0.534,+1.024,-0.006,-0.204,-8.625,+0.312,-0.438,-6, -19, -7, -3, -3, -3, -7, -21
1503609569403,-0.585,-0.443,+0.417,+0.535,+1.041,-0.001,-0.180,-14.562,-2.250,+3.375,1, -6, 2, -1, -3, -5, -5, 0
1503609569418,-0.584,-0.442,+0.418,+0.538,+1.017,+0.034,-0.203,-14.188,-8.625,+7.500,13, 13, 6, 0, -3, 0, 7, 19
1503609569442,-0.584,-0.440,+0.416,+0.540,+1.000,+0.016,-0.233,-8.562,-19.125,+9.875,8, -3, -2, 0, 1, 1, 6, 20
1503609569463,-0.584,-0.438,+0.414,+0.544,+1.001,-0.018,-0.216,-12.938,-23.750,+10.062,-8, -1, -5, -3, -2, -2, -1, -4
1503609569478,-0.583,-0.435,+0.414,+0.547,+0.948,-0.002,-0.185,-17.875,-17.875,+9.375,14, 19, 9, 4, 1, 2, 4, 8
1503609569501,-0.582,-0.433,+0.414,+0.550,+0.917,+0.044,-0.218,-16.375,-10.562,+7.875,19, 30, 5, 0, 0, 0, 1, 18
1503609569523,-0.581,-0.431,+0.414,+0.553,+0.951,+0.033,-0.238,-16.562,-13.562,+9.500,10, 5, 8, 3, 1, 1, 6, 12
1503609569538,-0.579,-0.429,+0.414,+0.556,+1.013,+0.016,-0.241,-24.062,-10.312,+13.812,-4, -9, -2, 3, 4, 0, -4, -10
1503609569560,-0.577,-0.426,+0.415,+0.559,+0.957,+0.031,-0.216,-24.375,-10.125,+9.438,-11, 12, 8, 1, -1, 0, -4, -3
1503609569583,-0.577,-0.422,+0.415,+0.562,+0.950,+0.064,-0.252,-20.812,-17.875,+6.625,-8, 13, -2, -2, -2, -5, -3, 0
1503609569601,-0.576,-0.420,+0.414,+0.566,+0.977,+0.047,-0.284,-17.812,-17.562,+13.750,-21, -14, 1, -3, -2, -2, -7, -10
1503609569620,-0.574,-0.418,+0.413,+0.570,+0.993,-0.002,-0.291,-16.625,-12.875,+19.062,-1, 4, -6, -2, 1, 2, -1, -5
1503609569643,-0.573,-0.416,+0.412,+0.574,+0.976,-0.016,-0.259,-17.750,-14.875,+14.125,-4, -2, 7, 1, 2, 1, 3, -3
1503609569658,-0.572,-0.414,+0.412,+0.577,+0.960,+0.000,-0.238,-18.125,-16.688,+8.375,22, -13, -10, -4, -5, -1, 4, 3
1503609569680,-0.570,-0.412,+0.411,+0.580,+0.943,+0.008,-0.268,-17.188,-14.438,+12.688,-10, -9, 2, -5, -8, 0, 2, 3
1503609569703,-0.569,-0.410,+0.410,+0.583,+0.955,+0.000,-0.279,-17.312,-14.250,+16.688,-1, -19, -12, -2, -1, -3, -3, -3
1503609569718,-0.567,-0.408,+0.410,+0.587,+0.969,-0.013,-0.279,-16.812,-11.562,+14.438,12, 5, -6, 0, 0, -4, -8, 0
1503609569740,-0.565,-0.406,+0.409,+0.590,+0.944,-0.010,-0.272,-16.812,-12.312,+11.688,-31, -26, -3, -1, -1, 0, -2, 3
1503609569763,-0.564,-0.404,+0.409,+0.593,+0.939,-0.004,-0.294,-17.812,-11.812,+13.375,-2, 0, 3, 0, 1, 2, 8, 27
1503609569778,-0.562,-0.403,+0.409,+0.596,+0.948,+0.003,-0.295,-16.875,-7.000,+13.438,-4, 25, 21, 4, -2, -4, -6, -11
1503609569802,-0.560,-0.402,+0.409,+0.598,+0.959,-0.006,-0.312,-13.562,-2.375,+11.812,-2, -3, -6, -2, -1, 0, 5, 7
1503609569823,-0.558,-0.401,+0.409,+0.600,+0.953,-0.026,-0.308,-13.125,-0.188,+11.562,13, 43, 28, 5, 0, -1, -2, -12
1503609569839,-0.557,-0.400,+0.409,+0.602,+0.945,-0.022,-0.285,-13.188,-8.562,+9.188,3, -24, -15, 1, 0, 1, 3, 13
1503609569860,-0.556,-0.399,+0.409,+0.604,+0.951,-0.020,-0.271,-13.188,-9.375,+6.438,-16, -24, -9, -5, -7, -6, -10, -6
1503609569883,-0.555,-0.398,+0.409,+0.605,+0.930,-0.034,-0.312,-11.938,-3.188,+4.812,31, -3, -10, -1, 2, 5, 14, 60
1503609569898,-0.554,-0.397,+0.409,+0.607,+0.923,-0.033,-0.341,-8.688,-3.688,+6.000,-20, -14, 12, 7, 3, 3, 3, 40
1503609569920,-0.554,-0.396,+0.407,+0.609,+0.938,-0.047,-0.335,-4.938,-8.250,+8.375,-2, -23, -18, -8, -2, -2, 3, 3
1503609569943,-0.553,-0.396,+0.406,+0.610,+0.960,-0.058,-0.294,-4.188,-10.375,+8.812,5, -4, -4, -4, -3, -5, -4, -36
1503609569958,-0.553,-0.395,+0.405,+0.612,+0.965,-0.056,-0.290,-5.188,-12.062,+5.125,-12, -5, 3, -1, -2, -1, -7, -24
1503609569980,-0.553,-0.394,+0.404,+0.613,+0.936,-0.037,-0.347,-3.125,-10.062,+1.438,-34, -28, -21, -5, -4, -3, -9, -36
1503609570006,-0.555,-0.392,+0.402,+0.614,+0.925,-0.034,-0.374,+1.438,-12.438,+1.250,11, 0, 2, 0, -2, -1, 5, 15
1503609570018,-0.556,-0.392,+0.399,+0.615,+0.932,-0.043,-0.341,+6.625,-14.938,+3.812,10, 11, 3, 1, 2, 2, 1, 6
1503609570040,-0.557,-0.392,+0.397,+0.616,+0.950,-0.056,-0.308,+7.625,-12.062,+3.875,-31, -2, -6, -2, -2, -4, -13, -68
1503609570063,-0.557,-0.393,+0.396,+0.616,+0.941,-0.042,-0.303,+4.688,-5.000,+1.188,3, 7, 12, 4, 1, 1, 1, 14
1503609570079,-0.558,-0.393,+0.395,+0.615,+0.930,-0.026,-0.331,+4.250,-2.562,-0.625,26, 8, -4, -1, -1, 0, 0, 1
1503609570100,-0.559,-0.393,+0.394,+0.615,+0.939,-0.034,-0.331,+5.875,-5.062,-1.812,4, 1, 0, -1, -1, 1, 8, 10
1503609570123,-0.560,-0.393,+0.393,+0.615,+0.953,-0.052,-0.319,+3.562,-7.688,-3.062,-30, -21, -4, 0, 2, -3, -12, -33
1503609570140,-0.561,-0.392,+0.393,+0.615,+0.935,-0.046,-0.311,-1.688,-6.062,-4.625,24, 9, -2, -1, 0, 0, 1, 29
1503609570161,-0.561,-0.391,+0.393,+0.614,+0.919,-0.028,-0.320,-3.500,-4.688,-7.188,3, 13, -3, -4, -2, -2, 3, 5
1503609570184,-0.563,-0.390,+0.394,+0.614,+0.929,+0.002,-0.346,-1.312,-4.438,-8.562,-6, -7, 1, 3, -1, -1, 1, 7
1503609570199,-0.564,-0.389,+0.393,+0.613,+0.950,-0.004,-0.349,-0.438,-6.562,-4.688,28, -4, -6, -1, 1, 1, 4, 27
1503609570221,-0.565,-0.387,+0.392,+0.614,+0.961,-0.020,-0.349,-3.375,-13.625,+1.375,20, 5, 6, -3, 0, -1, -2, 7
1503609570250,-0.565,-0.385,+0.391,+0.616,+0.950,-0.019,-0.351,-5.562,-16.875,+3.812,9, 15, 1, 1, -1, 0, 2, 5
1503609570259,-0.566,-0.383,+0.389,+0.618,+0.917,+0.001,-0.367,-5.062,-16.062,+4.688,-8, -9, -6, -6, -3, -1, -1, -3
1503609570281,-0.566,-0.381,+0.387,+0.620,+0.898,+0.000,-0.381,-3.625,-19.062,+7.750,-25, -1, 6, 2, -1, -1, 3, 3
1503609570303,-0.566,-0.380,+0.385,+0.622,+0.922,-0.018,-0.375,-3.188,-18.500,+10.750,-10, -14, -3, -1, 0, -1, -3, -5
1503609570319,-0.565,-0.379,+0.383,+0.625,+0.937,-0.034,-0.376,-3.500,-12.875,+14.375,-6, 17, 7, 6, 0, -1, -1, -18
1503609570342,-0.564,-0.380,+0.381,+0.627,+0.937,-0.036,-0.378,-3.250,-6.000,+16.438,6, -19, -17, -6, -3, -2, -3, 0
1503609570363,-0.563,-0.380,+0.380,+0.628,+0.928,-0.027,-0.370,-1.500,-4.812,+14.438,1, -11, -8, -3, 0, -1, 1, 4
1503609570381,-0.562,-0.380,+0.379,+0.629,+0.935,-0.021,-0.399,+1.375,-3.375,+11.125,-3, 11, 15, 7, 2, -3, -2, -3
1503609570401,-0.562,-0.381,+0.377,+0.630,+0.938,-0.035,-0.379,+2.312,-7.188,+11.375,16, 9, 0, -1, 0, -2, -1, 1
1503609570423,-0.561,-0.381,+0.375,+0.632,+0.937,-0.047,-0.385,+2.250,-7.500,+14.875,0, -2, 1, -1, -2, -1, -1, -2
1503609570441,-0.560,-0.382,+0.373,+0.633,+0.922,-0.053,-0.386,+2.625,-4.625,+17.000,4, 1, -2, 0, 1, 1, 1, 6
1503609570461,-0.559,-0.383,+0.372,+0.635,+0.913,-0.051,-0.381,+2.750,-4.062,+15.750,0, -6, -5, -2, -1, 0, 2, 5
1503609570483,-0.558,-0.384,+0.370,+0.636,+0.907,-0.053,-0.392,+3.062,-1.188,+14.188,-13, 18, 13, 2, 0, 2, -1, -4
1503609570499,-0.556,-0.385,+0.369,+0.637,+0.917,-0.067,-0.391,+3.000,-0.812,+15.250,-8, -19, -8, -2, -2, -3, -3, 0
1503609570521,-0.554,-0.387,+0.367,+0.639,+0.917,-0.070,-0.395,+1.250,-1.062,+20.562,21, 12, -2, -3, -2, -1, 0, -3
1503609570543,-0.552,-0.388,+0.365,+0.641,+0.919,-0.067,-0.377,-0.250,-4.125,+22.312,8, 10, 4, 2, -1, -3, -3, -2
1503609570559,-0.551,-0.389,+0.364,+0.643,+0.909,-0.080,-0.385,+0.312,-3.062,+19.375,15, 5, 1, 3, 1, 0, 0, 18
1503609570582,-0.549,-0.390,+0.362,+0.645,+0.901,-0.094,-0.380,+0.438,-2.500,+18.000,-17, 10, -9, -7, -3, 1, 1, -1
1503609570603,-0.547,-0.391,+0.361,+0.646,+0.902,-0.097,-0.397,+0.312,+0.438,+20.438,10, 4, -4, 0, -1, -2, -6, -19
1503609570619,-0.545,-0.392,+0.359,+0.648,+0.911,-0.099,-0.383,+0.062,-0.375,+20.500,-34, -16, 16, 5, 3, 1, -1, -1
1503609570641,-0.543,-0.393,+0.358,+0.650,+0.912,-0.108,-0.389,-0.312,-1.312,+18.500,7, 13, 2, -1, -2, -1, 1, 2
1503609570663,-0.541,-0.394,+0.357,+0.651,+0.920,-0.121,-0.379,-2.188,-0.875,+17.938,3, -14, -5, -2, -2, -2, -1, -7
1503609570679,-0.539,-0.395,+0.356,+0.653,+0.907,-0.107,-0.407,-1.562,+1.000,+18.188,-9, -23, 1, -1, 1, 1, 0, -4
1503609570701,-0.537,-0.396,+0.355,+0.654,+0.922,-0.115,-0.389,+0.500,-0.188,+16.938,0, 17, -1, -2, 1, -1, 0, 1
1503609570724,-0.536,-0.397,+0.354,+0.656,+0.924,-0.133,-0.383,+1.312,-1.625,+16.125,11, 10, 3, -2, -3, -1, -4, -3
1503609570743,-0.534,-0.398,+0.352,+0.657,+0.908,-0.143,-0.381,+0.562,-3.812,+17.750,-3, 6, 6, 3, 0, 2, 0, -1
1503609570764,-0.533,-0.399,+0.350,+0.659,+0.905,-0.138,-0.384,+0.688,-4.312,+17.250,1, 0, -1, -1, 0, 0, 2, 1
1503609570783,-0.531,-0.400,+0.349,+0.660,+0.885,-0.146,-0.399,+0.750,-0.312,+16.312,1, -10, 1, 6, 1, -2, -2, 0
1503609570801,-0.529,-0.402,+0.348,+0.661,+0.902,-0.149,-0.392,+1.250,+2.812,+16.062,-10, -6, -4, 0, -1, 0, -3, -3
1503609570821,-0.527,-0.403,+0.347,+0.662,+0.906,-0.166,-0.399,+1.812,+6.625,+16.438,11, 7, -4, -2, 4, 1, 1, 5
1503609570843,-0.525,-0.405,+0.346,+0.664,+0.925,-0.176,-0.384,-0.312,+0.812,+18.625,-7, -4, 3, -2, -3, -4, -2, -5
1503609570859,-0.523,-0.406,+0.345,+0.666,+0.917,-0.177,-0.374,-1.688,-1.750,+21.438,7, 7, 5, -1, -1, 1, 4, 10
1503609570881,-0.520,-0.408,+0.343,+0.667,+0.910,-0.183,-0.358,-0.438,-0.500,+20.875,2, -6, -8, -5, -3, -1, -1, -4
1503609570903,-0.518,-0.409,+0.342,+0.669,+0.897,-0.199,-0.393,+1.812,+2.938,+19.312,-1, -7, -10, -2, -3, -2, -1, 1
1503609570919,-0.516,-0.411,+0.341,+0.670,+0.907,-0.209,-0.388,+2.188,+2.688,+20.250,-4, 5, 7, 6, 2, 1, 0, -1
1503609570941,-0.513,-0.413,+0.339,+0.672,+0.911,-0.206,-0.371,+0.562,-0.750,+22.438,2, -4, 0, 3, 0, -1, -3, -3
1503609570963,-0.511,-0.414,+0.337,+0.674,+0.899,-0.211,-0.360,-0.812,-1.125,+22.938,4, 2, 10, 4, 2, 0, 0, -4
1503609570979,-0.508,-0.416,+0.336,+0.675,+0.874,-0.218,-0.374,+0.062,+3.562,+21.562,-3, -2, -5, 2, -1, -3, -1, -2
1503609571001,-0.505,-0.418,+0.335,+0.677,+0.888,-0.221,-0.386,+0.000,+5.375,+22.125,5, -11, -7, -5, -4, 0, 0, 3
1503609571022,-0.503,-0.420,+0.334,+0.678,+0.897,-0.227,-0.381,+0.938,+4.312,+22.625,-14, 7, 5, 1, 0, -1, -1, -3
1503609571039,-0.500,-0.421,+0.332,+0.680,+0.905,-0.243,-0.367,+1.562,-0.188,+20.875,-9, -12, -14, -7, -3, -1, -3, -7
1503609571061,-0.498,-0.423,+0.330,+0.681,+0.884,-0.262,-0.368,+1.312,-1.062,+19.812,7, 16, 7, 1, 1, -1, 0, 0
1503609571083,-0.496,-0.424,+0.329,+0.683,+0.869,-0.267,-0.367,+0.625,+1.188,+19.250,7, -2, -5, -4, 1, 0, -1, 1
1503609571099,-0.493,-0.426,+0.328,+0.684,+0.871,-0.271,-0.378,+0.250,+5.625,+19.875,4, -3, -2, -1, -2, 1, -2, -2
1503609571121,-0.490,-0.428,+0.327,+0.685,+0.886,-0.278,-0.385,+0.750,+6.750,+19.000,2, 8, 9, 6, 2, 0, 0, -1
1503609571145,-0.488,-0.430,+0.326,+0.686,+0.886,-0.284,-0.371,+1.188,+4.125,+17.062,5, 9, 0, -6, -3, -2, -1, -1
1503609571159,-0.486,-0.431,+0.325,+0.687,+0.887,-0.292,-0.367,+0.625,+1.250,+15.750,-3, -5, 1, 1, -1, 0, 0, -1
1503609571182,-0.484,-0.432,+0.324,+0.688,+0.869,-0.286,-0.375,-0.062,+2.125,+14.500,1, -5, -2, 3, 0, 0, 0, -2
1503609571203,-0.482,-0.434,+0.323,+0.689,+0.860,-0.288,-0.369,+0.812,+4.188,+13.875,0, -2, -5, -1, -1, 0, 0, 4
1503609571219,-0.481,-0.435,+0.322,+0.690,+0.875,-0.290,-0.369,+1.812,+3.250,+14.000,1, 0, 1, 3, 0, -1, 0, 5
1503609571241,-0.479,-0.436,+0.321,+0.691,+0.880,-0.304,-0.353,+1.688,+2.875,+12.938,-6, -9, -7, -5, -5, -4, -2, -3
1503609574947,-0.478,-0.339,+0.427,+0.689,+0.940,-0.027,-0.303,-3.875,-10.250,-7.000,-13, -11, -10, -13, -10, -7, -9, -12
1503609574961,-0.478,-0.337,+0.428,+0.689,+0.952,-0.013,-0.320,-7.688,-11.188,-5.812,-10, 3, 2, 6, 5, 2, 1, 1
1503609574983,-0.479,-0.335,+0.428,+0.690,+0.922,-0.009,-0.363,-8.312,-6.500,-0.125,20, 3, -1, -5, -4, -2, 4, 8
1503609575005,-0.479,-0.334,+0.427,+0.690,+0.895,-0.016,-0.421,-4.625,-2.000,+0.125,12, 7, 6, 1, 3, 0, -6, -13
1503609575021,-0.480,-0.333,+0.427,+0.690,+0.919,-0.029,-0.366,-2.938,-6.375,-3.750,5, -2, -10, -3, -2, -2, -5, 1
1503609575044,-0.480,-0.331,+0.427,+0.691,+0.949,-0.024,-0.358,-7.938,-5.312,-1.750,-9, 2, 5, 6, 7, 1, -1, -2
1503609575065,-0.479,-0.330,+0.428,+0.692,+0.909,-0.025,-0.387,-9.438,-0.812,+1.812,-2, 4, 4, 2, 3, 0, -1, 0
1503609575081,-0.479,-0.329,+0.428,+0.692,+0.900,-0.037,-0.372,-9.375,-6.312,+0.000,11, 6, -12, -5, -7, 0, -1, -2
1503609575103,-0.478,-0.327,+0.429,+0.693,+0.921,-0.041,-0.347,-11.875,-3.188,-0.375,3, 5, 6, -1, -2, 1, 5, 9
1503609575125,-0.476,-0.327,+0.430,+0.694,+0.923,-0.051,-0.355,-15.438,+5.625,+4.312,11, -6, -4, 1, 0, 0, -7, 2
1503609575148,-0.473,-0.326,+0.432,+0.695,+0.947,-0.043,-0.371,-17.750,+10.125,+10.938,-2, -10, -3, -5, -2, -2, -2, 5
1503609575163,-0.470,-0.326,+0.433,+0.696,+0.951,-0.034,-0.398,-12.500,+10.250,+13.562,-11, -10, -9, -1, 1, -3, -2, -14
1503609575185,-0.469,-0.328,+0.434,+0.696,+0.951,-0.064,-0.393,-1.125,+11.500,+8.750,0, -2, 5, -2, -4, 1, 8, 8
1503609575208,-0.468,-0.329,+0.434,+0.696,+0.971,-0.079,-0.343,+1.125,+0.500,+2.938,-9, -7, -6, -3, -3, -3, -1, -5
1503609575223,-0.469,-0.329,+0.433,+0.696,+0.980,-0.066,-0.345,+0.750,-5.875,+0.062,1, 1, 5, 5, 4, 1, -5, -3
1503609575245,-0.470,-0.329,+0.432,+0.696,+0.926,-0.033,-0.387,+4.000,-8.625,-3.875,-3, -1, -2, -5, -5, -2, -9, -8
1503609575267,-0.473,-0.327,+0.430,+0.696,+0.872,-0.041,-0.379,+6.562,-14.000,-10.188,13, -4, -1, -2, -2, 3, 13, 40
1503609575290,-0.475,-0.326,+0.428,+0.696,+0.912,-0.053,-0.347,+2.188,-20.812,-11.188,10, 2, 4, 4, 3, 3, 4, 15
1503609575312,-0.477,-0.324,+0.427,+0.697,+0.915,-0.042,-0.339,-2.750,-13.562,-5.438,-9, -10, -6, -2, 0, 1, 4, -4
1503609575327,-0.477,-0.323,+0.426,+0.698,+0.886,-0.017,-0.411,-3.125,-9.312,-0.625,-11, 13, 9, 1, -2, -5, -11, -22
1503609575343,-0.479,-0.321,+0.425,+0.698,+0.853,+0.007,-0.407,-0.500,-8.938,-2.938,-9, 0, 4, 1, 0, 1, 5, -19
1503609575365,-0.480,-0.320,+0.424,+0.698,+0.887,-0.017,-0.386,+1.188,-10.688,-4.938,11, 2, -1, -2, 0, -1, 0, -3
1503609575387,-0.480,-0.320,+0.423,+0.699,+0.925,-0.057,-0.365,-2.625,-9.125,+2.375,-1, -6, 3, 2, 1, 1, 3, 7
1503609575403,-0.479,-0.319,+0.422,+0.701,+0.939,-0.062,-0.391,-6.250,-10.938,+9.875,-3, -18, -8, -2, 2, -2, -3, -18
1503609575425,-0.478,-0.318,+0.420,+0.703,+0.946,-0.043,-0.410,-7.812,-15.812,+10.250,8, -2, 6, -1, 0, 1, 5, 12
1503609575448,-0.478,-0.316,+0.418,+0.705,+0.909,-0.037,-0.376,-8.375,-20.938,+6.625,-11, -6, -5, -5, -3, -3, 1, -7
1503609575463,-0.478,-0.314,+0.416,+0.707,+0.895,-0.040,-0.383,-8.000,-20.000,+5.625,2, -8, -8, -1, -2, -2, -2, -16
1503609575485,-0.477,-0.313,+0.415,+0.709,+0.912,-0.042,-0.405,-9.375,-8.688,+6.688,-7, -5, -7, -7, -6, -3, 0, -5
1503609575510,-0.475,-0.312,+0.416,+0.710,+0.933,-0.019,-0.436,-11.938,-1.562,+8.312,-8, -9, -3, 0, -2, 0, -5, -15
1503609575523,-0.474,-0.310,+0.415,+0.712,+0.936,-0.000,-0.416,-9.688,-9.062,+8.438,3, 27, 19, 3, -3, -6, 0, -3
1503609575546,-0.474,-0.309,+0.414,+0.713,+0.920,-0.016,-0.418,-6.688,-13.375,+7.812,4, -8, -11, -9, -5, -1, 0, 7
1503609575567,-0.473,-0.309,+0.413,+0.715,+0.890,-0.035,-0.435,-4.188,-4.938,+10.688,0, -7, -6, -3, 0, 2, 0, 10
1503609575583,-0.471,-0.309,+0.412,+0.716,+0.904,-0.047,-0.440,-2.812,-1.188,+15.312,-8, 4, 6, 3, 0, -1, -4, -11
1503609575605,-0.469,-0.311,+0.411,+0.718,+0.936,-0.052,-0.437,-0.688,-0.812,+19.750,0, -3, -4, -2, -2, -3, -2, -2
1503609575627,-0.466,-0.312,+0.409,+0.719,+0.942,-0.060,-0.422,+0.500,-5.438,+21.000,5, -2, 2, 1, 1, 5, 4, 8
1503609575644,-0.465,-0.313,+0.407,+0.721,+0.930,-0.073,-0.424,+2.000,-8.438,+21.000,-14, -11, -11, -11, -7, -3, -1, -8
1503609577646,-0.552,-0.379,+0.393,+0.630,+0.942,-0.057,-0.348,-14.625,+0.875,-12.188,0, 12, 9, 4, 3, -2, -2, -2
1503609577669,-0.551,-0.377,+0.396,+0.630,+0.942,-0.011,-0.335,-24.875,+2.625,-3.625,-4, 24, 10, 3, -2, 0, -4, -2
1503609577691,-0.549,-0.374,+0.399,+0.632,+0.944,+0.057,-0.393,-24.625,+5.062,+3.812,-13, -14, -10, -6, -2, -2, 1, -3
1503609577706,-0.548,-0.372,+0.401,+0.633,+0.907,+0.028,-0.393,-19.000,-0.375,+1.688,4, -11, 5, 3, 1, -2, -3, 0
1503609577729,-0.547,-0.369,+0.402,+0.635,+0.949,-0.014,-0.379,-19.250,-7.625,+3.375,5, -1, -5, -1, 0, -2, -1, 0
1503609577750,-0.546,-0.367,+0.402,+0.637,+0.960,-0.023,-0.366,-21.375,-9.438,+8.500,-9, -17, 8, 4, 2, 2, -2, -3
1503609577767,-0.545,-0.363,+0.401,+0.640,+0.906,+0.000,-0.373,-19.375,-16.188,+8.625,-1, 24, 12, 1, 0, -1, 1, 1
1503609577789,-0.545,-0.360,+0.401,+0.643,+0.888,+0.002,-0.385,-16.188,-19.062,-0.438,-6, -26, -7, 1, 0, -1, -1, 1
1503609577810,-0.546,-0.356,+0.401,+0.644,+0.904,-0.023,-0.364,-15.625,-15.375,-4.750,-11, -14, -13, -5, -3, -2, -1, 0
1503609577826,-0.545,-0.354,+0.401,+0.646,+0.927,-0.033,-0.363,-18.250,-9.312,+1.750,0, 11, -1, -4, -3, -3, -1, -8
1503609577849,-0.542,-0.352,+0.403,+0.648,+0.922,-0.025,-0.404,-21.000,+1.750,+8.438,17, 12, 13, 5, 3, 2, 3, 9
1503609577872,-0.540,-0.351,+0.404,+0.649,+0.874,-0.004,-0.400,-18.625,+7.188,+4.562,15, -10, -6, -6, -6, -4, 0, 2
1503609577886,-0.540,-0.350,+0.407,+0.649,+0.900,+0.009,-0.366,-12.438,+7.062,-1.812,-12, 4, -2, 2, 0, -1, -6, -18
1503609577909,-0.539,-0.350,+0.409,+0.648,+0.938,+0.008,-0.371,-10.688,+7.188,-1.688,10, 17, 7, 0, 0, 1, 1, 3
1503609577931,-0.538,-0.349,+0.409,+0.649,+0.963,+0.028,-0.384,-8.750,-4.062,+4.312,-8, 10, 5, 1, 0, -1, 1, 1
1503609577946,-0.538,-0.348,+0.407,+0.651,+0.949,+0.005,-0.438,-3.062,-10.688,+8.812,3, -6, -6, -3, -3, -1, -4, -1
1503609577975,-0.538,-0.347,+0.405,+0.653,+0.889,-0.035,-0.419,+0.938,-12.062,+7.500,-5, -8, -6, 0, 3, 0, 4, 9
1503609577983,-0.538,-0.347,+0.404,+0.654,+0.896,-0.019,-0.357,-1.750,-10.250,+3.875,-8, -12, -10, -3, -2, -4, -3, -12
1503609578006,-0.538,-0.347,+0.403,+0.654,+0.918,-0.005,-0.370,-1.062,-1.812,+5.750,-12, -4, -15, 0, 4, 0, -2, 2
1503609578029,-0.537,-0.348,+0.403,+0.654,+0.886,-0.011,-0.403,+0.438,+6.188,+6.750,8, -10, -31, -13, -7, -4, -4, 2
1503609578050,-0.537,-0.348,+0.403,+0.655,+0.903,-0.016,-0.396,-1.250,-0.062,+2.625,4, -9, -7, -8, -6, -2, -3, 2
1503609578065,-0.537,-0.347,+0.403,+0.655,+0.940,-0.003,-0.378,-3.875,-4.812,+0.250,-3, -6, 1, -2, -2, 1, 2, 0
1503609578087,-0.536,-0.346,+0.402,+0.656,+0.935,-0.004,-0.389,-6.062,-10.250,+5.500,4, 16, 2, -2, -1, 0, -1, -2
1503609578110,-0.535,-0.345,+0.401,+0.658,+0.893,+0.004,-0.405,-10.188,-8.625,+10.562,18, 12, 7, -3, -6, -2, -4, 4
1503609578127,-0.534,-0.343,+0.401,+0.660,+0.881,+0.010,-0.391,-11.312,-7.375,+9.750,1, 39, 43, 13, 5, -1, -2, -10
1503609578147,-0.533,-0.342,+0.401,+0.662,+0.916,+0.001,-0.399,-10.000,-8.062,+10.438,1, 5, 2, -1, 1, 1, 1, 5
1503609578170,-0.531,-0.341,+0.400,+0.665,+0.934,-0.027,-0.404,-11.250,-10.125,+14.688,-7, -31, -1, 3, 0, 0, 0, 4
1503609578185,-0.529,-0.339,+0.398,+0.668,+0.923,-0.027,-0.398,-13.875,-13.250,+15.250,-15, -4, -7, -4, -2, -5, -6, -16
1503609578207,-0.528,-0.337,+0.398,+0.670,+0.906,-0.011,-0.400,-14.625,-13.375,+11.750,-6, -9, -6, -3, -2, 2, 3, 5
1503609578230,-0.527,-0.336,+0.397,+0.672,+0.890,-0.011,-0.411,-14.125,-9.188,+9.938,-3, -9, -2, -3, -1, -2, 3, 5
1503609578245,-0.526,-0.334,+0.397,+0.674,+0.898,-0.009,-0.428,-11.688,-9.688,+8.938,10, 24, 17, 16, 8, 4, -2, -13
1503609578267,-0.525,-0.333,+0.396,+0.676,+0.926,-0.024,-0.445,-10.062,-7.250,+7.062,-27, -23, -18, -9, -4, -2, 1, -12
1503609578290,-0.523,-0.331,+0.395,+0.678,+0.913,-0.026,-0.437,-9.500,-9.188,+10.250,15, 9, 1, 0, 2, 3, 3, 27
1503609578305,-0.522,-0.331,+0.394,+0.680,+0.907,-0.033,-0.447,-8.625,-6.188,+14.312,-1, 0, 1, 2, 0, 0, 0, -2
1503609578330,-0.520,-0.331,+0.394,+0.682,+0.894,-0.048,-0.421,-5.000,-0.812,+12.125,-10, -29, -11, -4, -3, -1, 1, -1
1503609578350,-0.519,-0.332,+0.393,+0.683,+0.921,-0.048,-0.421,-4.500,-1.750,+12.312,-19, -7, 2, -2, -2, -2, 0, -4
1503609578365,-0.516,-0.332,+0.392,+0.685,+0.943,-0.054,-0.435,-6.062,-6.000,+17.312,3, 3, 2, 2, 1, -3, 0, -3
1503609578387,-0.515,-0.332,+0.390,+0.688,+0.904,-0.054,-0.421,-4.312,-12.250,+20.250,5, 6, -3, 0, 2, 1, 1, 7
1503609580948,-0.607,-0.362,+0.366,+0.606,+0.880,+0.029,-0.466,-7.000,-10.000,+10.250,5, -1, 0, 1, -1, 1, -1, -5
1503609580968,-0.607,-0.360,+0.364,+0.608,+0.871,+0.012,-0.441,-5.438,-12.812,+8.375,6, 0, -2, 1, 2, 1, 1, 0
1503609580990,-0.606,-0.359,+0.363,+0.610,+0.881,-0.005,-0.415,-5.375,-14.312,+8.000,-13, -3, -7, -4, -3, -1, -3, 1
1503609581006,-0.605,-0.359,+0.362,+0.612,+0.888,-0.017,-0.418,-8.000,-7.312,+10.188,-1, -1, 3, 0, 1, -2, -1, -5
1503609581028,-0.604,-0.358,+0.362,+0.613,+0.879,-0.007,-0.441,-9.438,-0.562,+9.750,2, 60, 30, 1, 1, 2, 0, 0
1503609581050,-0.603,-0.358,+0.362,+0.614,+0.881,+0.012,-0.458,-6.000,+1.250,+5.562,-4, -8, -1, -1, -1, -1, -2, -5
1503609581066,-0.603,-0.358,+0.362,+0.614,+0.885,+0.019,-0.445,-2.000,+0.812,+0.938,22, 7, -9, -5, 0, -3, -1, 7
1503609581088,-0.603,-0.358,+0.363,+0.614,+0.881,+0.021,-0.429,-0.750,+2.562,-2.188,-6, -5, -1, 1, -2, -1, 0, -5
1503609581110,-0.603,-0.358,+0.363,+0.613,+0.898,+0.016,-0.443,+0.438,+4.438,-3.375,-11, -5, 5, -1, -2, -1, -1, -3
1503609581126,-0.604,-0.359,+0.364,+0.612,+0.912,+0.010,-0.472,+2.750,+4.812,-2.000,-13, -14, -14, -1, 1, 0, -1, -2
1503609581150,-0.604,-0.359,+0.363,+0.612,+0.902,+0.001,-0.449,+5.438,+0.438,+0.250,-17, -8, 17, 6, 1, 0, 2, -7
1503609581170,-0.605,-0.359,+0.362,+0.612,+0.911,+0.004,-0.406,+2.875,-5.125,+0.375,0, -5, -7, -8, -2, -2, -1, -4
1503609581187,-0.605,-0.359,+0.362,+0.612,+0.903,+0.012,-0.405,-0.312,-0.375,+0.062,-5, -3, -7, -2, -4, -3, -6, -13
1503609581208,-0.604,-0.360,+0.362,+0.612,+0.869,+0.022,-0.449,-0.375,+3.938,+1.688,8, -2, -3, 0, -1, 1, 4, 9
1503609581230,-0.604,-0.361,+0.362,+0.611,+0.864,+0.019,-0.476,+5.062,+6.500,+2.688,11, -16, -5, -3, -2, 1, 7, 27
1503609581247,-0.605,-0.362,+0.361,+0.610,+0.893,-0.020,-0.440,+7.562,+3.750,-0.188,-14, -4, -8, -4, -1, 1, 0, -1
1503609581268,-0.605,-0.363,+0.361,+0.610,+0.947,-0.019,-0.391,+1.125,-0.938,+0.812,2, 15, 4, 2, 4, 0, -3, 0
1503609581291,-0.604,-0.363,+0.361,+0.611,+0.917,-0.001,-0.407,-2.250,-4.625,+6.688,-3, -13, -9, -1, -1, -2, -10, -12
1503609581306,-0.604,-0.362,+0.359,+0.612,+0.863,+0.014,-0.473,-1.062,-8.062,+6.188,-2, -5, 3, -1, -3, -3, -5, -10
1503609581329,-0.605,-0.361,+0.358,+0.613,+0.847,-0.000,-0.454,+1.062,-9.062,-0.188,-11, -5, -7, -7, -5, -3, -3, -3
1503609581352,-0.606,-0.360,+0.357,+0.613,+0.875,-0.019,-0.418,-0.875,-5.938,-2.000,-1, 7, 6, 2, 2, 2, 5, 14
1503609581366,-0.605,-0.360,+0.358,+0.613,+0.886,+0.002,-0.418,-6.125,-0.938,+0.812,6, 0, 4, 2, -1, 1, 1, 3
1503609581389,-0.605,-0.359,+0.358,+0.614,+0.890,+0.021,-0.466,-7.062,-1.188,+3.625,17, 25, 10, 7, 2, 2, 2, 1
1503609581410,-0.604,-0.358,+0.358,+0.615,+0.888,+0.008,-0.457,-6.000,-6.812,+5.562,11, 5, 5, 7, 3, 1, 3, 8
1503609581426,-0.604,-0.357,+0.357,+0.617,+0.918,-0.006,-0.411,-8.625,-11.812,+8.188,-1, -7, -1, -4, -1, 0, -5, -22
1503609581450,-0.602,-0.356,+0.357,+0.619,+0.918,-0.003,-0.415,-11.312,-7.188,+10.812,-22, -21, -19, -9, -1, 1, -1, -2
1503609581470,-0.600,-0.355,+0.358,+0.621,+0.901,+0.006,-0.440,-14.062,-2.375,+13.000,10, 15, 10, 3, 2, -1, 1, 9
1503609581486,-0.598,-0.354,+0.358,+0.624,+0.894,+0.019,-0.475,-13.625,-3.000,+16.250,-6, -24, 13, 0, 0, 0, 4, 0
1503609581508,-0.596,-0.354,+0.357,+0.626,+0.916,-0.010,-0.472,-9.438,-6.000,+16.188,-15, 5, -13, -6, -5, -2, -7, -8
1503609581530,-0.595,-0.353,+0.356,+0.628,+0.905,-0.020,-0.452,-8.312,-8.875,+14.062,4, 1, 17, 4, 3, 3, 4, 5
1503609581552,-0.593,-0.352,+0.355,+0.631,+0.885,-0.035,-0.447,-8.812,-6.812,+14.812,1, 45, 40, 17, 5, 3, 4, 23
1503609581568,-0.591,-0.352,+0.355,+0.633,+0.861,-0.031,-0.458,-9.625,-1.250,+14.438,-8, -6, -8, -7, -4, -5, -5, -6
1503609581591,-0.589,-0.353,+0.355,+0.635,+0.887,-0.031,-0.440,-9.875,+2.688,+14.812,-10, -16, -27, -8, -3, -2, -6, -24
1503609581612,-0.586,-0.354,+0.356,+0.636,+0.915,-0.034,-0.456,-9.562,+6.062,+17.062,35, -3, -12, -4, -1, -2, 0, 16
1503609581634,-0.583,-0.354,+0.355,+0.639,+0.909,-0.042,-0.453,-7.562,+2.125,+19.875,-17, 3, 5, 4, 0, 0, 0, -9
1503609581651,-0.582,-0.355,+0.354,+0.641,+0.896,-0.040,-0.451,-4.875,-4.250,+15.938,13, -12, -11, -5, -2, -1, -1, 0
1503609581680,-0.580,-0.355,+0.353,+0.642,+0.902,-0.057,-0.458,-2.938,-6.188,+13.312,-4, -6, 0, 2, -1, -3, -3, -6
1503609581688,-0.579,-0.355,+0.351,+0.644,+0.882,-0.067,-0.463,-2.375,-5.688,+14.000,3, 23, -7, -4, -1, -1, 2, 9
1503609581711,-0.578,-0.356,+0.349,+0.646,+0.881,-0.067,-0.456,-1.125,-6.750,+18.312,9, -10, -16, -2, 2, 0, 2, 5
1503609581740,-0.575,-0.357,+0.348,+0.649,+0.888,-0.084,-0.451,+0.812,-2.312,+21.188,-4, -6, 9, 4, -6, -3, -2, -4
1503609581749,-0.573,-0.359,+0.346,+0.650,+0.885,-0.092,-0.465,+2.750,+1.375,+20.062,1, -10, 0, -2, -3, 0, 0, 1
1503609581770,-0.571,-0.361,+0.344,+0.652,+0.900,-0.102,-0.468,+5.062,+0.625,+20.375,-4, 3, 4, -2, -1, 0, -3, -1
1503609581792,-0.569,-0.364,+0.342,+0.654,+0.914,-0.111,-0.471,+6.625,-0.375,+24.500,1, -7, -9, -5, -1, -2, -4, -1
1503609583811,-0.570,-0.447,+0.409,+0.555,+1.006,-0.055,-0.191,-18.438,-14.375,+2.938,-22, -2, -2, 1, 1, 0, -2, 1
1503609583835,-0.570,-0.444,+0.410,+0.558,+0.989,-0.027,-0.183,-23.062,-17.812,+0.375,3, -6, 2, 0, 2, 0, -3, 4
1503609583855,-0.569,-0.440,+0.410,+0.560,+0.959,+0.002,-0.220,-21.875,-13.062,+3.375,4, -31, -19, -5, -5, 1, 3, 6
1503609583870,-0.568,-0.438,+0.410,+0.563,+0.945,-0.019,-0.242,-18.000,-13.000,+4.062,16, 13, 12, 7, 0, 0, -5, 2
1503609583892,-0.568,-0.435,+0.410,+0.566,+0.979,-0.048,-0.240,-18.875,-15.625,+2.750,-12, -19, -13, -8, -3, -2, -11, -9
1503609583915,-0.567,-0.432,+0.411,+0.568,+0.986,-0.054,-0.197,-22.625,-14.125,+2.312,2, -14, -12, -5, -1, 1, 5, 6
1503609583930,-0.566,-0.429,+0.412,+0.571,+0.996,-0.021,-0.230,-24.188,-8.875,+3.500,-20, 10, 12, 6, 1, -3, -2, -19
1503609583952,-0.564,-0.427,+0.413,+0.573,+0.983,+0.015,-0.277,-21.375,-8.125,+5.500,10, 12, 2, 0, -2, -2, -8, -12
1503609583975,-0.565,-0.423,+0.412,+0.576,+0.950,+0.011,-0.285,-15.125,-19.375,+6.875,3, -1, -2, 1, 1, 1, 5, 15
1503609583990,-0.565,-0.420,+0.410,+0.579,+0.964,-0.034,-0.253,-12.562,-24.750,+4.062,-5, 3, 1, -1, 2, 0, 1, 1
1503609584012,-0.565,-0.418,+0.409,+0.582,+0.965,-0.043,-0.238,-13.938,-20.375,+1.062,5, 0, -1, -2, -3, -1, 0, -4
1503609584035,-0.565,-0.415,+0.409,+0.584,+0.944,-0.008,-0.299,-14.062,-15.688,+3.250,-3, 2, 7, 2, -2, -3, 0, -1
1503609584050,-0.566,-0.412,+0.408,+0.586,+0.920,+0.025,-0.311,-11.188,-15.688,+2.438,11, 11, -2, -2, 1, 1, 1, 1
1503609584072,-0.566,-0.410,+0.407,+0.588,+0.939,+0.013,-0.296,-8.062,-13.938,+1.750,13, -1, 3, 1, -4, -6, -14, 3
1503609584095,-0.566,-0.408,+0.407,+0.589,+0.950,-0.013,-0.291,-7.688,-8.688,+4.875,-11, -7, 3, -3, 2, -1, 2, -23
1503609584110,-0.566,-0.407,+0.406,+0.591,+0.946,-0.022,-0.294,-9.062,-8.938,+4.875,-4, -8, -9, -1, 0, 0, -2, -4
1503609584132,-0.566,-0.406,+0.406,+0.592,+0.942,-0.003,-0.305,-9.000,-7.875,+3.875,-2, -3, 8, 5, 1, 1, 4, 7
1503609584155,-0.565,-0.405,+0.406,+0.593,+0.945,+0.005,-0.289,-7.375,-4.688,+1.750,-5, -2, -5, -5, -1, -2, 1, 4
1503609584170,-0.565,-0.404,+0.406,+0.594,+0.958,-0.011,-0.299,-6.375,-4.500,+4.500,17, 4, 6, 2, 0, 0, 0, 10
1503609584192,-0.564,-0.403,+0.405,+0.596,+0.962,-0.014,-0.313,-6.812,-5.875,+10.062,-2, -39, -16, -3, -4, -5, 1, 8
1503609584208,-0.563,-0.403,+0.404,+0.598,+0.957,-0.015,-0.310,-7.438,-7.750,+9.312,18, 2, -9, 1, 0, 1, 1, 0
1503609584238,-0.563,-0.402,+0.404,+0.599,+0.957,-0.019,-0.297,-7.562,-7.812,+6.375,-5, 6, 5, -3, -1, -1, -1, -8
1503609584260,-0.562,-0.401,+0.403,+0.601,+0.976,-0.024,-0.295,-7.562,-8.000,+10.125,15, -3, 3, -2, 2, 1, 2, 29
1503609584270,-0.560,-0.400,+0.402,+0.603,+0.975,-0.034,-0.308,-8.000,-8.625,+12.125,2, 6, 7, 1, 0, -1, -4, -12
1503609584290,-0.560,-0.399,+0.401,+0.605,+0.955,-0.029,-0.307,-8.625,-11.562,+12.000,2, 26, 2, -1, -3, -2, -5, -33
1503609584312,-0.559,-0.398,+0.400,+0.608,+0.958,-0.027,-0.302,-8.938,-12.062,+12.438,8, 0, 3, 2, 0, 2, 1, 10
1503609584335,-0.557,-0.397,+0.399,+0.610,+0.944,-0.037,-0.311,-8.812,-11.375,+12.125,-5, 1, 8, 7, 1, -2, -2, 3
1503609584350,-0.557,-0.396,+0.397,+0.613,+0.939,-0.051,-0.331,-8.438,-11.812,+10.750,-13, -27, -23, -5, -5, -1, 1, -24
1503609584373,-0.556,-0.395,+0.396,+0.615,+0.934,-0.050,-0.319,-9.312,-12.625,+12.375,-15, -5, -4, -3, -2, 0, -3, -19
1503609584395,-0.554,-0.394,+0.395,+0.618,+0.946,-0.027,-0.320,-10.750,-12.438,+16.875,17, 7, 3, 1, 4, 1, 3, 20
1503609584410,-0.552,-0.393,+0.393,+0.621,+0.939,-0.022,-0.327,-9.125,-11.062,+18.125,-12, 17, 14, 1, -1, -2, -4, 1
1503609584432,-0.551,-0.393,+0.391,+0.624,+0.946,-0.038,-0.361,-4.938,-11.375,+18.438,10, -6, -14, -9, -1, -1, -2, 10
1503609584454,-0.550,-0.393,+0.388,+0.627,+0.953,-0.061,-0.354,-3.500,-14.375,+21.438,-4, -6, -6, -4, -1, -4, -2, 4
1503609584475,-0.548,-0.392,+0.385,+0.630,+0.950,-0.062,-0.341,-4.688,-16.562,+25.375,14, 12, 0, -1, -1, 1, 4, 27
1503609584493,-0.546,-0.392,+0.383,+0.634,+0.936,-0.062,-0.336,-5.875,-14.750,+26.375,0, -15, 3, 2, 2, 0, -6, -13
1503609584515,-0.543,-0.392,+0.380,+0.637,+0.938,-0.057,-0.359,-4.625,-11.125,+28.062,-5, 1, -2, 0, -1, 1, 10, 8
1503609584529,-0.541,-0.394,+0.377,+0.640,+0.941,-0.073,-0.378,-0.062,-7.438,+30.688,4, -3, -6, -2, -1, -1, 0, 6
1503609584552,-0.538,-0.395,+0.374,+0.644,+0.953,-0.101,-0.363,+1.188,-10.375,+32.562,-20, -15, -7, -4, 0, 1, -2, -11
1503609584575,-0.535,-0.396,+0.371,+0.648,+0.956,-0.106,-0.348,-1.375,-13.750,+34.438,8, -9, -4, -4, -3, -4, -10, 2
1503609584589,-0.532,-0.397,+0.367,+0.652,+0.933,-0.119,-0.352,-3.062,-15.438,+34.500,4, 3, 6, 9, 0, -2, -3, -7
1503609586811,-0.467,-0.360,+0.425,+0.687,+0.937,-0.091,-0.295,-29.438,-14.500,-0.312,-9, -2, 0, 5, 0, -4, -6, -12
1503609586833,-0.466,-0.356,+0.426,+0.689,+0.908,-0.042,-0.347,-25.688,-11.812,+5.438,6, 6, -3, -2, -2, -3, -6, -21
1503609586855,-0.466,-0.352,+0.425,+0.692,+0.914,-0.075,-0.351,-19.625,-15.312,-0.188,14, 7, 14, 4, 0, 0, 4, 18
1503609586871,-0.466,-0.348,+0.425,+0.694,+0.939,-0.125,-0.320,-22.000,-19.188,-6.500,-23, -11, 8, 4, -2, -1, 5, 2
1503609586893,-0.465,-0.344,+0.425,+0.696,+0.940,-0.109,-0.326,-26.125,-18.812,-5.062,-5, -8, -2, -2, 0, 0, -2, 2
1503609586914,-0.465,-0.339,+0.426,+0.698,+0.933,-0.051,-0.394,-28.500,-13.625,-5.500,19, 28, 10, 2, 1, 1, 1, 11
1503609586931,-0.466,-0.333,+0.427,+0.700,+0.902,-0.009,-0.394,-26.562,-16.625,-9.375,-1, 8, 15, 0, 0, -1, -1, -3
1503609586956,-0.467,-0.328,+0.427,+0.702,+0.890,-0.006,-0.382,-21.875,-20.375,-10.938,8, 2, -7, 2, 2, 0, 0, 3
1503609586975,-0.468,-0.324,+0.427,+0.703,+0.906,-0.012,-0.403,-15.625,-14.562,-7.062,-2, 16, -2, -3, 0, 1, 1, 3
1503609586993,-0.469,-0.321,+0.426,+0.704,+0.901,-0.032,-0.445,-12.125,-8.688,-4.500,-5, -2, -4, 0, 1, -1, -4, -11
1503609587013,-0.469,-0.318,+0.426,+0.705,+0.882,-0.049,-0.396,-11.750,-12.438,-3.812,-9, 10, 6, 2, -1, -1, -1, -2
1503609587035,-0.468,-0.317,+0.426,+0.706,+0.902,-0.046,-0.373,-12.750,-6.250,-0.500,-1, 16, 14, 1, 0, -1, -1, 0
1503609587051,-0.467,-0.316,+0.427,+0.707,+0.912,-0.035,-0.401,-11.875,+5.438,+5.000,-17, -17, -4, 3, 1, 1, -3, 4
1503609587073,-0.465,-0.316,+0.428,+0.708,+0.924,-0.048,-0.413,-8.125,+4.625,+6.750,-7, 2, -3, -4, -2, 0, -3, -5
1503609587096,-0.465,-0.316,+0.427,+0.708,+0.930,-0.078,-0.408,-4.688,-2.875,+3.250,7, 4, 0, -2, 2, -1, 5, 6
1503609587111,-0.464,-0.315,+0.427,+0.709,+0.929,-0.077,-0.367,-5.312,-5.250,+1.062,2, -1, 4, -1, 2, 2, 7, 2
1503609587133,-0.464,-0.315,+0.427,+0.709,+0.927,-0.059,-0.357,-7.438,-3.250,-0.750,-4, 15, 3, -3, -2, -2, -4, -11
1503609587157,-0.463,-0.314,+0.428,+0.709,+0.931,-0.042,-0.389,-8.812,+2.250,+0.062,3, -8, -3, -2, -1, -4, -6, -3
1503609587171,-0.462,-0.314,+0.429,+0.709,+0.912,-0.045,-0.407,-4.625,+8.250,+4.000,6, 6, -6, -3, -1, -3, 0, 9
1503609587194,-0.461,-0.316,+0.430,+0.709,+0.943,-0.062,-0.409,-0.812,+11.125,+5.562,-7, -5, -3, -3, 1, 0, 2, -1
1503609587215,-0.460,-0.317,+0.431,+0.709,+0.962,-0.058,-0.379,-1.625,+5.062,+6.750,-4, -9, -10, -8, -5, -1, 0, -1
1503609587232,-0.459,-0.317,+0.430,+0.710,+0.962,-0.041,-0.355,-1.375,-6.875,+5.062,11, -5, -3, -3, -3, -2, 1, 14
1503609587253,-0.461,-0.315,+0.428,+0.711,+0.943,-0.037,-0.370,-0.375,-17.125,-0.812,4, 11, 2, -2, -1, -3, -6, -17
1503609587275,-0.462,-0.314,+0.426,+0.711,+0.912,-0.037,-0.418,+2.562,-17.062,-3.312,-15, 18, 19, 7, 1, 4, 6, 4
1503609587291,-0.464,-0.314,+0.424,+0.712,+0.854,-0.042,-0.424,+4.125,-7.812,-1.188,9, -8, -3, 0, 1, -1, 1, 14
1503609587313,-0.465,-0.313,+0.423,+0.712,+0.853,-0.042,-0.388,+2.188,-7.938,-4.875,7, 4, 4, 3, 2, 2, 2, 7
1503609587335,-0.466,-0.312,+0.423,+0.711,+0.912,-0.029,-0.382,-1.938,-5.750,-9.000,-4, 0, -5, -2, -5, -2, 0, -9
1503609587351,-0.467,-0.311,+0.423,+0.712,+0.906,-0.050,-0.411,-2.750,-4.875,-3.875,-1, -5, -6, -5, -4, -1, 0, -4
1503609587373,-0.466,-0.310,+0.422,+0.713,+0.900,-0.064,-0.417,-6.188,-11.500,+5.750,-9, -1, 2, 2, 6, 1, 1, 1
1503609587395,-0.465,-0.308,+0.420,+0.716,+0.920,-0.058,-0.390,-11.188,-17.062,+9.688,-2, -2, -4, -3, -4, -2, -4, -17
1503609587417,-0.464,-0.307,+0.419,+0.718,+0.912,-0.039,-0.393,-12.250,-10.688,+9.875,-1, -1, 6, 6, 2, 0, -1, 4
1503609587433,-0.462,-0.306,+0.419,+0.719,+0.905,-0.043,-0.412,-10.250,-6.250,+9.750,-7, -16, -7, -1, -1, -1, -2, -8
1503609587455,-0.461,-0.305,+0.418,+0.721,+0.939,-0.051,-0.419,-10.188,-8.250,+11.938,0, -6, -16, -8, -6, -1, 1, 3
1503609587484,-0.458,-0.305,+0.417,+0.723,+0.960,-0.054,-0.424,-10.375,-7.688,+16.438,-4, -9, 3, 3, 3, -1, -7, -14
1503609587493,-0.456,-0.304,+0.416,+0.725,+0.934,-0.029,-0.425,-8.312,-7.812,+16.125,-13, 1, 1, -2, -1, 0, -3, -23
1503609590559,-0.517,-0.353,+0.423,+0.655,+0.927,+0.012,-0.363,-10.625,+3.500,+14.750,5, -5, 11, 7, 2, -1, -1, -3
1503609590574,-0.516,-0.353,+0.423,+0.656,+0.942,+0.020,-0.345,-5.562,-1.625,+9.938,-3, 3, -3, -5, -2, -1, -6, -18
1503609590597,-0.516,-0.352,+0.423,+0.657,+0.938,-0.012,-0.336,-2.250,-2.500,+3.688,-4, -2, -5, -2, -3, -1, 1, -12
1503609590615,-0.516,-0.352,+0.423,+0.657,+0.908,-0.023,-0.346,-2.812,-2.250,-0.375,-1, -6, -7, -3, -2, -1, 0, 17
1503609590635,-0.516,-0.351,+0.422,+0.657,+0.915,+0.000,-0.386,-2.125,-4.500,-1.875,0, -3, -17, -14, -4, -2, 2, 9
1503609590657,-0.517,-0.351,+0.421,+0.657,+0.928,-0.004,-0.400,+3.062,-1.938,+0.438,-5, -20, -12, -4, -5, -4, -5, -6
1503609590673,-0.518,-0.351,+0.420,+0.658,+0.914,-0.027,-0.359,+4.375,-4.812,+1.938,2, 14, 17, 8, 4, 0, 5, 11
1503609590695,-0.518,-0.351,+0.419,+0.658,+0.912,-0.037,-0.331,+1.250,-5.500,-0.875,12, 16, 4, -1, -1, 1, -1, 12
1503609590720,-0.519,-0.350,+0.419,+0.657,+0.906,-0.017,-0.339,-0.125,-5.250,-5.250,-16, -7, -4, 0, -2, -1, -5, -5
1503609590733,-0.520,-0.350,+0.419,+0.657,+0.916,+0.004,-0.375,+0.688,-4.312,-3.125,3, 1, 9, 3, -2, -3, -5, 11
1503609590755,-0.520,-0.350,+0.418,+0.657,+0.922,-0.017,-0.390,+3.750,-0.188,+3.188,0, 4, 12, 11, 6, 4, -1, -6
1503609590777,-0.520,-0.351,+0.417,+0.658,+0.912,-0.043,-0.355,+3.500,-1.312,+5.438,0, -12, -21, -10, -2, -1, -9, -14
1503609590793,-0.520,-0.351,+0.416,+0.658,+0.921,-0.030,-0.329,+1.188,-3.938,+0.250,-13, -3, 1, -1, -1, 1, 4, 2
1503609590817,-0.521,-0.351,+0.416,+0.658,+0.942,-0.006,-0.346,-0.812,-3.750,-2.500,10, 12, -1, -3, -3, -3, -3, -5
1503609590837,-0.521,-0.351,+0.416,+0.658,+0.933,-0.017,-0.375,-0.438,+0.125,+1.375,-3, -4, 1, 2, 0, 1, 3, 0
1503609590854,-0.521,-0.351,+0.416,+0.658,+0.912,-0.008,-0.362,-1.250,-2.938,+4.188,-16, -22, -17, -12, -3, -3, 0, 3
1503609590875,-0.521,-0.350,+0.416,+0.658,+0.931,+0.010,-0.353,-1.375,-2.562,+3.125,3, -22, -4, 0, 0, -1, -1, 2
1503609590897,-0.520,-0.351,+0.416,+0.658,+0.947,-0.001,-0.376,-0.062,+3.000,+4.312,-21, -2, 3, 5, -3, -1, 0, -9
1503609590913,-0.519,-0.352,+0.415,+0.659,+0.952,-0.030,-0.386,+1.625,+3.875,+10.125,9, -1, -6, -5, -3, -1, 3, 11
1503609590935,-0.518,-0.353,+0.414,+0.660,+0.955,-0.040,-0.363,-1.000,-3.625,+14.625,0, -1, 1, -1, 0, 1, 5, 30
1503609590957,-0.516,-0.353,+0.413,+0.662,+0.954,-0.029,-0.340,-2.438,-5.750,+12.688,11, 11, -3, 0, -2, -2, -1, 1
1503609590973,-0.515,-0.354,+0.412,+0.663,+0.927,-0.025,-0.365,-0.938,-0.188,+13.125,-12, -20, 5, -6, -6, -2, -2, -6
1503609590995,-0.514,-0.355,+0.412,+0.664,+0.901,-0.031,-0.375,+1.562,+2.938,+13.125,-4, -13, -19, -4, -4, -3, -13, -11
1503609591017,-0.512,-0.357,+0.411,+0.664,+0.933,-0.036,-0.365,+2.188,+2.188,+12.625,-11, 5, 3, -1, -2, -3, 3, -8
1503609591039,-0.511,-0.358,+0.410,+0.665,+0.941,-0.052,-0.359,+2.438,+3.688,+14.562,19, -13, -27, -7, -3, -2, 5, 18
1503609591055,-0.510,-0.360,+0.409,+0.666,+0.935,-0.065,-0.350,+0.938,-0.750,+12.812,2, 33, 28, 8, 4, 0, 0, -6
1503609591077,-0.508,-0.360,+0.408,+0.667,+0.928,-0.062,-0.354,-1.562,-2.750,+10.188,0, 5, -6, 2, 3, 0, -1, -3
1503609591100,-0.507,-0.361,+0.407,+0.668,+0.925,-0.067,-0.356,-1.625,-4.562,+12.250,-8, -20, -7, -3, -3, 0, -6, -3
1503609591117,-0.506,-0.361,+0.406,+0.670,+0.940,-0.061,-0.378,-2.500,-7.875,+15.625,-4, -8, -2, -1, 1, 0, 6, 7
1503609591137,-0.505,-0.360,+0.403,+0.672,+0.914,-0.051,-0.350,-2.562,-13.625,+13.938,-8, -3, -2, -4, -4, -2, -4, -6
1503609591160,-0.504,-0.360,+0.402,+0.674,+0.909,-0.069,-0.354,-1.312,-10.875,+13.438,-7, 0, 5, 3, 1, 2, 0, -7
1503609591175,-0.502,-0.361,+0.401,+0.676,+0.906,-0.113,-0.349,-3.812,-2.375,+14.875,-5, -12, 1, -1, 0, -1, 0, -5
1503609591197,-0.500,-0.362,+0.400,+0.678,+0.952,-0.109,-0.357,-9.000,-1.312,+17.312,4, -2, 2, 7, 1, 0, 0, 4
1503609591220,-0.497,-0.362,+0.399,+0.680,+0.959,-0.067,-0.366,-9.875,-7.312,+21.625,7, 12, 1, -1, -3, 0, 1, 8
1503609591235,-0.495,-0.361,+0.397,+0.683,+0.926,-0.062,-0.398,-6.250,-14.000,+23.250,-16, -22, 1, -1, -1, 0, 7, 5
1503609591257,-0.493,-0.361,+0.394,+0.687,+0.911,-0.102,-0.393,-3.312,-13.812,+23.875,8, 8, -3, -7, 0, -2, 1, -1
1503609591279,-0.491,-0.362,+0.391,+0.690,+0.923,-0.143,-0.394,-1.562,-10.188,+27.125,2, -5, 1, 5, 2, -3, -9, -13
1503609591295,-0.487,-0.364,+0.388,+0.693,+0.935,-0.161,-0.392,-2.312,-5.938,+31.375,2, 4, -1, -2, 2, -2, -4, 4
1503609591319,-0.483,-0.366,+0.386,+0.696,+0.938,-0.156,-0.397,-3.188,-3.438,+32.812,7, 7, -4, -4, -2, 1, 5, 3
1503609591339,-0.479,-0.367,+0.383,+0.699,+0.927,-0.135,-0.396,-1.688,-5.062,+33.562,2, -7, -2, -1, -1, -2, 3, 9
1503609591355,-0.476,-0.370,+0.381,+0.701,+0.922,-0.136,-0.385,+1.875,-1.875,+32.438,6, 14, -3, -2, -2, -1, 4, 11
1503609591377,-0.473,-0.373,+0.378,+0.703,+0.911,-0.165,-0.388,+6.625,-0.938,+31.875,-9, -6, 4, 4, -2, 0, 1, 2
1503609591399,-0.469,-0.376,+0.375,+0.706,+0.915,-0.201,-0.383,+8.375,-3.312,+32.312,9, 6, -5, -9, -1, 1, 1, 0
1503609591415,-0.466,-0.379,+0.371,+0.708,+0.909,-0.217,-0.371,+6.750,-6.375,+33.688,-18, -16, -15, -8, -3, -2, -1, -36
1503609591437,-0.462,-0.382,+0.368,+0.711,+0.900,-0.219,-0.376,+4.312,-5.438,+36.562,-1, -7, 4, -1, 0, -1, -1, 5
1503609595518,-0.598,-0.413,+0.366,+0.581,+0.943,-0.042,-0.337,-6.000,-9.625,+1.062,3, 3, -2, -1, -2, -1, 0, -2
1503609595539,-0.598,-0.411,+0.366,+0.583,+0.941,-0.040,-0.345,-8.625,-11.875,+5.250,-2, 4, 2, 1, 0, 2, 1, -2
1503609595562,-0.598,-0.409,+0.365,+0.585,+0.920,-0.027,-0.385,-8.250,-11.562,+7.312,0, -11, -3, 2, 1, 0, 2, 4
1503609595577,-0.598,-0.408,+0.363,+0.586,+0.888,-0.019,-0.391,-3.000,-10.562,+6.625,9, -6, -9, -4, -3, -2, -1, 3
1503609595599,-0.599,-0.408,+0.362,+0.587,+0.888,-0.051,-0.361,-0.625,-6.438,+3.812,1, -2, 3, 3, 2, -2, 1, 6
1503609595621,-0.598,-0.408,+0.362,+0.587,+0.923,-0.058,-0.337,-3.500,+0.438,+2.625,4, 13, 1, 1, 1, 2, 0, 1
1503609595637,-0.597,-0.408,+0.362,+0.588,+0.943,-0.035,-0.346,-5.938,-0.625,+5.000,-16, 8, 5, 1, 0, -1, -2, -2
1503609595659,-0.597,-0.407,+0.362,+0.589,+0.933,-0.028,-0.375,-5.062,-4.438,+5.375,-1, -14, -9, -5, -2, 1, -4, -4
1503609595683,-0.597,-0.406,+0.361,+0.590,+0.910,-0.037,-0.382,-2.688,-5.750,+1.812,-4, -6, 8, 9, 0, 0, -1, -1
1503609595697,-0.598,-0.406,+0.361,+0.590,+0.910,-0.040,-0.352,-0.812,-3.812,-1.188,3, -10, -3, -5, -5, -1, -1, 0
1503609595719,-0.598,-0.406,+0.362,+0.589,+0.911,-0.034,-0.354,-1.188,+3.125,-2.938,4, 11, 6, -2, -2, -1, -2, -1
1503609595750,-0.598,-0.406,+0.362,+0.589,+0.934,-0.014,-0.361,-1.625,+4.375,-2.188,9, 8, -10, -12, -4, -2, -1, 2
1503609595764,-0.598,-0.406,+0.363,+0.588,+0.937,-0.010,-0.374,+1.000,+0.875,+0.000,-2, 3, 0, -1, 1, -1, -3, -3
1503609595779,-0.598,-0.406,+0.362,+0.588,+0.935,-0.036,-0.364,+2.688,-0.688,-0.438,11, 5, 5, 5, 1, -1, 0, -3
1503609595801,-0.599,-0.407,+0.362,+0.588,+0.931,-0.043,-0.354,+2.000,+0.688,-1.688,-16, -4, 1, -1, 1, -2, -3, -5
1503609595817,-0.599,-0.407,+0.362,+0.587,+0.941,-0.038,-0.360,+0.562,-1.500,-1.750,-9, 0, -1, -1, 0, 0, 2, -1
1503609595839,-0.599,-0.406,+0.362,+0.587,+0.942,-0.045,-0.354,-0.375,-3.562,+0.875,-3, -6, 1, 2, 2, 0, 0, 3
1503609595861,-0.599,-0.406,+0.361,+0.588,+0.937,-0.043,-0.343,-2.875,-2.938,+3.438,1, 3, 7, 4, -3, 0, -1, -1
1503609595877,-0.598,-0.406,+0.362,+0.589,+0.929,-0.034,-0.351,-3.562,+0.625,+4.938,-6, -6, -2, -4, 0, 0, -2, -5
1503609595899,-0.598,-0.406,+0.362,+0.589,+0.937,-0.027,-0.363,-3.250,-0.625,+4.125,4, -11, -7, 0, 0, -1, 0, 2
1503609595922,-0.597,-0.406,+0.361,+0.590,+0.939,-0.036,-0.372,-2.562,-3.812,+4.750,5, -3, -4, -4, 0, -1, -1, 1
1503609595937,-0.598,-0.405,+0.360,+0.591,+0.929,-0.037,-0.368,-2.500,-8.688,+4.000,-1, -3, -4, -2, -3, -2, 0, -1
1503609595960,-0.598,-0.404,+0.359,+0.592,+0.912,-0.044,-0.367,-2.812,-8.750,+2.688,-4, 5, 1, 2, 0, -2, 3, 5
1503609595981,-0.598,-0.403,+0.358,+0.593,+0.900,-0.047,-0.357,-3.812,-11.125,+3.875,-1, -9, 0, 3, 0, 1, -1, -1
1503609595997,-0.598,-0.402,+0.357,+0.595,+0.921,-0.044,-0.356,-6.188,-12.438,+8.000,7, -15, 0, 1, -1, 0, -4, -3
1503609596019,-0.597,-0.401,+0.356,+0.597,+0.915,-0.043,-0.372,-8.688,-9.875,+9.500,6, 13, -5, -4, -5, -3, -4, -5
1503609596041,-0.596,-0.400,+0.356,+0.599,+0.897,-0.042,-0.388,-9.750,-8.438,+9.188,5, -3, -1, 0, -1, 0, -1, -4
1503609596057,-0.595,-0.398,+0.355,+0.601,+0.924,-0.040,-0.378,-9.625,-12.188,+11.250,-11, 10, 9, -1, 1, -1, -5, -12
1503609596079,-0.594,-0.396,+0.353,+0.604,+0.945,-0.057,-0.376,-11.938,-15.875,+13.938,2, 7, 6, 0, -1, 0, 4, 2
1503609596101,-0.593,-0.395,+0.352,+0.607,+0.936,-0.062,-0.390,-14.750,-15.438,+16.375,6, 3, -5, -1, -3, 0, 0, 7
1503609596119,-0.591,-0.392,+0.351,+0.611,+0.913,-0.049,-0.404,-16.875,-15.125,+16.938,7, 8, -4, -7, -2, -3, -1, -6
1503609596139,-0.590,-0.390,+0.350,+0.614,+0.895,-0.019,-0.411,-15.250,-11.688,+16.688,-10, -6, -2, 2, -3, 0, 1, 2
1503609596161,-0.588,-0.389,+0.350,+0.617,+0.915,-0.047,-0.412,-11.312,-8.812,+16.062,-9, -2, 0, 3, 4, 0, -1, 1
1503609596177,-0.586,-0.389,+0.348,+0.620,+0.933,-0.066,-0.433,-9.438,-7.250,+18.625,-8, -3, 13, 6, 3, 1, -1, 2
1503609596199,-0.584,-0.388,+0.347,+0.622,+0.917,-0.075,-0.417,-8.812,-8.000,+19.562,-3, -2, -18, -15, -6, -4, -3, -5
1503609596222,-0.582,-0.388,+0.346,+0.625,+0.905,-0.066,-0.412,-9.625,-8.000,+19.062,13, 4, -1, -8, -4, -1, 2, 12
1503609596237,-0.580,-0.387,+0.345,+0.628,+0.897,-0.065,-0.415,-7.938,-3.562,+18.250,-5, -3, -2, 2, -1, 1, -1, -2
1503609596260,-0.578,-0.388,+0.344,+0.630,+0.891,-0.088,-0.424,-5.312,-0.688,+15.875,-6, -5, -1, 4, 3, 1, -1, -5
1503609596282,-0.576,-0.388,+0.344,+0.632,+0.902,-0.098,-0.427,-6.062,+0.000,+16.500,6, -1, 0, 3, 3, 1, 1, 3
1503609596298,-0.574,-0.389,+0.343,+0.634,+0.910,-0.096,-0.417,-6.125,-0.062,+17.500,0, -4, 0, -4, -2, -3, -2, 1
1503609596321,-0.572,-0.389,+0.342,+0.636,+0.912,-0.100,-0.418,-5.688,-1.312,+18.438,-7, 2, 4, 4, 1, -1, 0, 0
1503609596341,-0.570,-0.390,+0.341,+0.638,+0.891,-0.102,-0.419,-5.375,-1.062,+17.625,-6, -3, -3, -9, -6, -4, -3, -11
1503609596359,-0.568,-0.390,+0.341,+0.639,+0.887,-0.100,-0.419,-4.125,+1.188,+16.688,3, 0, -2, 6, 1, 1, 2, 9
1503609596380,-0.566,-0.391,+0.340,+0.641,+0.888,-0.112,-0.417,-1.938,+1.375,+16.188,1, -1, -7, -5, -4, -2, 0, 0
1503609596402,-0.564,-0.392,+0.339,+0.643,+0.904,-0.127,-0.417,-2.625,+1.250,+15.812,-3, 3, -5, -3, 0, 0, 1, -4
1503609596418,-0.562,-0.393,+0.338,+0.644,+0.899,-0.128,-0.412,-4.812,-0.625,+18.438,-19, -21, -4, -2, 0, 1, -2, 0
1503609596440,-0.560,-0.394,+0.337,+0.647,+0.888,-0.127,-0.413,-5.312,-1.375,+20.312,-7, 15, -2, -2, -2, -2, -1, -7
1503609596462,-0.557,-0.394,+0.336,+0.649,+0.883,-0.133,-0.425,-4.688,+0.188,+18.000,3, -2, 0, -2, -1, 1, -1, 4
1503609596478,-0.555,-0.395,+0.335,+0.650,+0.890,-0.134,-0.437,-3.625,+3.125,+16.875,4, 6, 11, 3, 3, 0, -1, -6
1503609596500,-0.553,-0.396,+0.335,+0.652,+0.911,-0.141,-0.419,-1.875,+1.625,+16.250,-2, -1, 1, 3, -2, -1, 1, -2
1503609596524,-0.552,-0.397,+0.334,+0.653,+0.908,-0.143,-0.402,-2.250,-3.062,+16.062,-2, 10, 1, 4, 1, 0, -1, -3
1503609596538,-0.550,-0.397,+0.332,+0.655,+0.884,-0.143,-0.413,-2.188,-6.312,+16.438,9, 3, -9, -6, -4, -4, -5, -10
1503609596560,-0.549,-0.397,+0.330,+0.657,+0.873,-0.160,-0.419,-1.125,-4.125,+15.875,9, -4, -1, 0, 1, 0, 3, 10
1503609596581,-0.547,-0.399,+0.330,+0.658,+0.875,-0.171,-0.415,-1.500,+2.500,+15.375,2, 16, 0, 1, -1, 2, 0, 0
1503609596598,-0.545,-0.400,+0.329,+0.660,+0.896,-0.167,-0.415,-2.188,+4.688,+16.125,-19, -14, -3, -3, -4, -4, -2, -5
1503609596622,-0.543,-0.401,+0.328,+0.661,+0.893,-0.166,-0.420,-1.062,+2.062,+14.750,2, 18, 8, -1, -2, 1, 0, 5
1503609596641,-0.542,-0.402,+0.327,+0.662,+0.894,-0.181,-0.416,-0.312,-2.250,+12.250,-2, -14, -9, -3, -1, -2, -1, 3
1503609596658,-0.540,-0.402,+0.326,+0.663,+0.899,-0.193,-0.405,-1.750,-4.062,+12.188,4, 7, 8, 3, 2, 2, 3, 4
1503609596680,-0.539,-0.403,+0.325,+0.664,+0.893,-0.198,-0.408,-1.250,-2.625,+10.062,-12, -4, -6, -3, -4, -4, -3, -10
1503609596701,-0.538,-0.403,+0.325,+0.665,+0.885,-0.205,-0.404,-1.188,+0.500,+8.000,-4, -5, 0, -1, 1, 0, 1, 0
1503609596718,-0.537,-0.404,+0.324,+0.666,+0.906,-0.206,-0.407,-1.062,+1.250,+7.750,1, 2, 7, 2, 1, 1, 1, -1
1503609596740,-0.536,-0.405,+0.324,+0.666,+0.901,-0.210,-0.414,-0.875,+0.562,+7.312,-1, 4, -1, -5, -2, 0, 3, 3
1503609596762,-0.535,-0.405,+0.323,+0.667,+0.879,-0.198,-0.438,-0.688,+1.500,+6.312,1, 3, 7, 3, 1, 2, 3, 2
1503609596778,-0.535,-0.406,+0.323,+0.667,+0.878,-0.195,-0.420,+0.938,+2.375,+4.188,-6, 1, 7, 6, 4, 1, -5, -5
1503609596800,-0.534,-0.407,+0.323,+0.667,+0.893,-0.203,-0.409,+1.625,+4.250,+3.438,13, 3, -7, -9, -5, -3, 1, 16
1503609596824,-0.533,-0.408,+0.323,+0.667,+0.888,-0.214,-0.409,+1.188,+6.750,+6.375,-9, -5, -17, -12, -5, -5, -2, 3
1503609596838,-0.532,-0.409,+0.323,+0.667,+0.889,-0.202,-0.426,-0.750,+5.438,+7.125,-3, 6, 3, 4, 0, 1, 1, 10
1503609596860,-0.531,-0.410,+0.323,+0.667,+0.889,-0.192,-0.429,-1.250,+4.812,+7.125,1, -3, 4, 4, -1, 1, 2, -11
1503609596881,-0.530,-0.411,+0.323,+0.668,+0.880,-0.180,-0.420,+0.250,+4.250,+7.812,36, 16, -2, -5, -4, -2, -5, -10
1503609596898,-0.529,-0.411,+0.323,+0.668,+0.872,-0.194,-0.408,+1.250,+2.375,+8.875,8, 2, 6, 2, 1, -1, 5, 21
1503609596920,-0.528,-0.412,+0.322,+0.669,+0.880,-0.211,-0.401,-0.500,+0.750,+9.250,-15, -7, 0, -2, -1, -3, -2, -20
1503609596941,-0.527,-0.413,+0.322,+0.670,+0.884,-0.217,-0.390,-2.438,+2.625,+10.750,-21, -14, 4, 6, 1, 0, -5, -16
1503609596959,-0.525,-0.414,+0.322,+0.671,+0.880,-0.205,-0.388,-3.562,+2.938,+12.438,-7, -5, -3, -2, -1, -1, 0, -5
1503609596980,-0.523,-0.414,+0.321,+0.672,+0.876,-0.208,-0.386,-3.812,+0.750,+12.875,35, 16, 1, -3, 0, 2, 4, 22
1503609597001,-0.522,-0.415,+0.320,+0.673,+0.872,-0.224,-0.385,-3.812,-2.812,+13.688,23, -11, 2, 8, -3, -2, -1, -6
1503609597018,-0.520,-0.415,+0.319,+0.675,+0.864,-0.233,-0.390,-4.375,-3.750,+17.000,-21, -8, -9, -5, -2, -1, 2, 3
1503609597040,-0.517,-0.415,+0.318,+0.677,+0.860,-0.229,-0.401,-6.500,-1.750,+18.000,-2, 2, -4, -4, 0, -1, -1, 5
1503609597062,-0.515,-0.416,+0.317,+0.679,+0.873,-0.230,-0.403,-6.500,-0.688,+17.562,-12, 2, 5, -1, -1, -2, -4, 0
1503609597078,-0.513,-0.416,+0.316,+0.681,+0.879,-0.253,-0.406,-4.562,+1.312,+17.812,-4, -2, -12, -11, -3, 2, 2, -5
1503609597101,-0.510,-0.417,+0.315,+0.683,+0.885,-0.264,-0.413,-4.188,+3.062,+17.250,-16, 7, 2, 0, 0, -1, -1, -5
1503609597121,-0.508,-0.418,+0.315,+0.684,+0.903,-0.268,-0.407,-4.000,+2.312,+15.750,-2, -2, -2, -2, -2, -1, -3, -4
1503609597138,-0.506,-0.419,+0.314,+0.685,+0.920,-0.267,-0.397,-3.125,-1.062,+15.750,-10, -15, -3, -3, -2, -1, -3, -3
1503609597160,-0.504,-0.420,+0.313,+0.687,+0.904,-0.265,-0.415,-1.125,-0.500,+16.875,-7, 1, -1, -2, 0, -1, -1, -2
1503609597182,-0.502,-0.421,+0.312,+0.688,+0.879,-0.258,-0.434,+0.625,+0.812,+16.688,7, 0, -4, 3, 2, 3, 2, 8
1503609597198,-0.501,-0.422,+0.310,+0.689,+0.862,-0.255,-0.429,+3.250,+2.688,+15.000,17, 9, 10, -1, -3, 1, -1, 3
1503609597220,-0.499,-0.424,+0.310,+0.689,+0.868,-0.253,-0.413,+6.250,+5.938,+14.562,-1, -10, -5, 6, 1, -2, -1, 5
1503609597242,-0.498,-0.426,+0.308,+0.690,+0.879,-0.259,-0.399,+6.562,+4.875,+15.875,-19, -30, -6, 0, 0, 0, -3, -6
1503609597260,-0.495,-0.428,+0.308,+0.690,+0.876,-0.260,-0.400,+3.688,+5.438,+18.125,7, 7, 2, 1, 2, 1, 1, 4
1503609597280,-0.493,-0.430,+0.307,+0.691,+0.862,-0.263,-0.412,+4.062,+5.062,+19.000,3, 15, -4, -2, -3, -2, -2, -8
1503609597302,-0.492,-0.432,+0.305,+0.692,+0.864,-0.275,-0.409,+6.812,+6.188,+16.250,-15, -5, 14, 5, 2, 0, 0, 9
1503609597318,-0.490,-0.434,+0.305,+0.692,+0.862,-0.287,-0.393,+7.125,+6.062,+14.062,9, -17, -10, -3, -3, -1, -5, -7
1503609597340,-0.488,-0.436,+0.304,+0.692,+0.869,-0.292,-0.377,+4.812,+3.812,+13.375,-1, 23, 4, 0, -1, -2, -1, 3
1503609597363,-0.487,-0.437,+0.303,+0.693,+0.856,-0.299,-0.383,+2.875,+2.938,+12.062,1, 3, -5, -5, -2, 0, 1, -1
1503609597384,-0.486,-0.438,+0.302,+0.693,+0.847,-0.303,-0.386,+2.500,+3.062,+10.625,5, 6, 1, -4, -2, -3, -1, 8
1503609597406,-0.484,-0.439,+0.301,+0.694,+0.833,-0.293,-0.397,+3.438,+4.375,+11.062,-2, 1, 1, 2, 1, 0, 1, -3
1503609597422,-0.483,-0.440,+0.300,+0.694,+0.818,-0.280,-0.404,+3.625,+1.688,+12.062,8, 13, -4, 3, 1, -1, -1, -4
1503609597444,-0.482,-0.441,+0.299,+0.696,+0.838,-0.278,-0.396,+0.250,-3.062,+14.562,6, -2, -5, -4, -5, -3, -2, -9
1503609597462,-0.481,-0.441,+0.298,+0.697,+0.848,-0.290,-0.385,-1.312,-1.812,+14.000,-1, 17, 6, -1, -1, -2, -1, 3
1503609597482,-0.479,-0.442,+0.297,+0.698,+0.857,-0.318,-0.370,-1.062,+0.062,+13.875,-5, -12, -1, 1, -1, 2, 0, -5
1503609597511,-0.478,-0.442,+0.297,+0.699,+0.872,-0.315,-0.380,-1.312,+0.688,+12.438,3, -6, 4, 1, 0, -1, -3, -15
1503609597520,-0.477,-0.443,+0.296,+0.699,+0.890,-0.319,-0.367,+1.062,-2.125,+8.500,-6, -6, -1, -1, -3, 0, -1, 3
1503609597542,-0.477,-0.444,+0.295,+0.699,+0.896,-0.358,-0.378,+2.250,-3.938,+5.125,6, 10, 3, -2, -1, 0, 0, 1
1503609597564,-0.477,-0.444,+0.294,+0.699,+0.902,-0.372,-0.364,+0.500,-3.688,+3.438,-7, -3, 1, 5, -1, -2, 1, 1
1503609597580,-0.477,-0.445,+0.294,+0.699,+0.882,-0.364,-0.365,+0.562,-1.438,+1.438,28, 3, -9, -5, -2, -3, -2, 13
1503609597602,-0.477,-0.445,+0.294,+0.699,+0.865,-0.346,-0.363,+3.000,-0.562,+0.188,-15, -8, -3, -3, -2, -2, -4, -4
1503609597624,-0.477,-0.446,+0.293,+0.698,+0.847,-0.341,-0.396,+4.000,+0.438,+0.750,-3, 6, 8, 2, 3, 1, 2, 1
1503609597640,-0.477,-0.446,+0.293,+0.698,+0.834,-0.349,-0.390,+2.812,-0.438,+1.000,-1, -2, 1, -3, 2, 0, -2, -7
1503609597664,-0.476,-0.447,+0.292,+0.698,+0.837,-0.343,-0.376,+1.625,+3.625,+4.250,-17, -10, -1, 1, -1, 0, 0, -7
1503609597684,-0.475,-0.449,+0.293,+0.698,+0.850,-0.343,-0.385,+1.688,+7.312,+7.188,-9, 4, -1, 0, 0, -1, -3, -10
1503609597700,-0.474,-0.450,+0.293,+0.698,+0.854,-0.332,-0.378,+2.375,+5.375,+7.250,4, 2, -8, -9, -3, -1, 0, 2
1503609597722,-0.474,-0.450,+0.292,+0.698,+0.868,-0.335,-0.372,+4.000,-2.375,+5.938,-3, 2, 3, -4, -2, 0, 1, 11
1503609597744,-0.474,-0.451,+0.290,+0.698,+0.871,-0.371,-0.358,+4.125,-4.750,+6.188,-2, -2, -5, -2, -1, -1, 0, -1
1503609597760,-0.473,-0.452,+0.289,+0.699,+0.862,-0.398,-0.367,+2.500,-3.312,+8.938,-1, -2, 5, 1, -2, -1, -2, -3
1503609597782,-0.472,-0.453,+0.287,+0.699,+0.860,-0.396,-0.372,+3.750,-1.938,+8.250,-1, -4, 1, 2, 1, 0, -1, 1
1503609597804,-0.471,-0.455,+0.287,+0.699,+0.850,-0.402,-0.378,+6.500,+4.688,+4.562,1, 18, 1, 0, -1, -2, -2, -4
1503609597827,-0.471,-0.457,+0.286,+0.699,+0.861,-0.404,-0.383,+6.938,+1.500,+3.188,-2, -14, -5, 1, -1, -2, -3, -4
1503609597842,-0.471,-0.458,+0.285,+0.698,+0.854,-0.393,-0.383,+6.625,-0.438,+5.375,2, -10, 3, 2, 1, 1, 3, 14
1503609597865,-0.470,-0.459,+0.283,+0.699,+0.816,-0.380,-0.380,+6.062,+0.875,+7.688,6, 8, 1, -1, -1, 2, 0, 0
1503609597880,-0.469,-0.460,+0.282,+0.699,+0.798,-0.367,-0.389,+5.562,-0.500,+8.812,-6, -11, -8, -4, -3, -3, -2, -11
1503609597902,-0.469,-0.461,+0.281,+0.699,+0.792,-0.342,-0.415,+6.062,+2.875,+8.500,-5, 1, -1, 0, 0, -1, -4, -7
1503609597924,-0.469,-0.462,+0.279,+0.699,+0.817,-0.342,-0.384,+8.312,-2.000,+6.875,-10, -7, -4, -2, -1, 0, 0, 1
1503609597940,-0.469,-0.463,+0.277,+0.699,+0.842,-0.368,-0.355,+7.750,-4.438,+9.438,7, -1, 10, 2, 0, 0, 0, -3
1503609597962,-0.468,-0.464,+0.276,+0.700,+0.839,-0.381,-0.358,+4.562,-5.250,+9.750,-1, 0, -3, -1, -3, 0, 2, 6
1503609597984,-0.468,-0.465,+0.274,+0.700,+0.833,-0.396,-0.377,+4.000,-4.812,+9.062,-7, -8, -5, -3, 0, -2, 0, 3
1503609598001,-0.467,-0.466,+0.273,+0.700,+0.846,-0.419,-0.380,+4.625,-1.812,+5.750,6, 24, 6, 2, 2, 0, -1, -4
1503609598022,-0.468,-0.466,+0.272,+0.700,+0.864,-0.414,-0.369,+6.438,-2.500,+2.188,3, 4, 1, 4, 1, -1, -3, -4
1503609598044,-0.468,-0.467,+0.270,+0.700,+0.867,-0.415,-0.357,+8.625,-7.250,+2.625,8, 28, 7, 0, 1, 0, 1, 2
1503609598060,-0.469,-0.468,+0.268,+0.699,+0.836,-0.410,-0.372,+7.938,-8.938,+2.812,-5, -9, 4, 0, -1, 0, -1, -3
1503609598082,-0.469,-0.468,+0.266,+0.700,+0.803,-0.385,-0.389,+6.875,-6.500,+3.750,-2, -8, -13, -8, -3, -2, -2, -3
1503609598105,-0.469,-0.469,+0.265,+0.700,+0.797,-0.358,-0.396,+5.750,-2.312,+7.188,-3, 12, 10, 1, 1, -1, -2, 0
1503609598120,-0.469,-0.470,+0.264,+0.700,+0.804,-0.341,-0.398,+4.688,+1.750,+10.062,-6, -7, -7, 0, -1, 1, -1, -2
1503609598143,-0.469,-0.470,+0.263,+0.700,+0.844,-0.346,-0.397,+4.312,-3.500,+8.688,-11, -13, -5, 0, 1, 1, -2, -2
1503609598167,-0.469,-0.470,+0.262,+0.701,+0.880,-0.375,-0.371,+5.062,-8.375,+7.812,-4, -21, 3, -2, -3, -1, -2, -2
1503609605866,-0.555,-0.409,+0.432,+0.581,+0.973,-0.006,-0.291,+19.125,+43.000,-2.250,-22, 10, -1, 1, -1, -1, 0, -24
1503609605889,-0.556,-0.414,+0.433,+0.577,+0.961,+0.000,-0.259,+22.312,+29.125,-9.438,-14, -5, -10, -5, -2, -1, -3, -23
1503609605904,-0.556,-0.418,+0.434,+0.573,+1.079,+0.015,-0.219,+22.562,+23.938,-5.562,11, -4, -5, 1, -1, -1, 1, 22
1503609605926,-0.555,-0.423,+0.433,+0.570,+1.057,-0.013,-0.191,+19.438,+21.000,+10.188,-14, 7, 7, -1, -2, 0, -2, -15
1503609605949,-0.554,-0.427,+0.431,+0.570,+1.002,-0.019,-0.185,+15.562,+7.625,+17.500,11, -11, -3, 4, 2, -1, 2, 13
1503609605964,-0.554,-0.430,+0.429,+0.570,+0.996,-0.023,-0.170,+15.625,-3.938,+10.438,11, -1, -5, -2, -2, -3, -6, 2
1503609605989,-0.556,-0.431,+0.426,+0.569,+0.982,-0.029,-0.204,+18.000,-11.125,+1.688,-4, -2, -3, 6, 5, 2, 1, 1
1503609606008,-0.558,-0.431,+0.423,+0.570,+0.953,-0.034,-0.184,+12.125,-18.438,-0.312,1, 25, 24, 2, -4, -5, -8, -4
1503609606025,-0.559,-0.429,+0.421,+0.570,+0.950,-0.010,-0.188,+1.875,-19.125,+0.062,-6, -6, -9, -3, -1, -2, -4, -9
1503609606046,-0.561,-0.427,+0.420,+0.572,+0.938,+0.042,-0.227,-1.812,-17.000,+0.625,2, 13, 13, 1, -1, 0, -8, -4
1503609606076,-0.563,-0.425,+0.418,+0.573,+0.937,+0.032,-0.246,-0.750,-20.438,-0.688,8, -4, -8, -1, -1, -3, 2, 20
1503609606084,-0.563,-0.424,+0.417,+0.574,+0.960,-0.016,-0.236,-5.500,-13.250,+4.438,20, -2, -2, -7, -3, -3, 5, 2
1503609606106,-0.562,-0.423,+0.417,+0.576,+0.971,-0.037,-0.236,-9.500,-5.562,+6.875,-3, -3, -7, -2, -2, 1, 3, -4
1503609606129,-0.562,-0.421,+0.416,+0.578,+0.989,-0.015,-0.252,-7.875,-12.625,+2.062,-24, -9, -1, -1, -1, -1, -3, -28
1503609606144,-0.563,-0.419,+0.416,+0.578,+0.973,-0.016,-0.272,-7.375,-13.938,-6.438,-18, -11, 3, -1, -2, -2, -6, -16
1503609606166,-0.565,-0.416,+0.415,+0.579,+0.927,-0.004,-0.236,-7.250,-16.125,-11.312,6, -14, -7, -4, -1, -1, 1, 18
1503609606191,-0.566,-0.414,+0.416,+0.579,+0.965,-0.001,-0.229,-6.188,-13.562,-8.562,8, 2, -3, 0, 1, 2, 4, 14
1503609606211,-0.567,-0.413,+0.417,+0.579,+0.947,+0.004,-0.254,-8.188,-0.812,-5.250,-16, -23, -13, -7, -3, 1, 5, 13
1503609606226,-0.568,-0.411,+0.418,+0.578,+0.942,+0.021,-0.276,-7.188,-0.562,-11.875,-4, 4, -3, -3, -3, -3, -2, -11
1503609606248,-0.569,-0.409,+0.419,+0.578,+0.979,+0.019,-0.290,-4.250,-6.188,-13.875,-9, -19, -4, 5, 2, 1, 1, 7
1503609606265,-0.570,-0.407,+0.419,+0.578,+0.996,-0.012,-0.247,-6.500,-9.438,-7.875,23, 16, 0, -1, 0, 1, -1, -9
1503609606286,-0.570,-0.405,+0.419,+0.580,+1.041,+0.007,-0.253,-13.812,-16.562,-0.812,14, 6, -2, 2, 2, 2, -1, 14
1503609606309,-0.571,-0.401,+0.418,+0.582,+1.000,+0.064,-0.268,-15.062,-24.875,+1.375,-3, -13, -13, -4, -1, 1, 4, 2
1503609606332,-0.573,-0.395,+0.416,+0.585,+0.936,+0.086,-0.283,-12.500,-37.250,-2.500,-10, 4, 8, 2, 1, -3, -2, -21
1503609606346,-0.575,-0.391,+0.414,+0.587,+0.895,+0.062,-0.336,-9.938,-30.938,-0.688,-8, 8, 6, 1, 0, -2, -1, -8
1503609606369,-0.576,-0.387,+0.412,+0.590,+0.876,+0.038,-0.352,-9.688,-22.438,+2.812,-1, -2, 2, 2, 2, -1, -9, -34
1503609606391,-0.576,-0.385,+0.411,+0.592,+0.914,+0.038,-0.301,-12.750,-19.312,+4.000,7, 17, -3, -3, -2, -1, -7, -1
1503609606406,-0.575,-0.383,+0.411,+0.595,+0.949,+0.028,-0.296,-14.625,-11.188,+8.000,25, 38, 23, 3, 0, 0, -1, 25
1503609606430,-0.574,-0.381,+0.411,+0.597,+0.952,+0.023,-0.338,-14.688,-9.375,+11.875,-7, -20, -1, 4, 1, 5, 4, 11
1503609606451,-0.573,-0.379,+0.409,+0.601,+0.965,+0.026,-0.365,-14.250,-17.938,+10.500,-7, -19, -5, 1, 3, 1, -4, -3
1503609606466,-0.573,-0.375,+0.407,+0.604,+0.958,+0.023,-0.332,-13.375,-28.438,+7.688,0, -21, -6, -5, -4, 0, 3, 10
1503609606491,-0.573,-0.372,+0.405,+0.608,+0.970,+0.006,-0.314,-14.812,-31.875,+11.062,17, 23, 5, 0, 0, -2, -5, -3
1503609606511,-0.572,-0.369,+0.403,+0.612,+0.945,+0.007,-0.347,-16.375,-26.375,+14.062,-7, -8, -3, 6, 4, 0, -2, -14
1503609606527,-0.571,-0.366,+0.401,+0.616,+0.914,+0.024,-0.394,-14.312,-22.312,+13.375,-8, -7, -6, -5, -3, 1, 18, 16
1503609606549,-0.571,-0.363,+0.398,+0.619,+0.914,+0.039,-0.395,-10.125,-26.000,+9.875,-27, -3, 6, 1, 0, -3, -8, -25
1503609606571,-0.572,-0.360,+0.396,+0.622,+0.922,+0.025,-0.378,-8.375,-27.250,+9.062,-5, 10, 3, 1, -1, -1, 5, 9
1503609606587,-0.571,-0.357,+0.393,+0.626,+0.900,-0.002,-0.362,-10.688,-26.688,+13.062,-9, -8, -8, -6, -4, -3, -5, -9
1503609606608,-0.570,-0.355,+0.392,+0.629,+0.895,+0.003,-0.384,-14.000,-19.688,+14.688,-11, -13, -10, -8, -3, -4, -6, -2
1503609606633,-0.568,-0.354,+0.391,+0.632,+0.876,+0.020,-0.423,-10.750,-5.250,+16.875,-1, 14, 15, 11, 3, -3, -10, -11
1503609606647,-0.566,-0.354,+0.390,+0.634,+0.922,+0.010,-0.411,-8.562,-3.000,+19.188,11, -2, -8, -5, -2, -2, 5, 12
1503609606669,-0.564,-0.354,+0.388,+0.637,+0.966,-0.005,-0.401,-6.562,-11.312,+20.250,-6, -6, -8, -6, -2, -1, 3, -8
1503609611530,-0.409,-0.382,+0.455,+0.693,+0.944,-0.166,-0.253,+21.750,+2.625,-3.250,-2, 1, -9, -7, -5, -4, -13, 1
1503609611551,-0.411,-0.384,+0.453,+0.692,+0.945,-0.186,-0.251,+20.250,-4.688,-4.938,5, -3, 6, 7, 1, 0, 1, 7
1503609611573,-0.413,-0.385,+0.451,+0.691,+0.934,-0.189,-0.223,+15.875,-8.250,-5.438,9, 3, -4, -7, -4, -3, -1, -7
1503609611589,-0.415,-0.386,+0.450,+0.690,+0.905,-0.167,-0.227,+11.188,-4.375,-4.812,3, -1, -3, -1, -2, -3, 0, 1
1503609611611,-0.416,-0.387,+0.449,+0.689,+0.932,-0.163,-0.237,+8.250,-1.062,-4.500,-7, -6, 1, 3, 4, 4, 7, 15
1503609611633,-0.417,-0.387,+0.449,+0.689,+0.960,-0.179,-0.259,+5.625,-1.250,-4.812,-3, -5, -5, -5, -3, -1, 10, 3
1503609611649,-0.418,-0.387,+0.448,+0.689,+0.975,-0.167,-0.243,+1.875,-6.250,-3.500,-1, 5, 5, 5, 2, -3, -4, -10
1503609611671,-0.419,-0.387,+0.448,+0.689,+0.972,-0.113,-0.244,-1.500,-5.438,+0.750,-6, 11, 6, 1, 1, -1, -6, -19
1503609611694,-0.418,-0.386,+0.447,+0.690,+0.949,-0.102,-0.251,-2.500,-4.438,+6.500,6, 15, 6, -2, -3, -2, -8, 12
1503609611709,-0.419,-0.386,+0.447,+0.690,+0.955,-0.102,-0.264,-0.250,-5.562,+5.000,-8, -11, 25, 10, 2, -2, -6, -34
1503609611731,-0.420,-0.386,+0.445,+0.691,+0.971,-0.140,-0.257,+2.625,-9.312,+0.812,-9, 0, -6, -6, -7, -5, -5, -16
1503609611753,-0.420,-0.385,+0.444,+0.691,+0.974,-0.181,-0.235,-0.875,-10.812,+2.125,-23, 4, 6, 0, 0, -2, -9, -21
1503609611770,-0.419,-0.385,+0.443,+0.693,+0.959,-0.191,-0.229,-8.438,-10.750,+3.750,-8, 7, 12, 5, 1, 4, 4, 6
1503609611791,-0.420,-0.382,+0.443,+0.694,+0.955,-0.167,-0.218,-12.438,-16.312,-5.438,12, 5, 2, 4, 2, 4, 5, 21
1503609611821,-0.422,-0.378,+0.443,+0.695,+0.958,-0.127,-0.251,-12.250,-18.938,-14.562,-8, 14, 13, -2, -1, -1, -5, 7
1503609611829,-0.424,-0.375,+0.443,+0.696,+0.926,-0.125,-0.271,-14.500,-14.312,-12.438,-30, -12, -9, -3, 2, -1, -3, -33
1503609611851,-0.424,-0.371,+0.443,+0.697,+0.918,-0.121,-0.267,-19.062,-14.000,-9.000,11, -13, -9, -4, -2, -1, 1, 1
1503609611873,-0.425,-0.366,+0.444,+0.698,+0.943,-0.101,-0.253,-22.938,-12.875,-11.375,24, 5, -6, -6, -5, -5, 0, 23
1503609611889,-0.426,-0.362,+0.446,+0.700,+0.947,-0.101,-0.288,-23.812,-11.875,-13.688,-7, -13, -7, -6, -3, -5, -1, -13
1503609611911,-0.427,-0.356,+0.447,+0.701,+0.926,-0.072,-0.314,-26.000,-14.188,-15.438,4, 7, 2, 3, 2, 0, 0, 16
1503609611933,-0.429,-0.349,+0.448,+0.703,+0.928,-0.033,-0.333,-25.875,-20.000,-19.375,18, 16, 8, 1, 0, 0, -3, -1
1503609611949,-0.431,-0.343,+0.447,+0.704,+0.927,-0.015,-0.345,-21.375,-24.125,-14.750,11, 11, 4, 5, 2, -1, 1, 14
1503609611971,-0.432,-0.338,+0.446,+0.707,+0.936,-0.054,-0.362,-19.188,-26.500,-5.625,-12, -8, -2, 0, -1, 3, 5, -4
1503609611993,-0.432,-0.334,+0.444,+0.711,+0.937,-0.080,-0.355,-22.688,-26.688,+1.812,-2, -9, -10, -2, 1, 0, 0, 2
1503609612009,-0.432,-0.329,+0.442,+0.715,+0.953,-0.069,-0.350,-25.250,-31.375,+5.312,-8, -18, -3, 2, -1, -2, -7, -23
1503609612032,-0.431,-0.324,+0.439,+0.719,+0.967,-0.040,-0.378,-23.188,-32.312,+8.688,-15, -20, -13, -10, -3, -1, 0, 7
1503609612053,-0.430,-0.320,+0.435,+0.723,+0.934,-0.071,-0.397,-15.812,-32.875,+11.500,15, 16, 11, 1, 1, 0, -3, -4
1503609612069,-0.429,-0.317,+0.432,+0.727,+0.922,-0.105,-0.381,-15.812,-29.375,+11.375,6, 0, -2, -1, 1, 0, 0, 2
1503609612091,-0.428,-0.315,+0.430,+0.730,+0.940,-0.088,-0.379,-16.250,-22.750,+11.000,7, -1, -1, 1, -1, -1, -2, -3
1503609612113,-0.427,-0.313,+0.428,+0.733,+0.951,-0.069,-0.408,-13.000,-18.125,+12.688,-13, -5, -4, -3, 0, -2, -7, -26
1503609612130,-0.425,-0.312,+0.426,+0.735,+0.912,-0.086,-0.432,-7.812,-15.625,+15.812,4, -7, -9, -9, -5, -1, -1, 6
1503609612151,-0.424,-0.311,+0.423,+0.738,+0.914,-0.115,-0.407,-5.500,-19.250,+16.250,13, 11, 2, -1, 1, 3, 2, 22
1503609612173,-0.422,-0.311,+0.420,+0.741,+0.930,-0.116,-0.396,-4.812,-17.688,+15.625,-6, 2, -1, 5, 2, 1, -4, -14
1503609612198,-0.421,-0.311,+0.417,+0.743,+0.909,-0.111,-0.415,-2.000,-14.438,+15.312,-3, -10, -9, -4, -4, -1, -1, -1
1503609612211,-0.420,-0.311,+0.414,+0.745,+0.893,-0.113,-0.437,-0.562,-15.125,+16.438,2, -3, -3, -5, -2, -2, 0, 4
1503609612234,-0.419,-0.311,+0.412,+0.747,+0.894,-0.106,-0.437,+0.688,-12.000,+17.375,7, -2, -5, 1, 0, -1, 2, 4
1503609612250,-0.418,-0.312,+0.409,+0.749,+0.895,-0.108,-0.423,+4.312,-16.250,+16.938,-9, 12, 15, 3, 0, -1, 0, -5
1503609612272,-0.418,-0.313,+0.405,+0.751,+0.895,-0.119,-0.450,+7.812,-18.250,+16.688,5, 2, -5, -2, -2, -2, -2, -1
1503609612293,-0.417,-0.314,+0.401,+0.753,+0.870,-0.141,-0.446,+10.625,-18.375,+15.812,-4, -9, -2, 2, -1, -1, 1, 1
1503609612310,-0.417,-0.316,+0.396,+0.755,+0.847,-0.155,-0.456,+12.438,-15.250,+19.188,-9, -16, -9, -1, 2, 2, 3, -1
1503609612332,-0.415,-0.318,+0.393,+0.756,+0.860,-0.166,-0.437,+11.062,-10.688,+20.812,-15, -1, 4, 1, 1, 0, -1, 1
1503609612353,-0.414,-0.321,+0.390,+0.757,+0.880,-0.163,-0.445,+12.188,-8.750,+19.500,5, -1, -2, -1, -1, -3, -2, -3
1503609612369,-0.414,-0.323,+0.386,+0.758,+0.863,-0.175,-0.466,+15.750,-10.125,+14.500,6, 1, 1, -2, -2, -1, -3, -1
1503609612392,-0.414,-0.325,+0.383,+0.759,+0.863,-0.187,-0.454,+17.375,-11.562,+10.688,10, -4, 0, 0, -2, -1, -2, 11
1503609612414,-0.414,-0.328,+0.379,+0.760,+0.882,-0.199,-0.443,+17.125,-11.938,+15.250,-32, -10, -4, 0, -2, -3, -1, -4
1503609612430,-0.413,-0.331,+0.376,+0.760,+0.893,-0.205,-0.452,+17.438,-8.938,+19.188,-4, -15, -6, 0, 1, -1, -5, 0
1503609612451,-0.413,-0.334,+0.373,+0.761,+0.833,-0.200,-0.438,+17.312,-6.875,+10.812,-4, 14, 2, -1, 0, -2, 1, -5
1503609612473,-0.414,-0.337,+0.371,+0.760,+0.859,-0.191,-0.466,+19.500,-4.375,+5.312,3, 0, -4, -3, -1, 1, 3, -3
1503609612496,-0.415,-0.340,+0.368,+0.759,+0.896,-0.211,-0.470,+22.000,-1.062,+8.500,7, 7, 9, 3, 4, 0, 0, 0
1503609612511,-0.414,-0.344,+0.366,+0.759,+0.895,-0.237,-0.460,+22.375,+0.750,+17.375,9, -21, -11, -5, -2, -2, -4, -3
1503609612533,-0.413,-0.349,+0.363,+0.759,+0.889,-0.221,-0.452,+22.000,+1.250,+18.000,-12, -1, -5, -4, -3, -1, 0, -5
1503609612556,-0.414,-0.352,+0.361,+0.758,+0.875,-0.202,-0.471,+26.812,-3.500,+12.062,7, 15, 7, 3, 2, -1, -5, -3
1503609612571,-0.415,-0.356,+0.357,+0.757,+0.853,-0.234,-0.454,+28.750,-9.250,+7.250,-5, -1, -15, -8, -3, 0, 1, 3
1503609612594,-0.416,-0.359,+0.353,+0.757,+0.861,-0.261,-0.419,+24.625,-10.250,+8.688,-10, 41, 28, 0, -1, -2, -2, 0
1503609612616,-0.415,-0.364,+0.350,+0.757,+0.853,-0.259,-0.452,+24.250,-1.125,+18.062,-1, -12, 2, 4, 0, 1, 7, 13
1503609612632,-0.414,-0.368,+0.348,+0.757,+0.834,-0.261,-0.449,+23.000,+5.562,+23.375,12, 1, -2, 0, -2, -1, 0, 1
1503609612653,-0.412,-0.373,+0.345,+0.756,+0.855,-0.252,-0.471,+25.562,+6.438,+20.312,0, -5, 1, 1, 1, 2, 4, 2
1503609612676,-0.412,-0.378,+0.343,+0.755,+0.856,-0.275,-0.459,+29.125,+2.625,+15.625,-5, -1, -1, -1, -1, -3, -3, -3
1503609612691,-0.412,-0.382,+0.339,+0.755,+0.857,-0.296,-0.439,+27.125,-6.062,+15.312,15, -1, -6, -5, -2, -1, -3, -3
1503609612713,-0.412,-0.385,+0.335,+0.754,+0.855,-0.300,-0.409,+23.062,-9.688,+15.500,4, -16, -5, 0, 0, 3, 4, 1
1503609612736,-0.412,-0.389,+0.332,+0.754,+0.826,-0.292,-0.442,+23.062,-5.375,+15.562,5, 8, 4, -2, -3, -2, -2, 0
1503609612751,-0.411,-0.393,+0.329,+0.754,+0.814,-0.302,-0.441,+23.875,+1.188,+17.125,-6, -13, -5, -3, -1, -1, -1, -8
1503609612773,-0.411,-0.397,+0.326,+0.753,+0.837,-0.318,-0.431,+25.125,+0.500,+16.062,-5, 9, 4, 0, -3, 0, -4, 4
1503609612796,-0.411,-0.401,+0.323,+0.752,+0.864,-0.326,-0.416,+25.188,-4.625,+14.750,-10, -14, -7, -5, -3, -2, -4, -5
1503609612812,-0.411,-0.404,+0.319,+0.752,+0.838,-0.338,-0.411,+22.750,-8.375,+15.562,9, -13, -7, -4, -1, -1, -1, -1
1503609612835,-0.410,-0.408,+0.316,+0.752,+0.800,-0.348,-0.437,+21.938,-4.438,+15.750,-6, 6, 6, 1, -2, -1, 1, -6
1503609612856,-0.410,-0.411,+0.313,+0.752,+0.802,-0.349,-0.434,+23.500,-1.562,+15.062,12, 18, -4, -2, 1, -1, -1, 0
1503609612871,-0.409,-0.415,+0.310,+0.751,+0.840,-0.366,-0.407,+23.000,+0.375,+15.250,-6, -11, -4, 0, -2, -3, -5, -13
1503609612893,-0.408,-0.419,+0.308,+0.750,+0.838,-0.369,-0.416,+21.625,+0.312,+15.438,2, 0, 2, 1, 4, 2, 4, 11
1503609612916,-0.408,-0.422,+0.304,+0.750,+0.834,-0.376,-0.429,+21.625,-7.812,+15.062,3, 13, 17, 2, -1, -1, 2, -5
1503609612931,-0.408,-0.425,+0.301,+0.750,+0.822,-0.391,-0.398,+19.562,-8.000,+14.062,11, 0, 3, 3, 2, 1, 2, 4
1503609612953,-0.408,-0.428,+0.298,+0.749,+0.804,-0.387,-0.414,+19.562,-1.500,+14.438,4, 0, -6, -1, -1, -2, -4, 0
1503609612976,-0.407,-0.432,+0.296,+0.749,+0.814,-0.396,-0.401,+19.250,+1.000,+15.500,1, -11, -7, 1, 5, 2, 8, 10
1503609612991,-0.405,-0.435,+0.294,+0.748,+0.840,-0.403,-0.379,+15.875,+1.438,+16.062,-4, 3, 5, 5, 2, 1, 0, 3
1503609613013,-0.404,-0.438,+0.292,+0.748,+0.837,-0.410,-0.394,+14.562,+1.812,+14.500,2, -1, -8, -4, -6, -4, -6, -3
1503609613037,-0.404,-0.441,+0.291,+0.747,+0.820,-0.414,-0.393,+14.938,-0.250,+12.562,0, 13, 14, 4, 2, 0, -4, 1
1503609613052,-0.403,-0.443,+0.289,+0.747,+0.809,-0.422,-0.412,+16.875,+1.562,+10.812,-6, 2, -3, -2, 0, 0, 4, -5
1503609613074,-0.403,-0.446,+0.287,+0.746,+0.819,-0.435,-0.398,+16.562,+2.312,+9.000,1, 9, 4, 2, 0, -1, 1, -7
1503609613096,-0.402,-0.449,+0.286,+0.745,+0.829,-0.433,-0.387,+14.750,+0.938,+9.938,-1, -13, -17, -7, -2, -2, -3, -31
1503609613112,-0.401,-0.451,+0.284,+0.745,+0.817,-0.429,-0.374,+13.062,-1.375,+12.375,-15, -11, -3, 0, 0, -1, 1, -4
1503609613134,-0.401,-0.453,+0.282,+0.745,+0.792,-0.438,-0.390,+11.125,+0.375,+11.625,7, 32, 22, 2, -1, -2, -6, -4
1503609613149,-0.400,-0.455,+0.281,+0.744,+0.796,-0.438,-0.402,+12.312,+5.062,+9.500,7, -4, -4, 0, 0, 1, 3, 3
1503609613172,-0.399,-0.458,+0.280,+0.743,+0.816,-0.439,-0.401,+13.875,+7.312,+9.688,-7, -12, -7, -5, -3, -1, -2, 3
1503609618781,-0.465,-0.351,+0.429,+0.690,+0.943,-0.098,-0.350,+12.938,+5.750,-14.438,-2, 0, 1, 3, 1, -2, -3, -2
1503609618797,-0.467,-0.352,+0.429,+0.689,+0.934,-0.098,-0.339,+9.438,+4.625,-10.375,2, -6, -8, -4, -1, -1, -7, -6
1503609618819,-0.469,-0.352,+0.429,+0.687,+0.949,-0.073,-0.327,+7.062,-3.062,-9.562,1, 3, 1, 2, 1, -2, 2, 1
1503609618834,-0.471,-0.352,+0.428,+0.687,+0.965,-0.061,-0.328,+7.500,-7.188,-6.625,-8, -5, -6, 1, 4, -4, -1, -2
1503609618857,-0.473,-0.351,+0.426,+0.686,+0.937,-0.075,-0.357,+9.000,-11.312,-8.938,-5, -3, -2, -7, -8, -2, -5, -3
1503609618879,-0.476,-0.350,+0.424,+0.686,+0.925,-0.086,-0.341,+7.062,-16.750,-11.688,1, 0, 0, 6, 10, 3, 0, 2
1503609618901,-0.478,-0.349,+0.423,+0.686,+0.932,-0.090,-0.312,+3.312,-15.500,-10.438,-1, 3, 1, -2, -4, 0, -1, -2
1503609618917,-0.479,-0.348,+0.423,+0.686,+0.934,-0.089,-0.291,-3.938,-10.250,-3.938,2, 7, 5, 4, 2, 1, -1, -3
1503609618939,-0.479,-0.346,+0.423,+0.687,+0.926,-0.062,-0.322,-10.188,-7.125,-3.812,1, -4, -3, -3, -4, -1, 0, -1
1503609618960,-0.480,-0.344,+0.423,+0.687,+0.922,-0.011,-0.356,-9.500,-9.938,-5.438,-3, -3, 0, -3, -4, -2, 1, 5
1503609618978,-0.481,-0.341,+0.423,+0.687,+0.923,-0.036,-0.381,-7.250,-8.188,-9.312,0, 5, 7, 4, -1, 1, 3, -5
1503609618999,-0.482,-0.340,+0.424,+0.688,+0.942,-0.070,-0.360,-10.500,-5.688,-5.750,4, -3, -2, -1, -2, 0, 2, 0
1503609619014,-0.481,-0.338,+0.425,+0.689,+0.944,-0.046,-0.351,-15.875,-4.812,-1.812,1, 2, 6, 0, 0, 0, 3, 22
1503609619036,-0.480,-0.335,+0.426,+0.690,+0.945,-0.004,-0.343,-18.062,-8.812,-1.000,6, -3, -3, -3, 1, -1, -1, -8
1503609619058,-0.480,-0.332,+0.426,+0.691,+0.937,-0.005,-0.396,-16.188,-6.750,+1.438,23, -27, -17, -5, -4, 0, 0, 5
1503609619074,-0.479,-0.330,+0.426,+0.693,+0.923,-0.031,-0.410,-14.688,-4.875,+5.438,-10, -7, 9, 4, 2, 0, 0, -1
1503609619096,-0.477,-0.329,+0.427,+0.694,+0.925,-0.045,-0.381,-14.125,-2.062,+5.750,-20, -3, 0, 4, -1, -1, 0, 2
1503609619119,-0.476,-0.327,+0.428,+0.695,+0.931,-0.049,-0.349,-15.562,-4.062,+1.750,4, 12, 7, 2, 2, 3, 0, 4
1503609619134,-0.475,-0.325,+0.428,+0.697,+0.936,-0.015,-0.368,-17.188,-4.500,+2.062,-7, -3, -4, -2, -1, -1, -4, -4
1503609619156,-0.475,-0.323,+0.429,+0.697,+0.918,+0.004,-0.394,-12.188,-2.188,+2.125,-2, 1, 3, 2, -1, -2, -2, -7
1503609619180,-0.475,-0.322,+0.429,+0.698,+0.882,-0.028,-0.423,-4.375,-1.438,+0.500,22, 18, 4, 2, 2, 1, 1, 4
1503609619194,-0.474,-0.322,+0.429,+0.698,+0.900,-0.055,-0.402,-3.312,+0.812,+0.438,-11, -16, -16, -4, -3, -3, -2, -4
1503609619218,-0.474,-0.322,+0.429,+0.698,+0.924,-0.045,-0.393,-3.625,+4.750,-1.000,-2, -8, -3, -4, -1, -2, 3, 3
1503609619239,-0.474,-0.322,+0.430,+0.697,+0.891,-0.025,-0.382,-1.625,+5.500,-3.938,-5, -1, 4, 4, 1, 1, -2, -4
1503609619255,-0.475,-0.322,+0.431,+0.697,+0.907,-0.020,-0.375,-0.188,+4.000,-2.688,14, 18, 7, 3, 3, 0, -1, -1
1503609619277,-0.474,-0.322,+0.431,+0.696,+0.937,-0.034,-0.371,+0.250,+3.188,+1.250,-10, 16, 0, -1, -1, -1, -5, -13
1503609619298,-0.474,-0.323,+0.431,+0.697,+0.930,-0.047,-0.387,+1.250,-0.875,+2.250,3, -3, -4, -4, -2, -1, 2, 1
1503609619314,-0.475,-0.323,+0.430,+0.697,+0.926,-0.043,-0.375,+1.750,-6.188,+1.625,-6, -6, -9, -7, -6, -1, -3, -1
1503609619337,-0.475,-0.323,+0.428,+0.698,+0.938,-0.056,-0.380,+0.500,-8.875,+5.375,3, 0, 5, 5, 2, 0, 0, 4
1503609619359,-0.474,-0.323,+0.427,+0.699,+0.937,-0.058,-0.375,-2.250,-9.062,+9.375,-5, 0, 3, -1, -1, 0, -4, -3
1503609619374,-0.473,-0.322,+0.426,+0.701,+0.923,-0.033,-0.382,-4.000,-7.500,+8.875,7, 4, 3, 2, 2, -1, 0, -2
1503609619397,-0.473,-0.322,+0.425,+0.702,+0.901,-0.017,-0.376,-2.312,-6.500,+5.000,-10, -10, -6, -8, -5, -2, -1, 3
1503609619419,-0.473,-0.322,+0.424,+0.702,+0.896,-0.035,-0.377,-1.938,-4.938,+2.250,0, -6, 1, 1, 1, 2, 1, -1
1503609619434,-0.473,-0.321,+0.424,+0.702,+0.925,-0.037,-0.389,-3.688,-1.312,+2.188,0, 6, -6, -4, -2, -1, 1, 1
1503609619457,-0.472,-0.321,+0.425,+0.703,+0.923,-0.026,-0.389,-4.250,+0.812,+2.312,-5, -2, 4, 1, 0, -1, -1, 1
1503609619478,-0.472,-0.320,+0.425,+0.703,+0.910,-0.013,-0.396,-5.062,-1.875,+1.875,-5, -4, -2, 3, 2, 0, 0, -1
1503609619494,-0.472,-0.319,+0.425,+0.704,+0.929,-0.025,-0.381,-5.188,-4.875,+3.562,-2, 0, 5, 3, -1, 1, 1, -1
1503609619516,-0.471,-0.319,+0.424,+0.705,+0.926,-0.044,-0.398,-5.125,-6.312,+5.875,16, 10, -5, -3, -2, 2, 0, 0
1503609619538,-0.470,-0.318,+0.423,+0.706,+0.911,-0.042,-0.421,-6.000,-7.125,+8.875,-12, -2, 1, 2, 0, -4, -1, -3
1503609619554,-0.469,-0.318,+0.422,+0.708,+0.885,-0.032,-0.419,-4.875,-5.625,+10.312,-3, -10, -8, -8, -5, -1, -1, -1
1503609619576,-0.469,-0.318,+0.421,+0.709,+0.905,-0.048,-0.410,-1.875,-5.000,+8.562,-5, -2, -2, 0, 2, -2, -2, -4
1503609619599,-0.468,-0.318,+0.420,+0.710,+0.935,-0.069,-0.389,-1.500,-5.875,+7.875,9, 7, 3, 1, 2, 1, 0, 3
1503609619621,-0.467,-0.318,+0.418,+0.711,+0.947,-0.081,-0.385,-2.875,-8.500,+9.375,-6, -2, 3, -1, -1, -4, -3, -1
1503609619636,-0.466,-0.318,+0.417,+0.713,+0.924,-0.080,-0.395,-4.375,-11.750,+11.312,15, 0, 9, 1, -3, -2, 0, 3
1503609619659,-0.465,-0.317,+0.415,+0.715,+0.917,-0.069,-0.404,-4.875,-12.188,+11.688,-2, 5, -3, 1, 0, -2, -6, -8
1503609619684,-0.463,-0.317,+0.414,+0.717,+0.908,-0.074,-0.407,-3.625,-7.188,+12.562,-16, -12, -9, -9, -7, -1, -3, -1
1503609619696,-0.462,-0.318,+0.412,+0.718,+0.896,-0.073,-0.419,-2.938,-4.938,+14.312,-6, -14, -8, 0, -2, -1, 2, 3
1503609619719,-0.460,-0.318,+0.411,+0.720,+0.910,-0.069,-0.419,-1.688,-3.438,+15.438,-3, -5, -6, -1, 0, -1, -1, -1
1503609619741,-0.458,-0.320,+0.410,+0.721,+0.917,-0.072,-0.426,+0.688,-4.000,+17.875,0, 7, 1, -1, 0, -1, -3, -5
1503609619756,-0.457,-0.321,+0.408,+0.723,+0.919,-0.083,-0.414,+2.438,-5.500,+18.375,20, 8, -3, -5, -2, -1, 1, 0
1503609619779,-0.455,-0.322,+0.406,+0.724,+0.915,-0.109,-0.416,+3.562,-7.062,+19.562,-6, -2, 2, -1, -3, 1, 1, 0
1503609619801,-0.453,-0.324,+0.403,+0.726,+0.920,-0.122,-0.417,+2.750,-8.938,+21.875,-5, -9, 2, 2, 2, -1, 1, -3
1503609619821,-0.451,-0.325,+0.400,+0.729,+0.900,-0.111,-0.431,+3.375,-8.625,+22.812,-3, 8, 15, 7, 4, 2, 1, 4
1503609619839,-0.449,-0.327,+0.397,+0.730,+0.889,-0.107,-0.432,+6.562,-9.062,+21.375,3, 0, -4, -2, -4, -3, 0, 3
1503609619861,-0.448,-0.329,+0.394,+0.732,+0.887,-0.136,-0.423,+8.250,-9.562,+21.312,-1, 0, 3, 1, 1, 1, -3, -4
1503609623783,-0.599,-0.391,+0.356,+0.602,+0.901,-0.052,-0.397,+8.875,+19.812,-9.812,6, 9, 6, 3, 0, -1, 0, -1
1503609623799,-0.599,-0.394,+0.358,+0.599,+0.949,-0.059,-0.392,+8.062,+20.750,-7.188,1, 1, 1, -1, -1, 0, 1, 0
1503609623821,-0.599,-0.396,+0.359,+0.597,+0.961,-0.051,-0.377,+7.188,+10.062,-7.000,4, 1, -4, -1, -1, 0, -1, 0
1503609623846,-0.600,-0.396,+0.358,+0.595,+0.938,-0.034,-0.383,+7.312,+0.312,-8.250,-1, -1, 5, 0, 0, -1, 1, 1
1503609623859,-0.602,-0.396,+0.358,+0.594,+0.895,-0.024,-0.397,+9.312,-2.562,-8.062,-10, -4, -1, 2, 3, 2, 1, -3
1503609623881,-0.604,-0.397,+0.357,+0.592,+0.882,-0.030,-0.391,+12.438,+2.562,-7.562,4, 9, -4, -7, -5, -4, -3, 0
1503609623903,-0.605,-0.399,+0.357,+0.590,+0.912,-0.044,-0.376,+12.125,+6.875,-7.000,5, 6, 3, -1, 0, -1, -2, -1
1503609623919,-0.605,-0.400,+0.356,+0.589,+0.963,-0.034,-0.360,+9.188,+1.688,-4.125,-4, -5, -1, -1, -2, -1, 1, 3
1503609623941,-0.606,-0.401,+0.356,+0.588,+0.979,-0.028,-0.347,+4.812,-4.375,+0.062,-5, 1, -1, -3, -1, -1, -2, -2
1503609623963,-0.606,-0.401,+0.355,+0.589,+0.921,-0.026,-0.371,+1.500,-3.625,+3.312,-1, -7, 0, 3, 0, -1, -3, -6
1503609623980,-0.606,-0.401,+0.355,+0.588,+0.881,-0.013,-0.378,+2.250,+1.562,+1.062,1, 5, 1, 3, 0, 0, 1, 4
1503609624001,-0.607,-0.401,+0.355,+0.588,+0.927,-0.011,-0.372,+1.375,+0.812,-1.312,9, -8, -14, -6, -4, -3, 0, 0
1503609624023,-0.606,-0.401,+0.355,+0.588,+0.976,-0.027,-0.388,-1.062,-0.812,+3.562,-11, -10, 0, 5, -1, 0, -1, -3
1503609624039,-0.605,-0.401,+0.355,+0.589,+0.917,-0.020,-0.393,-4.250,+0.625,+8.750,5, 3, 7, 3, 2, 2, 2, 7
1503609624061,-0.605,-0.401,+0.355,+0.590,+0.883,+0.016,-0.378,-5.188,+1.125,+6.625,1, -3, -3, -1, -2, -1, 0, 0
1503609624083,-0.604,-0.401,+0.356,+0.590,+0.926,-0.003,-0.367,-4.312,+1.000,+1.938,1, 0, 3, -1, -1, 0, -2, 3
1503609624099,-0.604,-0.400,+0.356,+0.590,+0.944,-0.031,-0.380,-3.875,-3.500,+3.312,13, 1, -4, -7, -3, -3, -5, -2
1503609624121,-0.604,-0.399,+0.355,+0.591,+0.914,-0.042,-0.398,-5.688,-10.062,+1.438,-6, -1, 0, 0, 4, 1, 1, 3
1503609624143,-0.605,-0.396,+0.354,+0.592,+0.886,-0.040,-0.382,-8.125,-13.500,-3.312,9, 4, -2, -1, -1, -1, -2, -3
1503609624159,-0.606,-0.395,+0.355,+0.593,+0.895,-0.022,-0.376,-8.312,-5.875,-3.438,-6, -6, -3, 0, 1, 0, 0, -3
1503609624181,-0.606,-0.394,+0.356,+0.593,+0.905,-0.030,-0.393,-5.938,+0.062,-2.625,-5, -1, 4, 1, -2, -1, 2, -1
1503609624203,-0.606,-0.393,+0.356,+0.593,+0.908,-0.033,-0.398,-5.250,-1.938,-2.750,-8, 1, 9, -3, -5, -5, -10, -17
1503609624219,-0.606,-0.392,+0.356,+0.593,+0.923,-0.039,-0.377,-6.562,-5.375,-2.375,1, 0, 4, 3, -1, 2, 2, 1
1503609624242,-0.606,-0.392,+0.356,+0.594,+0.905,-0.040,-0.403,-5.250,-2.062,+0.875,-5, 3, 4, 0, 2, 1, -3, -9
1503609624263,-0.606,-0.391,+0.356,+0.594,+0.907,-0.038,-0.415,-2.812,-2.625,-0.375,-14, 12, 4, -7, -5, -7, -3, 4
1503609624279,-0.607,-0.390,+0.355,+0.594,+0.940,-0.044,-0.379,-1.438,-11.188,-4.625,-4, -26, 3, -2, -2, 1, -2, -8
1503609624301,-0.608,-0.389,+0.354,+0.595,+0.958,-0.053,-0.375,-4.250,-15.500,-2.125,-18, -24, -8, 1, 0, -2, 0, -6
1503609624323,-0.608,-0.387,+0.354,+0.596,+0.898,-0.042,-0.402,-8.062,-8.938,+3.312,-20, -1, 2, -1, -1, 2, 1, -3
1503609624339,-0.607,-0.386,+0.354,+0.598,+0.875,-0.010,-0.431,-7.125,-5.625,+3.500,14, 1, 1, -4, -1, -2, 0, 4
1503609624361,-0.608,-0.384,+0.353,+0.598,+0.906,-0.003,-0.414,-3.812,-8.250,-0.500,-27, -15, -7, -3, -1, 2, 1, -5
1503609624384,-0.608,-0.384,+0.352,+0.599,+0.914,-0.043,-0.397,-1.250,-8.250,-0.062,9, -1, 0, 0, -2, 0, 3, 9
1503609624399,-0.608,-0.383,+0.352,+0.600,+0.911,-0.046,-0.399,-6.625,-8.938,+4.312,-1, -1, -2, 1, -3, -4, -5, 1
1503609624421,-0.608,-0.382,+0.351,+0.601,+0.914,-0.013,-0.403,-7.688,-8.250,+4.938,13, 3, -6, -1, -4, 1, -1, 0
1503609624443,-0.608,-0.380,+0.351,+0.602,+0.900,-0.000,-0.414,-6.125,-8.688,+5.438,-5, -10, 1, -3, -3, -1, -3, -7
1503609624459,-0.608,-0.379,+0.350,+0.604,+0.897,-0.025,-0.405,-4.875,-10.250,+3.938,12, 18, 11, 6, 3, 1, 1, -2
1503609624483,-0.607,-0.378,+0.350,+0.605,+0.897,-0.037,-0.427,-6.500,-7.438,+3.000,5, -9, -15, -7, -4, -3, -2, 3
1503609624503,-0.607,-0.377,+0.349,+0.606,+0.879,-0.027,-0.450,-6.875,-4.500,+6.500,-10, 13, 6, 5, 3, 1, -3, -34
1503609624520,-0.607,-0.376,+0.349,+0.607,+0.884,-0.024,-0.431,-6.875,-6.750,+6.188,-10, 15, 3, 0, -1, -1, 1, 18
1503609624541,-0.606,-0.375,+0.348,+0.609,+0.908,-0.021,-0.407,-8.875,-10.438,+4.438,20, -2, -5, -6, -4, -3, -2, 11
1503609624563,-0.605,-0.373,+0.348,+0.611,+0.917,-0.024,-0.416,-11.125,-10.125,+6.500,-11, -14, 4, 9, 1, 0, -1, -3
1503609624579,-0.604,-0.371,+0.348,+0.613,+0.904,-0.022,-0.436,-15.062,-13.625,+11.938,14, 4, 2, 2, -1, 0, -2, 0
1503609624601,-0.603,-0.369,+0.346,+0.617,+0.898,-0.020,-0.447,-16.312,-17.312,+15.875,-12, -13, -11, -6, 1, 0, 3, 6
1503609624623,-0.601,-0.367,+0.345,+0.620,+0.902,-0.030,-0.428,-15.438,-16.688,+18.000,-4, -31, -6, -3, -5, -3, -4, -8
1503609624639,-0.599,-0.365,+0.344,+0.624,+0.911,-0.044,-0.443,-16.562,-13.812,+21.188,10, 16, 1, -4, -1, 0, 1, -1
1503609624661,-0.596,-0.363,+0.344,+0.628,+0.895,-0.041,-0.453,-19.625,-10.000,+24.250,-15, -7, -2, -6, -1, -3, -3, -4
1503609624685,-0.592,-0.362,+0.343,+0.633,+0.894,-0.035,-0.457,-21.375,-8.188,+26.938,-8, 2, 3, 5, 1, -1, -5, -13
1503609624699,-0.588,-0.361,+0.343,+0.637,+0.901,-0.041,-0.474,-20.062,-4.062,+30.188,0, 2, -18, -8, -3, -2, -7, -25
1503609624721,-0.584,-0.361,+0.342,+0.642,+0.896,-0.059,-0.485,-17.562,-4.500,+32.750,-1, 3, 9, 4, 2, 2, 0, 7
1503609624743,-0.580,-0.360,+0.341,+0.646,+0.883,-0.062,-0.470,-16.000,-7.438,+33.688,8, 1, -6, -1, 3, 1, 1, 12
1503609624760,-0.576,-0.359,+0.338,+0.651,+0.859,-0.071,-0.463,-14.062,-13.625,+33.500,8, 4, 6, 0, -3, 1, 5, 26
1503609624782,-0.573,-0.359,+0.337,+0.656,+0.854,-0.076,-0.467,-15.188,-8.875,+32.125,1, -2, -11, 0, 0, -1, -3, -6
1503609624804,-0.568,-0.359,+0.336,+0.660,+0.839,-0.087,-0.486,-14.000,+0.625,+37.062,-5, 12, 10, 0, -1, 0, 3, 1
1503609624819,-0.562,-0.361,+0.334,+0.665,+0.864,-0.109,-0.473,-10.125,+2.750,+46.000,-24, -15, 4, 2, -1, -1, -3, -15
1503609624841,-0.556,-0.364,+0.332,+0.669,+0.908,-0.143,-0.451,-8.250,+3.188,+45.062,11, -1, -14, -7, -4, -3, -5, -8
1503609624865,-0.551,-0.366,+0.331,+0.673,+0.915,-0.152,-0.464,-7.750,+0.938,+36.938,2, 2, -7, -5, -1, 0, 2, 7
1503609624879,-0.547,-0.367,+0.328,+0.677,+0.893,-0.163,-0.493,-5.438,-5.750,+37.312,15, -6, -13, -2, -3, 0, 8, 23
1503609624901,-0.543,-0.368,+0.324,+0.682,+0.879,-0.170,-0.485,-1.125,-10.062,+41.812,17, 11, 12, 6, 2, 2, 2, -2
1503609624924,-0.538,-0.371,+0.321,+0.685,+0.884,-0.194,-0.455,+2.250,-7.562,+39.625,2, -15, -10, -5, -3, -1, -4, -2
1503609624939,-0.535,-0.374,+0.318,+0.688,+0.880,-0.215,-0.452,+3.375,-1.812,+33.062,-10, 2, -1, 0, -4, -2, -3, -7
1503609624962,-0.531,-0.376,+0.315,+0.691,+0.874,-0.206,-0.464,+4.375,-0.438,+29.562,7, 5, 8, 0, 1, 0, -2, -8
1503609624983,-0.528,-0.379,+0.312,+0.693,+0.869,-0.210,-0.483,+7.562,-0.688,+31.750,-9, 3, 10, 3, 1, -3, -3, -4
1503609624999,-0.524,-0.382,+0.309,+0.695,+0.857,-0.236,-0.488,+9.500,+2.188,+35.500,-17, -11, -1, -6, 0, -3, -3, -5
1503609625022,-0.520,-0.386,+0.306,+0.698,+0.858,-0.243,-0.465,+8.812,+4.125,+35.875,14, 21, 8, 5, 0, 3, 1, 8
1503609625044,-0.517,-0.390,+0.303,+0.699,+0.864,-0.230,-0.471,+12.000,+2.375,+32.375,-6, -4, 1, 2, 2, 0, 2, -4
1503609625062,-0.514,-0.393,+0.300,+0.701,+0.871,-0.242,-0.473,+16.875,-1.812,+31.312,-4, -2, -3, -2, 0, -1, -1, -1
1503609625081,-0.511,-0.397,+0.295,+0.703,+0.864,-0.280,-0.480,+18.875,-2.875,+34.125,2, 1, 11, 7, 1, 1, 0, 2
1503609625104,-0.508,-0.401,+0.291,+0.705,+0.845,-0.284,-0.468,+17.812,-0.875,+36.375,1, -8, -8, -3, 0, 1, -1, 7
1503609625121,-0.504,-0.406,+0.287,+0.706,+0.842,-0.270,-0.479,+20.062,+2.188,+37.062,3, -7, -12, -9, -5, -4, -1, -1
1503609625141,-0.501,-0.410,+0.282,+0.707,+0.840,-0.270,-0.491,+25.625,+1.250,+35.312,-13, -2, 0, 0, -1, -1, -1, -11
1503609625164,-0.499,-0.415,+0.277,+0.708,+0.843,-0.293,-0.466,+28.000,-2.500,+32.562,11, 13, 5, 1, 0, -1, -4, -16
1503609625188,-0.497,-0.420,+0.272,+0.709,+0.832,-0.314,-0.465,+27.688,-1.625,+33.375,7, 3, 1, 0, -2, -1, 0, 12
1503609631485,-0.572,-0.404,+0.408,+0.586,+0.953,+0.025,-0.292,-4.812,-2.500,+0.312,29, -1, 0, 0, -1, -2, -7, 6
1503609631508,-0.573,-0.402,+0.407,+0.586,+0.969,+0.017,-0.287,-3.562,-8.062,-1.938,28, 1, -4, -3, -1, 1, 3, 32
1503609631523,-0.574,-0.400,+0.406,+0.588,+0.972,+0.013,-0.299,-4.562,-19.250,+3.125,1, 5, -6, -3, -4, -2, -5, -32
1503609631545,-0.575,-0.398,+0.404,+0.590,+0.934,+0.019,-0.318,-6.000,-21.438,+4.500,-2, -7, -5, -3, -3, -1, -2, -18
1503609631568,-0.576,-0.395,+0.403,+0.592,+0.874,+0.010,-0.324,-5.562,-17.562,-1.062,12, 5, 9, 0, 0, -3, 1, 9
1503609631590,-0.576,-0.394,+0.402,+0.593,+0.890,+0.004,-0.333,-5.500,-9.438,+0.125,2, -9, -11, -4, -2, 1, 0, 22
1503609631612,-0.576,-0.393,+0.401,+0.594,+0.928,+0.014,-0.331,-7.125,-6.500,+7.000,-19, -11, -5, -1, -2, -4, -7, -11
1503609631627,-0.575,-0.392,+0.401,+0.595,+0.935,+0.014,-0.331,-6.562,-4.250,+7.812,-15, -1, -3, 0, -2, 0, 0, 5
1503609631643,-0.575,-0.392,+0.401,+0.596,+0.932,+0.001,-0.306,-5.438,-4.688,+2.500,27, 10, 13, 2, 3, 2, 4, 3
1503609631667,-0.575,-0.391,+0.401,+0.597,+0.957,-0.003,-0.314,-5.312,-6.125,+0.625,-1, -2, -8, -9, -4, -5, -10, 3
1503609631687,-0.575,-0.390,+0.401,+0.597,+0.974,-0.007,-0.327,-5.250,-5.938,+0.312,-22, -31, -7, -3, -2, -1, -3, -29
1503609631704,-0.575,-0.390,+0.401,+0.597,+0.953,+0.002,-0.311,-3.688,+1.938,-2.938,29, 16, 9, 4, 0, 3, 7, 18
1503609631725,-0.575,-0.391,+0.403,+0.595,+0.940,+0.001,-0.310,+0.938,+12.188,-7.188,0, 4, -9, -2, 0, 1, 0, -32
1503609631747,-0.574,-0.392,+0.405,+0.593,+0.936,-0.011,-0.310,+0.875,+19.625,-7.375,-8, 5, 1, 2, -1, -1, 3, 4
1503609631772,-0.573,-0.395,+0.408,+0.591,+0.938,-0.010,-0.326,-0.812,+25.812,-6.938,-4, 5, 11, 8, 3, -2, 1, 3
1503609631785,-0.572,-0.397,+0.411,+0.588,+0.933,-0.007,-0.338,+0.750,+31.375,-6.625,12, -10, -17, -5, -3, 0, 6, 42
1503609631808,-0.572,-0.400,+0.413,+0.585,+0.956,-0.010,-0.313,+7.250,+27.875,-6.250,-9, -27, -18, -7, -4, -2, -1, 7
1503609631830,-0.571,-0.403,+0.415,+0.582,+0.982,-0.023,-0.287,+8.562,+21.938,-6.562,-39, -6, 6, -2, 0, -1, -4, -47
1503609631845,-0.571,-0.405,+0.416,+0.580,+0.996,-0.020,-0.254,+5.062,+12.062,-6.312,21, 15, 6, 2, 1, 0, -4, -14
1503609631868,-0.572,-0.405,+0.415,+0.580,+1.001,+0.006,-0.269,+3.625,-3.688,-1.062,-6, -5, 3, 0, 1, 3, 2, 30
1503609631890,-0.573,-0.404,+0.413,+0.581,+0.968,+0.009,-0.277,+2.000,-17.938,+4.062,11, 7, -4, 0, -2, -2, 3, 11
1503609631905,-0.573,-0.402,+0.411,+0.583,+0.948,-0.002,-0.250,-4.375,-20.875,+3.625,3, -5, 19, 7, 2, -1, -2, 27
1503609631927,-0.574,-0.400,+0.410,+0.585,+0.926,+0.031,-0.298,-5.875,-17.062,+4.625,-5, -9, -22, -9, -5, -1, -2, 1
1503609631950,-0.575,-0.398,+0.408,+0.587,+0.919,+0.048,-0.334,-3.250,-20.000,+4.562,36, 18, 10, 5, 3, 1, 5, 20
1503609631965,-0.577,-0.395,+0.406,+0.589,+0.925,+0.034,-0.320,-3.438,-23.625,+1.125,-19, -7, 2, 1, 0, 2, 5, -5
1503609631987,-0.578,-0.392,+0.404,+0.590,+0.924,+0.037,-0.298,-5.000,-23.125,-1.562,-5, 1, -5, -4, -4, -2, -3, -11
1503609632011,-0.580,-0.389,+0.403,+0.592,+0.912,+0.045,-0.329,-6.562,-21.500,-0.562,3, 6, 0, -2, 0, 1, 0, -5
1503609632025,-0.581,-0.386,+0.401,+0.594,+0.905,+0.053,-0.347,-8.625,-21.562,+2.500,-34, -16, -8, -5, -5, -6, -7, -41
1503609632047,-0.581,-0.383,+0.400,+0.596,+0.928,+0.042,-0.326,-9.125,-19.688,+5.500,-32, -20, -11, -5, 1, -2, -1, -24
1503609632070,-0.581,-0.382,+0.399,+0.599,+0.951,+0.028,-0.329,-9.812,-15.312,+8.438,4, 5, -4, -5, -5, -1, -2, -6
1503609632085,-0.579,-0.380,+0.398,+0.601,+0.959,+0.018,-0.338,-13.062,-13.750,+10.750,3, -7, 2, 6, 3, 2, 2, 9
1503609632107,-0.578,-0.378,+0.397,+0.604,+0.955,+0.026,-0.360,-13.750,-13.438,+12.062,-4, 25, 12, 2, 1, -1, -5, -32
1503609632130,-0.578,-0.376,+0.397,+0.606,+0.961,+0.021,-0.338,-11.438,-15.250,+10.438,-7, -29, -20, -13, -6, -2, 2, -6
1503609632145,-0.577,-0.374,+0.396,+0.609,+0.986,+0.008,-0.323,-14.375,-16.812,+9.250,-7, 17, 23, 4, 0, -4, -12, -18
1503609632167,-0.575,-0.372,+0.395,+0.612,+0.977,+0.026,-0.361,-17.312,-16.875,+12.625,49, 60, 38, 13, 2, 1, 3, 48
1503609632190,-0.574,-0.369,+0.395,+0.615,+0.923,+0.026,-0.386,-17.562,-15.562,+12.000,17, 9, -24, -8, -3, 1, 8, 15
1503609632205,-0.573,-0.366,+0.394,+0.618,+0.902,+0.027,-0.400,-14.438,-13.562,+8.062,-21, -20, -15, -5, -1, -2, -8, -16
1503609632227,-0.572,-0.365,+0.394,+0.620,+0.880,+0.007,-0.390,-11.500,-6.000,+8.750,48, 21, 1, 1, 0, 0, 2, 21
1503609632250,-0.570,-0.364,+0.394,+0.622,+0.903,-0.004,-0.370,-13.875,-0.625,+10.250,29, 20, 14, 4, 2, -2, 2, 17
1503609632265,-0.568,-0.364,+0.395,+0.623,+0.917,+0.002,-0.377,-14.625,+5.188,+12.312,7, 11, 4, -2, -2, -2, -5, -21
1503609632287,-0.566,-0.364,+0.396,+0.625,+0.943,-0.004,-0.365,-13.562,-0.312,+12.438,-53, 7, 12, 0, 1, 1, -2, -7
1503609632310,-0.564,-0.363,+0.395,+0.628,+0.940,+0.005,-0.389,-10.375,-4.562,+15.062,-7, -3, 2, -2, -2, -2, 1, -3
1503609632325,-0.562,-0.363,+0.393,+0.631,+0.921,-0.011,-0.398,-7.688,-12.562,+20.000,12, -15, 8, 4, 2, 1, 6, 0
1503609632347,-0.561,-0.362,+0.391,+0.634,+0.908,-0.035,-0.400,-6.562,-15.625,+20.000,0, 16, 13, 10, 7, 1, -3, -30
1503609632372,-0.559,-0.361,+0.388,+0.637,+0.892,-0.051,-0.405,-4.125,-14.625,+17.812,-28, -6, 3, 0, -1, 1, 2, 7
1503609632385,-0.558,-0.362,+0.386,+0.640,+0.886,-0.058,-0.407,-2.562,-9.438,+16.938,-6, 1, -6, -6, -4, -1, 1, -8
1503609632408,-0.556,-0.362,+0.384,+0.642,+0.896,-0.061,-0.398,-2.312,-6.562,+18.250,14, -7, -11, -1, 0, 3, 5, 6
1503609632430,-0.554,-0.363,+0.381,+0.645,+0.914,-0.054,-0.406,-1.062,-7.438,+23.938,-21, 18, 2, 8, 5, -4, -7, 4
1503609632445,-0.552,-0.365,+0.379,+0.647,+0.912,-0.062,-0.411,+1.438,-6.000,+24.938,-4, -2, -14, -7, -6, -3, -1, 10
1503609632467,-0.550,-0.366,+0.376,+0.650,+0.879,-0.073,-0.417,+2.312,-2.188,+21.875,5, -16, -6, 0, 0, 0, -1, 8
1503609632490,-0.548,-0.368,+0.375,+0.651,+0.877,-0.091,-0.408,+2.562,+1.000,+19.562,5, 1, -2, -3, -1, 1, 3, 5
1503609632506,-0.545,-0.370,+0.373,+0.652,+0.896,-0.122,-0.403,+3.312,+6.688,+17.500,4, -12, -5, -5, -3, -4, -5, -2
1503609632527,-0.543,-0.373,+0.373,+0.653,+0.913,-0.122,-0.395,+3.250,+9.625,+13.750,19, 0, 0, -1, 2, 1, 4, 13
1503609632550,-0.542,-0.375,+0.373,+0.653,+0.900,-0.111,-0.385,+2.438,+11.375,+6.438,-10, 2, 3, 0, -2, 0, -1, -8
1503609632565,-0.541,-0.377,+0.375,+0.651,+0.866,-0.116,-0.370,+3.375,+15.562,-2.625,-7, -7, -7, -3, -1, 0, 1, -4
1503609632587,-0.541,-0.380,+0.377,+0.649,+0.863,-0.118,-0.375,+4.625,+25.500,-8.812,10, 7, 6, 3, 5, 2, -1, 0
1503609632610,-0.541,-0.383,+0.381,+0.645,+0.875,-0.096,-0.395,+6.500,+36.625,-13.375,6, 0, -1, -1, -2, -3, -2, 5
1503609632626,-0.542,-0.386,+0.385,+0.640,+0.881,-0.061,-0.377,+10.812,+38.562,-21.750,-21, -5, -2, -1, 0, -2, -5, -11
1503609637651,-0.462,-0.293,+0.422,+0.723,+0.895,-0.029,-0.437,-7.688,-11.562,+8.688,7, 9, -7, -8, -6, -1, 1, 4
1503609637672,-0.462,-0.292,+0.421,+0.724,+0.860,-0.041,-0.442,-6.938,-10.375,+2.500,0, -12, -19, -7, -3, -2, 4, 8
1503609637688,-0.461,-0.291,+0.421,+0.725,+0.830,-0.042,-0.414,-7.750,-2.750,-1.188,-3, 1, 8, 16, 7, 6, 3, 8
1503609637710,-0.461,-0.290,+0.423,+0.725,+0.833,-0.017,-0.428,-8.750,+9.875,-2.250,-4, -15, -27, -14, -9, -10, -12, -13
1503609637732,-0.460,-0.290,+0.426,+0.723,+0.853,+0.013,-0.455,-10.688,+21.938,-1.812,9, 4, 4, 0, -2, 3, 5, 5
1503609637748,-0.459,-0.290,+0.429,+0.722,+0.911,+0.023,-0.490,-4.750,+20.875,+0.188,1, -5, 4, -1, -2, -1, 3, 3
1503609637770,-0.460,-0.292,+0.429,+0.721,+0.907,-0.006,-0.463,+7.500,+10.875,-3.500,-4, 7, 7, -3, -7, -4, -7, -13
1503609637792,-0.462,-0.292,+0.428,+0.720,+0.895,-0.025,-0.393,+9.562,-9.625,-10.562,8, 10, 9, 3, 0, 1, 1, 5
1503609637810,-0.464,-0.291,+0.427,+0.719,+0.842,-0.004,-0.403,+4.750,-5.688,-10.438,-3, -5, 0, 1, 3, 0, 5, -2
1503609637830,-0.466,-0.291,+0.428,+0.718,+0.770,-0.010,-0.437,+5.250,+12.000,-9.750,8, 6, 4, -1, -1, -1, -8, 8
1503609637852,-0.467,-0.293,+0.431,+0.715,+0.821,-0.006,-0.445,+7.688,+28.375,-12.562,-7, 1, -16, -9, -6, -4, 6, 6
1503609637868,-0.467,-0.297,+0.435,+0.711,+0.934,-0.017,-0.422,+11.625,+38.750,-7.750,-4, 5, 8, 4, 3, 2, 0, 3
1503609637889,-0.466,-0.302,+0.438,+0.707,+0.973,-0.062,-0.422,+16.062,+36.750,-2.812,6, -12, 10, 6, 3, 1, 0, -4
1503609637915,-0.467,-0.305,+0.439,+0.704,+0.993,-0.055,-0.364,+11.812,+17.125,-6.938,9, 39, 23, 8, 0, 1, 2, 0
1503609637935,-0.469,-0.306,+0.439,+0.703,+0.990,-0.020,-0.343,+9.000,-5.750,-10.562,-10, -12, 5, 9, 7, 4, 7, 6
1503609637950,-0.471,-0.306,+0.437,+0.702,+0.933,+0.004,-0.372,+9.000,-9.562,-4.625,17, 13, -12, -9, -6, -5, -7, -11
1503609637980,-0.472,-0.307,+0.437,+0.702,+0.908,-0.006,-0.396,+10.875,+2.438,-0.188,-10, -6, -4, -3, -3, 0, 14, 25
1503609637995,-0.472,-0.310,+0.437,+0.700,+0.948,-0.028,-0.385,+11.875,+13.188,+0.188,-5, -16, 5, 0, -3, -3, -8, -7
1503609638011,-0.472,-0.313,+0.438,+0.698,+0.996,-0.039,-0.335,+9.875,+10.625,-0.312,-3, 4, -9, -4, -2, -5, -10, -13
1503609638032,-0.473,-0.314,+0.438,+0.697,+0.962,-0.040,-0.312,+7.562,+2.938,-4.375,7, -15, -9, -4, -5, 2, -2, -6
1503609638048,-0.474,-0.315,+0.439,+0.695,+0.899,-0.031,-0.326,+6.875,+0.188,-10.562,1, -4, -7, -7, -4, -5, -7, 3
1503609638069,-0.476,-0.315,+0.439,+0.694,+0.898,+0.007,-0.370,+8.188,+3.188,-9.875,-21, -3, 0, -3, 0, -3, -12, -36
1503609638092,-0.478,-0.317,+0.439,+0.692,+0.928,+0.004,-0.412,+11.938,+7.125,-5.812,12, 7, 12, 9, 6, 2, 2, 7
1503609638108,-0.479,-0.318,+0.439,+0.691,+0.934,-0.038,-0.353,+11.562,+4.188,-7.688,2, -12, -21, -10, -6, -4, -6, 2
1503609638129,-0.480,-0.318,+0.439,+0.689,+0.966,-0.019,-0.313,+5.375,-2.750,-7.938,2, 8, -2, 8, -1, 1, -2, -4
1503609638153,-0.481,-0.319,+0.438,+0.689,+0.946,+0.020,-0.381,+2.250,-1.312,+1.250,-21, -25, -24, -9, -6, -5, -1, 0
1503609638168,-0.481,-0.319,+0.437,+0.690,+0.889,+0.024,-0.393,+2.562,-3.750,+6.188,34, -5, -7, -6, -3, -1, -10, 32
1503609638190,-0.482,-0.319,+0.436,+0.690,+0.942,+0.019,-0.343,+5.438,-9.812,+2.500,-10, -21, -2, -1, -4, 0, 18, 10
1503609638213,-0.481,-0.320,+0.435,+0.691,+0.964,-0.018,-0.348,+4.812,-5.312,+8.625,-2, 5, -2, -8, -4, 7, 6, -13
1503609638228,-0.479,-0.321,+0.434,+0.692,+0.951,-0.046,-0.342,-3.688,-1.125,+13.500,9, 17, 9, -1, 1, 1, 4, 1
1503609638250,-0.478,-0.321,+0.434,+0.693,+0.916,-0.015,-0.370,-7.250,+0.812,+9.500,-11, -3, 7, -1, 1, -5, -11, -18
1503609638272,-0.478,-0.320,+0.434,+0.694,+0.910,+0.002,-0.374,-4.500,-5.688,+3.812,15, 2, 0, 7, 3, 1, 6, 4
1503609638289,-0.478,-0.319,+0.433,+0.695,+0.958,-0.018,-0.357,-5.375,-13.062,+2.062,-26, -6, -16, -5, 0, -4, -8, -26
1503609638310,-0.478,-0.316,+0.432,+0.697,+0.967,-0.034,-0.345,-11.062,-19.938,+3.312,2, -1, -4, 6, 0, 0, 0, 9
1503609638332,-0.477,-0.312,+0.429,+0.701,+0.948,-0.003,-0.365,-20.812,-32.375,+8.438,-12, -27, -12, -8, -4, -3, -1, -1
1503609638355,-0.476,-0.307,+0.426,+0.706,+0.877,+0.027,-0.392,-24.750,-38.125,+13.750,-25, -6, 4, -2, -2, -1, 2, 14
1503609638370,-0.475,-0.302,+0.423,+0.710,+0.825,+0.017,-0.438,-22.250,-29.562,+12.812,11, 17, 5, 3, 5, 2, -6, 2
1503609638392,-0.474,-0.298,+0.422,+0.713,+0.844,-0.016,-0.460,-19.688,-20.812,+7.500,10, 0, -10, -9, -4, -1, 12, 25
1503609638415,-0.472,-0.295,+0.420,+0.717,+0.899,-0.037,-0.431,-19.688,-21.000,+10.750,-15, -1, 2, 2, -2, -5, -3, -10
1503609638430,-0.469,-0.293,+0.418,+0.720,+0.895,-0.032,-0.430,-21.375,-19.125,+18.438,3, -14, -15, -12, -9, -3, -5, -8
1503609638452,-0.467,-0.291,+0.417,+0.724,+0.864,-0.030,-0.433,-17.500,-14.312,+14.688,-13, -57, -25, -5, -3, 0, -4, -4
1503609638475,-0.466,-0.288,+0.416,+0.726,+0.884,-0.025,-0.455,-14.000,-13.688,+8.188,-4, 27, 9, 5, 2, 1, 2, 8
1503609638490,-0.465,-0.286,+0.415,+0.728,+0.917,-0.048,-0.435,-13.688,-15.312,+8.688,-13, -11, -3, -7, -5, -5, -9, -21
1503609642652,-0.447,-0.333,+0.437,+0.706,+0.911,-0.039,-0.395,+18.125,+18.875,+13.312,-1, -7, -2, -6, -3, 0, -1, 5
1503609642678,-0.447,-0.338,+0.436,+0.704,+0.910,-0.058,-0.359,+26.812,+17.688,+8.125,-8, -10, -1, -2, 0, -1, -2, -4
1503609642697,-0.450,-0.342,+0.435,+0.701,+0.930,-0.108,-0.328,+31.375,+7.188,-6.000,2, -6, -11, -4, -2, -1, -1, -7
1503609642714,-0.455,-0.343,+0.432,+0.698,+0.913,-0.116,-0.332,+30.312,-11.438,-22.438,-7, -6, 3, -2, 1, -4, -3, -3
1503609642734,-0.461,-0.343,+0.429,+0.697,+0.873,-0.094,-0.339,+26.312,-21.688,-24.062,7, 14, 16, 8, 4, 2, 0, 3
1503609642757,-0.466,-0.344,+0.427,+0.694,+0.849,-0.106,-0.337,+23.688,-6.938,-21.250,0, 11, 16, 5, 0, 1, 0, -5
1503609642772,-0.469,-0.347,+0.426,+0.691,+0.886,-0.120,-0.324,+22.188,+5.625,-15.000,12, 3, 5, 1, -1, -2, 0, 2
1503609642794,-0.472,-0.349,+0.425,+0.689,+0.955,-0.124,-0.355,+19.875,+0.750,-15.062,14, 53, 33, 4, -1, -1, -2, -4
1503609642817,-0.477,-0.348,+0.425,+0.686,+0.934,-0.115,-0.337,+16.062,-8.062,-28.375,-19, -25, -21, -9, -5, -3, -2, -10
1503609642832,-0.482,-0.346,+0.424,+0.684,+0.909,-0.099,-0.295,+11.750,-19.625,-35.750,-1, -6, -13, -10, -6, -3, -3, -1
1503609642854,-0.487,-0.344,+0.422,+0.683,+0.919,-0.059,-0.335,+5.812,-22.250,-28.312,-3, -7, 1, -2, -2, -2, -1, -2
1503609642879,-0.491,-0.341,+0.421,+0.682,+0.895,-0.009,-0.377,+4.625,-14.500,-20.438,8, 7, 3, 10, 4, -1, -2, 1
1503609642892,-0.496,-0.340,+0.421,+0.680,+0.881,+0.005,-0.374,+10.000,-8.875,-21.938,-3, 0, -11, -10, -7, -5, -3, -3
1503609642915,-0.499,-0.340,+0.420,+0.678,+0.965,-0.066,-0.339,+10.250,-6.000,-18.125,2, 0, -7, -5, -3, 1, 3, 1
1503609642937,-0.499,-0.339,+0.420,+0.678,+1.004,-0.105,-0.331,-3.312,-9.938,-2.188,5, 5, 8, 3, -1, -2, -6, -10
1503609642953,-0.498,-0.337,+0.419,+0.680,+0.978,-0.039,-0.352,-16.938,-14.125,+5.312,19, -5, -10, -5, -3, -2, -1, 5
1503609642974,-0.498,-0.333,+0.420,+0.682,+0.897,+0.041,-0.356,-16.062,-15.938,-5.250,-3, -3, 1, 1, 0, -1, 0, -1
1503609642997,-0.501,-0.330,+0.420,+0.681,+0.904,+0.034,-0.365,-8.812,-11.375,-15.312,-5, -2, -3, 5, 5, 1, -1, -1
1503609643014,-0.502,-0.328,+0.422,+0.680,+0.958,-0.025,-0.344,-7.500,-4.750,-15.500,-9, -12, -10, -5, 0, -1, -2, -5
1503609643034,-0.503,-0.325,+0.423,+0.680,+1.003,-0.025,-0.376,-13.000,-6.500,-11.375,20, 25, 9, 1, -3, -2, -1, 1
1503609643057,-0.502,-0.322,+0.423,+0.682,+0.963,-0.007,-0.386,-21.688,-16.688,-2.062,3, -1, -3, -2, -1, -1, 0, -2
1503609643073,-0.501,-0.317,+0.423,+0.685,+0.921,+0.021,-0.371,-27.750,-20.312,+4.812,11, 2, -2, -3, -3, -3, -2, 0
1503609643102,-0.499,-0.314,+0.424,+0.688,+0.881,+0.033,-0.389,-24.375,-4.875,+9.500,-8, -5, -2, 1, -1, -2, -1, -8
1503609643117,-0.496,-0.313,+0.425,+0.689,+0.888,+0.022,-0.448,-14.938,+7.875,+10.500,0, 3, -4, -3, -2, 0, 3, 7
1503609643132,-0.494,-0.313,+0.427,+0.689,+0.939,-0.007,-0.452,-13.438,+10.188,+6.938,-34, -29, -4, 2, 2, 1, 0, -2
1503609643156,-0.493,-0.311,+0.428,+0.690,+0.948,+0.002,-0.389,-15.500,-0.438,+1.188,16, 18, 13, 7, 5, 3, -4, -2
1503609643177,-0.493,-0.309,+0.429,+0.691,+0.919,+0.040,-0.373,-13.688,-10.500,-1.562,1, -4, -4, -1, -4, -2, 0, -2
1503609643193,-0.494,-0.306,+0.428,+0.692,+0.887,+0.046,-0.417,-8.312,-12.812,-2.875,17, 20, 23, 11, 7, 2, 2, 2
1503609643215,-0.495,-0.305,+0.426,+0.693,+0.872,+0.009,-0.444,-2.875,-11.812,-0.312,-1, -4, 0, 3, 1, 0, 1, 3
1503609643237,-0.495,-0.304,+0.425,+0.694,+0.867,-0.025,-0.414,-3.312,-8.188,+0.938,2, -3, -9, -8, -4, -4, -2, 2
1503609643253,-0.495,-0.303,+0.425,+0.695,+0.880,+0.007,-0.396,-5.312,-7.250,-0.312,0, -7, 3, 0, 0, 1, 0, 0
1503609643274,-0.495,-0.302,+0.425,+0.695,+0.879,+0.044,-0.439,-3.938,-1.250,-0.125,2, 5, -16, -12, -3, -2, -3, -7
1503609643297,-0.495,-0.302,+0.424,+0.695,+0.867,+0.006,-0.452,-0.625,+1.188,-0.188,8, 37, 67, 15, 4, 1, 1, -2
1503609643315,-0.495,-0.301,+0.424,+0.696,+0.896,-0.011,-0.401,-3.125,-3.000,-0.062,-22, -19, -33, -7, -3, 0, -1, -3
1503609643334,-0.495,-0.301,+0.424,+0.696,+0.929,+0.010,-0.390,-4.625,-4.000,+0.312,-11, -21, -16, 0, 1, 1, 1, -1
1503609643364,-0.495,-0.300,+0.424,+0.696,+0.904,+0.022,-0.410,-3.500,-4.375,+2.000,-6, -5, -9, -5, -5, -2, -3, -8
1503609643372,-0.495,-0.299,+0.423,+0.697,+0.899,+0.004,-0.436,-2.438,-6.125,+2.688,6, -10, -13, -5, -4, 0, -1, 4
1503609643394,-0.495,-0.299,+0.422,+0.698,+0.906,-0.002,-0.410,-2.750,-9.938,+1.250,6, -9, -1, 2, 2, -1, -1, 2
1503609643418,-0.495,-0.298,+0.421,+0.699,+0.917,-0.004,-0.399,-4.188,-12.562,+2.812,0, 13, 2, -3, -3, -2, 1, 1
1503609643433,-0.495,-0.297,+0.420,+0.701,+0.913,-0.000,-0.423,-6.250,-11.062,+6.812,-3, -7, 2, 2, 0, -3, -6, -10
1503609643454,-0.494,-0.296,+0.418,+0.703,+0.908,+0.003,-0.436,-6.188,-11.438,+10.250,6, -1, -1, 1, -3, 1, 2, 9
1503609643477,-0.492,-0.295,+0.417,+0.705,+0.911,-0.002,-0.436,-6.000,-12.562,+12.500,-3, -8, -7, -5, -3, -3, -3, 2
1503609643493,-0.491,-0.295,+0.415,+0.707,+0.907,-0.013,-0.424,-6.312,-9.625,+13.250,5, 2, 1, 3, 7, -5, 4, -2
1503609649920,-0.581,-0.345,+0.343,+0.652,+0.899,-0.052,-0.488,+9.062,+16.188,-17.938,0, 3, 4, 0, 0, -1, 0, 2
1503609649941,-0.583,-0.346,+0.344,+0.650,+0.863,-0.059,-0.491,+11.250,+10.625,-16.875,-5, 4, -3, 2, 2, -2, -1, -2
1503609649958,-0.585,-0.347,+0.345,+0.647,+0.860,-0.057,-0.468,+9.188,+11.062,-17.875,6, 5, 14, 4, 2, 2, 1, 4
1503609649980,-0.586,-0.349,+0.347,+0.643,+0.880,-0.039,-0.458,+7.688,+17.375,-14.688,-18, 6, 5, 2, 2, 0, 2, 1
1503609650003,-0.586,-0.352,+0.349,+0.640,+0.885,-0.045,-0.463,+9.500,+21.250,-10.375,10, 4, -1, -8, -11, -1, -3, 2
1503609650018,-0.587,-0.354,+0.350,+0.638,+0.912,-0.057,-0.461,+10.375,+14.500,-10.062,-1, -1, 15, 12, 5, 4, 2, -4
1503609650040,-0.588,-0.356,+0.351,+0.636,+0.930,-0.068,-0.445,+7.688,+8.250,-10.375,-9, -10, -17, -10, -4, -4, -2, -3
1503609650062,-0.589,-0.357,+0.352,+0.634,+0.901,-0.050,-0.454,+5.562,+8.312,-9.312,-5, -14, -10, 10, 3, 1, 0, 0
1503609650078,-0.590,-0.358,+0.352,+0.632,+0.878,-0.020,-0.436,+6.625,+8.312,-8.188,-1, 16, 5, -1, -3, -4, -2, 4
1503609650100,-0.591,-0.360,+0.353,+0.630,+0.891,-0.016,-0.437,+8.000,+9.125,-7.812,-5, 8, 13, 13, 9, 5, 2, -4
1503609650121,-0.591,-0.362,+0.354,+0.628,+0.917,-0.034,-0.439,+7.188,+10.812,-5.250,6, 6, -4, -7, -2, -4, -2, 1
1503609650138,-0.591,-0.363,+0.354,+0.627,+0.905,-0.038,-0.451,+5.750,+9.188,-4.000,-5, -3, 0, -3, 0, -1, -4, -14
1503609650160,-0.592,-0.364,+0.354,+0.626,+0.880,-0.024,-0.437,+5.125,+3.688,-4.000,-5, 0, 0, -3, 0, -1, -4, -5
1503609650181,-0.593,-0.365,+0.355,+0.624,+0.882,-0.017,-0.429,+5.812,+3.688,-4.938,0, -8, -8, -4, 0, -4, -4, -8
1503609650198,-0.594,-0.365,+0.355,+0.623,+0.895,-0.021,-0.431,+5.625,+4.000,-6.938,2, -9, -4, -6, -4, 0, 2, 2
1503609650220,-0.595,-0.366,+0.355,+0.621,+0.901,-0.026,-0.442,+7.250,+0.812,-9.812,-18, 2, -1, 0, -1, -1, -2, -7
1503609650241,-0.597,-0.365,+0.354,+0.620,+0.904,-0.034,-0.438,+7.750,-4.938,-10.125,16, 6, 1, -7, -1, 2, 2, 3
1503609650258,-0.598,-0.366,+0.353,+0.620,+0.886,-0.046,-0.430,+5.188,-5.625,-4.062,4, 1, 0, 3, 0, -1, 0, 7
1503609650280,-0.598,-0.366,+0.353,+0.620,+0.891,-0.036,-0.422,+0.562,-1.250,+0.438,9, -3, 1, -5, -5, -1, 0, 0
1503609650302,-0.598,-0.366,+0.353,+0.620,+0.898,-0.026,-0.426,-1.500,-0.188,+1.625,13, 4, -5, -2, -4, -2, 0, 4
1503609650318,-0.598,-0.365,+0.352,+0.620,+0.896,-0.020,-0.433,-2.938,-5.188,+2.750,-3, 2, 7, 15, 19, 5, 3, 2
1503609650340,-0.598,-0.365,+0.352,+0.621,+0.880,-0.010,-0.433,-2.812,-5.312,+1.812,-10, -4, 4, -2, -7, -3, -2, 0
1503609650364,-0.599,-0.364,+0.352,+0.621,+0.865,-0.012,-0.455,-0.875,-3.812,-1.250,-5, -10, -4, -3, -7, -6, -5, -8
1503609650378,-0.599,-0.363,+0.351,+0.621,+0.876,-0.016,-0.461,+0.062,-4.688,-1.500,-5, -9, -12, -8, -4, -3, 2, -2
1503609650400,-0.600,-0.363,+0.350,+0.621,+0.897,-0.026,-0.446,+1.500,-5.688,-3.438,3, 1, -3, -1, -1, 0, 0, 6
1503609650422,-0.602,-0.362,+0.350,+0.621,+0.894,-0.030,-0.445,-0.062,-8.812,-5.688,1, 3, -1, -4, -5, 1, 1, 1
1503609650438,-0.602,-0.361,+0.349,+0.621,+0.869,-0.019,-0.440,-2.875,-7.625,-4.062,-7, -6, -6, -7, -7, -4, -2, -1
1503609650460,-0.603,-0.360,+0.349,+0.621,+0.857,-0.015,-0.450,-2.750,-2.062,-0.750,2, -6, 0, 1, 3, 1, 0, 2
1503609650482,-0.602,-0.360,+0.350,+0.621,+0.877,-0.020,-0.449,-3.312,+1.000,+0.625,-5, -3, 5, 2, 2, -1, 1, 9
1503609650499,-0.602,-0.360,+0.350,+0.621,+0.904,-0.018,-0.458,-2.750,+2.000,-0.375,-14, -6, -3, -2, -5, -1, -2, -5
1503609650520,-0.602,-0.360,+0.350,+0.621,+0.896,-0.022,-0.465,-2.000,-0.750,-0.188,1, 24, 16, 4, 3, 3, -1, -8
1503609650542,-0.602,-0.359,+0.349,+0.621,+0.879,-0.021,-0.460,-2.312,-4.875,+1.188,10, 21, 6, 3, 2, -2, 1, 10
1503609650558,-0.603,-0.359,+0.349,+0.622,+0.882,-0.014,-0.458,-2.250,-6.062,+1.375,-8, 15, 9, 2, 0, 2, -2, -11
1503609650580,-0.603,-0.358,+0.348,+0.622,+0.896,-0.011,-0.454,-2.312,-7.750,+1.500,31, -4, -9, -4, 0, -2, 0, 10
1503609650603,-0.603,-0.357,+0.348,+0.623,+0.876,-0.001,-0.454,-1.938,-7.312,+2.250,-12, -8, 0, -1, -1, -1, -1, -3
1503609650618,-0.603,-0.356,+0.347,+0.624,+0.860,-0.014,-0.462,-1.062,-5.625,+4.688,4, -3, -10, -1, -1, 0, 3, 2
1503609650641,-0.603,-0.356,+0.346,+0.624,+0.875,-0.027,-0.443,-2.188,-4.312,+4.188,-13, -11, -5, 1, -2, -2, -3, -21
1503609650662,-0.603,-0.356,+0.346,+0.625,+0.901,-0.020,-0.455,-4.688,-4.062,+2.438,5, 24, 4, 0, -1, -1, -2, 2
1503609650678,-0.603,-0.355,+0.346,+0.626,+0.892,-0.009,-0.469,-4.812,-7.312,+2.688,-9, -8, -2, -1, -3, -1, 0, 3
1503609655026,-0.559,-0.427,+0.412,+0.579,+0.991,-0.013,-0.242,-10.250,-12.375,-0.750,-1, 5, -3, -5, 0, 1, -1, -1
1503609655042,-0.560,-0.425,+0.412,+0.579,+0.949,-0.003,-0.253,-4.562,-12.312,-5.625,16, 24, 7, 1, -4, -3, 1, 2
1503609655065,-0.562,-0.424,+0.411,+0.579,+0.971,-0.027,-0.269,+0.000,-10.062,-10.188,-6, 9, 7, 2, -1, -3, -5, -2
1503609655086,-0.564,-0.422,+0.411,+0.579,+0.960,-0.029,-0.280,-0.625,-6.562,-8.000,-24, -10, -7, -8, -6, -2, -1, -5
1503609655103,-0.565,-0.421,+0.411,+0.578,+0.948,+0.001,-0.282,-1.500,-7.812,-7.188,33, 3, -4, -2, -1, -2, -1, 11
1503609655124,-0.567,-0.419,+0.411,+0.578,+0.952,+0.019,-0.266,+0.812,-8.500,-9.125,1, 0, -4, 3, 0, 1, 1, 1
1503609655146,-0.569,-0.418,+0.410,+0.577,+0.958,-0.018,-0.273,+3.250,-6.688,-8.875,7, -6, 0, -2, 2, 2, 1, 2
1503609655163,-0.569,-0.418,+0.410,+0.577,+0.960,-0.047,-0.266,+0.500,-5.625,-3.938,2, 11, 0, -2, -3, -3, 0, 0
1503609655184,-0.569,-0.418,+0.409,+0.578,+0.962,-0.045,-0.263,-5.375,-3.938,+2.062,-8, -8, 1, 3, 2, 2, 1, -3
1503609655206,-0.568,-0.417,+0.410,+0.579,+0.966,-0.018,-0.252,-9.812,-1.188,+6.250,-6, -6, -8, -4, -3, -1, -2, -2
1503609655222,-0.566,-0.417,+0.411,+0.580,+0.958,+0.001,-0.256,-11.625,+3.500,+6.812,-3, -8, -16, -6, -2, 0, 0, -1
1503609655244,-0.565,-0.416,+0.411,+0.581,+0.981,-0.004,-0.248,-10.688,-1.812,+6.438,4, -20, -11, -4, 3, -1, 0, -8
1503609655266,-0.565,-0.415,+0.411,+0.583,+0.970,+0.005,-0.264,-9.312,-8.250,+2.750,37, 29, 9, 0, -2, -4, -4, 2
1503609655282,-0.566,-0.412,+0.411,+0.584,+0.935,+0.017,-0.296,-6.625,-16.438,-4.062,-9, -1, -3, -2, 0, -1, -1, 0
1503609655304,-0.568,-0.409,+0.409,+0.585,+0.901,+0.025,-0.328,-4.250,-18.375,-3.625,-11, 0, 6, 2, -1, -1, -2, 1
1503609655326,-0.569,-0.407,+0.408,+0.586,+0.900,+0.002,-0.298,-3.812,-15.688,-0.438,1, -1, -2, 1, -1, 2, 1, 5
1503609655342,-0.570,-0.406,+0.407,+0.588,+0.931,-0.013,-0.291,-4.688,-12.062,+2.250,-8, -14, -1, 0, -3, -1, -2, -7
1503609655365,-0.570,-0.404,+0.406,+0.589,+0.936,+0.004,-0.305,-6.938,-6.625,+1.500,-1, -8, 6, 0, 1, -1, -3, -1
1503609655386,-0.570,-0.403,+0.406,+0.590,+0.940,+0.028,-0.304,-6.375,-8.688,+1.562,-1, 15, 1, 3, -1, 1, -1, 2
1503609655402,-0.571,-0.401,+0.405,+0.591,+0.935,+0.034,-0.324,-3.750,-11.000,+3.562,5, 16, 7, 0, -1, -2, -2, -6
1503609655424,-0.571,-0.400,+0.404,+0.592,+0.919,+0.023,-0.304,-3.250,-10.750,+3.250,3, -5, 0, 1, -1, -1, 4, 23
1503609655446,-0.571,-0.399,+0.404,+0.593,+0.939,+0.007,-0.300,-3.750,-7.688,+5.000,-11, -5, -2, 2, 2, -2, -6, -7
1503609655462,-0.570,-0.400,+0.403,+0.594,+0.950,-0.012,-0.309,-6.000,+1.188,+10.750,-13, 9, 8, 0, -1, -2, -6, -25
1503609655485,-0.568,-0.400,+0.403,+0.596,+0.953,-0.013,-0.322,-7.125,+2.125,+11.438,11, 0, 2, 1, 0, 1, 3, 12
1503609655506,-0.567,-0.400,+0.403,+0.597,+0.969,-0.007,-0.315,-5.188,-2.312,+7.250,-7, 4, 0, 1, 1, 0, 2, 9
1503609655522,-0.567,-0.400,+0.403,+0.597,+0.957,-0.015,-0.317,-1.500,-0.438,+3.125,4, 8, 5, 0, -1, -1, -7, 5
1503609655544,-0.567,-0.400,+0.403,+0.597,+0.939,-0.029,-0.307,+0.812,+2.000,+2.688,-2, -5, -11, -2, -1, -1, 0, -8
1503609655566,-0.566,-0.401,+0.403,+0.597,+0.955,-0.019,-0.294,-0.375,+4.000,+3.375,-2, -4, 7, -1, 0, 0, 3, 1
1503609655582,-0.565,-0.402,+0.404,+0.597,+0.970,-0.017,-0.281,-2.062,+6.188,+2.562,0, 34, 16, 5, 2, -1, -3, 0
1503609655604,-0.564,-0.403,+0.404,+0.597,+0.979,-0.027,-0.271,-4.125,+4.250,+3.062,3, -4, -1, -3, -5, 0, -3, -4
1503609655626,-0.563,-0.404,+0.405,+0.597,+0.979,-0.028,-0.299,-4.062,+4.562,+7.000,3, 1, -4, -2, 2, 2, -3, -1
1503609655642,-0.562,-0.404,+0.405,+0.598,+0.962,-0.028,-0.313,-3.500,+4.375,+9.250,-10, 0, 1, 2, 2, -3, -10, -21
1503609655664,-0.560,-0.404,+0.405,+0.599,+0.975,-0.021,-0.277,-6.375,-2.062,+9.812,-10, 1, 2, 4, 2, 1, 6, -4
1503609655686,-0.559,-0.404,+0.404,+0.600,+0.980,+0.001,-0.269,-6.062,-6.125,+8.500,10, 7, 2, -1, -2, -2, 2, 10
1503609655702,-0.559,-0.403,+0.404,+0.601,+0.944,-0.003,-0.307,-3.312,-5.688,+3.938,-4, 8, 7, -1, -4, -2, 0, 1
1503609655724,-0.560,-0.402,+0.403,+0.602,+0.911,-0.021,-0.328,-1.188,-9.500,+2.562,2, 8, 8, 2, 2, -2, -2, 1
