Timestamp,Orientation X,Orientation Y,Orientation Z,Orientation W,Accelerometer X,Accelerometer Y,Accelerometer Z,Gyroscope X,Gyroscope Y,Gyroscope Z,EMG1,EMG2,EMG3,EMG4,EMG5,EMG6,EMG7,EMG8,Roll,Yaw,Window
1503609551929,-0.435,-0.110,+0.324,+0.833,+0.646,+0.109,-0.725,-0.812,+0.875,+0.500,0, 0, 0, -1, -1, -1, 0, 2,-0.9270078391658314,0.6926365123972041,0
1503609551944,-0.435,-0.110,+0.324,+0.833,+0.657,+0.105,-0.725,-0.562,-0.688,+0.875,-3, -4, -2, -1, -1, 0, 1, 2,-0.9270078391658314,0.6926365123972041,0
1503609551973,-0.435,-0.110,+0.324,+0.833,+0.662,+0.098,-0.738,-0.875,-0.188,+0.750,-1, -2, 0, -1, -2, -1, 1, 0,-0.9270078391658314,0.6926365123972041,0
1503609551990,-0.435,-0.110,+0.324,+0.833,+0.661,+0.102,-0.726,-1.688,-0.438,+0.062,0, 0, 1, 0, 0, -1, -3, 2,-0.9270078391658314,0.6926365123972041,0
1503609552004,-0.435,-0.110,+0.324,+0.833,+0.651,+0.106,-0.720,-1.312,-0.188,+0.188,1, 4, -1, -2, 0, 1, 0, 1,-0.9270078391658314,0.6926365123972041,0
1503609552026,-0.435,-0.110,+0.324,+0.833,+0.657,+0.100,-0.731,-0.938,+0.188,+0.750,0, -1, -1, -1, -1, -1, 4, 0,-0.9270078391658314,0.6926365123972041,0
1503609552049,-0.435,-0.110,+0.324,+0.833,+0.653,+0.111,-0.729,-1.312,-0.688,+0.375,-2, 3, 1, 0, -2, 1, -3, -2,-0.9270078391658314,0.6926365123972041,0
1503609552063,-0.435,-0.110,+0.324,+0.833,+0.650,+0.106,-0.724,-0.938,+0.188,+0.250,-1, -4, -1, 0, 0, -1, 1, 0,-0.9270078391658314,0.6926365123972041,0
1503609552086,-0.435,-0.110,+0.324,+0.833,+0.661,+0.104,-0.732,-0.938,-0.312,+0.688,1, -4, -1, 0, -2, -2, -3, -3,-0.9270078391658314,0.6926365123972041,0
1503609552109,-0.435,-0.110,+0.324,+0.833,+0.656,+0.100,-0.729,-1.312,-0.688,+0.062,0, 4, 1, 1, 0, -2, 0, -1,-0.9270078391658314,0.6926365123972041,0
1503609552124,-0.435,-0.110,+0.324,+0.833,+0.652,+0.105,-0.720,-1.562,-0.500,+0.500,-1, 1, -2, -2, -1, 1, 0, 1,-0.9270078391658314,0.6926365123972041,0
1503609552146,-0.435,-0.110,+0.324,+0.833,+0.657,+0.104,-0.725,-1.125,-0.188,+0.625,0, 0, 0, 0, 0, -1, -4, -1,-0.9270078391658314,0.6926365123972041,0
1503609552169,-0.435,-0.110,+0.324,+0.833,+0.656,+0.106,-0.731,-1.062,-0.688,+0.438,-3, -2, -1, -1, 0, 0, 0, -2,-0.9270078391658314,0.6926365123972041,0
1503609552184,-0.435,-0.110,+0.324,+0.833,+0.646,+0.106,-0.726,-1.188,-0.312,+0.062,-1, -3, -3, 0, 1, -1, 1, 2,-0.9270078391658314,0.6926365123972041,0
1503609552207,-0.435,-0.110,+0.324,+0.833,+0.654,+0.106,-0.729,-1.062,+0.125,+0.750,-3, -12, -3, 0, -2, -1, -1, -2,-0.9270078391658314,0.6926365123972041,0
1503609552229,-0.435,-0.110,+0.324,+0.833,+0.659,+0.104,-0.726,-1.062,-0.312,+0.375,0, 5, -1, -1, -1, -1, -1, -1,-0.9270078391658314,0.6926365123972041,0
1503609552251,-0.435,-0.110,+0.324,+0.833,+0.660,+0.102,-0.728,-1.125,+0.562,+0.438,0, 3, 3, 0, 0, 0, 0, -2,-0.9270078391658314,0.6926365123972041,0
1503609552273,-0.435,-0.109,+0.324,+0.833,+0.661,+0.105,-0.727,-1.250,-2.250,+0.375,-1, 2, 3, 0, -1, -2, 1, 1,-0.9262648111001263,0.6916824815721292,0
1503609552289,-0.435,-0.109,+0.324,+0.833,+0.647,+0.105,-0.734,-1.000,-1.188,+0.500,-1, 0, -2, -2, -1, -1, 1, -1,-0.9262648111001263,0.6916824815721292,0
1503609552303,-0.435,-0.109,+0.324,+0.833,+0.645,+0.107,-0.727,-1.125,-0.438,+0.062,-2, -4, 0, -1, 0, 0, -2, -2,-0.9262648111001263,0.6916824815721292,0
1503609552326,-0.435,-0.109,+0.324,+0.833,+0.649,+0.111,-0.733,-0.812,+0.688,+0.875,0, 3, 0, -1, 0, 0, -1, -2,-0.9262648111001263,0.6916824815721292,0
1503609552349,-0.435,-0.110,+0.324,+0.833,+0.659,+0.101,-0.729,-0.312,+1.312,+0.750,-1, -1, -1, -1, 0, 0, 1, -1,-0.9270078391658314,0.6926365123972041,0
1503609552364,-0.435,-0.110,+0.324,+0.833,+0.661,+0.100,-0.725,-1.125,-0.125,+0.000,-1, -1, -2, -3, -2, -2, -5, -2,-0.9270078391658314,0.6926365123972041,0
1503609552386,-0.435,-0.110,+0.324,+0.833,+0.656,+0.107,-0.723,-1.500,-0.062,-0.125,2, 3, -1, 0, -1, -1, 1, 1,-0.9270078391658314,0.6926365123972041,0
1503609552409,-0.435,-0.110,+0.324,+0.833,+0.657,+0.107,-0.724,-1.250,-0.250,+0.438,-1, -1, -1, 1, 0, -2, -2, -1,-0.9270078391658314,0.6926365123972041,0
1503609552425,-0.435,-0.110,+0.324,+0.833,+0.655,+0.105,-0.723,-1.312,-1.625,+0.188,-4, -9, -2, -1, 0, 0, 0, -5,-0.9270078391658314,0.6926365123972041,0
1503609552448,-0.435,-0.110,+0.324,+0.833,+0.648,+0.106,-0.731,-0.938,-0.562,+0.625,1, 2, 0, 0, 0, -1, 0, 3,-0.9270078391658314,0.6926365123972041,0
1503609552468,-0.435,-0.110,+0.324,+0.833,+0.644,+0.103,-0.726,-0.750,-0.500,+0.375,0, -1, 1, -1, 0, 0, 0, 0,-0.9270078391658314,0.6926365123972041,0
1503609552485,-0.435,-0.110,+0.324,+0.833,+0.651,+0.099,-0.733,-0.625,+0.562,+0.812,-2, 5, 2, -1, 0, -1, -4, -2,-0.9270078391658314,0.6926365123972041,0
1503609552506,-0.435,-0.110,+0.324,+0.833,+0.654,+0.102,-0.730,-1.062,-0.250,+0.438,1, -2, -1, 0, -2, 0, 0, 0,-0.9270078391658314,0.6926365123972041,0
1503609552529,-0.435,-0.110,+0.324,+0.833,+0.652,+0.108,-0.722,-1.188,+0.188,+0.438,-1, -4, -3, -1, 0, -2, -1, -1,-0.9270078391658314,0.6926365123972041,0
1503609552544,-0.435,-0.110,+0.324,+0.833,+0.660,+0.100,-0.729,-0.688,+0.125,+0.688,-2, 0, -1, 0, -2, -2, -3, -3,-0.9270078391658314,0.6926365123972041,0
1503609552566,-0.435,-0.110,+0.324,+0.833,+0.658,+0.102,-0.738,-1.250,-0.750,+0.500,-1, 4, 2, -1, -2, -3, 0, -1,-0.9270078391658314,0.6926365123972041,0
1503609552589,-0.435,-0.110,+0.324,+0.833,+0.650,+0.107,-0.725,-1.125,-0.812,+0.312,1, -3, -3, -1, -2, 0, 0, 3,-0.9270078391658314,0.6926365123972041,0
1503609552604,-0.435,-0.110,+0.324,+0.833,+0.647,+0.106,-0.724,-0.812,+0.375,+0.625,1, -1, -2, -3, -1, -1, 0, -1,-0.9270078391658314,0.6926365123972041,0
1503609552626,-0.435,-0.110,+0.324,+0.833,+0.655,+0.104,-0.736,-1.000,-0.875,+0.562,-3, -2, -2, 1, -2, 0, 0, -1,-0.9270078391658314,0.6926365123972041,0
1503609552650,-0.435,-0.110,+0.324,+0.833,+0.649,+0.105,-0.729,-1.125,+0.625,+0.375,2, -1, -2, -1, 2, 0, 1, 0,-0.9270078391658314,0.6926365123972041,0
1503609552664,-0.435,-0.110,+0.324,+0.833,+0.658,+0.108,-0.727,-1.188,-0.750,+0.500,2, -4, -3, 0, 1, 0, 0, 1,-0.9270078391658314,0.6926365123972041,0
1503609552687,-0.435,-0.110,+0.324,+0.833,+0.653,+0.102,-0.726,-1.000,-0.625,+0.125,-4, -3, -2, -2, -1, -2, 1, -5,-0.9270078391658314,0.6926365123972041,0
1503609552709,-0.435,-0.110,+0.324,+0.833,+0.652,+0.100,-0.730,-1.188,+0.875,+0.875,-2, -6, -4, -1, 0, 0, -1, 1,-0.9270078391658314,0.6926365123972041,0
1503609552725,-0.435,-0.110,+0.324,+0.833,+0.664,+0.104,-0.734,-1.250,-1.375,+0.312,0, 5, 1, -1, -3, -1, -2, -1,-0.9270078391658314,0.6926365123972041,0
1503609552746,-0.435,-0.110,+0.324,+0.833,+0.647,+0.101,-0.725,-0.688,+0.875,+0.562,-2, -1, 2, 1, 2, 0, 0, -2,-0.9270078391658314,0.6926365123972041,0
1503609552768,-0.435,-0.110,+0.324,+0.833,+0.662,+0.103,-0.732,-1.062,-0.812,+0.312,-1, 5, 3, -1, -3, -1, -3, -5,-0.9270078391658314,0.6926365123972041,0
1503609552784,-0.435,-0.110,+0.324,+0.833,+0.654,+0.107,-0.721,-1.375,-0.312,+0.312,-2, -3, -2, -2, -1, 0, -3, 0,-0.9270078391658314,0.6926365123972041,0
1503609552806,-0.435,-0.110,+0.324,+0.833,+0.657,+0.104,-0.736,-1.125,-0.625,+0.688,2, 5, 2, -2, 0, -2, -2, 1,-0.9270078391658314,0.6926365123972041,0
1503609552829,-0.435,-0.110,+0.324,+0.833,+0.651,+0.103,-0.725,-1.062,-0.438,+0.438,-1, -1, 0, -1, -2, -1, 0, 0,-0.9270078391658314,0.6926365123972041,0
1503609552844,-0.435,-0.110,+0.324,+0.833,+0.645,+0.104,-0.724,-0.875,+0.312,+0.875,-2, 3, -1, 0, -1, 0, -1, -2,-0.9270078391658314,0.6926365123972041,0
1503609552866,-0.435,-0.110,+0.324,+0.833,+0.657,+0.100,-0.727,-1.000,+0.750,+0.625,-3, -15, -1, -1, 0, 1, 0, 0,-0.9270078391658314,0.6926365123972041,0
1503609552890,-0.435,-0.110,+0.324,+0.833,+0.654,+0.100,-0.725,-1.312,+0.375,+0.250,0, -2, -2, 0, -1, -2, -2, -3,-0.9270078391658314,0.6926365123972041,0
1503609552904,-0.435,-0.110,+0.324,+0.833,+0.655,+0.107,-0.728,-1.375,+0.188,+0.250,8, 12, 1, -1, -2, -1, 0, 1,-0.9270078391658314,0.6926365123972041,0
1503609552927,-0.435,-0.110,+0.324,+0.833,+0.652,+0.104,-0.728,-1.125,-0.125,+0.312,-3, -3, 0, -1, -1, -3, -3, -5,-0.9270078391658314,0.6926365123972041,0
1503609552952,-0.435,-0.110,+0.324,+0.833,+0.650,+0.104,-0.729,-1.000,+0.688,+0.625,-3, 3, 2, 0, -1, 2, 0, -1,-0.9270078391658314,0.6926365123972041,0
1503609552964,-0.435,-0.110,+0.324,+0.833,+0.657,+0.105,-0.730,-1.062,-0.312,+0.625,-3, -1, 0, 1, 0, -1, 0, 0,-0.9270078391658314,0.6926365123972041,0
1503609552986,-0.435,-0.110,+0.324,+0.833,+0.659,+0.104,-0.723,-1.000,+0.312,+0.562,-3, -4, -2, -1, 0, -2, -1, 0,-0.9270078391658314,0.6926365123972041,0
1503609553009,-0.435,-0.110,+0.324,+0.833,+0.653,+0.107,-0.720,-0.625,-0.750,+0.688,0, 3, 0, 0, 1, 0, -2, -1,-0.9270078391658314,0.6926365123972041,0
1503609553024,-0.435,-0.110,+0.324,+0.833,+0.654,+0.098,-0.736,-1.000,+0.062,+0.750,-3, -2, -2, 0, -1, 1, 2, -4,-0.9270078391658314,0.6926365123972041,0
1503609553046,-0.435,-0.110,+0.324,+0.833,+0.652,+0.101,-0.728,-1.500,-1.125,+0.188,-1, 0, 0, -1, -2, 0, -1, 2,-0.9270078391658314,0.6926365123972041,0
1503609553069,-0.435,-0.110,+0.324,+0.833,+0.652,+0.111,-0.726,-1.188,-0.188,+0.375,-2, 0, -3, -2, -2, 0, -5, -4,-0.9270078391658314,0.6926365123972041,0
1503609553086,-0.435,-0.110,+0.324,+0.833,+0.652,+0.104,-0.725,-0.812,-0.188,+0.625,-1, 0, 0, 0, -2, -1, 0, 1,-0.9270078391658314,0.6926365123972041,0
1503609553106,-0.435,-0.110,+0.324,+0.833,+0.657,+0.103,-0.726,-1.188,+0.562,+0.625,2, 3, 1, 0, 0, -1, 0, -2,-0.9270078391658314,0.6926365123972041,0
1503609553129,-0.435,-0.110,+0.324,+0.833,+0.662,+0.106,-0.728,-1.250,-1.438,+0.375,-3, -2, -1, -1, -1, -1, -1, 0,-0.9270078391658314,0.6926365123972041,0
1503609553144,-0.435,-0.110,+0.324,+0.833,+0.645,+0.101,-0.719,-0.750,+0.000,+0.062,8, 6, 2, 4, 10, 5, -2, 5,-0.9270078391658314,0.6926365123972041,0
1503609553166,-0.435,-0.110,+0.324,+0.833,+0.652,+0.098,-0.727,-1.125,+0.938,+0.562,-1, -3, -1, -2, -2, 1, -1, -2,-0.9270078391658314,0.6926365123972041,0
1503609553189,-0.435,-0.110,+0.324,+0.833,+0.671,+0.106,-0.734,-2.188,-0.438,+0.562,1, 1, -3, -1, 0, -1, 0, 0,-0.9270078391658314,0.6926365123972041,0
1503609553204,-0.435,-0.110,+0.324,+0.833,+0.650,+0.115,-0.728,-1.188,-1.062,+0.188,-3, -1, -1, -1, -3, -3, -3, -6,-0.9270078391658314,0.6926365123972041,0
1503609553226,-0.435,-0.110,+0.324,+0.833,+0.651,+0.098,-0.725,-0.375,-0.688,+0.688,-2, -3, -1, -1, -3, -3, 0, 1,-0.9270078391658314,0.6926365123972041,0
1503609553249,-0.435,-0.110,+0.324,+0.833,+0.653,+0.099,-0.728,-1.625,-0.250,+0.688,-5, -1, 0, 0, -4, -1, -1, -2,-0.9270078391658314,0.6926365123972041,0
1503609553272,-0.435,-0.110,+0.324,+0.833,+0.651,+0.106,-0.732,-1.375,-0.188,+0.250,-2, -4, -2, -1, -1, 0, -1, -4,-0.9270078391658314,0.6926365123972041,0
1503609553288,-0.435,-0.110,+0.324,+0.833,+0.660,+0.104,-0.729,-1.188,-1.312,+0.625,4, 1, -1, -1, 0, -1, 0, 2,-0.9270078391658314,0.6926365123972041,0
1503609553309,-0.435,-0.110,+0.324,+0.833,+0.655,+0.101,-0.729,-1.312,-1.188,+0.438,-2, 2, -2, -1, -3, 0, -1, -2,-0.9270078391658314,0.6926365123972041,0
1503609553334,-0.435,-0.110,+0.324,+0.833,+0.648,+0.102,-0.729,-1.125,-0.688,+0.375,-3, -8, -3, -2, -2, -2, -2, -3,-0.9270078391658314,0.6926365123972041,0
1503609553346,-0.435,-0.110,+0.323,+0.833,+0.655,+0.105,-0.734,-1.188,-2.062,+0.312,1, -4, -1, -2, -1, 1, 1, 3,-0.9268751285010252,0.6905177345054848,0
1503609553368,-0.435,-0.110,+0.323,+0.833,+0.643,+0.110,-0.731,-0.938,+0.438,+0.188,0, 1, 0, -1, -1, -1, 0, 0,-0.9268751285010252,0.6905177345054848,0
1503609553391,-0.435,-0.110,+0.323,+0.833,+0.656,+0.104,-0.740,-0.562,+0.562,+1.125,0, 0, -1, -2, 0, 0, -1, -1,-0.9268751285010252,0.6905177345054848,0
1503609553407,-0.435,-0.110,+0.323,+0.833,+0.653,+0.095,-0.731,-1.000,-0.062,+0.312,-3, 0, 2, 3, -1, -1, -1, -2,-0.9268751285010252,0.6905177345054848,0
1503609553428,-0.435,-0.110,+0.323,+0.833,+0.648,+0.104,-0.728,-1.625,+0.375,+0.312,-3, 5, 1, -2, -1, -2, -2, -3,-0.9268751285010252,0.6905177345054848,0
1503609553451,-0.435,-0.110,+0.323,+0.833,+0.658,+0.106,-0.728,-1.438,-0.125,+0.188,-1, -2, -3, -1, 0, -1, -2, -2,-0.9268751285010252,0.6905177345054848,0
1503609553467,-0.435,-0.110,+0.323,+0.833,+0.655,+0.101,-0.727,-1.000,-0.125,+0.750,-1, -3, -3, -1, -2, -1, 1, 3,-0.9268751285010252,0.6905177345054848,0
1503609553490,-0.435,-0.110,+0.323,+0.833,+0.657,+0.104,-0.733,-1.062,-1.688,+0.500,-2, -2, 1, 0, 1, 0, 0, -1,-0.9268751285010252,0.6905177345054848,0
1503609553518,-0.435,-0.110,+0.323,+0.833,+0.649,+0.105,-0.723,-1.125,-0.250,+0.438,-1, 2, 2, 0, -1, -1, 0, -3,-0.9268751285010252,0.6905177345054848,0
1503609553533,-0.435,-0.110,+0.323,+0.833,+0.648,+0.104,-0.727,-0.812,+0.188,+0.812,1, -1, -2, -1, -2, 0, -2, -4,-0.9268751285010252,0.6905177345054848,0
1503609553549,-0.435,-0.110,+0.323,+0.833,+0.659,+0.099,-0.723,-0.625,-0.250,+0.625,1, 3, 3, 1, 0, -2, -1, 1,-0.9268751285010252,0.6905177345054848,0
1503609553571,-0.435,-0.110,+0.323,+0.833,+0.657,+0.095,-0.729,-1.125,+0.312,+0.688,0, -7, -4, -2, -1, -1, 2, 2,-0.9268751285010252,0.6905177345054848,0
1503609553588,-0.435,-0.110,+0.323,+0.833,+0.648,+0.110,-0.727,-1.625,-1.000,+0.062,-3, 0, -1, -1, -5, 0, -4, -8,-0.9268751285010252,0.6905177345054848,0
1503609553609,-0.435,-0.110,+0.323,+0.833,+0.653,+0.109,-0.726,-1.312,+0.062,+0.188,1, -2, -3, -1, 0, 0, 2, 4,-0.9268751285010252,0.6905177345054848,0
1503609553632,-0.435,-0.110,+0.323,+0.833,+0.653,+0.104,-0.728,-1.125,-0.188,+0.812,-2, -3, -4, 0, 0, -1, -2, 2,-0.9268751285010252,0.6905177345054848,0
1503609553647,-0.435,-0.110,+0.323,+0.833,+0.653,+0.105,-0.730,-1.250,+0.188,+0.438,-1, 4, 5, -1, -1, -1, 0, -1,-0.9268751285010252,0.6905177345054848,0
1503609553669,-0.435,-0.110,+0.323,+0.833,+0.653,+0.109,-0.737,-1.000,-0.438,+0.438,1, 4, 0, -2, 0, 0, 0, 0,-0.9268751285010252,0.6905177345054848,0
1503609553691,-0.435,-0.110,+0.323,+0.833,+0.650,+0.104,-0.729,-0.750,-0.500,+0.688,-2, -4, -1, -1, 0, 1, 1, -2,-0.9268751285010252,0.6905177345054848,0
1503609553707,-0.435,-0.110,+0.323,+0.833,+0.653,+0.096,-0.730,-1.062,-0.438,+0.375,1, 3, 1, 0, 0, 0, -1, 2,-0.9268751285010252,0.6905177345054848,0
1503609553729,-0.435,-0.110,+0.323,+0.833,+0.647,+0.102,-0.724,-1.812,+0.312,+0.438,-1, -5, -2, -2, -1, -1, -1, 1,-0.9268751285010252,0.6905177345054848,0
1503609553751,-0.435,-0.110,+0.323,+0.833,+0.652,+0.111,-0.728,-1.250,-0.625,+0.312,-2, -3, -4, -2, -2, -3, -4, -1,-0.9268751285010252,0.6905177345054848,0
1503609553767,-0.435,-0.110,+0.323,+0.833,+0.651,+0.101,-0.729,-1.188,+0.250,+0.562,0, 0, -3, -1, -1, 0, -1, -1,-0.9268751285010252,0.6905177345054848,0
1503609553789,-0.435,-0.110,+0.323,+0.833,+0.659,+0.102,-0.727,-1.438,+0.000,+0.500,-1, -4, -3, 0, 0, 0, 0, -2,-0.9268751285010252,0.6905177345054848,0
1503609553811,-0.435,-0.110,+0.323,+0.833,+0.647,+0.105,-0.723,-1.375,+0.188,+0.500,2, 1, 0, -1, -2, -2, -4, 0,-0.9268751285010252,0.6905177345054848,0
1503609553827,-0.435,-0.110,+0.323,+0.833,+0.660,+0.104,-0.730,-0.938,-0.875,+0.500,-2, -1, 0, 1, 0, -2, 0, -1,-0.9268751285010252,0.6905177345054848,0
1503609553849,-0.435,-0.110,+0.323,+0.833,+0.658,+0.099,-0.726,-1.188,+0.062,+0.250,-2, 3, -2, 0, -3, -2, 0, -3,-0.9268751285010252,0.6905177345054848,0
1503609553871,-0.435,-0.110,+0.323,+0.833,+0.646,+0.106,-0.726,-1.375,-1.000,+0.250,0, -1, -1, -1, 0, 0, 0, -3,-0.9268751285010252,0.6905177345054848,0
1503609553887,-0.435,-0.110,+0.323,+0.833,+0.645,+0.105,-0.734,-0.938,-0.312,+0.938,-1, -2, -2, 0, 0, 0, -4, 0,-0.9268751285010252,0.6905177345054848,0
1503609553908,-0.435,-0.110,+0.323,+0.833,+0.650,+0.103,-0.729,-0.938,+0.062,+0.312,-1, -1, -2, -3, -3, -1, 0, -2,-0.9268751285010252,0.6905177345054848,0
1503609553931,-0.435,-0.110,+0.323,+0.833,+0.650,+0.103,-0.725,-1.250,+0.812,+0.562,-1, 2, 2, -2, 0, -1, 0, 0,-0.9268751285010252,0.6905177345054848,0
1503609553947,-0.435,-0.110,+0.323,+0.833,+0.661,+0.104,-0.733,-1.125,+0.125,+0.750,-4, -5, -1, 0, -1, -1, -1, -4,-0.9268751285010252,0.6905177345054848,0
1503609553968,-0.435,-0.110,+0.323,+0.833,+0.651,+0.104,-0.729,-1.500,-0.188,-0.062,2, 0, 2, -1, -1, -1, -2, 2,-0.9268751285010252,0.6905177345054848,0
1503609553992,-0.436,-0.110,+0.323,+0.833,+0.647,+0.104,-0.726,-1.312,+0.688,+0.500,3, 8, 0, -1, -1, 0, 0, 0,-0.9292797155580289,0.6906881465484964,0
1503609554007,-0.436,-0.110,+0.323,+0.833,+0.658,+0.104,-0.729,-1.188,-1.438,+0.438,-3, -2, -2, -2, 1, -1, -2, -1,-0.9292797155580289,0.6906881465484964,0
1503609554029,-0.436,-0.110,+0.323,+0.833,+0.649,+0.102,-0.730,-1.125,+0.188,+0.312,-2, -6, -4, -1, -1, -1, 1, 3,-0.9292797155580289,0.6906881465484964,0
1503609554051,-0.436,-0.110,+0.323,+0.833,+0.655,+0.107,-0.731,-1.062,-0.375,+0.625,0, -4, -3, -1, 0, 0, 1, 1,-0.9292797155580289,0.6906881465484964,0
1503609554068,-0.436,-0.110,+0.323,+0.833,+0.651,+0.102,-0.725,-1.000,+0.000,+0.438,0, -2, 0, 0, -2, 0, 3, 5,-0.9292797155580289,0.6906881465484964,0
1503609554089,-0.436,-0.110,+0.323,+0.833,+0.649,+0.104,-0.717,-0.875,+0.812,+0.625,-3, -3, -1, -1, -2, 0, 0, -1,-0.9292797155580289,0.6906881465484964,0
1503609554111,-0.436,-0.110,+0.323,+0.833,+0.669,+0.101,-0.739,-1.000,-0.938,+0.688,-5, -1, 3, -1, -3, -3, -4, -14,-0.9292797155580289,0.6906881465484964,0
1503609554127,-0.436,-0.110,+0.323,+0.833,+0.647,+0.099,-0.723,-1.625,+0.000,-0.375,1, 6, -2, 0, 0, -1, -1, 0,-0.9292797155580289,0.6906881465484964,0
1503609554149,-0.436,-0.110,+0.323,+0.833,+0.650,+0.109,-0.727,-1.438,-0.500,+0.375,1, -1, -2, 0, -2, 0, -2, 0,-0.9292797155580289,0.6906881465484964,0
1503609554171,-0.436,-0.110,+0.323,+0.833,+0.657,+0.104,-0.729,-1.062,-1.062,+0.000,-1, -2, 0, -2, 1, 0, 0, 0,-0.9292797155580289,0.6906881465484964,0
1503609554187,-0.436,-0.110,+0.323,+0.833,+0.649,+0.101,-0.729,-1.312,+1.188,+0.250,0, -1, -3, 0, -1, -1, 0, 0,-0.9292797155580289,0.6906881465484964,0
1503609554209,-0.436,-0.110,+0.323,+0.833,+0.661,+0.108,-0.730,-1.062,-0.875,+0.250,-1, -2, -1, 0, 0, -2, -1, -1,-0.9292797155580289,0.6906881465484964,0
1503609554232,-0.436,-0.110,+0.323,+0.833,+0.650,+0.100,-0.723,-0.750,+1.062,+0.500,-1, 0, 1, -3, -2, -1, -1, -2,-0.9292797155580289,0.6906881465484964,0
1503609554247,-0.436,-0.110,+0.323,+0.833,+0.649,+0.106,-0.731,-0.938,-0.188,+0.625,-3, 0, -1, 1, -2, -1, -1, -1,-0.9292797155580289,0.6906881465484964,0
1503609554269,-0.436,-0.110,+0.323,+0.833,+0.654,+0.104,-0.725,-1.000,+0.188,+0.562,2, -1, 2, 0, 0, 1, 0, 3,-0.9292797155580289,0.6906881465484964,0
1503609554291,-0.436,-0.110,+0.323,+0.833,+0.639,+0.110,-0.730,+0.000,+1.750,+0.562,1, 1, -3, -3, -4, -2, 1, 2,-0.9292797155580289,0.6906881465484964,0
1503609554307,-0.436,-0.111,+0.323,+0.832,+0.657,+0.104,-0.734,+0.062,+0.750,+0.500,-1, -1, 0, 2, 0, -1, -1, -4,-0.9294997288803575,0.6911462015532386,0
1503609554329,-0.436,-0.111,+0.324,+0.832,+0.656,+0.094,-0.724,-0.750,+2.688,+1.750,-3, -4, -1, -2, 0, 1, -1, -2,-0.9296331979860198,0.6932635104210854,0
1503609554351,-0.436,-0.111,+0.324,+0.832,+0.659,+0.107,-0.721,-1.750,+1.500,+0.875,0, -2, -1, 0, 1, -1, -2, -2,-0.9296331979860198,0.6932635104210854,0
1503609554367,-0.436,-0.111,+0.324,+0.832,+0.671,+0.109,-0.726,-0.938,-1.062,+0.438,1, 0, 0, 0, -3, -2, -1, 1,-0.9296331979860198,0.6932635104210854,0
1503609554389,-0.436,-0.111,+0.324,+0.832,+0.640,+0.109,-0.720,-0.500,+0.375,+1.438,-1, -3, -1, -3, -1, -1, -1, 2,-0.9296331979860198,0.6932635104210854,0
1503609554413,-0.436,-0.111,+0.324,+0.832,+0.643,+0.106,-0.726,+0.688,-0.875,-0.188,-1, 1, -1, 0, 3, 2, 1, -2,-0.9296331979860198,0.6932635104210854,0
1503609554430,-0.436,-0.112,+0.324,+0.832,+0.665,+0.088,-0.720,-0.938,+1.500,+2.312,-2, -1, 2, -1, -4, 0, -1, 2,-0.9303817271856317,0.6942237247252168,0
1503609554450,-0.436,-0.111,+0.324,+0.832,+0.670,+0.098,-0.736,-2.500,-1.500,+1.250,-3, -9, -5, -2, 0, -1, -5, -1,-0.9296331979860198,0.6932635104210854,0
1503609554471,-0.436,-0.111,+0.323,+0.832,+0.650,+0.112,-0.729,-1.500,-2.750,+0.188,-1, 3, 0, -1, 0, -1, -4, -10,-0.9294997288803575,0.6911462015532386,0
1503609554487,-0.436,-0.111,+0.323,+0.833,+0.640,+0.104,-0.729,+0.062,-1.062,+1.250,0, 2, -1, -1, -3, -1, 0, 3,-0.9300237115840411,0.6916462252129109,0
1503609554509,-0.436,-0.111,+0.323,+0.833,+0.646,+0.089,-0.729,-0.062,-1.375,+1.312,-2, -5, -1, -1, -1, 0, 1, 2,-0.9300237115840411,0.6916462252129109,0
1503609554531,-0.436,-0.112,+0.323,+0.833,+0.655,+0.091,-0.719,-1.375,+1.562,+0.625,0, 0, -1, -1, -1, -1, 0, -1,-0.9307705504198645,0.6926064539647948,0
1503609554547,-0.436,-0.111,+0.323,+0.833,+0.667,+0.101,-0.731,-2.062,-0.688,-0.250,1, -1, -2, 0, 0, 0, -1, 1,-0.9300237115840411,0.6916462252129109,0
1503609554569,-0.436,-0.111,+0.323,+0.833,+0.664,+0.106,-0.726,-1.438,-2.312,+0.125,-3, -10, -2, 0, -1, -1, -2, -1,-0.9300237115840411,0.6916462252129109,0
1503609554591,-0.436,-0.111,+0.323,+0.833,+0.651,+0.098,-0.723,-1.562,-2.812,+0.562,-2, 1, -1, -2, 0, -1, 2, -1,-0.9300237115840411,0.6916462252129109,0
1503609554607,-0.436,-0.111,+0.322,+0.833,+0.648,+0.105,-0.739,-1.562,-3.062,+0.375,0, 1, -2, 0, -1, -1, -2, -5,-0.9298903821374919,0.6895305580636226,0
1503609554630,-0.436,-0.111,+0.322,+0.833,+0.641,+0.106,-0.722,-0.625,-1.188,+0.812,-2, -2, 2, 1, 0, -3, -2, -3,-0.9298903821374919,0.6895305580636226,0
1503609554651,-0.436,-0.111,+0.322,+0.833,+0.648,+0.101,-0.733,+0.188,-1.000,+1.062,-1, -1, -2, -1, -2, -2, -3, -1,-0.9298903821374919,0.6895305580636226,0
1503609554667,-0.436,-0.111,+0.322,+0.833,+0.651,+0.090,-0.738,-0.438,-1.375,+0.812,-2, 2, 0, -1, 0, -1, 0, -3,-0.9298903821374919,0.6895305580636226,0
1503609554689,-0.436,-0.111,+0.322,+0.833,+0.644,+0.099,-0.723,-1.375,+0.062,+0.375,0, 0, -2, -2, 0, -1, 1, 3,-0.9298903821374919,0.6895305580636226,0
1503609554711,-0.436,-0.111,+0.322,+0.833,+0.649,+0.104,-0.729,-1.188,-0.188,+0.688,-2, 0, -2, 0, 0, -1, -2, 1,-0.9298903821374919,0.6895305580636226,0
1503609554727,-0.436,-0.111,+0.322,+0.833,+0.647,+0.102,-0.730,-0.500,+0.125,+1.000,2, 2, 1, -1, -1, 2, -1, 1,-0.9298903821374919,0.6895305580636226,0
1503609554749,-0.436,-0.111,+0.322,+0.833,+0.658,+0.097,-0.724,-0.688,+0.500,+0.812,0, 1, -1, 0, -1, -1, 1, -1,-0.9298903821374919,0.6895305580636226,0
1503609554771,-0.436,-0.111,+0.322,+0.833,+0.657,+0.100,-0.733,-1.125,-0.312,-0.062,0, 2, 0, -1, -1, -1, -1, 1,-0.9298903821374919,0.6895305580636226,0
1503609554787,-0.436,-0.111,+0.322,+0.833,+0.648,+0.104,-0.729,-0.188,+0.312,+0.250,1, -1, 0, 1, 1, 0, 0, -1,-0.9298903821374919,0.6895305580636226,0
1503609554809,-0.436,-0.111,+0.322,+0.833,+0.654,+0.099,-0.726,-0.375,+0.625,+1.812,-2, 0, -2, -1, 0, -1, -1, 5,-0.9298903821374919,0.6895305580636226,0
1503609554834,-0.436,-0.111,+0.321,+0.833,+0.658,+0.101,-0.727,+0.188,-1.062,+1.188,1, -1, -1, -1, -2, -1, 0, 0,-0.9297570050120674,0.6874171664747963,0
1503609554848,-0.437,-0.111,+0.321,+0.833,+0.644,+0.094,-0.730,-0.250,+1.125,-0.125,-5, -8, -1, -3, -1, 0, -1, -1,-0.932163510398142,0.6875895286252305,0
1503609554871,-0.437,-0.111,+0.321,+0.833,+0.658,+0.099,-0.734,-0.750,+0.250,+0.812,1, 1, -1, 0, 2, 0, -1, -3,-0.932163510398142,0.6875895286252305,0
1503609554891,-0.437,-0.112,+0.322,+0.833,+0.654,+0.099,-0.728,+0.250,+1.812,+0.500,-4, 1, -2, -3, -3, -2, -3, -4,-0.9330413971276031,0.6906647296598445,0
1503609554907,-0.437,-0.112,+0.322,+0.833,+0.646,+0.097,-0.724,-0.188,+0.250,+0.062,3, 6, 4, 2, 1, 1, 2, 2,-0.9330413971276031,0.6906647296598445,0
1503609554929,-0.437,-0.112,+0.322,+0.833,+0.665,+0.097,-0.719,-1.875,+0.688,+1.000,2, 0, -3, 0, -2, 0, -2, 0,-0.9330413971276031,0.6906647296598445,0
1503609554951,-0.437,-0.112,+0.322,+0.833,+0.654,+0.103,-0.740,+0.812,-0.750,+0.062,-2, 1, 2, -1, 0, 0, -2, -4,-0.9330413971276031,0.6906647296598445,0
1503609554967,-0.437,-0.112,+0.321,+0.832,+0.642,+0.089,-0.725,-0.125,-0.312,-1.750,-2, -1, 3, -4, -1, 0, -1, 1,-0.9323844064790792,0.6880540757069096,0
1503609554989,-0.437,-0.112,+0.322,+0.832,+0.669,+0.096,-0.725,-2.188,+1.250,+1.688,5, 3, -5, 0, 2, -1, 1, 7,-0.9325185318979777,0.6901659938694046,0
1503609555011,-0.437,-0.112,+0.322,+0.832,+0.653,+0.106,-0.732,-1.312,-1.250,+0.438,-1, 2, -1, 1, 0, 1, 0, -1,-0.9325185318979777,0.6901659938694046,0
1503609555028,-0.437,-0.112,+0.322,+0.832,+0.631,+0.100,-0.738,-0.438,+1.250,+0.562,1, -2, -2, -1, -2, -2, -2, -1,-0.9325185318979777,0.6901659938694046,0
1503609555050,-0.437,-0.113,+0.322,+0.832,+0.629,+0.108,-0.726,+0.500,+3.625,+1.375,-1, 2, 0, 2, 0, 1, -1, -2,-0.933267021099292,0.6911307668965114,0
1503609555071,-0.437,-0.113,+0.323,+0.832,+0.654,+0.086,-0.718,-0.375,+5.875,-0.125,-5, -8, -4, -4, -3, -3, -3, -1,-0.9334021245561721,0.6932444489947334,0
1503609555088,-0.436,-0.114,+0.324,+0.832,+0.702,+0.083,-0.721,-4.188,+5.438,+2.500,0, 1, 1, -1, 0, -3, -4, -5,-0.9318873167577141,0.6961506348960013,0
1503609555109,-0.436,-0.113,+0.324,+0.832,+0.689,+0.117,-0.718,-4.125,-2.250,+0.062,-2, -1, -1, 1, 0, 1, 0, -1,-0.9311330993062563,0.6951860976349322,0
1503609555133,-0.437,-0.113,+0.324,+0.832,+0.648,+0.115,-0.723,+0.125,-3.688,-0.312,-4, -3, -2, -1, 0, 0, 0, -7,-0.9335371787321535,0.6953604028950245,0
1503609555147,-0.437,-0.113,+0.323,+0.832,+0.643,+0.097,-0.735,+0.688,-2.938,+2.188,0, 1, 0, 1, 0, -1, -1, 3,-0.9334021245561721,0.6932444489947334,0
1503609555170,-0.437,-0.113,+0.323,+0.832,+0.649,+0.086,-0.728,-0.438,-0.125,+1.625,-3, -2, -1, 0, -3, -1, 2, -2,-0.9334021245561721,0.6932444489947334,0
1503609555191,-0.437,-0.113,+0.323,+0.832,+0.655,+0.099,-0.727,-2.000,+0.938,+0.312,1, -5, -1, -2, -1, -1, 2, -2,-0.9334021245561721,0.6932444489947334,0
1503609555207,-0.437,-0.113,+0.323,+0.832,+0.657,+0.103,-0.724,-1.188,+0.500,+0.562,-11, -6, 0, 1, 1, 0, 0, 0,-0.9334021245561721,0.6932444489947334,0
1503609555229,-0.437,-0.113,+0.323,+0.832,+0.664,+0.090,-0.724,-0.625,-0.750,+0.562,-4, 1, 0, 0, -1, -3, 3, 2,-0.9334021245561721,0.6932444489947334,0
1503609555252,-0.437,-0.113,+0.323,+0.832,+0.663,+0.092,-0.728,-2.125,-1.500,+0.250,1, -5, -3, -1, 0, -1, -3, -1,-0.9334021245561721,0.6932444489947334,0
1503609555268,-0.437,-0.112,+0.323,+0.832,+0.646,+0.103,-0.736,-2.688,+1.312,-0.875,3, 2, -1, -2, -3, -1, -1, 3,-0.9326526088363689,0.6922801896143538,0
1503609555289,-0.437,-0.112,+0.323,+0.832,+0.643,+0.111,-0.728,-1.188,-1.625,-1.000,-12, -5, 3, 1, -1, 0, -1, -5,-0.9326526088363689,0.6922801896143538,0
1503609555312,-0.437,-0.112,+0.323,+0.832,+0.660,+0.080,-0.717,-1.562,+2.125,+0.312,3, 0, 0, 0, -1, 0, 1, 1,-0.9326526088363689,0.6922801896143538,0
1503609555327,-0.437,-0.112,+0.324,+0.832,+0.675,+0.096,-0.720,-3.625,-0.500,+0.125,1, -1, -1, 0, -1, 0, -1, -1,-0.9327866373157154,0.6943966632204666,0
1503609555350,-0.437,-0.112,+0.324,+0.832,+0.674,+0.112,-0.722,-2.750,-3.625,-0.688,0, 1, -1, -1, 0, -1, -3, 1,-0.9327866373157154,0.6943966632204666,0
1503609555372,-0.437,-0.111,+0.323,+0.832,+0.648,+0.105,-0.725,-1.438,-3.375,+0.688,1, -3, -3, -1, -1, 0, -1, 0,-0.9319059419653329,0.6913180829876467,0
1503609555387,-0.438,-0.111,+0.322,+0.832,+0.645,+0.098,-0.730,-0.875,-4.188,+0.875,4, 3, -1, 0, 1, -1, -2, 3,-0.9341813859142578,0.6893755150570295,0
1503609555410,-0.438,-0.111,+0.322,+0.832,+0.644,+0.092,-0.728,-1.188,-2.000,+1.000,1, -2, -2, -3, -1, -1, -1, -4,-0.9341813859142578,0.6893755150570295,0
1503609555432,-0.438,-0.111,+0.322,+0.832,+0.652,+0.093,-0.731,-1.812,-2.000,+0.375,1, 3, -1, 0, -1, 1, 1, 0,-0.9341813859142578,0.6893755150570295,0
1503609555447,-0.438,-0.111,+0.321,+0.832,+0.648,+0.098,-0.739,-1.812,-2.000,-0.312,9, 7, 2, -1, -1, -2, -1, 1,-0.9340487621752743,0.6872633969026443,0
1503609555470,-0.438,-0.111,+0.322,+0.832,+0.641,+0.102,-0.729,-1.688,+1.000,-0.438,0, 0, -2, 0, -1, 1, -1, -2,-0.9341813859142578,0.6893755150570295,0
1503609555492,-0.438,-0.111,+0.322,+0.832,+0.645,+0.105,-0.726,-1.312,+0.000,-0.312,4, 4, -2, -1, -3, -1, -1, 1,-0.9341813859142578,0.6893755150570295,0
1503609555507,-0.438,-0.111,+0.322,+0.832,+0.654,+0.098,-0.722,-0.188,+2.500,+0.750,-11, -17, -8, 0, -1, -1, 0, 0,-0.9341813859142578,0.6893755150570295,0
1503609555529,-0.438,-0.111,+0.322,+0.832,+0.679,+0.093,-0.737,-0.875,-0.688,+0.625,12, 3, -1, 0, -1, -1, -1, 5,-0.9341813859142578,0.6893755150570295,0
1503609555551,-0.438,-0.111,+0.322,+0.832,+0.669,+0.098,-0.725,-1.500,-3.625,-0.312,-5, -1, 0, -1, -2, 0, 1, 1,-0.9341813859142578,0.6893755150570295,0
1503609555567,-0.438,-0.110,+0.321,+0.832,+0.639,+0.100,-0.733,-2.000,-2.875,-0.812,1, 0, 1, 0, 0, 0, 0, 0,-0.9333078383824741,0.6863010228986394,0
1503609555590,-0.439,-0.110,+0.321,+0.832,+0.636,+0.114,-0.745,-1.812,-2.938,-1.312,-2, 0, 1, 1, 1, 0, 0, -1,-0.9357194343252555,0.6864720471899496,0
1503609555613,-0.439,-0.110,+0.321,+0.832,+0.632,+0.111,-0.725,-0.250,+0.500,+0.562,-35, -51, -4, -2, -2, -1, -2, -9,-0.9357194343252555,0.6864720471899496,0
1503609555627,-0.439,-0.110,+0.321,+0.832,+0.652,+0.104,-0.728,+1.312,+2.250,+1.562,12, 22, 2, 1, 2, -1, 1, 3,-0.9357194343252555,0.6864720471899496,0
1503609555650,-0.439,-0.111,+0.321,+0.832,+0.662,+0.098,-0.735,+1.312,+0.375,+1.250,3, 9, 1, 1, 1, 1, -1, 0,-0.9364595216576083,0.6874358025730616,0
1503609555672,-0.439,-0.111,+0.321,+0.832,+0.661,+0.097,-0.726,-0.938,+0.500,+0.938,0, 1, -2, -2, 0, 0, 0, -2,-0.9364595216576083,0.6874358025730616,0
1503609555688,-0.439,-0.111,+0.321,+0.832,+0.659,+0.108,-0.728,-1.188,-1.750,+0.938,3, 4, -2, -2, -2, -2, -3, -6,-0.9364595216576083,0.6874358025730616,0
1503609555710,-0.439,-0.111,+0.320,+0.832,+0.633,+0.099,-0.731,+0.500,-0.438,+0.500,6, 5, -2, -1, -3, -2, 0, 1,-0.9363273227644191,0.6853262754298445,0
1503609555732,-0.439,-0.111,+0.320,+0.832,+0.639,+0.095,-0.735,+0.625,+0.062,+0.625,4, 1, -3, -2, -2, 1, -1, 1,-0.9363273227644191,0.6853262754298445,0
1503609555748,-0.439,-0.111,+0.320,+0.832,+0.658,+0.096,-0.729,-1.312,+0.062,+0.750,0, 2, -1, -2, -2, -2, 0, -2,-0.9363273227644191,0.6853262754298445,0
1503609555771,-0.439,-0.111,+0.320,+0.832,+0.653,+0.108,-0.736,-0.750,+1.312,+0.500,-1, 0, -2, 0, 0, -1, -1, 0,-0.9363273227644191,0.6853262754298445,0
1503609555792,-0.439,-0.111,+0.320,+0.832,+0.663,+0.096,-0.737,-0.250,-2.250,+0.562,-3, 4, -2, -1, -2, -2, -2, 0,-0.9363273227644191,0.6853262754298445,0
1503609555808,-0.439,-0.112,+0.320,+0.832,+0.650,+0.089,-0.726,-1.562,-0.688,+0.375,1, 4, 3, 0, -1, 0, 1, 2,-0.9370692458517633,0.6862926770622042,0
1503609555830,-0.439,-0.111,+0.320,+0.832,+0.648,+0.096,-0.742,-2.625,-2.250,+0.062,2, 3, 4, -1, 1, 1, 1, 0,-0.9363273227644191,0.6853262754298445,0
1503609555852,-0.440,-0.111,+0.320,+0.832,+0.646,+0.102,-0.731,-2.875,-1.250,-0.375,4, 0, 4, -2, -1, -1, -1, 3,-0.9387403408840566,0.6854989414093593,0
1503609555867,-0.440,-0.111,+0.320,+0.832,+0.648,+0.105,-0.736,-1.875,+0.125,+0.125,-4, -6, -4, -2, -1, -3, -1, -1,-0.9387403408840566,0.6854989414093593,0
1503609555889,-0.440,-0.111,+0.320,+0.832,+0.654,+0.105,-0.737,-1.562,-1.375,+0.125,1, 2, 3, 2, -1, 0, -1, -5,-0.9387403408840566,0.6854989414093593,0
1503609555912,-0.440,-0.111,+0.320,+0.832,+0.642,+0.098,-0.727,-1.062,+0.438,+0.188,0, -3, -2, -1, 0, 0, -1, 3,-0.9387403408840566,0.6854989414093593,0
1503609555927,-0.440,-0.111,+0.320,+0.832,+0.650,+0.104,-0.728,-0.688,+0.062,+0.375,1, 0, -2, -1, -1, -1, -4, -1,-0.9387403408840566,0.6854989414093593,0
1503609555949,-0.440,-0.111,+0.320,+0.832,+0.660,+0.099,-0.726,-1.062,-0.938,+0.438,1, 1, -2, -4, -2, 0, 0, 2,-0.9387403408840566,0.6854989414093593,0
1503609555973,-0.440,-0.111,+0.320,+0.832,+0.650,+0.094,-0.726,-0.938,-0.875,+0.688,-5, -7, 0, -1, 0, -2, -2, -7,-0.9387403408840566,0.6854989414093593,0
1503609555987,-0.440,-0.111,+0.319,+0.832,+0.651,+0.101,-0.741,-1.375,-2.125,+0.125,2, 3, 0, -2, -1, -2, 0, 2,-0.9386085682748743,0.6833920022807367,0
1503609556010,-0.440,-0.111,+0.319,+0.832,+0.642,+0.105,-0.730,-1.312,-1.375,+0.250,-1, 8, 0, 0, 0, 0, -1, -3,-0.9386085682748743,0.6833920022807367,0
1503609556031,-0.440,-0.110,+0.319,+0.832,+0.650,+0.107,-0.736,-0.812,-1.625,-0.062,1, -3, -2, 0, -1, -1, 1, 2,-0.9378713679243476,0.6824258383335742,0
1503609556047,-0.440,-0.111,+0.319,+0.832,+0.662,+0.096,-0.729,-0.562,-1.688,+0.188,-7, -7, 2, 1, -1, -2, -1, -2,-0.9386085682748743,0.6833920022807367,0
1503609556069,-0.440,-0.110,+0.318,+0.832,+0.648,+0.096,-0.736,-1.125,-3.062,+0.375,2, -1, -5, 0, -1, 1, 1, 4,-0.9377405709533472,0.6803206725266435,0
1503609556092,-0.440,-0.110,+0.318,+0.833,+0.643,+0.101,-0.737,-1.438,-3.812,+0.750,-2, -1, -1, 0, 1, -2, -1, -2,-0.9382634791756915,0.6808173216951072,0
1503609556114,-0.440,-0.110,+0.318,+0.833,+0.627,+0.101,-0.742,-0.750,-1.000,+0.875,1, 2, -1, 0, 0, -2, 0, 1,-0.9382634791756915,0.6808173216951072,0
1503609556129,-0.440,-0.110,+0.318,+0.833,+0.637,+0.098,-0.735,-1.000,-0.250,+1.438,1, -1, -1, -1, -3, 0, 0, 0,-0.9382634791756915,0.6808173216951072,0
1503609556152,-0.440,-0.110,+0.318,+0.833,+0.653,+0.096,-0.738,-1.188,+0.812,+1.938,-3, 0, -1, -2, -2, 0, 0, -1,-0.9382634791756915,0.6808173216951072,0
1503609556167,-0.440,-0.110,+0.318,+0.833,+0.663,+0.106,-0.734,-0.562,-0.375,+2.562,1, 0, -2, 1, -1, -2, 1, 2,-0.9382634791756915,0.6808173216951072,0
1503609556189,-0.440,-0.111,+0.318,+0.833,+0.664,+0.103,-0.733,+0.750,-2.062,+1.750,0, 0, 0, -1, -1, -1, -2, -2,-0.9389989995751311,0.6817834968477272,0
1503609556212,-0.440,-0.111,+0.317,+0.833,+0.669,+0.093,-0.724,+0.750,-5.125,+0.438,-1, 0, -2, -2, 0, 0, -1, 0,-0.9388673200541062,0.6796804262129439,0
1503609556227,-0.440,-0.110,+0.316,+0.833,+0.665,+0.100,-0.727,-0.750,-8.188,+1.375,0, 1, 2, -1, 0, 0, -2, 1,-0.9380021182714353,0.6766124497858289,0
1503609556250,-0.440,-0.110,+0.315,+0.834,+0.654,+0.110,-0.731,+0.375,-11.438,+0.500,-4, -3, -8, 1, 0, -1, -2, -2,-0.9383940897737489,0.6750075825335631,0
1503609556272,-0.441,-0.109,+0.312,+0.834,+0.638,+0.100,-0.733,+2.000,-13.438,+0.938,-5, -6, -5, -2, -4, -4, -3, 0,-0.9396950997773442,0.667927393496326,0
1503609556287,-0.441,-0.109,+0.310,+0.835,+0.627,+0.099,-0.757,+2.500,-15.062,+0.375,5, 6, 11, 5, 1, 0, 1, 3,-0.9399593953617292,0.6642383782177925,0
1503609556310,-0.441,-0.108,+0.308,+0.836,+0.608,+0.095,-0.743,+0.875,-12.375,+3.062,-2, -7, -11, -7, -3, -3, -1, -1,-0.9395067568265073,0.659588191420238,0
1503609556332,-0.441,-0.108,+0.306,+0.837,+0.632,+0.103,-0.758,+0.750,-10.250,+5.688,1, -8, -8, -6, -3, 0, 0, 3,-0.9397733624055981,0.6559098612356877,0
1503609556354,-0.441,-0.108,+0.304,+0.838,+0.628,+0.108,-0.758,+2.250,-11.938,+6.500,-8, -12, -2, -2, -1, -2, -4, -9,-0.9400397735727951,0.6522369654419632,0
1503609556369,-0.440,-0.108,+0.302,+0.839,+0.620,+0.096,-0.756,+5.375,-11.375,+7.250,1, 2, -1, -5, -3, -3, -2, 3,-0.9378852258713624,0.6483966590767951,0
1503609556392,-0.440,-0.109,+0.300,+0.840,+0.602,+0.076,-0.768,+6.625,-8.312,+8.438,3, 8, -1, -2, 0, -1, 0, -1,-0.9388578033087905,0.645701031739569,0
1503609556414,-0.439,-0.110,+0.298,+0.840,+0.603,+0.079,-0.767,+5.625,-6.250,+7.875,2, 7, 1, 0, -2, 0, 1, 1,-0.9368883855133608,0.6423583502820697,0
1503609556430,-0.438,-0.111,+0.297,+0.841,+0.623,+0.092,-0.758,+5.500,-5.250,+10.375,3, -2, -2, -2, -2, 0, 1, 4,-0.9355728525136265,0.6415637369409625,0
1503609556452,-0.438,-0.112,+0.295,+0.842,+0.602,+0.065,-0.764,+7.000,-5.188,+7.812,6, 0, -6, -4, -2, -1, 1, 4,-0.9365404781591342,0.6388865810431664,0
1503609556476,-0.437,-0.113,+0.294,+0.842,+0.590,+0.038,-0.772,+5.000,-4.312,+5.250,2, -4, -4, -1, -1, -2, 0, 1,-0.9347063813343927,0.6376193826745955,0
1503609556490,-0.438,-0.113,+0.293,+0.843,+0.583,+0.037,-0.773,+1.250,-1.188,+1.062,-1, 0, -2, -2, -2, -1, 0, -1,-0.9375055075585874,0.6362170897184048,0
1503609556512,-0.438,-0.113,+0.293,+0.842,+0.589,+0.041,-0.775,-3.000,+2.375,-2.812,-5, -3, -3, 2, 0, 0, 0, -1,-0.9369858217496244,0.6357446456008945,0
1503609556534,-0.438,-0.113,+0.294,+0.842,+0.612,+0.037,-0.757,-7.312,+3.438,-5.625,-2, -2, -2, -1, -1, -1, -3, -1,-0.9371199663345959,0.6378013886929127,0
1503609556550,-0.439,-0.112,+0.295,+0.841,+0.614,+0.036,-0.772,-11.250,+3.688,-10.500,-3, -2, 0, 0, 0, 0, -1, -3,-0.9384360351344494,0.6385920099969818,0
1503609556572,-0.440,-0.109,+0.297,+0.840,+0.575,+0.062,-0.798,-16.000,+9.500,-11.375,3, -5, -2, 0, -2, -2, 1, 3,-0.9384701772248307,0.6395002633526954,0
1503609556594,-0.442,-0.107,+0.301,+0.839,+0.562,+0.096,-0.772,-16.188,+17.125,-15.438,-1, 1, -1, -2, -1, -1, -3, -2,-0.9418972227186135,0.6457015637174205,0
1503609556612,-0.442,-0.106,+0.305,+0.837,+0.589,+0.143,-0.771,-14.125,+25.500,-8.875,2, 7, 0, -1, -1, -1, 1, -1,-0.9406522025511955,0.6520697440913454,0
1503609556632,-0.441,-0.107,+0.310,+0.835,+0.652,+0.189,-0.708,-8.062,+27.562,+3.250,-1, 2, 4, 2, -1, -1, 0, -1,-0.9385234072458599,0.6623078135488534,0
1503609556654,-0.440,-0.109,+0.314,+0.834,+0.752,+0.149,-0.705,+4.250,+15.062,+7.438,3, -1, -6, -2, 0, -2, -2, 2,-0.9375355825193723,0.6719445533242929,0
1503609556670,-0.439,-0.111,+0.314,+0.835,+0.741,+0.073,-0.705,+6.062,-1.812,+7.562,6, 2, -2, 0, -2, -1, 0, -1,-0.9371019743368747,0.6741962729656885,0
1503609556692,-0.440,-0.112,+0.312,+0.835,+0.646,+0.046,-0.739,+2.938,-9.875,-0.750,1, -6, -5, -1, -2, -2, -2, -2,-0.9399837022512528,0.6711519728819084,0
1503609556714,-0.440,-0.111,+0.311,+0.835,+0.624,+0.090,-0.759,-2.625,-7.125,+0.188,-2, -7, -4, -3, -2, -1, -3, -4,-0.9391211463105384,0.6680907638312426,0
1503609556729,-0.440,-0.110,+0.309,+0.836,+0.609,+0.111,-0.755,-1.125,-6.750,+1.625,-1, 2, 1, 0, -1, 0, -2, -2,-0.9386551713638832,0.6634350264288446,0
1503609556752,-0.440,-0.110,+0.309,+0.836,+0.596,+0.088,-0.748,+0.875,-1.062,+3.125,1, 1, -2, 0, -2, 1, 1, 3,-0.9386551713638832,0.6634350264288446,0
1503609556774,-0.440,-0.111,+0.309,+0.836,+0.609,+0.065,-0.748,-1.000,+1.250,+2.375,0, -3, 1, -1, -1, -1, 1, 0,-0.9393795360328353,0.6644041131088159,0
1503609556789,-0.439,-0.111,+0.310,+0.836,+0.630,+0.078,-0.754,-4.125,+7.688,+1.625,-1, -4, -3, -3, -2, 0, -2, -2,-0.9370960308486332,0.666316180639344,0
1503609556812,-0.439,-0.111,+0.311,+0.836,+0.652,+0.103,-0.752,-4.188,+4.688,-0.438,-3, -13, -2, -1, 0, -3, -1, -5,-0.9372279536649075,0.6684059285762007,0
1503609556834,-0.439,-0.111,+0.312,+0.835,+0.646,+0.096,-0.735,-2.875,+5.688,-0.312,-2, 0, -3, -3, -1, 0, 0, 0,-0.9368379907936767,0.6700070304337883,0
1503609556850,-0.439,-0.111,+0.313,+0.835,+0.635,+0.096,-0.735,-2.688,+5.438,-0.438,2, -2, -2, -1, -1, 0, 1, 1,-0.9369700062687135,0.6721005278492208,0
1503609556871,-0.439,-0.111,+0.314,+0.835,+0.658,+0.106,-0.732,-2.625,+2.688,+0.438,-1, -3, -3, 0, -2, 0, -1, 0,-0.9371019743368747,0.6741962729656885,0
1503609556893,-0.439,-0.111,+0.314,+0.835,+0.667,+0.104,-0.734,-0.625,+1.312,+1.875,0, -3, 2, 0, 0, -1, 1, 0,-0.9371019743368747,0.6741962729656885,0
1503609556908,-0.439,-0.112,+0.313,+0.835,+0.656,+0.089,-0.745,+0.625,-2.938,+1.375,-2, -7, 2, -2, 0, -1, -2, -1,-0.9377028056283445,0.6730689090254686,0
1503609556931,-0.439,-0.112,+0.313,+0.835,+0.634,+0.086,-0.734,+0.000,-3.500,+0.875,-1, -2, -2, -2, -2, 0, -2, -2,-0.9377028056283445,0.6730689090254686,0
1503609556953,-0.439,-0.112,+0.313,+0.835,+0.617,+0.087,-0.745,-0.625,-1.188,+0.750,0, 15, 4, 1, -1, -3, -1, -3,-0.9377028056283445,0.6730689090254686,0
1503609556968,-0.439,-0.112,+0.313,+0.835,+0.631,+0.091,-0.745,-1.188,+0.312,-0.062,1, -1, 0, -1, -1, -2, 0, 1,-0.9377028056283445,0.6730689090254686,0
1503609556991,-0.439,-0.112,+0.313,+0.835,+0.638,+0.092,-0.740,-1.688,+3.250,+0.125,-5, -9, -3, -1, -1, -1, 0, 1,-0.9377028056283445,0.6730689090254686,0
1503609557013,-0.439,-0.112,+0.314,+0.835,+0.648,+0.095,-0.741,-1.688,+1.625,-0.125,-1, -3, 0, -1, 1, 0, 1, 1,-0.9378357974643637,0.6751641752473281,0
1503609557028,-0.439,-0.112,+0.314,+0.834,+0.643,+0.098,-0.732,-1.375,+1.938,+0.000,-2, 3, 0, -1, -1, -1, -1, -1,-0.9373142409749001,0.6746719437428833,0
1503609557051,-0.439,-0.112,+0.314,+0.834,+0.649,+0.092,-0.737,-1.062,+1.125,+0.562,1, 3, 0, -1, -2, -1, 1, -1,-0.9373142409749001,0.6746719437428833,0
1503609557073,-0.439,-0.112,+0.314,+0.834,+0.651,+0.093,-0.731,-0.750,-0.688,+0.812,3, -1, -1, -1, -1, -1, 2, 5,-0.9373142409749001,0.6746719437428833,0
1503609557089,-0.439,-0.112,+0.314,+0.834,+0.649,+0.091,-0.745,-0.438,+0.000,+0.875,0, 1, 1, 1, 0, -1, -3, 1,-0.9373142409749001,0.6746719437428833,0
1503609557111,-0.439,-0.112,+0.314,+0.834,+0.646,+0.091,-0.734,-0.625,-2.312,+0.750,-2, -1, -1, -2, -1, -1, -2, -2,-0.9373142409749001,0.6746719437428833,0
1503609557133,-0.439,-0.112,+0.314,+0.834,+0.639,+0.093,-0.737,-0.375,-1.438,+0.312,-2, 4, 1, 0, -1, -1, -1, -4,-0.9373142409749001,0.6746719437428833,0
1503609557148,-0.439,-0.112,+0.313,+0.834,+0.645,+0.095,-0.742,+0.688,-1.750,+0.438,-2, 3, 0, -2, -1, -3, -1, -1,-0.9371810600127733,0.6725773932081931,0
1503609557171,-0.440,-0.112,+0.313,+0.834,+0.646,+0.089,-0.740,+1.500,-3.375,+0.500,0, -1, -1, -1, 1, 2, 0, 0,-0.9395952107788248,0.6727533153103437,0
1503609557193,-0.440,-0.113,+0.312,+0.834,+0.637,+0.085,-0.750,+1.562,-2.625,-0.062,0, -4, -1, 0, -2, -1, 1, 3,-0.9401969660754097,0.6716341653573767,0
1503609557208,-0.440,-0.113,+0.312,+0.834,+0.628,+0.084,-0.751,-0.125,-1.875,-0.750,-2, -4, -2, -1, 1, -1, -2, -2,-0.9401969660754097,0.6716341653573767,0
1503609557231,-0.440,-0.113,+0.311,+0.834,+0.618,+0.086,-0.744,-0.938,+1.000,-0.125,-3, 0, 0, -1, 0, 0, -1, -1,-0.9400631483210611,0.6695448822099193,0
1503609557253,-0.440,-0.113,+0.312,+0.834,+0.635,+0.087,-0.743,-1.188,+3.750,+0.500,-2, 1, 1, 0, -1, 0, -1, -2,-0.9401969660754097,0.6716341653573767,0
1503609557268,-0.440,-0.113,+0.312,+0.834,+0.649,+0.093,-0.735,-1.875,+2.000,+0.938,-1, -3, -2, 0, 1, -2, 0, 2,-0.9401969660754097,0.6716341653573767,0
1503609557291,-0.440,-0.113,+0.313,+0.834,+0.653,+0.085,-0.753,-1.938,+2.812,+0.562,0, -2, -2, -2, -2, -1, -1, -3,-0.9403307347891644,0.6737256912271158,0
1503609557315,-0.440,-0.113,+0.313,+0.834,+0.641,+0.086,-0.735,-2.688,+0.625,-0.875,-1, 1, -2, -1, -2, 0, -2, -1,-0.9403307347891644,0.6737256912271158,0
1503609557328,-0.440,-0.113,+0.313,+0.834,+0.636,+0.099,-0.740,-1.938,+1.125,+0.062,-1, 2, 3, -1, -3, -2, -2, -3,-0.9403307347891644,0.6737256912271158,0
1503609557358,-0.440,-0.113,+0.313,+0.834,+0.650,+0.087,-0.741,-0.938,+0.750,+0.500,-1, -6, -4, -2, 0, 0, 0, 0,-0.9403307347891644,0.6737256912271158,0
1503609557373,-0.440,-0.113,+0.313,+0.834,+0.643,+0.086,-0.745,-1.500,+0.250,+0.375,-4, -9, -1, 1, 1, -1, -2, -2,-0.9403307347891644,0.6737256912271158,0
1503609557388,-0.440,-0.113,+0.313,+0.834,+0.644,+0.097,-0.742,-1.312,+0.188,+0.188,1, 2, 1, -2, -2, -1, -2, -1,-0.9403307347891644,0.6737256912271158,0
1503609557411,-0.440,-0.113,+0.313,+0.834,+0.642,+0.093,-0.737,-0.875,-0.312,+0.375,0, 3, -3, -2, -1, -2, 0, 0,-0.9403307347891644,0.6737256912271158,0
1503609557433,-0.440,-0.113,+0.314,+0.834,+0.638,+0.084,-0.745,-1.188,+1.562,+0.750,1, 0, -3, -1, -1, 0, 0, -1,-0.9404644544844939,0.6758194608106659,0
1503609557451,-0.440,-0.113,+0.314,+0.834,+0.646,+0.091,-0.732,-1.938,+0.375,+0.125,-1, -6, -3, 1, 1, -2, -1, 1,-0.9404644544844939,0.6758194608106659,0
1503609557471,-0.440,-0.113,+0.314,+0.833,+0.647,+0.099,-0.730,-1.375,+1.438,+0.562,1, 1, -2, 1, -1, 0, 0, -3,-0.9399434997782413,0.6753274610662005,0
1503609557493,-0.440,-0.114,+0.314,+0.833,+0.654,+0.091,-0.737,-0.375,-0.250,+1.250,-5, -5, -1, -2, -2, -2, -1, -5,-0.9406835810179602,0.6763019671060643,0
1503609557510,-0.440,-0.114,+0.314,+0.833,+0.651,+0.085,-0.735,-0.500,-1.625,+0.625,-3, -11, -4, -2, -2, 0, 3, 2,-0.9406835810179602,0.6763019671060643,0
1503609557531,-0.440,-0.114,+0.314,+0.833,+0.642,+0.085,-0.737,-0.875,-0.375,+0.562,1, 7, 3, -3, 1, -1, -2, 0,-0.9406835810179602,0.6763019671060643,0
1503609557553,-0.440,-0.113,+0.313,+0.834,+0.644,+0.090,-0.741,-1.500,-2.688,+0.750,1, 2, -1, -1, -2, -3, -1, 4,-0.9403307347891644,0.6737256912271158,0
1503609557568,-0.440,-0.113,+0.313,+0.834,+0.631,+0.084,-0.745,-1.500,-0.375,+0.375,-1, 5, -1, -1, 1, 0, -1, -2,-0.9403307347891644,0.6737256912271158,0
1503609557591,-0.440,-0.113,+0.313,+0.834,+0.638,+0.091,-0.741,-1.875,+0.688,+0.438,-1, 2, 0, -2, -3, -1, -2, -3,-0.9403307347891644,0.6737256912271158,0
1503609557613,-0.440,-0.113,+0.313,+0.834,+0.646,+0.094,-0.733,-2.000,+0.312,+0.750,-2, 0, 1, 1, -1, 1, -2, -4,-0.9403307347891644,0.6737256912271158,0
1503609557629,-0.440,-0.113,+0.313,+0.834,+0.651,+0.096,-0.739,-1.125,+0.375,+0.500,-6, -15, -5, -3, 0, -3, 0, -1,-0.9403307347891644,0.6737256912271158,0
1503609557651,-0.440,-0.113,+0.313,+0.834,+0.641,+0.094,-0.738,-1.312,-1.250,+0.312,3, 0, 2, 1, -1, -2, -2, 0,-0.9403307347891644,0.6737256912271158,0
1503609557673,-0.440,-0.113,+0.313,+0.834,+0.641,+0.091,-0.743,-0.938,-1.062,+0.250,-1, -3, -1, -1, -1, 0, -1, 1,-0.9403307347891644,0.6737256912271158,0
1503609557689,-0.441,-0.113,+0.313,+0.834,+0.639,+0.094,-0.745,-0.938,-1.688,+0.375,0, -2, -1, 0, -2, -1, -1, 1,-0.9427458207305838,0.6739029614741259,0
1503609557711,-0.441,-0.113,+0.313,+0.834,+0.633,+0.092,-0.742,-0.750,+0.812,+0.938,-2, -10, -1, 0, -2, 0, 0, -2,-0.9427458207305838,0.6739029614741259,0
1503609557733,-0.441,-0.114,+0.313,+0.834,+0.639,+0.088,-0.746,-0.688,+1.250,+1.062,1, 1, -1, -2, 1, 2, -1, 2,-0.9434834233248858,0.6748788542780412,0
1503609557748,-0.441,-0.114,+0.313,+0.834,+0.649,+0.086,-0.739,-1.938,+0.000,+0.188,1, 1, -1, 0, -1, -1, -3, 1,-0.9434834233248858,0.6748788542780412,0
1503609557771,-0.441,-0.114,+0.314,+0.833,+0.634,+0.093,-0.727,-1.875,+1.938,-0.125,-2, -4, 0, -2, -1, 0, 0, -1,-0.943098076004942,0.6764804613294527,0
1503609557794,-0.441,-0.114,+0.314,+0.833,+0.658,+0.093,-0.739,-1.375,-0.250,+0.625,-3, 3, 0, -1, -1, -1, 1, -3,-0.943098076004942,0.6764804613294527,0
1503609557808,-0.441,-0.114,+0.314,+0.833,+0.648,+0.085,-0.731,-1.250,-0.125,+0.125,-1, -3, 2, 1, -1, -2, -2, -3,-0.943098076004942,0.6764804613294527,0
1503609557831,-0.441,-0.114,+0.314,+0.833,+0.646,+0.089,-0.736,-1.500,+0.062,+0.125,0, -1, -2, -1, -1, 1, 1, 1,-0.943098076004942,0.6764804613294527,0
1503609557853,-0.441,-0.113,+0.313,+0.833,+0.642,+0.099,-0.742,-1.312,-2.062,+0.250,-4, -1, -1, 1, 0, -1, -1, -1,-0.9422253819394136,0.6734118155448426,0
1503609557868,-0.441,-0.114,+0.313,+0.833,+0.636,+0.092,-0.735,-0.875,+1.500,+0.625,-1, -3, -2, -1, -2, -1, -2, 2,-0.9429636384442132,0.6743881877587512,0
1503609557891,-0.441,-0.114,+0.313,+0.833,+0.649,+0.089,-0.744,-1.188,-1.312,+0.812,1, 1, -1, 1, -1, -1, 0, 2,-0.9429636384442132,0.6743881877587512,0
1503609557914,-0.441,-0.114,+0.313,+0.833,+0.648,+0.088,-0.739,-1.375,-0.812,-0.062,0, 3, -2, 1, 0, 1, 0, -2,-0.9429636384442132,0.6743881877587512,0
1503609557930,-0.441,-0.114,+0.313,+0.833,+0.634,+0.092,-0.742,-1.250,-0.625,+0.438,1, 1, -4, -1, 1, -1, 0, 1,-0.9429636384442132,0.6743881877587512,0
1503609557954,-0.441,-0.114,+0.313,+0.833,+0.639,+0.091,-0.737,-1.062,-0.375,+0.438,-1, 0, 1, -1, -2, -1, 2, 3,-0.9429636384442132,0.6743881877587512,0
1503609557973,-0.441,-0.114,+0.313,+0.833,+0.643,+0.092,-0.737,-1.062,+0.625,+0.500,1, 1, -1, -1, -1, 0, 0, -2,-0.9429636384442132,0.6743881877587512,0
1503609557989,-0.441,-0.114,+0.313,+0.833,+0.650,+0.096,-0.742,-1.062,+0.125,+0.688,0, 5, 4, -1, -2, 1, -2, 0,-0.9429636384442132,0.6743881877587512,0
1503609558013,-0.441,-0.114,+0.313,+0.833,+0.644,+0.094,-0.738,-0.625,+0.375,+0.812,0, -3, -3, -1, 0, -2, -1, 1,-0.9429636384442132,0.6743881877587512,0
1503609558034,-0.441,-0.114,+0.313,+0.833,+0.643,+0.087,-0.738,-0.562,-0.312,+1.000,-2, -5, -1, -2, -2, -3, 0, -1,-0.9429636384442132,0.6743881877587512,0
1503609558050,-0.441,-0.114,+0.313,+0.833,+0.639,+0.090,-0.736,-1.250,-1.438,+0.250,-1, -3, -2, -2, -2, -2, -1, 0,-0.9429636384442132,0.6743881877587512,0
1503609558071,-0.441,-0.114,+0.313,+0.833,+0.637,+0.092,-0.737,-1.125,+1.688,+0.750,2, -1, -1, 1, -1, 0, 0, -1,-0.9429636384442132,0.6743881877587512,0
1503609558093,-0.441,-0.114,+0.313,+0.833,+0.654,+0.089,-0.746,-1.250,-1.562,+0.625,-2, 0, -1, -1, -1, 0, 0, -2,-0.9429636384442132,0.6743881877587512,0
1503609558109,-0.441,-0.114,+0.313,+0.833,+0.637,+0.089,-0.736,-1.250,+0.188,+0.125,0, 3, 2, 1, 0, 0, -1, 1,-0.9429636384442132,0.6743881877587512,0
1503609558131,-0.441,-0.114,+0.313,+0.833,+0.644,+0.085,-0.744,-1.375,+1.312,+0.312,-1, -1, 0, -2, 0, -1, 0, 2,-0.9429636384442132,0.6743881877587512,0
1503609558155,-0.441,-0.114,+0.313,+0.833,+0.642,+0.094,-0.732,-2.188,-0.750,-0.062,-1, 0, 0, -1, -2, -1, 1, 3,-0.9429636384442132,0.6743881877587512,0
1503609558170,-0.441,-0.114,+0.314,+0.833,+0.646,+0.094,-0.731,-1.062,+2.250,+0.688,0, 6, -1, -3, -2, -1, -1, 1,-0.943098076004942,0.6764804613294527,0
1503609558191,-0.441,-0.114,+0.314,+0.833,+0.658,+0.091,-0.737,-1.000,-2.125,+0.688,-1, -2, 0, 1, 0, -1, -1, 1,-0.943098076004942,0.6764804613294527,0
1503609558213,-0.441,-0.114,+0.314,+0.833,+0.641,+0.084,-0.736,-1.250,-0.500,+0.125,-1, -4, -1, 0, -1, -2, -2, -4,-0.943098076004942,0.6764804613294527,0
1503609558229,-0.441,-0.114,+0.314,+0.833,+0.643,+0.095,-0.746,-1.375,-0.812,+0.375,0, 1, 1, -1, -1, -1, -2, -2,-0.943098076004942,0.6764804613294527,0
1503609558257,-0.441,-0.114,+0.314,+0.833,+0.636,+0.095,-0.740,-1.250,-1.375,+0.250,1, 3, 1, 0, 0, 0, -2, 1,-0.943098076004942,0.6764804613294527,0
1503609558273,-0.441,-0.114,+0.314,+0.833,+0.635,+0.091,-0.733,-0.375,+1.812,+1.188,-3, -3, -3, -2, -2, -1, 0, -1,-0.943098076004942,0.6764804613294527,0
1503609558289,-0.441,-0.114,+0.314,+0.833,+0.658,+0.091,-0.739,-0.875,-0.188,+0.875,0, -3, 0, 1, 0, -2, 0, 0,-0.943098076004942,0.6764804613294527,0
1503609558311,-0.441,-0.114,+0.314,+0.833,+0.646,+0.084,-0.736,-1.375,+0.062,+0.125,-1, 4, -2, -1, -2, 0, -1, -3,-0.943098076004942,0.6764804613294527,0
1503609558333,-0.441,-0.114,+0.314,+0.833,+0.643,+0.094,-0.737,-1.562,+0.000,-0.062,-2, 1, -2, -1, -1, -2, -3, -4,-0.943098076004942,0.6764804613294527,0
1503609558349,-0.441,-0.114,+0.314,+0.833,+0.645,+0.089,-0.731,-1.438,-0.250,+0.125,0, -3, -3, -2, -2, -1, 0, 0,-0.943098076004942,0.6764804613294527,0
1503609558371,-0.441,-0.114,+0.314,+0.833,+0.650,+0.092,-0.733,-1.375,+0.000,+0.625,-3, -2, -2, -1, 0, -1, -1, 0,-0.943098076004942,0.6764804613294527,0
1503609558393,-0.441,-0.114,+0.314,+0.833,+0.651,+0.097,-0.741,-1.438,-1.938,+0.125,0, 1, 0, -1, 0, -1, -2, -5,-0.943098076004942,0.6764804613294527,0
1503609558409,-0.441,-0.114,+0.314,+0.833,+0.632,+0.087,-0.739,-1.188,+0.375,+0.375,-1, -2, 0, 1, -1, 0, -1, -2,-0.943098076004942,0.6764804613294527,0
1503609558431,-0.441,-0.114,+0.314,+0.833,+0.642,+0.095,-0.749,-1.250,-0.562,+0.375,0, 1, 1, 0, 0, -1, 0, 2,-0.943098076004942,0.6764804613294527,0
1503609558453,-0.441,-0.114,+0.314,+0.833,+0.648,+0.091,-0.736,-1.312,-0.500,+0.625,1, -3, -2, -3, -2, -2, 1, 0,-0.943098076004942,0.6764804613294527,0
1503609558469,-0.441,-0.114,+0.314,+0.833,+0.640,+0.088,-0.739,-1.062,+0.562,+0.438,1, 1, 0, -1, -1, 1, 0, -1,-0.943098076004942,0.6764804613294527,0
1503609558491,-0.441,-0.114,+0.314,+0.833,+0.642,+0.092,-0.738,-1.312,-1.250,+0.438,-1, -3, -2, -1, -1, -2, 0, -1,-0.943098076004942,0.6764804613294527,0
1503609558513,-0.441,-0.114,+0.313,+0.833,+0.641,+0.092,-0.742,-1.000,-0.438,+0.375,-2, -2, -2, 0, 0, -1, 0, -2,-0.9429636384442132,0.6743881877587512,0
1503609558529,-0.441,-0.114,+0.313,+0.833,+0.636,+0.087,-0.743,-1.188,+0.312,+0.438,0, 1, 1, -1, -2, 0, -2, -2,-0.9429636384442132,0.6743881877587512,0
1503609558551,-0.441,-0.114,+0.313,+0.833,+0.643,+0.098,-0.737,-1.438,-0.500,+0.438,-2, 2, 3, 0, 1, -1, -1, 1,-0.9429636384442132,0.6743881877587512,0
1503609558574,-0.441,-0.114,+0.314,+0.833,+0.640,+0.091,-0.733,-0.812,+0.812,+0.750,-2, -1, -1, -1, 0, -1, -2, -2,-0.943098076004942,0.6764804613294527,0
1503609558591,-0.441,-0.114,+0.314,+0.833,+0.646,+0.095,-0.740,-1.125,-0.500,+0.625,2, 0, -2, -2, -2, 1, 0, 3,-0.943098076004942,0.6764804613294527,0
1503609558611,-0.441,-0.114,+0.314,+0.833,+0.646,+0.094,-0.736,-0.875,-0.250,+0.688,-2, -2, 0, 1, 0, 0, -1, -2,-0.943098076004942,0.6764804613294527,0
1503609558641,-0.441,-0.114,+0.314,+0.833,+0.642,+0.089,-0.738,-0.875,+0.250,+0.625,2, 3, -4, -2, -1, -1, -2, -2,-0.943098076004942,0.6764804613294527,0
1503609558659,-0.441,-0.114,+0.314,+0.833,+0.648,+0.092,-0.747,-1.062,-1.125,+0.438,-1, -1, -3, -2, -2, -2, 0, -1,-0.943098076004942,0.6764804613294527,0
1503609558671,-0.441,-0.114,+0.314,+0.833,+0.641,+0.089,-0.727,-1.125,+0.250,+0.562,-1, -4, -2, 1, 0, 0, 0, 1,-0.943098076004942,0.6764804613294527,0
1503609558694,-0.441,-0.114,+0.314,+0.833,+0.643,+0.092,-0.741,-1.188,-0.188,+0.438,-1, 1, 1, -1, -2, 0, -1, -1,-0.943098076004942,0.6764804613294527,0
1503609558709,-0.441,-0.114,+0.314,+0.833,+0.645,+0.089,-0.736,-1.125,+0.250,+0.562,-3, 0, 1, 1, 0, 1, 0, 0,-0.943098076004942,0.6764804613294527,0
1503609558731,-0.441,-0.114,+0.314,+0.833,+0.643,+0.089,-0.738,-1.125,-0.438,+0.500,-3, 3, -1, -1, -2, -1, 0, -3,-0.943098076004942,0.6764804613294527,0
1503609558754,-0.441,-0.114,+0.313,+0.833,+0.645,+0.088,-0.743,-1.000,-0.500,+0.062,2, 1, 3, 1, 0, -1, -2, 1,-0.9429636384442132,0.6743881877587512,0
1503609558769,-0.441,-0.114,+0.313,+0.833,+0.642,+0.086,-0.731,-1.250,-0.562,+0.312,-1, -6, -4, -2, 0, -1, -2, -5,-0.9429636384442132,0.6743881877587512,0
1503609558794,-0.441,-0.114,+0.313,+0.833,+0.641,+0.094,-0.741,-1.250,-0.438,+0.562,-2, 2, 2, -2, 1, -2, -2, -1,-0.9429636384442132,0.6743881877587512,0
1503609558813,-0.441,-0.114,+0.313,+0.833,+0.643,+0.099,-0.740,-1.000,-1.438,+0.375,1, -1, -2, -2, -1, -2, -1, 0,-0.9429636384442132,0.6743881877587512,0
1503609558831,-0.441,-0.114,+0.313,+0.833,+0.635,+0.092,-0.739,-1.000,+0.375,+0.625,0, -4, -2, -2, -1, -1, 0, 1,-0.9429636384442132,0.6743881877587512,0
1503609558851,-0.441,-0.114,+0.313,+0.833,+0.645,+0.088,-0.742,-0.750,+0.562,+0.875,1, 2, 2, -1, 0, -2, 0, 2,-0.9429636384442132,0.6743881877587512,0
1503609558873,-0.441,-0.114,+0.313,+0.833,+0.649,+0.087,-0.738,-1.062,+0.750,+0.500,1, 2, 5, -2, 0, 0, 0, -2,-0.9429636384442132,0.6743881877587512,0
1503609558889,-0.441,-0.114,+0.313,+0.833,+0.646,+0.093,-0.743,-1.438,-0.188,+0.062,-1, -4, -3, 0, -1, -1, -1, 0,-0.9429636384442132,0.6743881877587512,0
1503609558911,-0.441,-0.114,+0.313,+0.833,+0.646,+0.089,-0.735,-1.062,+0.250,+0.625,-2, -4, -2, 0, -1, 0, 0, -2,-0.9429636384442132,0.6743881877587512,0
1503609558933,-0.441,-0.114,+0.313,+0.833,+0.643,+0.086,-0.743,-1.188,-1.125,+0.375,-1, -1, -2, 0, 0, -1, -1, -1,-0.9429636384442132,0.6743881877587512,0
1503609558949,-0.441,-0.114,+0.313,+0.833,+0.644,+0.096,-0.738,-1.562,-0.375,+0.188,-4, -8, -5, -2, -1, -2, -3, -2,-0.9429636384442132,0.6743881877587512,0
1503609558971,-0.441,-0.114,+0.313,+0.833,+0.640,+0.097,-0.743,-0.938,-0.375,+0.562,0, -3, -1, 0, -1, 0, 0, 0,-0.9429636384442132,0.6743881877587512,0
1503609558994,-0.441,-0.114,+0.313,+0.833,+0.642,+0.089,-0.738,-0.875,+0.375,+0.688,0, -2, -1, 0, -2, -1, 0, -2,-0.9429636384442132,0.6743881877587512,0
1503609559009,-0.441,-0.114,+0.313,+0.833,+0.649,+0.091,-0.742,-1.062,-0.562,+0.688,0, 0, -1, 0, 0, -1, -1, -1,-0.9429636384442132,0.6743881877587512,0
1503609559031,-0.441,-0.114,+0.313,+0.833,+0.645,+0.091,-0.735,-1.375,+0.250,+0.125,0, -2, -3, -2, -2, -1, -1, 1,-0.9429636384442132,0.6743881877587512,0
1503609559053,-0.441,-0.114,+0.313,+0.833,+0.644,+0.091,-0.745,-1.438,-0.375,+0.438,-4, -4, -2, -1, -1, 0, -2, -4,-0.9429636384442132,0.6743881877587512,0
1503609559069,-0.441,-0.114,+0.313,+0.833,+0.641,+0.089,-0.737,-1.312,-0.688,+0.250,1, 0, -1, 0, 0, -1, -1, 0,-0.9429636384442132,0.6743881877587512,0
1503609559091,-0.441,-0.114,+0.313,+0.833,+0.642,+0.091,-0.745,-1.250,+0.000,+0.375,2, 4, 2, 1, -1, 2, -3, -5,-0.9429636384442132,0.6743881877587512,0
1503609559113,-0.441,-0.114,+0.313,+0.833,+0.643,+0.091,-0.744,-1.188,+0.500,+0.438,-1, 0, 0, -2, -1, -1, -1, 2,-0.9429636384442132,0.6743881877587512,0
1503609559131,-0.441,-0.114,+0.313,+0.833,+0.643,+0.093,-0.740,-1.188,-0.250,+0.625,1, 5, 0, 0, 0, -1, -2, 0,-0.9429636384442132,0.6743881877587512,0
1503609559151,-0.441,-0.114,+0.313,+0.833,+0.645,+0.091,-0.735,-0.938,+0.562,+0.625,-3, 2, 2, 1, 1, 0, -1, -8,-0.9429636384442132,0.6743881877587512,0
1503609559174,-0.441,-0.114,+0.313,+0.833,+0.645,+0.092,-0.742,-1.125,-0.688,+0.562,2, 2, -2, 0, -1, -1, 1, 6,-0.9429636384442132,0.6743881877587512,0
1503609559189,-0.441,-0.114,+0.313,+0.833,+0.637,+0.089,-0.739,-1.312,+0.250,+0.500,-5, -8, -4, -1, -1, 0, 1, -2,-0.9429636384442132,0.6743881877587512,0
1503609559211,-0.441,-0.114,+0.313,+0.833,+0.640,+0.091,-0.739,-1.250,+0.312,+0.750,-2, -2, -2, -2, -1, 0, -1, 0,-0.9429636384442132,0.6743881877587512,0
1503609559233,-0.441,-0.114,+0.313,+0.833,+0.643,+0.095,-0.731,-1.250,-0.438,+0.500,1, 0, -2, -1, -1, 0, 1, 2,-0.9429636384442132,0.6743881877587512,0
1503609559250,-0.441,-0.114,+0.313,+0.833,+0.637,+0.088,-0.737,-0.875,+1.812,+0.750,-1, -3, -2, -2, -1, -1, -1, -2,-0.9429636384442132,0.6743881877587512,0
1503609559271,-0.441,-0.115,+0.313,+0.833,+0.640,+0.085,-0.756,-1.562,+1.062,+0.312,-5, -8, -1, -2, 0, -1, -1, -3,-0.9437047904837018,0.6753666855256487,0
1503609559293,-0.441,-0.115,+0.314,+0.833,+0.632,+0.097,-0.736,-1.562,+3.750,+0.562,1, 1, 0, 0, -2, 0, 0, 1,-0.9438402362231827,0.6774584878370348,0
1503609559310,-0.441,-0.115,+0.315,+0.833,+0.630,+0.099,-0.738,-0.688,+5.688,+1.812,-1, -4, -1, -3, -2, -2, -2, -2,-0.9439756313356694,0.6795525307314166,0
1503609559333,-0.440,-0.116,+0.315,+0.833,+0.642,+0.088,-0.741,-0.062,+7.562,+2.625,1, 2, -1, -2, -1, 0, 1, 3,-0.942309312087826,0.680351265968518,0
1503609559353,-0.440,-0.117,+0.316,+0.832,+0.658,+0.079,-0.729,-0.938,+7.500,+1.938,1, 4, 0, 0, 1, 0, 2, 3,-0.9426782430308005,0.6829355194762559,0
1503609559371,-0.440,-0.117,+0.318,+0.832,+0.670,+0.078,-0.733,-2.375,+6.750,+0.562,-1, 0, 1, 1, -1, -2, -3, -3,-0.9429541797162371,0.6871321668300004,0
1503609559391,-0.440,-0.118,+0.319,+0.831,+0.657,+0.083,-0.733,-2.562,+6.062,-1.312,0, -1, -1, -1, -1, -1, -1, -1,-0.943331226105369,0.6897212722589872,0
1503609559413,-0.440,-0.118,+0.319,+0.831,+0.654,+0.087,-0.749,-3.875,+5.562,-1.312,2, -2, -2, -1, -3, -1, 1, 2,-0.943331226105369,0.6897212722589872,0
1503609559434,-0.440,-0.118,+0.321,+0.830,+0.632,+0.098,-0.776,-5.688,+14.062,-1.438,0, -1, -1, -1, 0, -1, 0, 0,-0.9430907344099013,0.693433636272221,0
1503609559451,-0.439,-0.119,+0.326,+0.829,+0.653,+0.107,-0.724,-5.625,+31.500,-1.438,-1, 2, 0, -1, 1, 1, -2, -1,-0.9416313275008595,0.7042897605584534,0
1503609559473,-0.438,-0.123,+0.334,+0.825,+0.811,+0.108,-0.727,-2.188,+50.500,-3.562,0, 4, 3, 0, -2, -1, 0, 2,-0.9414327655691281,0.723022143284094,0
1503609559498,-0.438,-0.129,+0.346,+0.820,+0.979,+0.113,-0.791,+3.000,+74.938,-10.750,-2, -5, -4, 0, -2, -2, -2, -2,-0.9454968537820032,0.7521355893141822,0
1503609559512,-0.439,-0.137,+0.360,+0.812,+1.016,+0.144,-0.839,+9.188,+94.875,-15.625,-4, -6, 0, -1, 0, -1, -2, -2,-0.9527345224989496,0.7865798232507547,0
1503609559534,-0.439,-0.152,+0.377,+0.801,+0.760,+0.188,-0.772,+34.500,+147.000,-8.812,0, 1, -1, -2, -3, -1, -2, -1,-0.9635005485605337,0.8336043565825506,0
1503609559556,-0.429,-0.178,+0.400,+0.790,+0.513,+0.047,-0.730,+48.250,+209.812,+57.250,1, -1, 2, 1, 0, -2, -1, 0,-0.9646705409224369,0.9047773400983615,0
1503609559571,-0.417,-0.203,+0.419,+0.781,+0.764,+0.252,-0.762,+52.812,+194.062,+72.500,0, 0, 7, 3, 1, -1, -1, -2,-0.9643508149659424,0.9684172826290183,0
1503609559593,-0.401,-0.232,+0.433,+0.773,+1.068,+0.044,-0.488,+67.125,+166.000,+111.750,-2, 5, 10, 4, 3, 4, 2, 0,-0.9632255909051165,1.0268733006093993,0
1503609559616,-0.388,-0.258,+0.442,+0.767,+1.110,-0.113,-0.276,+72.938,+136.562,+99.062,1, 2, 8, 11, -2, -1, -1, 12,-0.9686822136099117,1.0739926075595325,0
1503609559632,-0.374,-0.279,+0.442,+0.766,+1.071,-0.109,-0.283,+58.688,+63.938,+115.750,1, 2, 0, -6, -10, -4, -18, -2,-0.9676079200925378,1.0975573323821506,0
1503609559653,-0.362,-0.294,+0.429,+0.774,+1.034,-0.018,-0.328,+49.312,-29.062,+127.438,-1, -12, -41, -17, -4, 0, 8, 2,-0.9632153101385099,1.0885584157838268,0
1503609559676,-0.355,-0.301,+0.406,+0.786,+0.863,+0.016,-0.357,+41.562,-110.125,+122.062,-1, -3, 2, 0, 0, 2, -10, 0,-0.9558862487221096,1.0496156445713691,0
1503609559691,-0.352,-0.303,+0.376,+0.802,+0.634,-0.045,-0.389,+35.938,-166.125,+110.000,-3, -1, 25, 6, 2, 3, -11, -8,-0.9484374576364245,0.9918769164444821,0
1503609559713,-0.348,-0.302,+0.341,+0.819,+0.474,-0.202,-0.396,+26.625,-192.438,+113.312,3, 6, 11, 0, 0, 2, 4, 5,-0.9327666811989386,0.920283041238478,0
1503609559736,-0.340,-0.299,+0.310,+0.836,+0.391,-0.363,-0.463,+4.562,-175.625,+118.812,6, 13, -2, 1, 0, -6, 12, 3,-0.9067332104169382,0.8538821853754721,0
1503609559752,-0.330,-0.293,+0.283,+0.851,+0.354,-0.402,-0.541,-24.875,-151.688,+110.188,0, -6, 6, 6, 0, -9, 4, 5,-0.8726172813141964,0.7905515979753434,0
1503609559774,-0.320,-0.283,+0.261,+0.866,+0.409,-0.386,-0.535,-53.938,-135.750,+99.125,-3, 1, 0, 1, 1, -2, 1, -7,-0.8354271384788251,0.7327758378995965,0
1503609559796,-0.311,-0.267,+0.243,+0.879,+0.497,-0.422,-0.446,-89.438,-126.500,+74.438,1, -1, 4, 2, 5, 1, 3, 2,-0.7947378297562565,0.676230967303394,0
1503609559811,-0.305,-0.244,+0.236,+0.890,+0.643,-0.706,-0.353,-135.125,-89.625,+22.688,-4, -5, 1, 2, 0, -1, -3, -6,-0.7581975793936765,0.6366195746550324,0
1503609559833,-0.309,-0.213,+0.234,+0.897,+0.628,-0.886,-0.415,-178.062,-90.000,-50.188,3, 7, -1, -5, -3, -2, -7, 4,-0.7385995990687433,0.6036461814181171,0
1503609559856,-0.316,-0.178,+0.249,+0.898,+0.615,-0.490,-1.069,-205.250,+12.312,-103.000,-1, 4, 8, 2, 3, 2, 1, -10,-0.7275058518105749,0.6031365649311945,0
1503609559872,-0.319,-0.159,+0.280,+0.891,+0.349,+0.396,-1.347,-138.250,+140.625,-86.250,-9, -10, -6, -1, 4, 0, 4, -4,-0.7224792434757725,0.6482667913994128,0
1503609559894,-0.328,-0.156,+0.306,+0.880,+0.453,+0.590,-0.553,-34.375,+143.750,-89.875,6, -1, -3, 2, -4, -2, 1, 2,-0.740423571547405,0.697960320876489,0
1503609559923,-0.348,-0.156,+0.342,+0.859,+0.568,-0.173,+0.270,-16.812,+199.188,-176.125,3, 0, -4, -4, -6, -3, 4, 5,-0.7821782278329533,0.7703533003734426,0
1503609559934,-0.350,-0.147,+0.392,+0.838,+1.249,-0.046,-0.560,-121.938,+262.875,-120.438,-7, -1, -3, -1, 4, 4, -3, -8,-0.7783709805550345,0.8635995291431317,0
1503609559954,-0.330,-0.148,+0.417,+0.834,+1.062,+1.778,-1.319,-92.375,+153.125,+70.375,25, 11, 51, 17, 1, -5, -15, 13,-0.7397443988382789,0.9165021212328993,0
1503609559978,-0.335,-0.152,+0.405,+0.837,+1.241,+0.801,-0.861,+85.938,-66.188,+45.688,79, 114, -19, -30, -7, 6, 7, 23,-0.7532620975651872,0.8945761645671325,0
1503609559992,-0.350,-0.167,+0.388,+0.836,+1.267,-0.783,-0.386,+132.188,-76.625,-31.688,-1, -14, -37, -22, -13, -8, -41, -14,-0.7964089248012082,0.8721366858591584,0
1503609560014,-0.353,-0.172,+0.373,+0.841,+0.838,-0.985,-0.499,+11.625,-86.688,-34.312,30, 27, 22, 10, -30, -20, -12, -17,-0.806930240805576,0.8464279111474241,0
1503609560037,-0.352,-0.168,+0.360,+0.848,+0.633,-0.266,-0.663,-18.312,-79.125,+14.188,11, -60, 73, -21, -20, -2, 8, 40,-0.8011060478743729,0.8168627994853669,0
1503609560052,-0.350,-0.170,+0.356,+0.850,+0.495,+0.070,-0.609,+17.562,-8.812,+22.812,-31, -26, -108, -32, 8, 9, 14, -8,-0.7987284427935237,0.8104982041813087,0
1503609560074,-0.353,-0.174,+0.363,+0.845,+0.484,+0.269,-0.667,+31.625,+65.312,-5.375,16, 27, 39, 39, 31, 14, 5, 15,-0.808508792400533,0.8281443599662188,0
1503609560096,-0.354,-0.184,+0.376,+0.836,+0.647,+0.403,-0.595,+36.062,+106.062,-10.938,-27, -30, -23, -22, 1, -11, -17, 7,-0.8198059872086958,0.8629205574675255,0
1503609560118,-0.353,-0.198,+0.389,+0.828,+0.859,+0.237,-0.496,+49.812,+110.438,+10.438,-22, -28, -16, 6, -5, 2, 25, -10,-0.8323082008875381,0.9024874701859258,0
1503609560135,-0.353,-0.212,+0.399,+0.819,+0.995,+0.012,-0.452,+60.812,+83.688,+11.250,-18, 9, -4, 11, 13, 8, 0, -17,-0.8467405355518419,0.9358879160728214,0
1503609560156,-0.355,-0.224,+0.405,+0.812,+0.990,-0.052,-0.447,+59.062,+53.500,-2.500,-24, -10, -3, 6, 2, -8, 11, 2,-0.8637556818473784,0.9601804802099279,0
1503609560172,-0.360,-0.233,+0.407,+0.807,+0.902,+0.017,-0.467,+56.250,+31.125,-11.000,-19, -25, -5, 2, -12, -5, -3, -23,-0.8837875705256623,0.9741534035435645,0
1503609560194,-0.365,-0.240,+0.408,+0.802,+0.823,+0.004,-0.515,+55.875,+26.875,-12.562,-3, 0, 2, 6, 12, 9, 17, 4,-0.9012983654172477,0.9838091321795451,0
1503609560216,-0.370,-0.248,+0.409,+0.796,+0.822,-0.052,-0.517,+54.000,+32.188,-14.125,-14, -24, -12, 3, -4, -1, 2, -2,-0.9198501937095943,0.994497923831186,0
1503609560232,-0.374,-0.256,+0.413,+0.790,+0.808,+0.015,-0.474,+49.688,+44.438,-15.375,3, 10, -3, 9, 9, 2, -11, -2,-0.93742621070274,1.0119648786039561,0
1503609560254,-0.378,-0.264,+0.418,+0.783,+0.821,+0.105,-0.437,+52.438,+52.000,-12.250,-1, -2, 0, 8, -8, -3, -5, -1,-0.9551457906799153,1.031533891238453,0
1503609560276,-0.382,-0.273,+0.424,+0.775,+0.857,+0.095,-0.445,+58.000,+60.438,-5.688,4, -4, -9, -4, -4, -3, 0, 1,-0.9744144264686584,1.0545605089381787,0
1503609560292,-0.384,-0.284,+0.429,+0.766,+0.896,+0.011,-0.420,+59.062,+64.875,-4.875,0, 5, 0, 3, 1, -4, -2, 0,-0.9918886638928571,1.0775025125669697,0
1503609560314,-0.387,-0.294,+0.434,+0.759,+0.925,-0.017,-0.410,+55.188,+58.812,-8.625,-1, 9, 1, 1, 3, 1, -4, 1,-1.0114048343621047,1.1006427317334309,0
1503609560338,-0.391,-0.303,+0.437,+0.751,+0.964,-0.039,-0.413,+56.812,+43.875,-13.938,-5, -9, -6, 0, 0, -2, -1, -1,-1.0309313480976168,1.1181483083730175,0
1503609560352,-0.396,-0.311,+0.438,+0.744,+0.947,-0.127,-0.459,+57.312,+37.438,-18.125,-7, -19, -15, -2, 4, 1, -1, -3,-1.0511821668844987,1.1307209278714194,0
1503609560374,-0.402,-0.318,+0.438,+0.739,+0.906,-0.219,-0.433,+51.062,+24.812,-25.500,-3, 1, -14, -5, -6, -6, 3, 1,-1.0727639532233821,1.1408761985234155,0
1503609560398,-0.407,-0.323,+0.438,+0.733,+0.931,-0.278,-0.394,+41.438,+20.438,-33.312,2, 3, 19, 2, -11, -2, -1, -1,-1.0889113597226903,1.1475836416326923,0
1503609560412,-0.412,-0.327,+0.440,+0.728,+0.955,-0.295,-0.366,+30.438,+20.125,-37.375,2, -4, -14, -10, -6, 1, 0, 2,-1.1045941736329747,1.1576681258091572,0
1503609560434,-0.416,-0.331,+0.441,+0.723,+0.911,-0.286,-0.371,+23.125,+22.188,-33.438,-11, -2, 12, 6, 4, 1, -2, -1,-1.1179264266215772,1.1653524277498921,0
1503609560456,-0.418,-0.334,+0.443,+0.719,+0.868,-0.282,-0.376,+17.938,+26.000,-24.375,-23, -7, -1, 5, 9, 0, -2, -5,-1.126110583707727,1.1735750896976227,0
1503609560473,-0.419,-0.338,+0.445,+0.715,+0.897,-0.303,-0.365,+18.125,+27.062,-21.812,-15, -11, 0, 5, 8, 0, -3, 1,-1.133809126176068,1.1831629895021472,0
1503609560494,-0.421,-0.342,+0.446,+0.712,+0.940,-0.324,-0.348,+17.062,+23.438,-23.812,8, -2, -8, 0, 1, 4, 0, -5,-1.14378159823373,1.191212252488009,0
1503609560516,-0.423,-0.345,+0.446,+0.709,+0.935,-0.310,-0.336,+15.312,+12.062,-21.438,8, 4, 17, -6, -4, -3, -5, -4,-1.1518962245490711,1.1955249363274416,0
1503609560532,-0.425,-0.347,+0.446,+0.707,+0.872,-0.248,-0.328,+13.875,+3.250,-16.250,2, -6, -18, -8, -3, -7, -5, 4,-1.1587550409538732,1.1985948868841017,0
1503609560554,-0.428,-0.348,+0.445,+0.705,+0.867,-0.199,-0.291,+16.000,+3.125,-18.812,33, 24, 12, 1, -7, 1, 2, 11,-1.1658559061828977,1.198133645862088,0
1503609560576,-0.432,-0.350,+0.446,+0.702,+0.881,-0.201,-0.253,+15.125,+3.750,-26.438,-38, -24, -22, -7, 0, -4, -7, -22,-1.1769806584347111,1.2036034418278088,0
1503609560592,-0.435,-0.350,+0.447,+0.699,+0.908,-0.186,-0.242,+10.250,+3.000,-29.562,-21, -6, 11, -4, -5, 2, 3, -2,-1.1826961983893707,1.2055752744526513,0
1503609560614,-0.438,-0.350,+0.448,+0.696,+0.928,-0.162,-0.256,+6.000,+6.312,-25.500,1, -16, 6, 7, 10, 3, -1, 2,-1.1884299394075355,1.207546064955497,0
1503609560638,-0.439,-0.351,+0.450,+0.694,+0.925,-0.149,-0.260,+3.062,+10.938,-14.875,-6, -1, -12, -22, -20, -1, -3, -2,-1.1920958312746066,1.2131481266447677,0
1503609560652,-0.439,-0.351,+0.452,+0.693,+0.963,-0.131,-0.246,-1.812,+6.000,-10.625,-36, -34, 11, 11, 6, 5, 7, -1,-1.1922910273265166,1.217198204455273,0
1503609560674,-0.440,-0.350,+0.453,+0.692,+0.992,-0.099,-0.265,-4.438,-0.312,-13.000,4, 7, 4, 0, 3, -1, 3, 5,-1.1927350146026205,1.217687284092556,0
1503609560696,-0.441,-0.349,+0.454,+0.691,+0.976,-0.090,-0.313,-3.250,-1.188,-9.875,16, 3, -5, 0, -2, 0, 4, 11,-1.1931833710560997,1.2181809853604124,0
1503609560712,-0.441,-0.349,+0.453,+0.691,+0.955,-0.092,-0.315,-2.625,-1.562,-0.312,-4, 6, 29, 14, 9, -3, -8, -11,-1.1929249612004749,1.2159923282887843,0
1503609560734,-0.440,-0.350,+0.453,+0.692,+0.983,-0.088,-0.298,-1.312,+2.062,+8.688,1, 4, -1, 4, -7, -3, -2, -2,-1.1927350146026205,1.217687284092556,0
1503609560756,-0.439,-0.351,+0.453,+0.693,+0.987,-0.090,-0.304,-0.062,-0.312,+12.062,5, 1, -21, -3, 5, -2, -5, -9,-1.1925512379461776,1.219382798428077,0
1503609560773,-0.438,-0.352,+0.451,+0.694,+0.956,-0.087,-0.314,+1.812,-4.312,+11.500,-5, -2, 4, 7, 5, -2, -2, -3,-1.1918513974740526,1.216713733528174,0
1503609560794,-0.437,-0.353,+0.448,+0.696,+0.934,-0.118,-0.333,+5.250,-11.688,+16.125,3, -15, -31, -10, -3, -4, -4, -1,-1.1912159568706815,1.2121928478472535,0
1503609560816,-0.436,-0.354,+0.444,+0.698,+0.896,-0.122,-0.337,+7.562,-11.812,+18.562,-7, -5, 2, 4, 3, 0, 4, -1,-1.1903153541363753,1.2055228042496209,0
1503609560832,-0.436,-0.356,+0.440,+0.700,+0.895,-0.135,-0.320,+8.250,-15.062,+17.938,-3, 19, 9, -1, 1, -2, 0, -2,-1.193220195271087,1.200797119230149,0
1503609560854,-0.435,-0.358,+0.437,+0.701,+0.909,-0.149,-0.323,+11.250,-11.688,+17.125,3, 10, 11, 15, 5, 1, -1, 1,-1.1939226203232414,1.1976994281333224,0
1503609560876,-0.434,-0.360,+0.433,+0.703,+0.910,-0.148,-0.351,+11.500,-6.500,+21.062,-9, -28, -42, -10, -2, -1, -4, -4,-1.194690074451324,1.1928088492553608,0
1503609560892,-0.434,-0.363,+0.429,+0.705,+0.897,-0.131,-0.374,+15.062,-10.250,+20.500,4, 23, -10, -5, -3, -1, 1, 1,-1.1992915373442898,1.1899241757928396,0
1503609560915,-0.434,-0.365,+0.424,+0.706,+0.909,-0.127,-0.367,+19.812,-19.500,+18.688,3, -4, 12, 7, 4, 2, 0, -3,-1.2016439053364518,1.1829717559393682,0
1503609560936,-0.436,-0.367,+0.418,+0.707,+0.903,-0.134,-0.354,+23.375,-24.250,+13.250,16, -2, -13, -8, -4, -3, -3, -6,-1.2080564047448423,1.1745480605559036,0
1503609560952,-0.440,-0.368,+0.413,+0.708,+0.886,-0.127,-0.326,+25.438,-26.938,+3.875,19, -6, 1, 1, 1, 1, 2, 2,-1.2174044758082065,1.1672130516822077,0
1503609560975,-0.444,-0.368,+0.407,+0.708,+0.898,-0.124,-0.340,+25.750,-33.562,-3.938,-22, -16, -6, 2, 2, -1, 0, -7,-1.2245658498994383,1.1558333383454928,0
1503609560996,-0.449,-0.368,+0.401,+0.709,+0.905,-0.111,-0.371,+23.625,-34.938,-4.500,-1, 17, 0, -2, -1, 1, 3, 6,-1.234299631424775,1.145205080833507,0
1503609561012,-0.454,-0.367,+0.397,+0.708,+0.880,-0.109,-0.375,+22.812,-29.375,-9.125,3, 5, 2, -3, -2, -3, -2, 1,-1.2423471154589771,1.1364126781029151,0
1503609561034,-0.460,-0.367,+0.394,+0.707,+0.896,-0.094,-0.367,+24.188,-23.125,-19.438,-4, -8, 12, 5, -2, 2, 1, 6,-1.2546017505799367,1.1317882234649288,0
1503609561056,-0.466,-0.366,+0.391,+0.704,+0.926,-0.076,-0.385,+22.938,-20.438,-24.500,-4, 39, 51, 14, 6, 2, 0, -3,-1.2647293502589634,1.1247916616519824,0
1503609561072,-0.471,-0.365,+0.390,+0.702,+0.933,-0.070,-0.372,+18.750,-19.312,-21.688,-2, -12, -21, -5, -1, -1, -2, -4,-1.2734604840016635,1.1219252547613114,0
1503609561094,-0.477,-0.364,+0.388,+0.699,+0.918,-0.062,-0.385,+19.375,-11.438,-23.000,-2, -13, -5, -1, 0, -3, -3, 0,-1.284026446061535,1.1170161051900673,0
1503609561117,-0.482,-0.365,+0.389,+0.695,+0.945,-0.085,-0.380,+24.500,-0.688,-31.750,2, -8, -6, -1, 0, -1, -1, -8,-1.2960426529433686,1.1210256852032328,0
1503609561132,-0.489,-0.365,+0.389,+0.690,+0.957,-0.079,-0.386,+25.000,-1.625,-36.000,-12, -8, -1, -8, -5, -6, -7, -7,-1.3105536033114207,1.1215602387888766,0
1503609561154,-0.494,-0.365,+0.389,+0.687,+0.991,-0.044,-0.383,+20.125,-6.562,-26.625,-15, -10, -6, -1, 2, 2, 5, 3,-1.321134052688781,1.1221355296732662,0
1503609561176,-0.499,-0.365,+0.390,+0.682,+0.955,-0.005,-0.379,+18.375,+2.688,-25.188,5, -5, -5, -2, -2, -2, -3, -4,-1.3314667639631965,1.124038744919134,0
1503609561199,-0.504,-0.366,+0.391,+0.678,+0.939,-0.011,-0.409,+25.250,+3.188,-29.375,-7, 2, 4, -5, -4, -2, -1, -10,-1.3437097725984544,1.1280359715227328,0
1503609561215,-0.510,-0.366,+0.390,+0.674,+0.979,-0.032,-0.410,+28.375,-6.750,-30.125,9, 9, 13, 7, 3, 1, 0, 4,-1.3563676862283378,1.1265823095785967,0
1503609561236,-0.515,-0.367,+0.389,+0.670,+0.961,-0.041,-0.353,+23.625,-9.250,-23.562,4, 1, -5, -1, -3, -1, -2, -7,-1.368431824113232,1.126598145042364,0
1503609561252,-0.519,-0.368,+0.389,+0.666,+0.919,-0.018,-0.339,+19.250,+3.375,-20.500,20, 6, 0, -2, 0, -3, -7, -3,-1.3784144199513133,1.1283026258429236,0
1503609561276,-0.523,-0.369,+0.390,+0.662,+0.904,-0.021,-0.376,+21.000,+10.938,-22.000,-13, -3, 0, -2, -3, -1, 2, 10,-1.388585019725226,1.131997449268991,0
1503609561296,-0.526,-0.370,+0.391,+0.659,+0.945,-0.038,-0.375,+18.938,+5.250,-17.500,-13, 18, 21, 0, 1, 0, 2, -6,-1.3966703778368375,1.1357120683325164,0
1503609561315,-0.528,-0.372,+0.391,+0.656,+0.946,-0.071,-0.353,+14.938,+6.250,-15.875,-12, -40, -15, -5, -4, -2, -2, -7,-1.4039428313894262,1.138937130171848,0
1503609561334,-0.531,-0.373,+0.393,+0.652,+0.917,-0.047,-0.336,+10.125,+7.938,-19.375,11, 11, 0, 1, 2, 0, 2, 5,-1.4120187125207908,1.1443103071373182,0
1503609561356,-0.533,-0.373,+0.393,+0.650,+0.943,-0.029,-0.355,+9.688,+5.562,-14.812,13, 15, 0, 4, 0, 0, -3, -11,-1.4163051797858597,1.1442771442399529,0
1503609561372,-0.534,-0.374,+0.394,+0.648,+0.956,-0.061,-0.371,+5.750,+3.500,-8.188,0, -15, -22, -17, -8, -6, -11, -17,-1.4200044059449544,1.1477132455575625,0
1503609561394,-0.535,-0.374,+0.395,+0.647,+0.904,-0.034,-0.367,+1.750,+6.000,-10.375,-1, 2, 10, 3, 3, 1, 1, -4,-1.4222672989537464,1.1496697976238808,0
1503609561416,-0.537,-0.374,+0.397,+0.644,+0.897,+0.000,-0.364,+5.875,+9.188,-16.750,-28, -22, -2, -1, -1, 0, -1, -3,-1.4266401501308217,1.1532610123454785,0
1503609561432,-0.538,-0.374,+0.398,+0.642,+0.957,-0.042,-0.375,+5.812,+7.500,-10.688,0, -20, -11, 1, -2, -4, -1, -5,-1.428754246789644,1.1548967836905473,0
1503609561454,-0.539,-0.375,+0.398,+0.641,+0.961,-0.041,-0.356,+0.125,+4.875,-4.312,6, 18, 2, -4, -2, -3, -6, -13,-1.4325149555503582,1.1566851490484258,0
1503609561478,-0.540,-0.374,+0.399,+0.640,+0.902,+0.003,-0.372,+1.875,+3.062,-6.938,-4, -9, -16, 1, 2, 0, -4, -7,-1.433190493550702,1.1568351471283604,0
1503609561492,-0.541,-0.374,+0.400,+0.638,+0.920,+0.000,-0.376,+5.250,+4.062,-9.625,-8, 17, 12, 6, 0, -1, 1, 1,-1.4353162361305365,1.1584723390880172,0
1503609561515,-0.542,-0.375,+0.401,+0.637,+0.966,-0.031,-0.347,+2.250,+7.500,-5.125,4, -4, -1, -5, -3, 1, 5, 10,-1.4391823202044314,1.1622379639194795,0
1503609561536,-0.541,-0.375,+0.402,+0.637,+0.949,-0.026,-0.375,-4.000,+6.062,+0.625,3, 25, 20, 1, -1, 1, 1, 4,-1.4369655597546944,1.1639208102469183,0
1503609561552,-0.541,-0.374,+0.402,+0.637,+0.897,-0.019,-0.373,-7.750,+1.188,-2.188,18, -9, 1, 5, 3, 2, 2, 19,-1.4353722050993427,1.1621152779784538,0
1503609561574,-0.541,-0.373,+0.404,+0.637,+0.890,-0.015,-0.402,-9.062,+4.688,-4.938,2, 0, -4, 0, 1, 1, -4, 4,-1.4339847176922793,1.1642859241945338,0
1503609561596,-0.540,-0.372,+0.405,+0.637,+0.890,+0.016,-0.406,-10.312,+8.125,+2.750,-10, 5, 8, 0, -3, -3, -4, -13,-1.4301810846882133,1.1641851477926473,0
1503609561612,-0.540,-0.371,+0.404,+0.639,+0.915,+0.047,-0.431,-4.688,-2.812,+13.312,-8, -8, -14, -3, -1, -3, 0, -7,-1.4287948983029128,1.1610415682221495,0
1503609561634,-0.539,-0.371,+0.402,+0.640,+0.958,-0.005,-0.381,+4.125,-10.125,+14.125,5, 6, -12, 0, 2, 1, 5, 2,-1.4264169459145866,1.1570859604257555,0
1503609561656,-0.539,-0.372,+0.400,+0.641,+0.930,-0.068,-0.348,+7.875,-5.375,+8.750,-3, -4, -1, -3, -1, 1, 1, 0,-1.4279460522034313,1.1552328912339986,0
1503609561672,-0.539,-0.373,+0.397,+0.642,+0.884,-0.104,-0.354,+5.625,-6.562,+5.625,0, -6, 2, -2, -2, 0, 5, 6,-1.429372186141519,1.1514178864456375,0
1503609561695,-0.541,-0.373,+0.396,+0.642,+0.854,-0.075,-0.412,+4.125,-8.250,-4.375,-8, -22, 1, 4, -1, 0, -2, 1,-1.4339085697371998,1.1500529214447779,0
1503609561717,-0.544,-0.371,+0.396,+0.640,+0.828,-0.030,-0.363,+7.438,-1.562,-24.125,-7, -8, -6, 1, 3, 3, 4, 10,-1.4374255048984872,1.1467115665550187,0
1503609561732,-0.548,-0.371,+0.396,+0.636,+0.876,-0.023,-0.368,+12.938,+3.562,-24.750,-5, 2, -6, -3, -1, -2, -3, -5,-1.4461939161492272,1.1466291739275065,0
1503609561755,-0.549,-0.373,+0.397,+0.634,+0.948,-0.052,-0.346,+9.062,+7.000,-6.625,-1, 21, 70, 24, 11, 6, 3, 5,-1.4515017982146472,1.1518693407489211,0
1503609561777,-0.549,-0.375,+0.398,+0.633,+0.932,-0.033,-0.311,+4.125,+9.938,-3.750,7, 7, -16, -10, -7, -6, -10, -4,-1.4546192502345676,1.157140658801061,0
1503609561799,-0.549,-0.375,+0.400,+0.631,+0.915,-0.021,-0.326,-1.125,+11.250,-11.688,10, 1, -12, -4, 4, -4, -16, 1,-1.4545385393086672,1.1604396115329274,0
1503609561815,-0.548,-0.374,+0.402,+0.632,+0.952,-0.003,-0.371,-14.938,+5.438,+3.812,-2, -5, -4, -3, -6, -1, 4, -5,-1.4509349017720439,1.1625984133029783,0
1503609561837,-0.544,-0.372,+0.403,+0.635,+0.951,+0.047,-0.422,-26.625,+5.000,+25.125,-9, -10, -9, -6, -5, -8, -3, -15,-1.4389737309838986,1.16074630615553,0
1503609561859,-0.542,-0.369,+0.401,+0.640,+1.018,+0.064,-0.363,-16.250,-28.875,+24.062,-7, -58, -27, 0, 3, 3, 2, -7,-1.4301228080760242,1.1524114899001472,0
1503609561874,-0.544,-0.366,+0.395,+0.643,+1.095,-0.001,-0.360,+3.375,-48.375,+12.875,-1, -5, -12, -7, -5, -4, -3, -8,-1.4299206158291256,1.1367504329596123,0
1503609561897,-0.545,-0.365,+0.390,+0.647,+1.000,-0.098,-0.334,+4.688,-39.938,+14.375,0, 11, 4, 6, 6, 4, 3, -1,-1.430799111608411,1.1267535223201774,0
1503609561919,-0.545,-0.365,+0.387,+0.648,+0.790,-0.075,-0.357,+3.125,-13.750,+7.562,14, 25, 21, 13, 6, 2, 3, -2,-1.4306454053400615,1.1212008988216329,0
1503609561934,-0.547,-0.367,+0.389,+0.644,+0.720,-0.034,-0.371,+15.188,+24.312,-20.875,-5, -13, -12, -11, -7, -9, -10, -13,-1.4380505547158853,1.1280006730641778,0
1503609561957,-0.551,-0.371,+0.394,+0.636,+0.831,-0.102,-0.340,+21.438,+41.250,-47.125,-10, 10, 4, 1, 0, 1, 1, -9,-1.4530256576215024,1.143617901459625,0
1503609561982,-0.554,-0.373,+0.399,+0.629,+0.930,-0.087,-0.362,+9.938,+36.125,-44.438,4, -30, -48, -18, -8, -8, -3, 3,-1.4627216724377905,1.1557032322906537,0
1503609561994,-0.557,-0.373,+0.403,+0.623,+0.863,+0.009,-0.364,+3.125,+23.562,-35.562,-15, 1, 65, 19, 8, 4, -2, -5,-1.4693581423083972,1.1625572076163493,0
1503609562017,-0.560,-0.371,+0.405,+0.620,+0.930,+0.024,-0.350,+3.000,+4.562,-30.375,17, 55, 80, 18, 7, 6, 6, 15,-1.4730915167267185,1.1628160470326883,0
1503609562039,-0.561,-0.370,+0.406,+0.619,+1.031,-0.021,-0.319,-3.188,-7.500,-10.875,-4, -7, -28, -11, -10, -16, -23, -8,-1.4738528396550785,1.1629636351932116,0
1503609562054,-0.560,-0.368,+0.406,+0.621,+0.993,-0.027,-0.316,-15.500,-10.438,+2.812,18, 7, -15, 7, 7, -24, -19, 11,-1.4686206394562735,1.1597149447159436,0
1503609562077,-0.560,-0.364,+0.407,+0.623,+0.932,+0.078,-0.374,-18.938,-15.750,-0.375,10, -3, -4, 4, 4, 9, 14, 12,-1.4627659142946798,1.1551936248351966,0
1503609562103,-0.562,-0.360,+0.408,+0.623,+0.896,+0.131,-0.419,-14.625,-10.000,-5.500,-7, -18, -23, -13, -4, 2, 3, 14,-1.4614647490585249,1.1506614664267611,0
1503609562115,-0.563,-0.357,+0.408,+0.624,+0.938,+0.073,-0.366,-9.438,-9.625,-7.375,-14, -17, -13, 0, 0, 0, 4, -9,-1.459416979488819,1.1459825151748653,0
1503609562137,-0.564,-0.356,+0.409,+0.623,+0.980,+0.022,-0.340,-5.312,-3.125,-12.625,14, 25, 6, 15, 7, 4, -6, -20,-1.4602415802051782,1.1461786246924697,0
1503609562158,-0.565,-0.355,+0.409,+0.622,+0.988,+0.043,-0.378,-1.125,-6.125,-5.562,-19, 7, -12, -11, -4, 6, 1, -11,-1.4609955772999632,1.1443727032793989,0
1503609562173,-0.565,-0.354,+0.408,+0.623,+0.978,+0.043,-0.392,-2.375,-9.062,+5.562,13, -18, -3, 6, 7, 6, 7, 20,-1.459541312310295,1.1409471707825478,0
1503609562196,-0.565,-0.354,+0.408,+0.623,+0.922,+0.011,-0.355,+1.562,-5.500,-1.750,-22, -14, -16, -5, 1, 1, -6, -38,-1.459541312310295,1.1409471707825478,0
1503609562218,-0.567,-0.355,+0.407,+0.622,+0.899,-0.011,-0.368,+5.500,-0.062,-8.375,3, -2, -7, 0, 5, 6, 21, 24,-1.46561407950571,1.1409586581846003,0
1503609562233,-0.567,-0.355,+0.408,+0.621,+0.898,+0.012,-0.383,+3.938,+8.125,-6.875,-4, 19, 0, -7, -3, 1, -3, -7,-1.4655695386765342,1.1426195045674887,0
1503609562256,-0.568,-0.357,+0.409,+0.619,+0.867,+0.061,-0.373,+4.625,+13.812,-3.750,-20, 19, 8, -4, -3, -2, -5, -14,-1.470796395442114,1.147771241018275,0
1503609562278,-0.568,-0.359,+0.410,+0.617,+0.882,+0.077,-0.371,+10.750,+20.500,-5.250,31, 11, 7, 3, 0, 0, 6, 43,-1.473654258717818,1.152644499040271,0
1503609562293,-0.569,-0.362,+0.412,+0.612,+0.930,+0.045,-0.331,+15.250,+22.750,-12.375,7, -5, -7, 0, 0, 0, -5, 7,-1.4801775904624568,1.160616627415992,0
1503609562317,-0.570,-0.364,+0.413,+0.610,+0.975,+0.018,-0.343,+12.000,+12.188,-11.562,0, -12, -10, -5, -4, -1, -5, -3,-1.4854593804838367,1.1658217911289805,0
1503609562338,-0.571,-0.364,+0.414,+0.608,+0.977,+0.044,-0.357,+0.250,+7.562,-4.625,-10, -18, -9, 9, 4, 0, -3, -17,-1.48770629315317,1.1674581961349113,0
1503609562353,-0.571,-0.364,+0.415,+0.608,+0.858,+0.117,-0.332,-3.312,+3.125,-2.750,2, -10, -18, -9, -6, 0, -3, 2,-1.487766719123065,1.169460883106765,0
1503609562376,-0.573,-0.362,+0.415,+0.607,+0.839,+0.137,-0.384,+5.375,-4.188,-3.875,2, -6, -10, -14, -16, -2, 1, 5,-1.4894029395627306,1.1661347330423586,0
1503609562398,-0.575,-0.362,+0.413,+0.607,+0.883,+0.062,-0.402,+10.188,-6.312,-4.250,-2, -3, 1, -8, -7, 0, 3, 0,-1.4940594089590997,1.1627036461733513,0
1503609562413,-0.576,-0.361,+0.410,+0.608,+0.917,-0.010,-0.401,+3.188,-13.562,+0.125,4, -21, -22, -8, -9, -8, -6, -5,-1.4948654516257254,1.1555494779215125,0
1503609562436,-0.576,-0.359,+0.407,+0.612,+0.974,-0.009,-0.401,-5.375,-25.562,+15.562,-9, -17, -17, -18, -8, 3, 8, -5,-1.492056476250936,1.1473416670512795,0
1503609562458,-0.574,-0.358,+0.402,+0.617,+0.955,+0.011,-0.380,-6.812,-29.188,+26.812,3, 6, 7, -2, -5, -2, -6, -5,-1.4859528905606514,1.136731487088556,0
1503609562481,-0.572,-0.358,+0.399,+0.621,+0.912,-0.015,-0.368,-5.562,-19.812,+31.938,4, 18, 10, 1, -3, -3, -4, -10,-1.4813824453738134,1.131554626443088,0
1503609562495,-0.570,-0.360,+0.398,+0.622,+0.825,-0.036,-0.376,+0.750,+11.188,+13.938,5, -3, 4, 2, -1, 0, 3, 18,-1.4796510660394886,1.1328824488342246,0
1503609562518,-0.571,-0.362,+0.398,+0.620,+0.868,-0.045,-0.440,+9.688,+10.438,-11.312,-4, 3, 5, 10, 7, 4, 4, 8,-1.4848504823114521,1.1360969554493077,0
1503609562533,-0.573,-0.362,+0.398,+0.618,+0.953,-0.007,-0.375,+9.625,+2.000,-18.875,-6, 20, 21, 2, 0, 1, 0, -4,-1.489427175590754,1.136036298829799,0
1503609562555,-0.576,-0.362,+0.398,+0.616,+0.909,+0.039,-0.396,+10.250,+1.188,-13.375,-3, -13, -6, -12, -9, -8, -13, -12,-1.4964086919414994,1.136280513629475,0
1503609562578,-0.578,-0.362,+0.397,+0.615,+0.927,+0.016,-0.389,+11.062,-4.188,-5.625,5, 49, 16, 5, 3, 0, 1, 14,-1.5010516259205355,1.134595721858004,0
1503609562594,-0.578,-0.363,+0.395,+0.615,+0.960,-0.032,-0.373,+6.938,-10.062,+1.688,-6, -14, -7, 2, 1, 1, 2, -5,-1.5024521838130516,1.1324876661678522,0
1503609562616,-0.577,-0.363,+0.394,+0.616,+0.937,-0.037,-0.340,-4.062,-6.125,+9.812,3, -32, -16, -12, -1, 2, -4, 1,-1.500091400583426,1.1305623949951624,0
1503609562638,-0.576,-0.363,+0.395,+0.617,+0.885,+0.053,-0.379,-9.000,+6.688,+8.562,2, 13, 40, 3, 0, 0, -2, -6,-1.4978372820861017,1.1325419837417328,0
1503609563659,-0.519,-0.349,+0.330,+0.707,+0.878,-0.143,-0.477,+23.688,-2.500,+28.750,0, 26, 5, -2, -3, -1, -1, 1,-1.3487617284616158,0.9945697952243205,1
1503609563674,-0.518,-0.354,+0.327,+0.707,+0.890,-0.185,-0.486,+28.938,+3.312,+21.375,-1, -6, -5, -4, -3, -1, -3, -2,-1.3536058739947239,0.9973256935449905,1
1503609563696,-0.516,-0.361,+0.324,+0.706,+0.896,-0.208,-0.500,+30.000,+12.688,+20.562,-5, -13, -6, -3, 2, -5, -3, -3,-1.3591153016023554,1.0030398651393346,1
1503609563718,-0.514,-0.368,+0.322,+0.705,+0.919,-0.192,-0.453,+31.250,+13.875,+26.125,2, -6, 13, 9, 2, 1, 6, 10,-1.3650031857628158,1.010831813096061,1
1503609563734,-0.511,-0.375,+0.319,+0.705,+0.894,-0.196,-0.449,+33.438,+14.750,+32.000,1, -5, -9, -6, 0, -1, 1, 4,-1.3688405191905455,1.0168911155769296,1
1503609563779,-0.508,-0.383,+0.316,+0.704,+0.875,-0.235,-0.500,+36.375,+19.125,+30.125,-24, -7, -8, -2, 0, 0, -2, -8,-1.3743752308520358,1.0246868610285813,1
1503609563780,-0.505,-0.392,+0.313,+0.702,+0.906,-0.262,-0.494,+41.750,+26.250,+26.938,-14, -16, 31, 6, -6, 3, 3, -2,-1.3817365276202127,1.0343375883132253,1
1503609563800,-0.503,-0.401,+0.310,+0.700,+0.902,-0.256,-0.418,+45.688,+21.312,+26.625,-6, 11, -11, 4, 9, 1, -8, -26,-1.3918166668173904,1.0447636145465284,1
1503609563816,-0.501,-0.410,+0.307,+0.698,+0.857,-0.250,-0.345,+45.500,+13.625,+27.562,-3, 8, 3, 2, 1, 0, 0, 10,-1.4022990006968863,1.055566122577872,1
1503609563838,-0.499,-0.419,+0.303,+0.696,+0.810,-0.267,-0.386,+47.188,+21.500,+27.312,27, 0, -24, -18, -14, -7, 0, 6,-1.413053529172436,1.064947095707,1
1503609563854,-0.496,-0.428,+0.300,+0.693,+0.800,-0.291,-0.437,+49.500,+28.562,+25.188,-9, -5, -6, -12, -9, -2, 0, 3,-1.4219461514889404,1.0758206548897198,1
1503609563875,-0.494,-0.437,+0.297,+0.690,+0.824,-0.293,-0.380,+48.000,+24.625,+23.938,17, -12, -15, -2, 2, 2, 1, 3,-1.43356773733619,1.087539734149054,1
1503609563898,-0.491,-0.446,+0.295,+0.688,+0.828,-0.288,-0.341,+40.875,+27.125,+29.125,11, 28, 12, -1, 4, 0, 0, 3,-1.4436507956762619,1.1013148653936482,1
1503609563914,-0.488,-0.454,+0.293,+0.686,+0.800,-0.291,-0.364,+34.188,+29.125,+26.812,-10, -26, -16, -8, -1, 0, -3, -8,-1.4521994714800075,1.1133016974443832,1
1503609563936,-0.486,-0.460,+0.292,+0.684,+0.795,-0.300,-0.432,+34.750,+28.750,+16.750,-7, -12, 3, 4, 1, 2, 0, 4,-1.4594120724306572,1.1233574586748747,1
1503609563958,-0.485,-0.466,+0.291,+0.680,+0.837,-0.322,-0.364,+33.125,+18.625,+6.125,5, 20, 18, 7, -1, -1, -2, -12,-1.4688340296101796,1.133495872129942,1
1503609563974,-0.484,-0.470,+0.290,+0.678,+0.845,-0.321,-0.340,+27.062,+16.062,+10.250,-26, -21, -6, 9, 12, 3, -2, -12,-1.4745421965656413,1.1398249663781714,1
1503609563996,-0.483,-0.474,+0.288,+0.677,+0.834,-0.335,-0.347,+21.438,+12.000,+12.500,-17, -13, -8, -4, -8, -4, 0, -3,-1.4803539252849103,1.144775056031525,1
1503609564018,-0.484,-0.477,+0.287,+0.675,+0.834,-0.327,-0.384,+21.438,+9.688,+4.438,-14, -15, -13, -1, -3, -3, -4, -17,-1.4885511201802686,1.1498337460377284,1
1503609564034,-0.485,-0.481,+0.285,+0.673,+0.841,-0.324,-0.374,+28.250,+5.688,-1.000,-10, 26, 8, -5, -6, -4, -2, -3,-1.4988286629173277,1.1555517941690308,1
1503609564055,-0.487,-0.483,+0.283,+0.670,+0.861,-0.345,-0.335,+24.875,-5.000,-2.688,30, 3, -10, -14, -9, -3, -3, 8,-1.507074205513524,1.1568884129560628,1
1503609564078,-0.488,-0.485,+0.282,+0.669,+0.856,-0.385,-0.339,+18.438,+1.438,-4.188,-12, 36, -2, -4, 0, -2, 1, -5,-1.5133712220146818,1.160033591448682,1
1503609564096,-0.490,-0.487,+0.283,+0.666,+0.851,-0.337,-0.392,+16.438,+14.750,-12.438,-3, -1, 2, 6, 5, 2, 2, -3,-1.5218631886373857,1.166506578548068,1
1503609564115,-0.493,-0.488,+0.282,+0.663,+0.905,-0.317,-0.358,+20.812,+1.062,-12.500,-3, 2, -16, -11, -11, -4, -3, -9,-1.5303275566701406,1.1676916220002602,1
1503609564138,-0.496,-0.489,+0.280,+0.661,+0.899,-0.335,-0.308,+18.188,-15.812,-6.188,-2, 3, -1, 4, 4, 2, 2, -1,-1.538828375406518,1.1674632243488097,1
1503609564154,-0.498,-0.489,+0.278,+0.660,+0.820,-0.336,-0.318,+10.000,-9.625,-3.812,3, -14, -6, 1, -3, -3, 0, 13,-1.5430927182259597,1.1647296155815228,1
1503609564175,-0.498,-0.490,+0.280,+0.659,+0.818,-0.366,-0.317,+2.062,+12.625,-7.250,7, 14, 27, 10, 7, 2, 0, 0,-1.5452400954732797,1.1701705432742786,1
1503609564198,-0.497,-0.490,+0.284,+0.657,+0.901,-0.342,-0.321,-7.625,+22.875,-10.188,9, -5, 4, 3, 1, 0, -3, -7,-1.543121829748358,1.1759494097511465,1
1503609564214,-0.496,-0.490,+0.287,+0.657,+0.923,-0.359,-0.304,-10.875,+12.375,-9.438,-4, -8, -3, -6, -8, 1, -4, -19,-1.541043179279607,1.1805582850501817,1
1503609564236,-0.497,-0.488,+0.290,+0.657,+0.913,-0.324,-0.292,-14.188,+1.188,-8.500,-43, -4, 14, 23, 18, 2, -7, -34,-1.5390859221138156,1.1813058917109758,1
1503609564258,-0.496,-0.487,+0.292,+0.657,+0.861,-0.347,-0.292,-17.438,+6.625,-5.188,1, 34, 10, -3, -2, -1, -3, 3,-1.5348881146810929,1.1819467456336157,1
1503609564274,-0.494,-0.486,+0.295,+0.658,+0.875,-0.335,-0.346,-18.375,+14.500,-0.562,-9, -28, -31, -3, -3, -3, -1, 19,-1.5286200898264903,1.1841474925680613,1
1503609564297,-0.492,-0.486,+0.298,+0.658,+0.887,-0.350,-0.324,-13.438,+16.875,-0.562,-22, -13, -5, 2, 1, 0, -1, -6,-1.5244324996546443,1.1884657092339073,1
1503609564318,-0.491,-0.486,+0.301,+0.658,+0.891,-0.361,-0.303,-10.375,+15.062,-4.625,-2, -6, -5, -6, 1, 0, 2, 6,-1.5224217762149208,1.193196465503915,1
1503609564336,-0.490,-0.485,+0.304,+0.657,+0.924,-0.334,-0.318,-9.812,+12.688,-7.875,-18, -49, -64, -46, -32, -13, -1, -31,-1.518274208712711,1.1954095759285344,1
1503609564355,-0.489,-0.485,+0.305,+0.657,+0.888,-0.305,-0.274,-7.188,+5.688,+3.750,8, -12, 20, 7, 4, 2, 1, 11,-1.5161744367062704,1.1967491191129032,1
1503609564378,-0.487,-0.486,+0.305,+0.659,+0.857,-0.337,-0.279,-8.875,+9.562,+12.375,-2, -3, -4, -11, -6, -4, -1, 15,-1.5140858860773305,1.1987717555585289,1
1503609564394,-0.482,-0.488,+0.307,+0.660,+0.843,-0.388,-0.287,-9.938,+22.188,+15.250,27, 25, 9, 2, 5, 2, 3, -3,-1.5077687235355426,1.2051981659208253,1
1503609564416,-0.478,-0.490,+0.309,+0.661,+0.901,-0.383,-0.265,-10.438,+22.125,+15.312,10, -26, 11, 12, 6, 2, 0, 8,-1.503678314282903,1.2120394030567607,1
1503609564438,-0.474,-0.491,+0.311,+0.662,+0.926,-0.371,-0.247,-11.938,+19.688,+17.188,3, 16, 21, 4, 0, 1, 0, 4,-1.4975219452857724,1.2165967420526085,1
1503609564454,-0.470,-0.492,+0.312,+0.663,+0.910,-0.373,-0.271,-12.875,+14.125,+15.688,-7, -3, -6, 16, 10, 0, -3, -5,-1.4913361948385342,1.2194384578649318,1
1503609564476,-0.466,-0.493,+0.313,+0.664,+0.903,-0.354,-0.317,-9.688,+16.625,+16.062,-9, -4, -20, -9, -1, -2, -2, 7,-1.4851915838190364,1.2222965557783796,1
1503609564498,-0.463,-0.495,+0.314,+0.665,+0.875,-0.354,-0.287,-3.875,+18.688,+18.500,10, -1, -16, -2, 10, -3, -2, 37,-1.4833792573195443,1.2278691490197493,1
1503609564513,-0.460,-0.496,+0.315,+0.666,+0.911,-0.357,-0.250,-6.625,+14.188,+12.875,-11, 7, -6, -15, -13, -4, -5, -31,-1.4794301424399638,1.2311212054067893,1
1503609564535,-0.458,-0.496,+0.316,+0.666,+0.935,-0.361,-0.264,-9.312,+6.000,+8.250,28, 12, -1, 0, -2, 1, 1, -5,-1.4753242578885306,1.2321693925036699,1
1503609564558,-0.457,-0.495,+0.317,+0.668,+0.940,-0.366,-0.278,-14.750,+0.875,+7.438,-24, 11, -6, -13, -9, -2, 3, 7,-1.4713271157792622,1.2316905160871279,1
1503609564574,-0.455,-0.493,+0.318,+0.670,+0.908,-0.319,-0.275,-20.375,-0.562,+10.125,-9, -15, -6, -2, 1, -3, -3, 33,-1.4630621267248085,1.2285398021239886,1
1503609564596,-0.452,-0.491,+0.319,+0.672,+0.856,-0.299,-0.267,-21.000,+7.125,+10.000,7, -4, -36, -12, -8, -6, -7, -56,-1.4527161338502188,1.2250581448320856,1
1503609564618,-0.450,-0.490,+0.323,+0.673,+0.883,-0.313,-0.282,-23.062,+16.188,+3.375,-8, -32, -23, -11, -6, -2, -1, 17,-1.4469538296674707,1.2294227517390144,1
1503609564634,-0.449,-0.487,+0.327,+0.674,+0.937,-0.273,-0.314,-22.125,+10.562,-5.500,-4, -19, -3, 1, 0, 1, -11, -15,-1.4389965050302864,1.2296026375485145,1
1503609564656,-0.451,-0.483,+0.329,+0.674,+0.914,-0.253,-0.304,-18.688,-4.750,-12.500,2, 0, 9, 4, 0, -1, 2, -17,-1.4348659449079344,1.224794617730547,1
1503609564678,-0.453,-0.478,+0.330,+0.676,+0.863,-0.268,-0.286,-20.250,-17.438,-13.500,-3, 2, 21, 8, 4, 2, 2, 43,-1.428844656781336,1.2164988036090847,1
1503609564694,-0.456,-0.473,+0.332,+0.677,+0.825,-0.241,-0.302,-22.625,-12.250,-21.562,-5, 11, 6, -10, -5, -2, -1, 5,-1.425114783333391,1.2102801525392444,1
1503609564716,-0.460,-0.467,+0.336,+0.676,+0.829,-0.215,-0.327,-18.312,-7.062,-32.688,7, -3, 3, 9, 7, 3, 0, -19,-1.421634232610876,1.2055320565871044,1
1503609564738,-0.465,-0.461,+0.339,+0.675,+0.877,-0.250,-0.280,-19.750,-16.062,-39.688,4, -12, -9, -8, -4, -1, 0, -37,-1.4203863387457636,1.199500697428878,1
1503609564754,-0.471,-0.454,+0.342,+0.675,+0.863,-0.265,-0.280,-26.562,-23.750,-43.188,-12, -17, -10, -7, -5, -2, 0, 12,-1.4197079298157749,1.1921399743445218,1
1503609564777,-0.475,-0.447,+0.346,+0.675,+0.822,-0.233,-0.349,-29.125,-13.312,-43.438,9, 27, 9, 6, 4, 2, -1, -7,-1.4151785484146988,1.1861881707888242,1
1503609564798,-0.480,-0.440,+0.350,+0.673,+0.825,-0.191,-0.388,-21.875,-2.750,-46.562,5, 11, -3, -8, -6, -2, -3, -41,-1.4128082762838128,1.1802962403870672,1
1503609564814,-0.487,-0.434,+0.355,+0.670,+0.873,-0.217,-0.327,-18.562,-10.625,-59.625,-7, -11, -11, 3, 17, -3, -1, 21,-1.4169809946394074,1.1789507919844162,1
1503609564837,-0.495,-0.426,+0.359,+0.667,+0.926,-0.234,-0.287,-21.750,-24.062,-73.375,-1, 0, 2, 4, -4, 0, 3, -62,-1.4198134858954463,1.1722110416227416,1
1503609564858,-0.503,-0.417,+0.364,+0.664,+0.888,-0.207,-0.382,-23.000,-17.000,-66.812,4, -3, -3, 0, 1, 2, 1, 1,-1.4214332997572323,1.1656468536136566,1
1503609564876,-0.510,-0.410,+0.367,+0.661,+0.836,-0.140,-0.423,-14.625,-9.500,-59.562,-10, 49, 15, -4, -7, -3, -2, 63,-1.4245892261649074,1.1591332592283938,1
1503609564896,-0.519,-0.404,+0.371,+0.656,+0.830,-0.132,-0.350,-3.750,-13.250,-71.312,-10, -13, -5, -6, -6, -3, -1, 43,-1.4341528640748324,1.1566591382885667,1
1503609564918,-0.527,-0.400,+0.375,+0.649,+0.927,-0.187,-0.351,+0.000,-2.812,-78.375,19, -14, -11, -3, -1, 1, 3, 21,-1.4449044898522418,1.1571420078256578,1
1503609564936,-0.533,-0.397,+0.380,+0.643,+0.936,-0.179,-0.400,-1.375,+11.125,-62.438,0, -11, -4, -2, -2, 1, 3, 9,-1.4532202270143568,1.1611195518283404,1
1503609564956,-0.538,-0.395,+0.384,+0.638,+0.918,-0.141,-0.408,+3.375,+13.125,-51.625,-3, -3, 3, -3, -5, -3, -5, 25,-1.4610584091219465,1.1650799253348274,1
1503609564978,-0.546,-0.393,+0.387,+0.631,+0.975,-0.102,-0.334,+13.312,+4.938,-62.188,3, -35, 0, 3, 0, 1, -3, 55,-1.475568960283409,1.167444774278362,1
1503609565002,-0.553,-0.393,+0.389,+0.624,+1.030,-0.124,-0.272,+19.438,-1.250,-60.625,1, -18, -7, -5, -4, -1, 1, -67,-1.491153758132655,1.171317113257002,1
1503609565016,-0.557,-0.392,+0.391,+0.619,+1.015,-0.126,-0.307,+10.875,-2.000,-42.875,3, 18, -1, -5, -4, -1, 0, -45,-1.4984668697637726,1.1729867702373131,1
1503609565039,-0.561,-0.391,+0.392,+0.615,+0.983,-0.096,-0.296,+6.312,-4.438,-35.125,5, -7, -4, 1, 3, 1, 2, 48,-1.5058689617754162,1.1730317607034029,1
1503609565060,-0.565,-0.391,+0.394,+0.610,+0.966,-0.075,-0.285,+12.250,+5.875,-35.875,9, -17, -8, 0, -1, -3, -5, -13,-1.5149215680084622,1.176571688543823,1
1503609565076,-0.568,-0.393,+0.396,+0.605,+0.979,-0.069,-0.310,+10.250,+18.000,-30.438,-10, -19, -6, 5, 3, -2, -2, -26,-1.5249073362749024,1.1835774117782871,1
1503609565098,-0.568,-0.394,+0.400,+0.601,+0.996,-0.030,-0.295,+2.000,+24.562,-20.875,19, -4, -5, -4, -3, 0, -5, 12,-1.5264538296399055,1.1919862945917943,1
1503609565120,-0.568,-0.396,+0.404,+0.597,+1.040,+0.005,-0.293,+1.938,+26.062,-16.250,5, 3, 0, 9, 4, 1, 9, 30,-1.5296238072025625,1.2023286943369165,1
1503609565138,-0.569,-0.397,+0.407,+0.594,+1.050,-0.015,-0.263,+3.562,+12.938,-17.938,-7, 8, 3, -1, -3, -2, -7, 51,-1.5335211558194166,1.2094543945556981,1
1503609565158,-0.571,-0.397,+0.407,+0.592,+0.990,-0.029,-0.229,+3.938,-7.875,-20.938,-26, -6, 4, 2, 4, -1, 0, -32,-1.5380825413923307,1.2094402510001176,1
1503609565180,-0.575,-0.394,+0.408,+0.590,+0.915,-0.014,-0.287,+1.438,-11.500,-25.688,-7, 17, 13, 6, 5, -1, -2, -101,-1.542525973658204,1.2062710617927201,1
1503609565196,-0.577,-0.393,+0.409,+0.587,+0.909,+0.009,-0.310,+1.125,+4.250,-24.875,1, -3, -4, -2, -3, 1, -1, -46,-1.5455291978592869,1.2060232393641044,1
1503609565218,-0.578,-0.394,+0.411,+0.584,+0.936,+0.004,-0.325,+6.188,+16.000,-17.875,-1, -33, -13, -3, -3, -1, -2, 91,-1.5494176037613434,1.211211524531384,1
1503609565241,-0.581,-0.394,+0.412,+0.581,+0.954,-0.022,-0.272,+9.250,+2.000,-22.812,14, 19, -2, 2, 5, 1, 10, 2,-1.5563881250652318,1.2131255430485623,1
1503609565256,-0.585,-0.392,+0.413,+0.578,+0.936,-0.003,-0.247,+5.312,-9.062,-33.250,-28, -7, -1, -5, -5, 0, 1, -22,-1.5625749395528392,1.2115494853699813,1
1503609565279,-0.588,-0.391,+0.415,+0.574,+0.909,+0.035,-0.287,+3.000,+4.000,-32.188,7, 26, 1, -5, 0, -3, -5, 21,-1.5680451066891774,1.2132440296150806,1
1503609565300,-0.590,-0.391,+0.417,+0.570,+0.910,+0.052,-0.336,+4.875,+19.562,-22.062,-14, -10, -1, -2, -4, -3, -7, 85,-1.5727608899903107,1.2165489960302127,1
1503609565316,-0.591,-0.392,+0.419,+0.567,+0.976,+0.051,-0.313,+4.188,+13.688,-20.312,13, -3, -2, 0, -3, -2, -1, -47,-1.5766939844368713,1.2217609854602192,1
1503609565338,-0.594,-0.390,+0.421,+0.564,+0.996,+0.062,-0.259,+1.500,-3.875,-23.188,0, -33, 7, 8, 2, -2, -6, -36,-1.5806837062549122,1.221882754092461,1
1503609565360,-0.596,-0.388,+0.422,+0.562,+0.980,+0.092,-0.275,-0.625,-7.000,-24.500,0, 51, 16, 3, -2, -3, 1, -10,-1.582346121203506,1.220065072074163,1
1503609565376,-0.599,-0.386,+0.423,+0.559,+0.936,+0.135,-0.325,+2.438,-1.875,-22.938,9, -6, -14, -3, 2, 3, 5, 1,-1.5864479347544649,1.2182293169401552,1
1503609565398,-0.603,-0.384,+0.423,+0.557,+0.978,+0.140,-0.318,+7.938,-11.688,-22.375,-12, -15, -3, -8, -7, -2, -2, 1,-1.5929980432223674,1.2149773999922713,1
1503609565420,-0.607,-0.381,+0.422,+0.555,+1.004,+0.095,-0.283,+8.188,-14.938,-24.188,6, -3, -4, 2, 4, 1, 3, 8,-1.5981371160928572,1.2078863607679977,1
1503609565437,-0.610,-0.379,+0.422,+0.553,+0.966,+0.100,-0.289,+4.375,-14.000,-21.812,20, -6, -16, -9, 0, -6, -7, 2,-1.60244072271902,1.204373509738338,1
1503609565458,-0.612,-0.377,+0.422,+0.552,+0.941,+0.146,-0.320,+1.188,-9.938,-12.000,15, 14, 21, 13, 8, 5, -2, 7,-1.6043365637110178,1.2008951951186713,1
1503609565481,-0.614,-0.376,+0.421,+0.552,+0.968,+0.156,-0.326,+3.312,-10.375,-2.625,19, -11, -16, -4, 1, -2, -2, 9,-1.6077286673856794,1.1976047365428648,1
1503609565497,-0.614,-0.376,+0.420,+0.552,+0.985,+0.105,-0.319,+1.562,-4.938,+2.938,-13, 1, 2, -1, 2, -1, 0, -3,-1.6077565912611842,1.1956252876800266,1
1503609565519,-0.614,-0.376,+0.420,+0.553,+0.948,+0.069,-0.290,-1.750,-3.125,+0.875,10, 0, -7, -5, -3, -3, 2, 4,-1.6077110139527846,1.1959345226315121,1
1503609565534,-0.614,-0.375,+0.419,+0.553,+0.965,+0.110,-0.312,-3.188,-9.562,-2.562,-2, -20, -19, -3, -2, -3, 0, -5,-1.6062599518270246,1.1920991568219692,1
1503609565557,-0.615,-0.373,+0.419,+0.554,+0.967,+0.135,-0.294,-4.750,-10.250,-2.438,3, -8, -2, 0, -1, -2, -12, -14,-1.6056998618631304,1.1889801276945164,1
1503609565579,-0.615,-0.372,+0.420,+0.554,+0.904,+0.154,-0.325,-5.125,-3.938,-0.812,-6, 24, 1, -4, -2, -2, 5, -2,-1.6042057642380636,1.1891098470684225,1
1503609565594,-0.616,-0.371,+0.420,+0.554,+0.898,+0.147,-0.340,-1.312,-2.000,-2.562,-3, -4, -6, 1, 6, 3, 1, 18,-1.6051773628652122,1.1875405146767097,1
1503609565617,-0.616,-0.371,+0.420,+0.554,+0.955,+0.111,-0.342,-0.562,-1.875,-0.562,-3, 39, 34, 9, 0, 0, 0, -1,-1.6051773628652122,1.1875405146767097,1
1503609565641,-0.616,-0.370,+0.419,+0.554,+0.952,+0.099,-0.294,-4.750,-6.625,+2.312,-5, -10, -1, 1, 0, 1, 3, 3,-1.6037406750082974,1.1837102414870806,1
1503609565654,-0.615,-0.369,+0.420,+0.556,+0.905,+0.144,-0.339,-11.125,-4.938,+5.438,7, 11, 13, 5, 2, 2, 2, 11,-1.5997385769483785,1.1842070701670742,1
1503609565677,-0.615,-0.368,+0.420,+0.557,+0.849,+0.176,-0.362,-8.625,-0.312,+8.625,-2, -28, -15, -7, -4, -1, 0, -6,-1.5982458540886864,1.1826864195612246,1
1503609565699,-0.614,-0.368,+0.419,+0.559,+0.880,+0.133,-0.363,-4.688,-1.688,+10.875,-13, -17, -10, -4, -1, -3, -7, -14,-1.5957600793944757,1.1810591669785326,1
1503609565721,-0.613,-0.368,+0.419,+0.559,+0.917,+0.083,-0.332,-0.500,+0.312,+7.000,-5, 3, 5, 0, -1, -1, -1, -5,-1.593320034999124,1.1807779179978612,1
1503609565737,-0.612,-0.369,+0.419,+0.560,+0.929,+0.082,-0.321,-3.250,+1.250,+4.938,8, 8, 10, 2, 2, -1, 0, 1,-1.5923179033194887,1.1826548632341414,1
1503609565758,-0.612,-0.369,+0.419,+0.561,+0.914,+0.090,-0.351,-3.562,+0.250,+3.562,-6, -6, -10, -7, -5, -3, 2, 4,-1.5922914602414173,1.1829733827974287,1
1503609565781,-0.614,-0.367,+0.418,+0.560,+0.906,+0.098,-0.312,+0.000,-9.062,-9.750,-45, -20, -2, 0, -4, -4, -2, -23,-1.5942914374686676,1.1775588829452341,1
1503609565797,-0.615,-0.365,+0.418,+0.560,+0.944,+0.116,-0.298,-3.438,-15.438,-11.812,22, 11, 4, 2, -1, -3, -1, 25,-1.5938318715287678,1.1741736826569629,1
1503609565819,-0.615,-0.364,+0.419,+0.561,+0.945,+0.119,-0.320,-9.312,-5.375,+0.250,20, -20, -15, 0, 2, 1, -2, 0,-1.5923413985349832,1.1746566155842244,1
1503609565843,-0.613,-0.364,+0.420,+0.561,+0.885,+0.145,-0.362,-7.062,+9.625,+10.500,-7, -8, -5, -7, 5, 4, 2, -11,-1.5874321695967302,1.1760844573872047,1
1503609565863,-0.612,-0.365,+0.420,+0.561,+0.897,+0.140,-0.382,-2.938,+11.875,+8.500,-11, -36, -32, -3, -2, 3, 3, -2,-1.5864384246910967,1.1776306241121928,1
1503609565879,-0.611,-0.365,+0.420,+0.563,+0.975,+0.100,-0.318,-7.500,-0.500,+8.312,-10, -7, 3, -2, -1, -1, -2, 7,-1.5839588325223775,1.1779965200073095,1
1503609565901,-0.608,-0.365,+0.421,+0.565,+0.997,+0.085,-0.296,-15.938,-7.188,+13.875,21, 7, 4, 4, 3, -1, -8, 8,-1.5766069757194228,1.179797402172954,1
1503609565917,-0.607,-0.363,+0.420,+0.569,+0.921,+0.122,-0.332,-16.375,-11.812,+14.938,-10, 7, 5, -2, 0, 0, 1, -5,-1.5712342158202848,1.1751758155074943,1
1503609565939,-0.606,-0.362,+0.419,+0.571,+0.862,+0.131,-0.395,-9.000,-6.500,+12.750,-8, -4, -13, -3, 4, 1, -3, -9,-1.5673404712005872,1.171734263002864,1
1503609565962,-0.605,-0.362,+0.418,+0.573,+0.912,+0.070,-0.370,-3.062,-5.125,+8.688,-20, -19, 5, 2, -1, 0, -1, -6,-1.5649106280328449,1.1701098082505348,1
1503609565977,-0.605,-0.362,+0.418,+0.574,+0.961,+0.055,-0.327,-3.938,-4.000,+4.938,-5, 33, 33, 11, 5, 3, 7, 15,-1.564917769760984,1.1704369694432493,1
1503609567401,-0.548,-0.398,+0.329,+0.658,+0.896,-0.152,-0.420,+14.062,-5.750,+15.250,17, 11, 1, 1, -3, -1, -1, 6,-1.4869853533874557,1.078020257358027,2
1503609567417,-0.548,-0.400,+0.326,+0.658,+0.886,-0.165,-0.408,+14.562,-5.000,+14.375,2, 5, 1, 1, 1, 0, 2, 1,-1.4901219178775542,1.076517329600393,2
1503609567439,-0.547,-0.403,+0.324,+0.659,+0.902,-0.178,-0.393,+14.000,-3.312,+16.500,-1, -11, -3, 1, -1, 0, -1, 1,-1.4927910134313613,1.0787400283808943,2
1503609567462,-0.545,-0.406,+0.322,+0.659,+0.909,-0.192,-0.390,+12.562,+2.750,+18.312,9, -30, -16, -5, -3, -3, -2, 0,-1.4931003988079035,1.0803055944776971,2
1503609567483,-0.544,-0.409,+0.319,+0.659,+0.913,-0.186,-0.425,+14.062,+3.375,+17.500,0, 28, 17, 2, 0, -1, 1, 2,-1.4957118111594625,1.080523113331328,2
1503609567498,-0.543,-0.412,+0.317,+0.660,+0.919,-0.190,-0.420,+17.500,+0.438,+17.500,-4, -10, 0, -2, 0, -1, 2, 2,-1.4985131579962954,1.0828772407897904,2
1503609567521,-0.542,-0.416,+0.314,+0.660,+0.920,-0.214,-0.403,+18.875,+0.312,+17.688,2, 6, 2, -2, 0, 0, -2, -4,-1.5029566812775172,1.0852244437679568,2
1503609567543,-0.540,-0.419,+0.311,+0.660,+0.914,-0.234,-0.389,+16.312,+3.062,+23.062,-1, -2, 5, 4, -2, -1, -3, 0,-1.5034269058328458,1.0852261936801724,2
1503609567558,-0.537,-0.424,+0.309,+0.661,+0.908,-0.230,-0.415,+15.062,+10.250,+26.312,5, 6, -4, -4, -1, -2, -2, 0,-1.5053410568633447,1.09102966022859,2
1503609567580,-0.534,-0.428,+0.307,+0.661,+0.906,-0.234,-0.402,+16.125,+12.875,+27.188,-18, 2, 15, 5, 1, -1, -1, -3,-1.5055259185562764,1.0945702144584595,2
1503609567603,-0.531,-0.433,+0.305,+0.661,+0.905,-0.243,-0.398,+18.500,+13.750,+26.125,-3, -7, -13, -4, -3, -3, -2, -2,-1.507637257900199,1.1002724186079813,2
1503609567626,-0.529,-0.438,+0.302,+0.661,+0.906,-0.254,-0.379,+21.625,+9.062,+25.125,3, -4, -7, -2, -2, 0, 0, -1,-1.5121122681867796,1.1047589483530569,2
1503609567640,-0.526,-0.443,+0.299,+0.661,+0.917,-0.282,-0.386,+21.688,+8.812,+27.312,-1, -5, -8, 3, -3, -1, -3, -1,-1.5144665308775642,1.1089680571424176,2
1503609567663,-0.523,-0.448,+0.296,+0.662,+0.898,-0.282,-0.383,+21.000,+11.062,+29.938,-4, 8, 13, 3, 3, 0, -1, -1,-1.5170362101027586,1.1135803129882658,2
1503609567678,-0.520,-0.453,+0.293,+0.662,+0.876,-0.279,-0.388,+21.500,+12.562,+30.500,0, 9, 9, -2, -1, -2, 1, 2,-1.519703337266408,1.118049096356437,2
1503609567701,-0.517,-0.458,+0.291,+0.662,+0.878,-0.283,-0.376,+22.812,+15.688,+28.375,-8, -11, -11, -6, -3, -2, -1, 1,-1.5225783025877047,1.1243565368813817,2
1503609567723,-0.514,-0.464,+0.289,+0.661,+0.890,-0.296,-0.380,+25.312,+17.875,+24.625,-8, 5, 7, 3, 5, 1, -1, -4,-1.5275438001611459,1.1327591844687046,2
1503609567738,-0.512,-0.469,+0.286,+0.660,+0.891,-0.310,-0.365,+27.125,+14.875,+26.188,-4, -17, 3, 4, 3, 1, 1, 0,-1.53290567187114,1.1378222543347973,2
1503609567761,-0.509,-0.474,+0.283,+0.660,+0.875,-0.313,-0.355,+26.750,+11.938,+28.125,-1, -1, -6, -12, -6, -2, 0, 1,-1.536256522681983,1.1428750062930215,2
1503609567783,-0.506,-0.480,+0.280,+0.660,+0.862,-0.315,-0.350,+26.875,+13.250,+28.500,3, -7, -23, -9, -3, -2, -3, -2,-1.5418437907468006,1.1503873074154212,2
1503609567798,-0.504,-0.486,+0.277,+0.659,+0.852,-0.319,-0.348,+29.750,+17.188,+26.938,-1, 6, 7, 4, 0, 0, 1, -2,-1.549829218302658,1.1582888218488243,2
1503609567826,-0.501,-0.492,+0.274,+0.657,+0.854,-0.337,-0.356,+33.250,+19.250,+26.125,10, 6, -5, 0, -3, -1, -1, -4,-1.5558501916421814,1.1657658933112336,2
1503609567843,-0.499,-0.498,+0.271,+0.656,+0.861,-0.353,-0.325,+32.438,+14.188,+24.875,-8, -25, -19, -6, -2, -4, -3, -6,-1.5643179682744874,1.1741294117275465,2
1503609567859,-0.497,-0.503,+0.268,+0.654,+0.860,-0.359,-0.307,+30.812,+10.750,+23.250,3, 15, -7, -3, -2, -2, -4, -3,-1.570835470674731,1.1800712553671544,2
1503609567881,-0.495,-0.508,+0.264,+0.653,+0.856,-0.375,-0.307,+29.188,+10.688,+21.875,1, -3, 4, -2, 0, -1, 0, 1,-1.5775503954322694,1.1848121537253204,2
1503609567903,-0.494,-0.513,+0.262,+0.652,+0.831,-0.370,-0.307,+27.125,+12.438,+18.812,4, 4, -4, 2, 2, 2, 0, -2,-1.5865783563528961,1.19336488615816,2
1503609567918,-0.492,-0.518,+0.260,+0.650,+0.835,-0.379,-0.289,+27.812,+14.625,+14.875,2, 8, 21, 14, 7, 0, -3, -1,-1.59364923900223,1.201457109317908,2
1503609567940,-0.491,-0.522,+0.258,+0.648,+0.847,-0.404,-0.300,+27.125,+15.125,+11.750,5, 0, -4, -1, -3, -1, -1, 3,-1.6007424999752247,1.2075929460115353,2
1503609567964,-0.490,-0.526,+0.256,+0.646,+0.860,-0.413,-0.308,+27.062,+11.375,+9.500,17, 19, -2, -2, -1, -1, 3, 1,-1.6079603880905484,1.213851332801261,2
1503609567978,-0.490,-0.530,+0.254,+0.644,+0.859,-0.420,-0.280,+26.688,+4.500,+6.812,-11, -18, -1, -1, 1, 1, 0, -2,-1.6174105424430965,1.2206374811512521,2
1503609568000,-0.491,-0.533,+0.251,+0.642,+0.846,-0.432,-0.248,+25.000,+0.938,+4.438,-6, 0, -6, -3, -3, -3, -1, -1,-1.626795000983247,1.2238056967287845,2
1503609568023,-0.491,-0.536,+0.249,+0.640,+0.843,-0.428,-0.253,+23.438,+3.750,+4.375,-2, -3, -1, 1, 3, 1, -1, -1,-1.6340950470042346,1.2281979361932427,2
1503609568038,-0.491,-0.539,+0.247,+0.638,+0.818,-0.428,-0.256,+22.500,+5.562,+4.812,1, 18, 21, 4, 0, 0, 0, 2,-1.6414728488127177,1.2326711694854657,2
1503609568060,-0.492,-0.542,+0.246,+0.635,+0.846,-0.446,-0.245,+21.500,+6.312,+0.750,9, -3, 2, -4, -2, 0, 2, 3,-1.6510004390521649,1.2389453057641673,2
1503609568083,-0.492,-0.545,+0.244,+0.633,+0.862,-0.452,-0.229,+21.875,+5.062,+0.312,-7, 12, -1, -4, 3, 1, -1, -5,-1.6585264371758155,1.2435718206317519,2
1503609568098,-0.492,-0.548,+0.243,+0.631,+0.848,-0.456,-0.219,+17.938,+4.438,+3.000,-7, -5, 6, -1, -2, -2, -2, -1,-1.6660135460649572,1.2497609225359325,2
1503609568120,-0.492,-0.550,+0.242,+0.630,+0.847,-0.442,-0.217,+13.688,+2.375,+3.188,-5, -11, -22, -11, -7, -3, 0, -3,-1.6710414944068817,1.2534857183386487,2
1503609568143,-0.492,-0.552,+0.241,+0.629,+0.857,-0.457,-0.202,+10.250,+0.375,+4.125,-1, -2, -3, -2, 4, 0, -3, -3,-1.676095802235507,1.2572404573584401,2
1503609568158,-0.491,-0.553,+0.240,+0.629,+0.843,-0.479,-0.191,+4.375,+2.750,+5.688,-12, -19, 5, 4, -4, 0, -1, -2,-1.676591764816722,1.258097973785452,2
1503609568180,-0.489,-0.555,+0.240,+0.629,+0.833,-0.467,-0.197,-1.375,+9.688,+4.562,-7, -10, -8, -2, -5, -3, -3, -3,-1.677351358195995,1.2627665119565843,2
1503609568196,-0.487,-0.556,+0.242,+0.629,+0.859,-0.458,-0.190,-4.562,+12.062,+4.250,3, 4, 8, 6, 2, 0, -2, 0,-1.6754424300405473,1.2676624457267707,2
1503609568218,-0.485,-0.556,+0.243,+0.629,+0.877,-0.484,-0.196,-9.062,+11.562,+5.500,-2, -4, -7, -6, -4, -1, 0, 0,-1.671238017740594,1.2683825342590265,2
1503609568240,-0.483,-0.556,+0.244,+0.631,+0.855,-0.468,-0.201,-13.625,+9.125,+7.938,3, 3, -4, -2, -1, 0, -2, -6,-1.6668248455483312,1.2694366367209562,2
1503609568263,-0.481,-0.556,+0.245,+0.632,+0.850,-0.451,-0.193,-12.438,+6.938,+10.062,2, -2, -5, -2, 0, -3, -2, 0,-1.6625324339433674,1.2703344657617366,2
1503609568278,-0.478,-0.557,+0.246,+0.634,+0.844,-0.493,-0.204,-9.812,+8.812,+11.438,-4, -2, -7, -8, -5, -3, 0, 2,-1.6585848487860633,1.2737601785008634,2
1503609568300,-0.475,-0.557,+0.246,+0.635,+0.860,-0.519,-0.225,-10.938,+11.062,+10.188,14, 19, 16, 9, 5, 3, -3, 4,-1.6523980207839744,1.2728126657971153,2
1503609568316,-0.472,-0.557,+0.247,+0.636,+0.877,-0.482,-0.230,-10.375,+12.188,+10.938,-14, 10, 14, 6, 3, 1, -1, -2,-1.6461108608874968,1.2733581628618138,2
1503609568338,-0.470,-0.558,+0.248,+0.638,+0.872,-0.458,-0.218,-6.812,+7.188,+12.500,8, -4, -18, -13, -7, -3, 1, 5,-1.6442848351281378,1.2771878801186531,2
1503609568360,-0.469,-0.558,+0.248,+0.639,+0.847,-0.443,-0.204,-4.938,+4.938,+11.688,2, -15, 2, 9, 3, 1, 1, 0,-1.6421808472426118,1.27698350796588,2
1503609568376,-0.467,-0.558,+0.247,+0.640,+0.837,-0.484,-0.189,-7.250,+3.438,+9.625,1, 33, 24, 8, 2, 0, 0, -2,-1.6381378896177095,1.2749032296314373,2
1503609568398,-0.465,-0.558,+0.249,+0.641,+0.853,-0.452,-0.208,-13.375,+8.250,+8.688,-1, -12, -3, -1, 1, 0, -1, -3,-1.6338443657875108,1.277345746268143,2
1503609568420,-0.463,-0.557,+0.251,+0.642,+0.835,-0.430,-0.220,-15.375,+13.062,+6.750,-4, -5, -10, -4, -2, -1, -1, -3,-1.6270641336198608,1.2770638950792945,2
1503609568443,-0.460,-0.556,+0.254,+0.644,+0.848,-0.424,-0.217,-18.125,+14.375,+4.375,-11, -22, -27, -18, -13, -5, -6, -6,-1.6181613465171871,1.2781427882437428,2
1503609568460,-0.459,-0.554,+0.257,+0.645,+0.863,-0.401,-0.221,-21.000,+9.188,+1.625,-11, -12, -15, -3, -3, -2, 1, 5,-1.6109109168731666,1.2771139015813004,2
1503609568482,-0.459,-0.551,+0.260,+0.647,+0.831,-0.410,-0.220,-25.812,+1.062,-5.500,9, -20, -16, -10, -5, -3, 0, -1,-1.6032268639571952,1.273988414424854,2
1503609568503,-0.459,-0.546,+0.264,+0.649,+0.838,-0.405,-0.247,-34.125,-0.875,-13.500,-2, -1, -8, -4, -3, -2, 1, -3,-1.5906948391516988,1.2672020817597394,2
1503609568518,-0.461,-0.540,+0.268,+0.651,+0.863,-0.358,-0.263,-38.125,-5.250,-17.750,-3, 10, 6, -2, -1, -1, -2, -9,-1.5800602542432287,1.2587696626675542,2
1503609568540,-0.462,-0.534,+0.272,+0.654,+0.866,-0.347,-0.239,-40.000,-11.000,-15.875,-4, 3, -12, -5, -6, -1, -2, -2,-1.5676671181510513,1.2504708609257542,2
1503609568563,-0.464,-0.527,+0.276,+0.657,+0.824,-0.365,-0.198,-46.125,-14.562,-19.625,-11, -16, -11, -3, 0, -1, -1, 0,-1.555307891878014,1.240318580761806,2
1503609568578,-0.466,-0.519,+0.282,+0.659,+0.824,-0.373,-0.239,-49.812,-7.625,-30.812,-7, -2, 4, 0, -3, -2, 0, 1,-1.541070956560021,1.2311609406309503,2
1503609568600,-0.468,-0.512,+0.290,+0.659,+0.848,-0.354,-0.310,-45.938,+3.500,-40.188,0, -7, -6, -7, -1, -1, -1, 1,-1.5296020262909282,1.2279262337939907,2
1503609568623,-0.472,-0.505,+0.297,+0.659,+0.885,-0.354,-0.308,-37.688,+2.750,-45.250,0, -21, -10, -3, -3, -2, 3, 2,-1.5227002330943538,1.2242293275452656,2
1503609568638,-0.476,-0.498,+0.303,+0.658,+0.911,-0.369,-0.286,-34.125,-9.438,-47.438,-2, -2, -4, -2, -2, -1, -1, -3,-1.5160785589643837,1.219017093581579,2
1503609568662,-0.481,-0.491,+0.308,+0.658,+0.896,-0.384,-0.285,-34.688,-12.688,-48.312,6, 9, 8, 8, 6, 3, -2, 1,-1.5119452528543558,1.2130411838811404,2
1503609568683,-0.485,-0.484,+0.313,+0.657,+0.864,-0.384,-0.269,-35.812,-9.562,-51.125,0, -17, -15, -8, -3, -2, -1, -2,-1.5059721599723024,1.2067959353757578,2
1503609568698,-0.488,-0.478,+0.320,+0.656,+0.852,-0.357,-0.308,-35.250,+3.812,-52.312,5, 11, 8, 3, 1, -1, -1, -2,-1.500372195083146,1.2062578847551684,2
1503609568721,-0.492,-0.473,+0.329,+0.653,+0.836,-0.317,-0.314,-29.688,+19.312,-56.438,-7, -26, -6, -4, -3, 0, 0, 3,-1.4991900858385132,1.2116385847892188,2
1503609568743,-0.496,-0.469,+0.337,+0.648,+0.885,-0.302,-0.295,-20.250,+21.000,-63.938,2, 8, 3, 0, 2, -2, -1, 0,-1.4999541418546993,1.2171967523435439,2
1503609568758,-0.500,-0.466,+0.346,+0.643,+0.933,-0.315,-0.288,-16.250,+22.625,-65.812,-3, -7, -3, -2, -2, -1, -3, -1,-1.5028638308627613,1.2268822719705166,2
1503609568780,-0.504,-0.463,+0.354,+0.638,+0.958,-0.311,-0.286,-15.125,+20.188,-60.500,0, 21, 8, 1, 0, 0, 1, 0,-1.5057635573351582,1.2349101522316825,2
1503609568803,-0.508,-0.460,+0.361,+0.633,+0.948,-0.251,-0.289,-11.375,+20.125,-58.062,4, -10, -4, -3, -2, 0, -1, 1,-1.5086645326433215,1.2412487351691655,2
1503609568818,-0.512,-0.458,+0.368,+0.626,+0.942,-0.227,-0.274,-3.250,+19.562,-60.938,0, 23, 12, 6, 1, -1, -5, -7,-1.5134181032299623,1.249322007640395,2
1503609568840,-0.517,-0.457,+0.374,+0.620,+0.967,-0.245,-0.242,+1.062,+18.625,-63.812,-5, 5, -2, -8, -4, -1, -1, 2,-1.522280939129915,1.2582528127635422,2
1503609568863,-0.523,-0.455,+0.380,+0.613,+0.985,-0.229,-0.252,+2.625,+15.062,-62.875,-3, -20, -5, 0, 1, 0, -2, -3,-1.531412367042086,1.2651720636156558,2
1503609568885,-0.528,-0.454,+0.385,+0.607,+0.964,-0.176,-0.289,+8.375,+17.188,-54.375,-3, 0, -7, -1, -4, 0, -1, -2,-1.54031833184663,1.2723064497821153,2
1503609568908,-0.533,-0.453,+0.388,+0.600,+0.919,-0.146,-0.267,+14.875,+13.125,-49.812,1, -8, -7, -6, 4, 1, 2, 3,-1.5492040869046912,1.2755285131537952,2
1503609568923,-0.538,-0.453,+0.391,+0.594,+0.956,-0.142,-0.213,+15.312,+7.812,-50.125,-1, -8, 0, -1, -8, 0, 1, 2,-1.5600315849267272,1.281037371357792,2
1503609568938,-0.542,-0.453,+0.395,+0.588,+1.009,-0.142,-0.213,+11.750,+17.000,-45.938,1, 16, 7, 2, 1, -3, -3, -2,-1.5687325515438686,1.2881372664220774,2
1503609568960,-0.544,-0.454,+0.399,+0.582,+1.012,-0.108,-0.265,+9.375,+30.500,-33.562,-2, 0, -3, -3, -4, -1, -2, -6,-1.574918821793291,1.2968035364975525,2
1503609568983,-0.546,-0.455,+0.403,+0.577,+0.963,-0.026,-0.265,+12.750,+24.812,-25.812,-3, -8, 1, -1, -1, -1, -1, -3,-1.581110824150815,1.3057158161533973,2
1503609568998,-0.550,-0.455,+0.404,+0.572,+0.983,+0.026,-0.229,+18.688,+5.688,-28.125,9, 29, 6, -5, -4, -2, 1, 1,-1.5899043897175593,1.307476185967028,2
1503609569020,-0.554,-0.456,+0.407,+0.566,+1.030,+0.012,-0.201,+19.312,+13.125,-31.438,10, 5, 1, 1, -2, 0, 1, -1,-1.6005417759783012,1.3148025380471737,2
1503609569043,-0.556,-0.458,+0.409,+0.561,+1.014,-0.005,-0.195,+13.062,+21.375,-22.312,-38, -15, -5, -2, -1, -3, -2, -6,-1.6086359515118942,1.3220674560559955,2
1503609569058,-0.556,-0.459,+0.411,+0.558,+1.034,+0.005,-0.229,+8.188,+18.750,-4.938,2, -4, -2, -7, -7, 0, -1, 7,-1.610497081429319,1.3272506990823139,2
1503609569080,-0.557,-0.460,+0.411,+0.556,+1.030,-0.013,-0.214,+9.750,+8.000,-4.562,-2, 3, 3, 0, 2, 0, 0, 0,-1.6145756788329109,1.3291308675356897,2
1503609569103,-0.560,-0.460,+0.411,+0.553,+1.012,-0.033,-0.141,+13.375,-8.125,-19.750,-7, -14, -6, -5, 0, -2, -2, -15,-1.621280722468329,1.3292013140765908,2
1503609569118,-0.564,-0.458,+0.411,+0.550,+1.027,-0.016,-0.151,+9.250,-15.812,-25.625,-1, -3, -1, -2, -3, -3, -1, -7,-1.6266328416422366,1.3253814794433063,2
1503609569140,-0.567,-0.456,+0.412,+0.549,+0.997,-0.004,-0.190,+2.875,-6.312,-17.375,2, -10, -4, -6, -3, 0, -1, 16,-1.6296778092234538,1.3236151522873698,2
1503609569165,-0.568,-0.456,+0.412,+0.548,+0.967,+0.016,-0.212,+0.562,-0.875,-5.812,-18, -10, -4, -3, 1, 0, 0, -19,-1.6319457929413501,1.3236366843644074,2
1503609569178,-0.569,-0.455,+0.413,+0.546,+0.984,+0.000,-0.169,+4.438,-3.750,-8.812,-15, 3, -3, -1, 1, -3, -3, -12,-1.6324642824963247,1.3232783216185626,2
1503609569200,-0.572,-0.455,+0.413,+0.544,+0.960,-0.027,-0.161,+7.875,-3.188,-19.938,22, 9, -7, -1, -1, 0, -2, -2,-1.639232992611521,1.323542354738971,2
1503609569223,-0.574,-0.454,+0.414,+0.541,+0.971,-0.022,-0.174,+5.438,+1.375,-23.500,11, 11, 1, -5, -2, 1, 1, 0,-1.6420749938922214,1.3232060219093738,2
1503609569238,-0.575,-0.453,+0.416,+0.539,+0.977,+0.009,-0.195,+2.312,+3.375,-13.625,10, -5, 1, 1, -2, -1, -2, 1,-1.6425747702456608,1.32473008036236,2
1503609569260,-0.577,-0.453,+0.415,+0.538,+1.006,-0.006,-0.238,+5.438,-2.750,-8.438,-19, -17, -6, -2, 0, -1, -2, -9,-1.6471651562897789,1.3230944597959802,2
1503609569283,-0.580,-0.451,+0.414,+0.537,+0.985,-0.032,-0.183,+5.562,-14.000,-15.625,-3, -6, 2, 1, -2, -1, 2, 3,-1.6505207592071782,1.3176103358060596,2
1503609569299,-0.583,-0.448,+0.414,+0.536,+0.955,-0.031,-0.151,+1.000,-22.438,-22.188,-1, -9, -4, -1, -5, -2, -3, -28,-1.6521350678963391,1.3119794632921655,2
1503609569320,-0.586,-0.446,+0.414,+0.535,+0.939,-0.010,-0.185,-0.812,-13.125,-19.750,-10, 4, 0, 1, 3, 0, 2, 11,-1.6555305382533474,1.3083983943447328,2
1503609571263,-0.477,-0.438,+0.320,+0.691,+0.872,-0.320,-0.359,+0.562,+4.188,+11.938,0, 4, -9, -1, 1, -1, 0, 3,-1.4008205414488848,1.1245359364762844,3
1503609571280,-0.476,-0.439,+0.320,+0.692,+0.869,-0.307,-0.376,+0.312,+6.062,+11.438,-4, 2, -3, -6, -3, -1, -1, -1,-1.4007006823025958,1.1265197128095552,3
1503609571303,-0.474,-0.440,+0.319,+0.692,+0.876,-0.304,-0.373,+2.438,+3.250,+11.625,1, 4, 1, -3, 0, -1, 0, -1,-1.3980487234695966,1.12598486816149,3
1503609571323,-0.473,-0.442,+0.318,+0.693,+0.884,-0.312,-0.352,+4.000,+0.000,+12.125,2, 5, 10, 3, 2, 1, 0, 0,-1.3997338006416082,1.1282451439898804,3
1503609571339,-0.472,-0.443,+0.316,+0.693,+0.883,-0.324,-0.354,+4.875,-2.125,+13.125,4, 0, 5, 3, 2, 0, 3, -2,-1.3991562585928228,1.1262905247491821,3
1503609571361,-0.471,-0.444,+0.314,+0.694,+0.858,-0.322,-0.355,+4.688,-2.250,+14.562,-10, -24, 9, 0, -1, -1, -2, -1,-1.3987531306194387,1.1246307887954248,3
1503609571383,-0.469,-0.446,+0.313,+0.695,+0.845,-0.327,-0.358,+5.500,+0.125,+15.000,5, 3, -8, -6, -4, -1, 0, 2,-1.398277654159889,1.126529499903632,3
1503609571399,-0.467,-0.448,+0.311,+0.695,+0.861,-0.340,-0.376,+6.688,+6.125,+14.625,-1, -1, -7, -2, 0, 0, -1, 0,-1.3974968540830803,1.1263346834247119,3
1503609571422,-0.466,-0.451,+0.310,+0.696,+0.873,-0.342,-0.377,+8.688,+7.438,+15.062,-2, -2, -11, -5, -4, -2, -2, -2,-1.4012794486251632,1.13083220273273,3
1503609571444,-0.464,-0.453,+0.308,+0.696,+0.882,-0.342,-0.365,+10.875,+1.250,+16.125,3, 5, 0, -3, -2, -1, -1, 2,-1.4005669430863141,1.1306952641683459,3
1503609571466,-0.463,-0.455,+0.306,+0.696,+0.883,-0.354,-0.355,+11.812,-3.438,+17.312,-4, 33, 14, 5, 1, 1, -1, -4,-1.4020802921683688,1.130995237240915,3
1503609571482,-0.462,-0.458,+0.303,+0.697,+0.871,-0.361,-0.359,+13.562,-3.250,+18.750,-9, -11, -4, 1, 0, -2, -1, -1,-1.405660318655868,1.1319836252248137,3
1503609571503,-0.461,-0.460,+0.299,+0.697,+0.855,-0.358,-0.365,+17.312,-4.062,+20.250,3, -2, -4, -4, -2, -2, -2, -2,-1.4069141645755323,1.128747877739559,3
1503609571525,-0.460,-0.464,+0.295,+0.697,+0.861,-0.370,-0.358,+21.500,-4.375,+22.875,0, -3, -2, 1, 1, 0, -1, -4,-1.4123456696514052,1.1300229391480878,3
1503609571541,-0.459,-0.468,+0.291,+0.697,+0.859,-0.387,-0.362,+25.125,-3.375,+24.500,3, 0, 3, 0, 4, 0, 1, 0,-1.417881266736882,1.1314262808095348,3
1503609571563,-0.457,-0.472,+0.286,+0.697,+0.844,-0.406,-0.354,+27.500,-2.875,+23.312,1, -15, -14, -5, -4, -2, -2, -2,-1.4211757465024384,1.1307481550730911,3
1503609571585,-0.456,-0.477,+0.281,+0.697,+0.853,-0.423,-0.350,+28.062,-2.438,+22.625,-8, -1, 2, -3, -1, 0, -1, -3,-1.4289376906156948,1.1329690518741522,3
1503609571608,-0.455,-0.481,+0.277,+0.696,+0.842,-0.417,-0.349,+29.625,-2.438,+23.312,3, 13, 3, -1, -1, 0, 2, 2,-1.4346976527539506,1.134552110734812,3
1503609571624,-0.454,-0.486,+0.272,+0.695,+0.839,-0.431,-0.322,+30.938,-4.062,+23.125,6, -6, -3, 1, 0, -2, -2, -2,-1.442654528992894,1.13691039640095,3
1503609571645,-0.453,-0.490,+0.268,+0.695,+0.840,-0.450,-0.327,+29.375,-3.000,+21.375,-9, -6, -7, -4, 1, 0, -1, -5,-1.4488218918403035,1.1390710212999555,3
1503609571661,-0.452,-0.495,+0.263,+0.694,+0.841,-0.454,-0.333,+28.875,-1.562,+19.750,-2, -3, -5, -2, -3, -2, -1, 1,-1.4571318434477911,1.1418427532586664,3
1503609571684,-0.452,-0.499,+0.259,+0.693,+0.828,-0.457,-0.327,+29.750,-1.375,+18.125,-1, -1, 5, 3, 1, 0, -1, 3,-1.465654578654225,1.1445552540507422,3
1503609571705,-0.452,-0.503,+0.255,+0.691,+0.831,-0.468,-0.307,+30.188,-2.938,+14.938,-6, -2, -7, -5, -2, -3, -2, -4,-1.4742133148541832,1.1471935013884957,3
1503609571722,-0.452,-0.508,+0.252,+0.689,+0.832,-0.456,-0.305,+30.438,+0.062,+12.188,3, 5, 2, 1, 0, -1, -1, -1,-1.485369259792655,1.1542040759042673,3
1503609571743,-0.452,-0.512,+0.248,+0.687,+0.827,-0.469,-0.308,+30.750,-1.000,+13.438,-4, -1, 5, 10, 1, -1, -2, -1,-1.4942558614894976,1.157207275688843,3
1503609571765,-0.452,-0.516,+0.245,+0.686,+0.814,-0.473,-0.296,+30.562,-2.188,+13.250,3, 0, 1, 3, -1, -2, -2, -6,-1.5034514960321503,1.1622631112091397,3
1503609571782,-0.452,-0.520,+0.241,+0.683,+0.815,-0.485,-0.297,+31.188,-1.000,+8.562,3, -2, -2, -3, -1, 0, -1, 3,-1.5125812995090555,1.1653900568112627,3
